# Version 2.1 - nm, norm@500 to 1, cut digits, bergeron_1750_85.dat_1750
# Wavelength(nm)  Flambda(ergs/cm^s/s/nm)
300.00 0.0343
300.10 0.03443
300.20 0.03455
300.30 0.03468
300.40 0.03481
300.50 0.03493
300.60 0.03506
300.70 0.03519
300.80 0.03531
300.90 0.03544
301.00 0.03556
301.10 0.03569
301.20 0.03581
301.30 0.03594
301.40 0.03607
301.50 0.03619
301.60 0.03632
301.70 0.03644
301.80 0.03656
301.90 0.03669
302.00 0.03682
302.10 0.03695
302.20 0.03708
302.30 0.03721
302.40 0.03734
302.50 0.03748
302.60 0.03761
302.70 0.03774
302.80 0.03787
302.90 0.038
303.00 0.03813
303.10 0.03827
303.20 0.0384
303.30 0.03853
303.40 0.03866
303.50 0.03879
303.60 0.03892
303.70 0.03905
303.80 0.03918
303.90 0.03931
304.00 0.03944
304.10 0.03958
304.20 0.03972
304.30 0.03985
304.40 0.03999
304.50 0.04013
304.60 0.04027
304.70 0.04041
304.80 0.04054
304.90 0.04068
305.00 0.04082
305.10 0.04096
305.20 0.04109
305.30 0.04123
305.40 0.04137
305.50 0.0415
305.60 0.04164
305.70 0.04177
305.80 0.04191
305.90 0.04204
306.00 0.04219
306.10 0.04233
306.20 0.04247
306.30 0.04261
306.40 0.04276
306.50 0.0429
306.60 0.04305
306.70 0.04319
306.80 0.04333
306.90 0.04348
307.00 0.04362
307.10 0.04376
307.20 0.04391
307.30 0.04405
307.40 0.04419
307.50 0.04433
307.60 0.04448
307.70 0.04462
307.80 0.04476
307.90 0.0449
308.00 0.04505
308.10 0.0452
308.20 0.04534
308.30 0.04549
308.40 0.04565
308.50 0.0458
308.60 0.04595
308.70 0.0461
308.80 0.04625
308.90 0.0464
309.00 0.04654
309.10 0.04669
309.20 0.04684
309.30 0.04699
309.40 0.04714
309.50 0.04729
309.60 0.04744
309.70 0.04758
309.80 0.04773
309.90 0.04788
310.00 0.04803
310.10 0.04819
310.20 0.04834
310.30 0.0485
310.40 0.04866
310.50 0.04882
310.60 0.04897
310.70 0.04913
310.80 0.04929
310.90 0.04944
311.00 0.0496
311.10 0.04976
311.20 0.04991
311.30 0.05007
311.40 0.05022
311.50 0.05038
311.60 0.05053
311.70 0.05069
311.80 0.05084
311.90 0.051
312.00 0.05115
312.10 0.0513
312.20 0.05146
312.30 0.05163
312.40 0.05179
312.50 0.05195
312.60 0.05212
312.70 0.05228
312.80 0.05244
312.90 0.05261
313.00 0.05277
313.10 0.05293
313.20 0.05309
313.30 0.05326
313.40 0.05342
313.50 0.05358
313.60 0.05374
313.70 0.0539
313.80 0.05406
313.90 0.05423
314.00 0.05439
314.10 0.05456
314.20 0.05473
314.30 0.0549
314.40 0.05507
314.50 0.05524
314.60 0.05541
314.70 0.05558
314.80 0.05575
314.90 0.05592
315.00 0.05609
315.10 0.05626
315.20 0.05642
315.30 0.05659
315.40 0.05676
315.50 0.05693
315.60 0.0571
315.70 0.05726
315.80 0.05743
315.90 0.0576
316.00 0.05777
316.10 0.05794
316.20 0.05812
316.30 0.0583
316.40 0.05848
316.50 0.05865
316.60 0.05883
316.70 0.05901
316.80 0.05918
316.90 0.05936
317.00 0.05953
317.10 0.05971
317.20 0.05989
317.30 0.06006
317.40 0.06024
317.50 0.06041
317.60 0.06059
317.70 0.06076
317.80 0.06093
317.90 0.06111
318.00 0.06129
318.10 0.06147
318.20 0.06165
318.30 0.06184
318.40 0.06202
318.50 0.0622
318.60 0.06239
318.70 0.06257
318.80 0.06276
318.90 0.06294
319.00 0.06312
319.10 0.0633
319.20 0.06349
319.30 0.06367
319.40 0.06385
319.50 0.06403
319.60 0.06421
319.70 0.0644
319.80 0.06458
319.90 0.06476
320.00 0.06495
320.10 0.06513
320.20 0.06532
320.30 0.06551
320.40 0.06571
320.50 0.0659
320.60 0.06609
320.70 0.06628
320.80 0.06647
320.90 0.06666
321.00 0.06685
321.10 0.06704
321.20 0.06723
321.30 0.06742
321.40 0.06761
321.50 0.0678
321.60 0.06799
321.70 0.06817
321.80 0.06836
321.90 0.06855
322.00 0.06874
322.10 0.06894
322.20 0.06914
322.30 0.06934
322.40 0.06954
322.50 0.06973
322.60 0.06993
322.70 0.07013
322.80 0.07033
322.90 0.07053
323.00 0.07072
323.10 0.07092
323.20 0.07112
323.30 0.07131
323.40 0.07151
323.50 0.07171
323.60 0.0719
323.70 0.0721
323.80 0.07229
323.90 0.07249
324.00 0.07269
324.10 0.07289
324.20 0.0731
324.30 0.0733
324.40 0.07351
324.50 0.07372
324.60 0.07392
324.70 0.07413
324.80 0.07433
324.90 0.07454
325.00 0.07474
325.10 0.07495
325.20 0.07515
325.30 0.07536
325.40 0.07556
325.50 0.07576
325.60 0.07597
325.70 0.07617
325.80 0.07637
325.90 0.07658
326.00 0.07679
326.10 0.07699
326.20 0.07721
326.30 0.07742
326.40 0.07763
326.50 0.07785
326.60 0.07806
326.70 0.07827
326.80 0.07849
326.90 0.0787
327.00 0.07891
327.10 0.07912
327.20 0.07934
327.30 0.07955
327.40 0.07976
327.50 0.07997
327.60 0.08018
327.70 0.08039
327.80 0.0806
327.90 0.08081
328.00 0.08103
328.10 0.08125
328.20 0.08146
328.30 0.08169
328.40 0.08191
328.50 0.08213
328.60 0.08235
328.70 0.08257
328.80 0.08279
328.90 0.08301
329.00 0.08323
329.10 0.08345
329.20 0.08367
329.30 0.08389
329.40 0.08411
329.50 0.08433
329.60 0.08455
329.70 0.08476
329.80 0.08498
329.90 0.0852
330.00 0.08542
330.10 0.08565
330.20 0.08588
330.30 0.08611
330.40 0.08634
330.50 0.08656
330.60 0.08679
330.70 0.08702
330.80 0.08725
330.90 0.08748
331.00 0.08771
331.10 0.08793
331.20 0.08816
331.30 0.08839
331.40 0.08861
331.50 0.08884
331.60 0.08907
331.70 0.08929
331.80 0.08952
331.90 0.08974
332.00 0.08997
332.10 0.0902
332.20 0.09044
332.30 0.09068
332.40 0.09092
332.50 0.09115
332.60 0.09139
332.70 0.09163
332.80 0.09186
332.90 0.0921
333.00 0.09233
333.10 0.09257
333.20 0.0928
333.30 0.09304
333.40 0.09327
333.50 0.09351
333.60 0.09374
333.70 0.09397
333.80 0.09421
333.90 0.09444
334.00 0.09467
334.10 0.09492
334.20 0.09516
334.30 0.09541
334.40 0.09566
334.50 0.0959
334.60 0.09614
334.70 0.09639
334.80 0.09663
334.90 0.09688
335.00 0.09712
335.10 0.09736
335.20 0.09761
335.30 0.09785
335.40 0.09809
335.50 0.09833
335.60 0.09857
335.70 0.09881
335.80 0.09906
335.90 0.0993
336.00 0.09954
336.10 0.09979
336.20 0.1
336.30 0.1003
336.40 0.1006
336.50 0.1008
336.60 0.1011
336.70 0.1013
336.80 0.1016
336.90 0.1018
337.00 0.1021
337.10 0.1023
337.20 0.1026
337.30 0.1028
337.40 0.1031
337.50 0.1033
337.60 0.1036
337.70 0.1038
337.80 0.1041
337.90 0.1043
338.00 0.1046
338.10 0.1048
338.20 0.1051
338.30 0.1053
338.40 0.1056
338.50 0.1059
338.60 0.1061
338.70 0.1064
338.80 0.1066
338.90 0.1069
339.00 0.1072
339.10 0.1074
339.20 0.1077
339.30 0.1079
339.40 0.1082
339.50 0.1085
339.60 0.1087
339.70 0.109
339.80 0.1092
339.90 0.1095
340.00 0.1097
340.10 0.11
340.20 0.1103
340.30 0.1106
340.40 0.1108
340.50 0.1111
340.60 0.1114
340.70 0.1116
340.80 0.1119
340.90 0.1122
341.00 0.1124
341.10 0.1127
341.20 0.113
341.30 0.1132
341.40 0.1135
341.50 0.1138
341.60 0.114
341.70 0.1143
341.80 0.1146
341.90 0.1148
342.00 0.1151
342.10 0.1154
342.20 0.1156
342.30 0.1159
342.40 0.1162
342.50 0.1165
342.60 0.1168
342.70 0.117
342.80 0.1173
342.90 0.1176
343.00 0.1179
343.10 0.1181
343.20 0.1184
343.30 0.1187
343.40 0.119
343.50 0.1192
343.60 0.1195
343.70 0.1198
343.80 0.1201
343.90 0.1203
344.00 0.1206
344.10 0.1209
344.20 0.1212
344.30 0.1215
344.40 0.1217
344.50 0.122
344.60 0.1223
344.70 0.1226
344.80 0.1229
344.90 0.1232
345.00 0.1235
345.10 0.1237
345.20 0.124
345.30 0.1243
345.40 0.1246
345.50 0.1249
345.60 0.1252
345.70 0.1254
345.80 0.1257
345.90 0.126
346.00 0.1263
346.10 0.1266
346.20 0.1269
346.30 0.1272
346.40 0.1275
346.50 0.1277
346.60 0.128
346.70 0.1283
346.80 0.1286
346.90 0.1289
347.00 0.1292
347.10 0.1295
347.20 0.1298
347.30 0.1301
347.40 0.1304
347.50 0.1307
347.60 0.131
347.70 0.1312
347.80 0.1315
347.90 0.1318
348.00 0.1321
348.10 0.1324
348.20 0.1327
348.30 0.133
348.40 0.1333
348.50 0.1336
348.60 0.1339
348.70 0.1342
348.80 0.1345
348.90 0.1348
349.00 0.1351
349.10 0.1354
349.20 0.1357
349.30 0.136
349.40 0.1363
349.50 0.1366
349.60 0.1369
349.70 0.1372
349.80 0.1375
349.90 0.1378
350.00 0.1381
350.10 0.1384
350.20 0.1387
350.30 0.1391
350.40 0.1394
350.50 0.1397
350.60 0.14
350.70 0.1403
350.80 0.1406
350.90 0.1409
351.00 0.1412
351.10 0.1415
351.20 0.1418
351.30 0.1422
351.40 0.1425
351.50 0.1428
351.60 0.1431
351.70 0.1434
351.80 0.1437
351.90 0.144
352.00 0.1443
352.10 0.1446
352.20 0.1449
352.30 0.1453
352.40 0.1456
352.50 0.1459
352.60 0.1462
352.70 0.1465
352.80 0.1469
352.90 0.1472
353.00 0.1475
353.10 0.1478
353.20 0.1481
353.30 0.1484
353.40 0.1488
353.50 0.1491
353.60 0.1494
353.70 0.1497
353.80 0.15
353.90 0.1503
354.00 0.1506
354.10 0.151
354.20 0.1513
354.30 0.1516
354.40 0.152
354.50 0.1523
354.60 0.1526
354.70 0.1529
354.80 0.1533
354.90 0.1536
355.00 0.1539
355.10 0.1542
355.20 0.1546
355.30 0.1549
355.40 0.1552
355.50 0.1555
355.60 0.1559
355.70 0.1562
355.80 0.1565
355.90 0.1568
356.00 0.1572
356.10 0.1575
356.20 0.1578
356.30 0.1582
356.40 0.1585
356.50 0.1588
356.60 0.1592
356.70 0.1595
356.80 0.1598
356.90 0.1602
357.00 0.1605
357.10 0.1608
357.20 0.1612
357.30 0.1615
357.40 0.1618
357.50 0.1622
357.60 0.1625
357.70 0.1628
357.80 0.1632
357.90 0.1635
358.00 0.1638
358.10 0.1642
358.20 0.1645
358.30 0.1649
358.40 0.1652
358.50 0.1656
358.60 0.1659
358.70 0.1663
358.80 0.1666
358.90 0.1669
359.00 0.1673
359.10 0.1676
359.20 0.168
359.30 0.1683
359.40 0.1686
359.50 0.169
359.60 0.1693
359.70 0.1697
359.80 0.17
359.90 0.1703
360.00 0.1707
360.10 0.171
360.20 0.1714
360.30 0.1717
360.40 0.1721
360.50 0.1725
360.60 0.1728
360.70 0.1732
360.80 0.1735
360.90 0.1739
361.00 0.1742
361.10 0.1746
361.20 0.1749
361.30 0.1753
361.40 0.1756
361.50 0.176
361.60 0.1763
361.70 0.1767
361.80 0.177
361.90 0.1774
362.00 0.1777
362.10 0.1781
362.20 0.1784
362.30 0.1788
362.40 0.1791
362.50 0.1795
362.60 0.1799
362.70 0.1802
362.80 0.1806
362.90 0.1809
363.00 0.1813
363.10 0.1816
363.20 0.182
363.30 0.1824
363.40 0.1827
363.50 0.1831
363.60 0.1835
363.70 0.1838
363.80 0.1842
363.90 0.1846
364.00 0.1849
364.10 0.1853
364.20 0.1856
364.30 0.186
364.40 0.1864
364.50 0.1867
364.60 0.1871
364.70 0.1875
364.80 0.1878
364.90 0.1882
365.00 0.1886
365.10 0.189
365.20 0.1893
365.30 0.1897
365.40 0.1901
365.50 0.1904
365.60 0.1908
365.70 0.1912
365.80 0.1915
365.90 0.1919
366.00 0.1923
366.10 0.1926
366.20 0.193
366.30 0.1934
366.40 0.1938
366.50 0.1942
366.60 0.1945
366.70 0.1949
366.80 0.1953
366.90 0.1957
367.00 0.196
367.10 0.1964
367.20 0.1968
367.30 0.1972
367.40 0.1975
367.50 0.1979
367.60 0.1983
367.70 0.1987
367.80 0.199
367.90 0.1994
368.00 0.1998
368.10 0.2002
368.20 0.2006
368.30 0.201
368.40 0.2013
368.50 0.2017
368.60 0.2021
368.70 0.2025
368.80 0.2029
368.90 0.2033
369.00 0.2037
369.10 0.2041
369.20 0.2044
369.30 0.2048
369.40 0.2052
369.50 0.2056
369.60 0.206
369.70 0.2064
369.80 0.2067
369.90 0.2071
370.00 0.2075
370.10 0.2079
370.20 0.2083
370.30 0.2087
370.40 0.2091
370.50 0.2095
370.60 0.2099
370.70 0.2103
370.80 0.2107
370.90 0.2111
371.00 0.2115
371.10 0.2119
371.20 0.2122
371.30 0.2126
371.40 0.213
371.50 0.2134
371.60 0.2138
371.70 0.2142
371.80 0.2146
371.90 0.215
372.00 0.2154
372.10 0.2158
372.20 0.2162
372.30 0.2166
372.40 0.217
372.50 0.2174
372.60 0.2178
372.70 0.2182
372.80 0.2186
372.90 0.219
373.00 0.2194
373.10 0.2198
373.20 0.2202
373.30 0.2206
373.40 0.221
373.50 0.2214
373.60 0.2218
373.70 0.2222
373.80 0.2226
373.90 0.223
374.00 0.2234
374.10 0.2238
374.20 0.2242
374.30 0.2247
374.40 0.2251
374.50 0.2255
374.60 0.2259
374.70 0.2263
374.80 0.2267
374.90 0.2271
375.00 0.2275
375.10 0.228
375.20 0.2284
375.30 0.2288
375.40 0.2292
375.50 0.2296
375.60 0.23
375.70 0.2304
375.80 0.2308
375.90 0.2312
376.00 0.2316
376.10 0.232
376.20 0.2325
376.30 0.2329
376.40 0.2333
376.50 0.2337
376.60 0.2341
376.70 0.2346
376.80 0.235
376.90 0.2354
377.00 0.2358
377.10 0.2362
377.20 0.2366
377.30 0.2371
377.40 0.2375
377.50 0.2379
377.60 0.2383
377.70 0.2388
377.80 0.2392
377.90 0.2396
378.00 0.24
378.10 0.2404
378.20 0.2409
378.30 0.2413
378.40 0.2417
378.50 0.2421
378.60 0.2426
378.70 0.243
378.80 0.2434
378.90 0.2438
379.00 0.2443
379.10 0.2447
379.20 0.2451
379.30 0.2456
379.40 0.246
379.50 0.2464
379.60 0.2468
379.70 0.2473
379.80 0.2477
379.90 0.2481
380.00 0.2486
380.10 0.249
380.20 0.2494
380.30 0.2499
380.40 0.2503
380.50 0.2507
380.60 0.2512
380.70 0.2516
380.80 0.252
380.90 0.2525
381.00 0.2529
381.10 0.2533
381.20 0.2538
381.30 0.2542
381.40 0.2546
381.50 0.2551
381.60 0.2555
381.70 0.256
381.80 0.2564
381.90 0.2568
382.00 0.2573
382.10 0.2577
382.20 0.2582
382.30 0.2586
382.40 0.259
382.50 0.2595
382.60 0.2599
382.70 0.2604
382.80 0.2608
382.90 0.2613
383.00 0.2617
383.10 0.2622
383.20 0.2626
383.30 0.263
383.40 0.2635
383.50 0.2639
383.60 0.2644
383.70 0.2648
383.80 0.2653
383.90 0.2657
384.00 0.2662
384.10 0.2666
384.20 0.2671
384.30 0.2675
384.40 0.268
384.50 0.2684
384.60 0.2689
384.70 0.2693
384.80 0.2698
384.90 0.2702
385.00 0.2707
385.10 0.2711
385.20 0.2716
385.30 0.272
385.40 0.2725
385.50 0.2729
385.60 0.2734
385.70 0.2738
385.80 0.2743
385.90 0.2748
386.00 0.2752
386.10 0.2757
386.20 0.2761
386.30 0.2766
386.40 0.277
386.50 0.2775
386.60 0.278
386.70 0.2784
386.80 0.2789
386.90 0.2793
387.00 0.2798
387.10 0.2803
387.20 0.2807
387.30 0.2812
387.40 0.2816
387.50 0.2821
387.60 0.2826
387.70 0.283
387.80 0.2835
387.90 0.284
388.00 0.2844
388.10 0.2849
388.20 0.2854
388.30 0.2858
388.40 0.2863
388.50 0.2868
388.60 0.2872
388.70 0.2877
388.80 0.2882
388.90 0.2886
389.00 0.2891
389.10 0.2896
389.20 0.29
389.30 0.2905
389.40 0.291
389.50 0.2915
389.60 0.2919
389.70 0.2924
389.80 0.2929
389.90 0.2933
390.00 0.2938
390.10 0.2943
390.20 0.2948
390.30 0.2952
390.40 0.2957
390.50 0.2962
390.60 0.2967
390.70 0.2971
390.80 0.2976
390.90 0.2981
391.00 0.2986
391.10 0.299
391.20 0.2995
391.30 0.3
391.40 0.3005
391.50 0.301
391.60 0.3014
391.70 0.3019
391.80 0.3024
391.90 0.3029
392.00 0.3033
392.10 0.3038
392.20 0.3043
392.30 0.3048
392.40 0.3053
392.50 0.3058
392.60 0.3062
392.70 0.3067
392.80 0.3072
392.90 0.3077
393.00 0.3082
393.10 0.3087
393.20 0.3092
393.30 0.3096
393.40 0.3101
393.50 0.3106
393.60 0.3111
393.70 0.3116
393.80 0.3121
393.90 0.3126
394.00 0.3131
394.10 0.3135
394.20 0.314
394.30 0.3145
394.40 0.315
394.50 0.3155
394.60 0.316
394.70 0.3165
394.80 0.317
394.90 0.3175
395.00 0.318
395.10 0.3185
395.20 0.319
395.30 0.3195
395.40 0.3199
395.50 0.3204
395.60 0.3209
395.70 0.3214
395.80 0.3219
395.90 0.3224
396.00 0.3229
396.10 0.3234
396.20 0.3239
396.30 0.3244
396.40 0.3249
396.50 0.3254
396.60 0.3259
396.70 0.3264
396.80 0.3269
396.90 0.3274
397.00 0.3279
397.10 0.3284
397.20 0.3289
397.30 0.3294
397.40 0.3299
397.50 0.3304
397.60 0.3309
397.70 0.3314
397.80 0.3319
397.90 0.3324
398.00 0.3329
398.10 0.3335
398.20 0.334
398.30 0.3345
398.40 0.335
398.50 0.3355
398.60 0.336
398.70 0.3365
398.80 0.337
398.90 0.3375
399.00 0.338
399.10 0.3385
399.20 0.339
399.30 0.3396
399.40 0.3401
399.50 0.3406
399.60 0.3411
399.70 0.3416
399.80 0.3421
399.90 0.3426
400.00 0.3431
400.10 0.3437
400.20 0.3442
400.30 0.3447
400.40 0.3452
400.50 0.3457
400.60 0.3462
400.70 0.3467
400.80 0.3473
400.90 0.3478
401.00 0.3483
401.10 0.3488
401.20 0.3493
401.30 0.3498
401.40 0.3504
401.50 0.3509
401.60 0.3514
401.70 0.3519
401.80 0.3524
401.90 0.353
402.00 0.3535
402.10 0.354
402.20 0.3545
402.30 0.355
402.40 0.3556
402.50 0.3561
402.60 0.3566
402.70 0.3571
402.80 0.3576
402.90 0.3582
403.00 0.3587
403.10 0.3592
403.20 0.3598
403.30 0.3603
403.40 0.3608
403.50 0.3613
403.60 0.3619
403.70 0.3624
403.80 0.3629
403.90 0.3634
404.00 0.364
404.10 0.3645
404.20 0.365
404.30 0.3656
404.40 0.3661
404.50 0.3666
404.60 0.3672
404.70 0.3677
404.80 0.3682
404.90 0.3687
405.00 0.3693
405.10 0.3698
405.20 0.3703
405.30 0.3709
405.40 0.3714
405.50 0.3719
405.60 0.3725
405.70 0.373
405.80 0.3735
405.90 0.3741
406.00 0.3746
406.10 0.3752
406.20 0.3757
406.30 0.3762
406.40 0.3768
406.50 0.3773
406.60 0.3778
406.70 0.3784
406.80 0.3789
406.90 0.3795
407.00 0.38
407.10 0.3805
407.20 0.3811
407.30 0.3816
407.40 0.3822
407.50 0.3827
407.60 0.3832
407.70 0.3838
407.80 0.3843
407.90 0.3849
408.00 0.3854
408.10 0.386
408.20 0.3865
408.30 0.387
408.40 0.3876
408.50 0.3881
408.60 0.3887
408.70 0.3892
408.80 0.3898
408.90 0.3903
409.00 0.3909
409.10 0.3914
409.20 0.392
409.30 0.3925
409.40 0.3931
409.50 0.3936
409.60 0.3942
409.70 0.3947
409.80 0.3953
409.90 0.3958
410.00 0.3964
410.10 0.3969
410.20 0.3975
410.30 0.398
410.40 0.3986
410.50 0.3991
410.60 0.3997
410.70 0.4002
410.80 0.4008
410.90 0.4013
411.00 0.4019
411.10 0.4024
411.20 0.403
411.30 0.4036
411.40 0.4041
411.50 0.4047
411.60 0.4052
411.70 0.4058
411.80 0.4063
411.90 0.4069
412.00 0.4075
412.10 0.408
412.20 0.4086
412.30 0.4091
412.40 0.4097
412.50 0.4103
412.60 0.4108
412.70 0.4114
412.80 0.4119
412.90 0.4125
413.00 0.4131
413.10 0.4136
413.20 0.4142
413.30 0.4147
413.40 0.4153
413.50 0.4159
413.60 0.4164
413.70 0.417
413.80 0.4176
413.90 0.4181
414.00 0.4187
414.10 0.4193
414.20 0.4198
414.30 0.4204
414.40 0.421
414.50 0.4215
414.60 0.4221
414.70 0.4227
414.80 0.4232
414.90 0.4238
415.00 0.4244
415.10 0.4249
415.20 0.4255
415.30 0.4261
415.40 0.4267
415.50 0.4272
415.60 0.4278
415.70 0.4284
415.80 0.4289
415.90 0.4295
416.00 0.4301
416.10 0.4307
416.20 0.4312
416.30 0.4318
416.40 0.4324
416.50 0.433
416.60 0.4335
416.70 0.4341
416.80 0.4347
416.90 0.4353
417.00 0.4358
417.10 0.4364
417.20 0.437
417.30 0.4376
417.40 0.4381
417.50 0.4387
417.60 0.4393
417.70 0.4399
417.80 0.4405
417.90 0.441
418.00 0.4416
418.10 0.4422
418.20 0.4428
418.30 0.4434
418.40 0.4439
418.50 0.4445
418.60 0.4451
418.70 0.4457
418.80 0.4463
418.90 0.4468
419.00 0.4474
419.10 0.448
419.20 0.4486
419.30 0.4492
419.40 0.4498
419.50 0.4503
419.60 0.4509
419.70 0.4515
419.80 0.4521
419.90 0.4527
420.00 0.4533
420.10 0.4539
420.20 0.4545
420.30 0.455
420.40 0.4556
420.50 0.4562
420.60 0.4568
420.70 0.4574
420.80 0.458
420.90 0.4586
421.00 0.4592
421.10 0.4598
421.20 0.4603
421.30 0.4609
421.40 0.4615
421.50 0.4621
421.60 0.4627
421.70 0.4633
421.80 0.4639
421.90 0.4645
422.00 0.4651
422.10 0.4657
422.20 0.4663
422.30 0.4669
422.40 0.4675
422.50 0.4681
422.60 0.4687
422.70 0.4693
422.80 0.4698
422.90 0.4704
423.00 0.471
423.10 0.4716
423.20 0.4722
423.30 0.4728
423.40 0.4734
423.50 0.474
423.60 0.4746
423.70 0.4752
423.80 0.4758
423.90 0.4764
424.00 0.477
424.10 0.4776
424.20 0.4782
424.30 0.4788
424.40 0.4794
424.50 0.48
424.60 0.4806
424.70 0.4812
424.80 0.4818
424.90 0.4824
425.00 0.483
425.10 0.4836
425.20 0.4843
425.30 0.4849
425.40 0.4855
425.50 0.4861
425.60 0.4867
425.70 0.4873
425.80 0.4879
425.90 0.4885
426.00 0.4891
426.10 0.4897
426.20 0.4903
426.30 0.4909
426.40 0.4915
426.50 0.4921
426.60 0.4927
426.70 0.4934
426.80 0.494
426.90 0.4946
427.00 0.4952
427.10 0.4958
427.20 0.4964
427.30 0.497
427.40 0.4976
427.50 0.4982
427.60 0.4989
427.70 0.4995
427.80 0.5001
427.90 0.5007
428.00 0.5013
428.10 0.5019
428.20 0.5025
428.30 0.5031
428.40 0.5037
428.50 0.5044
428.60 0.505
428.70 0.5056
428.80 0.5062
428.90 0.5068
429.00 0.5074
429.10 0.5081
429.20 0.5087
429.30 0.5093
429.40 0.5099
429.50 0.5105
429.60 0.5111
429.70 0.5118
429.80 0.5124
429.90 0.513
430.00 0.5136
430.10 0.5142
430.20 0.5149
430.30 0.5155
430.40 0.5161
430.50 0.5167
430.60 0.5173
430.70 0.518
430.80 0.5186
430.90 0.5192
431.00 0.5198
431.10 0.5205
431.20 0.5211
431.30 0.5217
431.40 0.5223
431.50 0.523
431.60 0.5236
431.70 0.5242
431.80 0.5248
431.90 0.5255
432.00 0.5261
432.10 0.5267
432.20 0.5273
432.30 0.528
432.40 0.5286
432.50 0.5292
432.60 0.5298
432.70 0.5305
432.80 0.5311
432.90 0.5317
433.00 0.5324
433.10 0.533
433.20 0.5336
433.30 0.5342
433.40 0.5349
433.50 0.5355
433.60 0.5361
433.70 0.5368
433.80 0.5374
433.90 0.538
434.00 0.5387
434.10 0.5393
434.20 0.5399
434.30 0.5405
434.40 0.5412
434.50 0.5418
434.60 0.5424
434.70 0.5431
434.80 0.5437
434.90 0.5444
435.00 0.545
435.10 0.5456
435.20 0.5463
435.30 0.5469
435.40 0.5475
435.50 0.5482
435.60 0.5488
435.70 0.5494
435.80 0.5501
435.90 0.5507
436.00 0.5514
436.10 0.552
436.20 0.5526
436.30 0.5533
436.40 0.5539
436.50 0.5545
436.60 0.5552
436.70 0.5558
436.80 0.5565
436.90 0.5571
437.00 0.5577
437.10 0.5584
437.20 0.559
437.30 0.5597
437.40 0.5603
437.50 0.5609
437.60 0.5616
437.70 0.5622
437.80 0.5629
437.90 0.5635
438.00 0.5642
438.10 0.5648
438.20 0.5654
438.30 0.5661
438.40 0.5667
438.50 0.5674
438.60 0.568
438.70 0.5687
438.80 0.5693
438.90 0.57
439.00 0.5706
439.10 0.5713
439.20 0.5719
439.30 0.5725
439.40 0.5732
439.50 0.5738
439.60 0.5745
439.70 0.5751
439.80 0.5758
439.90 0.5764
440.00 0.5771
440.10 0.5777
440.20 0.5784
440.30 0.579
440.40 0.5797
440.50 0.5803
440.60 0.581
440.70 0.5816
440.80 0.5823
440.90 0.5829
441.00 0.5836
441.10 0.5842
441.20 0.5849
441.30 0.5856
441.40 0.5862
441.50 0.5869
441.60 0.5875
441.70 0.5882
441.80 0.5888
441.90 0.5895
442.00 0.5901
442.10 0.5908
442.20 0.5914
442.30 0.5921
442.40 0.5927
442.50 0.5934
442.60 0.5941
442.70 0.5947
442.80 0.5954
442.90 0.596
443.00 0.5967
443.10 0.5973
443.20 0.598
443.30 0.5987
443.40 0.5993
443.50 0.6
443.60 0.6006
443.70 0.6013
443.80 0.6019
443.90 0.6026
444.00 0.6033
444.10 0.6039
444.20 0.6046
444.30 0.6052
444.40 0.6059
444.50 0.6066
444.60 0.6072
444.70 0.6079
444.80 0.6086
444.90 0.6092
445.00 0.6099
445.10 0.6105
445.20 0.6112
445.30 0.6119
445.40 0.6125
445.50 0.6132
445.60 0.6139
445.70 0.6145
445.80 0.6152
445.90 0.6159
446.00 0.6165
446.10 0.6172
446.20 0.6179
446.30 0.6185
446.40 0.6192
446.50 0.6198
446.60 0.6205
446.70 0.6212
446.80 0.6218
446.90 0.6225
447.00 0.6232
447.10 0.6238
447.20 0.6245
447.30 0.6252
447.40 0.6259
447.50 0.6265
447.60 0.6272
447.70 0.6279
447.80 0.6285
447.90 0.6292
448.00 0.6299
448.10 0.6305
448.20 0.6312
448.30 0.6319
448.40 0.6325
448.50 0.6332
448.60 0.6339
448.70 0.6346
448.80 0.6352
448.90 0.6359
449.00 0.6366
449.10 0.6373
449.20 0.6379
449.30 0.6386
449.40 0.6393
449.50 0.6399
449.60 0.6406
449.70 0.6413
449.80 0.642
449.90 0.6427
450.00 0.6433
450.10 0.644
450.20 0.6447
450.30 0.6453
450.40 0.646
450.50 0.6467
450.60 0.6474
450.70 0.6481
450.80 0.6487
450.90 0.6494
451.00 0.6501
451.10 0.6508
451.20 0.6514
451.30 0.6521
451.40 0.6528
451.50 0.6535
451.60 0.6541
451.70 0.6548
451.80 0.6555
451.90 0.6562
452.00 0.6569
452.10 0.6575
452.20 0.6582
452.30 0.6589
452.40 0.6596
452.50 0.6603
452.60 0.661
452.70 0.6616
452.80 0.6623
452.90 0.663
453.00 0.6637
453.10 0.6644
453.20 0.665
453.30 0.6657
453.40 0.6664
453.50 0.6671
453.60 0.6678
453.70 0.6685
453.80 0.6691
453.90 0.6698
454.00 0.6705
454.10 0.6712
454.20 0.6719
454.30 0.6726
454.40 0.6732
454.50 0.6739
454.60 0.6746
454.70 0.6753
454.80 0.676
454.90 0.6767
455.00 0.6774
455.10 0.6781
455.20 0.6787
455.30 0.6794
455.40 0.6801
455.50 0.6808
455.60 0.6815
455.70 0.6822
455.80 0.6829
455.90 0.6836
456.00 0.6842
456.10 0.6849
456.20 0.6856
456.30 0.6863
456.40 0.687
456.50 0.6877
456.60 0.6884
456.70 0.6891
456.80 0.6898
456.90 0.6904
457.00 0.6911
457.10 0.6918
457.20 0.6925
457.30 0.6932
457.40 0.6939
457.50 0.6946
457.60 0.6953
457.70 0.696
457.80 0.6967
457.90 0.6974
458.00 0.698
458.10 0.6987
458.20 0.6994
458.30 0.7001
458.40 0.7008
458.50 0.7015
458.60 0.7022
458.70 0.7029
458.80 0.7036
458.90 0.7043
459.00 0.705
459.10 0.7057
459.20 0.7064
459.30 0.7071
459.40 0.7078
459.50 0.7085
459.60 0.7092
459.70 0.7099
459.80 0.7105
459.90 0.7112
460.00 0.7119
460.10 0.7126
460.20 0.7133
460.30 0.714
460.40 0.7147
460.50 0.7154
460.60 0.7161
460.70 0.7168
460.80 0.7175
460.90 0.7182
461.00 0.7189
461.10 0.7196
461.20 0.7203
461.30 0.721
461.40 0.7217
461.50 0.7224
461.60 0.7231
461.70 0.7238
461.80 0.7245
461.90 0.7252
462.00 0.7259
462.10 0.7266
462.20 0.7273
462.30 0.728
462.40 0.7287
462.50 0.7294
462.60 0.7301
462.70 0.7308
462.80 0.7315
462.90 0.7322
463.00 0.7329
463.10 0.7336
463.20 0.7343
463.30 0.735
463.40 0.7357
463.50 0.7364
463.60 0.7371
463.70 0.7378
463.80 0.7385
463.90 0.7393
464.00 0.74
464.10 0.7407
464.20 0.7414
464.30 0.7421
464.40 0.7428
464.50 0.7435
464.60 0.7442
464.70 0.7449
464.80 0.7456
464.90 0.7463
465.00 0.747
465.10 0.7477
465.20 0.7484
465.30 0.7491
465.40 0.7498
465.50 0.7505
465.60 0.7512
465.70 0.752
465.80 0.7527
465.90 0.7534
466.00 0.7541
466.10 0.7548
466.20 0.7555
466.30 0.7562
466.40 0.7569
466.50 0.7576
466.60 0.7583
466.70 0.759
466.80 0.7597
466.90 0.7604
467.00 0.7611
467.10 0.7618
467.20 0.7626
467.30 0.7633
467.40 0.764
467.50 0.7647
467.60 0.7654
467.70 0.7661
467.80 0.7668
467.90 0.7675
468.00 0.7682
468.10 0.7689
468.20 0.7697
468.30 0.7704
468.40 0.7711
468.50 0.7718
468.60 0.7725
468.70 0.7732
468.80 0.7739
468.90 0.7746
469.00 0.7754
469.10 0.7761
469.20 0.7768
469.30 0.7775
469.40 0.7782
469.50 0.7789
469.60 0.7796
469.70 0.7804
469.80 0.7811
469.90 0.7818
470.00 0.7825
470.10 0.7832
470.20 0.7839
470.30 0.7846
470.40 0.7853
470.50 0.7861
470.60 0.7868
470.70 0.7875
470.80 0.7882
470.90 0.7889
471.00 0.7896
471.10 0.7903
471.20 0.7911
471.30 0.7918
471.40 0.7925
471.50 0.7932
471.60 0.7939
471.70 0.7946
471.80 0.7954
471.90 0.7961
472.00 0.7968
472.10 0.7975
472.20 0.7982
472.30 0.7989
472.40 0.7996
472.50 0.8004
472.60 0.8011
472.70 0.8018
472.80 0.8025
472.90 0.8032
473.00 0.8039
473.10 0.8047
473.20 0.8054
473.30 0.8061
473.40 0.8068
473.50 0.8075
473.60 0.8083
473.70 0.809
473.80 0.8097
473.90 0.8104
474.00 0.8111
474.10 0.8118
474.20 0.8126
474.30 0.8133
474.40 0.814
474.50 0.8147
474.60 0.8154
474.70 0.8162
474.80 0.8169
474.90 0.8176
475.00 0.8183
475.10 0.819
475.20 0.8198
475.30 0.8205
475.40 0.8212
475.50 0.8219
475.60 0.8226
475.70 0.8234
475.80 0.8241
475.90 0.8248
476.00 0.8255
476.10 0.8262
476.20 0.827
476.30 0.8277
476.40 0.8284
476.50 0.8291
476.60 0.8299
476.70 0.8306
476.80 0.8313
476.90 0.832
477.00 0.8327
477.10 0.8335
477.20 0.8342
477.30 0.8349
477.40 0.8356
477.50 0.8364
477.60 0.8371
477.70 0.8378
477.80 0.8385
477.90 0.8392
478.00 0.84
478.10 0.8407
478.20 0.8414
478.30 0.8421
478.40 0.8429
478.50 0.8436
478.60 0.8443
478.70 0.845
478.80 0.8458
478.90 0.8465
479.00 0.8472
479.10 0.8479
479.20 0.8486
479.30 0.8494
479.40 0.8501
479.50 0.8508
479.60 0.8515
479.70 0.8523
479.80 0.853
479.90 0.8537
480.00 0.8544
480.10 0.8552
480.20 0.8559
480.30 0.8566
480.40 0.8573
480.50 0.8581
480.60 0.8588
480.70 0.8595
480.80 0.8602
480.90 0.861
481.00 0.8617
481.10 0.8624
481.20 0.8631
481.30 0.8639
481.40 0.8646
481.50 0.8653
481.60 0.866
481.70 0.8668
481.80 0.8675
481.90 0.8682
482.00 0.8689
482.10 0.8697
482.20 0.8704
482.30 0.8711
482.40 0.8719
482.50 0.8726
482.60 0.8733
482.70 0.874
482.80 0.8748
482.90 0.8755
483.00 0.8762
483.10 0.8769
483.20 0.8777
483.30 0.8784
483.40 0.8791
483.50 0.8799
483.60 0.8806
483.70 0.8813
483.80 0.882
483.90 0.8828
484.00 0.8835
484.10 0.8842
484.20 0.8849
484.30 0.8857
484.40 0.8864
484.50 0.8871
484.60 0.8878
484.70 0.8886
484.80 0.8893
484.90 0.89
485.00 0.8908
485.10 0.8915
485.20 0.8922
485.30 0.8929
485.40 0.8937
485.50 0.8944
485.60 0.8951
485.70 0.8959
485.80 0.8966
485.90 0.8973
486.00 0.898
486.10 0.8988
486.20 0.8995
486.30 0.9002
486.40 0.9009
486.50 0.9017
486.60 0.9024
486.70 0.9031
486.80 0.9039
486.90 0.9046
487.00 0.9053
487.10 0.906
487.20 0.9068
487.30 0.9075
487.40 0.9082
487.50 0.909
487.60 0.9097
487.70 0.9104
487.80 0.9112
487.90 0.9119
488.00 0.9126
488.10 0.9133
488.20 0.9141
488.30 0.9148
488.40 0.9155
488.50 0.9163
488.60 0.917
488.70 0.9177
488.80 0.9184
488.90 0.9192
489.00 0.9199
489.10 0.9206
489.20 0.9214
489.30 0.9221
489.40 0.9228
489.50 0.9235
489.60 0.9243
489.70 0.925
489.80 0.9257
489.90 0.9265
490.00 0.9272
490.10 0.9279
490.20 0.9286
490.30 0.9294
490.40 0.9301
490.50 0.9308
490.60 0.9316
490.70 0.9323
490.80 0.933
490.90 0.9338
491.00 0.9345
491.10 0.9352
491.20 0.9359
491.30 0.9367
491.40 0.9374
491.50 0.9381
491.60 0.9389
491.70 0.9396
491.80 0.9403
491.90 0.941
492.00 0.9418
492.10 0.9425
492.20 0.9432
492.30 0.944
492.40 0.9447
492.50 0.9454
492.60 0.9461
492.70 0.9469
492.80 0.9476
492.90 0.9483
493.00 0.9491
493.10 0.9498
493.20 0.9505
493.30 0.9512
493.40 0.952
493.50 0.9527
493.60 0.9534
493.70 0.9541
493.80 0.9549
493.90 0.9556
494.00 0.9563
494.10 0.957
494.20 0.9578
494.30 0.9585
494.40 0.9592
494.50 0.96
494.60 0.9607
494.70 0.9615
494.80 0.9622
494.90 0.9629
495.00 0.9637
495.10 0.9644
495.20 0.9651
495.30 0.9659
495.40 0.9666
495.50 0.9673
495.60 0.968
495.70 0.9687
495.80 0.9695
495.90 0.9702
496.00 0.9709
496.10 0.9716
496.20 0.9723
496.30 0.9731
496.40 0.9738
496.50 0.9746
496.60 0.9753
496.70 0.976
496.80 0.9768
496.90 0.9775
497.00 0.9782
497.10 0.9789
497.20 0.9797
497.30 0.9804
497.40 0.9811
497.50 0.9819
497.60 0.9826
497.70 0.9833
497.80 0.984
497.90 0.9848
498.00 0.9855
498.10 0.9862
498.20 0.9869
498.30 0.9877
498.40 0.9884
498.50 0.9891
498.60 0.9898
498.70 0.9905
498.80 0.9913
498.90 0.992
499.00 0.9927
499.10 0.9934
499.20 0.9941
499.30 0.9949
499.40 0.9956
499.50 0.9963
499.60 0.9971
499.70 0.9978
499.80 0.9985
499.90 0.9993
500.00 1
500.10 1.001
500.20 1.001
500.30 1.002
500.40 1.003
500.50 1.004
500.60 1.004
500.70 1.005
500.80 1.006
500.90 1.007
501.00 1.007
501.10 1.008
501.20 1.009
501.30 1.009
501.40 1.01
501.50 1.011
501.60 1.012
501.70 1.012
501.80 1.013
501.90 1.014
502.00 1.014
502.10 1.015
502.20 1.016
502.30 1.017
502.40 1.017
502.50 1.018
502.60 1.019
502.70 1.02
502.80 1.02
502.90 1.021
503.00 1.022
503.10 1.022
503.20 1.023
503.30 1.024
503.40 1.025
503.50 1.025
503.60 1.026
503.70 1.027
503.80 1.027
503.90 1.028
504.00 1.029
504.10 1.03
504.20 1.03
504.30 1.031
504.40 1.032
504.50 1.032
504.60 1.033
504.70 1.034
504.80 1.035
504.90 1.035
505.00 1.036
505.10 1.037
505.20 1.037
505.30 1.038
505.40 1.039
505.50 1.04
505.60 1.04
505.70 1.041
505.80 1.042
505.90 1.042
506.00 1.043
506.10 1.044
506.20 1.045
506.30 1.045
506.40 1.046
506.50 1.047
506.60 1.047
506.70 1.048
506.80 1.049
506.90 1.05
507.00 1.05
507.10 1.051
507.20 1.052
507.30 1.052
507.40 1.053
507.50 1.054
507.60 1.055
507.70 1.055
507.80 1.056
507.90 1.057
508.00 1.057
508.10 1.058
508.20 1.059
508.30 1.06
508.40 1.06
508.50 1.061
508.60 1.062
508.70 1.062
508.80 1.063
508.90 1.064
509.00 1.065
509.10 1.065
509.20 1.066
509.30 1.067
509.40 1.067
509.50 1.068
509.60 1.069
509.70 1.07
509.80 1.07
509.90 1.071
510.00 1.072
510.10 1.072
510.20 1.073
510.30 1.074
510.40 1.074
510.50 1.075
510.60 1.076
510.70 1.077
510.80 1.077
510.90 1.078
511.00 1.079
511.10 1.079
511.20 1.08
511.30 1.081
511.40 1.082
511.50 1.082
511.60 1.083
511.70 1.084
511.80 1.084
511.90 1.085
512.00 1.086
512.10 1.087
512.20 1.087
512.30 1.088
512.40 1.089
512.50 1.089
512.60 1.09
512.70 1.091
512.80 1.091
512.90 1.092
513.00 1.093
513.10 1.094
513.20 1.094
513.30 1.095
513.40 1.096
513.50 1.096
513.60 1.097
513.70 1.098
513.80 1.098
513.90 1.099
514.00 1.1
514.10 1.101
514.20 1.101
514.30 1.102
514.40 1.103
514.50 1.103
514.60 1.104
514.70 1.105
514.80 1.105
514.90 1.106
515.00 1.107
515.10 1.108
515.20 1.108
515.30 1.109
515.40 1.11
515.50 1.11
515.60 1.111
515.70 1.112
515.80 1.112
515.90 1.113
516.00 1.114
516.10 1.115
516.20 1.115
516.30 1.116
516.40 1.117
516.50 1.117
516.60 1.118
516.70 1.119
516.80 1.119
516.90 1.12
517.00 1.121
517.10 1.121
517.20 1.122
517.30 1.123
517.40 1.124
517.50 1.124
517.60 1.125
517.70 1.126
517.80 1.126
517.90 1.127
518.00 1.128
518.10 1.128
518.20 1.129
518.30 1.13
518.40 1.13
518.50 1.131
518.60 1.132
518.70 1.133
518.80 1.133
518.90 1.134
519.00 1.135
519.10 1.135
519.20 1.136
519.30 1.137
519.40 1.137
519.50 1.138
519.60 1.139
519.70 1.139
519.80 1.14
519.90 1.141
520.00 1.141
520.10 1.142
520.20 1.143
520.30 1.143
520.40 1.144
520.50 1.145
520.60 1.145
520.70 1.146
520.80 1.147
520.90 1.147
521.00 1.148
521.10 1.149
521.20 1.15
521.30 1.15
521.40 1.151
521.50 1.152
521.60 1.152
521.70 1.153
521.80 1.154
521.90 1.154
522.00 1.155
522.10 1.156
522.20 1.156
522.30 1.157
522.40 1.158
522.50 1.158
522.60 1.159
522.70 1.16
522.80 1.16
522.90 1.161
523.00 1.162
523.10 1.162
523.20 1.163
523.30 1.164
523.40 1.164
523.50 1.165
523.60 1.166
523.70 1.166
523.80 1.167
523.90 1.168
524.00 1.168
524.10 1.169
524.20 1.17
524.30 1.17
524.40 1.171
524.50 1.172
524.60 1.172
524.70 1.173
524.80 1.174
524.90 1.174
525.00 1.175
525.10 1.176
525.20 1.176
525.30 1.177
525.40 1.178
525.50 1.178
525.60 1.179
525.70 1.18
525.80 1.18
525.90 1.181
526.00 1.181
526.10 1.182
526.20 1.183
526.30 1.183
526.40 1.184
526.50 1.185
526.60 1.185
526.70 1.186
526.80 1.187
526.90 1.187
527.00 1.188
527.10 1.189
527.20 1.189
527.30 1.19
527.40 1.191
527.50 1.191
527.60 1.192
527.70 1.193
527.80 1.193
527.90 1.194
528.00 1.195
528.10 1.195
528.20 1.196
528.30 1.197
528.40 1.197
528.50 1.198
528.60 1.198
528.70 1.199
528.80 1.2
528.90 1.2
529.00 1.201
529.10 1.202
529.20 1.202
529.30 1.203
529.40 1.204
529.50 1.204
529.60 1.205
529.70 1.205
529.80 1.206
529.90 1.207
530.00 1.207
530.10 1.208
530.20 1.209
530.30 1.209
530.40 1.21
530.50 1.211
530.60 1.211
530.70 1.212
530.80 1.212
530.90 1.213
531.00 1.214
531.10 1.214
531.20 1.215
531.30 1.216
531.40 1.216
531.50 1.217
531.60 1.217
531.70 1.218
531.80 1.219
531.90 1.219
532.00 1.22
532.10 1.22
532.20 1.221
532.30 1.222
532.40 1.222
532.50 1.223
532.60 1.224
532.70 1.224
532.80 1.225
532.90 1.225
533.00 1.226
533.10 1.227
533.20 1.227
533.30 1.228
533.40 1.228
533.50 1.229
533.60 1.23
533.70 1.23
533.80 1.231
533.90 1.232
534.00 1.232
534.10 1.233
534.20 1.233
534.30 1.234
534.40 1.235
534.50 1.235
534.60 1.236
534.70 1.236
534.80 1.237
534.90 1.238
535.00 1.238
535.10 1.239
535.20 1.239
535.30 1.24
535.40 1.241
535.50 1.241
535.60 1.242
535.70 1.242
535.80 1.243
535.90 1.243
536.00 1.244
536.10 1.245
536.20 1.245
536.30 1.246
536.40 1.246
536.50 1.247
536.60 1.248
536.70 1.248
536.80 1.249
536.90 1.249
537.00 1.25
537.10 1.251
537.20 1.251
537.30 1.252
537.40 1.252
537.50 1.253
537.60 1.253
537.70 1.254
537.80 1.255
537.90 1.255
538.00 1.256
538.10 1.256
538.20 1.257
538.30 1.257
538.40 1.258
538.50 1.259
538.60 1.259
538.70 1.26
538.80 1.26
538.90 1.261
539.00 1.261
539.10 1.262
539.20 1.263
539.30 1.263
539.40 1.264
539.50 1.264
539.60 1.265
539.70 1.265
539.80 1.266
539.90 1.266
540.00 1.267
540.10 1.268
540.20 1.268
540.30 1.269
540.40 1.269
540.50 1.27
540.60 1.27
540.70 1.271
540.80 1.271
540.90 1.272
541.00 1.273
541.10 1.273
541.20 1.274
541.30 1.274
541.40 1.275
541.50 1.275
541.60 1.276
541.70 1.276
541.80 1.277
541.90 1.277
542.00 1.278
542.10 1.279
542.20 1.279
542.30 1.28
542.40 1.28
542.50 1.281
542.60 1.281
542.70 1.282
542.80 1.282
542.90 1.283
543.00 1.283
543.10 1.284
543.20 1.284
543.30 1.285
543.40 1.285
543.50 1.286
543.60 1.286
543.70 1.287
543.80 1.287
543.90 1.288
544.00 1.288
544.10 1.289
544.20 1.289
544.30 1.29
544.40 1.29
544.50 1.291
544.60 1.291
544.70 1.292
544.80 1.292
544.90 1.293
545.00 1.294
545.10 1.294
545.20 1.295
545.30 1.295
545.40 1.295
545.50 1.296
545.60 1.296
545.70 1.297
545.80 1.297
545.90 1.298
546.00 1.298
546.10 1.299
546.20 1.299
546.30 1.3
546.40 1.3
546.50 1.301
546.60 1.301
546.70 1.302
546.80 1.302
546.90 1.303
547.00 1.303
547.10 1.304
547.20 1.304
547.30 1.305
547.40 1.305
547.50 1.306
547.60 1.306
547.70 1.307
547.80 1.307
547.90 1.308
548.00 1.308
548.10 1.308
548.20 1.309
548.30 1.309
548.40 1.31
548.50 1.31
548.60 1.311
548.70 1.311
548.80 1.312
548.90 1.312
549.00 1.313
549.10 1.313
549.20 1.314
549.30 1.314
549.40 1.314
549.50 1.315
549.60 1.315
549.70 1.316
549.80 1.316
549.90 1.317
550.00 1.317
550.10 1.318
550.20 1.318
550.30 1.318
550.40 1.319
550.50 1.319
550.60 1.32
550.70 1.32
550.80 1.321
550.90 1.321
551.00 1.321
551.10 1.322
551.20 1.322
551.30 1.323
551.40 1.323
551.50 1.324
551.60 1.324
551.70 1.324
551.80 1.325
551.90 1.325
552.00 1.326
552.10 1.326
552.20 1.326
552.30 1.327
552.40 1.327
552.50 1.328
552.60 1.328
552.70 1.328
552.80 1.329
552.90 1.329
553.00 1.33
553.10 1.33
553.20 1.33
553.30 1.331
553.40 1.331
553.50 1.332
553.60 1.332
553.70 1.332
553.80 1.333
553.90 1.333
554.00 1.333
554.10 1.334
554.20 1.334
554.30 1.334
554.40 1.335
554.50 1.335
554.60 1.336
554.70 1.336
554.80 1.336
554.90 1.337
555.00 1.337
555.10 1.337
555.20 1.338
555.30 1.338
555.40 1.338
555.50 1.339
555.60 1.339
555.70 1.339
555.80 1.34
555.90 1.34
556.00 1.34
556.10 1.341
556.20 1.341
556.30 1.341
556.40 1.342
556.50 1.342
556.60 1.342
556.70 1.343
556.80 1.343
556.90 1.343
557.00 1.344
557.10 1.344
557.20 1.344
557.30 1.345
557.40 1.345
557.50 1.345
557.60 1.346
557.70 1.346
557.80 1.346
557.90 1.346
558.00 1.347
558.10 1.347
558.20 1.347
558.30 1.348
558.40 1.348
558.50 1.348
558.60 1.349
558.70 1.349
558.80 1.349
558.90 1.349
559.00 1.35
559.10 1.35
559.20 1.35
559.30 1.351
559.40 1.351
559.50 1.351
559.60 1.351
559.70 1.352
559.80 1.352
559.90 1.352
560.00 1.353
560.10 1.353
560.20 1.353
560.30 1.353
560.40 1.354
560.50 1.354
560.60 1.354
560.70 1.354
560.80 1.355
560.90 1.355
561.00 1.355
561.10 1.356
561.20 1.356
561.30 1.356
561.40 1.356
561.50 1.357
561.60 1.357
561.70 1.357
561.80 1.357
561.90 1.358
562.00 1.358
562.10 1.358
562.20 1.358
562.30 1.358
562.40 1.359
562.50 1.359
562.60 1.359
562.70 1.359
562.80 1.36
562.90 1.36
563.00 1.36
563.10 1.36
563.20 1.361
563.30 1.361
563.40 1.361
563.50 1.361
563.60 1.361
563.70 1.362
563.80 1.362
563.90 1.362
564.00 1.362
564.10 1.362
564.20 1.363
564.30 1.363
564.40 1.363
564.50 1.363
564.60 1.363
564.70 1.364
564.80 1.364
564.90 1.364
565.00 1.364
565.10 1.364
565.20 1.364
565.30 1.365
565.40 1.365
565.50 1.365
565.60 1.365
565.70 1.365
565.80 1.365
565.90 1.366
566.00 1.366
566.10 1.366
566.20 1.366
566.30 1.366
566.40 1.366
566.50 1.366
566.60 1.366
566.70 1.367
566.80 1.367
566.90 1.367
567.00 1.367
567.10 1.367
567.20 1.367
567.30 1.367
567.40 1.367
567.50 1.368
567.60 1.368
567.70 1.368
567.80 1.368
567.90 1.368
568.00 1.368
568.10 1.368
568.20 1.368
568.30 1.368
568.40 1.368
568.50 1.368
568.60 1.368
568.70 1.369
568.80 1.369
568.90 1.369
569.00 1.369
569.10 1.369
569.20 1.369
569.30 1.369
569.40 1.369
569.50 1.369
569.60 1.369
569.70 1.369
569.80 1.369
569.90 1.369
570.00 1.369
570.10 1.369
570.20 1.369
570.30 1.369
570.40 1.369
570.50 1.369
570.60 1.369
570.70 1.369
570.80 1.369
570.90 1.37
571.00 1.37
571.10 1.37
571.20 1.37
571.30 1.37
571.40 1.37
571.50 1.37
571.60 1.37
571.70 1.37
571.80 1.37
571.90 1.37
572.00 1.369
572.10 1.369
572.20 1.369
572.30 1.369
572.40 1.369
572.50 1.369
572.60 1.369
572.70 1.369
572.80 1.369
572.90 1.369
573.00 1.369
573.10 1.369
573.20 1.369
573.30 1.369
573.40 1.369
573.50 1.369
573.60 1.369
573.70 1.369
573.80 1.369
573.90 1.369
574.00 1.369
574.10 1.369
574.20 1.369
574.30 1.369
574.40 1.369
574.50 1.368
574.60 1.368
574.70 1.368
574.80 1.368
574.90 1.368
575.00 1.368
575.10 1.368
575.20 1.368
575.30 1.368
575.40 1.368
575.50 1.368
575.60 1.368
575.70 1.367
575.80 1.367
575.90 1.367
576.00 1.367
576.10 1.367
576.20 1.367
576.30 1.367
576.40 1.367
576.50 1.367
576.60 1.367
576.70 1.366
576.80 1.366
576.90 1.366
577.00 1.366
577.10 1.366
577.20 1.366
577.30 1.366
577.40 1.366
577.50 1.365
577.60 1.365
577.70 1.365
577.80 1.365
577.90 1.365
578.00 1.365
578.10 1.365
578.20 1.364
578.30 1.364
578.40 1.364
578.50 1.364
578.60 1.364
578.70 1.364
578.80 1.363
578.90 1.363
579.00 1.363
579.10 1.363
579.20 1.363
579.30 1.363
579.40 1.362
579.50 1.362
579.60 1.362
579.70 1.362
579.80 1.362
579.90 1.362
580.00 1.361
580.10 1.361
580.20 1.361
580.30 1.361
580.40 1.361
580.50 1.36
580.60 1.36
580.70 1.36
580.80 1.36
580.90 1.36
581.00 1.36
581.10 1.359
581.20 1.359
581.30 1.359
581.40 1.359
581.50 1.358
581.60 1.358
581.70 1.358
581.80 1.358
581.90 1.357
582.00 1.357
582.10 1.357
582.20 1.357
582.30 1.357
582.40 1.356
582.50 1.356
582.60 1.356
582.70 1.356
582.80 1.355
582.90 1.355
583.00 1.355
583.10 1.355
583.20 1.354
583.30 1.354
583.40 1.354
583.50 1.353
583.60 1.353
583.70 1.353
583.80 1.353
583.90 1.352
584.00 1.352
584.10 1.352
584.20 1.351
584.30 1.351
584.40 1.351
584.50 1.35
584.60 1.35
584.70 1.35
584.80 1.349
584.90 1.349
585.00 1.349
585.10 1.348
585.20 1.348
585.30 1.348
585.40 1.347
585.50 1.347
585.60 1.347
585.70 1.346
585.80 1.346
585.90 1.345
586.00 1.345
586.10 1.345
586.20 1.344
586.30 1.344
586.40 1.344
586.50 1.343
586.60 1.343
586.70 1.342
586.80 1.342
586.90 1.341
587.00 1.341
587.10 1.341
587.20 1.34
587.30 1.34
587.40 1.339
587.50 1.339
587.60 1.338
587.70 1.338
587.80 1.338
587.90 1.337
588.00 1.337
588.10 1.336
588.20 1.336
588.30 1.335
588.40 1.335
588.50 1.334
588.60 1.334
588.70 1.333
588.80 1.333
588.90 1.332
589.00 1.332
589.10 1.332
589.20 1.331
589.30 1.331
589.40 1.33
589.50 1.329
589.60 1.329
589.70 1.328
589.80 1.328
589.90 1.327
590.00 1.327
590.10 1.326
590.20 1.326
590.30 1.325
590.40 1.325
590.50 1.324
590.60 1.324
590.70 1.323
590.80 1.323
590.90 1.322
591.00 1.322
591.10 1.321
591.20 1.32
591.30 1.32
591.40 1.319
591.50 1.319
591.60 1.318
591.70 1.318
591.80 1.317
591.90 1.317
592.00 1.316
592.10 1.315
592.20 1.315
592.30 1.314
592.40 1.314
592.50 1.313
592.60 1.313
592.70 1.312
592.80 1.311
592.90 1.311
593.00 1.31
593.10 1.31
593.20 1.309
593.30 1.308
593.40 1.308
593.50 1.307
593.60 1.307
593.70 1.306
593.80 1.305
593.90 1.305
594.00 1.304
594.10 1.304
594.20 1.303
594.30 1.302
594.40 1.302
594.50 1.301
594.60 1.3
594.70 1.3
594.80 1.299
594.90 1.299
595.00 1.298
595.10 1.297
595.20 1.297
595.30 1.296
595.40 1.295
595.50 1.295
595.60 1.294
595.70 1.293
595.80 1.293
595.90 1.292
596.00 1.291
596.10 1.291
596.20 1.29
596.30 1.289
596.40 1.289
596.50 1.288
596.60 1.287
596.70 1.287
596.80 1.286
596.90 1.285
597.00 1.285
597.10 1.284
597.20 1.283
597.30 1.283
597.40 1.282
597.50 1.281
597.60 1.281
597.70 1.28
597.80 1.279
597.90 1.278
598.00 1.278
598.10 1.277
598.20 1.276
598.30 1.276
598.40 1.275
598.50 1.274
598.60 1.273
598.70 1.273
598.80 1.272
598.90 1.271
599.00 1.271
599.10 1.27
599.20 1.269
599.30 1.268
599.40 1.268
599.50 1.267
599.60 1.266
599.70 1.265
599.80 1.265
599.90 1.264
600.00 1.263
600.10 1.262
600.20 1.261
600.30 1.261
600.40 1.26
600.50 1.259
600.60 1.258
600.70 1.258
600.80 1.257
600.90 1.256
601.00 1.255
601.10 1.254
601.20 1.254
601.30 1.253
601.40 1.252
601.50 1.251
601.60 1.25
601.70 1.25
601.80 1.249
601.90 1.248
602.00 1.247
602.10 1.246
602.20 1.246
602.30 1.245
602.40 1.244
602.50 1.243
602.60 1.242
602.70 1.241
602.80 1.241
602.90 1.24
603.00 1.239
603.10 1.238
603.20 1.237
603.30 1.236
603.40 1.236
603.50 1.235
603.60 1.234
603.70 1.233
603.80 1.232
603.90 1.231
604.00 1.23
604.10 1.23
604.20 1.229
604.30 1.228
604.40 1.227
604.50 1.226
604.60 1.225
604.70 1.224
604.80 1.223
604.90 1.222
605.00 1.222
605.10 1.221
605.20 1.22
605.30 1.219
605.40 1.218
605.50 1.217
605.60 1.216
605.70 1.215
605.80 1.214
605.90 1.214
606.00 1.213
606.10 1.212
606.20 1.211
606.30 1.21
606.40 1.209
606.50 1.208
606.60 1.207
606.70 1.206
606.80 1.205
606.90 1.204
607.00 1.203
607.10 1.202
607.20 1.202
607.30 1.201
607.40 1.2
607.50 1.199
607.60 1.198
607.70 1.197
607.80 1.196
607.90 1.195
608.00 1.194
608.10 1.193
608.20 1.192
608.30 1.191
608.40 1.19
608.50 1.189
608.60 1.188
608.70 1.187
608.80 1.186
608.90 1.185
609.00 1.184
609.10 1.183
609.20 1.182
609.30 1.181
609.40 1.18
609.50 1.179
609.60 1.179
609.70 1.178
609.80 1.177
609.90 1.176
610.00 1.175
610.10 1.174
610.20 1.173
610.30 1.172
610.40 1.171
610.50 1.17
610.60 1.169
610.70 1.168
610.80 1.167
610.90 1.166
611.00 1.165
611.10 1.164
611.20 1.163
611.30 1.162
611.40 1.161
611.50 1.16
611.60 1.159
611.70 1.158
611.80 1.157
611.90 1.156
612.00 1.154
612.10 1.153
612.20 1.152
612.30 1.151
612.40 1.15
612.50 1.149
612.60 1.148
612.70 1.147
612.80 1.146
612.90 1.145
613.00 1.144
613.10 1.143
613.20 1.142
613.30 1.141
613.40 1.14
613.50 1.139
613.60 1.138
613.70 1.137
613.80 1.136
613.90 1.135
614.00 1.134
614.10 1.132
614.20 1.131
614.30 1.13
614.40 1.129
614.50 1.128
614.60 1.127
614.70 1.126
614.80 1.125
614.90 1.124
615.00 1.123
615.10 1.122
615.20 1.121
615.30 1.119
615.40 1.118
615.50 1.117
615.60 1.116
615.70 1.115
615.80 1.114
615.90 1.113
616.00 1.112
616.10 1.111
616.20 1.11
616.30 1.108
616.40 1.107
616.50 1.106
616.60 1.105
616.70 1.104
616.80 1.103
616.90 1.102
617.00 1.101
617.10 1.1
617.20 1.098
617.30 1.097
617.40 1.096
617.50 1.095
617.60 1.094
617.70 1.093
617.80 1.092
617.90 1.091
618.00 1.089
618.10 1.088
618.20 1.087
618.30 1.086
618.40 1.085
618.50 1.084
618.60 1.083
618.70 1.082
618.80 1.08
618.90 1.079
619.00 1.078
619.10 1.077
619.20 1.076
619.30 1.075
619.40 1.074
619.50 1.072
619.60 1.071
619.70 1.07
619.80 1.069
619.90 1.068
620.00 1.067
620.10 1.066
620.20 1.065
620.30 1.063
620.40 1.062
620.50 1.061
620.60 1.06
620.70 1.059
620.80 1.058
620.90 1.057
621.00 1.055
621.10 1.054
621.20 1.053
621.30 1.052
621.40 1.051
621.50 1.05
621.60 1.049
621.70 1.047
621.80 1.046
621.90 1.045
622.00 1.044
622.10 1.043
622.20 1.042
622.30 1.041
622.40 1.039
622.50 1.038
622.60 1.037
622.70 1.036
622.80 1.035
622.90 1.034
623.00 1.033
623.10 1.032
623.20 1.03
623.30 1.029
623.40 1.028
623.50 1.027
623.60 1.026
623.70 1.025
623.80 1.024
623.90 1.022
624.00 1.021
624.10 1.02
624.20 1.019
624.30 1.018
624.40 1.017
624.50 1.016
624.60 1.014
624.70 1.013
624.80 1.012
624.90 1.011
625.00 1.01
625.10 1.009
625.20 1.008
625.30 1.006
625.40 1.005
625.50 1.004
625.60 1.003
625.70 1.002
625.80 1.001
625.90 0.9994
626.00 0.9982
626.10 0.9971
626.20 0.9959
626.30 0.9947
626.40 0.9935
626.50 0.9924
626.60 0.9912
626.70 0.99
626.80 0.9889
626.90 0.9877
627.00 0.9865
627.10 0.9853
627.20 0.9842
627.30 0.983
627.40 0.9819
627.50 0.9807
627.60 0.9795
627.70 0.9784
627.80 0.9772
627.90 0.9761
628.00 0.9749
628.10 0.9737
628.20 0.9726
628.30 0.9714
628.40 0.9702
628.50 0.9691
628.60 0.9679
628.70 0.9667
628.80 0.9656
628.90 0.9644
629.00 0.9632
629.10 0.9621
629.20 0.9609
629.30 0.9597
629.40 0.9586
629.50 0.9574
629.60 0.9562
629.70 0.9551
629.80 0.9539
629.90 0.9527
630.00 0.9516
630.10 0.9504
630.20 0.9493
630.30 0.9481
630.40 0.9469
630.50 0.9458
630.60 0.9446
630.70 0.9435
630.80 0.9423
630.90 0.9412
631.00 0.94
631.10 0.9389
631.20 0.9377
631.30 0.9365
631.40 0.9354
631.50 0.9342
631.60 0.933
631.70 0.9319
631.80 0.9307
631.90 0.9296
632.00 0.9284
632.10 0.9272
632.20 0.9261
632.30 0.9249
632.40 0.9238
632.50 0.9226
632.60 0.9214
632.70 0.9203
632.80 0.9191
632.90 0.9179
633.00 0.9168
633.10 0.9156
633.20 0.9144
633.30 0.9133
633.40 0.9121
633.50 0.9109
633.60 0.9098
633.70 0.9086
633.80 0.9074
633.90 0.9063
634.00 0.9051
634.10 0.904
634.20 0.9028
634.30 0.9016
634.40 0.9005
634.50 0.8993
634.60 0.8981
634.70 0.897
634.80 0.8958
634.90 0.8946
635.00 0.8934
635.10 0.8923
635.20 0.8911
635.30 0.89
635.40 0.8888
635.50 0.8876
635.60 0.8865
635.70 0.8853
635.80 0.8841
635.90 0.883
636.00 0.8818
636.10 0.8807
636.20 0.8795
636.30 0.8783
636.40 0.8772
636.50 0.876
636.60 0.8748
636.70 0.8737
636.80 0.8725
636.90 0.8714
637.00 0.8702
637.10 0.869
637.20 0.8679
637.30 0.8667
637.40 0.8656
637.50 0.8644
637.60 0.8633
637.70 0.8621
637.80 0.861
637.90 0.8598
638.00 0.8587
638.10 0.8575
638.20 0.8563
638.30 0.8552
638.40 0.8541
638.50 0.8529
638.60 0.8518
638.70 0.8507
638.80 0.8495
638.90 0.8484
639.00 0.8472
639.10 0.8461
639.20 0.845
639.30 0.8438
639.40 0.8427
639.50 0.8415
639.60 0.8404
639.70 0.8392
639.80 0.838
639.90 0.8369
640.00 0.8357
640.10 0.8346
640.20 0.8334
640.30 0.8323
640.40 0.8311
640.50 0.8299
640.60 0.8288
640.70 0.8276
640.80 0.8265
640.90 0.8253
641.00 0.8241
641.10 0.823
641.20 0.8218
641.30 0.8206
641.40 0.8195
641.50 0.8183
641.60 0.8171
641.70 0.816
641.80 0.8148
641.90 0.8136
642.00 0.8125
642.10 0.8113
642.20 0.8102
642.30 0.809
642.40 0.8078
642.50 0.8066
642.60 0.8054
642.70 0.8042
642.80 0.803
642.90 0.8018
643.00 0.8007
643.10 0.7995
643.20 0.7983
643.30 0.7971
643.40 0.7959
643.50 0.7948
643.60 0.7936
643.70 0.7924
643.80 0.7913
643.90 0.7901
644.00 0.789
644.10 0.7878
644.20 0.7866
644.30 0.7855
644.40 0.7843
644.50 0.7832
644.60 0.782
644.70 0.7808
644.80 0.7797
644.90 0.7785
645.00 0.7774
645.10 0.7762
645.20 0.7751
645.30 0.7739
645.40 0.7728
645.50 0.7716
645.60 0.7704
645.70 0.7693
645.80 0.7681
645.90 0.767
646.00 0.7658
646.10 0.7647
646.20 0.7636
646.30 0.7624
646.40 0.7613
646.50 0.7602
646.60 0.759
646.70 0.7579
646.80 0.7568
646.90 0.7556
647.00 0.7545
647.10 0.7534
647.20 0.7523
647.30 0.7511
647.40 0.75
647.50 0.7489
647.60 0.7477
647.70 0.7466
647.80 0.7454
647.90 0.7443
648.00 0.7432
648.10 0.742
648.20 0.7409
648.30 0.7398
648.40 0.7386
648.50 0.7375
648.60 0.7364
648.70 0.7352
648.80 0.7341
648.90 0.733
649.00 0.7318
649.10 0.7307
649.20 0.7296
649.30 0.7284
649.40 0.7273
649.50 0.7262
649.60 0.725
649.70 0.7239
649.80 0.7228
649.90 0.7216
650.00 0.7205
650.10 0.7194
650.20 0.7183
650.30 0.7171
650.40 0.716
650.50 0.7149
650.60 0.7137
650.70 0.7126
650.80 0.7115
650.90 0.7104
651.00 0.7092
651.10 0.7081
651.20 0.707
651.30 0.7058
651.40 0.7047
651.50 0.7036
651.60 0.7025
651.70 0.7014
651.80 0.7002
651.90 0.6991
652.00 0.698
652.10 0.6969
652.20 0.6958
652.30 0.6946
652.40 0.6935
652.50 0.6924
652.60 0.6913
652.70 0.6901
652.80 0.689
652.90 0.6879
653.00 0.6868
653.10 0.6857
653.20 0.6846
653.30 0.6834
653.40 0.6823
653.50 0.6812
653.60 0.6801
653.70 0.679
653.80 0.6779
653.90 0.6767
654.00 0.6756
654.10 0.6745
654.20 0.6734
654.30 0.6723
654.40 0.6712
654.50 0.6701
654.60 0.669
654.70 0.6679
654.80 0.6668
654.90 0.6657
655.00 0.6646
655.10 0.6635
655.20 0.6624
655.30 0.6613
655.40 0.6602
655.50 0.6591
655.60 0.658
655.70 0.6568
655.80 0.6558
655.90 0.6547
656.00 0.6536
656.10 0.6525
656.20 0.6514
656.30 0.6503
656.40 0.6492
656.50 0.6481
656.60 0.647
656.70 0.6459
656.80 0.6448
656.90 0.6437
657.00 0.6426
657.10 0.6416
657.20 0.6405
657.30 0.6394
657.40 0.6383
657.50 0.6372
657.60 0.6361
657.70 0.635
657.80 0.6339
657.90 0.6328
658.00 0.6318
658.10 0.6307
658.20 0.6296
658.30 0.6285
658.40 0.6274
658.50 0.6263
658.60 0.6252
658.70 0.6242
658.80 0.6231
658.90 0.622
659.00 0.6209
659.10 0.6198
659.20 0.6188
659.30 0.6177
659.40 0.6166
659.50 0.6155
659.60 0.6144
659.70 0.6134
659.80 0.6123
659.90 0.6112
660.00 0.6101
660.10 0.6091
660.20 0.608
660.30 0.6069
660.40 0.6059
660.50 0.6048
660.60 0.6037
660.70 0.6027
660.80 0.6016
660.90 0.6005
661.00 0.5995
661.10 0.5984
661.20 0.5973
661.30 0.5963
661.40 0.5952
661.50 0.5942
661.60 0.5931
661.70 0.592
661.80 0.591
661.90 0.5899
662.00 0.5888
662.10 0.5878
662.20 0.5867
662.30 0.5857
662.40 0.5846
662.50 0.5835
662.60 0.5825
662.70 0.5814
662.80 0.5804
662.90 0.5793
663.00 0.5783
663.10 0.5772
663.20 0.5762
663.30 0.5751
663.40 0.5741
663.50 0.573
663.60 0.572
663.70 0.5709
663.80 0.5699
663.90 0.5688
664.00 0.5678
664.10 0.5667
664.20 0.5657
664.30 0.5646
664.40 0.5636
664.50 0.5626
664.60 0.5615
664.70 0.5605
664.80 0.5595
664.90 0.5584
665.00 0.5574
665.10 0.5564
665.20 0.5553
665.30 0.5543
665.40 0.5533
665.50 0.5522
665.60 0.5512
665.70 0.5502
665.80 0.5491
665.90 0.5481
666.00 0.5471
666.10 0.5461
666.20 0.545
666.30 0.544
666.40 0.543
666.50 0.5419
666.60 0.5409
666.70 0.5399
666.80 0.5389
666.90 0.5378
667.00 0.5368
667.10 0.5358
667.20 0.5348
667.30 0.5337
667.40 0.5327
667.50 0.5317
667.60 0.5307
667.70 0.5297
667.80 0.5287
667.90 0.5277
668.00 0.5266
668.10 0.5256
668.20 0.5246
668.30 0.5236
668.40 0.5226
668.50 0.5216
668.60 0.5206
668.70 0.5196
668.80 0.5186
668.90 0.5176
669.00 0.5166
669.10 0.5156
669.20 0.5146
669.30 0.5136
669.40 0.5126
669.50 0.5116
669.60 0.5106
669.70 0.5096
669.80 0.5086
669.90 0.5076
670.00 0.5066
670.10 0.5056
670.20 0.5046
670.30 0.5036
670.40 0.5026
670.50 0.5016
670.60 0.5006
670.70 0.4997
670.80 0.4987
670.90 0.4977
671.00 0.4967
671.10 0.4957
671.20 0.4947
671.30 0.4937
671.40 0.4928
671.50 0.4918
671.60 0.4908
671.70 0.4898
671.80 0.4888
671.90 0.4879
672.00 0.4869
672.10 0.4859
672.20 0.4849
672.30 0.484
672.40 0.483
672.50 0.482
672.60 0.481
672.70 0.4801
672.80 0.4791
672.90 0.4781
673.00 0.4772
673.10 0.4762
673.20 0.4752
673.30 0.4743
673.40 0.4733
673.50 0.4723
673.60 0.4714
673.70 0.4704
673.80 0.4694
673.90 0.4685
674.00 0.4675
674.10 0.4666
674.20 0.4656
674.30 0.4647
674.40 0.4637
674.50 0.4628
674.60 0.4618
674.70 0.4608
674.80 0.4599
674.90 0.4589
675.00 0.458
675.10 0.457
675.20 0.4561
675.30 0.4552
675.40 0.4542
675.50 0.4533
675.60 0.4523
675.70 0.4514
675.80 0.4504
675.90 0.4495
676.00 0.4486
676.10 0.4476
676.20 0.4467
676.30 0.4458
676.40 0.4448
676.50 0.4439
676.60 0.443
676.70 0.442
676.80 0.4411
676.90 0.4402
677.00 0.4392
677.10 0.4383
677.20 0.4374
677.30 0.4365
677.40 0.4355
677.50 0.4346
677.60 0.4337
677.70 0.4328
677.80 0.4319
677.90 0.431
678.00 0.43
678.10 0.4291
678.20 0.4282
678.30 0.4273
678.40 0.4264
678.50 0.4255
678.60 0.4246
678.70 0.4237
678.80 0.4227
678.90 0.4218
679.00 0.4209
679.10 0.42
679.20 0.4191
679.30 0.4182
679.40 0.4173
679.50 0.4164
679.60 0.4155
679.70 0.4146
679.80 0.4137
679.90 0.4128
680.00 0.4119
680.10 0.411
680.20 0.4101
680.30 0.4092
680.40 0.4083
680.50 0.4074
680.60 0.4065
680.70 0.4056
680.80 0.4047
680.90 0.4038
681.00 0.4029
681.10 0.4021
681.20 0.4012
681.30 0.4003
681.40 0.3994
681.50 0.3985
681.60 0.3976
681.70 0.3967
681.80 0.3959
681.90 0.395
682.00 0.3941
682.10 0.3932
682.20 0.3923
682.30 0.3914
682.40 0.3906
682.50 0.3897
682.60 0.3888
682.70 0.3879
682.80 0.3871
682.90 0.3862
683.00 0.3853
683.10 0.3844
683.20 0.3836
683.30 0.3827
683.40 0.3818
683.50 0.381
683.60 0.3801
683.70 0.3792
683.80 0.3784
683.90 0.3775
684.00 0.3767
684.10 0.3758
684.20 0.3749
684.30 0.3741
684.40 0.3732
684.50 0.3724
684.60 0.3715
684.70 0.3707
684.80 0.3698
684.90 0.369
685.00 0.3681
685.10 0.3673
685.20 0.3664
685.30 0.3656
685.40 0.3647
685.50 0.3639
685.60 0.363
685.70 0.3622
685.80 0.3613
685.90 0.3605
686.00 0.3597
686.10 0.3588
686.20 0.358
686.30 0.3571
686.40 0.3563
686.50 0.3555
686.60 0.3546
686.70 0.3538
686.80 0.353
686.90 0.3521
687.00 0.3513
687.10 0.3505
687.20 0.3496
687.30 0.3488
687.40 0.348
687.50 0.3472
687.60 0.3463
687.70 0.3455
687.80 0.3447
687.90 0.3439
688.00 0.3431
688.10 0.3422
688.20 0.3414
688.30 0.3406
688.40 0.3398
688.50 0.339
688.60 0.3382
688.70 0.3373
688.80 0.3365
688.90 0.3357
689.00 0.3349
689.10 0.3341
689.20 0.3333
689.30 0.3325
689.40 0.3317
689.50 0.3309
689.60 0.3301
689.70 0.3293
689.80 0.3286
689.90 0.3278
690.00 0.327
690.10 0.3262
690.20 0.3254
690.30 0.3246
690.40 0.3239
690.50 0.3231
690.60 0.3223
690.70 0.3215
690.80 0.3207
690.90 0.3199
691.00 0.3192
691.10 0.3184
691.20 0.3176
691.30 0.3168
691.40 0.316
691.50 0.3153
691.60 0.3145
691.70 0.3137
691.80 0.3129
691.90 0.3122
692.00 0.3114
692.10 0.3106
692.20 0.3098
692.30 0.3091
692.40 0.3083
692.50 0.3075
692.60 0.3067
692.70 0.306
692.80 0.3052
692.90 0.3044
693.00 0.3037
693.10 0.3029
693.20 0.3021
693.30 0.3013
693.40 0.3006
693.50 0.2998
693.60 0.299
693.70 0.2983
693.80 0.2975
693.90 0.2967
694.00 0.296
694.10 0.2952
694.20 0.2944
694.30 0.2937
694.40 0.2929
694.50 0.2921
694.60 0.2914
694.70 0.2906
694.80 0.2898
694.90 0.2891
695.00 0.2883
695.10 0.2876
695.20 0.2869
695.30 0.2862
695.40 0.2854
695.50 0.2847
695.60 0.284
695.70 0.2833
695.80 0.2826
695.90 0.2819
696.00 0.2811
696.10 0.2804
696.20 0.2797
696.30 0.279
696.40 0.2783
696.50 0.2776
696.60 0.2768
696.70 0.2761
696.80 0.2754
696.90 0.2747
697.00 0.274
697.10 0.2733
697.20 0.2726
697.30 0.2719
697.40 0.2711
697.50 0.2704
697.60 0.2697
697.70 0.269
697.80 0.2683
697.90 0.2676
698.00 0.2669
698.10 0.2662
698.20 0.2655
698.30 0.2648
698.40 0.2641
698.50 0.2633
698.60 0.2626
698.70 0.2619
698.80 0.2612
698.90 0.2605
699.00 0.2598
699.10 0.2591
699.20 0.2584
699.30 0.2577
699.40 0.257
699.50 0.2563
699.60 0.2556
699.70 0.2549
699.80 0.2542
699.90 0.2535
700.00 0.2528
700.10 0.2521
700.20 0.2515
700.30 0.2508
700.40 0.2502
700.50 0.2495
700.60 0.2489
700.70 0.2482
700.80 0.2476
700.90 0.2469
701.00 0.2463
701.10 0.2456
701.20 0.245
701.30 0.2443
701.40 0.2437
701.50 0.243
701.60 0.2424
701.70 0.2417
701.80 0.2411
701.90 0.2404
702.00 0.2398
702.10 0.2391
702.20 0.2385
702.30 0.2378
702.40 0.2372
702.50 0.2365
702.60 0.2359
702.70 0.2352
702.80 0.2346
702.90 0.2339
703.00 0.2333
703.10 0.2327
703.20 0.232
703.30 0.2314
703.40 0.2307
703.50 0.2301
703.60 0.2294
703.70 0.2288
703.80 0.2282
703.90 0.2275
704.00 0.2269
704.10 0.2262
704.20 0.2256
704.30 0.225
704.40 0.2243
704.50 0.2237
704.60 0.223
704.70 0.2224
704.80 0.2218
704.90 0.2211
705.00 0.2205
705.10 0.2199
705.20 0.2193
705.30 0.2187
705.40 0.2182
705.50 0.2176
705.60 0.217
705.70 0.2164
705.80 0.2158
705.90 0.2152
706.00 0.2147
706.10 0.2141
706.20 0.2135
706.30 0.2129
706.40 0.2123
706.50 0.2118
706.60 0.2112
706.70 0.2106
706.80 0.21
706.90 0.2095
707.00 0.2089
707.10 0.2083
707.20 0.2077
707.30 0.2072
707.40 0.2066
707.50 0.206
707.60 0.2054
707.70 0.2048
707.80 0.2043
707.90 0.2037
708.00 0.2031
708.10 0.2026
708.20 0.202
708.30 0.2014
708.40 0.2008
708.50 0.2003
708.60 0.1997
708.70 0.1991
708.80 0.1985
708.90 0.198
709.00 0.1974
709.10 0.1968
709.20 0.1963
709.30 0.1957
709.40 0.1951
709.50 0.1946
709.60 0.194
709.70 0.1934
709.80 0.1928
709.90 0.1923
710.00 0.1917
710.10 0.1912
710.20 0.1907
710.30 0.1902
710.40 0.1897
710.50 0.1891
710.60 0.1886
710.70 0.1881
710.80 0.1876
710.90 0.1871
711.00 0.1866
711.10 0.1861
711.20 0.1856
711.30 0.1851
711.40 0.1845
711.50 0.184
711.60 0.1835
711.70 0.183
711.80 0.1825
711.90 0.182
712.00 0.1815
712.10 0.181
712.20 0.1805
712.30 0.18
712.40 0.1795
712.50 0.1789
712.60 0.1784
712.70 0.1779
712.80 0.1774
712.90 0.1769
713.00 0.1764
713.10 0.1759
713.20 0.1754
713.30 0.1749
713.40 0.1744
713.50 0.1739
713.60 0.1734
713.70 0.1729
713.80 0.1724
713.90 0.1719
714.00 0.1714
714.10 0.1709
714.20 0.1704
714.30 0.1699
714.40 0.1694
714.50 0.1689
714.60 0.1684
714.70 0.1679
714.80 0.1674
714.90 0.1669
715.00 0.1664
715.10 0.1659
715.20 0.1655
715.30 0.165
715.40 0.1646
715.50 0.1641
715.60 0.1637
715.70 0.1633
715.80 0.1628
715.90 0.1624
716.00 0.1619
716.10 0.1615
716.20 0.161
716.30 0.1606
716.40 0.1602
716.50 0.1597
716.60 0.1593
716.70 0.1588
716.80 0.1584
716.90 0.1579
717.00 0.1575
717.10 0.1571
717.20 0.1566
717.30 0.1562
717.40 0.1557
717.50 0.1553
717.60 0.1549
717.70 0.1544
717.80 0.154
717.90 0.1536
718.00 0.1531
718.10 0.1527
718.20 0.1522
718.30 0.1518
718.40 0.1514
718.50 0.1509
718.60 0.1505
718.70 0.1501
718.80 0.1496
718.90 0.1492
719.00 0.1487
719.10 0.1483
719.20 0.1479
719.30 0.1474
719.40 0.147
719.50 0.1466
719.60 0.1461
719.70 0.1457
719.80 0.1453
719.90 0.1448
720.00 0.1444
720.10 0.144
720.20 0.1436
720.30 0.1433
720.40 0.1429
720.50 0.1425
720.60 0.1421
720.70 0.1418
720.80 0.1414
720.90 0.141
721.00 0.1406
721.10 0.1402
721.20 0.1399
721.30 0.1395
721.40 0.1391
721.50 0.1387
721.60 0.1384
721.70 0.138
721.80 0.1376
721.90 0.1372
722.00 0.1369
722.10 0.1365
722.20 0.1361
722.30 0.1357
722.40 0.1354
722.50 0.135
722.60 0.1346
722.70 0.1342
722.80 0.1339
722.90 0.1335
723.00 0.1331
723.10 0.1328
723.20 0.1324
723.30 0.132
723.40 0.1316
723.50 0.1313
723.60 0.1309
723.70 0.1305
723.80 0.1302
723.90 0.1298
724.00 0.1294
724.10 0.129
724.20 0.1287
724.30 0.1283
724.40 0.1279
724.50 0.1276
724.60 0.1272
724.70 0.1268
724.80 0.1264
724.90 0.1261
725.00 0.1257
725.10 0.1254
725.20 0.1251
725.30 0.1248
725.40 0.1244
725.50 0.1241
725.60 0.1238
725.70 0.1235
725.80 0.1232
725.90 0.1229
726.00 0.1225
726.10 0.1222
726.20 0.1219
726.30 0.1216
726.40 0.1213
726.50 0.121
726.60 0.1206
726.70 0.1203
726.80 0.12
726.90 0.1197
727.00 0.1194
727.10 0.1191
727.20 0.1188
727.30 0.1184
727.40 0.1181
727.50 0.1178
727.60 0.1175
727.70 0.1172
727.80 0.1169
727.90 0.1166
728.00 0.1163
728.10 0.1159
728.20 0.1156
728.30 0.1153
728.40 0.115
728.50 0.1147
728.60 0.1144
728.70 0.1141
728.80 0.1138
728.90 0.1134
729.00 0.1131
729.10 0.1128
729.20 0.1125
729.30 0.1122
729.40 0.1119
729.50 0.1116
729.60 0.1113
729.70 0.111
729.80 0.1107
729.90 0.1103
730.00 0.11
730.10 0.1098
730.20 0.1096
730.30 0.1094
730.40 0.1091
730.50 0.1089
730.60 0.1087
730.70 0.1085
730.80 0.1082
730.90 0.108
731.00 0.1078
731.10 0.1076
731.20 0.1073
731.30 0.1071
731.40 0.1069
731.50 0.1067
731.60 0.1064
731.70 0.1062
731.80 0.106
731.90 0.1058
732.00 0.1055
732.10 0.1053
732.20 0.1051
732.30 0.1049
732.40 0.1046
732.50 0.1044
732.60 0.1042
732.70 0.104
732.80 0.1037
732.90 0.1035
733.00 0.1033
733.10 0.1031
733.20 0.1029
733.30 0.1026
733.40 0.1024
733.50 0.1022
733.60 0.102
733.70 0.1017
733.80 0.1015
733.90 0.1013
734.00 0.1011
734.10 0.1009
734.20 0.1006
734.30 0.1004
734.40 0.1002
734.50 0.09997
734.60 0.09975
734.70 0.09953
734.80 0.09931
734.90 0.09909
735.00 0.09887
735.10 0.09865
735.20 0.09843
735.30 0.09821
735.40 0.09799
735.50 0.09777
735.60 0.09755
735.70 0.09733
735.80 0.09711
735.90 0.09689
736.00 0.09667
736.10 0.09645
736.20 0.09623
736.30 0.09601
736.40 0.0958
736.50 0.09558
736.60 0.09536
736.70 0.09514
736.80 0.09492
736.90 0.0947
737.00 0.09448
737.10 0.09427
737.20 0.09405
737.30 0.09383
737.40 0.09361
737.50 0.0934
737.60 0.09318
737.70 0.09296
737.80 0.09274
737.90 0.09253
738.00 0.09231
738.10 0.09209
738.20 0.09188
738.30 0.09166
738.40 0.09144
738.50 0.09123
738.60 0.09101
738.70 0.09079
738.80 0.09058
738.90 0.09036
739.00 0.09015
739.10 0.08993
739.20 0.08971
739.30 0.0895
739.40 0.08928
739.50 0.08907
739.60 0.08885
739.70 0.08864
739.80 0.08842
739.90 0.08821
740.00 0.08799
740.10 0.08786
740.20 0.08773
740.30 0.08759
740.40 0.08746
740.50 0.08733
740.60 0.08719
740.70 0.08706
740.80 0.08693
740.90 0.08679
741.00 0.08666
741.10 0.08653
741.20 0.08639
741.30 0.08626
741.40 0.08613
741.50 0.086
741.60 0.08586
741.70 0.08573
741.80 0.0856
741.90 0.08547
742.00 0.08533
742.10 0.0852
742.20 0.08507
742.30 0.08494
742.40 0.08481
742.50 0.08467
742.60 0.08454
742.70 0.08441
742.80 0.08428
742.90 0.08415
743.00 0.08401
743.10 0.08388
743.20 0.08375
743.30 0.08362
743.40 0.08349
743.50 0.08336
743.60 0.08323
743.70 0.0831
743.80 0.08296
743.90 0.08283
744.00 0.0827
744.10 0.08257
744.20 0.08244
744.30 0.08231
744.40 0.08218
744.50 0.08205
744.60 0.08192
744.70 0.08179
744.80 0.08166
744.90 0.08153
745.00 0.0814
745.10 0.08127
745.20 0.08114
745.30 0.08101
745.40 0.08088
745.50 0.08075
745.60 0.08062
745.70 0.08049
745.80 0.08036
745.90 0.08023
746.00 0.0801
746.10 0.07997
746.20 0.07984
746.30 0.07971
746.40 0.07958
746.50 0.07945
746.60 0.07932
746.70 0.07919
746.80 0.07906
746.90 0.07893
747.00 0.0788
747.10 0.07868
747.20 0.07855
747.30 0.07842
747.40 0.07829
747.50 0.07816
747.60 0.07803
747.70 0.0779
747.80 0.07778
747.90 0.07765
748.00 0.07752
748.10 0.07739
748.20 0.07726
748.30 0.07713
748.40 0.07701
748.50 0.07688
748.60 0.07675
748.70 0.07662
748.80 0.07649
748.90 0.07637
749.00 0.07624
749.10 0.07611
749.20 0.07598
749.30 0.07586
749.40 0.07573
749.50 0.0756
749.60 0.07548
749.70 0.07535
749.80 0.07522
749.90 0.07509
750.00 0.07497
750.10 0.07489
750.20 0.07481
750.30 0.07473
750.40 0.07465
750.50 0.07458
750.60 0.0745
750.70 0.07442
750.80 0.07434
750.90 0.07427
751.00 0.07419
751.10 0.07411
751.20 0.07403
751.30 0.07396
751.40 0.07388
751.50 0.0738
751.60 0.07372
751.70 0.07365
751.80 0.07357
751.90 0.07349
752.00 0.07341
752.10 0.07334
752.20 0.07326
752.30 0.07318
752.40 0.0731
752.50 0.07303
752.60 0.07295
752.70 0.07287
752.80 0.0728
752.90 0.07272
753.00 0.07264
753.10 0.07257
753.20 0.07249
753.30 0.07241
753.40 0.07233
753.50 0.07226
753.60 0.07218
753.70 0.0721
753.80 0.07203
753.90 0.07195
754.00 0.07187
754.10 0.0718
754.20 0.07172
754.30 0.07165
754.40 0.07157
754.50 0.07149
754.60 0.07142
754.70 0.07134
754.80 0.07126
754.90 0.07119
755.00 0.07111
755.10 0.07104
755.20 0.07096
755.30 0.07088
755.40 0.07081
755.50 0.07073
755.60 0.07066
755.70 0.07058
755.80 0.0705
755.90 0.07043
756.00 0.07035
756.10 0.07028
756.20 0.0702
756.30 0.07012
756.40 0.07005
756.50 0.06997
756.60 0.0699
756.70 0.06982
756.80 0.06975
756.90 0.06967
757.00 0.0696
757.10 0.06952
757.20 0.06945
757.30 0.06937
757.40 0.06929
757.50 0.06922
757.60 0.06914
757.70 0.06907
757.80 0.06899
757.90 0.06892
758.00 0.06884
758.10 0.06877
758.20 0.06869
758.30 0.06862
758.40 0.06854
758.50 0.06847
758.60 0.06839
758.70 0.06832
758.80 0.06824
758.90 0.06817
759.00 0.0681
759.10 0.06802
759.20 0.06795
759.30 0.06787
759.40 0.0678
759.50 0.06772
759.60 0.06765
759.70 0.06757
759.80 0.0675
759.90 0.06742
760.00 0.06735
760.10 0.0673
760.20 0.06726
760.30 0.06721
760.40 0.06717
760.50 0.06712
760.60 0.06708
760.70 0.06703
760.80 0.06699
760.90 0.06694
761.00 0.0669
761.10 0.06685
761.20 0.0668
761.30 0.06676
761.40 0.06671
761.50 0.06667
761.60 0.06662
761.70 0.06658
761.80 0.06653
761.90 0.06649
762.00 0.06644
762.10 0.0664
762.20 0.06635
762.30 0.06631
762.40 0.06626
762.50 0.06622
762.60 0.06617
762.70 0.06613
762.80 0.06608
762.90 0.06604
763.00 0.06599
763.10 0.06595
763.20 0.0659
763.30 0.06586
763.40 0.06581
763.50 0.06577
763.60 0.06572
763.70 0.06568
763.80 0.06563
763.90 0.06559
764.00 0.06554
764.10 0.0655
764.20 0.06545
764.30 0.06541
764.40 0.06536
764.50 0.06532
764.60 0.06527
764.70 0.06523
764.80 0.06518
764.90 0.06514
765.00 0.0651
765.10 0.06505
765.20 0.06501
765.30 0.06496
765.40 0.06492
765.50 0.06487
765.60 0.06483
765.70 0.06478
765.80 0.06474
765.90 0.06469
766.00 0.06465
766.10 0.06461
766.20 0.06456
766.30 0.06452
766.40 0.06447
766.50 0.06443
766.60 0.06438
766.70 0.06434
766.80 0.0643
766.90 0.06425
767.00 0.06421
767.10 0.06416
767.20 0.06412
767.30 0.06408
767.40 0.06403
767.50 0.06399
767.60 0.06394
767.70 0.0639
767.80 0.06386
767.90 0.06381
768.00 0.06377
768.10 0.06372
768.20 0.06368
768.30 0.06364
768.40 0.06359
768.50 0.06355
768.60 0.0635
768.70 0.06346
768.80 0.06342
768.90 0.06337
769.00 0.06333
769.10 0.06329
769.20 0.06324
769.30 0.0632
769.40 0.06315
769.50 0.06311
769.60 0.06307
769.70 0.06302
769.80 0.06298
769.90 0.06294
770.00 0.06289
770.10 0.06287
770.20 0.06285
770.30 0.06283
770.40 0.0628
770.50 0.06278
770.60 0.06276
770.70 0.06274
770.80 0.06272
770.90 0.06269
771.00 0.06267
771.10 0.06265
771.20 0.06263
771.30 0.0626
771.40 0.06258
771.50 0.06256
771.60 0.06254
771.70 0.06252
771.80 0.06249
771.90 0.06247
772.00 0.06245
772.10 0.06243
772.20 0.06241
772.30 0.06238
772.40 0.06236
772.50 0.06234
772.60 0.06232
772.70 0.0623
772.80 0.06227
772.90 0.06225
773.00 0.06223
773.10 0.06221
773.20 0.06219
773.30 0.06216
773.40 0.06214
773.50 0.06212
773.60 0.0621
773.70 0.06208
773.80 0.06205
773.90 0.06203
774.00 0.06201
774.10 0.06199
774.20 0.06197
774.30 0.06194
774.40 0.06192
774.50 0.0619
774.60 0.06188
774.70 0.06186
774.80 0.06184
774.90 0.06181
775.00 0.06179
775.10 0.06177
775.20 0.06175
775.30 0.06173
775.40 0.06171
775.50 0.06168
775.60 0.06166
775.70 0.06164
775.80 0.06162
775.90 0.0616
776.00 0.06158
776.10 0.06155
776.20 0.06153
776.30 0.06151
776.40 0.06149
776.50 0.06147
776.60 0.06145
776.70 0.06142
776.80 0.0614
776.90 0.06138
777.00 0.06136
777.10 0.06134
777.20 0.06132
777.30 0.06129
777.40 0.06127
777.50 0.06125
777.60 0.06123
777.70 0.06121
777.80 0.06119
777.90 0.06116
778.00 0.06114
778.10 0.06112
778.20 0.0611
778.30 0.06108
778.40 0.06106
778.50 0.06104
778.60 0.06101
778.70 0.06099
778.80 0.06097
778.90 0.06095
779.00 0.06093
779.10 0.06091
779.20 0.06089
779.30 0.06086
779.40 0.06084
779.50 0.06082
779.60 0.0608
779.70 0.06078
779.80 0.06076
779.90 0.06074
780.00 0.06071
780.10 0.06073
780.20 0.06075
780.30 0.06077
780.40 0.06079
780.50 0.06081
780.60 0.06083
780.70 0.06084
780.80 0.06086
780.90 0.06088
781.00 0.0609
781.10 0.06092
781.20 0.06094
781.30 0.06096
781.40 0.06097
781.50 0.06099
781.60 0.06101
781.70 0.06103
781.80 0.06105
781.90 0.06107
782.00 0.06108
782.10 0.0611
782.20 0.06112
782.30 0.06114
782.40 0.06116
782.50 0.06118
782.60 0.06119
782.70 0.06121
782.80 0.06123
782.90 0.06125
783.00 0.06127
783.10 0.06129
783.20 0.0613
783.30 0.06132
783.40 0.06134
783.50 0.06136
783.60 0.06138
783.70 0.06139
783.80 0.06141
783.90 0.06143
784.00 0.06145
784.10 0.06147
784.20 0.06148
784.30 0.0615
784.40 0.06152
784.50 0.06154
784.60 0.06156
784.70 0.06158
784.80 0.06159
784.90 0.06161
785.00 0.06163
785.10 0.06165
785.20 0.06167
785.30 0.06168
785.40 0.0617
785.50 0.06172
785.60 0.06174
785.70 0.06176
785.80 0.06177
785.90 0.06179
786.00 0.06181
786.10 0.06183
786.20 0.06184
786.30 0.06186
786.40 0.06188
786.50 0.0619
786.60 0.06192
786.70 0.06193
786.80 0.06195
786.90 0.06197
787.00 0.06199
787.10 0.062
787.20 0.06202
787.30 0.06204
787.40 0.06206
787.50 0.06208
787.60 0.06209
787.70 0.06211
787.80 0.06213
787.90 0.06215
788.00 0.06216
788.10 0.06218
788.20 0.0622
788.30 0.06222
788.40 0.06224
788.50 0.06225
788.60 0.06227
788.70 0.06229
788.80 0.06231
788.90 0.06232
789.00 0.06234
789.10 0.06236
789.20 0.06238
789.30 0.06239
789.40 0.06241
789.50 0.06243
789.60 0.06245
789.70 0.06246
789.80 0.06248
789.90 0.0625
790.00 0.06252
790.10 0.06256
790.20 0.0626
790.30 0.06264
790.40 0.06268
790.50 0.06272
790.60 0.06276
790.70 0.0628
790.80 0.06284
790.90 0.06288
791.00 0.06292
791.10 0.06296
791.20 0.063
791.30 0.06304
791.40 0.06308
791.50 0.06312
791.60 0.06316
791.70 0.06321
791.80 0.06325
791.90 0.06329
792.00 0.06333
792.10 0.06337
792.20 0.06341
792.30 0.06345
792.40 0.06349
792.50 0.06353
792.60 0.06357
792.70 0.06361
792.80 0.06365
792.90 0.06369
793.00 0.06373
793.10 0.06377
793.20 0.06381
793.30 0.06385
793.40 0.06389
793.50 0.06393
793.60 0.06397
793.70 0.06401
793.80 0.06405
793.90 0.06409
794.00 0.06413
794.10 0.06417
794.20 0.06421
794.30 0.06425
794.40 0.06429
794.50 0.06433
794.60 0.06437
794.70 0.06441
794.80 0.06445
794.90 0.06449
795.00 0.06453
795.10 0.06456
795.20 0.0646
795.30 0.06464
795.40 0.06468
795.50 0.06472
795.60 0.06476
795.70 0.0648
795.80 0.06484
795.90 0.06488
796.00 0.06492
796.10 0.06496
796.20 0.065
796.30 0.06504
796.40 0.06508
796.50 0.06512
796.60 0.06516
796.70 0.0652
796.80 0.06524
796.90 0.06527
797.00 0.06531
797.10 0.06535
797.20 0.06539
797.30 0.06543
797.40 0.06547
797.50 0.06551
797.60 0.06555
797.70 0.06559
797.80 0.06563
797.90 0.06567
798.00 0.0657
798.10 0.06574
798.20 0.06578
798.30 0.06582
798.40 0.06586
798.50 0.0659
798.60 0.06594
798.70 0.06598
798.80 0.06602
798.90 0.06605
799.00 0.06609
799.10 0.06613
799.20 0.06617
799.30 0.06621
799.40 0.06625
799.50 0.06629
799.60 0.06633
799.70 0.06636
799.80 0.0664
799.90 0.06644
800.00 0.06648
800.10 0.0665
800.20 0.06653
800.30 0.06655
800.40 0.06657
800.50 0.06659
800.60 0.06662
800.70 0.06664
800.80 0.06666
800.90 0.06668
801.00 0.06671
801.10 0.06673
801.20 0.06675
801.30 0.06677
801.40 0.0668
801.50 0.06682
801.60 0.06684
801.70 0.06686
801.80 0.06689
801.90 0.06691
802.00 0.06693
802.10 0.06695
802.20 0.06698
802.30 0.067
802.40 0.06702
802.50 0.06704
802.60 0.06707
802.70 0.06709
802.80 0.06711
802.90 0.06713
803.00 0.06716
803.10 0.06718
803.20 0.0672
803.30 0.06722
803.40 0.06725
803.50 0.06727
803.60 0.06729
803.70 0.06731
803.80 0.06734
803.90 0.06736
804.00 0.06738
804.10 0.0674
804.20 0.06742
804.30 0.06745
804.40 0.06747
804.50 0.06749
804.60 0.06751
804.70 0.06753
804.80 0.06756
804.90 0.06758
805.00 0.0676
805.10 0.06762
805.20 0.06765
805.30 0.06767
805.40 0.06769
805.50 0.06771
805.60 0.06773
805.70 0.06776
805.80 0.06778
805.90 0.0678
806.00 0.06782
806.10 0.06784
806.20 0.06787
806.30 0.06789
806.40 0.06791
806.50 0.06793
806.60 0.06795
806.70 0.06797
806.80 0.068
806.90 0.06802
807.00 0.06804
807.10 0.06806
807.20 0.06808
807.30 0.06811
807.40 0.06813
807.50 0.06815
807.60 0.06817
807.70 0.06819
807.80 0.06821
807.90 0.06824
808.00 0.06826
808.10 0.06828
808.20 0.0683
808.30 0.06832
808.40 0.06834
808.50 0.06837
808.60 0.06839
808.70 0.06841
808.80 0.06843
808.90 0.06845
809.00 0.06847
809.10 0.0685
809.20 0.06852
809.30 0.06854
809.40 0.06856
809.50 0.06858
809.60 0.0686
809.70 0.06863
809.80 0.06865
809.90 0.06867
810.00 0.06869
810.10 0.0687
810.20 0.06871
810.30 0.06873
810.40 0.06874
810.50 0.06875
810.60 0.06876
810.70 0.06877
810.80 0.06879
810.90 0.0688
811.00 0.06881
811.10 0.06882
811.20 0.06883
811.30 0.06885
811.40 0.06886
811.50 0.06887
811.60 0.06888
811.70 0.06889
811.80 0.06891
811.90 0.06892
812.00 0.06893
812.10 0.06894
812.20 0.06895
812.30 0.06897
812.40 0.06898
812.50 0.06899
812.60 0.069
812.70 0.06901
812.80 0.06903
812.90 0.06904
813.00 0.06905
813.10 0.06906
813.20 0.06907
813.30 0.06909
813.40 0.0691
813.50 0.06911
813.60 0.06912
813.70 0.06913
813.80 0.06914
813.90 0.06916
814.00 0.06917
814.10 0.06918
814.20 0.06919
814.30 0.0692
814.40 0.06922
814.50 0.06923
814.60 0.06924
814.70 0.06925
814.80 0.06926
814.90 0.06927
815.00 0.06929
815.10 0.0693
815.20 0.06931
815.30 0.06932
815.40 0.06933
815.50 0.06934
815.60 0.06936
815.70 0.06937
815.80 0.06938
815.90 0.06939
816.00 0.0694
816.10 0.06941
816.20 0.06943
816.30 0.06944
816.40 0.06945
816.50 0.06946
816.60 0.06947
816.70 0.06948
816.80 0.0695
816.90 0.06951
817.00 0.06952
817.10 0.06953
817.20 0.06954
817.30 0.06955
817.40 0.06956
817.50 0.06958
817.60 0.06959
817.70 0.0696
817.80 0.06961
817.90 0.06962
818.00 0.06963
818.10 0.06965
818.20 0.06966
818.30 0.06967
818.40 0.06968
818.50 0.06969
818.60 0.0697
818.70 0.06971
818.80 0.06973
818.90 0.06974
819.00 0.06975
819.10 0.06976
819.20 0.06977
819.30 0.06978
819.40 0.06979
819.50 0.06981
819.60 0.06982
819.70 0.06983
819.80 0.06984
819.90 0.06985
820.00 0.06986
820.10 0.06987
820.20 0.0699
820.30 0.06993
820.40 0.06995
820.50 0.06998
820.60 0.07001
820.70 0.07004
820.80 0.07006
820.90 0.07009
821.00 0.07012
821.10 0.07014
821.20 0.07017
821.30 0.0702
821.40 0.07023
821.50 0.07025
821.60 0.07028
821.70 0.07031
821.80 0.07033
821.90 0.07036
822.00 0.07039
822.10 0.07043
822.20 0.07046
822.30 0.0705
822.40 0.07054
822.50 0.07058
822.60 0.07061
822.70 0.07065
822.80 0.07069
822.90 0.07073
823.00 0.07076
823.10 0.0708
823.20 0.07084
823.30 0.07088
823.40 0.07091
823.50 0.07095
823.60 0.07099
823.70 0.07103
823.80 0.07106
823.90 0.0711
824.00 0.07114
824.10 0.07118
824.20 0.07121
824.30 0.07125
824.40 0.07129
824.50 0.07133
824.60 0.07136
824.70 0.0714
824.80 0.07144
824.90 0.07148
825.00 0.07151
825.10 0.07155
825.20 0.07159
825.30 0.07162
825.40 0.07166
825.50 0.0717
825.60 0.07174
825.70 0.07177
825.80 0.07181
825.90 0.07185
826.00 0.07188
826.10 0.07192
826.20 0.07196
826.30 0.07199
826.40 0.07203
826.50 0.07207
826.60 0.0721
826.70 0.07214
826.80 0.07218
826.90 0.07222
827.00 0.07225
827.10 0.0723
827.20 0.07234
827.30 0.07238
827.40 0.07243
827.50 0.07247
827.60 0.07251
827.70 0.07256
827.80 0.0726
827.90 0.07265
828.00 0.07269
828.10 0.07273
828.20 0.07278
828.30 0.07282
828.40 0.07286
828.50 0.07291
828.60 0.07295
828.70 0.07299
828.80 0.07304
828.90 0.07308
829.00 0.07312
829.10 0.07317
829.20 0.07321
829.30 0.07326
829.40 0.0733
829.50 0.07334
829.60 0.07339
829.70 0.07343
829.80 0.07347
829.90 0.07351
830.00 0.07356
830.10 0.0736
830.20 0.07364
830.30 0.07369
830.40 0.07373
830.50 0.07377
830.60 0.07382
830.70 0.07386
830.80 0.0739
830.90 0.07395
831.00 0.07399
831.10 0.07403
831.20 0.07407
831.30 0.07412
831.40 0.07416
831.50 0.0742
831.60 0.07425
831.70 0.07429
831.80 0.07433
831.90 0.07437
832.00 0.07442
832.10 0.07445
832.20 0.07448
832.30 0.07452
832.40 0.07455
832.50 0.07458
832.60 0.07462
832.70 0.07465
832.80 0.07468
832.90 0.07472
833.00 0.07475
833.10 0.07478
833.20 0.07482
833.30 0.07485
833.40 0.07488
833.50 0.07491
833.60 0.07495
833.70 0.07498
833.80 0.07501
833.90 0.07505
834.00 0.07508
834.10 0.07511
834.20 0.07515
834.30 0.07518
834.40 0.07521
834.50 0.07524
834.60 0.07528
834.70 0.07531
834.80 0.07534
834.90 0.07537
835.00 0.07541
835.10 0.07544
835.20 0.07547
835.30 0.07551
835.40 0.07554
835.50 0.07557
835.60 0.0756
835.70 0.07564
835.80 0.07567
835.90 0.0757
836.00 0.07573
836.10 0.07577
836.20 0.0758
836.30 0.07583
836.40 0.07586
836.50 0.0759
836.60 0.07593
836.70 0.07596
836.80 0.07599
836.90 0.07603
837.00 0.07606
837.10 0.07609
837.20 0.07611
837.30 0.07614
837.40 0.07616
837.50 0.07619
837.60 0.07621
837.70 0.07624
837.80 0.07627
837.90 0.07629
838.00 0.07632
838.10 0.07634
838.20 0.07637
838.30 0.0764
838.40 0.07642
838.50 0.07645
838.60 0.07647
838.70 0.0765
838.80 0.07652
838.90 0.07655
839.00 0.07657
839.10 0.0766
839.20 0.07663
839.30 0.07665
839.40 0.07668
839.50 0.0767
839.60 0.07673
839.70 0.07675
839.80 0.07678
839.90 0.07681
840.00 0.07683
840.10 0.07686
840.20 0.07688
840.30 0.07691
840.40 0.07693
840.50 0.07696
840.60 0.07698
840.70 0.07701
840.80 0.07703
840.90 0.07706
841.00 0.07708
841.10 0.07711
841.20 0.07714
841.30 0.07716
841.40 0.07719
841.50 0.07721
841.60 0.07724
841.70 0.07726
841.80 0.07729
841.90 0.07731
842.00 0.07734
842.10 0.07736
842.20 0.07738
842.30 0.07739
842.40 0.07741
842.50 0.07743
842.60 0.07745
842.70 0.07747
842.80 0.07749
842.90 0.07751
843.00 0.07752
843.10 0.07754
843.20 0.07756
843.30 0.07758
843.40 0.0776
843.50 0.07762
843.60 0.07764
843.70 0.07765
843.80 0.07767
843.90 0.07769
844.00 0.07771
844.10 0.07773
844.20 0.07775
844.30 0.07776
844.40 0.07778
844.50 0.0778
844.60 0.07782
844.70 0.07784
844.80 0.07786
844.90 0.07788
845.00 0.07789
845.10 0.07791
845.20 0.07793
845.30 0.07795
845.40 0.07797
845.50 0.07799
845.60 0.078
845.70 0.07802
845.80 0.07804
845.90 0.07806
846.00 0.07808
846.10 0.0781
846.20 0.07811
846.30 0.07813
846.40 0.07815
846.50 0.07817
846.60 0.07819
846.70 0.0782
846.80 0.07822
846.90 0.07824
847.00 0.07826
847.10 0.07828
847.20 0.0783
847.30 0.07832
847.40 0.07834
847.50 0.07836
847.60 0.07838
847.70 0.0784
847.80 0.07842
847.90 0.07844
848.00 0.07846
848.10 0.07848
848.20 0.0785
848.30 0.07852
848.40 0.07854
848.50 0.07856
848.60 0.07859
848.70 0.07861
848.80 0.07863
848.90 0.07865
849.00 0.07867
849.10 0.07869
849.20 0.07871
849.30 0.07873
849.40 0.07875
849.50 0.07877
849.60 0.07879
849.70 0.07881
849.80 0.07883
849.90 0.07885
850.00 0.07887
850.10 0.07889
850.20 0.07891
850.30 0.07893
850.40 0.07895
850.50 0.07897
850.60 0.07899
850.70 0.07901
850.80 0.07903
850.90 0.07905
851.00 0.07907
851.10 0.07909
851.20 0.07911
851.30 0.07913
851.40 0.07915
851.50 0.07917
851.60 0.07919
851.70 0.07921
851.80 0.07923
851.90 0.07925
852.00 0.07927
852.10 0.07929
852.20 0.07932
852.30 0.07934
852.40 0.07937
852.50 0.07939
852.60 0.07941
852.70 0.07944
852.80 0.07946
852.90 0.07949
853.00 0.07951
853.10 0.07953
853.20 0.07956
853.30 0.07958
853.40 0.07961
853.50 0.07963
853.60 0.07965
853.70 0.07968
853.80 0.0797
853.90 0.07973
854.00 0.07975
854.10 0.07977
854.20 0.0798
854.30 0.07982
854.40 0.07985
854.50 0.07987
854.60 0.07989
854.70 0.07992
854.80 0.07994
854.90 0.07997
855.00 0.07999
855.10 0.08001
855.20 0.08004
855.30 0.08006
855.40 0.08008
855.50 0.08011
855.60 0.08013
855.70 0.08016
855.80 0.08018
855.90 0.0802
856.00 0.08023
856.10 0.08025
856.20 0.08027
856.30 0.0803
856.40 0.08032
856.50 0.08034
856.60 0.08037
856.70 0.08039
856.80 0.08042
856.90 0.08044
857.00 0.08046
857.10 0.08049
857.20 0.08052
857.30 0.08055
857.40 0.08057
857.50 0.0806
857.60 0.08063
857.70 0.08066
857.80 0.08069
857.90 0.08071
858.00 0.08074
858.10 0.08077
858.20 0.0808
858.30 0.08082
858.40 0.08085
858.50 0.08088
858.60 0.08091
858.70 0.08094
858.80 0.08096
858.90 0.08099
859.00 0.08102
859.10 0.08105
859.20 0.08107
859.30 0.0811
859.40 0.08113
859.50 0.08116
859.60 0.08118
859.70 0.08121
859.80 0.08124
859.90 0.08127
860.00 0.08129
860.10 0.08132
860.20 0.08135
860.30 0.08138
860.40 0.0814
860.50 0.08143
860.60 0.08146
860.70 0.08149
860.80 0.08151
860.90 0.08154
861.00 0.08157
861.10 0.0816
861.20 0.08162
861.30 0.08165
861.40 0.08168
861.50 0.0817
861.60 0.08173
861.70 0.08176
861.80 0.08179
861.90 0.08181
862.00 0.08184
862.10 0.08188
862.20 0.08191
862.30 0.08195
862.40 0.08198
862.50 0.08201
862.60 0.08205
862.70 0.08208
862.80 0.08212
862.90 0.08215
863.00 0.08219
863.10 0.08222
863.20 0.08226
863.30 0.08229
863.40 0.08233
863.50 0.08236
863.60 0.0824
863.70 0.08243
863.80 0.08246
863.90 0.0825
864.00 0.08253
864.10 0.08257
864.20 0.0826
864.30 0.08264
864.40 0.08267
864.50 0.08271
864.60 0.08274
864.70 0.08277
864.80 0.08281
864.90 0.08284
865.00 0.08288
865.10 0.08291
865.20 0.08295
865.30 0.08298
865.40 0.08301
865.50 0.08305
865.60 0.08308
865.70 0.08312
865.80 0.08315
865.90 0.08319
866.00 0.08322
866.10 0.08325
866.20 0.08329
866.30 0.08332
866.40 0.08336
866.50 0.08339
866.60 0.08342
866.70 0.08346
866.80 0.08349
866.90 0.08353
867.00 0.08356
867.10 0.08359
867.20 0.08362
867.30 0.08365
867.40 0.08367
867.50 0.0837
867.60 0.08373
867.70 0.08376
867.80 0.08379
867.90 0.08382
868.00 0.08385
868.10 0.08388
868.20 0.0839
868.30 0.08393
868.40 0.08396
868.50 0.08399
868.60 0.08402
868.70 0.08405
868.80 0.08407
868.90 0.0841
869.00 0.08413
869.10 0.08416
869.20 0.08419
869.30 0.08422
869.40 0.08425
869.50 0.08427
869.60 0.0843
869.70 0.08433
869.80 0.08436
869.90 0.08439
870.00 0.08441
870.10 0.08444
870.20 0.08447
870.30 0.0845
870.40 0.08453
870.50 0.08456
870.60 0.08458
870.70 0.08461
870.80 0.08464
870.90 0.08467
871.00 0.0847
871.10 0.08472
871.20 0.08475
871.30 0.08478
871.40 0.08481
871.50 0.08484
871.60 0.08487
871.70 0.08489
871.80 0.08492
871.90 0.08495
872.00 0.08498
872.10 0.085
872.20 0.08502
872.30 0.08505
872.40 0.08507
872.50 0.08509
872.60 0.08511
872.70 0.08514
872.80 0.08516
872.90 0.08518
873.00 0.08521
873.10 0.08523
873.20 0.08525
873.30 0.08527
873.40 0.0853
873.50 0.08532
873.60 0.08534
873.70 0.08537
873.80 0.08539
873.90 0.08541
874.00 0.08543
874.10 0.08546
874.20 0.08548
874.30 0.0855
874.40 0.08553
874.50 0.08555
874.60 0.08557
874.70 0.08559
874.80 0.08562
874.90 0.08564
875.00 0.08566
875.10 0.08568
875.20 0.08571
875.30 0.08573
875.40 0.08575
875.50 0.08577
875.60 0.0858
875.70 0.08582
875.80 0.08584
875.90 0.08586
876.00 0.08589
876.10 0.08591
876.20 0.08593
876.30 0.08595
876.40 0.08598
876.50 0.086
876.60 0.08602
876.70 0.08604
876.80 0.08607
876.90 0.08609
877.00 0.08611
877.10 0.08611
877.20 0.08612
877.30 0.08612
877.40 0.08612
877.50 0.08613
877.60 0.08613
877.70 0.08614
877.80 0.08614
877.90 0.08614
878.00 0.08615
878.10 0.08615
878.20 0.08615
878.30 0.08616
878.40 0.08616
878.50 0.08616
878.60 0.08617
878.70 0.08617
878.80 0.08617
878.90 0.08618
879.00 0.08618
879.10 0.08618
879.20 0.08619
879.30 0.08619
879.40 0.08619
879.50 0.0862
879.60 0.0862
879.70 0.0862
879.80 0.08621
879.90 0.08621
880.00 0.08621
880.10 0.08622
880.20 0.08622
880.30 0.08622
880.40 0.08623
880.50 0.08623
880.60 0.08623
880.70 0.08624
880.80 0.08624
880.90 0.08624
881.00 0.08625
881.10 0.08625
881.20 0.08625
881.30 0.08626
881.40 0.08626
881.50 0.08626
881.60 0.08627
881.70 0.08627
881.80 0.08627
881.90 0.08628
882.00 0.08628
882.10 0.08627
882.20 0.08626
882.30 0.08625
882.40 0.08624
882.50 0.08623
882.60 0.08622
882.70 0.08621
882.80 0.08621
882.90 0.0862
883.00 0.08619
883.10 0.08618
883.20 0.08617
883.30 0.08616
883.40 0.08615
883.50 0.08614
883.60 0.08613
883.70 0.08612
883.80 0.08611
883.90 0.0861
884.00 0.08609
884.10 0.08608
884.20 0.08607
884.30 0.08607
884.40 0.08606
884.50 0.08605
884.60 0.08604
884.70 0.08603
884.80 0.08602
884.90 0.08601
885.00 0.086
885.10 0.08599
885.20 0.08598
885.30 0.08597
885.40 0.08596
885.50 0.08595
885.60 0.08594
885.70 0.08594
885.80 0.08593
885.90 0.08592
886.00 0.08591
886.10 0.0859
886.20 0.08589
886.30 0.08588
886.40 0.08587
886.50 0.08586
886.60 0.08585
886.70 0.08584
886.80 0.08583
886.90 0.08582
887.00 0.08581
887.10 0.08579
887.20 0.08577
887.30 0.08575
887.40 0.08573
887.50 0.08571
887.60 0.08568
887.70 0.08566
887.80 0.08564
887.90 0.08562
888.00 0.0856
888.10 0.08557
888.20 0.08555
888.30 0.08553
888.40 0.08551
888.50 0.08549
888.60 0.08547
888.70 0.08544
888.80 0.08542
888.90 0.0854
889.00 0.08538
889.10 0.08536
889.20 0.08534
889.30 0.08531
889.40 0.08529
889.50 0.08527
889.60 0.08525
889.70 0.08523
889.80 0.08521
889.90 0.08518
890.00 0.08516
890.10 0.08514
890.20 0.08512
890.30 0.0851
890.40 0.08508
890.50 0.08505
890.60 0.08503
890.70 0.08501
890.80 0.08499
890.90 0.08497
891.00 0.08495
891.10 0.08493
891.20 0.0849
891.30 0.08488
891.40 0.08486
891.50 0.08484
891.60 0.08482
891.70 0.0848
891.80 0.08477
891.90 0.08475
892.00 0.08473
892.10 0.08471
892.20 0.08468
892.30 0.08465
892.40 0.08463
892.50 0.0846
892.60 0.08458
892.70 0.08455
892.80 0.08453
892.90 0.0845
893.00 0.08447
893.10 0.08445
893.20 0.08442
893.30 0.0844
893.40 0.08437
893.50 0.08435
893.60 0.08432
893.70 0.08429
893.80 0.08427
893.90 0.08424
894.00 0.08422
894.10 0.08419
894.20 0.08417
894.30 0.08414
894.40 0.08411
894.50 0.08409
894.60 0.08406
894.70 0.08404
894.80 0.08401
894.90 0.08399
895.00 0.08396
895.10 0.08393
895.20 0.08391
895.30 0.08388
895.40 0.08386
895.50 0.08383
895.60 0.08381
895.70 0.08378
895.80 0.08376
895.90 0.08373
896.00 0.08371
896.10 0.08368
896.20 0.08365
896.30 0.08363
896.40 0.0836
896.50 0.08358
896.60 0.08355
896.70 0.08353
896.80 0.0835
896.90 0.08348
897.00 0.08345
897.10 0.08342
897.20 0.08338
897.30 0.08335
897.40 0.08332
897.50 0.08328
897.60 0.08325
897.70 0.08321
897.80 0.08318
897.90 0.08315
898.00 0.08311
898.10 0.08308
898.20 0.08304
898.30 0.08301
898.40 0.08298
898.50 0.08294
898.60 0.08291
898.70 0.08288
898.80 0.08284
898.90 0.08281
899.00 0.08277
899.10 0.08274
899.20 0.08271
899.30 0.08267
899.40 0.08264
899.50 0.08261
899.60 0.08257
899.70 0.08254
899.80 0.08251
899.90 0.08247
900.00 0.08244
900.10 0.08241
900.20 0.08237
900.30 0.08234
900.40 0.0823
900.50 0.08227
900.60 0.08224
900.70 0.0822
900.80 0.08217
900.90 0.08214
901.00 0.0821
901.10 0.08207
901.20 0.08204
901.30 0.082
901.40 0.08197
901.50 0.08194
901.60 0.0819
901.70 0.08187
901.80 0.08184
901.90 0.0818
902.00 0.08177
902.10 0.08173
902.20 0.08169
902.30 0.08165
902.40 0.08161
902.50 0.08157
902.60 0.08152
902.70 0.08148
902.80 0.08144
902.90 0.0814
903.00 0.08136
903.10 0.08132
903.20 0.08128
903.30 0.08124
903.40 0.0812
903.50 0.08116
903.60 0.08112
903.70 0.08108
903.80 0.08104
903.90 0.08099
904.00 0.08095
904.10 0.08091
904.20 0.08087
904.30 0.08083
904.40 0.08079
904.50 0.08075
904.60 0.08071
904.70 0.08067
904.80 0.08063
904.90 0.08059
905.00 0.08055
905.10 0.08051
905.20 0.08047
905.30 0.08043
905.40 0.08039
905.50 0.08034
905.60 0.0803
905.70 0.08026
905.80 0.08022
905.90 0.08018
906.00 0.08014
906.10 0.0801
906.20 0.08006
906.30 0.08002
906.40 0.07998
906.50 0.07994
906.60 0.0799
906.70 0.07986
906.80 0.07982
906.90 0.07978
907.00 0.07974
907.10 0.07969
907.20 0.07964
907.30 0.07959
907.40 0.07954
907.50 0.07949
907.60 0.07944
907.70 0.07939
907.80 0.07934
907.90 0.07929
908.00 0.07924
908.10 0.0792
908.20 0.07915
908.30 0.0791
908.40 0.07905
908.50 0.079
908.60 0.07895
908.70 0.0789
908.80 0.07885
908.90 0.0788
909.00 0.07875
909.10 0.0787
909.20 0.07865
909.30 0.0786
909.40 0.07856
909.50 0.07851
909.60 0.07846
909.70 0.07841
909.80 0.07836
909.90 0.07831
910.00 0.07826
910.10 0.07821
910.20 0.07816
910.30 0.07811
910.40 0.07807
910.50 0.07802
910.60 0.07797
910.70 0.07792
910.80 0.07787
910.90 0.07782
911.00 0.07777
911.10 0.07772
911.20 0.07767
911.30 0.07763
911.40 0.07758
911.50 0.07753
911.60 0.07748
911.70 0.07743
911.80 0.07738
911.90 0.07733
912.00 0.07729
912.10 0.07723
912.20 0.07717
912.30 0.07712
912.40 0.07706
912.50 0.077
912.60 0.07695
912.70 0.07689
912.80 0.07683
912.90 0.07678
913.00 0.07672
913.10 0.07666
913.20 0.07661
913.30 0.07655
913.40 0.07649
913.50 0.07644
913.60 0.07638
913.70 0.07633
913.80 0.07627
913.90 0.07621
914.00 0.07616
914.10 0.0761
914.20 0.07604
914.30 0.07599
914.40 0.07593
914.50 0.07588
914.60 0.07582
914.70 0.07576
914.80 0.07571
914.90 0.07565
915.00 0.0756
915.10 0.07554
915.20 0.07548
915.30 0.07543
915.40 0.07537
915.50 0.07532
915.60 0.07526
915.70 0.0752
915.80 0.07515
915.90 0.07509
916.00 0.07504
916.10 0.07498
916.20 0.07492
916.30 0.07487
916.40 0.07481
916.50 0.07476
916.60 0.0747
916.70 0.07465
916.80 0.07459
916.90 0.07454
917.00 0.07448
917.10 0.07442
917.20 0.07435
917.30 0.07429
917.40 0.07422
917.50 0.07416
917.60 0.07409
917.70 0.07403
917.80 0.07397
917.90 0.0739
918.00 0.07384
918.10 0.07377
918.20 0.07371
918.30 0.07365
918.40 0.07358
918.50 0.07352
918.60 0.07345
918.70 0.07339
918.80 0.07333
918.90 0.07326
919.00 0.0732
919.10 0.07313
919.20 0.07307
919.30 0.07301
919.40 0.07294
919.50 0.07288
919.60 0.07282
919.70 0.07275
919.80 0.07269
919.90 0.07262
920.00 0.07256
920.10 0.0725
920.20 0.07243
920.30 0.07237
920.40 0.07231
920.50 0.07224
920.60 0.07218
920.70 0.07212
920.80 0.07205
920.90 0.07199
921.00 0.07193
921.10 0.07186
921.20 0.0718
921.30 0.07174
921.40 0.07167
921.50 0.07161
921.60 0.07155
921.70 0.07148
921.80 0.07142
921.90 0.07136
922.00 0.07129
922.10 0.07122
922.20 0.07115
922.30 0.07109
922.40 0.07102
922.50 0.07095
922.60 0.07088
922.70 0.07081
922.80 0.07074
922.90 0.07067
923.00 0.0706
923.10 0.07053
923.20 0.07046
923.30 0.07039
923.40 0.07032
923.50 0.07025
923.60 0.07018
923.70 0.07012
923.80 0.07005
923.90 0.06998
924.00 0.06991
924.10 0.06984
924.20 0.06977
924.30 0.0697
924.40 0.06963
924.50 0.06956
924.60 0.0695
924.70 0.06943
924.80 0.06936
924.90 0.06929
925.00 0.06922
925.10 0.06915
925.20 0.06908
925.30 0.06901
925.40 0.06895
925.50 0.06888
925.60 0.06881
925.70 0.06874
925.80 0.06867
925.90 0.0686
926.00 0.06853
926.10 0.06847
926.20 0.0684
926.30 0.06833
926.40 0.06826
926.50 0.06819
926.60 0.06812
926.70 0.06806
926.80 0.06799
926.90 0.06792
927.00 0.06785
927.10 0.06778
927.20 0.0677
927.30 0.06763
927.40 0.06755
927.50 0.06748
927.60 0.06741
927.70 0.06733
927.80 0.06726
927.90 0.06718
928.00 0.06711
928.10 0.06704
928.20 0.06696
928.30 0.06689
928.40 0.06681
928.50 0.06674
928.60 0.06667
928.70 0.06659
928.80 0.06652
928.90 0.06644
929.00 0.06637
929.10 0.0663
929.20 0.06622
929.30 0.06615
929.40 0.06608
929.50 0.066
929.60 0.06593
929.70 0.06585
929.80 0.06578
929.90 0.06571
930.00 0.06563
930.10 0.06556
930.20 0.06549
930.30 0.06541
930.40 0.06534
930.50 0.06527
930.60 0.06519
930.70 0.06512
930.80 0.06505
930.90 0.06497
931.00 0.0649
931.10 0.06483
931.20 0.06475
931.30 0.06468
931.40 0.06461
931.50 0.06454
931.60 0.06446
931.70 0.06439
931.80 0.06432
931.90 0.06424
932.00 0.06417
932.10 0.0641
932.20 0.06402
932.30 0.06395
932.40 0.06387
932.50 0.0638
932.60 0.06372
932.70 0.06365
932.80 0.06357
932.90 0.0635
933.00 0.06342
933.10 0.06335
933.20 0.06327
933.30 0.0632
933.40 0.06312
933.50 0.06305
933.60 0.06297
933.70 0.0629
933.80 0.06283
933.90 0.06275
934.00 0.06268
934.10 0.0626
934.20 0.06253
934.30 0.06245
934.40 0.06238
934.50 0.0623
934.60 0.06223
934.70 0.06215
934.80 0.06208
934.90 0.062
935.00 0.06192
935.10 0.06185
935.20 0.06177
935.30 0.0617
935.40 0.06162
935.50 0.06155
935.60 0.06147
935.70 0.0614
935.80 0.06132
935.90 0.06125
936.00 0.06117
936.10 0.0611
936.20 0.06102
936.30 0.06095
936.40 0.06087
936.50 0.0608
936.60 0.06072
936.70 0.06065
936.80 0.06057
936.90 0.0605
937.00 0.06042
937.10 0.06035
937.20 0.06027
937.30 0.0602
937.40 0.06012
937.50 0.06004
937.60 0.05997
937.70 0.05989
937.80 0.05982
937.90 0.05974
938.00 0.05966
938.10 0.05959
938.20 0.05951
938.30 0.05944
938.40 0.05936
938.50 0.05928
938.60 0.05921
938.70 0.05913
938.80 0.05905
938.90 0.05897
939.00 0.0589
939.10 0.05882
939.20 0.05874
939.30 0.05867
939.40 0.05859
939.50 0.05851
939.60 0.05843
939.70 0.05836
939.80 0.05828
939.90 0.0582
940.00 0.05813
940.10 0.05805
940.20 0.05797
940.30 0.05789
940.40 0.05782
940.50 0.05774
940.60 0.05767
940.70 0.05759
940.80 0.05752
940.90 0.05744
941.00 0.05737
941.10 0.05729
941.20 0.05721
941.30 0.05714
941.40 0.05706
941.50 0.05699
941.60 0.05691
941.70 0.05684
941.80 0.05676
941.90 0.05669
942.00 0.05661
942.10 0.05653
942.20 0.05646
942.30 0.05638
942.40 0.05631
942.50 0.05623
942.60 0.05616
942.70 0.05608
942.80 0.05601
942.90 0.05593
943.00 0.05586
943.10 0.05578
943.20 0.05571
943.30 0.05563
943.40 0.05556
943.50 0.05548
943.60 0.05541
943.70 0.05533
943.80 0.05526
943.90 0.05518
944.00 0.05511
944.10 0.05503
944.20 0.05496
944.30 0.05488
944.40 0.05481
944.50 0.05473
944.60 0.05466
944.70 0.05458
944.80 0.05451
944.90 0.05443
945.00 0.05436
945.10 0.05428
945.20 0.05421
945.30 0.05413
945.40 0.05406
945.50 0.05399
945.60 0.05391
945.70 0.05384
945.80 0.05376
945.90 0.05369
946.00 0.05361
946.10 0.05354
946.20 0.05346
946.30 0.05339
946.40 0.05332
946.50 0.05324
946.60 0.05317
946.70 0.05309
946.80 0.05302
946.90 0.05295
947.00 0.05287
947.10 0.0528
947.20 0.05272
947.30 0.05265
947.40 0.05257
947.50 0.0525
947.60 0.05243
947.70 0.05235
947.80 0.05228
947.90 0.05221
948.00 0.05213
948.10 0.05206
948.20 0.05198
948.30 0.05191
948.40 0.05184
948.50 0.05176
948.60 0.05169
948.70 0.05162
948.80 0.05154
948.90 0.05147
949.00 0.0514
949.10 0.05132
949.20 0.05125
949.30 0.05118
949.40 0.0511
949.50 0.05103
949.60 0.05096
949.70 0.05088
949.80 0.05081
949.90 0.05074
950.00 0.05066
950.10 0.05059
950.20 0.05052
950.30 0.05044
950.40 0.05037
950.50 0.0503
950.60 0.05022
950.70 0.05015
950.80 0.05008
950.90 0.05
951.00 0.04993
951.10 0.04986
951.20 0.04978
951.30 0.04971
951.40 0.04964
951.50 0.04957
951.60 0.04949
951.70 0.04942
951.80 0.04935
951.90 0.04927
952.00 0.0492
952.10 0.04913
952.20 0.04906
952.30 0.04898
952.40 0.04891
952.50 0.04884
952.60 0.04876
952.70 0.04869
952.80 0.04862
952.90 0.04855
953.00 0.04848
953.10 0.0484
953.20 0.04833
953.30 0.04826
953.40 0.04819
953.50 0.04811
953.60 0.04804
953.70 0.04797
953.80 0.0479
953.90 0.04783
954.00 0.04775
954.10 0.04768
954.20 0.04761
954.30 0.04754
954.40 0.04746
954.50 0.04739
954.60 0.04732
954.70 0.04725
954.80 0.04718
954.90 0.0471
955.00 0.04703
955.10 0.04696
955.20 0.04689
955.30 0.04682
955.40 0.04674
955.50 0.04667
955.60 0.0466
955.70 0.04653
955.80 0.04646
955.90 0.04638
956.00 0.04631
956.10 0.04624
956.20 0.04617
956.30 0.04609
956.40 0.04602
956.50 0.04595
956.60 0.04588
956.70 0.0458
956.80 0.04573
956.90 0.04566
957.00 0.04559
957.10 0.04552
957.20 0.04545
957.30 0.04537
957.40 0.0453
957.50 0.04523
957.60 0.04516
957.70 0.04509
957.80 0.04502
957.90 0.04495
958.00 0.04488
958.10 0.04481
958.20 0.04474
958.30 0.04467
958.40 0.0446
958.50 0.04453
958.60 0.04446
958.70 0.04439
958.80 0.04432
958.90 0.04424
959.00 0.04417
959.10 0.0441
959.20 0.04403
959.30 0.04396
959.40 0.04389
959.50 0.04382
959.60 0.04375
959.70 0.04368
959.80 0.04361
959.90 0.04354
960.00 0.04347
960.10 0.0434
960.20 0.04333
960.30 0.04326
960.40 0.0432
960.50 0.04313
960.60 0.04306
960.70 0.04299
960.80 0.04292
960.90 0.04285
961.00 0.04278
961.10 0.04271
961.20 0.04264
961.30 0.04257
961.40 0.0425
961.50 0.04243
961.60 0.04236
961.70 0.04229
961.80 0.04222
961.90 0.04216
962.00 0.04209
962.10 0.04202
962.20 0.04195
962.30 0.04188
962.40 0.04181
962.50 0.04174
962.60 0.04167
962.70 0.0416
962.80 0.04154
962.90 0.04147
963.00 0.0414
963.10 0.04133
963.20 0.04126
963.30 0.04119
963.40 0.04112
963.50 0.04106
963.60 0.04099
963.70 0.04092
963.80 0.04085
963.90 0.04078
964.00 0.04072
964.10 0.04065
964.20 0.04058
964.30 0.04051
964.40 0.04044
964.50 0.04037
964.60 0.0403
964.70 0.04023
964.80 0.04017
964.90 0.0401
965.00 0.04003
965.10 0.03996
965.20 0.03989
965.30 0.03982
965.40 0.03975
965.50 0.03968
965.60 0.03961
965.70 0.03954
965.80 0.03947
965.90 0.0394
966.00 0.03933
966.10 0.03927
966.20 0.0392
966.30 0.03913
966.40 0.03906
966.50 0.03899
966.60 0.03893
966.70 0.03886
966.80 0.03879
966.90 0.03873
967.00 0.03866
967.10 0.03859
967.20 0.03853
967.30 0.03846
967.40 0.0384
967.50 0.03833
967.60 0.03826
967.70 0.0382
967.80 0.03813
967.90 0.03807
968.00 0.038
968.10 0.03794
968.20 0.03787
968.30 0.0378
968.40 0.03774
968.50 0.03767
968.60 0.03761
968.70 0.03754
968.80 0.03748
968.90 0.03741
969.00 0.03735
969.10 0.03729
969.20 0.03722
969.30 0.03716
969.40 0.03709
969.50 0.03703
969.60 0.03696
969.70 0.0369
969.80 0.03683
969.90 0.03677
970.00 0.0367
970.10 0.03664
970.20 0.03657
970.30 0.03651
970.40 0.03645
970.50 0.03638
970.60 0.03632
970.70 0.03626
970.80 0.03619
970.90 0.03613
971.00 0.03607
971.10 0.036
971.20 0.03594
971.30 0.03588
971.40 0.03581
971.50 0.03575
971.60 0.03569
971.70 0.03562
971.80 0.03556
971.90 0.0355
972.00 0.03543
972.10 0.03537
972.20 0.03531
972.30 0.03525
972.40 0.03519
972.50 0.03512
972.60 0.03506
972.70 0.035
972.80 0.03494
972.90 0.03488
973.00 0.03482
973.10 0.03475
973.20 0.03469
973.30 0.03463
973.40 0.03457
973.50 0.03451
973.60 0.03444
973.70 0.03438
973.80 0.03432
973.90 0.03426
974.00 0.0342
974.10 0.03414
974.20 0.03407
974.30 0.03401
974.40 0.03395
974.50 0.03389
974.60 0.03383
974.70 0.03377
974.80 0.03371
974.90 0.03365
975.00 0.03359
975.10 0.03352
975.20 0.03346
975.30 0.0334
975.40 0.03334
975.50 0.03328
975.60 0.03322
975.70 0.03316
975.80 0.0331
975.90 0.03304
976.00 0.03298
976.10 0.03292
976.20 0.03285
976.30 0.03279
976.40 0.03273
976.50 0.03267
976.60 0.03261
976.70 0.03255
976.80 0.03249
976.90 0.03243
977.00 0.03237
977.10 0.03231
977.20 0.03225
977.30 0.0322
977.40 0.03214
977.50 0.03208
977.60 0.03202
977.70 0.03197
977.80 0.03191
977.90 0.03185
978.00 0.03179
978.10 0.03174
978.20 0.03168
978.30 0.03162
978.40 0.03157
978.50 0.03151
978.60 0.03145
978.70 0.03139
978.80 0.03134
978.90 0.03128
979.00 0.03122
979.10 0.03117
979.20 0.03111
979.30 0.03105
979.40 0.03099
979.50 0.03094
979.60 0.03088
979.70 0.03082
979.80 0.03077
979.90 0.03071
980.00 0.03065
980.10 0.0306
980.20 0.03054
980.30 0.03048
980.40 0.03043
980.50 0.03037
980.60 0.03031
980.70 0.03026
980.80 0.0302
980.90 0.03014
981.00 0.03009
981.10 0.03003
981.20 0.02997
981.30 0.02992
981.40 0.02986
981.50 0.0298
981.60 0.02975
981.70 0.02969
981.80 0.02963
981.90 0.02958
982.00 0.02952
982.10 0.02947
982.20 0.02941
982.30 0.02936
982.40 0.0293
982.50 0.02925
982.60 0.0292
982.70 0.02914
982.80 0.02909
982.90 0.02903
983.00 0.02898
983.10 0.02893
983.20 0.02887
983.30 0.02882
983.40 0.02876
983.50 0.02871
983.60 0.02866
983.70 0.0286
983.80 0.02855
983.90 0.02849
984.00 0.02844
984.10 0.02839
984.20 0.02833
984.30 0.02828
984.40 0.02822
984.50 0.02817
984.60 0.02812
984.70 0.02807
984.80 0.02802
984.90 0.02797
985.00 0.02792
985.10 0.02787
985.20 0.02782
985.30 0.02777
985.40 0.02771
985.50 0.02766
985.60 0.02761
985.70 0.02756
985.80 0.02751
985.90 0.02746
986.00 0.02741
986.10 0.02736
986.20 0.02731
986.30 0.02726
986.40 0.02721
986.50 0.02716
986.60 0.02711
986.70 0.02706
986.80 0.02701
986.90 0.02697
987.00 0.02692
987.10 0.02686
987.20 0.02681
987.30 0.02676
987.40 0.02671
987.50 0.02665
987.60 0.0266
987.70 0.02655
987.80 0.0265
987.90 0.02645
988.00 0.02639
988.10 0.02634
988.20 0.02629
988.30 0.02624
988.40 0.02619
988.50 0.02613
988.60 0.02608
988.70 0.02603
988.80 0.02598
988.90 0.02593
989.00 0.02588
989.10 0.02582
989.20 0.02577
989.30 0.02572
989.40 0.02567
989.50 0.02562
989.60 0.02557
989.70 0.02551
989.80 0.02546
989.90 0.02541
990.00 0.02536
990.10 0.02531
990.20 0.02526
990.30 0.0252
990.40 0.02515
990.50 0.0251
990.60 0.02505
990.70 0.025
990.80 0.02495
990.90 0.0249
991.00 0.02484
991.10 0.02479
991.20 0.02474
991.30 0.02469
991.40 0.02464
991.50 0.02459
991.60 0.02454
991.70 0.02449
991.80 0.02444
991.90 0.02439
992.00 0.02433
992.10 0.02428
992.20 0.02423
992.30 0.02418
992.40 0.02413
992.50 0.02408
992.60 0.02403
992.70 0.02398
992.80 0.02393
992.90 0.02388
993.00 0.02383
993.10 0.02378
993.20 0.02373
993.30 0.02368
993.40 0.02362
993.50 0.02357
993.60 0.02352
993.70 0.02347
993.80 0.02342
993.90 0.02337
994.00 0.02332
994.10 0.02327
994.20 0.02322
994.30 0.02317
994.40 0.02312
994.50 0.02307
994.60 0.02302
994.70 0.02296
994.80 0.0229
994.90 0.02284
995.00 0.02277
995.10 0.02271
995.20 0.02265
995.30 0.02258
995.40 0.02252
995.50 0.02246
995.60 0.0224
995.70 0.02235
995.80 0.0223
995.90 0.02225
996.00 0.0222
996.10 0.02215
996.20 0.02211
996.30 0.02206
996.40 0.02201
996.50 0.02196
996.60 0.02191
996.70 0.02186
996.80 0.02182
996.90 0.02177
997.00 0.02172
997.10 0.02167
997.20 0.02163
997.30 0.02158
997.40 0.02153
997.50 0.02149
997.60 0.02144
997.70 0.02139
997.80 0.02135
997.90 0.0213
998.00 0.02126
998.10 0.02121
998.20 0.02117
998.30 0.02112
998.40 0.02108
998.50 0.02103
998.60 0.02099
998.70 0.02094
998.80 0.0209
998.90 0.02085
999.00 0.02081
999.10 0.02076
999.20 0.02072
999.30 0.02067
999.40 0.02063
999.50 0.02058
999.60 0.02054
999.70 0.02049
999.80 0.02045
999.90 0.02041
1000.00 0.02036
1000.10 0.02032
1000.20 0.02028
1000.30 0.02024
1000.40 0.02019
1000.50 0.02015
1000.60 0.02011
1000.70 0.02007
1000.80 0.02002
1000.90 0.01998
1001.00 0.01994
1001.10 0.01989
1001.20 0.01985
1001.30 0.01981
1001.40 0.01977
1001.50 0.01972
1001.60 0.01968
1001.70 0.01964
1001.80 0.0196
1001.90 0.01956
1002.00 0.01952
1002.10 0.01947
1002.20 0.01943
1002.30 0.01939
1002.40 0.01935
1002.50 0.01931
1002.60 0.01927
1002.70 0.01923
1002.80 0.01919
1002.90 0.01915
1003.00 0.01911
1003.10 0.01907
1003.20 0.01903
1003.30 0.01899
1003.40 0.01895
1003.50 0.01891
1003.60 0.01887
1003.70 0.01883
1003.80 0.01879
1003.90 0.01875
1004.00 0.01871
1004.10 0.01868
1004.20 0.01864
1004.30 0.0186
1004.40 0.01856
1004.50 0.01852
1004.60 0.01848
1004.70 0.01844
1004.80 0.01841
1004.90 0.01835
1005.00 0.0183
1005.10 0.01826
1005.20 0.01822
1005.30 0.01818
1005.40 0.01815
1005.50 0.01811
1005.60 0.01807
1005.70 0.01803
1005.80 0.018
1005.90 0.01796
1006.00 0.01792
1006.10 0.01789
1006.20 0.01785
1006.30 0.01781
1006.40 0.01778
1006.50 0.01774
1006.60 0.01771
1006.70 0.01767
1006.80 0.01763
1006.90 0.0176
1007.00 0.01756
1007.10 0.01753
1007.20 0.01749
1007.30 0.01746
1007.40 0.01742
1007.50 0.01739
1007.60 0.01735
1007.70 0.01732
1007.80 0.01729
1007.90 0.01725
1008.00 0.01722
1008.10 0.01718
1008.20 0.01715
1008.30 0.01712
1008.40 0.01708
1008.50 0.01705
1008.60 0.01702
1008.70 0.01698
1008.80 0.01695
1008.90 0.01692
1009.00 0.01688
1009.10 0.01685
1009.20 0.01682
1009.30 0.01678
1009.40 0.01675
1009.50 0.01672
1009.60 0.01668
1009.70 0.01665
1009.80 0.01662
1009.90 0.01659
1010.00 0.01656
1010.10 0.01653
1010.20 0.01649
1010.30 0.01646
1010.40 0.01643
1010.50 0.0164
1010.60 0.01637
1010.70 0.01634
1010.80 0.01631
1010.90 0.01627
1011.00 0.01624
1011.10 0.01621
1011.20 0.01618
1011.30 0.01615
1011.40 0.01612
1011.50 0.01609
1011.60 0.01606
1011.70 0.01603
1011.80 0.016
1011.90 0.01597
1012.00 0.01594
1012.10 0.01591
1012.20 0.01588
1012.30 0.01585
1012.40 0.01582
1012.50 0.01579
1012.60 0.01576
1012.70 0.01573
1012.80 0.0157
1012.90 0.01568
1013.00 0.01565
1013.10 0.01562
1013.20 0.01559
1013.30 0.01556
1013.40 0.01553
1013.50 0.0155
1013.60 0.01547
1013.70 0.01544
1013.80 0.01542
1013.90 0.01539
1014.00 0.01536
1014.10 0.01533
1014.20 0.01531
1014.30 0.01528
1014.40 0.01525
1014.50 0.01522
1014.60 0.0152
1014.70 0.01517
1014.80 0.01515
1014.90 0.01512
1015.00 0.0151
1015.10 0.01508
1015.20 0.01505
1015.30 0.01503
1015.40 0.015
1015.50 0.01498
1015.60 0.01496
1015.70 0.01493
1015.80 0.01491
1015.90 0.01489
1016.00 0.01486
1016.10 0.01484
1016.20 0.01481
1016.30 0.01479
1016.40 0.01477
1016.50 0.01474
1016.60 0.01472
1016.70 0.01469
1016.80 0.01467
1016.90 0.01464
1017.00 0.01462
1017.10 0.01459
1017.20 0.01457
1017.30 0.01454
1017.40 0.01451
1017.50 0.01449
1017.60 0.01446
1017.70 0.01444
1017.80 0.01441
1017.90 0.01439
1018.00 0.01436
1018.10 0.01434
1018.20 0.01431
1018.30 0.01429
1018.40 0.01426
1018.50 0.01424
1018.60 0.01421
1018.70 0.01419
1018.80 0.01416
1018.90 0.01414
1019.00 0.01411
1019.10 0.01409
1019.20 0.01406
1019.30 0.01404
1019.40 0.01401
1019.50 0.01399
1019.60 0.01396
1019.70 0.01394
1019.80 0.01392
1019.90 0.01389
1020.00 0.01387
1020.10 0.01384
1020.20 0.01382
1020.30 0.01379
1020.40 0.01377
1020.50 0.01374
1020.60 0.01372
1020.70 0.0137
1020.80 0.01367
1020.90 0.01365
1021.00 0.01363
1021.10 0.0136
1021.20 0.01358
1021.30 0.01355
1021.40 0.01353
1021.50 0.01351
1021.60 0.01348
1021.70 0.01346
1021.80 0.01344
1021.90 0.01341
1022.00 0.01339
1022.10 0.01337
1022.20 0.01334
1022.30 0.01332
1022.40 0.0133
1022.50 0.01327
1022.60 0.01325
1022.70 0.01323
1022.80 0.01321
1022.90 0.01318
1023.00 0.01316
1023.10 0.01314
1023.20 0.01311
1023.30 0.01309
1023.40 0.01307
1023.50 0.01305
1023.60 0.01302
1023.70 0.013
1023.80 0.01298
1023.90 0.01295
1024.00 0.01293
1024.10 0.01291
1024.20 0.01289
1024.30 0.01286
1024.40 0.01284
1024.50 0.01282
1024.60 0.0128
1024.70 0.01277
1024.80 0.01275
1024.90 0.01273
1025.00 0.01271
1025.10 0.01268
1025.20 0.01266
1025.30 0.01264
1025.40 0.01262
1025.50 0.01259
1025.60 0.01257
1025.70 0.01255
1025.80 0.01253
1025.90 0.0125
1026.00 0.01248
1026.10 0.01246
1026.20 0.01244
1026.30 0.01241
1026.40 0.01239
1026.50 0.01237
1026.60 0.01235
1026.70 0.01233
1026.80 0.0123
1026.90 0.01228
1027.00 0.01226
1027.10 0.01224
1027.20 0.01222
1027.30 0.0122
1027.40 0.01218
1027.50 0.01216
1027.60 0.01214
1027.70 0.01212
1027.80 0.0121
1027.90 0.01208
1028.00 0.01206
1028.10 0.01204
1028.20 0.01202
1028.30 0.012
1028.40 0.01198
1028.50 0.01196
1028.60 0.01194
1028.70 0.01192
1028.80 0.0119
1028.90 0.01188
1029.00 0.01186
1029.10 0.01184
1029.20 0.01182
1029.30 0.0118
1029.40 0.01178
1029.50 0.01176
1029.60 0.01174
1029.70 0.01172
1029.80 0.0117
1029.90 0.01168
1030.00 0.01166
1030.10 0.01164
1030.20 0.01162
1030.30 0.0116
1030.40 0.01158
1030.50 0.01156
1030.60 0.01154
1030.70 0.01152
1030.80 0.0115
1030.90 0.01149
1031.00 0.01147
1031.10 0.01145
1031.20 0.01143
1031.30 0.01141
1031.40 0.01139
1031.50 0.01137
1031.60 0.01135
1031.70 0.01133
1031.80 0.01131
1031.90 0.01129
1032.00 0.01127
1032.10 0.01125
1032.20 0.01123
1032.30 0.01122
1032.40 0.0112
1032.50 0.01118
1032.60 0.01116
1032.70 0.01114
1032.80 0.01113
1032.90 0.01111
1033.00 0.01109
1033.10 0.01107
1033.20 0.01106
1033.30 0.01104
1033.40 0.01102
1033.50 0.011
1033.60 0.01098
1033.70 0.01097
1033.80 0.01095
1033.90 0.01093
1034.00 0.01091
1034.10 0.0109
1034.20 0.01088
1034.30 0.01086
1034.40 0.01084
1034.50 0.01083
1034.60 0.01081
1034.70 0.01079
1034.80 0.01077
1034.90 0.01076
1035.00 0.01074
1035.10 0.01072
1035.20 0.0107
1035.30 0.01068
1035.40 0.01067
1035.50 0.01065
1035.60 0.01063
1035.70 0.01061
1035.80 0.0106
1035.90 0.01058
1036.00 0.01056
1036.10 0.01054
1036.20 0.01053
1036.30 0.01051
1036.40 0.01049
1036.50 0.01047
1036.60 0.01046
1036.70 0.01044
1036.80 0.01042
1036.90 0.0104
1037.00 0.01039
1037.10 0.01037
1037.20 0.01036
1037.30 0.01034
1037.40 0.01033
1037.50 0.01031
1037.60 0.0103
1037.70 0.01028
1037.80 0.01026
1037.90 0.01025
1038.00 0.01023
1038.10 0.01022
1038.20 0.0102
1038.30 0.01019
1038.40 0.01017
1038.50 0.01016
1038.60 0.01014
1038.70 0.01013
1038.80 0.01011
1038.90 0.0101
1039.00 0.01008
1039.10 0.01007
1039.20 0.01005
1039.30 0.01004
1039.40 0.01002
1039.50 0.01001
1039.60 0.009992
1039.70 0.009976
1039.80 0.009961
1039.90 0.009946
1040.00 0.009931
1040.10 0.009916
1040.20 0.009901
1040.30 0.009886
1040.40 0.009871
1040.50 0.009856
1040.60 0.009841
1040.70 0.009825
1040.80 0.00981
1040.90 0.009795
1041.00 0.00978
1041.10 0.009765
1041.20 0.00975
1041.30 0.009735
1041.40 0.00972
1041.50 0.009705
1041.60 0.00969
1041.70 0.009675
1041.80 0.00966
1041.90 0.009645
1042.00 0.00963
1042.10 0.009617
1042.20 0.009604
1042.30 0.009591
1042.40 0.009578
1042.50 0.009565
1042.60 0.009552
1042.70 0.009539
1042.80 0.009526
1042.90 0.009512
1043.00 0.009499
1043.10 0.009486
1043.20 0.009473
1043.30 0.00946
1043.40 0.009447
1043.50 0.009434
1043.60 0.009421
1043.70 0.009408
1043.80 0.009395
1043.90 0.009382
1044.00 0.009369
1044.10 0.009356
1044.20 0.009343
1044.30 0.00933
1044.40 0.009317
1044.50 0.009304
1044.60 0.009291
1044.70 0.009278
1044.80 0.009265
1044.90 0.009252
1045.00 0.009239
1045.10 0.009227
1045.20 0.009214
1045.30 0.009201
1045.40 0.009188
1045.50 0.009175
1045.60 0.009162
1045.70 0.009149
1045.80 0.009136
1045.90 0.009123
1046.00 0.00911
1046.10 0.009097
1046.20 0.009084
1046.30 0.009072
1046.40 0.009059
1046.50 0.009046
1046.60 0.009033
1046.70 0.00902
1046.80 0.009007
1046.90 0.008994
1047.00 0.008981
1047.10 0.00897
1047.20 0.008959
1047.30 0.008948
1047.40 0.008937
1047.50 0.008926
1047.60 0.008915
1047.70 0.008904
1047.80 0.008893
1047.90 0.008882
1048.00 0.008871
1048.10 0.008859
1048.20 0.008848
1048.30 0.008837
1048.40 0.008826
1048.50 0.008815
1048.60 0.008804
1048.70 0.008793
1048.80 0.008782
1048.90 0.008771
1049.00 0.00876
1049.10 0.008749
1049.20 0.008738
1049.30 0.008727
1049.40 0.008716
1049.50 0.008705
1049.60 0.008694
1049.70 0.008683
1049.80 0.008672
1049.90 0.008661
1050.00 0.00865
1050.10 0.008639
1050.20 0.008628
1050.30 0.008617
1050.40 0.008606
1050.50 0.008595
1050.60 0.008584
1050.70 0.008573
1050.80 0.008562
1050.90 0.008551
1051.00 0.00854
1051.10 0.008529
1051.20 0.008518
1051.30 0.008508
1051.40 0.008497
1051.50 0.008486
1051.60 0.008475
1051.70 0.008464
1051.80 0.008453
1051.90 0.008442
1052.00 0.008431
1052.10 0.008421
1052.20 0.008411
1052.30 0.008401
1052.40 0.008391
1052.50 0.008381
1052.60 0.008371
1052.70 0.008361
1052.80 0.008351
1052.90 0.008341
1053.00 0.008331
1053.10 0.008321
1053.20 0.008311
1053.30 0.008301
1053.40 0.008291
1053.50 0.008281
1053.60 0.008271
1053.70 0.008261
1053.80 0.008251
1053.90 0.008241
1054.00 0.008231
1054.10 0.008221
1054.20 0.008211
1054.30 0.008201
1054.40 0.008191
1054.50 0.008181
1054.60 0.008172
1054.70 0.008162
1054.80 0.008152
1054.90 0.008142
1055.00 0.008132
1055.10 0.008122
1055.20 0.008112
1055.30 0.008102
1055.40 0.008092
1055.50 0.008082
1055.60 0.008072
1055.70 0.008062
1055.80 0.008053
1055.90 0.008043
1056.00 0.008033
1056.10 0.008023
1056.20 0.008013
1056.30 0.008003
1056.40 0.007993
1056.50 0.007983
1056.60 0.007974
1056.70 0.007964
1056.80 0.007954
1056.90 0.007944
1057.00 0.007934
1057.10 0.007925
1057.20 0.007916
1057.30 0.007908
1057.40 0.007899
1057.50 0.00789
1057.60 0.007881
1057.70 0.007872
1057.80 0.007863
1057.90 0.007854
1058.00 0.007846
1058.10 0.007837
1058.20 0.007828
1058.30 0.007819
1058.40 0.00781
1058.50 0.007801
1058.60 0.007792
1058.70 0.007784
1058.80 0.007775
1058.90 0.007766
1059.00 0.007757
1059.10 0.007748
1059.20 0.00774
1059.30 0.007731
1059.40 0.007722
1059.50 0.007713
1059.60 0.007704
1059.70 0.007696
1059.80 0.007687
1059.90 0.007678
1060.00 0.007669
1060.10 0.00766
1060.20 0.007652
1060.30 0.007643
1060.40 0.007634
1060.50 0.007625
1060.60 0.007617
1060.70 0.007608
1060.80 0.007599
1060.90 0.00759
1061.00 0.007582
1061.10 0.007573
1061.20 0.007564
1061.30 0.007555
1061.40 0.007547
1061.50 0.007538
1061.60 0.007529
1061.70 0.00752
1061.80 0.007512
1061.90 0.007503
1062.00 0.007494
1062.10 0.007486
1062.20 0.007479
1062.30 0.007471
1062.40 0.007463
1062.50 0.007456
1062.60 0.007448
1062.70 0.00744
1062.80 0.007433
1062.90 0.007425
1063.00 0.007418
1063.10 0.00741
1063.20 0.007402
1063.30 0.007395
1063.40 0.007387
1063.50 0.007379
1063.60 0.007372
1063.70 0.007364
1063.80 0.007356
1063.90 0.007349
1064.00 0.007341
1064.10 0.007333
1064.20 0.007326
1064.30 0.007318
1064.40 0.007311
1064.50 0.007303
1064.60 0.007295
1064.70 0.007288
1064.80 0.00728
1064.90 0.007273
1065.00 0.007265
1065.10 0.007257
1065.20 0.00725
1065.30 0.007242
1065.40 0.007235
1065.50 0.007227
1065.60 0.007219
1065.70 0.007212
1065.80 0.007204
1065.90 0.007197
1066.00 0.007189
1066.10 0.007182
1066.20 0.007174
1066.30 0.007166
1066.40 0.007159
1066.50 0.007151
1066.60 0.007144
1066.70 0.007136
1066.80 0.007129
1066.90 0.007121
1067.00 0.007114
1067.10 0.007107
1067.20 0.007099
1067.30 0.007092
1067.40 0.007085
1067.50 0.007078
1067.60 0.007071
1067.70 0.007064
1067.80 0.007057
1067.90 0.00705
1068.00 0.007043
1068.10 0.007036
1068.20 0.007029
1068.30 0.007022
1068.40 0.007015
1068.50 0.007008
1068.60 0.007001
1068.70 0.006994
1068.80 0.006987
1068.90 0.00698
1069.00 0.006973
1069.10 0.006966
1069.20 0.006959
1069.30 0.006952
1069.40 0.006945
1069.50 0.006939
1069.60 0.006932
1069.70 0.006925
1069.80 0.006918
1069.90 0.006911
1070.00 0.006904
1070.10 0.006897
1070.20 0.00689
1070.30 0.006883
1070.40 0.006876
1070.50 0.006869
1070.60 0.006862
1070.70 0.006855
1070.80 0.006848
1070.90 0.006841
1071.00 0.006834
1071.10 0.006827
1071.20 0.00682
1071.30 0.006813
1071.40 0.006807
1071.50 0.0068
1071.60 0.006793
1071.70 0.006786
1071.80 0.006779
1071.90 0.006772
1072.00 0.006765
1072.10 0.00676
1072.20 0.006754
1072.30 0.006748
1072.40 0.006743
1072.50 0.006737
1072.60 0.006732
1072.70 0.006726
1072.80 0.006721
1072.90 0.006715
1073.00 0.00671
1073.10 0.006704
1073.20 0.006699
1073.30 0.006693
1073.40 0.006688
1073.50 0.006682
1073.60 0.006677
1073.70 0.006673
1073.80 0.006668
1073.90 0.006663
1074.00 0.006658
1074.10 0.006654
1074.20 0.006649
1074.30 0.006644
1074.40 0.006639
1074.50 0.006634
1074.60 0.00663
1074.70 0.006625
1074.80 0.00662
1074.90 0.006615
1075.00 0.006611
1075.10 0.006606
1075.20 0.006601
1075.30 0.006596
1075.40 0.006592
1075.50 0.006587
1075.60 0.006582
1075.70 0.006577
1075.80 0.006573
1075.90 0.006568
1076.00 0.006563
1076.10 0.006558
1076.20 0.006554
1076.30 0.006549
1076.40 0.006544
1076.50 0.006539
1076.60 0.006535
1076.70 0.00653
1076.80 0.006525
1076.90 0.00652
1077.00 0.006516
1077.10 0.006511
1077.20 0.006507
1077.30 0.006503
1077.40 0.006499
1077.50 0.006495
1077.60 0.006491
1077.70 0.006487
1077.80 0.006483
1077.90 0.00648
1078.00 0.006476
1078.10 0.006472
1078.20 0.006468
1078.30 0.006464
1078.40 0.006461
1078.50 0.006457
1078.60 0.006453
1078.70 0.006449
1078.80 0.006445
1078.90 0.006442
1079.00 0.006438
1079.10 0.006434
1079.20 0.00643
1079.30 0.006426
1079.40 0.006423
1079.50 0.006419
1079.60 0.006416
1079.70 0.006413
1079.80 0.006411
1079.90 0.006408
1080.00 0.006405
1080.10 0.006402
1080.20 0.006399
1080.30 0.006396
1080.40 0.006393
1080.50 0.006391
1080.60 0.006388
1080.70 0.006385
1080.80 0.006382
1080.90 0.006379
1081.00 0.006376
1081.10 0.006373
1081.20 0.006371
1081.30 0.006368
1081.40 0.006365
1081.50 0.006362
1081.60 0.006359
1081.70 0.006356
1081.80 0.006353
1081.90 0.00635
1082.00 0.006348
1082.10 0.006345
1082.20 0.006342
1082.30 0.006339
1082.40 0.006337
1082.50 0.006334
1082.60 0.006331
1082.70 0.006329
1082.80 0.006326
1082.90 0.006323
1083.00 0.006321
1083.10 0.006318
1083.20 0.006315
1083.30 0.006313
1083.40 0.00631
1083.50 0.006307
1083.60 0.006305
1083.70 0.006303
1083.80 0.0063
1083.90 0.006298
1084.00 0.006295
1084.10 0.006293
1084.20 0.006291
1084.30 0.006288
1084.40 0.006286
1084.50 0.006283
1084.60 0.006281
1084.70 0.006279
1084.80 0.006277
1084.90 0.006275
1085.00 0.006273
1085.10 0.006271
1085.20 0.006269
1085.30 0.006267
1085.40 0.006265
1085.50 0.006263
1085.60 0.006261
1085.70 0.006259
1085.80 0.006257
1085.90 0.006255
1086.00 0.006252
1086.10 0.00625
1086.20 0.006248
1086.30 0.006246
1086.40 0.006244
1086.50 0.006242
1086.60 0.006241
1086.70 0.006239
1086.80 0.006237
1086.90 0.006235
1087.00 0.006233
1087.10 0.006232
1087.20 0.00623
1087.30 0.006229
1087.40 0.006227
1087.50 0.006226
1087.60 0.006224
1087.70 0.006222
1087.80 0.006221
1087.90 0.006219
1088.00 0.006218
1088.10 0.006216
1088.20 0.006215
1088.30 0.006213
1088.40 0.006212
1088.50 0.00621
1088.60 0.006209
1088.70 0.006208
1088.80 0.006207
1088.90 0.006205
1089.00 0.006204
1089.10 0.006203
1089.20 0.006202
1089.30 0.006201
1089.40 0.006199
1089.50 0.006198
1089.60 0.006197
1089.70 0.006196
1089.80 0.006195
1089.90 0.006194
1090.00 0.006192
1090.10 0.006191
1090.20 0.00619
1090.30 0.006189
1090.40 0.006188
1090.50 0.006187
1090.60 0.006186
1090.70 0.006185
1090.80 0.006184
1090.90 0.006183
1091.00 0.006183
1091.10 0.006182
1091.20 0.006181
1091.30 0.00618
1091.40 0.006179
1091.50 0.006179
1091.60 0.006178
1091.70 0.006177
1091.80 0.006176
1091.90 0.006175
1092.00 0.006175
1092.10 0.006174
1092.20 0.006174
1092.30 0.006173
1092.40 0.006172
1092.50 0.006172
1092.60 0.006171
1092.70 0.006172
1092.80 0.006178
1092.90 0.006183
1093.00 0.006188
1093.10 0.006191
1093.20 0.006191
1093.30 0.006191
1093.40 0.00619
1093.50 0.00619
1093.60 0.006189
1093.70 0.006189
1093.80 0.006189
1093.90 0.006188
1094.00 0.006188
1094.10 0.006188
1094.20 0.006187
1094.30 0.006187
1094.40 0.006187
1094.50 0.006186
1094.60 0.006186
1094.70 0.006186
1094.80 0.006185
1094.90 0.006185
1095.00 0.006185
1095.10 0.006185
1095.20 0.006184
1095.30 0.006184
1095.40 0.006184
1095.50 0.006184
1095.60 0.006184
1095.70 0.006183
1095.80 0.006183
1095.90 0.006183
1096.00 0.006183
1096.10 0.006182
1096.20 0.006182
1096.30 0.006182
1096.40 0.006182
1096.50 0.006182
1096.60 0.006182
1096.70 0.006181
1096.80 0.006181
1096.90 0.006181
1097.00 0.006181
1097.10 0.006181
1097.20 0.006181
1097.30 0.006181
1097.40 0.006181
1097.50 0.006181
1097.60 0.006181
1097.70 0.006181
1097.80 0.006181
1097.90 0.006181
1098.00 0.006181
1098.10 0.006181
1098.20 0.006181
1098.30 0.006181
1098.40 0.006181
1098.50 0.006181
1098.60 0.006181
1098.70 0.006181
1098.80 0.006181
1098.90 0.006181
1099.00 0.006181
1099.10 0.006181
1099.20 0.006182
1099.30 0.006182
1099.40 0.006182
1099.50 0.006182
1099.60 0.006182
1099.70 0.006182
1099.80 0.006182
1099.90 0.006182
1100.00 0.006183
1100.10 0.006183
1100.20 0.006183
1100.30 0.006183
1100.40 0.006183
1100.50 0.006183
1100.60 0.006183
1100.70 0.006184
1100.80 0.006184
1100.90 0.006184
1101.00 0.006185
1101.10 0.006185
1101.20 0.006185
1101.30 0.006185
1101.40 0.006186
1101.50 0.006186
1101.60 0.006186
1101.70 0.006186
1101.80 0.006187
1101.90 0.006187
1102.00 0.006187
1102.10 0.006188
1102.20 0.006188
1102.30 0.006188
1102.40 0.006189
1102.50 0.006189
1102.60 0.006189
1102.70 0.00619
1102.80 0.00619
1102.90 0.006191
1103.00 0.006191
1103.10 0.006192
1103.20 0.006192
1103.30 0.006192
1103.40 0.006193
1103.50 0.006193
1103.60 0.006193
1103.70 0.006194
1103.80 0.006194
1103.90 0.006194
1104.00 0.006195
1104.10 0.006195
1104.20 0.006195
1104.30 0.006196
1104.40 0.006196
1104.50 0.006196
1104.60 0.006197
1104.70 0.006197
1104.80 0.006197
1104.90 0.006198
1105.00 0.006198
1105.10 0.006198
1105.20 0.006199
1105.30 0.006199
1105.40 0.006199
1105.50 0.0062
1105.60 0.006201
1105.70 0.006201
1105.80 0.006202
1105.90 0.006203
1106.00 0.006203
1106.10 0.006204
1106.20 0.006205
1106.30 0.006206
1106.40 0.006206
1106.50 0.006207
1106.60 0.006208
1106.70 0.006208
1106.80 0.006209
1106.90 0.00621
1107.00 0.006211
1107.10 0.006211
1107.20 0.006212
1107.30 0.006213
1107.40 0.006214
1107.50 0.006215
1107.60 0.006216
1107.70 0.006217
1107.80 0.006218
1107.90 0.006219
1108.00 0.006219
1108.10 0.00622
1108.20 0.006221
1108.30 0.006222
1108.40 0.006223
1108.50 0.006224
1108.60 0.006225
1108.70 0.006226
1108.80 0.006227
1108.90 0.006228
1109.00 0.006229
1109.10 0.00623
1109.20 0.006231
1109.30 0.006232
1109.40 0.006233
1109.50 0.006234
1109.60 0.006235
1109.70 0.006236
1109.80 0.006237
1109.90 0.006239
1110.00 0.00624
1110.10 0.006241
1110.20 0.006242
1110.30 0.006243
1110.40 0.006245
1110.50 0.006246
1110.60 0.006247
1110.70 0.006248
1110.80 0.006249
1110.90 0.00625
1111.00 0.006252
1111.10 0.006253
1111.20 0.006254
1111.30 0.006255
1111.40 0.006256
1111.50 0.006258
1111.60 0.006259
1111.70 0.00626
1111.80 0.006261
1111.90 0.006262
1112.00 0.006264
1112.10 0.006265
1112.20 0.006266
1112.30 0.006268
1112.40 0.006269
1112.50 0.00627
1112.60 0.006272
1112.70 0.006273
1112.80 0.006275
1112.90 0.006276
1113.00 0.006277
1113.10 0.006279
1113.20 0.00628
1113.30 0.006282
1113.40 0.006283
1113.50 0.006284
1113.60 0.006286
1113.70 0.006288
1113.80 0.006289
1113.90 0.006291
1114.00 0.006293
1114.10 0.006295
1114.20 0.006296
1114.30 0.006298
1114.40 0.0063
1114.50 0.006301
1114.60 0.006303
1114.70 0.006305
1114.80 0.006306
1114.90 0.006308
1115.00 0.00631
1115.10 0.006311
1115.20 0.006313
1115.30 0.006315
1115.40 0.006316
1115.50 0.006318
1115.60 0.00632
1115.70 0.006321
1115.80 0.006323
1115.90 0.006325
1116.00 0.006326
1116.10 0.006328
1116.20 0.00633
1116.30 0.006331
1116.40 0.006333
1116.50 0.006335
1116.60 0.006336
1116.70 0.006338
1116.80 0.00634
1116.90 0.006341
1117.00 0.006343
1117.10 0.006345
1117.20 0.006347
1117.30 0.006349
1117.40 0.006351
1117.50 0.006353
1117.60 0.006355
1117.70 0.006357
1117.80 0.006359
1117.90 0.006361
1118.00 0.006363
1118.10 0.006365
1118.20 0.006367
1118.30 0.006369
1118.40 0.006371
1118.50 0.006373
1118.60 0.006375
1118.70 0.006377
1118.80 0.006379
1118.90 0.006381
1119.00 0.006382
1119.10 0.006384
1119.20 0.006386
1119.30 0.006388
1119.40 0.00639
1119.50 0.006392
1119.60 0.006394
1119.70 0.006396
1119.80 0.006398
1119.90 0.0064
1120.00 0.006402
1120.10 0.006404
1120.20 0.006406
1120.30 0.006408
1120.40 0.00641
1120.50 0.006412
1120.60 0.006414
1120.70 0.006416
1120.80 0.006418
1120.90 0.00642
1121.00 0.006422
1121.10 0.006424
1121.20 0.006426
1121.30 0.006428
1121.40 0.00643
1121.50 0.006432
1121.60 0.006434
1121.70 0.006436
1121.80 0.006437
1121.90 0.006439
1122.00 0.006441
1122.10 0.006445
1122.20 0.006448
1122.30 0.006451
1122.40 0.006455
1122.50 0.006458
1122.60 0.006461
1122.70 0.006465
1122.80 0.006468
1122.90 0.006471
1123.00 0.006475
1123.10 0.006478
1123.20 0.006481
1123.30 0.006485
1123.40 0.006488
1123.50 0.006491
1123.60 0.006495
1123.70 0.006498
1123.80 0.006501
1123.90 0.006505
1124.00 0.006508
1124.10 0.006511
1124.20 0.006515
1124.30 0.006518
1124.40 0.006521
1124.50 0.006525
1124.60 0.006528
1124.70 0.006531
1124.80 0.006535
1124.90 0.006538
1125.00 0.006541
1125.10 0.006544
1125.20 0.006548
1125.30 0.006551
1125.40 0.006554
1125.50 0.006558
1125.60 0.006561
1125.70 0.006564
1125.80 0.006568
1125.90 0.006571
1126.00 0.006574
1126.10 0.006577
1126.20 0.006581
1126.30 0.006584
1126.40 0.006587
1126.50 0.006591
1126.60 0.006594
1126.70 0.006597
1126.80 0.0066
1126.90 0.006604
1127.00 0.006607
1127.10 0.006612
1127.20 0.006617
1127.30 0.006621
1127.40 0.006626
1127.50 0.006631
1127.60 0.006635
1127.70 0.00664
1127.80 0.006645
1127.90 0.00665
1128.00 0.006654
1128.10 0.006659
1128.20 0.006664
1128.30 0.006669
1128.40 0.006673
1128.50 0.006678
1128.60 0.006683
1128.70 0.006687
1128.80 0.006692
1128.90 0.006697
1129.00 0.006702
1129.10 0.006706
1129.20 0.006711
1129.30 0.006716
1129.40 0.00672
1129.50 0.006725
1129.60 0.00673
1129.70 0.006734
1129.80 0.006739
1129.90 0.006744
1130.00 0.006748
1130.10 0.006753
1130.20 0.006758
1130.30 0.006763
1130.40 0.006767
1130.50 0.006772
1130.60 0.006777
1130.70 0.006781
1130.80 0.006786
1130.90 0.006791
1131.00 0.006795
1131.10 0.0068
1131.20 0.006805
1131.30 0.006809
1131.40 0.006814
1131.50 0.006819
1131.60 0.006823
1131.70 0.006828
1131.80 0.006833
1131.90 0.006837
1132.00 0.006842
1132.10 0.006847
1132.20 0.006852
1132.30 0.006857
1132.40 0.006862
1132.50 0.006867
1132.60 0.006872
1132.70 0.006877
1132.80 0.006882
1132.90 0.006887
1133.00 0.006892
1133.10 0.006897
1133.20 0.006902
1133.30 0.006907
1133.40 0.006912
1133.50 0.006917
1133.60 0.006922
1133.70 0.006927
1133.80 0.006932
1133.90 0.006937
1134.00 0.006942
1134.10 0.006947
1134.20 0.006952
1134.30 0.006957
1134.40 0.006962
1134.50 0.006967
1134.60 0.006972
1134.70 0.006977
1134.80 0.006982
1134.90 0.006987
1135.00 0.006992
1135.10 0.006997
1135.20 0.007002
1135.30 0.007007
1135.40 0.007012
1135.50 0.007017
1135.60 0.007022
1135.70 0.007027
1135.80 0.007032
1135.90 0.007037
1136.00 0.007042
1136.10 0.007047
1136.20 0.007052
1136.30 0.007056
1136.40 0.007061
1136.50 0.007066
1136.60 0.007071
1136.70 0.007076
1136.80 0.007081
1136.90 0.007086
1137.00 0.007091
1137.10 0.007097
1137.20 0.007102
1137.30 0.007108
1137.40 0.007114
1137.50 0.007119
1137.60 0.007125
1137.70 0.007131
1137.80 0.007136
1137.90 0.007142
1138.00 0.007147
1138.10 0.007153
1138.20 0.007159
1138.30 0.007164
1138.40 0.00717
1138.50 0.007176
1138.60 0.007181
1138.70 0.007187
1138.80 0.007192
1138.90 0.007198
1139.00 0.007204
1139.10 0.007209
1139.20 0.007215
1139.30 0.00722
1139.40 0.007226
1139.50 0.007232
1139.60 0.007237
1139.70 0.007243
1139.80 0.007248
1139.90 0.007254
1140.00 0.00726
1140.10 0.007265
1140.20 0.007271
1140.30 0.007276
1140.40 0.007282
1140.50 0.007287
1140.60 0.007293
1140.70 0.007299
1140.80 0.007304
1140.90 0.00731
1141.00 0.007315
1141.10 0.007321
1141.20 0.007326
1141.30 0.007332
1141.40 0.007338
1141.50 0.007343
1141.60 0.007349
1141.70 0.007354
1141.80 0.00736
1141.90 0.007365
1142.00 0.007371
1142.10 0.007378
1142.20 0.007384
1142.30 0.007391
1142.40 0.007397
1142.50 0.007404
1142.60 0.007411
1142.70 0.007417
1142.80 0.007424
1142.90 0.007431
1143.00 0.007437
1143.10 0.007444
1143.20 0.007451
1143.30 0.007457
1143.40 0.007464
1143.50 0.00747
1143.60 0.007477
1143.70 0.007484
1143.80 0.00749
1143.90 0.007497
1144.00 0.007503
1144.10 0.00751
1144.20 0.007517
1144.30 0.007523
1144.40 0.00753
1144.50 0.007536
1144.60 0.007543
1144.70 0.00755
1144.80 0.007556
1144.90 0.007563
1145.00 0.007569
1145.10 0.007576
1145.20 0.007582
1145.30 0.007589
1145.40 0.007596
1145.50 0.007602
1145.60 0.007609
1145.70 0.007615
1145.80 0.007622
1145.90 0.007628
1146.00 0.007635
1146.10 0.007642
1146.20 0.007648
1146.30 0.007655
1146.40 0.007661
1146.50 0.007668
1146.60 0.007674
1146.70 0.007681
1146.80 0.007687
1146.90 0.007694
1147.00 0.0077
1147.10 0.007706
1147.20 0.007712
1147.30 0.007718
1147.40 0.007724
1147.50 0.00773
1147.60 0.007736
1147.70 0.007742
1147.80 0.007748
1147.90 0.007754
1148.00 0.00776
1148.10 0.007766
1148.20 0.007772
1148.30 0.007778
1148.40 0.007784
1148.50 0.00779
1148.60 0.007796
1148.70 0.007802
1148.80 0.007808
1148.90 0.007814
1149.00 0.00782
1149.10 0.007826
1149.20 0.007832
1149.30 0.007838
1149.40 0.007844
1149.50 0.00785
1149.60 0.007856
1149.70 0.007862
1149.80 0.007868
1149.90 0.007874
1150.00 0.00788
1150.10 0.007886
1150.20 0.007892
1150.30 0.007898
1150.40 0.007904
1150.50 0.00791
1150.60 0.007916
1150.70 0.007922
1150.80 0.007928
1150.90 0.007933
1151.00 0.007939
1151.10 0.007945
1151.20 0.007951
1151.30 0.007957
1151.40 0.007963
1151.50 0.007969
1151.60 0.007975
1151.70 0.007981
1151.80 0.007987
1151.90 0.007993
1152.00 0.007999
1152.10 0.008005
1152.20 0.008011
1152.30 0.008018
1152.40 0.008024
1152.50 0.008031
1152.60 0.008037
1152.70 0.008043
1152.80 0.00805
1152.90 0.008056
1153.00 0.008063
1153.10 0.008069
1153.20 0.008075
1153.30 0.008082
1153.40 0.008088
1153.50 0.008095
1153.60 0.008101
1153.70 0.008107
1153.80 0.008114
1153.90 0.00812
1154.00 0.008127
1154.10 0.008133
1154.20 0.008139
1154.30 0.008146
1154.40 0.008152
1154.50 0.008158
1154.60 0.008165
1154.70 0.008171
1154.80 0.008177
1154.90 0.008184
1155.00 0.00819
1155.10 0.008196
1155.20 0.008203
1155.30 0.008209
1155.40 0.008216
1155.50 0.008222
1155.60 0.008228
1155.70 0.008235
1155.80 0.008241
1155.90 0.008247
1156.00 0.008254
1156.10 0.00826
1156.20 0.008266
1156.30 0.008272
1156.40 0.008279
1156.50 0.008285
1156.60 0.008291
1156.70 0.008298
1156.80 0.008304
1156.90 0.00831
1157.00 0.008317
1157.10 0.008322
1157.20 0.008328
1157.30 0.008333
1157.40 0.008339
1157.50 0.008344
1157.60 0.00835
1157.70 0.008355
1157.80 0.008361
1157.90 0.008366
1158.00 0.008372
1158.10 0.008377
1158.20 0.008382
1158.30 0.008388
1158.40 0.008393
1158.50 0.008399
1158.60 0.008404
1158.70 0.00841
1158.80 0.008415
1158.90 0.008421
1159.00 0.008426
1159.10 0.008432
1159.20 0.008437
1159.30 0.008443
1159.40 0.008448
1159.50 0.008453
1159.60 0.008459
1159.70 0.008464
1159.80 0.00847
1159.90 0.008475
1160.00 0.008481
1160.10 0.008486
1160.20 0.008492
1160.30 0.008497
1160.40 0.008502
1160.50 0.008508
1160.60 0.008513
1160.70 0.008519
1160.80 0.008524
1160.90 0.00853
1161.00 0.008535
1161.10 0.00854
1161.20 0.008546
1161.30 0.008551
1161.40 0.008557
1161.50 0.008562
1161.60 0.008567
1161.70 0.008573
1161.80 0.008578
1161.90 0.008584
1162.00 0.008589
1162.10 0.008594
1162.20 0.008599
1162.30 0.008604
1162.40 0.008608
1162.50 0.008613
1162.60 0.008618
1162.70 0.008623
1162.80 0.008628
1162.90 0.008632
1163.00 0.008637
1163.10 0.008642
1163.20 0.008647
1163.30 0.008652
1163.40 0.008657
1163.50 0.008661
1163.60 0.008666
1163.70 0.008671
1163.80 0.008676
1163.90 0.008681
1164.00 0.008685
1164.10 0.00869
1164.20 0.008695
1164.30 0.0087
1164.40 0.008705
1164.50 0.008709
1164.60 0.008714
1164.70 0.008719
1164.80 0.008724
1164.90 0.008729
1165.00 0.008733
1165.10 0.008738
1165.20 0.008743
1165.30 0.008748
1165.40 0.008752
1165.50 0.008757
1165.60 0.008762
1165.70 0.008767
1165.80 0.008772
1165.90 0.008776
1166.00 0.008781
1166.10 0.008786
1166.20 0.008791
1166.30 0.008795
1166.40 0.0088
1166.50 0.008805
1166.60 0.00881
1166.70 0.008814
1166.80 0.008819
1166.90 0.008824
1167.00 0.008829
1167.10 0.008834
1167.20 0.008838
1167.30 0.008843
1167.40 0.008848
1167.50 0.008853
1167.60 0.008858
1167.70 0.008863
1167.80 0.008868
1167.90 0.008873
1168.00 0.008877
1168.10 0.008882
1168.20 0.008887
1168.30 0.008892
1168.40 0.008897
1168.50 0.008902
1168.60 0.008907
1168.70 0.008911
1168.80 0.008916
1168.90 0.008921
1169.00 0.008926
1169.10 0.008931
1169.20 0.008936
1169.30 0.008941
1169.40 0.008945
1169.50 0.00895
1169.60 0.008955
1169.70 0.00896
1169.80 0.008965
1169.90 0.00897
1170.00 0.008974
1170.10 0.008979
1170.20 0.008984
1170.30 0.008989
1170.40 0.008994
1170.50 0.008999
1170.60 0.009003
1170.70 0.009008
1170.80 0.009013
1170.90 0.009018
1171.00 0.009023
1171.10 0.009027
1171.20 0.009032
1171.30 0.009037
1171.40 0.009042
1171.50 0.009047
1171.60 0.009052
1171.70 0.009056
1171.80 0.009061
1171.90 0.009066
1172.00 0.009071
1172.10 0.009073
1172.20 0.009076
1172.30 0.009078
1172.40 0.009081
1172.50 0.009084
1172.60 0.009086
1172.70 0.009089
1172.80 0.009091
1172.90 0.009094
1173.00 0.009097
1173.10 0.009099
1173.20 0.009102
1173.30 0.009104
1173.40 0.009107
1173.50 0.009109
1173.60 0.009112
1173.70 0.009115
1173.80 0.009117
1173.90 0.00912
1174.00 0.009122
1174.10 0.009125
1174.20 0.009127
1174.30 0.00913
1174.40 0.009133
1174.50 0.009135
1174.60 0.009138
1174.70 0.00914
1174.80 0.009143
1174.90 0.009145
1175.00 0.009148
1175.10 0.00915
1175.20 0.009153
1175.30 0.009156
1175.40 0.009158
1175.50 0.009161
1175.60 0.009163
1175.70 0.009166
1175.80 0.009168
1175.90 0.009171
1176.00 0.009173
1176.10 0.009176
1176.20 0.009178
1176.30 0.009181
1176.40 0.009184
1176.50 0.009186
1176.60 0.009189
1176.70 0.009191
1176.80 0.009194
1176.90 0.009196
1177.00 0.009199
1177.10 0.0092
1177.20 0.009201
1177.30 0.009202
1177.40 0.009203
1177.50 0.009204
1177.60 0.009205
1177.70 0.009206
1177.80 0.009207
1177.90 0.009208
1178.00 0.009209
1178.10 0.00921
1178.20 0.009211
1178.30 0.009212
1178.40 0.009213
1178.50 0.009214
1178.60 0.009215
1178.70 0.009216
1178.80 0.009217
1178.90 0.009218
1179.00 0.009218
1179.10 0.009219
1179.20 0.00922
1179.30 0.009221
1179.40 0.009222
1179.50 0.009223
1179.60 0.009224
1179.70 0.009225
1179.80 0.009226
1179.90 0.009227
1180.00 0.009228
1180.10 0.009229
1180.20 0.00923
1180.30 0.009231
1180.40 0.009232
1180.50 0.009233
1180.60 0.009234
1180.70 0.009235
1180.80 0.009236
1180.90 0.009237
1181.00 0.009238
1181.10 0.009239
1181.20 0.00924
1181.30 0.009241
1181.40 0.009242
1181.50 0.009243
1181.60 0.009244
1181.70 0.009245
1181.80 0.009246
1181.90 0.009247
1182.00 0.009248
1182.10 0.009246
1182.20 0.009245
1182.30 0.009243
1182.40 0.009242
1182.50 0.00924
1182.60 0.009239
1182.70 0.009237
1182.80 0.009236
1182.90 0.009234
1183.00 0.009233
1183.10 0.009232
1183.20 0.00923
1183.30 0.009229
1183.40 0.009227
1183.50 0.009226
1183.60 0.009224
1183.70 0.009223
1183.80 0.009221
1183.90 0.00922
1184.00 0.009218
1184.10 0.009217
1184.20 0.009216
1184.30 0.009214
1184.40 0.009213
1184.50 0.009211
1184.60 0.00921
1184.70 0.009208
1184.80 0.009207
1184.90 0.009205
1185.00 0.009204
1185.10 0.009202
1185.20 0.009201
1185.30 0.0092
1185.40 0.009198
1185.50 0.009197
1185.60 0.009195
1185.70 0.009194
1185.80 0.009192
1185.90 0.009191
1186.00 0.009189
1186.10 0.009188
1186.20 0.009187
1186.30 0.009185
1186.40 0.009184
1186.50 0.009182
1186.60 0.009181
1186.70 0.009179
1186.80 0.009178
1186.90 0.009176
1187.00 0.009175
1187.10 0.009174
1187.20 0.009174
1187.30 0.009173
1187.40 0.009172
1187.50 0.009171
1187.60 0.009171
1187.70 0.00917
1187.80 0.009169
1187.90 0.009169
1188.00 0.009168
1188.10 0.009167
1188.20 0.009167
1188.30 0.009166
1188.40 0.009165
1188.50 0.009164
1188.60 0.009164
1188.70 0.009163
1188.80 0.009162
1188.90 0.009162
1189.00 0.009161
1189.10 0.00916
1189.20 0.00916
1189.30 0.009159
1189.40 0.009158
1189.50 0.009157
1189.60 0.009157
1189.70 0.009156
1189.80 0.009155
1189.90 0.009155
1190.00 0.009154
1190.10 0.009153
1190.20 0.009153
1190.30 0.009152
1190.40 0.009151
1190.50 0.00915
1190.60 0.00915
1190.70 0.009149
1190.80 0.009148
1190.90 0.009148
1191.00 0.009147
1191.10 0.009146
1191.20 0.009146
1191.30 0.009145
1191.40 0.009144
1191.50 0.009143
1191.60 0.009143
1191.70 0.009142
1191.80 0.009141
1191.90 0.009141
1192.00 0.00914
1192.10 0.009139
1192.20 0.009138
1192.30 0.009137
1192.40 0.009136
1192.50 0.009135
1192.60 0.009134
1192.70 0.009133
1192.80 0.009131
1192.90 0.00913
1193.00 0.009129
1193.10 0.009128
1193.20 0.009127
1193.30 0.009126
1193.40 0.009125
1193.50 0.009124
1193.60 0.009123
1193.70 0.009122
1193.80 0.009121
1193.90 0.00912
1194.00 0.009119
1194.10 0.009118
1194.20 0.009117
1194.30 0.009116
1194.40 0.009115
1194.50 0.009114
1194.60 0.009113
1194.70 0.009111
1194.80 0.00911
1194.90 0.009109
1195.00 0.009108
1195.10 0.009107
1195.20 0.009106
1195.30 0.009105
1195.40 0.009104
1195.50 0.009103
1195.60 0.009102
1195.70 0.009101
1195.80 0.0091
1195.90 0.009099
1196.00 0.009098
1196.10 0.009097
1196.20 0.009096
1196.30 0.009095
1196.40 0.009094
1196.50 0.009093
1196.60 0.009092
1196.70 0.00909
1196.80 0.009089
1196.90 0.009088
1197.00 0.009087
1197.10 0.009085
1197.20 0.009082
1197.30 0.00908
1197.40 0.009077
1197.50 0.009075
1197.60 0.009072
1197.70 0.00907
1197.80 0.009067
1197.90 0.009065
1198.00 0.009062
1198.10 0.00906
1198.20 0.009057
1198.30 0.009055
1198.40 0.009052
1198.50 0.00905
1198.60 0.009047
1198.70 0.009045
1198.80 0.009042
1198.90 0.00904
1199.00 0.009037
1199.10 0.009035
1199.20 0.009032
1199.30 0.00903
1199.40 0.009027
1199.50 0.009025
1199.60 0.009022
1199.70 0.00902
1199.80 0.009017
1199.90 0.009015
1200.00 0
