# Version 2.1 - nm, norm@500 to 1, cut digits, bergeron_80000_70.dat_80000
# Wavelength(nm)  Flambda(ergs/cm^s/s/nm)
300.00 6.658
300.10 6.649
300.20 6.641
300.30 6.633
300.40 6.625
300.50 6.617
300.60 6.608
300.70 6.6
300.80 6.592
300.90 6.584
301.00 6.576
301.10 6.568
301.20 6.56
301.30 6.551
301.40 6.543
301.50 6.535
301.60 6.527
301.70 6.519
301.80 6.511
301.90 6.503
302.00 6.495
302.10 6.487
302.20 6.479
302.30 6.471
302.40 6.463
302.50 6.455
302.60 6.447
302.70 6.439
302.80 6.431
302.90 6.423
303.00 6.416
303.10 6.408
303.20 6.4
303.30 6.392
303.40 6.384
303.50 6.376
303.60 6.368
303.70 6.361
303.80 6.353
303.90 6.345
304.00 6.337
304.10 6.329
304.20 6.322
304.30 6.314
304.40 6.306
304.50 6.299
304.60 6.291
304.70 6.283
304.80 6.275
304.90 6.268
305.00 6.26
305.10 6.253
305.20 6.245
305.30 6.237
305.40 6.23
305.50 6.222
305.60 6.214
305.70 6.207
305.80 6.199
305.90 6.192
306.00 6.184
306.10 6.177
306.20 6.169
306.30 6.162
306.40 6.154
306.50 6.147
306.60 6.139
306.70 6.132
306.80 6.124
306.90 6.117
307.00 6.109
307.10 6.102
307.20 6.095
307.30 6.087
307.40 6.08
307.50 6.073
307.60 6.065
307.70 6.058
307.80 6.051
307.90 6.043
308.00 6.036
308.10 6.029
308.20 6.021
308.30 6.014
308.40 6.007
308.50 5.999
308.60 5.992
308.70 5.985
308.80 5.978
308.90 5.971
309.00 5.963
309.10 5.956
309.20 5.949
309.30 5.942
309.40 5.935
309.50 5.927
309.60 5.92
309.70 5.913
309.80 5.906
309.90 5.899
310.00 5.892
310.10 5.885
310.20 5.878
310.30 5.871
310.40 5.864
310.50 5.857
310.60 5.85
310.70 5.843
310.80 5.836
310.90 5.829
311.00 5.822
311.10 5.815
311.20 5.808
311.30 5.801
311.40 5.794
311.50 5.787
311.60 5.78
311.70 5.773
311.80 5.766
311.90 5.759
312.00 5.752
312.10 5.745
312.20 5.738
312.30 5.732
312.40 5.725
312.50 5.718
312.60 5.711
312.70 5.704
312.80 5.697
312.90 5.691
313.00 5.684
313.10 5.677
313.20 5.67
313.30 5.664
313.40 5.657
313.50 5.65
313.60 5.643
313.70 5.637
313.80 5.63
313.90 5.623
314.00 5.617
314.10 5.61
314.20 5.603
314.30 5.597
314.40 5.59
314.50 5.583
314.60 5.577
314.70 5.57
314.80 5.564
314.90 5.557
315.00 5.55
315.10 5.544
315.20 5.537
315.30 5.531
315.40 5.524
315.50 5.518
315.60 5.511
315.70 5.505
315.80 5.498
315.90 5.492
316.00 5.485
316.10 5.479
316.20 5.472
316.30 5.466
316.40 5.459
316.50 5.453
316.60 5.446
316.70 5.44
316.80 5.434
316.90 5.427
317.00 5.421
317.10 5.414
317.20 5.408
317.30 5.402
317.40 5.395
317.50 5.389
317.60 5.383
317.70 5.376
317.80 5.37
317.90 5.364
318.00 5.357
318.10 5.351
318.20 5.345
318.30 5.339
318.40 5.332
318.50 5.326
318.60 5.32
318.70 5.314
318.80 5.307
318.90 5.301
319.00 5.295
319.10 5.289
319.20 5.283
319.30 5.276
319.40 5.27
319.50 5.264
319.60 5.258
319.70 5.252
319.80 5.246
319.90 5.239
320.00 5.233
320.10 5.227
320.20 5.221
320.30 5.215
320.40 5.209
320.50 5.203
320.60 5.197
320.70 5.191
320.80 5.185
320.90 5.179
321.00 5.173
321.10 5.167
321.20 5.161
321.30 5.155
321.40 5.149
321.50 5.143
321.60 5.137
321.70 5.131
321.80 5.125
321.90 5.119
322.00 5.113
322.10 5.107
322.20 5.101
322.30 5.095
322.40 5.089
322.50 5.083
322.60 5.077
322.70 5.072
322.80 5.066
322.90 5.06
323.00 5.054
323.10 5.048
323.20 5.042
323.30 5.036
323.40 5.031
323.50 5.025
323.60 5.019
323.70 5.013
323.80 5.007
323.90 5.002
324.00 4.996
324.10 4.99
324.20 4.984
324.30 4.979
324.40 4.973
324.50 4.967
324.60 4.961
324.70 4.956
324.80 4.95
324.90 4.944
325.00 4.939
325.10 4.933
325.20 4.927
325.30 4.922
325.40 4.916
325.50 4.91
325.60 4.905
325.70 4.899
325.80 4.893
325.90 4.888
326.00 4.882
326.10 4.877
326.20 4.871
326.30 4.865
326.40 4.86
326.50 4.854
326.60 4.849
326.70 4.843
326.80 4.838
326.90 4.832
327.00 4.827
327.10 4.821
327.20 4.816
327.30 4.81
327.40 4.805
327.50 4.799
327.60 4.794
327.70 4.788
327.80 4.783
327.90 4.777
328.00 4.772
328.10 4.766
328.20 4.761
328.30 4.756
328.40 4.75
328.50 4.745
328.60 4.739
328.70 4.734
328.80 4.729
328.90 4.723
329.00 4.718
329.10 4.712
329.20 4.707
329.30 4.702
329.40 4.696
329.50 4.691
329.60 4.686
329.70 4.68
329.80 4.675
329.90 4.67
330.00 4.664
330.10 4.659
330.20 4.654
330.30 4.649
330.40 4.643
330.50 4.638
330.60 4.633
330.70 4.628
330.80 4.623
330.90 4.617
331.00 4.612
331.10 4.607
331.20 4.602
331.30 4.596
331.40 4.591
331.50 4.586
331.60 4.581
331.70 4.576
331.80 4.571
331.90 4.565
332.00 4.56
332.10 4.555
332.20 4.55
332.30 4.545
332.40 4.54
332.50 4.535
332.60 4.53
332.70 4.524
332.80 4.519
332.90 4.514
333.00 4.509
333.10 4.504
333.20 4.499
333.30 4.494
333.40 4.489
333.50 4.484
333.60 4.479
333.70 4.474
333.80 4.469
333.90 4.464
334.00 4.459
334.10 4.454
334.20 4.449
334.30 4.444
334.40 4.439
334.50 4.434
334.60 4.429
334.70 4.424
334.80 4.419
334.90 4.414
335.00 4.409
335.10 4.404
335.20 4.399
335.30 4.394
335.40 4.39
335.50 4.385
335.60 4.38
335.70 4.375
335.80 4.37
335.90 4.365
336.00 4.36
336.10 4.355
336.20 4.351
336.30 4.346
336.40 4.341
336.50 4.336
336.60 4.331
336.70 4.326
336.80 4.322
336.90 4.317
337.00 4.312
337.10 4.307
337.20 4.302
337.30 4.298
337.40 4.293
337.50 4.288
337.60 4.283
337.70 4.279
337.80 4.274
337.90 4.269
338.00 4.264
338.10 4.26
338.20 4.255
338.30 4.25
338.40 4.246
338.50 4.241
338.60 4.236
338.70 4.231
338.80 4.227
338.90 4.222
339.00 4.217
339.10 4.213
339.20 4.208
339.30 4.204
339.40 4.199
339.50 4.194
339.60 4.19
339.70 4.185
339.80 4.18
339.90 4.176
340.00 4.171
340.10 4.167
340.20 4.162
340.30 4.157
340.40 4.153
340.50 4.148
340.60 4.144
340.70 4.139
340.80 4.135
340.90 4.13
341.00 4.125
341.10 4.121
341.20 4.116
341.30 4.112
341.40 4.107
341.50 4.103
341.60 4.098
341.70 4.094
341.80 4.089
341.90 4.085
342.00 4.08
342.10 4.076
342.20 4.071
342.30 4.067
342.40 4.063
342.50 4.058
342.60 4.054
342.70 4.049
342.80 4.045
342.90 4.04
343.00 4.036
343.10 4.032
343.20 4.027
343.30 4.023
343.40 4.018
343.50 4.014
343.60 4.01
343.70 4.005
343.80 4.001
343.90 3.997
344.00 3.992
344.10 3.988
344.20 3.983
344.30 3.979
344.40 3.975
344.50 3.971
344.60 3.966
344.70 3.962
344.80 3.958
344.90 3.953
345.00 3.949
345.10 3.945
345.20 3.94
345.30 3.936
345.40 3.932
345.50 3.928
345.60 3.923
345.70 3.919
345.80 3.915
345.90 3.911
346.00 3.906
346.10 3.902
346.20 3.898
346.30 3.894
346.40 3.889
346.50 3.885
346.60 3.881
346.70 3.877
346.80 3.873
346.90 3.868
347.00 3.864
347.10 3.86
347.20 3.856
347.30 3.852
347.40 3.848
347.50 3.843
347.60 3.839
347.70 3.835
347.80 3.831
347.90 3.827
348.00 3.823
348.10 3.819
348.20 3.814
348.30 3.81
348.40 3.806
348.50 3.802
348.60 3.798
348.70 3.794
348.80 3.79
348.90 3.786
349.00 3.782
349.10 3.778
349.20 3.774
349.30 3.77
349.40 3.766
349.50 3.762
349.60 3.757
349.70 3.753
349.80 3.749
349.90 3.745
350.00 3.741
350.10 3.737
350.20 3.733
350.30 3.729
350.40 3.725
350.50 3.721
350.60 3.717
350.70 3.713
350.80 3.709
350.90 3.706
351.00 3.702
351.10 3.698
351.20 3.694
351.30 3.69
351.40 3.686
351.50 3.682
351.60 3.678
351.70 3.674
351.80 3.67
351.90 3.666
352.00 3.662
352.10 3.658
352.20 3.654
352.30 3.651
352.40 3.647
352.50 3.643
352.60 3.639
352.70 3.635
352.80 3.631
352.90 3.627
353.00 3.623
353.10 3.62
353.20 3.616
353.30 3.612
353.40 3.608
353.50 3.604
353.60 3.6
353.70 3.597
353.80 3.593
353.90 3.589
354.00 3.585
354.10 3.581
354.20 3.578
354.30 3.574
354.40 3.57
354.50 3.566
354.60 3.562
354.70 3.559
354.80 3.555
354.90 3.551
355.00 3.547
355.10 3.544
355.20 3.54
355.30 3.536
355.40 3.532
355.50 3.529
355.60 3.525
355.70 3.521
355.80 3.517
355.90 3.514
356.00 3.51
356.10 3.506
356.20 3.503
356.30 3.499
356.40 3.495
356.50 3.492
356.60 3.488
356.70 3.484
356.80 3.481
356.90 3.477
357.00 3.473
357.10 3.47
357.20 3.466
357.30 3.462
357.40 3.459
357.50 3.455
357.60 3.451
357.70 3.448
357.80 3.444
357.90 3.441
358.00 3.437
358.10 3.433
358.20 3.43
358.30 3.426
358.40 3.423
358.50 3.419
358.60 3.415
358.70 3.412
358.80 3.408
358.90 3.405
359.00 3.401
359.10 3.398
359.20 3.394
359.30 3.39
359.40 3.387
359.50 3.383
359.60 3.38
359.70 3.376
359.80 3.373
359.90 3.369
360.00 3.366
360.10 3.362
360.20 3.359
360.30 3.355
360.40 3.352
360.50 3.348
360.60 3.345
360.70 3.341
360.80 3.338
360.90 3.334
361.00 3.331
361.10 3.327
361.20 3.324
361.30 3.32
361.40 3.317
361.50 3.314
361.60 3.31
361.70 3.307
361.80 3.303
361.90 3.3
362.00 3.296
362.10 3.293
362.20 3.29
362.30 3.286
362.40 3.283
362.50 3.279
362.60 3.276
362.70 3.272
362.80 3.269
362.90 3.266
363.00 3.262
363.10 3.259
363.20 3.256
363.30 3.252
363.40 3.249
363.50 3.246
363.60 3.242
363.70 3.239
363.80 3.235
363.90 3.232
364.00 3.229
364.10 3.225
364.20 3.222
364.30 3.219
364.40 3.215
364.50 3.212
364.60 3.209
364.70 3.206
364.80 3.202
364.90 3.199
365.00 3.196
365.10 3.192
365.20 3.189
365.30 3.186
365.40 3.183
365.50 3.179
365.60 3.176
365.70 3.173
365.80 3.169
365.90 3.166
366.00 3.163
366.10 3.16
366.20 3.156
366.30 3.153
366.40 3.15
366.50 3.146
366.60 3.143
366.70 3.14
366.80 3.136
366.90 3.133
367.00 3.13
367.10 3.127
367.20 3.123
367.30 3.12
367.40 3.117
367.50 3.114
367.60 3.11
367.70 3.107
367.80 3.104
367.90 3.1
368.00 3.097
368.10 3.094
368.20 3.091
368.30 3.088
368.40 3.084
368.50 3.081
368.60 3.078
368.70 3.075
368.80 3.072
368.90 3.068
369.00 3.065
369.10 3.062
369.20 3.059
369.30 3.056
369.40 3.052
369.50 3.049
369.60 3.046
369.70 3.043
369.80 3.04
369.90 3.036
370.00 3.033
370.10 3.03
370.20 3.027
370.30 3.024
370.40 3.021
370.50 3.018
370.60 3.015
370.70 3.011
370.80 3.008
370.90 3.005
371.00 3.002
371.10 2.999
371.20 2.996
371.30 2.993
371.40 2.99
371.50 2.987
371.60 2.984
371.70 2.98
371.80 2.977
371.90 2.974
372.00 2.971
372.10 2.968
372.20 2.965
372.30 2.962
372.40 2.959
372.50 2.956
372.60 2.953
372.70 2.95
372.80 2.947
372.90 2.944
373.00 2.941
373.10 2.938
373.20 2.935
373.30 2.932
373.40 2.929
373.50 2.926
373.60 2.923
373.70 2.92
373.80 2.917
373.90 2.914
374.00 2.911
374.10 2.909
374.20 2.906
374.30 2.903
374.40 2.9
374.50 2.897
374.60 2.894
374.70 2.891
374.80 2.889
374.90 2.886
375.00 2.883
375.10 2.88
375.20 2.877
375.30 2.874
375.40 2.872
375.50 2.869
375.60 2.866
375.70 2.863
375.80 2.86
375.90 2.857
376.00 2.855
376.10 2.852
376.20 2.849
376.30 2.846
376.40 2.843
376.50 2.84
376.60 2.838
376.70 2.835
376.80 2.832
376.90 2.829
377.00 2.826
377.10 2.824
377.20 2.821
377.30 2.819
377.40 2.816
377.50 2.814
377.60 2.811
377.70 2.809
377.80 2.806
377.90 2.803
378.00 2.801
378.10 2.798
378.20 2.795
378.30 2.793
378.40 2.79
378.50 2.787
378.60 2.784
378.70 2.781
378.80 2.779
378.90 2.776
379.00 2.773
379.10 2.77
379.20 2.768
379.30 2.765
379.40 2.762
379.50 2.759
379.60 2.756
379.70 2.754
379.80 2.751
379.90 2.748
380.00 2.745
380.10 2.743
380.20 2.741
380.30 2.739
380.40 2.737
380.50 2.735
380.60 2.733
380.70 2.731
380.80 2.729
380.90 2.727
381.00 2.725
381.10 2.723
381.20 2.72
381.30 2.718
381.40 2.715
381.50 2.712
381.60 2.71
381.70 2.707
381.80 2.704
381.90 2.701
382.00 2.698
382.10 2.694
382.20 2.691
382.30 2.687
382.40 2.683
382.50 2.68
382.60 2.676
382.70 2.672
382.80 2.668
382.90 2.664
383.00 2.661
383.10 2.657
383.20 2.653
383.30 2.649
383.40 2.646
383.50 2.642
383.60 2.64
383.70 2.639
383.80 2.638
383.90 2.638
384.00 2.637
384.10 2.637
384.20 2.636
384.30 2.636
384.40 2.635
384.50 2.634
384.60 2.633
384.70 2.632
384.80 2.631
384.90 2.63
385.00 2.629
385.10 2.627
385.20 2.626
385.30 2.624
385.40 2.622
385.50 2.621
385.60 2.618
385.70 2.616
385.80 2.614
385.90 2.612
386.00 2.609
386.10 2.606
386.20 2.603
386.30 2.6
386.40 2.597
386.50 2.594
386.60 2.59
386.70 2.587
386.80 2.583
386.90 2.579
387.00 2.575
387.10 2.57
387.20 2.566
387.30 2.561
387.40 2.556
387.50 2.551
387.60 2.546
387.70 2.541
387.80 2.535
387.90 2.529
388.00 2.523
388.10 2.517
388.20 2.511
388.30 2.505
388.40 2.498
388.50 2.492
388.60 2.486
388.70 2.481
388.80 2.477
388.90 2.474
389.00 2.472
389.10 2.472
389.20 2.473
389.30 2.475
389.40 2.477
389.50 2.479
389.60 2.481
389.70 2.482
389.80 2.484
389.90 2.486
390.00 2.487
390.10 2.489
390.20 2.49
390.30 2.491
390.40 2.492
390.50 2.492
390.60 2.493
390.70 2.493
390.80 2.493
390.90 2.493
391.00 2.493
391.10 2.493
391.20 2.492
391.30 2.492
391.40 2.491
391.50 2.49
391.60 2.489
391.70 2.488
391.80 2.487
391.90 2.486
392.00 2.484
392.10 2.483
392.20 2.481
392.30 2.479
392.40 2.477
392.50 2.475
392.60 2.473
392.70 2.471
392.80 2.469
392.90 2.466
393.00 2.464
393.10 2.461
393.20 2.458
393.30 2.455
393.40 2.452
393.50 2.449
393.60 2.446
393.70 2.443
393.80 2.439
393.90 2.435
394.00 2.432
394.10 2.428
394.20 2.424
394.30 2.419
394.40 2.415
394.50 2.41
394.60 2.405
394.70 2.4
394.80 2.395
394.90 2.39
395.00 2.384
395.10 2.378
395.20 2.372
395.30 2.365
395.40 2.358
395.50 2.351
395.60 2.344
395.70 2.336
395.80 2.328
395.90 2.32
396.00 2.311
396.10 2.302
396.20 2.293
396.30 2.283
396.40 2.274
396.50 2.264
396.60 2.253
396.70 2.243
396.80 2.232
396.90 2.222
397.00 2.212
397.10 2.217
397.20 2.223
397.30 2.23
397.40 2.236
397.50 2.242
397.60 2.248
397.70 2.254
397.80 2.259
397.90 2.264
398.00 2.269
398.10 2.273
398.20 2.278
398.30 2.281
398.40 2.285
398.50 2.288
398.60 2.291
398.70 2.293
398.80 2.296
398.90 2.298
399.00 2.299
399.10 2.301
399.20 2.302
399.30 2.303
399.40 2.304
399.50 2.305
399.60 2.305
399.70 2.306
399.80 2.306
399.90 2.306
400.00 2.306
400.10 2.305
400.20 2.305
400.30 2.305
400.40 2.304
400.50 2.303
400.60 2.302
400.70 2.301
400.80 2.3
400.90 2.299
401.00 2.298
401.10 2.297
401.20 2.296
401.30 2.295
401.40 2.293
401.50 2.292
401.60 2.29
401.70 2.289
401.80 2.287
401.90 2.285
402.00 2.284
402.10 2.282
402.20 2.28
402.30 2.279
402.40 2.277
402.50 2.275
402.60 2.273
402.70 2.271
402.80 2.269
402.90 2.267
403.00 2.265
403.10 2.263
403.20 2.261
403.30 2.259
403.40 2.257
403.50 2.255
403.60 2.253
403.70 2.251
403.80 2.249
403.90 2.247
404.00 2.244
404.10 2.242
404.20 2.24
404.30 2.238
404.40 2.235
404.50 2.233
404.60 2.231
404.70 2.228
404.80 2.226
404.90 2.223
405.00 2.221
405.10 2.218
405.20 2.216
405.30 2.213
405.40 2.21
405.50 2.208
405.60 2.205
405.70 2.202
405.80 2.199
405.90 2.196
406.00 2.193
406.10 2.19
406.20 2.187
406.30 2.184
406.40 2.18
406.50 2.177
406.60 2.174
406.70 2.17
406.80 2.166
406.90 2.162
407.00 2.158
407.10 2.154
407.20 2.15
407.30 2.146
407.40 2.141
407.50 2.136
407.60 2.131
407.70 2.126
407.80 2.121
407.90 2.115
408.00 2.109
408.10 2.103
408.20 2.096
408.30 2.089
408.40 2.082
408.50 2.074
408.60 2.066
408.70 2.058
408.80 2.049
408.90 2.039
409.00 2.03
409.10 2.02
409.20 2.009
409.30 1.998
409.40 1.986
409.50 1.973
409.60 1.961
409.70 1.947
409.80 1.933
409.90 1.918
410.00 1.905
410.10 1.898
410.20 1.898
410.30 1.898
410.40 1.904
410.50 1.915
410.60 1.926
410.70 1.936
410.80 1.946
410.90 1.955
411.00 1.963
411.10 1.971
411.20 1.978
411.30 1.985
411.40 1.991
411.50 1.997
411.60 2.002
411.70 2.007
411.80 2.011
411.90 2.015
412.00 2.019
412.10 2.022
412.20 2.025
412.30 2.027
412.40 2.029
412.50 2.031
412.60 2.033
412.70 2.034
412.80 2.035
412.90 2.036
413.00 2.037
413.10 2.037
413.20 2.038
413.30 2.038
413.40 2.038
413.50 2.038
413.60 2.038
413.70 2.038
413.80 2.037
413.90 2.037
414.00 2.036
414.10 2.035
414.20 2.035
414.30 2.034
414.40 2.033
414.50 2.032
414.60 2.031
414.70 2.03
414.80 2.029
414.90 2.028
415.00 2.026
415.10 2.025
415.20 2.024
415.30 2.023
415.40 2.021
415.50 2.02
415.60 2.019
415.70 2.017
415.80 2.016
415.90 2.014
416.00 2.013
416.10 2.011
416.20 2.01
416.30 2.008
416.40 2.007
416.50 2.005
416.60 2.004
416.70 2.002
416.80 2
416.90 1.999
417.00 1.997
417.10 1.996
417.20 1.994
417.30 1.992
417.40 1.991
417.50 1.989
417.60 1.987
417.70 1.986
417.80 1.984
417.90 1.982
418.00 1.981
418.10 1.979
418.20 1.977
418.30 1.976
418.40 1.974
418.50 1.972
418.60 1.971
418.70 1.969
418.80 1.967
418.90 1.965
419.00 1.964
419.10 1.962
419.20 1.96
419.30 1.959
419.40 1.957
419.50 1.955
419.60 1.953
419.70 1.952
419.80 1.95
419.90 1.948
420.00 1.947
420.10 1.945
420.20 1.943
420.30 1.941
420.40 1.94
420.50 1.938
420.60 1.936
420.70 1.934
420.80 1.933
420.90 1.931
421.00 1.929
421.10 1.928
421.20 1.926
421.30 1.924
421.40 1.922
421.50 1.921
421.60 1.919
421.70 1.917
421.80 1.915
421.90 1.914
422.00 1.912
422.10 1.91
422.20 1.909
422.30 1.907
422.40 1.905
422.50 1.903
422.60 1.902
422.70 1.9
422.80 1.898
422.90 1.896
423.00 1.895
423.10 1.893
423.20 1.891
423.30 1.89
423.40 1.888
423.50 1.886
423.60 1.884
423.70 1.883
423.80 1.881
423.90 1.879
424.00 1.877
424.10 1.876
424.20 1.874
424.30 1.872
424.40 1.871
424.50 1.869
424.60 1.867
424.70 1.865
424.80 1.864
424.90 1.862
425.00 1.86
425.10 1.858
425.20 1.857
425.30 1.855
425.40 1.853
425.50 1.851
425.60 1.85
425.70 1.848
425.80 1.846
425.90 1.844
426.00 1.843
426.10 1.841
426.20 1.839
426.30 1.837
426.40 1.836
426.50 1.834
426.60 1.832
426.70 1.83
426.80 1.828
426.90 1.827
427.00 1.825
427.10 1.823
427.20 1.821
427.30 1.819
427.40 1.818
427.50 1.816
427.60 1.814
427.70 1.812
427.80 1.81
427.90 1.808
428.00 1.806
428.10 1.805
428.20 1.803
428.30 1.801
428.40 1.799
428.50 1.797
428.60 1.795
428.70 1.793
428.80 1.791
428.90 1.789
429.00 1.787
429.10 1.785
429.20 1.782
429.30 1.78
429.40 1.778
429.50 1.776
429.60 1.774
429.70 1.771
429.80 1.769
429.90 1.767
430.00 1.764
430.10 1.762
430.20 1.759
430.30 1.756
430.40 1.754
430.50 1.751
430.60 1.748
430.70 1.745
430.80 1.742
430.90 1.739
431.00 1.735
431.10 1.732
431.20 1.728
431.30 1.724
431.40 1.72
431.50 1.716
431.60 1.712
431.70 1.707
431.80 1.702
431.90 1.697
432.00 1.691
432.10 1.686
432.20 1.68
432.30 1.673
432.40 1.667
432.50 1.659
432.60 1.651
432.70 1.643
432.80 1.635
432.90 1.626
433.00 1.616
433.10 1.606
433.20 1.595
433.30 1.584
433.40 1.572
433.50 1.559
433.60 1.546
433.70 1.531
433.80 1.515
433.90 1.499
434.00 1.484
434.10 1.483
434.20 1.496
434.30 1.51
434.40 1.523
434.50 1.535
434.60 1.546
434.70 1.555
434.80 1.565
434.90 1.573
435.00 1.581
435.10 1.588
435.20 1.595
435.30 1.601
435.40 1.607
435.50 1.612
435.60 1.617
435.70 1.621
435.80 1.625
435.90 1.628
436.00 1.631
436.10 1.634
436.20 1.636
436.30 1.638
436.40 1.64
436.50 1.641
436.60 1.643
436.70 1.644
436.80 1.645
436.90 1.645
437.00 1.646
437.10 1.646
437.20 1.647
437.30 1.647
437.40 1.647
437.50 1.647
437.60 1.647
437.70 1.646
437.80 1.646
437.90 1.645
438.00 1.645
438.10 1.644
438.20 1.644
438.30 1.643
438.40 1.642
438.50 1.642
438.60 1.641
438.70 1.64
438.80 1.639
438.90 1.638
439.00 1.637
439.10 1.636
439.20 1.635
439.30 1.634
439.40 1.633
439.50 1.632
439.60 1.631
439.70 1.63
439.80 1.629
439.90 1.628
440.00 1.626
440.10 1.625
440.20 1.624
440.30 1.623
440.40 1.622
440.50 1.621
440.60 1.619
440.70 1.618
440.80 1.617
440.90 1.616
441.00 1.614
441.10 1.613
441.20 1.612
441.30 1.611
441.40 1.609
441.50 1.608
441.60 1.607
441.70 1.606
441.80 1.604
441.90 1.603
442.00 1.602
442.10 1.6
442.20 1.599
442.30 1.598
442.40 1.597
442.50 1.595
442.60 1.594
442.70 1.593
442.80 1.591
442.90 1.59
443.00 1.589
443.10 1.587
443.20 1.586
443.30 1.585
443.40 1.583
443.50 1.582
443.60 1.581
443.70 1.58
443.80 1.578
443.90 1.577
444.00 1.576
444.10 1.574
444.20 1.573
444.30 1.572
444.40 1.57
444.50 1.569
444.60 1.568
444.70 1.566
444.80 1.565
444.90 1.564
445.00 1.562
445.10 1.561
445.20 1.56
445.30 1.559
445.40 1.557
445.50 1.556
445.60 1.555
445.70 1.553
445.80 1.552
445.90 1.551
446.00 1.549
446.10 1.548
446.20 1.547
446.30 1.545
446.40 1.544
446.50 1.543
446.60 1.542
446.70 1.54
446.80 1.539
446.90 1.538
447.00 1.536
447.10 1.535
447.20 1.534
447.30 1.532
447.40 1.531
447.50 1.53
447.60 1.529
447.70 1.527
447.80 1.526
447.90 1.525
448.00 1.523
448.10 1.522
448.20 1.521
448.30 1.52
448.40 1.518
448.50 1.517
448.60 1.516
448.70 1.514
448.80 1.513
448.90 1.512
449.00 1.511
449.10 1.509
449.20 1.508
449.30 1.507
449.40 1.505
449.50 1.504
449.60 1.503
449.70 1.502
449.80 1.5
449.90 1.499
450.00 1.498
450.10 1.497
450.20 1.495
450.30 1.494
450.40 1.493
450.50 1.492
450.60 1.49
450.70 1.489
450.80 1.488
450.90 1.486
451.00 1.485
451.10 1.484
451.20 1.483
451.30 1.481
451.40 1.48
451.50 1.479
451.60 1.478
451.70 1.476
451.80 1.475
451.90 1.474
452.00 1.473
452.10 1.471
452.20 1.47
452.30 1.469
452.40 1.468
452.50 1.467
452.60 1.465
452.70 1.464
452.80 1.463
452.90 1.462
453.00 1.46
453.10 1.459
453.20 1.458
453.30 1.457
453.40 1.455
453.50 1.454
453.60 1.453
453.70 1.452
453.80 1.451
453.90 1.449
454.00 1.448
454.10 1.447
454.20 1.446
454.30 1.444
454.40 1.443
454.50 1.442
454.60 1.441
454.70 1.44
454.80 1.438
454.90 1.437
455.00 1.436
455.10 1.435
455.20 1.434
455.30 1.432
455.40 1.431
455.50 1.43
455.60 1.429
455.70 1.428
455.80 1.426
455.90 1.425
456.00 1.424
456.10 1.423
456.20 1.422
456.30 1.42
456.40 1.419
456.50 1.418
456.60 1.417
456.70 1.416
456.80 1.414
456.90 1.413
457.00 1.412
457.10 1.411
457.20 1.41
457.30 1.409
457.40 1.407
457.50 1.406
457.60 1.405
457.70 1.404
457.80 1.403
457.90 1.402
458.00 1.4
458.10 1.399
458.20 1.398
458.30 1.397
458.40 1.396
458.50 1.394
458.60 1.393
458.70 1.392
458.80 1.391
458.90 1.39
459.00 1.389
459.10 1.388
459.20 1.386
459.30 1.385
459.40 1.384
459.50 1.383
459.60 1.382
459.70 1.381
459.80 1.379
459.90 1.378
460.00 1.377
460.10 1.376
460.20 1.375
460.30 1.374
460.40 1.373
460.50 1.371
460.60 1.37
460.70 1.369
460.80 1.368
460.90 1.367
461.00 1.366
461.10 1.365
461.20 1.363
461.30 1.362
461.40 1.361
461.50 1.36
461.60 1.359
461.70 1.358
461.80 1.357
461.90 1.356
462.00 1.354
462.10 1.353
462.20 1.352
462.30 1.351
462.40 1.35
462.50 1.349
462.60 1.348
462.70 1.347
462.80 1.345
462.90 1.344
463.00 1.343
463.10 1.342
463.20 1.341
463.30 1.34
463.40 1.339
463.50 1.338
463.60 1.337
463.70 1.335
463.80 1.334
463.90 1.333
464.00 1.332
464.10 1.331
464.20 1.33
464.30 1.329
464.40 1.328
464.50 1.327
464.60 1.326
464.70 1.324
464.80 1.323
464.90 1.322
465.00 1.321
465.10 1.32
465.20 1.319
465.30 1.318
465.40 1.317
465.50 1.316
465.60 1.315
465.70 1.314
465.80 1.313
465.90 1.311
466.00 1.31
466.10 1.309
466.20 1.308
466.30 1.307
466.40 1.306
466.50 1.305
466.60 1.304
466.70 1.303
466.80 1.302
466.90 1.301
467.00 1.3
467.10 1.299
467.20 1.297
467.30 1.296
467.40 1.295
467.50 1.294
467.60 1.293
467.70 1.292
467.80 1.291
467.90 1.29
468.00 1.289
468.10 1.288
468.20 1.287
468.30 1.286
468.40 1.285
468.50 1.284
468.60 1.283
468.70 1.282
468.80 1.28
468.90 1.279
469.00 1.278
469.10 1.277
469.20 1.276
469.30 1.275
469.40 1.274
469.50 1.273
469.60 1.272
469.70 1.271
469.80 1.27
469.90 1.269
470.00 1.268
470.10 1.267
470.20 1.266
470.30 1.265
470.40 1.264
470.50 1.263
470.60 1.262
470.70 1.261
470.80 1.26
470.90 1.259
471.00 1.258
471.10 1.256
471.20 1.255
471.30 1.254
471.40 1.253
471.50 1.252
471.60 1.251
471.70 1.25
471.80 1.249
471.90 1.248
472.00 1.247
472.10 1.246
472.20 1.245
472.30 1.244
472.40 1.243
472.50 1.242
472.60 1.241
472.70 1.24
472.80 1.239
472.90 1.238
473.00 1.237
473.10 1.236
473.20 1.235
473.30 1.234
473.40 1.233
473.50 1.232
473.60 1.231
473.70 1.23
473.80 1.229
473.90 1.228
474.00 1.227
474.10 1.226
474.20 1.225
474.30 1.224
474.40 1.223
474.50 1.222
474.60 1.221
474.70 1.22
474.80 1.219
474.90 1.218
475.00 1.217
475.10 1.216
475.20 1.215
475.30 1.214
475.40 1.213
475.50 1.212
475.60 1.211
475.70 1.21
475.80 1.209
475.90 1.208
476.00 1.207
476.10 1.206
476.20 1.205
476.30 1.204
476.40 1.203
476.50 1.202
476.60 1.201
476.70 1.2
476.80 1.199
476.90 1.198
477.00 1.197
477.10 1.196
477.20 1.195
477.30 1.193
477.40 1.192
477.50 1.191
477.60 1.19
477.70 1.189
477.80 1.188
477.90 1.187
478.00 1.186
478.10 1.185
478.20 1.184
478.30 1.183
478.40 1.182
478.50 1.181
478.60 1.18
478.70 1.179
478.80 1.178
478.90 1.177
479.00 1.176
479.10 1.175
479.20 1.174
479.30 1.173
479.40 1.172
479.50 1.171
479.60 1.169
479.70 1.168
479.80 1.167
479.90 1.166
480.00 1.165
480.10 1.164
480.20 1.163
480.30 1.162
480.40 1.161
480.50 1.159
480.60 1.158
480.70 1.157
480.80 1.156
480.90 1.155
481.00 1.154
481.10 1.152
481.20 1.151
481.30 1.15
481.40 1.148
481.50 1.147
481.60 1.146
481.70 1.144
481.80 1.143
481.90 1.142
482.00 1.14
482.10 1.139
482.20 1.137
482.30 1.136
482.40 1.134
482.50 1.132
482.60 1.13
482.70 1.129
482.80 1.127
482.90 1.125
483.00 1.123
483.10 1.122
483.20 1.119
483.30 1.116
483.40 1.114
483.50 1.111
483.60 1.108
483.70 1.106
483.80 1.103
483.90 1.1
484.00 1.098
484.10 1.095
484.20 1.092
484.30 1.088
484.40 1.084
484.50 1.08
484.60 1.076
484.70 1.071
484.80 1.065
484.90 1.06
485.00 1.054
485.10 1.049
485.20 1.043
485.30 1.036
485.40 1.029
485.50 1.021
485.60 1.012
485.70 1.003
485.80 0.9914
485.90 0.9782
486.00 0.9606
486.10 0.9555
486.20 0.9511
486.30 0.965
486.40 0.9785
486.50 0.9903
486.60 0.9993
486.70 1.007
486.80 1.013
486.90 1.019
487.00 1.025
487.10 1.03
487.20 1.034
487.30 1.038
487.40 1.041
487.50 1.045
487.60 1.049
487.70 1.051
487.80 1.054
487.90 1.056
488.00 1.058
488.10 1.06
488.20 1.062
488.30 1.063
488.40 1.064
488.50 1.064
488.60 1.065
488.70 1.066
488.80 1.067
488.90 1.068
489.00 1.069
489.10 1.07
489.20 1.07
489.30 1.07
489.40 1.07
489.50 1.07
489.60 1.07
489.70 1.07
489.80 1.07
489.90 1.07
490.00 1.07
490.10 1.07
490.20 1.069
490.30 1.069
490.40 1.068
490.50 1.068
490.60 1.067
490.70 1.067
490.80 1.067
490.90 1.066
491.00 1.066
491.10 1.065
491.20 1.065
491.30 1.064
491.40 1.064
491.50 1.063
491.60 1.062
491.70 1.062
491.80 1.061
491.90 1.06
492.00 1.06
492.10 1.059
492.20 1.059
492.30 1.058
492.40 1.057
492.50 1.057
492.60 1.056
492.70 1.055
492.80 1.054
492.90 1.054
493.00 1.053
493.10 1.052
493.20 1.052
493.30 1.051
493.40 1.05
493.50 1.049
493.60 1.049
493.70 1.048
493.80 1.047
493.90 1.046
494.00 1.046
494.10 1.045
494.20 1.044
494.30 1.044
494.40 1.043
494.50 1.042
494.60 1.041
494.70 1.04
494.80 1.04
494.90 1.039
495.00 1.038
495.10 1.037
495.20 1.037
495.30 1.036
495.40 1.035
495.50 1.034
495.60 1.034
495.70 1.033
495.80 1.032
495.90 1.031
496.00 1.031
496.10 1.03
496.20 1.029
496.30 1.028
496.40 1.028
496.50 1.027
496.60 1.026
496.70 1.025
496.80 1.024
496.90 1.024
497.00 1.023
497.10 1.022
497.20 1.021
497.30 1.021
497.40 1.02
497.50 1.019
497.60 1.018
497.70 1.018
497.80 1.017
497.90 1.016
498.00 1.015
498.10 1.014
498.20 1.014
498.30 1.013
498.40 1.012
498.50 1.011
498.60 1.011
498.70 1.01
498.80 1.009
498.90 1.008
499.00 1.008
499.10 1.007
499.20 1.006
499.30 1.005
499.40 1.005
499.50 1.004
499.60 1.003
499.70 1.002
499.80 1.002
499.90 1.001
500.00 1
500.10 0.9992
500.20 0.9985
500.30 0.9977
500.40 0.997
500.50 0.9962
500.60 0.9955
500.70 0.9947
500.80 0.9939
500.90 0.9932
501.00 0.9924
501.10 0.9917
501.20 0.9909
501.30 0.9902
501.40 0.9894
501.50 0.9887
501.60 0.9879
501.70 0.9872
501.80 0.9864
501.90 0.9857
502.00 0.9849
502.10 0.9842
502.20 0.9834
502.30 0.9827
502.40 0.9819
502.50 0.9812
502.60 0.9805
502.70 0.9797
502.80 0.979
502.90 0.9782
503.00 0.9775
503.10 0.9768
503.20 0.976
503.30 0.9753
503.40 0.9745
503.50 0.9738
503.60 0.9731
503.70 0.9723
503.80 0.9716
503.90 0.9708
504.00 0.9701
504.10 0.9694
504.20 0.9686
504.30 0.9679
504.40 0.9672
504.50 0.9664
504.60 0.9657
504.70 0.965
504.80 0.9642
504.90 0.9635
505.00 0.9628
505.10 0.962
505.20 0.9613
505.30 0.9606
505.40 0.9599
505.50 0.9591
505.60 0.9584
505.70 0.9577
505.80 0.957
505.90 0.9562
506.00 0.9555
506.10 0.9548
506.20 0.9541
506.30 0.9534
506.40 0.9526
506.50 0.9519
506.60 0.9512
506.70 0.9505
506.80 0.9498
506.90 0.949
507.00 0.9483
507.10 0.9476
507.20 0.9469
507.30 0.9462
507.40 0.9455
507.50 0.9448
507.60 0.944
507.70 0.9433
507.80 0.9426
507.90 0.9419
508.00 0.9412
508.10 0.9405
508.20 0.9398
508.30 0.9391
508.40 0.9384
508.50 0.9377
508.60 0.937
508.70 0.9362
508.80 0.9355
508.90 0.9348
509.00 0.9341
509.10 0.9334
509.20 0.9327
509.30 0.932
509.40 0.9313
509.50 0.9306
509.60 0.9299
509.70 0.9292
509.80 0.9285
509.90 0.9278
510.00 0.9271
510.10 0.9264
510.20 0.9257
510.30 0.925
510.40 0.9243
510.50 0.9236
510.60 0.923
510.70 0.9223
510.80 0.9216
510.90 0.9209
511.00 0.9202
511.10 0.9195
511.20 0.9188
511.30 0.9181
511.40 0.9174
511.50 0.9167
511.60 0.9161
511.70 0.9154
511.80 0.9147
511.90 0.914
512.00 0.9133
512.10 0.9126
512.20 0.9119
512.30 0.9113
512.40 0.9106
512.50 0.9099
512.60 0.9092
512.70 0.9085
512.80 0.9079
512.90 0.9072
513.00 0.9065
513.10 0.9058
513.20 0.9051
513.30 0.9045
513.40 0.9038
513.50 0.9031
513.60 0.9024
513.70 0.9018
513.80 0.9011
513.90 0.9004
514.00 0.8997
514.10 0.8991
514.20 0.8984
514.30 0.8977
514.40 0.8971
514.50 0.8964
514.60 0.8957
514.70 0.8951
514.80 0.8944
514.90 0.8937
515.00 0.8931
515.10 0.8924
515.20 0.8917
515.30 0.8911
515.40 0.8904
515.50 0.8897
515.60 0.8891
515.70 0.8884
515.80 0.8878
515.90 0.8871
516.00 0.8864
516.10 0.8858
516.20 0.8851
516.30 0.8845
516.40 0.8838
516.50 0.8831
516.60 0.8825
516.70 0.8818
516.80 0.8812
516.90 0.8805
517.00 0.8799
517.10 0.8792
517.20 0.8786
517.30 0.8779
517.40 0.8773
517.50 0.8766
517.60 0.876
517.70 0.8753
517.80 0.8747
517.90 0.874
518.00 0.8734
518.10 0.8727
518.20 0.8721
518.30 0.8714
518.40 0.8708
518.50 0.8701
518.60 0.8695
518.70 0.8688
518.80 0.8682
518.90 0.8676
519.00 0.8669
519.10 0.8663
519.20 0.8656
519.30 0.865
519.40 0.8644
519.50 0.8637
519.60 0.8631
519.70 0.8624
519.80 0.8618
519.90 0.8612
520.00 0.8605
520.10 0.8599
520.20 0.8593
520.30 0.8586
520.40 0.858
520.50 0.8574
520.60 0.8567
520.70 0.8561
520.80 0.8555
520.90 0.8548
521.00 0.8542
521.10 0.8536
521.20 0.8529
521.30 0.8523
521.40 0.8517
521.50 0.8511
521.60 0.8504
521.70 0.8498
521.80 0.8492
521.90 0.8486
522.00 0.8479
522.10 0.8473
522.20 0.8467
522.30 0.8461
522.40 0.8454
522.50 0.8448
522.60 0.8442
522.70 0.8436
522.80 0.843
522.90 0.8423
523.00 0.8417
523.10 0.8411
523.20 0.8405
523.30 0.8399
523.40 0.8393
523.50 0.8386
523.60 0.838
523.70 0.8374
523.80 0.8368
523.90 0.8362
524.00 0.8356
524.10 0.835
524.20 0.8343
524.30 0.8337
524.40 0.8331
524.50 0.8325
524.60 0.8319
524.70 0.8313
524.80 0.8307
524.90 0.8301
525.00 0.8295
525.10 0.8289
525.20 0.8283
525.30 0.8277
525.40 0.827
525.50 0.8264
525.60 0.8258
525.70 0.8252
525.80 0.8246
525.90 0.824
526.00 0.8234
526.10 0.8228
526.20 0.8222
526.30 0.8216
526.40 0.821
526.50 0.8204
526.60 0.8198
526.70 0.8192
526.80 0.8186
526.90 0.818
527.00 0.8174
527.10 0.8168
527.20 0.8162
527.30 0.8156
527.40 0.8151
527.50 0.8145
527.60 0.8139
527.70 0.8133
527.80 0.8127
527.90 0.8121
528.00 0.8115
528.10 0.8109
528.20 0.8103
528.30 0.8097
528.40 0.8091
528.50 0.8086
528.60 0.808
528.70 0.8074
528.80 0.8068
528.90 0.8062
529.00 0.8056
529.10 0.805
529.20 0.8045
529.30 0.8039
529.40 0.8033
529.50 0.8027
529.60 0.8021
529.70 0.8015
529.80 0.801
529.90 0.8004
530.00 0.7998
530.10 0.7992
530.20 0.7986
530.30 0.7981
530.40 0.7975
530.50 0.7969
530.60 0.7963
530.70 0.7957
530.80 0.7952
530.90 0.7946
531.00 0.794
531.10 0.7934
531.20 0.7929
531.30 0.7923
531.40 0.7917
531.50 0.7912
531.60 0.7906
531.70 0.79
531.80 0.7894
531.90 0.7889
532.00 0.7883
532.10 0.7877
532.20 0.7872
532.30 0.7866
532.40 0.786
532.50 0.7855
532.60 0.7849
532.70 0.7843
532.80 0.7838
532.90 0.7832
533.00 0.7826
533.10 0.7821
533.20 0.7815
533.30 0.7809
533.40 0.7804
533.50 0.7798
533.60 0.7792
533.70 0.7787
533.80 0.7781
533.90 0.7776
534.00 0.777
534.10 0.7764
534.20 0.7759
534.30 0.7753
534.40 0.7748
534.50 0.7742
534.60 0.7737
534.70 0.7731
534.80 0.7725
534.90 0.772
535.00 0.7714
535.10 0.7709
535.20 0.7703
535.30 0.7698
535.40 0.7692
535.50 0.7687
535.60 0.7681
535.70 0.7676
535.80 0.767
535.90 0.7665
536.00 0.7659
536.10 0.7654
536.20 0.7648
536.30 0.7643
536.40 0.7637
536.50 0.7632
536.60 0.7626
536.70 0.7621
536.80 0.7615
536.90 0.761
537.00 0.7604
537.10 0.7599
537.20 0.7594
537.30 0.7588
537.40 0.7583
537.50 0.7577
537.60 0.7572
537.70 0.7566
537.80 0.7561
537.90 0.7556
538.00 0.755
538.10 0.7545
538.20 0.7539
538.30 0.7534
538.40 0.7529
538.50 0.7523
538.60 0.7518
538.70 0.7513
538.80 0.7507
538.90 0.7502
539.00 0.7496
539.10 0.7491
539.20 0.7486
539.30 0.748
539.40 0.7475
539.50 0.747
539.60 0.7464
539.70 0.7459
539.80 0.7454
539.90 0.7448
540.00 0.7443
540.10 0.7438
540.20 0.7433
540.30 0.7427
540.40 0.7422
540.50 0.7417
540.60 0.7411
540.70 0.7406
540.80 0.7401
540.90 0.7396
541.00 0.739
541.10 0.7385
541.20 0.738
541.30 0.7375
541.40 0.7369
541.50 0.7364
541.60 0.7359
541.70 0.7354
541.80 0.7349
541.90 0.7343
542.00 0.7338
542.10 0.7333
542.20 0.7328
542.30 0.7322
542.40 0.7317
542.50 0.7312
542.60 0.7307
542.70 0.7302
542.80 0.7297
542.90 0.7291
543.00 0.7286
543.10 0.7281
543.20 0.7276
543.30 0.7271
543.40 0.7266
543.50 0.726
543.60 0.7255
543.70 0.725
543.80 0.7245
543.90 0.724
544.00 0.7235
544.10 0.723
544.20 0.7225
544.30 0.722
544.40 0.7214
544.50 0.7209
544.60 0.7204
544.70 0.7199
544.80 0.7194
544.90 0.7189
545.00 0.7184
545.10 0.7179
545.20 0.7174
545.30 0.7169
545.40 0.7164
545.50 0.7159
545.60 0.7154
545.70 0.7149
545.80 0.7143
545.90 0.7138
546.00 0.7133
546.10 0.7128
546.20 0.7123
546.30 0.7118
546.40 0.7113
546.50 0.7108
546.60 0.7103
546.70 0.7098
546.80 0.7093
546.90 0.7088
547.00 0.7083
547.10 0.7078
547.20 0.7073
547.30 0.7068
547.40 0.7063
547.50 0.7059
547.60 0.7054
547.70 0.7049
547.80 0.7044
547.90 0.7039
548.00 0.7034
548.10 0.7029
548.20 0.7024
548.30 0.7019
548.40 0.7014
548.50 0.7009
548.60 0.7004
548.70 0.6999
548.80 0.6994
548.90 0.6989
549.00 0.6985
549.10 0.698
549.20 0.6975
549.30 0.697
549.40 0.6965
549.50 0.696
549.60 0.6955
549.70 0.695
549.80 0.6946
549.90 0.6941
550.00 0.6936
550.10 0.6931
550.20 0.6926
550.30 0.6921
550.40 0.6916
550.50 0.6912
550.60 0.6907
550.70 0.6902
550.80 0.6897
550.90 0.6892
551.00 0.6887
551.10 0.6883
551.20 0.6878
551.30 0.6873
551.40 0.6868
551.50 0.6864
551.60 0.6859
551.70 0.6854
551.80 0.6849
551.90 0.6844
552.00 0.684
552.10 0.6835
552.20 0.683
552.30 0.6825
552.40 0.6821
552.50 0.6816
552.60 0.6811
552.70 0.6806
552.80 0.6802
552.90 0.6797
553.00 0.6792
553.10 0.6787
553.20 0.6783
553.30 0.6778
553.40 0.6773
553.50 0.6769
553.60 0.6764
553.70 0.6759
553.80 0.6754
553.90 0.675
554.00 0.6745
554.10 0.674
554.20 0.6736
554.30 0.6731
554.40 0.6726
554.50 0.6722
554.60 0.6717
554.70 0.6712
554.80 0.6708
554.90 0.6703
555.00 0.6698
555.10 0.6694
555.20 0.6689
555.30 0.6684
555.40 0.668
555.50 0.6675
555.60 0.6671
555.70 0.6666
555.80 0.6661
555.90 0.6657
556.00 0.6652
556.10 0.6648
556.20 0.6643
556.30 0.6638
556.40 0.6634
556.50 0.6629
556.60 0.6625
556.70 0.662
556.80 0.6615
556.90 0.6611
557.00 0.6606
557.10 0.6602
557.20 0.6597
557.30 0.6593
557.40 0.6588
557.50 0.6583
557.60 0.6579
557.70 0.6574
557.80 0.657
557.90 0.6565
558.00 0.6561
558.10 0.6556
558.20 0.6552
558.30 0.6547
558.40 0.6543
558.50 0.6538
558.60 0.6534
558.70 0.6529
558.80 0.6525
558.90 0.652
559.00 0.6516
559.10 0.6511
559.20 0.6507
559.30 0.6502
559.40 0.6498
559.50 0.6493
559.60 0.6489
559.70 0.6484
559.80 0.648
559.90 0.6476
560.00 0.6471
560.10 0.6467
560.20 0.6462
560.30 0.6458
560.40 0.6453
560.50 0.6449
560.60 0.6444
560.70 0.644
560.80 0.6436
560.90 0.6431
561.00 0.6427
561.10 0.6422
561.20 0.6418
561.30 0.6414
561.40 0.6409
561.50 0.6405
561.60 0.64
561.70 0.6396
561.80 0.6392
561.90 0.6387
562.00 0.6383
562.10 0.6378
562.20 0.6374
562.30 0.637
562.40 0.6365
562.50 0.6361
562.60 0.6357
562.70 0.6352
562.80 0.6348
562.90 0.6344
563.00 0.6339
563.10 0.6335
563.20 0.6331
563.30 0.6326
563.40 0.6322
563.50 0.6318
563.60 0.6313
563.70 0.6309
563.80 0.6305
563.90 0.63
564.00 0.6296
564.10 0.6292
564.20 0.6287
564.30 0.6283
564.40 0.6279
564.50 0.6275
564.60 0.627
564.70 0.6266
564.80 0.6262
564.90 0.6258
565.00 0.6253
565.10 0.6249
565.20 0.6245
565.30 0.6241
565.40 0.6236
565.50 0.6232
565.60 0.6228
565.70 0.6224
565.80 0.6219
565.90 0.6215
566.00 0.6211
566.10 0.6207
566.20 0.6202
566.30 0.6198
566.40 0.6194
566.50 0.619
566.60 0.6186
566.70 0.6181
566.80 0.6177
566.90 0.6173
567.00 0.6169
567.10 0.6165
567.20 0.616
567.30 0.6156
567.40 0.6152
567.50 0.6148
567.60 0.6144
567.70 0.614
567.80 0.6135
567.90 0.6131
568.00 0.6127
568.10 0.6123
568.20 0.6119
568.30 0.6115
568.40 0.611
568.50 0.6106
568.60 0.6102
568.70 0.6098
568.80 0.6094
568.90 0.609
569.00 0.6086
569.10 0.6082
569.20 0.6077
569.30 0.6073
569.40 0.6069
569.50 0.6065
569.60 0.6061
569.70 0.6057
569.80 0.6053
569.90 0.6049
570.00 0.6045
570.10 0.6041
570.20 0.6036
570.30 0.6032
570.40 0.6028
570.50 0.6024
570.60 0.602
570.70 0.6016
570.80 0.6012
570.90 0.6008
571.00 0.6004
571.10 0.6
571.20 0.5996
571.30 0.5992
571.40 0.5988
571.50 0.5984
571.60 0.598
571.70 0.5976
571.80 0.5972
571.90 0.5968
572.00 0.5964
572.10 0.596
572.20 0.5956
572.30 0.5952
572.40 0.5948
572.50 0.5944
572.60 0.594
572.70 0.5936
572.80 0.5932
572.90 0.5928
573.00 0.5924
573.10 0.592
573.20 0.5916
573.30 0.5912
573.40 0.5908
573.50 0.5904
573.60 0.59
573.70 0.5896
573.80 0.5892
573.90 0.5888
574.00 0.5884
574.10 0.588
574.20 0.5876
574.30 0.5872
574.40 0.5868
574.50 0.5864
574.60 0.586
574.70 0.5856
574.80 0.5852
574.90 0.5849
575.00 0.5845
575.10 0.5841
575.20 0.5837
575.30 0.5833
575.40 0.5829
575.50 0.5825
575.60 0.5821
575.70 0.5817
575.80 0.5813
575.90 0.581
576.00 0.5806
576.10 0.5802
576.20 0.5798
576.30 0.5794
576.40 0.579
576.50 0.5786
576.60 0.5782
576.70 0.5779
576.80 0.5775
576.90 0.5771
577.00 0.5767
577.10 0.5763
577.20 0.5759
577.30 0.5755
577.40 0.5752
577.50 0.5748
577.60 0.5744
577.70 0.574
577.80 0.5736
577.90 0.5732
578.00 0.5729
578.10 0.5725
578.20 0.5721
578.30 0.5717
578.40 0.5713
578.50 0.571
578.60 0.5706
578.70 0.5702
578.80 0.5698
578.90 0.5694
579.00 0.5691
579.10 0.5687
579.20 0.5683
579.30 0.5679
579.40 0.5675
579.50 0.5672
579.60 0.5668
579.70 0.5664
579.80 0.566
579.90 0.5657
580.00 0.5653
580.10 0.5649
580.20 0.5645
580.30 0.5642
580.40 0.5638
580.50 0.5634
580.60 0.563
580.70 0.5627
580.80 0.5623
580.90 0.5619
581.00 0.5615
581.10 0.5612
581.20 0.5608
581.30 0.5604
581.40 0.5601
581.50 0.5597
581.60 0.5593
581.70 0.5589
581.80 0.5586
581.90 0.5582
582.00 0.5578
582.10 0.5575
582.20 0.5571
582.30 0.5567
582.40 0.5564
582.50 0.556
582.60 0.5556
582.70 0.5553
582.80 0.5549
582.90 0.5545
583.00 0.5542
583.10 0.5538
583.20 0.5534
583.30 0.5531
583.40 0.5527
583.50 0.5523
583.60 0.552
583.70 0.5516
583.80 0.5512
583.90 0.5509
584.00 0.5505
584.10 0.5501
584.20 0.5498
584.30 0.5494
584.40 0.5491
584.50 0.5487
584.60 0.5483
584.70 0.548
584.80 0.5476
584.90 0.5473
585.00 0.5469
585.10 0.5465
585.20 0.5462
585.30 0.5458
585.40 0.5455
585.50 0.5451
585.60 0.5447
585.70 0.5444
585.80 0.544
585.90 0.5437
586.00 0.5433
586.10 0.5429
586.20 0.5426
586.30 0.5422
586.40 0.5419
586.50 0.5415
586.60 0.5412
586.70 0.5408
586.80 0.5405
586.90 0.5401
587.00 0.5397
587.10 0.5394
587.20 0.539
587.30 0.5387
587.40 0.5383
587.50 0.538
587.60 0.5376
587.70 0.5373
587.80 0.5369
587.90 0.5366
588.00 0.5362
588.10 0.5359
588.20 0.5355
588.30 0.5352
588.40 0.5348
588.50 0.5345
588.60 0.5341
588.70 0.5338
588.80 0.5334
588.90 0.5331
589.00 0.5327
589.10 0.5324
589.20 0.532
589.30 0.5317
589.40 0.5313
589.50 0.531
589.60 0.5306
589.70 0.5303
589.80 0.5299
589.90 0.5296
590.00 0.5292
590.10 0.5289
590.20 0.5285
590.30 0.5282
590.40 0.5279
590.50 0.5275
590.60 0.5272
590.70 0.5268
590.80 0.5265
590.90 0.5261
591.00 0.5258
591.10 0.5255
591.20 0.5251
591.30 0.5248
591.40 0.5244
591.50 0.5241
591.60 0.5237
591.70 0.5234
591.80 0.5231
591.90 0.5227
592.00 0.5224
592.10 0.522
592.20 0.5217
592.30 0.5214
592.40 0.521
592.50 0.5207
592.60 0.5203
592.70 0.52
592.80 0.5197
592.90 0.5193
593.00 0.519
593.10 0.5187
593.20 0.5183
593.30 0.518
593.40 0.5176
593.50 0.5173
593.60 0.517
593.70 0.5166
593.80 0.5163
593.90 0.516
594.00 0.5156
594.10 0.5153
594.20 0.515
594.30 0.5146
594.40 0.5143
594.50 0.514
594.60 0.5136
594.70 0.5133
594.80 0.513
594.90 0.5126
595.00 0.5123
595.10 0.512
595.20 0.5116
595.30 0.5113
595.40 0.511
595.50 0.5106
595.60 0.5103
595.70 0.51
595.80 0.5096
595.90 0.5093
596.00 0.509
596.10 0.5087
596.20 0.5083
596.30 0.508
596.40 0.5077
596.50 0.5073
596.60 0.507
596.70 0.5067
596.80 0.5064
596.90 0.506
597.00 0.5057
597.10 0.5054
597.20 0.5051
597.30 0.5047
597.40 0.5044
597.50 0.5041
597.60 0.5038
597.70 0.5034
597.80 0.5031
597.90 0.5028
598.00 0.5025
598.10 0.5021
598.20 0.5018
598.30 0.5015
598.40 0.5012
598.50 0.5008
598.60 0.5005
598.70 0.5002
598.80 0.4999
598.90 0.4995
599.00 0.4992
599.10 0.4989
599.20 0.4986
599.30 0.4983
599.40 0.4979
599.50 0.4976
599.60 0.4973
599.70 0.497
599.80 0.4967
599.90 0.4963
600.00 0.496
600.10 0.4957
600.20 0.4954
600.30 0.4951
600.40 0.4948
600.50 0.4944
600.60 0.4941
600.70 0.4938
600.80 0.4935
600.90 0.4932
601.00 0.4928
601.10 0.4925
601.20 0.4922
601.30 0.4919
601.40 0.4916
601.50 0.4913
601.60 0.491
601.70 0.4906
601.80 0.4903
601.90 0.49
602.00 0.4897
602.10 0.4894
602.20 0.4891
602.30 0.4888
602.40 0.4884
602.50 0.4881
602.60 0.4878
602.70 0.4875
602.80 0.4872
602.90 0.4869
603.00 0.4866
603.10 0.4863
603.20 0.486
603.30 0.4856
603.40 0.4853
603.50 0.485
603.60 0.4847
603.70 0.4844
603.80 0.4841
603.90 0.4838
604.00 0.4835
604.10 0.4832
604.20 0.4829
604.30 0.4825
604.40 0.4822
604.50 0.4819
604.60 0.4816
604.70 0.4813
604.80 0.481
604.90 0.4807
605.00 0.4804
605.10 0.4801
605.20 0.4798
605.30 0.4795
605.40 0.4792
605.50 0.4789
605.60 0.4786
605.70 0.4783
605.80 0.478
605.90 0.4777
606.00 0.4773
606.10 0.477
606.20 0.4767
606.30 0.4764
606.40 0.4761
606.50 0.4758
606.60 0.4755
606.70 0.4752
606.80 0.4749
606.90 0.4746
607.00 0.4743
607.10 0.474
607.20 0.4737
607.30 0.4734
607.40 0.4731
607.50 0.4728
607.60 0.4725
607.70 0.4722
607.80 0.4719
607.90 0.4716
608.00 0.4713
608.10 0.471
608.20 0.4707
608.30 0.4704
608.40 0.4701
608.50 0.4698
608.60 0.4695
608.70 0.4692
608.80 0.4689
608.90 0.4686
609.00 0.4683
609.10 0.468
609.20 0.4677
609.30 0.4674
609.40 0.4672
609.50 0.4669
609.60 0.4666
609.70 0.4663
609.80 0.466
609.90 0.4657
610.00 0.4654
610.10 0.4651
610.20 0.4648
610.30 0.4645
610.40 0.4642
610.50 0.4639
610.60 0.4636
610.70 0.4633
610.80 0.463
610.90 0.4627
611.00 0.4624
611.10 0.4622
611.20 0.4619
611.30 0.4616
611.40 0.4613
611.50 0.461
611.60 0.4607
611.70 0.4604
611.80 0.4601
611.90 0.4598
612.00 0.4595
612.10 0.4592
612.20 0.459
612.30 0.4587
612.40 0.4584
612.50 0.4581
612.60 0.4578
612.70 0.4575
612.80 0.4572
612.90 0.4569
613.00 0.4567
613.10 0.4564
613.20 0.4561
613.30 0.4558
613.40 0.4555
613.50 0.4552
613.60 0.4549
613.70 0.4546
613.80 0.4544
613.90 0.4541
614.00 0.4538
614.10 0.4535
614.20 0.4532
614.30 0.4529
614.40 0.4526
614.50 0.4524
614.60 0.4521
614.70 0.4518
614.80 0.4515
614.90 0.4512
615.00 0.4509
615.10 0.4507
615.20 0.4504
615.30 0.4501
615.40 0.4498
615.50 0.4495
615.60 0.4493
615.70 0.449
615.80 0.4487
615.90 0.4484
616.00 0.4481
616.10 0.4478
616.20 0.4476
616.30 0.4473
616.40 0.447
616.50 0.4467
616.60 0.4464
616.70 0.4462
616.80 0.4459
616.90 0.4456
617.00 0.4453
617.10 0.4451
617.20 0.4448
617.30 0.4445
617.40 0.4442
617.50 0.4439
617.60 0.4437
617.70 0.4434
617.80 0.4431
617.90 0.4428
618.00 0.4426
618.10 0.4423
618.20 0.442
618.30 0.4417
618.40 0.4414
618.50 0.4412
618.60 0.4409
618.70 0.4406
618.80 0.4403
618.90 0.4401
619.00 0.4398
619.10 0.4395
619.20 0.4393
619.30 0.439
619.40 0.4387
619.50 0.4384
619.60 0.4382
619.70 0.4379
619.80 0.4376
619.90 0.4373
620.00 0.4371
620.10 0.4368
620.20 0.4365
620.30 0.4363
620.40 0.436
620.50 0.4357
620.60 0.4354
620.70 0.4352
620.80 0.4349
620.90 0.4346
621.00 0.4344
621.10 0.4341
621.20 0.4338
621.30 0.4335
621.40 0.4333
621.50 0.433
621.60 0.4327
621.70 0.4325
621.80 0.4322
621.90 0.4319
622.00 0.4317
622.10 0.4314
622.20 0.4311
622.30 0.4309
622.40 0.4306
622.50 0.4303
622.60 0.4301
622.70 0.4298
622.80 0.4295
622.90 0.4293
623.00 0.429
623.10 0.4287
623.20 0.4285
623.30 0.4282
623.40 0.4279
623.50 0.4277
623.60 0.4274
623.70 0.4271
623.80 0.4269
623.90 0.4266
624.00 0.4263
624.10 0.4261
624.20 0.4258
624.30 0.4256
624.40 0.4253
624.50 0.425
624.60 0.4248
624.70 0.4245
624.80 0.4242
624.90 0.424
625.00 0.4237
625.10 0.4235
625.20 0.4232
625.30 0.4229
625.40 0.4227
625.50 0.4224
625.60 0.4221
625.70 0.4219
625.80 0.4216
625.90 0.4214
626.00 0.4211
626.10 0.4208
626.20 0.4206
626.30 0.4203
626.40 0.4201
626.50 0.4198
626.60 0.4195
626.70 0.4193
626.80 0.419
626.90 0.4188
627.00 0.4185
627.10 0.4183
627.20 0.418
627.30 0.4177
627.40 0.4175
627.50 0.4172
627.60 0.417
627.70 0.4167
627.80 0.4165
627.90 0.4162
628.00 0.4159
628.10 0.4157
628.20 0.4154
628.30 0.4152
628.40 0.4149
628.50 0.4147
628.60 0.4144
628.70 0.4142
628.80 0.4139
628.90 0.4136
629.00 0.4134
629.10 0.4131
629.20 0.4129
629.30 0.4126
629.40 0.4124
629.50 0.4121
629.60 0.4119
629.70 0.4116
629.80 0.4114
629.90 0.4111
630.00 0.4109
630.10 0.4106
630.20 0.4104
630.30 0.4101
630.40 0.4099
630.50 0.4096
630.60 0.4094
630.70 0.4091
630.80 0.4089
630.90 0.4086
631.00 0.4083
631.10 0.4081
631.20 0.4078
631.30 0.4076
631.40 0.4073
631.50 0.4071
631.60 0.4069
631.70 0.4066
631.80 0.4064
631.90 0.4061
632.00 0.4059
632.10 0.4056
632.20 0.4054
632.30 0.4051
632.40 0.4049
632.50 0.4046
632.60 0.4044
632.70 0.4041
632.80 0.4039
632.90 0.4036
633.00 0.4034
633.10 0.4031
633.20 0.4029
633.30 0.4026
633.40 0.4024
633.50 0.4021
633.60 0.4019
633.70 0.4017
633.80 0.4014
633.90 0.4012
634.00 0.4009
634.10 0.4007
634.20 0.4004
634.30 0.4002
634.40 0.3999
634.50 0.3997
634.60 0.3995
634.70 0.3992
634.80 0.399
634.90 0.3987
635.00 0.3985
635.10 0.3982
635.20 0.398
635.30 0.3978
635.40 0.3975
635.50 0.3973
635.60 0.397
635.70 0.3968
635.80 0.3965
635.90 0.3963
636.00 0.3961
636.10 0.3958
636.20 0.3956
636.30 0.3953
636.40 0.3951
636.50 0.3949
636.60 0.3946
636.70 0.3944
636.80 0.3941
636.90 0.3939
637.00 0.3937
637.10 0.3934
637.20 0.3932
637.30 0.3929
637.40 0.3927
637.50 0.3925
637.60 0.3922
637.70 0.392
637.80 0.3917
637.90 0.3915
638.00 0.3913
638.10 0.391
638.20 0.3908
638.30 0.3905
638.40 0.3903
638.50 0.3901
638.60 0.3898
638.70 0.3896
638.80 0.3894
638.90 0.3891
639.00 0.3889
639.10 0.3887
639.20 0.3884
639.30 0.3882
639.40 0.3879
639.50 0.3877
639.60 0.3875
639.70 0.3872
639.80 0.387
639.90 0.3868
640.00 0.3865
640.10 0.3863
640.20 0.3861
640.30 0.3858
640.40 0.3856
640.50 0.3854
640.60 0.3851
640.70 0.3849
640.80 0.3847
640.90 0.3844
641.00 0.3842
641.10 0.384
641.20 0.3837
641.30 0.3835
641.40 0.3833
641.50 0.383
641.60 0.3828
641.70 0.3826
641.80 0.3823
641.90 0.3821
642.00 0.3819
642.10 0.3816
642.20 0.3814
642.30 0.3812
642.40 0.3809
642.50 0.3807
642.60 0.3805
642.70 0.3802
642.80 0.38
642.90 0.3798
643.00 0.3795
643.10 0.3793
643.20 0.3791
643.30 0.3788
643.40 0.3786
643.50 0.3784
643.60 0.3781
643.70 0.3779
643.80 0.3777
643.90 0.3774
644.00 0.3772
644.10 0.377
644.20 0.3768
644.30 0.3765
644.40 0.3763
644.50 0.3761
644.60 0.3758
644.70 0.3756
644.80 0.3754
644.90 0.3751
645.00 0.3749
645.10 0.3747
645.20 0.3744
645.30 0.3742
645.40 0.374
645.50 0.3738
645.60 0.3735
645.70 0.3733
645.80 0.3731
645.90 0.3728
646.00 0.3726
646.10 0.3724
646.20 0.3721
646.30 0.3719
646.40 0.3717
646.50 0.3714
646.60 0.3712
646.70 0.371
646.80 0.3707
646.90 0.3705
647.00 0.3703
647.10 0.3701
647.20 0.3698
647.30 0.3696
647.40 0.3694
647.50 0.3691
647.60 0.3689
647.70 0.3686
647.80 0.3684
647.90 0.3682
648.00 0.3679
648.10 0.3677
648.20 0.3675
648.30 0.3672
648.40 0.367
648.50 0.3668
648.60 0.3665
648.70 0.3663
648.80 0.366
648.90 0.3658
649.00 0.3656
649.10 0.3653
649.20 0.3651
649.30 0.3648
649.40 0.3646
649.50 0.3643
649.60 0.3641
649.70 0.3638
649.80 0.3636
649.90 0.3633
650.00 0.3631
650.10 0.3628
650.20 0.3626
650.30 0.3623
650.40 0.3621
650.50 0.3618
650.60 0.3615
650.70 0.3612
650.80 0.361
650.90 0.3607
651.00 0.3604
651.10 0.3602
651.20 0.3599
651.30 0.3596
651.40 0.3593
651.50 0.359
651.60 0.3587
651.70 0.3583
651.80 0.358
651.90 0.3577
652.00 0.3574
652.10 0.3571
652.20 0.3568
652.30 0.3564
652.40 0.356
652.50 0.3556
652.60 0.3552
652.70 0.3548
652.80 0.3544
652.90 0.354
653.00 0.3536
653.10 0.3532
653.20 0.3528
653.30 0.3523
653.40 0.3517
653.50 0.351
653.60 0.3504
653.70 0.3498
653.80 0.3491
653.90 0.3485
654.00 0.3478
654.10 0.3472
654.20 0.3466
654.30 0.3459
654.40 0.3449
654.50 0.3439
654.60 0.3429
654.70 0.3419
654.80 0.3408
654.90 0.3394
655.00 0.338
655.10 0.3365
655.20 0.3351
655.30 0.3336
655.40 0.3317
655.50 0.3297
655.60 0.3273
655.70 0.3247
655.80 0.3214
655.90 0.3174
656.00 0.3109
656.10 0.3037
656.20 0.2993
656.30 0.3128
656.40 0.2975
656.50 0.3059
656.60 0.3122
656.70 0.3178
656.80 0.3207
656.90 0.3235
657.00 0.3255
657.10 0.3274
657.20 0.3289
657.30 0.3303
657.40 0.3313
657.50 0.3324
657.60 0.3334
657.70 0.3344
657.80 0.3354
657.90 0.3359
658.00 0.3365
658.10 0.3371
658.20 0.3377
658.30 0.3382
658.40 0.3384
658.50 0.3386
658.60 0.3388
658.70 0.3391
658.80 0.3393
658.90 0.3395
659.00 0.3397
659.10 0.3399
659.20 0.3402
659.30 0.3403
659.40 0.3403
659.50 0.3403
659.60 0.3403
659.70 0.3403
659.80 0.3403
659.90 0.3403
660.00 0.3403
660.10 0.3403
660.20 0.3402
660.30 0.3402
660.40 0.3401
660.50 0.34
660.60 0.3399
660.70 0.3398
660.80 0.3397
660.90 0.3396
661.00 0.3395
661.10 0.3394
661.20 0.3393
661.30 0.3392
661.40 0.339
661.50 0.3389
661.60 0.3387
661.70 0.3386
661.80 0.3384
661.90 0.3383
662.00 0.3381
662.10 0.338
662.20 0.3379
662.30 0.3377
662.40 0.3375
662.50 0.3374
662.60 0.3372
662.70 0.337
662.80 0.3369
662.90 0.3367
663.00 0.3365
663.10 0.3364
663.20 0.3362
663.30 0.336
663.40 0.3359
663.50 0.3357
663.60 0.3355
663.70 0.3353
663.80 0.3352
663.90 0.335
664.00 0.3348
664.10 0.3346
664.20 0.3345
664.30 0.3343
664.40 0.3341
664.50 0.3339
664.60 0.3337
664.70 0.3336
664.80 0.3334
664.90 0.3332
665.00 0.333
665.10 0.3328
665.20 0.3327
665.30 0.3325
665.40 0.3323
665.50 0.3321
665.60 0.3319
665.70 0.3317
665.80 0.3316
665.90 0.3314
666.00 0.3312
666.10 0.331
666.20 0.3308
666.30 0.3306
666.40 0.3305
666.50 0.3303
666.60 0.3301
666.70 0.3299
666.80 0.3297
666.90 0.3295
667.00 0.3293
667.10 0.3292
667.20 0.329
667.30 0.3288
667.40 0.3286
667.50 0.3284
667.60 0.3282
667.70 0.328
667.80 0.3279
667.90 0.3277
668.00 0.3275
668.10 0.3273
668.20 0.3271
668.30 0.3269
668.40 0.3268
668.50 0.3266
668.60 0.3264
668.70 0.3262
668.80 0.326
668.90 0.3258
669.00 0.3256
669.10 0.3255
669.20 0.3253
669.30 0.3251
669.40 0.3249
669.50 0.3247
669.60 0.3245
669.70 0.3243
669.80 0.3242
669.90 0.324
670.00 0.3238
670.10 0.3236
670.20 0.3234
670.30 0.3232
670.40 0.3231
670.50 0.3229
670.60 0.3227
670.70 0.3225
670.80 0.3223
670.90 0.3221
671.00 0.322
671.10 0.3218
671.20 0.3216
671.30 0.3214
671.40 0.3212
671.50 0.321
671.60 0.3209
671.70 0.3207
671.80 0.3205
671.90 0.3203
672.00 0.3201
672.10 0.3199
672.20 0.3198
672.30 0.3196
672.40 0.3194
672.50 0.3192
672.60 0.319
672.70 0.3188
672.80 0.3187
672.90 0.3185
673.00 0.3183
673.10 0.3181
673.20 0.3179
673.30 0.3178
673.40 0.3176
673.50 0.3174
673.60 0.3172
673.70 0.317
673.80 0.3169
673.90 0.3167
674.00 0.3165
674.10 0.3163
674.20 0.3161
674.30 0.316
674.40 0.3158
674.50 0.3156
674.60 0.3154
674.70 0.3152
674.80 0.3151
674.90 0.3149
675.00 0.3147
675.10 0.3145
675.20 0.3143
675.30 0.3142
675.40 0.314
675.50 0.3138
675.60 0.3136
675.70 0.3134
675.80 0.3133
675.90 0.3131
676.00 0.3129
676.10 0.3127
676.20 0.3125
676.30 0.3124
676.40 0.3122
676.50 0.312
676.60 0.3118
676.70 0.3117
676.80 0.3115
676.90 0.3113
677.00 0.3111
677.10 0.311
677.20 0.3108
677.30 0.3106
677.40 0.3104
677.50 0.3102
677.60 0.3101
677.70 0.3099
677.80 0.3097
677.90 0.3095
678.00 0.3094
678.10 0.3092
678.20 0.309
678.30 0.3088
678.40 0.3087
678.50 0.3085
678.60 0.3083
678.70 0.3081
678.80 0.308
678.90 0.3078
679.00 0.3076
679.10 0.3074
679.20 0.3073
679.30 0.3071
679.40 0.3069
679.50 0.3067
679.60 0.3066
679.70 0.3064
679.80 0.3062
679.90 0.306
680.00 0.3059
680.10 0.3057
680.20 0.3055
680.30 0.3053
680.40 0.3052
680.50 0.305
680.60 0.3048
680.70 0.3047
680.80 0.3045
680.90 0.3043
681.00 0.3041
681.10 0.304
681.20 0.3038
681.30 0.3036
681.40 0.3034
681.50 0.3033
681.60 0.3031
681.70 0.3029
681.80 0.3028
681.90 0.3026
682.00 0.3024
682.10 0.3022
682.20 0.3021
682.30 0.3019
682.40 0.3017
682.50 0.3016
682.60 0.3014
682.70 0.3012
682.80 0.3011
682.90 0.3009
683.00 0.3007
683.10 0.3005
683.20 0.3004
683.30 0.3002
683.40 0.3
683.50 0.2999
683.60 0.2997
683.70 0.2995
683.80 0.2994
683.90 0.2992
684.00 0.299
684.10 0.2988
684.20 0.2987
684.30 0.2985
684.40 0.2983
684.50 0.2982
684.60 0.298
684.70 0.2978
684.80 0.2977
684.90 0.2975
685.00 0.2973
685.10 0.2972
685.20 0.297
685.30 0.2968
685.40 0.2967
685.50 0.2965
685.60 0.2963
685.70 0.2962
685.80 0.296
685.90 0.2958
686.00 0.2957
686.10 0.2955
686.20 0.2953
686.30 0.2952
686.40 0.295
686.50 0.2948
686.60 0.2947
686.70 0.2945
686.80 0.2943
686.90 0.2942
687.00 0.294
687.10 0.2938
687.20 0.2937
687.30 0.2935
687.40 0.2933
687.50 0.2932
687.60 0.293
687.70 0.2928
687.80 0.2927
687.90 0.2925
688.00 0.2924
688.10 0.2922
688.20 0.292
688.30 0.2919
688.40 0.2917
688.50 0.2915
688.60 0.2914
688.70 0.2912
688.80 0.291
688.90 0.2909
689.00 0.2907
689.10 0.2906
689.20 0.2904
689.30 0.2902
689.40 0.2901
689.50 0.2899
689.60 0.2897
689.70 0.2896
689.80 0.2894
689.90 0.2893
690.00 0.2891
690.10 0.2889
690.20 0.2888
690.30 0.2886
690.40 0.2885
690.50 0.2883
690.60 0.2881
690.70 0.288
690.80 0.2878
690.90 0.2877
691.00 0.2875
691.10 0.2873
691.20 0.2872
691.30 0.287
691.40 0.2868
691.50 0.2867
691.60 0.2865
691.70 0.2864
691.80 0.2862
691.90 0.286
692.00 0.2859
692.10 0.2857
692.20 0.2856
692.30 0.2854
692.40 0.2853
692.50 0.2851
692.60 0.2849
692.70 0.2848
692.80 0.2846
692.90 0.2845
693.00 0.2843
693.10 0.2841
693.20 0.284
693.30 0.2838
693.40 0.2837
693.50 0.2835
693.60 0.2833
693.70 0.2832
693.80 0.283
693.90 0.2829
694.00 0.2827
694.10 0.2826
694.20 0.2824
694.30 0.2822
694.40 0.2821
694.50 0.2819
694.60 0.2818
694.70 0.2816
694.80 0.2814
694.90 0.2813
695.00 0.2811
695.10 0.281
695.20 0.2808
695.30 0.2807
695.40 0.2805
695.50 0.2804
695.60 0.2802
695.70 0.28
695.80 0.2799
695.90 0.2797
696.00 0.2796
696.10 0.2794
696.20 0.2793
696.30 0.2791
696.40 0.279
696.50 0.2788
696.60 0.2787
696.70 0.2785
696.80 0.2783
696.90 0.2782
697.00 0.278
697.10 0.2779
697.20 0.2777
697.30 0.2776
697.40 0.2774
697.50 0.2773
697.60 0.2771
697.70 0.277
697.80 0.2768
697.90 0.2767
698.00 0.2765
698.10 0.2763
698.20 0.2762
698.30 0.276
698.40 0.2759
698.50 0.2757
698.60 0.2756
698.70 0.2754
698.80 0.2753
698.90 0.2751
699.00 0.275
699.10 0.2748
699.20 0.2747
699.30 0.2745
699.40 0.2744
699.50 0.2742
699.60 0.2741
699.70 0.2739
699.80 0.2737
699.90 0.2736
700.00 0.2734
700.10 0.2733
700.20 0.2731
700.30 0.273
700.40 0.2728
700.50 0.2727
700.60 0.2725
700.70 0.2724
700.80 0.2722
700.90 0.2721
701.00 0.2719
701.10 0.2718
701.20 0.2716
701.30 0.2715
701.40 0.2713
701.50 0.2712
701.60 0.271
701.70 0.2709
701.80 0.2708
701.90 0.2706
702.00 0.2705
702.10 0.2703
702.20 0.2702
702.30 0.27
702.40 0.2699
702.50 0.2697
702.60 0.2696
702.70 0.2694
702.80 0.2693
702.90 0.2691
703.00 0.269
703.10 0.2688
703.20 0.2687
703.30 0.2685
703.40 0.2684
703.50 0.2682
703.60 0.2681
703.70 0.2679
703.80 0.2678
703.90 0.2676
704.00 0.2675
704.10 0.2673
704.20 0.2672
704.30 0.267
704.40 0.2669
704.50 0.2668
704.60 0.2666
704.70 0.2665
704.80 0.2663
704.90 0.2662
705.00 0.266
705.10 0.2659
705.20 0.2657
705.30 0.2656
705.40 0.2654
705.50 0.2653
705.60 0.2651
705.70 0.265
705.80 0.2649
705.90 0.2647
706.00 0.2646
706.10 0.2644
706.20 0.2643
706.30 0.2641
706.40 0.264
706.50 0.2638
706.60 0.2637
706.70 0.2636
706.80 0.2634
706.90 0.2633
707.00 0.2631
707.10 0.263
707.20 0.2628
707.30 0.2627
707.40 0.2626
707.50 0.2624
707.60 0.2623
707.70 0.2621
707.80 0.262
707.90 0.2618
708.00 0.2617
708.10 0.2615
708.20 0.2614
708.30 0.2613
708.40 0.2611
708.50 0.261
708.60 0.2608
708.70 0.2607
708.80 0.2605
708.90 0.2604
709.00 0.2603
709.10 0.2601
709.20 0.26
709.30 0.2598
709.40 0.2597
709.50 0.2596
709.60 0.2594
709.70 0.2593
709.80 0.2591
709.90 0.259
710.00 0.2588
710.10 0.2587
710.20 0.2586
710.30 0.2584
710.40 0.2583
710.50 0.2581
710.60 0.258
710.70 0.2579
710.80 0.2577
710.90 0.2576
711.00 0.2574
711.10 0.2573
711.20 0.2572
711.30 0.257
711.40 0.2569
711.50 0.2567
711.60 0.2566
711.70 0.2565
711.80 0.2563
711.90 0.2562
712.00 0.256
712.10 0.2559
712.20 0.2558
712.30 0.2556
712.40 0.2555
712.50 0.2554
712.60 0.2552
712.70 0.2551
712.80 0.2549
712.90 0.2548
713.00 0.2547
713.10 0.2545
713.20 0.2544
713.30 0.2542
713.40 0.2541
713.50 0.254
713.60 0.2538
713.70 0.2537
713.80 0.2536
713.90 0.2534
714.00 0.2533
714.10 0.2531
714.20 0.253
714.30 0.2529
714.40 0.2527
714.50 0.2526
714.60 0.2525
714.70 0.2523
714.80 0.2522
714.90 0.252
715.00 0.2519
715.10 0.2518
715.20 0.2516
715.30 0.2515
715.40 0.2514
715.50 0.2512
715.60 0.2511
715.70 0.251
715.80 0.2508
715.90 0.2507
716.00 0.2506
716.10 0.2504
716.20 0.2503
716.30 0.2501
716.40 0.25
716.50 0.2499
716.60 0.2497
716.70 0.2496
716.80 0.2495
716.90 0.2493
717.00 0.2492
717.10 0.2491
717.20 0.2489
717.30 0.2488
717.40 0.2487
717.50 0.2485
717.60 0.2484
717.70 0.2483
717.80 0.2481
717.90 0.248
718.00 0.2479
718.10 0.2477
718.20 0.2476
718.30 0.2475
718.40 0.2473
718.50 0.2472
718.60 0.2471
718.70 0.2469
718.80 0.2468
718.90 0.2467
719.00 0.2465
719.10 0.2464
719.20 0.2463
719.30 0.2461
719.40 0.246
719.50 0.2459
719.60 0.2457
719.70 0.2456
719.80 0.2455
719.90 0.2453
720.00 0.2452
720.10 0.2451
720.20 0.2449
720.30 0.2448
720.40 0.2447
720.50 0.2445
720.60 0.2444
720.70 0.2443
720.80 0.2442
720.90 0.244
721.00 0.2439
721.10 0.2438
721.20 0.2436
721.30 0.2435
721.40 0.2434
721.50 0.2432
721.60 0.2431
721.70 0.243
721.80 0.2428
721.90 0.2427
722.00 0.2426
722.10 0.2425
722.20 0.2423
722.30 0.2422
722.40 0.2421
722.50 0.2419
722.60 0.2418
722.70 0.2417
722.80 0.2415
722.90 0.2414
723.00 0.2413
723.10 0.2412
723.20 0.241
723.30 0.2409
723.40 0.2408
723.50 0.2406
723.60 0.2405
723.70 0.2404
723.80 0.2403
723.90 0.2401
724.00 0.24
724.10 0.2399
724.20 0.2397
724.30 0.2396
724.40 0.2395
724.50 0.2394
724.60 0.2392
724.70 0.2391
724.80 0.239
724.90 0.2388
725.00 0.2387
725.10 0.2386
725.20 0.2385
725.30 0.2383
725.40 0.2382
725.50 0.2381
725.60 0.238
725.70 0.2378
725.80 0.2377
725.90 0.2376
726.00 0.2375
726.10 0.2373
726.20 0.2372
726.30 0.2371
726.40 0.2369
726.50 0.2368
726.60 0.2367
726.70 0.2366
726.80 0.2364
726.90 0.2363
727.00 0.2362
727.10 0.2361
727.20 0.2359
727.30 0.2358
727.40 0.2357
727.50 0.2356
727.60 0.2354
727.70 0.2353
727.80 0.2352
727.90 0.2351
728.00 0.2349
728.10 0.2348
728.20 0.2347
728.30 0.2346
728.40 0.2344
728.50 0.2343
728.60 0.2342
728.70 0.2341
728.80 0.2339
728.90 0.2338
729.00 0.2337
729.10 0.2336
729.20 0.2334
729.30 0.2333
729.40 0.2332
729.50 0.2331
729.60 0.2329
729.70 0.2328
729.80 0.2327
729.90 0.2326
730.00 0.2324
730.10 0.2323
730.20 0.2322
730.30 0.2321
730.40 0.232
730.50 0.2318
730.60 0.2317
730.70 0.2316
730.80 0.2315
730.90 0.2313
731.00 0.2312
731.10 0.2311
731.20 0.231
731.30 0.2309
731.40 0.2307
731.50 0.2306
731.60 0.2305
731.70 0.2304
731.80 0.2303
731.90 0.2301
732.00 0.23
732.10 0.2299
732.20 0.2298
732.30 0.2297
732.40 0.2295
732.50 0.2294
732.60 0.2293
732.70 0.2292
732.80 0.229
732.90 0.2289
733.00 0.2288
733.10 0.2287
733.20 0.2286
733.30 0.2284
733.40 0.2283
733.50 0.2282
733.60 0.2281
733.70 0.228
733.80 0.2278
733.90 0.2277
734.00 0.2276
734.10 0.2275
734.20 0.2274
734.30 0.2272
734.40 0.2271
734.50 0.227
734.60 0.2269
734.70 0.2268
734.80 0.2266
734.90 0.2265
735.00 0.2264
735.10 0.2263
735.20 0.2262
735.30 0.2261
735.40 0.2259
735.50 0.2258
735.60 0.2257
735.70 0.2256
735.80 0.2255
735.90 0.2253
736.00 0.2252
736.10 0.2251
736.20 0.225
736.30 0.2249
736.40 0.2247
736.50 0.2246
736.60 0.2245
736.70 0.2244
736.80 0.2243
736.90 0.2242
737.00 0.224
737.10 0.2239
737.20 0.2238
737.30 0.2237
737.40 0.2236
737.50 0.2234
737.60 0.2233
737.70 0.2232
737.80 0.2231
737.90 0.223
738.00 0.2229
738.10 0.2227
738.20 0.2226
738.30 0.2225
738.40 0.2224
738.50 0.2223
738.60 0.2222
738.70 0.222
738.80 0.2219
738.90 0.2218
739.00 0.2217
739.10 0.2216
739.20 0.2214
739.30 0.2213
739.40 0.2212
739.50 0.2211
739.60 0.221
739.70 0.2209
739.80 0.2207
739.90 0.2206
740.00 0.2205
740.10 0.2204
740.20 0.2203
740.30 0.2202
740.40 0.2201
740.50 0.2199
740.60 0.2198
740.70 0.2197
740.80 0.2196
740.90 0.2195
741.00 0.2194
741.10 0.2193
741.20 0.2191
741.30 0.219
741.40 0.2189
741.50 0.2188
741.60 0.2187
741.70 0.2186
741.80 0.2185
741.90 0.2184
742.00 0.2182
742.10 0.2181
742.20 0.218
742.30 0.2179
742.40 0.2178
742.50 0.2177
742.60 0.2176
742.70 0.2174
742.80 0.2173
742.90 0.2172
743.00 0.2171
743.10 0.217
743.20 0.2169
743.30 0.2168
743.40 0.2167
743.50 0.2165
743.60 0.2164
743.70 0.2163
743.80 0.2162
743.90 0.2161
744.00 0.216
744.10 0.2159
744.20 0.2158
744.30 0.2156
744.40 0.2155
744.50 0.2154
744.60 0.2153
744.70 0.2152
744.80 0.2151
744.90 0.215
745.00 0.2149
745.10 0.2147
745.20 0.2146
745.30 0.2145
745.40 0.2144
745.50 0.2143
745.60 0.2142
745.70 0.2141
745.80 0.214
745.90 0.2139
746.00 0.2137
746.10 0.2136
746.20 0.2135
746.30 0.2134
746.40 0.2133
746.50 0.2132
746.60 0.2131
746.70 0.213
746.80 0.2129
746.90 0.2127
747.00 0.2126
747.10 0.2125
747.20 0.2124
747.30 0.2123
747.40 0.2122
747.50 0.2121
747.60 0.212
747.70 0.2119
747.80 0.2118
747.90 0.2116
748.00 0.2115
748.10 0.2114
748.20 0.2113
748.30 0.2112
748.40 0.2111
748.50 0.211
748.60 0.2109
748.70 0.2108
748.80 0.2107
748.90 0.2105
749.00 0.2104
749.10 0.2103
749.20 0.2102
749.30 0.2101
749.40 0.21
749.50 0.2099
749.60 0.2098
749.70 0.2097
749.80 0.2096
749.90 0.2094
750.00 0.2093
750.10 0.2092
750.20 0.2091
750.30 0.209
750.40 0.2089
750.50 0.2088
750.60 0.2087
750.70 0.2086
750.80 0.2085
750.90 0.2084
751.00 0.2083
751.10 0.2082
751.20 0.2081
751.30 0.2079
751.40 0.2078
751.50 0.2077
751.60 0.2076
751.70 0.2075
751.80 0.2074
751.90 0.2073
752.00 0.2072
752.10 0.2071
752.20 0.207
752.30 0.2069
752.40 0.2068
752.50 0.2067
752.60 0.2066
752.70 0.2065
752.80 0.2064
752.90 0.2063
753.00 0.2061
753.10 0.206
753.20 0.2059
753.30 0.2058
753.40 0.2057
753.50 0.2056
753.60 0.2055
753.70 0.2054
753.80 0.2053
753.90 0.2052
754.00 0.2051
754.10 0.205
754.20 0.2049
754.30 0.2048
754.40 0.2047
754.50 0.2046
754.60 0.2045
754.70 0.2044
754.80 0.2043
754.90 0.2041
755.00 0.204
755.10 0.2039
755.20 0.2038
755.30 0.2037
755.40 0.2036
755.50 0.2035
755.60 0.2034
755.70 0.2033
755.80 0.2032
755.90 0.2031
756.00 0.203
756.10 0.2029
756.20 0.2028
756.30 0.2027
756.40 0.2026
756.50 0.2025
756.60 0.2024
756.70 0.2023
756.80 0.2022
756.90 0.2021
757.00 0.202
757.10 0.2019
757.20 0.2017
757.30 0.2016
757.40 0.2015
757.50 0.2014
757.60 0.2013
757.70 0.2012
757.80 0.2011
757.90 0.201
758.00 0.2009
758.10 0.2008
758.20 0.2007
758.30 0.2006
758.40 0.2005
758.50 0.2004
758.60 0.2003
758.70 0.2002
758.80 0.2001
758.90 0.2
759.00 0.1999
759.10 0.1998
759.20 0.1997
759.30 0.1996
759.40 0.1995
759.50 0.1994
759.60 0.1993
759.70 0.1992
759.80 0.1991
759.90 0.199
760.00 0.1989
760.10 0.1988
760.20 0.1987
760.30 0.1986
760.40 0.1985
760.50 0.1984
760.60 0.1983
760.70 0.1982
760.80 0.1981
760.90 0.198
761.00 0.1979
761.10 0.1978
761.20 0.1977
761.30 0.1976
761.40 0.1975
761.50 0.1974
761.60 0.1973
761.70 0.1972
761.80 0.1971
761.90 0.197
762.00 0.1969
762.10 0.1968
762.20 0.1967
762.30 0.1966
762.40 0.1965
762.50 0.1964
762.60 0.1963
762.70 0.1962
762.80 0.1961
762.90 0.196
763.00 0.1959
763.10 0.1958
763.20 0.1957
763.30 0.1956
763.40 0.1955
763.50 0.1954
763.60 0.1953
763.70 0.1952
763.80 0.1951
763.90 0.195
764.00 0.1949
764.10 0.1948
764.20 0.1947
764.30 0.1946
764.40 0.1945
764.50 0.1944
764.60 0.1943
764.70 0.1942
764.80 0.1941
764.90 0.194
765.00 0.1939
765.10 0.1938
765.20 0.1937
765.30 0.1936
765.40 0.1935
765.50 0.1934
765.60 0.1933
765.70 0.1932
765.80 0.1931
765.90 0.193
766.00 0.1929
766.10 0.1928
766.20 0.1927
766.30 0.1926
766.40 0.1925
766.50 0.1924
766.60 0.1923
766.70 0.1922
766.80 0.1921
766.90 0.192
767.00 0.1919
767.10 0.1918
767.20 0.1917
767.30 0.1916
767.40 0.1916
767.50 0.1915
767.60 0.1914
767.70 0.1913
767.80 0.1912
767.90 0.1911
768.00 0.191
768.10 0.1909
768.20 0.1908
768.30 0.1907
768.40 0.1906
768.50 0.1905
768.60 0.1904
768.70 0.1903
768.80 0.1902
768.90 0.1901
769.00 0.19
769.10 0.1899
769.20 0.1898
769.30 0.1897
769.40 0.1896
769.50 0.1895
769.60 0.1894
769.70 0.1893
769.80 0.1892
769.90 0.1891
770.00 0.189
770.10 0.1889
770.20 0.1889
770.30 0.1888
770.40 0.1887
770.50 0.1886
770.60 0.1885
770.70 0.1884
770.80 0.1883
770.90 0.1882
771.00 0.1881
771.10 0.188
771.20 0.1879
771.30 0.1878
771.40 0.1877
771.50 0.1876
771.60 0.1875
771.70 0.1874
771.80 0.1873
771.90 0.1873
772.00 0.1872
772.10 0.1871
772.20 0.187
772.30 0.1869
772.40 0.1868
772.50 0.1867
772.60 0.1866
772.70 0.1865
772.80 0.1864
772.90 0.1863
773.00 0.1862
773.10 0.1861
773.20 0.186
773.30 0.1859
773.40 0.1859
773.50 0.1858
773.60 0.1857
773.70 0.1856
773.80 0.1855
773.90 0.1854
774.00 0.1853
774.10 0.1852
774.20 0.1851
774.30 0.185
774.40 0.1849
774.50 0.1848
774.60 0.1847
774.70 0.1847
774.80 0.1846
774.90 0.1845
775.00 0.1844
775.10 0.1843
775.20 0.1842
775.30 0.1841
775.40 0.184
775.50 0.1839
775.60 0.1838
775.70 0.1837
775.80 0.1836
775.90 0.1835
776.00 0.1835
776.10 0.1834
776.20 0.1833
776.30 0.1832
776.40 0.1831
776.50 0.183
776.60 0.1829
776.70 0.1828
776.80 0.1827
776.90 0.1826
777.00 0.1825
777.10 0.1824
777.20 0.1824
777.30 0.1823
777.40 0.1822
777.50 0.1821
777.60 0.182
777.70 0.1819
777.80 0.1818
777.90 0.1817
778.00 0.1816
778.10 0.1815
778.20 0.1814
778.30 0.1814
778.40 0.1813
778.50 0.1812
778.60 0.1811
778.70 0.181
778.80 0.1809
778.90 0.1808
779.00 0.1807
779.10 0.1806
779.20 0.1805
779.30 0.1804
779.40 0.1804
779.50 0.1803
779.60 0.1802
779.70 0.1801
779.80 0.18
779.90 0.1799
780.00 0.1798
780.10 0.1797
780.20 0.1796
780.30 0.1795
780.40 0.1795
780.50 0.1794
780.60 0.1793
780.70 0.1792
780.80 0.1791
780.90 0.179
781.00 0.1789
781.10 0.1788
781.20 0.1788
781.30 0.1787
781.40 0.1786
781.50 0.1785
781.60 0.1784
781.70 0.1783
781.80 0.1782
781.90 0.1781
782.00 0.178
782.10 0.178
782.20 0.1779
782.30 0.1778
782.40 0.1777
782.50 0.1776
782.60 0.1775
782.70 0.1774
782.80 0.1773
782.90 0.1773
783.00 0.1772
783.10 0.1771
783.20 0.177
783.30 0.1769
783.40 0.1768
783.50 0.1767
783.60 0.1766
783.70 0.1766
783.80 0.1765
783.90 0.1764
784.00 0.1763
784.10 0.1762
784.20 0.1761
784.30 0.176
784.40 0.176
784.50 0.1759
784.60 0.1758
784.70 0.1757
784.80 0.1756
784.90 0.1755
785.00 0.1754
785.10 0.1753
785.20 0.1753
785.30 0.1752
785.40 0.1751
785.50 0.175
785.60 0.1749
785.70 0.1748
785.80 0.1747
785.90 0.1747
786.00 0.1746
786.10 0.1745
786.20 0.1744
786.30 0.1743
786.40 0.1742
786.50 0.1741
786.60 0.174
786.70 0.174
786.80 0.1739
786.90 0.1738
787.00 0.1737
787.10 0.1736
787.20 0.1735
787.30 0.1734
787.40 0.1734
787.50 0.1733
787.60 0.1732
787.70 0.1731
787.80 0.173
787.90 0.1729
788.00 0.1728
788.10 0.1728
788.20 0.1727
788.30 0.1726
788.40 0.1725
788.50 0.1724
788.60 0.1723
788.70 0.1723
788.80 0.1722
788.90 0.1721
789.00 0.172
789.10 0.1719
789.20 0.1718
789.30 0.1717
789.40 0.1717
789.50 0.1716
789.60 0.1715
789.70 0.1714
789.80 0.1713
789.90 0.1712
790.00 0.1711
790.10 0.1711
790.20 0.171
790.30 0.1709
790.40 0.1708
790.50 0.1707
790.60 0.1706
790.70 0.1706
790.80 0.1705
790.90 0.1704
791.00 0.1703
791.10 0.1702
791.20 0.1701
791.30 0.1701
791.40 0.17
791.50 0.1699
791.60 0.1698
791.70 0.1697
791.80 0.1697
791.90 0.1696
792.00 0.1695
792.10 0.1694
792.20 0.1693
792.30 0.1692
792.40 0.1692
792.50 0.1691
792.60 0.169
792.70 0.1689
792.80 0.1688
792.90 0.1687
793.00 0.1687
793.10 0.1686
793.20 0.1685
793.30 0.1684
793.40 0.1683
793.50 0.1683
793.60 0.1682
793.70 0.1681
793.80 0.168
793.90 0.1679
794.00 0.1678
794.10 0.1678
794.20 0.1677
794.30 0.1676
794.40 0.1675
794.50 0.1674
794.60 0.1674
794.70 0.1673
794.80 0.1672
794.90 0.1671
795.00 0.167
795.10 0.1669
795.20 0.1669
795.30 0.1668
795.40 0.1667
795.50 0.1666
795.60 0.1665
795.70 0.1665
795.80 0.1664
795.90 0.1663
796.00 0.1662
796.10 0.1661
796.20 0.166
796.30 0.166
796.40 0.1659
796.50 0.1658
796.60 0.1657
796.70 0.1656
796.80 0.1656
796.90 0.1655
797.00 0.1654
797.10 0.1653
797.20 0.1652
797.30 0.1652
797.40 0.1651
797.50 0.165
797.60 0.1649
797.70 0.1648
797.80 0.1648
797.90 0.1647
798.00 0.1646
798.10 0.1645
798.20 0.1644
798.30 0.1644
798.40 0.1643
798.50 0.1642
798.60 0.1641
798.70 0.164
798.80 0.164
798.90 0.1639
799.00 0.1638
799.10 0.1637
799.20 0.1636
799.30 0.1636
799.40 0.1635
799.50 0.1634
799.60 0.1633
799.70 0.1632
799.80 0.1632
799.90 0.1631
800.00 0.163
800.10 0.1629
800.20 0.1628
800.30 0.1628
800.40 0.1627
800.50 0.1626
800.60 0.1625
800.70 0.1624
800.80 0.1624
800.90 0.1623
801.00 0.1622
801.10 0.1621
801.20 0.1621
801.30 0.162
801.40 0.1619
801.50 0.1618
801.60 0.1617
801.70 0.1617
801.80 0.1616
801.90 0.1615
802.00 0.1614
802.10 0.1614
802.20 0.1613
802.30 0.1612
802.40 0.1611
802.50 0.161
802.60 0.161
802.70 0.1609
802.80 0.1608
802.90 0.1607
803.00 0.1607
803.10 0.1606
803.20 0.1605
803.30 0.1604
803.40 0.1603
803.50 0.1603
803.60 0.1602
803.70 0.1601
803.80 0.16
803.90 0.16
804.00 0.1599
804.10 0.1598
804.20 0.1597
804.30 0.1597
804.40 0.1596
804.50 0.1595
804.60 0.1594
804.70 0.1593
804.80 0.1593
804.90 0.1592
805.00 0.1591
805.10 0.159
805.20 0.159
805.30 0.1589
805.40 0.1588
805.50 0.1587
805.60 0.1587
805.70 0.1586
805.80 0.1585
805.90 0.1584
806.00 0.1584
806.10 0.1583
806.20 0.1582
806.30 0.1581
806.40 0.158
806.50 0.158
806.60 0.1579
806.70 0.1578
806.80 0.1577
806.90 0.1577
807.00 0.1576
807.10 0.1575
807.20 0.1574
807.30 0.1574
807.40 0.1573
807.50 0.1572
807.60 0.1571
807.70 0.1571
807.80 0.157
807.90 0.1569
808.00 0.1568
808.10 0.1568
808.20 0.1567
808.30 0.1566
808.40 0.1565
808.50 0.1565
808.60 0.1564
808.70 0.1563
808.80 0.1562
808.90 0.1562
809.00 0.1561
809.10 0.156
809.20 0.1559
809.30 0.1559
809.40 0.1558
809.50 0.1557
809.60 0.1556
809.70 0.1555
809.80 0.1555
809.90 0.1554
810.00 0.1553
810.10 0.1553
810.20 0.1552
810.30 0.1551
810.40 0.155
810.50 0.155
810.60 0.1549
810.70 0.1548
810.80 0.1547
810.90 0.1547
811.00 0.1546
811.10 0.1545
811.20 0.1544
811.30 0.1544
811.40 0.1543
811.50 0.1542
811.60 0.1541
811.70 0.1541
811.80 0.154
811.90 0.1539
812.00 0.1539
812.10 0.1538
812.20 0.1537
812.30 0.1536
812.40 0.1536
812.50 0.1535
812.60 0.1534
812.70 0.1533
812.80 0.1533
812.90 0.1532
813.00 0.1531
813.10 0.1531
813.20 0.153
813.30 0.1529
813.40 0.1528
813.50 0.1528
813.60 0.1527
813.70 0.1526
813.80 0.1525
813.90 0.1525
814.00 0.1524
814.10 0.1523
814.20 0.1523
814.30 0.1522
814.40 0.1521
814.50 0.152
814.60 0.152
814.70 0.1519
814.80 0.1518
814.90 0.1517
815.00 0.1517
815.10 0.1516
815.20 0.1515
815.30 0.1515
815.40 0.1514
815.50 0.1513
815.60 0.1512
815.70 0.1512
815.80 0.1511
815.90 0.151
816.00 0.151
816.10 0.1509
816.20 0.1508
816.30 0.1507
816.40 0.1507
816.50 0.1506
816.60 0.1505
816.70 0.1505
816.80 0.1504
816.90 0.1503
817.00 0.1502
817.10 0.1502
817.20 0.1501
817.30 0.15
817.40 0.1499
817.50 0.1499
817.60 0.1498
817.70 0.1497
817.80 0.1497
817.90 0.1496
818.00 0.1495
818.10 0.1495
818.20 0.1494
818.30 0.1493
818.40 0.1492
818.50 0.1492
818.60 0.1491
818.70 0.149
818.80 0.149
818.90 0.1489
819.00 0.1488
819.10 0.1487
819.20 0.1487
819.30 0.1486
819.40 0.1485
819.50 0.1485
819.60 0.1484
819.70 0.1483
819.80 0.1482
819.90 0.1482
820.00 0.1481
820.10 0.148
820.20 0.148
820.30 0.1479
820.40 0.1478
820.50 0.1478
820.60 0.1477
820.70 0.1476
820.80 0.1475
820.90 0.1475
821.00 0.1474
821.10 0.1473
821.20 0.1473
821.30 0.1472
821.40 0.1471
821.50 0.1471
821.60 0.147
821.70 0.1469
821.80 0.1468
821.90 0.1468
822.00 0.1467
822.10 0.1466
822.20 0.1466
822.30 0.1465
822.40 0.1464
822.50 0.1464
822.60 0.1463
822.70 0.1462
822.80 0.1462
822.90 0.1461
823.00 0.146
823.10 0.1459
823.20 0.1459
823.30 0.1458
823.40 0.1457
823.50 0.1457
823.60 0.1456
823.70 0.1455
823.80 0.1455
823.90 0.1454
824.00 0.1453
824.10 0.1453
824.20 0.1452
824.30 0.1451
824.40 0.1451
824.50 0.145
824.60 0.1449
824.70 0.1449
824.80 0.1448
824.90 0.1447
825.00 0.1447
825.10 0.1446
825.20 0.1445
825.30 0.1444
825.40 0.1444
825.50 0.1443
825.60 0.1442
825.70 0.1442
825.80 0.1441
825.90 0.144
826.00 0.144
826.10 0.1439
826.20 0.1438
826.30 0.1438
826.40 0.1437
826.50 0.1436
826.60 0.1436
826.70 0.1435
826.80 0.1434
826.90 0.1434
827.00 0.1433
827.10 0.1432
827.20 0.1432
827.30 0.1431
827.40 0.143
827.50 0.143
827.60 0.1429
827.70 0.1428
827.80 0.1428
827.90 0.1427
828.00 0.1426
828.10 0.1426
828.20 0.1425
828.30 0.1424
828.40 0.1424
828.50 0.1423
828.60 0.1422
828.70 0.1422
828.80 0.1421
828.90 0.142
829.00 0.142
829.10 0.1419
829.20 0.1418
829.30 0.1418
829.40 0.1417
829.50 0.1416
829.60 0.1416
829.70 0.1415
829.80 0.1414
829.90 0.1414
830.00 0.1413
830.10 0.1412
830.20 0.1412
830.30 0.1411
830.40 0.141
830.50 0.141
830.60 0.1409
830.70 0.1408
830.80 0.1408
830.90 0.1407
831.00 0.1406
831.10 0.1406
831.20 0.1405
831.30 0.1404
831.40 0.1404
831.50 0.1403
831.60 0.1402
831.70 0.1402
831.80 0.1401
831.90 0.14
832.00 0.14
832.10 0.1399
832.20 0.1398
832.30 0.1398
832.40 0.1397
832.50 0.1397
832.60 0.1396
832.70 0.1395
832.80 0.1395
832.90 0.1394
833.00 0.1393
833.10 0.1393
833.20 0.1392
833.30 0.1391
833.40 0.1391
833.50 0.139
833.60 0.1389
833.70 0.1389
833.80 0.1388
833.90 0.1387
834.00 0.1387
834.10 0.1386
834.20 0.1386
834.30 0.1385
834.40 0.1384
834.50 0.1384
834.60 0.1383
834.70 0.1382
834.80 0.1382
834.90 0.1381
835.00 0.138
835.10 0.138
835.20 0.1379
835.30 0.1378
835.40 0.1378
835.50 0.1377
835.60 0.1376
835.70 0.1376
835.80 0.1375
835.90 0.1375
836.00 0.1374
836.10 0.1373
836.20 0.1373
836.30 0.1372
836.40 0.1371
836.50 0.1371
836.60 0.137
836.70 0.1369
836.80 0.1369
836.90 0.1368
837.00 0.1368
837.10 0.1367
837.20 0.1366
837.30 0.1366
837.40 0.1365
837.50 0.1364
837.60 0.1364
837.70 0.1363
837.80 0.1362
837.90 0.1362
838.00 0.1361
838.10 0.1361
838.20 0.136
838.30 0.1359
838.40 0.1359
838.50 0.1358
838.60 0.1357
838.70 0.1357
838.80 0.1356
838.90 0.1356
839.00 0.1355
839.10 0.1354
839.20 0.1354
839.30 0.1353
839.40 0.1352
839.50 0.1352
839.60 0.1351
839.70 0.1351
839.80 0.135
839.90 0.1349
840.00 0.1349
840.10 0.1348
840.20 0.1347
840.30 0.1347
840.40 0.1346
840.50 0.1346
840.60 0.1345
840.70 0.1344
840.80 0.1344
840.90 0.1343
841.00 0.1342
841.10 0.1342
841.20 0.1341
841.30 0.1341
841.40 0.134
841.50 0.1339
841.60 0.1339
841.70 0.1338
841.80 0.1337
841.90 0.1337
842.00 0.1336
842.10 0.1336
842.20 0.1335
842.30 0.1334
842.40 0.1334
842.50 0.1333
842.60 0.1333
842.70 0.1332
842.80 0.1331
842.90 0.1331
843.00 0.133
843.10 0.1329
843.20 0.1329
843.30 0.1328
843.40 0.1328
843.50 0.1327
843.60 0.1326
843.70 0.1326
843.80 0.1325
843.90 0.1325
844.00 0.1324
844.10 0.1323
844.20 0.1323
844.30 0.1322
844.40 0.1322
844.50 0.1321
844.60 0.132
844.70 0.132
844.80 0.1319
844.90 0.1318
845.00 0.1318
845.10 0.1317
845.20 0.1317
845.30 0.1316
845.40 0.1315
845.50 0.1315
845.60 0.1314
845.70 0.1314
845.80 0.1313
845.90 0.1312
846.00 0.1312
846.10 0.1311
846.20 0.1311
846.30 0.131
846.40 0.1309
846.50 0.1309
846.60 0.1308
846.70 0.1308
846.80 0.1307
846.90 0.1306
847.00 0.1306
847.10 0.1305
847.20 0.1305
847.30 0.1304
847.40 0.1303
847.50 0.1303
847.60 0.1302
847.70 0.1302
847.80 0.1301
847.90 0.13
848.00 0.13
848.10 0.1299
848.20 0.1299
848.30 0.1298
848.40 0.1297
848.50 0.1297
848.60 0.1296
848.70 0.1296
848.80 0.1295
848.90 0.1294
849.00 0.1294
849.10 0.1293
849.20 0.1293
849.30 0.1292
849.40 0.1292
849.50 0.1291
849.60 0.129
849.70 0.129
849.80 0.1289
849.90 0.1289
850.00 0.1288
850.10 0.1287
850.20 0.1287
850.30 0.1286
850.40 0.1286
850.50 0.1285
850.60 0.1284
850.70 0.1284
850.80 0.1283
850.90 0.1283
851.00 0.1282
851.10 0.1281
851.20 0.1281
851.30 0.128
851.40 0.128
851.50 0.1279
851.60 0.1279
851.70 0.1278
851.80 0.1277
851.90 0.1277
852.00 0.1276
852.10 0.1276
852.20 0.1275
852.30 0.1274
852.40 0.1274
852.50 0.1273
852.60 0.1273
852.70 0.1272
852.80 0.1272
852.90 0.1271
853.00 0.127
853.10 0.127
853.20 0.1269
853.30 0.1269
853.40 0.1268
853.50 0.1268
853.60 0.1267
853.70 0.1266
853.80 0.1266
853.90 0.1265
854.00 0.1265
854.10 0.1264
854.20 0.1263
854.30 0.1263
854.40 0.1262
854.50 0.1262
854.60 0.1261
854.70 0.1261
854.80 0.126
854.90 0.1259
855.00 0.1259
855.10 0.1258
855.20 0.1258
855.30 0.1257
855.40 0.1257
855.50 0.1256
855.60 0.1255
855.70 0.1255
855.80 0.1254
855.90 0.1254
856.00 0.1253
856.10 0.1253
856.20 0.1252
856.30 0.1251
856.40 0.1251
856.50 0.125
856.60 0.125
856.70 0.1249
856.80 0.1249
856.90 0.1248
857.00 0.1247
857.10 0.1247
857.20 0.1246
857.30 0.1246
857.40 0.1245
857.50 0.1245
857.60 0.1244
857.70 0.1244
857.80 0.1243
857.90 0.1242
858.00 0.1242
858.10 0.1241
858.20 0.1241
858.30 0.124
858.40 0.124
858.50 0.1239
858.60 0.1238
858.70 0.1238
858.80 0.1237
858.90 0.1237
859.00 0.1236
859.10 0.1236
859.20 0.1235
859.30 0.1235
859.40 0.1234
859.50 0.1233
859.60 0.1233
859.70 0.1232
859.80 0.1232
859.90 0.1231
860.00 0.1231
860.10 0.123
860.20 0.123
860.30 0.1229
860.40 0.1228
860.50 0.1228
860.60 0.1227
860.70 0.1227
860.80 0.1226
860.90 0.1226
861.00 0.1225
861.10 0.1225
861.20 0.1224
861.30 0.1223
861.40 0.1223
861.50 0.1222
861.60 0.1222
861.70 0.1221
861.80 0.1221
861.90 0.122
862.00 0.122
862.10 0.1219
862.20 0.1219
862.30 0.1218
862.40 0.1217
862.50 0.1217
862.60 0.1216
862.70 0.1216
862.80 0.1215
862.90 0.1215
863.00 0.1214
863.10 0.1214
863.20 0.1213
863.30 0.1213
863.40 0.1212
863.50 0.1211
863.60 0.1211
863.70 0.121
863.80 0.121
863.90 0.1209
864.00 0.1209
864.10 0.1208
864.20 0.1208
864.30 0.1207
864.40 0.1207
864.50 0.1206
864.60 0.1205
864.70 0.1205
864.80 0.1204
864.90 0.1204
865.00 0.1203
865.10 0.1203
865.20 0.1202
865.30 0.1202
865.40 0.1201
865.50 0.1201
865.60 0.12
865.70 0.12
865.80 0.1199
865.90 0.1198
866.00 0.1198
866.10 0.1197
866.20 0.1197
866.30 0.1196
866.40 0.1196
866.50 0.1195
866.60 0.1195
866.70 0.1194
866.80 0.1194
866.90 0.1193
867.00 0.1193
867.10 0.1192
867.20 0.1191
867.30 0.1191
867.40 0.119
867.50 0.119
867.60 0.1189
867.70 0.1189
867.80 0.1188
867.90 0.1188
868.00 0.1187
868.10 0.1187
868.20 0.1186
868.30 0.1186
868.40 0.1185
868.50 0.1185
868.60 0.1184
868.70 0.1184
868.80 0.1183
868.90 0.1182
869.00 0.1182
869.10 0.1181
869.20 0.1181
869.30 0.118
869.40 0.118
869.50 0.1179
869.60 0.1179
869.70 0.1178
869.80 0.1178
869.90 0.1177
870.00 0.1177
870.10 0.1176
870.20 0.1176
870.30 0.1175
870.40 0.1175
870.50 0.1174
870.60 0.1174
870.70 0.1173
870.80 0.1172
870.90 0.1172
871.00 0.1171
871.10 0.1171
871.20 0.117
871.30 0.117
871.40 0.1169
871.50 0.1169
871.60 0.1168
871.70 0.1168
871.80 0.1167
871.90 0.1167
872.00 0.1166
872.10 0.1166
872.20 0.1165
872.30 0.1165
872.40 0.1164
872.50 0.1164
872.60 0.1163
872.70 0.1163
872.80 0.1162
872.90 0.1162
873.00 0.1161
873.10 0.1161
873.20 0.116
873.30 0.1159
873.40 0.1159
873.50 0.1158
873.60 0.1158
873.70 0.1157
873.80 0.1157
873.90 0.1156
874.00 0.1156
874.10 0.1155
874.20 0.1155
874.30 0.1154
874.40 0.1154
874.50 0.1153
874.60 0.1153
874.70 0.1152
874.80 0.1152
874.90 0.1151
875.00 0.1151
875.10 0.115
875.20 0.115
875.30 0.1149
875.40 0.1149
875.50 0.1148
875.60 0.1148
875.70 0.1147
875.80 0.1147
875.90 0.1146
876.00 0.1146
876.10 0.1145
876.20 0.1145
876.30 0.1144
876.40 0.1144
876.50 0.1143
876.60 0.1143
876.70 0.1142
876.80 0.1142
876.90 0.1141
877.00 0.1141
877.10 0.114
877.20 0.114
877.30 0.1139
877.40 0.1139
877.50 0.1138
877.60 0.1138
877.70 0.1137
877.80 0.1137
877.90 0.1136
878.00 0.1136
878.10 0.1135
878.20 0.1135
878.30 0.1134
878.40 0.1134
878.50 0.1133
878.60 0.1133
878.70 0.1132
878.80 0.1132
878.90 0.1131
879.00 0.1131
879.10 0.113
879.20 0.113
879.30 0.1129
879.40 0.1129
879.50 0.1128
879.60 0.1128
879.70 0.1127
879.80 0.1127
879.90 0.1126
880.00 0.1126
880.10 0.1125
880.20 0.1125
880.30 0.1124
880.40 0.1124
880.50 0.1123
880.60 0.1123
880.70 0.1122
880.80 0.1122
880.90 0.1121
881.00 0.1121
881.10 0.112
881.20 0.112
881.30 0.1119
881.40 0.1119
881.50 0.1118
881.60 0.1118
881.70 0.1117
881.80 0.1117
881.90 0.1116
882.00 0.1116
882.10 0.1115
882.20 0.1115
882.30 0.1114
882.40 0.1114
882.50 0.1113
882.60 0.1113
882.70 0.1112
882.80 0.1112
882.90 0.1111
883.00 0.1111
883.10 0.111
883.20 0.111
883.30 0.1109
883.40 0.1109
883.50 0.1108
883.60 0.1108
883.70 0.1108
883.80 0.1107
883.90 0.1107
884.00 0.1106
884.10 0.1106
884.20 0.1105
884.30 0.1105
884.40 0.1104
884.50 0.1104
884.60 0.1103
884.70 0.1103
884.80 0.1102
884.90 0.1102
885.00 0.1101
885.10 0.1101
885.20 0.11
885.30 0.11
885.40 0.1099
885.50 0.1099
885.60 0.1098
885.70 0.1098
885.80 0.1097
885.90 0.1097
886.00 0.1097
886.10 0.1096
886.20 0.1096
886.30 0.1095
886.40 0.1095
886.50 0.1094
886.60 0.1094
886.70 0.1093
886.80 0.1093
886.90 0.1092
887.00 0.1092
887.10 0.1091
887.20 0.1091
887.30 0.109
887.40 0.109
887.50 0.1089
887.60 0.1089
887.70 0.1088
887.80 0.1088
887.90 0.1087
888.00 0.1087
888.10 0.1087
888.20 0.1086
888.30 0.1086
888.40 0.1085
888.50 0.1085
888.60 0.1084
888.70 0.1084
888.80 0.1083
888.90 0.1083
889.00 0.1082
889.10 0.1082
889.20 0.1081
889.30 0.1081
889.40 0.108
889.50 0.108
889.60 0.1079
889.70 0.1079
889.80 0.1078
889.90 0.1078
890.00 0.1078
890.10 0.1077
890.20 0.1077
890.30 0.1076
890.40 0.1076
890.50 0.1075
890.60 0.1075
890.70 0.1074
890.80 0.1074
890.90 0.1073
891.00 0.1073
891.10 0.1072
891.20 0.1072
891.30 0.1071
891.40 0.1071
891.50 0.107
891.60 0.107
891.70 0.107
891.80 0.1069
891.90 0.1069
892.00 0.1068
892.10 0.1068
892.20 0.1067
892.30 0.1067
892.40 0.1066
892.50 0.1066
892.60 0.1065
892.70 0.1065
892.80 0.1064
892.90 0.1064
893.00 0.1063
893.10 0.1063
893.20 0.1063
893.30 0.1062
893.40 0.1062
893.50 0.1061
893.60 0.1061
893.70 0.106
893.80 0.106
893.90 0.1059
894.00 0.1059
894.10 0.1058
894.20 0.1058
894.30 0.1057
894.40 0.1057
894.50 0.1057
894.60 0.1056
894.70 0.1056
894.80 0.1055
894.90 0.1055
895.00 0.1054
895.10 0.1054
895.20 0.1053
895.30 0.1053
895.40 0.1052
895.50 0.1052
895.60 0.1051
895.70 0.1051
895.80 0.1051
895.90 0.105
896.00 0.105
896.10 0.1049
896.20 0.1049
896.30 0.1048
896.40 0.1048
896.50 0.1047
896.60 0.1047
896.70 0.1046
896.80 0.1046
896.90 0.1045
897.00 0.1045
897.10 0.1045
897.20 0.1044
897.30 0.1044
897.40 0.1043
897.50 0.1043
897.60 0.1042
897.70 0.1042
897.80 0.1041
897.90 0.1041
898.00 0.1041
898.10 0.104
898.20 0.104
898.30 0.1039
898.40 0.1039
898.50 0.1038
898.60 0.1038
898.70 0.1037
898.80 0.1037
898.90 0.1037
899.00 0.1036
899.10 0.1036
899.20 0.1035
899.30 0.1035
899.40 0.1034
899.50 0.1034
899.60 0.1033
899.70 0.1033
899.80 0.1033
899.90 0.1032
900.00 0.1032
900.10 0.1031
900.20 0.1031
900.30 0.103
900.40 0.103
900.50 0.1029
900.60 0.1029
900.70 0.1029
900.80 0.1028
900.90 0.1028
901.00 0.1027
901.10 0.1027
901.20 0.1026
901.30 0.1026
901.40 0.1026
901.50 0.1025
901.60 0.1025
901.70 0.1024
901.80 0.1024
901.90 0.1023
902.00 0.1023
902.10 0.1022
902.20 0.1022
902.30 0.1022
902.40 0.1021
902.50 0.1021
902.60 0.102
902.70 0.102
902.80 0.1019
902.90 0.1019
903.00 0.1019
903.10 0.1018
903.20 0.1018
903.30 0.1017
903.40 0.1017
903.50 0.1016
903.60 0.1016
903.70 0.1016
903.80 0.1015
903.90 0.1015
904.00 0.1014
904.10 0.1014
904.20 0.1013
904.30 0.1013
904.40 0.1012
904.50 0.1012
904.60 0.1012
904.70 0.1011
904.80 0.1011
904.90 0.101
905.00 0.101
905.10 0.1009
905.20 0.1009
905.30 0.1009
905.40 0.1008
905.50 0.1008
905.60 0.1007
905.70 0.1007
905.80 0.1006
905.90 0.1006
906.00 0.1006
906.10 0.1005
906.20 0.1005
906.30 0.1004
906.40 0.1004
906.50 0.1003
906.60 0.1003
906.70 0.1003
906.80 0.1002
906.90 0.1002
907.00 0.1001
907.10 0.1001
907.20 0.1
907.30 0.1
907.40 0.09996
907.50 0.09992
907.60 0.09988
907.70 0.09984
907.80 0.09979
907.90 0.09975
908.00 0.09971
908.10 0.09967
908.20 0.09962
908.30 0.09958
908.40 0.09954
908.50 0.0995
908.60 0.09946
908.70 0.09941
908.80 0.09937
908.90 0.09933
909.00 0.09929
909.10 0.09925
909.20 0.0992
909.30 0.09916
909.40 0.09912
909.50 0.09908
909.60 0.09903
909.70 0.09899
909.80 0.09895
909.90 0.09891
910.00 0.09887
910.10 0.09882
910.20 0.09878
910.30 0.09874
910.40 0.0987
910.50 0.09866
910.60 0.09862
910.70 0.09857
910.80 0.09853
910.90 0.09849
911.00 0.09845
911.10 0.09841
911.20 0.09836
911.30 0.09832
911.40 0.09828
911.50 0.09824
911.60 0.0982
911.70 0.09816
911.80 0.09811
911.90 0.09807
912.00 0.09803
912.10 0.09799
912.20 0.09794
912.30 0.0979
912.40 0.09786
912.50 0.09782
912.60 0.09777
912.70 0.09773
912.80 0.09769
912.90 0.09765
913.00 0.0976
913.10 0.09756
913.20 0.09752
913.30 0.09747
913.40 0.09743
913.50 0.09739
913.60 0.09735
913.70 0.0973
913.80 0.09726
913.90 0.09722
914.00 0.09718
914.10 0.09713
914.20 0.09709
914.30 0.09705
914.40 0.09701
914.50 0.09696
914.60 0.09692
914.70 0.09688
914.80 0.09684
914.90 0.09679
915.00 0.09675
915.10 0.09671
915.20 0.09667
915.30 0.09662
915.40 0.09658
915.50 0.09654
915.60 0.0965
915.70 0.09646
915.80 0.09641
915.90 0.09637
916.00 0.09633
916.10 0.09629
916.20 0.09624
916.30 0.0962
916.40 0.09616
916.50 0.09612
916.60 0.09608
916.70 0.09603
916.80 0.09599
916.90 0.09595
917.00 0.09591
917.10 0.09586
917.20 0.09582
917.30 0.09578
917.40 0.09574
917.50 0.0957
917.60 0.09566
917.70 0.09561
917.80 0.09557
917.90 0.09553
918.00 0.09549
918.10 0.09545
918.20 0.09541
918.30 0.09536
918.40 0.09532
918.50 0.09528
918.60 0.09524
918.70 0.0952
918.80 0.09516
918.90 0.09511
919.00 0.09507
919.10 0.09503
919.20 0.09499
919.30 0.09495
919.40 0.09491
919.50 0.09486
919.60 0.09482
919.70 0.09478
919.80 0.09474
919.90 0.0947
920.00 0.09466
920.10 0.09462
920.20 0.09457
920.30 0.09453
920.40 0.09449
920.50 0.09445
920.60 0.09441
920.70 0.09437
920.80 0.09433
920.90 0.09429
921.00 0.09424
921.10 0.0942
921.20 0.09416
921.30 0.09412
921.40 0.09408
921.50 0.09404
921.60 0.094
921.70 0.09396
921.80 0.09391
921.90 0.09387
922.00 0.09383
922.10 0.09379
922.20 0.09376
922.30 0.09372
922.40 0.09368
922.50 0.09364
922.60 0.0936
922.70 0.09356
922.80 0.09353
922.90 0.09349
923.00 0.09345
923.10 0.09341
923.20 0.09337
923.30 0.09334
923.40 0.0933
923.50 0.09326
923.60 0.09322
923.70 0.09318
923.80 0.09315
923.90 0.09311
924.00 0.09307
924.10 0.09303
924.20 0.09299
924.30 0.09296
924.40 0.09292
924.50 0.09288
924.60 0.09284
924.70 0.0928
924.80 0.09277
924.90 0.09273
925.00 0.09269
925.10 0.09265
925.20 0.09261
925.30 0.09258
925.40 0.09254
925.50 0.0925
925.60 0.09246
925.70 0.09243
925.80 0.09239
925.90 0.09235
926.00 0.09231
926.10 0.09227
926.20 0.09224
926.30 0.0922
926.40 0.09216
926.50 0.09212
926.60 0.09209
926.70 0.09205
926.80 0.09201
926.90 0.09197
927.00 0.09194
927.10 0.0919
927.20 0.09186
927.30 0.09183
927.40 0.09179
927.50 0.09176
927.60 0.09172
927.70 0.09168
927.80 0.09165
927.90 0.09161
928.00 0.09158
928.10 0.09154
928.20 0.0915
928.30 0.09147
928.40 0.09143
928.50 0.0914
928.60 0.09136
928.70 0.09132
928.80 0.09129
928.90 0.09125
929.00 0.09122
929.10 0.09118
929.20 0.09115
929.30 0.09111
929.40 0.09107
929.50 0.09104
929.60 0.091
929.70 0.09097
929.80 0.09093
929.90 0.09089
930.00 0.09086
930.10 0.09082
930.20 0.09079
930.30 0.09075
930.40 0.09072
930.50 0.09068
930.60 0.09065
930.70 0.09061
930.80 0.09057
930.90 0.09054
931.00 0.0905
931.10 0.09047
931.20 0.09043
931.30 0.0904
931.40 0.09036
931.50 0.09033
931.60 0.09029
931.70 0.09025
931.80 0.09022
931.90 0.09018
932.00 0.09015
932.10 0.09011
932.20 0.09008
932.30 0.09004
932.40 0.09
932.50 0.08997
932.60 0.08993
932.70 0.08989
932.80 0.08986
932.90 0.08982
933.00 0.08979
933.10 0.08975
933.20 0.08971
933.30 0.08968
933.40 0.08964
933.50 0.0896
933.60 0.08957
933.70 0.08953
933.80 0.0895
933.90 0.08946
934.00 0.08942
934.10 0.08939
934.20 0.08935
934.30 0.08932
934.40 0.08928
934.50 0.08924
934.60 0.08921
934.70 0.08917
934.80 0.08913
934.90 0.0891
935.00 0.08906
935.10 0.08902
935.20 0.08899
935.30 0.08895
935.40 0.08892
935.50 0.08888
935.60 0.08884
935.70 0.08881
935.80 0.08877
935.90 0.08873
936.00 0.0887
936.10 0.08866
936.20 0.08862
936.30 0.08859
936.40 0.08855
936.50 0.08852
936.60 0.08848
936.70 0.08844
936.80 0.08841
936.90 0.08837
937.00 0.08833
937.10 0.0883
937.20 0.08826
937.30 0.08822
937.40 0.08819
937.50 0.08815
937.60 0.08811
937.70 0.08808
937.80 0.08804
937.90 0.088
938.00 0.08797
938.10 0.08793
938.20 0.0879
938.30 0.08786
938.40 0.08782
938.50 0.08779
938.60 0.08775
938.70 0.08771
938.80 0.08768
938.90 0.08764
939.00 0.0876
939.10 0.08756
939.20 0.08753
939.30 0.08749
939.40 0.08745
939.50 0.08742
939.60 0.08738
939.70 0.08734
939.80 0.08731
939.90 0.08727
940.00 0.08723
940.10 0.0872
940.20 0.08716
940.30 0.08712
940.40 0.08709
940.50 0.08705
940.60 0.08701
940.70 0.08698
940.80 0.08694
940.90 0.0869
941.00 0.08687
941.10 0.08683
941.20 0.08679
941.30 0.08676
941.40 0.08672
941.50 0.08668
941.60 0.08664
941.70 0.08661
941.80 0.08657
941.90 0.08653
942.00 0.0865
942.10 0.08646
942.20 0.08642
942.30 0.08639
942.40 0.08635
942.50 0.08631
942.60 0.08627
942.70 0.08624
942.80 0.0862
942.90 0.08616
943.00 0.08612
943.10 0.08609
943.20 0.08605
943.30 0.08601
943.40 0.08598
943.50 0.08594
943.60 0.0859
943.70 0.08586
943.80 0.08583
943.90 0.08579
944.00 0.08575
944.10 0.08572
944.20 0.08568
944.30 0.08564
944.40 0.0856
944.50 0.08557
944.60 0.08553
944.70 0.08549
944.80 0.08545
944.90 0.08541
945.00 0.08538
945.10 0.08534
945.20 0.0853
945.30 0.08526
945.40 0.08523
945.50 0.08519
945.60 0.08515
945.70 0.08511
945.80 0.08507
945.90 0.08503
946.00 0.085
946.10 0.08496
946.20 0.08492
946.30 0.08488
946.40 0.08484
946.50 0.08481
946.60 0.08477
946.70 0.08473
946.80 0.08469
946.90 0.08465
947.00 0.08462
947.10 0.08458
947.20 0.08454
947.30 0.0845
947.40 0.08446
947.50 0.08442
947.60 0.08438
947.70 0.08434
947.80 0.08431
947.90 0.08427
948.00 0.08423
948.10 0.08419
948.20 0.08415
948.30 0.08411
948.40 0.08407
948.50 0.08403
948.60 0.08399
948.70 0.08395
948.80 0.08392
948.90 0.08388
949.00 0.08384
949.10 0.0838
949.20 0.08376
949.30 0.08372
949.40 0.08368
949.50 0.08364
949.60 0.0836
949.70 0.08356
949.80 0.08352
949.90 0.08348
950.00 0.08344
950.10 0.0834
950.20 0.08336
950.30 0.08333
950.40 0.08329
950.50 0.08325
950.60 0.08321
950.70 0.08317
950.80 0.08313
950.90 0.08309
951.00 0.08305
951.10 0.08301
951.20 0.08297
951.30 0.08293
951.40 0.08289
951.50 0.08285
951.60 0.08281
951.70 0.08277
951.80 0.08274
951.90 0.0827
952.00 0.08266
952.10 0.08262
952.20 0.08258
952.30 0.08254
952.40 0.08251
952.50 0.08247
952.60 0.08243
952.70 0.08239
952.80 0.08235
952.90 0.08232
953.00 0.08228
953.10 0.08225
953.20 0.08221
953.30 0.08218
953.40 0.08214
953.50 0.08211
953.60 0.08208
953.70 0.08205
953.80 0.08202
953.90 0.08198
954.00 0.08196
954.10 0.08193
954.20 0.0819
954.30 0.08188
954.40 0.08186
954.50 0.08184
954.60 0.0818
954.70 0.08177
954.80 0.08173
954.90 0.08168
955.00 0.08164
955.10 0.0816
955.20 0.08156
955.30 0.08153
955.40 0.08149
955.50 0.08146
955.60 0.08142
955.70 0.08138
955.80 0.08135
955.90 0.08132
956.00 0.08129
956.10 0.08126
956.20 0.08123
956.30 0.0812
956.40 0.08117
956.50 0.08114
956.60 0.08111
956.70 0.08108
956.80 0.08105
956.90 0.08102
957.00 0.08099
957.10 0.08096
957.20 0.08094
957.30 0.08091
957.40 0.08088
957.50 0.08085
957.60 0.08083
957.70 0.0808
957.80 0.08077
957.90 0.08075
958.00 0.08072
958.10 0.08069
958.20 0.08066
958.30 0.08064
958.40 0.08061
958.50 0.08058
958.60 0.08056
958.70 0.08053
958.80 0.0805
958.90 0.08047
959.00 0.08045
959.10 0.08042
959.20 0.08039
959.30 0.08037
959.40 0.08034
959.50 0.08031
959.60 0.08028
959.70 0.08026
959.80 0.08023
959.90 0.0802
960.00 0.08017
960.10 0.08015
960.20 0.08012
960.30 0.08009
960.40 0.08006
960.50 0.08003
960.60 0.08001
960.70 0.07998
960.80 0.07995
960.90 0.07992
961.00 0.0799
961.10 0.07987
961.20 0.07984
961.30 0.07981
961.40 0.07979
961.50 0.07976
961.60 0.07973
961.70 0.0797
961.80 0.07967
961.90 0.07965
962.00 0.07962
962.10 0.07959
962.20 0.07956
962.30 0.07953
962.40 0.0795
962.50 0.07947
962.60 0.07944
962.70 0.07942
962.80 0.07939
962.90 0.07936
963.00 0.07933
963.10 0.0793
963.20 0.07927
963.30 0.07924
963.40 0.07921
963.50 0.07919
963.60 0.07916
963.70 0.07913
963.80 0.0791
963.90 0.07907
964.00 0.07904
964.10 0.07901
964.20 0.07898
964.30 0.07895
964.40 0.07892
964.50 0.07889
964.60 0.07886
964.70 0.07883
964.80 0.07881
964.90 0.07878
965.00 0.07875
965.10 0.07872
965.20 0.07869
965.30 0.07866
965.40 0.07863
965.50 0.0786
965.60 0.07857
965.70 0.07854
965.80 0.07851
965.90 0.07848
966.00 0.07845
966.10 0.07842
966.20 0.07839
966.30 0.07836
966.40 0.07833
966.50 0.0783
966.60 0.07827
966.70 0.07824
966.80 0.07821
966.90 0.07818
967.00 0.07815
967.10 0.07812
967.20 0.07809
967.30 0.07806
967.40 0.07803
967.50 0.07801
967.60 0.07798
967.70 0.07795
967.80 0.07792
967.90 0.07789
968.00 0.07786
968.10 0.07783
968.20 0.0778
968.30 0.07777
968.40 0.07774
968.50 0.07771
968.60 0.07768
968.70 0.07765
968.80 0.07762
968.90 0.07759
969.00 0.07756
969.10 0.07752
969.20 0.07749
969.30 0.07746
969.40 0.07743
969.50 0.0774
969.60 0.07737
969.70 0.07734
969.80 0.07731
969.90 0.07728
970.00 0.07725
970.10 0.07722
970.20 0.07719
970.30 0.07716
970.40 0.07713
970.50 0.0771
970.60 0.07707
970.70 0.07704
970.80 0.07701
970.90 0.07698
971.00 0.07695
971.10 0.07692
971.20 0.07689
971.30 0.07686
971.40 0.07683
971.50 0.0768
971.60 0.07677
971.70 0.07674
971.80 0.07671
971.90 0.07668
972.00 0.07665
972.10 0.07662
972.20 0.07659
972.30 0.07656
972.40 0.07653
972.50 0.0765
972.60 0.07647
972.70 0.07644
972.80 0.07641
972.90 0.07638
973.00 0.07635
973.10 0.07632
973.20 0.07629
973.30 0.07626
973.40 0.07623
973.50 0.0762
973.60 0.07617
973.70 0.07614
973.80 0.07611
973.90 0.07608
974.00 0.07605
974.10 0.07602
974.20 0.07599
974.30 0.07596
974.40 0.07593
974.50 0.0759
974.60 0.07587
974.70 0.07584
974.80 0.07581
974.90 0.07578
975.00 0.07575
975.10 0.07572
975.20 0.07569
975.30 0.07566
975.40 0.07563
975.50 0.0756
975.60 0.07557
975.70 0.07554
975.80 0.07551
975.90 0.07548
976.00 0.07545
976.10 0.07542
976.20 0.07539
976.30 0.07536
976.40 0.07533
976.50 0.0753
976.60 0.07527
976.70 0.07525
976.80 0.07522
976.90 0.07519
977.00 0.07516
977.10 0.07513
977.20 0.0751
977.30 0.07507
977.40 0.07504
977.50 0.07501
977.60 0.07498
977.70 0.07495
977.80 0.07492
977.90 0.07489
978.00 0.07486
978.10 0.07483
978.20 0.0748
978.30 0.07477
978.40 0.07474
978.50 0.07471
978.60 0.07468
978.70 0.07465
978.80 0.07462
978.90 0.07459
979.00 0.07456
979.10 0.07453
979.20 0.0745
979.30 0.07447
979.40 0.07444
979.50 0.07441
979.60 0.07438
979.70 0.07435
979.80 0.07432
979.90 0.07429
980.00 0.07426
980.10 0.07424
980.20 0.07421
980.30 0.07418
980.40 0.07415
980.50 0.07412
980.60 0.07409
980.70 0.07406
980.80 0.07403
980.90 0.074
981.00 0.07397
981.10 0.07394
981.20 0.07391
981.30 0.07388
981.40 0.07385
981.50 0.07382
981.60 0.07379
981.70 0.07376
981.80 0.07373
981.90 0.07371
982.00 0.07368
982.10 0.07365
982.20 0.07362
982.30 0.07359
982.40 0.07356
982.50 0.07353
982.60 0.0735
982.70 0.07347
982.80 0.07344
982.90 0.07341
983.00 0.07338
983.10 0.07335
983.20 0.07332
983.30 0.07329
983.40 0.07326
983.50 0.07323
983.60 0.07321
983.70 0.07318
983.80 0.07315
983.90 0.07312
984.00 0.07309
984.10 0.07306
984.20 0.07303
984.30 0.073
984.40 0.07297
984.50 0.07294
984.60 0.07291
984.70 0.07288
984.80 0.07285
984.90 0.07283
985.00 0.0728
985.10 0.07277
985.20 0.07274
985.30 0.07271
985.40 0.07268
985.50 0.07265
985.60 0.07262
985.70 0.07259
985.80 0.07256
985.90 0.07253
986.00 0.0725
986.10 0.07247
986.20 0.07245
986.30 0.07242
986.40 0.07239
986.50 0.07236
986.60 0.07233
986.70 0.0723
986.80 0.07227
986.90 0.07224
987.00 0.07221
987.10 0.07218
987.20 0.07215
987.30 0.07212
987.40 0.0721
987.50 0.07207
987.60 0.07204
987.70 0.07201
987.80 0.07198
987.90 0.07195
988.00 0.07192
988.10 0.07189
988.20 0.07186
988.30 0.07183
988.40 0.0718
988.50 0.07177
988.60 0.07175
988.70 0.07172
988.80 0.07169
988.90 0.07166
989.00 0.07163
989.10 0.0716
989.20 0.07157
989.30 0.07154
989.40 0.07151
989.50 0.07148
989.60 0.07145
989.70 0.07142
989.80 0.07139
989.90 0.07136
990.00 0.07133
990.10 0.07131
990.20 0.07128
990.30 0.07125
990.40 0.07122
990.50 0.07119
990.60 0.07116
990.70 0.07113
990.80 0.0711
990.90 0.07107
991.00 0.07104
991.10 0.07101
991.20 0.07098
991.30 0.07095
991.40 0.07092
991.50 0.07089
991.60 0.07086
991.70 0.07084
991.80 0.07081
991.90 0.07078
992.00 0.07075
992.10 0.07072
992.20 0.07069
992.30 0.07066
992.40 0.07063
992.50 0.0706
992.60 0.07057
992.70 0.07054
992.80 0.07051
992.90 0.07048
993.00 0.07045
993.10 0.07042
993.20 0.07039
993.30 0.07036
993.40 0.07033
993.50 0.0703
993.60 0.07027
993.70 0.07024
993.80 0.07021
993.90 0.07018
994.00 0.07015
994.10 0.07012
994.20 0.07009
994.30 0.07006
994.40 0.07003
994.50 0.07
994.60 0.06997
994.70 0.06994
994.80 0.06991
994.90 0.06987
995.00 0.06984
995.10 0.06981
995.20 0.06978
995.30 0.06975
995.40 0.06972
995.50 0.06969
995.60 0.06966
995.70 0.06963
995.80 0.0696
995.90 0.06956
996.00 0.06953
996.10 0.0695
996.20 0.06947
996.30 0.06944
996.40 0.06941
996.50 0.06938
996.60 0.06934
996.70 0.06931
996.80 0.06928
996.90 0.06925
997.00 0.06922
997.10 0.06919
997.20 0.06915
997.30 0.06912
997.40 0.06909
997.50 0.06906
997.60 0.06902
997.70 0.06899
997.80 0.06896
997.90 0.06892
998.00 0.06889
998.10 0.06885
998.20 0.06882
998.30 0.06879
998.40 0.06875
998.50 0.06872
998.60 0.06869
998.70 0.06865
998.80 0.06862
998.90 0.06858
999.00 0.06855
999.10 0.06852
999.20 0.06848
999.30 0.06845
999.40 0.06842
999.50 0.06838
999.60 0.06835
999.70 0.06831
999.80 0.06828
999.90 0.06824
1000.00 0.0682
1000.10 0.06816
1000.20 0.06813
1000.30 0.06809
1000.40 0.06805
1000.50 0.06802
1000.60 0.06798
1000.70 0.06794
1000.80 0.06791
1000.90 0.06787
1001.00 0.06783
1001.10 0.0678
1001.20 0.06776
1001.30 0.06772
1001.40 0.06768
1001.50 0.06765
1001.60 0.06761
1001.70 0.06757
1001.80 0.06754
1001.90 0.0675
1002.00 0.06746
1002.10 0.06743
1002.20 0.06739
1002.30 0.06735
1002.40 0.06732
1002.50 0.06728
1002.60 0.06725
1002.70 0.06721
1002.80 0.06717
1002.90 0.06714
1003.00 0.0671
1003.10 0.06706
1003.20 0.06703
1003.30 0.067
1003.40 0.06697
1003.50 0.06694
1003.60 0.06691
1003.70 0.06688
1003.80 0.06685
1003.90 0.06683
1004.00 0.06681
1004.10 0.0668
1004.20 0.06678
1004.30 0.06677
1004.40 0.06677
1004.50 0.06678
1004.60 0.06679
1004.70 0.06681
1004.80 0.06682
1004.90 0.0668
1005.00 0.06678
1005.10 0.06673
1005.20 0.06666
1005.30 0.0666
1005.40 0.06654
1005.50 0.06649
1005.60 0.06645
1005.70 0.06642
1005.80 0.06638
1005.90 0.06634
1006.00 0.0663
1006.10 0.06626
1006.20 0.06624
1006.30 0.06622
1006.40 0.0662
1006.50 0.06618
1006.60 0.06616
1006.70 0.06614
1006.80 0.06613
1006.90 0.06611
1007.00 0.06609
1007.10 0.06607
1007.20 0.06606
1007.30 0.06604
1007.40 0.06603
1007.50 0.06601
1007.60 0.066
1007.70 0.06598
1007.80 0.06597
1007.90 0.06595
1008.00 0.06594
1008.10 0.06592
1008.20 0.06591
1008.30 0.06589
1008.40 0.06587
1008.50 0.06586
1008.60 0.06584
1008.70 0.06583
1008.80 0.06581
1008.90 0.0658
1009.00 0.06578
1009.10 0.06577
1009.20 0.06575
1009.30 0.06574
1009.40 0.06572
1009.50 0.06571
1009.60 0.06569
1009.70 0.06567
1009.80 0.06566
1009.90 0.06564
1010.00 0.06562
1010.10 0.0656
1010.20 0.06559
1010.30 0.06557
1010.40 0.06555
1010.50 0.06553
1010.60 0.06551
1010.70 0.0655
1010.80 0.06548
1010.90 0.06546
1011.00 0.06544
1011.10 0.06542
1011.20 0.06541
1011.30 0.06539
1011.40 0.06537
1011.50 0.06535
1011.60 0.06534
1011.70 0.06532
1011.80 0.0653
1011.90 0.06528
1012.00 0.06526
1012.10 0.06524
1012.20 0.06522
1012.30 0.0652
1012.40 0.06518
1012.50 0.06516
1012.60 0.06514
1012.70 0.06512
1012.80 0.06509
1012.90 0.06507
1013.00 0.06505
1013.10 0.06503
1013.20 0.06501
1013.30 0.06499
1013.40 0.06497
1013.50 0.06495
1013.60 0.06493
1013.70 0.06491
1013.80 0.06489
1013.90 0.06487
1014.00 0.06485
1014.10 0.06482
1014.20 0.0648
1014.30 0.06478
1014.40 0.06476
1014.50 0.06474
1014.60 0.06472
1014.70 0.0647
1014.80 0.06467
1014.90 0.06465
1015.00 0.06463
1015.10 0.06461
1015.20 0.06458
1015.30 0.06456
1015.40 0.06454
1015.50 0.06452
1015.60 0.0645
1015.70 0.06447
1015.80 0.06445
1015.90 0.06443
1016.00 0.06441
1016.10 0.06438
1016.20 0.06436
1016.30 0.06434
1016.40 0.06432
1016.50 0.0643
1016.60 0.06427
1016.70 0.06425
1016.80 0.06423
1016.90 0.06421
1017.00 0.06418
1017.10 0.06416
1017.20 0.06414
1017.30 0.06411
1017.40 0.06409
1017.50 0.06407
1017.60 0.06405
1017.70 0.06402
1017.80 0.064
1017.90 0.06398
1018.00 0.06395
1018.10 0.06393
1018.20 0.06391
1018.30 0.06388
1018.40 0.06386
1018.50 0.06384
1018.60 0.06382
1018.70 0.06379
1018.80 0.06377
1018.90 0.06375
1019.00 0.06372
1019.10 0.0637
1019.20 0.06368
1019.30 0.06365
1019.40 0.06363
1019.50 0.06361
1019.60 0.06358
1019.70 0.06356
1019.80 0.06354
1019.90 0.06351
1020.00 0.06349
1020.10 0.06347
1020.20 0.06344
1020.30 0.06342
1020.40 0.0634
1020.50 0.06338
1020.60 0.06335
1020.70 0.06333
1020.80 0.06331
1020.90 0.06328
1021.00 0.06326
1021.10 0.06324
1021.20 0.06321
1021.30 0.06319
1021.40 0.06317
1021.50 0.06314
1021.60 0.06312
1021.70 0.0631
1021.80 0.06307
1021.90 0.06305
1022.00 0.06303
1022.10 0.063
1022.20 0.06298
1022.30 0.06296
1022.40 0.06293
1022.50 0.06291
1022.60 0.06289
1022.70 0.06286
1022.80 0.06284
1022.90 0.06282
1023.00 0.06279
1023.10 0.06277
1023.20 0.06275
1023.30 0.06272
1023.40 0.0627
1023.50 0.06268
1023.60 0.06265
1023.70 0.06263
1023.80 0.06261
1023.90 0.06258
1024.00 0.06256
1024.10 0.06254
1024.20 0.06251
1024.30 0.06249
1024.40 0.06247
1024.50 0.06244
1024.60 0.06242
1024.70 0.0624
1024.80 0.06237
1024.90 0.06235
1025.00 0.06233
1025.10 0.0623
1025.20 0.06228
1025.30 0.06226
1025.40 0.06223
1025.50 0.06221
1025.60 0.06219
1025.70 0.06216
1025.80 0.06214
1025.90 0.06212
1026.00 0.06209
1026.10 0.06207
1026.20 0.06205
1026.30 0.06202
1026.40 0.062
1026.50 0.06198
1026.60 0.06195
1026.70 0.06193
1026.80 0.06191
1026.90 0.06188
1027.00 0.06186
1027.10 0.06184
1027.20 0.06181
1027.30 0.06179
1027.40 0.06177
1027.50 0.06174
1027.60 0.06172
1027.70 0.0617
1027.80 0.06168
1027.90 0.06165
1028.00 0.06163
1028.10 0.06161
1028.20 0.06158
1028.30 0.06156
1028.40 0.06154
1028.50 0.06151
1028.60 0.06149
1028.70 0.06147
1028.80 0.06144
1028.90 0.06142
1029.00 0.0614
1029.10 0.06138
1029.20 0.06135
1029.30 0.06133
1029.40 0.06131
1029.50 0.06128
1029.60 0.06126
1029.70 0.06124
1029.80 0.06121
1029.90 0.06119
1030.00 0.06117
1030.10 0.06115
1030.20 0.06112
1030.30 0.0611
1030.40 0.06108
1030.50 0.06105
1030.60 0.06103
1030.70 0.06101
1030.80 0.06099
1030.90 0.06096
1031.00 0.06094
1031.10 0.06092
1031.20 0.06089
1031.30 0.06087
1031.40 0.06085
1031.50 0.06083
1031.60 0.0608
1031.70 0.06078
1031.80 0.06076
1031.90 0.06073
1032.00 0.06071
1032.10 0.06069
1032.20 0.06067
1032.30 0.06064
1032.40 0.06062
1032.50 0.0606
1032.60 0.06057
1032.70 0.06055
1032.80 0.06053
1032.90 0.06051
1033.00 0.06048
1033.10 0.06046
1033.20 0.06044
1033.30 0.06042
1033.40 0.06039
1033.50 0.06037
1033.60 0.06035
1033.70 0.06033
1033.80 0.0603
1033.90 0.06028
1034.00 0.06026
1034.10 0.06023
1034.20 0.06021
1034.30 0.06019
1034.40 0.06017
1034.50 0.06014
1034.60 0.06012
1034.70 0.0601
1034.80 0.06008
1034.90 0.06005
1035.00 0.06003
1035.10 0.06001
1035.20 0.05999
1035.30 0.05996
1035.40 0.05994
1035.50 0.05992
1035.60 0.0599
1035.70 0.05987
1035.80 0.05985
1035.90 0.05983
1036.00 0.05981
1036.10 0.05978
1036.20 0.05976
1036.30 0.05974
1036.40 0.05972
1036.50 0.05969
1036.60 0.05967
1036.70 0.05965
1036.80 0.05963
1036.90 0.05961
1037.00 0.05958
1037.10 0.05956
1037.20 0.05954
1037.30 0.05952
1037.40 0.05949
1037.50 0.05947
1037.60 0.05945
1037.70 0.05943
1037.80 0.0594
1037.90 0.05938
1038.00 0.05936
1038.10 0.05934
1038.20 0.05932
1038.30 0.05929
1038.40 0.05927
1038.50 0.05925
1038.60 0.05923
1038.70 0.05921
1038.80 0.05918
1038.90 0.05916
1039.00 0.05914
1039.10 0.05912
1039.20 0.05909
1039.30 0.05907
1039.40 0.05905
1039.50 0.05903
1039.60 0.05901
1039.70 0.05898
1039.80 0.05896
1039.90 0.05894
1040.00 0.05892
1040.10 0.0589
1040.20 0.05887
1040.30 0.05885
1040.40 0.05883
1040.50 0.05881
1040.60 0.05879
1040.70 0.05876
1040.80 0.05874
1040.90 0.05872
1041.00 0.0587
1041.10 0.05868
1041.20 0.05865
1041.30 0.05863
1041.40 0.05861
1041.50 0.05859
1041.60 0.05857
1041.70 0.05854
1041.80 0.05852
1041.90 0.0585
1042.00 0.05848
1042.10 0.05846
1042.20 0.05844
1042.30 0.05841
1042.40 0.05839
1042.50 0.05837
1042.60 0.05835
1042.70 0.05833
1042.80 0.0583
1042.90 0.05828
1043.00 0.05826
1043.10 0.05824
1043.20 0.05822
1043.30 0.0582
1043.40 0.05817
1043.50 0.05815
1043.60 0.05813
1043.70 0.05811
1043.80 0.05809
1043.90 0.05807
1044.00 0.05804
1044.10 0.05802
1044.20 0.058
1044.30 0.05798
1044.40 0.05796
1044.50 0.05794
1044.60 0.05791
1044.70 0.05789
1044.80 0.05787
1044.90 0.05785
1045.00 0.05783
1045.10 0.05781
1045.20 0.05779
1045.30 0.05776
1045.40 0.05774
1045.50 0.05772
1045.60 0.0577
1045.70 0.05768
1045.80 0.05766
1045.90 0.05763
1046.00 0.05761
1046.10 0.05759
1046.20 0.05757
1046.30 0.05755
1046.40 0.05753
1046.50 0.05751
1046.60 0.05748
1046.70 0.05746
1046.80 0.05744
1046.90 0.05742
1047.00 0.0574
1047.10 0.05738
1047.20 0.05736
1047.30 0.05733
1047.40 0.05731
1047.50 0.05729
1047.60 0.05727
1047.70 0.05725
1047.80 0.05723
1047.90 0.05721
1048.00 0.05719
1048.10 0.05716
1048.20 0.05714
1048.30 0.05712
1048.40 0.0571
1048.50 0.05708
1048.60 0.05706
1048.70 0.05704
1048.80 0.05702
1048.90 0.05699
1049.00 0.05697
1049.10 0.05695
1049.20 0.05693
1049.30 0.05691
1049.40 0.05689
1049.50 0.05687
1049.60 0.05685
1049.70 0.05683
1049.80 0.0568
1049.90 0.05678
1050.00 0.05676
1050.10 0.05674
1050.20 0.05672
1050.30 0.0567
1050.40 0.05668
1050.50 0.05666
1050.60 0.05664
1050.70 0.05661
1050.80 0.05659
1050.90 0.05657
1051.00 0.05655
1051.10 0.05653
1051.20 0.05651
1051.30 0.05649
1051.40 0.05647
1051.50 0.05645
1051.60 0.05643
1051.70 0.0564
1051.80 0.05638
1051.90 0.05636
1052.00 0.05634
1052.10 0.05632
1052.20 0.0563
1052.30 0.05628
1052.40 0.05626
1052.50 0.05624
1052.60 0.05622
1052.70 0.0562
1052.80 0.05618
1052.90 0.05615
1053.00 0.05613
1053.10 0.05611
1053.20 0.05609
1053.30 0.05607
1053.40 0.05605
1053.50 0.05603
1053.60 0.05601
1053.70 0.05599
1053.80 0.05597
1053.90 0.05595
1054.00 0.05593
1054.10 0.05591
1054.20 0.05589
1054.30 0.05586
1054.40 0.05584
1054.50 0.05582
1054.60 0.0558
1054.70 0.05578
1054.80 0.05576
1054.90 0.05574
1055.00 0.05572
1055.10 0.0557
1055.20 0.05568
1055.30 0.05566
1055.40 0.05564
1055.50 0.05562
1055.60 0.0556
1055.70 0.05558
1055.80 0.05555
1055.90 0.05553
1056.00 0.05551
1056.10 0.05549
1056.20 0.05547
1056.30 0.05545
1056.40 0.05543
1056.50 0.05541
1056.60 0.05539
1056.70 0.05537
1056.80 0.05535
1056.90 0.05533
1057.00 0.05531
1057.10 0.05529
1057.20 0.05527
1057.30 0.05525
1057.40 0.05523
1057.50 0.05521
1057.60 0.05519
1057.70 0.05517
1057.80 0.05515
1057.90 0.05513
1058.00 0.0551
1058.10 0.05508
1058.20 0.05506
1058.30 0.05504
1058.40 0.05502
1058.50 0.055
1058.60 0.05498
1058.70 0.05496
1058.80 0.05494
1058.90 0.05492
1059.00 0.0549
1059.10 0.05488
1059.20 0.05486
1059.30 0.05484
1059.40 0.05482
1059.50 0.0548
1059.60 0.05478
1059.70 0.05476
1059.80 0.05474
1059.90 0.05472
1060.00 0.0547
1060.10 0.05468
1060.20 0.05466
1060.30 0.05464
1060.40 0.05462
1060.50 0.0546
1060.60 0.05458
1060.70 0.05456
1060.80 0.05454
1060.90 0.05452
1061.00 0.0545
1061.10 0.05448
1061.20 0.05446
1061.30 0.05444
1061.40 0.05442
1061.50 0.0544
1061.60 0.05438
1061.70 0.05436
1061.80 0.05434
1061.90 0.05432
1062.00 0.0543
1062.10 0.05428
1062.20 0.05426
1062.30 0.05424
1062.40 0.05422
1062.50 0.0542
1062.60 0.05418
1062.70 0.05416
1062.80 0.05414
1062.90 0.05412
1063.00 0.0541
1063.10 0.05408
1063.20 0.05406
1063.30 0.05404
1063.40 0.05402
1063.50 0.054
1063.60 0.05398
1063.70 0.05396
1063.80 0.05394
1063.90 0.05392
1064.00 0.0539
1064.10 0.05388
1064.20 0.05386
1064.30 0.05384
1064.40 0.05382
1064.50 0.0538
1064.60 0.05378
1064.70 0.05376
1064.80 0.05374
1064.90 0.05372
1065.00 0.0537
1065.10 0.05368
1065.20 0.05366
1065.30 0.05364
1065.40 0.05362
1065.50 0.0536
1065.60 0.05358
1065.70 0.05356
1065.80 0.05354
1065.90 0.05352
1066.00 0.0535
1066.10 0.05348
1066.20 0.05346
1066.30 0.05344
1066.40 0.05342
1066.50 0.05341
1066.60 0.05339
1066.70 0.05337
1066.80 0.05335
1066.90 0.05333
1067.00 0.05331
1067.10 0.05329
1067.20 0.05327
1067.30 0.05325
1067.40 0.05323
1067.50 0.05321
1067.60 0.05319
1067.70 0.05317
1067.80 0.05315
1067.90 0.05313
1068.00 0.05311
1068.10 0.05309
1068.20 0.05307
1068.30 0.05305
1068.40 0.05303
1068.50 0.05301
1068.60 0.05299
1068.70 0.05297
1068.80 0.05295
1068.90 0.05294
1069.00 0.05292
1069.10 0.0529
1069.20 0.05288
1069.30 0.05286
1069.40 0.05284
1069.50 0.05282
1069.60 0.0528
1069.70 0.05278
1069.80 0.05276
1069.90 0.05274
1070.00 0.05272
1070.10 0.0527
1070.20 0.05268
1070.30 0.05266
1070.40 0.05264
1070.50 0.05262
1070.60 0.0526
1070.70 0.05259
1070.80 0.05257
1070.90 0.05255
1071.00 0.05253
1071.10 0.05251
1071.20 0.05249
1071.30 0.05247
1071.40 0.05245
1071.50 0.05243
1071.60 0.05241
1071.70 0.05239
1071.80 0.05237
1071.90 0.05235
1072.00 0.05233
1072.10 0.05231
1072.20 0.05229
1072.30 0.05228
1072.40 0.05226
1072.50 0.05224
1072.60 0.05222
1072.70 0.0522
1072.80 0.05218
1072.90 0.05216
1073.00 0.05214
1073.10 0.05212
1073.20 0.0521
1073.30 0.05208
1073.40 0.05206
1073.50 0.05204
1073.60 0.05202
1073.70 0.05201
1073.80 0.05199
1073.90 0.05197
1074.00 0.05195
1074.10 0.05193
1074.20 0.05191
1074.30 0.05189
1074.40 0.05187
1074.50 0.05185
1074.60 0.05183
1074.70 0.05181
1074.80 0.05179
1074.90 0.05177
1075.00 0.05175
1075.10 0.05174
1075.20 0.05172
1075.30 0.0517
1075.40 0.05168
1075.50 0.05166
1075.60 0.05164
1075.70 0.05162
1075.80 0.0516
1075.90 0.05158
1076.00 0.05156
1076.10 0.05154
1076.20 0.05152
1076.30 0.0515
1076.40 0.05149
1076.50 0.05147
1076.60 0.05145
1076.70 0.05143
1076.80 0.05141
1076.90 0.05139
1077.00 0.05137
1077.10 0.05135
1077.20 0.05133
1077.30 0.05131
1077.40 0.05129
1077.50 0.05127
1077.60 0.05125
1077.70 0.05124
1077.80 0.05122
1077.90 0.0512
1078.00 0.05118
1078.10 0.05116
1078.20 0.05114
1078.30 0.05112
1078.40 0.0511
1078.50 0.05108
1078.60 0.05106
1078.70 0.05104
1078.80 0.05102
1078.90 0.051
1079.00 0.05098
1079.10 0.05096
1079.20 0.05094
1079.30 0.05093
1079.40 0.05091
1079.50 0.05089
1079.60 0.05087
1079.70 0.05085
1079.80 0.05083
1079.90 0.05081
1080.00 0.05079
1080.10 0.05077
1080.20 0.05075
1080.30 0.05073
1080.40 0.05071
1080.50 0.05069
1080.60 0.05067
1080.70 0.05065
1080.80 0.05063
1080.90 0.05061
1081.00 0.05059
1081.10 0.05057
1081.20 0.05055
1081.30 0.05053
1081.40 0.05051
1081.50 0.05049
1081.60 0.05047
1081.70 0.05045
1081.80 0.05043
1081.90 0.05041
1082.00 0.05039
1082.10 0.05037
1082.20 0.05035
1082.30 0.05033
1082.40 0.05031
1082.50 0.05029
1082.60 0.05027
1082.70 0.05025
1082.80 0.05023
1082.90 0.05021
1083.00 0.05019
1083.10 0.05017
1083.20 0.05015
1083.30 0.05013
1083.40 0.05011
1083.50 0.05009
1083.60 0.05007
1083.70 0.05005
1083.80 0.05003
1083.90 0.05001
1084.00 0.04999
1084.10 0.04996
1084.20 0.04994
1084.30 0.04992
1084.40 0.0499
1084.50 0.04988
1084.60 0.04986
1084.70 0.04984
1084.80 0.04981
1084.90 0.04979
1085.00 0.04977
1085.10 0.04975
1085.20 0.04973
1085.30 0.0497
1085.40 0.04968
1085.50 0.04966
1085.60 0.04964
1085.70 0.04961
1085.80 0.04959
1085.90 0.04957
1086.00 0.04955
1086.10 0.04953
1086.20 0.0495
1086.30 0.04948
1086.40 0.04946
1086.50 0.04944
1086.60 0.04941
1086.70 0.04939
1086.80 0.04937
1086.90 0.04934
1087.00 0.04932
1087.10 0.0493
1087.20 0.04927
1087.30 0.04925
1087.40 0.04922
1087.50 0.04919
1087.60 0.04917
1087.70 0.04914
1087.80 0.04912
1087.90 0.04909
1088.00 0.04907
1088.10 0.04904
1088.20 0.04902
1088.30 0.04899
1088.40 0.04897
1088.50 0.04894
1088.60 0.04892
1088.70 0.04889
1088.80 0.04886
1088.90 0.04883
1089.00 0.0488
1089.10 0.04877
1089.20 0.04875
1089.30 0.04872
1089.40 0.04869
1089.50 0.04866
1089.60 0.04863
1089.70 0.04861
1089.80 0.04858
1089.90 0.04855
1090.00 0.04852
1090.10 0.04849
1090.20 0.04847
1090.30 0.04844
1090.40 0.04841
1090.50 0.04838
1090.60 0.04835
1090.70 0.04832
1090.80 0.04829
1090.90 0.04827
1091.00 0.04824
1091.10 0.04821
1091.20 0.04818
1091.30 0.04815
1091.40 0.04812
1091.50 0.04809
1091.60 0.04806
1091.70 0.04803
1091.80 0.048
1091.90 0.04798
1092.00 0.04795
1092.10 0.04793
1092.20 0.04791
1092.30 0.04789
1092.40 0.04787
1092.50 0.04784
1092.60 0.04782
1092.70 0.04781
1092.80 0.0478
1092.90 0.0478
1093.00 0.04779
1093.10 0.04779
1093.20 0.0478
1093.30 0.0478
1093.40 0.04782
1093.50 0.04785
1093.60 0.04791
1093.70 0.04796
1093.80 0.04798
1093.90 0.04798
1094.00 0.04789
1094.10 0.0478
1094.20 0.04771
1094.30 0.04764
1094.40 0.04761
1094.50 0.04758
1094.60 0.04754
1094.70 0.04751
1094.80 0.04748
1094.90 0.04744
1095.00 0.04742
1095.10 0.04741
1095.20 0.0474
1095.30 0.04739
1095.40 0.04738
1095.50 0.04738
1095.60 0.04737
1095.70 0.04736
1095.80 0.04735
1095.90 0.04734
1096.00 0.04733
1096.10 0.04732
1096.20 0.04731
1096.30 0.04731
1096.40 0.0473
1096.50 0.04729
1096.60 0.04729
1096.70 0.04728
1096.80 0.04728
1096.90 0.04727
1097.00 0.04727
1097.10 0.04726
1097.20 0.04726
1097.30 0.04725
1097.40 0.04725
1097.50 0.04724
1097.60 0.04724
1097.70 0.04723
1097.80 0.04723
1097.90 0.04722
1098.00 0.04721
1098.10 0.04721
1098.20 0.0472
1098.30 0.0472
1098.40 0.04719
1098.50 0.04719
1098.60 0.04718
1098.70 0.04717
1098.80 0.04716
1098.90 0.04715
1099.00 0.04714
1099.10 0.04713
1099.20 0.04712
1099.30 0.04711
1099.40 0.04711
1099.50 0.0471
1099.60 0.04709
1099.70 0.04708
1099.80 0.04707
1099.90 0.04706
1100.00 0.04705
1100.10 0.04704
1100.20 0.04704
1100.30 0.04703
1100.40 0.04702
1100.50 0.04701
1100.60 0.047
1100.70 0.04698
1100.80 0.04697
1100.90 0.04696
1101.00 0.04695
1101.10 0.04694
1101.20 0.04693
1101.30 0.04692
1101.40 0.0469
1101.50 0.04689
1101.60 0.04688
1101.70 0.04687
1101.80 0.04686
1101.90 0.04685
1102.00 0.04683
1102.10 0.04682
1102.20 0.04681
1102.30 0.0468
1102.40 0.04678
1102.50 0.04677
1102.60 0.04676
1102.70 0.04674
1102.80 0.04673
1102.90 0.04672
1103.00 0.0467
1103.10 0.04669
1103.20 0.04668
1103.30 0.04666
1103.40 0.04665
1103.50 0.04664
1103.60 0.04662
1103.70 0.04661
1103.80 0.04659
1103.90 0.04658
1104.00 0.04656
1104.10 0.04655
1104.20 0.04654
1104.30 0.04652
1104.40 0.04651
1104.50 0.04649
1104.60 0.04648
1104.70 0.04647
1104.80 0.04645
1104.90 0.04644
1105.00 0.04642
1105.10 0.04641
1105.20 0.04639
1105.30 0.04638
1105.40 0.04637
1105.50 0.04635
1105.60 0.04634
1105.70 0.04632
1105.80 0.04631
1105.90 0.04629
1106.00 0.04628
1106.10 0.04626
1106.20 0.04625
1106.30 0.04623
1106.40 0.04622
1106.50 0.0462
1106.60 0.04619
1106.70 0.04617
1106.80 0.04616
1106.90 0.04614
1107.00 0.04613
1107.10 0.04611
1107.20 0.0461
1107.30 0.04608
1107.40 0.04607
1107.50 0.04605
1107.60 0.04604
1107.70 0.04602
1107.80 0.04601
1107.90 0.04599
1108.00 0.04598
1108.10 0.04596
1108.20 0.04595
1108.30 0.04593
1108.40 0.04591
1108.50 0.0459
1108.60 0.04588
1108.70 0.04587
1108.80 0.04585
1108.90 0.04584
1109.00 0.04582
1109.10 0.04581
1109.20 0.04579
1109.30 0.04578
1109.40 0.04576
1109.50 0.04575
1109.60 0.04573
1109.70 0.04572
1109.80 0.0457
1109.90 0.04568
1110.00 0.04567
1110.10 0.04565
1110.20 0.04564
1110.30 0.04562
1110.40 0.04561
1110.50 0.04559
1110.60 0.04558
1110.70 0.04556
1110.80 0.04555
1110.90 0.04553
1111.00 0.04551
1111.10 0.0455
1111.20 0.04548
1111.30 0.04547
1111.40 0.04545
1111.50 0.04544
1111.60 0.04542
1111.70 0.04541
1111.80 0.04539
1111.90 0.04538
1112.00 0.04536
1112.10 0.04534
1112.20 0.04533
1112.30 0.04531
1112.40 0.0453
1112.50 0.04528
1112.60 0.04527
1112.70 0.04525
1112.80 0.04524
1112.90 0.04522
1113.00 0.0452
1113.10 0.04519
1113.20 0.04517
1113.30 0.04516
1113.40 0.04514
1113.50 0.04513
1113.60 0.04511
1113.70 0.0451
1113.80 0.04508
1113.90 0.04507
1114.00 0.04505
1114.10 0.04503
1114.20 0.04502
1114.30 0.045
1114.40 0.04499
1114.50 0.04497
1114.60 0.04496
1114.70 0.04494
1114.80 0.04493
1114.90 0.04491
1115.00 0.0449
1115.10 0.04488
1115.20 0.04486
1115.30 0.04485
1115.40 0.04483
1115.50 0.04482
1115.60 0.0448
1115.70 0.04479
1115.80 0.04477
1115.90 0.04476
1116.00 0.04474
1116.10 0.04473
1116.20 0.04471
1116.30 0.04469
1116.40 0.04468
1116.50 0.04466
1116.60 0.04465
1116.70 0.04463
1116.80 0.04462
1116.90 0.0446
1117.00 0.04459
1117.10 0.04457
1117.20 0.04456
1117.30 0.04454
1117.40 0.04453
1117.50 0.04451
1117.60 0.04449
1117.70 0.04448
1117.80 0.04446
1117.90 0.04445
1118.00 0.04443
1118.10 0.04442
1118.20 0.0444
1118.30 0.04439
1118.40 0.04437
1118.50 0.04436
1118.60 0.04434
1118.70 0.04433
1118.80 0.04431
1118.90 0.0443
1119.00 0.04428
1119.10 0.04426
1119.20 0.04425
1119.30 0.04423
1119.40 0.04422
1119.50 0.0442
1119.60 0.04419
1119.70 0.04417
1119.80 0.04416
1119.90 0.04414
1120.00 0.04413
1120.10 0.04411
1120.20 0.0441
1120.30 0.04408
1120.40 0.04407
1120.50 0.04405
1120.60 0.04404
1120.70 0.04402
1120.80 0.04401
1120.90 0.04399
1121.00 0.04397
1121.10 0.04396
1121.20 0.04394
1121.30 0.04393
1121.40 0.04391
1121.50 0.0439
1121.60 0.04388
1121.70 0.04387
1121.80 0.04385
1121.90 0.04384
1122.00 0.04382
1122.10 0.04381
1122.20 0.04379
1122.30 0.04378
1122.40 0.04376
1122.50 0.04375
1122.60 0.04373
1122.70 0.04372
1122.80 0.0437
1122.90 0.04369
1123.00 0.04367
1123.10 0.04366
1123.20 0.04364
1123.30 0.04363
1123.40 0.04361
1123.50 0.0436
1123.60 0.04358
1123.70 0.04357
1123.80 0.04355
1123.90 0.04354
1124.00 0.04352
1124.10 0.04351
1124.20 0.04349
1124.30 0.04348
1124.40 0.04346
1124.50 0.04345
1124.60 0.04343
1124.70 0.04342
1124.80 0.0434
1124.90 0.04339
1125.00 0.04337
1125.10 0.04336
1125.20 0.04334
1125.30 0.04333
1125.40 0.04331
1125.50 0.0433
1125.60 0.04328
1125.70 0.04327
1125.80 0.04325
1125.90 0.04324
1126.00 0.04322
1126.10 0.04321
1126.20 0.04319
1126.30 0.04318
1126.40 0.04316
1126.50 0.04315
1126.60 0.04313
1126.70 0.04312
1126.80 0.0431
1126.90 0.04309
1127.00 0.04307
1127.10 0.04306
1127.20 0.04304
1127.30 0.04303
1127.40 0.04301
1127.50 0.043
1127.60 0.04298
1127.70 0.04297
1127.80 0.04295
1127.90 0.04294
1128.00 0.04292
1128.10 0.04291
1128.20 0.04289
1128.30 0.04288
1128.40 0.04287
1128.50 0.04285
1128.60 0.04284
1128.70 0.04282
1128.80 0.04281
1128.90 0.04279
1129.00 0.04278
1129.10 0.04276
1129.20 0.04275
1129.30 0.04273
1129.40 0.04272
1129.50 0.0427
1129.60 0.04269
1129.70 0.04267
1129.80 0.04266
1129.90 0.04264
1130.00 0.04263
1130.10 0.04262
1130.20 0.0426
1130.30 0.04259
1130.40 0.04257
1130.50 0.04256
1130.60 0.04254
1130.70 0.04253
1130.80 0.04251
1130.90 0.0425
1131.00 0.04248
1131.10 0.04247
1131.20 0.04245
1131.30 0.04244
1131.40 0.04242
1131.50 0.04241
1131.60 0.0424
1131.70 0.04238
1131.80 0.04237
1131.90 0.04235
1132.00 0.04234
1132.10 0.04232
1132.20 0.04231
1132.30 0.04229
1132.40 0.04228
1132.50 0.04226
1132.60 0.04225
1132.70 0.04224
1132.80 0.04222
1132.90 0.04221
1133.00 0.04219
1133.10 0.04218
1133.20 0.04216
1133.30 0.04215
1133.40 0.04213
1133.50 0.04212
1133.60 0.0421
1133.70 0.04209
1133.80 0.04208
1133.90 0.04206
1134.00 0.04205
1134.10 0.04203
1134.20 0.04202
1134.30 0.042
1134.40 0.04199
1134.50 0.04198
1134.60 0.04196
1134.70 0.04195
1134.80 0.04193
1134.90 0.04192
1135.00 0.0419
1135.10 0.04189
1135.20 0.04187
1135.30 0.04186
1135.40 0.04185
1135.50 0.04183
1135.60 0.04182
1135.70 0.0418
1135.80 0.04179
1135.90 0.04177
1136.00 0.04176
1136.10 0.04174
1136.20 0.04173
1136.30 0.04172
1136.40 0.0417
1136.50 0.04169
1136.60 0.04167
1136.70 0.04166
1136.80 0.04164
1136.90 0.04163
1137.00 0.04162
1137.10 0.0416
1137.20 0.04159
1137.30 0.04157
1137.40 0.04156
1137.50 0.04154
1137.60 0.04153
1137.70 0.04152
1137.80 0.0415
1137.90 0.04149
1138.00 0.04147
1138.10 0.04146
1138.20 0.04145
1138.30 0.04143
1138.40 0.04142
1138.50 0.0414
1138.60 0.04139
1138.70 0.04137
1138.80 0.04136
1138.90 0.04135
1139.00 0.04133
1139.10 0.04132
1139.20 0.0413
1139.30 0.04129
1139.40 0.04128
1139.50 0.04126
1139.60 0.04125
1139.70 0.04123
1139.80 0.04122
1139.90 0.04121
1140.00 0.04119
1140.10 0.04118
1140.20 0.04116
1140.30 0.04115
1140.40 0.04113
1140.50 0.04112
1140.60 0.04111
1140.70 0.04109
1140.80 0.04108
1140.90 0.04106
1141.00 0.04105
1141.10 0.04104
1141.20 0.04102
1141.30 0.04101
1141.40 0.04099
1141.50 0.04098
1141.60 0.04097
1141.70 0.04095
1141.80 0.04094
1141.90 0.04092
1142.00 0.04091
1142.10 0.0409
1142.20 0.04088
1142.30 0.04087
1142.40 0.04085
1142.50 0.04084
1142.60 0.04083
1142.70 0.04081
1142.80 0.0408
1142.90 0.04079
1143.00 0.04077
1143.10 0.04076
1143.20 0.04074
1143.30 0.04073
1143.40 0.04072
1143.50 0.0407
1143.60 0.04069
1143.70 0.04067
1143.80 0.04066
1143.90 0.04065
1144.00 0.04063
1144.10 0.04062
1144.20 0.0406
1144.30 0.04059
1144.40 0.04058
1144.50 0.04056
1144.60 0.04055
1144.70 0.04054
1144.80 0.04052
1144.90 0.04051
1145.00 0.04049
1145.10 0.04048
1145.20 0.04047
1145.30 0.04045
1145.40 0.04044
1145.50 0.04043
1145.60 0.04041
1145.70 0.0404
1145.80 0.04038
1145.90 0.04037
1146.00 0.04036
1146.10 0.04034
1146.20 0.04033
1146.30 0.04032
1146.40 0.0403
1146.50 0.04029
1146.60 0.04027
1146.70 0.04026
1146.80 0.04025
1146.90 0.04023
1147.00 0.04022
1147.10 0.04021
1147.20 0.04019
1147.30 0.04018
1147.40 0.04016
1147.50 0.04015
1147.60 0.04014
1147.70 0.04012
1147.80 0.04011
1147.90 0.0401
1148.00 0.04008
1148.10 0.04007
1148.20 0.04006
1148.30 0.04004
1148.40 0.04003
1148.50 0.04001
1148.60 0.04
1148.70 0.03999
1148.80 0.03997
1148.90 0.03996
1149.00 0.03995
1149.10 0.03993
1149.20 0.03992
1149.30 0.03991
1149.40 0.03989
1149.50 0.03988
1149.60 0.03987
1149.70 0.03985
1149.80 0.03984
1149.90 0.03983
1150.00 0.03981
1150.10 0.0398
1150.20 0.03978
1150.30 0.03977
1150.40 0.03976
1150.50 0.03974
1150.60 0.03973
1150.70 0.03972
1150.80 0.0397
1150.90 0.03969
1151.00 0.03968
1151.10 0.03966
1151.20 0.03965
1151.30 0.03964
1151.40 0.03962
1151.50 0.03961
1151.60 0.0396
1151.70 0.03958
1151.80 0.03957
1151.90 0.03956
1152.00 0.03954
1152.10 0.03953
1152.20 0.03952
1152.30 0.0395
1152.40 0.03949
1152.50 0.03948
1152.60 0.03946
1152.70 0.03945
1152.80 0.03944
1152.90 0.03942
1153.00 0.03941
1153.10 0.0394
1153.20 0.03938
1153.30 0.03937
1153.40 0.03936
1153.50 0.03934
1153.60 0.03933
1153.70 0.03932
1153.80 0.0393
1153.90 0.03929
1154.00 0.03928
1154.10 0.03926
1154.20 0.03925
1154.30 0.03924
1154.40 0.03922
1154.50 0.03921
1154.60 0.0392
1154.70 0.03918
1154.80 0.03917
1154.90 0.03916
1155.00 0.03914
1155.10 0.03913
1155.20 0.03912
1155.30 0.0391
1155.40 0.03909
1155.50 0.03908
1155.60 0.03906
1155.70 0.03905
1155.80 0.03904
1155.90 0.03902
1156.00 0.03901
1156.10 0.039
1156.20 0.03898
1156.30 0.03897
1156.40 0.03896
1156.50 0.03895
1156.60 0.03893
1156.70 0.03892
1156.80 0.03891
1156.90 0.03889
1157.00 0.03888
1157.10 0.03887
1157.20 0.03885
1157.30 0.03884
1157.40 0.03883
1157.50 0.03881
1157.60 0.0388
1157.70 0.03879
1157.80 0.03878
1157.90 0.03876
1158.00 0.03875
1158.10 0.03874
1158.20 0.03872
1158.30 0.03871
1158.40 0.0387
1158.50 0.03868
1158.60 0.03867
1158.70 0.03866
1158.80 0.03864
1158.90 0.03863
1159.00 0.03862
1159.10 0.03861
1159.20 0.03859
1159.30 0.03858
1159.40 0.03857
1159.50 0.03855
1159.60 0.03854
1159.70 0.03853
1159.80 0.03852
1159.90 0.0385
1160.00 0.03849
1160.10 0.03848
1160.20 0.03846
1160.30 0.03845
1160.40 0.03844
1160.50 0.03842
1160.60 0.03841
1160.70 0.0384
1160.80 0.03839
1160.90 0.03837
1161.00 0.03836
1161.10 0.03835
1161.20 0.03833
1161.30 0.03832
1161.40 0.03831
1161.50 0.0383
1161.60 0.03828
1161.70 0.03827
1161.80 0.03826
1161.90 0.03824
1162.00 0.03823
1162.10 0.03822
1162.20 0.03821
1162.30 0.03819
1162.40 0.03818
1162.50 0.03817
1162.60 0.03815
1162.70 0.03814
1162.80 0.03813
1162.90 0.03812
1163.00 0.0381
1163.10 0.03809
1163.20 0.03808
1163.30 0.03806
1163.40 0.03805
1163.50 0.03804
1163.60 0.03803
1163.70 0.03801
1163.80 0.038
1163.90 0.03799
1164.00 0.03798
1164.10 0.03796
1164.20 0.03795
1164.30 0.03794
1164.40 0.03792
1164.50 0.03791
1164.60 0.0379
1164.70 0.03789
1164.80 0.03787
1164.90 0.03786
1165.00 0.03785
1165.10 0.03784
1165.20 0.03782
1165.30 0.03781
1165.40 0.0378
1165.50 0.03779
1165.60 0.03777
1165.70 0.03776
1165.80 0.03775
1165.90 0.03773
1166.00 0.03772
1166.10 0.03771
1166.20 0.0377
1166.30 0.03768
1166.40 0.03767
1166.50 0.03766
1166.60 0.03765
1166.70 0.03763
1166.80 0.03762
1166.90 0.03761
1167.00 0.0376
1167.10 0.03758
1167.20 0.03757
1167.30 0.03756
1167.40 0.03755
1167.50 0.03753
1167.60 0.03752
1167.70 0.03751
1167.80 0.0375
1167.90 0.03748
1168.00 0.03747
1168.10 0.03746
1168.20 0.03745
1168.30 0.03743
1168.40 0.03742
1168.50 0.03741
1168.60 0.0374
1168.70 0.03738
1168.80 0.03737
1168.90 0.03736
1169.00 0.03735
1169.10 0.03733
1169.20 0.03732
1169.30 0.03731
1169.40 0.0373
1169.50 0.03728
1169.60 0.03727
1169.70 0.03726
1169.80 0.03725
1169.90 0.03723
1170.00 0.03722
1170.10 0.03721
1170.20 0.0372
1170.30 0.03718
1170.40 0.03717
1170.50 0.03716
1170.60 0.03715
1170.70 0.03713
1170.80 0.03712
1170.90 0.03711
1171.00 0.0371
1171.10 0.03708
1171.20 0.03707
1171.30 0.03706
1171.40 0.03705
1171.50 0.03704
1171.60 0.03702
1171.70 0.03701
1171.80 0.037
1171.90 0.03699
1172.00 0.03697
1172.10 0.03696
1172.20 0.03695
1172.30 0.03694
1172.40 0.03692
1172.50 0.03691
1172.60 0.0369
1172.70 0.03689
1172.80 0.03688
1172.90 0.03686
1173.00 0.03685
1173.10 0.03684
1173.20 0.03683
1173.30 0.03681
1173.40 0.0368
1173.50 0.03679
1173.60 0.03678
1173.70 0.03677
1173.80 0.03675
1173.90 0.03674
1174.00 0.03673
1174.10 0.03672
1174.20 0.0367
1174.30 0.03669
1174.40 0.03668
1174.50 0.03667
1174.60 0.03666
1174.70 0.03664
1174.80 0.03663
1174.90 0.03662
1175.00 0.03661
1175.10 0.03659
1175.20 0.03658
1175.30 0.03657
1175.40 0.03656
1175.50 0.03655
1175.60 0.03653
1175.70 0.03652
1175.80 0.03651
1175.90 0.0365
1176.00 0.03649
1176.10 0.03647
1176.20 0.03646
1176.30 0.03645
1176.40 0.03644
1176.50 0.03642
1176.60 0.03641
1176.70 0.0364
1176.80 0.03639
1176.90 0.03638
1177.00 0.03636
1177.10 0.03635
1177.20 0.03634
1177.30 0.03633
1177.40 0.03632
1177.50 0.0363
1177.60 0.03629
1177.70 0.03628
1177.80 0.03627
1177.90 0.03626
1178.00 0.03624
1178.10 0.03623
1178.20 0.03622
1178.30 0.03621
1178.40 0.0362
1178.50 0.03618
1178.60 0.03617
1178.70 0.03616
1178.80 0.03615
1178.90 0.03614
1179.00 0.03612
1179.10 0.03611
1179.20 0.0361
1179.30 0.03609
1179.40 0.03608
1179.50 0.03606
1179.60 0.03605
1179.70 0.03604
1179.80 0.03603
1179.90 0.03602
1180.00 0.036
1180.10 0.03599
1180.20 0.03598
1180.30 0.03597
1180.40 0.03596
1180.50 0.03595
1180.60 0.03593
1180.70 0.03592
1180.80 0.03591
1180.90 0.0359
1181.00 0.03589
1181.10 0.03587
1181.20 0.03586
1181.30 0.03585
1181.40 0.03584
1181.50 0.03583
1181.60 0.03581
1181.70 0.0358
1181.80 0.03579
1181.90 0.03578
1182.00 0.03577
1182.10 0.03576
1182.20 0.03574
1182.30 0.03573
1182.40 0.03572
1182.50 0.03571
1182.60 0.0357
1182.70 0.03568
1182.80 0.03567
1182.90 0.03566
1183.00 0.03565
1183.10 0.03564
1183.20 0.03563
1183.30 0.03561
1183.40 0.0356
1183.50 0.03559
1183.60 0.03558
1183.70 0.03557
1183.80 0.03556
1183.90 0.03554
1184.00 0.03553
1184.10 0.03552
1184.20 0.03551
1184.30 0.0355
1184.40 0.03549
1184.50 0.03547
1184.60 0.03546
1184.70 0.03545
1184.80 0.03544
1184.90 0.03543
1185.00 0.03542
1185.10 0.0354
1185.20 0.03539
1185.30 0.03538
1185.40 0.03537
1185.50 0.03536
1185.60 0.03535
1185.70 0.03533
1185.80 0.03532
1185.90 0.03531
1186.00 0.0353
1186.10 0.03529
1186.20 0.03528
1186.30 0.03526
1186.40 0.03525
1186.50 0.03524
1186.60 0.03523
1186.70 0.03522
1186.80 0.03521
1186.90 0.03519
1187.00 0.03518
1187.10 0.03517
1187.20 0.03516
1187.30 0.03515
1187.40 0.03514
1187.50 0.03512
1187.60 0.03511
1187.70 0.0351
1187.80 0.03509
1187.90 0.03508
1188.00 0.03507
1188.10 0.03506
1188.20 0.03504
1188.30 0.03503
1188.40 0.03502
1188.50 0.03501
1188.60 0.035
1188.70 0.03499
1188.80 0.03498
1188.90 0.03496
1189.00 0.03495
1189.10 0.03494
1189.20 0.03493
1189.30 0.03492
1189.40 0.03491
1189.50 0.03489
1189.60 0.03488
1189.70 0.03487
1189.80 0.03486
1189.90 0.03485
1190.00 0.03484
1190.10 0.03483
1190.20 0.03481
1190.30 0.0348
1190.40 0.03479
1190.50 0.03478
1190.60 0.03477
1190.70 0.03476
1190.80 0.03475
1190.90 0.03473
1191.00 0.03472
1191.10 0.03471
1191.20 0.0347
1191.30 0.03469
1191.40 0.03468
1191.50 0.03467
1191.60 0.03466
1191.70 0.03464
1191.80 0.03463
1191.90 0.03462
1192.00 0.03461
1192.10 0.0346
1192.20 0.03459
1192.30 0.03458
1192.40 0.03456
1192.50 0.03455
1192.60 0.03454
1192.70 0.03453
1192.80 0.03452
1192.90 0.03451
1193.00 0.0345
1193.10 0.03449
1193.20 0.03447
1193.30 0.03446
1193.40 0.03445
1193.50 0.03444
1193.60 0.03443
1193.70 0.03442
1193.80 0.03441
1193.90 0.0344
1194.00 0.03438
1194.10 0.03437
1194.20 0.03436
1194.30 0.03435
1194.40 0.03434
1194.50 0.03433
1194.60 0.03432
1194.70 0.03431
1194.80 0.03429
1194.90 0.03428
1195.00 0.03427
1195.10 0.03426
1195.20 0.03425
1195.30 0.03424
1195.40 0.03423
1195.50 0.03422
1195.60 0.0342
1195.70 0.03419
1195.80 0.03418
1195.90 0.03417
1196.00 0.03416
1196.10 0.03415
1196.20 0.03414
1196.30 0.03413
1196.40 0.03412
1196.50 0.0341
1196.60 0.03409
1196.70 0.03408
1196.80 0.03407
1196.90 0.03406
1197.00 0.03405
1197.10 0.03404
1197.20 0.03403
1197.30 0.03402
1197.40 0.034
1197.50 0.03399
1197.60 0.03398
1197.70 0.03397
1197.80 0.03396
1197.90 0.03395
1198.00 0.03394
1198.10 0.03393
1198.20 0.03392
1198.30 0.0339
1198.40 0.03389
1198.50 0.03388
1198.60 0.03387
1198.70 0.03386
1198.80 0.03385
1198.90 0.03384
1199.00 0.03383
1199.10 0.03382
1199.20 0.03381
1199.30 0.03379
1199.40 0.03378
1199.50 0.03377
1199.60 0.03376
1199.70 0.03375
1199.80 0.03374
1199.90 0.03373
1200.00 0
