# Version 2.1 - nm, norm@500 to 1, cut digits, bergeron_35000_80.dat_35000
# Wavelength(nm)  Flambda(ergs/cm^s/s/nm)
300.00 5.542
300.10 5.536
300.20 5.529
300.30 5.523
300.40 5.517
300.50 5.51
300.60 5.504
300.70 5.497
300.80 5.491
300.90 5.485
301.00 5.478
301.10 5.472
301.20 5.466
301.30 5.459
301.40 5.453
301.50 5.447
301.60 5.44
301.70 5.434
301.80 5.428
301.90 5.421
302.00 5.415
302.10 5.409
302.20 5.403
302.30 5.396
302.40 5.39
302.50 5.384
302.60 5.378
302.70 5.371
302.80 5.365
302.90 5.359
303.00 5.353
303.10 5.347
303.20 5.34
303.30 5.334
303.40 5.328
303.50 5.322
303.60 5.316
303.70 5.31
303.80 5.304
303.90 5.298
304.00 5.291
304.10 5.285
304.20 5.279
304.30 5.273
304.40 5.267
304.50 5.261
304.60 5.255
304.70 5.249
304.80 5.243
304.90 5.237
305.00 5.231
305.10 5.225
305.20 5.219
305.30 5.213
305.40 5.207
305.50 5.201
305.60 5.195
305.70 5.189
305.80 5.183
305.90 5.177
306.00 5.171
306.10 5.166
306.20 5.16
306.30 5.154
306.40 5.148
306.50 5.142
306.60 5.136
306.70 5.13
306.80 5.124
306.90 5.119
307.00 5.113
307.10 5.107
307.20 5.101
307.30 5.095
307.40 5.089
307.50 5.084
307.60 5.078
307.70 5.072
307.80 5.066
307.90 5.061
308.00 5.055
308.10 5.049
308.20 5.043
308.30 5.038
308.40 5.032
308.50 5.026
308.60 5.02
308.70 5.015
308.80 5.009
308.90 5.003
309.00 4.998
309.10 4.992
309.20 4.986
309.30 4.981
309.40 4.975
309.50 4.969
309.60 4.964
309.70 4.958
309.80 4.953
309.90 4.947
310.00 4.941
310.10 4.936
310.20 4.93
310.30 4.925
310.40 4.919
310.50 4.914
310.60 4.908
310.70 4.902
310.80 4.897
310.90 4.891
311.00 4.886
311.10 4.88
311.20 4.875
311.30 4.869
311.40 4.864
311.50 4.858
311.60 4.853
311.70 4.848
311.80 4.842
311.90 4.837
312.00 4.831
312.10 4.826
312.20 4.82
312.30 4.815
312.40 4.81
312.50 4.804
312.60 4.799
312.70 4.793
312.80 4.788
312.90 4.783
313.00 4.777
313.10 4.772
313.20 4.767
313.30 4.761
313.40 4.756
313.50 4.751
313.60 4.745
313.70 4.74
313.80 4.735
313.90 4.729
314.00 4.724
314.10 4.719
314.20 4.714
314.30 4.708
314.40 4.703
314.50 4.698
314.60 4.693
314.70 4.687
314.80 4.682
314.90 4.677
315.00 4.672
315.10 4.666
315.20 4.661
315.30 4.656
315.40 4.651
315.50 4.646
315.60 4.641
315.70 4.635
315.80 4.63
315.90 4.625
316.00 4.62
316.10 4.615
316.20 4.61
316.30 4.605
316.40 4.599
316.50 4.594
316.60 4.589
316.70 4.584
316.80 4.579
316.90 4.574
317.00 4.569
317.10 4.564
317.20 4.559
317.30 4.554
317.40 4.549
317.50 4.544
317.60 4.539
317.70 4.534
317.80 4.529
317.90 4.524
318.00 4.519
318.10 4.514
318.20 4.509
318.30 4.504
318.40 4.499
318.50 4.494
318.60 4.489
318.70 4.484
318.80 4.479
318.90 4.474
319.00 4.469
319.10 4.464
319.20 4.459
319.30 4.454
319.40 4.449
319.50 4.445
319.60 4.44
319.70 4.435
319.80 4.43
319.90 4.425
320.00 4.42
320.10 4.415
320.20 4.41
320.30 4.406
320.40 4.401
320.50 4.396
320.60 4.391
320.70 4.386
320.80 4.382
320.90 4.377
321.00 4.372
321.10 4.367
321.20 4.362
321.30 4.358
321.40 4.353
321.50 4.348
321.60 4.343
321.70 4.339
321.80 4.334
321.90 4.329
322.00 4.324
322.10 4.32
322.20 4.315
322.30 4.31
322.40 4.306
322.50 4.301
322.60 4.296
322.70 4.291
322.80 4.287
322.90 4.282
323.00 4.277
323.10 4.273
323.20 4.268
323.30 4.264
323.40 4.259
323.50 4.254
323.60 4.25
323.70 4.245
323.80 4.24
323.90 4.236
324.00 4.231
324.10 4.227
324.20 4.222
324.30 4.217
324.40 4.213
324.50 4.208
324.60 4.204
324.70 4.199
324.80 4.195
324.90 4.19
325.00 4.186
325.10 4.181
325.20 4.176
325.30 4.172
325.40 4.167
325.50 4.163
325.60 4.158
325.70 4.154
325.80 4.149
325.90 4.145
326.00 4.141
326.10 4.136
326.20 4.132
326.30 4.127
326.40 4.123
326.50 4.118
326.60 4.114
326.70 4.109
326.80 4.105
326.90 4.1
327.00 4.096
327.10 4.092
327.20 4.087
327.30 4.083
327.40 4.078
327.50 4.074
327.60 4.07
327.70 4.065
327.80 4.061
327.90 4.057
328.00 4.052
328.10 4.048
328.20 4.044
328.30 4.039
328.40 4.035
328.50 4.031
328.60 4.026
328.70 4.022
328.80 4.018
328.90 4.013
329.00 4.009
329.10 4.005
329.20 4
329.30 3.996
329.40 3.992
329.50 3.988
329.60 3.983
329.70 3.979
329.80 3.975
329.90 3.971
330.00 3.966
330.10 3.962
330.20 3.958
330.30 3.954
330.40 3.949
330.50 3.945
330.60 3.941
330.70 3.937
330.80 3.933
330.90 3.929
331.00 3.924
331.10 3.92
331.20 3.916
331.30 3.912
331.40 3.908
331.50 3.903
331.60 3.899
331.70 3.895
331.80 3.891
331.90 3.887
332.00 3.883
332.10 3.879
332.20 3.875
332.30 3.87
332.40 3.866
332.50 3.862
332.60 3.858
332.70 3.854
332.80 3.85
332.90 3.846
333.00 3.842
333.10 3.838
333.20 3.834
333.30 3.83
333.40 3.826
333.50 3.821
333.60 3.817
333.70 3.813
333.80 3.809
333.90 3.805
334.00 3.801
334.10 3.797
334.20 3.793
334.30 3.789
334.40 3.785
334.50 3.781
334.60 3.777
334.70 3.773
334.80 3.769
334.90 3.765
335.00 3.761
335.10 3.757
335.20 3.754
335.30 3.75
335.40 3.746
335.50 3.742
335.60 3.738
335.70 3.734
335.80 3.73
335.90 3.726
336.00 3.722
336.10 3.718
336.20 3.714
336.30 3.71
336.40 3.706
336.50 3.703
336.60 3.699
336.70 3.695
336.80 3.691
336.90 3.687
337.00 3.683
337.10 3.679
337.20 3.675
337.30 3.672
337.40 3.668
337.50 3.664
337.60 3.66
337.70 3.656
337.80 3.652
337.90 3.649
338.00 3.645
338.10 3.641
338.20 3.637
338.30 3.633
338.40 3.63
338.50 3.626
338.60 3.622
338.70 3.618
338.80 3.615
338.90 3.611
339.00 3.607
339.10 3.603
339.20 3.599
339.30 3.596
339.40 3.592
339.50 3.588
339.60 3.585
339.70 3.581
339.80 3.577
339.90 3.573
340.00 3.57
340.10 3.566
340.20 3.562
340.30 3.559
340.40 3.555
340.50 3.551
340.60 3.547
340.70 3.544
340.80 3.54
340.90 3.536
341.00 3.533
341.10 3.529
341.20 3.525
341.30 3.522
341.40 3.518
341.50 3.515
341.60 3.511
341.70 3.507
341.80 3.504
341.90 3.5
342.00 3.496
342.10 3.493
342.20 3.489
342.30 3.486
342.40 3.482
342.50 3.478
342.60 3.475
342.70 3.471
342.80 3.468
342.90 3.464
343.00 3.46
343.10 3.457
343.20 3.453
343.30 3.45
343.40 3.446
343.50 3.443
343.60 3.439
343.70 3.436
343.80 3.432
343.90 3.428
344.00 3.425
344.10 3.421
344.20 3.418
344.30 3.414
344.40 3.411
344.50 3.407
344.60 3.404
344.70 3.4
344.80 3.397
344.90 3.393
345.00 3.39
345.10 3.387
345.20 3.383
345.30 3.38
345.40 3.376
345.50 3.373
345.60 3.369
345.70 3.366
345.80 3.362
345.90 3.359
346.00 3.355
346.10 3.352
346.20 3.349
346.30 3.345
346.40 3.342
346.50 3.338
346.60 3.335
346.70 3.331
346.80 3.328
346.90 3.325
347.00 3.321
347.10 3.318
347.20 3.315
347.30 3.311
347.40 3.308
347.50 3.304
347.60 3.301
347.70 3.298
347.80 3.294
347.90 3.291
348.00 3.288
348.10 3.284
348.20 3.281
348.30 3.278
348.40 3.274
348.50 3.271
348.60 3.268
348.70 3.264
348.80 3.261
348.90 3.258
349.00 3.254
349.10 3.251
349.20 3.248
349.30 3.244
349.40 3.241
349.50 3.238
349.60 3.235
349.70 3.231
349.80 3.228
349.90 3.225
350.00 3.222
350.10 3.218
350.20 3.215
350.30 3.212
350.40 3.209
350.50 3.205
350.60 3.202
350.70 3.199
350.80 3.196
350.90 3.192
351.00 3.189
351.10 3.186
351.20 3.183
351.30 3.179
351.40 3.176
351.50 3.173
351.60 3.17
351.70 3.167
351.80 3.163
351.90 3.16
352.00 3.157
352.10 3.154
352.20 3.151
352.30 3.148
352.40 3.144
352.50 3.141
352.60 3.138
352.70 3.135
352.80 3.132
352.90 3.129
353.00 3.126
353.10 3.122
353.20 3.119
353.30 3.116
353.40 3.113
353.50 3.11
353.60 3.107
353.70 3.104
353.80 3.1
353.90 3.097
354.00 3.094
354.10 3.091
354.20 3.088
354.30 3.085
354.40 3.082
354.50 3.079
354.60 3.076
354.70 3.073
354.80 3.07
354.90 3.067
355.00 3.063
355.10 3.06
355.20 3.057
355.30 3.054
355.40 3.051
355.50 3.048
355.60 3.045
355.70 3.042
355.80 3.039
355.90 3.036
356.00 3.033
356.10 3.03
356.20 3.027
356.30 3.024
356.40 3.021
356.50 3.018
356.60 3.015
356.70 3.012
356.80 3.009
356.90 3.006
357.00 3.003
357.10 3
357.20 2.997
357.30 2.994
357.40 2.991
357.50 2.988
357.60 2.985
357.70 2.982
357.80 2.979
357.90 2.976
358.00 2.973
358.10 2.97
358.20 2.967
358.30 2.964
358.40 2.962
358.50 2.959
358.60 2.956
358.70 2.953
358.80 2.95
358.90 2.947
359.00 2.944
359.10 2.941
359.20 2.938
359.30 2.935
359.40 2.932
359.50 2.929
359.60 2.927
359.70 2.924
359.80 2.921
359.90 2.918
360.00 2.915
360.10 2.912
360.20 2.909
360.30 2.906
360.40 2.904
360.50 2.901
360.60 2.898
360.70 2.895
360.80 2.892
360.90 2.889
361.00 2.886
361.10 2.884
361.20 2.881
361.30 2.878
361.40 2.875
361.50 2.872
361.60 2.869
361.70 2.867
361.80 2.864
361.90 2.861
362.00 2.858
362.10 2.855
362.20 2.853
362.30 2.85
362.40 2.847
362.50 2.844
362.60 2.841
362.70 2.839
362.80 2.836
362.90 2.833
363.00 2.83
363.10 2.828
363.20 2.825
363.30 2.822
363.40 2.819
363.50 2.817
363.60 2.814
363.70 2.811
363.80 2.808
363.90 2.806
364.00 2.803
364.10 2.8
364.20 2.797
364.30 2.795
364.40 2.792
364.50 2.789
364.60 2.786
364.70 2.784
364.80 2.781
364.90 2.778
365.00 2.776
365.10 2.773
365.20 2.77
365.30 2.767
365.40 2.765
365.50 2.762
365.60 2.759
365.70 2.757
365.80 2.754
365.90 2.751
366.00 2.749
366.10 2.746
366.20 2.743
366.30 2.74
366.40 2.737
366.50 2.734
366.60 2.732
366.70 2.729
366.80 2.726
366.90 2.723
367.00 2.72
367.10 2.718
367.20 2.715
367.30 2.712
367.40 2.709
367.50 2.706
367.60 2.703
367.70 2.701
367.80 2.698
367.90 2.695
368.00 2.692
368.10 2.689
368.20 2.687
368.30 2.684
368.40 2.681
368.50 2.678
368.60 2.676
368.70 2.673
368.80 2.67
368.90 2.667
369.00 2.664
369.10 2.662
369.20 2.659
369.30 2.656
369.40 2.653
369.50 2.651
369.60 2.648
369.70 2.645
369.80 2.642
369.90 2.64
370.00 2.637
370.10 2.634
370.20 2.632
370.30 2.629
370.40 2.626
370.50 2.623
370.60 2.621
370.70 2.618
370.80 2.615
370.90 2.613
371.00 2.61
371.10 2.607
371.20 2.605
371.30 2.602
371.40 2.599
371.50 2.597
371.60 2.594
371.70 2.591
371.80 2.589
371.90 2.586
372.00 2.583
372.10 2.581
372.20 2.578
372.30 2.576
372.40 2.573
372.50 2.571
372.60 2.568
372.70 2.566
372.80 2.563
372.90 2.561
373.00 2.558
373.10 2.556
373.20 2.553
373.30 2.551
373.40 2.548
373.50 2.546
373.60 2.543
373.70 2.541
373.80 2.538
373.90 2.536
374.00 2.533
374.10 2.531
374.20 2.528
374.30 2.526
374.40 2.524
374.50 2.521
374.60 2.519
374.70 2.517
374.80 2.514
374.90 2.512
375.00 2.509
375.10 2.507
375.20 2.505
375.30 2.502
375.40 2.5
375.50 2.498
375.60 2.495
375.70 2.493
375.80 2.491
375.90 2.488
376.00 2.486
376.10 2.483
376.20 2.481
376.30 2.479
376.40 2.477
376.50 2.474
376.60 2.472
376.70 2.47
376.80 2.467
376.90 2.465
377.00 2.463
377.10 2.461
377.20 2.459
377.30 2.457
377.40 2.455
377.50 2.453
377.60 2.451
377.70 2.449
377.80 2.447
377.90 2.445
378.00 2.443
378.10 2.441
378.20 2.439
378.30 2.437
378.40 2.435
378.50 2.433
378.60 2.43
378.70 2.428
378.80 2.426
378.90 2.424
379.00 2.422
379.10 2.42
379.20 2.417
379.30 2.415
379.40 2.413
379.50 2.411
379.60 2.409
379.70 2.407
379.80 2.405
379.90 2.403
380.00 2.401
380.10 2.399
380.20 2.398
380.30 2.397
380.40 2.395
380.50 2.394
380.60 2.393
380.70 2.391
380.80 2.39
380.90 2.389
381.00 2.387
381.10 2.386
381.20 2.384
381.30 2.382
381.40 2.38
381.50 2.378
381.60 2.376
381.70 2.374
381.80 2.371
381.90 2.369
382.00 2.366
382.10 2.363
382.20 2.361
382.30 2.357
382.40 2.354
382.50 2.351
382.60 2.347
382.70 2.344
382.80 2.341
382.90 2.338
383.00 2.334
383.10 2.331
383.20 2.328
383.30 2.325
383.40 2.322
383.50 2.319
383.60 2.318
383.70 2.318
383.80 2.318
383.90 2.318
384.00 2.319
384.10 2.319
384.20 2.32
384.30 2.32
384.40 2.321
384.50 2.321
384.60 2.321
384.70 2.321
384.80 2.321
384.90 2.321
385.00 2.32
385.10 2.32
385.20 2.319
385.30 2.318
385.40 2.317
385.50 2.316
385.60 2.314
385.70 2.312
385.80 2.311
385.90 2.309
386.00 2.306
386.10 2.304
386.20 2.301
386.30 2.298
386.40 2.295
386.50 2.291
386.60 2.288
386.70 2.284
386.80 2.28
386.90 2.275
387.00 2.271
387.10 2.266
387.20 2.261
387.30 2.256
387.40 2.251
387.50 2.245
387.60 2.239
387.70 2.233
387.80 2.227
387.90 2.22
388.00 2.214
388.10 2.207
388.20 2.2
388.30 2.194
388.40 2.187
388.50 2.181
388.60 2.175
388.70 2.17
388.80 2.166
388.90 2.163
389.00 2.163
389.10 2.164
389.20 2.167
389.30 2.17
389.40 2.174
389.50 2.178
389.60 2.182
389.70 2.186
389.80 2.19
389.90 2.194
390.00 2.198
390.10 2.202
390.20 2.206
390.30 2.209
390.40 2.212
390.50 2.215
390.60 2.218
390.70 2.221
390.80 2.223
390.90 2.225
391.00 2.227
391.10 2.229
391.20 2.23
391.30 2.231
391.40 2.232
391.50 2.233
391.60 2.233
391.70 2.234
391.80 2.234
391.90 2.234
392.00 2.233
392.10 2.232
392.20 2.232
392.30 2.23
392.40 2.229
392.50 2.227
392.60 2.226
392.70 2.223
392.80 2.221
392.90 2.218
393.00 2.216
393.10 2.213
393.20 2.209
393.30 2.205
393.40 2.202
393.50 2.197
393.60 2.193
393.70 2.188
393.80 2.183
393.90 2.178
394.00 2.172
394.10 2.167
394.20 2.16
394.30 2.154
394.40 2.147
394.50 2.14
394.60 2.132
394.70 2.125
394.80 2.116
394.90 2.108
395.00 2.099
395.10 2.09
395.20 2.081
395.30 2.071
395.40 2.06
395.50 2.05
395.60 2.039
395.70 2.027
395.80 2.016
395.90 2.004
396.00 1.992
396.10 1.979
396.20 1.966
396.30 1.953
396.40 1.94
396.50 1.927
396.60 1.914
396.70 1.9
396.80 1.887
396.90 1.875
397.00 1.864
397.10 1.871
397.20 1.88
397.30 1.89
397.40 1.901
397.50 1.911
397.60 1.922
397.70 1.932
397.80 1.942
397.90 1.952
398.00 1.962
398.10 1.971
398.20 1.981
398.30 1.989
398.40 1.998
398.50 2.006
398.60 2.014
398.70 2.021
398.80 2.029
398.90 2.035
399.00 2.042
399.10 2.048
399.20 2.054
399.30 2.06
399.40 2.065
399.50 2.07
399.60 2.075
399.70 2.079
399.80 2.083
399.90 2.087
400.00 2.091
400.10 2.094
400.20 2.097
400.30 2.1
400.40 2.103
400.50 2.106
400.60 2.108
400.70 2.11
400.80 2.112
400.90 2.114
401.00 2.115
401.10 2.117
401.20 2.118
401.30 2.119
401.40 2.12
401.50 2.12
401.60 2.121
401.70 2.121
401.80 2.122
401.90 2.122
402.00 2.122
402.10 2.121
402.20 2.121
402.30 2.121
402.40 2.12
402.50 2.119
402.60 2.118
402.70 2.118
402.80 2.116
402.90 2.115
403.00 2.114
403.10 2.112
403.20 2.111
403.30 2.109
403.40 2.107
403.50 2.105
403.60 2.103
403.70 2.101
403.80 2.099
403.90 2.096
404.00 2.094
404.10 2.091
404.20 2.088
404.30 2.085
404.40 2.082
404.50 2.079
404.60 2.076
404.70 2.072
404.80 2.069
404.90 2.065
405.00 2.061
405.10 2.057
405.20 2.053
405.30 2.048
405.40 2.044
405.50 2.039
405.60 2.034
405.70 2.029
405.80 2.024
405.90 2.018
406.00 2.012
406.10 2.007
406.20 2
406.30 1.994
406.40 1.988
406.50 1.981
406.60 1.974
406.70 1.966
406.80 1.959
406.90 1.951
407.00 1.943
407.10 1.935
407.20 1.926
407.30 1.917
407.40 1.908
407.50 1.898
407.60 1.888
407.70 1.878
407.80 1.867
407.90 1.856
408.00 1.845
408.10 1.833
408.20 1.821
408.30 1.808
408.40 1.795
408.50 1.781
408.60 1.767
408.70 1.753
408.80 1.738
408.90 1.723
409.00 1.707
409.10 1.69
409.20 1.673
409.30 1.656
409.40 1.638
409.50 1.62
409.60 1.601
409.70 1.582
409.80 1.564
409.90 1.546
410.00 1.532
410.10 1.526
410.20 1.527
410.30 1.527
410.40 1.534
410.50 1.547
410.60 1.563
410.70 1.579
410.80 1.595
410.90 1.611
411.00 1.626
411.10 1.641
411.20 1.656
411.30 1.669
411.40 1.683
411.50 1.695
411.60 1.707
411.70 1.719
411.80 1.73
411.90 1.741
412.00 1.751
412.10 1.761
412.20 1.77
412.30 1.779
412.40 1.787
412.50 1.795
412.60 1.803
412.70 1.81
412.80 1.817
412.90 1.824
413.00 1.83
413.10 1.836
413.20 1.841
413.30 1.847
413.40 1.852
413.50 1.856
413.60 1.861
413.70 1.865
413.80 1.869
413.90 1.873
414.00 1.876
414.10 1.88
414.20 1.883
414.30 1.886
414.40 1.888
414.50 1.891
414.60 1.893
414.70 1.895
414.80 1.897
414.90 1.899
415.00 1.901
415.10 1.903
415.20 1.904
415.30 1.905
415.40 1.907
415.50 1.908
415.60 1.909
415.70 1.909
415.80 1.91
415.90 1.911
416.00 1.912
416.10 1.912
416.20 1.912
416.30 1.913
416.40 1.913
416.50 1.913
416.60 1.913
416.70 1.913
416.80 1.913
416.90 1.913
417.00 1.913
417.10 1.913
417.20 1.912
417.30 1.912
417.40 1.911
417.50 1.911
417.60 1.911
417.70 1.91
417.80 1.909
417.90 1.909
418.00 1.908
418.10 1.907
418.20 1.907
418.30 1.906
418.40 1.905
418.50 1.904
418.60 1.903
418.70 1.902
418.80 1.901
418.90 1.9
419.00 1.899
419.10 1.898
419.20 1.897
419.30 1.896
419.40 1.895
419.50 1.894
419.60 1.893
419.70 1.891
419.80 1.89
419.90 1.889
420.00 1.888
420.10 1.886
420.20 1.885
420.30 1.884
420.40 1.882
420.50 1.881
420.60 1.88
420.70 1.878
420.80 1.877
420.90 1.876
421.00 1.874
421.10 1.873
421.20 1.871
421.30 1.87
421.40 1.868
421.50 1.867
421.60 1.865
421.70 1.864
421.80 1.862
421.90 1.86
422.00 1.859
422.10 1.857
422.20 1.856
422.30 1.854
422.40 1.852
422.50 1.851
422.60 1.849
422.70 1.847
422.80 1.846
422.90 1.844
423.00 1.842
423.10 1.841
423.20 1.839
423.30 1.837
423.40 1.835
423.50 1.833
423.60 1.832
423.70 1.83
423.80 1.828
423.90 1.826
424.00 1.824
424.10 1.822
424.20 1.82
424.30 1.818
424.40 1.816
424.50 1.814
424.60 1.812
424.70 1.81
424.80 1.808
424.90 1.806
425.00 1.804
425.10 1.802
425.20 1.8
425.30 1.798
425.40 1.796
425.50 1.793
425.60 1.791
425.70 1.789
425.80 1.787
425.90 1.784
426.00 1.782
426.10 1.78
426.20 1.777
426.30 1.775
426.40 1.772
426.50 1.77
426.60 1.767
426.70 1.764
426.80 1.762
426.90 1.759
427.00 1.756
427.10 1.753
427.20 1.75
427.30 1.748
427.40 1.745
427.50 1.741
427.60 1.738
427.70 1.735
427.80 1.732
427.90 1.729
428.00 1.725
428.10 1.722
428.20 1.718
428.30 1.714
428.40 1.711
428.50 1.707
428.60 1.703
428.70 1.699
428.80 1.695
428.90 1.69
429.00 1.686
429.10 1.682
429.20 1.677
429.30 1.672
429.40 1.667
429.50 1.662
429.60 1.657
429.70 1.652
429.80 1.646
429.90 1.641
430.00 1.635
430.10 1.629
430.20 1.623
430.30 1.617
430.40 1.61
430.50 1.603
430.60 1.596
430.70 1.589
430.80 1.582
430.90 1.574
431.00 1.566
431.10 1.558
431.20 1.55
431.30 1.541
431.40 1.532
431.50 1.523
431.60 1.513
431.70 1.503
431.80 1.493
431.90 1.482
432.00 1.471
432.10 1.459
432.20 1.447
432.30 1.435
432.40 1.422
432.50 1.409
432.60 1.395
432.70 1.381
432.80 1.366
432.90 1.35
433.00 1.334
433.10 1.318
433.20 1.301
433.30 1.283
433.40 1.265
433.50 1.246
433.60 1.228
433.70 1.209
433.80 1.19
433.90 1.171
434.00 1.149
434.10 1.149
434.20 1.17
434.30 1.187
434.40 1.204
434.50 1.221
434.60 1.238
434.70 1.254
434.80 1.27
434.90 1.286
435.00 1.3
435.10 1.315
435.20 1.328
435.30 1.341
435.40 1.354
435.50 1.366
435.60 1.377
435.70 1.388
435.80 1.398
435.90 1.408
436.00 1.417
436.10 1.426
436.20 1.435
436.30 1.443
436.40 1.45
436.50 1.458
436.60 1.465
436.70 1.471
436.80 1.477
436.90 1.483
437.00 1.489
437.10 1.494
437.20 1.499
437.30 1.504
437.40 1.509
437.50 1.513
437.60 1.517
437.70 1.521
437.80 1.525
437.90 1.528
438.00 1.531
438.10 1.534
438.20 1.537
438.30 1.54
438.40 1.542
438.50 1.545
438.60 1.547
438.70 1.549
438.80 1.551
438.90 1.553
439.00 1.555
439.10 1.556
439.20 1.557
439.30 1.559
439.40 1.56
439.50 1.561
439.60 1.562
439.70 1.563
439.80 1.564
439.90 1.564
440.00 1.565
440.10 1.566
440.20 1.566
440.30 1.566
440.40 1.567
440.50 1.567
440.60 1.567
440.70 1.567
440.80 1.567
440.90 1.567
441.00 1.567
441.10 1.567
441.20 1.567
441.30 1.567
441.40 1.567
441.50 1.566
441.60 1.566
441.70 1.566
441.80 1.565
441.90 1.565
442.00 1.565
442.10 1.564
442.20 1.564
442.30 1.563
442.40 1.562
442.50 1.562
442.60 1.561
442.70 1.561
442.80 1.56
442.90 1.559
443.00 1.558
443.10 1.558
443.20 1.557
443.30 1.556
443.40 1.555
443.50 1.555
443.60 1.554
443.70 1.553
443.80 1.552
443.90 1.551
444.00 1.55
444.10 1.549
444.20 1.548
444.30 1.548
444.40 1.547
444.50 1.546
444.60 1.545
444.70 1.544
444.80 1.543
444.90 1.542
445.00 1.541
445.10 1.54
445.20 1.539
445.30 1.538
445.40 1.537
445.50 1.536
445.60 1.535
445.70 1.534
445.80 1.533
445.90 1.532
446.00 1.531
446.10 1.53
446.20 1.529
446.30 1.527
446.40 1.526
446.50 1.525
446.60 1.524
446.70 1.523
446.80 1.522
446.90 1.521
447.00 1.52
447.10 1.519
447.20 1.518
447.30 1.517
447.40 1.515
447.50 1.514
447.60 1.513
447.70 1.512
447.80 1.511
447.90 1.51
448.00 1.509
448.10 1.508
448.20 1.506
448.30 1.505
448.40 1.504
448.50 1.503
448.60 1.502
448.70 1.501
448.80 1.5
448.90 1.499
449.00 1.497
449.10 1.496
449.20 1.495
449.30 1.494
449.40 1.493
449.50 1.492
449.60 1.491
449.70 1.489
449.80 1.488
449.90 1.487
450.00 1.486
450.10 1.485
450.20 1.484
450.30 1.482
450.40 1.481
450.50 1.48
450.60 1.479
450.70 1.478
450.80 1.477
450.90 1.475
451.00 1.474
451.10 1.473
451.20 1.472
451.30 1.471
451.40 1.47
451.50 1.469
451.60 1.467
451.70 1.466
451.80 1.465
451.90 1.464
452.00 1.463
452.10 1.462
452.20 1.46
452.30 1.459
452.40 1.458
452.50 1.457
452.60 1.456
452.70 1.455
452.80 1.453
452.90 1.452
453.00 1.451
453.10 1.45
453.20 1.449
453.30 1.448
453.40 1.446
453.50 1.445
453.60 1.444
453.70 1.443
453.80 1.442
453.90 1.441
454.00 1.44
454.10 1.438
454.20 1.437
454.30 1.436
454.40 1.435
454.50 1.434
454.60 1.433
454.70 1.431
454.80 1.43
454.90 1.429
455.00 1.428
455.10 1.427
455.20 1.426
455.30 1.425
455.40 1.423
455.50 1.422
455.60 1.421
455.70 1.42
455.80 1.419
455.90 1.418
456.00 1.416
456.10 1.415
456.20 1.414
456.30 1.413
456.40 1.412
456.50 1.411
456.60 1.41
456.70 1.408
456.80 1.407
456.90 1.406
457.00 1.405
457.10 1.404
457.20 1.403
457.30 1.402
457.40 1.4
457.50 1.399
457.60 1.398
457.70 1.397
457.80 1.396
457.90 1.395
458.00 1.394
458.10 1.393
458.20 1.391
458.30 1.39
458.40 1.389
458.50 1.388
458.60 1.387
458.70 1.386
458.80 1.385
458.90 1.383
459.00 1.382
459.10 1.381
459.20 1.38
459.30 1.379
459.40 1.378
459.50 1.377
459.60 1.376
459.70 1.374
459.80 1.373
459.90 1.372
460.00 1.371
460.10 1.37
460.20 1.369
460.30 1.368
460.40 1.367
460.50 1.366
460.60 1.364
460.70 1.363
460.80 1.362
460.90 1.361
461.00 1.36
461.10 1.359
461.20 1.358
461.30 1.357
461.40 1.355
461.50 1.354
461.60 1.353
461.70 1.352
461.80 1.351
461.90 1.35
462.00 1.349
462.10 1.348
462.20 1.347
462.30 1.346
462.40 1.344
462.50 1.343
462.60 1.342
462.70 1.341
462.80 1.34
462.90 1.339
463.00 1.338
463.10 1.337
463.20 1.336
463.30 1.334
463.40 1.333
463.50 1.332
463.60 1.331
463.70 1.33
463.80 1.329
463.90 1.328
464.00 1.327
464.10 1.326
464.20 1.325
464.30 1.324
464.40 1.322
464.50 1.321
464.60 1.32
464.70 1.319
464.80 1.318
464.90 1.317
465.00 1.316
465.10 1.315
465.20 1.314
465.30 1.313
465.40 1.311
465.50 1.31
465.60 1.309
465.70 1.308
465.80 1.307
465.90 1.306
466.00 1.305
466.10 1.304
466.20 1.303
466.30 1.302
466.40 1.301
466.50 1.3
466.60 1.298
466.70 1.297
466.80 1.296
466.90 1.295
467.00 1.294
467.10 1.293
467.20 1.292
467.30 1.291
467.40 1.29
467.50 1.289
467.60 1.288
467.70 1.286
467.80 1.285
467.90 1.284
468.00 1.283
468.10 1.282
468.20 1.281
468.30 1.28
468.40 1.279
468.50 1.278
468.60 1.277
468.70 1.276
468.80 1.275
468.90 1.273
469.00 1.272
469.10 1.271
469.20 1.27
469.30 1.269
469.40 1.268
469.50 1.267
469.60 1.266
469.70 1.265
469.80 1.264
469.90 1.263
470.00 1.261
470.10 1.26
470.20 1.259
470.30 1.258
470.40 1.257
470.50 1.256
470.60 1.255
470.70 1.254
470.80 1.253
470.90 1.252
471.00 1.251
471.10 1.249
471.20 1.248
471.30 1.247
471.40 1.246
471.50 1.245
471.60 1.244
471.70 1.243
471.80 1.242
471.90 1.241
472.00 1.239
472.10 1.238
472.20 1.237
472.30 1.236
472.40 1.235
472.50 1.234
472.60 1.233
472.70 1.232
472.80 1.23
472.90 1.229
473.00 1.228
473.10 1.227
473.20 1.226
473.30 1.225
473.40 1.224
473.50 1.222
473.60 1.221
473.70 1.22
473.80 1.219
473.90 1.218
474.00 1.217
474.10 1.215
474.20 1.214
474.30 1.213
474.40 1.212
474.50 1.211
474.60 1.209
474.70 1.208
474.80 1.207
474.90 1.206
475.00 1.205
475.10 1.203
475.20 1.202
475.30 1.201
475.40 1.2
475.50 1.198
475.60 1.197
475.70 1.196
475.80 1.194
475.90 1.193
476.00 1.192
476.10 1.191
476.20 1.189
476.30 1.188
476.40 1.187
476.50 1.185
476.60 1.184
476.70 1.182
476.80 1.181
476.90 1.18
477.00 1.178
477.10 1.177
477.20 1.176
477.30 1.174
477.40 1.173
477.50 1.171
477.60 1.17
477.70 1.168
477.80 1.167
477.90 1.165
478.00 1.164
478.10 1.162
478.20 1.16
478.30 1.159
478.40 1.157
478.50 1.155
478.60 1.154
478.70 1.152
478.80 1.15
478.90 1.148
479.00 1.147
479.10 1.145
479.20 1.143
479.30 1.141
479.40 1.139
479.50 1.137
479.60 1.135
479.70 1.133
479.80 1.131
479.90 1.129
480.00 1.127
480.10 1.125
480.20 1.123
480.30 1.12
480.40 1.118
480.50 1.115
480.60 1.113
480.70 1.11
480.80 1.108
480.90 1.105
481.00 1.103
481.10 1.1
481.20 1.097
481.30 1.094
481.40 1.091
481.50 1.088
481.60 1.085
481.70 1.081
481.80 1.078
481.90 1.075
482.00 1.072
482.10 1.069
482.20 1.065
482.30 1.06
482.40 1.056
482.50 1.052
482.60 1.047
482.70 1.043
482.80 1.039
482.90 1.034
483.00 1.03
483.10 1.026
483.20 1.02
483.30 1.014
483.40 1.008
483.50 1.002
483.60 0.9963
483.70 0.9903
483.80 0.9843
483.90 0.9784
484.00 0.9724
484.10 0.9664
484.20 0.9591
484.30 0.9513
484.40 0.9435
484.50 0.9357
484.60 0.9278
484.70 0.9189
484.80 0.9094
484.90 0.9
485.00 0.8905
485.10 0.881
485.20 0.8706
485.30 0.8597
485.40 0.8483
485.50 0.8365
485.60 0.8241
485.70 0.8114
485.80 0.7982
485.90 0.7847
486.00 0.7711
486.10 0.7634
486.20 0.7626
486.30 0.774
486.40 0.7865
486.50 0.7988
486.60 0.8106
486.70 0.8222
486.80 0.833
486.90 0.8435
487.00 0.8533
487.10 0.8628
487.20 0.8714
487.30 0.8795
487.40 0.8876
487.50 0.8957
487.60 0.9037
487.70 0.9106
487.80 0.9169
487.90 0.9232
488.00 0.9296
488.10 0.9359
488.20 0.9409
488.30 0.9452
488.40 0.9496
488.50 0.954
488.60 0.9584
488.70 0.9628
488.80 0.9671
488.90 0.9715
489.00 0.9759
489.10 0.9802
489.20 0.9834
489.30 0.986
489.40 0.9886
489.50 0.9912
489.60 0.9937
489.70 0.9963
489.80 0.9989
489.90 1.001
490.00 1.004
490.10 1.007
490.20 1.008
490.30 1.01
490.40 1.011
490.50 1.013
490.60 1.014
490.70 1.016
490.80 1.017
490.90 1.018
491.00 1.02
491.10 1.021
491.20 1.022
491.30 1.023
491.40 1.024
491.50 1.024
491.60 1.025
491.70 1.026
491.80 1.026
491.90 1.027
492.00 1.028
492.10 1.028
492.20 1.029
492.30 1.029
492.40 1.029
492.50 1.029
492.60 1.03
492.70 1.03
492.80 1.03
492.90 1.03
493.00 1.03
493.10 1.031
493.20 1.031
493.30 1.031
493.40 1.03
493.50 1.03
493.60 1.03
493.70 1.03
493.80 1.03
493.90 1.03
494.00 1.03
494.10 1.03
494.20 1.03
494.30 1.029
494.40 1.029
494.50 1.029
494.60 1.028
494.70 1.028
494.80 1.028
494.90 1.028
495.00 1.027
495.10 1.027
495.20 1.027
495.30 1.026
495.40 1.026
495.50 1.025
495.60 1.025
495.70 1.024
495.80 1.024
495.90 1.024
496.00 1.023
496.10 1.023
496.20 1.022
496.30 1.022
496.40 1.021
496.50 1.021
496.60 1.02
496.70 1.02
496.80 1.019
496.90 1.019
497.00 1.018
497.10 1.018
497.20 1.017
497.30 1.016
497.40 1.016
497.50 1.015
497.60 1.015
497.70 1.014
497.80 1.014
497.90 1.013
498.00 1.012
498.10 1.012
498.20 1.011
498.30 1.011
498.40 1.01
498.50 1.009
498.60 1.009
498.70 1.008
498.80 1.008
498.90 1.007
499.00 1.006
499.10 1.006
499.20 1.005
499.30 1.004
499.40 1.004
499.50 1.003
499.60 1.003
499.70 1.002
499.80 1.001
499.90 1.001
500.00 1
500.10 0.9994
500.20 0.9987
500.30 0.998
500.40 0.9974
500.50 0.9967
500.60 0.9961
500.70 0.9954
500.80 0.9947
500.90 0.9941
501.00 0.9934
501.10 0.9928
501.20 0.9921
501.30 0.9914
501.40 0.9908
501.50 0.9901
501.60 0.9894
501.70 0.9887
501.80 0.9881
501.90 0.9874
502.00 0.9867
502.10 0.9861
502.20 0.9854
502.30 0.9847
502.40 0.984
502.50 0.9834
502.60 0.9827
502.70 0.982
502.80 0.9813
502.90 0.9806
503.00 0.98
503.10 0.9793
503.20 0.9786
503.30 0.9779
503.40 0.9772
503.50 0.9766
503.60 0.9759
503.70 0.9752
503.80 0.9745
503.90 0.9738
504.00 0.9731
504.10 0.9725
504.20 0.9718
504.30 0.9711
504.40 0.9704
504.50 0.9697
504.60 0.969
504.70 0.9683
504.80 0.9677
504.90 0.967
505.00 0.9663
505.10 0.9656
505.20 0.9649
505.30 0.9642
505.40 0.9636
505.50 0.9629
505.60 0.9622
505.70 0.9615
505.80 0.9608
505.90 0.9601
506.00 0.9595
506.10 0.9588
506.20 0.9581
506.30 0.9574
506.40 0.9567
506.50 0.956
506.60 0.9553
506.70 0.9547
506.80 0.954
506.90 0.9533
507.00 0.9526
507.10 0.9519
507.20 0.9513
507.30 0.9506
507.40 0.9499
507.50 0.9492
507.60 0.9485
507.70 0.9478
507.80 0.9472
507.90 0.9465
508.00 0.9458
508.10 0.9451
508.20 0.9444
508.30 0.9438
508.40 0.9431
508.50 0.9424
508.60 0.9417
508.70 0.9411
508.80 0.9404
508.90 0.9397
509.00 0.939
509.10 0.9383
509.20 0.9377
509.30 0.937
509.40 0.9363
509.50 0.9356
509.60 0.935
509.70 0.9343
509.80 0.9336
509.90 0.9329
510.00 0.9323
510.10 0.9316
510.20 0.9309
510.30 0.9303
510.40 0.9296
510.50 0.9289
510.60 0.9282
510.70 0.9276
510.80 0.9269
510.90 0.9262
511.00 0.9256
511.10 0.9249
511.20 0.9242
511.30 0.9236
511.40 0.9229
511.50 0.9222
511.60 0.9216
511.70 0.9209
511.80 0.9202
511.90 0.9196
512.00 0.9189
512.10 0.9182
512.20 0.9176
512.30 0.9169
512.40 0.9162
512.50 0.9156
512.60 0.9149
512.70 0.9142
512.80 0.9136
512.90 0.9129
513.00 0.9123
513.10 0.9116
513.20 0.9109
513.30 0.9103
513.40 0.9096
513.50 0.909
513.60 0.9083
513.70 0.9077
513.80 0.907
513.90 0.9063
514.00 0.9057
514.10 0.905
514.20 0.9044
514.30 0.9037
514.40 0.9031
514.50 0.9024
514.60 0.9018
514.70 0.9011
514.80 0.9005
514.90 0.8998
515.00 0.8992
515.10 0.8985
515.20 0.8979
515.30 0.8972
515.40 0.8966
515.50 0.8959
515.60 0.8953
515.70 0.8946
515.80 0.894
515.90 0.8933
516.00 0.8927
516.10 0.892
516.20 0.8914
516.30 0.8908
516.40 0.8901
516.50 0.8895
516.60 0.8888
516.70 0.8882
516.80 0.8875
516.90 0.8869
517.00 0.8863
517.10 0.8856
517.20 0.885
517.30 0.8843
517.40 0.8837
517.50 0.8831
517.60 0.8824
517.70 0.8818
517.80 0.8812
517.90 0.8805
518.00 0.8799
518.10 0.8793
518.20 0.8786
518.30 0.878
518.40 0.8774
518.50 0.8767
518.60 0.8761
518.70 0.8755
518.80 0.8748
518.90 0.8742
519.00 0.8736
519.10 0.8729
519.20 0.8723
519.30 0.8717
519.40 0.8711
519.50 0.8704
519.60 0.8698
519.70 0.8692
519.80 0.8685
519.90 0.8679
520.00 0.8673
520.10 0.8667
520.20 0.866
520.30 0.8654
520.40 0.8648
520.50 0.8642
520.60 0.8636
520.70 0.8629
520.80 0.8623
520.90 0.8617
521.00 0.8611
521.10 0.8605
521.20 0.8598
521.30 0.8592
521.40 0.8586
521.50 0.858
521.60 0.8574
521.70 0.8568
521.80 0.8561
521.90 0.8555
522.00 0.8549
522.10 0.8543
522.20 0.8537
522.30 0.8531
522.40 0.8525
522.50 0.8519
522.60 0.8512
522.70 0.8506
522.80 0.85
522.90 0.8494
523.00 0.8488
523.10 0.8482
523.20 0.8476
523.30 0.847
523.40 0.8464
523.50 0.8458
523.60 0.8452
523.70 0.8446
523.80 0.8439
523.90 0.8433
524.00 0.8427
524.10 0.8421
524.20 0.8415
524.30 0.8409
524.40 0.8403
524.50 0.8397
524.60 0.8391
524.70 0.8385
524.80 0.8379
524.90 0.8373
525.00 0.8367
525.10 0.8361
525.20 0.8355
525.30 0.8349
525.40 0.8343
525.50 0.8337
525.60 0.8331
525.70 0.8326
525.80 0.832
525.90 0.8314
526.00 0.8308
526.10 0.8302
526.20 0.8296
526.30 0.829
526.40 0.8284
526.50 0.8278
526.60 0.8272
526.70 0.8266
526.80 0.826
526.90 0.8255
527.00 0.8249
527.10 0.8243
527.20 0.8237
527.30 0.8231
527.40 0.8225
527.50 0.8219
527.60 0.8213
527.70 0.8208
527.80 0.8202
527.90 0.8196
528.00 0.819
528.10 0.8184
528.20 0.8178
528.30 0.8173
528.40 0.8167
528.50 0.8161
528.60 0.8155
528.70 0.8149
528.80 0.8144
528.90 0.8138
529.00 0.8132
529.10 0.8126
529.20 0.812
529.30 0.8115
529.40 0.8109
529.50 0.8103
529.60 0.8097
529.70 0.8092
529.80 0.8086
529.90 0.808
530.00 0.8074
530.10 0.8069
530.20 0.8063
530.30 0.8057
530.40 0.8052
530.50 0.8046
530.60 0.804
530.70 0.8034
530.80 0.8029
530.90 0.8023
531.00 0.8017
531.10 0.8012
531.20 0.8006
531.30 0.8
531.40 0.7995
531.50 0.7989
531.60 0.7983
531.70 0.7978
531.80 0.7972
531.90 0.7966
532.00 0.7961
532.10 0.7955
532.20 0.795
532.30 0.7944
532.40 0.7938
532.50 0.7933
532.60 0.7927
532.70 0.7922
532.80 0.7916
532.90 0.791
533.00 0.7905
533.10 0.7899
533.20 0.7894
533.30 0.7888
533.40 0.7882
533.50 0.7877
533.60 0.7871
533.70 0.7866
533.80 0.786
533.90 0.7855
534.00 0.7849
534.10 0.7844
534.20 0.7838
534.30 0.7833
534.40 0.7827
534.50 0.7822
534.60 0.7816
534.70 0.7811
534.80 0.7805
534.90 0.78
535.00 0.7794
535.10 0.7789
535.20 0.7783
535.30 0.7778
535.40 0.7772
535.50 0.7767
535.60 0.7761
535.70 0.7756
535.80 0.775
535.90 0.7745
536.00 0.7739
536.10 0.7734
536.20 0.7729
536.30 0.7723
536.40 0.7718
536.50 0.7712
536.60 0.7707
536.70 0.7701
536.80 0.7696
536.90 0.7691
537.00 0.7685
537.10 0.768
537.20 0.7674
537.30 0.7669
537.40 0.7664
537.50 0.7658
537.60 0.7653
537.70 0.7648
537.80 0.7642
537.90 0.7637
538.00 0.7632
538.10 0.7626
538.20 0.7621
538.30 0.7616
538.40 0.761
538.50 0.7605
538.60 0.76
538.70 0.7594
538.80 0.7589
538.90 0.7584
539.00 0.7578
539.10 0.7573
539.20 0.7568
539.30 0.7562
539.40 0.7557
539.50 0.7552
539.60 0.7547
539.70 0.7541
539.80 0.7536
539.90 0.7531
540.00 0.7526
540.10 0.752
540.20 0.7515
540.30 0.751
540.40 0.7505
540.50 0.7499
540.60 0.7494
540.70 0.7489
540.80 0.7484
540.90 0.7479
541.00 0.7473
541.10 0.7468
541.20 0.7463
541.30 0.7458
541.40 0.7453
541.50 0.7447
541.60 0.7442
541.70 0.7437
541.80 0.7432
541.90 0.7427
542.00 0.7421
542.10 0.7416
542.20 0.7411
542.30 0.7406
542.40 0.7401
542.50 0.7396
542.60 0.7391
542.70 0.7385
542.80 0.738
542.90 0.7375
543.00 0.737
543.10 0.7365
543.20 0.736
543.30 0.7355
543.40 0.735
543.50 0.7344
543.60 0.7339
543.70 0.7334
543.80 0.7329
543.90 0.7324
544.00 0.7319
544.10 0.7314
544.20 0.7309
544.30 0.7304
544.40 0.7299
544.50 0.7294
544.60 0.7289
544.70 0.7284
544.80 0.7279
544.90 0.7274
545.00 0.7269
545.10 0.7263
545.20 0.7258
545.30 0.7253
545.40 0.7248
545.50 0.7243
545.60 0.7238
545.70 0.7233
545.80 0.7228
545.90 0.7223
546.00 0.7218
546.10 0.7213
546.20 0.7208
546.30 0.7203
546.40 0.7198
546.50 0.7194
546.60 0.7189
546.70 0.7184
546.80 0.7179
546.90 0.7174
547.00 0.7169
547.10 0.7164
547.20 0.7159
547.30 0.7154
547.40 0.7149
547.50 0.7144
547.60 0.7139
547.70 0.7134
547.80 0.7129
547.90 0.7124
548.00 0.7119
548.10 0.7115
548.20 0.711
548.30 0.7105
548.40 0.71
548.50 0.7095
548.60 0.709
548.70 0.7085
548.80 0.708
548.90 0.7076
549.00 0.7071
549.10 0.7066
549.20 0.7061
549.30 0.7056
549.40 0.7051
549.50 0.7046
549.60 0.7042
549.70 0.7037
549.80 0.7032
549.90 0.7027
550.00 0.7022
550.10 0.7017
550.20 0.7013
550.30 0.7008
550.40 0.7003
550.50 0.6998
550.60 0.6993
550.70 0.6989
550.80 0.6984
550.90 0.6979
551.00 0.6974
551.10 0.6969
551.20 0.6965
551.30 0.696
551.40 0.6955
551.50 0.695
551.60 0.6946
551.70 0.6941
551.80 0.6936
551.90 0.6931
552.00 0.6927
552.10 0.6922
552.20 0.6917
552.30 0.6912
552.40 0.6908
552.50 0.6903
552.60 0.6898
552.70 0.6894
552.80 0.6889
552.90 0.6884
553.00 0.6879
553.10 0.6875
553.20 0.687
553.30 0.6865
553.40 0.6861
553.50 0.6856
553.60 0.6851
553.70 0.6847
553.80 0.6842
553.90 0.6837
554.00 0.6833
554.10 0.6828
554.20 0.6823
554.30 0.6819
554.40 0.6814
554.50 0.6809
554.60 0.6805
554.70 0.68
554.80 0.6795
554.90 0.6791
555.00 0.6786
555.10 0.6782
555.20 0.6777
555.30 0.6772
555.40 0.6768
555.50 0.6763
555.60 0.6759
555.70 0.6754
555.80 0.6749
555.90 0.6745
556.00 0.674
556.10 0.6736
556.20 0.6731
556.30 0.6727
556.40 0.6722
556.50 0.6717
556.60 0.6713
556.70 0.6708
556.80 0.6704
556.90 0.6699
557.00 0.6695
557.10 0.669
557.20 0.6686
557.30 0.6681
557.40 0.6677
557.50 0.6672
557.60 0.6667
557.70 0.6663
557.80 0.6658
557.90 0.6654
558.00 0.6649
558.10 0.6645
558.20 0.664
558.30 0.6636
558.40 0.6631
558.50 0.6627
558.60 0.6622
558.70 0.6618
558.80 0.6614
558.90 0.6609
559.00 0.6605
559.10 0.66
559.20 0.6596
559.30 0.6591
559.40 0.6587
559.50 0.6582
559.60 0.6578
559.70 0.6573
559.80 0.6569
559.90 0.6565
560.00 0.656
560.10 0.6556
560.20 0.6551
560.30 0.6547
560.40 0.6542
560.50 0.6538
560.60 0.6534
560.70 0.6529
560.80 0.6525
560.90 0.652
561.00 0.6516
561.10 0.6512
561.20 0.6507
561.30 0.6503
561.40 0.6498
561.50 0.6494
561.60 0.649
561.70 0.6485
561.80 0.6481
561.90 0.6477
562.00 0.6472
562.10 0.6468
562.20 0.6464
562.30 0.6459
562.40 0.6455
562.50 0.6451
562.60 0.6446
562.70 0.6442
562.80 0.6438
562.90 0.6433
563.00 0.6429
563.10 0.6425
563.20 0.642
563.30 0.6416
563.40 0.6412
563.50 0.6407
563.60 0.6403
563.70 0.6399
563.80 0.6394
563.90 0.639
564.00 0.6386
564.10 0.6382
564.20 0.6377
564.30 0.6373
564.40 0.6369
564.50 0.6365
564.60 0.636
564.70 0.6356
564.80 0.6352
564.90 0.6347
565.00 0.6343
565.10 0.6339
565.20 0.6335
565.30 0.6331
565.40 0.6326
565.50 0.6322
565.60 0.6318
565.70 0.6314
565.80 0.6309
565.90 0.6305
566.00 0.6301
566.10 0.6297
566.20 0.6293
566.30 0.6288
566.40 0.6284
566.50 0.628
566.60 0.6276
566.70 0.6272
566.80 0.6267
566.90 0.6263
567.00 0.6259
567.10 0.6255
567.20 0.6251
567.30 0.6246
567.40 0.6242
567.50 0.6238
567.60 0.6234
567.70 0.623
567.80 0.6226
567.90 0.6222
568.00 0.6217
568.10 0.6213
568.20 0.6209
568.30 0.6205
568.40 0.6201
568.50 0.6197
568.60 0.6193
568.70 0.6189
568.80 0.6184
568.90 0.618
569.00 0.6176
569.10 0.6172
569.20 0.6168
569.30 0.6164
569.40 0.616
569.50 0.6156
569.60 0.6152
569.70 0.6148
569.80 0.6143
569.90 0.6139
570.00 0.6135
570.10 0.6131
570.20 0.6127
570.30 0.6123
570.40 0.6119
570.50 0.6115
570.60 0.6111
570.70 0.6107
570.80 0.6103
570.90 0.6099
571.00 0.6095
571.10 0.6091
571.20 0.6087
571.30 0.6083
571.40 0.6079
571.50 0.6075
571.60 0.6071
571.70 0.6067
571.80 0.6062
571.90 0.6058
572.00 0.6054
572.10 0.605
572.20 0.6046
572.30 0.6042
572.40 0.6038
572.50 0.6034
572.60 0.603
572.70 0.6027
572.80 0.6023
572.90 0.6019
573.00 0.6015
573.10 0.6011
573.20 0.6007
573.30 0.6003
573.40 0.5999
573.50 0.5995
573.60 0.5991
573.70 0.5987
573.80 0.5983
573.90 0.5979
574.00 0.5975
574.10 0.5971
574.20 0.5967
574.30 0.5963
574.40 0.5959
574.50 0.5955
574.60 0.5951
574.70 0.5947
574.80 0.5944
574.90 0.594
575.00 0.5936
575.10 0.5932
575.20 0.5928
575.30 0.5924
575.40 0.592
575.50 0.5916
575.60 0.5912
575.70 0.5908
575.80 0.5905
575.90 0.5901
576.00 0.5897
576.10 0.5893
576.20 0.5889
576.30 0.5885
576.40 0.5881
576.50 0.5877
576.60 0.5874
576.70 0.587
576.80 0.5866
576.90 0.5862
577.00 0.5858
577.10 0.5854
577.20 0.585
577.30 0.5847
577.40 0.5843
577.50 0.5839
577.60 0.5835
577.70 0.5831
577.80 0.5828
577.90 0.5824
578.00 0.582
578.10 0.5816
578.20 0.5812
578.30 0.5808
578.40 0.5805
578.50 0.5801
578.60 0.5797
578.70 0.5793
578.80 0.5789
578.90 0.5786
579.00 0.5782
579.10 0.5778
579.20 0.5774
579.30 0.5771
579.40 0.5767
579.50 0.5763
579.60 0.5759
579.70 0.5755
579.80 0.5752
579.90 0.5748
580.00 0.5744
580.10 0.574
580.20 0.5737
580.30 0.5733
580.40 0.5729
580.50 0.5725
580.60 0.5722
580.70 0.5718
580.80 0.5714
580.90 0.5711
581.00 0.5707
581.10 0.5703
581.20 0.5699
581.30 0.5696
581.40 0.5692
581.50 0.5688
581.60 0.5685
581.70 0.5681
581.80 0.5677
581.90 0.5673
582.00 0.567
582.10 0.5666
582.20 0.5662
582.30 0.5659
582.40 0.5655
582.50 0.5651
582.60 0.5648
582.70 0.5644
582.80 0.564
582.90 0.5637
583.00 0.5633
583.10 0.5629
583.20 0.5626
583.30 0.5622
583.40 0.5618
583.50 0.5615
583.60 0.5611
583.70 0.5607
583.80 0.5604
583.90 0.56
584.00 0.5597
584.10 0.5593
584.20 0.5589
584.30 0.5586
584.40 0.5582
584.50 0.5578
584.60 0.5575
584.70 0.5571
584.80 0.5568
584.90 0.5564
585.00 0.556
585.10 0.5557
585.20 0.5553
585.30 0.555
585.40 0.5546
585.50 0.5542
585.60 0.5539
585.70 0.5535
585.80 0.5532
585.90 0.5528
586.00 0.5524
586.10 0.5521
586.20 0.5517
586.30 0.5514
586.40 0.551
586.50 0.5507
586.60 0.5503
586.70 0.55
586.80 0.5496
586.90 0.5492
587.00 0.5489
587.10 0.5485
587.20 0.5482
587.30 0.5478
587.40 0.5475
587.50 0.5471
587.60 0.5468
587.70 0.5464
587.80 0.5461
587.90 0.5457
588.00 0.5454
588.10 0.545
588.20 0.5447
588.30 0.5443
588.40 0.5439
588.50 0.5436
588.60 0.5432
588.70 0.5429
588.80 0.5425
588.90 0.5422
589.00 0.5419
589.10 0.5415
589.20 0.5412
589.30 0.5408
589.40 0.5405
589.50 0.5401
589.60 0.5398
589.70 0.5394
589.80 0.5391
589.90 0.5387
590.00 0.5384
590.10 0.538
590.20 0.5377
590.30 0.5373
590.40 0.537
590.50 0.5366
590.60 0.5363
590.70 0.536
590.80 0.5356
590.90 0.5353
591.00 0.5349
591.10 0.5346
591.20 0.5342
591.30 0.5339
591.40 0.5336
591.50 0.5332
591.60 0.5329
591.70 0.5325
591.80 0.5322
591.90 0.5318
592.00 0.5315
592.10 0.5312
592.20 0.5308
592.30 0.5305
592.40 0.5301
592.50 0.5298
592.60 0.5295
592.70 0.5291
592.80 0.5288
592.90 0.5285
593.00 0.5281
593.10 0.5278
593.20 0.5274
593.30 0.5271
593.40 0.5268
593.50 0.5264
593.60 0.5261
593.70 0.5258
593.80 0.5254
593.90 0.5251
594.00 0.5247
594.10 0.5244
594.20 0.5241
594.30 0.5237
594.40 0.5234
594.50 0.5231
594.60 0.5227
594.70 0.5224
594.80 0.5221
594.90 0.5217
595.00 0.5214
595.10 0.5211
595.20 0.5207
595.30 0.5204
595.40 0.5201
595.50 0.5197
595.60 0.5194
595.70 0.5191
595.80 0.5188
595.90 0.5184
596.00 0.5181
596.10 0.5178
596.20 0.5174
596.30 0.5171
596.40 0.5168
596.50 0.5164
596.60 0.5161
596.70 0.5158
596.80 0.5155
596.90 0.5151
597.00 0.5148
597.10 0.5145
597.20 0.5142
597.30 0.5138
597.40 0.5135
597.50 0.5132
597.60 0.5128
597.70 0.5125
597.80 0.5122
597.90 0.5119
598.00 0.5115
598.10 0.5112
598.20 0.5109
598.30 0.5106
598.40 0.5102
598.50 0.5099
598.60 0.5096
598.70 0.5093
598.80 0.509
598.90 0.5086
599.00 0.5083
599.10 0.508
599.20 0.5077
599.30 0.5073
599.40 0.507
599.50 0.5067
599.60 0.5064
599.70 0.5061
599.80 0.5057
599.90 0.5054
600.00 0.5051
600.10 0.5048
600.20 0.5045
600.30 0.5041
600.40 0.5038
600.50 0.5035
600.60 0.5032
600.70 0.5029
600.80 0.5025
600.90 0.5022
601.00 0.5019
601.10 0.5016
601.20 0.5013
601.30 0.501
601.40 0.5006
601.50 0.5003
601.60 0.5
601.70 0.4997
601.80 0.4994
601.90 0.4991
602.00 0.4988
602.10 0.4984
602.20 0.4981
602.30 0.4978
602.40 0.4975
602.50 0.4972
602.60 0.4969
602.70 0.4966
602.80 0.4962
602.90 0.4959
603.00 0.4956
603.10 0.4953
603.20 0.495
603.30 0.4947
603.40 0.4944
603.50 0.4941
603.60 0.4937
603.70 0.4934
603.80 0.4931
603.90 0.4928
604.00 0.4925
604.10 0.4922
604.20 0.4919
604.30 0.4916
604.40 0.4913
604.50 0.491
604.60 0.4906
604.70 0.4903
604.80 0.49
604.90 0.4897
605.00 0.4894
605.10 0.4891
605.20 0.4888
605.30 0.4885
605.40 0.4882
605.50 0.4879
605.60 0.4876
605.70 0.4873
605.80 0.487
605.90 0.4867
606.00 0.4863
606.10 0.486
606.20 0.4857
606.30 0.4854
606.40 0.4851
606.50 0.4848
606.60 0.4845
606.70 0.4842
606.80 0.4839
606.90 0.4836
607.00 0.4833
607.10 0.483
607.20 0.4827
607.30 0.4824
607.40 0.4821
607.50 0.4818
607.60 0.4815
607.70 0.4812
607.80 0.4809
607.90 0.4806
608.00 0.4803
608.10 0.48
608.20 0.4797
608.30 0.4794
608.40 0.4791
608.50 0.4788
608.60 0.4785
608.70 0.4782
608.80 0.4779
608.90 0.4776
609.00 0.4773
609.10 0.477
609.20 0.4767
609.30 0.4764
609.40 0.4761
609.50 0.4758
609.60 0.4755
609.70 0.4752
609.80 0.4749
609.90 0.4746
610.00 0.4743
610.10 0.474
610.20 0.4737
610.30 0.4734
610.40 0.4731
610.50 0.4728
610.60 0.4726
610.70 0.4723
610.80 0.472
610.90 0.4717
611.00 0.4714
611.10 0.4711
611.20 0.4708
611.30 0.4705
611.40 0.4702
611.50 0.4699
611.60 0.4696
611.70 0.4693
611.80 0.469
611.90 0.4687
612.00 0.4684
612.10 0.4682
612.20 0.4679
612.30 0.4676
612.40 0.4673
612.50 0.467
612.60 0.4667
612.70 0.4664
612.80 0.4661
612.90 0.4658
613.00 0.4655
613.10 0.4653
613.20 0.465
613.30 0.4647
613.40 0.4644
613.50 0.4641
613.60 0.4638
613.70 0.4635
613.80 0.4632
613.90 0.4629
614.00 0.4627
614.10 0.4624
614.20 0.4621
614.30 0.4618
614.40 0.4615
614.50 0.4612
614.60 0.4609
614.70 0.4607
614.80 0.4604
614.90 0.4601
615.00 0.4598
615.10 0.4595
615.20 0.4592
615.30 0.4589
615.40 0.4587
615.50 0.4584
615.60 0.4581
615.70 0.4578
615.80 0.4575
615.90 0.4572
616.00 0.457
616.10 0.4567
616.20 0.4564
616.30 0.4561
616.40 0.4558
616.50 0.4555
616.60 0.4553
616.70 0.455
616.80 0.4547
616.90 0.4544
617.00 0.4541
617.10 0.4539
617.20 0.4536
617.30 0.4533
617.40 0.453
617.50 0.4527
617.60 0.4525
617.70 0.4522
617.80 0.4519
617.90 0.4516
618.00 0.4513
618.10 0.4511
618.20 0.4508
618.30 0.4505
618.40 0.4502
618.50 0.4499
618.60 0.4497
618.70 0.4494
618.80 0.4491
618.90 0.4488
619.00 0.4486
619.10 0.4483
619.20 0.448
619.30 0.4477
619.40 0.4474
619.50 0.4472
619.60 0.4469
619.70 0.4466
619.80 0.4463
619.90 0.4461
620.00 0.4458
620.10 0.4455
620.20 0.4452
620.30 0.445
620.40 0.4447
620.50 0.4444
620.60 0.4442
620.70 0.4439
620.80 0.4436
620.90 0.4433
621.00 0.4431
621.10 0.4428
621.20 0.4425
621.30 0.4422
621.40 0.442
621.50 0.4417
621.60 0.4414
621.70 0.4411
621.80 0.4409
621.90 0.4406
622.00 0.4403
622.10 0.4401
622.20 0.4398
622.30 0.4395
622.40 0.4393
622.50 0.439
622.60 0.4387
622.70 0.4384
622.80 0.4382
622.90 0.4379
623.00 0.4376
623.10 0.4374
623.20 0.4371
623.30 0.4368
623.40 0.4366
623.50 0.4363
623.60 0.436
623.70 0.4358
623.80 0.4355
623.90 0.4352
624.00 0.4349
624.10 0.4347
624.20 0.4344
624.30 0.4341
624.40 0.4339
624.50 0.4336
624.60 0.4333
624.70 0.4331
624.80 0.4328
624.90 0.4325
625.00 0.4323
625.10 0.432
625.20 0.4318
625.30 0.4315
625.40 0.4312
625.50 0.431
625.60 0.4307
625.70 0.4304
625.80 0.4302
625.90 0.4299
626.00 0.4296
626.10 0.4294
626.20 0.4291
626.30 0.4288
626.40 0.4286
626.50 0.4283
626.60 0.4281
626.70 0.4278
626.80 0.4275
626.90 0.4273
627.00 0.427
627.10 0.4267
627.20 0.4265
627.30 0.4262
627.40 0.426
627.50 0.4257
627.60 0.4254
627.70 0.4252
627.80 0.4249
627.90 0.4246
628.00 0.4244
628.10 0.4241
628.20 0.4239
628.30 0.4236
628.40 0.4233
628.50 0.4231
628.60 0.4228
628.70 0.4226
628.80 0.4223
628.90 0.422
629.00 0.4218
629.10 0.4215
629.20 0.4213
629.30 0.421
629.40 0.4208
629.50 0.4205
629.60 0.4202
629.70 0.42
629.80 0.4197
629.90 0.4195
630.00 0.4192
630.10 0.4189
630.20 0.4187
630.30 0.4184
630.40 0.4182
630.50 0.4179
630.60 0.4177
630.70 0.4174
630.80 0.4171
630.90 0.4169
631.00 0.4166
631.10 0.4164
631.20 0.4161
631.30 0.4159
631.40 0.4156
631.50 0.4153
631.60 0.4151
631.70 0.4148
631.80 0.4146
631.90 0.4143
632.00 0.4141
632.10 0.4138
632.20 0.4136
632.30 0.4133
632.40 0.413
632.50 0.4128
632.60 0.4125
632.70 0.4123
632.80 0.412
632.90 0.4118
633.00 0.4115
633.10 0.4113
633.20 0.411
633.30 0.4108
633.40 0.4105
633.50 0.4102
633.60 0.41
633.70 0.4097
633.80 0.4095
633.90 0.4092
634.00 0.409
634.10 0.4087
634.20 0.4085
634.30 0.4082
634.40 0.408
634.50 0.4077
634.60 0.4075
634.70 0.4072
634.80 0.407
634.90 0.4067
635.00 0.4064
635.10 0.4062
635.20 0.4059
635.30 0.4057
635.40 0.4054
635.50 0.4052
635.60 0.4049
635.70 0.4047
635.80 0.4044
635.90 0.4042
636.00 0.4039
636.10 0.4037
636.20 0.4034
636.30 0.4032
636.40 0.4029
636.50 0.4027
636.60 0.4024
636.70 0.4022
636.80 0.4019
636.90 0.4017
637.00 0.4014
637.10 0.4011
637.20 0.4009
637.30 0.4006
637.40 0.4004
637.50 0.4001
637.60 0.3999
637.70 0.3996
637.80 0.3994
637.90 0.3991
638.00 0.3989
638.10 0.3986
638.20 0.3984
638.30 0.3981
638.40 0.3979
638.50 0.3976
638.60 0.3974
638.70 0.3971
638.80 0.3968
638.90 0.3966
639.00 0.3963
639.10 0.3961
639.20 0.3958
639.30 0.3956
639.40 0.3953
639.50 0.3951
639.60 0.3948
639.70 0.3946
639.80 0.3943
639.90 0.3941
640.00 0.3938
640.10 0.3935
640.20 0.3933
640.30 0.393
640.40 0.3928
640.50 0.3925
640.60 0.3923
640.70 0.392
640.80 0.3917
640.90 0.3915
641.00 0.3912
641.10 0.391
641.20 0.3907
641.30 0.3905
641.40 0.3902
641.50 0.3899
641.60 0.3897
641.70 0.3894
641.80 0.3892
641.90 0.3889
642.00 0.3886
642.10 0.3884
642.20 0.3881
642.30 0.3878
642.40 0.3876
642.50 0.3873
642.60 0.387
642.70 0.3868
642.80 0.3865
642.90 0.3862
643.00 0.386
643.10 0.3857
643.20 0.3855
643.30 0.3852
643.40 0.3849
643.50 0.3846
643.60 0.3844
643.70 0.3841
643.80 0.3838
643.90 0.3835
644.00 0.3833
644.10 0.383
644.20 0.3827
644.30 0.3824
644.40 0.3822
644.50 0.3819
644.60 0.3816
644.70 0.3813
644.80 0.381
644.90 0.3807
645.00 0.3805
645.10 0.3802
645.20 0.3799
645.30 0.3796
645.40 0.3793
645.50 0.379
645.60 0.3787
645.70 0.3784
645.80 0.3781
645.90 0.3778
646.00 0.3775
646.10 0.3772
646.20 0.3769
646.30 0.3766
646.40 0.3763
646.50 0.3759
646.60 0.3756
646.70 0.3753
646.80 0.375
646.90 0.3747
647.00 0.3743
647.10 0.374
647.20 0.3737
647.30 0.3734
647.40 0.373
647.50 0.3727
647.60 0.3723
647.70 0.3719
647.80 0.3716
647.90 0.3712
648.00 0.3709
648.10 0.3705
648.20 0.3702
648.30 0.3698
648.40 0.3694
648.50 0.369
648.60 0.3686
648.70 0.3682
648.80 0.3678
648.90 0.3674
649.00 0.367
649.10 0.3666
649.20 0.3662
649.30 0.3657
649.40 0.3653
649.50 0.3648
649.60 0.3643
649.70 0.3638
649.80 0.3634
649.90 0.3629
650.00 0.3624
650.10 0.3619
650.20 0.3615
650.30 0.361
650.40 0.3604
650.50 0.3598
650.60 0.3592
650.70 0.3586
650.80 0.358
650.90 0.3574
651.00 0.3568
651.10 0.3562
651.20 0.3556
651.30 0.355
651.40 0.3542
651.50 0.3535
651.60 0.3527
651.70 0.352
651.80 0.3512
651.90 0.3504
652.00 0.3497
652.10 0.3489
652.20 0.3481
652.30 0.3473
652.40 0.3463
652.50 0.3452
652.60 0.3442
652.70 0.3431
652.80 0.3421
652.90 0.3411
653.00 0.34
653.10 0.339
653.20 0.3379
653.30 0.3368
653.40 0.3353
653.50 0.3339
653.60 0.3324
653.70 0.3309
653.80 0.3295
653.90 0.328
654.00 0.3265
654.10 0.3251
654.20 0.3236
654.30 0.322
654.40 0.3201
654.50 0.3181
654.60 0.3162
654.70 0.3143
654.80 0.3123
654.90 0.3099
655.00 0.3076
655.10 0.3052
655.20 0.3029
655.30 0.3004
655.40 0.2977
655.50 0.295
655.60 0.2921
655.70 0.2891
655.80 0.2859
655.90 0.2826
656.00 0.2789
656.10 0.2751
656.20 0.2682
656.30 0.2661
656.40 0.271
656.50 0.2759
656.60 0.2794
656.70 0.2827
656.80 0.2855
656.90 0.2883
657.00 0.2909
657.10 0.2935
657.20 0.2958
657.30 0.2981
657.40 0.3001
657.50 0.3021
657.60 0.3041
657.70 0.3061
657.80 0.308
657.90 0.3096
658.00 0.3111
658.10 0.3127
658.20 0.3142
658.30 0.3157
658.40 0.3168
658.50 0.3178
658.60 0.3189
658.70 0.32
658.80 0.3211
658.90 0.3221
659.00 0.3232
659.10 0.3243
659.20 0.3253
659.30 0.3263
659.40 0.3269
659.50 0.3276
659.60 0.3282
659.70 0.3288
659.80 0.3294
659.90 0.3301
660.00 0.3307
660.10 0.3313
660.20 0.3319
660.30 0.3325
660.40 0.3328
660.50 0.3332
660.60 0.3335
660.70 0.3339
660.80 0.3342
660.90 0.3345
661.00 0.3349
661.10 0.3352
661.20 0.3356
661.30 0.3359
661.40 0.336
661.50 0.3362
661.60 0.3363
661.70 0.3365
661.80 0.3367
661.90 0.3368
662.00 0.337
662.10 0.3371
662.20 0.3373
662.30 0.3374
662.40 0.3375
662.50 0.3375
662.60 0.3376
662.70 0.3376
662.80 0.3377
662.90 0.3377
663.00 0.3378
663.10 0.3378
663.20 0.3379
663.30 0.3379
663.40 0.3379
663.50 0.3378
663.60 0.3378
663.70 0.3378
663.80 0.3378
663.90 0.3377
664.00 0.3377
664.10 0.3377
664.20 0.3377
664.30 0.3376
664.40 0.3375
664.50 0.3375
664.60 0.3374
664.70 0.3373
664.80 0.3372
664.90 0.3372
665.00 0.3371
665.10 0.337
665.20 0.3369
665.30 0.3369
665.40 0.3368
665.50 0.3367
665.60 0.3366
665.70 0.3364
665.80 0.3363
665.90 0.3362
666.00 0.3361
666.10 0.336
666.20 0.3359
666.30 0.3358
666.40 0.3357
666.50 0.3356
666.60 0.3354
666.70 0.3353
666.80 0.3352
666.90 0.335
667.00 0.3349
667.10 0.3348
667.20 0.3347
667.30 0.3345
667.40 0.3344
667.50 0.3342
667.60 0.3341
667.70 0.334
667.80 0.3338
667.90 0.3337
668.00 0.3335
668.10 0.3334
668.20 0.3332
668.30 0.3331
668.40 0.333
668.50 0.3328
668.60 0.3326
668.70 0.3325
668.80 0.3323
668.90 0.3322
669.00 0.332
669.10 0.3319
669.20 0.3317
669.30 0.3316
669.40 0.3314
669.50 0.3313
669.60 0.3311
669.70 0.3309
669.80 0.3308
669.90 0.3306
670.00 0.3305
670.10 0.3303
670.20 0.3301
670.30 0.33
670.40 0.3298
670.50 0.3297
670.60 0.3295
670.70 0.3293
670.80 0.3292
670.90 0.329
671.00 0.3288
671.10 0.3287
671.20 0.3285
671.30 0.3283
671.40 0.3282
671.50 0.328
671.60 0.3278
671.70 0.3277
671.80 0.3275
671.90 0.3273
672.00 0.3272
672.10 0.327
672.20 0.3268
672.30 0.3267
672.40 0.3265
672.50 0.3263
672.60 0.3262
672.70 0.326
672.80 0.3258
672.90 0.3257
673.00 0.3255
673.10 0.3253
673.20 0.3251
673.30 0.325
673.40 0.3248
673.50 0.3246
673.60 0.3245
673.70 0.3243
673.80 0.3241
673.90 0.3239
674.00 0.3238
674.10 0.3236
674.20 0.3234
674.30 0.3233
674.40 0.3231
674.50 0.3229
674.60 0.3227
674.70 0.3226
674.80 0.3224
674.90 0.3222
675.00 0.3221
675.10 0.3219
675.20 0.3217
675.30 0.3215
675.40 0.3214
675.50 0.3212
675.60 0.321
675.70 0.3208
675.80 0.3207
675.90 0.3205
676.00 0.3203
676.10 0.3202
676.20 0.32
676.30 0.3198
676.40 0.3196
676.50 0.3195
676.60 0.3193
676.70 0.3191
676.80 0.3189
676.90 0.3188
677.00 0.3186
677.10 0.3184
677.20 0.3183
677.30 0.3181
677.40 0.3179
677.50 0.3177
677.60 0.3176
677.70 0.3174
677.80 0.3172
677.90 0.317
678.00 0.3169
678.10 0.3167
678.20 0.3165
678.30 0.3164
678.40 0.3162
678.50 0.316
678.60 0.3158
678.70 0.3157
678.80 0.3155
678.90 0.3153
679.00 0.3152
679.10 0.315
679.20 0.3148
679.30 0.3146
679.40 0.3145
679.50 0.3143
679.60 0.3141
679.70 0.3139
679.80 0.3138
679.90 0.3136
680.00 0.3134
680.10 0.3133
680.20 0.3131
680.30 0.3129
680.40 0.3127
680.50 0.3126
680.60 0.3124
680.70 0.3122
680.80 0.3121
680.90 0.3119
681.00 0.3117
681.10 0.3115
681.20 0.3114
681.30 0.3112
681.40 0.311
681.50 0.3109
681.60 0.3107
681.70 0.3105
681.80 0.3104
681.90 0.3102
682.00 0.31
682.10 0.3098
682.20 0.3097
682.30 0.3095
682.40 0.3093
682.50 0.3092
682.60 0.309
682.70 0.3088
682.80 0.3087
682.90 0.3085
683.00 0.3083
683.10 0.3081
683.20 0.308
683.30 0.3078
683.40 0.3076
683.50 0.3075
683.60 0.3073
683.70 0.3071
683.80 0.307
683.90 0.3068
684.00 0.3066
684.10 0.3065
684.20 0.3063
684.30 0.3061
684.40 0.3059
684.50 0.3058
684.60 0.3056
684.70 0.3054
684.80 0.3053
684.90 0.3051
685.00 0.3049
685.10 0.3048
685.20 0.3046
685.30 0.3044
685.40 0.3043
685.50 0.3041
685.60 0.3039
685.70 0.3038
685.80 0.3036
685.90 0.3034
686.00 0.3033
686.10 0.3031
686.20 0.3029
686.30 0.3028
686.40 0.3026
686.50 0.3024
686.60 0.3023
686.70 0.3021
686.80 0.3019
686.90 0.3018
687.00 0.3016
687.10 0.3014
687.20 0.3013
687.30 0.3011
687.40 0.3009
687.50 0.3008
687.60 0.3006
687.70 0.3004
687.80 0.3003
687.90 0.3001
688.00 0.2999
688.10 0.2998
688.20 0.2996
688.30 0.2995
688.40 0.2993
688.50 0.2991
688.60 0.299
688.70 0.2988
688.80 0.2986
688.90 0.2985
689.00 0.2983
689.10 0.2981
689.20 0.298
689.30 0.2978
689.40 0.2976
689.50 0.2975
689.60 0.2973
689.70 0.2972
689.80 0.297
689.90 0.2968
690.00 0.2967
690.10 0.2965
690.20 0.2963
690.30 0.2962
690.40 0.296
690.50 0.2959
690.60 0.2957
690.70 0.2955
690.80 0.2954
690.90 0.2952
691.00 0.295
691.10 0.2949
691.20 0.2947
691.30 0.2946
691.40 0.2944
691.50 0.2942
691.60 0.2941
691.70 0.2939
691.80 0.2938
691.90 0.2936
692.00 0.2934
692.10 0.2933
692.20 0.2931
692.30 0.293
692.40 0.2928
692.50 0.2926
692.60 0.2925
692.70 0.2923
692.80 0.2922
692.90 0.292
693.00 0.2918
693.10 0.2917
693.20 0.2915
693.30 0.2914
693.40 0.2912
693.50 0.291
693.60 0.2909
693.70 0.2907
693.80 0.2906
693.90 0.2904
694.00 0.2902
694.10 0.2901
694.20 0.2899
694.30 0.2898
694.40 0.2896
694.50 0.2894
694.60 0.2893
694.70 0.2891
694.80 0.289
694.90 0.2888
695.00 0.2886
695.10 0.2885
695.20 0.2883
695.30 0.2882
695.40 0.288
695.50 0.2879
695.60 0.2877
695.70 0.2875
695.80 0.2874
695.90 0.2872
696.00 0.2871
696.10 0.2869
696.20 0.2868
696.30 0.2866
696.40 0.2864
696.50 0.2863
696.60 0.2861
696.70 0.286
696.80 0.2858
696.90 0.2857
697.00 0.2855
697.10 0.2854
697.20 0.2852
697.30 0.285
697.40 0.2849
697.50 0.2847
697.60 0.2846
697.70 0.2844
697.80 0.2843
697.90 0.2841
698.00 0.284
698.10 0.2838
698.20 0.2836
698.30 0.2835
698.40 0.2833
698.50 0.2832
698.60 0.283
698.70 0.2829
698.80 0.2827
698.90 0.2826
699.00 0.2824
699.10 0.2823
699.20 0.2821
699.30 0.282
699.40 0.2818
699.50 0.2816
699.60 0.2815
699.70 0.2813
699.80 0.2812
699.90 0.281
700.00 0.2809
700.10 0.2807
700.20 0.2806
700.30 0.2804
700.40 0.2803
700.50 0.2801
700.60 0.28
700.70 0.2798
700.80 0.2797
700.90 0.2795
701.00 0.2794
701.10 0.2792
701.20 0.2791
701.30 0.2789
701.40 0.2788
701.50 0.2786
701.60 0.2784
701.70 0.2783
701.80 0.2781
701.90 0.278
702.00 0.2778
702.10 0.2777
702.20 0.2775
702.30 0.2774
702.40 0.2772
702.50 0.2771
702.60 0.2769
702.70 0.2768
702.80 0.2766
702.90 0.2765
703.00 0.2763
703.10 0.2762
703.20 0.276
703.30 0.2759
703.40 0.2757
703.50 0.2756
703.60 0.2754
703.70 0.2753
703.80 0.2751
703.90 0.275
704.00 0.2748
704.10 0.2747
704.20 0.2745
704.30 0.2744
704.40 0.2743
704.50 0.2741
704.60 0.274
704.70 0.2738
704.80 0.2737
704.90 0.2735
705.00 0.2734
705.10 0.2732
705.20 0.2731
705.30 0.2729
705.40 0.2728
705.50 0.2726
705.60 0.2725
705.70 0.2723
705.80 0.2722
705.90 0.272
706.00 0.2719
706.10 0.2717
706.20 0.2716
706.30 0.2714
706.40 0.2713
706.50 0.2712
706.60 0.271
706.70 0.2709
706.80 0.2707
706.90 0.2706
707.00 0.2704
707.10 0.2703
707.20 0.2701
707.30 0.27
707.40 0.2698
707.50 0.2697
707.60 0.2696
707.70 0.2694
707.80 0.2693
707.90 0.2691
708.00 0.269
708.10 0.2688
708.20 0.2687
708.30 0.2685
708.40 0.2684
708.50 0.2682
708.60 0.2681
708.70 0.268
708.80 0.2678
708.90 0.2677
709.00 0.2675
709.10 0.2674
709.20 0.2672
709.30 0.2671
709.40 0.2669
709.50 0.2668
709.60 0.2667
709.70 0.2665
709.80 0.2664
709.90 0.2662
710.00 0.2661
710.10 0.2659
710.20 0.2658
710.30 0.2657
710.40 0.2655
710.50 0.2654
710.60 0.2652
710.70 0.2651
710.80 0.2649
710.90 0.2648
711.00 0.2647
711.10 0.2645
711.20 0.2644
711.30 0.2642
711.40 0.2641
711.50 0.264
711.60 0.2638
711.70 0.2637
711.80 0.2635
711.90 0.2634
712.00 0.2632
712.10 0.2631
712.20 0.263
712.30 0.2628
712.40 0.2627
712.50 0.2625
712.60 0.2624
712.70 0.2623
712.80 0.2621
712.90 0.262
713.00 0.2618
713.10 0.2617
713.20 0.2616
713.30 0.2614
713.40 0.2613
713.50 0.2611
713.60 0.261
713.70 0.2609
713.80 0.2607
713.90 0.2606
714.00 0.2604
714.10 0.2603
714.20 0.2602
714.30 0.26
714.40 0.2599
714.50 0.2597
714.60 0.2596
714.70 0.2595
714.80 0.2593
714.90 0.2592
715.00 0.259
715.10 0.2589
715.20 0.2588
715.30 0.2586
715.40 0.2585
715.50 0.2584
715.60 0.2582
715.70 0.2581
715.80 0.2579
715.90 0.2578
716.00 0.2577
716.10 0.2575
716.20 0.2574
716.30 0.2573
716.40 0.2571
716.50 0.257
716.60 0.2569
716.70 0.2567
716.80 0.2566
716.90 0.2564
717.00 0.2563
717.10 0.2562
717.20 0.256
717.30 0.2559
717.40 0.2558
717.50 0.2556
717.60 0.2555
717.70 0.2554
717.80 0.2552
717.90 0.2551
718.00 0.2549
718.10 0.2548
718.20 0.2547
718.30 0.2545
718.40 0.2544
718.50 0.2543
718.60 0.2541
718.70 0.254
718.80 0.2539
718.90 0.2537
719.00 0.2536
719.10 0.2535
719.20 0.2533
719.30 0.2532
719.40 0.253
719.50 0.2529
719.60 0.2528
719.70 0.2526
719.80 0.2525
719.90 0.2524
720.00 0.2522
720.10 0.2521
720.20 0.252
720.30 0.2518
720.40 0.2517
720.50 0.2516
720.60 0.2514
720.70 0.2513
720.80 0.2512
720.90 0.251
721.00 0.2509
721.10 0.2508
721.20 0.2506
721.30 0.2505
721.40 0.2504
721.50 0.2502
721.60 0.2501
721.70 0.25
721.80 0.2499
721.90 0.2497
722.00 0.2496
722.10 0.2495
722.20 0.2493
722.30 0.2492
722.40 0.2491
722.50 0.2489
722.60 0.2488
722.70 0.2487
722.80 0.2485
722.90 0.2484
723.00 0.2483
723.10 0.2481
723.20 0.248
723.30 0.2479
723.40 0.2477
723.50 0.2476
723.60 0.2475
723.70 0.2474
723.80 0.2472
723.90 0.2471
724.00 0.247
724.10 0.2468
724.20 0.2467
724.30 0.2466
724.40 0.2464
724.50 0.2463
724.60 0.2462
724.70 0.246
724.80 0.2459
724.90 0.2458
725.00 0.2457
725.10 0.2455
725.20 0.2454
725.30 0.2453
725.40 0.2451
725.50 0.245
725.60 0.2449
725.70 0.2448
725.80 0.2446
725.90 0.2445
726.00 0.2444
726.10 0.2442
726.20 0.2441
726.30 0.244
726.40 0.2439
726.50 0.2437
726.60 0.2436
726.70 0.2435
726.80 0.2433
726.90 0.2432
727.00 0.2431
727.10 0.243
727.20 0.2428
727.30 0.2427
727.40 0.2426
727.50 0.2424
727.60 0.2423
727.70 0.2422
727.80 0.2421
727.90 0.2419
728.00 0.2418
728.10 0.2417
728.20 0.2416
728.30 0.2414
728.40 0.2413
728.50 0.2412
728.60 0.2411
728.70 0.2409
728.80 0.2408
728.90 0.2407
729.00 0.2405
729.10 0.2404
729.20 0.2403
729.30 0.2402
729.40 0.24
729.50 0.2399
729.60 0.2398
729.70 0.2397
729.80 0.2395
729.90 0.2394
730.00 0.2393
730.10 0.2392
730.20 0.239
730.30 0.2389
730.40 0.2388
730.50 0.2387
730.60 0.2385
730.70 0.2384
730.80 0.2383
730.90 0.2382
731.00 0.238
731.10 0.2379
731.20 0.2378
731.30 0.2377
731.40 0.2375
731.50 0.2374
731.60 0.2373
731.70 0.2372
731.80 0.2371
731.90 0.2369
732.00 0.2368
732.10 0.2367
732.20 0.2366
732.30 0.2364
732.40 0.2363
732.50 0.2362
732.60 0.2361
732.70 0.2359
732.80 0.2358
732.90 0.2357
733.00 0.2356
733.10 0.2355
733.20 0.2353
733.30 0.2352
733.40 0.2351
733.50 0.235
733.60 0.2348
733.70 0.2347
733.80 0.2346
733.90 0.2345
734.00 0.2344
734.10 0.2342
734.20 0.2341
734.30 0.234
734.40 0.2339
734.50 0.2337
734.60 0.2336
734.70 0.2335
734.80 0.2334
734.90 0.2333
735.00 0.2331
735.10 0.233
735.20 0.2329
735.30 0.2328
735.40 0.2327
735.50 0.2325
735.60 0.2324
735.70 0.2323
735.80 0.2322
735.90 0.232
736.00 0.2319
736.10 0.2318
736.20 0.2317
736.30 0.2316
736.40 0.2314
736.50 0.2313
736.60 0.2312
736.70 0.2311
736.80 0.231
736.90 0.2308
737.00 0.2307
737.10 0.2306
737.20 0.2305
737.30 0.2304
737.40 0.2302
737.50 0.2301
737.60 0.23
737.70 0.2299
737.80 0.2298
737.90 0.2296
738.00 0.2295
738.10 0.2294
738.20 0.2293
738.30 0.2292
738.40 0.229
738.50 0.2289
738.60 0.2288
738.70 0.2287
738.80 0.2286
738.90 0.2284
739.00 0.2283
739.10 0.2282
739.20 0.2281
739.30 0.228
739.40 0.2279
739.50 0.2277
739.60 0.2276
739.70 0.2275
739.80 0.2274
739.90 0.2273
740.00 0.2271
740.10 0.227
740.20 0.2269
740.30 0.2268
740.40 0.2267
740.50 0.2266
740.60 0.2264
740.70 0.2263
740.80 0.2262
740.90 0.2261
741.00 0.226
741.10 0.2259
741.20 0.2257
741.30 0.2256
741.40 0.2255
741.50 0.2254
741.60 0.2253
741.70 0.2252
741.80 0.2251
741.90 0.2249
742.00 0.2248
742.10 0.2247
742.20 0.2246
742.30 0.2245
742.40 0.2244
742.50 0.2242
742.60 0.2241
742.70 0.224
742.80 0.2239
742.90 0.2238
743.00 0.2237
743.10 0.2236
743.20 0.2234
743.30 0.2233
743.40 0.2232
743.50 0.2231
743.60 0.223
743.70 0.2229
743.80 0.2228
743.90 0.2226
744.00 0.2225
744.10 0.2224
744.20 0.2223
744.30 0.2222
744.40 0.2221
744.50 0.222
744.60 0.2218
744.70 0.2217
744.80 0.2216
744.90 0.2215
745.00 0.2214
745.10 0.2213
745.20 0.2212
745.30 0.221
745.40 0.2209
745.50 0.2208
745.60 0.2207
745.70 0.2206
745.80 0.2205
745.90 0.2204
746.00 0.2202
746.10 0.2201
746.20 0.22
746.30 0.2199
746.40 0.2198
746.50 0.2197
746.60 0.2196
746.70 0.2195
746.80 0.2193
746.90 0.2192
747.00 0.2191
747.10 0.219
747.20 0.2189
747.30 0.2188
747.40 0.2187
747.50 0.2186
747.60 0.2184
747.70 0.2183
747.80 0.2182
747.90 0.2181
748.00 0.218
748.10 0.2179
748.20 0.2178
748.30 0.2177
748.40 0.2175
748.50 0.2174
748.60 0.2173
748.70 0.2172
748.80 0.2171
748.90 0.217
749.00 0.2169
749.10 0.2168
749.20 0.2167
749.30 0.2165
749.40 0.2164
749.50 0.2163
749.60 0.2162
749.70 0.2161
749.80 0.216
749.90 0.2159
750.00 0.2158
750.10 0.2157
750.20 0.2155
750.30 0.2154
750.40 0.2153
750.50 0.2152
750.60 0.2151
750.70 0.215
750.80 0.2149
750.90 0.2148
751.00 0.2147
751.10 0.2146
751.20 0.2145
751.30 0.2143
751.40 0.2142
751.50 0.2141
751.60 0.214
751.70 0.2139
751.80 0.2138
751.90 0.2137
752.00 0.2136
752.10 0.2135
752.20 0.2134
752.30 0.2133
752.40 0.2132
752.50 0.213
752.60 0.2129
752.70 0.2128
752.80 0.2127
752.90 0.2126
753.00 0.2125
753.10 0.2124
753.20 0.2123
753.30 0.2122
753.40 0.2121
753.50 0.212
753.60 0.2119
753.70 0.2118
753.80 0.2116
753.90 0.2115
754.00 0.2114
754.10 0.2113
754.20 0.2112
754.30 0.2111
754.40 0.211
754.50 0.2109
754.60 0.2108
754.70 0.2107
754.80 0.2106
754.90 0.2105
755.00 0.2104
755.10 0.2103
755.20 0.2101
755.30 0.21
755.40 0.2099
755.50 0.2098
755.60 0.2097
755.70 0.2096
755.80 0.2095
755.90 0.2094
756.00 0.2093
756.10 0.2092
756.20 0.2091
756.30 0.209
756.40 0.2089
756.50 0.2088
756.60 0.2087
756.70 0.2086
756.80 0.2084
756.90 0.2083
757.00 0.2082
757.10 0.2081
757.20 0.208
757.30 0.2079
757.40 0.2078
757.50 0.2077
757.60 0.2076
757.70 0.2075
757.80 0.2074
757.90 0.2073
758.00 0.2072
758.10 0.2071
758.20 0.207
758.30 0.2069
758.40 0.2068
758.50 0.2067
758.60 0.2065
758.70 0.2064
758.80 0.2063
758.90 0.2062
759.00 0.2061
759.10 0.206
759.20 0.2059
759.30 0.2058
759.40 0.2057
759.50 0.2056
759.60 0.2055
759.70 0.2054
759.80 0.2053
759.90 0.2052
760.00 0.2051
760.10 0.205
760.20 0.2049
760.30 0.2048
760.40 0.2047
760.50 0.2046
760.60 0.2045
760.70 0.2044
760.80 0.2043
760.90 0.2042
761.00 0.2041
761.10 0.204
761.20 0.2039
761.30 0.2038
761.40 0.2037
761.50 0.2035
761.60 0.2034
761.70 0.2033
761.80 0.2032
761.90 0.2031
762.00 0.203
762.10 0.2029
762.20 0.2028
762.30 0.2027
762.40 0.2026
762.50 0.2025
762.60 0.2024
762.70 0.2023
762.80 0.2022
762.90 0.2021
763.00 0.202
763.10 0.2019
763.20 0.2018
763.30 0.2017
763.40 0.2016
763.50 0.2015
763.60 0.2014
763.70 0.2013
763.80 0.2012
763.90 0.2011
764.00 0.201
764.10 0.2009
764.20 0.2008
764.30 0.2007
764.40 0.2006
764.50 0.2005
764.60 0.2004
764.70 0.2003
764.80 0.2002
764.90 0.2001
765.00 0.2
765.10 0.1999
765.20 0.1998
765.30 0.1997
765.40 0.1996
765.50 0.1995
765.60 0.1994
765.70 0.1993
765.80 0.1992
765.90 0.1991
766.00 0.199
766.10 0.1989
766.20 0.1988
766.30 0.1987
766.40 0.1986
766.50 0.1985
766.60 0.1984
766.70 0.1983
766.80 0.1982
766.90 0.1981
767.00 0.198
767.10 0.1979
767.20 0.1978
767.30 0.1977
767.40 0.1976
767.50 0.1975
767.60 0.1974
767.70 0.1973
767.80 0.1972
767.90 0.1971
768.00 0.197
768.10 0.1969
768.20 0.1968
768.30 0.1967
768.40 0.1966
768.50 0.1965
768.60 0.1964
768.70 0.1963
768.80 0.1962
768.90 0.1961
769.00 0.196
769.10 0.1959
769.20 0.1958
769.30 0.1957
769.40 0.1956
769.50 0.1955
769.60 0.1954
769.70 0.1954
769.80 0.1953
769.90 0.1952
770.00 0.1951
770.10 0.195
770.20 0.1949
770.30 0.1948
770.40 0.1947
770.50 0.1946
770.60 0.1945
770.70 0.1944
770.80 0.1943
770.90 0.1942
771.00 0.1941
771.10 0.194
771.20 0.1939
771.30 0.1938
771.40 0.1937
771.50 0.1936
771.60 0.1935
771.70 0.1934
771.80 0.1933
771.90 0.1932
772.00 0.1931
772.10 0.193
772.20 0.1929
772.30 0.1929
772.40 0.1928
772.50 0.1927
772.60 0.1926
772.70 0.1925
772.80 0.1924
772.90 0.1923
773.00 0.1922
773.10 0.1921
773.20 0.192
773.30 0.1919
773.40 0.1918
773.50 0.1917
773.60 0.1916
773.70 0.1915
773.80 0.1914
773.90 0.1913
774.00 0.1912
774.10 0.1911
774.20 0.191
774.30 0.191
774.40 0.1909
774.50 0.1908
774.60 0.1907
774.70 0.1906
774.80 0.1905
774.90 0.1904
775.00 0.1903
775.10 0.1902
775.20 0.1901
775.30 0.19
775.40 0.1899
775.50 0.1898
775.60 0.1897
775.70 0.1896
775.80 0.1895
775.90 0.1894
776.00 0.1894
776.10 0.1893
776.20 0.1892
776.30 0.1891
776.40 0.189
776.50 0.1889
776.60 0.1888
776.70 0.1887
776.80 0.1886
776.90 0.1885
777.00 0.1884
777.10 0.1883
777.20 0.1882
777.30 0.1881
777.40 0.188
777.50 0.188
777.60 0.1879
777.70 0.1878
777.80 0.1877
777.90 0.1876
778.00 0.1875
778.10 0.1874
778.20 0.1873
778.30 0.1872
778.40 0.1871
778.50 0.187
778.60 0.1869
778.70 0.1868
778.80 0.1867
778.90 0.1867
779.00 0.1866
779.10 0.1865
779.20 0.1864
779.30 0.1863
779.40 0.1862
779.50 0.1861
779.60 0.186
779.70 0.1859
779.80 0.1858
779.90 0.1857
780.00 0.1856
780.10 0.1855
780.20 0.1855
780.30 0.1854
780.40 0.1853
780.50 0.1852
780.60 0.1851
780.70 0.185
780.80 0.1849
780.90 0.1848
781.00 0.1847
781.10 0.1846
781.20 0.1846
781.30 0.1845
781.40 0.1844
781.50 0.1843
781.60 0.1842
781.70 0.1841
781.80 0.184
781.90 0.1839
782.00 0.1838
782.10 0.1837
782.20 0.1837
782.30 0.1836
782.40 0.1835
782.50 0.1834
782.60 0.1833
782.70 0.1832
782.80 0.1831
782.90 0.183
783.00 0.1829
783.10 0.1828
783.20 0.1828
783.30 0.1827
783.40 0.1826
783.50 0.1825
783.60 0.1824
783.70 0.1823
783.80 0.1822
783.90 0.1821
784.00 0.182
784.10 0.182
784.20 0.1819
784.30 0.1818
784.40 0.1817
784.50 0.1816
784.60 0.1815
784.70 0.1814
784.80 0.1813
784.90 0.1812
785.00 0.1812
785.10 0.1811
785.20 0.181
785.30 0.1809
785.40 0.1808
785.50 0.1807
785.60 0.1806
785.70 0.1805
785.80 0.1805
785.90 0.1804
786.00 0.1803
786.10 0.1802
786.20 0.1801
786.30 0.18
786.40 0.1799
786.50 0.1798
786.60 0.1797
786.70 0.1797
786.80 0.1796
786.90 0.1795
787.00 0.1794
787.10 0.1793
787.20 0.1792
787.30 0.1791
787.40 0.179
787.50 0.179
787.60 0.1789
787.70 0.1788
787.80 0.1787
787.90 0.1786
788.00 0.1785
788.10 0.1784
788.20 0.1783
788.30 0.1783
788.40 0.1782
788.50 0.1781
788.60 0.178
788.70 0.1779
788.80 0.1778
788.90 0.1777
789.00 0.1776
789.10 0.1776
789.20 0.1775
789.30 0.1774
789.40 0.1773
789.50 0.1772
789.60 0.1771
789.70 0.177
789.80 0.177
789.90 0.1769
790.00 0.1768
790.10 0.1767
790.20 0.1766
790.30 0.1765
790.40 0.1764
790.50 0.1764
790.60 0.1763
790.70 0.1762
790.80 0.1761
790.90 0.176
791.00 0.1759
791.10 0.1758
791.20 0.1758
791.30 0.1757
791.40 0.1756
791.50 0.1755
791.60 0.1754
791.70 0.1753
791.80 0.1753
791.90 0.1752
792.00 0.1751
792.10 0.175
792.20 0.1749
792.30 0.1748
792.40 0.1747
792.50 0.1747
792.60 0.1746
792.70 0.1745
792.80 0.1744
792.90 0.1743
793.00 0.1742
793.10 0.1742
793.20 0.1741
793.30 0.174
793.40 0.1739
793.50 0.1738
793.60 0.1737
793.70 0.1737
793.80 0.1736
793.90 0.1735
794.00 0.1734
794.10 0.1733
794.20 0.1732
794.30 0.1731
794.40 0.1731
794.50 0.173
794.60 0.1729
794.70 0.1728
794.80 0.1727
794.90 0.1726
795.00 0.1726
795.10 0.1725
795.20 0.1724
795.30 0.1723
795.40 0.1722
795.50 0.1721
795.60 0.1721
795.70 0.172
795.80 0.1719
795.90 0.1718
796.00 0.1717
796.10 0.1716
796.20 0.1716
796.30 0.1715
796.40 0.1714
796.50 0.1713
796.60 0.1712
796.70 0.1712
796.80 0.1711
796.90 0.171
797.00 0.1709
797.10 0.1708
797.20 0.1707
797.30 0.1707
797.40 0.1706
797.50 0.1705
797.60 0.1704
797.70 0.1703
797.80 0.1702
797.90 0.1702
798.00 0.1701
798.10 0.17
798.20 0.1699
798.30 0.1698
798.40 0.1698
798.50 0.1697
798.60 0.1696
798.70 0.1695
798.80 0.1694
798.90 0.1693
799.00 0.1693
799.10 0.1692
799.20 0.1691
799.30 0.169
799.40 0.1689
799.50 0.1688
799.60 0.1688
799.70 0.1687
799.80 0.1686
799.90 0.1685
800.00 0.1684
800.10 0.1684
800.20 0.1683
800.30 0.1682
800.40 0.1681
800.50 0.168
800.60 0.168
800.70 0.1679
800.80 0.1678
800.90 0.1677
801.00 0.1676
801.10 0.1676
801.20 0.1675
801.30 0.1674
801.40 0.1673
801.50 0.1672
801.60 0.1672
801.70 0.1671
801.80 0.167
801.90 0.1669
802.00 0.1668
802.10 0.1668
802.20 0.1667
802.30 0.1666
802.40 0.1665
802.50 0.1664
802.60 0.1664
802.70 0.1663
802.80 0.1662
802.90 0.1661
803.00 0.1661
803.10 0.166
803.20 0.1659
803.30 0.1658
803.40 0.1657
803.50 0.1657
803.60 0.1656
803.70 0.1655
803.80 0.1654
803.90 0.1653
804.00 0.1653
804.10 0.1652
804.20 0.1651
804.30 0.165
804.40 0.1649
804.50 0.1649
804.60 0.1648
804.70 0.1647
804.80 0.1646
804.90 0.1646
805.00 0.1645
805.10 0.1644
805.20 0.1643
805.30 0.1642
805.40 0.1642
805.50 0.1641
805.60 0.164
805.70 0.1639
805.80 0.1638
805.90 0.1638
806.00 0.1637
806.10 0.1636
806.20 0.1635
806.30 0.1635
806.40 0.1634
806.50 0.1633
806.60 0.1632
806.70 0.1631
806.80 0.1631
806.90 0.163
807.00 0.1629
807.10 0.1628
807.20 0.1628
807.30 0.1627
807.40 0.1626
807.50 0.1625
807.60 0.1624
807.70 0.1624
807.80 0.1623
807.90 0.1622
808.00 0.1621
808.10 0.1621
808.20 0.162
808.30 0.1619
808.40 0.1618
808.50 0.1617
808.60 0.1617
808.70 0.1616
808.80 0.1615
808.90 0.1614
809.00 0.1614
809.10 0.1613
809.20 0.1612
809.30 0.1611
809.40 0.1611
809.50 0.161
809.60 0.1609
809.70 0.1608
809.80 0.1607
809.90 0.1607
810.00 0.1606
810.10 0.1605
810.20 0.1604
810.30 0.1604
810.40 0.1603
810.50 0.1602
810.60 0.1601
810.70 0.1601
810.80 0.16
810.90 0.1599
811.00 0.1598
811.10 0.1598
811.20 0.1597
811.30 0.1596
811.40 0.1595
811.50 0.1595
811.60 0.1594
811.70 0.1593
811.80 0.1592
811.90 0.1592
812.00 0.1591
812.10 0.159
812.20 0.1589
812.30 0.1589
812.40 0.1588
812.50 0.1587
812.60 0.1586
812.70 0.1586
812.80 0.1585
812.90 0.1584
813.00 0.1583
813.10 0.1583
813.20 0.1582
813.30 0.1581
813.40 0.158
813.50 0.158
813.60 0.1579
813.70 0.1578
813.80 0.1577
813.90 0.1577
814.00 0.1576
814.10 0.1575
814.20 0.1574
814.30 0.1574
814.40 0.1573
814.50 0.1572
814.60 0.1571
814.70 0.1571
814.80 0.157
814.90 0.1569
815.00 0.1569
815.10 0.1568
815.20 0.1567
815.30 0.1566
815.40 0.1566
815.50 0.1565
815.60 0.1564
815.70 0.1563
815.80 0.1563
815.90 0.1562
816.00 0.1561
816.10 0.156
816.20 0.156
816.30 0.1559
816.40 0.1558
816.50 0.1557
816.60 0.1557
816.70 0.1556
816.80 0.1555
816.90 0.1555
817.00 0.1554
817.10 0.1553
817.20 0.1552
817.30 0.1552
817.40 0.1551
817.50 0.155
817.60 0.1549
817.70 0.1549
817.80 0.1548
817.90 0.1547
818.00 0.1546
818.10 0.1546
818.20 0.1545
818.30 0.1544
818.40 0.1544
818.50 0.1543
818.60 0.1542
818.70 0.1541
818.80 0.1541
818.90 0.154
819.00 0.1539
819.10 0.1538
819.20 0.1538
819.30 0.1537
819.40 0.1536
819.50 0.1536
819.60 0.1535
819.70 0.1534
819.80 0.1533
819.90 0.1533
820.00 0.1532
820.10 0.1531
820.20 0.153
820.30 0.153
820.40 0.1529
820.50 0.1528
820.60 0.1528
820.70 0.1527
820.80 0.1526
820.90 0.1525
821.00 0.1525
821.10 0.1524
821.20 0.1523
821.30 0.1523
821.40 0.1522
821.50 0.1521
821.60 0.152
821.70 0.152
821.80 0.1519
821.90 0.1518
822.00 0.1518
822.10 0.1517
822.20 0.1516
822.30 0.1516
822.40 0.1515
822.50 0.1514
822.60 0.1513
822.70 0.1513
822.80 0.1512
822.90 0.1511
823.00 0.1511
823.10 0.151
823.20 0.1509
823.30 0.1508
823.40 0.1508
823.50 0.1507
823.60 0.1506
823.70 0.1506
823.80 0.1505
823.90 0.1504
824.00 0.1504
824.10 0.1503
824.20 0.1502
824.30 0.1501
824.40 0.1501
824.50 0.15
824.60 0.1499
824.70 0.1499
824.80 0.1498
824.90 0.1497
825.00 0.1497
825.10 0.1496
825.20 0.1495
825.30 0.1494
825.40 0.1494
825.50 0.1493
825.60 0.1492
825.70 0.1492
825.80 0.1491
825.90 0.149
826.00 0.149
826.10 0.1489
826.20 0.1488
826.30 0.1488
826.40 0.1487
826.50 0.1486
826.60 0.1485
826.70 0.1485
826.80 0.1484
826.90 0.1483
827.00 0.1483
827.10 0.1482
827.20 0.1481
827.30 0.1481
827.40 0.148
827.50 0.1479
827.60 0.1479
827.70 0.1478
827.80 0.1477
827.90 0.1476
828.00 0.1476
828.10 0.1475
828.20 0.1474
828.30 0.1474
828.40 0.1473
828.50 0.1472
828.60 0.1472
828.70 0.1471
828.80 0.147
828.90 0.147
829.00 0.1469
829.10 0.1468
829.20 0.1468
829.30 0.1467
829.40 0.1466
829.50 0.1466
829.60 0.1465
829.70 0.1464
829.80 0.1464
829.90 0.1463
830.00 0.1462
830.10 0.1461
830.20 0.1461
830.30 0.146
830.40 0.1459
830.50 0.1459
830.60 0.1458
830.70 0.1457
830.80 0.1457
830.90 0.1456
831.00 0.1455
831.10 0.1455
831.20 0.1454
831.30 0.1453
831.40 0.1453
831.50 0.1452
831.60 0.1451
831.70 0.1451
831.80 0.145
831.90 0.1449
832.00 0.1449
832.10 0.1448
832.20 0.1447
832.30 0.1447
832.40 0.1446
832.50 0.1445
832.60 0.1445
832.70 0.1444
832.80 0.1443
832.90 0.1443
833.00 0.1442
833.10 0.1441
833.20 0.1441
833.30 0.144
833.40 0.1439
833.50 0.1439
833.60 0.1438
833.70 0.1437
833.80 0.1437
833.90 0.1436
834.00 0.1435
834.10 0.1435
834.20 0.1434
834.30 0.1433
834.40 0.1433
834.50 0.1432
834.60 0.1431
834.70 0.1431
834.80 0.143
834.90 0.1429
835.00 0.1429
835.10 0.1428
835.20 0.1427
835.30 0.1427
835.40 0.1426
835.50 0.1425
835.60 0.1425
835.70 0.1424
835.80 0.1423
835.90 0.1423
836.00 0.1422
836.10 0.1421
836.20 0.1421
836.30 0.142
836.40 0.1419
836.50 0.1419
836.60 0.1418
836.70 0.1417
836.80 0.1417
836.90 0.1416
837.00 0.1415
837.10 0.1415
837.20 0.1414
837.30 0.1413
837.40 0.1413
837.50 0.1412
837.60 0.1411
837.70 0.1411
837.80 0.141
837.90 0.1409
838.00 0.1409
838.10 0.1408
838.20 0.1407
838.30 0.1407
838.40 0.1406
838.50 0.1405
838.60 0.1405
838.70 0.1404
838.80 0.1403
838.90 0.1403
839.00 0.1402
839.10 0.1402
839.20 0.1401
839.30 0.14
839.40 0.14
839.50 0.1399
839.60 0.1398
839.70 0.1398
839.80 0.1397
839.90 0.1396
840.00 0.1396
840.10 0.1395
840.20 0.1394
840.30 0.1394
840.40 0.1393
840.50 0.1392
840.60 0.1392
840.70 0.1391
840.80 0.1391
840.90 0.139
841.00 0.1389
841.10 0.1389
841.20 0.1388
841.30 0.1387
841.40 0.1387
841.50 0.1386
841.60 0.1385
841.70 0.1385
841.80 0.1384
841.90 0.1383
842.00 0.1383
842.10 0.1382
842.20 0.1382
842.30 0.1381
842.40 0.138
842.50 0.138
842.60 0.1379
842.70 0.1378
842.80 0.1378
842.90 0.1377
843.00 0.1377
843.10 0.1376
843.20 0.1375
843.30 0.1375
843.40 0.1374
843.50 0.1373
843.60 0.1373
843.70 0.1372
843.80 0.1371
843.90 0.1371
844.00 0.137
844.10 0.137
844.20 0.1369
844.30 0.1368
844.40 0.1368
844.50 0.1367
844.60 0.1366
844.70 0.1366
844.80 0.1365
844.90 0.1365
845.00 0.1364
845.10 0.1363
845.20 0.1363
845.30 0.1362
845.40 0.1361
845.50 0.1361
845.60 0.136
845.70 0.1359
845.80 0.1359
845.90 0.1358
846.00 0.1358
846.10 0.1357
846.20 0.1356
846.30 0.1356
846.40 0.1355
846.50 0.1354
846.60 0.1354
846.70 0.1353
846.80 0.1353
846.90 0.1352
847.00 0.1351
847.10 0.1351
847.20 0.135
847.30 0.135
847.40 0.1349
847.50 0.1348
847.60 0.1348
847.70 0.1347
847.80 0.1346
847.90 0.1346
848.00 0.1345
848.10 0.1345
848.20 0.1344
848.30 0.1343
848.40 0.1343
848.50 0.1342
848.60 0.1342
848.70 0.1341
848.80 0.134
848.90 0.134
849.00 0.1339
849.10 0.1338
849.20 0.1338
849.30 0.1337
849.40 0.1337
849.50 0.1336
849.60 0.1335
849.70 0.1335
849.80 0.1334
849.90 0.1334
850.00 0.1333
850.10 0.1332
850.20 0.1332
850.30 0.1331
850.40 0.1331
850.50 0.133
850.60 0.1329
850.70 0.1329
850.80 0.1328
850.90 0.1327
851.00 0.1327
851.10 0.1326
851.20 0.1326
851.30 0.1325
851.40 0.1324
851.50 0.1324
851.60 0.1323
851.70 0.1323
851.80 0.1322
851.90 0.1321
852.00 0.1321
852.10 0.132
852.20 0.132
852.30 0.1319
852.40 0.1318
852.50 0.1318
852.60 0.1317
852.70 0.1317
852.80 0.1316
852.90 0.1315
853.00 0.1315
853.10 0.1314
853.20 0.1314
853.30 0.1313
853.40 0.1312
853.50 0.1312
853.60 0.1311
853.70 0.1311
853.80 0.131
853.90 0.1309
854.00 0.1309
854.10 0.1308
854.20 0.1308
854.30 0.1307
854.40 0.1307
854.50 0.1306
854.60 0.1305
854.70 0.1305
854.80 0.1304
854.90 0.1304
855.00 0.1303
855.10 0.1302
855.20 0.1302
855.30 0.1301
855.40 0.1301
855.50 0.13
855.60 0.1299
855.70 0.1299
855.80 0.1298
855.90 0.1298
856.00 0.1297
856.10 0.1296
856.20 0.1296
856.30 0.1295
856.40 0.1295
856.50 0.1294
856.60 0.1294
856.70 0.1293
856.80 0.1292
856.90 0.1292
857.00 0.1291
857.10 0.1291
857.20 0.129
857.30 0.1289
857.40 0.1289
857.50 0.1288
857.60 0.1288
857.70 0.1287
857.80 0.1287
857.90 0.1286
858.00 0.1285
858.10 0.1285
858.20 0.1284
858.30 0.1284
858.40 0.1283
858.50 0.1283
858.60 0.1282
858.70 0.1281
858.80 0.1281
858.90 0.128
859.00 0.128
859.10 0.1279
859.20 0.1279
859.30 0.1278
859.40 0.1277
859.50 0.1277
859.60 0.1276
859.70 0.1276
859.80 0.1275
859.90 0.1275
860.00 0.1274
860.10 0.1273
860.20 0.1273
860.30 0.1272
860.40 0.1272
860.50 0.1271
860.60 0.1271
860.70 0.127
860.80 0.1269
860.90 0.1269
861.00 0.1268
861.10 0.1268
861.20 0.1267
861.30 0.1267
861.40 0.1266
861.50 0.1265
861.60 0.1265
861.70 0.1264
861.80 0.1264
861.90 0.1263
862.00 0.1263
862.10 0.1262
862.20 0.1261
862.30 0.1261
862.40 0.126
862.50 0.126
862.60 0.1259
862.70 0.1259
862.80 0.1258
862.90 0.1258
863.00 0.1257
863.10 0.1256
863.20 0.1256
863.30 0.1255
863.40 0.1255
863.50 0.1254
863.60 0.1254
863.70 0.1253
863.80 0.1252
863.90 0.1252
864.00 0.1251
864.10 0.1251
864.20 0.125
864.30 0.125
864.40 0.1249
864.50 0.1249
864.60 0.1248
864.70 0.1247
864.80 0.1247
864.90 0.1246
865.00 0.1246
865.10 0.1245
865.20 0.1245
865.30 0.1244
865.40 0.1244
865.50 0.1243
865.60 0.1242
865.70 0.1242
865.80 0.1241
865.90 0.1241
866.00 0.124
866.10 0.124
866.20 0.1239
866.30 0.1239
866.40 0.1238
866.50 0.1237
866.60 0.1237
866.70 0.1236
866.80 0.1236
866.90 0.1235
867.00 0.1235
867.10 0.1234
867.20 0.1234
867.30 0.1233
867.40 0.1232
867.50 0.1232
867.60 0.1231
867.70 0.1231
867.80 0.123
867.90 0.123
868.00 0.1229
868.10 0.1229
868.20 0.1228
868.30 0.1228
868.40 0.1227
868.50 0.1226
868.60 0.1226
868.70 0.1225
868.80 0.1225
868.90 0.1224
869.00 0.1224
869.10 0.1223
869.20 0.1223
869.30 0.1222
869.40 0.1222
869.50 0.1221
869.60 0.1221
869.70 0.122
869.80 0.1219
869.90 0.1219
870.00 0.1218
870.10 0.1218
870.20 0.1217
870.30 0.1217
870.40 0.1216
870.50 0.1216
870.60 0.1215
870.70 0.1215
870.80 0.1214
870.90 0.1214
871.00 0.1213
871.10 0.1212
871.20 0.1212
871.30 0.1211
871.40 0.1211
871.50 0.121
871.60 0.121
871.70 0.1209
871.80 0.1209
871.90 0.1208
872.00 0.1208
872.10 0.1207
872.20 0.1207
872.30 0.1206
872.40 0.1206
872.50 0.1205
872.60 0.1204
872.70 0.1204
872.80 0.1203
872.90 0.1203
873.00 0.1202
873.10 0.1202
873.20 0.1201
873.30 0.1201
873.40 0.12
873.50 0.12
873.60 0.1199
873.70 0.1199
873.80 0.1198
873.90 0.1198
874.00 0.1197
874.10 0.1197
874.20 0.1196
874.30 0.1196
874.40 0.1195
874.50 0.1194
874.60 0.1194
874.70 0.1193
874.80 0.1193
874.90 0.1192
875.00 0.1192
875.10 0.1191
875.20 0.1191
875.30 0.119
875.40 0.119
875.50 0.1189
875.60 0.1189
875.70 0.1188
875.80 0.1188
875.90 0.1187
876.00 0.1187
876.10 0.1186
876.20 0.1186
876.30 0.1185
876.40 0.1185
876.50 0.1184
876.60 0.1184
876.70 0.1183
876.80 0.1182
876.90 0.1182
877.00 0.1181
877.10 0.1181
877.20 0.118
877.30 0.118
877.40 0.1179
877.50 0.1179
877.60 0.1178
877.70 0.1178
877.80 0.1177
877.90 0.1177
878.00 0.1176
878.10 0.1176
878.20 0.1175
878.30 0.1175
878.40 0.1174
878.50 0.1174
878.60 0.1173
878.70 0.1173
878.80 0.1172
878.90 0.1172
879.00 0.1171
879.10 0.1171
879.20 0.117
879.30 0.117
879.40 0.1169
879.50 0.1169
879.60 0.1168
879.70 0.1168
879.80 0.1167
879.90 0.1167
880.00 0.1166
880.10 0.1166
880.20 0.1165
880.30 0.1165
880.40 0.1164
880.50 0.1164
880.60 0.1163
880.70 0.1163
880.80 0.1162
880.90 0.1162
881.00 0.1161
881.10 0.1161
881.20 0.116
881.30 0.116
881.40 0.1159
881.50 0.1159
881.60 0.1158
881.70 0.1158
881.80 0.1157
881.90 0.1157
882.00 0.1156
882.10 0.1156
882.20 0.1155
882.30 0.1155
882.40 0.1154
882.50 0.1154
882.60 0.1153
882.70 0.1153
882.80 0.1152
882.90 0.1152
883.00 0.1151
883.10 0.1151
883.20 0.115
883.30 0.115
883.40 0.1149
883.50 0.1149
883.60 0.1148
883.70 0.1148
883.80 0.1147
883.90 0.1147
884.00 0.1146
884.10 0.1146
884.20 0.1145
884.30 0.1145
884.40 0.1144
884.50 0.1144
884.60 0.1143
884.70 0.1143
884.80 0.1142
884.90 0.1142
885.00 0.1141
885.10 0.1141
885.20 0.114
885.30 0.114
885.40 0.1139
885.50 0.1139
885.60 0.1138
885.70 0.1138
885.80 0.1137
885.90 0.1137
886.00 0.1136
886.10 0.1136
886.20 0.1135
886.30 0.1135
886.40 0.1134
886.50 0.1134
886.60 0.1133
886.70 0.1133
886.80 0.1132
886.90 0.1132
887.00 0.1131
887.10 0.1131
887.20 0.113
887.30 0.113
887.40 0.113
887.50 0.1129
887.60 0.1129
887.70 0.1128
887.80 0.1128
887.90 0.1127
888.00 0.1127
888.10 0.1126
888.20 0.1126
888.30 0.1125
888.40 0.1125
888.50 0.1124
888.60 0.1124
888.70 0.1123
888.80 0.1123
888.90 0.1122
889.00 0.1122
889.10 0.1121
889.20 0.1121
889.30 0.112
889.40 0.112
889.50 0.112
889.60 0.1119
889.70 0.1119
889.80 0.1118
889.90 0.1118
890.00 0.1117
890.10 0.1117
890.20 0.1116
890.30 0.1116
890.40 0.1115
890.50 0.1115
890.60 0.1114
890.70 0.1114
890.80 0.1113
890.90 0.1113
891.00 0.1112
891.10 0.1112
891.20 0.1111
891.30 0.1111
891.40 0.1111
891.50 0.111
891.60 0.111
891.70 0.1109
891.80 0.1109
891.90 0.1108
892.00 0.1108
892.10 0.1107
892.20 0.1107
892.30 0.1106
892.40 0.1106
892.50 0.1105
892.60 0.1105
892.70 0.1104
892.80 0.1104
892.90 0.1103
893.00 0.1103
893.10 0.1102
893.20 0.1102
893.30 0.1102
893.40 0.1101
893.50 0.1101
893.60 0.11
893.70 0.11
893.80 0.1099
893.90 0.1099
894.00 0.1098
894.10 0.1098
894.20 0.1097
894.30 0.1097
894.40 0.1096
894.50 0.1096
894.60 0.1095
894.70 0.1095
894.80 0.1094
894.90 0.1094
895.00 0.1093
895.10 0.1093
895.20 0.1093
895.30 0.1092
895.40 0.1092
895.50 0.1091
895.60 0.1091
895.70 0.109
895.80 0.109
895.90 0.1089
896.00 0.1089
896.10 0.1088
896.20 0.1088
896.30 0.1087
896.40 0.1087
896.50 0.1086
896.60 0.1086
896.70 0.1085
896.80 0.1085
896.90 0.1085
897.00 0.1084
897.10 0.1084
897.20 0.1083
897.30 0.1083
897.40 0.1082
897.50 0.1082
897.60 0.1081
897.70 0.1081
897.80 0.108
897.90 0.108
898.00 0.1079
898.10 0.1079
898.20 0.1078
898.30 0.1078
898.40 0.1078
898.50 0.1077
898.60 0.1077
898.70 0.1076
898.80 0.1076
898.90 0.1075
899.00 0.1075
899.10 0.1074
899.20 0.1074
899.30 0.1073
899.40 0.1073
899.50 0.1072
899.60 0.1072
899.70 0.1072
899.80 0.1071
899.90 0.1071
900.00 0.107
900.10 0.107
900.20 0.1069
900.30 0.1069
900.40 0.1068
900.50 0.1068
900.60 0.1067
900.70 0.1067
900.80 0.1066
900.90 0.1066
901.00 0.1066
901.10 0.1065
901.20 0.1065
901.30 0.1064
901.40 0.1064
901.50 0.1063
901.60 0.1063
901.70 0.1062
901.80 0.1062
901.90 0.1061
902.00 0.1061
902.10 0.1061
902.20 0.106
902.30 0.106
902.40 0.1059
902.50 0.1059
902.60 0.1058
902.70 0.1058
902.80 0.1058
902.90 0.1057
903.00 0.1057
903.10 0.1056
903.20 0.1056
903.30 0.1055
903.40 0.1055
903.50 0.1055
903.60 0.1054
903.70 0.1054
903.80 0.1053
903.90 0.1053
904.00 0.1053
904.10 0.1052
904.20 0.1052
904.30 0.1051
904.40 0.1051
904.50 0.105
904.60 0.105
904.70 0.105
904.80 0.1049
904.90 0.1049
905.00 0.1048
905.10 0.1048
905.20 0.1048
905.30 0.1047
905.40 0.1047
905.50 0.1046
905.60 0.1046
905.70 0.1045
905.80 0.1045
905.90 0.1045
906.00 0.1044
906.10 0.1044
906.20 0.1043
906.30 0.1043
906.40 0.1043
906.50 0.1042
906.60 0.1042
906.70 0.1041
906.80 0.1041
906.90 0.1041
907.00 0.104
907.10 0.104
907.20 0.1039
907.30 0.1039
907.40 0.1038
907.50 0.1038
907.60 0.1038
907.70 0.1037
907.80 0.1037
907.90 0.1036
908.00 0.1036
908.10 0.1035
908.20 0.1035
908.30 0.1035
908.40 0.1034
908.50 0.1034
908.60 0.1033
908.70 0.1033
908.80 0.1032
908.90 0.1032
909.00 0.1032
909.10 0.1031
909.20 0.1031
909.30 0.103
909.40 0.103
909.50 0.1029
909.60 0.1029
909.70 0.1029
909.80 0.1028
909.90 0.1028
910.00 0.1027
910.10 0.1027
910.20 0.1026
910.30 0.1026
910.40 0.1026
910.50 0.1025
910.60 0.1025
910.70 0.1024
910.80 0.1024
910.90 0.1023
911.00 0.1023
911.10 0.1023
911.20 0.1022
911.30 0.1022
911.40 0.1021
911.50 0.1021
911.60 0.102
911.70 0.102
911.80 0.102
911.90 0.1019
912.00 0.1019
912.10 0.1018
912.20 0.1018
912.30 0.1017
912.40 0.1017
912.50 0.1016
912.60 0.1016
912.70 0.1016
912.80 0.1015
912.90 0.1015
913.00 0.1014
913.10 0.1014
913.20 0.1013
913.30 0.1013
913.40 0.1012
913.50 0.1012
913.60 0.1011
913.70 0.1011
913.80 0.1011
913.90 0.101
914.00 0.101
914.10 0.1009
914.20 0.1009
914.30 0.1008
914.40 0.1008
914.50 0.1007
914.60 0.1007
914.70 0.1006
914.80 0.1006
914.90 0.1006
915.00 0.1005
915.10 0.1005
915.20 0.1004
915.30 0.1004
915.40 0.1003
915.50 0.1003
915.60 0.1002
915.70 0.1002
915.80 0.1001
915.90 0.1001
916.00 0.1001
916.10 0.1
916.20 0.09996
916.30 0.09992
916.40 0.09987
916.50 0.09983
916.60 0.09978
916.70 0.09974
916.80 0.09969
916.90 0.09965
917.00 0.0996
917.10 0.09956
917.20 0.09951
917.30 0.09946
917.40 0.09942
917.50 0.09937
917.60 0.09932
917.70 0.09928
917.80 0.09923
917.90 0.09918
918.00 0.09914
918.10 0.09909
918.20 0.09905
918.30 0.099
918.40 0.09895
918.50 0.09891
918.60 0.09886
918.70 0.09881
918.80 0.09877
918.90 0.09872
919.00 0.09868
919.10 0.09863
919.20 0.09858
919.30 0.09854
919.40 0.09849
919.50 0.09845
919.60 0.0984
919.70 0.09835
919.80 0.09831
919.90 0.09826
920.00 0.09822
920.10 0.09817
920.20 0.09812
920.30 0.09808
920.40 0.09803
920.50 0.09799
920.60 0.09794
920.70 0.09789
920.80 0.09785
920.90 0.0978
921.00 0.09776
921.10 0.09771
921.20 0.09767
921.30 0.09762
921.40 0.09757
921.50 0.09753
921.60 0.09748
921.70 0.09744
921.80 0.09739
921.90 0.09735
922.00 0.0973
922.10 0.09726
922.20 0.09723
922.30 0.0972
922.40 0.09716
922.50 0.09713
922.60 0.09709
922.70 0.09706
922.80 0.09702
922.90 0.09699
923.00 0.09695
923.10 0.09692
923.20 0.09688
923.30 0.09685
923.40 0.09681
923.50 0.09678
923.60 0.09674
923.70 0.09671
923.80 0.09667
923.90 0.09664
924.00 0.0966
924.10 0.09657
924.20 0.09653
924.30 0.0965
924.40 0.09646
924.50 0.09643
924.60 0.09639
924.70 0.09636
924.80 0.09633
924.90 0.09629
925.00 0.09626
925.10 0.09622
925.20 0.09619
925.30 0.09615
925.40 0.09612
925.50 0.09608
925.60 0.09605
925.70 0.09601
925.80 0.09598
925.90 0.09595
926.00 0.09591
926.10 0.09588
926.20 0.09584
926.30 0.09581
926.40 0.09577
926.50 0.09574
926.60 0.0957
926.70 0.09567
926.80 0.09564
926.90 0.0956
927.00 0.09557
927.10 0.09553
927.20 0.0955
927.30 0.09547
927.40 0.09544
927.50 0.0954
927.60 0.09537
927.70 0.09534
927.80 0.0953
927.90 0.09527
928.00 0.09524
928.10 0.09521
928.20 0.09517
928.30 0.09514
928.40 0.09511
928.50 0.09508
928.60 0.09504
928.70 0.09501
928.80 0.09498
928.90 0.09495
929.00 0.09491
929.10 0.09488
929.20 0.09485
929.30 0.09482
929.40 0.09478
929.50 0.09475
929.60 0.09472
929.70 0.09469
929.80 0.09465
929.90 0.09462
930.00 0.09459
930.10 0.09456
930.20 0.09452
930.30 0.09449
930.40 0.09446
930.50 0.09443
930.60 0.09439
930.70 0.09436
930.80 0.09433
930.90 0.0943
931.00 0.09426
931.10 0.09423
931.20 0.0942
931.30 0.09417
931.40 0.09414
931.50 0.0941
931.60 0.09407
931.70 0.09404
931.80 0.09401
931.90 0.09397
932.00 0.09394
932.10 0.09391
932.20 0.09387
932.30 0.09384
932.40 0.0938
932.50 0.09377
932.60 0.09373
932.70 0.0937
932.80 0.09366
932.90 0.09363
933.00 0.09359
933.10 0.09356
933.20 0.09352
933.30 0.09349
933.40 0.09345
933.50 0.09342
933.60 0.09338
933.70 0.09335
933.80 0.09331
933.90 0.09328
934.00 0.09324
934.10 0.09321
934.20 0.09317
934.30 0.09314
934.40 0.0931
934.50 0.09306
934.60 0.09302
934.70 0.09299
934.80 0.09295
934.90 0.09291
935.00 0.09288
935.10 0.09284
935.20 0.0928
935.30 0.09276
935.40 0.09273
935.50 0.09269
935.60 0.09265
935.70 0.09262
935.80 0.09258
935.90 0.09254
936.00 0.0925
936.10 0.09247
936.20 0.09243
936.30 0.09239
936.40 0.09236
936.50 0.09232
936.60 0.09228
936.70 0.09225
936.80 0.09221
936.90 0.09217
937.00 0.09214
937.10 0.0921
937.20 0.09206
937.30 0.09202
937.40 0.09198
937.50 0.09194
937.60 0.0919
937.70 0.09186
937.80 0.09183
937.90 0.09179
938.00 0.09175
938.10 0.09171
938.20 0.09167
938.30 0.09163
938.40 0.09159
938.50 0.09155
938.60 0.09151
938.70 0.09147
938.80 0.09143
938.90 0.09139
939.00 0.09135
939.10 0.09131
939.20 0.09127
939.30 0.09123
939.40 0.09119
939.50 0.09115
939.60 0.09111
939.70 0.09107
939.80 0.09103
939.90 0.09099
940.00 0.09095
940.10 0.09091
940.20 0.09087
940.30 0.09083
940.40 0.09079
940.50 0.09075
940.60 0.0907
940.70 0.09066
940.80 0.09062
940.90 0.09058
941.00 0.09054
941.10 0.09049
941.20 0.09045
941.30 0.09041
941.40 0.09037
941.50 0.09033
941.60 0.09029
941.70 0.09024
941.80 0.0902
941.90 0.09016
942.00 0.09012
942.10 0.09008
942.20 0.09003
942.30 0.08999
942.40 0.08995
942.50 0.0899
942.60 0.08986
942.70 0.08981
942.80 0.08977
942.90 0.08973
943.00 0.08968
943.10 0.08964
943.20 0.08959
943.30 0.08955
943.40 0.0895
943.50 0.08946
943.60 0.08942
943.70 0.08937
943.80 0.08933
943.90 0.08928
944.00 0.08924
944.10 0.0892
944.20 0.08915
944.30 0.08911
944.40 0.08906
944.50 0.08902
944.60 0.08897
944.70 0.08893
944.80 0.08888
944.90 0.08884
945.00 0.08879
945.10 0.08874
945.20 0.0887
945.30 0.08865
945.40 0.08861
945.50 0.08856
945.60 0.08851
945.70 0.08846
945.80 0.08842
945.90 0.08837
946.00 0.08832
946.10 0.08827
946.20 0.08823
946.30 0.08818
946.40 0.08813
946.50 0.08809
946.60 0.08804
946.70 0.08799
946.80 0.08794
946.90 0.0879
947.00 0.08785
947.10 0.0878
947.20 0.08775
947.30 0.0877
947.40 0.08766
947.50 0.08761
947.60 0.08756
947.70 0.08751
947.80 0.08746
947.90 0.08741
948.00 0.08736
948.10 0.08731
948.20 0.08726
948.30 0.08721
948.40 0.08716
948.50 0.08711
948.60 0.08706
948.70 0.08701
948.80 0.08696
948.90 0.08691
949.00 0.08686
949.10 0.08681
949.20 0.08676
949.30 0.08671
949.40 0.08666
949.50 0.08661
949.60 0.08656
949.70 0.08651
949.80 0.08646
949.90 0.08641
950.00 0.08635
950.10 0.0863
950.20 0.08625
950.30 0.0862
950.40 0.08615
950.50 0.0861
950.60 0.08605
950.70 0.086
950.80 0.08595
950.90 0.08589
951.00 0.08584
951.10 0.08579
951.20 0.08574
951.30 0.08569
951.40 0.08564
951.50 0.08559
951.60 0.08554
951.70 0.08549
951.80 0.08543
951.90 0.08538
952.00 0.08533
952.10 0.08528
952.20 0.08523
952.30 0.08518
952.40 0.08513
952.50 0.08508
952.60 0.08503
952.70 0.08498
952.80 0.08493
952.90 0.08488
953.00 0.08483
953.10 0.08478
953.20 0.08473
953.30 0.08468
953.40 0.08463
953.50 0.08458
953.60 0.08454
953.70 0.08449
953.80 0.08445
953.90 0.0844
954.00 0.08436
954.10 0.08431
954.20 0.08427
954.30 0.08423
954.40 0.08419
954.50 0.08416
954.60 0.08412
954.70 0.08409
954.80 0.08407
954.90 0.08404
955.00 0.08401
955.10 0.08399
955.20 0.08397
955.30 0.08395
955.40 0.08393
955.50 0.08391
955.60 0.08389
955.70 0.08387
955.80 0.08385
955.90 0.08383
956.00 0.08382
956.10 0.0838
956.20 0.08378
956.30 0.08377
956.40 0.08375
956.50 0.08374
956.60 0.08372
956.70 0.0837
956.80 0.08369
956.90 0.08367
957.00 0.08366
957.10 0.08364
957.20 0.08363
957.30 0.08361
957.40 0.0836
957.50 0.08358
957.60 0.08357
957.70 0.08355
957.80 0.08354
957.90 0.08352
958.00 0.08351
958.10 0.08349
958.20 0.08348
958.30 0.08346
958.40 0.08345
958.50 0.08343
958.60 0.08342
958.70 0.0834
958.80 0.08339
958.90 0.08337
959.00 0.08335
959.10 0.08334
959.20 0.08332
959.30 0.08331
959.40 0.08329
959.50 0.08328
959.60 0.08326
959.70 0.08324
959.80 0.08323
959.90 0.08321
960.00 0.08319
960.10 0.08317
960.20 0.08316
960.30 0.08314
960.40 0.08312
960.50 0.08311
960.60 0.08309
960.70 0.08307
960.80 0.08306
960.90 0.08304
961.00 0.08302
961.10 0.08301
961.20 0.08299
961.30 0.08297
961.40 0.08295
961.50 0.08294
961.60 0.08292
961.70 0.0829
961.80 0.08288
961.90 0.08286
962.00 0.08284
962.10 0.08282
962.20 0.0828
962.30 0.08278
962.40 0.08276
962.50 0.08274
962.60 0.08272
962.70 0.08271
962.80 0.08269
962.90 0.08267
963.00 0.08265
963.10 0.08263
963.20 0.08261
963.30 0.08259
963.40 0.08257
963.50 0.08254
963.60 0.08252
963.70 0.0825
963.80 0.08248
963.90 0.08246
964.00 0.08244
964.10 0.08242
964.20 0.0824
964.30 0.08238
964.40 0.08235
964.50 0.08233
964.60 0.08231
964.70 0.08228
964.80 0.08226
964.90 0.08224
965.00 0.08222
965.10 0.08219
965.20 0.08217
965.30 0.08215
965.40 0.08213
965.50 0.0821
965.60 0.08208
965.70 0.08206
965.80 0.08203
965.90 0.08201
966.00 0.08199
966.10 0.08197
966.20 0.08194
966.30 0.08192
966.40 0.0819
966.50 0.08187
966.60 0.08185
966.70 0.08182
966.80 0.0818
966.90 0.08178
967.00 0.08175
967.10 0.08173
967.20 0.0817
967.30 0.08168
967.40 0.08165
967.50 0.08163
967.60 0.0816
967.70 0.08158
967.80 0.08155
967.90 0.08153
968.00 0.0815
968.10 0.08148
968.20 0.08145
968.30 0.08143
968.40 0.0814
968.50 0.08137
968.60 0.08135
968.70 0.08132
968.80 0.08129
968.90 0.08127
969.00 0.08124
969.10 0.08122
969.20 0.08119
969.30 0.08116
969.40 0.08114
969.50 0.08111
969.60 0.08108
969.70 0.08106
969.80 0.08103
969.90 0.081
970.00 0.08098
970.10 0.08095
970.20 0.08093
970.30 0.0809
970.40 0.08087
970.50 0.08084
970.60 0.08082
970.70 0.08079
970.80 0.08076
970.90 0.08073
971.00 0.08071
971.10 0.08068
971.20 0.08065
971.30 0.08062
971.40 0.0806
971.50 0.08057
971.60 0.08054
971.70 0.08051
971.80 0.08049
971.90 0.08046
972.00 0.08043
972.10 0.0804
972.20 0.08037
972.30 0.08034
972.40 0.08032
972.50 0.08029
972.60 0.08026
972.70 0.08023
972.80 0.0802
972.90 0.08017
973.00 0.08014
973.10 0.08011
973.20 0.08009
973.30 0.08006
973.40 0.08003
973.50 0.08
973.60 0.07997
973.70 0.07994
973.80 0.07991
973.90 0.07989
974.00 0.07986
974.10 0.07983
974.20 0.0798
974.30 0.07977
974.40 0.07974
974.50 0.07971
974.60 0.07968
974.70 0.07965
974.80 0.07962
974.90 0.07959
975.00 0.07956
975.10 0.07953
975.20 0.0795
975.30 0.07947
975.40 0.07944
975.50 0.07941
975.60 0.07938
975.70 0.07935
975.80 0.07932
975.90 0.07929
976.00 0.07926
976.10 0.07923
976.20 0.0792
976.30 0.07917
976.40 0.07914
976.50 0.07911
976.60 0.07908
976.70 0.07905
976.80 0.07902
976.90 0.07899
977.00 0.07896
977.10 0.07893
977.20 0.0789
977.30 0.07887
977.40 0.07884
977.50 0.07881
977.60 0.07877
977.70 0.07874
977.80 0.07871
977.90 0.07868
978.00 0.07865
978.10 0.07862
978.20 0.07858
978.30 0.07855
978.40 0.07852
978.50 0.07849
978.60 0.07846
978.70 0.07843
978.80 0.07839
978.90 0.07836
979.00 0.07833
979.10 0.0783
979.20 0.07827
979.30 0.07824
979.40 0.07821
979.50 0.07817
979.60 0.07814
979.70 0.07811
979.80 0.07808
979.90 0.07805
980.00 0.07802
980.10 0.07798
980.20 0.07795
980.30 0.07792
980.40 0.07789
980.50 0.07786
980.60 0.07783
980.70 0.0778
980.80 0.07777
980.90 0.07773
981.00 0.0777
981.10 0.07767
981.20 0.07764
981.30 0.07761
981.40 0.07758
981.50 0.07755
981.60 0.07751
981.70 0.07748
981.80 0.07745
981.90 0.07742
982.00 0.07739
982.10 0.07736
982.20 0.07732
982.30 0.07729
982.40 0.07726
982.50 0.07722
982.60 0.07719
982.70 0.07716
982.80 0.07712
982.90 0.07709
983.00 0.07706
983.10 0.07702
983.20 0.07699
983.30 0.07696
983.40 0.07692
983.50 0.07689
983.60 0.07686
983.70 0.07682
983.80 0.07679
983.90 0.07676
984.00 0.07672
984.10 0.07669
984.20 0.07666
984.30 0.07662
984.40 0.07659
984.50 0.07656
984.60 0.07652
984.70 0.07649
984.80 0.07646
984.90 0.07642
985.00 0.07639
985.10 0.07635
985.20 0.07632
985.30 0.07628
985.40 0.07625
985.50 0.07621
985.60 0.07618
985.70 0.07614
985.80 0.07611
985.90 0.07607
986.00 0.07604
986.10 0.076
986.20 0.07597
986.30 0.07593
986.40 0.0759
986.50 0.07586
986.60 0.07583
986.70 0.0758
986.80 0.07576
986.90 0.07573
987.00 0.07569
987.10 0.07565
987.20 0.07562
987.30 0.07558
987.40 0.07555
987.50 0.07551
987.60 0.07547
987.70 0.07544
987.80 0.0754
987.90 0.07536
988.00 0.07533
988.10 0.07529
988.20 0.07526
988.30 0.07522
988.40 0.07518
988.50 0.07515
988.60 0.07511
988.70 0.07507
988.80 0.07504
988.90 0.075
989.00 0.07496
989.10 0.07492
989.20 0.07488
989.30 0.07484
989.40 0.07481
989.50 0.07477
989.60 0.07473
989.70 0.07469
989.80 0.07465
989.90 0.07462
990.00 0.07458
990.10 0.07454
990.20 0.0745
990.30 0.07446
990.40 0.07443
990.50 0.07439
990.60 0.07435
990.70 0.07431
990.80 0.07427
990.90 0.07423
991.00 0.07419
991.10 0.07415
991.20 0.07411
991.30 0.07407
991.40 0.07403
991.50 0.07399
991.60 0.07395
991.70 0.07391
991.80 0.07387
991.90 0.07383
992.00 0.07379
992.10 0.07375
992.20 0.07371
992.30 0.07367
992.40 0.07362
992.50 0.07358
992.60 0.07354
992.70 0.0735
992.80 0.07345
992.90 0.07341
993.00 0.07337
993.10 0.07332
993.20 0.07328
993.30 0.07324
993.40 0.07319
993.50 0.07315
993.60 0.0731
993.70 0.07306
993.80 0.07302
993.90 0.07297
994.00 0.07293
994.10 0.07289
994.20 0.07284
994.30 0.0728
994.40 0.07276
994.50 0.07271
994.60 0.07267
994.70 0.07262
994.80 0.07258
994.90 0.07253
995.00 0.07248
995.10 0.07244
995.20 0.07239
995.30 0.07234
995.40 0.0723
995.50 0.07225
995.60 0.0722
995.70 0.07215
995.80 0.0721
995.90 0.07205
996.00 0.07201
996.10 0.07196
996.20 0.07191
996.30 0.07186
996.40 0.07181
996.50 0.07176
996.60 0.07171
996.70 0.07166
996.80 0.07161
996.90 0.07156
997.00 0.07151
997.10 0.07146
997.20 0.07141
997.30 0.07136
997.40 0.0713
997.50 0.07125
997.60 0.0712
997.70 0.07115
997.80 0.07109
997.90 0.07103
998.00 0.07098
998.10 0.07092
998.20 0.07087
998.30 0.07081
998.40 0.07076
998.50 0.0707
998.60 0.07064
998.70 0.07059
998.80 0.07053
998.90 0.07048
999.00 0.07042
999.10 0.07037
999.20 0.07031
999.30 0.07026
999.40 0.0702
999.50 0.07014
999.60 0.07009
999.70 0.07003
999.80 0.06997
999.90 0.06991
1000.00 0.06984
1000.10 0.06978
1000.20 0.06972
1000.30 0.06966
1000.40 0.0696
1000.50 0.06954
1000.60 0.06948
1000.70 0.06941
1000.80 0.06935
1000.90 0.06929
1001.00 0.06923
1001.10 0.06917
1001.20 0.06911
1001.30 0.06905
1001.40 0.06898
1001.50 0.06892
1001.60 0.06886
1001.70 0.0688
1001.80 0.06874
1001.90 0.06867
1002.00 0.06861
1002.10 0.06855
1002.20 0.06849
1002.30 0.06843
1002.40 0.06836
1002.50 0.0683
1002.60 0.06824
1002.70 0.06818
1002.80 0.06812
1002.90 0.06806
1003.00 0.068
1003.10 0.06793
1003.20 0.06788
1003.30 0.06783
1003.40 0.06777
1003.50 0.06772
1003.60 0.06767
1003.70 0.06762
1003.80 0.06756
1003.90 0.06752
1004.00 0.06748
1004.10 0.06745
1004.20 0.06741
1004.30 0.06739
1004.40 0.06736
1004.50 0.06735
1004.60 0.06735
1004.70 0.06735
1004.80 0.06736
1004.90 0.06734
1005.00 0.06732
1005.10 0.06728
1005.20 0.06723
1005.30 0.06718
1005.40 0.06712
1005.50 0.0671
1005.60 0.06708
1005.70 0.06706
1005.80 0.06705
1005.90 0.06703
1006.00 0.06701
1006.10 0.067
1006.20 0.067
1006.30 0.067
1006.40 0.06701
1006.50 0.06701
1006.60 0.06702
1006.70 0.06702
1006.80 0.06703
1006.90 0.06703
1007.00 0.06704
1007.10 0.06705
1007.20 0.06706
1007.30 0.06707
1007.40 0.06708
1007.50 0.06709
1007.60 0.0671
1007.70 0.06711
1007.80 0.06712
1007.90 0.06713
1008.00 0.06714
1008.10 0.06715
1008.20 0.06716
1008.30 0.06717
1008.40 0.06718
1008.50 0.06719
1008.60 0.0672
1008.70 0.06721
1008.80 0.06722
1008.90 0.06723
1009.00 0.06724
1009.10 0.06725
1009.20 0.06726
1009.30 0.06727
1009.40 0.06728
1009.50 0.06729
1009.60 0.0673
1009.70 0.06731
1009.80 0.06731
1009.90 0.06731
1010.00 0.06732
1010.10 0.06732
1010.20 0.06733
1010.30 0.06733
1010.40 0.06734
1010.50 0.06734
1010.60 0.06734
1010.70 0.06735
1010.80 0.06735
1010.90 0.06736
1011.00 0.06736
1011.10 0.06736
1011.20 0.06737
1011.30 0.06737
1011.40 0.06738
1011.50 0.06738
1011.60 0.06738
1011.70 0.06739
1011.80 0.06739
1011.90 0.06739
1012.00 0.06739
1012.10 0.06738
1012.20 0.06738
1012.30 0.06738
1012.40 0.06737
1012.50 0.06737
1012.60 0.06737
1012.70 0.06737
1012.80 0.06736
1012.90 0.06736
1013.00 0.06736
1013.10 0.06735
1013.20 0.06735
1013.30 0.06735
1013.40 0.06735
1013.50 0.06734
1013.60 0.06734
1013.70 0.06733
1013.80 0.06733
1013.90 0.06732
1014.00 0.06731
1014.10 0.06731
1014.20 0.0673
1014.30 0.0673
1014.40 0.06729
1014.50 0.06728
1014.60 0.06728
1014.70 0.06727
1014.80 0.06726
1014.90 0.06725
1015.00 0.06724
1015.10 0.06723
1015.20 0.06722
1015.30 0.06721
1015.40 0.0672
1015.50 0.06719
1015.60 0.06718
1015.70 0.06717
1015.80 0.06716
1015.90 0.06715
1016.00 0.06714
1016.10 0.06713
1016.20 0.06712
1016.30 0.06711
1016.40 0.0671
1016.50 0.06709
1016.60 0.06708
1016.70 0.06707
1016.80 0.06706
1016.90 0.06704
1017.00 0.06703
1017.10 0.06702
1017.20 0.067
1017.30 0.06699
1017.40 0.06698
1017.50 0.06696
1017.60 0.06695
1017.70 0.06694
1017.80 0.06692
1017.90 0.06691
1018.00 0.06689
1018.10 0.06688
1018.20 0.06687
1018.30 0.06685
1018.40 0.06684
1018.50 0.06683
1018.60 0.06681
1018.70 0.0668
1018.80 0.06678
1018.90 0.06676
1019.00 0.06675
1019.10 0.06673
1019.20 0.06672
1019.30 0.0667
1019.40 0.06668
1019.50 0.06667
1019.60 0.06665
1019.70 0.06663
1019.80 0.06662
1019.90 0.0666
1020.00 0.06659
1020.10 0.06657
1020.20 0.06655
1020.30 0.06654
1020.40 0.06652
1020.50 0.06651
1020.60 0.06649
1020.70 0.06647
1020.80 0.06645
1020.90 0.06644
1021.00 0.06642
1021.10 0.0664
1021.20 0.06638
1021.30 0.06637
1021.40 0.06635
1021.50 0.06633
1021.60 0.06631
1021.70 0.06629
1021.80 0.06628
1021.90 0.06626
1022.00 0.06624
1022.10 0.06622
1022.20 0.0662
1022.30 0.06618
1022.40 0.06616
1022.50 0.06614
1022.60 0.06612
1022.70 0.0661
1022.80 0.06608
1022.90 0.06607
1023.00 0.06605
1023.10 0.06603
1023.20 0.06601
1023.30 0.06599
1023.40 0.06597
1023.50 0.06595
1023.60 0.06593
1023.70 0.06591
1023.80 0.06589
1023.90 0.06587
1024.00 0.06585
1024.10 0.06583
1024.20 0.06581
1024.30 0.06579
1024.40 0.06577
1024.50 0.06576
1024.60 0.06574
1024.70 0.06572
1024.80 0.0657
1024.90 0.06567
1025.00 0.06565
1025.10 0.06563
1025.20 0.06561
1025.30 0.06559
1025.40 0.06557
1025.50 0.06555
1025.60 0.06553
1025.70 0.06551
1025.80 0.06549
1025.90 0.06547
1026.00 0.06545
1026.10 0.06543
1026.20 0.06541
1026.30 0.06538
1026.40 0.06536
1026.50 0.06534
1026.60 0.06532
1026.70 0.0653
1026.80 0.06528
1026.90 0.06526
1027.00 0.06524
1027.10 0.06522
1027.20 0.0652
1027.30 0.06517
1027.40 0.06515
1027.50 0.06513
1027.60 0.06511
1027.70 0.06509
1027.80 0.06506
1027.90 0.06504
1028.00 0.06502
1028.10 0.065
1028.20 0.06498
1028.30 0.06495
1028.40 0.06493
1028.50 0.06491
1028.60 0.06489
1028.70 0.06487
1028.80 0.06485
1028.90 0.06482
1029.00 0.0648
1029.10 0.06478
1029.20 0.06476
1029.30 0.06474
1029.40 0.06471
1029.50 0.06469
1029.60 0.06467
1029.70 0.06465
1029.80 0.06463
1029.90 0.06461
1030.00 0.06458
1030.10 0.06456
1030.20 0.06454
1030.30 0.06452
1030.40 0.0645
1030.50 0.06447
1030.60 0.06445
1030.70 0.06443
1030.80 0.06441
1030.90 0.06439
1031.00 0.06437
1031.10 0.06434
1031.20 0.06432
1031.30 0.0643
1031.40 0.06428
1031.50 0.06426
1031.60 0.06424
1031.70 0.06421
1031.80 0.06419
1031.90 0.06417
1032.00 0.06415
1032.10 0.06413
1032.20 0.0641
1032.30 0.06408
1032.40 0.06406
1032.50 0.06404
1032.60 0.06401
1032.70 0.06399
1032.80 0.06397
1032.90 0.06395
1033.00 0.06392
1033.10 0.0639
1033.20 0.06388
1033.30 0.06385
1033.40 0.06383
1033.50 0.06381
1033.60 0.06379
1033.70 0.06376
1033.80 0.06374
1033.90 0.06372
1034.00 0.0637
1034.10 0.06367
1034.20 0.06365
1034.30 0.06363
1034.40 0.06361
1034.50 0.06358
1034.60 0.06356
1034.70 0.06354
1034.80 0.06352
1034.90 0.06349
1035.00 0.06347
1035.10 0.06345
1035.20 0.06343
1035.30 0.0634
1035.40 0.06338
1035.50 0.06336
1035.60 0.06334
1035.70 0.06331
1035.80 0.06329
1035.90 0.06327
1036.00 0.06325
1036.10 0.06323
1036.20 0.0632
1036.30 0.06318
1036.40 0.06316
1036.50 0.06314
1036.60 0.06311
1036.70 0.06309
1036.80 0.06307
1036.90 0.06305
1037.00 0.06302
1037.10 0.063
1037.20 0.06298
1037.30 0.06296
1037.40 0.06293
1037.50 0.06291
1037.60 0.06289
1037.70 0.06286
1037.80 0.06284
1037.90 0.06282
1038.00 0.0628
1038.10 0.06277
1038.20 0.06275
1038.30 0.06273
1038.40 0.0627
1038.50 0.06268
1038.60 0.06266
1038.70 0.06264
1038.80 0.06261
1038.90 0.06259
1039.00 0.06257
1039.10 0.06255
1039.20 0.06252
1039.30 0.0625
1039.40 0.06248
1039.50 0.06245
1039.60 0.06243
1039.70 0.06241
1039.80 0.06239
1039.90 0.06236
1040.00 0.06234
1040.10 0.06232
1040.20 0.0623
1040.30 0.06227
1040.40 0.06225
1040.50 0.06223
1040.60 0.06221
1040.70 0.06218
1040.80 0.06216
1040.90 0.06214
1041.00 0.06212
1041.10 0.06209
1041.20 0.06207
1041.30 0.06205
1041.40 0.06203
1041.50 0.062
1041.60 0.06198
1041.70 0.06196
1041.80 0.06194
1041.90 0.06191
1042.00 0.06189
1042.10 0.06187
1042.20 0.06185
1042.30 0.06182
1042.40 0.0618
1042.50 0.06178
1042.60 0.06175
1042.70 0.06173
1042.80 0.06171
1042.90 0.06169
1043.00 0.06166
1043.10 0.06164
1043.20 0.06162
1043.30 0.0616
1043.40 0.06157
1043.50 0.06155
1043.60 0.06153
1043.70 0.0615
1043.80 0.06148
1043.90 0.06146
1044.00 0.06144
1044.10 0.06141
1044.20 0.06139
1044.30 0.06137
1044.40 0.06135
1044.50 0.06132
1044.60 0.0613
1044.70 0.06128
1044.80 0.06126
1044.90 0.06123
1045.00 0.06121
1045.10 0.06119
1045.20 0.06117
1045.30 0.06114
1045.40 0.06112
1045.50 0.0611
1045.60 0.06108
1045.70 0.06105
1045.80 0.06103
1045.90 0.06101
1046.00 0.06099
1046.10 0.06096
1046.20 0.06094
1046.30 0.06092
1046.40 0.0609
1046.50 0.06087
1046.60 0.06085
1046.70 0.06083
1046.80 0.06081
1046.90 0.06078
1047.00 0.06076
1047.10 0.06074
1047.20 0.06072
1047.30 0.06069
1047.40 0.06067
1047.50 0.06065
1047.60 0.06063
1047.70 0.0606
1047.80 0.06058
1047.90 0.06056
1048.00 0.06054
1048.10 0.06051
1048.20 0.06049
1048.30 0.06047
1048.40 0.06045
1048.50 0.06042
1048.60 0.0604
1048.70 0.06038
1048.80 0.06036
1048.90 0.06033
1049.00 0.06031
1049.10 0.06029
1049.20 0.06027
1049.30 0.06024
1049.40 0.06022
1049.50 0.0602
1049.60 0.06018
1049.70 0.06015
1049.80 0.06013
1049.90 0.06011
1050.00 0.06009
1050.10 0.06006
1050.20 0.06004
1050.30 0.06002
1050.40 0.06
1050.50 0.05998
1050.60 0.05995
1050.70 0.05993
1050.80 0.05991
1050.90 0.05989
1051.00 0.05986
1051.10 0.05984
1051.20 0.05982
1051.30 0.0598
1051.40 0.05977
1051.50 0.05975
1051.60 0.05973
1051.70 0.05971
1051.80 0.05969
1051.90 0.05966
1052.00 0.05964
1052.10 0.05962
1052.20 0.0596
1052.30 0.05957
1052.40 0.05955
1052.50 0.05953
1052.60 0.05951
1052.70 0.05948
1052.80 0.05946
1052.90 0.05944
1053.00 0.05942
1053.10 0.05939
1053.20 0.05937
1053.30 0.05935
1053.40 0.05933
1053.50 0.05931
1053.60 0.05928
1053.70 0.05926
1053.80 0.05924
1053.90 0.05922
1054.00 0.05919
1054.10 0.05917
1054.20 0.05915
1054.30 0.05913
1054.40 0.0591
1054.50 0.05908
1054.60 0.05906
1054.70 0.05904
1054.80 0.05902
1054.90 0.05899
1055.00 0.05897
1055.10 0.05895
1055.20 0.05893
1055.30 0.0589
1055.40 0.05888
1055.50 0.05886
1055.60 0.05884
1055.70 0.05882
1055.80 0.05879
1055.90 0.05877
1056.00 0.05875
1056.10 0.05873
1056.20 0.05871
1056.30 0.05868
1056.40 0.05866
1056.50 0.05864
1056.60 0.05862
1056.70 0.05859
1056.80 0.05857
1056.90 0.05855
1057.00 0.05853
1057.10 0.05851
1057.20 0.05848
1057.30 0.05846
1057.40 0.05844
1057.50 0.05842
1057.60 0.05839
1057.70 0.05837
1057.80 0.05835
1057.90 0.05833
1058.00 0.0583
1058.10 0.05828
1058.20 0.05826
1058.30 0.05824
1058.40 0.05822
1058.50 0.05819
1058.60 0.05817
1058.70 0.05815
1058.80 0.05813
1058.90 0.0581
1059.00 0.05808
1059.10 0.05806
1059.20 0.05804
1059.30 0.05801
1059.40 0.05799
1059.50 0.05797
1059.60 0.05795
1059.70 0.05793
1059.80 0.0579
1059.90 0.05788
1060.00 0.05786
1060.10 0.05784
1060.20 0.05782
1060.30 0.05779
1060.40 0.05777
1060.50 0.05775
1060.60 0.05773
1060.70 0.0577
1060.80 0.05768
1060.90 0.05766
1061.00 0.05764
1061.10 0.05762
1061.20 0.05759
1061.30 0.05757
1061.40 0.05755
1061.50 0.05753
1061.60 0.05751
1061.70 0.05748
1061.80 0.05746
1061.90 0.05744
1062.00 0.05742
1062.10 0.05739
1062.20 0.05737
1062.30 0.05735
1062.40 0.05733
1062.50 0.0573
1062.60 0.05728
1062.70 0.05726
1062.80 0.05724
1062.90 0.05721
1063.00 0.05719
1063.10 0.05717
1063.20 0.05715
1063.30 0.05712
1063.40 0.0571
1063.50 0.05708
1063.60 0.05706
1063.70 0.05703
1063.80 0.05701
1063.90 0.05699
1064.00 0.05697
1064.10 0.05694
1064.20 0.05692
1064.30 0.0569
1064.40 0.05688
1064.50 0.05685
1064.60 0.05683
1064.70 0.05681
1064.80 0.05679
1064.90 0.05676
1065.00 0.05674
1065.10 0.05672
1065.20 0.0567
1065.30 0.05667
1065.40 0.05665
1065.50 0.05663
1065.60 0.05661
1065.70 0.05658
1065.80 0.05656
1065.90 0.05654
1066.00 0.05652
1066.10 0.0565
1066.20 0.05647
1066.30 0.05645
1066.40 0.05643
1066.50 0.05641
1066.60 0.05638
1066.70 0.05636
1066.80 0.05634
1066.90 0.05632
1067.00 0.05629
1067.10 0.05627
1067.20 0.05625
1067.30 0.05622
1067.40 0.0562
1067.50 0.05618
1067.60 0.05615
1067.70 0.05613
1067.80 0.05611
1067.90 0.05608
1068.00 0.05606
1068.10 0.05604
1068.20 0.05601
1068.30 0.05599
1068.40 0.05597
1068.50 0.05594
1068.60 0.05592
1068.70 0.0559
1068.80 0.05587
1068.90 0.05585
1069.00 0.05583
1069.10 0.0558
1069.20 0.05578
1069.30 0.05576
1069.40 0.05573
1069.50 0.05571
1069.60 0.05569
1069.70 0.05566
1069.80 0.05564
1069.90 0.05562
1070.00 0.05559
1070.10 0.05557
1070.20 0.05555
1070.30 0.05553
1070.40 0.0555
1070.50 0.05548
1070.60 0.05546
1070.70 0.05543
1070.80 0.05541
1070.90 0.05539
1071.00 0.05536
1071.10 0.05534
1071.20 0.05532
1071.30 0.05529
1071.40 0.05527
1071.50 0.05525
1071.60 0.05522
1071.70 0.0552
1071.80 0.05518
1071.90 0.05515
1072.00 0.05513
1072.10 0.05511
1072.20 0.05508
1072.30 0.05506
1072.40 0.05503
1072.50 0.05501
1072.60 0.05499
1072.70 0.05496
1072.80 0.05494
1072.90 0.05491
1073.00 0.05489
1073.10 0.05486
1073.20 0.05484
1073.30 0.05482
1073.40 0.05479
1073.50 0.05477
1073.60 0.05474
1073.70 0.05472
1073.80 0.05469
1073.90 0.05466
1074.00 0.05464
1074.10 0.05461
1074.20 0.05459
1074.30 0.05456
1074.40 0.05453
1074.50 0.05451
1074.60 0.05448
1074.70 0.05446
1074.80 0.05443
1074.90 0.05441
1075.00 0.05438
1075.10 0.05435
1075.20 0.05433
1075.30 0.0543
1075.40 0.05428
1075.50 0.05425
1075.60 0.05423
1075.70 0.0542
1075.80 0.05417
1075.90 0.05415
1076.00 0.05412
1076.10 0.0541
1076.20 0.05407
1076.30 0.05405
1076.40 0.05402
1076.50 0.054
1076.60 0.05397
1076.70 0.05394
1076.80 0.05392
1076.90 0.05389
1077.00 0.05387
1077.10 0.05384
1077.20 0.05381
1077.30 0.05379
1077.40 0.05376
1077.50 0.05373
1077.60 0.0537
1077.70 0.05367
1077.80 0.05364
1077.90 0.05362
1078.00 0.05359
1078.10 0.05356
1078.20 0.05353
1078.30 0.0535
1078.40 0.05347
1078.50 0.05344
1078.60 0.05342
1078.70 0.05339
1078.80 0.05336
1078.90 0.05333
1079.00 0.0533
1079.10 0.05327
1079.20 0.05325
1079.30 0.05322
1079.40 0.05319
1079.50 0.05316
1079.60 0.05313
1079.70 0.0531
1079.80 0.05307
1079.90 0.05303
1080.00 0.053
1080.10 0.05297
1080.20 0.05294
1080.30 0.05291
1080.40 0.05288
1080.50 0.05285
1080.60 0.05281
1080.70 0.05278
1080.80 0.05275
1080.90 0.05272
1081.00 0.05269
1081.10 0.05266
1081.20 0.05263
1081.30 0.0526
1081.40 0.05257
1081.50 0.05253
1081.60 0.0525
1081.70 0.05247
1081.80 0.05243
1081.90 0.0524
1082.00 0.05237
1082.10 0.05233
1082.20 0.0523
1082.30 0.05226
1082.40 0.05222
1082.50 0.05219
1082.60 0.05215
1082.70 0.05212
1082.80 0.05208
1082.90 0.05205
1083.00 0.05201
1083.10 0.05198
1083.20 0.05194
1083.30 0.05191
1083.40 0.05187
1083.50 0.05183
1083.60 0.05179
1083.70 0.05176
1083.80 0.05172
1083.90 0.05168
1084.00 0.05164
1084.10 0.0516
1084.20 0.05156
1084.30 0.05153
1084.40 0.05149
1084.50 0.05145
1084.60 0.0514
1084.70 0.05136
1084.80 0.05132
1084.90 0.05127
1085.00 0.05123
1085.10 0.05119
1085.20 0.05115
1085.30 0.0511
1085.40 0.05106
1085.50 0.05102
1085.60 0.05097
1085.70 0.05093
1085.80 0.05089
1085.90 0.05084
1086.00 0.0508
1086.10 0.05076
1086.20 0.05072
1086.30 0.05067
1086.40 0.05063
1086.50 0.05059
1086.60 0.05054
1086.70 0.05049
1086.80 0.05044
1086.90 0.0504
1087.00 0.05035
1087.10 0.0503
1087.20 0.05025
1087.30 0.0502
1087.40 0.05015
1087.50 0.05009
1087.60 0.05004
1087.70 0.04999
1087.80 0.04994
1087.90 0.04989
1088.00 0.04984
1088.10 0.04979
1088.20 0.04974
1088.30 0.04969
1088.40 0.04963
1088.50 0.04958
1088.60 0.04952
1088.70 0.04947
1088.80 0.04941
1088.90 0.04935
1089.00 0.04929
1089.10 0.04923
1089.20 0.04918
1089.30 0.04912
1089.40 0.04906
1089.50 0.049
1089.60 0.04895
1089.70 0.04889
1089.80 0.04883
1089.90 0.04877
1090.00 0.04872
1090.10 0.04866
1090.20 0.0486
1090.30 0.04854
1090.40 0.04849
1090.50 0.04843
1090.60 0.04837
1090.70 0.0483
1090.80 0.04824
1090.90 0.04818
1091.00 0.04812
1091.10 0.04806
1091.20 0.048
1091.30 0.04793
1091.40 0.04787
1091.50 0.04781
1091.60 0.04775
1091.70 0.04769
1091.80 0.04763
1091.90 0.04756
1092.00 0.0475
1092.10 0.04744
1092.20 0.04738
1092.30 0.04731
1092.40 0.04725
1092.50 0.04719
1092.60 0.04713
1092.70 0.04706
1092.80 0.04699
1092.90 0.04693
1093.00 0.04686
1093.10 0.04679
1093.20 0.04671
1093.30 0.04664
1093.40 0.04656
1093.50 0.04648
1093.60 0.04639
1093.70 0.04634
1093.80 0.04632
1093.90 0.04632
1094.00 0.04636
1094.10 0.0464
1094.20 0.04643
1094.30 0.04647
1094.40 0.04651
1094.50 0.04655
1094.60 0.04659
1094.70 0.04663
1094.80 0.04667
1094.90 0.0467
1095.00 0.04674
1095.10 0.04677
1095.20 0.0468
1095.30 0.04683
1095.40 0.04686
1095.50 0.04689
1095.60 0.04692
1095.70 0.04695
1095.80 0.04698
1095.90 0.04701
1096.00 0.04703
1096.10 0.04706
1096.20 0.04709
1096.30 0.04712
1096.40 0.04715
1096.50 0.04718
1096.60 0.04721
1096.70 0.04724
1096.80 0.04727
1096.90 0.04729
1097.00 0.04732
1097.10 0.04735
1097.20 0.04737
1097.30 0.04739
1097.40 0.04742
1097.50 0.04744
1097.60 0.04747
1097.70 0.04749
1097.80 0.04752
1097.90 0.04754
1098.00 0.04757
1098.10 0.04759
1098.20 0.04762
1098.30 0.04764
1098.40 0.04767
1098.50 0.04769
1098.60 0.04771
1098.70 0.04772
1098.80 0.04774
1098.90 0.04776
1099.00 0.04778
1099.10 0.04779
1099.20 0.04781
1099.30 0.04783
1099.40 0.04784
1099.50 0.04786
1099.60 0.04788
1099.70 0.0479
1099.80 0.04791
1099.90 0.04793
1100.00 0.04795
1100.10 0.04797
1100.20 0.04798
1100.30 0.048
1100.40 0.04802
1100.50 0.04803
1100.60 0.04804
1100.70 0.04805
1100.80 0.04806
1100.90 0.04807
1101.00 0.04808
1101.10 0.04809
1101.20 0.0481
1101.30 0.04811
1101.40 0.04812
1101.50 0.04813
1101.60 0.04814
1101.70 0.04815
1101.80 0.04816
1101.90 0.04817
1102.00 0.04818
1102.10 0.04819
1102.20 0.04819
1102.30 0.0482
1102.40 0.04821
1102.50 0.04821
1102.60 0.04822
1102.70 0.04822
1102.80 0.04822
1102.90 0.04823
1103.00 0.04823
1103.10 0.04823
1103.20 0.04824
1103.30 0.04824
1103.40 0.04825
1103.50 0.04825
1103.60 0.04825
1103.70 0.04825
1103.80 0.04825
1103.90 0.04825
1104.00 0.04825
1104.10 0.04825
1104.20 0.04825
1104.30 0.04825
1104.40 0.04824
1104.50 0.04824
1104.60 0.04824
1104.70 0.04824
1104.80 0.04824
1104.90 0.04824
1105.00 0.04824
1105.10 0.04824
1105.20 0.04824
1105.30 0.04824
1105.40 0.04824
1105.50 0.04824
1105.60 0.04823
1105.70 0.04823
1105.80 0.04823
1105.90 0.04822
1106.00 0.04822
1106.10 0.04821
1106.20 0.04821
1106.30 0.0482
1106.40 0.0482
1106.50 0.0482
1106.60 0.04819
1106.70 0.04819
1106.80 0.04818
1106.90 0.04818
1107.00 0.04817
1107.10 0.04817
1107.20 0.04816
1107.30 0.04816
1107.40 0.04815
1107.50 0.04814
1107.60 0.04814
1107.70 0.04813
1107.80 0.04812
1107.90 0.04811
1108.00 0.0481
1108.10 0.0481
1108.20 0.04809
1108.30 0.04808
1108.40 0.04807
1108.50 0.04806
1108.60 0.04806
1108.70 0.04805
1108.80 0.04804
1108.90 0.04803
1109.00 0.04803
1109.10 0.04802
1109.20 0.04801
1109.30 0.048
1109.40 0.04799
1109.50 0.04799
1109.60 0.04797
1109.70 0.04796
1109.80 0.04795
1109.90 0.04794
1110.00 0.04793
1110.10 0.04792
1110.20 0.04791
1110.30 0.0479
1110.40 0.04789
1110.50 0.04788
1110.60 0.04787
1110.70 0.04786
1110.80 0.04785
1110.90 0.04784
1111.00 0.04783
1111.10 0.04782
1111.20 0.04781
1111.30 0.0478
1111.40 0.04779
1111.50 0.04778
1111.60 0.04777
1111.70 0.04776
1111.80 0.04775
1111.90 0.04774
1112.00 0.04773
1112.10 0.04772
1112.20 0.0477
1112.30 0.04769
1112.40 0.04768
1112.50 0.04767
1112.60 0.04766
1112.70 0.04764
1112.80 0.04763
1112.90 0.04762
1113.00 0.04761
1113.10 0.0476
1113.20 0.04759
1113.30 0.04757
1113.40 0.04756
1113.50 0.04755
1113.60 0.04754
1113.70 0.04752
1113.80 0.04751
1113.90 0.0475
1114.00 0.04748
1114.10 0.04747
1114.20 0.04746
1114.30 0.04744
1114.40 0.04743
1114.50 0.04742
1114.60 0.04741
1114.70 0.04739
1114.80 0.04738
1114.90 0.04737
1115.00 0.04735
1115.10 0.04734
1115.20 0.04733
1115.30 0.04731
1115.40 0.0473
1115.50 0.04729
1115.60 0.04727
1115.70 0.04726
1115.80 0.04725
1115.90 0.04724
1116.00 0.04722
1116.10 0.04721
1116.20 0.0472
1116.30 0.04718
1116.40 0.04717
1116.50 0.04716
1116.60 0.04714
1116.70 0.04713
1116.80 0.04712
1116.90 0.04711
1117.00 0.04709
1117.10 0.04708
1117.20 0.04706
1117.30 0.04705
1117.40 0.04703
1117.50 0.04702
1117.60 0.04701
1117.70 0.04699
1117.80 0.04698
1117.90 0.04696
1118.00 0.04695
1118.10 0.04693
1118.20 0.04692
1118.30 0.04691
1118.40 0.04689
1118.50 0.04688
1118.60 0.04686
1118.70 0.04685
1118.80 0.04683
1118.90 0.04682
1119.00 0.04681
1119.10 0.04679
1119.20 0.04678
1119.30 0.04676
1119.40 0.04675
1119.50 0.04673
1119.60 0.04672
1119.70 0.04671
1119.80 0.04669
1119.90 0.04668
1120.00 0.04666
1120.10 0.04665
1120.20 0.04663
1120.30 0.04662
1120.40 0.04661
1120.50 0.04659
1120.60 0.04658
1120.70 0.04656
1120.80 0.04655
1120.90 0.04654
1121.00 0.04652
1121.10 0.04651
1121.20 0.04649
1121.30 0.04648
1121.40 0.04646
1121.50 0.04645
1121.60 0.04644
1121.70 0.04642
1121.80 0.04641
1121.90 0.04639
1122.00 0.04638
1122.10 0.04636
1122.20 0.04635
1122.30 0.04633
1122.40 0.04632
1122.50 0.0463
1122.60 0.04629
1122.70 0.04628
1122.80 0.04626
1122.90 0.04625
1123.00 0.04623
1123.10 0.04622
1123.20 0.0462
1123.30 0.04619
1123.40 0.04617
1123.50 0.04616
1123.60 0.04614
1123.70 0.04613
1123.80 0.04611
1123.90 0.0461
1124.00 0.04608
1124.10 0.04607
1124.20 0.04605
1124.30 0.04604
1124.40 0.04602
1124.50 0.04601
1124.60 0.04599
1124.70 0.04598
1124.80 0.04596
1124.90 0.04595
1125.00 0.04593
1125.10 0.04592
1125.20 0.0459
1125.30 0.04589
1125.40 0.04587
1125.50 0.04586
1125.60 0.04584
1125.70 0.04583
1125.80 0.04581
1125.90 0.0458
1126.00 0.04579
1126.10 0.04577
1126.20 0.04576
1126.30 0.04574
1126.40 0.04573
1126.50 0.04571
1126.60 0.0457
1126.70 0.04568
1126.80 0.04567
1126.90 0.04565
1127.00 0.04564
1127.10 0.04562
1127.20 0.04561
1127.30 0.04559
1127.40 0.04558
1127.50 0.04556
1127.60 0.04555
1127.70 0.04553
1127.80 0.04552
1127.90 0.0455
1128.00 0.04549
1128.10 0.04547
1128.20 0.04546
1128.30 0.04544
1128.40 0.04543
1128.50 0.04541
1128.60 0.0454
1128.70 0.04538
1128.80 0.04537
1128.90 0.04535
1129.00 0.04534
1129.10 0.04532
1129.20 0.04531
1129.30 0.04529
1129.40 0.04528
1129.50 0.04526
1129.60 0.04525
1129.70 0.04523
1129.80 0.04522
1129.90 0.0452
1130.00 0.04519
1130.10 0.04517
1130.20 0.04516
1130.30 0.04514
1130.40 0.04513
1130.50 0.04511
1130.60 0.0451
1130.70 0.04508
1130.80 0.04507
1130.90 0.04505
1131.00 0.04504
1131.10 0.04502
1131.20 0.04501
1131.30 0.04499
1131.40 0.04498
1131.50 0.04496
1131.60 0.04495
1131.70 0.04493
1131.80 0.04492
1131.90 0.0449
1132.00 0.04489
1132.10 0.04487
1132.20 0.04486
1132.30 0.04484
1132.40 0.04483
1132.50 0.04481
1132.60 0.0448
1132.70 0.04478
1132.80 0.04477
1132.90 0.04475
1133.00 0.04474
1133.10 0.04472
1133.20 0.04471
1133.30 0.04469
1133.40 0.04468
1133.50 0.04467
1133.60 0.04465
1133.70 0.04464
1133.80 0.04462
1133.90 0.04461
1134.00 0.04459
1134.10 0.04458
1134.20 0.04456
1134.30 0.04455
1134.40 0.04453
1134.50 0.04452
1134.60 0.0445
1134.70 0.04449
1134.80 0.04447
1134.90 0.04446
1135.00 0.04444
1135.10 0.04443
1135.20 0.04441
1135.30 0.0444
1135.40 0.04438
1135.50 0.04437
1135.60 0.04435
1135.70 0.04434
1135.80 0.04432
1135.90 0.04431
1136.00 0.04429
1136.10 0.04428
1136.20 0.04426
1136.30 0.04425
1136.40 0.04423
1136.50 0.04422
1136.60 0.0442
1136.70 0.04419
1136.80 0.04417
1136.90 0.04416
1137.00 0.04414
1137.10 0.04413
1137.20 0.04412
1137.30 0.0441
1137.40 0.04409
1137.50 0.04407
1137.60 0.04406
1137.70 0.04404
1137.80 0.04403
1137.90 0.04401
1138.00 0.044
1138.10 0.04398
1138.20 0.04397
1138.30 0.04395
1138.40 0.04394
1138.50 0.04392
1138.60 0.04391
1138.70 0.04389
1138.80 0.04388
1138.90 0.04386
1139.00 0.04385
1139.10 0.04383
1139.20 0.04382
1139.30 0.0438
1139.40 0.04379
1139.50 0.04378
1139.60 0.04376
1139.70 0.04375
1139.80 0.04373
1139.90 0.04372
1140.00 0.0437
1140.10 0.04369
1140.20 0.04367
1140.30 0.04366
1140.40 0.04364
1140.50 0.04363
1140.60 0.04361
1140.70 0.0436
1140.80 0.04358
1140.90 0.04357
1141.00 0.04355
1141.10 0.04354
1141.20 0.04353
1141.30 0.04351
1141.40 0.0435
1141.50 0.04348
1141.60 0.04347
1141.70 0.04345
1141.80 0.04344
1141.90 0.04342
1142.00 0.04341
1142.10 0.04339
1142.20 0.04338
1142.30 0.04336
1142.40 0.04335
1142.50 0.04334
1142.60 0.04332
1142.70 0.04331
1142.80 0.04329
1142.90 0.04328
1143.00 0.04326
1143.10 0.04325
1143.20 0.04323
1143.30 0.04322
1143.40 0.0432
1143.50 0.04319
1143.60 0.04318
1143.70 0.04316
1143.80 0.04315
1143.90 0.04313
1144.00 0.04312
1144.10 0.0431
1144.20 0.04309
1144.30 0.04307
1144.40 0.04306
1144.50 0.04304
1144.60 0.04303
1144.70 0.04302
1144.80 0.043
1144.90 0.04299
1145.00 0.04297
1145.10 0.04296
1145.20 0.04294
1145.30 0.04293
1145.40 0.04291
1145.50 0.0429
1145.60 0.04289
1145.70 0.04287
1145.80 0.04286
1145.90 0.04284
1146.00 0.04283
1146.10 0.04281
1146.20 0.0428
1146.30 0.04278
1146.40 0.04277
1146.50 0.04276
1146.60 0.04274
1146.70 0.04273
1146.80 0.04271
1146.90 0.0427
1147.00 0.04268
1147.10 0.04267
1147.20 0.04265
1147.30 0.04264
1147.40 0.04263
1147.50 0.04261
1147.60 0.0426
1147.70 0.04258
1147.80 0.04257
1147.90 0.04255
1148.00 0.04254
1148.10 0.04253
1148.20 0.04251
1148.30 0.0425
1148.40 0.04248
1148.50 0.04247
1148.60 0.04245
1148.70 0.04244
1148.80 0.04243
1148.90 0.04241
1149.00 0.0424
1149.10 0.04238
1149.20 0.04237
1149.30 0.04235
1149.40 0.04234
1149.50 0.04233
1149.60 0.04231
1149.70 0.0423
1149.80 0.04228
1149.90 0.04227
1150.00 0.04225
1150.10 0.04224
1150.20 0.04223
1150.30 0.04221
1150.40 0.0422
1150.50 0.04218
1150.60 0.04217
1150.70 0.04216
1150.80 0.04214
1150.90 0.04213
1151.00 0.04211
1151.10 0.0421
1151.20 0.04208
1151.30 0.04207
1151.40 0.04206
1151.50 0.04204
1151.60 0.04203
1151.70 0.04201
1151.80 0.042
1151.90 0.04198
1152.00 0.04197
1152.10 0.04196
1152.20 0.04194
1152.30 0.04193
1152.40 0.04191
1152.50 0.0419
1152.60 0.04189
1152.70 0.04187
1152.80 0.04186
1152.90 0.04184
1153.00 0.04183
1153.10 0.04182
1153.20 0.0418
1153.30 0.04179
1153.40 0.04177
1153.50 0.04176
1153.60 0.04175
1153.70 0.04173
1153.80 0.04172
1153.90 0.0417
1154.00 0.04169
1154.10 0.04168
1154.20 0.04166
1154.30 0.04165
1154.40 0.04163
1154.50 0.04162
1154.60 0.04161
1154.70 0.04159
1154.80 0.04158
1154.90 0.04156
1155.00 0.04155
1155.10 0.04154
1155.20 0.04152
1155.30 0.04151
1155.40 0.04149
1155.50 0.04148
1155.60 0.04147
1155.70 0.04145
1155.80 0.04144
1155.90 0.04142
1156.00 0.04141
1156.10 0.0414
1156.20 0.04138
1156.30 0.04137
1156.40 0.04135
1156.50 0.04134
1156.60 0.04133
1156.70 0.04131
1156.80 0.0413
1156.90 0.04128
1157.00 0.04127
1157.10 0.04126
1157.20 0.04124
1157.30 0.04123
1157.40 0.04122
1157.50 0.0412
1157.60 0.04119
1157.70 0.04117
1157.80 0.04116
1157.90 0.04115
1158.00 0.04113
1158.10 0.04112
1158.20 0.04111
1158.30 0.04109
1158.40 0.04108
1158.50 0.04106
1158.60 0.04105
1158.70 0.04104
1158.80 0.04102
1158.90 0.04101
1159.00 0.041
1159.10 0.04098
1159.20 0.04097
1159.30 0.04095
1159.40 0.04094
1159.50 0.04093
1159.60 0.04091
1159.70 0.0409
1159.80 0.04089
1159.90 0.04087
1160.00 0.04086
1160.10 0.04084
1160.20 0.04083
1160.30 0.04082
1160.40 0.0408
1160.50 0.04079
1160.60 0.04078
1160.70 0.04076
1160.80 0.04075
1160.90 0.04073
1161.00 0.04072
1161.10 0.04071
1161.20 0.04069
1161.30 0.04068
1161.40 0.04067
1161.50 0.04065
1161.60 0.04064
1161.70 0.04063
1161.80 0.04061
1161.90 0.0406
1162.00 0.04058
1162.10 0.04057
1162.20 0.04056
1162.30 0.04054
1162.40 0.04053
1162.50 0.04052
1162.60 0.0405
1162.70 0.04049
1162.80 0.04048
1162.90 0.04046
1163.00 0.04045
1163.10 0.04044
1163.20 0.04042
1163.30 0.04041
1163.40 0.0404
1163.50 0.04038
1163.60 0.04037
1163.70 0.04035
1163.80 0.04034
1163.90 0.04033
1164.00 0.04031
1164.10 0.0403
1164.20 0.04029
1164.30 0.04027
1164.40 0.04026
1164.50 0.04025
1164.60 0.04023
1164.70 0.04022
1164.80 0.04021
1164.90 0.04019
1165.00 0.04018
1165.10 0.04017
1165.20 0.04015
1165.30 0.04014
1165.40 0.04013
1165.50 0.04011
1165.60 0.0401
1165.70 0.04009
1165.80 0.04007
1165.90 0.04006
1166.00 0.04005
1166.10 0.04003
1166.20 0.04002
1166.30 0.04001
1166.40 0.03999
1166.50 0.03998
1166.60 0.03997
1166.70 0.03995
1166.80 0.03994
1166.90 0.03993
1167.00 0.03991
1167.10 0.0399
1167.20 0.03989
1167.30 0.03987
1167.40 0.03986
1167.50 0.03985
1167.60 0.03983
1167.70 0.03982
1167.80 0.03981
1167.90 0.03979
1168.00 0.03978
1168.10 0.03977
1168.20 0.03975
1168.30 0.03974
1168.40 0.03973
1168.50 0.03971
1168.60 0.0397
1168.70 0.03969
1168.80 0.03967
1168.90 0.03966
1169.00 0.03965
1169.10 0.03963
1169.20 0.03962
1169.30 0.03961
1169.40 0.03959
1169.50 0.03958
1169.60 0.03957
1169.70 0.03955
1169.80 0.03954
1169.90 0.03953
1170.00 0.03951
1170.10 0.0395
1170.20 0.03949
1170.30 0.03948
1170.40 0.03946
1170.50 0.03945
1170.60 0.03944
1170.70 0.03942
1170.80 0.03941
1170.90 0.0394
1171.00 0.03938
1171.10 0.03937
1171.20 0.03936
1171.30 0.03934
1171.40 0.03933
1171.50 0.03932
1171.60 0.0393
1171.70 0.03929
1171.80 0.03928
1171.90 0.03926
1172.00 0.03925
1172.10 0.03924
1172.20 0.03923
1172.30 0.03921
1172.40 0.0392
1172.50 0.03919
1172.60 0.03917
1172.70 0.03916
1172.80 0.03915
1172.90 0.03913
1173.00 0.03912
1173.10 0.03911
1173.20 0.0391
1173.30 0.03908
1173.40 0.03907
1173.50 0.03906
1173.60 0.03904
1173.70 0.03903
1173.80 0.03902
1173.90 0.039
1174.00 0.03899
1174.10 0.03898
1174.20 0.03897
1174.30 0.03895
1174.40 0.03894
1174.50 0.03893
1174.60 0.03891
1174.70 0.0389
1174.80 0.03889
1174.90 0.03888
1175.00 0.03886
1175.10 0.03885
1175.20 0.03884
1175.30 0.03882
1175.40 0.03881
1175.50 0.0388
1175.60 0.03879
1175.70 0.03877
1175.80 0.03876
1175.90 0.03875
1176.00 0.03873
1176.10 0.03872
1176.20 0.03871
1176.30 0.0387
1176.40 0.03868
1176.50 0.03867
1176.60 0.03866
1176.70 0.03864
1176.80 0.03863
1176.90 0.03862
1177.00 0.03861
1177.10 0.03859
1177.20 0.03858
1177.30 0.03857
1177.40 0.03855
1177.50 0.03854
1177.60 0.03853
1177.70 0.03852
1177.80 0.0385
1177.90 0.03849
1178.00 0.03848
1178.10 0.03846
1178.20 0.03845
1178.30 0.03844
1178.40 0.03843
1178.50 0.03841
1178.60 0.0384
1178.70 0.03839
1178.80 0.03838
1178.90 0.03836
1179.00 0.03835
1179.10 0.03834
1179.20 0.03833
1179.30 0.03831
1179.40 0.0383
1179.50 0.03829
1179.60 0.03827
1179.70 0.03826
1179.80 0.03825
1179.90 0.03824
1180.00 0.03822
1180.10 0.03821
1180.20 0.0382
1180.30 0.03819
1180.40 0.03817
1180.50 0.03816
1180.60 0.03815
1180.70 0.03814
1180.80 0.03812
1180.90 0.03811
1181.00 0.0381
1181.10 0.03808
1181.20 0.03807
1181.30 0.03806
1181.40 0.03805
1181.50 0.03803
1181.60 0.03802
1181.70 0.03801
1181.80 0.038
1181.90 0.03798
1182.00 0.03797
1182.10 0.03796
1182.20 0.03795
1182.30 0.03793
1182.40 0.03792
1182.50 0.03791
1182.60 0.0379
1182.70 0.03788
1182.80 0.03787
1182.90 0.03786
1183.00 0.03785
1183.10 0.03783
1183.20 0.03782
1183.30 0.03781
1183.40 0.0378
1183.50 0.03778
1183.60 0.03777
1183.70 0.03776
1183.80 0.03775
1183.90 0.03773
1184.00 0.03772
1184.10 0.03771
1184.20 0.0377
1184.30 0.03768
1184.40 0.03767
1184.50 0.03766
1184.60 0.03765
1184.70 0.03763
1184.80 0.03762
1184.90 0.03761
1185.00 0.0376
1185.10 0.03758
1185.20 0.03757
1185.30 0.03756
1185.40 0.03755
1185.50 0.03754
1185.60 0.03752
1185.70 0.03751
1185.80 0.0375
1185.90 0.03749
1186.00 0.03747
1186.10 0.03746
1186.20 0.03745
1186.30 0.03744
1186.40 0.03742
1186.50 0.03741
1186.60 0.0374
1186.70 0.03739
1186.80 0.03737
1186.90 0.03736
1187.00 0.03735
1187.10 0.03734
1187.20 0.03733
1187.30 0.03731
1187.40 0.0373
1187.50 0.03729
1187.60 0.03728
1187.70 0.03726
1187.80 0.03725
1187.90 0.03724
1188.00 0.03723
1188.10 0.03721
1188.20 0.0372
1188.30 0.03719
1188.40 0.03718
1188.50 0.03717
1188.60 0.03715
1188.70 0.03714
1188.80 0.03713
1188.90 0.03712
1189.00 0.03711
1189.10 0.03709
1189.20 0.03708
1189.30 0.03707
1189.40 0.03706
1189.50 0.03704
1189.60 0.03703
1189.70 0.03702
1189.80 0.03701
1189.90 0.037
1190.00 0.03698
1190.10 0.03697
1190.20 0.03696
1190.30 0.03695
1190.40 0.03693
1190.50 0.03692
1190.60 0.03691
1190.70 0.0369
1190.80 0.03689
1190.90 0.03687
1191.00 0.03686
1191.10 0.03685
1191.20 0.03684
1191.30 0.03683
1191.40 0.03681
1191.50 0.0368
1191.60 0.03679
1191.70 0.03678
1191.80 0.03677
1191.90 0.03675
1192.00 0.03674
1192.10 0.03673
1192.20 0.03672
1192.30 0.0367
1192.40 0.03669
1192.50 0.03668
1192.60 0.03667
1192.70 0.03666
1192.80 0.03664
1192.90 0.03663
1193.00 0.03662
1193.10 0.03661
1193.20 0.0366
1193.30 0.03658
1193.40 0.03657
1193.50 0.03656
1193.60 0.03655
1193.70 0.03654
1193.80 0.03652
1193.90 0.03651
1194.00 0.0365
1194.10 0.03649
1194.20 0.03648
1194.30 0.03646
1194.40 0.03645
1194.50 0.03644
1194.60 0.03643
1194.70 0.03642
1194.80 0.03641
1194.90 0.03639
1195.00 0.03638
1195.10 0.03637
1195.20 0.03636
1195.30 0.03635
1195.40 0.03633
1195.50 0.03632
1195.60 0.03631
1195.70 0.0363
1195.80 0.03629
1195.90 0.03627
1196.00 0.03626
1196.10 0.03625
1196.20 0.03624
1196.30 0.03623
1196.40 0.03621
1196.50 0.0362
1196.60 0.03619
1196.70 0.03618
1196.80 0.03617
1196.90 0.03616
1197.00 0.03614
1197.10 0.03613
1197.20 0.03612
1197.30 0.03611
1197.40 0.0361
1197.50 0.03608
1197.60 0.03607
1197.70 0.03606
1197.80 0.03605
1197.90 0.03604
1198.00 0.03603
1198.10 0.03601
1198.20 0.036
1198.30 0.03599
1198.40 0.03598
1198.50 0.03597
1198.60 0.03595
1198.70 0.03594
1198.80 0.03593
1198.90 0.03592
1199.00 0.03591
1199.10 0.0359
1199.20 0.03588
1199.30 0.03587
1199.40 0.03586
1199.50 0.03585
1199.60 0.03584
1199.70 0.03583
1199.80 0.03581
1199.90 0.0358
1200.00 0
