# Version 2.1 - nm, norm@500 to 1, cut digits, bergeron_60000_80.dat_60000
# Wavelength(nm)  Flambda(ergs/cm^s/s/nm)
300.00 6.403
300.10 6.395
300.20 6.387
300.30 6.379
300.40 6.371
300.50 6.364
300.60 6.356
300.70 6.348
300.80 6.34
300.90 6.333
301.00 6.325
301.10 6.317
301.20 6.309
301.30 6.302
301.40 6.294
301.50 6.286
301.60 6.279
301.70 6.271
301.80 6.264
301.90 6.256
302.00 6.248
302.10 6.241
302.20 6.233
302.30 6.226
302.40 6.218
302.50 6.211
302.60 6.203
302.70 6.196
302.80 6.188
302.90 6.181
303.00 6.173
303.10 6.166
303.20 6.158
303.30 6.151
303.40 6.143
303.50 6.136
303.60 6.128
303.70 6.121
303.80 6.114
303.90 6.106
304.00 6.099
304.10 6.091
304.20 6.084
304.30 6.077
304.40 6.069
304.50 6.062
304.60 6.055
304.70 6.048
304.80 6.04
304.90 6.033
305.00 6.026
305.10 6.018
305.20 6.011
305.30 6.004
305.40 5.997
305.50 5.99
305.60 5.982
305.70 5.975
305.80 5.968
305.90 5.961
306.00 5.954
306.10 5.947
306.20 5.939
306.30 5.932
306.40 5.925
306.50 5.918
306.60 5.911
306.70 5.904
306.80 5.897
306.90 5.89
307.00 5.883
307.10 5.876
307.20 5.869
307.30 5.862
307.40 5.855
307.50 5.848
307.60 5.841
307.70 5.834
307.80 5.827
307.90 5.82
308.00 5.813
308.10 5.806
308.20 5.799
308.30 5.792
308.40 5.785
308.50 5.778
308.60 5.772
308.70 5.765
308.80 5.758
308.90 5.751
309.00 5.744
309.10 5.737
309.20 5.731
309.30 5.724
309.40 5.717
309.50 5.71
309.60 5.703
309.70 5.697
309.80 5.69
309.90 5.683
310.00 5.676
310.10 5.67
310.20 5.663
310.30 5.656
310.40 5.65
310.50 5.643
310.60 5.636
310.70 5.629
310.80 5.623
310.90 5.616
311.00 5.61
311.10 5.603
311.20 5.596
311.30 5.59
311.40 5.583
311.50 5.576
311.60 5.57
311.70 5.563
311.80 5.557
311.90 5.55
312.00 5.544
312.10 5.537
312.20 5.531
312.30 5.524
312.40 5.518
312.50 5.511
312.60 5.505
312.70 5.498
312.80 5.492
312.90 5.485
313.00 5.479
313.10 5.472
313.20 5.466
313.30 5.46
313.40 5.453
313.50 5.447
313.60 5.44
313.70 5.434
313.80 5.428
313.90 5.421
314.00 5.415
314.10 5.409
314.20 5.402
314.30 5.396
314.40 5.39
314.50 5.383
314.60 5.377
314.70 5.371
314.80 5.364
314.90 5.358
315.00 5.352
315.10 5.346
315.20 5.339
315.30 5.333
315.40 5.327
315.50 5.321
315.60 5.315
315.70 5.308
315.80 5.302
315.90 5.296
316.00 5.29
316.10 5.284
316.20 5.278
316.30 5.271
316.40 5.265
316.50 5.259
316.60 5.253
316.70 5.247
316.80 5.241
316.90 5.235
317.00 5.229
317.10 5.223
317.20 5.217
317.30 5.211
317.40 5.205
317.50 5.199
317.60 5.193
317.70 5.186
317.80 5.18
317.90 5.174
318.00 5.168
318.10 5.162
318.20 5.157
318.30 5.151
318.40 5.145
318.50 5.139
318.60 5.133
318.70 5.127
318.80 5.121
318.90 5.115
319.00 5.109
319.10 5.103
319.20 5.097
319.30 5.091
319.40 5.086
319.50 5.08
319.60 5.074
319.70 5.068
319.80 5.062
319.90 5.056
320.00 5.051
320.10 5.045
320.20 5.039
320.30 5.033
320.40 5.027
320.50 5.022
320.60 5.016
320.70 5.01
320.80 5.004
320.90 4.999
321.00 4.993
321.10 4.987
321.20 4.981
321.30 4.976
321.40 4.97
321.50 4.964
321.60 4.959
321.70 4.953
321.80 4.947
321.90 4.942
322.00 4.936
322.10 4.93
322.20 4.925
322.30 4.919
322.40 4.913
322.50 4.908
322.60 4.902
322.70 4.897
322.80 4.891
322.90 4.885
323.00 4.88
323.10 4.874
323.20 4.869
323.30 4.863
323.40 4.858
323.50 4.852
323.60 4.847
323.70 4.841
323.80 4.836
323.90 4.83
324.00 4.825
324.10 4.819
324.20 4.814
324.30 4.808
324.40 4.803
324.50 4.797
324.60 4.792
324.70 4.786
324.80 4.781
324.90 4.775
325.00 4.77
325.10 4.765
325.20 4.759
325.30 4.754
325.40 4.749
325.50 4.743
325.60 4.738
325.70 4.732
325.80 4.727
325.90 4.722
326.00 4.716
326.10 4.711
326.20 4.706
326.30 4.7
326.40 4.695
326.50 4.69
326.60 4.684
326.70 4.679
326.80 4.674
326.90 4.669
327.00 4.663
327.10 4.658
327.20 4.653
327.30 4.648
327.40 4.642
327.50 4.637
327.60 4.632
327.70 4.627
327.80 4.622
327.90 4.616
328.00 4.611
328.10 4.606
328.20 4.601
328.30 4.596
328.40 4.59
328.50 4.585
328.60 4.58
328.70 4.575
328.80 4.57
328.90 4.565
329.00 4.56
329.10 4.555
329.20 4.549
329.30 4.544
329.40 4.539
329.50 4.534
329.60 4.529
329.70 4.524
329.80 4.519
329.90 4.514
330.00 4.509
330.10 4.504
330.20 4.499
330.30 4.494
330.40 4.489
330.50 4.484
330.60 4.479
330.70 4.474
330.80 4.469
330.90 4.464
331.00 4.459
331.10 4.454
331.20 4.449
331.30 4.444
331.40 4.439
331.50 4.434
331.60 4.429
331.70 4.424
331.80 4.419
331.90 4.414
332.00 4.409
332.10 4.405
332.20 4.4
332.30 4.395
332.40 4.39
332.50 4.385
332.60 4.38
332.70 4.375
332.80 4.371
332.90 4.366
333.00 4.361
333.10 4.356
333.20 4.351
333.30 4.346
333.40 4.342
333.50 4.337
333.60 4.332
333.70 4.327
333.80 4.322
333.90 4.318
334.00 4.313
334.10 4.308
334.20 4.303
334.30 4.298
334.40 4.294
334.50 4.289
334.60 4.284
334.70 4.28
334.80 4.275
334.90 4.27
335.00 4.265
335.10 4.261
335.20 4.256
335.30 4.251
335.40 4.247
335.50 4.242
335.60 4.237
335.70 4.233
335.80 4.228
335.90 4.223
336.00 4.219
336.10 4.214
336.20 4.209
336.30 4.205
336.40 4.2
336.50 4.196
336.60 4.191
336.70 4.186
336.80 4.182
336.90 4.177
337.00 4.173
337.10 4.168
337.20 4.164
337.30 4.159
337.40 4.154
337.50 4.15
337.60 4.145
337.70 4.141
337.80 4.136
337.90 4.132
338.00 4.127
338.10 4.123
338.20 4.118
338.30 4.114
338.40 4.109
338.50 4.105
338.60 4.1
338.70 4.096
338.80 4.091
338.90 4.087
339.00 4.082
339.10 4.078
339.20 4.074
339.30 4.069
339.40 4.065
339.50 4.06
339.60 4.056
339.70 4.051
339.80 4.047
339.90 4.043
340.00 4.038
340.10 4.034
340.20 4.029
340.30 4.025
340.40 4.021
340.50 4.016
340.60 4.012
340.70 4.008
340.80 4.003
340.90 3.999
341.00 3.995
341.10 3.99
341.20 3.986
341.30 3.982
341.40 3.977
341.50 3.973
341.60 3.969
341.70 3.964
341.80 3.96
341.90 3.956
342.00 3.952
342.10 3.947
342.20 3.943
342.30 3.939
342.40 3.935
342.50 3.93
342.60 3.926
342.70 3.922
342.80 3.918
342.90 3.913
343.00 3.909
343.10 3.905
343.20 3.901
343.30 3.897
343.40 3.892
343.50 3.888
343.60 3.884
343.70 3.88
343.80 3.876
343.90 3.871
344.00 3.867
344.10 3.863
344.20 3.859
344.30 3.855
344.40 3.851
344.50 3.847
344.60 3.842
344.70 3.838
344.80 3.834
344.90 3.83
345.00 3.826
345.10 3.822
345.20 3.818
345.30 3.814
345.40 3.81
345.50 3.806
345.60 3.801
345.70 3.797
345.80 3.793
345.90 3.789
346.00 3.785
346.10 3.781
346.20 3.777
346.30 3.773
346.40 3.769
346.50 3.765
346.60 3.761
346.70 3.757
346.80 3.753
346.90 3.749
347.00 3.745
347.10 3.741
347.20 3.737
347.30 3.733
347.40 3.729
347.50 3.725
347.60 3.721
347.70 3.717
347.80 3.713
347.90 3.709
348.00 3.705
348.10 3.701
348.20 3.697
348.30 3.693
348.40 3.69
348.50 3.686
348.60 3.682
348.70 3.678
348.80 3.674
348.90 3.67
349.00 3.666
349.10 3.662
349.20 3.658
349.30 3.655
349.40 3.651
349.50 3.647
349.60 3.643
349.70 3.639
349.80 3.635
349.90 3.631
350.00 3.627
350.10 3.624
350.20 3.62
350.30 3.616
350.40 3.612
350.50 3.608
350.60 3.605
350.70 3.601
350.80 3.597
350.90 3.593
351.00 3.589
351.10 3.586
351.20 3.582
351.30 3.578
351.40 3.574
351.50 3.571
351.60 3.567
351.70 3.563
351.80 3.559
351.90 3.555
352.00 3.552
352.10 3.548
352.20 3.544
352.30 3.541
352.40 3.537
352.50 3.533
352.60 3.529
352.70 3.526
352.80 3.522
352.90 3.518
353.00 3.515
353.10 3.511
353.20 3.507
353.30 3.504
353.40 3.5
353.50 3.496
353.60 3.493
353.70 3.489
353.80 3.485
353.90 3.482
354.00 3.478
354.10 3.474
354.20 3.471
354.30 3.467
354.40 3.463
354.50 3.46
354.60 3.456
354.70 3.453
354.80 3.449
354.90 3.445
355.00 3.442
355.10 3.438
355.20 3.435
355.30 3.431
355.40 3.427
355.50 3.424
355.60 3.42
355.70 3.417
355.80 3.413
355.90 3.41
356.00 3.406
356.10 3.403
356.20 3.399
356.30 3.395
356.40 3.392
356.50 3.388
356.60 3.385
356.70 3.381
356.80 3.378
356.90 3.374
357.00 3.371
357.10 3.367
357.20 3.364
357.30 3.36
357.40 3.357
357.50 3.353
357.60 3.35
357.70 3.346
357.80 3.343
357.90 3.34
358.00 3.336
358.10 3.333
358.20 3.329
358.30 3.326
358.40 3.322
358.50 3.319
358.60 3.315
358.70 3.312
358.80 3.309
358.90 3.305
359.00 3.302
359.10 3.298
359.20 3.295
359.30 3.292
359.40 3.288
359.50 3.285
359.60 3.281
359.70 3.278
359.80 3.275
359.90 3.271
360.00 3.268
360.10 3.264
360.20 3.261
360.30 3.258
360.40 3.254
360.50 3.251
360.60 3.248
360.70 3.244
360.80 3.241
360.90 3.238
361.00 3.234
361.10 3.231
361.20 3.228
361.30 3.224
361.40 3.221
361.50 3.218
361.60 3.215
361.70 3.211
361.80 3.208
361.90 3.205
362.00 3.201
362.10 3.198
362.20 3.195
362.30 3.192
362.40 3.188
362.50 3.185
362.60 3.182
362.70 3.178
362.80 3.175
362.90 3.172
363.00 3.169
363.10 3.166
363.20 3.162
363.30 3.159
363.40 3.156
363.50 3.153
363.60 3.149
363.70 3.146
363.80 3.143
363.90 3.14
364.00 3.137
364.10 3.133
364.20 3.13
364.30 3.127
364.40 3.124
364.50 3.121
364.60 3.117
364.70 3.114
364.80 3.111
364.90 3.108
365.00 3.105
365.10 3.102
365.20 3.098
365.30 3.095
365.40 3.092
365.50 3.089
365.60 3.086
365.70 3.083
365.80 3.08
365.90 3.077
366.00 3.073
366.10 3.07
366.20 3.067
366.30 3.064
366.40 3.061
366.50 3.057
366.60 3.054
366.70 3.051
366.80 3.048
366.90 3.045
367.00 3.042
367.10 3.039
367.20 3.035
367.30 3.032
367.40 3.029
367.50 3.026
367.60 3.023
367.70 3.02
367.80 3.017
367.90 3.013
368.00 3.01
368.10 3.007
368.20 3.004
368.30 3.001
368.40 2.998
368.50 2.995
368.60 2.992
368.70 2.988
368.80 2.985
368.90 2.982
369.00 2.979
369.10 2.976
369.20 2.973
369.30 2.97
369.40 2.967
369.50 2.964
369.60 2.96
369.70 2.957
369.80 2.954
369.90 2.951
370.00 2.948
370.10 2.945
370.20 2.942
370.30 2.939
370.40 2.936
370.50 2.933
370.60 2.93
370.70 2.927
370.80 2.924
370.90 2.921
371.00 2.918
371.10 2.915
371.20 2.912
371.30 2.909
371.40 2.906
371.50 2.903
371.60 2.9
371.70 2.897
371.80 2.894
371.90 2.891
372.00 2.888
372.10 2.885
372.20 2.882
372.30 2.879
372.40 2.876
372.50 2.873
372.60 2.871
372.70 2.868
372.80 2.865
372.90 2.862
373.00 2.859
373.10 2.856
373.20 2.853
373.30 2.85
373.40 2.847
373.50 2.844
373.60 2.842
373.70 2.839
373.80 2.836
373.90 2.833
374.00 2.83
374.10 2.827
374.20 2.824
374.30 2.822
374.40 2.819
374.50 2.816
374.60 2.813
374.70 2.81
374.80 2.807
374.90 2.805
375.00 2.802
375.10 2.799
375.20 2.796
375.30 2.793
375.40 2.79
375.50 2.788
375.60 2.785
375.70 2.782
375.80 2.779
375.90 2.776
376.00 2.774
376.10 2.771
376.20 2.768
376.30 2.765
376.40 2.763
376.50 2.76
376.60 2.757
376.70 2.754
376.80 2.752
376.90 2.749
377.00 2.746
377.10 2.744
377.20 2.741
377.30 2.738
377.40 2.736
377.50 2.733
377.60 2.73
377.70 2.728
377.80 2.725
377.90 2.723
378.00 2.72
378.10 2.717
378.20 2.715
378.30 2.712
378.40 2.71
378.50 2.707
378.60 2.704
378.70 2.702
378.80 2.699
378.90 2.697
379.00 2.694
379.10 2.691
379.20 2.689
379.30 2.686
379.40 2.684
379.50 2.681
379.60 2.679
379.70 2.676
379.80 2.674
379.90 2.671
380.00 2.669
380.10 2.666
380.20 2.664
380.30 2.662
380.40 2.659
380.50 2.657
380.60 2.654
380.70 2.652
380.80 2.65
380.90 2.647
381.00 2.645
381.10 2.643
381.20 2.64
381.30 2.638
381.40 2.635
381.50 2.633
381.60 2.63
381.70 2.628
381.80 2.625
381.90 2.623
382.00 2.62
382.10 2.618
382.20 2.615
382.30 2.613
382.40 2.61
382.50 2.607
382.60 2.605
382.70 2.602
382.80 2.6
382.90 2.597
383.00 2.594
383.10 2.592
383.20 2.589
383.30 2.587
383.40 2.584
383.50 2.582
383.60 2.58
383.70 2.578
383.80 2.576
383.90 2.574
384.00 2.572
384.10 2.57
384.20 2.568
384.30 2.566
384.40 2.564
384.50 2.563
384.60 2.561
384.70 2.559
384.80 2.557
384.90 2.555
385.00 2.553
385.10 2.551
385.20 2.549
385.30 2.546
385.40 2.544
385.50 2.542
385.60 2.54
385.70 2.537
385.80 2.535
385.90 2.533
386.00 2.53
386.10 2.528
386.20 2.525
386.30 2.522
386.40 2.52
386.50 2.517
386.60 2.514
386.70 2.511
386.80 2.508
386.90 2.505
387.00 2.502
387.10 2.499
387.20 2.496
387.30 2.493
387.40 2.49
387.50 2.487
387.60 2.484
387.70 2.48
387.80 2.477
387.90 2.474
388.00 2.47
388.10 2.467
388.20 2.464
388.30 2.461
388.40 2.458
388.50 2.455
388.60 2.452
388.70 2.449
388.80 2.447
388.90 2.445
389.00 2.443
389.10 2.441
389.20 2.44
389.30 2.439
389.40 2.438
389.50 2.437
389.60 2.436
389.70 2.435
389.80 2.435
389.90 2.434
390.00 2.433
390.10 2.433
390.20 2.432
390.30 2.431
390.40 2.431
390.50 2.43
390.60 2.429
390.70 2.428
390.80 2.427
390.90 2.426
391.00 2.425
391.10 2.423
391.20 2.422
391.30 2.421
391.40 2.419
391.50 2.418
391.60 2.416
391.70 2.415
391.80 2.413
391.90 2.411
392.00 2.409
392.10 2.407
392.20 2.405
392.30 2.403
392.40 2.401
392.50 2.399
392.60 2.397
392.70 2.394
392.80 2.392
392.90 2.389
393.00 2.386
393.10 2.383
393.20 2.381
393.30 2.378
393.40 2.375
393.50 2.371
393.60 2.368
393.70 2.365
393.80 2.361
393.90 2.358
394.00 2.354
394.10 2.35
394.20 2.346
394.30 2.342
394.40 2.338
394.50 2.334
394.60 2.33
394.70 2.325
394.80 2.321
394.90 2.316
395.00 2.311
395.10 2.307
395.20 2.302
395.30 2.297
395.40 2.292
395.50 2.286
395.60 2.281
395.70 2.276
395.80 2.27
395.90 2.265
396.00 2.259
396.10 2.254
396.20 2.248
396.30 2.242
396.40 2.237
396.50 2.231
396.60 2.226
396.70 2.22
396.80 2.215
396.90 2.21
397.00 2.206
397.10 2.207
397.20 2.207
397.30 2.209
397.40 2.21
397.50 2.212
397.60 2.214
397.70 2.216
397.80 2.218
397.90 2.22
398.00 2.222
398.10 2.223
398.20 2.225
398.30 2.227
398.40 2.229
398.50 2.23
398.60 2.232
398.70 2.233
398.80 2.234
398.90 2.236
399.00 2.237
399.10 2.238
399.20 2.239
399.30 2.24
399.40 2.24
399.50 2.241
399.60 2.242
399.70 2.242
399.80 2.242
399.90 2.243
400.00 2.243
400.10 2.243
400.20 2.243
400.30 2.243
400.40 2.243
400.50 2.242
400.60 2.242
400.70 2.242
400.80 2.241
400.90 2.241
401.00 2.24
401.10 2.239
401.20 2.239
401.30 2.238
401.40 2.237
401.50 2.236
401.60 2.235
401.70 2.234
401.80 2.232
401.90 2.231
402.00 2.23
402.10 2.229
402.20 2.227
402.30 2.226
402.40 2.224
402.50 2.223
402.60 2.221
402.70 2.219
402.80 2.218
402.90 2.216
403.00 2.214
403.10 2.212
403.20 2.21
403.30 2.208
403.40 2.206
403.50 2.204
403.60 2.202
403.70 2.199
403.80 2.197
403.90 2.195
404.00 2.192
404.10 2.19
404.20 2.187
404.30 2.185
404.40 2.182
404.50 2.179
404.60 2.176
404.70 2.174
404.80 2.171
404.90 2.168
405.00 2.165
405.10 2.162
405.20 2.158
405.30 2.155
405.40 2.152
405.50 2.148
405.60 2.145
405.70 2.141
405.80 2.137
405.90 2.134
406.00 2.13
406.10 2.126
406.20 2.122
406.30 2.117
406.40 2.113
406.50 2.109
406.60 2.104
406.70 2.099
406.80 2.095
406.90 2.09
407.00 2.085
407.10 2.08
407.20 2.074
407.30 2.069
407.40 2.063
407.50 2.057
407.60 2.052
407.70 2.045
407.80 2.039
407.90 2.033
408.00 2.026
408.10 2.02
408.20 2.013
408.30 2.006
408.40 1.998
408.50 1.991
408.60 1.983
408.70 1.976
408.80 1.968
408.90 1.96
409.00 1.952
409.10 1.943
409.20 1.935
409.30 1.926
409.40 1.918
409.50 1.909
409.60 1.901
409.70 1.893
409.80 1.886
409.90 1.88
410.00 1.877
410.10 1.877
410.20 1.878
410.30 1.873
410.40 1.871
410.50 1.872
410.60 1.876
410.70 1.88
410.80 1.885
410.90 1.89
411.00 1.895
411.10 1.9
411.20 1.906
411.30 1.91
411.40 1.915
411.50 1.92
411.60 1.924
411.70 1.929
411.80 1.933
411.90 1.937
412.00 1.941
412.10 1.944
412.20 1.947
412.30 1.951
412.40 1.954
412.50 1.957
412.60 1.959
412.70 1.962
412.80 1.964
412.90 1.966
413.00 1.968
413.10 1.97
413.20 1.972
413.30 1.974
413.40 1.975
413.50 1.976
413.60 1.978
413.70 1.979
413.80 1.98
413.90 1.981
414.00 1.981
414.10 1.982
414.20 1.982
414.30 1.983
414.40 1.983
414.50 1.984
414.60 1.984
414.70 1.984
414.80 1.984
414.90 1.984
415.00 1.984
415.10 1.983
415.20 1.983
415.30 1.983
415.40 1.982
415.50 1.982
415.60 1.982
415.70 1.981
415.80 1.98
415.90 1.98
416.00 1.979
416.10 1.978
416.20 1.978
416.30 1.977
416.40 1.976
416.50 1.975
416.60 1.974
416.70 1.973
416.80 1.972
416.90 1.971
417.00 1.97
417.10 1.969
417.20 1.968
417.30 1.967
417.40 1.966
417.50 1.964
417.60 1.963
417.70 1.962
417.80 1.961
417.90 1.959
418.00 1.958
418.10 1.957
418.20 1.955
418.30 1.954
418.40 1.953
418.50 1.951
418.60 1.95
418.70 1.949
418.80 1.947
418.90 1.946
419.00 1.944
419.10 1.943
419.20 1.941
419.30 1.94
419.40 1.938
419.50 1.937
419.60 1.935
419.70 1.934
419.80 1.932
419.90 1.931
420.00 1.929
420.10 1.928
420.20 1.926
420.30 1.925
420.40 1.923
420.50 1.921
420.60 1.92
420.70 1.918
420.80 1.917
420.90 1.915
421.00 1.913
421.10 1.912
421.20 1.91
421.30 1.908
421.40 1.907
421.50 1.905
421.60 1.903
421.70 1.902
421.80 1.9
421.90 1.898
422.00 1.897
422.10 1.895
422.20 1.893
422.30 1.892
422.40 1.89
422.50 1.888
422.60 1.886
422.70 1.885
422.80 1.883
422.90 1.881
423.00 1.88
423.10 1.878
423.20 1.876
423.30 1.874
423.40 1.872
423.50 1.871
423.60 1.869
423.70 1.867
423.80 1.865
423.90 1.863
424.00 1.862
424.10 1.86
424.20 1.858
424.30 1.856
424.40 1.854
424.50 1.852
424.60 1.851
424.70 1.849
424.80 1.847
424.90 1.845
425.00 1.843
425.10 1.841
425.20 1.839
425.30 1.837
425.40 1.835
425.50 1.833
425.60 1.831
425.70 1.829
425.80 1.827
425.90 1.825
426.00 1.823
426.10 1.821
426.20 1.819
426.30 1.817
426.40 1.815
426.50 1.813
426.60 1.811
426.70 1.808
426.80 1.806
426.90 1.804
427.00 1.802
427.10 1.799
427.20 1.797
427.30 1.795
427.40 1.792
427.50 1.79
427.60 1.788
427.70 1.785
427.80 1.783
427.90 1.78
428.00 1.778
428.10 1.775
428.20 1.772
428.30 1.77
428.40 1.767
428.50 1.764
428.60 1.761
428.70 1.759
428.80 1.756
428.90 1.753
429.00 1.75
429.10 1.747
429.20 1.743
429.30 1.74
429.40 1.737
429.50 1.733
429.60 1.73
429.70 1.726
429.80 1.723
429.90 1.719
430.00 1.715
430.10 1.711
430.20 1.707
430.30 1.703
430.40 1.699
430.50 1.694
430.60 1.69
430.70 1.685
430.80 1.68
430.90 1.676
431.00 1.67
431.10 1.665
431.20 1.66
431.30 1.654
431.40 1.649
431.50 1.643
431.60 1.637
431.70 1.63
431.80 1.624
431.90 1.617
432.00 1.611
432.10 1.604
432.20 1.596
432.30 1.589
432.40 1.581
432.50 1.573
432.60 1.565
432.70 1.557
432.80 1.549
432.90 1.54
433.00 1.531
433.10 1.522
433.20 1.514
433.30 1.505
433.40 1.496
433.50 1.487
433.60 1.479
433.70 1.471
433.80 1.463
433.90 1.455
434.00 1.447
434.10 1.446
434.20 1.452
434.30 1.457
434.40 1.463
434.50 1.468
434.60 1.475
434.70 1.481
434.80 1.487
434.90 1.493
435.00 1.5
435.10 1.506
435.20 1.512
435.30 1.518
435.40 1.524
435.50 1.529
435.60 1.534
435.70 1.539
435.80 1.544
435.90 1.549
436.00 1.553
436.10 1.557
436.20 1.561
436.30 1.565
436.40 1.569
436.50 1.572
436.60 1.575
436.70 1.578
436.80 1.581
436.90 1.584
437.00 1.586
437.10 1.588
437.20 1.59
437.30 1.592
437.40 1.594
437.50 1.596
437.60 1.597
437.70 1.598
437.80 1.6
437.90 1.601
438.00 1.602
438.10 1.603
438.20 1.604
438.30 1.604
438.40 1.605
438.50 1.605
438.60 1.606
438.70 1.606
438.80 1.606
438.90 1.607
439.00 1.607
439.10 1.607
439.20 1.607
439.30 1.607
439.40 1.607
439.50 1.606
439.60 1.606
439.70 1.606
439.80 1.606
439.90 1.605
440.00 1.605
440.10 1.604
440.20 1.604
440.30 1.603
440.40 1.603
440.50 1.602
440.60 1.601
440.70 1.601
440.80 1.6
440.90 1.599
441.00 1.599
441.10 1.598
441.20 1.597
441.30 1.596
441.40 1.595
441.50 1.595
441.60 1.594
441.70 1.593
441.80 1.592
441.90 1.591
442.00 1.59
442.10 1.589
442.20 1.588
442.30 1.587
442.40 1.586
442.50 1.585
442.60 1.584
442.70 1.583
442.80 1.582
442.90 1.581
443.00 1.58
443.10 1.579
443.20 1.578
443.30 1.577
443.40 1.576
443.50 1.574
443.60 1.573
443.70 1.572
443.80 1.571
443.90 1.57
444.00 1.569
444.10 1.568
444.20 1.567
444.30 1.565
444.40 1.564
444.50 1.563
444.60 1.562
444.70 1.561
444.80 1.56
444.90 1.558
445.00 1.557
445.10 1.556
445.20 1.555
445.30 1.554
445.40 1.552
445.50 1.551
445.60 1.55
445.70 1.549
445.80 1.548
445.90 1.546
446.00 1.545
446.10 1.544
446.20 1.543
446.30 1.542
446.40 1.54
446.50 1.539
446.60 1.538
446.70 1.537
446.80 1.535
446.90 1.534
447.00 1.533
447.10 1.532
447.20 1.531
447.30 1.529
447.40 1.528
447.50 1.527
447.60 1.526
447.70 1.524
447.80 1.523
447.90 1.522
448.00 1.521
448.10 1.52
448.20 1.518
448.30 1.517
448.40 1.516
448.50 1.515
448.60 1.513
448.70 1.512
448.80 1.511
448.90 1.51
449.00 1.508
449.10 1.507
449.20 1.506
449.30 1.505
449.40 1.503
449.50 1.502
449.60 1.501
449.70 1.5
449.80 1.499
449.90 1.497
450.00 1.496
450.10 1.495
450.20 1.494
450.30 1.492
450.40 1.491
450.50 1.49
450.60 1.489
450.70 1.487
450.80 1.486
450.90 1.485
451.00 1.484
451.10 1.483
451.20 1.481
451.30 1.48
451.40 1.479
451.50 1.478
451.60 1.476
451.70 1.475
451.80 1.474
451.90 1.473
452.00 1.472
452.10 1.47
452.20 1.469
452.30 1.468
452.40 1.467
452.50 1.465
452.60 1.464
452.70 1.463
452.80 1.462
452.90 1.461
453.00 1.459
453.10 1.458
453.20 1.457
453.30 1.456
453.40 1.455
453.50 1.453
453.60 1.452
453.70 1.451
453.80 1.45
453.90 1.449
454.00 1.447
454.10 1.446
454.20 1.445
454.30 1.444
454.40 1.443
454.50 1.441
454.60 1.44
454.70 1.439
454.80 1.438
454.90 1.437
455.00 1.435
455.10 1.434
455.20 1.433
455.30 1.432
455.40 1.431
455.50 1.429
455.60 1.428
455.70 1.427
455.80 1.426
455.90 1.425
456.00 1.423
456.10 1.422
456.20 1.421
456.30 1.42
456.40 1.419
456.50 1.418
456.60 1.416
456.70 1.415
456.80 1.414
456.90 1.413
457.00 1.412
457.10 1.411
457.20 1.409
457.30 1.408
457.40 1.407
457.50 1.406
457.60 1.405
457.70 1.403
457.80 1.402
457.90 1.401
458.00 1.4
458.10 1.399
458.20 1.398
458.30 1.397
458.40 1.395
458.50 1.394
458.60 1.393
458.70 1.392
458.80 1.391
458.90 1.39
459.00 1.388
459.10 1.387
459.20 1.386
459.30 1.385
459.40 1.384
459.50 1.383
459.60 1.382
459.70 1.38
459.80 1.379
459.90 1.378
460.00 1.377
460.10 1.376
460.20 1.375
460.30 1.373
460.40 1.372
460.50 1.371
460.60 1.37
460.70 1.369
460.80 1.368
460.90 1.367
461.00 1.366
461.10 1.364
461.20 1.363
461.30 1.362
461.40 1.361
461.50 1.36
461.60 1.359
461.70 1.358
461.80 1.356
461.90 1.355
462.00 1.354
462.10 1.353
462.20 1.352
462.30 1.351
462.40 1.35
462.50 1.349
462.60 1.347
462.70 1.346
462.80 1.345
462.90 1.344
463.00 1.343
463.10 1.342
463.20 1.341
463.30 1.34
463.40 1.339
463.50 1.337
463.60 1.336
463.70 1.335
463.80 1.334
463.90 1.333
464.00 1.332
464.10 1.331
464.20 1.33
464.30 1.329
464.40 1.327
464.50 1.326
464.60 1.325
464.70 1.324
464.80 1.323
464.90 1.322
465.00 1.321
465.10 1.32
465.20 1.319
465.30 1.318
465.40 1.316
465.50 1.315
465.60 1.314
465.70 1.313
465.80 1.312
465.90 1.311
466.00 1.31
466.10 1.309
466.20 1.308
466.30 1.307
466.40 1.306
466.50 1.304
466.60 1.303
466.70 1.302
466.80 1.301
466.90 1.3
467.00 1.299
467.10 1.298
467.20 1.297
467.30 1.296
467.40 1.295
467.50 1.294
467.60 1.293
467.70 1.292
467.80 1.29
467.90 1.289
468.00 1.288
468.10 1.287
468.20 1.286
468.30 1.285
468.40 1.284
468.50 1.283
468.60 1.282
468.70 1.281
468.80 1.28
468.90 1.279
469.00 1.278
469.10 1.276
469.20 1.275
469.30 1.274
469.40 1.273
469.50 1.272
469.60 1.271
469.70 1.27
469.80 1.269
469.90 1.268
470.00 1.267
470.10 1.266
470.20 1.265
470.30 1.264
470.40 1.263
470.50 1.262
470.60 1.26
470.70 1.259
470.80 1.258
470.90 1.257
471.00 1.256
471.10 1.255
471.20 1.254
471.30 1.253
471.40 1.252
471.50 1.251
471.60 1.25
471.70 1.249
471.80 1.248
471.90 1.247
472.00 1.246
472.10 1.244
472.20 1.243
472.30 1.242
472.40 1.241
472.50 1.24
472.60 1.239
472.70 1.238
472.80 1.237
472.90 1.236
473.00 1.235
473.10 1.234
473.20 1.233
473.30 1.232
473.40 1.231
473.50 1.229
473.60 1.228
473.70 1.227
473.80 1.226
473.90 1.225
474.00 1.224
474.10 1.223
474.20 1.222
474.30 1.221
474.40 1.22
474.50 1.219
474.60 1.217
474.70 1.216
474.80 1.215
474.90 1.214
475.00 1.213
475.10 1.212
475.20 1.211
475.30 1.21
475.40 1.209
475.50 1.208
475.60 1.206
475.70 1.205
475.80 1.204
475.90 1.203
476.00 1.202
476.10 1.201
476.20 1.2
476.30 1.199
476.40 1.197
476.50 1.196
476.60 1.195
476.70 1.194
476.80 1.193
476.90 1.192
477.00 1.19
477.10 1.189
477.20 1.188
477.30 1.187
477.40 1.186
477.50 1.184
477.60 1.183
477.70 1.182
477.80 1.181
477.90 1.18
478.00 1.178
478.10 1.177
478.20 1.176
478.30 1.174
478.40 1.173
478.50 1.172
478.60 1.171
478.70 1.169
478.80 1.168
478.90 1.167
479.00 1.165
479.10 1.164
479.20 1.162
479.30 1.161
479.40 1.16
479.50 1.158
479.60 1.157
479.70 1.155
479.80 1.154
479.90 1.152
480.00 1.151
480.10 1.149
480.20 1.147
480.30 1.146
480.40 1.144
480.50 1.142
480.60 1.141
480.70 1.139
480.80 1.137
480.90 1.135
481.00 1.134
481.10 1.132
481.20 1.13
481.30 1.128
481.40 1.126
481.50 1.123
481.60 1.121
481.70 1.119
481.80 1.117
481.90 1.115
482.00 1.113
482.10 1.111
482.20 1.108
482.30 1.105
482.40 1.102
482.50 1.099
482.60 1.097
482.70 1.094
482.80 1.091
482.90 1.088
483.00 1.085
483.10 1.083
483.20 1.079
483.30 1.075
483.40 1.071
483.50 1.068
483.60 1.064
483.70 1.06
483.80 1.056
483.90 1.052
484.00 1.048
484.10 1.045
484.20 1.04
484.30 1.035
484.40 1.031
484.50 1.026
484.60 1.021
484.70 1.016
484.80 1.01
484.90 1.005
485.00 0.9993
485.10 0.9939
485.20 0.9882
485.30 0.9823
485.40 0.9765
485.50 0.9706
485.60 0.9648
485.70 0.9591
485.80 0.954
485.90 0.9493
486.00 0.9472
486.10 0.9582
486.20 0.9514
486.30 0.9447
486.40 0.9472
486.50 0.9505
486.60 0.9544
486.70 0.9587
486.80 0.9631
486.90 0.9675
487.00 0.9718
487.10 0.9761
487.20 0.9802
487.30 0.9841
487.40 0.988
487.50 0.9919
487.60 0.9958
487.70 0.9992
487.80 1.002
487.90 1.005
488.00 1.009
488.10 1.012
488.20 1.014
488.30 1.016
488.40 1.018
488.50 1.021
488.60 1.023
488.70 1.025
488.80 1.027
488.90 1.029
489.00 1.031
489.10 1.033
489.20 1.035
489.30 1.036
489.40 1.037
489.50 1.038
489.60 1.039
489.70 1.04
489.80 1.041
489.90 1.042
490.00 1.043
490.10 1.044
490.20 1.045
490.30 1.045
490.40 1.045
490.50 1.046
490.60 1.046
490.70 1.046
490.80 1.047
490.90 1.047
491.00 1.047
491.10 1.048
491.20 1.048
491.30 1.048
491.40 1.048
491.50 1.048
491.60 1.048
491.70 1.047
491.80 1.047
491.90 1.047
492.00 1.047
492.10 1.047
492.20 1.047
492.30 1.047
492.40 1.046
492.50 1.046
492.60 1.046
492.70 1.045
492.80 1.045
492.90 1.045
493.00 1.044
493.10 1.044
493.20 1.044
493.30 1.043
493.40 1.043
493.50 1.042
493.60 1.042
493.70 1.041
493.80 1.041
493.90 1.04
494.00 1.04
494.10 1.039
494.20 1.039
494.30 1.038
494.40 1.038
494.50 1.037
494.60 1.036
494.70 1.036
494.80 1.035
494.90 1.035
495.00 1.034
495.10 1.034
495.20 1.033
495.30 1.032
495.40 1.032
495.50 1.031
495.60 1.03
495.70 1.03
495.80 1.029
495.90 1.028
496.00 1.028
496.10 1.027
496.20 1.027
496.30 1.026
496.40 1.025
496.50 1.025
496.60 1.024
496.70 1.023
496.80 1.023
496.90 1.022
497.00 1.021
497.10 1.021
497.20 1.02
497.30 1.019
497.40 1.018
497.50 1.018
497.60 1.017
497.70 1.016
497.80 1.016
497.90 1.015
498.00 1.014
498.10 1.014
498.20 1.013
498.30 1.012
498.40 1.011
498.50 1.011
498.60 1.01
498.70 1.009
498.80 1.009
498.90 1.008
499.00 1.007
499.10 1.006
499.20 1.006
499.30 1.005
499.40 1.004
499.50 1.004
499.60 1.003
499.70 1.002
499.80 1.001
499.90 1.001
500.00 1
500.10 0.9993
500.20 0.9986
500.30 0.9978
500.40 0.9971
500.50 0.9964
500.60 0.9957
500.70 0.9949
500.80 0.9942
500.90 0.9935
501.00 0.9928
501.10 0.9921
501.20 0.9913
501.30 0.9906
501.40 0.9899
501.50 0.9892
501.60 0.9884
501.70 0.9877
501.80 0.987
501.90 0.9863
502.00 0.9856
502.10 0.9848
502.20 0.9841
502.30 0.9834
502.40 0.9827
502.50 0.9819
502.60 0.9812
502.70 0.9805
502.80 0.9798
502.90 0.979
503.00 0.9783
503.10 0.9776
503.20 0.9769
503.30 0.9762
503.40 0.9754
503.50 0.9747
503.60 0.974
503.70 0.9733
503.80 0.9726
503.90 0.9718
504.00 0.9711
504.10 0.9704
504.20 0.9697
504.30 0.969
504.40 0.9682
504.50 0.9675
504.60 0.9668
504.70 0.9661
504.80 0.9654
504.90 0.9647
505.00 0.964
505.10 0.9632
505.20 0.9625
505.30 0.9618
505.40 0.9611
505.50 0.9604
505.60 0.9597
505.70 0.959
505.80 0.9582
505.90 0.9575
506.00 0.9568
506.10 0.9561
506.20 0.9554
506.30 0.9547
506.40 0.954
506.50 0.9533
506.60 0.9526
506.70 0.9518
506.80 0.9511
506.90 0.9504
507.00 0.9497
507.10 0.949
507.20 0.9483
507.30 0.9476
507.40 0.9469
507.50 0.9462
507.60 0.9455
507.70 0.9448
507.80 0.9441
507.90 0.9434
508.00 0.9427
508.10 0.942
508.20 0.9413
508.30 0.9406
508.40 0.9399
508.50 0.9392
508.60 0.9385
508.70 0.9378
508.80 0.9371
508.90 0.9364
509.00 0.9357
509.10 0.935
509.20 0.9343
509.30 0.9336
509.40 0.9329
509.50 0.9322
509.60 0.9315
509.70 0.9308
509.80 0.9301
509.90 0.9294
510.00 0.9288
510.10 0.9281
510.20 0.9274
510.30 0.9267
510.40 0.926
510.50 0.9253
510.60 0.9246
510.70 0.9239
510.80 0.9232
510.90 0.9226
511.00 0.9219
511.10 0.9212
511.20 0.9205
511.30 0.9198
511.40 0.9191
511.50 0.9185
511.60 0.9178
511.70 0.9171
511.80 0.9164
511.90 0.9157
512.00 0.915
512.10 0.9144
512.20 0.9137
512.30 0.913
512.40 0.9123
512.50 0.9117
512.60 0.911
512.70 0.9103
512.80 0.9096
512.90 0.909
513.00 0.9083
513.10 0.9076
513.20 0.9069
513.30 0.9063
513.40 0.9056
513.50 0.9049
513.60 0.9042
513.70 0.9036
513.80 0.9029
513.90 0.9022
514.00 0.9016
514.10 0.9009
514.20 0.9002
514.30 0.8996
514.40 0.8989
514.50 0.8982
514.60 0.8976
514.70 0.8969
514.80 0.8962
514.90 0.8956
515.00 0.8949
515.10 0.8943
515.20 0.8936
515.30 0.8929
515.40 0.8923
515.50 0.8916
515.60 0.891
515.70 0.8903
515.80 0.8896
515.90 0.889
516.00 0.8883
516.10 0.8877
516.20 0.887
516.30 0.8864
516.40 0.8857
516.50 0.885
516.60 0.8844
516.70 0.8837
516.80 0.8831
516.90 0.8824
517.00 0.8818
517.10 0.8811
517.20 0.8805
517.30 0.8798
517.40 0.8792
517.50 0.8785
517.60 0.8779
517.70 0.8772
517.80 0.8766
517.90 0.8759
518.00 0.8753
518.10 0.8747
518.20 0.874
518.30 0.8734
518.40 0.8727
518.50 0.8721
518.60 0.8714
518.70 0.8708
518.80 0.8702
518.90 0.8695
519.00 0.8689
519.10 0.8682
519.20 0.8676
519.30 0.867
519.40 0.8663
519.50 0.8657
519.60 0.865
519.70 0.8644
519.80 0.8638
519.90 0.8631
520.00 0.8625
520.10 0.8619
520.20 0.8612
520.30 0.8606
520.40 0.86
520.50 0.8593
520.60 0.8587
520.70 0.8581
520.80 0.8575
520.90 0.8568
521.00 0.8562
521.10 0.8556
521.20 0.8549
521.30 0.8543
521.40 0.8537
521.50 0.8531
521.60 0.8524
521.70 0.8518
521.80 0.8512
521.90 0.8506
522.00 0.8499
522.10 0.8493
522.20 0.8487
522.30 0.8481
522.40 0.8475
522.50 0.8468
522.60 0.8462
522.70 0.8456
522.80 0.845
522.90 0.8444
523.00 0.8437
523.10 0.8431
523.20 0.8425
523.30 0.8419
523.40 0.8413
523.50 0.8407
523.60 0.8401
523.70 0.8394
523.80 0.8388
523.90 0.8382
524.00 0.8376
524.10 0.837
524.20 0.8364
524.30 0.8358
524.40 0.8352
524.50 0.8346
524.60 0.8339
524.70 0.8333
524.80 0.8327
524.90 0.8321
525.00 0.8315
525.10 0.8309
525.20 0.8303
525.30 0.8297
525.40 0.8291
525.50 0.8285
525.60 0.8279
525.70 0.8273
525.80 0.8267
525.90 0.8261
526.00 0.8255
526.10 0.8249
526.20 0.8243
526.30 0.8237
526.40 0.8231
526.50 0.8225
526.60 0.8219
526.70 0.8213
526.80 0.8207
526.90 0.8201
527.00 0.8195
527.10 0.8189
527.20 0.8183
527.30 0.8177
527.40 0.8171
527.50 0.8165
527.60 0.8159
527.70 0.8153
527.80 0.8148
527.90 0.8142
528.00 0.8136
528.10 0.813
528.20 0.8124
528.30 0.8118
528.40 0.8112
528.50 0.8106
528.60 0.81
528.70 0.8095
528.80 0.8089
528.90 0.8083
529.00 0.8077
529.10 0.8071
529.20 0.8065
529.30 0.806
529.40 0.8054
529.50 0.8048
529.60 0.8042
529.70 0.8036
529.80 0.803
529.90 0.8025
530.00 0.8019
530.10 0.8013
530.20 0.8007
530.30 0.8001
530.40 0.7996
530.50 0.799
530.60 0.7984
530.70 0.7978
530.80 0.7973
530.90 0.7967
531.00 0.7961
531.10 0.7955
531.20 0.795
531.30 0.7944
531.40 0.7938
531.50 0.7932
531.60 0.7927
531.70 0.7921
531.80 0.7915
531.90 0.791
532.00 0.7904
532.10 0.7898
532.20 0.7893
532.30 0.7887
532.40 0.7881
532.50 0.7876
532.60 0.787
532.70 0.7864
532.80 0.7859
532.90 0.7853
533.00 0.7847
533.10 0.7842
533.20 0.7836
533.30 0.783
533.40 0.7825
533.50 0.7819
533.60 0.7814
533.70 0.7808
533.80 0.7802
533.90 0.7797
534.00 0.7791
534.10 0.7786
534.20 0.778
534.30 0.7774
534.40 0.7769
534.50 0.7763
534.60 0.7758
534.70 0.7752
534.80 0.7747
534.90 0.7741
535.00 0.7735
535.10 0.773
535.20 0.7724
535.30 0.7719
535.40 0.7713
535.50 0.7708
535.60 0.7702
535.70 0.7697
535.80 0.7691
535.90 0.7686
536.00 0.768
536.10 0.7675
536.20 0.7669
536.30 0.7664
536.40 0.7658
536.50 0.7653
536.60 0.7647
536.70 0.7642
536.80 0.7637
536.90 0.7631
537.00 0.7626
537.10 0.762
537.20 0.7615
537.30 0.7609
537.40 0.7604
537.50 0.7598
537.60 0.7593
537.70 0.7588
537.80 0.7582
537.90 0.7577
538.00 0.7571
538.10 0.7566
538.20 0.7561
538.30 0.7555
538.40 0.755
538.50 0.7545
538.60 0.7539
538.70 0.7534
538.80 0.7528
538.90 0.7523
539.00 0.7518
539.10 0.7512
539.20 0.7507
539.30 0.7502
539.40 0.7496
539.50 0.7491
539.60 0.7486
539.70 0.748
539.80 0.7475
539.90 0.747
540.00 0.7464
540.10 0.7459
540.20 0.7454
540.30 0.7449
540.40 0.7443
540.50 0.7438
540.60 0.7433
540.70 0.7428
540.80 0.7422
540.90 0.7417
541.00 0.7412
541.10 0.7406
541.20 0.7401
541.30 0.7396
541.40 0.7391
541.50 0.7386
541.60 0.738
541.70 0.7375
541.80 0.737
541.90 0.7365
542.00 0.7359
542.10 0.7354
542.20 0.7349
542.30 0.7344
542.40 0.7339
542.50 0.7333
542.60 0.7328
542.70 0.7323
542.80 0.7318
542.90 0.7313
543.00 0.7308
543.10 0.7302
543.20 0.7297
543.30 0.7292
543.40 0.7287
543.50 0.7282
543.60 0.7277
543.70 0.7272
543.80 0.7266
543.90 0.7261
544.00 0.7256
544.10 0.7251
544.20 0.7246
544.30 0.7241
544.40 0.7236
544.50 0.7231
544.60 0.7226
544.70 0.722
544.80 0.7215
544.90 0.721
545.00 0.7205
545.10 0.72
545.20 0.7195
545.30 0.719
545.40 0.7185
545.50 0.718
545.60 0.7175
545.70 0.717
545.80 0.7165
545.90 0.716
546.00 0.7155
546.10 0.715
546.20 0.7145
546.30 0.714
546.40 0.7135
546.50 0.713
546.60 0.7125
546.70 0.712
546.80 0.7115
546.90 0.711
547.00 0.7105
547.10 0.71
547.20 0.7095
547.30 0.709
547.40 0.7085
547.50 0.708
547.60 0.7075
547.70 0.707
547.80 0.7065
547.90 0.706
548.00 0.7055
548.10 0.705
548.20 0.7045
548.30 0.704
548.40 0.7035
548.50 0.703
548.60 0.7026
548.70 0.7021
548.80 0.7016
548.90 0.7011
549.00 0.7006
549.10 0.7001
549.20 0.6996
549.30 0.6991
549.40 0.6986
549.50 0.6981
549.60 0.6977
549.70 0.6972
549.80 0.6967
549.90 0.6962
550.00 0.6957
550.10 0.6952
550.20 0.6947
550.30 0.6943
550.40 0.6938
550.50 0.6933
550.60 0.6928
550.70 0.6923
550.80 0.6918
550.90 0.6914
551.00 0.6909
551.10 0.6904
551.20 0.6899
551.30 0.6894
551.40 0.689
551.50 0.6885
551.60 0.688
551.70 0.6875
551.80 0.687
551.90 0.6866
552.00 0.6861
552.10 0.6856
552.20 0.6851
552.30 0.6847
552.40 0.6842
552.50 0.6837
552.60 0.6832
552.70 0.6828
552.80 0.6823
552.90 0.6818
553.00 0.6813
553.10 0.6809
553.20 0.6804
553.30 0.6799
553.40 0.6795
553.50 0.679
553.60 0.6785
553.70 0.678
553.80 0.6776
553.90 0.6771
554.00 0.6766
554.10 0.6762
554.20 0.6757
554.30 0.6752
554.40 0.6748
554.50 0.6743
554.60 0.6738
554.70 0.6734
554.80 0.6729
554.90 0.6724
555.00 0.672
555.10 0.6715
555.20 0.671
555.30 0.6706
555.40 0.6701
555.50 0.6696
555.60 0.6692
555.70 0.6687
555.80 0.6683
555.90 0.6678
556.00 0.6673
556.10 0.6669
556.20 0.6664
556.30 0.666
556.40 0.6655
556.50 0.665
556.60 0.6646
556.70 0.6641
556.80 0.6637
556.90 0.6632
557.00 0.6627
557.10 0.6623
557.20 0.6618
557.30 0.6614
557.40 0.6609
557.50 0.6605
557.60 0.66
557.70 0.6596
557.80 0.6591
557.90 0.6587
558.00 0.6582
558.10 0.6577
558.20 0.6573
558.30 0.6568
558.40 0.6564
558.50 0.6559
558.60 0.6555
558.70 0.655
558.80 0.6546
558.90 0.6541
559.00 0.6537
559.10 0.6532
559.20 0.6528
559.30 0.6523
559.40 0.6519
559.50 0.6514
559.60 0.651
559.70 0.6506
559.80 0.6501
559.90 0.6497
560.00 0.6492
560.10 0.6488
560.20 0.6483
560.30 0.6479
560.40 0.6474
560.50 0.647
560.60 0.6466
560.70 0.6461
560.80 0.6457
560.90 0.6452
561.00 0.6448
561.10 0.6443
561.20 0.6439
561.30 0.6435
561.40 0.643
561.50 0.6426
561.60 0.6421
561.70 0.6417
561.80 0.6413
561.90 0.6408
562.00 0.6404
562.10 0.64
562.20 0.6395
562.30 0.6391
562.40 0.6386
562.50 0.6382
562.60 0.6378
562.70 0.6373
562.80 0.6369
562.90 0.6365
563.00 0.636
563.10 0.6356
563.20 0.6352
563.30 0.6347
563.40 0.6343
563.50 0.6339
563.60 0.6334
563.70 0.633
563.80 0.6326
563.90 0.6321
564.00 0.6317
564.10 0.6313
564.20 0.6309
564.30 0.6304
564.40 0.63
564.50 0.6296
564.60 0.6291
564.70 0.6287
564.80 0.6283
564.90 0.6279
565.00 0.6274
565.10 0.627
565.20 0.6266
565.30 0.6261
565.40 0.6257
565.50 0.6253
565.60 0.6249
565.70 0.6245
565.80 0.624
565.90 0.6236
566.00 0.6232
566.10 0.6228
566.20 0.6223
566.30 0.6219
566.40 0.6215
566.50 0.6211
566.60 0.6206
566.70 0.6202
566.80 0.6198
566.90 0.6194
567.00 0.619
567.10 0.6185
567.20 0.6181
567.30 0.6177
567.40 0.6173
567.50 0.6169
567.60 0.6165
567.70 0.616
567.80 0.6156
567.90 0.6152
568.00 0.6148
568.10 0.6144
568.20 0.614
568.30 0.6135
568.40 0.6131
568.50 0.6127
568.60 0.6123
568.70 0.6119
568.80 0.6115
568.90 0.6111
569.00 0.6107
569.10 0.6102
569.20 0.6098
569.30 0.6094
569.40 0.609
569.50 0.6086
569.60 0.6082
569.70 0.6078
569.80 0.6074
569.90 0.607
570.00 0.6065
570.10 0.6061
570.20 0.6057
570.30 0.6053
570.40 0.6049
570.50 0.6045
570.60 0.6041
570.70 0.6037
570.80 0.6033
570.90 0.6029
571.00 0.6025
571.10 0.6021
571.20 0.6017
571.30 0.6013
571.40 0.6009
571.50 0.6005
571.60 0.6
571.70 0.5996
571.80 0.5992
571.90 0.5988
572.00 0.5984
572.10 0.598
572.20 0.5976
572.30 0.5972
572.40 0.5968
572.50 0.5964
572.60 0.596
572.70 0.5956
572.80 0.5952
572.90 0.5948
573.00 0.5944
573.10 0.594
573.20 0.5936
573.30 0.5932
573.40 0.5928
573.50 0.5924
573.60 0.592
573.70 0.5916
573.80 0.5913
573.90 0.5909
574.00 0.5905
574.10 0.5901
574.20 0.5897
574.30 0.5893
574.40 0.5889
574.50 0.5885
574.60 0.5881
574.70 0.5877
574.80 0.5873
574.90 0.5869
575.00 0.5865
575.10 0.5861
575.20 0.5857
575.30 0.5853
575.40 0.585
575.50 0.5846
575.60 0.5842
575.70 0.5838
575.80 0.5834
575.90 0.583
576.00 0.5826
576.10 0.5822
576.20 0.5818
576.30 0.5815
576.40 0.5811
576.50 0.5807
576.60 0.5803
576.70 0.5799
576.80 0.5795
576.90 0.5791
577.00 0.5787
577.10 0.5784
577.20 0.578
577.30 0.5776
577.40 0.5772
577.50 0.5768
577.60 0.5764
577.70 0.5761
577.80 0.5757
577.90 0.5753
578.00 0.5749
578.10 0.5745
578.20 0.5741
578.30 0.5738
578.40 0.5734
578.50 0.573
578.60 0.5726
578.70 0.5722
578.80 0.5719
578.90 0.5715
579.00 0.5711
579.10 0.5707
579.20 0.5703
579.30 0.57
579.40 0.5696
579.50 0.5692
579.60 0.5688
579.70 0.5685
579.80 0.5681
579.90 0.5677
580.00 0.5673
580.10 0.5669
580.20 0.5666
580.30 0.5662
580.40 0.5658
580.50 0.5654
580.60 0.5651
580.70 0.5647
580.80 0.5643
580.90 0.564
581.00 0.5636
581.10 0.5632
581.20 0.5628
581.30 0.5625
581.40 0.5621
581.50 0.5617
581.60 0.5613
581.70 0.561
581.80 0.5606
581.90 0.5602
582.00 0.5599
582.10 0.5595
582.20 0.5591
582.30 0.5588
582.40 0.5584
582.50 0.558
582.60 0.5576
582.70 0.5573
582.80 0.5569
582.90 0.5565
583.00 0.5562
583.10 0.5558
583.20 0.5554
583.30 0.5551
583.40 0.5547
583.50 0.5543
583.60 0.554
583.70 0.5536
583.80 0.5533
583.90 0.5529
584.00 0.5525
584.10 0.5522
584.20 0.5518
584.30 0.5514
584.40 0.5511
584.50 0.5507
584.60 0.5503
584.70 0.55
584.80 0.5496
584.90 0.5493
585.00 0.5489
585.10 0.5485
585.20 0.5482
585.30 0.5478
585.40 0.5475
585.50 0.5471
585.60 0.5467
585.70 0.5464
585.80 0.546
585.90 0.5457
586.00 0.5453
586.10 0.5449
586.20 0.5446
586.30 0.5442
586.40 0.5439
586.50 0.5435
586.60 0.5432
586.70 0.5428
586.80 0.5425
586.90 0.5421
587.00 0.5417
587.10 0.5414
587.20 0.541
587.30 0.5407
587.40 0.5403
587.50 0.54
587.60 0.5396
587.70 0.5393
587.80 0.5389
587.90 0.5386
588.00 0.5382
588.10 0.5379
588.20 0.5375
588.30 0.5372
588.40 0.5368
588.50 0.5364
588.60 0.5361
588.70 0.5357
588.80 0.5354
588.90 0.535
589.00 0.5347
589.10 0.5343
589.20 0.534
589.30 0.5337
589.40 0.5333
589.50 0.533
589.60 0.5326
589.70 0.5323
589.80 0.5319
589.90 0.5316
590.00 0.5312
590.10 0.5309
590.20 0.5305
590.30 0.5302
590.40 0.5298
590.50 0.5295
590.60 0.5291
590.70 0.5288
590.80 0.5285
590.90 0.5281
591.00 0.5278
591.10 0.5274
591.20 0.5271
591.30 0.5267
591.40 0.5264
591.50 0.5261
591.60 0.5257
591.70 0.5254
591.80 0.525
591.90 0.5247
592.00 0.5243
592.10 0.524
592.20 0.5237
592.30 0.5233
592.40 0.523
592.50 0.5226
592.60 0.5223
592.70 0.522
592.80 0.5216
592.90 0.5213
593.00 0.521
593.10 0.5206
593.20 0.5203
593.30 0.5199
593.40 0.5196
593.50 0.5193
593.60 0.5189
593.70 0.5186
593.80 0.5183
593.90 0.5179
594.00 0.5176
594.10 0.5172
594.20 0.5169
594.30 0.5166
594.40 0.5162
594.50 0.5159
594.60 0.5156
594.70 0.5152
594.80 0.5149
594.90 0.5146
595.00 0.5142
595.10 0.5139
595.20 0.5136
595.30 0.5132
595.40 0.5129
595.50 0.5126
595.60 0.5123
595.70 0.5119
595.80 0.5116
595.90 0.5113
596.00 0.5109
596.10 0.5106
596.20 0.5103
596.30 0.5099
596.40 0.5096
596.50 0.5093
596.60 0.509
596.70 0.5086
596.80 0.5083
596.90 0.508
597.00 0.5076
597.10 0.5073
597.20 0.507
597.30 0.5067
597.40 0.5063
597.50 0.506
597.60 0.5057
597.70 0.5054
597.80 0.505
597.90 0.5047
598.00 0.5044
598.10 0.5041
598.20 0.5037
598.30 0.5034
598.40 0.5031
598.50 0.5028
598.60 0.5024
598.70 0.5021
598.80 0.5018
598.90 0.5015
599.00 0.5012
599.10 0.5008
599.20 0.5005
599.30 0.5002
599.40 0.4999
599.50 0.4995
599.60 0.4992
599.70 0.4989
599.80 0.4986
599.90 0.4983
600.00 0.4979
600.10 0.4976
600.20 0.4973
600.30 0.497
600.40 0.4967
600.50 0.4963
600.60 0.496
600.70 0.4957
600.80 0.4954
600.90 0.4951
601.00 0.4948
601.10 0.4944
601.20 0.4941
601.30 0.4938
601.40 0.4935
601.50 0.4932
601.60 0.4929
601.70 0.4925
601.80 0.4922
601.90 0.4919
602.00 0.4916
602.10 0.4913
602.20 0.491
602.30 0.4907
602.40 0.4903
602.50 0.49
602.60 0.4897
602.70 0.4894
602.80 0.4891
602.90 0.4888
603.00 0.4885
603.10 0.4882
603.20 0.4878
603.30 0.4875
603.40 0.4872
603.50 0.4869
603.60 0.4866
603.70 0.4863
603.80 0.486
603.90 0.4857
604.00 0.4854
604.10 0.4851
604.20 0.4847
604.30 0.4844
604.40 0.4841
604.50 0.4838
604.60 0.4835
604.70 0.4832
604.80 0.4829
604.90 0.4826
605.00 0.4823
605.10 0.482
605.20 0.4817
605.30 0.4814
605.40 0.4811
605.50 0.4807
605.60 0.4804
605.70 0.4801
605.80 0.4798
605.90 0.4795
606.00 0.4792
606.10 0.4789
606.20 0.4786
606.30 0.4783
606.40 0.478
606.50 0.4777
606.60 0.4774
606.70 0.4771
606.80 0.4768
606.90 0.4765
607.00 0.4762
607.10 0.4759
607.20 0.4756
607.30 0.4753
607.40 0.475
607.50 0.4747
607.60 0.4744
607.70 0.4741
607.80 0.4738
607.90 0.4735
608.00 0.4732
608.10 0.4729
608.20 0.4726
608.30 0.4723
608.40 0.472
608.50 0.4717
608.60 0.4714
608.70 0.4711
608.80 0.4708
608.90 0.4705
609.00 0.4702
609.10 0.4699
609.20 0.4696
609.30 0.4693
609.40 0.469
609.50 0.4687
609.60 0.4684
609.70 0.4681
609.80 0.4678
609.90 0.4675
610.00 0.4672
610.10 0.4669
610.20 0.4666
610.30 0.4663
610.40 0.466
610.50 0.4658
610.60 0.4655
610.70 0.4652
610.80 0.4649
610.90 0.4646
611.00 0.4643
611.10 0.464
611.20 0.4637
611.30 0.4634
611.40 0.4631
611.50 0.4628
611.60 0.4625
611.70 0.4622
611.80 0.4619
611.90 0.4617
612.00 0.4614
612.10 0.4611
612.20 0.4608
612.30 0.4605
612.40 0.4602
612.50 0.4599
612.60 0.4596
612.70 0.4593
612.80 0.459
612.90 0.4588
613.00 0.4585
613.10 0.4582
613.20 0.4579
613.30 0.4576
613.40 0.4573
613.50 0.457
613.60 0.4567
613.70 0.4565
613.80 0.4562
613.90 0.4559
614.00 0.4556
614.10 0.4553
614.20 0.455
614.30 0.4547
614.40 0.4545
614.50 0.4542
614.60 0.4539
614.70 0.4536
614.80 0.4533
614.90 0.453
615.00 0.4527
615.10 0.4525
615.20 0.4522
615.30 0.4519
615.40 0.4516
615.50 0.4513
615.60 0.451
615.70 0.4508
615.80 0.4505
615.90 0.4502
616.00 0.4499
616.10 0.4496
616.20 0.4494
616.30 0.4491
616.40 0.4488
616.50 0.4485
616.60 0.4482
616.70 0.4479
616.80 0.4477
616.90 0.4474
617.00 0.4471
617.10 0.4468
617.20 0.4466
617.30 0.4463
617.40 0.446
617.50 0.4457
617.60 0.4454
617.70 0.4452
617.80 0.4449
617.90 0.4446
618.00 0.4443
618.10 0.444
618.20 0.4438
618.30 0.4435
618.40 0.4432
618.50 0.4429
618.60 0.4427
618.70 0.4424
618.80 0.4421
618.90 0.4418
619.00 0.4416
619.10 0.4413
619.20 0.441
619.30 0.4407
619.40 0.4405
619.50 0.4402
619.60 0.4399
619.70 0.4396
619.80 0.4394
619.90 0.4391
620.00 0.4388
620.10 0.4385
620.20 0.4383
620.30 0.438
620.40 0.4377
620.50 0.4375
620.60 0.4372
620.70 0.4369
620.80 0.4366
620.90 0.4364
621.00 0.4361
621.10 0.4358
621.20 0.4355
621.30 0.4353
621.40 0.435
621.50 0.4347
621.60 0.4345
621.70 0.4342
621.80 0.4339
621.90 0.4337
622.00 0.4334
622.10 0.4331
622.20 0.4329
622.30 0.4326
622.40 0.4323
622.50 0.432
622.60 0.4318
622.70 0.4315
622.80 0.4312
622.90 0.431
623.00 0.4307
623.10 0.4304
623.20 0.4302
623.30 0.4299
623.40 0.4296
623.50 0.4294
623.60 0.4291
623.70 0.4288
623.80 0.4286
623.90 0.4283
624.00 0.428
624.10 0.4278
624.20 0.4275
624.30 0.4272
624.40 0.427
624.50 0.4267
624.60 0.4265
624.70 0.4262
624.80 0.4259
624.90 0.4257
625.00 0.4254
625.10 0.4251
625.20 0.4249
625.30 0.4246
625.40 0.4243
625.50 0.4241
625.60 0.4238
625.70 0.4236
625.80 0.4233
625.90 0.423
626.00 0.4228
626.10 0.4225
626.20 0.4223
626.30 0.422
626.40 0.4217
626.50 0.4215
626.60 0.4212
626.70 0.421
626.80 0.4207
626.90 0.4204
627.00 0.4202
627.10 0.4199
627.20 0.4197
627.30 0.4194
627.40 0.4191
627.50 0.4189
627.60 0.4186
627.70 0.4184
627.80 0.4181
627.90 0.4178
628.00 0.4176
628.10 0.4173
628.20 0.4171
628.30 0.4168
628.40 0.4166
628.50 0.4163
628.60 0.416
628.70 0.4158
628.80 0.4155
628.90 0.4153
629.00 0.415
629.10 0.4148
629.20 0.4145
629.30 0.4142
629.40 0.414
629.50 0.4137
629.60 0.4135
629.70 0.4132
629.80 0.413
629.90 0.4127
630.00 0.4125
630.10 0.4122
630.20 0.412
630.30 0.4117
630.40 0.4114
630.50 0.4112
630.60 0.4109
630.70 0.4107
630.80 0.4104
630.90 0.4102
631.00 0.4099
631.10 0.4097
631.20 0.4094
631.30 0.4092
631.40 0.4089
631.50 0.4087
631.60 0.4084
631.70 0.4082
631.80 0.4079
631.90 0.4077
632.00 0.4074
632.10 0.4072
632.20 0.4069
632.30 0.4067
632.40 0.4064
632.50 0.4062
632.60 0.4059
632.70 0.4057
632.80 0.4054
632.90 0.4052
633.00 0.4049
633.10 0.4047
633.20 0.4044
633.30 0.4042
633.40 0.4039
633.50 0.4037
633.60 0.4034
633.70 0.4032
633.80 0.4029
633.90 0.4027
634.00 0.4024
634.10 0.4022
634.20 0.4019
634.30 0.4017
634.40 0.4014
634.50 0.4012
634.60 0.4009
634.70 0.4007
634.80 0.4004
634.90 0.4002
635.00 0.4
635.10 0.3997
635.20 0.3995
635.30 0.3992
635.40 0.399
635.50 0.3987
635.60 0.3985
635.70 0.3982
635.80 0.398
635.90 0.3977
636.00 0.3975
636.10 0.3972
636.20 0.397
636.30 0.3968
636.40 0.3965
636.50 0.3963
636.60 0.396
636.70 0.3958
636.80 0.3955
636.90 0.3953
637.00 0.395
637.10 0.3948
637.20 0.3946
637.30 0.3943
637.40 0.3941
637.50 0.3938
637.60 0.3936
637.70 0.3933
637.80 0.3931
637.90 0.3929
638.00 0.3926
638.10 0.3924
638.20 0.3921
638.30 0.3919
638.40 0.3916
638.50 0.3914
638.60 0.3911
638.70 0.3909
638.80 0.3907
638.90 0.3904
639.00 0.3902
639.10 0.3899
639.20 0.3897
639.30 0.3895
639.40 0.3892
639.50 0.389
639.60 0.3887
639.70 0.3885
639.80 0.3882
639.90 0.388
640.00 0.3878
640.10 0.3875
640.20 0.3873
640.30 0.387
640.40 0.3868
640.50 0.3865
640.60 0.3863
640.70 0.3861
640.80 0.3858
640.90 0.3856
641.00 0.3853
641.10 0.3851
641.20 0.3848
641.30 0.3846
641.40 0.3844
641.50 0.3841
641.60 0.3839
641.70 0.3836
641.80 0.3834
641.90 0.3831
642.00 0.3829
642.10 0.3827
642.20 0.3824
642.30 0.3822
642.40 0.3819
642.50 0.3817
642.60 0.3814
642.70 0.3812
642.80 0.381
642.90 0.3807
643.00 0.3805
643.10 0.3802
643.20 0.38
643.30 0.3797
643.40 0.3795
643.50 0.3792
643.60 0.379
643.70 0.3788
643.80 0.3785
643.90 0.3783
644.00 0.378
644.10 0.3778
644.20 0.3775
644.30 0.3773
644.40 0.377
644.50 0.3768
644.60 0.3765
644.70 0.3763
644.80 0.376
644.90 0.3758
645.00 0.3755
645.10 0.3753
645.20 0.375
645.30 0.3748
645.40 0.3745
645.50 0.3743
645.60 0.374
645.70 0.3738
645.80 0.3735
645.90 0.3732
646.00 0.373
646.10 0.3727
646.20 0.3725
646.30 0.3722
646.40 0.372
646.50 0.3717
646.60 0.3714
646.70 0.3712
646.80 0.3709
646.90 0.3706
647.00 0.3704
647.10 0.3701
647.20 0.3698
647.30 0.3696
647.40 0.3693
647.50 0.369
647.60 0.3687
647.70 0.3685
647.80 0.3682
647.90 0.3679
648.00 0.3676
648.10 0.3673
648.20 0.3671
648.30 0.3668
648.40 0.3665
648.50 0.3662
648.60 0.3659
648.70 0.3656
648.80 0.3653
648.90 0.365
649.00 0.3647
649.10 0.3644
649.20 0.3641
649.30 0.3638
649.40 0.3634
649.50 0.3631
649.60 0.3628
649.70 0.3624
649.80 0.3621
649.90 0.3617
650.00 0.3614
650.10 0.3611
650.20 0.3607
650.30 0.3604
650.40 0.36
650.50 0.3596
650.60 0.3592
650.70 0.3588
650.80 0.3584
650.90 0.358
651.00 0.3576
651.10 0.3572
651.20 0.3569
651.30 0.3564
651.40 0.356
651.50 0.3555
651.60 0.355
651.70 0.3545
651.80 0.354
651.90 0.3535
652.00 0.353
652.10 0.3525
652.20 0.3521
652.30 0.3515
652.40 0.3509
652.50 0.3503
652.60 0.3496
652.70 0.349
652.80 0.3483
652.90 0.3477
653.00 0.3471
653.10 0.3464
653.20 0.3458
653.30 0.3451
653.40 0.3442
653.50 0.3433
653.60 0.3424
653.70 0.3416
653.80 0.3407
653.90 0.3398
654.00 0.3389
654.10 0.3381
654.20 0.3372
654.30 0.3362
654.40 0.3351
654.50 0.334
654.60 0.3329
654.70 0.3318
654.80 0.3306
654.90 0.3293
655.00 0.328
655.10 0.3268
655.20 0.3255
655.30 0.3242
655.40 0.3228
655.50 0.3214
655.60 0.3199
655.70 0.3185
655.80 0.317
655.90 0.3155
656.00 0.314
656.10 0.3126
656.20 0.3179
656.30 0.3319
656.40 0.3134
656.50 0.3123
656.60 0.3134
656.70 0.3146
656.80 0.3157
656.90 0.3168
657.00 0.3179
657.10 0.319
657.20 0.32
657.30 0.321
657.40 0.3219
657.50 0.3228
657.60 0.3237
657.70 0.3246
657.80 0.3254
657.90 0.3262
658.00 0.3269
658.10 0.3276
658.20 0.3283
658.30 0.329
658.40 0.3295
658.50 0.33
658.60 0.3304
658.70 0.3309
658.80 0.3314
658.90 0.3318
659.00 0.3323
659.10 0.3328
659.20 0.3333
659.30 0.3337
659.40 0.3339
659.50 0.3341
659.60 0.3344
659.70 0.3346
659.80 0.3348
659.90 0.335
660.00 0.3352
660.10 0.3355
660.20 0.3357
660.30 0.3359
660.40 0.3359
660.50 0.336
660.60 0.3361
660.70 0.3361
660.80 0.3362
660.90 0.3363
661.00 0.3363
661.10 0.3364
661.20 0.3365
661.30 0.3365
661.40 0.3365
661.50 0.3365
661.60 0.3364
661.70 0.3364
661.80 0.3364
661.90 0.3363
662.00 0.3363
662.10 0.3363
662.20 0.3363
662.30 0.3362
662.40 0.3361
662.50 0.336
662.60 0.336
662.70 0.3359
662.80 0.3358
662.90 0.3357
663.00 0.3356
663.10 0.3355
663.20 0.3354
663.30 0.3353
663.40 0.3352
663.50 0.3351
663.60 0.335
663.70 0.3349
663.80 0.3347
663.90 0.3346
664.00 0.3345
664.10 0.3344
664.20 0.3343
664.30 0.3341
664.40 0.334
664.50 0.3338
664.60 0.3337
664.70 0.3336
664.80 0.3334
664.90 0.3333
665.00 0.3331
665.10 0.333
665.20 0.3329
665.30 0.3327
665.40 0.3326
665.50 0.3324
665.60 0.3322
665.70 0.3321
665.80 0.3319
665.90 0.3318
666.00 0.3316
666.10 0.3315
666.20 0.3313
666.30 0.3311
666.40 0.331
666.50 0.3308
666.60 0.3307
666.70 0.3305
666.80 0.3303
666.90 0.3302
667.00 0.33
667.10 0.3298
667.20 0.3297
667.30 0.3295
667.40 0.3293
667.50 0.3292
667.60 0.329
667.70 0.3288
667.80 0.3287
667.90 0.3285
668.00 0.3283
668.10 0.3281
668.20 0.328
668.30 0.3278
668.40 0.3276
668.50 0.3275
668.60 0.3273
668.70 0.3271
668.80 0.3269
668.90 0.3268
669.00 0.3266
669.10 0.3264
669.20 0.3262
669.30 0.3261
669.40 0.3259
669.50 0.3257
669.60 0.3255
669.70 0.3254
669.80 0.3252
669.90 0.325
670.00 0.3248
670.10 0.3247
670.20 0.3245
670.30 0.3243
670.40 0.3241
670.50 0.324
670.60 0.3238
670.70 0.3236
670.80 0.3234
670.90 0.3232
671.00 0.3231
671.10 0.3229
671.20 0.3227
671.30 0.3225
671.40 0.3224
671.50 0.3222
671.60 0.322
671.70 0.3218
671.80 0.3217
671.90 0.3215
672.00 0.3213
672.10 0.3211
672.20 0.3209
672.30 0.3208
672.40 0.3206
672.50 0.3204
672.60 0.3202
672.70 0.3201
672.80 0.3199
672.90 0.3197
673.00 0.3195
673.10 0.3193
673.20 0.3192
673.30 0.319
673.40 0.3188
673.50 0.3186
673.60 0.3185
673.70 0.3183
673.80 0.3181
673.90 0.3179
674.00 0.3178
674.10 0.3176
674.20 0.3174
674.30 0.3172
674.40 0.317
674.50 0.3169
674.60 0.3167
674.70 0.3165
674.80 0.3163
674.90 0.3162
675.00 0.316
675.10 0.3158
675.20 0.3156
675.30 0.3155
675.40 0.3153
675.50 0.3151
675.60 0.3149
675.70 0.3147
675.80 0.3146
675.90 0.3144
676.00 0.3142
676.10 0.314
676.20 0.3139
676.30 0.3137
676.40 0.3135
676.50 0.3133
676.60 0.3132
676.70 0.313
676.80 0.3128
676.90 0.3126
677.00 0.3125
677.10 0.3123
677.20 0.3121
677.30 0.3119
677.40 0.3118
677.50 0.3116
677.60 0.3114
677.70 0.3112
677.80 0.3111
677.90 0.3109
678.00 0.3107
678.10 0.3105
678.20 0.3104
678.30 0.3102
678.40 0.31
678.50 0.3098
678.60 0.3097
678.70 0.3095
678.80 0.3093
678.90 0.3091
679.00 0.309
679.10 0.3088
679.20 0.3086
679.30 0.3084
679.40 0.3083
679.50 0.3081
679.60 0.3079
679.70 0.3077
679.80 0.3076
679.90 0.3074
680.00 0.3072
680.10 0.3071
680.20 0.3069
680.30 0.3067
680.40 0.3065
680.50 0.3064
680.60 0.3062
680.70 0.306
680.80 0.3059
680.90 0.3057
681.00 0.3055
681.10 0.3053
681.20 0.3052
681.30 0.305
681.40 0.3048
681.50 0.3046
681.60 0.3045
681.70 0.3043
681.80 0.3041
681.90 0.304
682.00 0.3038
682.10 0.3036
682.20 0.3035
682.30 0.3033
682.40 0.3031
682.50 0.3029
682.60 0.3028
682.70 0.3026
682.80 0.3024
682.90 0.3023
683.00 0.3021
683.10 0.3019
683.20 0.3018
683.30 0.3016
683.40 0.3014
683.50 0.3012
683.60 0.3011
683.70 0.3009
683.80 0.3007
683.90 0.3006
684.00 0.3004
684.10 0.3002
684.20 0.3001
684.30 0.2999
684.40 0.2997
684.50 0.2996
684.60 0.2994
684.70 0.2992
684.80 0.2991
684.90 0.2989
685.00 0.2987
685.10 0.2986
685.20 0.2984
685.30 0.2982
685.40 0.298
685.50 0.2979
685.60 0.2977
685.70 0.2975
685.80 0.2974
685.90 0.2972
686.00 0.297
686.10 0.2969
686.20 0.2967
686.30 0.2965
686.40 0.2964
686.50 0.2962
686.60 0.2961
686.70 0.2959
686.80 0.2957
686.90 0.2956
687.00 0.2954
687.10 0.2952
687.20 0.2951
687.30 0.2949
687.40 0.2947
687.50 0.2946
687.60 0.2944
687.70 0.2942
687.80 0.2941
687.90 0.2939
688.00 0.2937
688.10 0.2936
688.20 0.2934
688.30 0.2932
688.40 0.2931
688.50 0.2929
688.60 0.2928
688.70 0.2926
688.80 0.2924
688.90 0.2923
689.00 0.2921
689.10 0.2919
689.20 0.2918
689.30 0.2916
689.40 0.2914
689.50 0.2913
689.60 0.2911
689.70 0.291
689.80 0.2908
689.90 0.2906
690.00 0.2905
690.10 0.2903
690.20 0.2902
690.30 0.29
690.40 0.2898
690.50 0.2897
690.60 0.2895
690.70 0.2894
690.80 0.2892
690.90 0.289
691.00 0.2889
691.10 0.2887
691.20 0.2885
691.30 0.2884
691.40 0.2882
691.50 0.2881
691.60 0.2879
691.70 0.2877
691.80 0.2876
691.90 0.2874
692.00 0.2873
692.10 0.2871
692.20 0.2869
692.30 0.2868
692.40 0.2866
692.50 0.2865
692.60 0.2863
692.70 0.2861
692.80 0.286
692.90 0.2858
693.00 0.2857
693.10 0.2855
693.20 0.2854
693.30 0.2852
693.40 0.285
693.50 0.2849
693.60 0.2847
693.70 0.2846
693.80 0.2844
693.90 0.2842
694.00 0.2841
694.10 0.2839
694.20 0.2838
694.30 0.2836
694.40 0.2834
694.50 0.2833
694.60 0.2831
694.70 0.283
694.80 0.2828
694.90 0.2827
695.00 0.2825
695.10 0.2823
695.20 0.2822
695.30 0.282
695.40 0.2819
695.50 0.2817
695.60 0.2816
695.70 0.2814
695.80 0.2813
695.90 0.2811
696.00 0.2809
696.10 0.2808
696.20 0.2806
696.30 0.2805
696.40 0.2803
696.50 0.2802
696.60 0.28
696.70 0.2799
696.80 0.2797
696.90 0.2796
697.00 0.2794
697.10 0.2792
697.20 0.2791
697.30 0.2789
697.40 0.2788
697.50 0.2786
697.60 0.2785
697.70 0.2783
697.80 0.2782
697.90 0.278
698.00 0.2779
698.10 0.2777
698.20 0.2775
698.30 0.2774
698.40 0.2772
698.50 0.2771
698.60 0.2769
698.70 0.2768
698.80 0.2766
698.90 0.2765
699.00 0.2763
699.10 0.2762
699.20 0.276
699.30 0.2759
699.40 0.2757
699.50 0.2756
699.60 0.2754
699.70 0.2753
699.80 0.2751
699.90 0.2749
700.00 0.2748
700.10 0.2746
700.20 0.2745
700.30 0.2743
700.40 0.2742
700.50 0.274
700.60 0.2739
700.70 0.2737
700.80 0.2736
700.90 0.2734
701.00 0.2733
701.10 0.2731
701.20 0.273
701.30 0.2728
701.40 0.2727
701.50 0.2725
701.60 0.2724
701.70 0.2722
701.80 0.2721
701.90 0.2719
702.00 0.2718
702.10 0.2716
702.20 0.2715
702.30 0.2713
702.40 0.2712
702.50 0.271
702.60 0.2709
702.70 0.2707
702.80 0.2706
702.90 0.2705
703.00 0.2703
703.10 0.2702
703.20 0.27
703.30 0.2699
703.40 0.2697
703.50 0.2696
703.60 0.2694
703.70 0.2693
703.80 0.2691
703.90 0.269
704.00 0.2688
704.10 0.2687
704.20 0.2685
704.30 0.2684
704.40 0.2682
704.50 0.2681
704.60 0.2679
704.70 0.2678
704.80 0.2676
704.90 0.2675
705.00 0.2673
705.10 0.2672
705.20 0.2671
705.30 0.2669
705.40 0.2668
705.50 0.2666
705.60 0.2665
705.70 0.2663
705.80 0.2662
705.90 0.266
706.00 0.2659
706.10 0.2657
706.20 0.2656
706.30 0.2655
706.40 0.2653
706.50 0.2652
706.60 0.265
706.70 0.2649
706.80 0.2647
706.90 0.2646
707.00 0.2644
707.10 0.2643
707.20 0.2642
707.30 0.264
707.40 0.2639
707.50 0.2637
707.60 0.2636
707.70 0.2634
707.80 0.2633
707.90 0.2631
708.00 0.263
708.10 0.2629
708.20 0.2627
708.30 0.2626
708.40 0.2624
708.50 0.2623
708.60 0.2621
708.70 0.262
708.80 0.2619
708.90 0.2617
709.00 0.2616
709.10 0.2614
709.20 0.2613
709.30 0.2611
709.40 0.261
709.50 0.2609
709.60 0.2607
709.70 0.2606
709.80 0.2604
709.90 0.2603
710.00 0.2601
710.10 0.26
710.20 0.2599
710.30 0.2597
710.40 0.2596
710.50 0.2594
710.60 0.2593
710.70 0.2592
710.80 0.259
710.90 0.2589
711.00 0.2587
711.10 0.2586
711.20 0.2585
711.30 0.2583
711.40 0.2582
711.50 0.258
711.60 0.2579
711.70 0.2578
711.80 0.2576
711.90 0.2575
712.00 0.2573
712.10 0.2572
712.20 0.2571
712.30 0.2569
712.40 0.2568
712.50 0.2566
712.60 0.2565
712.70 0.2564
712.80 0.2562
712.90 0.2561
713.00 0.2559
713.10 0.2558
713.20 0.2557
713.30 0.2555
713.40 0.2554
713.50 0.2553
713.60 0.2551
713.70 0.255
713.80 0.2548
713.90 0.2547
714.00 0.2546
714.10 0.2544
714.20 0.2543
714.30 0.2542
714.40 0.254
714.50 0.2539
714.60 0.2537
714.70 0.2536
714.80 0.2535
714.90 0.2533
715.00 0.2532
715.10 0.253
715.20 0.2529
715.30 0.2528
715.40 0.2526
715.50 0.2525
715.60 0.2524
715.70 0.2522
715.80 0.2521
715.90 0.252
716.00 0.2518
716.10 0.2517
716.20 0.2516
716.30 0.2514
716.40 0.2513
716.50 0.2512
716.60 0.251
716.70 0.2509
716.80 0.2507
716.90 0.2506
717.00 0.2505
717.10 0.2503
717.20 0.2502
717.30 0.2501
717.40 0.2499
717.50 0.2498
717.60 0.2497
717.70 0.2495
717.80 0.2494
717.90 0.2493
718.00 0.2491
718.10 0.249
718.20 0.2489
718.30 0.2487
718.40 0.2486
718.50 0.2485
718.60 0.2483
718.70 0.2482
718.80 0.2481
718.90 0.2479
719.00 0.2478
719.10 0.2477
719.20 0.2475
719.30 0.2474
719.40 0.2473
719.50 0.2471
719.60 0.247
719.70 0.2469
719.80 0.2467
719.90 0.2466
720.00 0.2465
720.10 0.2463
720.20 0.2462
720.30 0.2461
720.40 0.2459
720.50 0.2458
720.60 0.2457
720.70 0.2455
720.80 0.2454
720.90 0.2453
721.00 0.2451
721.10 0.245
721.20 0.2449
721.30 0.2448
721.40 0.2446
721.50 0.2445
721.60 0.2444
721.70 0.2442
721.80 0.2441
721.90 0.244
722.00 0.2438
722.10 0.2437
722.20 0.2436
722.30 0.2434
722.40 0.2433
722.50 0.2432
722.60 0.2431
722.70 0.2429
722.80 0.2428
722.90 0.2427
723.00 0.2425
723.10 0.2424
723.20 0.2423
723.30 0.2421
723.40 0.242
723.50 0.2419
723.60 0.2418
723.70 0.2416
723.80 0.2415
723.90 0.2414
724.00 0.2412
724.10 0.2411
724.20 0.241
724.30 0.2409
724.40 0.2407
724.50 0.2406
724.60 0.2405
724.70 0.2403
724.80 0.2402
724.90 0.2401
725.00 0.2399
725.10 0.2398
725.20 0.2397
725.30 0.2396
725.40 0.2394
725.50 0.2393
725.60 0.2392
725.70 0.2391
725.80 0.2389
725.90 0.2388
726.00 0.2387
726.10 0.2386
726.20 0.2384
726.30 0.2383
726.40 0.2382
726.50 0.238
726.60 0.2379
726.70 0.2378
726.80 0.2377
726.90 0.2375
727.00 0.2374
727.10 0.2373
727.20 0.2372
727.30 0.237
727.40 0.2369
727.50 0.2368
727.60 0.2367
727.70 0.2365
727.80 0.2364
727.90 0.2363
728.00 0.2362
728.10 0.236
728.20 0.2359
728.30 0.2358
728.40 0.2357
728.50 0.2355
728.60 0.2354
728.70 0.2353
728.80 0.2352
728.90 0.235
729.00 0.2349
729.10 0.2348
729.20 0.2347
729.30 0.2345
729.40 0.2344
729.50 0.2343
729.60 0.2342
729.70 0.234
729.80 0.2339
729.90 0.2338
730.00 0.2337
730.10 0.2335
730.20 0.2334
730.30 0.2333
730.40 0.2332
730.50 0.233
730.60 0.2329
730.70 0.2328
730.80 0.2327
730.90 0.2326
731.00 0.2324
731.10 0.2323
731.20 0.2322
731.30 0.2321
731.40 0.2319
731.50 0.2318
731.60 0.2317
731.70 0.2316
731.80 0.2315
731.90 0.2313
732.00 0.2312
732.10 0.2311
732.20 0.231
732.30 0.2308
732.40 0.2307
732.50 0.2306
732.60 0.2305
732.70 0.2304
732.80 0.2302
732.90 0.2301
733.00 0.23
733.10 0.2299
733.20 0.2298
733.30 0.2296
733.40 0.2295
733.50 0.2294
733.60 0.2293
733.70 0.2292
733.80 0.229
733.90 0.2289
734.00 0.2288
734.10 0.2287
734.20 0.2286
734.30 0.2284
734.40 0.2283
734.50 0.2282
734.60 0.2281
734.70 0.228
734.80 0.2278
734.90 0.2277
735.00 0.2276
735.10 0.2275
735.20 0.2274
735.30 0.2272
735.40 0.2271
735.50 0.227
735.60 0.2269
735.70 0.2268
735.80 0.2266
735.90 0.2265
736.00 0.2264
736.10 0.2263
736.20 0.2262
736.30 0.226
736.40 0.2259
736.50 0.2258
736.60 0.2257
736.70 0.2256
736.80 0.2254
736.90 0.2253
737.00 0.2252
737.10 0.2251
737.20 0.225
737.30 0.2249
737.40 0.2247
737.50 0.2246
737.60 0.2245
737.70 0.2244
737.80 0.2243
737.90 0.2241
738.00 0.224
738.10 0.2239
738.20 0.2238
738.30 0.2237
738.40 0.2236
738.50 0.2234
738.60 0.2233
738.70 0.2232
738.80 0.2231
738.90 0.223
739.00 0.2228
739.10 0.2227
739.20 0.2226
739.30 0.2225
739.40 0.2224
739.50 0.2223
739.60 0.2221
739.70 0.222
739.80 0.2219
739.90 0.2218
740.00 0.2217
740.10 0.2216
740.20 0.2214
740.30 0.2213
740.40 0.2212
740.50 0.2211
740.60 0.221
740.70 0.2209
740.80 0.2208
740.90 0.2206
741.00 0.2205
741.10 0.2204
741.20 0.2203
741.30 0.2202
741.40 0.2201
741.50 0.22
741.60 0.2198
741.70 0.2197
741.80 0.2196
741.90 0.2195
742.00 0.2194
742.10 0.2193
742.20 0.2192
742.30 0.219
742.40 0.2189
742.50 0.2188
742.60 0.2187
742.70 0.2186
742.80 0.2185
742.90 0.2184
743.00 0.2183
743.10 0.2181
743.20 0.218
743.30 0.2179
743.40 0.2178
743.50 0.2177
743.60 0.2176
743.70 0.2175
743.80 0.2173
743.90 0.2172
744.00 0.2171
744.10 0.217
744.20 0.2169
744.30 0.2168
744.40 0.2167
744.50 0.2166
744.60 0.2164
744.70 0.2163
744.80 0.2162
744.90 0.2161
745.00 0.216
745.10 0.2159
745.20 0.2158
745.30 0.2157
745.40 0.2156
745.50 0.2154
745.60 0.2153
745.70 0.2152
745.80 0.2151
745.90 0.215
746.00 0.2149
746.10 0.2148
746.20 0.2147
746.30 0.2145
746.40 0.2144
746.50 0.2143
746.60 0.2142
746.70 0.2141
746.80 0.214
746.90 0.2139
747.00 0.2138
747.10 0.2137
747.20 0.2135
747.30 0.2134
747.40 0.2133
747.50 0.2132
747.60 0.2131
747.70 0.213
747.80 0.2129
747.90 0.2128
748.00 0.2127
748.10 0.2125
748.20 0.2124
748.30 0.2123
748.40 0.2122
748.50 0.2121
748.60 0.212
748.70 0.2119
748.80 0.2118
748.90 0.2117
749.00 0.2116
749.10 0.2114
749.20 0.2113
749.30 0.2112
749.40 0.2111
749.50 0.211
749.60 0.2109
749.70 0.2108
749.80 0.2107
749.90 0.2106
750.00 0.2105
750.10 0.2103
750.20 0.2102
750.30 0.2101
750.40 0.21
750.50 0.2099
750.60 0.2098
750.70 0.2097
750.80 0.2096
750.90 0.2095
751.00 0.2094
751.10 0.2093
751.20 0.2092
751.30 0.2091
751.40 0.209
751.50 0.2088
751.60 0.2087
751.70 0.2086
751.80 0.2085
751.90 0.2084
752.00 0.2083
752.10 0.2082
752.20 0.2081
752.30 0.208
752.40 0.2079
752.50 0.2078
752.60 0.2077
752.70 0.2076
752.80 0.2075
752.90 0.2074
753.00 0.2072
753.10 0.2071
753.20 0.207
753.30 0.2069
753.40 0.2068
753.50 0.2067
753.60 0.2066
753.70 0.2065
753.80 0.2064
753.90 0.2063
754.00 0.2062
754.10 0.2061
754.20 0.206
754.30 0.2059
754.40 0.2058
754.50 0.2057
754.60 0.2056
754.70 0.2054
754.80 0.2053
754.90 0.2052
755.00 0.2051
755.10 0.205
755.20 0.2049
755.30 0.2048
755.40 0.2047
755.50 0.2046
755.60 0.2045
755.70 0.2044
755.80 0.2043
755.90 0.2042
756.00 0.2041
756.10 0.204
756.20 0.2039
756.30 0.2038
756.40 0.2037
756.50 0.2036
756.60 0.2035
756.70 0.2034
756.80 0.2032
756.90 0.2031
757.00 0.203
757.10 0.2029
757.20 0.2028
757.30 0.2027
757.40 0.2026
757.50 0.2025
757.60 0.2024
757.70 0.2023
757.80 0.2022
757.90 0.2021
758.00 0.202
758.10 0.2019
758.20 0.2018
758.30 0.2017
758.40 0.2016
758.50 0.2015
758.60 0.2014
758.70 0.2013
758.80 0.2012
758.90 0.2011
759.00 0.201
759.10 0.2009
759.20 0.2008
759.30 0.2007
759.40 0.2006
759.50 0.2004
759.60 0.2003
759.70 0.2002
759.80 0.2001
759.90 0.2
760.00 0.1999
760.10 0.1998
760.20 0.1997
760.30 0.1996
760.40 0.1995
760.50 0.1994
760.60 0.1993
760.70 0.1992
760.80 0.1991
760.90 0.199
761.00 0.1989
761.10 0.1988
761.20 0.1987
761.30 0.1986
761.40 0.1985
761.50 0.1984
761.60 0.1983
761.70 0.1982
761.80 0.1981
761.90 0.198
762.00 0.1979
762.10 0.1978
762.20 0.1977
762.30 0.1976
762.40 0.1975
762.50 0.1974
762.60 0.1973
762.70 0.1972
762.80 0.1971
762.90 0.197
763.00 0.1969
763.10 0.1968
763.20 0.1967
763.30 0.1966
763.40 0.1965
763.50 0.1964
763.60 0.1963
763.70 0.1962
763.80 0.1961
763.90 0.196
764.00 0.1959
764.10 0.1958
764.20 0.1957
764.30 0.1956
764.40 0.1955
764.50 0.1954
764.60 0.1953
764.70 0.1952
764.80 0.1951
764.90 0.195
765.00 0.1949
765.10 0.1948
765.20 0.1947
765.30 0.1946
765.40 0.1945
765.50 0.1945
765.60 0.1944
765.70 0.1943
765.80 0.1942
765.90 0.1941
766.00 0.194
766.10 0.1939
766.20 0.1938
766.30 0.1937
766.40 0.1936
766.50 0.1935
766.60 0.1934
766.70 0.1933
766.80 0.1932
766.90 0.1931
767.00 0.193
767.10 0.1929
767.20 0.1928
767.30 0.1927
767.40 0.1926
767.50 0.1925
767.60 0.1924
767.70 0.1923
767.80 0.1922
767.90 0.1921
768.00 0.192
768.10 0.1919
768.20 0.1918
768.30 0.1917
768.40 0.1916
768.50 0.1915
768.60 0.1914
768.70 0.1913
768.80 0.1912
768.90 0.1911
769.00 0.191
769.10 0.1909
769.20 0.1908
769.30 0.1907
769.40 0.1906
769.50 0.1905
769.60 0.1905
769.70 0.1904
769.80 0.1903
769.90 0.1902
770.00 0.1901
770.10 0.19
770.20 0.1899
770.30 0.1898
770.40 0.1897
770.50 0.1896
770.60 0.1895
770.70 0.1894
770.80 0.1893
770.90 0.1892
771.00 0.1891
771.10 0.189
771.20 0.1889
771.30 0.1888
771.40 0.1887
771.50 0.1886
771.60 0.1886
771.70 0.1885
771.80 0.1884
771.90 0.1883
772.00 0.1882
772.10 0.1881
772.20 0.188
772.30 0.1879
772.40 0.1878
772.50 0.1877
772.60 0.1876
772.70 0.1875
772.80 0.1874
772.90 0.1873
773.00 0.1872
773.10 0.1871
773.20 0.1871
773.30 0.187
773.40 0.1869
773.50 0.1868
773.60 0.1867
773.70 0.1866
773.80 0.1865
773.90 0.1864
774.00 0.1863
774.10 0.1862
774.20 0.1861
774.30 0.186
774.40 0.1859
774.50 0.1858
774.60 0.1858
774.70 0.1857
774.80 0.1856
774.90 0.1855
775.00 0.1854
775.10 0.1853
775.20 0.1852
775.30 0.1851
775.40 0.185
775.50 0.1849
775.60 0.1848
775.70 0.1847
775.80 0.1846
775.90 0.1845
776.00 0.1845
776.10 0.1844
776.20 0.1843
776.30 0.1842
776.40 0.1841
776.50 0.184
776.60 0.1839
776.70 0.1838
776.80 0.1837
776.90 0.1836
777.00 0.1835
777.10 0.1834
777.20 0.1834
777.30 0.1833
777.40 0.1832
777.50 0.1831
777.60 0.183
777.70 0.1829
777.80 0.1828
777.90 0.1827
778.00 0.1826
778.10 0.1825
778.20 0.1824
778.30 0.1823
778.40 0.1823
778.50 0.1822
778.60 0.1821
778.70 0.182
778.80 0.1819
778.90 0.1818
779.00 0.1817
779.10 0.1816
779.20 0.1815
779.30 0.1814
779.40 0.1813
779.50 0.1813
779.60 0.1812
779.70 0.1811
779.80 0.181
779.90 0.1809
780.00 0.1808
780.10 0.1807
780.20 0.1806
780.30 0.1805
780.40 0.1804
780.50 0.1804
780.60 0.1803
780.70 0.1802
780.80 0.1801
780.90 0.18
781.00 0.1799
781.10 0.1798
781.20 0.1797
781.30 0.1796
781.40 0.1796
781.50 0.1795
781.60 0.1794
781.70 0.1793
781.80 0.1792
781.90 0.1791
782.00 0.179
782.10 0.1789
782.20 0.1788
782.30 0.1788
782.40 0.1787
782.50 0.1786
782.60 0.1785
782.70 0.1784
782.80 0.1783
782.90 0.1782
783.00 0.1781
783.10 0.1781
783.20 0.178
783.30 0.1779
783.40 0.1778
783.50 0.1777
783.60 0.1776
783.70 0.1775
783.80 0.1774
783.90 0.1774
784.00 0.1773
784.10 0.1772
784.20 0.1771
784.30 0.177
784.40 0.1769
784.50 0.1768
784.60 0.1767
784.70 0.1767
784.80 0.1766
784.90 0.1765
785.00 0.1764
785.10 0.1763
785.20 0.1762
785.30 0.1761
785.40 0.176
785.50 0.176
785.60 0.1759
785.70 0.1758
785.80 0.1757
785.90 0.1756
786.00 0.1755
786.10 0.1754
786.20 0.1754
786.30 0.1753
786.40 0.1752
786.50 0.1751
786.60 0.175
786.70 0.1749
786.80 0.1748
786.90 0.1747
787.00 0.1747
787.10 0.1746
787.20 0.1745
787.30 0.1744
787.40 0.1743
787.50 0.1742
787.60 0.1741
787.70 0.1741
787.80 0.174
787.90 0.1739
788.00 0.1738
788.10 0.1737
788.20 0.1736
788.30 0.1735
788.40 0.1735
788.50 0.1734
788.60 0.1733
788.70 0.1732
788.80 0.1731
788.90 0.173
789.00 0.1729
789.10 0.1729
789.20 0.1728
789.30 0.1727
789.40 0.1726
789.50 0.1725
789.60 0.1724
789.70 0.1723
789.80 0.1723
789.90 0.1722
790.00 0.1721
790.10 0.172
790.20 0.1719
790.30 0.1718
790.40 0.1718
790.50 0.1717
790.60 0.1716
790.70 0.1715
790.80 0.1714
790.90 0.1713
791.00 0.1713
791.10 0.1712
791.20 0.1711
791.30 0.171
791.40 0.1709
791.50 0.1708
791.60 0.1708
791.70 0.1707
791.80 0.1706
791.90 0.1705
792.00 0.1704
792.10 0.1703
792.20 0.1703
792.30 0.1702
792.40 0.1701
792.50 0.17
792.60 0.1699
792.70 0.1698
792.80 0.1698
792.90 0.1697
793.00 0.1696
793.10 0.1695
793.20 0.1694
793.30 0.1693
793.40 0.1693
793.50 0.1692
793.60 0.1691
793.70 0.169
793.80 0.1689
793.90 0.1689
794.00 0.1688
794.10 0.1687
794.20 0.1686
794.30 0.1685
794.40 0.1684
794.50 0.1684
794.60 0.1683
794.70 0.1682
794.80 0.1681
794.90 0.168
795.00 0.168
795.10 0.1679
795.20 0.1678
795.30 0.1677
795.40 0.1676
795.50 0.1675
795.60 0.1675
795.70 0.1674
795.80 0.1673
795.90 0.1672
796.00 0.1671
796.10 0.1671
796.20 0.167
796.30 0.1669
796.40 0.1668
796.50 0.1667
796.60 0.1666
796.70 0.1666
796.80 0.1665
796.90 0.1664
797.00 0.1663
797.10 0.1662
797.20 0.1662
797.30 0.1661
797.40 0.166
797.50 0.1659
797.60 0.1658
797.70 0.1658
797.80 0.1657
797.90 0.1656
798.00 0.1655
798.10 0.1654
798.20 0.1653
798.30 0.1653
798.40 0.1652
798.50 0.1651
798.60 0.165
798.70 0.1649
798.80 0.1649
798.90 0.1648
799.00 0.1647
799.10 0.1646
799.20 0.1645
799.30 0.1645
799.40 0.1644
799.50 0.1643
799.60 0.1642
799.70 0.1641
799.80 0.1641
799.90 0.164
800.00 0.1639
800.10 0.1638
800.20 0.1637
800.30 0.1637
800.40 0.1636
800.50 0.1635
800.60 0.1634
800.70 0.1634
800.80 0.1633
800.90 0.1632
801.00 0.1631
801.10 0.163
801.20 0.163
801.30 0.1629
801.40 0.1628
801.50 0.1627
801.60 0.1626
801.70 0.1626
801.80 0.1625
801.90 0.1624
802.00 0.1623
802.10 0.1623
802.20 0.1622
802.30 0.1621
802.40 0.162
802.50 0.1619
802.60 0.1619
802.70 0.1618
802.80 0.1617
802.90 0.1616
803.00 0.1616
803.10 0.1615
803.20 0.1614
803.30 0.1613
803.40 0.1612
803.50 0.1612
803.60 0.1611
803.70 0.161
803.80 0.1609
803.90 0.1609
804.00 0.1608
804.10 0.1607
804.20 0.1606
804.30 0.1605
804.40 0.1605
804.50 0.1604
804.60 0.1603
804.70 0.1602
804.80 0.1602
804.90 0.1601
805.00 0.16
805.10 0.1599
805.20 0.1599
805.30 0.1598
805.40 0.1597
805.50 0.1596
805.60 0.1595
805.70 0.1595
805.80 0.1594
805.90 0.1593
806.00 0.1592
806.10 0.1592
806.20 0.1591
806.30 0.159
806.40 0.1589
806.50 0.1589
806.60 0.1588
806.70 0.1587
806.80 0.1586
806.90 0.1585
807.00 0.1585
807.10 0.1584
807.20 0.1583
807.30 0.1582
807.40 0.1582
807.50 0.1581
807.60 0.158
807.70 0.1579
807.80 0.1579
807.90 0.1578
808.00 0.1577
808.10 0.1576
808.20 0.1576
808.30 0.1575
808.40 0.1574
808.50 0.1573
808.60 0.1573
808.70 0.1572
808.80 0.1571
808.90 0.157
809.00 0.1569
809.10 0.1569
809.20 0.1568
809.30 0.1567
809.40 0.1566
809.50 0.1566
809.60 0.1565
809.70 0.1564
809.80 0.1563
809.90 0.1563
810.00 0.1562
810.10 0.1561
810.20 0.156
810.30 0.156
810.40 0.1559
810.50 0.1558
810.60 0.1557
810.70 0.1557
810.80 0.1556
810.90 0.1555
811.00 0.1555
811.10 0.1554
811.20 0.1553
811.30 0.1552
811.40 0.1552
811.50 0.1551
811.60 0.155
811.70 0.1549
811.80 0.1549
811.90 0.1548
812.00 0.1547
812.10 0.1546
812.20 0.1546
812.30 0.1545
812.40 0.1544
812.50 0.1543
812.60 0.1543
812.70 0.1542
812.80 0.1541
812.90 0.1541
813.00 0.154
813.10 0.1539
813.20 0.1538
813.30 0.1538
813.40 0.1537
813.50 0.1536
813.60 0.1535
813.70 0.1535
813.80 0.1534
813.90 0.1533
814.00 0.1533
814.10 0.1532
814.20 0.1531
814.30 0.153
814.40 0.153
814.50 0.1529
814.60 0.1528
814.70 0.1527
814.80 0.1527
814.90 0.1526
815.00 0.1525
815.10 0.1525
815.20 0.1524
815.30 0.1523
815.40 0.1522
815.50 0.1522
815.60 0.1521
815.70 0.152
815.80 0.1519
815.90 0.1519
816.00 0.1518
816.10 0.1517
816.20 0.1517
816.30 0.1516
816.40 0.1515
816.50 0.1514
816.60 0.1514
816.70 0.1513
816.80 0.1512
816.90 0.1512
817.00 0.1511
817.10 0.151
817.20 0.1509
817.30 0.1509
817.40 0.1508
817.50 0.1507
817.60 0.1506
817.70 0.1506
817.80 0.1505
817.90 0.1504
818.00 0.1504
818.10 0.1503
818.20 0.1502
818.30 0.1501
818.40 0.1501
818.50 0.15
818.60 0.1499
818.70 0.1499
818.80 0.1498
818.90 0.1497
819.00 0.1496
819.10 0.1496
819.20 0.1495
819.30 0.1494
819.40 0.1494
819.50 0.1493
819.60 0.1492
819.70 0.1491
819.80 0.1491
819.90 0.149
820.00 0.1489
820.10 0.1489
820.20 0.1488
820.30 0.1487
820.40 0.1487
820.50 0.1486
820.60 0.1485
820.70 0.1484
820.80 0.1484
820.90 0.1483
821.00 0.1482
821.10 0.1482
821.20 0.1481
821.30 0.148
821.40 0.148
821.50 0.1479
821.60 0.1478
821.70 0.1477
821.80 0.1477
821.90 0.1476
822.00 0.1475
822.10 0.1475
822.20 0.1474
822.30 0.1473
822.40 0.1473
822.50 0.1472
822.60 0.1471
822.70 0.147
822.80 0.147
822.90 0.1469
823.00 0.1468
823.10 0.1468
823.20 0.1467
823.30 0.1466
823.40 0.1466
823.50 0.1465
823.60 0.1464
823.70 0.1464
823.80 0.1463
823.90 0.1462
824.00 0.1462
824.10 0.1461
824.20 0.146
824.30 0.1459
824.40 0.1459
824.50 0.1458
824.60 0.1457
824.70 0.1457
824.80 0.1456
824.90 0.1455
825.00 0.1455
825.10 0.1454
825.20 0.1453
825.30 0.1453
825.40 0.1452
825.50 0.1451
825.60 0.1451
825.70 0.145
825.80 0.1449
825.90 0.1449
826.00 0.1448
826.10 0.1447
826.20 0.1446
826.30 0.1446
826.40 0.1445
826.50 0.1444
826.60 0.1444
826.70 0.1443
826.80 0.1442
826.90 0.1442
827.00 0.1441
827.10 0.144
827.20 0.144
827.30 0.1439
827.40 0.1438
827.50 0.1438
827.60 0.1437
827.70 0.1436
827.80 0.1436
827.90 0.1435
828.00 0.1434
828.10 0.1434
828.20 0.1433
828.30 0.1432
828.40 0.1432
828.50 0.1431
828.60 0.143
828.70 0.143
828.80 0.1429
828.90 0.1428
829.00 0.1428
829.10 0.1427
829.20 0.1426
829.30 0.1426
829.40 0.1425
829.50 0.1424
829.60 0.1424
829.70 0.1423
829.80 0.1422
829.90 0.1422
830.00 0.1421
830.10 0.142
830.20 0.142
830.30 0.1419
830.40 0.1418
830.50 0.1418
830.60 0.1417
830.70 0.1416
830.80 0.1416
830.90 0.1415
831.00 0.1414
831.10 0.1414
831.20 0.1413
831.30 0.1412
831.40 0.1412
831.50 0.1411
831.60 0.141
831.70 0.141
831.80 0.1409
831.90 0.1408
832.00 0.1408
832.10 0.1407
832.20 0.1406
832.30 0.1406
832.40 0.1405
832.50 0.1404
832.60 0.1404
832.70 0.1403
832.80 0.1402
832.90 0.1402
833.00 0.1401
833.10 0.1401
833.20 0.14
833.30 0.1399
833.40 0.1399
833.50 0.1398
833.60 0.1397
833.70 0.1397
833.80 0.1396
833.90 0.1395
834.00 0.1395
834.10 0.1394
834.20 0.1393
834.30 0.1393
834.40 0.1392
834.50 0.1391
834.60 0.1391
834.70 0.139
834.80 0.1389
834.90 0.1389
835.00 0.1388
835.10 0.1388
835.20 0.1387
835.30 0.1386
835.40 0.1386
835.50 0.1385
835.60 0.1384
835.70 0.1384
835.80 0.1383
835.90 0.1382
836.00 0.1382
836.10 0.1381
836.20 0.138
836.30 0.138
836.40 0.1379
836.50 0.1378
836.60 0.1378
836.70 0.1377
836.80 0.1377
836.90 0.1376
837.00 0.1375
837.10 0.1375
837.20 0.1374
837.30 0.1373
837.40 0.1373
837.50 0.1372
837.60 0.1371
837.70 0.1371
837.80 0.137
837.90 0.137
838.00 0.1369
838.10 0.1368
838.20 0.1368
838.30 0.1367
838.40 0.1366
838.50 0.1366
838.60 0.1365
838.70 0.1364
838.80 0.1364
838.90 0.1363
839.00 0.1363
839.10 0.1362
839.20 0.1361
839.30 0.1361
839.40 0.136
839.50 0.1359
839.60 0.1359
839.70 0.1358
839.80 0.1358
839.90 0.1357
840.00 0.1356
840.10 0.1356
840.20 0.1355
840.30 0.1354
840.40 0.1354
840.50 0.1353
840.60 0.1352
840.70 0.1352
840.80 0.1351
840.90 0.1351
841.00 0.135
841.10 0.1349
841.20 0.1349
841.30 0.1348
841.40 0.1347
841.50 0.1347
841.60 0.1346
841.70 0.1346
841.80 0.1345
841.90 0.1344
842.00 0.1344
842.10 0.1343
842.20 0.1342
842.30 0.1342
842.40 0.1341
842.50 0.1341
842.60 0.134
842.70 0.1339
842.80 0.1339
842.90 0.1338
843.00 0.1338
843.10 0.1337
843.20 0.1336
843.30 0.1336
843.40 0.1335
843.50 0.1334
843.60 0.1334
843.70 0.1333
843.80 0.1333
843.90 0.1332
844.00 0.1331
844.10 0.1331
844.20 0.133
844.30 0.133
844.40 0.1329
844.50 0.1328
844.60 0.1328
844.70 0.1327
844.80 0.1326
844.90 0.1326
845.00 0.1325
845.10 0.1325
845.20 0.1324
845.30 0.1323
845.40 0.1323
845.50 0.1322
845.60 0.1322
845.70 0.1321
845.80 0.132
845.90 0.132
846.00 0.1319
846.10 0.1319
846.20 0.1318
846.30 0.1317
846.40 0.1317
846.50 0.1316
846.60 0.1316
846.70 0.1315
846.80 0.1314
846.90 0.1314
847.00 0.1313
847.10 0.1312
847.20 0.1312
847.30 0.1311
847.40 0.1311
847.50 0.131
847.60 0.1309
847.70 0.1309
847.80 0.1308
847.90 0.1308
848.00 0.1307
848.10 0.1306
848.20 0.1306
848.30 0.1305
848.40 0.1305
848.50 0.1304
848.60 0.1304
848.70 0.1303
848.80 0.1302
848.90 0.1302
849.00 0.1301
849.10 0.1301
849.20 0.13
849.30 0.1299
849.40 0.1299
849.50 0.1298
849.60 0.1298
849.70 0.1297
849.80 0.1296
849.90 0.1296
850.00 0.1295
850.10 0.1295
850.20 0.1294
850.30 0.1293
850.40 0.1293
850.50 0.1292
850.60 0.1292
850.70 0.1291
850.80 0.129
850.90 0.129
851.00 0.1289
851.10 0.1289
851.20 0.1288
851.30 0.1287
851.40 0.1287
851.50 0.1286
851.60 0.1286
851.70 0.1285
851.80 0.1285
851.90 0.1284
852.00 0.1283
852.10 0.1283
852.20 0.1282
852.30 0.1282
852.40 0.1281
852.50 0.128
852.60 0.128
852.70 0.1279
852.80 0.1279
852.90 0.1278
853.00 0.1278
853.10 0.1277
853.20 0.1276
853.30 0.1276
853.40 0.1275
853.50 0.1275
853.60 0.1274
853.70 0.1273
853.80 0.1273
853.90 0.1272
854.00 0.1272
854.10 0.1271
854.20 0.1271
854.30 0.127
854.40 0.1269
854.50 0.1269
854.60 0.1268
854.70 0.1268
854.80 0.1267
854.90 0.1266
855.00 0.1266
855.10 0.1265
855.20 0.1265
855.30 0.1264
855.40 0.1264
855.50 0.1263
855.60 0.1262
855.70 0.1262
855.80 0.1261
855.90 0.1261
856.00 0.126
856.10 0.126
856.20 0.1259
856.30 0.1258
856.40 0.1258
856.50 0.1257
856.60 0.1257
856.70 0.1256
856.80 0.1256
856.90 0.1255
857.00 0.1254
857.10 0.1254
857.20 0.1253
857.30 0.1253
857.40 0.1252
857.50 0.1252
857.60 0.1251
857.70 0.125
857.80 0.125
857.90 0.1249
858.00 0.1249
858.10 0.1248
858.20 0.1248
858.30 0.1247
858.40 0.1247
858.50 0.1246
858.60 0.1245
858.70 0.1245
858.80 0.1244
858.90 0.1244
859.00 0.1243
859.10 0.1243
859.20 0.1242
859.30 0.1241
859.40 0.1241
859.50 0.124
859.60 0.124
859.70 0.1239
859.80 0.1239
859.90 0.1238
860.00 0.1238
860.10 0.1237
860.20 0.1236
860.30 0.1236
860.40 0.1235
860.50 0.1235
860.60 0.1234
860.70 0.1234
860.80 0.1233
860.90 0.1233
861.00 0.1232
861.10 0.1231
861.20 0.1231
861.30 0.123
861.40 0.123
861.50 0.1229
861.60 0.1229
861.70 0.1228
861.80 0.1228
861.90 0.1227
862.00 0.1226
862.10 0.1226
862.20 0.1225
862.30 0.1225
862.40 0.1224
862.50 0.1224
862.60 0.1223
862.70 0.1223
862.80 0.1222
862.90 0.1221
863.00 0.1221
863.10 0.122
863.20 0.122
863.30 0.1219
863.40 0.1219
863.50 0.1218
863.60 0.1218
863.70 0.1217
863.80 0.1217
863.90 0.1216
864.00 0.1215
864.10 0.1215
864.20 0.1214
864.30 0.1214
864.40 0.1213
864.50 0.1213
864.60 0.1212
864.70 0.1212
864.80 0.1211
864.90 0.1211
865.00 0.121
865.10 0.1209
865.20 0.1209
865.30 0.1208
865.40 0.1208
865.50 0.1207
865.60 0.1207
865.70 0.1206
865.80 0.1206
865.90 0.1205
866.00 0.1205
866.10 0.1204
866.20 0.1203
866.30 0.1203
866.40 0.1202
866.50 0.1202
866.60 0.1201
866.70 0.1201
866.80 0.12
866.90 0.12
867.00 0.1199
867.10 0.1199
867.20 0.1198
867.30 0.1197
867.40 0.1197
867.50 0.1196
867.60 0.1196
867.70 0.1195
867.80 0.1195
867.90 0.1194
868.00 0.1194
868.10 0.1193
868.20 0.1193
868.30 0.1192
868.40 0.1192
868.50 0.1191
868.60 0.1191
868.70 0.119
868.80 0.1189
868.90 0.1189
869.00 0.1188
869.10 0.1188
869.20 0.1187
869.30 0.1187
869.40 0.1186
869.50 0.1186
869.60 0.1185
869.70 0.1185
869.80 0.1184
869.90 0.1184
870.00 0.1183
870.10 0.1183
870.20 0.1182
870.30 0.1182
870.40 0.1181
870.50 0.118
870.60 0.118
870.70 0.1179
870.80 0.1179
870.90 0.1178
871.00 0.1178
871.10 0.1177
871.20 0.1177
871.30 0.1176
871.40 0.1176
871.50 0.1175
871.60 0.1175
871.70 0.1174
871.80 0.1174
871.90 0.1173
872.00 0.1173
872.10 0.1172
872.20 0.1172
872.30 0.1171
872.40 0.1171
872.50 0.117
872.60 0.1169
872.70 0.1169
872.80 0.1168
872.90 0.1168
873.00 0.1167
873.10 0.1167
873.20 0.1166
873.30 0.1166
873.40 0.1165
873.50 0.1165
873.60 0.1164
873.70 0.1164
873.80 0.1163
873.90 0.1163
874.00 0.1162
874.10 0.1162
874.20 0.1161
874.30 0.1161
874.40 0.116
874.50 0.116
874.60 0.1159
874.70 0.1159
874.80 0.1158
874.90 0.1158
875.00 0.1157
875.10 0.1157
875.20 0.1156
875.30 0.1156
875.40 0.1155
875.50 0.1154
875.60 0.1154
875.70 0.1153
875.80 0.1153
875.90 0.1152
876.00 0.1152
876.10 0.1151
876.20 0.1151
876.30 0.115
876.40 0.115
876.50 0.1149
876.60 0.1149
876.70 0.1148
876.80 0.1148
876.90 0.1147
877.00 0.1147
877.10 0.1146
877.20 0.1146
877.30 0.1145
877.40 0.1145
877.50 0.1144
877.60 0.1144
877.70 0.1143
877.80 0.1143
877.90 0.1142
878.00 0.1142
878.10 0.1141
878.20 0.1141
878.30 0.114
878.40 0.114
878.50 0.1139
878.60 0.1139
878.70 0.1138
878.80 0.1138
878.90 0.1137
879.00 0.1137
879.10 0.1136
879.20 0.1136
879.30 0.1135
879.40 0.1135
879.50 0.1134
879.60 0.1134
879.70 0.1133
879.80 0.1133
879.90 0.1132
880.00 0.1132
880.10 0.1131
880.20 0.1131
880.30 0.113
880.40 0.113
880.50 0.1129
880.60 0.1129
880.70 0.1128
880.80 0.1128
880.90 0.1127
881.00 0.1127
881.10 0.1126
881.20 0.1126
881.30 0.1125
881.40 0.1125
881.50 0.1124
881.60 0.1124
881.70 0.1123
881.80 0.1123
881.90 0.1122
882.00 0.1122
882.10 0.1121
882.20 0.1121
882.30 0.112
882.40 0.112
882.50 0.1119
882.60 0.1119
882.70 0.1118
882.80 0.1118
882.90 0.1117
883.00 0.1117
883.10 0.1116
883.20 0.1116
883.30 0.1115
883.40 0.1115
883.50 0.1114
883.60 0.1114
883.70 0.1113
883.80 0.1113
883.90 0.1113
884.00 0.1112
884.10 0.1112
884.20 0.1111
884.30 0.1111
884.40 0.111
884.50 0.111
884.60 0.1109
884.70 0.1109
884.80 0.1108
884.90 0.1108
885.00 0.1107
885.10 0.1107
885.20 0.1106
885.30 0.1106
885.40 0.1105
885.50 0.1105
885.60 0.1104
885.70 0.1104
885.80 0.1103
885.90 0.1103
886.00 0.1102
886.10 0.1102
886.20 0.1101
886.30 0.1101
886.40 0.11
886.50 0.11
886.60 0.1099
886.70 0.1099
886.80 0.1098
886.90 0.1098
887.00 0.1098
887.10 0.1097
887.20 0.1097
887.30 0.1096
887.40 0.1096
887.50 0.1095
887.60 0.1095
887.70 0.1094
887.80 0.1094
887.90 0.1093
888.00 0.1093
888.10 0.1092
888.20 0.1092
888.30 0.1091
888.40 0.1091
888.50 0.109
888.60 0.109
888.70 0.1089
888.80 0.1089
888.90 0.1088
889.00 0.1088
889.10 0.1088
889.20 0.1087
889.30 0.1087
889.40 0.1086
889.50 0.1086
889.60 0.1085
889.70 0.1085
889.80 0.1084
889.90 0.1084
890.00 0.1083
890.10 0.1083
890.20 0.1082
890.30 0.1082
890.40 0.1081
890.50 0.1081
890.60 0.108
890.70 0.108
890.80 0.1079
890.90 0.1079
891.00 0.1079
891.10 0.1078
891.20 0.1078
891.30 0.1077
891.40 0.1077
891.50 0.1076
891.60 0.1076
891.70 0.1075
891.80 0.1075
891.90 0.1074
892.00 0.1074
892.10 0.1073
892.20 0.1073
892.30 0.1072
892.40 0.1072
892.50 0.1072
892.60 0.1071
892.70 0.1071
892.80 0.107
892.90 0.107
893.00 0.1069
893.10 0.1069
893.20 0.1068
893.30 0.1068
893.40 0.1067
893.50 0.1067
893.60 0.1066
893.70 0.1066
893.80 0.1066
893.90 0.1065
894.00 0.1065
894.10 0.1064
894.20 0.1064
894.30 0.1063
894.40 0.1063
894.50 0.1062
894.60 0.1062
894.70 0.1061
894.80 0.1061
894.90 0.106
895.00 0.106
895.10 0.106
895.20 0.1059
895.30 0.1059
895.40 0.1058
895.50 0.1058
895.60 0.1057
895.70 0.1057
895.80 0.1056
895.90 0.1056
896.00 0.1055
896.10 0.1055
896.20 0.1054
896.30 0.1054
896.40 0.1054
896.50 0.1053
896.60 0.1053
896.70 0.1052
896.80 0.1052
896.90 0.1051
897.00 0.1051
897.10 0.105
897.20 0.105
897.30 0.1049
897.40 0.1049
897.50 0.1049
897.60 0.1048
897.70 0.1048
897.80 0.1047
897.90 0.1047
898.00 0.1046
898.10 0.1046
898.20 0.1045
898.30 0.1045
898.40 0.1045
898.50 0.1044
898.60 0.1044
898.70 0.1043
898.80 0.1043
898.90 0.1042
899.00 0.1042
899.10 0.1041
899.20 0.1041
899.30 0.1041
899.40 0.104
899.50 0.104
899.60 0.1039
899.70 0.1039
899.80 0.1038
899.90 0.1038
900.00 0.1037
900.10 0.1037
900.20 0.1037
900.30 0.1036
900.40 0.1036
900.50 0.1035
900.60 0.1035
900.70 0.1034
900.80 0.1034
900.90 0.1033
901.00 0.1033
901.10 0.1033
901.20 0.1032
901.30 0.1032
901.40 0.1031
901.50 0.1031
901.60 0.103
901.70 0.103
901.80 0.1029
901.90 0.1029
902.00 0.1029
902.10 0.1028
902.20 0.1028
902.30 0.1027
902.40 0.1027
902.50 0.1026
902.60 0.1026
902.70 0.1026
902.80 0.1025
902.90 0.1025
903.00 0.1024
903.10 0.1024
903.20 0.1023
903.30 0.1023
903.40 0.1022
903.50 0.1022
903.60 0.1022
903.70 0.1021
903.80 0.1021
903.90 0.102
904.00 0.102
904.10 0.1019
904.20 0.1019
904.30 0.1019
904.40 0.1018
904.50 0.1018
904.60 0.1017
904.70 0.1017
904.80 0.1016
904.90 0.1016
905.00 0.1015
905.10 0.1015
905.20 0.1015
905.30 0.1014
905.40 0.1014
905.50 0.1013
905.60 0.1013
905.70 0.1012
905.80 0.1012
905.90 0.1012
906.00 0.1011
906.10 0.1011
906.20 0.101
906.30 0.101
906.40 0.1009
906.50 0.1009
906.60 0.1009
906.70 0.1008
906.80 0.1008
906.90 0.1007
907.00 0.1007
907.10 0.1006
907.20 0.1006
907.30 0.1006
907.40 0.1005
907.50 0.1005
907.60 0.1004
907.70 0.1004
907.80 0.1003
907.90 0.1003
908.00 0.1003
908.10 0.1002
908.20 0.1002
908.30 0.1001
908.40 0.1001
908.50 0.1
908.60 0.1
908.70 0.09996
908.80 0.09991
908.90 0.09987
909.00 0.09983
909.10 0.09979
909.20 0.09974
909.30 0.0997
909.40 0.09966
909.50 0.09962
909.60 0.09957
909.70 0.09953
909.80 0.09949
909.90 0.09945
910.00 0.0994
910.10 0.09936
910.20 0.09932
910.30 0.09928
910.40 0.09924
910.50 0.09919
910.60 0.09915
910.70 0.09911
910.80 0.09907
910.90 0.09902
911.00 0.09898
911.10 0.09894
911.20 0.0989
911.30 0.09886
911.40 0.09881
911.50 0.09877
911.60 0.09873
911.70 0.09869
911.80 0.09865
911.90 0.0986
912.00 0.09856
912.10 0.09852
912.20 0.09848
912.30 0.09843
912.40 0.09839
912.50 0.09835
912.60 0.09831
912.70 0.09827
912.80 0.09822
912.90 0.09818
913.00 0.09814
913.10 0.0981
913.20 0.09806
913.30 0.09801
913.40 0.09797
913.50 0.09793
913.60 0.09789
913.70 0.09785
913.80 0.09781
913.90 0.09776
914.00 0.09772
914.10 0.09768
914.20 0.09764
914.30 0.0976
914.40 0.09755
914.50 0.09751
914.60 0.09747
914.70 0.09743
914.80 0.09739
914.90 0.09735
915.00 0.0973
915.10 0.09726
915.20 0.09722
915.30 0.09718
915.40 0.09714
915.50 0.0971
915.60 0.09705
915.70 0.09701
915.80 0.09697
915.90 0.09693
916.00 0.09689
916.10 0.09685
916.20 0.09681
916.30 0.09676
916.40 0.09672
916.50 0.09668
916.60 0.09664
916.70 0.0966
916.80 0.09656
916.90 0.09652
917.00 0.09647
917.10 0.09643
917.20 0.09639
917.30 0.09635
917.40 0.09631
917.50 0.09627
917.60 0.09623
917.70 0.09619
917.80 0.09615
917.90 0.09611
918.00 0.09607
918.10 0.09603
918.20 0.09599
918.30 0.09595
918.40 0.09591
918.50 0.09587
918.60 0.09583
918.70 0.09579
918.80 0.09575
918.90 0.09571
919.00 0.09567
919.10 0.09563
919.20 0.09558
919.30 0.09554
919.40 0.0955
919.50 0.09546
919.60 0.09542
919.70 0.09538
919.80 0.09534
919.90 0.0953
920.00 0.09526
920.10 0.09522
920.20 0.09518
920.30 0.09514
920.40 0.0951
920.50 0.09506
920.60 0.09502
920.70 0.09498
920.80 0.09494
920.90 0.0949
921.00 0.09486
921.10 0.09482
921.20 0.09478
921.30 0.09474
921.40 0.0947
921.50 0.09466
921.60 0.09462
921.70 0.09458
921.80 0.09454
921.90 0.0945
922.00 0.09446
922.10 0.09442
922.20 0.09439
922.30 0.09435
922.40 0.09431
922.50 0.09427
922.60 0.09423
922.70 0.09419
922.80 0.09415
922.90 0.09411
923.00 0.09407
923.10 0.09403
923.20 0.09399
923.30 0.09396
923.40 0.09392
923.50 0.09388
923.60 0.09384
923.70 0.0938
923.80 0.09376
923.90 0.09372
924.00 0.09368
924.10 0.09364
924.20 0.0936
924.30 0.09357
924.40 0.09353
924.50 0.09349
924.60 0.09345
924.70 0.09341
924.80 0.09337
924.90 0.09333
925.00 0.09329
925.10 0.09326
925.20 0.09322
925.30 0.09318
925.40 0.09314
925.50 0.0931
925.60 0.09306
925.70 0.09302
925.80 0.09299
925.90 0.09295
926.00 0.09291
926.10 0.09287
926.20 0.09283
926.30 0.09279
926.40 0.09275
926.50 0.09272
926.60 0.09268
926.70 0.09264
926.80 0.0926
926.90 0.09256
927.00 0.09252
927.10 0.09249
927.20 0.09245
927.30 0.09241
927.40 0.09237
927.50 0.09233
927.60 0.0923
927.70 0.09226
927.80 0.09222
927.90 0.09218
928.00 0.09215
928.10 0.09211
928.20 0.09207
928.30 0.09203
928.40 0.092
928.50 0.09196
928.60 0.09192
928.70 0.09189
928.80 0.09185
928.90 0.09181
929.00 0.09177
929.10 0.09174
929.20 0.0917
929.30 0.09166
929.40 0.09162
929.50 0.09159
929.60 0.09155
929.70 0.09151
929.80 0.09147
929.90 0.09144
930.00 0.0914
930.10 0.09136
930.20 0.09133
930.30 0.09129
930.40 0.09125
930.50 0.09121
930.60 0.09118
930.70 0.09114
930.80 0.0911
930.90 0.09107
931.00 0.09103
931.10 0.09099
931.20 0.09096
931.30 0.09092
931.40 0.09088
931.50 0.09084
931.60 0.09081
931.70 0.09077
931.80 0.09073
931.90 0.0907
932.00 0.09066
932.10 0.09062
932.20 0.09058
932.30 0.09055
932.40 0.09051
932.50 0.09047
932.60 0.09044
932.70 0.0904
932.80 0.09036
932.90 0.09033
933.00 0.09029
933.10 0.09025
933.20 0.09021
933.30 0.09018
933.40 0.09014
933.50 0.0901
933.60 0.09007
933.70 0.09003
933.80 0.08999
933.90 0.08996
934.00 0.08992
934.10 0.08988
934.20 0.08984
934.30 0.08981
934.40 0.08977
934.50 0.08973
934.60 0.0897
934.70 0.08966
934.80 0.08962
934.90 0.08958
935.00 0.08955
935.10 0.08951
935.20 0.08947
935.30 0.08944
935.40 0.0894
935.50 0.08936
935.60 0.08933
935.70 0.08929
935.80 0.08925
935.90 0.08921
936.00 0.08918
936.10 0.08914
936.20 0.0891
936.30 0.08907
936.40 0.08903
936.50 0.08899
936.60 0.08896
936.70 0.08892
936.80 0.08888
936.90 0.08884
937.00 0.08881
937.10 0.08877
937.20 0.08873
937.30 0.0887
937.40 0.08866
937.50 0.08862
937.60 0.08859
937.70 0.08855
937.80 0.08851
937.90 0.08847
938.00 0.08844
938.10 0.0884
938.20 0.08836
938.30 0.08833
938.40 0.08829
938.50 0.08825
938.60 0.08821
938.70 0.08818
938.80 0.08814
938.90 0.0881
939.00 0.08807
939.10 0.08803
939.20 0.08799
939.30 0.08795
939.40 0.08792
939.50 0.08788
939.60 0.08784
939.70 0.08781
939.80 0.08777
939.90 0.08773
940.00 0.08769
940.10 0.08766
940.20 0.08762
940.30 0.08758
940.40 0.08755
940.50 0.08751
940.60 0.08747
940.70 0.08743
940.80 0.0874
940.90 0.08736
941.00 0.08732
941.10 0.08729
941.20 0.08725
941.30 0.08721
941.40 0.08717
941.50 0.08714
941.60 0.0871
941.70 0.08706
941.80 0.08703
941.90 0.08699
942.00 0.08695
942.10 0.08691
942.20 0.08688
942.30 0.08684
942.40 0.0868
942.50 0.08677
942.60 0.08673
942.70 0.08669
942.80 0.08665
942.90 0.08662
943.00 0.08658
943.10 0.08654
943.20 0.0865
943.30 0.08647
943.40 0.08643
943.50 0.08639
943.60 0.08635
943.70 0.08632
943.80 0.08628
943.90 0.08624
944.00 0.08621
944.10 0.08617
944.20 0.08613
944.30 0.08609
944.40 0.08606
944.50 0.08602
944.60 0.08598
944.70 0.08595
944.80 0.08591
944.90 0.08587
945.00 0.08583
945.10 0.0858
945.20 0.08576
945.30 0.08572
945.40 0.08568
945.50 0.08565
945.60 0.08561
945.70 0.08557
945.80 0.08553
945.90 0.0855
946.00 0.08546
946.10 0.08542
946.20 0.08539
946.30 0.08535
946.40 0.08531
946.50 0.08527
946.60 0.08524
946.70 0.0852
946.80 0.08516
946.90 0.08512
947.00 0.08509
947.10 0.08505
947.20 0.08501
947.30 0.08498
947.40 0.08494
947.50 0.0849
947.60 0.08486
947.70 0.08483
947.80 0.08479
947.90 0.08475
948.00 0.08471
948.10 0.08468
948.20 0.08464
948.30 0.0846
948.40 0.08457
948.50 0.08453
948.60 0.08449
948.70 0.08445
948.80 0.08442
948.90 0.08438
949.00 0.08434
949.10 0.08431
949.20 0.08427
949.30 0.08423
949.40 0.0842
949.50 0.08416
949.60 0.08412
949.70 0.08409
949.80 0.08405
949.90 0.08401
950.00 0.08398
950.10 0.08394
950.20 0.0839
950.30 0.08387
950.40 0.08383
950.50 0.08379
950.60 0.08376
950.70 0.08372
950.80 0.08368
950.90 0.08365
951.00 0.08361
951.10 0.08357
951.20 0.08354
951.30 0.0835
951.40 0.08346
951.50 0.08343
951.60 0.08339
951.70 0.08336
951.80 0.08332
951.90 0.08328
952.00 0.08325
952.10 0.08321
952.20 0.08318
952.30 0.08314
952.40 0.08311
952.50 0.08307
952.60 0.08304
952.70 0.083
952.80 0.08297
952.90 0.08293
953.00 0.0829
953.10 0.08287
953.20 0.08283
953.30 0.0828
953.40 0.08276
953.50 0.08273
953.60 0.0827
953.70 0.08267
953.80 0.08263
953.90 0.0826
954.00 0.08257
954.10 0.08254
954.20 0.0825
954.30 0.08247
954.40 0.08244
954.50 0.08241
954.60 0.08238
954.70 0.08235
954.80 0.08231
954.90 0.08228
955.00 0.08224
955.10 0.0822
955.20 0.08217
955.30 0.08214
955.40 0.0821
955.50 0.08207
955.60 0.08204
955.70 0.082
955.80 0.08197
955.90 0.08194
956.00 0.08191
956.10 0.08187
956.20 0.08184
956.30 0.08181
956.40 0.08178
956.50 0.08175
956.60 0.08172
956.70 0.08168
956.80 0.08165
956.90 0.08162
957.00 0.08159
957.10 0.08156
957.20 0.08153
957.30 0.0815
957.40 0.08147
957.50 0.08144
957.60 0.08141
957.70 0.08138
957.80 0.08135
957.90 0.08132
958.00 0.08129
958.10 0.08126
958.20 0.08123
958.30 0.0812
958.40 0.08117
958.50 0.08114
958.60 0.08111
958.70 0.08108
958.80 0.08105
958.90 0.08102
959.00 0.08099
959.10 0.08096
959.20 0.08093
959.30 0.0809
959.40 0.08087
959.50 0.08084
959.60 0.08081
959.70 0.08078
959.80 0.08075
959.90 0.08072
960.00 0.08069
960.10 0.08066
960.20 0.08063
960.30 0.0806
960.40 0.08057
960.50 0.08054
960.60 0.08051
960.70 0.08048
960.80 0.08045
960.90 0.08042
961.00 0.08039
961.10 0.08037
961.20 0.08034
961.30 0.08031
961.40 0.08028
961.50 0.08025
961.60 0.08022
961.70 0.08019
961.80 0.08016
961.90 0.08013
962.00 0.0801
962.10 0.08007
962.20 0.08004
962.30 0.08001
962.40 0.07998
962.50 0.07995
962.60 0.07992
962.70 0.07989
962.80 0.07987
962.90 0.07984
963.00 0.07981
963.10 0.07978
963.20 0.07975
963.30 0.07972
963.40 0.07969
963.50 0.07966
963.60 0.07963
963.70 0.0796
963.80 0.07957
963.90 0.07954
964.00 0.07951
964.10 0.07948
964.20 0.07945
964.30 0.07942
964.40 0.07939
964.50 0.07937
964.60 0.07934
964.70 0.07931
964.80 0.07928
964.90 0.07925
965.00 0.07922
965.10 0.07919
965.20 0.07916
965.30 0.07913
965.40 0.0791
965.50 0.07907
965.60 0.07904
965.70 0.07901
965.80 0.07898
965.90 0.07895
966.00 0.07892
966.10 0.07889
966.20 0.07886
966.30 0.07883
966.40 0.0788
966.50 0.07878
966.60 0.07875
966.70 0.07872
966.80 0.07869
966.90 0.07866
967.00 0.07863
967.10 0.0786
967.20 0.07857
967.30 0.07854
967.40 0.07851
967.50 0.07848
967.60 0.07845
967.70 0.07842
967.80 0.07839
967.90 0.07836
968.00 0.07833
968.10 0.0783
968.20 0.07827
968.30 0.07824
968.40 0.07821
968.50 0.07818
968.60 0.07815
968.70 0.07812
968.80 0.07809
968.90 0.07806
969.00 0.07803
969.10 0.078
969.20 0.07797
969.30 0.07794
969.40 0.07791
969.50 0.07788
969.60 0.07785
969.70 0.07782
969.80 0.07779
969.90 0.07777
970.00 0.07774
970.10 0.07771
970.20 0.07768
970.30 0.07765
970.40 0.07762
970.50 0.07759
970.60 0.07756
970.70 0.07753
970.80 0.0775
970.90 0.07747
971.00 0.07744
971.10 0.07741
971.20 0.07738
971.30 0.07735
971.40 0.07732
971.50 0.07729
971.60 0.07726
971.70 0.07723
971.80 0.0772
971.90 0.07717
972.00 0.07714
972.10 0.07711
972.20 0.07708
972.30 0.07705
972.40 0.07702
972.50 0.07699
972.60 0.07696
972.70 0.07693
972.80 0.0769
972.90 0.07687
973.00 0.07684
973.10 0.07681
973.20 0.07678
973.30 0.07675
973.40 0.07672
973.50 0.07669
973.60 0.07666
973.70 0.07663
973.80 0.0766
973.90 0.07657
974.00 0.07654
974.10 0.07651
974.20 0.07648
974.30 0.07645
974.40 0.07642
974.50 0.07639
974.60 0.07636
974.70 0.07633
974.80 0.0763
974.90 0.07627
975.00 0.07624
975.10 0.07621
975.20 0.07618
975.30 0.07615
975.40 0.07612
975.50 0.07609
975.60 0.07606
975.70 0.07603
975.80 0.076
975.90 0.07597
976.00 0.07594
976.10 0.07591
976.20 0.07588
976.30 0.07585
976.40 0.07582
976.50 0.07579
976.60 0.07576
976.70 0.07573
976.80 0.0757
976.90 0.07567
977.00 0.07564
977.10 0.07561
977.20 0.07558
977.30 0.07555
977.40 0.07552
977.50 0.07549
977.60 0.07546
977.70 0.07543
977.80 0.0754
977.90 0.07537
978.00 0.07534
978.10 0.07531
978.20 0.07528
978.30 0.07525
978.40 0.07522
978.50 0.07519
978.60 0.07516
978.70 0.07513
978.80 0.0751
978.90 0.07507
979.00 0.07504
979.10 0.07501
979.20 0.07498
979.30 0.07495
979.40 0.07492
979.50 0.07489
979.60 0.07486
979.70 0.07483
979.80 0.0748
979.90 0.07477
980.00 0.07474
980.10 0.07471
980.20 0.07468
980.30 0.07465
980.40 0.07462
980.50 0.07459
980.60 0.07456
980.70 0.07453
980.80 0.0745
980.90 0.07447
981.00 0.07444
981.10 0.07441
981.20 0.07438
981.30 0.07435
981.40 0.07432
981.50 0.07429
981.60 0.07426
981.70 0.07423
981.80 0.0742
981.90 0.07417
982.00 0.07414
982.10 0.07411
982.20 0.07408
982.30 0.07405
982.40 0.07402
982.50 0.07399
982.60 0.07396
982.70 0.07393
982.80 0.0739
982.90 0.07387
983.00 0.07384
983.10 0.07381
983.20 0.07377
983.30 0.07374
983.40 0.07371
983.50 0.07368
983.60 0.07365
983.70 0.07362
983.80 0.07359
983.90 0.07356
984.00 0.07353
984.10 0.0735
984.20 0.07347
984.30 0.07344
984.40 0.07341
984.50 0.07338
984.60 0.07335
984.70 0.07332
984.80 0.07329
984.90 0.07326
985.00 0.07323
985.10 0.0732
985.20 0.07317
985.30 0.07314
985.40 0.07311
985.50 0.07308
985.60 0.07305
985.70 0.07302
985.80 0.07299
985.90 0.07296
986.00 0.07293
986.10 0.0729
986.20 0.07287
986.30 0.07284
986.40 0.0728
986.50 0.07277
986.60 0.07274
986.70 0.07271
986.80 0.07268
986.90 0.07265
987.00 0.07262
987.10 0.07259
987.20 0.07256
987.30 0.07253
987.40 0.0725
987.50 0.07247
987.60 0.07244
987.70 0.07241
987.80 0.07238
987.90 0.07235
988.00 0.07232
988.10 0.07228
988.20 0.07225
988.30 0.07222
988.40 0.07219
988.50 0.07216
988.60 0.07213
988.70 0.0721
988.80 0.07207
988.90 0.07204
989.00 0.07201
989.10 0.07198
989.20 0.07195
989.30 0.07191
989.40 0.07188
989.50 0.07185
989.60 0.07182
989.70 0.07179
989.80 0.07176
989.90 0.07173
990.00 0.0717
990.10 0.07167
990.20 0.07164
990.30 0.0716
990.40 0.07157
990.50 0.07154
990.60 0.07151
990.70 0.07148
990.80 0.07145
990.90 0.07142
991.00 0.07139
991.10 0.07136
991.20 0.07132
991.30 0.07129
991.40 0.07126
991.50 0.07123
991.60 0.0712
991.70 0.07117
991.80 0.07114
991.90 0.0711
992.00 0.07107
992.10 0.07104
992.20 0.07101
992.30 0.07098
992.40 0.07095
992.50 0.07092
992.60 0.07088
992.70 0.07085
992.80 0.07082
992.90 0.07079
993.00 0.07076
993.10 0.07072
993.20 0.07069
993.30 0.07066
993.40 0.07063
993.50 0.0706
993.60 0.07056
993.70 0.07053
993.80 0.0705
993.90 0.07047
994.00 0.07044
994.10 0.0704
994.20 0.07037
994.30 0.07034
994.40 0.07031
994.50 0.07028
994.60 0.07024
994.70 0.07021
994.80 0.07018
994.90 0.07015
995.00 0.07011
995.10 0.07008
995.20 0.07005
995.30 0.07002
995.40 0.06998
995.50 0.06995
995.60 0.06992
995.70 0.06989
995.80 0.06985
995.90 0.06982
996.00 0.06979
996.10 0.06975
996.20 0.06972
996.30 0.06969
996.40 0.06966
996.50 0.06962
996.60 0.06959
996.70 0.06956
996.80 0.06952
996.90 0.06949
997.00 0.06946
997.10 0.06942
997.20 0.06939
997.30 0.06936
997.40 0.06932
997.50 0.06929
997.60 0.06926
997.70 0.06922
997.80 0.06919
997.90 0.06916
998.00 0.06912
998.10 0.06909
998.20 0.06906
998.30 0.06902
998.40 0.06899
998.50 0.06896
998.60 0.06892
998.70 0.06889
998.80 0.06886
998.90 0.06882
999.00 0.06879
999.10 0.06875
999.20 0.06872
999.30 0.06869
999.40 0.06865
999.50 0.06862
999.60 0.06859
999.70 0.06855
999.80 0.06852
999.90 0.06848
1000.00 0.06845
1000.10 0.06841
1000.20 0.06838
1000.30 0.06835
1000.40 0.06831
1000.50 0.06828
1000.60 0.06824
1000.70 0.06821
1000.80 0.06817
1000.90 0.06814
1001.00 0.0681
1001.10 0.06807
1001.20 0.06804
1001.30 0.068
1001.40 0.06797
1001.50 0.06793
1001.60 0.0679
1001.70 0.06786
1001.80 0.06783
1001.90 0.0678
1002.00 0.06777
1002.10 0.06774
1002.20 0.06771
1002.30 0.06768
1002.40 0.06765
1002.50 0.06762
1002.60 0.06759
1002.70 0.06756
1002.80 0.06753
1002.90 0.0675
1003.00 0.06747
1003.10 0.06744
1003.20 0.06741
1003.30 0.06739
1003.40 0.06736
1003.50 0.06734
1003.60 0.06731
1003.70 0.06729
1003.80 0.06727
1003.90 0.06725
1004.00 0.06723
1004.10 0.06721
1004.20 0.06719
1004.30 0.06717
1004.40 0.06716
1004.50 0.06715
1004.60 0.06713
1004.70 0.06712
1004.80 0.0671
1004.90 0.06707
1005.00 0.06705
1005.10 0.06702
1005.20 0.06698
1005.30 0.06695
1005.40 0.06691
1005.50 0.06688
1005.60 0.06684
1005.70 0.06681
1005.80 0.06678
1005.90 0.06674
1006.00 0.06671
1006.10 0.06668
1006.20 0.06665
1006.30 0.06662
1006.40 0.0666
1006.50 0.06657
1006.60 0.06655
1006.70 0.06652
1006.80 0.0665
1006.90 0.06647
1007.00 0.06645
1007.10 0.06642
1007.20 0.0664
1007.30 0.06638
1007.40 0.06636
1007.50 0.06634
1007.60 0.06632
1007.70 0.0663
1007.80 0.06628
1007.90 0.06626
1008.00 0.06624
1008.10 0.06622
1008.20 0.0662
1008.30 0.06618
1008.40 0.06617
1008.50 0.06615
1008.60 0.06613
1008.70 0.06611
1008.80 0.06609
1008.90 0.06607
1009.00 0.06605
1009.10 0.06603
1009.20 0.06601
1009.30 0.066
1009.40 0.06598
1009.50 0.06596
1009.60 0.06594
1009.70 0.06592
1009.80 0.0659
1009.90 0.06588
1010.00 0.06587
1010.10 0.06585
1010.20 0.06583
1010.30 0.06581
1010.40 0.06579
1010.50 0.06577
1010.60 0.06575
1010.70 0.06574
1010.80 0.06572
1010.90 0.0657
1011.00 0.06568
1011.10 0.06566
1011.20 0.06564
1011.30 0.06563
1011.40 0.06561
1011.50 0.06559
1011.60 0.06557
1011.70 0.06555
1011.80 0.06553
1011.90 0.06551
1012.00 0.0655
1012.10 0.06548
1012.20 0.06546
1012.30 0.06544
1012.40 0.06542
1012.50 0.0654
1012.60 0.06538
1012.70 0.06536
1012.80 0.06534
1012.90 0.06532
1013.00 0.0653
1013.10 0.06528
1013.20 0.06527
1013.30 0.06525
1013.40 0.06523
1013.50 0.06521
1013.60 0.06519
1013.70 0.06517
1013.80 0.06515
1013.90 0.06513
1014.00 0.06511
1014.10 0.06509
1014.20 0.06507
1014.30 0.06505
1014.40 0.06503
1014.50 0.06501
1014.60 0.06499
1014.70 0.06497
1014.80 0.06495
1014.90 0.06493
1015.00 0.06491
1015.10 0.06489
1015.20 0.06487
1015.30 0.06485
1015.40 0.06483
1015.50 0.06481
1015.60 0.06479
1015.70 0.06477
1015.80 0.06475
1015.90 0.06472
1016.00 0.0647
1016.10 0.06468
1016.20 0.06466
1016.30 0.06464
1016.40 0.06462
1016.50 0.0646
1016.60 0.06458
1016.70 0.06456
1016.80 0.06454
1016.90 0.06452
1017.00 0.0645
1017.10 0.06448
1017.20 0.06446
1017.30 0.06444
1017.40 0.06441
1017.50 0.06439
1017.60 0.06437
1017.70 0.06435
1017.80 0.06433
1017.90 0.06431
1018.00 0.06429
1018.10 0.06427
1018.20 0.06424
1018.30 0.06422
1018.40 0.0642
1018.50 0.06418
1018.60 0.06416
1018.70 0.06414
1018.80 0.06412
1018.90 0.0641
1019.00 0.06407
1019.10 0.06405
1019.20 0.06403
1019.30 0.06401
1019.40 0.06399
1019.50 0.06397
1019.60 0.06394
1019.70 0.06392
1019.80 0.0639
1019.90 0.06388
1020.00 0.06386
1020.10 0.06384
1020.20 0.06381
1020.30 0.06379
1020.40 0.06377
1020.50 0.06375
1020.60 0.06373
1020.70 0.06371
1020.80 0.06368
1020.90 0.06366
1021.00 0.06364
1021.10 0.06362
1021.20 0.0636
1021.30 0.06357
1021.40 0.06355
1021.50 0.06353
1021.60 0.06351
1021.70 0.06349
1021.80 0.06346
1021.90 0.06344
1022.00 0.06342
1022.10 0.0634
1022.20 0.06338
1022.30 0.06335
1022.40 0.06333
1022.50 0.06331
1022.60 0.06329
1022.70 0.06326
1022.80 0.06324
1022.90 0.06322
1023.00 0.0632
1023.10 0.06317
1023.20 0.06315
1023.30 0.06313
1023.40 0.06311
1023.50 0.06309
1023.60 0.06306
1023.70 0.06304
1023.80 0.06302
1023.90 0.063
1024.00 0.06297
1024.10 0.06295
1024.20 0.06293
1024.30 0.06291
1024.40 0.06289
1024.50 0.06286
1024.60 0.06284
1024.70 0.06282
1024.80 0.0628
1024.90 0.06277
1025.00 0.06275
1025.10 0.06273
1025.20 0.06271
1025.30 0.06268
1025.40 0.06266
1025.50 0.06264
1025.60 0.06262
1025.70 0.06259
1025.80 0.06257
1025.90 0.06255
1026.00 0.06253
1026.10 0.0625
1026.20 0.06248
1026.30 0.06246
1026.40 0.06244
1026.50 0.06242
1026.60 0.06239
1026.70 0.06237
1026.80 0.06235
1026.90 0.06233
1027.00 0.0623
1027.10 0.06228
1027.20 0.06226
1027.30 0.06224
1027.40 0.06221
1027.50 0.06219
1027.60 0.06217
1027.70 0.06214
1027.80 0.06212
1027.90 0.0621
1028.00 0.06208
1028.10 0.06205
1028.20 0.06203
1028.30 0.06201
1028.40 0.06199
1028.50 0.06196
1028.60 0.06194
1028.70 0.06192
1028.80 0.0619
1028.90 0.06187
1029.00 0.06185
1029.10 0.06183
1029.20 0.06181
1029.30 0.06178
1029.40 0.06176
1029.50 0.06174
1029.60 0.06172
1029.70 0.06169
1029.80 0.06167
1029.90 0.06165
1030.00 0.06163
1030.10 0.0616
1030.20 0.06158
1030.30 0.06156
1030.40 0.06154
1030.50 0.06151
1030.60 0.06149
1030.70 0.06147
1030.80 0.06145
1030.90 0.06142
1031.00 0.0614
1031.10 0.06138
1031.20 0.06136
1031.30 0.06133
1031.40 0.06131
1031.50 0.06129
1031.60 0.06127
1031.70 0.06124
1031.80 0.06122
1031.90 0.0612
1032.00 0.06118
1032.10 0.06115
1032.20 0.06113
1032.30 0.06111
1032.40 0.06109
1032.50 0.06106
1032.60 0.06104
1032.70 0.06102
1032.80 0.061
1032.90 0.06097
1033.00 0.06095
1033.10 0.06093
1033.20 0.06091
1033.30 0.06088
1033.40 0.06086
1033.50 0.06084
1033.60 0.06082
1033.70 0.06079
1033.80 0.06077
1033.90 0.06075
1034.00 0.06073
1034.10 0.06071
1034.20 0.06068
1034.30 0.06066
1034.40 0.06064
1034.50 0.06062
1034.60 0.06059
1034.70 0.06057
1034.80 0.06055
1034.90 0.06053
1035.00 0.0605
1035.10 0.06048
1035.20 0.06046
1035.30 0.06044
1035.40 0.06041
1035.50 0.06039
1035.60 0.06037
1035.70 0.06035
1035.80 0.06033
1035.90 0.0603
1036.00 0.06028
1036.10 0.06026
1036.20 0.06024
1036.30 0.06021
1036.40 0.06019
1036.50 0.06017
1036.60 0.06015
1036.70 0.06012
1036.80 0.0601
1036.90 0.06008
1037.00 0.06006
1037.10 0.06004
1037.20 0.06001
1037.30 0.05999
1037.40 0.05997
1037.50 0.05995
1037.60 0.05992
1037.70 0.0599
1037.80 0.05988
1037.90 0.05986
1038.00 0.05984
1038.10 0.05981
1038.20 0.05979
1038.30 0.05977
1038.40 0.05975
1038.50 0.05972
1038.60 0.0597
1038.70 0.05968
1038.80 0.05966
1038.90 0.05964
1039.00 0.05961
1039.10 0.05959
1039.20 0.05957
1039.30 0.05955
1039.40 0.05953
1039.50 0.0595
1039.60 0.05948
1039.70 0.05946
1039.80 0.05944
1039.90 0.05942
1040.00 0.05939
1040.10 0.05937
1040.20 0.05935
1040.30 0.05933
1040.40 0.05931
1040.50 0.05928
1040.60 0.05926
1040.70 0.05924
1040.80 0.05922
1040.90 0.05919
1041.00 0.05917
1041.10 0.05915
1041.20 0.05913
1041.30 0.05911
1041.40 0.05909
1041.50 0.05906
1041.60 0.05904
1041.70 0.05902
1041.80 0.059
1041.90 0.05898
1042.00 0.05895
1042.10 0.05893
1042.20 0.05891
1042.30 0.05889
1042.40 0.05887
1042.50 0.05884
1042.60 0.05882
1042.70 0.0588
1042.80 0.05878
1042.90 0.05876
1043.00 0.05873
1043.10 0.05871
1043.20 0.05869
1043.30 0.05867
1043.40 0.05865
1043.50 0.05863
1043.60 0.0586
1043.70 0.05858
1043.80 0.05856
1043.90 0.05854
1044.00 0.05852
1044.10 0.05849
1044.20 0.05847
1044.30 0.05845
1044.40 0.05843
1044.50 0.05841
1044.60 0.05839
1044.70 0.05836
1044.80 0.05834
1044.90 0.05832
1045.00 0.0583
1045.10 0.05828
1045.20 0.05826
1045.30 0.05823
1045.40 0.05821
1045.50 0.05819
1045.60 0.05817
1045.70 0.05815
1045.80 0.05813
1045.90 0.0581
1046.00 0.05808
1046.10 0.05806
1046.20 0.05804
1046.30 0.05802
1046.40 0.058
1046.50 0.05797
1046.60 0.05795
1046.70 0.05793
1046.80 0.05791
1046.90 0.05789
1047.00 0.05787
1047.10 0.05785
1047.20 0.05782
1047.30 0.0578
1047.40 0.05778
1047.50 0.05776
1047.60 0.05774
1047.70 0.05772
1047.80 0.0577
1047.90 0.05767
1048.00 0.05765
1048.10 0.05763
1048.20 0.05761
1048.30 0.05759
1048.40 0.05757
1048.50 0.05754
1048.60 0.05752
1048.70 0.0575
1048.80 0.05748
1048.90 0.05746
1049.00 0.05744
1049.10 0.05742
1049.20 0.0574
1049.30 0.05737
1049.40 0.05735
1049.50 0.05733
1049.60 0.05731
1049.70 0.05729
1049.80 0.05727
1049.90 0.05725
1050.00 0.05722
1050.10 0.0572
1050.20 0.05718
1050.30 0.05716
1050.40 0.05714
1050.50 0.05712
1050.60 0.0571
1050.70 0.05708
1050.80 0.05705
1050.90 0.05703
1051.00 0.05701
1051.10 0.05699
1051.20 0.05697
1051.30 0.05695
1051.40 0.05693
1051.50 0.05691
1051.60 0.05688
1051.70 0.05686
1051.80 0.05684
1051.90 0.05682
1052.00 0.0568
1052.10 0.05678
1052.20 0.05676
1052.30 0.05674
1052.40 0.05671
1052.50 0.05669
1052.60 0.05667
1052.70 0.05665
1052.80 0.05663
1052.90 0.05661
1053.00 0.05659
1053.10 0.05657
1053.20 0.05655
1053.30 0.05652
1053.40 0.0565
1053.50 0.05648
1053.60 0.05646
1053.70 0.05644
1053.80 0.05642
1053.90 0.0564
1054.00 0.05638
1054.10 0.05636
1054.20 0.05634
1054.30 0.05631
1054.40 0.05629
1054.50 0.05627
1054.60 0.05625
1054.70 0.05623
1054.80 0.05621
1054.90 0.05619
1055.00 0.05617
1055.10 0.05615
1055.20 0.05613
1055.30 0.0561
1055.40 0.05608
1055.50 0.05606
1055.60 0.05604
1055.70 0.05602
1055.80 0.056
1055.90 0.05598
1056.00 0.05596
1056.10 0.05594
1056.20 0.05592
1056.30 0.0559
1056.40 0.05587
1056.50 0.05585
1056.60 0.05583
1056.70 0.05581
1056.80 0.05579
1056.90 0.05577
1057.00 0.05575
1057.10 0.05573
1057.20 0.05571
1057.30 0.05569
1057.40 0.05567
1057.50 0.05565
1057.60 0.05562
1057.70 0.0556
1057.80 0.05558
1057.90 0.05556
1058.00 0.05554
1058.10 0.05552
1058.20 0.0555
1058.30 0.05548
1058.40 0.05546
1058.50 0.05544
1058.60 0.05542
1058.70 0.0554
1058.80 0.05538
1058.90 0.05535
1059.00 0.05533
1059.10 0.05531
1059.20 0.05529
1059.30 0.05527
1059.40 0.05525
1059.50 0.05523
1059.60 0.05521
1059.70 0.05519
1059.80 0.05517
1059.90 0.05515
1060.00 0.05513
1060.10 0.05511
1060.20 0.05509
1060.30 0.05507
1060.40 0.05505
1060.50 0.05502
1060.60 0.055
1060.70 0.05498
1060.80 0.05496
1060.90 0.05494
1061.00 0.05492
1061.10 0.0549
1061.20 0.05488
1061.30 0.05486
1061.40 0.05484
1061.50 0.05482
1061.60 0.0548
1061.70 0.05478
1061.80 0.05476
1061.90 0.05474
1062.00 0.05472
1062.10 0.0547
1062.20 0.05467
1062.30 0.05465
1062.40 0.05463
1062.50 0.05461
1062.60 0.05459
1062.70 0.05457
1062.80 0.05455
1062.90 0.05453
1063.00 0.05451
1063.10 0.05449
1063.20 0.05447
1063.30 0.05445
1063.40 0.05443
1063.50 0.05441
1063.60 0.05439
1063.70 0.05437
1063.80 0.05435
1063.90 0.05433
1064.00 0.0543
1064.10 0.05428
1064.20 0.05426
1064.30 0.05424
1064.40 0.05422
1064.50 0.0542
1064.60 0.05418
1064.70 0.05416
1064.80 0.05414
1064.90 0.05412
1065.00 0.0541
1065.10 0.05408
1065.20 0.05406
1065.30 0.05404
1065.40 0.05402
1065.50 0.054
1065.60 0.05398
1065.70 0.05396
1065.80 0.05394
1065.90 0.05392
1066.00 0.0539
1066.10 0.05388
1066.20 0.05386
1066.30 0.05384
1066.40 0.05382
1066.50 0.05379
1066.60 0.05377
1066.70 0.05375
1066.80 0.05373
1066.90 0.05371
1067.00 0.05369
1067.10 0.05367
1067.20 0.05365
1067.30 0.05363
1067.40 0.05361
1067.50 0.05359
1067.60 0.05357
1067.70 0.05355
1067.80 0.05353
1067.90 0.05351
1068.00 0.05349
1068.10 0.05347
1068.20 0.05345
1068.30 0.05343
1068.40 0.05341
1068.50 0.05338
1068.60 0.05336
1068.70 0.05334
1068.80 0.05332
1068.90 0.0533
1069.00 0.05328
1069.10 0.05326
1069.20 0.05324
1069.30 0.05322
1069.40 0.0532
1069.50 0.05318
1069.60 0.05316
1069.70 0.05314
1069.80 0.05312
1069.90 0.0531
1070.00 0.05308
1070.10 0.05306
1070.20 0.05304
1070.30 0.05302
1070.40 0.053
1070.50 0.05298
1070.60 0.05296
1070.70 0.05293
1070.80 0.05291
1070.90 0.05289
1071.00 0.05287
1071.10 0.05285
1071.20 0.05283
1071.30 0.05281
1071.40 0.05279
1071.50 0.05277
1071.60 0.05275
1071.70 0.05273
1071.80 0.05271
1071.90 0.05269
1072.00 0.05267
1072.10 0.05265
1072.20 0.05263
1072.30 0.05261
1072.40 0.05259
1072.50 0.05257
1072.60 0.05255
1072.70 0.05253
1072.80 0.05251
1072.90 0.05248
1073.00 0.05246
1073.10 0.05244
1073.20 0.05242
1073.30 0.0524
1073.40 0.05238
1073.50 0.05236
1073.60 0.05234
1073.70 0.05232
1073.80 0.0523
1073.90 0.05228
1074.00 0.05226
1074.10 0.05223
1074.20 0.05221
1074.30 0.05219
1074.40 0.05217
1074.50 0.05215
1074.60 0.05213
1074.70 0.05211
1074.80 0.05209
1074.90 0.05207
1075.00 0.05205
1075.10 0.05202
1075.20 0.052
1075.30 0.05198
1075.40 0.05196
1075.50 0.05194
1075.60 0.05192
1075.70 0.0519
1075.80 0.05188
1075.90 0.05186
1076.00 0.05184
1076.10 0.05182
1076.20 0.05179
1076.30 0.05177
1076.40 0.05175
1076.50 0.05173
1076.60 0.05171
1076.70 0.05169
1076.80 0.05167
1076.90 0.05165
1077.00 0.05163
1077.10 0.05161
1077.20 0.05159
1077.30 0.05156
1077.40 0.05154
1077.50 0.05152
1077.60 0.0515
1077.70 0.05148
1077.80 0.05146
1077.90 0.05143
1078.00 0.05141
1078.10 0.05139
1078.20 0.05137
1078.30 0.05135
1078.40 0.05133
1078.50 0.0513
1078.60 0.05128
1078.70 0.05126
1078.80 0.05124
1078.90 0.05122
1079.00 0.0512
1079.10 0.05117
1079.20 0.05115
1079.30 0.05113
1079.40 0.05111
1079.50 0.05109
1079.60 0.05106
1079.70 0.05104
1079.80 0.05102
1079.90 0.051
1080.00 0.05097
1080.10 0.05095
1080.20 0.05093
1080.30 0.05091
1080.40 0.05088
1080.50 0.05086
1080.60 0.05084
1080.70 0.05082
1080.80 0.0508
1080.90 0.05077
1081.00 0.05075
1081.10 0.05073
1081.20 0.05071
1081.30 0.05068
1081.40 0.05066
1081.50 0.05064
1081.60 0.05062
1081.70 0.05059
1081.80 0.05057
1081.90 0.05055
1082.00 0.05052
1082.10 0.0505
1082.20 0.05048
1082.30 0.05045
1082.40 0.05043
1082.50 0.05041
1082.60 0.05038
1082.70 0.05036
1082.80 0.05034
1082.90 0.05031
1083.00 0.05029
1083.10 0.05026
1083.20 0.05024
1083.30 0.05022
1083.40 0.05019
1083.50 0.05017
1083.60 0.05015
1083.70 0.05012
1083.80 0.0501
1083.90 0.05007
1084.00 0.05005
1084.10 0.05002
1084.20 0.05
1084.30 0.04998
1084.40 0.04995
1084.50 0.04993
1084.60 0.0499
1084.70 0.04988
1084.80 0.04985
1084.90 0.04983
1085.00 0.0498
1085.10 0.04978
1085.20 0.04975
1085.30 0.04972
1085.40 0.0497
1085.50 0.04967
1085.60 0.04965
1085.70 0.04962
1085.80 0.0496
1085.90 0.04957
1086.00 0.04955
1086.10 0.04952
1086.20 0.0495
1086.30 0.04947
1086.40 0.04945
1086.50 0.04942
1086.60 0.0494
1086.70 0.04937
1086.80 0.04934
1086.90 0.04932
1087.00 0.04929
1087.10 0.04926
1087.20 0.04924
1087.30 0.04921
1087.40 0.04918
1087.50 0.04916
1087.60 0.04913
1087.70 0.0491
1087.80 0.04908
1087.90 0.04905
1088.00 0.04903
1088.10 0.049
1088.20 0.04897
1088.30 0.04895
1088.40 0.04892
1088.50 0.04889
1088.60 0.04887
1088.70 0.04884
1088.80 0.04881
1088.90 0.04879
1089.00 0.04876
1089.10 0.04873
1089.20 0.04871
1089.30 0.04868
1089.40 0.04865
1089.50 0.04863
1089.60 0.0486
1089.70 0.04857
1089.80 0.04855
1089.90 0.04852
1090.00 0.04849
1090.10 0.04847
1090.20 0.04844
1090.30 0.04841
1090.40 0.04839
1090.50 0.04836
1090.60 0.04834
1090.70 0.04831
1090.80 0.04829
1090.90 0.04826
1091.00 0.04824
1091.10 0.04821
1091.20 0.04819
1091.30 0.04817
1091.40 0.04814
1091.50 0.04812
1091.60 0.04809
1091.70 0.04807
1091.80 0.04804
1091.90 0.04802
1092.00 0.04799
1092.10 0.04797
1092.20 0.04795
1092.30 0.04793
1092.40 0.04791
1092.50 0.04789
1092.60 0.04786
1092.70 0.04784
1092.80 0.04782
1092.90 0.0478
1093.00 0.04778
1093.10 0.04776
1093.20 0.04774
1093.30 0.04773
1093.40 0.04771
1093.50 0.0477
1093.60 0.04771
1093.70 0.04771
1093.80 0.04771
1093.90 0.0477
1094.00 0.04767
1094.10 0.04763
1094.20 0.04759
1094.30 0.04756
1094.40 0.04755
1094.50 0.04753
1094.60 0.04752
1094.70 0.04751
1094.80 0.04749
1094.90 0.04748
1095.00 0.04746
1095.10 0.04745
1095.20 0.04744
1095.30 0.04743
1095.40 0.04742
1095.50 0.04741
1095.60 0.0474
1095.70 0.04739
1095.80 0.04738
1095.90 0.04737
1096.00 0.04736
1096.10 0.04735
1096.20 0.04734
1096.30 0.04732
1096.40 0.04731
1096.50 0.0473
1096.60 0.0473
1096.70 0.04729
1096.80 0.04728
1096.90 0.04727
1097.00 0.04726
1097.10 0.04725
1097.20 0.04725
1097.30 0.04724
1097.40 0.04723
1097.50 0.04722
1097.60 0.04722
1097.70 0.04721
1097.80 0.0472
1097.90 0.04719
1098.00 0.04719
1098.10 0.04718
1098.20 0.04717
1098.30 0.04716
1098.40 0.04715
1098.50 0.04715
1098.60 0.04714
1098.70 0.04713
1098.80 0.04712
1098.90 0.04712
1099.00 0.04711
1099.10 0.0471
1099.20 0.04709
1099.30 0.04709
1099.40 0.04708
1099.50 0.04707
1099.60 0.04706
1099.70 0.04706
1099.80 0.04705
1099.90 0.04704
1100.00 0.04703
1100.10 0.04702
1100.20 0.04702
1100.30 0.04701
1100.40 0.047
1100.50 0.04699
1100.60 0.04699
1100.70 0.04698
1100.80 0.04697
1100.90 0.04696
1101.00 0.04695
1101.10 0.04694
1101.20 0.04693
1101.30 0.04692
1101.40 0.04691
1101.50 0.04691
1101.60 0.0469
1101.70 0.04689
1101.80 0.04688
1101.90 0.04687
1102.00 0.04686
1102.10 0.04685
1102.20 0.04684
1102.30 0.04683
1102.40 0.04682
1102.50 0.04681
1102.60 0.0468
1102.70 0.04679
1102.80 0.04678
1102.90 0.04677
1103.00 0.04676
1103.10 0.04675
1103.20 0.04674
1103.30 0.04673
1103.40 0.04672
1103.50 0.04671
1103.60 0.0467
1103.70 0.04669
1103.80 0.04668
1103.90 0.04667
1104.00 0.04666
1104.10 0.04665
1104.20 0.04663
1104.30 0.04662
1104.40 0.04661
1104.50 0.0466
1104.60 0.04659
1104.70 0.04658
1104.80 0.04657
1104.90 0.04656
1105.00 0.04654
1105.10 0.04653
1105.20 0.04652
1105.30 0.04651
1105.40 0.0465
1105.50 0.04649
1105.60 0.04648
1105.70 0.04646
1105.80 0.04645
1105.90 0.04644
1106.00 0.04643
1106.10 0.04641
1106.20 0.0464
1106.30 0.04639
1106.40 0.04638
1106.50 0.04637
1106.60 0.04635
1106.70 0.04634
1106.80 0.04633
1106.90 0.04632
1107.00 0.0463
1107.10 0.04629
1107.20 0.04628
1107.30 0.04627
1107.40 0.04625
1107.50 0.04624
1107.60 0.04623
1107.70 0.04621
1107.80 0.0462
1107.90 0.04619
1108.00 0.04617
1108.10 0.04616
1108.20 0.04615
1108.30 0.04613
1108.40 0.04612
1108.50 0.04611
1108.60 0.04609
1108.70 0.04608
1108.80 0.04607
1108.90 0.04606
1109.00 0.04604
1109.10 0.04603
1109.20 0.04602
1109.30 0.046
1109.40 0.04599
1109.50 0.04598
1109.60 0.04596
1109.70 0.04595
1109.80 0.04593
1109.90 0.04592
1110.00 0.04591
1110.10 0.04589
1110.20 0.04588
1110.30 0.04586
1110.40 0.04585
1110.50 0.04584
1110.60 0.04582
1110.70 0.04581
1110.80 0.04579
1110.90 0.04578
1111.00 0.04577
1111.10 0.04575
1111.20 0.04574
1111.30 0.04572
1111.40 0.04571
1111.50 0.0457
1111.60 0.04568
1111.70 0.04567
1111.80 0.04566
1111.90 0.04564
1112.00 0.04563
1112.10 0.04561
1112.20 0.0456
1112.30 0.04558
1112.40 0.04557
1112.50 0.04556
1112.60 0.04554
1112.70 0.04553
1112.80 0.04551
1112.90 0.0455
1113.00 0.04548
1113.10 0.04547
1113.20 0.04546
1113.30 0.04544
1113.40 0.04543
1113.50 0.04541
1113.60 0.0454
1113.70 0.04538
1113.80 0.04537
1113.90 0.04535
1114.00 0.04534
1114.10 0.04532
1114.20 0.04531
1114.30 0.0453
1114.40 0.04528
1114.50 0.04527
1114.60 0.04525
1114.70 0.04524
1114.80 0.04522
1114.90 0.04521
1115.00 0.04519
1115.10 0.04518
1115.20 0.04516
1115.30 0.04515
1115.40 0.04513
1115.50 0.04512
1115.60 0.0451
1115.70 0.04509
1115.80 0.04508
1115.90 0.04506
1116.00 0.04505
1116.10 0.04503
1116.20 0.04502
1116.30 0.045
1116.40 0.04499
1116.50 0.04497
1116.60 0.04496
1116.70 0.04494
1116.80 0.04493
1116.90 0.04492
1117.00 0.0449
1117.10 0.04489
1117.20 0.04487
1117.30 0.04486
1117.40 0.04484
1117.50 0.04483
1117.60 0.04481
1117.70 0.0448
1117.80 0.04478
1117.90 0.04477
1118.00 0.04475
1118.10 0.04474
1118.20 0.04472
1118.30 0.04471
1118.40 0.04469
1118.50 0.04468
1118.60 0.04466
1118.70 0.04465
1118.80 0.04463
1118.90 0.04462
1119.00 0.0446
1119.10 0.04459
1119.20 0.04457
1119.30 0.04456
1119.40 0.04454
1119.50 0.04453
1119.60 0.04451
1119.70 0.0445
1119.80 0.04448
1119.90 0.04447
1120.00 0.04445
1120.10 0.04444
1120.20 0.04442
1120.30 0.04441
1120.40 0.04439
1120.50 0.04438
1120.60 0.04436
1120.70 0.04435
1120.80 0.04434
1120.90 0.04432
1121.00 0.04431
1121.10 0.04429
1121.20 0.04428
1121.30 0.04426
1121.40 0.04425
1121.50 0.04423
1121.60 0.04422
1121.70 0.0442
1121.80 0.04419
1121.90 0.04417
1122.00 0.04416
1122.10 0.04414
1122.20 0.04413
1122.30 0.04411
1122.40 0.0441
1122.50 0.04408
1122.60 0.04407
1122.70 0.04405
1122.80 0.04404
1122.90 0.04402
1123.00 0.04401
1123.10 0.04399
1123.20 0.04398
1123.30 0.04396
1123.40 0.04395
1123.50 0.04393
1123.60 0.04392
1123.70 0.0439
1123.80 0.04389
1123.90 0.04388
1124.00 0.04386
1124.10 0.04385
1124.20 0.04383
1124.30 0.04382
1124.40 0.0438
1124.50 0.04379
1124.60 0.04377
1124.70 0.04376
1124.80 0.04374
1124.90 0.04373
1125.00 0.04371
1125.10 0.0437
1125.20 0.04368
1125.30 0.04367
1125.40 0.04365
1125.50 0.04364
1125.60 0.04362
1125.70 0.04361
1125.80 0.04359
1125.90 0.04358
1126.00 0.04356
1126.10 0.04355
1126.20 0.04353
1126.30 0.04352
1126.40 0.04351
1126.50 0.04349
1126.60 0.04348
1126.70 0.04346
1126.80 0.04345
1126.90 0.04343
1127.00 0.04342
1127.10 0.0434
1127.20 0.04339
1127.30 0.04337
1127.40 0.04336
1127.50 0.04334
1127.60 0.04333
1127.70 0.04331
1127.80 0.0433
1127.90 0.04328
1128.00 0.04327
1128.10 0.04325
1128.20 0.04324
1128.30 0.04323
1128.40 0.04321
1128.50 0.0432
1128.60 0.04318
1128.70 0.04317
1128.80 0.04315
1128.90 0.04314
1129.00 0.04312
1129.10 0.04311
1129.20 0.04309
1129.30 0.04308
1129.40 0.04306
1129.50 0.04305
1129.60 0.04303
1129.70 0.04302
1129.80 0.043
1129.90 0.04299
1130.00 0.04298
1130.10 0.04296
1130.20 0.04295
1130.30 0.04293
1130.40 0.04292
1130.50 0.0429
1130.60 0.04289
1130.70 0.04287
1130.80 0.04286
1130.90 0.04284
1131.00 0.04283
1131.10 0.04281
1131.20 0.0428
1131.30 0.04279
1131.40 0.04277
1131.50 0.04276
1131.60 0.04274
1131.70 0.04273
1131.80 0.04271
1131.90 0.0427
1132.00 0.04268
1132.10 0.04267
1132.20 0.04265
1132.30 0.04264
1132.40 0.04263
1132.50 0.04261
1132.60 0.0426
1132.70 0.04258
1132.80 0.04257
1132.90 0.04255
1133.00 0.04254
1133.10 0.04252
1133.20 0.04251
1133.30 0.04249
1133.40 0.04248
1133.50 0.04247
1133.60 0.04245
1133.70 0.04244
1133.80 0.04242
1133.90 0.04241
1134.00 0.04239
1134.10 0.04238
1134.20 0.04236
1134.30 0.04235
1134.40 0.04234
1134.50 0.04232
1134.60 0.04231
1134.70 0.04229
1134.80 0.04228
1134.90 0.04226
1135.00 0.04225
1135.10 0.04223
1135.20 0.04222
1135.30 0.04221
1135.40 0.04219
1135.50 0.04218
1135.60 0.04216
1135.70 0.04215
1135.80 0.04213
1135.90 0.04212
1136.00 0.04211
1136.10 0.04209
1136.20 0.04208
1136.30 0.04206
1136.40 0.04205
1136.50 0.04203
1136.60 0.04202
1136.70 0.042
1136.80 0.04199
1136.90 0.04198
1137.00 0.04196
1137.10 0.04195
1137.20 0.04193
1137.30 0.04192
1137.40 0.0419
1137.50 0.04189
1137.60 0.04188
1137.70 0.04186
1137.80 0.04185
1137.90 0.04183
1138.00 0.04182
1138.10 0.0418
1138.20 0.04179
1138.30 0.04178
1138.40 0.04176
1138.50 0.04175
1138.60 0.04173
1138.70 0.04172
1138.80 0.04171
1138.90 0.04169
1139.00 0.04168
1139.10 0.04166
1139.20 0.04165
1139.30 0.04163
1139.40 0.04162
1139.50 0.04161
1139.60 0.04159
1139.70 0.04158
1139.80 0.04156
1139.90 0.04155
1140.00 0.04153
1140.10 0.04152
1140.20 0.04151
1140.30 0.04149
1140.40 0.04148
1140.50 0.04146
1140.60 0.04145
1140.70 0.04144
1140.80 0.04142
1140.90 0.04141
1141.00 0.04139
1141.10 0.04138
1141.20 0.04137
1141.30 0.04135
1141.40 0.04134
1141.50 0.04132
1141.60 0.04131
1141.70 0.04129
1141.80 0.04128
1141.90 0.04127
1142.00 0.04125
1142.10 0.04124
1142.20 0.04122
1142.30 0.04121
1142.40 0.0412
1142.50 0.04118
1142.60 0.04117
1142.70 0.04115
1142.80 0.04114
1142.90 0.04113
1143.00 0.04111
1143.10 0.0411
1143.20 0.04108
1143.30 0.04107
1143.40 0.04106
1143.50 0.04104
1143.60 0.04103
1143.70 0.04101
1143.80 0.041
1143.90 0.04099
1144.00 0.04097
1144.10 0.04096
1144.20 0.04095
1144.30 0.04093
1144.40 0.04092
1144.50 0.0409
1144.60 0.04089
1144.70 0.04088
1144.80 0.04086
1144.90 0.04085
1145.00 0.04083
1145.10 0.04082
1145.20 0.04081
1145.30 0.04079
1145.40 0.04078
1145.50 0.04076
1145.60 0.04075
1145.70 0.04074
1145.80 0.04072
1145.90 0.04071
1146.00 0.0407
1146.10 0.04068
1146.20 0.04067
1146.30 0.04065
1146.40 0.04064
1146.50 0.04063
1146.60 0.04061
1146.70 0.0406
1146.80 0.04058
1146.90 0.04057
1147.00 0.04056
1147.10 0.04054
1147.20 0.04053
1147.30 0.04052
1147.40 0.0405
1147.50 0.04049
1147.60 0.04047
1147.70 0.04046
1147.80 0.04045
1147.90 0.04043
1148.00 0.04042
1148.10 0.04041
1148.20 0.04039
1148.30 0.04038
1148.40 0.04037
1148.50 0.04035
1148.60 0.04034
1148.70 0.04032
1148.80 0.04031
1148.90 0.0403
1149.00 0.04028
1149.10 0.04027
1149.20 0.04026
1149.30 0.04024
1149.40 0.04023
1149.50 0.04021
1149.60 0.0402
1149.70 0.04019
1149.80 0.04017
1149.90 0.04016
1150.00 0.04015
1150.10 0.04013
1150.20 0.04012
1150.30 0.04011
1150.40 0.04009
1150.50 0.04008
1150.60 0.04007
1150.70 0.04005
1150.80 0.04004
1150.90 0.04002
1151.00 0.04001
1151.10 0.04
1151.20 0.03998
1151.30 0.03997
1151.40 0.03996
1151.50 0.03994
1151.60 0.03993
1151.70 0.03992
1151.80 0.0399
1151.90 0.03989
1152.00 0.03988
1152.10 0.03986
1152.20 0.03985
1152.30 0.03983
1152.40 0.03982
1152.50 0.03981
1152.60 0.03979
1152.70 0.03978
1152.80 0.03977
1152.90 0.03975
1153.00 0.03974
1153.10 0.03973
1153.20 0.03971
1153.30 0.0397
1153.40 0.03969
1153.50 0.03967
1153.60 0.03966
1153.70 0.03965
1153.80 0.03963
1153.90 0.03962
1154.00 0.03961
1154.10 0.03959
1154.20 0.03958
1154.30 0.03957
1154.40 0.03955
1154.50 0.03954
1154.60 0.03953
1154.70 0.03951
1154.80 0.0395
1154.90 0.03949
1155.00 0.03947
1155.10 0.03946
1155.20 0.03945
1155.30 0.03943
1155.40 0.03942
1155.50 0.03941
1155.60 0.03939
1155.70 0.03938
1155.80 0.03937
1155.90 0.03935
1156.00 0.03934
1156.10 0.03933
1156.20 0.03931
1156.30 0.0393
1156.40 0.03929
1156.50 0.03927
1156.60 0.03926
1156.70 0.03925
1156.80 0.03923
1156.90 0.03922
1157.00 0.03921
1157.10 0.03919
1157.20 0.03918
1157.30 0.03917
1157.40 0.03915
1157.50 0.03914
1157.60 0.03913
1157.70 0.03911
1157.80 0.0391
1157.90 0.03909
1158.00 0.03908
1158.10 0.03906
1158.20 0.03905
1158.30 0.03904
1158.40 0.03902
1158.50 0.03901
1158.60 0.039
1158.70 0.03898
1158.80 0.03897
1158.90 0.03896
1159.00 0.03894
1159.10 0.03893
1159.20 0.03892
1159.30 0.0389
1159.40 0.03889
1159.50 0.03888
1159.60 0.03887
1159.70 0.03885
1159.80 0.03884
1159.90 0.03883
1160.00 0.03881
1160.10 0.0388
1160.20 0.03879
1160.30 0.03877
1160.40 0.03876
1160.50 0.03875
1160.60 0.03873
1160.70 0.03872
1160.80 0.03871
1160.90 0.0387
1161.00 0.03868
1161.10 0.03867
1161.20 0.03866
1161.30 0.03864
1161.40 0.03863
1161.50 0.03862
1161.60 0.0386
1161.70 0.03859
1161.80 0.03858
1161.90 0.03857
1162.00 0.03855
1162.10 0.03854
1162.20 0.03853
1162.30 0.03851
1162.40 0.0385
1162.50 0.03849
1162.60 0.03848
1162.70 0.03846
1162.80 0.03845
1162.90 0.03844
1163.00 0.03842
1163.10 0.03841
1163.20 0.0384
1163.30 0.03838
1163.40 0.03837
1163.50 0.03836
1163.60 0.03835
1163.70 0.03833
1163.80 0.03832
1163.90 0.03831
1164.00 0.03829
1164.10 0.03828
1164.20 0.03827
1164.30 0.03826
1164.40 0.03824
1164.50 0.03823
1164.60 0.03822
1164.70 0.03821
1164.80 0.03819
1164.90 0.03818
1165.00 0.03817
1165.10 0.03815
1165.20 0.03814
1165.30 0.03813
1165.40 0.03812
1165.50 0.0381
1165.60 0.03809
1165.70 0.03808
1165.80 0.03806
1165.90 0.03805
1166.00 0.03804
1166.10 0.03803
1166.20 0.03801
1166.30 0.038
1166.40 0.03799
1166.50 0.03798
1166.60 0.03796
1166.70 0.03795
1166.80 0.03794
1166.90 0.03792
1167.00 0.03791
1167.10 0.0379
1167.20 0.03789
1167.30 0.03787
1167.40 0.03786
1167.50 0.03785
1167.60 0.03784
1167.70 0.03782
1167.80 0.03781
1167.90 0.0378
1168.00 0.03778
1168.10 0.03777
1168.20 0.03776
1168.30 0.03775
1168.40 0.03773
1168.50 0.03772
1168.60 0.03771
1168.70 0.0377
1168.80 0.03768
1168.90 0.03767
1169.00 0.03766
1169.10 0.03765
1169.20 0.03763
1169.30 0.03762
1169.40 0.03761
1169.50 0.0376
1169.60 0.03758
1169.70 0.03757
1169.80 0.03756
1169.90 0.03755
1170.00 0.03753
1170.10 0.03752
1170.20 0.03751
1170.30 0.0375
1170.40 0.03748
1170.50 0.03747
1170.60 0.03746
1170.70 0.03745
1170.80 0.03743
1170.90 0.03742
1171.00 0.03741
1171.10 0.0374
1171.20 0.03738
1171.30 0.03737
1171.40 0.03736
1171.50 0.03735
1171.60 0.03733
1171.70 0.03732
1171.80 0.03731
1171.90 0.0373
1172.00 0.03728
1172.10 0.03727
1172.20 0.03726
1172.30 0.03725
1172.40 0.03723
1172.50 0.03722
1172.60 0.03721
1172.70 0.0372
1172.80 0.03718
1172.90 0.03717
1173.00 0.03716
1173.10 0.03715
1173.20 0.03713
1173.30 0.03712
1173.40 0.03711
1173.50 0.0371
1173.60 0.03709
1173.70 0.03707
1173.80 0.03706
1173.90 0.03705
1174.00 0.03704
1174.10 0.03702
1174.20 0.03701
1174.30 0.037
1174.40 0.03699
1174.50 0.03697
1174.60 0.03696
1174.70 0.03695
1174.80 0.03694
1174.90 0.03693
1175.00 0.03691
1175.10 0.0369
1175.20 0.03689
1175.30 0.03688
1175.40 0.03686
1175.50 0.03685
1175.60 0.03684
1175.70 0.03683
1175.80 0.03681
1175.90 0.0368
1176.00 0.03679
1176.10 0.03678
1176.20 0.03677
1176.30 0.03675
1176.40 0.03674
1176.50 0.03673
1176.60 0.03672
1176.70 0.0367
1176.80 0.03669
1176.90 0.03668
1177.00 0.03667
1177.10 0.03666
1177.20 0.03664
1177.30 0.03663
1177.40 0.03662
1177.50 0.03661
1177.60 0.03659
1177.70 0.03658
1177.80 0.03657
1177.90 0.03656
1178.00 0.03655
1178.10 0.03653
1178.20 0.03652
1178.30 0.03651
1178.40 0.0365
1178.50 0.03649
1178.60 0.03647
1178.70 0.03646
1178.80 0.03645
1178.90 0.03644
1179.00 0.03643
1179.10 0.03641
1179.20 0.0364
1179.30 0.03639
1179.40 0.03638
1179.50 0.03637
1179.60 0.03635
1179.70 0.03634
1179.80 0.03633
1179.90 0.03632
1180.00 0.03631
1180.10 0.03629
1180.20 0.03628
1180.30 0.03627
1180.40 0.03626
1180.50 0.03624
1180.60 0.03623
1180.70 0.03622
1180.80 0.03621
1180.90 0.0362
1181.00 0.03618
1181.10 0.03617
1181.20 0.03616
1181.30 0.03615
1181.40 0.03614
1181.50 0.03612
1181.60 0.03611
1181.70 0.0361
1181.80 0.03609
1181.90 0.03608
1182.00 0.03606
1182.10 0.03605
1182.20 0.03604
1182.30 0.03603
1182.40 0.03602
1182.50 0.03601
1182.60 0.03599
1182.70 0.03598
1182.80 0.03597
1182.90 0.03596
1183.00 0.03595
1183.10 0.03593
1183.20 0.03592
1183.30 0.03591
1183.40 0.0359
1183.50 0.03589
1183.60 0.03588
1183.70 0.03586
1183.80 0.03585
1183.90 0.03584
1184.00 0.03583
1184.10 0.03582
1184.20 0.0358
1184.30 0.03579
1184.40 0.03578
1184.50 0.03577
1184.60 0.03576
1184.70 0.03574
1184.80 0.03573
1184.90 0.03572
1185.00 0.03571
1185.10 0.0357
1185.20 0.03569
1185.30 0.03567
1185.40 0.03566
1185.50 0.03565
1185.60 0.03564
1185.70 0.03563
1185.80 0.03562
1185.90 0.0356
1186.00 0.03559
1186.10 0.03558
1186.20 0.03557
1186.30 0.03556
1186.40 0.03554
1186.50 0.03553
1186.60 0.03552
1186.70 0.03551
1186.80 0.0355
1186.90 0.03549
1187.00 0.03547
1187.10 0.03546
1187.20 0.03545
1187.30 0.03544
1187.40 0.03543
1187.50 0.03542
1187.60 0.0354
1187.70 0.03539
1187.80 0.03538
1187.90 0.03537
1188.00 0.03536
1188.10 0.03535
1188.20 0.03533
1188.30 0.03532
1188.40 0.03531
1188.50 0.0353
1188.60 0.03529
1188.70 0.03528
1188.80 0.03527
1188.90 0.03525
1189.00 0.03524
1189.10 0.03523
1189.20 0.03522
1189.30 0.03521
1189.40 0.0352
1189.50 0.03518
1189.60 0.03517
1189.70 0.03516
1189.80 0.03515
1189.90 0.03514
1190.00 0.03513
1190.10 0.03511
1190.20 0.0351
1190.30 0.03509
1190.40 0.03508
1190.50 0.03507
1190.60 0.03506
1190.70 0.03505
1190.80 0.03503
1190.90 0.03502
1191.00 0.03501
1191.10 0.035
1191.20 0.03499
1191.30 0.03498
1191.40 0.03496
1191.50 0.03495
1191.60 0.03494
1191.70 0.03493
1191.80 0.03492
1191.90 0.03491
1192.00 0.0349
1192.10 0.03488
1192.20 0.03487
1192.30 0.03486
1192.40 0.03485
1192.50 0.03484
1192.60 0.03483
1192.70 0.03482
1192.80 0.0348
1192.90 0.03479
1193.00 0.03478
1193.10 0.03477
1193.20 0.03476
1193.30 0.03475
1193.40 0.03474
1193.50 0.03472
1193.60 0.03471
1193.70 0.0347
1193.80 0.03469
1193.90 0.03468
1194.00 0.03467
1194.10 0.03466
1194.20 0.03465
1194.30 0.03463
1194.40 0.03462
1194.50 0.03461
1194.60 0.0346
1194.70 0.03459
1194.80 0.03458
1194.90 0.03457
1195.00 0.03455
1195.10 0.03454
1195.20 0.03453
1195.30 0.03452
1195.40 0.03451
1195.50 0.0345
1195.60 0.03449
1195.70 0.03448
1195.80 0.03446
1195.90 0.03445
1196.00 0.03444
1196.10 0.03443
1196.20 0.03442
1196.30 0.03441
1196.40 0.0344
1196.50 0.03438
1196.60 0.03437
1196.70 0.03436
1196.80 0.03435
1196.90 0.03434
1197.00 0.03433
1197.10 0.03432
1197.20 0.03431
1197.30 0.03429
1197.40 0.03428
1197.50 0.03427
1197.60 0.03426
1197.70 0.03425
1197.80 0.03424
1197.90 0.03423
1198.00 0.03422
1198.10 0.03421
1198.20 0.03419
1198.30 0.03418
1198.40 0.03417
1198.50 0.03416
1198.60 0.03415
1198.70 0.03414
1198.80 0.03413
1198.90 0.03412
1199.00 0.03411
1199.10 0.03409
1199.20 0.03408
1199.30 0.03407
1199.40 0.03406
1199.50 0.03405
1199.60 0.03404
1199.70 0.03403
1199.80 0.03402
1199.90 0.03401
1200.00 0
