# Version 2.1 - nm, norm@500 to 1, cut digits, bergeron_30000_80.dat_30000
# Wavelength(nm)  Flambda(ergs/cm^s/s/nm)
300.00 4.994
300.10 4.988
300.20 4.983
300.30 4.977
300.40 4.971
300.50 4.966
300.60 4.96
300.70 4.954
300.80 4.949
300.90 4.943
301.00 4.938
301.10 4.932
301.20 4.926
301.30 4.921
301.40 4.915
301.50 4.91
301.60 4.904
301.70 4.899
301.80 4.893
301.90 4.888
302.00 4.882
302.10 4.877
302.20 4.871
302.30 4.866
302.40 4.86
302.50 4.855
302.60 4.849
302.70 4.844
302.80 4.838
302.90 4.833
303.00 4.827
303.10 4.822
303.20 4.816
303.30 4.811
303.40 4.806
303.50 4.8
303.60 4.795
303.70 4.789
303.80 4.784
303.90 4.779
304.00 4.773
304.10 4.768
304.20 4.763
304.30 4.757
304.40 4.752
304.50 4.747
304.60 4.741
304.70 4.736
304.80 4.731
304.90 4.726
305.00 4.72
305.10 4.715
305.20 4.71
305.30 4.704
305.40 4.699
305.50 4.694
305.60 4.689
305.70 4.683
305.80 4.678
305.90 4.673
306.00 4.668
306.10 4.663
306.20 4.657
306.30 4.652
306.40 4.647
306.50 4.642
306.60 4.637
306.70 4.632
306.80 4.626
306.90 4.621
307.00 4.616
307.10 4.611
307.20 4.606
307.30 4.601
307.40 4.596
307.50 4.59
307.60 4.585
307.70 4.58
307.80 4.575
307.90 4.57
308.00 4.565
308.10 4.56
308.20 4.555
308.30 4.55
308.40 4.545
308.50 4.54
308.60 4.535
308.70 4.53
308.80 4.525
308.90 4.52
309.00 4.515
309.10 4.51
309.20 4.505
309.30 4.5
309.40 4.495
309.50 4.49
309.60 4.485
309.70 4.48
309.80 4.475
309.90 4.47
310.00 4.465
310.10 4.46
310.20 4.455
310.30 4.451
310.40 4.446
310.50 4.441
310.60 4.436
310.70 4.431
310.80 4.426
310.90 4.421
311.00 4.416
311.10 4.412
311.20 4.407
311.30 4.402
311.40 4.397
311.50 4.392
311.60 4.387
311.70 4.383
311.80 4.378
311.90 4.373
312.00 4.368
312.10 4.363
312.20 4.359
312.30 4.354
312.40 4.349
312.50 4.344
312.60 4.34
312.70 4.335
312.80 4.33
312.90 4.325
313.00 4.321
313.10 4.316
313.20 4.311
313.30 4.307
313.40 4.302
313.50 4.297
313.60 4.292
313.70 4.288
313.80 4.283
313.90 4.278
314.00 4.274
314.10 4.269
314.20 4.264
314.30 4.26
314.40 4.255
314.50 4.251
314.60 4.246
314.70 4.241
314.80 4.237
314.90 4.232
315.00 4.228
315.10 4.223
315.20 4.218
315.30 4.214
315.40 4.209
315.50 4.205
315.60 4.2
315.70 4.196
315.80 4.191
315.90 4.186
316.00 4.182
316.10 4.177
316.20 4.173
316.30 4.168
316.40 4.164
316.50 4.159
316.60 4.155
316.70 4.15
316.80 4.146
316.90 4.141
317.00 4.137
317.10 4.132
317.20 4.128
317.30 4.124
317.40 4.119
317.50 4.115
317.60 4.11
317.70 4.106
317.80 4.101
317.90 4.097
318.00 4.093
318.10 4.088
318.20 4.084
318.30 4.079
318.40 4.075
318.50 4.071
318.60 4.066
318.70 4.062
318.80 4.057
318.90 4.053
319.00 4.049
319.10 4.044
319.20 4.04
319.30 4.036
319.40 4.031
319.50 4.027
319.60 4.023
319.70 4.018
319.80 4.014
319.90 4.01
320.00 4.006
320.10 4.001
320.20 3.997
320.30 3.993
320.40 3.989
320.50 3.984
320.60 3.98
320.70 3.976
320.80 3.971
320.90 3.967
321.00 3.963
321.10 3.959
321.20 3.955
321.30 3.95
321.40 3.946
321.50 3.942
321.60 3.938
321.70 3.934
321.80 3.929
321.90 3.925
322.00 3.921
322.10 3.917
322.20 3.913
322.30 3.908
322.40 3.904
322.50 3.9
322.60 3.896
322.70 3.892
322.80 3.888
322.90 3.884
323.00 3.88
323.10 3.875
323.20 3.871
323.30 3.867
323.40 3.863
323.50 3.859
323.60 3.855
323.70 3.851
323.80 3.847
323.90 3.843
324.00 3.839
324.10 3.835
324.20 3.831
324.30 3.826
324.40 3.822
324.50 3.818
324.60 3.814
324.70 3.81
324.80 3.806
324.90 3.802
325.00 3.798
325.10 3.794
325.20 3.79
325.30 3.786
325.40 3.782
325.50 3.778
325.60 3.774
325.70 3.77
325.80 3.766
325.90 3.762
326.00 3.758
326.10 3.754
326.20 3.751
326.30 3.747
326.40 3.743
326.50 3.739
326.60 3.735
326.70 3.731
326.80 3.727
326.90 3.723
327.00 3.719
327.10 3.715
327.20 3.711
327.30 3.707
327.40 3.704
327.50 3.7
327.60 3.696
327.70 3.692
327.80 3.688
327.90 3.684
328.00 3.68
328.10 3.677
328.20 3.673
328.30 3.669
328.40 3.665
328.50 3.661
328.60 3.657
328.70 3.654
328.80 3.65
328.90 3.646
329.00 3.642
329.10 3.638
329.20 3.634
329.30 3.631
329.40 3.627
329.50 3.623
329.60 3.619
329.70 3.616
329.80 3.612
329.90 3.608
330.00 3.604
330.10 3.601
330.20 3.597
330.30 3.593
330.40 3.589
330.50 3.586
330.60 3.582
330.70 3.578
330.80 3.575
330.90 3.571
331.00 3.567
331.10 3.563
331.20 3.56
331.30 3.556
331.40 3.552
331.50 3.549
331.60 3.545
331.70 3.541
331.80 3.538
331.90 3.534
332.00 3.53
332.10 3.527
332.20 3.523
332.30 3.519
332.40 3.516
332.50 3.512
332.60 3.508
332.70 3.505
332.80 3.501
332.90 3.498
333.00 3.494
333.10 3.49
333.20 3.487
333.30 3.483
333.40 3.48
333.50 3.476
333.60 3.472
333.70 3.469
333.80 3.465
333.90 3.462
334.00 3.458
334.10 3.455
334.20 3.451
334.30 3.447
334.40 3.444
334.50 3.44
334.60 3.437
334.70 3.433
334.80 3.43
334.90 3.426
335.00 3.423
335.10 3.419
335.20 3.416
335.30 3.412
335.40 3.409
335.50 3.405
335.60 3.402
335.70 3.398
335.80 3.395
335.90 3.391
336.00 3.388
336.10 3.384
336.20 3.381
336.30 3.377
336.40 3.374
336.50 3.371
336.60 3.367
336.70 3.364
336.80 3.36
336.90 3.357
337.00 3.353
337.10 3.35
337.20 3.347
337.30 3.343
337.40 3.34
337.50 3.336
337.60 3.333
337.70 3.33
337.80 3.326
337.90 3.323
338.00 3.319
338.10 3.316
338.20 3.313
338.30 3.309
338.40 3.306
338.50 3.303
338.60 3.299
338.70 3.296
338.80 3.293
338.90 3.289
339.00 3.286
339.10 3.282
339.20 3.279
339.30 3.276
339.40 3.273
339.50 3.269
339.60 3.266
339.70 3.263
339.80 3.259
339.90 3.256
340.00 3.253
340.10 3.249
340.20 3.246
340.30 3.243
340.40 3.24
340.50 3.236
340.60 3.233
340.70 3.23
340.80 3.226
340.90 3.223
341.00 3.22
341.10 3.217
341.20 3.213
341.30 3.21
341.40 3.207
341.50 3.204
341.60 3.2
341.70 3.197
341.80 3.194
341.90 3.191
342.00 3.188
342.10 3.184
342.20 3.181
342.30 3.178
342.40 3.175
342.50 3.172
342.60 3.168
342.70 3.165
342.80 3.162
342.90 3.159
343.00 3.156
343.10 3.153
343.20 3.149
343.30 3.146
343.40 3.143
343.50 3.14
343.60 3.137
343.70 3.134
343.80 3.13
343.90 3.127
344.00 3.124
344.10 3.121
344.20 3.118
344.30 3.115
344.40 3.112
344.50 3.109
344.60 3.105
344.70 3.102
344.80 3.099
344.90 3.096
345.00 3.093
345.10 3.09
345.20 3.087
345.30 3.084
345.40 3.081
345.50 3.078
345.60 3.075
345.70 3.072
345.80 3.068
345.90 3.065
346.00 3.062
346.10 3.059
346.20 3.056
346.30 3.053
346.40 3.05
346.50 3.047
346.60 3.044
346.70 3.041
346.80 3.038
346.90 3.035
347.00 3.032
347.10 3.029
347.20 3.026
347.30 3.023
347.40 3.02
347.50 3.017
347.60 3.014
347.70 3.011
347.80 3.008
347.90 3.005
348.00 3.002
348.10 2.999
348.20 2.996
348.30 2.993
348.40 2.99
348.50 2.987
348.60 2.984
348.70 2.981
348.80 2.978
348.90 2.975
349.00 2.973
349.10 2.97
349.20 2.967
349.30 2.964
349.40 2.961
349.50 2.958
349.60 2.955
349.70 2.952
349.80 2.949
349.90 2.946
350.00 2.943
350.10 2.94
350.20 2.937
350.30 2.935
350.40 2.932
350.50 2.929
350.60 2.926
350.70 2.923
350.80 2.92
350.90 2.917
351.00 2.914
351.10 2.912
351.20 2.909
351.30 2.906
351.40 2.903
351.50 2.9
351.60 2.897
351.70 2.894
351.80 2.892
351.90 2.889
352.00 2.886
352.10 2.883
352.20 2.88
352.30 2.877
352.40 2.875
352.50 2.872
352.60 2.869
352.70 2.866
352.80 2.863
352.90 2.861
353.00 2.858
353.10 2.855
353.20 2.852
353.30 2.849
353.40 2.847
353.50 2.844
353.60 2.841
353.70 2.838
353.80 2.836
353.90 2.833
354.00 2.83
354.10 2.827
354.20 2.824
354.30 2.822
354.40 2.819
354.50 2.816
354.60 2.814
354.70 2.811
354.80 2.808
354.90 2.805
355.00 2.803
355.10 2.8
355.20 2.797
355.30 2.794
355.40 2.792
355.50 2.789
355.60 2.786
355.70 2.784
355.80 2.781
355.90 2.778
356.00 2.775
356.10 2.773
356.20 2.77
356.30 2.767
356.40 2.765
356.50 2.762
356.60 2.759
356.70 2.757
356.80 2.754
356.90 2.751
357.00 2.749
357.10 2.746
357.20 2.743
357.30 2.741
357.40 2.738
357.50 2.735
357.60 2.733
357.70 2.73
357.80 2.727
357.90 2.725
358.00 2.722
358.10 2.72
358.20 2.717
358.30 2.714
358.40 2.712
358.50 2.709
358.60 2.706
358.70 2.704
358.80 2.701
358.90 2.699
359.00 2.696
359.10 2.693
359.20 2.691
359.30 2.688
359.40 2.686
359.50 2.683
359.60 2.681
359.70 2.678
359.80 2.675
359.90 2.673
360.00 2.67
360.10 2.668
360.20 2.665
360.30 2.663
360.40 2.66
360.50 2.657
360.60 2.655
360.70 2.652
360.80 2.65
360.90 2.647
361.00 2.645
361.10 2.642
361.20 2.64
361.30 2.637
361.40 2.635
361.50 2.632
361.60 2.63
361.70 2.627
361.80 2.625
361.90 2.622
362.00 2.619
362.10 2.617
362.20 2.614
362.30 2.612
362.40 2.61
362.50 2.607
362.60 2.605
362.70 2.602
362.80 2.6
362.90 2.597
363.00 2.595
363.10 2.592
363.20 2.59
363.30 2.587
363.40 2.585
363.50 2.582
363.60 2.58
363.70 2.577
363.80 2.575
363.90 2.572
364.00 2.57
364.10 2.568
364.20 2.565
364.30 2.563
364.40 2.56
364.50 2.558
364.60 2.555
364.70 2.553
364.80 2.551
364.90 2.548
365.00 2.546
365.10 2.543
365.20 2.541
365.30 2.538
365.40 2.536
365.50 2.534
365.60 2.531
365.70 2.529
365.80 2.526
365.90 2.524
366.00 2.522
366.10 2.519
366.20 2.516
366.30 2.514
366.40 2.511
366.50 2.509
366.60 2.506
366.70 2.503
366.80 2.501
366.90 2.498
367.00 2.495
367.10 2.493
367.20 2.49
367.30 2.488
367.40 2.485
367.50 2.482
367.60 2.48
367.70 2.477
367.80 2.475
367.90 2.472
368.00 2.469
368.10 2.467
368.20 2.464
368.30 2.462
368.40 2.459
368.50 2.457
368.60 2.454
368.70 2.451
368.80 2.449
368.90 2.446
369.00 2.444
369.10 2.441
369.20 2.439
369.30 2.436
369.40 2.434
369.50 2.431
369.60 2.429
369.70 2.426
369.80 2.424
369.90 2.421
370.00 2.418
370.10 2.416
370.20 2.414
370.30 2.411
370.40 2.409
370.50 2.406
370.60 2.404
370.70 2.401
370.80 2.399
370.90 2.396
371.00 2.394
371.10 2.391
371.20 2.389
371.30 2.387
371.40 2.384
371.50 2.382
371.60 2.379
371.70 2.377
371.80 2.374
371.90 2.372
372.00 2.369
372.10 2.367
372.20 2.365
372.30 2.363
372.40 2.36
372.50 2.358
372.60 2.356
372.70 2.354
372.80 2.352
372.90 2.349
373.00 2.347
373.10 2.345
373.20 2.343
373.30 2.34
373.40 2.338
373.50 2.336
373.60 2.334
373.70 2.331
373.80 2.329
373.90 2.327
374.00 2.325
374.10 2.323
374.20 2.321
374.30 2.319
374.40 2.317
374.50 2.315
374.60 2.313
374.70 2.311
374.80 2.309
374.90 2.306
375.00 2.304
375.10 2.302
375.20 2.3
375.30 2.298
375.40 2.296
375.50 2.294
375.60 2.292
375.70 2.29
375.80 2.288
375.90 2.286
376.00 2.284
376.10 2.282
376.20 2.28
376.30 2.278
376.40 2.276
376.50 2.274
376.60 2.272
376.70 2.27
376.80 2.268
376.90 2.265
377.00 2.263
377.10 2.262
377.20 2.261
377.30 2.259
377.40 2.258
377.50 2.257
377.60 2.255
377.70 2.254
377.80 2.253
377.90 2.251
378.00 2.25
378.10 2.248
378.20 2.246
378.30 2.244
378.40 2.242
378.50 2.24
378.60 2.238
378.70 2.236
378.80 2.234
378.90 2.232
379.00 2.23
379.10 2.228
379.20 2.226
379.30 2.224
379.40 2.222
379.50 2.22
379.60 2.218
379.70 2.216
379.80 2.214
379.90 2.212
380.00 2.21
380.10 2.21
380.20 2.21
380.30 2.209
380.40 2.209
380.50 2.209
380.60 2.209
380.70 2.208
380.80 2.208
380.90 2.208
381.00 2.207
381.10 2.206
381.20 2.205
381.30 2.203
381.40 2.202
381.50 2.2
381.60 2.198
381.70 2.196
381.80 2.194
381.90 2.191
382.00 2.188
382.10 2.185
382.20 2.181
382.30 2.177
382.40 2.172
382.50 2.168
382.60 2.163
382.70 2.159
382.80 2.154
382.90 2.15
383.00 2.145
383.10 2.141
383.20 2.136
383.30 2.132
383.40 2.128
383.50 2.124
383.60 2.124
383.70 2.126
383.80 2.128
383.90 2.131
384.00 2.134
384.10 2.137
384.20 2.14
384.30 2.143
384.40 2.146
384.50 2.148
384.60 2.151
384.70 2.153
384.80 2.154
384.90 2.156
385.00 2.157
385.10 2.158
385.20 2.158
385.30 2.159
385.40 2.159
385.50 2.158
385.60 2.158
385.70 2.156
385.80 2.155
385.90 2.153
386.00 2.151
386.10 2.149
386.20 2.146
386.30 2.142
386.40 2.139
386.50 2.135
386.60 2.13
386.70 2.126
386.80 2.121
386.90 2.115
387.00 2.109
387.10 2.103
387.20 2.096
387.30 2.088
387.40 2.081
387.50 2.073
387.60 2.064
387.70 2.056
387.80 2.046
387.90 2.037
388.00 2.027
388.10 2.017
388.20 2.006
388.30 1.996
388.40 1.985
388.50 1.975
388.60 1.965
388.70 1.956
388.80 1.95
388.90 1.945
389.00 1.948
389.10 1.952
389.20 1.959
389.30 1.967
389.40 1.976
389.50 1.985
389.60 1.993
389.70 2.002
389.80 2.011
389.90 2.019
390.00 2.027
390.10 2.035
390.20 2.042
390.30 2.049
390.40 2.056
390.50 2.062
390.60 2.068
390.70 2.073
390.80 2.078
390.90 2.083
391.00 2.088
391.10 2.092
391.20 2.095
391.30 2.099
391.40 2.102
391.50 2.104
391.60 2.106
391.70 2.108
391.80 2.11
391.90 2.111
392.00 2.112
392.10 2.112
392.20 2.112
392.30 2.112
392.40 2.111
392.50 2.11
392.60 2.108
392.70 2.107
392.80 2.105
392.90 2.102
393.00 2.099
393.10 2.096
393.20 2.092
393.30 2.088
393.40 2.084
393.50 2.079
393.60 2.073
393.70 2.068
393.80 2.062
393.90 2.055
394.00 2.048
394.10 2.041
394.20 2.033
394.30 2.025
394.40 2.016
394.50 2.007
394.60 1.997
394.70 1.987
394.80 1.976
394.90 1.965
395.00 1.953
395.10 1.941
395.20 1.928
395.30 1.915
395.40 1.901
395.50 1.887
395.60 1.871
395.70 1.856
395.80 1.84
395.90 1.823
396.00 1.806
396.10 1.788
396.20 1.77
396.30 1.751
396.40 1.732
396.50 1.712
396.60 1.692
396.70 1.672
396.80 1.651
396.90 1.632
397.00 1.613
397.10 1.628
397.20 1.644
397.30 1.662
397.40 1.68
397.50 1.698
397.60 1.715
397.70 1.732
397.80 1.749
397.90 1.765
398.00 1.78
398.10 1.795
398.20 1.81
398.30 1.823
398.40 1.837
398.50 1.85
398.60 1.862
398.70 1.874
398.80 1.885
398.90 1.895
399.00 1.906
399.10 1.916
399.20 1.925
399.30 1.934
399.40 1.942
399.50 1.95
399.60 1.958
399.70 1.965
399.80 1.972
399.90 1.979
400.00 1.985
400.10 1.991
400.20 1.996
400.30 2.002
400.40 2.006
400.50 2.011
400.60 2.015
400.70 2.019
400.80 2.023
400.90 2.026
401.00 2.03
401.10 2.032
401.20 2.035
401.30 2.038
401.40 2.04
401.50 2.042
401.60 2.043
401.70 2.045
401.80 2.046
401.90 2.047
402.00 2.048
402.10 2.049
402.20 2.049
402.30 2.05
402.40 2.05
402.50 2.05
402.60 2.05
402.70 2.049
402.80 2.049
402.90 2.048
403.00 2.047
403.10 2.046
403.20 2.044
403.30 2.043
403.40 2.041
403.50 2.039
403.60 2.037
403.70 2.035
403.80 2.033
403.90 2.03
404.00 2.028
404.10 2.025
404.20 2.022
404.30 2.019
404.40 2.015
404.50 2.012
404.60 2.008
404.70 2.004
404.80 2
404.90 1.995
405.00 1.991
405.10 1.986
405.20 1.981
405.30 1.976
405.40 1.97
405.50 1.964
405.60 1.958
405.70 1.952
405.80 1.946
405.90 1.939
406.00 1.932
406.10 1.925
406.20 1.917
406.30 1.91
406.40 1.901
406.50 1.893
406.60 1.884
406.70 1.875
406.80 1.866
406.90 1.856
407.00 1.846
407.10 1.836
407.20 1.825
407.30 1.813
407.40 1.802
407.50 1.79
407.60 1.777
407.70 1.765
407.80 1.751
407.90 1.737
408.00 1.723
408.10 1.709
408.20 1.693
408.30 1.677
408.40 1.661
408.50 1.644
408.60 1.626
408.70 1.608
408.80 1.59
408.90 1.57
409.00 1.55
409.10 1.529
409.20 1.507
409.30 1.485
409.40 1.461
409.50 1.437
409.60 1.412
409.70 1.386
409.80 1.359
409.90 1.332
410.00 1.308
410.10 1.293
410.20 1.289
410.30 1.299
410.40 1.316
410.50 1.341
410.60 1.365
410.70 1.389
410.80 1.413
410.90 1.435
411.00 1.456
411.10 1.477
411.20 1.496
411.30 1.515
411.40 1.533
411.50 1.55
411.60 1.566
411.70 1.582
411.80 1.597
411.90 1.612
412.00 1.625
412.10 1.639
412.20 1.651
412.30 1.663
412.40 1.675
412.50 1.686
412.60 1.697
412.70 1.707
412.80 1.716
412.90 1.726
413.00 1.735
413.10 1.743
413.20 1.751
413.30 1.759
413.40 1.766
413.50 1.773
413.60 1.78
413.70 1.786
413.80 1.792
413.90 1.798
414.00 1.803
414.10 1.809
414.20 1.813
414.30 1.818
414.40 1.823
414.50 1.827
414.60 1.831
414.70 1.834
414.80 1.838
414.90 1.841
415.00 1.844
415.10 1.847
415.20 1.85
415.30 1.853
415.40 1.855
415.50 1.857
415.60 1.859
415.70 1.861
415.80 1.863
415.90 1.865
416.00 1.866
416.10 1.868
416.20 1.869
416.30 1.87
416.40 1.871
416.50 1.872
416.60 1.873
416.70 1.874
416.80 1.875
416.90 1.875
417.00 1.876
417.10 1.876
417.20 1.876
417.30 1.877
417.40 1.877
417.50 1.877
417.60 1.877
417.70 1.877
417.80 1.877
417.90 1.877
418.00 1.877
418.10 1.876
418.20 1.876
418.30 1.876
418.40 1.875
418.50 1.875
418.60 1.874
418.70 1.874
418.80 1.873
418.90 1.872
419.00 1.872
419.10 1.871
419.20 1.87
419.30 1.869
419.40 1.869
419.50 1.868
419.60 1.867
419.70 1.866
419.80 1.865
419.90 1.864
420.00 1.863
420.10 1.862
420.20 1.861
420.30 1.86
420.40 1.858
420.50 1.857
420.60 1.856
420.70 1.855
420.80 1.854
420.90 1.852
421.00 1.851
421.10 1.85
421.20 1.848
421.30 1.847
421.40 1.846
421.50 1.844
421.60 1.843
421.70 1.841
421.80 1.84
421.90 1.838
422.00 1.837
422.10 1.835
422.20 1.834
422.30 1.832
422.40 1.83
422.50 1.829
422.60 1.827
422.70 1.826
422.80 1.824
422.90 1.822
423.00 1.82
423.10 1.819
423.20 1.817
423.30 1.815
423.40 1.813
423.50 1.811
423.60 1.81
423.70 1.808
423.80 1.806
423.90 1.804
424.00 1.802
424.10 1.8
424.20 1.798
424.30 1.796
424.40 1.794
424.50 1.792
424.60 1.79
424.70 1.788
424.80 1.785
424.90 1.783
425.00 1.781
425.10 1.779
425.20 1.776
425.30 1.774
425.40 1.772
425.50 1.769
425.60 1.767
425.70 1.764
425.80 1.762
425.90 1.759
426.00 1.757
426.10 1.754
426.20 1.751
426.30 1.748
426.40 1.745
426.50 1.743
426.60 1.74
426.70 1.737
426.80 1.733
426.90 1.73
427.00 1.727
427.10 1.724
427.20 1.72
427.30 1.717
427.40 1.713
427.50 1.71
427.60 1.706
427.70 1.702
427.80 1.698
427.90 1.694
428.00 1.69
428.10 1.686
428.20 1.682
428.30 1.677
428.40 1.673
428.50 1.668
428.60 1.663
428.70 1.658
428.80 1.653
428.90 1.648
429.00 1.642
429.10 1.637
429.20 1.631
429.30 1.625
429.40 1.619
429.50 1.613
429.60 1.606
429.70 1.6
429.80 1.593
429.90 1.586
430.00 1.579
430.10 1.571
430.20 1.564
430.30 1.556
430.40 1.548
430.50 1.539
430.60 1.531
430.70 1.522
430.80 1.513
430.90 1.504
431.00 1.494
431.10 1.484
431.20 1.474
431.30 1.463
431.40 1.452
431.50 1.441
431.60 1.429
431.70 1.417
431.80 1.405
431.90 1.392
432.00 1.378
432.10 1.365
432.20 1.35
432.30 1.336
432.40 1.32
432.50 1.304
432.60 1.288
432.70 1.271
432.80 1.253
432.90 1.235
433.00 1.216
433.10 1.195
433.20 1.174
433.30 1.152
433.40 1.129
433.50 1.104
433.60 1.079
433.70 1.051
433.80 1.023
433.90 0.9944
434.00 0.9592
434.10 0.9593
434.20 0.9945
434.30 1.022
434.40 1.048
434.50 1.074
434.60 1.098
434.70 1.12
434.80 1.142
434.90 1.162
435.00 1.181
435.10 1.199
435.20 1.216
435.30 1.232
435.40 1.248
435.50 1.263
435.60 1.277
435.70 1.291
435.80 1.303
435.90 1.316
436.00 1.328
436.10 1.339
436.20 1.35
436.30 1.36
436.40 1.37
436.50 1.38
436.60 1.389
436.70 1.397
436.80 1.406
436.90 1.414
437.00 1.421
437.10 1.429
437.20 1.436
437.30 1.442
437.40 1.449
437.50 1.455
437.60 1.46
437.70 1.466
437.80 1.471
437.90 1.476
438.00 1.481
438.10 1.486
438.20 1.49
438.30 1.494
438.40 1.498
438.50 1.502
438.60 1.506
438.70 1.509
438.80 1.512
438.90 1.515
439.00 1.518
439.10 1.521
439.20 1.523
439.30 1.526
439.40 1.528
439.50 1.53
439.60 1.532
439.70 1.534
439.80 1.535
439.90 1.537
440.00 1.538
440.10 1.54
440.20 1.541
440.30 1.542
440.40 1.543
440.50 1.544
440.60 1.545
440.70 1.546
440.80 1.546
440.90 1.547
441.00 1.547
441.10 1.548
441.20 1.548
441.30 1.548
441.40 1.549
441.50 1.549
441.60 1.549
441.70 1.549
441.80 1.549
441.90 1.549
442.00 1.549
442.10 1.549
442.20 1.549
442.30 1.548
442.40 1.548
442.50 1.548
442.60 1.548
442.70 1.547
442.80 1.547
442.90 1.546
443.00 1.546
443.10 1.546
443.20 1.545
443.30 1.545
443.40 1.544
443.50 1.543
443.60 1.543
443.70 1.542
443.80 1.541
443.90 1.541
444.00 1.54
444.10 1.539
444.20 1.539
444.30 1.538
444.40 1.537
444.50 1.536
444.60 1.536
444.70 1.535
444.80 1.534
444.90 1.533
445.00 1.532
445.10 1.532
445.20 1.531
445.30 1.53
445.40 1.529
445.50 1.528
445.60 1.527
445.70 1.526
445.80 1.525
445.90 1.524
446.00 1.524
446.10 1.523
446.20 1.522
446.30 1.521
446.40 1.52
446.50 1.519
446.60 1.518
446.70 1.517
446.80 1.516
446.90 1.515
447.00 1.514
447.10 1.513
447.20 1.512
447.30 1.511
447.40 1.51
447.50 1.509
447.60 1.508
447.70 1.507
447.80 1.506
447.90 1.505
448.00 1.504
448.10 1.502
448.20 1.501
448.30 1.5
448.40 1.499
448.50 1.498
448.60 1.497
448.70 1.496
448.80 1.495
448.90 1.494
449.00 1.493
449.10 1.492
449.20 1.491
449.30 1.49
449.40 1.489
449.50 1.487
449.60 1.486
449.70 1.485
449.80 1.484
449.90 1.483
450.00 1.482
450.10 1.481
450.20 1.48
450.30 1.479
450.40 1.478
450.50 1.476
450.60 1.475
450.70 1.474
450.80 1.473
450.90 1.472
451.00 1.471
451.10 1.47
451.20 1.469
451.30 1.468
451.40 1.466
451.50 1.465
451.60 1.464
451.70 1.463
451.80 1.462
451.90 1.461
452.00 1.46
452.10 1.459
452.20 1.457
452.30 1.456
452.40 1.455
452.50 1.454
452.60 1.453
452.70 1.452
452.80 1.451
452.90 1.45
453.00 1.448
453.10 1.447
453.20 1.446
453.30 1.445
453.40 1.444
453.50 1.443
453.60 1.442
453.70 1.44
453.80 1.439
453.90 1.438
454.00 1.437
454.10 1.436
454.20 1.435
454.30 1.434
454.40 1.433
454.50 1.431
454.60 1.43
454.70 1.429
454.80 1.428
454.90 1.427
455.00 1.426
455.10 1.425
455.20 1.424
455.30 1.422
455.40 1.421
455.50 1.42
455.60 1.419
455.70 1.418
455.80 1.417
455.90 1.416
456.00 1.414
456.10 1.413
456.20 1.412
456.30 1.411
456.40 1.41
456.50 1.409
456.60 1.408
456.70 1.407
456.80 1.405
456.90 1.404
457.00 1.403
457.10 1.402
457.20 1.401
457.30 1.4
457.40 1.399
457.50 1.398
457.60 1.396
457.70 1.395
457.80 1.394
457.90 1.393
458.00 1.392
458.10 1.391
458.20 1.39
458.30 1.389
458.40 1.388
458.50 1.386
458.60 1.385
458.70 1.384
458.80 1.383
458.90 1.382
459.00 1.381
459.10 1.38
459.20 1.379
459.30 1.377
459.40 1.376
459.50 1.375
459.60 1.374
459.70 1.373
459.80 1.372
459.90 1.371
460.00 1.37
460.10 1.369
460.20 1.367
460.30 1.366
460.40 1.365
460.50 1.364
460.60 1.363
460.70 1.362
460.80 1.361
460.90 1.36
461.00 1.359
461.10 1.357
461.20 1.356
461.30 1.355
461.40 1.354
461.50 1.353
461.60 1.352
461.70 1.351
461.80 1.35
461.90 1.349
462.00 1.347
462.10 1.346
462.20 1.345
462.30 1.344
462.40 1.343
462.50 1.342
462.60 1.341
462.70 1.34
462.80 1.339
462.90 1.338
463.00 1.336
463.10 1.335
463.20 1.334
463.30 1.333
463.40 1.332
463.50 1.331
463.60 1.33
463.70 1.329
463.80 1.328
463.90 1.327
464.00 1.325
464.10 1.324
464.20 1.323
464.30 1.322
464.40 1.321
464.50 1.32
464.60 1.319
464.70 1.318
464.80 1.317
464.90 1.316
465.00 1.314
465.10 1.313
465.20 1.312
465.30 1.311
465.40 1.31
465.50 1.309
465.60 1.308
465.70 1.307
465.80 1.306
465.90 1.305
466.00 1.303
466.10 1.302
466.20 1.301
466.30 1.3
466.40 1.299
466.50 1.298
466.60 1.297
466.70 1.296
466.80 1.295
466.90 1.294
467.00 1.292
467.10 1.291
467.20 1.29
467.30 1.289
467.40 1.288
467.50 1.287
467.60 1.286
467.70 1.285
467.80 1.284
467.90 1.283
468.00 1.281
468.10 1.28
468.20 1.279
468.30 1.278
468.40 1.277
468.50 1.276
468.60 1.275
468.70 1.274
468.80 1.273
468.90 1.271
469.00 1.27
469.10 1.269
469.20 1.268
469.30 1.267
469.40 1.266
469.50 1.265
469.60 1.264
469.70 1.262
469.80 1.261
469.90 1.26
470.00 1.259
470.10 1.258
470.20 1.257
470.30 1.256
470.40 1.255
470.50 1.253
470.60 1.252
470.70 1.251
470.80 1.25
470.90 1.249
471.00 1.248
471.10 1.247
471.20 1.245
471.30 1.244
471.40 1.243
471.50 1.242
471.60 1.241
471.70 1.24
471.80 1.238
471.90 1.237
472.00 1.236
472.10 1.235
472.20 1.234
472.30 1.233
472.40 1.231
472.50 1.23
472.60 1.229
472.70 1.228
472.80 1.227
472.90 1.225
473.00 1.224
473.10 1.223
473.20 1.222
473.30 1.221
473.40 1.219
473.50 1.218
473.60 1.217
473.70 1.216
473.80 1.214
473.90 1.213
474.00 1.212
474.10 1.211
474.20 1.209
474.30 1.208
474.40 1.207
474.50 1.205
474.60 1.204
474.70 1.203
474.80 1.201
474.90 1.2
475.00 1.199
475.10 1.197
475.20 1.196
475.30 1.195
475.40 1.193
475.50 1.192
475.60 1.19
475.70 1.189
475.80 1.188
475.90 1.186
476.00 1.185
476.10 1.183
476.20 1.182
476.30 1.18
476.40 1.179
476.50 1.177
476.60 1.176
476.70 1.174
476.80 1.173
476.90 1.171
477.00 1.169
477.10 1.168
477.20 1.166
477.30 1.164
477.40 1.163
477.50 1.161
477.60 1.159
477.70 1.158
477.80 1.156
477.90 1.154
478.00 1.152
478.10 1.151
478.20 1.149
478.30 1.147
478.40 1.145
478.50 1.142
478.60 1.14
478.70 1.138
478.80 1.136
478.90 1.134
479.00 1.132
479.10 1.13
479.20 1.128
479.30 1.126
479.40 1.123
479.50 1.121
479.60 1.118
479.70 1.116
479.80 1.113
479.90 1.111
480.00 1.108
480.10 1.106
480.20 1.103
480.30 1.1
480.40 1.097
480.50 1.094
480.60 1.091
480.70 1.088
480.80 1.085
480.90 1.082
481.00 1.079
481.10 1.076
481.20 1.072
481.30 1.068
481.40 1.064
481.50 1.06
481.60 1.056
481.70 1.052
481.80 1.049
481.90 1.045
482.00 1.041
482.10 1.037
482.20 1.032
482.30 1.027
482.40 1.021
482.50 1.016
482.60 1.011
482.70 1.006
482.80 1.001
482.90 0.9953
483.00 0.9901
483.10 0.9849
483.20 0.9784
483.30 0.9713
483.40 0.9641
483.50 0.957
483.60 0.9499
483.70 0.9427
483.80 0.9356
483.90 0.9285
484.00 0.9214
484.10 0.9143
484.20 0.9058
484.30 0.8966
484.40 0.8874
484.50 0.8782
484.60 0.8691
484.70 0.8585
484.80 0.8472
484.90 0.836
485.00 0.8247
485.10 0.8135
485.20 0.8008
485.30 0.7874
485.40 0.7729
485.50 0.7578
485.60 0.7411
485.70 0.7237
485.80 0.7041
485.90 0.6833
486.00 0.6606
486.10 0.6363
486.20 0.6433
486.30 0.6675
486.40 0.688
486.50 0.7078
486.60 0.7253
486.70 0.7418
486.80 0.7565
486.90 0.7705
487.00 0.7832
487.10 0.7953
487.20 0.806
487.30 0.816
487.40 0.826
487.50 0.836
487.60 0.846
487.70 0.8544
487.80 0.8622
487.90 0.87
488.00 0.8777
488.10 0.8855
488.20 0.8918
488.30 0.8974
488.40 0.903
488.50 0.9085
488.60 0.9141
488.70 0.9197
488.80 0.9253
488.90 0.9308
489.00 0.9364
489.10 0.9419
489.20 0.9461
489.30 0.9497
489.40 0.9532
489.50 0.9568
489.60 0.9603
489.70 0.9639
489.80 0.9674
489.90 0.971
490.00 0.9745
490.10 0.978
490.20 0.9806
490.30 0.9828
490.40 0.985
490.50 0.9872
490.60 0.9894
490.70 0.9916
490.80 0.9937
490.90 0.9959
491.00 0.9981
491.10 1
491.20 1.002
491.30 1.003
491.40 1.004
491.50 1.006
491.60 1.007
491.70 1.008
491.80 1.009
491.90 1.011
492.00 1.012
492.10 1.013
492.20 1.014
492.30 1.015
492.40 1.015
492.50 1.016
492.60 1.016
492.70 1.017
492.80 1.018
492.90 1.018
493.00 1.019
493.10 1.02
493.20 1.02
493.30 1.02
493.40 1.02
493.50 1.021
493.60 1.021
493.70 1.021
493.80 1.021
493.90 1.021
494.00 1.022
494.10 1.022
494.20 1.022
494.30 1.022
494.40 1.022
494.50 1.022
494.60 1.022
494.70 1.022
494.80 1.022
494.90 1.022
495.00 1.021
495.10 1.021
495.20 1.021
495.30 1.021
495.40 1.021
495.50 1.02
495.60 1.02
495.70 1.02
495.80 1.02
495.90 1.019
496.00 1.019
496.10 1.019
496.20 1.019
496.30 1.018
496.40 1.018
496.50 1.017
496.60 1.017
496.70 1.017
496.80 1.016
496.90 1.016
497.00 1.016
497.10 1.015
497.20 1.015
497.30 1.014
497.40 1.014
497.50 1.013
497.60 1.013
497.70 1.012
497.80 1.012
497.90 1.011
498.00 1.011
498.10 1.01
498.20 1.01
498.30 1.009
498.40 1.009
498.50 1.008
498.60 1.008
498.70 1.007
498.80 1.007
498.90 1.006
499.00 1.006
499.10 1.005
499.20 1.005
499.30 1.004
499.40 1.003
499.50 1.003
499.60 1.002
499.70 1.002
499.80 1.001
499.90 1.001
500.00 1
500.10 0.9994
500.20 0.9988
500.30 0.9982
500.40 0.9976
500.50 0.997
500.60 0.9964
500.70 0.9958
500.80 0.9952
500.90 0.9946
501.00 0.994
501.10 0.9934
501.20 0.9927
501.30 0.9921
501.40 0.9915
501.50 0.9908
501.60 0.9902
501.70 0.9896
501.80 0.989
501.90 0.9883
502.00 0.9877
502.10 0.9871
502.20 0.9864
502.30 0.9858
502.40 0.9851
502.50 0.9845
502.60 0.9838
502.70 0.9832
502.80 0.9826
502.90 0.9819
503.00 0.9813
503.10 0.9806
503.20 0.98
503.30 0.9793
503.40 0.9787
503.50 0.978
503.60 0.9774
503.70 0.9767
503.80 0.9761
503.90 0.9754
504.00 0.9747
504.10 0.9741
504.20 0.9734
504.30 0.9728
504.40 0.9721
504.50 0.9715
504.60 0.9708
504.70 0.9701
504.80 0.9695
504.90 0.9688
505.00 0.9682
505.10 0.9675
505.20 0.9668
505.30 0.9662
505.40 0.9655
505.50 0.9648
505.60 0.9642
505.70 0.9635
505.80 0.9628
505.90 0.9622
506.00 0.9615
506.10 0.9609
506.20 0.9602
506.30 0.9595
506.40 0.9589
506.50 0.9582
506.60 0.9575
506.70 0.9569
506.80 0.9562
506.90 0.9555
507.00 0.9549
507.10 0.9542
507.20 0.9535
507.30 0.9529
507.40 0.9522
507.50 0.9515
507.60 0.9509
507.70 0.9502
507.80 0.9495
507.90 0.9489
508.00 0.9482
508.10 0.9475
508.20 0.9469
508.30 0.9462
508.40 0.9455
508.50 0.9449
508.60 0.9442
508.70 0.9436
508.80 0.9429
508.90 0.9422
509.00 0.9416
509.10 0.9409
509.20 0.9402
509.30 0.9396
509.40 0.9389
509.50 0.9382
509.60 0.9376
509.70 0.9369
509.80 0.9363
509.90 0.9356
510.00 0.9349
510.10 0.9343
510.20 0.9336
510.30 0.933
510.40 0.9323
510.50 0.9316
510.60 0.931
510.70 0.9303
510.80 0.9297
510.90 0.929
511.00 0.9283
511.10 0.9277
511.20 0.927
511.30 0.9264
511.40 0.9257
511.50 0.925
511.60 0.9244
511.70 0.9237
511.80 0.9231
511.90 0.9224
512.00 0.9218
512.10 0.9211
512.20 0.9205
512.30 0.9198
512.40 0.9191
512.50 0.9185
512.60 0.9178
512.70 0.9172
512.80 0.9165
512.90 0.9159
513.00 0.9152
513.10 0.9146
513.20 0.9139
513.30 0.9133
513.40 0.9126
513.50 0.912
513.60 0.9113
513.70 0.9107
513.80 0.91
513.90 0.9094
514.00 0.9087
514.10 0.9081
514.20 0.9074
514.30 0.9068
514.40 0.9061
514.50 0.9055
514.60 0.9049
514.70 0.9042
514.80 0.9036
514.90 0.9029
515.00 0.9023
515.10 0.9016
515.20 0.901
515.30 0.9004
515.40 0.8997
515.50 0.8991
515.60 0.8984
515.70 0.8978
515.80 0.8972
515.90 0.8965
516.00 0.8959
516.10 0.8952
516.20 0.8946
516.30 0.894
516.40 0.8933
516.50 0.8927
516.60 0.892
516.70 0.8914
516.80 0.8908
516.90 0.8901
517.00 0.8895
517.10 0.8889
517.20 0.8882
517.30 0.8876
517.40 0.887
517.50 0.8863
517.60 0.8857
517.70 0.8851
517.80 0.8845
517.90 0.8838
518.00 0.8832
518.10 0.8826
518.20 0.8819
518.30 0.8813
518.40 0.8807
518.50 0.8801
518.60 0.8794
518.70 0.8788
518.80 0.8782
518.90 0.8776
519.00 0.8769
519.10 0.8763
519.20 0.8757
519.30 0.8751
519.40 0.8744
519.50 0.8738
519.60 0.8732
519.70 0.8726
519.80 0.8719
519.90 0.8713
520.00 0.8707
520.10 0.8701
520.20 0.8695
520.30 0.8688
520.40 0.8682
520.50 0.8676
520.60 0.867
520.70 0.8664
520.80 0.8658
520.90 0.8651
521.00 0.8645
521.10 0.8639
521.20 0.8633
521.30 0.8627
521.40 0.8621
521.50 0.8615
521.60 0.8609
521.70 0.8602
521.80 0.8596
521.90 0.859
522.00 0.8584
522.10 0.8578
522.20 0.8572
522.30 0.8566
522.40 0.856
522.50 0.8554
522.60 0.8548
522.70 0.8542
522.80 0.8536
522.90 0.8529
523.00 0.8523
523.10 0.8517
523.20 0.8511
523.30 0.8505
523.40 0.8499
523.50 0.8493
523.60 0.8487
523.70 0.8481
523.80 0.8475
523.90 0.8469
524.00 0.8463
524.10 0.8457
524.20 0.8451
524.30 0.8445
524.40 0.8439
524.50 0.8433
524.60 0.8427
524.70 0.8421
524.80 0.8415
524.90 0.8409
525.00 0.8403
525.10 0.8398
525.20 0.8392
525.30 0.8386
525.40 0.838
525.50 0.8374
525.60 0.8368
525.70 0.8362
525.80 0.8356
525.90 0.835
526.00 0.8344
526.10 0.8338
526.20 0.8332
526.30 0.8327
526.40 0.8321
526.50 0.8315
526.60 0.8309
526.70 0.8303
526.80 0.8297
526.90 0.8291
527.00 0.8286
527.10 0.828
527.20 0.8274
527.30 0.8268
527.40 0.8262
527.50 0.8256
527.60 0.8251
527.70 0.8245
527.80 0.8239
527.90 0.8233
528.00 0.8227
528.10 0.8221
528.20 0.8216
528.30 0.821
528.40 0.8204
528.50 0.8198
528.60 0.8193
528.70 0.8187
528.80 0.8181
528.90 0.8175
529.00 0.817
529.10 0.8164
529.20 0.8158
529.30 0.8152
529.40 0.8147
529.50 0.8141
529.60 0.8135
529.70 0.8129
529.80 0.8124
529.90 0.8118
530.00 0.8112
530.10 0.8107
530.20 0.8101
530.30 0.8095
530.40 0.8089
530.50 0.8084
530.60 0.8078
530.70 0.8072
530.80 0.8067
530.90 0.8061
531.00 0.8055
531.10 0.805
531.20 0.8044
531.30 0.8039
531.40 0.8033
531.50 0.8027
531.60 0.8022
531.70 0.8016
531.80 0.801
531.90 0.8005
532.00 0.7999
532.10 0.7994
532.20 0.7988
532.30 0.7982
532.40 0.7977
532.50 0.7971
532.60 0.7966
532.70 0.796
532.80 0.7955
532.90 0.7949
533.00 0.7943
533.10 0.7938
533.20 0.7932
533.30 0.7927
533.40 0.7921
533.50 0.7916
533.60 0.791
533.70 0.7905
533.80 0.7899
533.90 0.7894
534.00 0.7888
534.10 0.7883
534.20 0.7877
534.30 0.7872
534.40 0.7866
534.50 0.7861
534.60 0.7855
534.70 0.785
534.80 0.7844
534.90 0.7839
535.00 0.7833
535.10 0.7828
535.20 0.7822
535.30 0.7817
535.40 0.7811
535.50 0.7806
535.60 0.78
535.70 0.7795
535.80 0.779
535.90 0.7784
536.00 0.7779
536.10 0.7773
536.20 0.7768
536.30 0.7763
536.40 0.7757
536.50 0.7752
536.60 0.7746
536.70 0.7741
536.80 0.7736
536.90 0.773
537.00 0.7725
537.10 0.7719
537.20 0.7714
537.30 0.7709
537.40 0.7703
537.50 0.7698
537.60 0.7693
537.70 0.7687
537.80 0.7682
537.90 0.7677
538.00 0.7671
538.10 0.7666
538.20 0.7661
538.30 0.7655
538.40 0.765
538.50 0.7645
538.60 0.7639
538.70 0.7634
538.80 0.7629
538.90 0.7624
539.00 0.7618
539.10 0.7613
539.20 0.7608
539.30 0.7602
539.40 0.7597
539.50 0.7592
539.60 0.7587
539.70 0.7581
539.80 0.7576
539.90 0.7571
540.00 0.7566
540.10 0.7561
540.20 0.7555
540.30 0.755
540.40 0.7545
540.50 0.754
540.60 0.7534
540.70 0.7529
540.80 0.7524
540.90 0.7519
541.00 0.7514
541.10 0.7508
541.20 0.7503
541.30 0.7498
541.40 0.7493
541.50 0.7488
541.60 0.7483
541.70 0.7477
541.80 0.7472
541.90 0.7467
542.00 0.7462
542.10 0.7457
542.20 0.7452
542.30 0.7447
542.40 0.7441
542.50 0.7436
542.60 0.7431
542.70 0.7426
542.80 0.7421
542.90 0.7416
543.00 0.7411
543.10 0.7406
543.20 0.74
543.30 0.7395
543.40 0.739
543.50 0.7385
543.60 0.738
543.70 0.7375
543.80 0.737
543.90 0.7365
544.00 0.736
544.10 0.7355
544.20 0.735
544.30 0.7345
544.40 0.734
544.50 0.7335
544.60 0.733
544.70 0.7325
544.80 0.732
544.90 0.7315
545.00 0.731
545.10 0.7304
545.20 0.7299
545.30 0.7294
545.40 0.7289
545.50 0.7284
545.60 0.7279
545.70 0.7274
545.80 0.727
545.90 0.7265
546.00 0.726
546.10 0.7255
546.20 0.725
546.30 0.7245
546.40 0.724
546.50 0.7235
546.60 0.723
546.70 0.7225
546.80 0.722
546.90 0.7215
547.00 0.721
547.10 0.7205
547.20 0.72
547.30 0.7195
547.40 0.719
547.50 0.7185
547.60 0.7181
547.70 0.7176
547.80 0.7171
547.90 0.7166
548.00 0.7161
548.10 0.7156
548.20 0.7151
548.30 0.7146
548.40 0.7141
548.50 0.7137
548.60 0.7132
548.70 0.7127
548.80 0.7122
548.90 0.7117
549.00 0.7112
549.10 0.7107
549.20 0.7103
549.30 0.7098
549.40 0.7093
549.50 0.7088
549.60 0.7083
549.70 0.7078
549.80 0.7074
549.90 0.7069
550.00 0.7064
550.10 0.7059
550.20 0.7054
550.30 0.705
550.40 0.7045
550.50 0.704
550.60 0.7035
550.70 0.703
550.80 0.7026
550.90 0.7021
551.00 0.7016
551.10 0.7011
551.20 0.7007
551.30 0.7002
551.40 0.6997
551.50 0.6992
551.60 0.6988
551.70 0.6983
551.80 0.6978
551.90 0.6973
552.00 0.6969
552.10 0.6964
552.20 0.6959
552.30 0.6954
552.40 0.695
552.50 0.6945
552.60 0.694
552.70 0.6936
552.80 0.6931
552.90 0.6926
553.00 0.6922
553.10 0.6917
553.20 0.6912
553.30 0.6907
553.40 0.6903
553.50 0.6898
553.60 0.6893
553.70 0.6889
553.80 0.6884
553.90 0.688
554.00 0.6875
554.10 0.687
554.20 0.6866
554.30 0.6861
554.40 0.6856
554.50 0.6852
554.60 0.6847
554.70 0.6842
554.80 0.6838
554.90 0.6833
555.00 0.6829
555.10 0.6824
555.20 0.6819
555.30 0.6815
555.40 0.681
555.50 0.6806
555.60 0.6801
555.70 0.6796
555.80 0.6792
555.90 0.6787
556.00 0.6783
556.10 0.6778
556.20 0.6774
556.30 0.6769
556.40 0.6764
556.50 0.676
556.60 0.6755
556.70 0.6751
556.80 0.6746
556.90 0.6742
557.00 0.6737
557.10 0.6733
557.20 0.6728
557.30 0.6724
557.40 0.6719
557.50 0.6715
557.60 0.671
557.70 0.6706
557.80 0.6701
557.90 0.6697
558.00 0.6692
558.10 0.6688
558.20 0.6683
558.30 0.6679
558.40 0.6674
558.50 0.667
558.60 0.6665
558.70 0.6661
558.80 0.6656
558.90 0.6652
559.00 0.6647
559.10 0.6643
559.20 0.6638
559.30 0.6634
559.40 0.6629
559.50 0.6625
559.60 0.6621
559.70 0.6616
559.80 0.6612
559.90 0.6607
560.00 0.6603
560.10 0.6598
560.20 0.6594
560.30 0.659
560.40 0.6585
560.50 0.6581
560.60 0.6576
560.70 0.6572
560.80 0.6568
560.90 0.6563
561.00 0.6559
561.10 0.6555
561.20 0.655
561.30 0.6546
561.40 0.6541
561.50 0.6537
561.60 0.6533
561.70 0.6528
561.80 0.6524
561.90 0.652
562.00 0.6515
562.10 0.6511
562.20 0.6507
562.30 0.6502
562.40 0.6498
562.50 0.6494
562.60 0.6489
562.70 0.6485
562.80 0.6481
562.90 0.6476
563.00 0.6472
563.10 0.6468
563.20 0.6463
563.30 0.6459
563.40 0.6455
563.50 0.645
563.60 0.6446
563.70 0.6442
563.80 0.6438
563.90 0.6433
564.00 0.6429
564.10 0.6425
564.20 0.642
564.30 0.6416
564.40 0.6412
564.50 0.6408
564.60 0.6403
564.70 0.6399
564.80 0.6395
564.90 0.6391
565.00 0.6386
565.10 0.6382
565.20 0.6378
565.30 0.6374
565.40 0.637
565.50 0.6365
565.60 0.6361
565.70 0.6357
565.80 0.6353
565.90 0.6348
566.00 0.6344
566.10 0.634
566.20 0.6336
566.30 0.6332
566.40 0.6327
566.50 0.6323
566.60 0.6319
566.70 0.6315
566.80 0.6311
566.90 0.6307
567.00 0.6302
567.10 0.6298
567.20 0.6294
567.30 0.629
567.40 0.6286
567.50 0.6282
567.60 0.6277
567.70 0.6273
567.80 0.6269
567.90 0.6265
568.00 0.6261
568.10 0.6257
568.20 0.6253
568.30 0.6248
568.40 0.6244
568.50 0.624
568.60 0.6236
568.70 0.6232
568.80 0.6228
568.90 0.6224
569.00 0.622
569.10 0.6216
569.20 0.6211
569.30 0.6207
569.40 0.6203
569.50 0.6199
569.60 0.6195
569.70 0.6191
569.80 0.6187
569.90 0.6183
570.00 0.6179
570.10 0.6175
570.20 0.6171
570.30 0.6167
570.40 0.6163
570.50 0.6158
570.60 0.6154
570.70 0.615
570.80 0.6146
570.90 0.6142
571.00 0.6138
571.10 0.6134
571.20 0.613
571.30 0.6126
571.40 0.6122
571.50 0.6118
571.60 0.6114
571.70 0.611
571.80 0.6106
571.90 0.6102
572.00 0.6098
572.10 0.6094
572.20 0.609
572.30 0.6086
572.40 0.6082
572.50 0.6078
572.60 0.6074
572.70 0.607
572.80 0.6066
572.90 0.6062
573.00 0.6058
573.10 0.6054
573.20 0.605
573.30 0.6046
573.40 0.6042
573.50 0.6038
573.60 0.6034
573.70 0.603
573.80 0.6027
573.90 0.6023
574.00 0.6019
574.10 0.6015
574.20 0.6011
574.30 0.6007
574.40 0.6003
574.50 0.5999
574.60 0.5995
574.70 0.5991
574.80 0.5987
574.90 0.5983
575.00 0.5979
575.10 0.5976
575.20 0.5972
575.30 0.5968
575.40 0.5964
575.50 0.596
575.60 0.5956
575.70 0.5952
575.80 0.5948
575.90 0.5944
576.00 0.5941
576.10 0.5937
576.20 0.5933
576.30 0.5929
576.40 0.5925
576.50 0.5921
576.60 0.5917
576.70 0.5913
576.80 0.591
576.90 0.5906
577.00 0.5902
577.10 0.5898
577.20 0.5894
577.30 0.589
577.40 0.5887
577.50 0.5883
577.60 0.5879
577.70 0.5875
577.80 0.5871
577.90 0.5868
578.00 0.5864
578.10 0.586
578.20 0.5856
578.30 0.5852
578.40 0.5848
578.50 0.5845
578.60 0.5841
578.70 0.5837
578.80 0.5833
578.90 0.583
579.00 0.5826
579.10 0.5822
579.20 0.5818
579.30 0.5814
579.40 0.5811
579.50 0.5807
579.60 0.5803
579.70 0.5799
579.80 0.5796
579.90 0.5792
580.00 0.5788
580.10 0.5784
580.20 0.5781
580.30 0.5777
580.40 0.5773
580.50 0.5769
580.60 0.5766
580.70 0.5762
580.80 0.5758
580.90 0.5754
581.00 0.5751
581.10 0.5747
581.20 0.5743
581.30 0.574
581.40 0.5736
581.50 0.5732
581.60 0.5728
581.70 0.5725
581.80 0.5721
581.90 0.5717
582.00 0.5714
582.10 0.571
582.20 0.5706
582.30 0.5703
582.40 0.5699
582.50 0.5695
582.60 0.5692
582.70 0.5688
582.80 0.5684
582.90 0.5681
583.00 0.5677
583.10 0.5673
583.20 0.567
583.30 0.5666
583.40 0.5662
583.50 0.5659
583.60 0.5655
583.70 0.5651
583.80 0.5648
583.90 0.5644
584.00 0.564
584.10 0.5637
584.20 0.5633
584.30 0.563
584.40 0.5626
584.50 0.5622
584.60 0.5619
584.70 0.5615
584.80 0.5611
584.90 0.5608
585.00 0.5604
585.10 0.5601
585.20 0.5597
585.30 0.5593
585.40 0.559
585.50 0.5586
585.60 0.5583
585.70 0.5579
585.80 0.5576
585.90 0.5572
586.00 0.5568
586.10 0.5565
586.20 0.5561
586.30 0.5558
586.40 0.5554
586.50 0.5551
586.60 0.5547
586.70 0.5543
586.80 0.554
586.90 0.5536
587.00 0.5533
587.10 0.5529
587.20 0.5526
587.30 0.5522
587.40 0.5519
587.50 0.5515
587.60 0.5512
587.70 0.5508
587.80 0.5505
587.90 0.5501
588.00 0.5497
588.10 0.5494
588.20 0.549
588.30 0.5487
588.40 0.5483
588.50 0.548
588.60 0.5476
588.70 0.5473
588.80 0.5469
588.90 0.5466
589.00 0.5462
589.10 0.5459
589.20 0.5455
589.30 0.5452
589.40 0.5449
589.50 0.5445
589.60 0.5442
589.70 0.5438
589.80 0.5435
589.90 0.5431
590.00 0.5428
590.10 0.5424
590.20 0.5421
590.30 0.5417
590.40 0.5414
590.50 0.541
590.60 0.5407
590.70 0.5404
590.80 0.54
590.90 0.5397
591.00 0.5393
591.10 0.539
591.20 0.5386
591.30 0.5383
591.40 0.5379
591.50 0.5376
591.60 0.5373
591.70 0.5369
591.80 0.5366
591.90 0.5362
592.00 0.5359
592.10 0.5356
592.20 0.5352
592.30 0.5349
592.40 0.5345
592.50 0.5342
592.60 0.5339
592.70 0.5335
592.80 0.5332
592.90 0.5328
593.00 0.5325
593.10 0.5322
593.20 0.5318
593.30 0.5315
593.40 0.5312
593.50 0.5308
593.60 0.5305
593.70 0.5301
593.80 0.5298
593.90 0.5295
594.00 0.5291
594.10 0.5288
594.20 0.5285
594.30 0.5281
594.40 0.5278
594.50 0.5275
594.60 0.5271
594.70 0.5268
594.80 0.5265
594.90 0.5261
595.00 0.5258
595.10 0.5255
595.20 0.5251
595.30 0.5248
595.40 0.5245
595.50 0.5241
595.60 0.5238
595.70 0.5235
595.80 0.5231
595.90 0.5228
596.00 0.5225
596.10 0.5221
596.20 0.5218
596.30 0.5215
596.40 0.5212
596.50 0.5208
596.60 0.5205
596.70 0.5202
596.80 0.5198
596.90 0.5195
597.00 0.5192
597.10 0.5189
597.20 0.5185
597.30 0.5182
597.40 0.5179
597.50 0.5176
597.60 0.5172
597.70 0.5169
597.80 0.5166
597.90 0.5162
598.00 0.5159
598.10 0.5156
598.20 0.5153
598.30 0.5149
598.40 0.5146
598.50 0.5143
598.60 0.514
598.70 0.5137
598.80 0.5133
598.90 0.513
599.00 0.5127
599.10 0.5124
599.20 0.512
599.30 0.5117
599.40 0.5114
599.50 0.5111
599.60 0.5108
599.70 0.5104
599.80 0.5101
599.90 0.5098
600.00 0.5095
600.10 0.5091
600.20 0.5088
600.30 0.5085
600.40 0.5082
600.50 0.5079
600.60 0.5076
600.70 0.5072
600.80 0.5069
600.90 0.5066
601.00 0.5063
601.10 0.506
601.20 0.5056
601.30 0.5053
601.40 0.505
601.50 0.5047
601.60 0.5044
601.70 0.5041
601.80 0.5037
601.90 0.5034
602.00 0.5031
602.10 0.5028
602.20 0.5025
602.30 0.5022
602.40 0.5019
602.50 0.5015
602.60 0.5012
602.70 0.5009
602.80 0.5006
602.90 0.5003
603.00 0.5
603.10 0.4997
603.20 0.4993
603.30 0.499
603.40 0.4987
603.50 0.4984
603.60 0.4981
603.70 0.4978
603.80 0.4975
603.90 0.4972
604.00 0.4969
604.10 0.4965
604.20 0.4962
604.30 0.4959
604.40 0.4956
604.50 0.4953
604.60 0.495
604.70 0.4947
604.80 0.4944
604.90 0.4941
605.00 0.4938
605.10 0.4935
605.20 0.4932
605.30 0.4928
605.40 0.4925
605.50 0.4922
605.60 0.4919
605.70 0.4916
605.80 0.4913
605.90 0.491
606.00 0.4907
606.10 0.4904
606.20 0.4901
606.30 0.4898
606.40 0.4895
606.50 0.4892
606.60 0.4889
606.70 0.4886
606.80 0.4883
606.90 0.488
607.00 0.4876
607.10 0.4873
607.20 0.487
607.30 0.4867
607.40 0.4864
607.50 0.4861
607.60 0.4858
607.70 0.4855
607.80 0.4852
607.90 0.4849
608.00 0.4846
608.10 0.4843
608.20 0.484
608.30 0.4837
608.40 0.4834
608.50 0.4831
608.60 0.4828
608.70 0.4825
608.80 0.4822
608.90 0.4819
609.00 0.4816
609.10 0.4813
609.20 0.481
609.30 0.4807
609.40 0.4804
609.50 0.4801
609.60 0.4798
609.70 0.4795
609.80 0.4792
609.90 0.4789
610.00 0.4786
610.10 0.4783
610.20 0.4781
610.30 0.4778
610.40 0.4775
610.50 0.4772
610.60 0.4769
610.70 0.4766
610.80 0.4763
610.90 0.476
611.00 0.4757
611.10 0.4754
611.20 0.4751
611.30 0.4748
611.40 0.4745
611.50 0.4742
611.60 0.4739
611.70 0.4736
611.80 0.4733
611.90 0.473
612.00 0.4728
612.10 0.4725
612.20 0.4722
612.30 0.4719
612.40 0.4716
612.50 0.4713
612.60 0.471
612.70 0.4707
612.80 0.4704
612.90 0.4701
613.00 0.4698
613.10 0.4696
613.20 0.4693
613.30 0.469
613.40 0.4687
613.50 0.4684
613.60 0.4681
613.70 0.4678
613.80 0.4675
613.90 0.4672
614.00 0.4669
614.10 0.4667
614.20 0.4664
614.30 0.4661
614.40 0.4658
614.50 0.4655
614.60 0.4652
614.70 0.4649
614.80 0.4646
614.90 0.4644
615.00 0.4641
615.10 0.4638
615.20 0.4635
615.30 0.4632
615.40 0.4629
615.50 0.4626
615.60 0.4624
615.70 0.4621
615.80 0.4618
615.90 0.4615
616.00 0.4612
616.10 0.4609
616.20 0.4607
616.30 0.4604
616.40 0.4601
616.50 0.4598
616.60 0.4595
616.70 0.4592
616.80 0.459
616.90 0.4587
617.00 0.4584
617.10 0.4581
617.20 0.4578
617.30 0.4576
617.40 0.4573
617.50 0.457
617.60 0.4567
617.70 0.4564
617.80 0.4561
617.90 0.4559
618.00 0.4556
618.10 0.4553
618.20 0.455
618.30 0.4547
618.40 0.4545
618.50 0.4542
618.60 0.4539
618.70 0.4536
618.80 0.4534
618.90 0.4531
619.00 0.4528
619.10 0.4525
619.20 0.4522
619.30 0.452
619.40 0.4517
619.50 0.4514
619.60 0.4511
619.70 0.4509
619.80 0.4506
619.90 0.4503
620.00 0.45
620.10 0.4497
620.20 0.4495
620.30 0.4492
620.40 0.4489
620.50 0.4486
620.60 0.4484
620.70 0.4481
620.80 0.4478
620.90 0.4475
621.00 0.4473
621.10 0.447
621.20 0.4467
621.30 0.4464
621.40 0.4462
621.50 0.4459
621.60 0.4456
621.70 0.4454
621.80 0.4451
621.90 0.4448
622.00 0.4445
622.10 0.4443
622.20 0.444
622.30 0.4437
622.40 0.4434
622.50 0.4432
622.60 0.4429
622.70 0.4426
622.80 0.4424
622.90 0.4421
623.00 0.4418
623.10 0.4415
623.20 0.4413
623.30 0.441
623.40 0.4407
623.50 0.4405
623.60 0.4402
623.70 0.4399
623.80 0.4397
623.90 0.4394
624.00 0.4391
624.10 0.4388
624.20 0.4386
624.30 0.4383
624.40 0.438
624.50 0.4378
624.60 0.4375
624.70 0.4372
624.80 0.437
624.90 0.4367
625.00 0.4364
625.10 0.4362
625.20 0.4359
625.30 0.4356
625.40 0.4354
625.50 0.4351
625.60 0.4348
625.70 0.4346
625.80 0.4343
625.90 0.434
626.00 0.4338
626.10 0.4335
626.20 0.4332
626.30 0.433
626.40 0.4327
626.50 0.4324
626.60 0.4322
626.70 0.4319
626.80 0.4316
626.90 0.4314
627.00 0.4311
627.10 0.4308
627.20 0.4306
627.30 0.4303
627.40 0.43
627.50 0.4298
627.60 0.4295
627.70 0.4293
627.80 0.429
627.90 0.4287
628.00 0.4285
628.10 0.4282
628.20 0.4279
628.30 0.4277
628.40 0.4274
628.50 0.4272
628.60 0.4269
628.70 0.4266
628.80 0.4264
628.90 0.4261
629.00 0.4258
629.10 0.4256
629.20 0.4253
629.30 0.4251
629.40 0.4248
629.50 0.4245
629.60 0.4243
629.70 0.424
629.80 0.4237
629.90 0.4235
630.00 0.4232
630.10 0.423
630.20 0.4227
630.30 0.4224
630.40 0.4222
630.50 0.4219
630.60 0.4217
630.70 0.4214
630.80 0.4211
630.90 0.4209
631.00 0.4206
631.10 0.4204
631.20 0.4201
631.30 0.4198
631.40 0.4196
631.50 0.4193
631.60 0.4191
631.70 0.4188
631.80 0.4185
631.90 0.4183
632.00 0.418
632.10 0.4178
632.20 0.4175
632.30 0.4173
632.40 0.417
632.50 0.4167
632.60 0.4165
632.70 0.4162
632.80 0.416
632.90 0.4157
633.00 0.4154
633.10 0.4152
633.20 0.4149
633.30 0.4147
633.40 0.4144
633.50 0.4141
633.60 0.4139
633.70 0.4136
633.80 0.4134
633.90 0.4131
634.00 0.4129
634.10 0.4126
634.20 0.4123
634.30 0.4121
634.40 0.4118
634.50 0.4116
634.60 0.4113
634.70 0.4111
634.80 0.4108
634.90 0.4105
635.00 0.4103
635.10 0.41
635.20 0.4098
635.30 0.4095
635.40 0.4092
635.50 0.409
635.60 0.4087
635.70 0.4085
635.80 0.4082
635.90 0.408
636.00 0.4077
636.10 0.4074
636.20 0.4072
636.30 0.4069
636.40 0.4067
636.50 0.4064
636.60 0.4061
636.70 0.4059
636.80 0.4056
636.90 0.4054
637.00 0.4051
637.10 0.4048
637.20 0.4046
637.30 0.4043
637.40 0.4041
637.50 0.4038
637.60 0.4035
637.70 0.4033
637.80 0.403
637.90 0.4028
638.00 0.4025
638.10 0.4022
638.20 0.402
638.30 0.4017
638.40 0.4015
638.50 0.4012
638.60 0.4009
638.70 0.4007
638.80 0.4004
638.90 0.4001
639.00 0.3999
639.10 0.3996
639.20 0.3994
639.30 0.3991
639.40 0.3988
639.50 0.3986
639.60 0.3983
639.70 0.398
639.80 0.3978
639.90 0.3975
640.00 0.3972
640.10 0.397
640.20 0.3967
640.30 0.3964
640.40 0.3962
640.50 0.3959
640.60 0.3956
640.70 0.3953
640.80 0.3951
640.90 0.3948
641.00 0.3945
641.10 0.3943
641.20 0.394
641.30 0.3937
641.40 0.3934
641.50 0.3932
641.60 0.3929
641.70 0.3926
641.80 0.3923
641.90 0.3921
642.00 0.3918
642.10 0.3915
642.20 0.3912
642.30 0.391
642.40 0.3907
642.50 0.3904
642.60 0.3901
642.70 0.3898
642.80 0.3895
642.90 0.3892
643.00 0.389
643.10 0.3887
643.20 0.3884
643.30 0.3881
643.40 0.3878
643.50 0.3875
643.60 0.3872
643.70 0.3869
643.80 0.3866
643.90 0.3863
644.00 0.386
644.10 0.3857
644.20 0.3854
644.30 0.3851
644.40 0.3848
644.50 0.3845
644.60 0.3842
644.70 0.3839
644.80 0.3836
644.90 0.3832
645.00 0.3829
645.10 0.3826
645.20 0.3823
645.30 0.382
645.40 0.3816
645.50 0.3813
645.60 0.381
645.70 0.3806
645.80 0.3803
645.90 0.38
646.00 0.3796
646.10 0.3793
646.20 0.3789
646.30 0.3786
646.40 0.3782
646.50 0.3779
646.60 0.3775
646.70 0.3771
646.80 0.3767
646.90 0.3764
647.00 0.376
647.10 0.3756
647.20 0.3753
647.30 0.3749
647.40 0.3745
647.50 0.3741
647.60 0.3736
647.70 0.3732
647.80 0.3728
647.90 0.3724
648.00 0.372
648.10 0.3716
648.20 0.3711
648.30 0.3707
648.40 0.3702
648.50 0.3697
648.60 0.3693
648.70 0.3688
648.80 0.3683
648.90 0.3678
649.00 0.3673
649.10 0.3668
649.20 0.3664
649.30 0.3659
649.40 0.3653
649.50 0.3647
649.60 0.3641
649.70 0.3635
649.80 0.3629
649.90 0.3624
650.00 0.3618
650.10 0.3612
650.20 0.3606
650.30 0.36
650.40 0.3593
650.50 0.3585
650.60 0.3578
650.70 0.3571
650.80 0.3564
650.90 0.3556
651.00 0.3549
651.10 0.3542
651.20 0.3535
651.30 0.3527
651.40 0.3517
651.50 0.3508
651.60 0.3498
651.70 0.3489
651.80 0.348
651.90 0.347
652.00 0.3461
652.10 0.3451
652.20 0.3442
652.30 0.3432
652.40 0.3419
652.50 0.3406
652.60 0.3394
652.70 0.3381
652.80 0.3368
652.90 0.3355
653.00 0.3343
653.10 0.333
653.20 0.3317
653.30 0.3304
653.40 0.3286
653.50 0.3268
653.60 0.325
653.70 0.3233
653.80 0.3215
653.90 0.3197
654.00 0.3179
654.10 0.3162
654.20 0.3144
654.30 0.3125
654.40 0.3101
654.50 0.3078
654.60 0.3054
654.70 0.3031
654.80 0.3006
654.90 0.2977
655.00 0.2947
655.10 0.2918
655.20 0.2888
655.30 0.2858
655.40 0.2822
655.50 0.2786
655.60 0.2745
655.70 0.2704
655.80 0.2657
655.90 0.2609
656.00 0.2552
656.10 0.2494
656.20 0.2388
656.30 0.2224
656.40 0.2438
656.50 0.2511
656.60 0.2565
656.70 0.2617
656.80 0.2661
656.90 0.2703
657.00 0.274
657.10 0.2776
657.20 0.2809
657.30 0.284
657.40 0.2866
657.50 0.2892
657.60 0.2918
657.70 0.2944
657.80 0.2969
657.90 0.2989
658.00 0.3009
658.10 0.3029
658.20 0.3048
658.30 0.3067
658.40 0.3081
658.50 0.3095
658.60 0.3109
658.70 0.3123
658.80 0.3137
658.90 0.315
659.00 0.3164
659.10 0.3178
659.20 0.3192
659.30 0.3205
659.40 0.3213
659.50 0.3222
659.60 0.3231
659.70 0.3239
659.80 0.3248
659.90 0.3256
660.00 0.3265
660.10 0.3274
660.20 0.3282
660.30 0.329
660.40 0.3295
660.50 0.33
660.60 0.3306
660.70 0.3311
660.80 0.3316
660.90 0.3321
661.00 0.3326
661.10 0.3332
661.20 0.3337
661.30 0.3341
661.40 0.3344
661.50 0.3347
661.60 0.335
661.70 0.3353
661.80 0.3356
661.90 0.3359
662.00 0.3362
662.10 0.3365
662.20 0.3368
662.30 0.3371
662.40 0.3372
662.50 0.3374
662.60 0.3375
662.70 0.3377
662.80 0.3378
662.90 0.338
663.00 0.3381
663.10 0.3382
663.20 0.3384
663.30 0.3385
663.40 0.3386
663.50 0.3386
663.60 0.3387
663.70 0.3387
663.80 0.3388
663.90 0.3388
664.00 0.3389
664.10 0.3389
664.20 0.339
664.30 0.339
664.40 0.339
664.50 0.339
664.60 0.3389
664.70 0.3389
664.80 0.3389
664.90 0.3389
665.00 0.3389
665.10 0.3388
665.20 0.3388
665.30 0.3388
665.40 0.3387
665.50 0.3387
665.60 0.3386
665.70 0.3385
665.80 0.3385
665.90 0.3384
666.00 0.3384
666.10 0.3383
666.20 0.3382
666.30 0.3382
666.40 0.3381
666.50 0.338
666.60 0.3379
666.70 0.3378
666.80 0.3377
666.90 0.3376
667.00 0.3375
667.10 0.3374
667.20 0.3373
667.30 0.3372
667.40 0.3371
667.50 0.337
667.60 0.3368
667.70 0.3367
667.80 0.3366
667.90 0.3365
668.00 0.3364
668.10 0.3363
668.20 0.3361
668.30 0.336
668.40 0.3359
668.50 0.3358
668.60 0.3356
668.70 0.3355
668.80 0.3354
668.90 0.3352
669.00 0.3351
669.10 0.335
669.20 0.3348
669.30 0.3347
669.40 0.3345
669.50 0.3344
669.60 0.3343
669.70 0.3341
669.80 0.334
669.90 0.3338
670.00 0.3337
670.10 0.3335
670.20 0.3334
670.30 0.3332
670.40 0.3331
670.50 0.3329
670.60 0.3328
670.70 0.3326
670.80 0.3325
670.90 0.3323
671.00 0.3322
671.10 0.332
671.20 0.3319
671.30 0.3317
671.40 0.3316
671.50 0.3314
671.60 0.3312
671.70 0.3311
671.80 0.3309
671.90 0.3308
672.00 0.3306
672.10 0.3305
672.20 0.3303
672.30 0.3301
672.40 0.33
672.50 0.3298
672.60 0.3296
672.70 0.3295
672.80 0.3293
672.90 0.3292
673.00 0.329
673.10 0.3288
673.20 0.3287
673.30 0.3285
673.40 0.3283
673.50 0.3282
673.60 0.328
673.70 0.3279
673.80 0.3277
673.90 0.3275
674.00 0.3274
674.10 0.3272
674.20 0.327
674.30 0.3269
674.40 0.3267
674.50 0.3265
674.60 0.3264
674.70 0.3262
674.80 0.326
674.90 0.3259
675.00 0.3257
675.10 0.3255
675.20 0.3254
675.30 0.3252
675.40 0.325
675.50 0.3249
675.60 0.3247
675.70 0.3245
675.80 0.3243
675.90 0.3242
676.00 0.324
676.10 0.3238
676.20 0.3237
676.30 0.3235
676.40 0.3233
676.50 0.3232
676.60 0.323
676.70 0.3228
676.80 0.3227
676.90 0.3225
677.00 0.3223
677.10 0.3221
677.20 0.322
677.30 0.3218
677.40 0.3216
677.50 0.3215
677.60 0.3213
677.70 0.3211
677.80 0.321
677.90 0.3208
678.00 0.3206
678.10 0.3204
678.20 0.3203
678.30 0.3201
678.40 0.3199
678.50 0.3198
678.60 0.3196
678.70 0.3194
678.80 0.3193
678.90 0.3191
679.00 0.3189
679.10 0.3187
679.20 0.3186
679.30 0.3184
679.40 0.3182
679.50 0.3181
679.60 0.3179
679.70 0.3177
679.80 0.3176
679.90 0.3174
680.00 0.3172
680.10 0.317
680.20 0.3169
680.30 0.3167
680.40 0.3165
680.50 0.3164
680.60 0.3162
680.70 0.316
680.80 0.3159
680.90 0.3157
681.00 0.3155
681.10 0.3153
681.20 0.3152
681.30 0.315
681.40 0.3148
681.50 0.3147
681.60 0.3145
681.70 0.3143
681.80 0.3142
681.90 0.314
682.00 0.3138
682.10 0.3137
682.20 0.3135
682.30 0.3133
682.40 0.3131
682.50 0.313
682.60 0.3128
682.70 0.3126
682.80 0.3125
682.90 0.3123
683.00 0.3121
683.10 0.312
683.20 0.3118
683.30 0.3116
683.40 0.3115
683.50 0.3113
683.60 0.3111
683.70 0.311
683.80 0.3108
683.90 0.3106
684.00 0.3104
684.10 0.3103
684.20 0.3101
684.30 0.3099
684.40 0.3098
684.50 0.3096
684.60 0.3094
684.70 0.3093
684.80 0.3091
684.90 0.3089
685.00 0.3088
685.10 0.3086
685.20 0.3084
685.30 0.3083
685.40 0.3081
685.50 0.3079
685.60 0.3078
685.70 0.3076
685.80 0.3074
685.90 0.3073
686.00 0.3071
686.10 0.3069
686.20 0.3068
686.30 0.3066
686.40 0.3064
686.50 0.3063
686.60 0.3061
686.70 0.3059
686.80 0.3058
686.90 0.3056
687.00 0.3054
687.10 0.3053
687.20 0.3051
687.30 0.3049
687.40 0.3048
687.50 0.3046
687.60 0.3044
687.70 0.3043
687.80 0.3041
687.90 0.3039
688.00 0.3038
688.10 0.3036
688.20 0.3035
688.30 0.3033
688.40 0.3031
688.50 0.303
688.60 0.3028
688.70 0.3026
688.80 0.3025
688.90 0.3023
689.00 0.3021
689.10 0.302
689.20 0.3018
689.30 0.3016
689.40 0.3015
689.50 0.3013
689.60 0.3012
689.70 0.301
689.80 0.3008
689.90 0.3007
690.00 0.3005
690.10 0.3003
690.20 0.3002
690.30 0.3
690.40 0.2999
690.50 0.2997
690.60 0.2995
690.70 0.2994
690.80 0.2992
690.90 0.299
691.00 0.2989
691.10 0.2987
691.20 0.2986
691.30 0.2984
691.40 0.2982
691.50 0.2981
691.60 0.2979
691.70 0.2977
691.80 0.2976
691.90 0.2974
692.00 0.2973
692.10 0.2971
692.20 0.2969
692.30 0.2968
692.40 0.2966
692.50 0.2965
692.60 0.2963
692.70 0.2961
692.80 0.296
692.90 0.2958
693.00 0.2957
693.10 0.2955
693.20 0.2953
693.30 0.2952
693.40 0.295
693.50 0.2949
693.60 0.2947
693.70 0.2945
693.80 0.2944
693.90 0.2942
694.00 0.2941
694.10 0.2939
694.20 0.2937
694.30 0.2936
694.40 0.2934
694.50 0.2933
694.60 0.2931
694.70 0.2929
694.80 0.2928
694.90 0.2926
695.00 0.2925
695.10 0.2923
695.20 0.2921
695.30 0.292
695.40 0.2918
695.50 0.2917
695.60 0.2915
695.70 0.2914
695.80 0.2912
695.90 0.291
696.00 0.2909
696.10 0.2907
696.20 0.2906
696.30 0.2904
696.40 0.2903
696.50 0.2901
696.60 0.2899
696.70 0.2898
696.80 0.2896
696.90 0.2895
697.00 0.2893
697.10 0.2892
697.20 0.289
697.30 0.2889
697.40 0.2887
697.50 0.2885
697.60 0.2884
697.70 0.2882
697.80 0.2881
697.90 0.2879
698.00 0.2878
698.10 0.2876
698.20 0.2875
698.30 0.2873
698.40 0.2871
698.50 0.287
698.60 0.2868
698.70 0.2867
698.80 0.2865
698.90 0.2864
699.00 0.2862
699.10 0.2861
699.20 0.2859
699.30 0.2857
699.40 0.2856
699.50 0.2854
699.60 0.2853
699.70 0.2851
699.80 0.285
699.90 0.2848
700.00 0.2847
700.10 0.2845
700.20 0.2844
700.30 0.2842
700.40 0.2841
700.50 0.2839
700.60 0.2838
700.70 0.2836
700.80 0.2834
700.90 0.2833
701.00 0.2831
701.10 0.283
701.20 0.2828
701.30 0.2827
701.40 0.2825
701.50 0.2824
701.60 0.2822
701.70 0.2821
701.80 0.2819
701.90 0.2818
702.00 0.2816
702.10 0.2815
702.20 0.2813
702.30 0.2812
702.40 0.281
702.50 0.2809
702.60 0.2807
702.70 0.2806
702.80 0.2804
702.90 0.2803
703.00 0.2801
703.10 0.28
703.20 0.2798
703.30 0.2797
703.40 0.2795
703.50 0.2794
703.60 0.2792
703.70 0.2791
703.80 0.2789
703.90 0.2788
704.00 0.2786
704.10 0.2785
704.20 0.2783
704.30 0.2782
704.40 0.278
704.50 0.2779
704.60 0.2777
704.70 0.2776
704.80 0.2774
704.90 0.2773
705.00 0.2771
705.10 0.277
705.20 0.2768
705.30 0.2767
705.40 0.2765
705.50 0.2764
705.60 0.2762
705.70 0.2761
705.80 0.2759
705.90 0.2758
706.00 0.2756
706.10 0.2755
706.20 0.2753
706.30 0.2752
706.40 0.2751
706.50 0.2749
706.60 0.2748
706.70 0.2746
706.80 0.2745
706.90 0.2743
707.00 0.2742
707.10 0.274
707.20 0.2739
707.30 0.2737
707.40 0.2736
707.50 0.2734
707.60 0.2733
707.70 0.2731
707.80 0.273
707.90 0.2729
708.00 0.2727
708.10 0.2726
708.20 0.2724
708.30 0.2723
708.40 0.2721
708.50 0.272
708.60 0.2718
708.70 0.2717
708.80 0.2715
708.90 0.2714
709.00 0.2713
709.10 0.2711
709.20 0.271
709.30 0.2708
709.40 0.2707
709.50 0.2705
709.60 0.2704
709.70 0.2702
709.80 0.2701
709.90 0.27
710.00 0.2698
710.10 0.2697
710.20 0.2695
710.30 0.2694
710.40 0.2692
710.50 0.2691
710.60 0.2689
710.70 0.2688
710.80 0.2687
710.90 0.2685
711.00 0.2684
711.10 0.2682
711.20 0.2681
711.30 0.2679
711.40 0.2678
711.50 0.2677
711.60 0.2675
711.70 0.2674
711.80 0.2672
711.90 0.2671
712.00 0.267
712.10 0.2668
712.20 0.2667
712.30 0.2665
712.40 0.2664
712.50 0.2662
712.60 0.2661
712.70 0.266
712.80 0.2658
712.90 0.2657
713.00 0.2655
713.10 0.2654
713.20 0.2653
713.30 0.2651
713.40 0.265
713.50 0.2648
713.60 0.2647
713.70 0.2646
713.80 0.2644
713.90 0.2643
714.00 0.2641
714.10 0.264
714.20 0.2639
714.30 0.2637
714.40 0.2636
714.50 0.2634
714.60 0.2633
714.70 0.2632
714.80 0.263
714.90 0.2629
715.00 0.2627
715.10 0.2626
715.20 0.2625
715.30 0.2623
715.40 0.2622
715.50 0.262
715.60 0.2619
715.70 0.2618
715.80 0.2616
715.90 0.2615
716.00 0.2613
716.10 0.2612
716.20 0.2611
716.30 0.2609
716.40 0.2608
716.50 0.2607
716.60 0.2605
716.70 0.2604
716.80 0.2602
716.90 0.2601
717.00 0.26
717.10 0.2598
717.20 0.2597
717.30 0.2596
717.40 0.2594
717.50 0.2593
717.60 0.2591
717.70 0.259
717.80 0.2589
717.90 0.2587
718.00 0.2586
718.10 0.2585
718.20 0.2583
718.30 0.2582
718.40 0.2581
718.50 0.2579
718.60 0.2578
718.70 0.2576
718.80 0.2575
718.90 0.2574
719.00 0.2572
719.10 0.2571
719.20 0.257
719.30 0.2568
719.40 0.2567
719.50 0.2566
719.60 0.2564
719.70 0.2563
719.80 0.2562
719.90 0.256
720.00 0.2559
720.10 0.2557
720.20 0.2556
720.30 0.2555
720.40 0.2553
720.50 0.2552
720.60 0.2551
720.70 0.2549
720.80 0.2548
720.90 0.2547
721.00 0.2545
721.10 0.2544
721.20 0.2543
721.30 0.2541
721.40 0.254
721.50 0.2539
721.60 0.2537
721.70 0.2536
721.80 0.2535
721.90 0.2533
722.00 0.2532
722.10 0.2531
722.20 0.2529
722.30 0.2528
722.40 0.2527
722.50 0.2525
722.60 0.2524
722.70 0.2523
722.80 0.2522
722.90 0.252
723.00 0.2519
723.10 0.2518
723.20 0.2516
723.30 0.2515
723.40 0.2514
723.50 0.2512
723.60 0.2511
723.70 0.251
723.80 0.2508
723.90 0.2507
724.00 0.2506
724.10 0.2504
724.20 0.2503
724.30 0.2502
724.40 0.25
724.50 0.2499
724.60 0.2498
724.70 0.2496
724.80 0.2495
724.90 0.2494
725.00 0.2493
725.10 0.2491
725.20 0.249
725.30 0.2489
725.40 0.2487
725.50 0.2486
725.60 0.2485
725.70 0.2483
725.80 0.2482
725.90 0.2481
726.00 0.248
726.10 0.2478
726.20 0.2477
726.30 0.2476
726.40 0.2474
726.50 0.2473
726.60 0.2472
726.70 0.2471
726.80 0.2469
726.90 0.2468
727.00 0.2467
727.10 0.2465
727.20 0.2464
727.30 0.2463
727.40 0.2462
727.50 0.246
727.60 0.2459
727.70 0.2458
727.80 0.2456
727.90 0.2455
728.00 0.2454
728.10 0.2453
728.20 0.2451
728.30 0.245
728.40 0.2449
728.50 0.2447
728.60 0.2446
728.70 0.2445
728.80 0.2444
728.90 0.2442
729.00 0.2441
729.10 0.244
729.20 0.2439
729.30 0.2437
729.40 0.2436
729.50 0.2435
729.60 0.2433
729.70 0.2432
729.80 0.2431
729.90 0.243
730.00 0.2428
730.10 0.2427
730.20 0.2426
730.30 0.2425
730.40 0.2423
730.50 0.2422
730.60 0.2421
730.70 0.242
730.80 0.2418
730.90 0.2417
731.00 0.2416
731.10 0.2415
731.20 0.2413
731.30 0.2412
731.40 0.2411
731.50 0.241
731.60 0.2408
731.70 0.2407
731.80 0.2406
731.90 0.2405
732.00 0.2403
732.10 0.2402
732.20 0.2401
732.30 0.24
732.40 0.2399
732.50 0.2397
732.60 0.2396
732.70 0.2395
732.80 0.2394
732.90 0.2392
733.00 0.2391
733.10 0.239
733.20 0.2389
733.30 0.2387
733.40 0.2386
733.50 0.2385
733.60 0.2384
733.70 0.2382
733.80 0.2381
733.90 0.238
734.00 0.2379
734.10 0.2378
734.20 0.2376
734.30 0.2375
734.40 0.2374
734.50 0.2373
734.60 0.2371
734.70 0.237
734.80 0.2369
734.90 0.2368
735.00 0.2367
735.10 0.2365
735.20 0.2364
735.30 0.2363
735.40 0.2362
735.50 0.236
735.60 0.2359
735.70 0.2358
735.80 0.2357
735.90 0.2356
736.00 0.2354
736.10 0.2353
736.20 0.2352
736.30 0.2351
736.40 0.2349
736.50 0.2348
736.60 0.2347
736.70 0.2346
736.80 0.2345
736.90 0.2343
737.00 0.2342
737.10 0.2341
737.20 0.234
737.30 0.2339
737.40 0.2337
737.50 0.2336
737.60 0.2335
737.70 0.2334
737.80 0.2333
737.90 0.2331
738.00 0.233
738.10 0.2329
738.20 0.2328
738.30 0.2327
738.40 0.2325
738.50 0.2324
738.60 0.2323
738.70 0.2322
738.80 0.2321
738.90 0.2319
739.00 0.2318
739.10 0.2317
739.20 0.2316
739.30 0.2315
739.40 0.2313
739.50 0.2312
739.60 0.2311
739.70 0.231
739.80 0.2309
739.90 0.2307
740.00 0.2306
740.10 0.2305
740.20 0.2304
740.30 0.2303
740.40 0.2301
740.50 0.23
740.60 0.2299
740.70 0.2298
740.80 0.2297
740.90 0.2296
741.00 0.2294
741.10 0.2293
741.20 0.2292
741.30 0.2291
741.40 0.229
741.50 0.2289
741.60 0.2287
741.70 0.2286
741.80 0.2285
741.90 0.2284
742.00 0.2283
742.10 0.2282
742.20 0.228
742.30 0.2279
742.40 0.2278
742.50 0.2277
742.60 0.2276
742.70 0.2275
742.80 0.2273
742.90 0.2272
743.00 0.2271
743.10 0.227
743.20 0.2269
743.30 0.2268
743.40 0.2267
743.50 0.2265
743.60 0.2264
743.70 0.2263
743.80 0.2262
743.90 0.2261
744.00 0.226
744.10 0.2258
744.20 0.2257
744.30 0.2256
744.40 0.2255
744.50 0.2254
744.60 0.2253
744.70 0.2252
744.80 0.225
744.90 0.2249
745.00 0.2248
745.10 0.2247
745.20 0.2246
745.30 0.2245
745.40 0.2244
745.50 0.2242
745.60 0.2241
745.70 0.224
745.80 0.2239
745.90 0.2238
746.00 0.2237
746.10 0.2236
746.20 0.2234
746.30 0.2233
746.40 0.2232
746.50 0.2231
746.60 0.223
746.70 0.2229
746.80 0.2228
746.90 0.2226
747.00 0.2225
747.10 0.2224
747.20 0.2223
747.30 0.2222
747.40 0.2221
747.50 0.222
747.60 0.2219
747.70 0.2217
747.80 0.2216
747.90 0.2215
748.00 0.2214
748.10 0.2213
748.20 0.2212
748.30 0.2211
748.40 0.2209
748.50 0.2208
748.60 0.2207
748.70 0.2206
748.80 0.2205
748.90 0.2204
749.00 0.2203
749.10 0.2202
749.20 0.22
749.30 0.2199
749.40 0.2198
749.50 0.2197
749.60 0.2196
749.70 0.2195
749.80 0.2194
749.90 0.2193
750.00 0.2191
750.10 0.219
750.20 0.2189
750.30 0.2188
750.40 0.2187
750.50 0.2186
750.60 0.2185
750.70 0.2184
750.80 0.2183
750.90 0.2182
751.00 0.218
751.10 0.2179
751.20 0.2178
751.30 0.2177
751.40 0.2176
751.50 0.2175
751.60 0.2174
751.70 0.2173
751.80 0.2172
751.90 0.2171
752.00 0.217
752.10 0.2168
752.20 0.2167
752.30 0.2166
752.40 0.2165
752.50 0.2164
752.60 0.2163
752.70 0.2162
752.80 0.2161
752.90 0.216
753.00 0.2159
753.10 0.2158
753.20 0.2156
753.30 0.2155
753.40 0.2154
753.50 0.2153
753.60 0.2152
753.70 0.2151
753.80 0.215
753.90 0.2149
754.00 0.2148
754.10 0.2147
754.20 0.2146
754.30 0.2145
754.40 0.2144
754.50 0.2142
754.60 0.2141
754.70 0.214
754.80 0.2139
754.90 0.2138
755.00 0.2137
755.10 0.2136
755.20 0.2135
755.30 0.2134
755.40 0.2133
755.50 0.2132
755.60 0.2131
755.70 0.213
755.80 0.2128
755.90 0.2127
756.00 0.2126
756.10 0.2125
756.20 0.2124
756.30 0.2123
756.40 0.2122
756.50 0.2121
756.60 0.212
756.70 0.2119
756.80 0.2118
756.90 0.2117
757.00 0.2116
757.10 0.2115
757.20 0.2113
757.30 0.2112
757.40 0.2111
757.50 0.211
757.60 0.2109
757.70 0.2108
757.80 0.2107
757.90 0.2106
758.00 0.2105
758.10 0.2104
758.20 0.2103
758.30 0.2102
758.40 0.2101
758.50 0.21
758.60 0.2099
758.70 0.2098
758.80 0.2096
758.90 0.2095
759.00 0.2094
759.10 0.2093
759.20 0.2092
759.30 0.2091
759.40 0.209
759.50 0.2089
759.60 0.2088
759.70 0.2087
759.80 0.2086
759.90 0.2085
760.00 0.2084
760.10 0.2083
760.20 0.2082
760.30 0.2081
760.40 0.208
760.50 0.2079
760.60 0.2078
760.70 0.2077
760.80 0.2076
760.90 0.2075
761.00 0.2074
761.10 0.2072
761.20 0.2071
761.30 0.207
761.40 0.2069
761.50 0.2068
761.60 0.2067
761.70 0.2066
761.80 0.2065
761.90 0.2064
762.00 0.2063
762.10 0.2062
762.20 0.2061
762.30 0.206
762.40 0.2059
762.50 0.2058
762.60 0.2057
762.70 0.2056
762.80 0.2055
762.90 0.2054
763.00 0.2053
763.10 0.2052
763.20 0.2051
763.30 0.205
763.40 0.2049
763.50 0.2048
763.60 0.2047
763.70 0.2046
763.80 0.2045
763.90 0.2044
764.00 0.2043
764.10 0.2042
764.20 0.2041
764.30 0.204
764.40 0.2039
764.50 0.2038
764.60 0.2037
764.70 0.2036
764.80 0.2035
764.90 0.2034
765.00 0.2033
765.10 0.2032
765.20 0.2031
765.30 0.203
765.40 0.2029
765.50 0.2028
765.60 0.2027
765.70 0.2026
765.80 0.2025
765.90 0.2024
766.00 0.2023
766.10 0.2022
766.20 0.2021
766.30 0.202
766.40 0.2019
766.50 0.2018
766.60 0.2017
766.70 0.2016
766.80 0.2015
766.90 0.2014
767.00 0.2013
767.10 0.2012
767.20 0.2011
767.30 0.201
767.40 0.2009
767.50 0.2008
767.60 0.2007
767.70 0.2006
767.80 0.2005
767.90 0.2004
768.00 0.2003
768.10 0.2002
768.20 0.2001
768.30 0.2
768.40 0.1999
768.50 0.1998
768.60 0.1997
768.70 0.1996
768.80 0.1995
768.90 0.1994
769.00 0.1993
769.10 0.1992
769.20 0.1991
769.30 0.199
769.40 0.1989
769.50 0.1988
769.60 0.1987
769.70 0.1986
769.80 0.1985
769.90 0.1984
770.00 0.1983
770.10 0.1982
770.20 0.1981
770.30 0.198
770.40 0.1979
770.50 0.1978
770.60 0.1977
770.70 0.1976
770.80 0.1975
770.90 0.1974
771.00 0.1973
771.10 0.1972
771.20 0.1971
771.30 0.197
771.40 0.1969
771.50 0.1968
771.60 0.1967
771.70 0.1966
771.80 0.1965
771.90 0.1964
772.00 0.1963
772.10 0.1962
772.20 0.1961
772.30 0.196
772.40 0.196
772.50 0.1959
772.60 0.1958
772.70 0.1957
772.80 0.1956
772.90 0.1955
773.00 0.1954
773.10 0.1953
773.20 0.1952
773.30 0.1951
773.40 0.195
773.50 0.1949
773.60 0.1948
773.70 0.1947
773.80 0.1946
773.90 0.1945
774.00 0.1944
774.10 0.1943
774.20 0.1942
774.30 0.1941
774.40 0.194
774.50 0.1939
774.60 0.1938
774.70 0.1938
774.80 0.1937
774.90 0.1936
775.00 0.1935
775.10 0.1934
775.20 0.1933
775.30 0.1932
775.40 0.1931
775.50 0.193
775.60 0.1929
775.70 0.1928
775.80 0.1927
775.90 0.1926
776.00 0.1925
776.10 0.1924
776.20 0.1923
776.30 0.1922
776.40 0.1921
776.50 0.192
776.60 0.192
776.70 0.1919
776.80 0.1918
776.90 0.1917
777.00 0.1916
777.10 0.1915
777.20 0.1914
777.30 0.1913
777.40 0.1912
777.50 0.1911
777.60 0.191
777.70 0.1909
777.80 0.1908
777.90 0.1907
778.00 0.1906
778.10 0.1905
778.20 0.1904
778.30 0.1904
778.40 0.1903
778.50 0.1902
778.60 0.1901
778.70 0.19
778.80 0.1899
778.90 0.1898
779.00 0.1897
779.10 0.1896
779.20 0.1895
779.30 0.1894
779.40 0.1893
779.50 0.1892
779.60 0.1891
779.70 0.189
779.80 0.189
779.90 0.1889
780.00 0.1888
780.10 0.1887
780.20 0.1886
780.30 0.1885
780.40 0.1884
780.50 0.1883
780.60 0.1882
780.70 0.1881
780.80 0.188
780.90 0.1879
781.00 0.1879
781.10 0.1878
781.20 0.1877
781.30 0.1876
781.40 0.1875
781.50 0.1874
781.60 0.1873
781.70 0.1872
781.80 0.1871
781.90 0.187
782.00 0.1869
782.10 0.1869
782.20 0.1868
782.30 0.1867
782.40 0.1866
782.50 0.1865
782.60 0.1864
782.70 0.1863
782.80 0.1862
782.90 0.1861
783.00 0.186
783.10 0.186
783.20 0.1859
783.30 0.1858
783.40 0.1857
783.50 0.1856
783.60 0.1855
783.70 0.1854
783.80 0.1853
783.90 0.1852
784.00 0.1851
784.10 0.1851
784.20 0.185
784.30 0.1849
784.40 0.1848
784.50 0.1847
784.60 0.1846
784.70 0.1845
784.80 0.1844
784.90 0.1843
785.00 0.1842
785.10 0.1842
785.20 0.1841
785.30 0.184
785.40 0.1839
785.50 0.1838
785.60 0.1837
785.70 0.1836
785.80 0.1835
785.90 0.1834
786.00 0.1834
786.10 0.1833
786.20 0.1832
786.30 0.1831
786.40 0.183
786.50 0.1829
786.60 0.1828
786.70 0.1827
786.80 0.1826
786.90 0.1826
787.00 0.1825
787.10 0.1824
787.20 0.1823
787.30 0.1822
787.40 0.1821
787.50 0.182
787.60 0.1819
787.70 0.1818
787.80 0.1818
787.90 0.1817
788.00 0.1816
788.10 0.1815
788.20 0.1814
788.30 0.1813
788.40 0.1812
788.50 0.1811
788.60 0.1811
788.70 0.181
788.80 0.1809
788.90 0.1808
789.00 0.1807
789.10 0.1806
789.20 0.1805
789.30 0.1804
789.40 0.1804
789.50 0.1803
789.60 0.1802
789.70 0.1801
789.80 0.18
789.90 0.1799
790.00 0.1798
790.10 0.1797
790.20 0.1797
790.30 0.1796
790.40 0.1795
790.50 0.1794
790.60 0.1793
790.70 0.1792
790.80 0.1791
790.90 0.1791
791.00 0.179
791.10 0.1789
791.20 0.1788
791.30 0.1787
791.40 0.1786
791.50 0.1785
791.60 0.1785
791.70 0.1784
791.80 0.1783
791.90 0.1782
792.00 0.1781
792.10 0.178
792.20 0.1779
792.30 0.1779
792.40 0.1778
792.50 0.1777
792.60 0.1776
792.70 0.1775
792.80 0.1774
792.90 0.1773
793.00 0.1773
793.10 0.1772
793.20 0.1771
793.30 0.177
793.40 0.1769
793.50 0.1768
793.60 0.1768
793.70 0.1767
793.80 0.1766
793.90 0.1765
794.00 0.1764
794.10 0.1763
794.20 0.1762
794.30 0.1762
794.40 0.1761
794.50 0.176
794.60 0.1759
794.70 0.1758
794.80 0.1757
794.90 0.1757
795.00 0.1756
795.10 0.1755
795.20 0.1754
795.30 0.1753
795.40 0.1752
795.50 0.1751
795.60 0.1751
795.70 0.175
795.80 0.1749
795.90 0.1748
796.00 0.1747
796.10 0.1746
796.20 0.1746
796.30 0.1745
796.40 0.1744
796.50 0.1743
796.60 0.1742
796.70 0.1741
796.80 0.1741
796.90 0.174
797.00 0.1739
797.10 0.1738
797.20 0.1737
797.30 0.1736
797.40 0.1736
797.50 0.1735
797.60 0.1734
797.70 0.1733
797.80 0.1732
797.90 0.1731
798.00 0.1731
798.10 0.173
798.20 0.1729
798.30 0.1728
798.40 0.1727
798.50 0.1726
798.60 0.1726
798.70 0.1725
798.80 0.1724
798.90 0.1723
799.00 0.1722
799.10 0.1721
799.20 0.1721
799.30 0.172
799.40 0.1719
799.50 0.1718
799.60 0.1717
799.70 0.1717
799.80 0.1716
799.90 0.1715
800.00 0.1714
800.10 0.1713
800.20 0.1712
800.30 0.1712
800.40 0.1711
800.50 0.171
800.60 0.1709
800.70 0.1708
800.80 0.1708
800.90 0.1707
801.00 0.1706
801.10 0.1705
801.20 0.1704
801.30 0.1704
801.40 0.1703
801.50 0.1702
801.60 0.1701
801.70 0.17
801.80 0.17
801.90 0.1699
802.00 0.1698
802.10 0.1697
802.20 0.1696
802.30 0.1696
802.40 0.1695
802.50 0.1694
802.60 0.1693
802.70 0.1692
802.80 0.1692
802.90 0.1691
803.00 0.169
803.10 0.1689
803.20 0.1688
803.30 0.1688
803.40 0.1687
803.50 0.1686
803.60 0.1685
803.70 0.1684
803.80 0.1684
803.90 0.1683
804.00 0.1682
804.10 0.1681
804.20 0.168
804.30 0.168
804.40 0.1679
804.50 0.1678
804.60 0.1677
804.70 0.1676
804.80 0.1676
804.90 0.1675
805.00 0.1674
805.10 0.1673
805.20 0.1672
805.30 0.1672
805.40 0.1671
805.50 0.167
805.60 0.1669
805.70 0.1668
805.80 0.1668
805.90 0.1667
806.00 0.1666
806.10 0.1665
806.20 0.1664
806.30 0.1664
806.40 0.1663
806.50 0.1662
806.60 0.1661
806.70 0.1661
806.80 0.166
806.90 0.1659
807.00 0.1658
807.10 0.1657
807.20 0.1657
807.30 0.1656
807.40 0.1655
807.50 0.1654
807.60 0.1653
807.70 0.1653
807.80 0.1652
807.90 0.1651
808.00 0.165
808.10 0.165
808.20 0.1649
808.30 0.1648
808.40 0.1647
808.50 0.1646
808.60 0.1646
808.70 0.1645
808.80 0.1644
808.90 0.1643
809.00 0.1643
809.10 0.1642
809.20 0.1641
809.30 0.164
809.40 0.1639
809.50 0.1639
809.60 0.1638
809.70 0.1637
809.80 0.1636
809.90 0.1636
810.00 0.1635
810.10 0.1634
810.20 0.1633
810.30 0.1632
810.40 0.1632
810.50 0.1631
810.60 0.163
810.70 0.1629
810.80 0.1629
810.90 0.1628
811.00 0.1627
811.10 0.1626
811.20 0.1626
811.30 0.1625
811.40 0.1624
811.50 0.1623
811.60 0.1623
811.70 0.1622
811.80 0.1621
811.90 0.162
812.00 0.162
812.10 0.1619
812.20 0.1618
812.30 0.1617
812.40 0.1617
812.50 0.1616
812.60 0.1615
812.70 0.1614
812.80 0.1613
812.90 0.1613
813.00 0.1612
813.10 0.1611
813.20 0.161
813.30 0.161
813.40 0.1609
813.50 0.1608
813.60 0.1607
813.70 0.1607
813.80 0.1606
813.90 0.1605
814.00 0.1604
814.10 0.1604
814.20 0.1603
814.30 0.1602
814.40 0.1601
814.50 0.1601
814.60 0.16
814.70 0.1599
814.80 0.1598
814.90 0.1598
815.00 0.1597
815.10 0.1596
815.20 0.1595
815.30 0.1595
815.40 0.1594
815.50 0.1593
815.60 0.1592
815.70 0.1592
815.80 0.1591
815.90 0.159
816.00 0.159
816.10 0.1589
816.20 0.1588
816.30 0.1587
816.40 0.1587
816.50 0.1586
816.60 0.1585
816.70 0.1584
816.80 0.1584
816.90 0.1583
817.00 0.1582
817.10 0.1581
817.20 0.1581
817.30 0.158
817.40 0.1579
817.50 0.1578
817.60 0.1578
817.70 0.1577
817.80 0.1576
817.90 0.1575
818.00 0.1575
818.10 0.1574
818.20 0.1573
818.30 0.1572
818.40 0.1572
818.50 0.1571
818.60 0.157
818.70 0.157
818.80 0.1569
818.90 0.1568
819.00 0.1567
819.10 0.1567
819.20 0.1566
819.30 0.1565
819.40 0.1564
819.50 0.1564
819.60 0.1563
819.70 0.1562
819.80 0.1561
819.90 0.1561
820.00 0.156
820.10 0.1559
820.20 0.1559
820.30 0.1558
820.40 0.1557
820.50 0.1556
820.60 0.1556
820.70 0.1555
820.80 0.1554
820.90 0.1553
821.00 0.1553
821.10 0.1552
821.20 0.1551
821.30 0.1551
821.40 0.155
821.50 0.1549
821.60 0.1548
821.70 0.1548
821.80 0.1547
821.90 0.1546
822.00 0.1546
822.10 0.1545
822.20 0.1544
822.30 0.1543
822.40 0.1543
822.50 0.1542
822.60 0.1541
822.70 0.1541
822.80 0.154
822.90 0.1539
823.00 0.1538
823.10 0.1538
823.20 0.1537
823.30 0.1536
823.40 0.1536
823.50 0.1535
823.60 0.1534
823.70 0.1533
823.80 0.1533
823.90 0.1532
824.00 0.1531
824.10 0.1531
824.20 0.153
824.30 0.1529
824.40 0.1528
824.50 0.1528
824.60 0.1527
824.70 0.1526
824.80 0.1526
824.90 0.1525
825.00 0.1524
825.10 0.1524
825.20 0.1523
825.30 0.1522
825.40 0.1521
825.50 0.1521
825.60 0.152
825.70 0.1519
825.80 0.1519
825.90 0.1518
826.00 0.1517
826.10 0.1516
826.20 0.1516
826.30 0.1515
826.40 0.1514
826.50 0.1514
826.60 0.1513
826.70 0.1512
826.80 0.1512
826.90 0.1511
827.00 0.151
827.10 0.1509
827.20 0.1509
827.30 0.1508
827.40 0.1507
827.50 0.1507
827.60 0.1506
827.70 0.1505
827.80 0.1505
827.90 0.1504
828.00 0.1503
828.10 0.1503
828.20 0.1502
828.30 0.1501
828.40 0.15
828.50 0.15
828.60 0.1499
828.70 0.1498
828.80 0.1498
828.90 0.1497
829.00 0.1496
829.10 0.1496
829.20 0.1495
829.30 0.1494
829.40 0.1494
829.50 0.1493
829.60 0.1492
829.70 0.1491
829.80 0.1491
829.90 0.149
830.00 0.1489
830.10 0.1489
830.20 0.1488
830.30 0.1487
830.40 0.1487
830.50 0.1486
830.60 0.1485
830.70 0.1485
830.80 0.1484
830.90 0.1483
831.00 0.1483
831.10 0.1482
831.20 0.1481
831.30 0.1481
831.40 0.148
831.50 0.1479
831.60 0.1478
831.70 0.1478
831.80 0.1477
831.90 0.1476
832.00 0.1476
832.10 0.1475
832.20 0.1474
832.30 0.1474
832.40 0.1473
832.50 0.1472
832.60 0.1472
832.70 0.1471
832.80 0.147
832.90 0.147
833.00 0.1469
833.10 0.1468
833.20 0.1467
833.30 0.1467
833.40 0.1466
833.50 0.1465
833.60 0.1465
833.70 0.1464
833.80 0.1463
833.90 0.1463
834.00 0.1462
834.10 0.1461
834.20 0.1461
834.30 0.146
834.40 0.1459
834.50 0.1459
834.60 0.1458
834.70 0.1457
834.80 0.1457
834.90 0.1456
835.00 0.1455
835.10 0.1455
835.20 0.1454
835.30 0.1453
835.40 0.1452
835.50 0.1452
835.60 0.1451
835.70 0.145
835.80 0.145
835.90 0.1449
836.00 0.1448
836.10 0.1448
836.20 0.1447
836.30 0.1446
836.40 0.1446
836.50 0.1445
836.60 0.1444
836.70 0.1444
836.80 0.1443
836.90 0.1442
837.00 0.1442
837.10 0.1441
837.20 0.144
837.30 0.144
837.40 0.1439
837.50 0.1438
837.60 0.1438
837.70 0.1437
837.80 0.1436
837.90 0.1436
838.00 0.1435
838.10 0.1434
838.20 0.1434
838.30 0.1433
838.40 0.1432
838.50 0.1432
838.60 0.1431
838.70 0.143
838.80 0.143
838.90 0.1429
839.00 0.1428
839.10 0.1428
839.20 0.1427
839.30 0.1426
839.40 0.1426
839.50 0.1425
839.60 0.1424
839.70 0.1424
839.80 0.1423
839.90 0.1422
840.00 0.1422
840.10 0.1421
840.20 0.1421
840.30 0.142
840.40 0.1419
840.50 0.1419
840.60 0.1418
840.70 0.1417
840.80 0.1417
840.90 0.1416
841.00 0.1415
841.10 0.1415
841.20 0.1414
841.30 0.1413
841.40 0.1413
841.50 0.1412
841.60 0.1411
841.70 0.1411
841.80 0.141
841.90 0.1409
842.00 0.1409
842.10 0.1408
842.20 0.1407
842.30 0.1407
842.40 0.1406
842.50 0.1406
842.60 0.1405
842.70 0.1404
842.80 0.1404
842.90 0.1403
843.00 0.1402
843.10 0.1402
843.20 0.1401
843.30 0.14
843.40 0.14
843.50 0.1399
843.60 0.1398
843.70 0.1398
843.80 0.1397
843.90 0.1397
844.00 0.1396
844.10 0.1395
844.20 0.1395
844.30 0.1394
844.40 0.1393
844.50 0.1393
844.60 0.1392
844.70 0.1391
844.80 0.1391
844.90 0.139
845.00 0.1389
845.10 0.1389
845.20 0.1388
845.30 0.1388
845.40 0.1387
845.50 0.1386
845.60 0.1386
845.70 0.1385
845.80 0.1384
845.90 0.1384
846.00 0.1383
846.10 0.1382
846.20 0.1382
846.30 0.1381
846.40 0.1381
846.50 0.138
846.60 0.1379
846.70 0.1379
846.80 0.1378
846.90 0.1377
847.00 0.1377
847.10 0.1376
847.20 0.1376
847.30 0.1375
847.40 0.1374
847.50 0.1374
847.60 0.1373
847.70 0.1372
847.80 0.1372
847.90 0.1371
848.00 0.1371
848.10 0.137
848.20 0.1369
848.30 0.1369
848.40 0.1368
848.50 0.1367
848.60 0.1367
848.70 0.1366
848.80 0.1366
848.90 0.1365
849.00 0.1364
849.10 0.1364
849.20 0.1363
849.30 0.1362
849.40 0.1362
849.50 0.1361
849.60 0.1361
849.70 0.136
849.80 0.1359
849.90 0.1359
850.00 0.1358
850.10 0.1357
850.20 0.1357
850.30 0.1356
850.40 0.1356
850.50 0.1355
850.60 0.1354
850.70 0.1354
850.80 0.1353
850.90 0.1353
851.00 0.1352
851.10 0.1351
851.20 0.1351
851.30 0.135
851.40 0.1349
851.50 0.1349
851.60 0.1348
851.70 0.1348
851.80 0.1347
851.90 0.1346
852.00 0.1346
852.10 0.1345
852.20 0.1345
852.30 0.1344
852.40 0.1343
852.50 0.1343
852.60 0.1342
852.70 0.1341
852.80 0.1341
852.90 0.134
853.00 0.134
853.10 0.1339
853.20 0.1338
853.30 0.1338
853.40 0.1337
853.50 0.1337
853.60 0.1336
853.70 0.1335
853.80 0.1335
853.90 0.1334
854.00 0.1334
854.10 0.1333
854.20 0.1332
854.30 0.1332
854.40 0.1331
854.50 0.1331
854.60 0.133
854.70 0.1329
854.80 0.1329
854.90 0.1328
855.00 0.1328
855.10 0.1327
855.20 0.1326
855.30 0.1326
855.40 0.1325
855.50 0.1325
855.60 0.1324
855.70 0.1323
855.80 0.1323
855.90 0.1322
856.00 0.1322
856.10 0.1321
856.20 0.132
856.30 0.132
856.40 0.1319
856.50 0.1319
856.60 0.1318
856.70 0.1317
856.80 0.1317
856.90 0.1316
857.00 0.1316
857.10 0.1315
857.20 0.1314
857.30 0.1314
857.40 0.1313
857.50 0.1313
857.60 0.1312
857.70 0.1312
857.80 0.1311
857.90 0.131
858.00 0.131
858.10 0.1309
858.20 0.1309
858.30 0.1308
858.40 0.1308
858.50 0.1307
858.60 0.1306
858.70 0.1306
858.80 0.1305
858.90 0.1305
859.00 0.1304
859.10 0.1303
859.20 0.1303
859.30 0.1302
859.40 0.1302
859.50 0.1301
859.60 0.1301
859.70 0.13
859.80 0.1299
859.90 0.1299
860.00 0.1298
860.10 0.1298
860.20 0.1297
860.30 0.1297
860.40 0.1296
860.50 0.1295
860.60 0.1295
860.70 0.1294
860.80 0.1294
860.90 0.1293
861.00 0.1292
861.10 0.1292
861.20 0.1291
861.30 0.1291
861.40 0.129
861.50 0.129
861.60 0.1289
861.70 0.1288
861.80 0.1288
861.90 0.1287
862.00 0.1287
862.10 0.1286
862.20 0.1286
862.30 0.1285
862.40 0.1284
862.50 0.1284
862.60 0.1283
862.70 0.1283
862.80 0.1282
862.90 0.1282
863.00 0.1281
863.10 0.128
863.20 0.128
863.30 0.1279
863.40 0.1279
863.50 0.1278
863.60 0.1278
863.70 0.1277
863.80 0.1277
863.90 0.1276
864.00 0.1275
864.10 0.1275
864.20 0.1274
864.30 0.1274
864.40 0.1273
864.50 0.1273
864.60 0.1272
864.70 0.1271
864.80 0.1271
864.90 0.127
865.00 0.127
865.10 0.1269
865.20 0.1269
865.30 0.1268
865.40 0.1267
865.50 0.1267
865.60 0.1266
865.70 0.1266
865.80 0.1265
865.90 0.1265
866.00 0.1264
866.10 0.1264
866.20 0.1263
866.30 0.1262
866.40 0.1262
866.50 0.1261
866.60 0.1261
866.70 0.126
866.80 0.126
866.90 0.1259
867.00 0.1258
867.10 0.1258
867.20 0.1257
867.30 0.1257
867.40 0.1256
867.50 0.1256
867.60 0.1255
867.70 0.1255
867.80 0.1254
867.90 0.1254
868.00 0.1253
868.10 0.1252
868.20 0.1252
868.30 0.1251
868.40 0.1251
868.50 0.125
868.60 0.125
868.70 0.1249
868.80 0.1249
868.90 0.1248
869.00 0.1248
869.10 0.1247
869.20 0.1246
869.30 0.1246
869.40 0.1245
869.50 0.1245
869.60 0.1244
869.70 0.1244
869.80 0.1243
869.90 0.1243
870.00 0.1242
870.10 0.1242
870.20 0.1241
870.30 0.124
870.40 0.124
870.50 0.1239
870.60 0.1239
870.70 0.1238
870.80 0.1238
870.90 0.1237
871.00 0.1237
871.10 0.1236
871.20 0.1236
871.30 0.1235
871.40 0.1235
871.50 0.1234
871.60 0.1233
871.70 0.1233
871.80 0.1232
871.90 0.1232
872.00 0.1231
872.10 0.1231
872.20 0.123
872.30 0.123
872.40 0.1229
872.50 0.1229
872.60 0.1228
872.70 0.1228
872.80 0.1227
872.90 0.1227
873.00 0.1226
873.10 0.1225
873.20 0.1225
873.30 0.1224
873.40 0.1224
873.50 0.1223
873.60 0.1223
873.70 0.1222
873.80 0.1222
873.90 0.1221
874.00 0.1221
874.10 0.122
874.20 0.122
874.30 0.1219
874.40 0.1219
874.50 0.1218
874.60 0.1218
874.70 0.1217
874.80 0.1216
874.90 0.1216
875.00 0.1215
875.10 0.1215
875.20 0.1214
875.30 0.1214
875.40 0.1213
875.50 0.1213
875.60 0.1212
875.70 0.1212
875.80 0.1211
875.90 0.1211
876.00 0.121
876.10 0.121
876.20 0.1209
876.30 0.1209
876.40 0.1208
876.50 0.1208
876.60 0.1207
876.70 0.1207
876.80 0.1206
876.90 0.1205
877.00 0.1205
877.10 0.1204
877.20 0.1204
877.30 0.1203
877.40 0.1203
877.50 0.1202
877.60 0.1202
877.70 0.1201
877.80 0.1201
877.90 0.12
878.00 0.12
878.10 0.1199
878.20 0.1199
878.30 0.1198
878.40 0.1198
878.50 0.1197
878.60 0.1197
878.70 0.1196
878.80 0.1196
878.90 0.1195
879.00 0.1195
879.10 0.1194
879.20 0.1194
879.30 0.1193
879.40 0.1193
879.50 0.1192
879.60 0.1192
879.70 0.1191
879.80 0.1191
879.90 0.119
880.00 0.119
880.10 0.1189
880.20 0.1189
880.30 0.1188
880.40 0.1188
880.50 0.1187
880.60 0.1187
880.70 0.1186
880.80 0.1186
880.90 0.1185
881.00 0.1185
881.10 0.1184
881.20 0.1184
881.30 0.1183
881.40 0.1183
881.50 0.1182
881.60 0.1182
881.70 0.1181
881.80 0.1181
881.90 0.118
882.00 0.118
882.10 0.1179
882.20 0.1179
882.30 0.1178
882.40 0.1177
882.50 0.1177
882.60 0.1176
882.70 0.1176
882.80 0.1175
882.90 0.1175
883.00 0.1174
883.10 0.1174
883.20 0.1173
883.30 0.1173
883.40 0.1172
883.50 0.1172
883.60 0.1171
883.70 0.1171
883.80 0.117
883.90 0.117
884.00 0.1169
884.10 0.1169
884.20 0.1168
884.30 0.1168
884.40 0.1167
884.50 0.1167
884.60 0.1166
884.70 0.1166
884.80 0.1165
884.90 0.1165
885.00 0.1164
885.10 0.1164
885.20 0.1163
885.30 0.1163
885.40 0.1162
885.50 0.1162
885.60 0.1161
885.70 0.1161
885.80 0.116
885.90 0.116
886.00 0.1159
886.10 0.1159
886.20 0.1158
886.30 0.1158
886.40 0.1157
886.50 0.1157
886.60 0.1156
886.70 0.1156
886.80 0.1156
886.90 0.1155
887.00 0.1155
887.10 0.1154
887.20 0.1154
887.30 0.1153
887.40 0.1153
887.50 0.1152
887.60 0.1152
887.70 0.1151
887.80 0.1151
887.90 0.115
888.00 0.115
888.10 0.1149
888.20 0.1149
888.30 0.1148
888.40 0.1148
888.50 0.1147
888.60 0.1147
888.70 0.1147
888.80 0.1146
888.90 0.1146
889.00 0.1145
889.10 0.1145
889.20 0.1144
889.30 0.1144
889.40 0.1143
889.50 0.1143
889.60 0.1142
889.70 0.1142
889.80 0.1141
889.90 0.1141
890.00 0.114
890.10 0.114
890.20 0.114
890.30 0.1139
890.40 0.1139
890.50 0.1138
890.60 0.1138
890.70 0.1137
890.80 0.1137
890.90 0.1136
891.00 0.1136
891.10 0.1135
891.20 0.1135
891.30 0.1134
891.40 0.1134
891.50 0.1134
891.60 0.1133
891.70 0.1133
891.80 0.1132
891.90 0.1132
892.00 0.1131
892.10 0.1131
892.20 0.113
892.30 0.113
892.40 0.1129
892.50 0.1129
892.60 0.1128
892.70 0.1128
892.80 0.1127
892.90 0.1127
893.00 0.1126
893.10 0.1126
893.20 0.1125
893.30 0.1125
893.40 0.1124
893.50 0.1124
893.60 0.1123
893.70 0.1123
893.80 0.1122
893.90 0.1122
894.00 0.1121
894.10 0.1121
894.20 0.112
894.30 0.112
894.40 0.1119
894.50 0.1119
894.60 0.1118
894.70 0.1118
894.80 0.1117
894.90 0.1117
895.00 0.1117
895.10 0.1116
895.20 0.1116
895.30 0.1115
895.40 0.1115
895.50 0.1114
895.60 0.1114
895.70 0.1113
895.80 0.1113
895.90 0.1112
896.00 0.1112
896.10 0.1111
896.20 0.1111
896.30 0.111
896.40 0.111
896.50 0.1109
896.60 0.1109
896.70 0.1108
896.80 0.1108
896.90 0.1107
897.00 0.1107
897.10 0.1106
897.20 0.1106
897.30 0.1105
897.40 0.1105
897.50 0.1104
897.60 0.1104
897.70 0.1103
897.80 0.1103
897.90 0.1102
898.00 0.1102
898.10 0.1101
898.20 0.1101
898.30 0.11
898.40 0.11
898.50 0.1099
898.60 0.1099
898.70 0.1099
898.80 0.1098
898.90 0.1098
899.00 0.1097
899.10 0.1097
899.20 0.1096
899.30 0.1096
899.40 0.1095
899.50 0.1095
899.60 0.1094
899.70 0.1094
899.80 0.1093
899.90 0.1093
900.00 0.1092
900.10 0.1092
900.20 0.1091
900.30 0.1091
900.40 0.109
900.50 0.109
900.60 0.1089
900.70 0.1089
900.80 0.1088
900.90 0.1088
901.00 0.1087
901.10 0.1087
901.20 0.1086
901.30 0.1086
901.40 0.1085
901.50 0.1085
901.60 0.1084
901.70 0.1084
901.80 0.1083
901.90 0.1083
902.00 0.1083
902.10 0.1082
902.20 0.1082
902.30 0.1081
902.40 0.1081
902.50 0.1081
902.60 0.108
902.70 0.108
902.80 0.1079
902.90 0.1079
903.00 0.1079
903.10 0.1078
903.20 0.1078
903.30 0.1078
903.40 0.1077
903.50 0.1077
903.60 0.1076
903.70 0.1076
903.80 0.1076
903.90 0.1075
904.00 0.1075
904.10 0.1074
904.20 0.1074
904.30 0.1074
904.40 0.1073
904.50 0.1073
904.60 0.1073
904.70 0.1072
904.80 0.1072
904.90 0.1071
905.00 0.1071
905.10 0.1071
905.20 0.107
905.30 0.107
905.40 0.1069
905.50 0.1069
905.60 0.1069
905.70 0.1068
905.80 0.1068
905.90 0.1068
906.00 0.1067
906.10 0.1067
906.20 0.1066
906.30 0.1066
906.40 0.1066
906.50 0.1065
906.60 0.1065
906.70 0.1065
906.80 0.1064
906.90 0.1064
907.00 0.1063
907.10 0.1063
907.20 0.1063
907.30 0.1062
907.40 0.1062
907.50 0.1061
907.60 0.1061
907.70 0.106
907.80 0.106
907.90 0.106
908.00 0.1059
908.10 0.1059
908.20 0.1058
908.30 0.1058
908.40 0.1057
908.50 0.1057
908.60 0.1057
908.70 0.1056
908.80 0.1056
908.90 0.1055
909.00 0.1055
909.10 0.1054
909.20 0.1054
909.30 0.1054
909.40 0.1053
909.50 0.1053
909.60 0.1052
909.70 0.1052
909.80 0.1051
909.90 0.1051
910.00 0.1051
910.10 0.105
910.20 0.105
910.30 0.1049
910.40 0.1049
910.50 0.1049
910.60 0.1048
910.70 0.1048
910.80 0.1047
910.90 0.1047
911.00 0.1046
911.10 0.1046
911.20 0.1046
911.30 0.1045
911.40 0.1045
911.50 0.1044
911.60 0.1044
911.70 0.1043
911.80 0.1043
911.90 0.1043
912.00 0.1042
912.10 0.1042
912.20 0.1041
912.30 0.1041
912.40 0.104
912.50 0.104
912.60 0.1039
912.70 0.1039
912.80 0.1038
912.90 0.1038
913.00 0.1037
913.10 0.1037
913.20 0.1036
913.30 0.1036
913.40 0.1035
913.50 0.1035
913.60 0.1034
913.70 0.1034
913.80 0.1033
913.90 0.1033
914.00 0.1032
914.10 0.1032
914.20 0.1031
914.30 0.1031
914.40 0.103
914.50 0.103
914.60 0.1029
914.70 0.1029
914.80 0.1028
914.90 0.1028
915.00 0.1027
915.10 0.1027
915.20 0.1026
915.30 0.1026
915.40 0.1025
915.50 0.1025
915.60 0.1024
915.70 0.1024
915.80 0.1023
915.90 0.1023
916.00 0.1022
916.10 0.1022
916.20 0.1022
916.30 0.1021
916.40 0.1021
916.50 0.102
916.60 0.102
916.70 0.1019
916.80 0.1019
916.90 0.1018
917.00 0.1018
917.10 0.1017
917.20 0.1017
917.30 0.1016
917.40 0.1015
917.50 0.1015
917.60 0.1014
917.70 0.1014
917.80 0.1013
917.90 0.1013
918.00 0.1012
918.10 0.1012
918.20 0.1011
918.30 0.1011
918.40 0.101
918.50 0.1009
918.60 0.1009
918.70 0.1008
918.80 0.1008
918.90 0.1007
919.00 0.1007
919.10 0.1006
919.20 0.1006
919.30 0.1005
919.40 0.1005
919.50 0.1004
919.60 0.1004
919.70 0.1003
919.80 0.1002
919.90 0.1002
920.00 0.1001
920.10 0.1001
920.20 0.1
920.30 0.09998
920.40 0.09993
920.50 0.09988
920.60 0.09982
920.70 0.09977
920.80 0.09971
920.90 0.09966
921.00 0.09961
921.10 0.09955
921.20 0.0995
921.30 0.09945
921.40 0.09939
921.50 0.09934
921.60 0.09929
921.70 0.09923
921.80 0.09918
921.90 0.09913
922.00 0.09908
922.10 0.09905
922.20 0.09902
922.30 0.09899
922.40 0.09896
922.50 0.09893
922.60 0.0989
922.70 0.09887
922.80 0.09884
922.90 0.09881
923.00 0.09878
923.10 0.09876
923.20 0.09873
923.30 0.0987
923.40 0.09867
923.50 0.09864
923.60 0.09861
923.70 0.09858
923.80 0.09855
923.90 0.09852
924.00 0.0985
924.10 0.09847
924.20 0.09844
924.30 0.09841
924.40 0.09838
924.50 0.09835
924.60 0.09832
924.70 0.09829
924.80 0.09827
924.90 0.09824
925.00 0.09821
925.10 0.09818
925.20 0.09815
925.30 0.09812
925.40 0.09809
925.50 0.09806
925.60 0.09804
925.70 0.09801
925.80 0.09798
925.90 0.09795
926.00 0.09792
926.10 0.09789
926.20 0.09786
926.30 0.09783
926.40 0.09781
926.50 0.09778
926.60 0.09775
926.70 0.09772
926.80 0.09769
926.90 0.09766
927.00 0.09763
927.10 0.09761
927.20 0.09758
927.30 0.09755
927.40 0.09753
927.50 0.0975
927.60 0.09747
927.70 0.09745
927.80 0.09742
927.90 0.09739
928.00 0.09737
928.10 0.09734
928.20 0.09731
928.30 0.09729
928.40 0.09726
928.50 0.09723
928.60 0.09721
928.70 0.09718
928.80 0.09715
928.90 0.09713
929.00 0.0971
929.10 0.09707
929.20 0.09705
929.30 0.09702
929.40 0.09699
929.50 0.09697
929.60 0.09694
929.70 0.09691
929.80 0.09689
929.90 0.09686
930.00 0.09683
930.10 0.09681
930.20 0.09678
930.30 0.09675
930.40 0.09673
930.50 0.0967
930.60 0.09667
930.70 0.09665
930.80 0.09662
930.90 0.09659
931.00 0.09657
931.10 0.09654
931.20 0.09651
931.30 0.09649
931.40 0.09646
931.50 0.09644
931.60 0.09641
931.70 0.09638
931.80 0.09636
931.90 0.09633
932.00 0.0963
932.10 0.09627
932.20 0.09624
932.30 0.09621
932.40 0.09617
932.50 0.09614
932.60 0.09611
932.70 0.09608
932.80 0.09604
932.90 0.09601
933.00 0.09598
933.10 0.09595
933.20 0.09591
933.30 0.09588
933.40 0.09585
933.50 0.09582
933.60 0.09578
933.70 0.09575
933.80 0.09572
933.90 0.09569
934.00 0.09565
934.10 0.09562
934.20 0.09559
934.30 0.09556
934.40 0.09552
934.50 0.09548
934.60 0.09545
934.70 0.09541
934.80 0.09537
934.90 0.09534
935.00 0.0953
935.10 0.09526
935.20 0.09523
935.30 0.09519
935.40 0.09515
935.50 0.09512
935.60 0.09508
935.70 0.09504
935.80 0.09501
935.90 0.09497
936.00 0.09494
936.10 0.0949
936.20 0.09486
936.30 0.09483
936.40 0.09479
936.50 0.09475
936.60 0.09472
936.70 0.09468
936.80 0.09464
936.90 0.09461
937.00 0.09457
937.10 0.09453
937.20 0.09449
937.30 0.09445
937.40 0.09441
937.50 0.09437
937.60 0.09433
937.70 0.09429
937.80 0.09425
937.90 0.09421
938.00 0.09418
938.10 0.09414
938.20 0.0941
938.30 0.09406
938.40 0.09401
938.50 0.09397
938.60 0.09393
938.70 0.09389
938.80 0.09384
938.90 0.0938
939.00 0.09376
939.10 0.09372
939.20 0.09367
939.30 0.09363
939.40 0.09359
939.50 0.09355
939.60 0.0935
939.70 0.09346
939.80 0.09342
939.90 0.09338
940.00 0.09333
940.10 0.09329
940.20 0.09325
940.30 0.09321
940.40 0.09316
940.50 0.09312
940.60 0.09307
940.70 0.09303
940.80 0.09298
940.90 0.09293
941.00 0.09289
941.10 0.09284
941.20 0.0928
941.30 0.09275
941.40 0.09271
941.50 0.09266
941.60 0.09261
941.70 0.09257
941.80 0.09252
941.90 0.09248
942.00 0.09243
942.10 0.09238
942.20 0.09234
942.30 0.09229
942.40 0.09224
942.50 0.09219
942.60 0.09214
942.70 0.09209
942.80 0.09204
942.90 0.09199
943.00 0.09194
943.10 0.09189
943.20 0.09184
943.30 0.09179
943.40 0.09174
943.50 0.09169
943.60 0.09164
943.70 0.09159
943.80 0.09154
943.90 0.09149
944.00 0.09144
944.10 0.09139
944.20 0.09134
944.30 0.09129
944.40 0.09124
944.50 0.09119
944.60 0.09113
944.70 0.09108
944.80 0.09103
944.90 0.09097
945.00 0.09092
945.10 0.09087
945.20 0.09082
945.30 0.09076
945.40 0.09071
945.50 0.09065
945.60 0.09059
945.70 0.09054
945.80 0.09048
945.90 0.09042
946.00 0.09037
946.10 0.09031
946.20 0.09025
946.30 0.0902
946.40 0.09014
946.50 0.09008
946.60 0.09003
946.70 0.08997
946.80 0.08992
946.90 0.08986
947.00 0.0898
947.10 0.08975
947.20 0.08969
947.30 0.08963
947.40 0.08957
947.50 0.0895
947.60 0.08944
947.70 0.08938
947.80 0.08932
947.90 0.08926
948.00 0.08919
948.10 0.08913
948.20 0.08907
948.30 0.08901
948.40 0.08895
948.50 0.08888
948.60 0.08882
948.70 0.08876
948.80 0.0887
948.90 0.08864
949.00 0.08858
949.10 0.08851
949.20 0.08845
949.30 0.08839
949.40 0.08832
949.50 0.08826
949.60 0.08819
949.70 0.08812
949.80 0.08806
949.90 0.08799
950.00 0.08792
950.10 0.08786
950.20 0.08779
950.30 0.08772
950.40 0.08765
950.50 0.08759
950.60 0.08752
950.70 0.08745
950.80 0.08739
950.90 0.08732
951.00 0.08725
951.10 0.08719
951.20 0.08712
951.30 0.08706
951.40 0.08699
951.50 0.08692
951.60 0.08685
951.70 0.08678
951.80 0.08671
951.90 0.08664
952.00 0.08657
952.10 0.0865
952.20 0.08643
952.30 0.08636
952.40 0.08629
952.50 0.08622
952.60 0.08615
952.70 0.08609
952.80 0.08602
952.90 0.08595
953.00 0.08588
953.10 0.08581
953.20 0.08574
953.30 0.08568
953.40 0.08561
953.50 0.08554
953.60 0.08548
953.70 0.08541
953.80 0.08535
953.90 0.08528
954.00 0.08522
954.10 0.08516
954.20 0.0851
954.30 0.08505
954.40 0.085
954.50 0.08495
954.60 0.08492
954.70 0.08489
954.80 0.08488
954.90 0.08487
955.00 0.08486
955.10 0.08484
955.20 0.08484
955.30 0.08484
955.40 0.08484
955.50 0.08484
955.60 0.08484
955.70 0.08484
955.80 0.08484
955.90 0.08484
956.00 0.08485
956.10 0.08485
956.20 0.08485
956.30 0.08486
956.40 0.08486
956.50 0.08486
956.60 0.08487
956.70 0.08487
956.80 0.08487
956.90 0.08488
957.00 0.08488
957.10 0.08488
957.20 0.08489
957.30 0.08489
957.40 0.08489
957.50 0.08489
957.60 0.0849
957.70 0.0849
957.80 0.0849
957.90 0.0849
958.00 0.0849
958.10 0.0849
958.20 0.0849
958.30 0.08491
958.40 0.08491
958.50 0.08491
958.60 0.08491
958.70 0.08491
958.80 0.08491
958.90 0.08492
959.00 0.08492
959.10 0.08492
959.20 0.08492
959.30 0.08492
959.40 0.08492
959.50 0.08491
959.60 0.08491
959.70 0.08491
959.80 0.0849
959.90 0.0849
960.00 0.08489
960.10 0.08489
960.20 0.08489
960.30 0.08488
960.40 0.08488
960.50 0.08487
960.60 0.08487
960.70 0.08487
960.80 0.08486
960.90 0.08486
961.00 0.08486
961.10 0.08485
961.20 0.08485
961.30 0.08484
961.40 0.08484
961.50 0.08483
961.60 0.08482
961.70 0.08481
961.80 0.0848
961.90 0.0848
962.00 0.08479
962.10 0.08478
962.20 0.08477
962.30 0.08476
962.40 0.08475
962.50 0.08474
962.60 0.08473
962.70 0.08472
962.80 0.08471
962.90 0.08469
963.00 0.08468
963.10 0.08467
963.20 0.08466
963.30 0.08465
963.40 0.08464
963.50 0.08463
963.60 0.08461
963.70 0.0846
963.80 0.08459
963.90 0.08457
964.00 0.08456
964.10 0.08455
964.20 0.08453
964.30 0.08452
964.40 0.0845
964.50 0.08449
964.60 0.08447
964.70 0.08445
964.80 0.08444
964.90 0.08442
965.00 0.0844
965.10 0.08439
965.20 0.08437
965.30 0.08435
965.40 0.08434
965.50 0.08432
965.60 0.0843
965.70 0.08429
965.80 0.08427
965.90 0.08426
966.00 0.08424
966.10 0.08422
966.20 0.08421
966.30 0.08419
966.40 0.08417
966.50 0.08415
966.60 0.08413
966.70 0.08411
966.80 0.08409
966.90 0.08407
967.00 0.08405
967.10 0.08403
967.20 0.08401
967.30 0.08399
967.40 0.08397
967.50 0.08395
967.60 0.08393
967.70 0.08391
967.80 0.08389
967.90 0.08387
968.00 0.08385
968.10 0.08382
968.20 0.0838
968.30 0.08378
968.40 0.08376
968.50 0.08374
968.60 0.08371
968.70 0.08369
968.80 0.08367
968.90 0.08364
969.00 0.08362
969.10 0.0836
969.20 0.08357
969.30 0.08355
969.40 0.08353
969.50 0.0835
969.60 0.08348
969.70 0.08346
969.80 0.08343
969.90 0.08341
970.00 0.08339
970.10 0.08336
970.20 0.08334
970.30 0.08332
970.40 0.08329
970.50 0.08327
970.60 0.08324
970.70 0.08322
970.80 0.08319
970.90 0.08317
971.00 0.08314
971.10 0.08311
971.20 0.08309
971.30 0.08306
971.40 0.08304
971.50 0.08301
971.60 0.08299
971.70 0.08296
971.80 0.08294
971.90 0.08291
972.00 0.08288
972.10 0.08286
972.20 0.08283
972.30 0.0828
972.40 0.08277
972.50 0.08275
972.60 0.08272
972.70 0.08269
972.80 0.08266
972.90 0.08264
973.00 0.08261
973.10 0.08258
973.20 0.08255
973.30 0.08253
973.40 0.0825
973.50 0.08247
973.60 0.08244
973.70 0.08242
973.80 0.08239
973.90 0.08236
974.00 0.08233
974.10 0.08231
974.20 0.08228
974.30 0.08225
974.40 0.08222
974.50 0.08219
974.60 0.08216
974.70 0.08213
974.80 0.0821
974.90 0.08207
975.00 0.08204
975.10 0.08201
975.20 0.08198
975.30 0.08195
975.40 0.08193
975.50 0.0819
975.60 0.08187
975.70 0.08184
975.80 0.08181
975.90 0.08178
976.00 0.08175
976.10 0.08172
976.20 0.08169
976.30 0.08166
976.40 0.08163
976.50 0.0816
976.60 0.08157
976.70 0.08154
976.80 0.08151
976.90 0.08148
977.00 0.08145
977.10 0.08142
977.20 0.08139
977.30 0.08135
977.40 0.08132
977.50 0.08129
977.60 0.08126
977.70 0.08122
977.80 0.08119
977.90 0.08116
978.00 0.08113
978.10 0.08109
978.20 0.08106
978.30 0.08103
978.40 0.081
978.50 0.08096
978.60 0.08093
978.70 0.0809
978.80 0.08086
978.90 0.08083
979.00 0.0808
979.10 0.08077
979.20 0.08073
979.30 0.0807
979.40 0.08067
979.50 0.08064
979.60 0.0806
979.70 0.08057
979.80 0.08054
979.90 0.08051
980.00 0.08048
980.10 0.08044
980.20 0.08041
980.30 0.08038
980.40 0.08035
980.50 0.08031
980.60 0.08028
980.70 0.08025
980.80 0.08022
980.90 0.08018
981.00 0.08015
981.10 0.08012
981.20 0.08009
981.30 0.08006
981.40 0.08002
981.50 0.07999
981.60 0.07996
981.70 0.07993
981.80 0.07989
981.90 0.07986
982.00 0.07983
982.10 0.07979
982.20 0.07976
982.30 0.07972
982.40 0.07969
982.50 0.07965
982.60 0.07962
982.70 0.07958
982.80 0.07955
982.90 0.07951
983.00 0.07947
983.10 0.07944
983.20 0.0794
983.30 0.07937
983.40 0.07933
983.50 0.0793
983.60 0.07926
983.70 0.07923
983.80 0.07919
983.90 0.07916
984.00 0.07912
984.10 0.07908
984.20 0.07905
984.30 0.07901
984.40 0.07898
984.50 0.07894
984.60 0.07891
984.70 0.07887
984.80 0.07883
984.90 0.07879
985.00 0.07876
985.10 0.07872
985.20 0.07868
985.30 0.07864
985.40 0.0786
985.50 0.07857
985.60 0.07853
985.70 0.07849
985.80 0.07845
985.90 0.07841
986.00 0.07838
986.10 0.07834
986.20 0.0783
986.30 0.07826
986.40 0.07822
986.50 0.07819
986.60 0.07815
986.70 0.07811
986.80 0.07807
986.90 0.07804
987.00 0.078
987.10 0.07796
987.20 0.07792
987.30 0.07788
987.40 0.07784
987.50 0.0778
987.60 0.07776
987.70 0.07771
987.80 0.07767
987.90 0.07763
988.00 0.07759
988.10 0.07755
988.20 0.07751
988.30 0.07747
988.40 0.07743
988.50 0.07739
988.60 0.07735
988.70 0.07731
988.80 0.07727
988.90 0.07722
989.00 0.07718
989.10 0.07714
989.20 0.07709
989.30 0.07705
989.40 0.07701
989.50 0.07696
989.60 0.07692
989.70 0.07688
989.80 0.07683
989.90 0.07679
990.00 0.07675
990.10 0.0767
990.20 0.07666
990.30 0.07662
990.40 0.07657
990.50 0.07653
990.60 0.07649
990.70 0.07644
990.80 0.07639
990.90 0.07635
991.00 0.0763
991.10 0.07625
991.20 0.07621
991.30 0.07616
991.40 0.07611
991.50 0.07607
991.60 0.07602
991.70 0.07597
991.80 0.07593
991.90 0.07588
992.00 0.07583
992.10 0.07579
992.20 0.07574
992.30 0.07569
992.40 0.07564
992.50 0.07559
992.60 0.07554
992.70 0.07549
992.80 0.07544
992.90 0.07538
993.00 0.07533
993.10 0.07528
993.20 0.07523
993.30 0.07517
993.40 0.07512
993.50 0.07507
993.60 0.07501
993.70 0.07496
993.80 0.07491
993.90 0.07486
994.00 0.0748
994.10 0.07475
994.20 0.0747
994.30 0.07465
994.40 0.07459
994.50 0.07454
994.60 0.07449
994.70 0.07443
994.80 0.07438
994.90 0.07432
995.00 0.07426
995.10 0.0742
995.20 0.07414
995.30 0.07409
995.40 0.07403
995.50 0.07397
995.60 0.07391
995.70 0.07385
995.80 0.07379
995.90 0.07373
996.00 0.07367
996.10 0.0736
996.20 0.07354
996.30 0.07348
996.40 0.07342
996.50 0.07335
996.60 0.07329
996.70 0.07323
996.80 0.07317
996.90 0.0731
997.00 0.07304
997.10 0.07298
997.20 0.07291
997.30 0.07284
997.40 0.07278
997.50 0.07271
997.60 0.07264
997.70 0.07257
997.80 0.07249
997.90 0.07242
998.00 0.07235
998.10 0.07227
998.20 0.0722
998.30 0.07212
998.40 0.07205
998.50 0.07198
998.60 0.0719
998.70 0.07183
998.80 0.07175
998.90 0.07168
999.00 0.07161
999.10 0.07153
999.20 0.07146
999.30 0.07139
999.40 0.07131
999.50 0.07124
999.60 0.07116
999.70 0.07108
999.80 0.07099
999.90 0.07091
1000.00 0.07082
1000.10 0.07074
1000.20 0.07065
1000.30 0.07056
1000.40 0.07048
1000.50 0.07039
1000.60 0.0703
1000.70 0.07022
1000.80 0.07013
1000.90 0.07005
1001.00 0.06996
1001.10 0.06987
1001.20 0.06979
1001.30 0.0697
1001.40 0.06962
1001.50 0.06953
1001.60 0.06945
1001.70 0.06935
1001.80 0.06926
1001.90 0.06917
1002.00 0.06908
1002.10 0.06898
1002.20 0.06888
1002.30 0.06879
1002.40 0.06869
1002.50 0.0686
1002.60 0.0685
1002.70 0.06841
1002.80 0.06831
1002.90 0.06822
1003.00 0.06813
1003.10 0.06803
1003.20 0.06794
1003.30 0.06785
1003.40 0.06776
1003.50 0.06768
1003.60 0.06759
1003.70 0.0675
1003.80 0.06741
1003.90 0.06734
1004.00 0.06727
1004.10 0.0672
1004.20 0.06713
1004.30 0.06708
1004.40 0.06703
1004.50 0.067
1004.60 0.06699
1004.70 0.06699
1004.80 0.06702
1004.90 0.06701
1005.00 0.06699
1005.10 0.06695
1005.20 0.0669
1005.30 0.06684
1005.40 0.06679
1005.50 0.06679
1005.60 0.0668
1005.70 0.06682
1005.80 0.06683
1005.90 0.06684
1006.00 0.06686
1006.10 0.06687
1006.20 0.06691
1006.30 0.06695
1006.40 0.06699
1006.50 0.06703
1006.60 0.06707
1006.70 0.06711
1006.80 0.06715
1006.90 0.06719
1007.00 0.06724
1007.10 0.06728
1007.20 0.06732
1007.30 0.06737
1007.40 0.06741
1007.50 0.06746
1007.60 0.0675
1007.70 0.06754
1007.80 0.06758
1007.90 0.06761
1008.00 0.06765
1008.10 0.06769
1008.20 0.06773
1008.30 0.06776
1008.40 0.0678
1008.50 0.06784
1008.60 0.06788
1008.70 0.06791
1008.80 0.06795
1008.90 0.06799
1009.00 0.06803
1009.10 0.06806
1009.20 0.0681
1009.30 0.06814
1009.40 0.06817
1009.50 0.06821
1009.60 0.06825
1009.70 0.06827
1009.80 0.0683
1009.90 0.06832
1010.00 0.06835
1010.10 0.06837
1010.20 0.06839
1010.30 0.06842
1010.40 0.06844
1010.50 0.06846
1010.60 0.06849
1010.70 0.06851
1010.80 0.06853
1010.90 0.06856
1011.00 0.06858
1011.10 0.0686
1011.20 0.06862
1011.30 0.06865
1011.40 0.06867
1011.50 0.06869
1011.60 0.06872
1011.70 0.06874
1011.80 0.06875
1011.90 0.06877
1012.00 0.06878
1012.10 0.06879
1012.20 0.0688
1012.30 0.06881
1012.40 0.06882
1012.50 0.06883
1012.60 0.06884
1012.70 0.06885
1012.80 0.06886
1012.90 0.06888
1013.00 0.06889
1013.10 0.0689
1013.20 0.06891
1013.30 0.06892
1013.40 0.06893
1013.50 0.06894
1013.60 0.06895
1013.70 0.06895
1013.80 0.06896
1013.90 0.06896
1014.00 0.06897
1014.10 0.06897
1014.20 0.06897
1014.30 0.06898
1014.40 0.06898
1014.50 0.06899
1014.60 0.06899
1014.70 0.06899
1014.80 0.06899
1014.90 0.06899
1015.00 0.06899
1015.10 0.06898
1015.20 0.06898
1015.30 0.06898
1015.40 0.06898
1015.50 0.06898
1015.60 0.06898
1015.70 0.06897
1015.80 0.06897
1015.90 0.06897
1016.00 0.06897
1016.10 0.06897
1016.20 0.06897
1016.30 0.06896
1016.40 0.06896
1016.50 0.06896
1016.60 0.06896
1016.70 0.06896
1016.80 0.06895
1016.90 0.06894
1017.00 0.06894
1017.10 0.06893
1017.20 0.06892
1017.30 0.06891
1017.40 0.06891
1017.50 0.0689
1017.60 0.06889
1017.70 0.06888
1017.80 0.06888
1017.90 0.06887
1018.00 0.06886
1018.10 0.06885
1018.20 0.06884
1018.30 0.06884
1018.40 0.06883
1018.50 0.06882
1018.60 0.06881
1018.70 0.0688
1018.80 0.06879
1018.90 0.06878
1019.00 0.06876
1019.10 0.06875
1019.20 0.06874
1019.30 0.06873
1019.40 0.06872
1019.50 0.0687
1019.60 0.06869
1019.70 0.06868
1019.80 0.06867
1019.90 0.06866
1020.00 0.06865
1020.10 0.06863
1020.20 0.06862
1020.30 0.06861
1020.40 0.0686
1020.50 0.06859
1020.60 0.06857
1020.70 0.06856
1020.80 0.06855
1020.90 0.06853
1021.00 0.06852
1021.10 0.0685
1021.20 0.06849
1021.30 0.06847
1021.40 0.06846
1021.50 0.06844
1021.60 0.06843
1021.70 0.06841
1021.80 0.0684
1021.90 0.06838
1022.00 0.06837
1022.10 0.06835
1022.20 0.06833
1022.30 0.06832
1022.40 0.0683
1022.50 0.06828
1022.60 0.06827
1022.70 0.06825
1022.80 0.06823
1022.90 0.06821
1023.00 0.0682
1023.10 0.06818
1023.20 0.06816
1023.30 0.06815
1023.40 0.06813
1023.50 0.06811
1023.60 0.0681
1023.70 0.06808
1023.80 0.06806
1023.90 0.06804
1024.00 0.06803
1024.10 0.06801
1024.20 0.06799
1024.30 0.06798
1024.40 0.06796
1024.50 0.06794
1024.60 0.06792
1024.70 0.06791
1024.80 0.06789
1024.90 0.06787
1025.00 0.06785
1025.10 0.06783
1025.20 0.06781
1025.30 0.06779
1025.40 0.06777
1025.50 0.06775
1025.60 0.06773
1025.70 0.06771
1025.80 0.06769
1025.90 0.06767
1026.00 0.06765
1026.10 0.06763
1026.20 0.06762
1026.30 0.0676
1026.40 0.06758
1026.50 0.06756
1026.60 0.06754
1026.70 0.06752
1026.80 0.0675
1026.90 0.06748
1027.00 0.06746
1027.10 0.06744
1027.20 0.06742
1027.30 0.0674
1027.40 0.06738
1027.50 0.06735
1027.60 0.06733
1027.70 0.06731
1027.80 0.06729
1027.90 0.06727
1028.00 0.06725
1028.10 0.06723
1028.20 0.06721
1028.30 0.06718
1028.40 0.06716
1028.50 0.06714
1028.60 0.06712
1028.70 0.0671
1028.80 0.06708
1028.90 0.06706
1029.00 0.06703
1029.10 0.06701
1029.20 0.06699
1029.30 0.06697
1029.40 0.06695
1029.50 0.06693
1029.60 0.06691
1029.70 0.06689
1029.80 0.06687
1029.90 0.06684
1030.00 0.06682
1030.10 0.0668
1030.20 0.06678
1030.30 0.06676
1030.40 0.06674
1030.50 0.06672
1030.60 0.0667
1030.70 0.06667
1030.80 0.06665
1030.90 0.06663
1031.00 0.06661
1031.10 0.06659
1031.20 0.06657
1031.30 0.06655
1031.40 0.06653
1031.50 0.06651
1031.60 0.06648
1031.70 0.06646
1031.80 0.06644
1031.90 0.06642
1032.00 0.0664
1032.10 0.06638
1032.20 0.06636
1032.30 0.06633
1032.40 0.06631
1032.50 0.06629
1032.60 0.06626
1032.70 0.06624
1032.80 0.06622
1032.90 0.0662
1033.00 0.06617
1033.10 0.06615
1033.20 0.06613
1033.30 0.06611
1033.40 0.06608
1033.50 0.06606
1033.60 0.06604
1033.70 0.06602
1033.80 0.06599
1033.90 0.06597
1034.00 0.06595
1034.10 0.06593
1034.20 0.0659
1034.30 0.06588
1034.40 0.06586
1034.50 0.06583
1034.60 0.06581
1034.70 0.06579
1034.80 0.06577
1034.90 0.06574
1035.00 0.06572
1035.10 0.0657
1035.20 0.06568
1035.30 0.06565
1035.40 0.06563
1035.50 0.06561
1035.60 0.06559
1035.70 0.06556
1035.80 0.06554
1035.90 0.06552
1036.00 0.0655
1036.10 0.06548
1036.20 0.06545
1036.30 0.06543
1036.40 0.06541
1036.50 0.06539
1036.60 0.06536
1036.70 0.06534
1036.80 0.06532
1036.90 0.0653
1037.00 0.06527
1037.10 0.06525
1037.20 0.06523
1037.30 0.0652
1037.40 0.06518
1037.50 0.06516
1037.60 0.06513
1037.70 0.06511
1037.80 0.06509
1037.90 0.06506
1038.00 0.06504
1038.10 0.06502
1038.20 0.065
1038.30 0.06497
1038.40 0.06495
1038.50 0.06493
1038.60 0.0649
1038.70 0.06488
1038.80 0.06486
1038.90 0.06483
1039.00 0.06481
1039.10 0.06479
1039.20 0.06476
1039.30 0.06474
1039.40 0.06472
1039.50 0.0647
1039.60 0.06467
1039.70 0.06465
1039.80 0.06463
1039.90 0.0646
1040.00 0.06458
1040.10 0.06456
1040.20 0.06453
1040.30 0.06451
1040.40 0.06449
1040.50 0.06447
1040.60 0.06444
1040.70 0.06442
1040.80 0.0644
1040.90 0.06437
1041.00 0.06435
1041.10 0.06433
1041.20 0.0643
1041.30 0.06428
1041.40 0.06426
1041.50 0.06424
1041.60 0.06421
1041.70 0.06419
1041.80 0.06417
1041.90 0.06414
1042.00 0.06412
1042.10 0.0641
1042.20 0.06407
1042.30 0.06405
1042.40 0.06403
1042.50 0.064
1042.60 0.06398
1042.70 0.06396
1042.80 0.06393
1042.90 0.06391
1043.00 0.06389
1043.10 0.06386
1043.20 0.06384
1043.30 0.06382
1043.40 0.06379
1043.50 0.06377
1043.60 0.06375
1043.70 0.06373
1043.80 0.0637
1043.90 0.06368
1044.00 0.06366
1044.10 0.06363
1044.20 0.06361
1044.30 0.06359
1044.40 0.06356
1044.50 0.06354
1044.60 0.06352
1044.70 0.06349
1044.80 0.06347
1044.90 0.06345
1045.00 0.06342
1045.10 0.0634
1045.20 0.06338
1045.30 0.06335
1045.40 0.06333
1045.50 0.06331
1045.60 0.06329
1045.70 0.06326
1045.80 0.06324
1045.90 0.06322
1046.00 0.06319
1046.10 0.06317
1046.20 0.06315
1046.30 0.06312
1046.40 0.0631
1046.50 0.06308
1046.60 0.06305
1046.70 0.06303
1046.80 0.06301
1046.90 0.06299
1047.00 0.06296
1047.10 0.06294
1047.20 0.06292
1047.30 0.06289
1047.40 0.06287
1047.50 0.06285
1047.60 0.06282
1047.70 0.0628
1047.80 0.06278
1047.90 0.06275
1048.00 0.06273
1048.10 0.06271
1048.20 0.06268
1048.30 0.06266
1048.40 0.06264
1048.50 0.06261
1048.60 0.06259
1048.70 0.06257
1048.80 0.06254
1048.90 0.06252
1049.00 0.0625
1049.10 0.06247
1049.20 0.06245
1049.30 0.06243
1049.40 0.0624
1049.50 0.06238
1049.60 0.06236
1049.70 0.06233
1049.80 0.06231
1049.90 0.06229
1050.00 0.06227
1050.10 0.06224
1050.20 0.06222
1050.30 0.0622
1050.40 0.06217
1050.50 0.06215
1050.60 0.06213
1050.70 0.0621
1050.80 0.06208
1050.90 0.06206
1051.00 0.06203
1051.10 0.06201
1051.20 0.06199
1051.30 0.06197
1051.40 0.06194
1051.50 0.06192
1051.60 0.0619
1051.70 0.06187
1051.80 0.06185
1051.90 0.06183
1052.00 0.0618
1052.10 0.06178
1052.20 0.06176
1052.30 0.06173
1052.40 0.06171
1052.50 0.06169
1052.60 0.06166
1052.70 0.06164
1052.80 0.06162
1052.90 0.06159
1053.00 0.06157
1053.10 0.06155
1053.20 0.06152
1053.30 0.0615
1053.40 0.06148
1053.50 0.06145
1053.60 0.06143
1053.70 0.06141
1053.80 0.06138
1053.90 0.06136
1054.00 0.06134
1054.10 0.06131
1054.20 0.06129
1054.30 0.06127
1054.40 0.06125
1054.50 0.06122
1054.60 0.0612
1054.70 0.06118
1054.80 0.06115
1054.90 0.06113
1055.00 0.06111
1055.10 0.06108
1055.20 0.06106
1055.30 0.06104
1055.40 0.06101
1055.50 0.06099
1055.60 0.06097
1055.70 0.06094
1055.80 0.06092
1055.90 0.0609
1056.00 0.06088
1056.10 0.06085
1056.20 0.06083
1056.30 0.06081
1056.40 0.06078
1056.50 0.06076
1056.60 0.06074
1056.70 0.06071
1056.80 0.06069
1056.90 0.06067
1057.00 0.06064
1057.10 0.06062
1057.20 0.0606
1057.30 0.06057
1057.40 0.06055
1057.50 0.06053
1057.60 0.0605
1057.70 0.06048
1057.80 0.06046
1057.90 0.06043
1058.00 0.06041
1058.10 0.06039
1058.20 0.06036
1058.30 0.06034
1058.40 0.06032
1058.50 0.06029
1058.60 0.06027
1058.70 0.06025
1058.80 0.06022
1058.90 0.0602
1059.00 0.06018
1059.10 0.06015
1059.20 0.06013
1059.30 0.06011
1059.40 0.06008
1059.50 0.06006
1059.60 0.06004
1059.70 0.06001
1059.80 0.05999
1059.90 0.05997
1060.00 0.05994
1060.10 0.05992
1060.20 0.0599
1060.30 0.05987
1060.40 0.05985
1060.50 0.05983
1060.60 0.0598
1060.70 0.05978
1060.80 0.05976
1060.90 0.05973
1061.00 0.05971
1061.10 0.05969
1061.20 0.05966
1061.30 0.05964
1061.40 0.05962
1061.50 0.05959
1061.60 0.05957
1061.70 0.05955
1061.80 0.05952
1061.90 0.0595
1062.00 0.05948
1062.10 0.05945
1062.20 0.05943
1062.30 0.0594
1062.40 0.05938
1062.50 0.05936
1062.60 0.05933
1062.70 0.05931
1062.80 0.05928
1062.90 0.05926
1063.00 0.05924
1063.10 0.05921
1063.20 0.05919
1063.30 0.05916
1063.40 0.05914
1063.50 0.05912
1063.60 0.05909
1063.70 0.05907
1063.80 0.05904
1063.90 0.05902
1064.00 0.059
1064.10 0.05897
1064.20 0.05895
1064.30 0.05892
1064.40 0.0589
1064.50 0.05888
1064.60 0.05885
1064.70 0.05883
1064.80 0.05881
1064.90 0.05878
1065.00 0.05876
1065.10 0.05873
1065.20 0.05871
1065.30 0.05869
1065.40 0.05866
1065.50 0.05864
1065.60 0.05861
1065.70 0.05859
1065.80 0.05857
1065.90 0.05854
1066.00 0.05852
1066.10 0.0585
1066.20 0.05847
1066.30 0.05845
1066.40 0.05842
1066.50 0.0584
1066.60 0.05838
1066.70 0.05835
1066.80 0.05833
1066.90 0.05831
1067.00 0.05828
1067.10 0.05826
1067.20 0.05823
1067.30 0.05821
1067.40 0.05818
1067.50 0.05815
1067.60 0.05813
1067.70 0.0581
1067.80 0.05808
1067.90 0.05805
1068.00 0.05803
1068.10 0.058
1068.20 0.05798
1068.30 0.05795
1068.40 0.05793
1068.50 0.0579
1068.60 0.05787
1068.70 0.05785
1068.80 0.05782
1068.90 0.0578
1069.00 0.05777
1069.10 0.05775
1069.20 0.05772
1069.30 0.0577
1069.40 0.05767
1069.50 0.05765
1069.60 0.05762
1069.70 0.0576
1069.80 0.05757
1069.90 0.05754
1070.00 0.05752
1070.10 0.05749
1070.20 0.05747
1070.30 0.05744
1070.40 0.05742
1070.50 0.05739
1070.60 0.05737
1070.70 0.05734
1070.80 0.05732
1070.90 0.05729
1071.00 0.05727
1071.10 0.05724
1071.20 0.05722
1071.30 0.05719
1071.40 0.05717
1071.50 0.05714
1071.60 0.05712
1071.70 0.05709
1071.80 0.05707
1071.90 0.05704
1072.00 0.05702
1072.10 0.05699
1072.20 0.05696
1072.30 0.05693
1072.40 0.05691
1072.50 0.05688
1072.60 0.05685
1072.70 0.05683
1072.80 0.0568
1072.90 0.05677
1073.00 0.05675
1073.10 0.05672
1073.20 0.05669
1073.30 0.05667
1073.40 0.05664
1073.50 0.05661
1073.60 0.05658
1073.70 0.05655
1073.80 0.05652
1073.90 0.05649
1074.00 0.05646
1074.10 0.05644
1074.20 0.05641
1074.30 0.05638
1074.40 0.05635
1074.50 0.05632
1074.60 0.05629
1074.70 0.05626
1074.80 0.05623
1074.90 0.0562
1075.00 0.05617
1075.10 0.05614
1075.20 0.05611
1075.30 0.05609
1075.40 0.05606
1075.50 0.05603
1075.60 0.056
1075.70 0.05597
1075.80 0.05594
1075.90 0.05591
1076.00 0.05588
1076.10 0.05585
1076.20 0.05582
1076.30 0.05579
1076.40 0.05577
1076.50 0.05574
1076.60 0.05571
1076.70 0.05568
1076.80 0.05565
1076.90 0.05562
1077.00 0.05559
1077.10 0.05556
1077.20 0.05553
1077.30 0.0555
1077.40 0.05547
1077.50 0.05543
1077.60 0.0554
1077.70 0.05537
1077.80 0.05533
1077.90 0.0553
1078.00 0.05527
1078.10 0.05523
1078.20 0.0552
1078.30 0.05517
1078.40 0.05513
1078.50 0.0551
1078.60 0.05507
1078.70 0.05503
1078.80 0.055
1078.90 0.05497
1079.00 0.05493
1079.10 0.0549
1079.20 0.05487
1079.30 0.05483
1079.40 0.0548
1079.50 0.05477
1079.60 0.05473
1079.70 0.05469
1079.80 0.05465
1079.90 0.05462
1080.00 0.05458
1080.10 0.05454
1080.20 0.0545
1080.30 0.05447
1080.40 0.05443
1080.50 0.05439
1080.60 0.05435
1080.70 0.05432
1080.80 0.05428
1080.90 0.05424
1081.00 0.05421
1081.10 0.05417
1081.20 0.05413
1081.30 0.05409
1081.40 0.05406
1081.50 0.05402
1081.60 0.05398
1081.70 0.05394
1081.80 0.0539
1081.90 0.05386
1082.00 0.05382
1082.10 0.05377
1082.20 0.05373
1082.30 0.05368
1082.40 0.05364
1082.50 0.0536
1082.60 0.05355
1082.70 0.05351
1082.80 0.05347
1082.90 0.05342
1083.00 0.05338
1083.10 0.05334
1083.20 0.05329
1083.30 0.05325
1083.40 0.0532
1083.50 0.05316
1083.60 0.05311
1083.70 0.05306
1083.80 0.05301
1083.90 0.05297
1084.00 0.05292
1084.10 0.05287
1084.20 0.05282
1084.30 0.05277
1084.40 0.05273
1084.50 0.05268
1084.60 0.05262
1084.70 0.05256
1084.80 0.05251
1084.90 0.05245
1085.00 0.0524
1085.10 0.05234
1085.20 0.05229
1085.30 0.05223
1085.40 0.05218
1085.50 0.05212
1085.60 0.05207
1085.70 0.05201
1085.80 0.05196
1085.90 0.0519
1086.00 0.05185
1086.10 0.05179
1086.20 0.05174
1086.30 0.05168
1086.40 0.05163
1086.50 0.05157
1086.60 0.05151
1086.70 0.05145
1086.80 0.05138
1086.90 0.05132
1087.00 0.05126
1087.10 0.05119
1087.20 0.05112
1087.30 0.05105
1087.40 0.05098
1087.50 0.05092
1087.60 0.05085
1087.70 0.05078
1087.80 0.05071
1087.90 0.05064
1088.00 0.05057
1088.10 0.0505
1088.20 0.05043
1088.30 0.05037
1088.40 0.0503
1088.50 0.05022
1088.60 0.05014
1088.70 0.05006
1088.80 0.04998
1088.90 0.04989
1089.00 0.04981
1089.10 0.04973
1089.20 0.04965
1089.30 0.04956
1089.40 0.04948
1089.50 0.0494
1089.60 0.04932
1089.70 0.04923
1089.80 0.04915
1089.90 0.04907
1090.00 0.04899
1090.10 0.04891
1090.20 0.04882
1090.30 0.04874
1090.40 0.04866
1090.50 0.04857
1090.60 0.04848
1090.70 0.04838
1090.80 0.04828
1090.90 0.04819
1091.00 0.04809
1091.10 0.04799
1091.20 0.0479
1091.30 0.0478
1091.40 0.0477
1091.50 0.04761
1091.60 0.04751
1091.70 0.04741
1091.80 0.04732
1091.90 0.04722
1092.00 0.04712
1092.10 0.04702
1092.20 0.04692
1092.30 0.04681
1092.40 0.04671
1092.50 0.0466
1092.60 0.0465
1092.70 0.04639
1092.80 0.04628
1092.90 0.04617
1093.00 0.04606
1093.10 0.04594
1093.20 0.04581
1093.30 0.04568
1093.40 0.04554
1093.50 0.04538
1093.60 0.04521
1093.70 0.04509
1093.80 0.04503
1093.90 0.04503
1094.00 0.04515
1094.10 0.04528
1094.20 0.0454
1094.30 0.04552
1094.40 0.0456
1094.50 0.04569
1094.60 0.04578
1094.70 0.04587
1094.80 0.04596
1094.90 0.04604
1095.00 0.04612
1095.10 0.04619
1095.20 0.04626
1095.30 0.04633
1095.40 0.0464
1095.50 0.04647
1095.60 0.04654
1095.70 0.04661
1095.80 0.04667
1095.90 0.04674
1096.00 0.04681
1096.10 0.04688
1096.20 0.04695
1096.30 0.04702
1096.40 0.04709
1096.50 0.04715
1096.60 0.04721
1096.70 0.04727
1096.80 0.04733
1096.90 0.04739
1097.00 0.04745
1097.10 0.0475
1097.20 0.04755
1097.30 0.04761
1097.40 0.04766
1097.50 0.04771
1097.60 0.04776
1097.70 0.04781
1097.80 0.04786
1097.90 0.04791
1098.00 0.04796
1098.10 0.04801
1098.20 0.04806
1098.30 0.04812
1098.40 0.04817
1098.50 0.04821
1098.60 0.04825
1098.70 0.04828
1098.80 0.04832
1098.90 0.04836
1099.00 0.04839
1099.10 0.04843
1099.20 0.04846
1099.30 0.0485
1099.40 0.04853
1099.50 0.04857
1099.60 0.04861
1099.70 0.04864
1099.80 0.04868
1099.90 0.04871
1100.00 0.04875
1100.10 0.04878
1100.20 0.04882
1100.30 0.04885
1100.40 0.04889
1100.50 0.04892
1100.60 0.04894
1100.70 0.04897
1100.80 0.04899
1100.90 0.04901
1101.00 0.04904
1101.10 0.04906
1101.20 0.04908
1101.30 0.04911
1101.40 0.04913
1101.50 0.04915
1101.60 0.04917
1101.70 0.0492
1101.80 0.04922
1101.90 0.04924
1102.00 0.04927
1102.10 0.04928
1102.20 0.0493
1102.30 0.04932
1102.40 0.04933
1102.50 0.04935
1102.60 0.04936
1102.70 0.04938
1102.80 0.04939
1102.90 0.0494
1103.00 0.04942
1103.10 0.04943
1103.20 0.04944
1103.30 0.04946
1103.40 0.04947
1103.50 0.04948
1103.60 0.04949
1103.70 0.04949
1103.80 0.0495
1103.90 0.04951
1104.00 0.04952
1104.10 0.04952
1104.20 0.04953
1104.30 0.04954
1104.40 0.04954
1104.50 0.04955
1104.60 0.04956
1104.70 0.04956
1104.80 0.04957
1104.90 0.04958
1105.00 0.04959
1105.10 0.04959
1105.20 0.0496
1105.30 0.04961
1105.40 0.04961
1105.50 0.04962
1105.60 0.04962
1105.70 0.04962
1105.80 0.04962
1105.90 0.04962
1106.00 0.04962
1106.10 0.04963
1106.20 0.04963
1106.30 0.04963
1106.40 0.04963
1106.50 0.04963
1106.60 0.04963
1106.70 0.04963
1106.80 0.04963
1106.90 0.04963
1107.00 0.04964
1107.10 0.04963
1107.20 0.04963
1107.30 0.04963
1107.40 0.04963
1107.50 0.04963
1107.60 0.04962
1107.70 0.04962
1107.80 0.04962
1107.90 0.04961
1108.00 0.04961
1108.10 0.0496
1108.20 0.0496
1108.30 0.04959
1108.40 0.04959
1108.50 0.04959
1108.60 0.04958
1108.70 0.04958
1108.80 0.04957
1108.90 0.04957
1109.00 0.04957
1109.10 0.04956
1109.20 0.04956
1109.30 0.04955
1109.40 0.04955
1109.50 0.04954
1109.60 0.04954
1109.70 0.04953
1109.80 0.04952
1109.90 0.04951
1110.00 0.04951
1110.10 0.0495
1110.20 0.04949
1110.30 0.04948
1110.40 0.04948
1110.50 0.04947
1110.60 0.04946
1110.70 0.04945
1110.80 0.04944
1110.90 0.04944
1111.00 0.04943
1111.10 0.04942
1111.20 0.04941
1111.30 0.04941
1111.40 0.0494
1111.50 0.04939
1111.60 0.04938
1111.70 0.04937
1111.80 0.04937
1111.90 0.04936
1112.00 0.04935
1112.10 0.04934
1112.20 0.04933
1112.30 0.04932
1112.40 0.04931
1112.50 0.0493
1112.60 0.04929
1112.70 0.04928
1112.80 0.04927
1112.90 0.04926
1113.00 0.04925
1113.10 0.04924
1113.20 0.04923
1113.30 0.04922
1113.40 0.04921
1113.50 0.0492
1113.60 0.04919
1113.70 0.04918
1113.80 0.04917
1113.90 0.04915
1114.00 0.04914
1114.10 0.04913
1114.20 0.04912
1114.30 0.04911
1114.40 0.04909
1114.50 0.04908
1114.60 0.04907
1114.70 0.04906
1114.80 0.04905
1114.90 0.04903
1115.00 0.04902
1115.10 0.04901
1115.20 0.049
1115.30 0.04899
1115.40 0.04897
1115.50 0.04896
1115.60 0.04895
1115.70 0.04894
1115.80 0.04893
1115.90 0.04892
1116.00 0.0489
1116.10 0.04889
1116.20 0.04888
1116.30 0.04887
1116.40 0.04886
1116.50 0.04884
1116.60 0.04883
1116.70 0.04882
1116.80 0.04881
1116.90 0.0488
1117.00 0.04878
1117.10 0.04877
1117.20 0.04876
1117.30 0.04874
1117.40 0.04873
1117.50 0.04872
1117.60 0.0487
1117.70 0.04869
1117.80 0.04867
1117.90 0.04866
1118.00 0.04865
1118.10 0.04863
1118.20 0.04862
1118.30 0.0486
1118.40 0.04859
1118.50 0.04858
1118.60 0.04856
1118.70 0.04855
1118.80 0.04854
1118.90 0.04852
1119.00 0.04851
1119.10 0.04849
1119.20 0.04848
1119.30 0.04847
1119.40 0.04845
1119.50 0.04844
1119.60 0.04843
1119.70 0.04841
1119.80 0.0484
1119.90 0.04838
1120.00 0.04837
1120.10 0.04836
1120.20 0.04834
1120.30 0.04833
1120.40 0.04831
1120.50 0.0483
1120.60 0.04829
1120.70 0.04827
1120.80 0.04826
1120.90 0.04825
1121.00 0.04823
1121.10 0.04822
1121.20 0.04821
1121.30 0.04819
1121.40 0.04818
1121.50 0.04816
1121.60 0.04815
1121.70 0.04814
1121.80 0.04812
1121.90 0.04811
1122.00 0.0481
1122.10 0.04808
1122.20 0.04807
1122.30 0.04805
1122.40 0.04804
1122.50 0.04802
1122.60 0.04801
1122.70 0.04799
1122.80 0.04798
1122.90 0.04796
1123.00 0.04795
1123.10 0.04793
1123.20 0.04792
1123.30 0.0479
1123.40 0.04789
1123.50 0.04787
1123.60 0.04786
1123.70 0.04784
1123.80 0.04783
1123.90 0.04781
1124.00 0.0478
1124.10 0.04778
1124.20 0.04777
1124.30 0.04775
1124.40 0.04774
1124.50 0.04772
1124.60 0.04771
1124.70 0.04769
1124.80 0.04768
1124.90 0.04767
1125.00 0.04765
1125.10 0.04764
1125.20 0.04762
1125.30 0.04761
1125.40 0.04759
1125.50 0.04758
1125.60 0.04756
1125.70 0.04755
1125.80 0.04753
1125.90 0.04752
1126.00 0.0475
1126.10 0.04749
1126.20 0.04747
1126.30 0.04746
1126.40 0.04744
1126.50 0.04743
1126.60 0.04741
1126.70 0.0474
1126.80 0.04739
1126.90 0.04737
1127.00 0.04736
1127.10 0.04734
1127.20 0.04733
1127.30 0.04731
1127.40 0.04729
1127.50 0.04728
1127.60 0.04726
1127.70 0.04725
1127.80 0.04723
1127.90 0.04722
1128.00 0.0472
1128.10 0.04719
1128.20 0.04717
1128.30 0.04716
1128.40 0.04714
1128.50 0.04713
1128.60 0.04711
1128.70 0.0471
1128.80 0.04708
1128.90 0.04707
1129.00 0.04705
1129.10 0.04704
1129.20 0.04702
1129.30 0.04701
1129.40 0.04699
1129.50 0.04698
1129.60 0.04696
1129.70 0.04694
1129.80 0.04693
1129.90 0.04691
1130.00 0.0469
1130.10 0.04688
1130.20 0.04687
1130.30 0.04685
1130.40 0.04684
1130.50 0.04682
1130.60 0.04681
1130.70 0.04679
1130.80 0.04678
1130.90 0.04676
1131.00 0.04675
1131.10 0.04673
1131.20 0.04672
1131.30 0.0467
1131.40 0.04669
1131.50 0.04667
1131.60 0.04666
1131.70 0.04664
1131.80 0.04663
1131.90 0.04661
1132.00 0.0466
1132.10 0.04658
1132.20 0.04657
1132.30 0.04655
1132.40 0.04654
1132.50 0.04652
1132.60 0.04651
1132.70 0.04649
1132.80 0.04647
1132.90 0.04646
1133.00 0.04644
1133.10 0.04643
1133.20 0.04641
1133.30 0.0464
1133.40 0.04638
1133.50 0.04637
1133.60 0.04635
1133.70 0.04634
1133.80 0.04632
1133.90 0.04631
1134.00 0.04629
1134.10 0.04628
1134.20 0.04626
1134.30 0.04625
1134.40 0.04623
1134.50 0.04622
1134.60 0.0462
1134.70 0.04618
1134.80 0.04617
1134.90 0.04615
1135.00 0.04614
1135.10 0.04612
1135.20 0.04611
1135.30 0.04609
1135.40 0.04608
1135.50 0.04606
1135.60 0.04605
1135.70 0.04603
1135.80 0.04602
1135.90 0.046
1136.00 0.04599
1136.10 0.04597
1136.20 0.04596
1136.30 0.04594
1136.40 0.04593
1136.50 0.04591
1136.60 0.0459
1136.70 0.04588
1136.80 0.04587
1136.90 0.04585
1137.00 0.04584
1137.10 0.04582
1137.20 0.04581
1137.30 0.04579
1137.40 0.04578
1137.50 0.04576
1137.60 0.04575
1137.70 0.04573
1137.80 0.04571
1137.90 0.0457
1138.00 0.04568
1138.10 0.04567
1138.20 0.04565
1138.30 0.04564
1138.40 0.04562
1138.50 0.04561
1138.60 0.04559
1138.70 0.04558
1138.80 0.04556
1138.90 0.04555
1139.00 0.04553
1139.10 0.04552
1139.20 0.0455
1139.30 0.04549
1139.40 0.04547
1139.50 0.04546
1139.60 0.04544
1139.70 0.04543
1139.80 0.04541
1139.90 0.0454
1140.00 0.04538
1140.10 0.04537
1140.20 0.04535
1140.30 0.04534
1140.40 0.04532
1140.50 0.04531
1140.60 0.04529
1140.70 0.04528
1140.80 0.04526
1140.90 0.04525
1141.00 0.04523
1141.10 0.04522
1141.20 0.0452
1141.30 0.04519
1141.40 0.04517
1141.50 0.04516
1141.60 0.04514
1141.70 0.04513
1141.80 0.04511
1141.90 0.0451
1142.00 0.04508
1142.10 0.04507
1142.20 0.04505
1142.30 0.04504
1142.40 0.04502
1142.50 0.04501
1142.60 0.04499
1142.70 0.04498
1142.80 0.04496
1142.90 0.04495
1143.00 0.04493
1143.10 0.04492
1143.20 0.0449
1143.30 0.04489
1143.40 0.04487
1143.50 0.04486
1143.60 0.04484
1143.70 0.04483
1143.80 0.04481
1143.90 0.0448
1144.00 0.04478
1144.10 0.04477
1144.20 0.04475
1144.30 0.04474
1144.40 0.04472
1144.50 0.04471
1144.60 0.04469
1144.70 0.04468
1144.80 0.04466
1144.90 0.04465
1145.00 0.04463
1145.10 0.04462
1145.20 0.0446
1145.30 0.04459
1145.40 0.04457
1145.50 0.04456
1145.60 0.04454
1145.70 0.04453
1145.80 0.04451
1145.90 0.0445
1146.00 0.04448
1146.10 0.04447
1146.20 0.04445
1146.30 0.04444
1146.40 0.04442
1146.50 0.04441
1146.60 0.04439
1146.70 0.04438
1146.80 0.04436
1146.90 0.04435
1147.00 0.04433
1147.10 0.04432
1147.20 0.0443
1147.30 0.04429
1147.40 0.04427
1147.50 0.04426
1147.60 0.04425
1147.70 0.04423
1147.80 0.04422
1147.90 0.0442
1148.00 0.04419
1148.10 0.04417
1148.20 0.04416
1148.30 0.04414
1148.40 0.04413
1148.50 0.04411
1148.60 0.0441
1148.70 0.04408
1148.80 0.04407
1148.90 0.04405
1149.00 0.04404
1149.10 0.04402
1149.20 0.04401
1149.30 0.04399
1149.40 0.04398
1149.50 0.04397
1149.60 0.04395
1149.70 0.04394
1149.80 0.04392
1149.90 0.04391
1150.00 0.04389
1150.10 0.04388
1150.20 0.04386
1150.30 0.04385
1150.40 0.04383
1150.50 0.04382
1150.60 0.0438
1150.70 0.04379
1150.80 0.04377
1150.90 0.04376
1151.00 0.04375
1151.10 0.04373
1151.20 0.04372
1151.30 0.0437
1151.40 0.04369
1151.50 0.04367
1151.60 0.04366
1151.70 0.04364
1151.80 0.04363
1151.90 0.04361
1152.00 0.0436
1152.10 0.04358
1152.20 0.04357
1152.30 0.04356
1152.40 0.04354
1152.50 0.04353
1152.60 0.04351
1152.70 0.0435
1152.80 0.04348
1152.90 0.04347
1153.00 0.04345
1153.10 0.04344
1153.20 0.04342
1153.30 0.04341
1153.40 0.0434
1153.50 0.04338
1153.60 0.04337
1153.70 0.04335
1153.80 0.04334
1153.90 0.04332
1154.00 0.04331
1154.10 0.04329
1154.20 0.04328
1154.30 0.04327
1154.40 0.04325
1154.50 0.04324
1154.60 0.04322
1154.70 0.04321
1154.80 0.04319
1154.90 0.04318
1155.00 0.04316
1155.10 0.04315
1155.20 0.04314
1155.30 0.04312
1155.40 0.04311
1155.50 0.04309
1155.60 0.04308
1155.70 0.04306
1155.80 0.04305
1155.90 0.04303
1156.00 0.04302
1156.10 0.04301
1156.20 0.04299
1156.30 0.04298
1156.40 0.04296
1156.50 0.04295
1156.60 0.04293
1156.70 0.04292
1156.80 0.04291
1156.90 0.04289
1157.00 0.04288
1157.10 0.04286
1157.20 0.04285
1157.30 0.04283
1157.40 0.04282
1157.50 0.04281
1157.60 0.04279
1157.70 0.04278
1157.80 0.04276
1157.90 0.04275
1158.00 0.04273
1158.10 0.04272
1158.20 0.04271
1158.30 0.04269
1158.40 0.04268
1158.50 0.04266
1158.60 0.04265
1158.70 0.04263
1158.80 0.04262
1158.90 0.04261
1159.00 0.04259
1159.10 0.04258
1159.20 0.04256
1159.30 0.04255
1159.40 0.04253
1159.50 0.04252
1159.60 0.04251
1159.70 0.04249
1159.80 0.04248
1159.90 0.04246
1160.00 0.04245
1160.10 0.04244
1160.20 0.04242
1160.30 0.04241
1160.40 0.04239
1160.50 0.04238
1160.60 0.04236
1160.70 0.04235
1160.80 0.04234
1160.90 0.04232
1161.00 0.04231
1161.10 0.04229
1161.20 0.04228
1161.30 0.04227
1161.40 0.04225
1161.50 0.04224
1161.60 0.04222
1161.70 0.04221
1161.80 0.0422
1161.90 0.04218
1162.00 0.04217
1162.10 0.04215
1162.20 0.04214
1162.30 0.04213
1162.40 0.04211
1162.50 0.0421
1162.60 0.04208
1162.70 0.04207
1162.80 0.04205
1162.90 0.04204
1163.00 0.04203
1163.10 0.04201
1163.20 0.042
1163.30 0.04199
1163.40 0.04197
1163.50 0.04196
1163.60 0.04194
1163.70 0.04193
1163.80 0.04192
1163.90 0.0419
1164.00 0.04189
1164.10 0.04187
1164.20 0.04186
1164.30 0.04185
1164.40 0.04183
1164.50 0.04182
1164.60 0.0418
1164.70 0.04179
1164.80 0.04178
1164.90 0.04176
1165.00 0.04175
1165.10 0.04173
1165.20 0.04172
1165.30 0.04171
1165.40 0.04169
1165.50 0.04168
1165.60 0.04166
1165.70 0.04165
1165.80 0.04164
1165.90 0.04162
1166.00 0.04161
1166.10 0.0416
1166.20 0.04158
1166.30 0.04157
1166.40 0.04155
1166.50 0.04154
1166.60 0.04153
1166.70 0.04151
1166.80 0.0415
1166.90 0.04148
1167.00 0.04147
1167.10 0.04146
1167.20 0.04144
1167.30 0.04143
1167.40 0.04142
1167.50 0.0414
1167.60 0.04139
1167.70 0.04137
1167.80 0.04136
1167.90 0.04135
1168.00 0.04133
1168.10 0.04132
1168.20 0.04131
1168.30 0.04129
1168.40 0.04128
1168.50 0.04126
1168.60 0.04125
1168.70 0.04124
1168.80 0.04122
1168.90 0.04121
1169.00 0.0412
1169.10 0.04118
1169.20 0.04117
1169.30 0.04116
1169.40 0.04114
1169.50 0.04113
1169.60 0.04111
1169.70 0.0411
1169.80 0.04109
1169.90 0.04107
1170.00 0.04106
1170.10 0.04105
1170.20 0.04103
1170.30 0.04102
1170.40 0.04101
1170.50 0.04099
1170.60 0.04098
1170.70 0.04096
1170.80 0.04095
1170.90 0.04094
1171.00 0.04092
1171.10 0.04091
1171.20 0.0409
1171.30 0.04088
1171.40 0.04087
1171.50 0.04086
1171.60 0.04084
1171.70 0.04083
1171.80 0.04082
1171.90 0.0408
1172.00 0.04079
1172.10 0.04077
1172.20 0.04076
1172.30 0.04075
1172.40 0.04073
1172.50 0.04072
1172.60 0.04071
1172.70 0.04069
1172.80 0.04068
1172.90 0.04067
1173.00 0.04065
1173.10 0.04064
1173.20 0.04063
1173.30 0.04061
1173.40 0.0406
1173.50 0.04059
1173.60 0.04057
1173.70 0.04056
1173.80 0.04055
1173.90 0.04053
1174.00 0.04052
1174.10 0.04051
1174.20 0.04049
1174.30 0.04048
1174.40 0.04047
1174.50 0.04045
1174.60 0.04044
1174.70 0.04043
1174.80 0.04041
1174.90 0.0404
1175.00 0.04038
1175.10 0.04037
1175.20 0.04036
1175.30 0.04034
1175.40 0.04033
1175.50 0.04032
1175.60 0.0403
1175.70 0.04029
1175.80 0.04028
1175.90 0.04026
1176.00 0.04025
1176.10 0.04024
1176.20 0.04022
1176.30 0.04021
1176.40 0.0402
1176.50 0.04018
1176.60 0.04017
1176.70 0.04016
1176.80 0.04014
1176.90 0.04013
1177.00 0.04012
1177.10 0.04011
1177.20 0.04009
1177.30 0.04008
1177.40 0.04007
1177.50 0.04005
1177.60 0.04004
1177.70 0.04003
1177.80 0.04001
1177.90 0.04
1178.00 0.03999
1178.10 0.03997
1178.20 0.03996
1178.30 0.03995
1178.40 0.03993
1178.50 0.03992
1178.60 0.03991
1178.70 0.03989
1178.80 0.03988
1178.90 0.03987
1179.00 0.03985
1179.10 0.03984
1179.20 0.03983
1179.30 0.03981
1179.40 0.0398
1179.50 0.03979
1179.60 0.03978
1179.70 0.03976
1179.80 0.03975
1179.90 0.03974
1180.00 0.03972
1180.10 0.03971
1180.20 0.0397
1180.30 0.03968
1180.40 0.03967
1180.50 0.03966
1180.60 0.03964
1180.70 0.03963
1180.80 0.03962
1180.90 0.03961
1181.00 0.03959
1181.10 0.03958
1181.20 0.03957
1181.30 0.03955
1181.40 0.03954
1181.50 0.03953
1181.60 0.03951
1181.70 0.0395
1181.80 0.03949
1181.90 0.03947
1182.00 0.03946
1182.10 0.03945
1182.20 0.03944
1182.30 0.03942
1182.40 0.03941
1182.50 0.0394
1182.60 0.03938
1182.70 0.03937
1182.80 0.03936
1182.90 0.03934
1183.00 0.03933
1183.10 0.03932
1183.20 0.03931
1183.30 0.03929
1183.40 0.03928
1183.50 0.03927
1183.60 0.03925
1183.70 0.03924
1183.80 0.03923
1183.90 0.03922
1184.00 0.0392
1184.10 0.03919
1184.20 0.03918
1184.30 0.03916
1184.40 0.03915
1184.50 0.03914
1184.60 0.03913
1184.70 0.03911
1184.80 0.0391
1184.90 0.03909
1185.00 0.03907
1185.10 0.03906
1185.20 0.03905
1185.30 0.03904
1185.40 0.03902
1185.50 0.03901
1185.60 0.039
1185.70 0.03898
1185.80 0.03897
1185.90 0.03896
1186.00 0.03895
1186.10 0.03893
1186.20 0.03892
1186.30 0.03891
1186.40 0.03889
1186.50 0.03888
1186.60 0.03887
1186.70 0.03886
1186.80 0.03884
1186.90 0.03883
1187.00 0.03882
1187.10 0.0388
1187.20 0.03879
1187.30 0.03878
1187.40 0.03877
1187.50 0.03875
1187.60 0.03874
1187.70 0.03873
1187.80 0.03872
1187.90 0.0387
1188.00 0.03869
1188.10 0.03868
1188.20 0.03866
1188.30 0.03865
1188.40 0.03864
1188.50 0.03863
1188.60 0.03861
1188.70 0.0386
1188.80 0.03859
1188.90 0.03858
1189.00 0.03856
1189.10 0.03855
1189.20 0.03854
1189.30 0.03853
1189.40 0.03851
1189.50 0.0385
1189.60 0.03849
1189.70 0.03848
1189.80 0.03846
1189.90 0.03845
1190.00 0.03844
1190.10 0.03842
1190.20 0.03841
1190.30 0.0384
1190.40 0.03839
1190.50 0.03837
1190.60 0.03836
1190.70 0.03835
1190.80 0.03834
1190.90 0.03832
1191.00 0.03831
1191.10 0.0383
1191.20 0.03829
1191.30 0.03827
1191.40 0.03826
1191.50 0.03825
1191.60 0.03824
1191.70 0.03822
1191.80 0.03821
1191.90 0.0382
1192.00 0.03819
1192.10 0.03817
1192.20 0.03816
1192.30 0.03815
1192.40 0.03814
1192.50 0.03812
1192.60 0.03811
1192.70 0.0381
1192.80 0.03809
1192.90 0.03807
1193.00 0.03806
1193.10 0.03805
1193.20 0.03804
1193.30 0.03802
1193.40 0.03801
1193.50 0.038
1193.60 0.03799
1193.70 0.03797
1193.80 0.03796
1193.90 0.03795
1194.00 0.03794
1194.10 0.03792
1194.20 0.03791
1194.30 0.0379
1194.40 0.03789
1194.50 0.03787
1194.60 0.03786
1194.70 0.03785
1194.80 0.03784
1194.90 0.03783
1195.00 0.03781
1195.10 0.0378
1195.20 0.03779
1195.30 0.03778
1195.40 0.03776
1195.50 0.03775
1195.60 0.03774
1195.70 0.03773
1195.80 0.03771
1195.90 0.0377
1196.00 0.03769
1196.10 0.03768
1196.20 0.03766
1196.30 0.03765
1196.40 0.03764
1196.50 0.03763
1196.60 0.03762
1196.70 0.0376
1196.80 0.03759
1196.90 0.03758
1197.00 0.03757
1197.10 0.03755
1197.20 0.03754
1197.30 0.03753
1197.40 0.03752
1197.50 0.03751
1197.60 0.03749
1197.70 0.03748
1197.80 0.03747
1197.90 0.03746
1198.00 0.03744
1198.10 0.03743
1198.20 0.03742
1198.30 0.03741
1198.40 0.0374
1198.50 0.03738
1198.60 0.03737
1198.70 0.03736
1198.80 0.03735
1198.90 0.03733
1199.00 0.03732
1199.10 0.03731
1199.20 0.0373
1199.30 0.03729
1199.40 0.03727
1199.50 0.03726
1199.60 0.03725
1199.70 0.03724
1199.80 0.03722
1199.90 0.03721
1200.00 0
