# Version 2.1 - nm, norm@500 to 1, cut digits, bergeron_15000_95.dat_15000
# Wavelength(nm)  Flambda(ergs/cm^s/s/nm)
300.00 2.842
300.10 2.839
300.20 2.837
300.30 2.835
300.40 2.833
300.50 2.831
300.60 2.828
300.70 2.826
300.80 2.824
300.90 2.822
301.00 2.82
301.10 2.817
301.20 2.815
301.30 2.813
301.40 2.811
301.50 2.809
301.60 2.807
301.70 2.804
301.80 2.802
301.90 2.8
302.00 2.798
302.10 2.796
302.20 2.794
302.30 2.792
302.40 2.789
302.50 2.787
302.60 2.785
302.70 2.783
302.80 2.781
302.90 2.779
303.00 2.777
303.10 2.774
303.20 2.772
303.30 2.77
303.40 2.768
303.50 2.766
303.60 2.764
303.70 2.762
303.80 2.76
303.90 2.757
304.00 2.755
304.10 2.753
304.20 2.751
304.30 2.749
304.40 2.747
304.50 2.745
304.60 2.743
304.70 2.741
304.80 2.738
304.90 2.736
305.00 2.734
305.10 2.732
305.20 2.73
305.30 2.728
305.40 2.726
305.50 2.724
305.60 2.722
305.70 2.72
305.80 2.718
305.90 2.715
306.00 2.713
306.10 2.711
306.20 2.709
306.30 2.707
306.40 2.705
306.50 2.703
306.60 2.701
306.70 2.699
306.80 2.697
306.90 2.695
307.00 2.693
307.10 2.691
307.20 2.688
307.30 2.686
307.40 2.684
307.50 2.682
307.60 2.68
307.70 2.678
307.80 2.676
307.90 2.674
308.00 2.672
308.10 2.67
308.20 2.668
308.30 2.666
308.40 2.664
308.50 2.662
308.60 2.66
308.70 2.658
308.80 2.656
308.90 2.654
309.00 2.652
309.10 2.65
309.20 2.648
309.30 2.646
309.40 2.644
309.50 2.642
309.60 2.64
309.70 2.638
309.80 2.636
309.90 2.634
310.00 2.632
310.10 2.63
310.20 2.628
310.30 2.626
310.40 2.624
310.50 2.622
310.60 2.62
310.70 2.618
310.80 2.616
310.90 2.614
311.00 2.612
311.10 2.61
311.20 2.608
311.30 2.606
311.40 2.604
311.50 2.602
311.60 2.6
311.70 2.598
311.80 2.596
311.90 2.594
312.00 2.592
312.10 2.59
312.20 2.588
312.30 2.586
312.40 2.584
312.50 2.582
312.60 2.58
312.70 2.578
312.80 2.576
312.90 2.574
313.00 2.572
313.10 2.571
313.20 2.569
313.30 2.567
313.40 2.565
313.50 2.563
313.60 2.561
313.70 2.559
313.80 2.557
313.90 2.555
314.00 2.553
314.10 2.551
314.20 2.549
314.30 2.547
314.40 2.545
314.50 2.543
314.60 2.542
314.70 2.54
314.80 2.538
314.90 2.536
315.00 2.534
315.10 2.532
315.20 2.53
315.30 2.528
315.40 2.526
315.50 2.524
315.60 2.522
315.70 2.52
315.80 2.519
315.90 2.517
316.00 2.515
316.10 2.513
316.20 2.511
316.30 2.509
316.40 2.507
316.50 2.505
316.60 2.503
316.70 2.502
316.80 2.5
316.90 2.498
317.00 2.496
317.10 2.494
317.20 2.492
317.30 2.49
317.40 2.488
317.50 2.486
317.60 2.485
317.70 2.483
317.80 2.481
317.90 2.479
318.00 2.477
318.10 2.475
318.20 2.473
318.30 2.472
318.40 2.47
318.50 2.468
318.60 2.466
318.70 2.464
318.80 2.462
318.90 2.46
319.00 2.459
319.10 2.457
319.20 2.455
319.30 2.453
319.40 2.451
319.50 2.449
319.60 2.448
319.70 2.446
319.80 2.444
319.90 2.442
320.00 2.44
320.10 2.438
320.20 2.437
320.30 2.435
320.40 2.433
320.50 2.431
320.60 2.429
320.70 2.428
320.80 2.426
320.90 2.424
321.00 2.422
321.10 2.42
321.20 2.418
321.30 2.417
321.40 2.415
321.50 2.413
321.60 2.411
321.70 2.409
321.80 2.408
321.90 2.406
322.00 2.404
322.10 2.402
322.20 2.4
322.30 2.399
322.40 2.397
322.50 2.395
322.60 2.393
322.70 2.392
322.80 2.39
322.90 2.388
323.00 2.386
323.10 2.384
323.20 2.383
323.30 2.381
323.40 2.379
323.50 2.377
323.60 2.376
323.70 2.374
323.80 2.372
323.90 2.37
324.00 2.369
324.10 2.367
324.20 2.365
324.30 2.363
324.40 2.362
324.50 2.36
324.60 2.358
324.70 2.356
324.80 2.355
324.90 2.353
325.00 2.351
325.10 2.349
325.20 2.348
325.30 2.346
325.40 2.344
325.50 2.342
325.60 2.341
325.70 2.339
325.80 2.337
325.90 2.335
326.00 2.334
326.10 2.332
326.20 2.33
326.30 2.328
326.40 2.327
326.50 2.325
326.60 2.323
326.70 2.322
326.80 2.32
326.90 2.318
327.00 2.316
327.10 2.315
327.20 2.313
327.30 2.311
327.40 2.31
327.50 2.308
327.60 2.306
327.70 2.304
327.80 2.303
327.90 2.301
328.00 2.299
328.10 2.298
328.20 2.296
328.30 2.294
328.40 2.293
328.50 2.291
328.60 2.289
328.70 2.287
328.80 2.286
328.90 2.284
329.00 2.282
329.10 2.281
329.20 2.279
329.30 2.277
329.40 2.276
329.50 2.274
329.60 2.272
329.70 2.271
329.80 2.269
329.90 2.267
330.00 2.266
330.10 2.264
330.20 2.262
330.30 2.261
330.40 2.259
330.50 2.257
330.60 2.256
330.70 2.254
330.80 2.252
330.90 2.251
331.00 2.249
331.10 2.247
331.20 2.246
331.30 2.244
331.40 2.242
331.50 2.241
331.60 2.239
331.70 2.237
331.80 2.236
331.90 2.234
332.00 2.232
332.10 2.231
332.20 2.229
332.30 2.228
332.40 2.226
332.50 2.224
332.60 2.223
332.70 2.221
332.80 2.219
332.90 2.218
333.00 2.216
333.10 2.215
333.20 2.213
333.30 2.211
333.40 2.21
333.50 2.208
333.60 2.206
333.70 2.205
333.80 2.203
333.90 2.202
334.00 2.2
334.10 2.198
334.20 2.197
334.30 2.195
334.40 2.194
334.50 2.192
334.60 2.19
334.70 2.189
334.80 2.187
334.90 2.186
335.00 2.184
335.10 2.182
335.20 2.181
335.30 2.179
335.40 2.178
335.50 2.176
335.60 2.174
335.70 2.173
335.80 2.171
335.90 2.17
336.00 2.168
336.10 2.166
336.20 2.165
336.30 2.163
336.40 2.162
336.50 2.16
336.60 2.159
336.70 2.157
336.80 2.155
336.90 2.154
337.00 2.152
337.10 2.151
337.20 2.149
337.30 2.148
337.40 2.146
337.50 2.144
337.60 2.143
337.70 2.141
337.80 2.14
337.90 2.138
338.00 2.137
338.10 2.135
338.20 2.134
338.30 2.132
338.40 2.13
338.50 2.129
338.60 2.127
338.70 2.126
338.80 2.124
338.90 2.123
339.00 2.121
339.10 2.12
339.20 2.118
339.30 2.117
339.40 2.115
339.50 2.114
339.60 2.112
339.70 2.111
339.80 2.109
339.90 2.107
340.00 2.106
340.10 2.104
340.20 2.103
340.30 2.101
340.40 2.1
340.50 2.098
340.60 2.097
340.70 2.095
340.80 2.094
340.90 2.092
341.00 2.091
341.10 2.089
341.20 2.088
341.30 2.086
341.40 2.085
341.50 2.083
341.60 2.082
341.70 2.08
341.80 2.079
341.90 2.077
342.00 2.076
342.10 2.074
342.20 2.073
342.30 2.071
342.40 2.07
342.50 2.068
342.60 2.067
342.70 2.065
342.80 2.064
342.90 2.062
343.00 2.061
343.10 2.059
343.20 2.058
343.30 2.056
343.40 2.055
343.50 2.053
343.60 2.052
343.70 2.05
343.80 2.049
343.90 2.047
344.00 2.046
344.10 2.044
344.20 2.043
344.30 2.041
344.40 2.04
344.50 2.038
344.60 2.037
344.70 2.036
344.80 2.034
344.90 2.033
345.00 2.031
345.10 2.03
345.20 2.028
345.30 2.027
345.40 2.025
345.50 2.024
345.60 2.022
345.70 2.021
345.80 2.019
345.90 2.018
346.00 2.017
346.10 2.015
346.20 2.014
346.30 2.012
346.40 2.011
346.50 2.009
346.60 2.008
346.70 2.006
346.80 2.005
346.90 2.004
347.00 2.002
347.10 2.001
347.20 1.999
347.30 1.998
347.40 1.996
347.50 1.995
347.60 1.994
347.70 1.992
347.80 1.991
347.90 1.989
348.00 1.988
348.10 1.986
348.20 1.985
348.30 1.984
348.40 1.982
348.50 1.981
348.60 1.979
348.70 1.978
348.80 1.977
348.90 1.975
349.00 1.974
349.10 1.972
349.20 1.971
349.30 1.97
349.40 1.968
349.50 1.967
349.60 1.965
349.70 1.964
349.80 1.963
349.90 1.961
350.00 1.96
350.10 1.958
350.20 1.957
350.30 1.956
350.40 1.954
350.50 1.953
350.60 1.951
350.70 1.95
350.80 1.949
350.90 1.947
351.00 1.946
351.10 1.944
351.20 1.943
351.30 1.942
351.40 1.94
351.50 1.939
351.60 1.937
351.70 1.936
351.80 1.935
351.90 1.933
352.00 1.932
352.10 1.931
352.20 1.929
352.30 1.928
352.40 1.926
352.50 1.925
352.60 1.924
352.70 1.922
352.80 1.921
352.90 1.92
353.00 1.918
353.10 1.917
353.20 1.915
353.30 1.914
353.40 1.913
353.50 1.911
353.60 1.91
353.70 1.909
353.80 1.907
353.90 1.906
354.00 1.905
354.10 1.903
354.20 1.902
354.30 1.901
354.40 1.899
354.50 1.898
354.60 1.897
354.70 1.895
354.80 1.894
354.90 1.893
355.00 1.891
355.10 1.89
355.20 1.889
355.30 1.887
355.40 1.886
355.50 1.885
355.60 1.883
355.70 1.882
355.80 1.881
355.90 1.879
356.00 1.878
356.10 1.877
356.20 1.875
356.30 1.874
356.40 1.873
356.50 1.871
356.60 1.87
356.70 1.869
356.80 1.867
356.90 1.866
357.00 1.865
357.10 1.863
357.20 1.862
357.30 1.861
357.40 1.859
357.50 1.858
357.60 1.857
357.70 1.855
357.80 1.854
357.90 1.853
358.00 1.852
358.10 1.85
358.20 1.849
358.30 1.848
358.40 1.846
358.50 1.845
358.60 1.844
358.70 1.842
358.80 1.841
358.90 1.84
359.00 1.839
359.10 1.837
359.20 1.836
359.30 1.835
359.40 1.833
359.50 1.832
359.60 1.831
359.70 1.83
359.80 1.828
359.90 1.827
360.00 1.826
360.10 1.824
360.20 1.823
360.30 1.822
360.40 1.821
360.50 1.819
360.60 1.818
360.70 1.817
360.80 1.815
360.90 1.814
361.00 1.813
361.10 1.812
361.20 1.81
361.30 1.809
361.40 1.808
361.50 1.807
361.60 1.805
361.70 1.804
361.80 1.803
361.90 1.801
362.00 1.8
362.10 1.799
362.20 1.798
362.30 1.796
362.40 1.795
362.50 1.794
362.60 1.793
362.70 1.791
362.80 1.79
362.90 1.789
363.00 1.788
363.10 1.786
363.20 1.785
363.30 1.783
363.40 1.782
363.50 1.78
363.60 1.779
363.70 1.777
363.80 1.776
363.90 1.774
364.00 1.773
364.10 1.772
364.20 1.77
364.30 1.769
364.40 1.767
364.50 1.766
364.60 1.764
364.70 1.763
364.80 1.761
364.90 1.76
365.00 1.758
365.10 1.757
365.20 1.755
365.30 1.754
365.40 1.752
365.50 1.751
365.60 1.749
365.70 1.748
365.80 1.746
365.90 1.745
366.00 1.743
366.10 1.742
366.20 1.74
366.30 1.739
366.40 1.738
366.50 1.737
366.60 1.735
366.70 1.734
366.80 1.733
366.90 1.732
367.00 1.73
367.10 1.729
367.20 1.728
367.30 1.726
367.40 1.725
367.50 1.724
367.60 1.723
367.70 1.721
367.80 1.72
367.90 1.719
368.00 1.718
368.10 1.716
368.20 1.715
368.30 1.714
368.40 1.712
368.50 1.711
368.60 1.71
368.70 1.708
368.80 1.707
368.90 1.706
369.00 1.705
369.10 1.703
369.20 1.702
369.30 1.701
369.40 1.7
369.50 1.698
369.60 1.697
369.70 1.696
369.80 1.694
369.90 1.693
370.00 1.692
370.10 1.691
370.20 1.689
370.30 1.688
370.40 1.687
370.50 1.686
370.60 1.684
370.70 1.683
370.80 1.682
370.90 1.681
371.00 1.679
371.10 1.678
371.20 1.677
371.30 1.676
371.40 1.674
371.50 1.673
371.60 1.672
371.70 1.671
371.80 1.67
371.90 1.668
372.00 1.667
372.10 1.666
372.20 1.665
372.30 1.664
372.40 1.662
372.50 1.661
372.60 1.66
372.70 1.659
372.80 1.658
372.90 1.657
373.00 1.655
373.10 1.654
373.20 1.653
373.30 1.652
373.40 1.651
373.50 1.65
373.60 1.649
373.70 1.647
373.80 1.646
373.90 1.645
374.00 1.644
374.10 1.643
374.20 1.642
374.30 1.641
374.40 1.64
374.50 1.639
374.60 1.637
374.70 1.636
374.80 1.635
374.90 1.634
375.00 1.633
375.10 1.632
375.20 1.631
375.30 1.63
375.40 1.629
375.50 1.628
375.60 1.627
375.70 1.626
375.80 1.625
375.90 1.624
376.00 1.622
376.10 1.622
376.20 1.621
376.30 1.62
376.40 1.619
376.50 1.618
376.60 1.617
376.70 1.616
376.80 1.615
376.90 1.614
377.00 1.613
377.10 1.612
377.20 1.61
377.30 1.609
377.40 1.608
377.50 1.607
377.60 1.606
377.70 1.605
377.80 1.604
377.90 1.603
378.00 1.602
378.10 1.601
378.20 1.599
378.30 1.598
378.40 1.597
378.50 1.595
378.60 1.594
378.70 1.593
378.80 1.591
378.90 1.59
379.00 1.589
379.10 1.588
379.20 1.587
379.30 1.585
379.40 1.584
379.50 1.583
379.60 1.582
379.70 1.581
379.80 1.58
379.90 1.579
380.00 1.578
380.10 1.578
380.20 1.577
380.30 1.577
380.40 1.576
380.50 1.576
380.60 1.576
380.70 1.575
380.80 1.575
380.90 1.574
381.00 1.574
381.10 1.573
381.20 1.573
381.30 1.572
381.40 1.572
381.50 1.571
381.60 1.57
381.70 1.569
381.80 1.568
381.90 1.567
382.00 1.566
382.10 1.565
382.20 1.563
382.30 1.561
382.40 1.559
382.50 1.558
382.60 1.556
382.70 1.554
382.80 1.552
382.90 1.55
383.00 1.548
383.10 1.547
383.20 1.545
383.30 1.543
383.40 1.542
383.50 1.541
383.60 1.54
383.70 1.541
383.80 1.541
383.90 1.542
384.00 1.542
384.10 1.543
384.20 1.545
384.30 1.546
384.40 1.547
384.50 1.548
384.60 1.549
384.70 1.549
384.80 1.55
384.90 1.55
385.00 1.55
385.10 1.55
385.20 1.55
385.30 1.55
385.40 1.55
385.50 1.549
385.60 1.549
385.70 1.548
385.80 1.548
385.90 1.547
386.00 1.546
386.10 1.545
386.20 1.544
386.30 1.542
386.40 1.541
386.50 1.539
386.60 1.538
386.70 1.536
386.80 1.534
386.90 1.532
387.00 1.53
387.10 1.528
387.20 1.526
387.30 1.523
387.40 1.521
387.50 1.518
387.60 1.515
387.70 1.513
387.80 1.509
387.90 1.506
388.00 1.503
388.10 1.499
388.20 1.495
388.30 1.491
388.40 1.486
388.50 1.482
388.60 1.478
388.70 1.476
388.80 1.474
388.90 1.473
389.00 1.473
389.10 1.475
389.20 1.476
389.30 1.479
389.40 1.483
389.50 1.487
389.60 1.491
389.70 1.495
389.80 1.498
389.90 1.501
390.00 1.504
390.10 1.506
390.20 1.509
390.30 1.511
390.40 1.513
390.50 1.515
390.60 1.517
390.70 1.519
390.80 1.52
390.90 1.522
391.00 1.523
391.10 1.524
391.20 1.525
391.30 1.526
391.40 1.527
391.50 1.527
391.60 1.528
391.70 1.528
391.80 1.528
391.90 1.528
392.00 1.528
392.10 1.527
392.20 1.527
392.30 1.526
392.40 1.526
392.50 1.525
392.60 1.523
392.70 1.522
392.80 1.521
392.90 1.519
393.00 1.517
393.10 1.515
393.20 1.513
393.30 1.511
393.40 1.508
393.50 1.506
393.60 1.503
393.70 1.5
393.80 1.496
393.90 1.493
394.00 1.489
394.10 1.485
394.20 1.481
394.30 1.477
394.40 1.473
394.50 1.468
394.60 1.464
394.70 1.458
394.80 1.453
394.90 1.448
395.00 1.442
395.10 1.436
395.20 1.43
395.30 1.424
395.40 1.417
395.50 1.41
395.60 1.403
395.70 1.396
395.80 1.389
395.90 1.381
396.00 1.373
396.10 1.365
396.20 1.357
396.30 1.348
396.40 1.338
396.50 1.327
396.60 1.315
396.70 1.303
396.80 1.295
396.90 1.287
397.00 1.279
397.10 1.286
397.20 1.293
397.30 1.3
397.40 1.312
397.50 1.323
397.60 1.334
397.70 1.343
397.80 1.352
397.90 1.36
398.00 1.368
398.10 1.375
398.20 1.383
398.30 1.39
398.40 1.396
398.50 1.403
398.60 1.41
398.70 1.416
398.80 1.422
398.90 1.428
399.00 1.434
399.10 1.439
399.20 1.444
399.30 1.449
399.40 1.454
399.50 1.459
399.60 1.464
399.70 1.468
399.80 1.472
399.90 1.476
400.00 1.48
400.10 1.484
400.20 1.487
400.30 1.49
400.40 1.493
400.50 1.496
400.60 1.499
400.70 1.502
400.80 1.504
400.90 1.506
401.00 1.508
401.10 1.51
401.20 1.512
401.30 1.514
401.40 1.515
401.50 1.516
401.60 1.518
401.70 1.519
401.80 1.519
401.90 1.52
402.00 1.521
402.10 1.521
402.20 1.521
402.30 1.521
402.40 1.521
402.50 1.521
402.60 1.521
402.70 1.52
402.80 1.52
402.90 1.519
403.00 1.518
403.10 1.517
403.20 1.516
403.30 1.514
403.40 1.513
403.50 1.511
403.60 1.509
403.70 1.507
403.80 1.505
403.90 1.503
404.00 1.5
404.10 1.497
404.20 1.494
404.30 1.491
404.40 1.488
404.50 1.485
404.60 1.482
404.70 1.478
404.80 1.475
404.90 1.471
405.00 1.467
405.10 1.462
405.20 1.458
405.30 1.453
405.40 1.449
405.50 1.444
405.60 1.438
405.70 1.433
405.80 1.428
405.90 1.422
406.00 1.416
406.10 1.41
406.20 1.404
406.30 1.397
406.40 1.39
406.50 1.383
406.60 1.376
406.70 1.369
406.80 1.361
406.90 1.354
407.00 1.346
407.10 1.337
407.20 1.329
407.30 1.32
407.40 1.311
407.50 1.302
407.60 1.292
407.70 1.282
407.80 1.272
407.90 1.262
408.00 1.251
408.10 1.241
408.20 1.23
408.30 1.218
408.40 1.207
408.50 1.195
408.60 1.182
408.70 1.17
408.80 1.157
408.90 1.144
409.00 1.13
409.10 1.117
409.20 1.104
409.30 1.091
409.40 1.077
409.50 1.063
409.60 1.048
409.70 1.033
409.80 1.017
409.90 1.001
410.00 0.9895
410.10 0.9825
410.20 0.98
410.30 0.9847
410.40 0.9936
410.50 1.007
410.60 1.022
410.70 1.037
410.80 1.051
410.90 1.064
411.00 1.077
411.10 1.09
411.20 1.102
411.30 1.114
411.40 1.126
411.50 1.139
411.60 1.151
411.70 1.163
411.80 1.174
411.90 1.185
412.00 1.196
412.10 1.206
412.20 1.216
412.30 1.226
412.40 1.236
412.50 1.246
412.60 1.255
412.70 1.264
412.80 1.273
412.90 1.281
413.00 1.29
413.10 1.298
413.20 1.306
413.30 1.313
413.40 1.32
413.50 1.328
413.60 1.335
413.70 1.342
413.80 1.348
413.90 1.355
414.00 1.361
414.10 1.367
414.20 1.373
414.30 1.379
414.40 1.385
414.50 1.39
414.60 1.396
414.70 1.401
414.80 1.406
414.90 1.411
415.00 1.416
415.10 1.42
415.20 1.425
415.30 1.429
415.40 1.433
415.50 1.437
415.60 1.441
415.70 1.445
415.80 1.449
415.90 1.453
416.00 1.456
416.10 1.46
416.20 1.463
416.30 1.467
416.40 1.47
416.50 1.473
416.60 1.476
416.70 1.479
416.80 1.482
416.90 1.485
417.00 1.487
417.10 1.49
417.20 1.492
417.30 1.495
417.40 1.497
417.50 1.499
417.60 1.501
417.70 1.503
417.80 1.505
417.90 1.507
418.00 1.509
418.10 1.51
418.20 1.512
418.30 1.514
418.40 1.515
418.50 1.516
418.60 1.518
418.70 1.519
418.80 1.52
418.90 1.521
419.00 1.522
419.10 1.523
419.20 1.524
419.30 1.524
419.40 1.525
419.50 1.526
419.60 1.526
419.70 1.527
419.80 1.527
419.90 1.528
420.00 1.528
420.10 1.528
420.20 1.528
420.30 1.528
420.40 1.528
420.50 1.528
420.60 1.528
420.70 1.528
420.80 1.527
420.90 1.527
421.00 1.527
421.10 1.526
421.20 1.525
421.30 1.525
421.40 1.524
421.50 1.523
421.60 1.523
421.70 1.522
421.80 1.521
421.90 1.52
422.00 1.519
422.10 1.517
422.20 1.516
422.30 1.515
422.40 1.514
422.50 1.512
422.60 1.511
422.70 1.509
422.80 1.507
422.90 1.506
423.00 1.504
423.10 1.502
423.20 1.5
423.30 1.498
423.40 1.496
423.50 1.494
423.60 1.492
423.70 1.49
423.80 1.487
423.90 1.485
424.00 1.483
424.10 1.48
424.20 1.477
424.30 1.475
424.40 1.472
424.50 1.469
424.60 1.466
424.70 1.463
424.80 1.46
424.90 1.457
425.00 1.454
425.10 1.451
425.20 1.448
425.30 1.444
425.40 1.441
425.50 1.437
425.60 1.433
425.70 1.43
425.80 1.426
425.90 1.422
426.00 1.418
426.10 1.414
426.20 1.409
426.30 1.405
426.40 1.4
426.50 1.396
426.60 1.392
426.70 1.387
426.80 1.383
426.90 1.378
427.00 1.373
427.10 1.368
427.20 1.363
427.30 1.358
427.40 1.353
427.50 1.348
427.60 1.342
427.70 1.337
427.80 1.331
427.90 1.326
428.00 1.32
428.10 1.314
428.20 1.309
428.30 1.303
428.40 1.297
428.50 1.291
428.60 1.285
428.70 1.278
428.80 1.272
428.90 1.266
429.00 1.259
429.10 1.252
429.20 1.245
429.30 1.238
429.40 1.231
429.50 1.224
429.60 1.217
429.70 1.209
429.80 1.201
429.90 1.194
430.00 1.186
430.10 1.178
430.20 1.169
430.30 1.161
430.40 1.153
430.50 1.144
430.60 1.135
430.70 1.126
430.80 1.117
430.90 1.108
431.00 1.098
431.10 1.088
431.20 1.078
431.30 1.068
431.40 1.058
431.50 1.047
431.60 1.036
431.70 1.025
431.80 1.014
431.90 1.003
432.00 0.991
432.10 0.9792
432.20 0.9669
432.30 0.9544
432.40 0.9416
432.50 0.9281
432.60 0.9143
432.70 0.9
432.80 0.8853
432.90 0.8706
433.00 0.8559
433.10 0.8414
433.20 0.8268
433.30 0.8121
433.40 0.7971
433.50 0.7818
433.60 0.7661
433.70 0.7461
433.80 0.721
433.90 0.6911
434.00 0.6606
434.10 0.6612
434.20 0.6928
434.30 0.7216
434.40 0.7455
434.50 0.7645
434.60 0.7792
434.70 0.7937
434.80 0.8079
434.90 0.8217
435.00 0.8353
435.10 0.8489
435.20 0.8627
435.30 0.8763
435.40 0.89
435.50 0.9031
435.60 0.9158
435.70 0.9281
435.80 0.9397
435.90 0.951
436.00 0.962
436.10 0.9726
436.20 0.983
436.30 0.9932
436.40 1.003
436.50 1.013
436.60 1.022
436.70 1.031
436.80 1.04
436.90 1.049
437.00 1.058
437.10 1.066
437.20 1.074
437.30 1.082
437.40 1.09
437.50 1.097
437.60 1.105
437.70 1.112
437.80 1.119
437.90 1.126
438.00 1.133
438.10 1.139
438.20 1.146
438.30 1.152
438.40 1.158
438.50 1.164
438.60 1.17
438.70 1.176
438.80 1.181
438.90 1.187
439.00 1.192
439.10 1.197
439.20 1.202
439.30 1.207
439.40 1.212
439.50 1.217
439.60 1.221
439.70 1.226
439.80 1.23
439.90 1.235
440.00 1.239
440.10 1.243
440.20 1.248
440.30 1.252
440.40 1.256
440.50 1.26
440.60 1.264
440.70 1.268
440.80 1.271
440.90 1.275
441.00 1.279
441.10 1.282
441.20 1.286
441.30 1.289
441.40 1.292
441.50 1.295
441.60 1.298
441.70 1.301
441.80 1.304
441.90 1.307
442.00 1.31
442.10 1.313
442.20 1.315
442.30 1.318
442.40 1.32
442.50 1.323
442.60 1.325
442.70 1.328
442.80 1.33
442.90 1.332
443.00 1.335
443.10 1.337
443.20 1.339
443.30 1.341
443.40 1.343
443.50 1.345
443.60 1.347
443.70 1.349
443.80 1.351
443.90 1.352
444.00 1.354
444.10 1.356
444.20 1.358
444.30 1.359
444.40 1.361
444.50 1.362
444.60 1.364
444.70 1.365
444.80 1.367
444.90 1.368
445.00 1.369
445.10 1.371
445.20 1.372
445.30 1.373
445.40 1.374
445.50 1.375
445.60 1.377
445.70 1.378
445.80 1.379
445.90 1.38
446.00 1.381
446.10 1.382
446.20 1.383
446.30 1.383
446.40 1.384
446.50 1.385
446.60 1.386
446.70 1.387
446.80 1.387
446.90 1.388
447.00 1.389
447.10 1.39
447.20 1.39
447.30 1.391
447.40 1.391
447.50 1.392
447.60 1.392
447.70 1.393
447.80 1.393
447.90 1.394
448.00 1.394
448.10 1.395
448.20 1.395
448.30 1.395
448.40 1.396
448.50 1.396
448.60 1.396
448.70 1.397
448.80 1.397
448.90 1.397
449.00 1.397
449.10 1.398
449.20 1.398
449.30 1.398
449.40 1.398
449.50 1.398
449.60 1.398
449.70 1.398
449.80 1.399
449.90 1.399
450.00 1.399
450.10 1.399
450.20 1.399
450.30 1.399
450.40 1.398
450.50 1.398
450.60 1.398
450.70 1.398
450.80 1.398
450.90 1.398
451.00 1.398
451.10 1.398
451.20 1.398
451.30 1.397
451.40 1.397
451.50 1.397
451.60 1.397
451.70 1.397
451.80 1.396
451.90 1.396
452.00 1.396
452.10 1.396
452.20 1.395
452.30 1.395
452.40 1.395
452.50 1.394
452.60 1.394
452.70 1.394
452.80 1.393
452.90 1.393
453.00 1.392
453.10 1.392
453.20 1.392
453.30 1.391
453.40 1.391
453.50 1.39
453.60 1.39
453.70 1.389
453.80 1.389
453.90 1.388
454.00 1.388
454.10 1.387
454.20 1.387
454.30 1.386
454.40 1.386
454.50 1.385
454.60 1.385
454.70 1.384
454.80 1.383
454.90 1.383
455.00 1.382
455.10 1.382
455.20 1.381
455.30 1.381
455.40 1.38
455.50 1.379
455.60 1.379
455.70 1.378
455.80 1.377
455.90 1.377
456.00 1.376
456.10 1.375
456.20 1.375
456.30 1.374
456.40 1.373
456.50 1.373
456.60 1.372
456.70 1.371
456.80 1.371
456.90 1.37
457.00 1.369
457.10 1.369
457.20 1.368
457.30 1.367
457.40 1.367
457.50 1.366
457.60 1.365
457.70 1.364
457.80 1.363
457.90 1.362
458.00 1.362
458.10 1.361
458.20 1.36
458.30 1.359
458.40 1.358
458.50 1.357
458.60 1.357
458.70 1.356
458.80 1.355
458.90 1.354
459.00 1.353
459.10 1.352
459.20 1.351
459.30 1.35
459.40 1.349
459.50 1.348
459.60 1.348
459.70 1.347
459.80 1.346
459.90 1.345
460.00 1.344
460.10 1.343
460.20 1.342
460.30 1.341
460.40 1.34
460.50 1.339
460.60 1.338
460.70 1.337
460.80 1.336
460.90 1.335
461.00 1.334
461.10 1.333
461.20 1.332
461.30 1.331
461.40 1.33
461.50 1.329
461.60 1.328
461.70 1.326
461.80 1.325
461.90 1.324
462.00 1.323
462.10 1.322
462.20 1.321
462.30 1.32
462.40 1.319
462.50 1.318
462.60 1.317
462.70 1.315
462.80 1.314
462.90 1.313
463.00 1.312
463.10 1.311
463.20 1.31
463.30 1.309
463.40 1.307
463.50 1.306
463.60 1.305
463.70 1.304
463.80 1.303
463.90 1.301
464.00 1.3
464.10 1.299
464.20 1.298
464.30 1.296
464.40 1.295
464.50 1.294
464.60 1.293
464.70 1.291
464.80 1.29
464.90 1.289
465.00 1.288
465.10 1.286
465.20 1.285
465.30 1.284
465.40 1.282
465.50 1.281
465.60 1.28
465.70 1.278
465.80 1.277
465.90 1.276
466.00 1.274
466.10 1.273
466.20 1.271
466.30 1.27
466.40 1.269
466.50 1.267
466.60 1.266
466.70 1.264
466.80 1.263
466.90 1.261
467.00 1.26
467.10 1.259
467.20 1.257
467.30 1.256
467.40 1.254
467.50 1.253
467.60 1.251
467.70 1.25
467.80 1.248
467.90 1.246
468.00 1.245
468.10 1.243
468.20 1.242
468.30 1.24
468.40 1.239
468.50 1.237
468.60 1.235
468.70 1.234
468.80 1.232
468.90 1.231
469.00 1.229
469.10 1.227
469.20 1.226
469.30 1.224
469.40 1.222
469.50 1.22
469.60 1.219
469.70 1.217
469.80 1.215
469.90 1.214
470.00 1.212
470.10 1.21
470.20 1.208
470.30 1.207
470.40 1.205
470.50 1.203
470.60 1.201
470.70 1.2
470.80 1.198
470.90 1.196
471.00 1.194
471.10 1.192
471.20 1.191
471.30 1.189
471.40 1.187
471.50 1.185
471.60 1.183
471.70 1.181
471.80 1.179
471.90 1.177
472.00 1.175
472.10 1.173
472.20 1.171
472.30 1.169
472.40 1.166
472.50 1.164
472.60 1.162
472.70 1.16
472.80 1.158
472.90 1.156
473.00 1.154
473.10 1.152
473.20 1.149
473.30 1.147
473.40 1.145
473.50 1.142
473.60 1.14
473.70 1.138
473.80 1.136
473.90 1.133
474.00 1.131
474.10 1.129
474.20 1.126
474.30 1.124
474.40 1.121
474.50 1.119
474.60 1.116
474.70 1.114
474.80 1.111
474.90 1.109
475.00 1.106
475.10 1.104
475.20 1.101
475.30 1.098
475.40 1.096
475.50 1.093
475.60 1.09
475.70 1.088
475.80 1.085
475.90 1.082
476.00 1.079
476.10 1.077
476.20 1.074
476.30 1.071
476.40 1.068
476.50 1.065
476.60 1.062
476.70 1.059
476.80 1.056
476.90 1.053
477.00 1.05
477.10 1.047
477.20 1.044
477.30 1.041
477.40 1.037
477.50 1.034
477.60 1.031
477.70 1.028
477.80 1.024
477.90 1.021
478.00 1.018
478.10 1.015
478.20 1.011
478.30 1.008
478.40 1.004
478.50 1
478.60 0.9968
478.70 0.9932
478.80 0.9896
478.90 0.986
479.00 0.9824
479.10 0.9788
479.20 0.9749
479.30 0.9709
479.40 0.9669
479.50 0.9629
479.60 0.9589
479.70 0.9549
479.80 0.9509
479.90 0.9469
480.00 0.943
480.10 0.939
480.20 0.9347
480.30 0.9303
480.40 0.9258
480.50 0.9214
480.60 0.917
480.70 0.9126
480.80 0.9082
480.90 0.9038
481.00 0.8994
481.10 0.895
481.20 0.8902
481.30 0.8851
481.40 0.8801
481.50 0.875
481.60 0.87
481.70 0.865
481.80 0.8599
481.90 0.8549
482.00 0.8499
482.10 0.8449
482.20 0.8393
482.30 0.8334
482.40 0.8275
482.50 0.8216
482.60 0.8157
482.70 0.8099
482.80 0.804
482.90 0.7981
483.00 0.7923
483.10 0.7864
483.20 0.7796
483.30 0.7722
483.40 0.7649
483.50 0.7576
483.60 0.7503
483.70 0.743
483.80 0.7357
483.90 0.7284
484.00 0.7211
484.10 0.7138
484.20 0.7053
484.30 0.6961
484.40 0.687
484.50 0.6779
484.60 0.6688
484.70 0.6584
484.80 0.6475
484.90 0.6365
485.00 0.6256
485.10 0.6147
485.20 0.6033
485.30 0.5916
485.40 0.5798
485.50 0.5679
485.60 0.5555
485.70 0.5429
485.80 0.5271
485.90 0.5097
486.00 0.484
486.10 0.4505
486.20 0.4577
486.30 0.4942
486.40 0.5142
486.50 0.5313
486.60 0.545
486.70 0.557
486.80 0.5686
486.90 0.5799
487.00 0.591
487.10 0.602
487.20 0.6125
487.30 0.6227
487.40 0.6329
487.50 0.6431
487.60 0.6533
487.70 0.6622
487.80 0.6705
487.90 0.6789
488.00 0.6872
488.10 0.6955
488.20 0.7025
488.30 0.7089
488.40 0.7153
488.50 0.7217
488.60 0.728
488.70 0.7344
488.80 0.7408
488.90 0.7472
489.00 0.7535
489.10 0.7599
489.20 0.7652
489.30 0.7701
489.40 0.7749
489.50 0.7797
489.60 0.7846
489.70 0.7894
489.80 0.7942
489.90 0.799
490.00 0.8039
490.10 0.8087
490.20 0.8129
490.30 0.8168
490.40 0.8207
490.50 0.8246
490.60 0.8285
490.70 0.8324
490.80 0.8363
490.90 0.8402
491.00 0.8441
491.10 0.848
491.20 0.8514
491.30 0.8546
491.40 0.8578
491.50 0.861
491.60 0.8641
491.70 0.8673
491.80 0.8705
491.90 0.8737
492.00 0.8769
492.10 0.8801
492.20 0.8829
492.30 0.8856
492.40 0.8883
492.50 0.891
492.60 0.8937
492.70 0.8964
492.80 0.8991
492.90 0.9018
493.00 0.9045
493.10 0.9072
493.20 0.9096
493.30 0.9119
493.40 0.9142
493.50 0.9164
493.60 0.9187
493.70 0.921
493.80 0.9232
493.90 0.9255
494.00 0.9277
494.10 0.93
494.20 0.932
494.30 0.9338
494.40 0.9357
494.50 0.9376
494.60 0.9394
494.70 0.9413
494.80 0.9431
494.90 0.945
495.00 0.9468
495.10 0.9487
495.20 0.9503
495.30 0.9518
495.40 0.9534
495.50 0.9549
495.60 0.9564
495.70 0.9579
495.80 0.9594
495.90 0.961
496.00 0.9625
496.10 0.964
496.20 0.9653
496.30 0.9666
496.40 0.9678
496.50 0.9691
496.60 0.9703
496.70 0.9716
496.80 0.9728
496.90 0.9741
497.00 0.9753
497.10 0.9765
497.20 0.9776
497.30 0.9786
497.40 0.9796
497.50 0.9806
497.60 0.9816
497.70 0.9826
497.80 0.9836
497.90 0.9846
498.00 0.9856
498.10 0.9866
498.20 0.9875
498.30 0.9883
498.40 0.9891
498.50 0.9899
498.60 0.9906
498.70 0.9914
498.80 0.9922
498.90 0.993
499.00 0.9938
499.10 0.9945
499.20 0.9952
499.30 0.9958
499.40 0.9964
499.50 0.997
499.60 0.9976
499.70 0.9982
499.80 0.9988
499.90 0.9994
500.00 1
500.10 1.001
500.20 1.001
500.30 1.002
500.40 1.002
500.50 1.002
500.60 1.003
500.70 1.003
500.80 1.004
500.90 1.004
501.00 1.005
501.10 1.005
501.20 1.005
501.30 1.006
501.40 1.006
501.50 1.006
501.60 1.007
501.70 1.007
501.80 1.007
501.90 1.008
502.00 1.008
502.10 1.008
502.20 1.008
502.30 1.009
502.40 1.009
502.50 1.009
502.60 1.009
502.70 1.01
502.80 1.01
502.90 1.01
503.00 1.01
503.10 1.01
503.20 1.01
503.30 1.011
503.40 1.011
503.50 1.011
503.60 1.011
503.70 1.011
503.80 1.011
503.90 1.011
504.00 1.011
504.10 1.011
504.20 1.011
504.30 1.011
504.40 1.011
504.50 1.011
504.60 1.011
504.70 1.011
504.80 1.011
504.90 1.011
505.00 1.011
505.10 1.011
505.20 1.011
505.30 1.011
505.40 1.011
505.50 1.011
505.60 1.011
505.70 1.011
505.80 1.011
505.90 1.011
506.00 1.011
506.10 1.011
506.20 1.011
506.30 1.011
506.40 1.01
506.50 1.01
506.60 1.01
506.70 1.01
506.80 1.01
506.90 1.01
507.00 1.01
507.10 1.01
507.20 1.009
507.30 1.009
507.40 1.009
507.50 1.009
507.60 1.009
507.70 1.008
507.80 1.008
507.90 1.008
508.00 1.008
508.10 1.008
508.20 1.007
508.30 1.007
508.40 1.007
508.50 1.007
508.60 1.006
508.70 1.006
508.80 1.006
508.90 1.006
509.00 1.005
509.10 1.005
509.20 1.005
509.30 1.005
509.40 1.004
509.50 1.004
509.60 1.004
509.70 1.004
509.80 1.003
509.90 1.003
510.00 1.003
510.10 1.002
510.20 1.002
510.30 1.002
510.40 1.001
510.50 1.001
510.60 1.001
510.70 1
510.80 1
510.90 0.9998
511.00 0.9995
511.10 0.9992
511.20 0.9988
511.30 0.9985
511.40 0.9981
511.50 0.9978
511.60 0.9974
511.70 0.9971
511.80 0.9967
511.90 0.9964
512.00 0.996
512.10 0.9957
512.20 0.9953
512.30 0.9949
512.40 0.9946
512.50 0.9942
512.60 0.9938
512.70 0.9934
512.80 0.993
512.90 0.9927
513.00 0.9923
513.10 0.9919
513.20 0.9915
513.30 0.9911
513.40 0.9907
513.50 0.9903
513.60 0.9899
513.70 0.9895
513.80 0.9891
513.90 0.9887
514.00 0.9883
514.10 0.9879
514.20 0.9875
514.30 0.9871
514.40 0.9866
514.50 0.9862
514.60 0.9858
514.70 0.9854
514.80 0.9849
514.90 0.9845
515.00 0.9841
515.10 0.9837
515.20 0.9832
515.30 0.9828
515.40 0.9824
515.50 0.9819
515.60 0.9815
515.70 0.9811
515.80 0.9806
515.90 0.9802
516.00 0.9798
516.10 0.9793
516.20 0.9789
516.30 0.9784
516.40 0.978
516.50 0.9775
516.60 0.9771
516.70 0.9766
516.80 0.9762
516.90 0.9757
517.00 0.9753
517.10 0.9748
517.20 0.9744
517.30 0.9739
517.40 0.9734
517.50 0.973
517.60 0.9725
517.70 0.9721
517.80 0.9716
517.90 0.9711
518.00 0.9707
518.10 0.9702
518.20 0.9697
518.30 0.9693
518.40 0.9688
518.50 0.9683
518.60 0.9679
518.70 0.9674
518.80 0.9669
518.90 0.9665
519.00 0.966
519.10 0.9655
519.20 0.9651
519.30 0.9646
519.40 0.9641
519.50 0.9636
519.60 0.9631
519.70 0.9627
519.80 0.9622
519.90 0.9617
520.00 0.9612
520.10 0.9607
520.20 0.9603
520.30 0.9598
520.40 0.9593
520.50 0.9588
520.60 0.9583
520.70 0.9578
520.80 0.9573
520.90 0.9569
521.00 0.9564
521.10 0.9559
521.20 0.9554
521.30 0.9549
521.40 0.9544
521.50 0.9539
521.60 0.9534
521.70 0.9529
521.80 0.9525
521.90 0.952
522.00 0.9515
522.10 0.951
522.20 0.9505
522.30 0.95
522.40 0.9495
522.50 0.949
522.60 0.9485
522.70 0.948
522.80 0.9475
522.90 0.947
523.00 0.9465
523.10 0.946
523.20 0.9455
523.30 0.945
523.40 0.9445
523.50 0.944
523.60 0.9435
523.70 0.943
523.80 0.9425
523.90 0.942
524.00 0.9415
524.10 0.941
524.20 0.9405
524.30 0.94
524.40 0.9395
524.50 0.939
524.60 0.9385
524.70 0.938
524.80 0.9375
524.90 0.937
525.00 0.9365
525.10 0.936
525.20 0.9354
525.30 0.9349
525.40 0.9344
525.50 0.9339
525.60 0.9334
525.70 0.9329
525.80 0.9324
525.90 0.9319
526.00 0.9314
526.10 0.9309
526.20 0.9304
526.30 0.9299
526.40 0.9294
526.50 0.9289
526.60 0.9283
526.70 0.9278
526.80 0.9273
526.90 0.9268
527.00 0.9263
527.10 0.9258
527.20 0.9253
527.30 0.9248
527.40 0.9243
527.50 0.9238
527.60 0.9233
527.70 0.9228
527.80 0.9223
527.90 0.9218
528.00 0.9212
528.10 0.9207
528.20 0.9202
528.30 0.9197
528.40 0.9192
528.50 0.9187
528.60 0.9182
528.70 0.9177
528.80 0.9171
528.90 0.9166
529.00 0.9161
529.10 0.9156
529.20 0.9151
529.30 0.9146
529.40 0.9141
529.50 0.9136
529.60 0.913
529.70 0.9125
529.80 0.912
529.90 0.9115
530.00 0.911
530.10 0.9105
530.20 0.91
530.30 0.9095
530.40 0.909
530.50 0.9084
530.60 0.9079
530.70 0.9074
530.80 0.9069
530.90 0.9064
531.00 0.9059
531.10 0.9054
531.20 0.9048
531.30 0.9043
531.40 0.9038
531.50 0.9033
531.60 0.9028
531.70 0.9023
531.80 0.9018
531.90 0.9013
532.00 0.9008
532.10 0.9003
532.20 0.8998
532.30 0.8993
532.40 0.8988
532.50 0.8983
532.60 0.8978
532.70 0.8973
532.80 0.8967
532.90 0.8962
533.00 0.8957
533.10 0.8952
533.20 0.8947
533.30 0.8942
533.40 0.8937
533.50 0.8932
533.60 0.8927
533.70 0.8922
533.80 0.8916
533.90 0.8911
534.00 0.8906
534.10 0.8901
534.20 0.8896
534.30 0.8891
534.40 0.8886
534.50 0.8881
534.60 0.8876
534.70 0.8871
534.80 0.8866
534.90 0.8861
535.00 0.8856
535.10 0.8851
535.20 0.8846
535.30 0.8841
535.40 0.8836
535.50 0.8831
535.60 0.8826
535.70 0.882
535.80 0.8815
535.90 0.881
536.00 0.8805
536.10 0.88
536.20 0.8795
536.30 0.879
536.40 0.8785
536.50 0.878
536.60 0.8775
536.70 0.877
536.80 0.8765
536.90 0.876
537.00 0.8755
537.10 0.875
537.20 0.8745
537.30 0.874
537.40 0.8735
537.50 0.873
537.60 0.8725
537.70 0.8719
537.80 0.8714
537.90 0.8709
538.00 0.8704
538.10 0.8699
538.20 0.8694
538.30 0.8689
538.40 0.8684
538.50 0.8679
538.60 0.8674
538.70 0.8669
538.80 0.8664
538.90 0.8659
539.00 0.8654
539.10 0.865
539.20 0.8645
539.30 0.864
539.40 0.8635
539.50 0.863
539.60 0.8625
539.70 0.862
539.80 0.8615
539.90 0.861
540.00 0.8605
540.10 0.86
540.20 0.8595
540.30 0.859
540.40 0.8585
540.50 0.858
540.60 0.8575
540.70 0.857
540.80 0.8565
540.90 0.856
541.00 0.8555
541.10 0.855
541.20 0.8545
541.30 0.854
541.40 0.8535
541.50 0.8531
541.60 0.8526
541.70 0.8521
541.80 0.8516
541.90 0.8511
542.00 0.8506
542.10 0.8501
542.20 0.8496
542.30 0.8491
542.40 0.8486
542.50 0.8481
542.60 0.8476
542.70 0.8471
542.80 0.8466
542.90 0.8462
543.00 0.8457
543.10 0.8452
543.20 0.8447
543.30 0.8442
543.40 0.8437
543.50 0.8432
543.60 0.8427
543.70 0.8422
543.80 0.8417
543.90 0.8413
544.00 0.8408
544.10 0.8403
544.20 0.8398
544.30 0.8393
544.40 0.8388
544.50 0.8384
544.60 0.8379
544.70 0.8374
544.80 0.8369
544.90 0.8365
545.00 0.836
545.10 0.8355
545.20 0.835
545.30 0.8345
545.40 0.834
545.50 0.8336
545.60 0.8331
545.70 0.8326
545.80 0.8321
545.90 0.8316
546.00 0.8312
546.10 0.8307
546.20 0.8303
546.30 0.8301
546.40 0.8298
546.50 0.8296
546.60 0.8293
546.70 0.8291
546.80 0.8288
546.90 0.8286
547.00 0.8283
547.10 0.8281
547.20 0.8276
547.30 0.8272
547.40 0.8267
547.50 0.8262
547.60 0.8257
547.70 0.8252
547.80 0.8247
547.90 0.8243
548.00 0.8238
548.10 0.8233
548.20 0.8228
548.30 0.8223
548.40 0.8218
548.50 0.8213
548.60 0.8208
548.70 0.8204
548.80 0.8199
548.90 0.8194
549.00 0.8189
549.10 0.8184
549.20 0.8179
549.30 0.8174
549.40 0.817
549.50 0.8165
549.60 0.816
549.70 0.8155
549.80 0.815
549.90 0.8146
550.00 0.8141
550.10 0.8136
550.20 0.8131
550.30 0.8126
550.40 0.8122
550.50 0.8117
550.60 0.8112
550.70 0.8107
550.80 0.8102
550.90 0.8098
551.00 0.8093
551.10 0.8088
551.20 0.8083
551.30 0.8078
551.40 0.8074
551.50 0.8069
551.60 0.8064
551.70 0.8059
551.80 0.8055
551.90 0.805
552.00 0.8045
552.10 0.8041
552.20 0.8036
552.30 0.8031
552.40 0.8026
552.50 0.8021
552.60 0.8017
552.70 0.8012
552.80 0.8007
552.90 0.8002
553.00 0.7998
553.10 0.7993
553.20 0.7988
553.30 0.7984
553.40 0.7979
553.50 0.7974
553.60 0.7969
553.70 0.7965
553.80 0.796
553.90 0.7955
554.00 0.7951
554.10 0.7946
554.20 0.7942
554.30 0.7937
554.40 0.7932
554.50 0.7928
554.60 0.7923
554.70 0.7918
554.80 0.7914
554.90 0.7909
555.00 0.7904
555.10 0.79
555.20 0.7895
555.30 0.7891
555.40 0.7886
555.50 0.7881
555.60 0.7877
555.70 0.7872
555.80 0.7867
555.90 0.7863
556.00 0.7858
556.10 0.7854
556.20 0.7849
556.30 0.7844
556.40 0.784
556.50 0.7835
556.60 0.7831
556.70 0.7826
556.80 0.7821
556.90 0.7817
557.00 0.7812
557.10 0.7808
557.20 0.7803
557.30 0.7799
557.40 0.7794
557.50 0.7789
557.60 0.7785
557.70 0.778
557.80 0.7776
557.90 0.7771
558.00 0.7767
558.10 0.7762
558.20 0.7758
558.30 0.7753
558.40 0.7749
558.50 0.7744
558.60 0.7739
558.70 0.7735
558.80 0.773
558.90 0.7726
559.00 0.7721
559.10 0.7717
559.20 0.7712
559.30 0.7708
559.40 0.7703
559.50 0.7699
559.60 0.7694
559.70 0.769
559.80 0.7685
559.90 0.7681
560.00 0.7676
560.10 0.7672
560.20 0.7667
560.30 0.7663
560.40 0.7658
560.50 0.7654
560.60 0.7649
560.70 0.7645
560.80 0.764
560.90 0.7636
561.00 0.7632
561.10 0.7627
561.20 0.7623
561.30 0.7618
561.40 0.7614
561.50 0.7609
561.60 0.7605
561.70 0.7601
561.80 0.7596
561.90 0.7592
562.00 0.7588
562.10 0.7583
562.20 0.7579
562.30 0.7574
562.40 0.757
562.50 0.7566
562.60 0.7561
562.70 0.7557
562.80 0.7552
562.90 0.7548
563.00 0.7543
563.10 0.7539
563.20 0.7535
563.30 0.753
563.40 0.7526
563.50 0.7521
563.60 0.7517
563.70 0.7513
563.80 0.7508
563.90 0.7504
564.00 0.7499
564.10 0.7495
564.20 0.7491
564.30 0.7486
564.40 0.7482
564.50 0.7478
564.60 0.7473
564.70 0.7469
564.80 0.7465
564.90 0.7461
565.00 0.7456
565.10 0.7452
565.20 0.7448
565.30 0.7443
565.40 0.7439
565.50 0.7435
565.60 0.743
565.70 0.7426
565.80 0.7422
565.90 0.7417
566.00 0.7413
566.10 0.7409
566.20 0.7404
566.30 0.74
566.40 0.7396
566.50 0.7392
566.60 0.7387
566.70 0.7383
566.80 0.7379
566.90 0.7375
567.00 0.737
567.10 0.7366
567.20 0.7362
567.30 0.7358
567.40 0.7353
567.50 0.7349
567.60 0.7345
567.70 0.7341
567.80 0.7336
567.90 0.7332
568.00 0.7328
568.10 0.7324
568.20 0.732
568.30 0.7315
568.40 0.7311
568.50 0.7307
568.60 0.7303
568.70 0.7299
568.80 0.7294
568.90 0.729
569.00 0.7286
569.10 0.7282
569.20 0.7278
569.30 0.7273
569.40 0.7269
569.50 0.7265
569.60 0.7261
569.70 0.7257
569.80 0.7253
569.90 0.7248
570.00 0.7244
570.10 0.724
570.20 0.7236
570.30 0.7232
570.40 0.7227
570.50 0.7223
570.60 0.7219
570.70 0.7215
570.80 0.721
570.90 0.7206
571.00 0.7202
571.10 0.7198
571.20 0.7194
571.30 0.719
571.40 0.7186
571.50 0.7182
571.60 0.7177
571.70 0.7173
571.80 0.7169
571.90 0.7165
572.00 0.7161
572.10 0.7157
572.20 0.7153
572.30 0.7149
572.40 0.7145
572.50 0.7141
572.60 0.7137
572.70 0.7133
572.80 0.7128
572.90 0.7124
573.00 0.712
573.10 0.7116
573.20 0.7112
573.30 0.7108
573.40 0.7104
573.50 0.71
573.60 0.7096
573.70 0.7092
573.80 0.7088
573.90 0.7084
574.00 0.7079
574.10 0.7075
574.20 0.7071
574.30 0.7067
574.40 0.7063
574.50 0.7059
574.60 0.7055
574.70 0.7051
574.80 0.7047
574.90 0.7043
575.00 0.7039
575.10 0.7035
575.20 0.7031
575.30 0.7027
575.40 0.7023
575.50 0.7019
575.60 0.7015
575.70 0.7011
575.80 0.7007
575.90 0.7003
576.00 0.6999
576.10 0.6995
576.20 0.6991
576.30 0.6987
576.40 0.6983
576.50 0.6979
576.60 0.6975
576.70 0.6971
576.80 0.6967
576.90 0.6963
577.00 0.6959
577.10 0.6955
577.20 0.6951
577.30 0.6947
577.40 0.6943
577.50 0.6939
577.60 0.6935
577.70 0.6931
577.80 0.6927
577.90 0.6923
578.00 0.6919
578.10 0.6915
578.20 0.6911
578.30 0.6907
578.40 0.6904
578.50 0.69
578.60 0.6896
578.70 0.6892
578.80 0.6888
578.90 0.6884
579.00 0.688
579.10 0.6876
579.20 0.6872
579.30 0.6868
579.40 0.6864
579.50 0.6861
579.60 0.6857
579.70 0.6853
579.80 0.6849
579.90 0.6845
580.00 0.6841
580.10 0.6837
580.20 0.6833
580.30 0.6829
580.40 0.6825
580.50 0.6821
580.60 0.6818
580.70 0.6814
580.80 0.681
580.90 0.6806
581.00 0.6802
581.10 0.6798
581.20 0.6795
581.30 0.6791
581.40 0.6787
581.50 0.6783
581.60 0.6779
581.70 0.6775
581.80 0.6772
581.90 0.6768
582.00 0.6764
582.10 0.676
582.20 0.6756
582.30 0.6752
582.40 0.6749
582.50 0.6745
582.60 0.6741
582.70 0.6737
582.80 0.6733
582.90 0.673
583.00 0.6726
583.10 0.6722
583.20 0.6718
583.30 0.6714
583.40 0.671
583.50 0.6707
583.60 0.6703
583.70 0.6699
583.80 0.6695
583.90 0.6691
584.00 0.6687
584.10 0.6684
584.20 0.668
584.30 0.6676
584.40 0.6672
584.50 0.6668
584.60 0.6665
584.70 0.6661
584.80 0.6657
584.90 0.6653
585.00 0.665
585.10 0.6646
585.20 0.6642
585.30 0.6638
585.40 0.6635
585.50 0.6631
585.60 0.6627
585.70 0.6623
585.80 0.662
585.90 0.6616
586.00 0.6612
586.10 0.6608
586.20 0.6605
586.30 0.6601
586.40 0.6597
586.50 0.6594
586.60 0.659
586.70 0.6586
586.80 0.6583
586.90 0.6579
587.00 0.6576
587.10 0.6572
587.20 0.6568
587.30 0.6564
587.40 0.6561
587.50 0.6557
587.60 0.6553
587.70 0.655
587.80 0.6546
587.90 0.6542
588.00 0.6539
588.10 0.6535
588.20 0.6531
588.30 0.6528
588.40 0.6524
588.50 0.652
588.60 0.6517
588.70 0.6513
588.80 0.6509
588.90 0.6505
589.00 0.6502
589.10 0.6498
589.20 0.6494
589.30 0.6491
589.40 0.6487
589.50 0.6483
589.60 0.648
589.70 0.6476
589.80 0.6473
589.90 0.6469
590.00 0.6465
590.10 0.6462
590.20 0.6458
590.30 0.6454
590.40 0.6451
590.50 0.6447
590.60 0.6444
590.70 0.644
590.80 0.6437
590.90 0.6433
591.00 0.6429
591.10 0.6426
591.20 0.6422
591.30 0.6419
591.40 0.6415
591.50 0.6411
591.60 0.6408
591.70 0.6404
591.80 0.64
591.90 0.6397
592.00 0.6393
592.10 0.639
592.20 0.6386
592.30 0.6383
592.40 0.6379
592.50 0.6375
592.60 0.6372
592.70 0.6368
592.80 0.6365
592.90 0.6361
593.00 0.6358
593.10 0.6354
593.20 0.6351
593.30 0.6347
593.40 0.6344
593.50 0.634
593.60 0.6336
593.70 0.6333
593.80 0.6329
593.90 0.6326
594.00 0.6322
594.10 0.6319
594.20 0.6315
594.30 0.6312
594.40 0.6308
594.50 0.6305
594.60 0.6301
594.70 0.6298
594.80 0.6294
594.90 0.6291
595.00 0.6287
595.10 0.6284
595.20 0.628
595.30 0.6277
595.40 0.6273
595.50 0.627
595.60 0.6266
595.70 0.6263
595.80 0.6259
595.90 0.6256
596.00 0.6252
596.10 0.6249
596.20 0.6243
596.30 0.6235
596.40 0.6227
596.50 0.6219
596.60 0.6211
596.70 0.6204
596.80 0.6196
596.90 0.6188
597.00 0.618
597.10 0.6173
597.20 0.6168
597.30 0.6164
597.40 0.6161
597.50 0.6157
597.60 0.6153
597.70 0.615
597.80 0.6146
597.90 0.6143
598.00 0.6139
598.10 0.6136
598.20 0.6132
598.30 0.6129
598.40 0.6125
598.50 0.6122
598.60 0.6118
598.70 0.6114
598.80 0.6111
598.90 0.6107
599.00 0.6104
599.10 0.61
599.20 0.6097
599.30 0.6093
599.40 0.609
599.50 0.6086
599.60 0.6083
599.70 0.6079
599.80 0.6076
599.90 0.6072
600.00 0.6069
600.10 0.6065
600.20 0.6062
600.30 0.6058
600.40 0.6054
600.50 0.6051
600.60 0.6047
600.70 0.6044
600.80 0.604
600.90 0.6037
601.00 0.6033
601.10 0.603
601.20 0.6026
601.30 0.6023
601.40 0.6019
601.50 0.6016
601.60 0.6012
601.70 0.6009
601.80 0.6005
601.90 0.6002
602.00 0.5999
602.10 0.5995
602.20 0.5992
602.30 0.5988
602.40 0.5985
602.50 0.5981
602.60 0.5978
602.70 0.5974
602.80 0.5971
602.90 0.5967
603.00 0.5964
603.10 0.596
603.20 0.5957
603.30 0.5953
603.40 0.595
603.50 0.5946
603.60 0.5943
603.70 0.5939
603.80 0.5936
603.90 0.5932
604.00 0.5929
604.10 0.5925
604.20 0.5922
604.30 0.5919
604.40 0.5915
604.50 0.5912
604.60 0.5908
604.70 0.5905
604.80 0.5901
604.90 0.5898
605.00 0.5894
605.10 0.5891
605.20 0.5887
605.30 0.5884
605.40 0.588
605.50 0.5877
605.60 0.5873
605.70 0.587
605.80 0.5866
605.90 0.5863
606.00 0.5859
606.10 0.5856
606.20 0.5853
606.30 0.5849
606.40 0.5846
606.50 0.5842
606.60 0.5839
606.70 0.5835
606.80 0.5832
606.90 0.5829
607.00 0.5825
607.10 0.5822
607.20 0.5818
607.30 0.5815
607.40 0.5812
607.50 0.5808
607.60 0.5805
607.70 0.5801
607.80 0.5798
607.90 0.5795
608.00 0.5791
608.10 0.5788
608.20 0.5784
608.30 0.5781
608.40 0.5777
608.50 0.5774
608.60 0.5771
608.70 0.5767
608.80 0.5764
608.90 0.576
609.00 0.5757
609.10 0.5753
609.20 0.575
609.30 0.5747
609.40 0.5743
609.50 0.574
609.60 0.5736
609.70 0.5733
609.80 0.573
609.90 0.5726
610.00 0.5723
610.10 0.5719
610.20 0.5716
610.30 0.5712
610.40 0.5709
610.50 0.5706
610.60 0.5702
610.70 0.5699
610.80 0.5695
610.90 0.5692
611.00 0.5689
611.10 0.5685
611.20 0.5682
611.30 0.5678
611.40 0.5675
611.50 0.5672
611.60 0.5668
611.70 0.5665
611.80 0.5661
611.90 0.5658
612.00 0.5654
612.10 0.5651
612.20 0.5648
612.30 0.5644
612.40 0.5641
612.50 0.5637
612.60 0.5634
612.70 0.5631
612.80 0.5627
612.90 0.5624
613.00 0.5621
613.10 0.5617
613.20 0.5614
613.30 0.561
613.40 0.5607
613.50 0.5604
613.60 0.56
613.70 0.5597
613.80 0.5593
613.90 0.559
614.00 0.5587
614.10 0.5583
614.20 0.558
614.30 0.5576
614.40 0.5573
614.50 0.557
614.60 0.5566
614.70 0.5563
614.80 0.5559
614.90 0.5556
615.00 0.5553
615.10 0.5549
615.20 0.5546
615.30 0.5543
615.40 0.5539
615.50 0.5536
615.60 0.5532
615.70 0.5529
615.80 0.5526
615.90 0.5522
616.00 0.5519
616.10 0.5515
616.20 0.5512
616.30 0.5509
616.40 0.5505
616.50 0.5502
616.60 0.5498
616.70 0.5495
616.80 0.5492
616.90 0.5488
617.00 0.5485
617.10 0.5481
617.20 0.5478
617.30 0.5474
617.40 0.5471
617.50 0.5468
617.60 0.5464
617.70 0.5461
617.80 0.5457
617.90 0.5454
618.00 0.5451
618.10 0.5447
618.20 0.5444
618.30 0.544
618.40 0.5437
618.50 0.5433
618.60 0.543
618.70 0.5427
618.80 0.5423
618.90 0.542
619.00 0.5416
619.10 0.5413
619.20 0.541
619.30 0.5406
619.40 0.5403
619.50 0.5399
619.60 0.5396
619.70 0.5392
619.80 0.5389
619.90 0.5386
620.00 0.5382
620.10 0.5379
620.20 0.5375
620.30 0.5372
620.40 0.5368
620.50 0.5365
620.60 0.5361
620.70 0.5358
620.80 0.5355
620.90 0.5351
621.00 0.5348
621.10 0.5344
621.20 0.5341
621.30 0.5337
621.40 0.5334
621.50 0.533
621.60 0.5327
621.70 0.5323
621.80 0.532
621.90 0.5316
622.00 0.5313
622.10 0.531
622.20 0.5306
622.30 0.5303
622.40 0.5299
622.50 0.5296
622.60 0.5292
622.70 0.5289
622.80 0.5285
622.90 0.5282
623.00 0.5278
623.10 0.5275
623.20 0.5271
623.30 0.5268
623.40 0.5264
623.50 0.5261
623.60 0.5257
623.70 0.5254
623.80 0.525
623.90 0.5246
624.00 0.5243
624.10 0.5239
624.20 0.5236
624.30 0.5232
624.40 0.5229
624.50 0.5225
624.60 0.5222
624.70 0.5218
624.80 0.5215
624.90 0.5211
625.00 0.5208
625.10 0.5204
625.20 0.52
625.30 0.5197
625.40 0.5193
625.50 0.519
625.60 0.5186
625.70 0.5182
625.80 0.5179
625.90 0.5175
626.00 0.5172
626.10 0.5168
626.20 0.5164
626.30 0.5161
626.40 0.5157
626.50 0.5154
626.60 0.515
626.70 0.5146
626.80 0.5143
626.90 0.5139
627.00 0.5135
627.10 0.5132
627.20 0.5128
627.30 0.5124
627.40 0.5121
627.50 0.5117
627.60 0.5113
627.70 0.511
627.80 0.5106
627.90 0.5102
628.00 0.5099
628.10 0.5095
628.20 0.5091
628.30 0.5088
628.40 0.5084
628.50 0.508
628.60 0.5076
628.70 0.5073
628.80 0.5069
628.90 0.5065
629.00 0.5061
629.10 0.5058
629.20 0.5054
629.30 0.505
629.40 0.5046
629.50 0.5043
629.60 0.5039
629.70 0.5035
629.80 0.5031
629.90 0.5027
630.00 0.5023
630.10 0.502
630.20 0.5016
630.30 0.5012
630.40 0.5008
630.50 0.5004
630.60 0.5
630.70 0.4996
630.80 0.4992
630.90 0.4989
631.00 0.4985
631.10 0.4981
631.20 0.4977
631.30 0.4973
631.40 0.4969
631.50 0.4965
631.60 0.4961
631.70 0.4957
631.80 0.4953
631.90 0.4949
632.00 0.4945
632.10 0.4941
632.20 0.4937
632.30 0.4933
632.40 0.4929
632.50 0.4925
632.60 0.4921
632.70 0.4917
632.80 0.4912
632.90 0.4908
633.00 0.4904
633.10 0.49
633.20 0.4896
633.30 0.4892
633.40 0.4888
633.50 0.4883
633.60 0.4879
633.70 0.4875
633.80 0.4871
633.90 0.4866
634.00 0.4862
634.10 0.4858
634.20 0.4854
634.30 0.4849
634.40 0.4845
634.50 0.4841
634.60 0.4836
634.70 0.4832
634.80 0.4828
634.90 0.4823
635.00 0.4819
635.10 0.4814
635.20 0.481
635.30 0.4806
635.40 0.4801
635.50 0.4796
635.60 0.4792
635.70 0.4787
635.80 0.4783
635.90 0.4778
636.00 0.4774
636.10 0.4769
636.20 0.4765
636.30 0.476
636.40 0.4755
636.50 0.4751
636.60 0.4746
636.70 0.4741
636.80 0.4736
636.90 0.4732
637.00 0.4727
637.10 0.4722
637.20 0.4718
637.30 0.4713
637.40 0.4708
637.50 0.4703
637.60 0.4698
637.70 0.4693
637.80 0.4688
637.90 0.4683
638.00 0.4678
638.10 0.4673
638.20 0.4668
638.30 0.4663
638.40 0.4658
638.50 0.4653
638.60 0.4648
638.70 0.4643
638.80 0.4637
638.90 0.4632
639.00 0.4627
639.10 0.4622
639.20 0.4617
639.30 0.4611
639.40 0.4606
639.50 0.4601
639.60 0.4595
639.70 0.459
639.80 0.4584
639.90 0.4579
640.00 0.4573
640.10 0.4568
640.20 0.4563
640.30 0.4557
640.40 0.4551
640.50 0.4546
640.60 0.454
640.70 0.4534
640.80 0.4528
640.90 0.4523
641.00 0.4517
641.10 0.4511
641.20 0.4505
641.30 0.45
641.40 0.4494
641.50 0.4488
641.60 0.4481
641.70 0.4475
641.80 0.4469
641.90 0.4463
642.00 0.4457
642.10 0.4451
642.20 0.4445
642.30 0.4439
642.40 0.4433
642.50 0.4426
642.60 0.442
642.70 0.4413
642.80 0.4407
642.90 0.44
643.00 0.4394
643.10 0.4387
643.20 0.4381
643.30 0.4374
643.40 0.4368
643.50 0.4361
643.60 0.4354
643.70 0.4347
643.80 0.434
643.90 0.4333
644.00 0.4326
644.10 0.4319
644.20 0.4312
644.30 0.4305
644.40 0.4298
644.50 0.4291
644.60 0.4283
644.70 0.4276
644.80 0.4269
644.90 0.4261
645.00 0.4254
645.10 0.4247
645.20 0.4239
645.30 0.4232
645.40 0.4224
645.50 0.4216
645.60 0.4208
645.70 0.42
645.80 0.4192
645.90 0.4184
646.00 0.4176
646.10 0.4169
646.20 0.4161
646.30 0.4153
646.40 0.4144
646.50 0.4136
646.60 0.4127
646.70 0.4119
646.80 0.411
646.90 0.4102
647.00 0.4093
647.10 0.4085
647.20 0.4076
647.30 0.4067
647.40 0.4058
647.50 0.4049
647.60 0.4039
647.70 0.403
647.80 0.402
647.90 0.4011
648.00 0.4001
648.10 0.3992
648.20 0.3982
648.30 0.3973
648.40 0.3962
648.50 0.3951
648.60 0.394
648.70 0.393
648.80 0.3919
648.90 0.3908
649.00 0.3898
649.10 0.3887
649.20 0.3876
649.30 0.3865
649.40 0.3853
649.50 0.3841
649.60 0.3828
649.70 0.3816
649.80 0.3804
649.90 0.3792
650.00 0.378
650.10 0.3768
650.20 0.3755
650.30 0.3743
650.40 0.3729
650.50 0.3715
650.60 0.3701
650.70 0.3686
650.80 0.3672
650.90 0.3658
651.00 0.3644
651.10 0.363
651.20 0.3616
651.30 0.3602
651.40 0.3586
651.50 0.357
651.60 0.3554
651.70 0.3538
651.80 0.3522
651.90 0.3506
652.00 0.349
652.10 0.3474
652.20 0.3458
652.30 0.3441
652.40 0.3422
652.50 0.3404
652.60 0.3385
652.70 0.3366
652.80 0.3347
652.90 0.3329
653.00 0.331
653.10 0.3291
653.20 0.3273
653.30 0.3253
653.40 0.323
653.50 0.3207
653.60 0.3184
653.70 0.3161
653.80 0.3138
653.90 0.3115
654.00 0.3092
654.10 0.3069
654.20 0.3046
654.30 0.3022
654.40 0.2995
654.50 0.2968
654.60 0.2941
654.70 0.2915
654.80 0.2887
654.90 0.2858
655.00 0.2829
655.10 0.2799
655.20 0.277
655.30 0.274
655.40 0.2708
655.50 0.2675
655.60 0.2638
655.70 0.26
655.80 0.2554
655.90 0.2501
656.00 0.2419
656.10 0.2325
656.20 0.2112
656.30 0.1932
656.40 0.221
656.50 0.2363
656.60 0.2443
656.70 0.2517
656.80 0.256
656.90 0.2602
657.00 0.2637
657.10 0.267
657.20 0.27
657.30 0.2729
657.40 0.2756
657.50 0.2782
657.60 0.2809
657.70 0.2836
657.80 0.2862
657.90 0.2886
658.00 0.291
658.10 0.2934
658.20 0.2957
658.30 0.2981
658.40 0.3
658.50 0.302
658.60 0.304
658.70 0.306
658.80 0.308
658.90 0.31
659.00 0.312
659.10 0.314
659.20 0.316
659.30 0.3178
659.40 0.3194
659.50 0.3209
659.60 0.3224
659.70 0.3239
659.80 0.3255
659.90 0.327
660.00 0.3285
660.10 0.33
660.20 0.3315
660.30 0.333
660.40 0.3342
660.50 0.3354
660.60 0.3367
660.70 0.3379
660.80 0.3391
660.90 0.3404
661.00 0.3416
661.10 0.3428
661.20 0.344
661.30 0.3452
661.40 0.3462
661.50 0.3472
661.60 0.3483
661.70 0.3493
661.80 0.3503
661.90 0.3513
662.00 0.3523
662.10 0.3533
662.20 0.3543
662.30 0.3553
662.40 0.3561
662.50 0.3569
662.60 0.3577
662.70 0.3585
662.80 0.3593
662.90 0.3601
663.00 0.3609
663.10 0.3618
663.20 0.3626
663.30 0.3633
663.40 0.364
663.50 0.3646
663.60 0.3653
663.70 0.3659
663.80 0.3666
663.90 0.3672
664.00 0.3679
664.10 0.3685
664.20 0.3692
664.30 0.3698
664.40 0.3703
664.50 0.3708
664.60 0.3713
664.70 0.3718
664.80 0.3723
664.90 0.3728
665.00 0.3734
665.10 0.3739
665.20 0.3744
665.30 0.3749
665.40 0.3753
665.50 0.3757
665.60 0.3761
665.70 0.3765
665.80 0.3769
665.90 0.3773
666.00 0.3777
666.10 0.3781
666.20 0.3785
666.30 0.3789
666.40 0.3793
666.50 0.3796
666.60 0.3799
666.70 0.3803
666.80 0.3806
666.90 0.3809
667.00 0.3813
667.10 0.3816
667.20 0.3819
667.30 0.3823
667.40 0.3825
667.50 0.3828
667.60 0.3831
667.70 0.3834
667.80 0.3836
667.90 0.3839
668.00 0.3842
668.10 0.3845
668.20 0.3847
668.30 0.385
668.40 0.3852
668.50 0.3854
668.60 0.3856
668.70 0.3859
668.80 0.3861
668.90 0.3863
669.00 0.3865
669.10 0.3867
669.20 0.387
669.30 0.3872
669.40 0.3873
669.50 0.3875
669.60 0.3877
669.70 0.3878
669.80 0.388
669.90 0.3882
670.00 0.3884
670.10 0.3885
670.20 0.3887
670.30 0.3888
670.40 0.389
670.50 0.3891
670.60 0.3892
670.70 0.3894
670.80 0.3895
670.90 0.3896
671.00 0.3897
671.10 0.3899
671.20 0.39
671.30 0.3901
671.40 0.3902
671.50 0.3903
671.60 0.3904
671.70 0.3904
671.80 0.3905
671.90 0.3906
672.00 0.3907
672.10 0.3908
672.20 0.3909
672.30 0.391
672.40 0.391
672.50 0.3911
672.60 0.3911
672.70 0.3912
672.80 0.3913
672.90 0.3913
673.00 0.3914
673.10 0.3914
673.20 0.3915
673.30 0.3915
673.40 0.3916
673.50 0.3916
673.60 0.3916
673.70 0.3916
673.80 0.3917
673.90 0.3917
674.00 0.3917
674.10 0.3917
674.20 0.3918
674.30 0.3918
674.40 0.3918
674.50 0.3918
674.60 0.3918
674.70 0.3918
674.80 0.3918
674.90 0.3918
675.00 0.3918
675.10 0.3918
675.20 0.3918
675.30 0.3918
675.40 0.3918
675.50 0.3918
675.60 0.3917
675.70 0.3917
675.80 0.3917
675.90 0.3917
676.00 0.3917
676.10 0.3916
676.20 0.3916
676.30 0.3916
676.40 0.3915
676.50 0.3915
676.60 0.3915
676.70 0.3914
676.80 0.3914
676.90 0.3913
677.00 0.3913
677.10 0.3913
677.20 0.3912
677.30 0.3912
677.40 0.3911
677.50 0.3911
677.60 0.391
677.70 0.3909
677.80 0.3909
677.90 0.3908
678.00 0.3908
678.10 0.3907
678.20 0.3907
678.30 0.3906
678.40 0.3905
678.50 0.3905
678.60 0.3904
678.70 0.3903
678.80 0.3902
678.90 0.3902
679.00 0.3901
679.10 0.39
679.20 0.3899
679.30 0.3899
679.40 0.3898
679.50 0.3897
679.60 0.3896
679.70 0.3895
679.80 0.3894
679.90 0.3893
680.00 0.3893
680.10 0.3892
680.20 0.3891
680.30 0.389
680.40 0.3889
680.50 0.3888
680.60 0.3887
680.70 0.3886
680.80 0.3885
680.90 0.3884
681.00 0.3883
681.10 0.3882
681.20 0.3881
681.30 0.388
681.40 0.3879
681.50 0.3878
681.60 0.3877
681.70 0.3876
681.80 0.3875
681.90 0.3874
682.00 0.3873
682.10 0.3872
682.20 0.3871
682.30 0.387
682.40 0.3868
682.50 0.3867
682.60 0.3866
682.70 0.3865
682.80 0.3864
682.90 0.3863
683.00 0.3862
683.10 0.386
683.20 0.3859
683.30 0.3858
683.40 0.3857
683.50 0.3856
683.60 0.3854
683.70 0.3853
683.80 0.3852
683.90 0.3851
684.00 0.385
684.10 0.3848
684.20 0.3847
684.30 0.3846
684.40 0.3845
684.50 0.3843
684.60 0.3842
684.70 0.3841
684.80 0.3839
684.90 0.3838
685.00 0.3837
685.10 0.3836
685.20 0.3834
685.30 0.3833
685.40 0.3832
685.50 0.383
685.60 0.3829
685.70 0.3828
685.80 0.3826
685.90 0.3825
686.00 0.3824
686.10 0.3822
686.20 0.3821
686.30 0.382
686.40 0.3818
686.50 0.3817
686.60 0.3816
686.70 0.3814
686.80 0.3813
686.90 0.3811
687.00 0.381
687.10 0.3809
687.20 0.3807
687.30 0.3806
687.40 0.3805
687.50 0.3803
687.60 0.3802
687.70 0.38
687.80 0.3799
687.90 0.3797
688.00 0.3796
688.10 0.3795
688.20 0.3793
688.30 0.3792
688.40 0.379
688.50 0.3789
688.60 0.3787
688.70 0.3786
688.80 0.3784
688.90 0.3783
689.00 0.3782
689.10 0.378
689.20 0.3779
689.30 0.3777
689.40 0.3776
689.50 0.3774
689.60 0.3772
689.70 0.3771
689.80 0.3769
689.90 0.3768
690.00 0.3766
690.10 0.3764
690.20 0.3763
690.30 0.3761
690.40 0.376
690.50 0.3758
690.60 0.3756
690.70 0.3755
690.80 0.3753
690.90 0.3752
691.00 0.375
691.10 0.3749
691.20 0.3747
691.30 0.3745
691.40 0.3744
691.50 0.3742
691.60 0.3741
691.70 0.3739
691.80 0.3737
691.90 0.3736
692.00 0.3734
692.10 0.3733
692.20 0.3731
692.30 0.373
692.40 0.3728
692.50 0.3726
692.60 0.3725
692.70 0.3723
692.80 0.3722
692.90 0.372
693.00 0.3719
693.10 0.3717
693.20 0.3715
693.30 0.3714
693.40 0.3712
693.50 0.3711
693.60 0.3709
693.70 0.3708
693.80 0.3706
693.90 0.3704
694.00 0.3703
694.10 0.3701
694.20 0.37
694.30 0.3698
694.40 0.3697
694.50 0.3695
694.60 0.3693
694.70 0.3692
694.80 0.369
694.90 0.3689
695.00 0.3687
695.10 0.3686
695.20 0.3684
695.30 0.3683
695.40 0.3681
695.50 0.3679
695.60 0.3678
695.70 0.3676
695.80 0.3675
695.90 0.3673
696.00 0.3672
696.10 0.367
696.20 0.3669
696.30 0.3667
696.40 0.3665
696.50 0.3664
696.60 0.3662
696.70 0.3661
696.80 0.3659
696.90 0.3658
697.00 0.3656
697.10 0.3655
697.20 0.3653
697.30 0.3652
697.40 0.365
697.50 0.3649
697.60 0.3647
697.70 0.3645
697.80 0.3644
697.90 0.3642
698.00 0.3641
698.10 0.3639
698.20 0.3638
698.30 0.3636
698.40 0.3635
698.50 0.3633
698.60 0.3632
698.70 0.363
698.80 0.3629
698.90 0.3627
699.00 0.3626
699.10 0.3624
699.20 0.3622
699.30 0.3621
699.40 0.3619
699.50 0.3618
699.60 0.3616
699.70 0.3615
699.80 0.3613
699.90 0.3612
700.00 0.361
700.10 0.3609
700.20 0.3607
700.30 0.3606
700.40 0.3604
700.50 0.3603
700.60 0.3601
700.70 0.36
700.80 0.3598
700.90 0.3597
701.00 0.3596
701.10 0.3594
701.20 0.3593
701.30 0.3591
701.40 0.359
701.50 0.3588
701.60 0.3587
701.70 0.3585
701.80 0.3584
701.90 0.3582
702.00 0.3581
702.10 0.3579
702.20 0.3578
702.30 0.3576
702.40 0.3575
702.50 0.3573
702.60 0.3572
702.70 0.3571
702.80 0.3569
702.90 0.3568
703.00 0.3566
703.10 0.3565
703.20 0.3563
703.30 0.3562
703.40 0.356
703.50 0.3559
703.60 0.3557
703.70 0.3556
703.80 0.3555
703.90 0.3553
704.00 0.3552
704.10 0.355
704.20 0.3549
704.30 0.3547
704.40 0.3546
704.50 0.3544
704.60 0.3543
704.70 0.3541
704.80 0.354
704.90 0.3539
705.00 0.3537
705.10 0.3536
705.20 0.3534
705.30 0.3532
705.40 0.3531
705.50 0.3529
705.60 0.3527
705.70 0.3526
705.80 0.3524
705.90 0.3523
706.00 0.3521
706.10 0.3519
706.20 0.3518
706.30 0.3516
706.40 0.3514
706.50 0.3513
706.60 0.3511
706.70 0.351
706.80 0.3508
706.90 0.3506
707.00 0.3505
707.10 0.3503
707.20 0.3502
707.30 0.35
707.40 0.3498
707.50 0.3497
707.60 0.3495
707.70 0.3494
707.80 0.3492
707.90 0.349
708.00 0.3489
708.10 0.3487
708.20 0.3486
708.30 0.3484
708.40 0.3482
708.50 0.3481
708.60 0.3479
708.70 0.3478
708.80 0.3476
708.90 0.3474
709.00 0.3473
709.10 0.3471
709.20 0.347
709.30 0.3468
709.40 0.3466
709.50 0.3465
709.60 0.3463
709.70 0.3462
709.80 0.346
709.90 0.3458
710.00 0.3457
710.10 0.3455
710.20 0.3454
710.30 0.3452
710.40 0.345
710.50 0.3449
710.60 0.3447
710.70 0.3446
710.80 0.3444
710.90 0.3442
711.00 0.3441
711.10 0.3439
711.20 0.3438
711.30 0.3436
711.40 0.3434
711.50 0.3433
711.60 0.3431
711.70 0.343
711.80 0.3428
711.90 0.3426
712.00 0.3425
712.10 0.3423
712.20 0.3422
712.30 0.342
712.40 0.3419
712.50 0.3417
712.60 0.3415
712.70 0.3414
712.80 0.3412
712.90 0.3411
713.00 0.3409
713.10 0.3408
713.20 0.3406
713.30 0.3404
713.40 0.3403
713.50 0.3401
713.60 0.34
713.70 0.3398
713.80 0.3396
713.90 0.3395
714.00 0.3393
714.10 0.3392
714.20 0.339
714.30 0.3389
714.40 0.3387
714.50 0.3385
714.60 0.3384
714.70 0.3382
714.80 0.3381
714.90 0.3379
715.00 0.3378
715.10 0.3376
715.20 0.3375
715.30 0.3373
715.40 0.3372
715.50 0.3371
715.60 0.3369
715.70 0.3368
715.80 0.3366
715.90 0.3365
716.00 0.3364
716.10 0.3362
716.20 0.3361
716.30 0.3359
716.40 0.3358
716.50 0.3357
716.60 0.3355
716.70 0.3354
716.80 0.3353
716.90 0.3351
717.00 0.335
717.10 0.3348
717.20 0.3347
717.30 0.3346
717.40 0.3344
717.50 0.3343
717.60 0.3341
717.70 0.334
717.80 0.3339
717.90 0.3337
718.00 0.3336
718.10 0.3335
718.20 0.3333
718.30 0.3332
718.40 0.333
718.50 0.3329
718.60 0.3328
718.70 0.3326
718.80 0.3325
718.90 0.3324
719.00 0.3322
719.10 0.3321
719.20 0.3319
719.30 0.3318
719.40 0.3317
719.50 0.3315
719.60 0.3314
719.70 0.3313
719.80 0.3311
719.90 0.331
720.00 0.3308
720.10 0.3307
720.20 0.3305
720.30 0.3304
720.40 0.3302
720.50 0.3301
720.60 0.3299
720.70 0.3297
720.80 0.3296
720.90 0.3294
721.00 0.3293
721.10 0.3291
721.20 0.329
721.30 0.3288
721.40 0.3286
721.50 0.3285
721.60 0.3283
721.70 0.3282
721.80 0.328
721.90 0.3279
722.00 0.3277
722.10 0.3276
722.20 0.3274
722.30 0.3272
722.40 0.3271
722.50 0.3269
722.60 0.3268
722.70 0.3266
722.80 0.3265
722.90 0.3263
723.00 0.3262
723.10 0.326
723.20 0.3258
723.30 0.3257
723.40 0.3255
723.50 0.3254
723.60 0.3252
723.70 0.3251
723.80 0.3249
723.90 0.3248
724.00 0.3246
724.10 0.3244
724.20 0.3243
724.30 0.3241
724.40 0.324
724.50 0.3238
724.60 0.3237
724.70 0.3235
724.80 0.3234
724.90 0.3232
725.00 0.3231
725.10 0.3229
725.20 0.3228
725.30 0.3226
725.40 0.3225
725.50 0.3223
725.60 0.3221
725.70 0.322
725.80 0.3218
725.90 0.3217
726.00 0.3215
726.10 0.3214
726.20 0.3212
726.30 0.3211
726.40 0.3209
726.50 0.3208
726.60 0.3206
726.70 0.3205
726.80 0.3203
726.90 0.3202
727.00 0.32
727.10 0.3199
727.20 0.3197
727.30 0.3196
727.40 0.3194
727.50 0.3193
727.60 0.3191
727.70 0.319
727.80 0.3188
727.90 0.3187
728.00 0.3185
728.10 0.3184
728.20 0.3182
728.30 0.3181
728.40 0.3179
728.50 0.3178
728.60 0.3176
728.70 0.3175
728.80 0.3173
728.90 0.3172
729.00 0.317
729.10 0.3169
729.20 0.3167
729.30 0.3166
729.40 0.3164
729.50 0.3163
729.60 0.3161
729.70 0.316
729.80 0.3158
729.90 0.3157
730.00 0.3155
730.10 0.3154
730.20 0.3152
730.30 0.3151
730.40 0.3149
730.50 0.3148
730.60 0.3146
730.70 0.3145
730.80 0.3143
730.90 0.3142
731.00 0.314
731.10 0.3139
731.20 0.3137
731.30 0.3136
731.40 0.3135
731.50 0.3133
731.60 0.3132
731.70 0.313
731.80 0.3129
731.90 0.3127
732.00 0.3126
732.10 0.3124
732.20 0.3123
732.30 0.3121
732.40 0.312
732.50 0.3118
732.60 0.3117
732.70 0.3115
732.80 0.3114
732.90 0.3113
733.00 0.3111
733.10 0.311
733.20 0.3108
733.30 0.3107
733.40 0.3105
733.50 0.3104
733.60 0.3102
733.70 0.3101
733.80 0.3099
733.90 0.3098
734.00 0.3097
734.10 0.3095
734.20 0.3094
734.30 0.3092
734.40 0.3091
734.50 0.3089
734.60 0.3088
734.70 0.3086
734.80 0.3085
734.90 0.3083
735.00 0.3082
735.10 0.3081
735.20 0.3079
735.30 0.3078
735.40 0.3076
735.50 0.3075
735.60 0.3073
735.70 0.3072
735.80 0.3071
735.90 0.3069
736.00 0.3068
736.10 0.3066
736.20 0.3065
736.30 0.3063
736.40 0.3062
736.50 0.306
736.60 0.3059
736.70 0.3058
736.80 0.3056
736.90 0.3055
737.00 0.3053
737.10 0.3052
737.20 0.305
737.30 0.3049
737.40 0.3048
737.50 0.3046
737.60 0.3045
737.70 0.3043
737.80 0.3042
737.90 0.304
738.00 0.3039
738.10 0.3038
738.20 0.3036
738.30 0.3035
738.40 0.3033
738.50 0.3032
738.60 0.303
738.70 0.3029
738.80 0.3028
738.90 0.3026
739.00 0.3025
739.10 0.3023
739.20 0.3022
739.30 0.3021
739.40 0.3019
739.50 0.3018
739.60 0.3016
739.70 0.3015
739.80 0.3013
739.90 0.3012
740.00 0.3011
740.10 0.3009
740.20 0.3008
740.30 0.3006
740.40 0.3005
740.50 0.3004
740.60 0.3002
740.70 0.3001
740.80 0.2999
740.90 0.2998
741.00 0.2997
741.10 0.2995
741.20 0.2994
741.30 0.2993
741.40 0.2991
741.50 0.299
741.60 0.2988
741.70 0.2987
741.80 0.2986
741.90 0.2984
742.00 0.2983
742.10 0.2981
742.20 0.298
742.30 0.2979
742.40 0.2977
742.50 0.2976
742.60 0.2975
742.70 0.2973
742.80 0.2972
742.90 0.297
743.00 0.2969
743.10 0.2968
743.20 0.2966
743.30 0.2965
743.40 0.2964
743.50 0.2962
743.60 0.2961
743.70 0.2959
743.80 0.2958
743.90 0.2957
744.00 0.2955
744.10 0.2954
744.20 0.2953
744.30 0.2951
744.40 0.295
744.50 0.2948
744.60 0.2947
744.70 0.2946
744.80 0.2944
744.90 0.2943
745.00 0.2942
745.10 0.294
745.20 0.2939
745.30 0.2938
745.40 0.2936
745.50 0.2935
745.60 0.2933
745.70 0.2932
745.80 0.2931
745.90 0.2929
746.00 0.2928
746.10 0.2927
746.20 0.2925
746.30 0.2924
746.40 0.2923
746.50 0.2921
746.60 0.292
746.70 0.2919
746.80 0.2917
746.90 0.2916
747.00 0.2914
747.10 0.2913
747.20 0.2912
747.30 0.291
747.40 0.2909
747.50 0.2908
747.60 0.2906
747.70 0.2905
747.80 0.2904
747.90 0.2902
748.00 0.2901
748.10 0.29
748.20 0.2898
748.30 0.2897
748.40 0.2896
748.50 0.2894
748.60 0.2893
748.70 0.2892
748.80 0.289
748.90 0.2889
749.00 0.2888
749.10 0.2886
749.20 0.2885
749.30 0.2884
749.40 0.2882
749.50 0.2881
749.60 0.288
749.70 0.2878
749.80 0.2877
749.90 0.2876
750.00 0.2874
750.10 0.2873
750.20 0.2872
750.30 0.287
750.40 0.2869
750.50 0.2868
750.60 0.2866
750.70 0.2865
750.80 0.2864
750.90 0.2862
751.00 0.2861
751.10 0.286
751.20 0.2858
751.30 0.2857
751.40 0.2856
751.50 0.2855
751.60 0.2853
751.70 0.2852
751.80 0.2851
751.90 0.2849
752.00 0.2848
752.10 0.2847
752.20 0.2845
752.30 0.2844
752.40 0.2843
752.50 0.2841
752.60 0.284
752.70 0.2839
752.80 0.2838
752.90 0.2836
753.00 0.2835
753.10 0.2834
753.20 0.2832
753.30 0.2831
753.40 0.283
753.50 0.2828
753.60 0.2827
753.70 0.2826
753.80 0.2825
753.90 0.2823
754.00 0.2822
754.10 0.2821
754.20 0.2819
754.30 0.2818
754.40 0.2817
754.50 0.2816
754.60 0.2814
754.70 0.2813
754.80 0.2812
754.90 0.281
755.00 0.2809
755.10 0.2808
755.20 0.2807
755.30 0.2805
755.40 0.2804
755.50 0.2803
755.60 0.2801
755.70 0.28
755.80 0.2799
755.90 0.2798
756.00 0.2796
756.10 0.2795
756.20 0.2794
756.30 0.2792
756.40 0.2791
756.50 0.279
756.60 0.2789
756.70 0.2787
756.80 0.2786
756.90 0.2785
757.00 0.2783
757.10 0.2782
757.20 0.2781
757.30 0.278
757.40 0.2778
757.50 0.2777
757.60 0.2776
757.70 0.2775
757.80 0.2773
757.90 0.2772
758.00 0.2771
758.10 0.2769
758.20 0.2768
758.30 0.2767
758.40 0.2766
758.50 0.2764
758.60 0.2763
758.70 0.2762
758.80 0.2761
758.90 0.2759
759.00 0.2758
759.10 0.2757
759.20 0.2756
759.30 0.2754
759.40 0.2753
759.50 0.2752
759.60 0.275
759.70 0.2749
759.80 0.2748
759.90 0.2747
760.00 0.2745
760.10 0.2744
760.20 0.2743
760.30 0.2742
760.40 0.274
760.50 0.2739
760.60 0.2738
760.70 0.2737
760.80 0.2736
760.90 0.2734
761.00 0.2733
761.10 0.2732
761.20 0.2731
761.30 0.2729
761.40 0.2728
761.50 0.2727
761.60 0.2726
761.70 0.2724
761.80 0.2723
761.90 0.2722
762.00 0.2721
762.10 0.2719
762.20 0.2718
762.30 0.2717
762.40 0.2716
762.50 0.2715
762.60 0.2713
762.70 0.2712
762.80 0.2711
762.90 0.271
763.00 0.2708
763.10 0.2707
763.20 0.2706
763.30 0.2705
763.40 0.2703
763.50 0.2702
763.60 0.2701
763.70 0.27
763.80 0.2699
763.90 0.2697
764.00 0.2696
764.10 0.2695
764.20 0.2694
764.30 0.2692
764.40 0.2691
764.50 0.269
764.60 0.2689
764.70 0.2688
764.80 0.2686
764.90 0.2685
765.00 0.2684
765.10 0.2683
765.20 0.2682
765.30 0.268
765.40 0.2679
765.50 0.2678
765.60 0.2677
765.70 0.2675
765.80 0.2674
765.90 0.2673
766.00 0.2672
766.10 0.2671
766.20 0.2669
766.30 0.2668
766.40 0.2667
766.50 0.2666
766.60 0.2665
766.70 0.2663
766.80 0.2662
766.90 0.2661
767.00 0.266
767.10 0.2659
767.20 0.2657
767.30 0.2656
767.40 0.2655
767.50 0.2654
767.60 0.2652
767.70 0.2651
767.80 0.265
767.90 0.2649
768.00 0.2648
768.10 0.2646
768.20 0.2645
768.30 0.2644
768.40 0.2643
768.50 0.2642
768.60 0.264
768.70 0.2639
768.80 0.2638
768.90 0.2637
769.00 0.2636
769.10 0.2635
769.20 0.2633
769.30 0.2632
769.40 0.2631
769.50 0.263
769.60 0.2629
769.70 0.2627
769.80 0.2626
769.90 0.2625
770.00 0.2624
770.10 0.2623
770.20 0.2621
770.30 0.262
770.40 0.2619
770.50 0.2618
770.60 0.2617
770.70 0.2616
770.80 0.2614
770.90 0.2613
771.00 0.2612
771.10 0.2611
771.20 0.261
771.30 0.2609
771.40 0.2607
771.50 0.2606
771.60 0.2605
771.70 0.2604
771.80 0.2603
771.90 0.2602
772.00 0.26
772.10 0.2599
772.20 0.2598
772.30 0.2597
772.40 0.2596
772.50 0.2595
772.60 0.2593
772.70 0.2592
772.80 0.2591
772.90 0.259
773.00 0.2589
773.10 0.2588
773.20 0.2586
773.30 0.2585
773.40 0.2584
773.50 0.2583
773.60 0.2582
773.70 0.2581
773.80 0.2579
773.90 0.2578
774.00 0.2577
774.10 0.2576
774.20 0.2575
774.30 0.2574
774.40 0.2573
774.50 0.2571
774.60 0.257
774.70 0.2569
774.80 0.2568
774.90 0.2567
775.00 0.2566
775.10 0.2564
775.20 0.2563
775.30 0.2562
775.40 0.2561
775.50 0.256
775.60 0.2559
775.70 0.2558
775.80 0.2556
775.90 0.2555
776.00 0.2554
776.10 0.2553
776.20 0.2552
776.30 0.2551
776.40 0.255
776.50 0.2548
776.60 0.2547
776.70 0.2546
776.80 0.2545
776.90 0.2544
777.00 0.2543
777.10 0.2542
777.20 0.254
777.30 0.2539
777.40 0.2538
777.50 0.2537
777.60 0.2536
777.70 0.2535
777.80 0.2534
777.90 0.2532
778.00 0.2531
778.10 0.253
778.20 0.2529
778.30 0.2528
778.40 0.2527
778.50 0.2526
778.60 0.2525
778.70 0.2523
778.80 0.2522
778.90 0.2521
779.00 0.252
779.10 0.2519
779.20 0.2518
779.30 0.2517
779.40 0.2515
779.50 0.2514
779.60 0.2513
779.70 0.2512
779.80 0.2511
779.90 0.251
780.00 0.2509
780.10 0.2508
780.20 0.2507
780.30 0.2505
780.40 0.2504
780.50 0.2503
780.60 0.2502
780.70 0.2501
780.80 0.25
780.90 0.2499
781.00 0.2498
781.10 0.2497
781.20 0.2495
781.30 0.2494
781.40 0.2493
781.50 0.2492
781.60 0.2491
781.70 0.249
781.80 0.2489
781.90 0.2488
782.00 0.2487
782.10 0.2485
782.20 0.2484
782.30 0.2483
782.40 0.2482
782.50 0.2481
782.60 0.248
782.70 0.2479
782.80 0.2478
782.90 0.2477
783.00 0.2476
783.10 0.2474
783.20 0.2473
783.30 0.2472
783.40 0.2471
783.50 0.247
783.60 0.2469
783.70 0.2468
783.80 0.2467
783.90 0.2466
784.00 0.2465
784.10 0.2464
784.20 0.2462
784.30 0.2461
784.40 0.246
784.50 0.2459
784.60 0.2458
784.70 0.2457
784.80 0.2456
784.90 0.2455
785.00 0.2454
785.10 0.2453
785.20 0.2452
785.30 0.245
785.40 0.2449
785.50 0.2448
785.60 0.2447
785.70 0.2446
785.80 0.2445
785.90 0.2444
786.00 0.2443
786.10 0.2442
786.20 0.2441
786.30 0.244
786.40 0.2439
786.50 0.2437
786.60 0.2436
786.70 0.2435
786.80 0.2434
786.90 0.2433
787.00 0.2432
787.10 0.2431
787.20 0.243
787.30 0.2429
787.40 0.2428
787.50 0.2427
787.60 0.2426
787.70 0.2425
787.80 0.2423
787.90 0.2422
788.00 0.2421
788.10 0.242
788.20 0.2419
788.30 0.2418
788.40 0.2417
788.50 0.2416
788.60 0.2415
788.70 0.2414
788.80 0.2413
788.90 0.2412
789.00 0.2411
789.10 0.241
789.20 0.2408
789.30 0.2407
789.40 0.2406
789.50 0.2405
789.60 0.2404
789.70 0.2403
789.80 0.2402
789.90 0.2401
790.00 0.24
790.10 0.2399
790.20 0.2398
790.30 0.2397
790.40 0.2396
790.50 0.2395
790.60 0.2394
790.70 0.2393
790.80 0.2391
790.90 0.239
791.00 0.2389
791.10 0.2388
791.20 0.2387
791.30 0.2386
791.40 0.2385
791.50 0.2384
791.60 0.2383
791.70 0.2382
791.80 0.2381
791.90 0.238
792.00 0.2379
792.10 0.2378
792.20 0.2377
792.30 0.2376
792.40 0.2375
792.50 0.2374
792.60 0.2373
792.70 0.2372
792.80 0.2371
792.90 0.237
793.00 0.2369
793.10 0.2367
793.20 0.2366
793.30 0.2365
793.40 0.2364
793.50 0.2363
793.60 0.2362
793.70 0.2361
793.80 0.236
793.90 0.2359
794.00 0.2358
794.10 0.2357
794.20 0.2356
794.30 0.2355
794.40 0.2354
794.50 0.2353
794.60 0.2352
794.70 0.2351
794.80 0.235
794.90 0.2349
795.00 0.2348
795.10 0.2347
795.20 0.2346
795.30 0.2345
795.40 0.2344
795.50 0.2343
795.60 0.2342
795.70 0.2341
795.80 0.234
795.90 0.2339
796.00 0.2338
796.10 0.2337
796.20 0.2336
796.30 0.2334
796.40 0.2333
796.50 0.2332
796.60 0.2331
796.70 0.233
796.80 0.2329
796.90 0.2328
797.00 0.2327
797.10 0.2326
797.20 0.2325
797.30 0.2324
797.40 0.2323
797.50 0.2322
797.60 0.2321
797.70 0.232
797.80 0.2319
797.90 0.2318
798.00 0.2317
798.10 0.2316
798.20 0.2315
798.30 0.2314
798.40 0.2313
798.50 0.2312
798.60 0.2311
798.70 0.231
798.80 0.2309
798.90 0.2308
799.00 0.2307
799.10 0.2306
799.20 0.2305
799.30 0.2304
799.40 0.2303
799.50 0.2302
799.60 0.2301
799.70 0.23
799.80 0.2299
799.90 0.2298
800.00 0.2297
800.10 0.2296
800.20 0.2295
800.30 0.2294
800.40 0.2293
800.50 0.2292
800.60 0.2291
800.70 0.229
800.80 0.2289
800.90 0.2288
801.00 0.2287
801.10 0.2286
801.20 0.2285
801.30 0.2284
801.40 0.2283
801.50 0.2282
801.60 0.2281
801.70 0.228
801.80 0.2279
801.90 0.2278
802.00 0.2277
802.10 0.2276
802.20 0.2275
802.30 0.2274
802.40 0.2273
802.50 0.2272
802.60 0.2271
802.70 0.227
802.80 0.2269
802.90 0.2268
803.00 0.2267
803.10 0.2266
803.20 0.2265
803.30 0.2264
803.40 0.2263
803.50 0.2262
803.60 0.2261
803.70 0.226
803.80 0.2259
803.90 0.2258
804.00 0.2257
804.10 0.2256
804.20 0.2255
804.30 0.2254
804.40 0.2253
804.50 0.2252
804.60 0.2251
804.70 0.225
804.80 0.225
804.90 0.2249
805.00 0.2248
805.10 0.2247
805.20 0.2246
805.30 0.2245
805.40 0.2244
805.50 0.2243
805.60 0.2242
805.70 0.2241
805.80 0.224
805.90 0.2239
806.00 0.2238
806.10 0.2237
806.20 0.2236
806.30 0.2235
806.40 0.2234
806.50 0.2233
806.60 0.2232
806.70 0.2231
806.80 0.223
806.90 0.2229
807.00 0.2228
807.10 0.2227
807.20 0.2226
807.30 0.2225
807.40 0.2224
807.50 0.2223
807.60 0.2222
807.70 0.2221
807.80 0.222
807.90 0.2219
808.00 0.2218
808.10 0.2218
808.20 0.2217
808.30 0.2216
808.40 0.2215
808.50 0.2214
808.60 0.2213
808.70 0.2212
808.80 0.2211
808.90 0.221
809.00 0.2209
809.10 0.2208
809.20 0.2207
809.30 0.2206
809.40 0.2205
809.50 0.2204
809.60 0.2203
809.70 0.2202
809.80 0.2201
809.90 0.22
810.00 0.2199
810.10 0.2198
810.20 0.2197
810.30 0.2196
810.40 0.2196
810.50 0.2195
810.60 0.2194
810.70 0.2193
810.80 0.2192
810.90 0.2191
811.00 0.219
811.10 0.2189
811.20 0.2188
811.30 0.2187
811.40 0.2186
811.50 0.2185
811.60 0.2184
811.70 0.2183
811.80 0.2182
811.90 0.2181
812.00 0.218
812.10 0.218
812.20 0.2179
812.30 0.2178
812.40 0.2177
812.50 0.2176
812.60 0.2175
812.70 0.2174
812.80 0.2173
812.90 0.2172
813.00 0.2171
813.10 0.217
813.20 0.2169
813.30 0.2168
813.40 0.2167
813.50 0.2166
813.60 0.2166
813.70 0.2165
813.80 0.2164
813.90 0.2163
814.00 0.2162
814.10 0.2161
814.20 0.216
814.30 0.2159
814.40 0.2158
814.50 0.2157
814.60 0.2156
814.70 0.2155
814.80 0.2154
814.90 0.2154
815.00 0.2153
815.10 0.2152
815.20 0.2151
815.30 0.215
815.40 0.2149
815.50 0.2148
815.60 0.2147
815.70 0.2146
815.80 0.2145
815.90 0.2144
816.00 0.2143
816.10 0.2142
816.20 0.2142
816.30 0.2141
816.40 0.214
816.50 0.2139
816.60 0.2138
816.70 0.2137
816.80 0.2136
816.90 0.2135
817.00 0.2134
817.10 0.2133
817.20 0.2132
817.30 0.2131
817.40 0.2131
817.50 0.213
817.60 0.2129
817.70 0.2128
817.80 0.2127
817.90 0.2126
818.00 0.2125
818.10 0.2124
818.20 0.2123
818.30 0.2122
818.40 0.2121
818.50 0.212
818.60 0.212
818.70 0.2119
818.80 0.2118
818.90 0.2117
819.00 0.2116
819.10 0.2115
819.20 0.2114
819.30 0.2113
819.40 0.2112
819.50 0.2111
819.60 0.211
819.70 0.211
819.80 0.2109
819.90 0.2108
820.00 0.2107
820.10 0.2106
820.20 0.2105
820.30 0.2104
820.40 0.2104
820.50 0.2103
820.60 0.2102
820.70 0.2101
820.80 0.21
820.90 0.2099
821.00 0.2098
821.10 0.2097
821.20 0.2096
821.30 0.2095
821.40 0.2095
821.50 0.2094
821.60 0.2093
821.70 0.2092
821.80 0.2091
821.90 0.209
822.00 0.2089
822.10 0.2088
822.20 0.2087
822.30 0.2087
822.40 0.2086
822.50 0.2085
822.60 0.2084
822.70 0.2083
822.80 0.2082
822.90 0.2081
823.00 0.208
823.10 0.2079
823.20 0.2079
823.30 0.2078
823.40 0.2077
823.50 0.2076
823.60 0.2075
823.70 0.2074
823.80 0.2073
823.90 0.2072
824.00 0.2072
824.10 0.2071
824.20 0.207
824.30 0.2069
824.40 0.2068
824.50 0.2067
824.60 0.2066
824.70 0.2065
824.80 0.2065
824.90 0.2064
825.00 0.2063
825.10 0.2062
825.20 0.2061
825.30 0.206
825.40 0.2059
825.50 0.2058
825.60 0.2057
825.70 0.2057
825.80 0.2056
825.90 0.2055
826.00 0.2054
826.10 0.2053
826.20 0.2052
826.30 0.2051
826.40 0.205
826.50 0.205
826.60 0.2049
826.70 0.2048
826.80 0.2047
826.90 0.2046
827.00 0.2045
827.10 0.2044
827.20 0.2044
827.30 0.2043
827.40 0.2042
827.50 0.2041
827.60 0.204
827.70 0.2039
827.80 0.2038
827.90 0.2037
828.00 0.2037
828.10 0.2036
828.20 0.2035
828.30 0.2034
828.40 0.2033
828.50 0.2032
828.60 0.2031
828.70 0.2031
828.80 0.203
828.90 0.2029
829.00 0.2028
829.10 0.2027
829.20 0.2026
829.30 0.2025
829.40 0.2025
829.50 0.2024
829.60 0.2023
829.70 0.2022
829.80 0.2021
829.90 0.202
830.00 0.2019
830.10 0.2019
830.20 0.2018
830.30 0.2017
830.40 0.2016
830.50 0.2015
830.60 0.2014
830.70 0.2013
830.80 0.2013
830.90 0.2012
831.00 0.2011
831.10 0.201
831.20 0.2009
831.30 0.2008
831.40 0.2008
831.50 0.2007
831.60 0.2006
831.70 0.2005
831.80 0.2004
831.90 0.2003
832.00 0.2002
832.10 0.2002
832.20 0.2001
832.30 0.2
832.40 0.1999
832.50 0.1998
832.60 0.1997
832.70 0.1997
832.80 0.1996
832.90 0.1995
833.00 0.1994
833.10 0.1993
833.20 0.1992
833.30 0.1992
833.40 0.1991
833.50 0.199
833.60 0.1989
833.70 0.1988
833.80 0.1987
833.90 0.1986
834.00 0.1986
834.10 0.1985
834.20 0.1984
834.30 0.1983
834.40 0.1982
834.50 0.1981
834.60 0.1981
834.70 0.198
834.80 0.1979
834.90 0.1978
835.00 0.1977
835.10 0.1976
835.20 0.1976
835.30 0.1975
835.40 0.1974
835.50 0.1973
835.60 0.1972
835.70 0.1971
835.80 0.1971
835.90 0.197
836.00 0.1969
836.10 0.1968
836.20 0.1967
836.30 0.1967
836.40 0.1966
836.50 0.1965
836.60 0.1964
836.70 0.1963
836.80 0.1962
836.90 0.1962
837.00 0.1961
837.10 0.196
837.20 0.1959
837.30 0.1958
837.40 0.1957
837.50 0.1957
837.60 0.1956
837.70 0.1955
837.80 0.1954
837.90 0.1953
838.00 0.1953
838.10 0.1952
838.20 0.1951
838.30 0.195
838.40 0.1949
838.50 0.1948
838.60 0.1948
838.70 0.1947
838.80 0.1946
838.90 0.1945
839.00 0.1944
839.10 0.1944
839.20 0.1943
839.30 0.1942
839.40 0.1941
839.50 0.194
839.60 0.1939
839.70 0.1939
839.80 0.1938
839.90 0.1937
840.00 0.1936
840.10 0.1935
840.20 0.1935
840.30 0.1934
840.40 0.1933
840.50 0.1932
840.60 0.1931
840.70 0.1931
840.80 0.193
840.90 0.1929
841.00 0.1928
841.10 0.1927
841.20 0.1927
841.30 0.1926
841.40 0.1925
841.50 0.1924
841.60 0.1923
841.70 0.1923
841.80 0.1922
841.90 0.1921
842.00 0.192
842.10 0.1919
842.20 0.1918
842.30 0.1918
842.40 0.1917
842.50 0.1916
842.60 0.1915
842.70 0.1914
842.80 0.1914
842.90 0.1913
843.00 0.1912
843.10 0.1911
843.20 0.1911
843.30 0.191
843.40 0.1909
843.50 0.1908
843.60 0.1907
843.70 0.1907
843.80 0.1906
843.90 0.1905
844.00 0.1904
844.10 0.1903
844.20 0.1903
844.30 0.1902
844.40 0.1901
844.50 0.19
844.60 0.1899
844.70 0.1899
844.80 0.1898
844.90 0.1897
845.00 0.1896
845.10 0.1895
845.20 0.1895
845.30 0.1894
845.40 0.1893
845.50 0.1892
845.60 0.1892
845.70 0.1891
845.80 0.189
845.90 0.1889
846.00 0.1888
846.10 0.1888
846.20 0.1887
846.30 0.1886
846.40 0.1885
846.50 0.1884
846.60 0.1884
846.70 0.1883
846.80 0.1882
846.90 0.1881
847.00 0.1881
847.10 0.188
847.20 0.1879
847.30 0.1878
847.40 0.1877
847.50 0.1877
847.60 0.1876
847.70 0.1875
847.80 0.1874
847.90 0.1874
848.00 0.1873
848.10 0.1872
848.20 0.1871
848.30 0.187
848.40 0.187
848.50 0.1869
848.60 0.1868
848.70 0.1867
848.80 0.1867
848.90 0.1866
849.00 0.1865
849.10 0.1864
849.20 0.1864
849.30 0.1863
849.40 0.1862
849.50 0.1861
849.60 0.186
849.70 0.186
849.80 0.1859
849.90 0.1858
850.00 0.1857
850.10 0.1857
850.20 0.1856
850.30 0.1855
850.40 0.1854
850.50 0.1854
850.60 0.1853
850.70 0.1852
850.80 0.1851
850.90 0.185
851.00 0.185
851.10 0.1849
851.20 0.1848
851.30 0.1847
851.40 0.1847
851.50 0.1846
851.60 0.1845
851.70 0.1844
851.80 0.1844
851.90 0.1843
852.00 0.1842
852.10 0.1841
852.20 0.1841
852.30 0.184
852.40 0.1839
852.50 0.1838
852.60 0.1838
852.70 0.1837
852.80 0.1836
852.90 0.1835
853.00 0.1835
853.10 0.1834
853.20 0.1833
853.30 0.1832
853.40 0.1832
853.50 0.1831
853.60 0.183
853.70 0.1829
853.80 0.1829
853.90 0.1828
854.00 0.1827
854.10 0.1826
854.20 0.1826
854.30 0.1825
854.40 0.1824
854.50 0.1823
854.60 0.1823
854.70 0.1822
854.80 0.1821
854.90 0.182
855.00 0.182
855.10 0.1819
855.20 0.1818
855.30 0.1817
855.40 0.1817
855.50 0.1816
855.60 0.1815
855.70 0.1814
855.80 0.1814
855.90 0.1813
856.00 0.1812
856.10 0.1811
856.20 0.1811
856.30 0.181
856.40 0.1809
856.50 0.1808
856.60 0.1808
856.70 0.1807
856.80 0.1806
856.90 0.1805
857.00 0.1805
857.10 0.1804
857.20 0.1803
857.30 0.1802
857.40 0.1802
857.50 0.1801
857.60 0.18
857.70 0.18
857.80 0.1799
857.90 0.1798
858.00 0.1797
858.10 0.1797
858.20 0.1796
858.30 0.1795
858.40 0.1794
858.50 0.1794
858.60 0.1793
858.70 0.1792
858.80 0.1792
858.90 0.1791
859.00 0.179
859.10 0.1789
859.20 0.1789
859.30 0.1788
859.40 0.1787
859.50 0.1786
859.60 0.1786
859.70 0.1785
859.80 0.1784
859.90 0.1784
860.00 0.1783
860.10 0.1782
860.20 0.1781
860.30 0.1781
860.40 0.178
860.50 0.1779
860.60 0.1779
860.70 0.1778
860.80 0.1777
860.90 0.1776
861.00 0.1776
861.10 0.1775
861.20 0.1774
861.30 0.1773
861.40 0.1773
861.50 0.1772
861.60 0.1771
861.70 0.1771
861.80 0.177
861.90 0.1769
862.00 0.1768
862.10 0.1768
862.20 0.1767
862.30 0.1766
862.40 0.1766
862.50 0.1765
862.60 0.1764
862.70 0.1763
862.80 0.1763
862.90 0.1762
863.00 0.1761
863.10 0.1761
863.20 0.176
863.30 0.1759
863.40 0.1758
863.50 0.1758
863.60 0.1757
863.70 0.1756
863.80 0.1756
863.90 0.1755
864.00 0.1754
864.10 0.1754
864.20 0.1753
864.30 0.1752
864.40 0.1751
864.50 0.1751
864.60 0.175
864.70 0.1749
864.80 0.1749
864.90 0.1748
865.00 0.1747
865.10 0.1747
865.20 0.1746
865.30 0.1745
865.40 0.1744
865.50 0.1744
865.60 0.1743
865.70 0.1742
865.80 0.1742
865.90 0.1741
866.00 0.174
866.10 0.174
866.20 0.1739
866.30 0.1738
866.40 0.1737
866.50 0.1737
866.60 0.1736
866.70 0.1735
866.80 0.1735
866.90 0.1734
867.00 0.1733
867.10 0.1733
867.20 0.1732
867.30 0.1731
867.40 0.1731
867.50 0.173
867.60 0.1729
867.70 0.1728
867.80 0.1728
867.90 0.1727
868.00 0.1726
868.10 0.1726
868.20 0.1725
868.30 0.1724
868.40 0.1724
868.50 0.1723
868.60 0.1722
868.70 0.1722
868.80 0.1721
868.90 0.172
869.00 0.172
869.10 0.1719
869.20 0.1718
869.30 0.1718
869.40 0.1717
869.50 0.1716
869.60 0.1716
869.70 0.1715
869.80 0.1714
869.90 0.1714
870.00 0.1713
870.10 0.1712
870.20 0.1711
870.30 0.1711
870.40 0.171
870.50 0.1709
870.60 0.1709
870.70 0.1708
870.80 0.1707
870.90 0.1707
871.00 0.1706
871.10 0.1705
871.20 0.1705
871.30 0.1704
871.40 0.1703
871.50 0.1703
871.60 0.1702
871.70 0.1701
871.80 0.1701
871.90 0.17
872.00 0.1699
872.10 0.1699
872.20 0.1698
872.30 0.1697
872.40 0.1697
872.50 0.1696
872.60 0.1695
872.70 0.1695
872.80 0.1694
872.90 0.1693
873.00 0.1693
873.10 0.1692
873.20 0.1691
873.30 0.1691
873.40 0.169
873.50 0.1689
873.60 0.1689
873.70 0.1688
873.80 0.1687
873.90 0.1687
874.00 0.1686
874.10 0.1685
874.20 0.1685
874.30 0.1684
874.40 0.1683
874.50 0.1683
874.60 0.1682
874.70 0.1681
874.80 0.1681
874.90 0.168
875.00 0.168
875.10 0.1679
875.20 0.1678
875.30 0.1678
875.40 0.1677
875.50 0.1676
875.60 0.1676
875.70 0.1675
875.80 0.1674
875.90 0.1674
876.00 0.1673
876.10 0.1672
876.20 0.1672
876.30 0.1671
876.40 0.167
876.50 0.167
876.60 0.1669
876.70 0.1668
876.80 0.1668
876.90 0.1667
877.00 0.1666
877.10 0.1666
877.20 0.1665
877.30 0.1665
877.40 0.1664
877.50 0.1663
877.60 0.1663
877.70 0.1662
877.80 0.1661
877.90 0.1661
878.00 0.166
878.10 0.1659
878.20 0.1659
878.30 0.1658
878.40 0.1658
878.50 0.1657
878.60 0.1656
878.70 0.1656
878.80 0.1655
878.90 0.1654
879.00 0.1654
879.10 0.1653
879.20 0.1653
879.30 0.1652
879.40 0.1651
879.50 0.1651
879.60 0.165
879.70 0.1649
879.80 0.1649
879.90 0.1648
880.00 0.1647
880.10 0.1647
880.20 0.1646
880.30 0.1646
880.40 0.1645
880.50 0.1644
880.60 0.1644
880.70 0.1643
880.80 0.1642
880.90 0.1642
881.00 0.1641
881.10 0.1641
881.20 0.164
881.30 0.1639
881.40 0.1639
881.50 0.1638
881.60 0.1637
881.70 0.1637
881.80 0.1636
881.90 0.1636
882.00 0.1635
882.10 0.1634
882.20 0.1634
882.30 0.1633
882.40 0.1632
882.50 0.1632
882.60 0.1631
882.70 0.1631
882.80 0.163
882.90 0.1629
883.00 0.1629
883.10 0.1628
883.20 0.1627
883.30 0.1627
883.40 0.1626
883.50 0.1625
883.60 0.1625
883.70 0.1624
883.80 0.1624
883.90 0.1623
884.00 0.1622
884.10 0.1622
884.20 0.1621
884.30 0.162
884.40 0.162
884.50 0.1619
884.60 0.1619
884.70 0.1618
884.80 0.1617
884.90 0.1617
885.00 0.1616
885.10 0.1615
885.20 0.1615
885.30 0.1614
885.40 0.1613
885.50 0.1613
885.60 0.1612
885.70 0.1612
885.80 0.1611
885.90 0.161
886.00 0.161
886.10 0.1609
886.20 0.1608
886.30 0.1608
886.40 0.1607
886.50 0.1607
886.60 0.1606
886.70 0.1605
886.80 0.1605
886.90 0.1604
887.00 0.1603
887.10 0.1603
887.20 0.1602
887.30 0.1602
887.40 0.1601
887.50 0.1601
887.60 0.16
887.70 0.1599
887.80 0.1599
887.90 0.1598
888.00 0.1598
888.10 0.1597
888.20 0.1597
888.30 0.1596
888.40 0.1595
888.50 0.1595
888.60 0.1594
888.70 0.1594
888.80 0.1593
888.90 0.1593
889.00 0.1592
889.10 0.1591
889.20 0.1591
889.30 0.159
889.40 0.159
889.50 0.1589
889.60 0.1589
889.70 0.1588
889.80 0.1587
889.90 0.1587
890.00 0.1586
890.10 0.1586
890.20 0.1585
890.30 0.1585
890.40 0.1584
890.50 0.1584
890.60 0.1583
890.70 0.1582
890.80 0.1582
890.90 0.1581
891.00 0.1581
891.10 0.158
891.20 0.158
891.30 0.1579
891.40 0.1578
891.50 0.1578
891.60 0.1577
891.70 0.1577
891.80 0.1576
891.90 0.1576
892.00 0.1575
892.10 0.1575
892.20 0.1574
892.30 0.1573
892.40 0.1573
892.50 0.1572
892.60 0.1572
892.70 0.1571
892.80 0.157
892.90 0.157
893.00 0.1569
893.10 0.1569
893.20 0.1568
893.30 0.1568
893.40 0.1567
893.50 0.1566
893.60 0.1566
893.70 0.1565
893.80 0.1565
893.90 0.1564
894.00 0.1564
894.10 0.1563
894.20 0.1562
894.30 0.1562
894.40 0.1561
894.50 0.1561
894.60 0.156
894.70 0.156
894.80 0.1559
894.90 0.1558
895.00 0.1558
895.10 0.1557
895.20 0.1557
895.30 0.1556
895.40 0.1556
895.50 0.1555
895.60 0.1554
895.70 0.1554
895.80 0.1553
895.90 0.1553
896.00 0.1552
896.10 0.1552
896.20 0.1551
896.30 0.1551
896.40 0.155
896.50 0.1549
896.60 0.1549
896.70 0.1548
896.80 0.1548
896.90 0.1547
897.00 0.1547
897.10 0.1546
897.20 0.1545
897.30 0.1545
897.40 0.1544
897.50 0.1543
897.60 0.1543
897.70 0.1542
897.80 0.1542
897.90 0.1541
898.00 0.154
898.10 0.154
898.20 0.1539
898.30 0.1538
898.40 0.1538
898.50 0.1537
898.60 0.1537
898.70 0.1536
898.80 0.1535
898.90 0.1535
899.00 0.1534
899.10 0.1533
899.20 0.1533
899.30 0.1532
899.40 0.1532
899.50 0.1531
899.60 0.153
899.70 0.153
899.80 0.1529
899.90 0.1528
900.00 0.1528
900.10 0.1527
900.20 0.1527
900.30 0.1526
900.40 0.1525
900.50 0.1525
900.60 0.1524
900.70 0.1524
900.80 0.1523
900.90 0.1522
901.00 0.1522
901.10 0.1521
901.20 0.152
901.30 0.152
901.40 0.1519
901.50 0.1519
901.60 0.1518
901.70 0.1517
901.80 0.1517
901.90 0.1516
902.00 0.1515
902.10 0.1515
902.20 0.1515
902.30 0.1514
902.40 0.1514
902.50 0.1513
902.60 0.1513
902.70 0.1512
902.80 0.1512
902.90 0.1511
903.00 0.1511
903.10 0.151
903.20 0.151
903.30 0.1509
903.40 0.1509
903.50 0.1508
903.60 0.1508
903.70 0.1507
903.80 0.1507
903.90 0.1506
904.00 0.1506
904.10 0.1505
904.20 0.1505
904.30 0.1504
904.40 0.1504
904.50 0.1504
904.60 0.1503
904.70 0.1503
904.80 0.1502
904.90 0.1502
905.00 0.1501
905.10 0.1501
905.20 0.15
905.30 0.15
905.40 0.1499
905.50 0.1499
905.60 0.1498
905.70 0.1498
905.80 0.1497
905.90 0.1497
906.00 0.1496
906.10 0.1496
906.20 0.1495
906.30 0.1495
906.40 0.1494
906.50 0.1494
906.60 0.1494
906.70 0.1493
906.80 0.1493
906.90 0.1492
907.00 0.1492
907.10 0.1491
907.20 0.1491
907.30 0.149
907.40 0.149
907.50 0.1489
907.60 0.1489
907.70 0.1488
907.80 0.1488
907.90 0.1487
908.00 0.1487
908.10 0.1486
908.20 0.1486
908.30 0.1485
908.40 0.1485
908.50 0.1484
908.60 0.1484
908.70 0.1483
908.80 0.1483
908.90 0.1482
909.00 0.1482
909.10 0.1481
909.20 0.1481
909.30 0.148
909.40 0.148
909.50 0.1479
909.60 0.1479
909.70 0.1478
909.80 0.1478
909.90 0.1477
910.00 0.1477
910.10 0.1476
910.20 0.1476
910.30 0.1475
910.40 0.1475
910.50 0.1474
910.60 0.1474
910.70 0.1473
910.80 0.1473
910.90 0.1472
911.00 0.1472
911.10 0.1471
911.20 0.1471
911.30 0.147
911.40 0.147
911.50 0.1469
911.60 0.1469
911.70 0.1469
911.80 0.1468
911.90 0.1468
912.00 0.1467
912.10 0.1467
912.20 0.1466
912.30 0.1465
912.40 0.1465
912.50 0.1464
912.60 0.1464
912.70 0.1463
912.80 0.1463
912.90 0.1462
913.00 0.1462
913.10 0.1461
913.20 0.1461
913.30 0.146
913.40 0.146
913.50 0.1459
913.60 0.1459
913.70 0.1458
913.80 0.1457
913.90 0.1457
914.00 0.1456
914.10 0.1456
914.20 0.1455
914.30 0.1455
914.40 0.1454
914.50 0.1454
914.60 0.1453
914.70 0.1453
914.80 0.1452
914.90 0.1452
915.00 0.1451
915.10 0.1451
915.20 0.145
915.30 0.145
915.40 0.1449
915.50 0.1448
915.60 0.1448
915.70 0.1447
915.80 0.1447
915.90 0.1446
916.00 0.1446
916.10 0.1445
916.20 0.1445
916.30 0.1444
916.40 0.1444
916.50 0.1443
916.60 0.1443
916.70 0.1442
916.80 0.1442
916.90 0.1441
917.00 0.1441
917.10 0.144
917.20 0.1439
917.30 0.1439
917.40 0.1438
917.50 0.1438
917.60 0.1437
917.70 0.1437
917.80 0.1436
917.90 0.1435
918.00 0.1435
918.10 0.1434
918.20 0.1434
918.30 0.1433
918.40 0.1432
918.50 0.1432
918.60 0.1431
918.70 0.1431
918.80 0.143
918.90 0.143
919.00 0.1429
919.10 0.1428
919.20 0.1428
919.30 0.1427
919.40 0.1427
919.50 0.1426
919.60 0.1425
919.70 0.1425
919.80 0.1424
919.90 0.1424
920.00 0.1423
920.10 0.1423
920.20 0.1422
920.30 0.1421
920.40 0.1421
920.50 0.142
920.60 0.142
920.70 0.1419
920.80 0.1419
920.90 0.1418
921.00 0.1417
921.10 0.1417
921.20 0.1416
921.30 0.1416
921.40 0.1415
921.50 0.1414
921.60 0.1414
921.70 0.1413
921.80 0.1413
921.90 0.1412
922.00 0.1412
922.10 0.1411
922.20 0.141
922.30 0.141
922.40 0.1409
922.50 0.1409
922.60 0.1408
922.70 0.1408
922.80 0.1407
922.90 0.1407
923.00 0.1406
923.10 0.1405
923.20 0.1405
923.30 0.1404
923.40 0.1404
923.50 0.1403
923.60 0.1403
923.70 0.1402
923.80 0.1402
923.90 0.1401
924.00 0.14
924.10 0.14
924.20 0.1399
924.30 0.1399
924.40 0.1398
924.50 0.1398
924.60 0.1397
924.70 0.1396
924.80 0.1396
924.90 0.1395
925.00 0.1395
925.10 0.1394
925.20 0.1394
925.30 0.1393
925.40 0.1393
925.50 0.1392
925.60 0.1391
925.70 0.1391
925.80 0.139
925.90 0.139
926.00 0.1389
926.10 0.1389
926.20 0.1388
926.30 0.1388
926.40 0.1387
926.50 0.1386
926.60 0.1386
926.70 0.1385
926.80 0.1385
926.90 0.1384
927.00 0.1384
927.10 0.1383
927.20 0.1383
927.30 0.1383
927.40 0.1382
927.50 0.1382
927.60 0.1382
927.70 0.1382
927.80 0.1381
927.90 0.1381
928.00 0.1381
928.10 0.138
928.20 0.138
928.30 0.138
928.40 0.1379
928.50 0.1379
928.60 0.1379
928.70 0.1378
928.80 0.1378
928.90 0.1378
929.00 0.1377
929.10 0.1377
929.20 0.1377
929.30 0.1377
929.40 0.1376
929.50 0.1376
929.60 0.1376
929.70 0.1375
929.80 0.1375
929.90 0.1375
930.00 0.1374
930.10 0.1374
930.20 0.1374
930.30 0.1373
930.40 0.1373
930.50 0.1373
930.60 0.1373
930.70 0.1372
930.80 0.1372
930.90 0.1372
931.00 0.1371
931.10 0.1371
931.20 0.1371
931.30 0.137
931.40 0.137
931.50 0.137
931.60 0.1369
931.70 0.1369
931.80 0.1369
931.90 0.1369
932.00 0.1368
932.10 0.1368
932.20 0.1367
932.30 0.1367
932.40 0.1367
932.50 0.1366
932.60 0.1366
932.70 0.1366
932.80 0.1365
932.90 0.1365
933.00 0.1364
933.10 0.1364
933.20 0.1364
933.30 0.1363
933.40 0.1363
933.50 0.1362
933.60 0.1362
933.70 0.1362
933.80 0.1361
933.90 0.1361
934.00 0.1361
934.10 0.136
934.20 0.136
934.30 0.1359
934.40 0.1359
934.50 0.1359
934.60 0.1358
934.70 0.1358
934.80 0.1357
934.90 0.1357
935.00 0.1357
935.10 0.1356
935.20 0.1356
935.30 0.1355
935.40 0.1355
935.50 0.1354
935.60 0.1354
935.70 0.1354
935.80 0.1353
935.90 0.1353
936.00 0.1352
936.10 0.1352
936.20 0.1352
936.30 0.1351
936.40 0.1351
936.50 0.135
936.60 0.135
936.70 0.1349
936.80 0.1349
936.90 0.1349
937.00 0.1348
937.10 0.1348
937.20 0.1347
937.30 0.1347
937.40 0.1346
937.50 0.1346
937.60 0.1346
937.70 0.1345
937.80 0.1345
937.90 0.1344
938.00 0.1344
938.10 0.1343
938.20 0.1343
938.30 0.1343
938.40 0.1342
938.50 0.1342
938.60 0.1341
938.70 0.1341
938.80 0.134
938.90 0.134
939.00 0.1339
939.10 0.1339
939.20 0.1339
939.30 0.1338
939.40 0.1338
939.50 0.1337
939.60 0.1337
939.70 0.1336
939.80 0.1336
939.90 0.1335
940.00 0.1335
940.10 0.1335
940.20 0.1334
940.30 0.1334
940.40 0.1333
940.50 0.1333
940.60 0.1332
940.70 0.1332
940.80 0.1331
940.90 0.1331
941.00 0.133
941.10 0.133
941.20 0.1329
941.30 0.1329
941.40 0.1328
941.50 0.1328
941.60 0.1327
941.70 0.1327
941.80 0.1327
941.90 0.1326
942.00 0.1326
942.10 0.1325
942.20 0.1325
942.30 0.1324
942.40 0.1324
942.50 0.1323
942.60 0.1323
942.70 0.1322
942.80 0.1322
942.90 0.1321
943.00 0.1321
943.10 0.132
943.20 0.132
943.30 0.1319
943.40 0.1319
943.50 0.1318
943.60 0.1317
943.70 0.1317
943.80 0.1316
943.90 0.1316
944.00 0.1315
944.10 0.1315
944.20 0.1314
944.30 0.1314
944.40 0.1313
944.50 0.1313
944.60 0.1312
944.70 0.1312
944.80 0.1311
944.90 0.1311
945.00 0.131
945.10 0.1309
945.20 0.1309
945.30 0.1308
945.40 0.1308
945.50 0.1307
945.60 0.1307
945.70 0.1306
945.80 0.1305
945.90 0.1305
946.00 0.1304
946.10 0.1303
946.20 0.1303
946.30 0.1302
946.40 0.1302
946.50 0.1301
946.60 0.13
946.70 0.13
946.80 0.1299
946.90 0.1299
947.00 0.1298
947.10 0.1297
947.20 0.1297
947.30 0.1296
947.40 0.1295
947.50 0.1294
947.60 0.1294
947.70 0.1293
947.80 0.1292
947.90 0.1292
948.00 0.1291
948.10 0.129
948.20 0.1289
948.30 0.1289
948.40 0.1288
948.50 0.1287
948.60 0.1286
948.70 0.1286
948.80 0.1285
948.90 0.1284
949.00 0.1283
949.10 0.1283
949.20 0.1282
949.30 0.1281
949.40 0.1281
949.50 0.128
949.60 0.1279
949.70 0.1278
949.80 0.1277
949.90 0.1277
950.00 0.1276
950.10 0.1275
950.20 0.1274
950.30 0.1273
950.40 0.1273
950.50 0.1272
950.60 0.1271
950.70 0.127
950.80 0.1269
950.90 0.1269
951.00 0.1268
951.10 0.1267
951.20 0.1266
951.30 0.1265
951.40 0.1265
951.50 0.1264
951.60 0.1263
951.70 0.1263
951.80 0.1262
951.90 0.1261
952.00 0.126
952.10 0.126
952.20 0.1259
952.30 0.1259
952.40 0.1258
952.50 0.1258
952.60 0.1257
952.70 0.1256
952.80 0.1256
952.90 0.1255
953.00 0.1255
953.10 0.1255
953.20 0.1255
953.30 0.1254
953.40 0.1254
953.50 0.1254
953.60 0.1254
953.70 0.1255
953.80 0.1256
953.90 0.1257
954.00 0.1258
954.10 0.1259
954.20 0.1259
954.30 0.1247
954.40 0.1234
954.50 0.1233
954.60 0.1231
954.70 0.1229
954.80 0.1228
954.90 0.1226
955.00 0.1224
955.10 0.1222
955.20 0.1221
955.30 0.1219
955.40 0.1218
955.50 0.1216
955.60 0.1215
955.70 0.1214
955.80 0.1212
955.90 0.1212
956.00 0.1211
956.10 0.121
956.20 0.121
956.30 0.1209
956.40 0.1209
956.50 0.1208
956.60 0.1207
956.70 0.1207
956.80 0.1206
956.90 0.1206
957.00 0.1205
957.10 0.1205
957.20 0.1205
957.30 0.1204
957.40 0.1204
957.50 0.1204
957.60 0.1204
957.70 0.1204
957.80 0.1204
957.90 0.1204
958.00 0.1204
958.10 0.1204
958.20 0.1204
958.30 0.1204
958.40 0.1204
958.50 0.1203
958.60 0.1203
958.70 0.1203
958.80 0.1203
958.90 0.1203
959.00 0.1203
959.10 0.1203
959.20 0.1203
959.30 0.1203
959.40 0.1203
959.50 0.1203
959.60 0.1203
959.70 0.1203
959.80 0.1203
959.90 0.1203
960.00 0.1203
960.10 0.1203
960.20 0.1203
960.30 0.1203
960.40 0.1203
960.50 0.1203
960.60 0.1203
960.70 0.1203
960.80 0.1203
960.90 0.1203
961.00 0.1203
961.10 0.1203
961.20 0.1203
961.30 0.1203
961.40 0.1203
961.50 0.1203
961.60 0.1203
961.70 0.1203
961.80 0.1203
961.90 0.1203
962.00 0.1203
962.10 0.1203
962.20 0.1203
962.30 0.1203
962.40 0.1203
962.50 0.1203
962.60 0.1203
962.70 0.1203
962.80 0.1203
962.90 0.1203
963.00 0.1203
963.10 0.1203
963.20 0.1203
963.30 0.1203
963.40 0.1203
963.50 0.1203
963.60 0.1203
963.70 0.1203
963.80 0.1203
963.90 0.1203
964.00 0.1203
964.10 0.1203
964.20 0.1203
964.30 0.1203
964.40 0.1203
964.50 0.1202
964.60 0.1202
964.70 0.1202
964.80 0.1202
964.90 0.1202
965.00 0.1202
965.10 0.1202
965.20 0.1202
965.30 0.1202
965.40 0.1202
965.50 0.1201
965.60 0.1201
965.70 0.1201
965.80 0.1201
965.90 0.1201
966.00 0.1201
966.10 0.1201
966.20 0.1201
966.30 0.1201
966.40 0.1201
966.50 0.12
966.60 0.12
966.70 0.12
966.80 0.12
966.90 0.12
967.00 0.12
967.10 0.12
967.20 0.1199
967.30 0.1199
967.40 0.1199
967.50 0.1199
967.60 0.1199
967.70 0.1199
967.80 0.1198
967.90 0.1198
968.00 0.1198
968.10 0.1198
968.20 0.1198
968.30 0.1197
968.40 0.1197
968.50 0.1197
968.60 0.1197
968.70 0.1197
968.80 0.1196
968.90 0.1196
969.00 0.1196
969.10 0.1196
969.20 0.1196
969.30 0.1195
969.40 0.1195
969.50 0.1195
969.60 0.1195
969.70 0.1194
969.80 0.1194
969.90 0.1194
970.00 0.1194
970.10 0.1194
970.20 0.1193
970.30 0.1193
970.40 0.1193
970.50 0.1193
970.60 0.1192
970.70 0.1192
970.80 0.1192
970.90 0.1192
971.00 0.1191
971.10 0.1191
971.20 0.1191
971.30 0.1191
971.40 0.119
971.50 0.119
971.60 0.119
971.70 0.1189
971.80 0.1189
971.90 0.1189
972.00 0.1189
972.10 0.1188
972.20 0.1188
972.30 0.1188
972.40 0.1187
972.50 0.1187
972.60 0.1187
972.70 0.1187
972.80 0.1186
972.90 0.1186
973.00 0.1186
973.10 0.1185
973.20 0.1185
973.30 0.1185
973.40 0.1184
973.50 0.1184
973.60 0.1184
973.70 0.1184
973.80 0.1183
973.90 0.1183
974.00 0.1183
974.10 0.1182
974.20 0.1182
974.30 0.1182
974.40 0.1181
974.50 0.1181
974.60 0.1181
974.70 0.118
974.80 0.118
974.90 0.118
975.00 0.1179
975.10 0.1179
975.20 0.1179
975.30 0.1178
975.40 0.1178
975.50 0.1178
975.60 0.1177
975.70 0.1177
975.80 0.1176
975.90 0.1176
976.00 0.1176
976.10 0.1175
976.20 0.1175
976.30 0.1175
976.40 0.1174
976.50 0.1174
976.60 0.1174
976.70 0.1173
976.80 0.1173
976.90 0.1173
977.00 0.1172
977.10 0.1172
977.20 0.1171
977.30 0.1171
977.40 0.1171
977.50 0.117
977.60 0.117
977.70 0.1169
977.80 0.1169
977.90 0.1169
978.00 0.1168
978.10 0.1168
978.20 0.1167
978.30 0.1167
978.40 0.1166
978.50 0.1166
978.60 0.1166
978.70 0.1165
978.80 0.1165
978.90 0.1164
979.00 0.1164
979.10 0.1164
979.20 0.1163
979.30 0.1163
979.40 0.1162
979.50 0.1162
979.60 0.1161
979.70 0.1161
979.80 0.1161
979.90 0.116
980.00 0.116
980.10 0.1159
980.20 0.1159
980.30 0.1159
980.40 0.1158
980.50 0.1158
980.60 0.1157
980.70 0.1157
980.80 0.1156
980.90 0.1156
981.00 0.1156
981.10 0.1155
981.20 0.1155
981.30 0.1154
981.40 0.1154
981.50 0.1154
981.60 0.1153
981.70 0.1153
981.80 0.1152
981.90 0.1152
982.00 0.1151
982.10 0.1151
982.20 0.1151
982.30 0.115
982.40 0.115
982.50 0.1149
982.60 0.1149
982.70 0.1148
982.80 0.1148
982.90 0.1147
983.00 0.1147
983.10 0.1146
983.20 0.1146
983.30 0.1145
983.40 0.1145
983.50 0.1144
983.60 0.1144
983.70 0.1143
983.80 0.1143
983.90 0.1142
984.00 0.1142
984.10 0.1141
984.20 0.1141
984.30 0.114
984.40 0.114
984.50 0.1139
984.60 0.1139
984.70 0.1138
984.80 0.1138
984.90 0.1137
985.00 0.1136
985.10 0.1136
985.20 0.1135
985.30 0.1135
985.40 0.1134
985.50 0.1134
985.60 0.1133
985.70 0.1132
985.80 0.1132
985.90 0.1131
986.00 0.1131
986.10 0.113
986.20 0.113
986.30 0.1129
986.40 0.1128
986.50 0.1128
986.60 0.1127
986.70 0.1127
986.80 0.1126
986.90 0.1126
987.00 0.1125
987.10 0.1124
987.20 0.1124
987.30 0.1123
987.40 0.1122
987.50 0.1122
987.60 0.1121
987.70 0.112
987.80 0.112
987.90 0.1119
988.00 0.1119
988.10 0.1118
988.20 0.1117
988.30 0.1117
988.40 0.1116
988.50 0.1115
988.60 0.1115
988.70 0.1114
988.80 0.1113
988.90 0.1112
989.00 0.1112
989.10 0.1111
989.20 0.111
989.30 0.111
989.40 0.1109
989.50 0.1108
989.60 0.1107
989.70 0.1107
989.80 0.1106
989.90 0.1105
990.00 0.1104
990.10 0.1104
990.20 0.1103
990.30 0.1102
990.40 0.1101
990.50 0.1101
990.60 0.11
990.70 0.1099
990.80 0.1098
990.90 0.1098
991.00 0.1097
991.10 0.1096
991.20 0.1095
991.30 0.1094
991.40 0.1093
991.50 0.1092
991.60 0.1092
991.70 0.1091
991.80 0.109
991.90 0.1089
992.00 0.1088
992.10 0.1087
992.20 0.1087
992.30 0.1086
992.40 0.1085
992.50 0.1084
992.60 0.1083
992.70 0.1082
992.80 0.1081
992.90 0.108
993.00 0.1079
993.10 0.1078
993.20 0.1077
993.30 0.1076
993.40 0.1075
993.50 0.1074
993.60 0.1073
993.70 0.1072
993.80 0.1071
993.90 0.107
994.00 0.1069
994.10 0.1068
994.20 0.1067
994.30 0.1066
994.40 0.1065
994.50 0.1064
994.60 0.1063
994.70 0.1062
994.80 0.1061
994.90 0.106
995.00 0.1059
995.10 0.1058
995.20 0.1057
995.30 0.1055
995.40 0.1054
995.50 0.1053
995.60 0.1052
995.70 0.1051
995.80 0.105
995.90 0.1049
996.00 0.1048
996.10 0.1046
996.20 0.1045
996.30 0.1044
996.40 0.1043
996.50 0.1042
996.60 0.1041
996.70 0.1039
996.80 0.1038
996.90 0.1037
997.00 0.1036
997.10 0.1035
997.20 0.1034
997.30 0.1032
997.40 0.1031
997.50 0.103
997.60 0.1029
997.70 0.1028
997.80 0.1026
997.90 0.1025
998.00 0.1024
998.10 0.1023
998.20 0.1022
998.30 0.102
998.40 0.1019
998.50 0.1018
998.60 0.1017
998.70 0.1016
998.80 0.1014
998.90 0.1013
999.00 0.1012
999.10 0.1011
999.20 0.1009
999.30 0.1008
999.40 0.1007
999.50 0.1006
999.60 0.1005
999.70 0.1004
999.80 0.1003
999.90 0.1002
1000.00 0.1001
1000.10 0.09995
1000.20 0.09984
1000.30 0.09974
1000.40 0.09964
1000.50 0.09953
1000.60 0.09943
1000.70 0.09933
1000.80 0.09922
1000.90 0.09912
1001.00 0.09902
1001.10 0.09892
1001.20 0.09881
1001.30 0.09871
1001.40 0.09861
1001.50 0.0985
1001.60 0.0984
1001.70 0.09832
1001.80 0.09824
1001.90 0.09817
1002.00 0.09809
1002.10 0.09808
1002.20 0.09808
1002.30 0.09807
1002.40 0.09806
1002.50 0.09805
1002.60 0.09805
1002.70 0.09804
1002.80 0.09803
1002.90 0.09803
1003.00 0.09802
1003.10 0.09801
1003.20 0.09808
1003.30 0.09818
1003.40 0.09827
1003.50 0.09837
1003.60 0.09846
1003.70 0.09856
1003.80 0.09865
1003.90 0.09884
1004.00 0.09905
1004.10 0.09927
1004.20 0.09949
1004.30 0.09969
1004.40 0.09989
1004.50 0.1001
1004.60 0.1002
1004.70 0.09675
1004.80 0.09656
1004.90 0.09633
1005.00 0.09609
1005.10 0.09584
1005.20 0.0956
1005.30 0.09535
1005.40 0.09511
1005.50 0.09495
1005.60 0.09481
1005.70 0.09468
1005.80 0.09454
1005.90 0.09441
1006.00 0.09428
1006.10 0.09414
1006.20 0.09404
1006.30 0.09394
1006.40 0.09385
1006.50 0.09375
1006.60 0.09366
1006.70 0.09356
1006.80 0.09347
1006.90 0.09337
1007.00 0.09328
1007.10 0.09323
1007.20 0.09319
1007.30 0.09315
1007.40 0.0931
1007.50 0.09306
1007.60 0.09301
1007.70 0.09301
1007.80 0.09301
1007.90 0.09301
1008.00 0.09302
1008.10 0.09302
1008.20 0.09303
1008.30 0.09303
1008.40 0.09304
1008.50 0.09304
1008.60 0.09305
1008.70 0.09305
1008.80 0.09305
1008.90 0.09306
1009.00 0.09306
1009.10 0.09307
1009.20 0.09307
1009.30 0.09308
1009.40 0.09308
1009.50 0.09308
1009.60 0.09309
1009.70 0.09311
1009.80 0.09314
1009.90 0.09317
1010.00 0.0932
1010.10 0.09323
1010.20 0.09326
1010.30 0.09329
1010.40 0.09331
1010.50 0.09334
1010.60 0.09337
1010.70 0.0934
1010.80 0.09343
1010.90 0.09346
1011.00 0.09349
1011.10 0.09352
1011.20 0.09355
1011.30 0.09357
1011.40 0.0936
1011.50 0.09363
1011.60 0.09366
1011.70 0.09369
1011.80 0.09373
1011.90 0.09376
1012.00 0.09379
1012.10 0.09382
1012.20 0.09385
1012.30 0.09389
1012.40 0.09392
1012.50 0.09395
1012.60 0.09398
1012.70 0.09401
1012.80 0.09404
1012.90 0.09407
1013.00 0.09411
1013.10 0.09414
1013.20 0.09417
1013.30 0.0942
1013.40 0.09423
1013.50 0.09426
1013.60 0.09429
1013.70 0.09432
1013.80 0.09435
1013.90 0.09438
1014.00 0.09441
1014.10 0.09444
1014.20 0.09446
1014.30 0.09449
1014.40 0.09452
1014.50 0.09455
1014.60 0.09458
1014.70 0.0946
1014.80 0.09462
1014.90 0.09465
1015.00 0.09467
1015.10 0.09469
1015.20 0.09472
1015.30 0.09474
1015.40 0.09476
1015.50 0.09479
1015.60 0.09481
1015.70 0.09483
1015.80 0.09486
1015.90 0.09488
1016.00 0.0949
1016.10 0.09493
1016.20 0.09495
1016.30 0.09497
1016.40 0.095
1016.50 0.09502
1016.60 0.09504
1016.70 0.09506
1016.80 0.09508
1016.90 0.0951
1017.00 0.09512
1017.10 0.09514
1017.20 0.09515
1017.30 0.09517
1017.40 0.09518
1017.50 0.0952
1017.60 0.09522
1017.70 0.09523
1017.80 0.09525
1017.90 0.09527
1018.00 0.09528
1018.10 0.0953
1018.20 0.09531
1018.30 0.09533
1018.40 0.09535
1018.50 0.09536
1018.60 0.09538
1018.70 0.09539
1018.80 0.0954
1018.90 0.09541
1019.00 0.09542
1019.10 0.09543
1019.20 0.09544
1019.30 0.09545
1019.40 0.09546
1019.50 0.09547
1019.60 0.09548
1019.70 0.09549
1019.80 0.09551
1019.90 0.09552
1020.00 0.09553
1020.10 0.09554
1020.20 0.09555
1020.30 0.09556
1020.40 0.09557
1020.50 0.09558
1020.60 0.09559
1020.70 0.0956
1020.80 0.0956
1020.90 0.09561
1021.00 0.09561
1021.10 0.09562
1021.20 0.09562
1021.30 0.09563
1021.40 0.09563
1021.50 0.09564
1021.60 0.09565
1021.70 0.09565
1021.80 0.09566
1021.90 0.09566
1022.00 0.09567
1022.10 0.09567
1022.20 0.09567
1022.30 0.09567
1022.40 0.09567
1022.50 0.09567
1022.60 0.09567
1022.70 0.09567
1022.80 0.09567
1022.90 0.09567
1023.00 0.09567
1023.10 0.09567
1023.20 0.09567
1023.30 0.09567
1023.40 0.09567
1023.50 0.09567
1023.60 0.09567
1023.70 0.09567
1023.80 0.09567
1023.90 0.09567
1024.00 0.09567
1024.10 0.09567
1024.20 0.09567
1024.30 0.09567
1024.40 0.09567
1024.50 0.09567
1024.60 0.09567
1024.70 0.09567
1024.80 0.09567
1024.90 0.09566
1025.00 0.09566
1025.10 0.09565
1025.20 0.09565
1025.30 0.09564
1025.40 0.09563
1025.50 0.09563
1025.60 0.09562
1025.70 0.09562
1025.80 0.09561
1025.90 0.09561
1026.00 0.0956
1026.10 0.0956
1026.20 0.09559
1026.30 0.09559
1026.40 0.09558
1026.50 0.09558
1026.60 0.09557
1026.70 0.09557
1026.80 0.09556
1026.90 0.09556
1027.00 0.09555
1027.10 0.09554
1027.20 0.09553
1027.30 0.09552
1027.40 0.0955
1027.50 0.09549
1027.60 0.09548
1027.70 0.09547
1027.80 0.09546
1027.90 0.09544
1028.00 0.09543
1028.10 0.09542
1028.20 0.09541
1028.30 0.0954
1028.40 0.09538
1028.50 0.09537
1028.60 0.09536
1028.70 0.09535
1028.80 0.09534
1028.90 0.09532
1029.00 0.09531
1029.10 0.0953
1029.20 0.09529
1029.30 0.09528
1029.40 0.09526
1029.50 0.09525
1029.60 0.09524
1029.70 0.09523
1029.80 0.09522
1029.90 0.0952
1030.00 0.09519
1030.10 0.09518
1030.20 0.09517
1030.30 0.09516
1030.40 0.09514
1030.50 0.09513
1030.60 0.09512
1030.70 0.09511
1030.80 0.0951
1030.90 0.09508
1031.00 0.09507
1031.10 0.09506
1031.20 0.09505
1031.30 0.09504
1031.40 0.09502
1031.50 0.09501
1031.60 0.095
1031.70 0.09499
1031.80 0.09498
1031.90 0.09496
1032.00 0.09495
1032.10 0.09493
1032.20 0.09491
1032.30 0.09489
1032.40 0.09487
1032.50 0.09486
1032.60 0.09484
1032.70 0.09482
1032.80 0.0948
1032.90 0.09478
1033.00 0.09476
1033.10 0.09474
1033.20 0.09472
1033.30 0.0947
1033.40 0.09468
1033.50 0.09466
1033.60 0.09464
1033.70 0.09462
1033.80 0.0946
1033.90 0.09458
1034.00 0.09456
1034.10 0.09455
1034.20 0.09453
1034.30 0.09451
1034.40 0.09449
1034.50 0.09447
1034.60 0.09445
1034.70 0.09443
1034.80 0.09441
1034.90 0.09439
1035.00 0.09437
1035.10 0.09435
1035.20 0.09433
1035.30 0.09431
1035.40 0.09429
1035.50 0.09428
1035.60 0.09426
1035.70 0.09424
1035.80 0.09422
1035.90 0.0942
1036.00 0.09418
1036.10 0.09416
1036.20 0.09414
1036.30 0.09412
1036.40 0.0941
1036.50 0.09408
1036.60 0.09406
1036.70 0.09405
1036.80 0.09403
1036.90 0.09401
1037.00 0.09399
1037.10 0.09396
1037.20 0.09394
1037.30 0.09391
1037.40 0.09389
1037.50 0.09386
1037.60 0.09384
1037.70 0.09381
1037.80 0.09379
1037.90 0.09376
1038.00 0.09374
1038.10 0.09371
1038.20 0.09369
1038.30 0.09366
1038.40 0.09364
1038.50 0.09361
1038.60 0.09359
1038.70 0.09357
1038.80 0.09354
1038.90 0.09352
1039.00 0.09349
1039.10 0.09347
1039.20 0.09344
1039.30 0.09342
1039.40 0.09339
1039.50 0.09337
1039.60 0.09334
1039.70 0.09332
1039.80 0.09329
1039.90 0.09327
1040.00 0.09324
1040.10 0.09322
1040.20 0.09319
1040.30 0.09317
1040.40 0.09314
1040.50 0.09312
1040.60 0.0931
1040.70 0.09307
1040.80 0.09305
1040.90 0.09302
1041.00 0.093
1041.10 0.09297
1041.20 0.09295
1041.30 0.09292
1041.40 0.0929
1041.50 0.09287
1041.60 0.09285
1041.70 0.09283
1041.80 0.0928
1041.90 0.09278
1042.00 0.09275
1042.10 0.09272
1042.20 0.09269
1042.30 0.09266
1042.40 0.09263
1042.50 0.0926
1042.60 0.09257
1042.70 0.09254
1042.80 0.09252
1042.90 0.09249
1043.00 0.09246
1043.10 0.09243
1043.20 0.0924
1043.30 0.09237
1043.40 0.09234
1043.50 0.09231
1043.60 0.09228
1043.70 0.09225
1043.80 0.09222
1043.90 0.09219
1044.00 0.09216
1044.10 0.09213
1044.20 0.0921
1044.30 0.09207
1044.40 0.09204
1044.50 0.09201
1044.60 0.09199
1044.70 0.09196
1044.80 0.09193
1044.90 0.0919
1045.00 0.09187
1045.10 0.09184
1045.20 0.09181
1045.30 0.09178
1045.40 0.09175
1045.50 0.09172
1045.60 0.09169
1045.70 0.09166
1045.80 0.09163
1045.90 0.0916
1046.00 0.09158
1046.10 0.09155
1046.20 0.09152
1046.30 0.09149
1046.40 0.09146
1046.50 0.09143
1046.60 0.0914
1046.70 0.09137
1046.80 0.09134
1046.90 0.09131
1047.00 0.09128
1047.10 0.09125
1047.20 0.09122
1047.30 0.09118
1047.40 0.09115
1047.50 0.09112
1047.60 0.09108
1047.70 0.09105
1047.80 0.09102
1047.90 0.09098
1048.00 0.09095
1048.10 0.09091
1048.20 0.09088
1048.30 0.09085
1048.40 0.09081
1048.50 0.09078
1048.60 0.09075
1048.70 0.09071
1048.80 0.09068
1048.90 0.09065
1049.00 0.09061
1049.10 0.09058
1049.20 0.09055
1049.30 0.09051
1049.40 0.09048
1049.50 0.09045
1049.60 0.09041
1049.70 0.09038
1049.80 0.09035
1049.90 0.09031
1050.00 0.09028
1050.10 0.09025
1050.20 0.09021
1050.30 0.09018
1050.40 0.09015
1050.50 0.09011
1050.60 0.09008
1050.70 0.09005
1050.80 0.09001
1050.90 0.08998
1051.00 0.08995
1051.10 0.08991
1051.20 0.08988
1051.30 0.08985
1051.40 0.08981
1051.50 0.08978
1051.60 0.08975
1051.70 0.08971
1051.80 0.08968
1051.90 0.08965
1052.00 0.08961
1052.10 0.08958
1052.20 0.08954
1052.30 0.0895
1052.40 0.08946
1052.50 0.08942
1052.60 0.08939
1052.70 0.08935
1052.80 0.08931
1052.90 0.08927
1053.00 0.08923
1053.10 0.0892
1053.20 0.08916
1053.30 0.08912
1053.40 0.08908
1053.50 0.08905
1053.60 0.08901
1053.70 0.08897
1053.80 0.08893
1053.90 0.08889
1054.00 0.08886
1054.10 0.08882
1054.20 0.08878
1054.30 0.08874
1054.40 0.08871
1054.50 0.08867
1054.60 0.08863
1054.70 0.08859
1054.80 0.08855
1054.90 0.08852
1055.00 0.08848
1055.10 0.08844
1055.20 0.0884
1055.30 0.08837
1055.40 0.08833
1055.50 0.08829
1055.60 0.08825
1055.70 0.08822
1055.80 0.08818
1055.90 0.08814
1056.00 0.0881
1056.10 0.08807
1056.20 0.08803
1056.30 0.08799
1056.40 0.08795
1056.50 0.08791
1056.60 0.08788
1056.70 0.08784
1056.80 0.0878
1056.90 0.08777
1057.00 0.08773
1057.10 0.08768
1057.20 0.08764
1057.30 0.0876
1057.40 0.08756
1057.50 0.08751
1057.60 0.08747
1057.70 0.08743
1057.80 0.08739
1057.90 0.08734
1058.00 0.0873
1058.10 0.08726
1058.20 0.08721
1058.30 0.08717
1058.40 0.08713
1058.50 0.08709
1058.60 0.08704
1058.70 0.087
1058.80 0.08696
1058.90 0.08692
1059.00 0.08687
1059.10 0.08683
1059.20 0.08679
1059.30 0.08675
1059.40 0.0867
1059.50 0.08666
1059.60 0.08662
1059.70 0.08658
1059.80 0.08653
1059.90 0.08649
1060.00 0.08645
1060.10 0.08641
1060.20 0.08636
1060.30 0.08632
1060.40 0.08628
1060.50 0.08624
1060.60 0.08619
1060.70 0.08615
1060.80 0.08611
1060.90 0.08607
1061.00 0.08602
1061.10 0.08598
1061.20 0.08594
1061.30 0.0859
1061.40 0.08586
1061.50 0.08581
1061.60 0.08577
1061.70 0.08573
1061.80 0.08569
1061.90 0.08564
1062.00 0.0856
1062.10 0.08555
1062.20 0.0855
1062.30 0.08546
1062.40 0.08541
1062.50 0.08536
1062.60 0.08531
1062.70 0.08526
1062.80 0.08521
1062.90 0.08516
1063.00 0.08511
1063.10 0.08507
1063.20 0.08502
1063.30 0.08497
1063.40 0.08492
1063.50 0.08487
1063.60 0.08482
1063.70 0.08477
1063.80 0.08473
1063.90 0.08468
1064.00 0.08463
1064.10 0.08458
1064.20 0.08453
1064.30 0.08448
1064.40 0.08443
1064.50 0.08439
1064.60 0.08434
1064.70 0.08429
1064.80 0.08424
1064.90 0.08419
1065.00 0.08414
1065.10 0.08409
1065.20 0.08405
1065.30 0.084
1065.40 0.08395
1065.50 0.0839
1065.60 0.08385
1065.70 0.0838
1065.80 0.08376
1065.90 0.08371
1066.00 0.08366
1066.10 0.08361
1066.20 0.08356
1066.30 0.08352
1066.40 0.08347
1066.50 0.08342
1066.60 0.08337
1066.70 0.08332
1066.80 0.08327
1066.90 0.08323
1067.00 0.08318
1067.10 0.08312
1067.20 0.08307
1067.30 0.08301
1067.40 0.08295
1067.50 0.0829
1067.60 0.08284
1067.70 0.08278
1067.80 0.08273
1067.90 0.08267
1068.00 0.08261
1068.10 0.08256
1068.20 0.0825
1068.30 0.08245
1068.40 0.08239
1068.50 0.08233
1068.60 0.08228
1068.70 0.08222
1068.80 0.08216
1068.90 0.08211
1069.00 0.08205
1069.10 0.082
1069.20 0.08194
1069.30 0.08188
1069.40 0.08183
1069.50 0.08177
1069.60 0.08172
1069.70 0.08166
1069.80 0.0816
1069.90 0.08155
1070.00 0.08149
1070.10 0.08144
1070.20 0.08138
1070.30 0.08132
1070.40 0.08127
1070.50 0.08121
1070.60 0.08116
1070.70 0.0811
1070.80 0.08105
1070.90 0.08099
1071.00 0.08093
1071.10 0.08088
1071.20 0.08082
1071.30 0.08077
1071.40 0.08071
1071.50 0.08066
1071.60 0.0806
1071.70 0.08054
1071.80 0.08049
1071.90 0.08043
1072.00 0.08038
1072.10 0.08032
1072.20 0.08025
1072.30 0.08019
1072.40 0.08013
1072.50 0.08007
1072.60 0.08001
1072.70 0.07994
1072.80 0.07988
1072.90 0.07982
1073.00 0.07976
1073.10 0.0797
1073.20 0.07963
1073.30 0.07957
1073.40 0.07951
1073.50 0.07945
1073.60 0.07938
1073.70 0.07931
1073.80 0.07924
1073.90 0.07918
1074.00 0.07911
1074.10 0.07904
1074.20 0.07897
1074.30 0.0789
1074.40 0.07884
1074.50 0.07877
1074.60 0.0787
1074.70 0.07863
1074.80 0.07857
1074.90 0.0785
1075.00 0.07843
1075.10 0.07836
1075.20 0.0783
1075.30 0.07823
1075.40 0.07816
1075.50 0.07809
1075.60 0.07803
1075.70 0.07796
1075.80 0.07789
1075.90 0.07782
1076.00 0.07776
1076.10 0.07769
1076.20 0.07762
1076.30 0.07755
1076.40 0.07749
1076.50 0.07742
1076.60 0.07735
1076.70 0.07729
1076.80 0.07722
1076.90 0.07715
1077.00 0.07708
1077.10 0.07701
1077.20 0.07694
1077.30 0.07687
1077.40 0.0768
1077.50 0.07672
1077.60 0.07665
1077.70 0.07657
1077.80 0.07649
1077.90 0.07642
1078.00 0.07634
1078.10 0.07627
1078.20 0.07619
1078.30 0.07611
1078.40 0.07604
1078.50 0.07596
1078.60 0.07589
1078.70 0.07581
1078.80 0.07574
1078.90 0.07566
1079.00 0.07558
1079.10 0.07551
1079.20 0.07543
1079.30 0.07536
1079.40 0.07528
1079.50 0.0752
1079.60 0.07512
1079.70 0.07504
1079.80 0.07496
1079.90 0.07488
1080.00 0.07479
1080.10 0.07471
1080.20 0.07463
1080.30 0.07455
1080.40 0.07447
1080.50 0.07438
1080.60 0.0743
1080.70 0.07422
1080.80 0.07414
1080.90 0.07406
1081.00 0.07398
1081.10 0.07389
1081.20 0.07381
1081.30 0.07373
1081.40 0.07365
1081.50 0.07357
1081.60 0.07348
1081.70 0.07339
1081.80 0.07331
1081.90 0.07322
1082.00 0.07314
1082.10 0.07305
1082.20 0.07296
1082.30 0.07287
1082.40 0.07278
1082.50 0.07269
1082.60 0.0726
1082.70 0.07251
1082.80 0.07242
1082.90 0.07233
1083.00 0.07224
1083.10 0.07215
1083.20 0.07206
1083.30 0.07198
1083.40 0.07189
1083.50 0.0718
1083.60 0.0717
1083.70 0.07161
1083.80 0.07151
1083.90 0.07142
1084.00 0.07133
1084.10 0.07123
1084.20 0.07114
1084.30 0.07105
1084.40 0.07095
1084.50 0.07086
1084.60 0.07076
1084.70 0.07066
1084.80 0.07056
1084.90 0.07046
1085.00 0.07036
1085.10 0.07027
1085.20 0.07017
1085.30 0.07007
1085.40 0.06997
1085.50 0.06987
1085.60 0.06977
1085.70 0.06967
1085.80 0.06958
1085.90 0.06948
1086.00 0.06938
1086.10 0.06928
1086.20 0.06918
1086.30 0.06908
1086.40 0.06899
1086.50 0.06889
1086.60 0.06879
1086.70 0.06868
1086.80 0.06858
1086.90 0.06848
1087.00 0.06838
1087.10 0.06828
1087.20 0.06817
1087.30 0.06807
1087.40 0.06797
1087.50 0.06787
1087.60 0.06776
1087.70 0.06766
1087.80 0.06756
1087.90 0.06746
1088.00 0.06736
1088.10 0.06725
1088.20 0.06715
1088.30 0.06705
1088.40 0.06695
1088.50 0.06685
1088.60 0.06675
1088.70 0.06666
1088.80 0.06657
1088.90 0.06647
1089.00 0.06638
1089.10 0.06628
1089.20 0.06619
1089.30 0.0661
1089.40 0.066
1089.50 0.06591
1089.60 0.06581
1089.70 0.06572
1089.80 0.06563
1089.90 0.06553
1090.00 0.06544
1090.10 0.06535
1090.20 0.06525
1090.30 0.06516
1090.40 0.06507
1090.50 0.06499
1090.60 0.06494
1090.70 0.06489
1090.80 0.06485
1090.90 0.0648
1091.00 0.06476
1091.10 0.06471
1091.20 0.06466
1091.30 0.06462
1091.40 0.06457
1091.50 0.06453
1091.60 0.06448
1091.70 0.06443
1091.80 0.06439
1091.90 0.06434
1092.00 0.0643
1092.10 0.06435
1092.20 0.06441
1092.30 0.06446
1092.40 0.06452
1092.50 0.06458
1092.60 0.06463
1092.70 0.06471
1092.80 0.06482
1092.90 0.06493
1093.00 0.06504
1093.10 0.06517
1093.20 0.06536
1093.30 0.06555
1093.40 0.0657
1093.50 0.06574
1093.60 0.06558
1093.70 0.06535
1093.80 0.06512
1093.90 0.06492
1094.00 0.06477
1094.10 0.06462
1094.20 0.06447
1094.30 0.06434
1094.40 0.06425
1094.50 0.06416
1094.60 0.06407
1094.70 0.06398
1094.80 0.06389
1094.90 0.0638
1095.00 0.06374
1095.10 0.06375
1095.20 0.06376
1095.30 0.06376
1095.40 0.06377
1095.50 0.06377
1095.60 0.06378
1095.70 0.06379
1095.80 0.06379
1095.90 0.0638
1096.00 0.06381
1096.10 0.06381
1096.20 0.06382
1096.30 0.06382
1096.40 0.06383
1096.50 0.06385
1096.60 0.0639
1096.70 0.06395
1096.80 0.06399
1096.90 0.06404
1097.00 0.06409
1097.10 0.06414
1097.20 0.06419
1097.30 0.06425
1097.40 0.0643
1097.50 0.06435
1097.60 0.0644
1097.70 0.06445
1097.80 0.06451
1097.90 0.06456
1098.00 0.06461
1098.10 0.06466
1098.20 0.06471
1098.30 0.06477
1098.40 0.06482
1098.50 0.06487
1098.60 0.06493
1098.70 0.06498
1098.80 0.06504
1098.90 0.0651
1099.00 0.06515
1099.10 0.06521
1099.20 0.06527
1099.30 0.06532
1099.40 0.06538
1099.50 0.06544
1099.60 0.06549
1099.70 0.06555
1099.80 0.06561
1099.90 0.06566
1100.00 0.06572
1100.10 0.06578
1100.20 0.06583
1100.30 0.06589
1100.40 0.06594
1100.50 0.066
1100.60 0.06605
1100.70 0.0661
1100.80 0.06615
1100.90 0.06621
1101.00 0.06626
1101.10 0.06631
1101.20 0.06636
1101.30 0.06641
1101.40 0.06646
1101.50 0.06652
1101.60 0.06657
1101.70 0.06662
1101.80 0.06667
1101.90 0.06672
1102.00 0.06677
1102.10 0.06682
1102.20 0.06687
1102.30 0.06692
1102.40 0.06696
1102.50 0.06701
1102.60 0.06706
1102.70 0.0671
1102.80 0.06714
1102.90 0.06719
1103.00 0.06723
1103.10 0.06728
1103.20 0.06732
1103.30 0.06737
1103.40 0.06741
1103.50 0.06745
1103.60 0.06749
1103.70 0.06753
1103.80 0.06757
1103.90 0.06761
1104.00 0.06765
1104.10 0.06769
1104.20 0.06772
1104.30 0.06776
1104.40 0.0678
1104.50 0.06784
1104.60 0.06788
1104.70 0.06792
1104.80 0.06795
1104.90 0.06799
1105.00 0.06803
1105.10 0.06807
1105.20 0.06811
1105.30 0.06815
1105.40 0.06818
1105.50 0.06822
1105.60 0.06825
1105.70 0.06828
1105.80 0.06831
1105.90 0.06835
1106.00 0.06838
1106.10 0.06841
1106.20 0.06844
1106.30 0.06847
1106.40 0.0685
1106.50 0.06854
1106.60 0.06857
1106.70 0.0686
1106.80 0.06863
1106.90 0.06866
1107.00 0.06869
1107.10 0.06872
1107.20 0.06875
1107.30 0.06878
1107.40 0.0688
1107.50 0.06883
1107.60 0.06885
1107.70 0.06888
1107.80 0.0689
1107.90 0.06893
1108.00 0.06895
1108.10 0.06897
1108.20 0.069
1108.30 0.06902
1108.40 0.06905
1108.50 0.06907
1108.60 0.06909
1108.70 0.06912
1108.80 0.06914
1108.90 0.06916
1109.00 0.06919
1109.10 0.06921
1109.20 0.06924
1109.30 0.06926
1109.40 0.06928
1109.50 0.06931
1109.60 0.06932
1109.70 0.06934
1109.80 0.06936
1109.90 0.06938
1110.00 0.06939
1110.10 0.06941
1110.20 0.06943
1110.30 0.06945
1110.40 0.06946
1110.50 0.06948
1110.60 0.0695
1110.70 0.06951
1110.80 0.06953
1110.90 0.06955
1111.00 0.06957
1111.10 0.06958
1111.20 0.0696
1111.30 0.06962
1111.40 0.06964
1111.50 0.06965
1111.60 0.06967
1111.70 0.06969
1111.80 0.06971
1111.90 0.06972
1112.00 0.06974
1112.10 0.06975
1112.20 0.06976
1112.30 0.06978
1112.40 0.06979
1112.50 0.0698
1112.60 0.06981
1112.70 0.06982
1112.80 0.06984
1112.90 0.06985
1113.00 0.06986
1113.10 0.06987
1113.20 0.06988
1113.30 0.0699
1113.40 0.06991
1113.50 0.06992
1113.60 0.06993
1113.70 0.06993
1113.80 0.06994
1113.90 0.06995
1114.00 0.06995
1114.10 0.06996
1114.20 0.06997
1114.30 0.06998
1114.40 0.06998
1114.50 0.06999
1114.60 0.07
1114.70 0.07
1114.80 0.07001
1114.90 0.07002
1115.00 0.07002
1115.10 0.07003
1115.20 0.07004
1115.30 0.07004
1115.40 0.07005
1115.50 0.07006
1115.60 0.07006
1115.70 0.07007
1115.80 0.07008
1115.90 0.07009
1116.00 0.07009
1116.10 0.0701
1116.20 0.07011
1116.30 0.07011
1116.40 0.07012
1116.50 0.07013
1116.60 0.07013
1116.70 0.07014
1116.80 0.07015
1116.90 0.07015
1117.00 0.07016
1117.10 0.07016
1117.20 0.07016
1117.30 0.07016
1117.40 0.07016
1117.50 0.07016
1117.60 0.07016
1117.70 0.07016
1117.80 0.07016
1117.90 0.07016
1118.00 0.07016
1118.10 0.07016
1118.20 0.07016
1118.30 0.07016
1118.40 0.07016
1118.50 0.07016
1118.60 0.07016
1118.70 0.07016
1118.80 0.07016
1118.90 0.07016
1119.00 0.07016
1119.10 0.07016
1119.20 0.07015
1119.30 0.07015
1119.40 0.07015
1119.50 0.07015
1119.60 0.07015
1119.70 0.07015
1119.80 0.07015
1119.90 0.07015
1120.00 0.07015
1120.10 0.07015
1120.20 0.07015
1120.30 0.07015
1120.40 0.07015
1120.50 0.07015
1120.60 0.07015
1120.70 0.07015
1120.80 0.07015
1120.90 0.07015
1121.00 0.07015
1121.10 0.07015
1121.20 0.07015
1121.30 0.07015
1121.40 0.07015
1121.50 0.07015
1121.60 0.07015
1121.70 0.07015
1121.80 0.07015
1121.90 0.07015
1122.00 0.07015
1122.10 0.07014
1122.20 0.07013
1122.30 0.07013
1122.40 0.07012
1122.50 0.07011
1122.60 0.07011
1122.70 0.0701
1122.80 0.07009
1122.90 0.07009
1123.00 0.07008
1123.10 0.07008
1123.20 0.07007
1123.30 0.07006
1123.40 0.07006
1123.50 0.07005
1123.60 0.07004
1123.70 0.07004
1123.80 0.07003
1123.90 0.07002
1124.00 0.07002
1124.10 0.07001
1124.20 0.07
1124.30 0.07
1124.40 0.06999
1124.50 0.06998
1124.60 0.06998
1124.70 0.06997
1124.80 0.06997
1124.90 0.06996
1125.00 0.06995
1125.10 0.06995
1125.20 0.06994
1125.30 0.06993
1125.40 0.06993
1125.50 0.06992
1125.60 0.06991
1125.70 0.06991
1125.80 0.0699
1125.90 0.06989
1126.00 0.06989
1126.10 0.06988
1126.20 0.06988
1126.30 0.06987
1126.40 0.06986
1126.50 0.06986
1126.60 0.06985
1126.70 0.06984
1126.80 0.06984
1126.90 0.06983
1127.00 0.06982
1127.10 0.06981
1127.20 0.0698
1127.30 0.06979
1127.40 0.06978
1127.50 0.06977
1127.60 0.06976
1127.70 0.06975
1127.80 0.06974
1127.90 0.06973
1128.00 0.06972
1128.10 0.06971
1128.20 0.0697
1128.30 0.06968
1128.40 0.06967
1128.50 0.06966
1128.60 0.06965
1128.70 0.06964
1128.80 0.06963
1128.90 0.06962
1129.00 0.06961
1129.10 0.0696
1129.20 0.06959
1129.30 0.06958
1129.40 0.06957
1129.50 0.06956
1129.60 0.06955
1129.70 0.06953
1129.80 0.06952
1129.90 0.06951
1130.00 0.0695
1130.10 0.06949
1130.20 0.06948
1130.30 0.06947
1130.40 0.06946
1130.50 0.06945
1130.60 0.06944
1130.70 0.06943
1130.80 0.06942
1130.90 0.06941
1131.00 0.0694
1131.10 0.06939
1131.20 0.06937
1131.30 0.06936
1131.40 0.06935
1131.50 0.06934
1131.60 0.06933
1131.70 0.06932
1131.80 0.06931
1131.90 0.0693
1132.00 0.06929
1132.10 0.06928
1132.20 0.06926
1132.30 0.06925
1132.40 0.06923
1132.50 0.06922
1132.60 0.06921
1132.70 0.06919
1132.80 0.06918
1132.90 0.06917
1133.00 0.06915
1133.10 0.06914
1133.20 0.06913
1133.30 0.06911
1133.40 0.0691
1133.50 0.06908
1133.60 0.06907
1133.70 0.06906
1133.80 0.06904
1133.90 0.06903
1134.00 0.06902
1134.10 0.069
1134.20 0.06899
1134.30 0.06898
1134.40 0.06896
1134.50 0.06895
1134.60 0.06893
1134.70 0.06892
1134.80 0.06891
1134.90 0.06889
1135.00 0.06888
1135.10 0.06887
1135.20 0.06885
1135.30 0.06884
1135.40 0.06883
1135.50 0.06881
1135.60 0.0688
1135.70 0.06879
1135.80 0.06877
1135.90 0.06876
1136.00 0.06874
1136.10 0.06873
1136.20 0.06872
1136.30 0.0687
1136.40 0.06869
1136.50 0.06868
1136.60 0.06866
1136.70 0.06865
1136.80 0.06864
1136.90 0.06862
1137.00 0.06861
1137.10 0.06859
1137.20 0.06858
1137.30 0.06856
1137.40 0.06855
1137.50 0.06853
1137.60 0.06852
1137.70 0.0685
1137.80 0.06848
1137.90 0.06847
1138.00 0.06845
1138.10 0.06844
1138.20 0.06842
1138.30 0.0684
1138.40 0.06839
1138.50 0.06837
1138.60 0.06836
1138.70 0.06834
1138.80 0.06833
1138.90 0.06831
1139.00 0.06829
1139.10 0.06828
1139.20 0.06826
1139.30 0.06825
1139.40 0.06823
1139.50 0.06822
1139.60 0.0682
1139.70 0.06818
1139.80 0.06817
1139.90 0.06815
1140.00 0.06814
1140.10 0.06812
1140.20 0.06811
1140.30 0.06809
1140.40 0.06808
1140.50 0.06806
1140.60 0.06804
1140.70 0.06803
1140.80 0.06801
1140.90 0.068
1141.00 0.06798
1141.10 0.06797
1141.20 0.06795
1141.30 0.06793
1141.40 0.06792
1141.50 0.0679
1141.60 0.06789
1141.70 0.06787
1141.80 0.06786
1141.90 0.06784
1142.00 0.06783
1142.10 0.06781
1142.20 0.06779
1142.30 0.06777
1142.40 0.06776
1142.50 0.06774
1142.60 0.06772
1142.70 0.06771
1142.80 0.06769
1142.90 0.06767
1143.00 0.06766
1143.10 0.06764
1143.20 0.06762
1143.30 0.0676
1143.40 0.06759
1143.50 0.06757
1143.60 0.06755
1143.70 0.06754
1143.80 0.06752
1143.90 0.0675
1144.00 0.06749
1144.10 0.06747
1144.20 0.06745
1144.30 0.06744
1144.40 0.06742
1144.50 0.0674
1144.60 0.06738
1144.70 0.06737
1144.80 0.06735
1144.90 0.06733
1145.00 0.06732
1145.10 0.0673
1145.20 0.06728
1145.30 0.06727
1145.40 0.06725
1145.50 0.06723
1145.60 0.06722
1145.70 0.0672
1145.80 0.06718
1145.90 0.06717
1146.00 0.06715
1146.10 0.06713
1146.20 0.06711
1146.30 0.0671
1146.40 0.06708
1146.50 0.06706
1146.60 0.06705
1146.70 0.06703
1146.80 0.06701
1146.90 0.067
1147.00 0.06698
1147.10 0.06696
1147.20 0.06694
1147.30 0.06693
1147.40 0.06691
1147.50 0.06689
1147.60 0.06687
1147.70 0.06685
1147.80 0.06684
1147.90 0.06682
1148.00 0.0668
1148.10 0.06678
1148.20 0.06676
1148.30 0.06675
1148.40 0.06673
1148.50 0.06671
1148.60 0.06669
1148.70 0.06668
1148.80 0.06666
1148.90 0.06664
1149.00 0.06662
1149.10 0.0666
1149.20 0.06659
1149.30 0.06657
1149.40 0.06655
1149.50 0.06653
1149.60 0.06651
1149.70 0.0665
1149.80 0.06648
1149.90 0.06646
1150.00 0.06644
1150.10 0.06642
1150.20 0.06641
1150.30 0.06639
1150.40 0.06637
1150.50 0.06635
1150.60 0.06634
1150.70 0.06632
1150.80 0.0663
1150.90 0.06628
1151.00 0.06626
1151.10 0.06625
1151.20 0.06623
1151.30 0.06621
1151.40 0.06619
1151.50 0.06618
1151.60 0.06616
1151.70 0.06614
1151.80 0.06612
1151.90 0.0661
1152.00 0.06609
1152.10 0.06607
1152.20 0.06605
1152.30 0.06603
1152.40 0.06601
1152.50 0.06599
1152.60 0.06598
1152.70 0.06596
1152.80 0.06594
1152.90 0.06592
1153.00 0.0659
1153.10 0.06588
1153.20 0.06586
1153.30 0.06585
1153.40 0.06583
1153.50 0.06581
1153.60 0.06579
1153.70 0.06577
1153.80 0.06575
1153.90 0.06574
1154.00 0.06572
1154.10 0.0657
1154.20 0.06568
1154.30 0.06566
1154.40 0.06564
1154.50 0.06563
1154.60 0.06561
1154.70 0.06559
1154.80 0.06557
1154.90 0.06555
1155.00 0.06553
1155.10 0.06551
1155.20 0.0655
1155.30 0.06548
1155.40 0.06546
1155.50 0.06544
1155.60 0.06542
1155.70 0.0654
1155.80 0.06539
1155.90 0.06537
1156.00 0.06535
1156.10 0.06533
1156.20 0.06531
1156.30 0.06529
1156.40 0.06528
1156.50 0.06526
1156.60 0.06524
1156.70 0.06522
1156.80 0.0652
1156.90 0.06518
1157.00 0.06517
1157.10 0.06515
1157.20 0.06513
1157.30 0.06511
1157.40 0.06509
1157.50 0.06507
1157.60 0.06505
1157.70 0.06504
1157.80 0.06502
1157.90 0.065
1158.00 0.06498
1158.10 0.06496
1158.20 0.06494
1158.30 0.06492
1158.40 0.0649
1158.50 0.06489
1158.60 0.06487
1158.70 0.06485
1158.80 0.06483
1158.90 0.06481
1159.00 0.06479
1159.10 0.06477
1159.20 0.06475
1159.30 0.06474
1159.40 0.06472
1159.50 0.0647
1159.60 0.06468
1159.70 0.06466
1159.80 0.06464
1159.90 0.06462
1160.00 0.06461
1160.10 0.06459
1160.20 0.06457
1160.30 0.06455
1160.40 0.06453
1160.50 0.06451
1160.60 0.06449
1160.70 0.06448
1160.80 0.06446
1160.90 0.06444
1161.00 0.06442
1161.10 0.0644
1161.20 0.06438
1161.30 0.06436
1161.40 0.06435
1161.50 0.06433
1161.60 0.06431
1161.70 0.06429
1161.80 0.06427
1161.90 0.06425
1162.00 0.06423
1162.10 0.06422
1162.20 0.0642
1162.30 0.06418
1162.40 0.06416
1162.50 0.06414
1162.60 0.06412
1162.70 0.0641
1162.80 0.06408
1162.90 0.06406
1163.00 0.06404
1163.10 0.06403
1163.20 0.06401
1163.30 0.06399
1163.40 0.06397
1163.50 0.06395
1163.60 0.06393
1163.70 0.06391
1163.80 0.06389
1163.90 0.06387
1164.00 0.06386
1164.10 0.06384
1164.20 0.06382
1164.30 0.0638
1164.40 0.06378
1164.50 0.06376
1164.60 0.06374
1164.70 0.06372
1164.80 0.0637
1164.90 0.06369
1165.00 0.06367
1165.10 0.06365
1165.20 0.06363
1165.30 0.06361
1165.40 0.06359
1165.50 0.06357
1165.60 0.06355
1165.70 0.06353
1165.80 0.06352
1165.90 0.0635
1166.00 0.06348
1166.10 0.06346
1166.20 0.06344
1166.30 0.06342
1166.40 0.0634
1166.50 0.06338
1166.60 0.06337
1166.70 0.06335
1166.80 0.06333
1166.90 0.06331
1167.00 0.06329
1167.10 0.06327
1167.20 0.06325
1167.30 0.06323
1167.40 0.06321
1167.50 0.06319
1167.60 0.06318
1167.70 0.06316
1167.80 0.06314
1167.90 0.06312
1168.00 0.0631
1168.10 0.06308
1168.20 0.06306
1168.30 0.06304
1168.40 0.06302
1168.50 0.063
1168.60 0.06299
1168.70 0.06297
1168.80 0.06295
1168.90 0.06293
1169.00 0.06291
1169.10 0.06289
1169.20 0.06287
1169.30 0.06285
1169.40 0.06283
1169.50 0.06282
1169.60 0.0628
1169.70 0.06278
1169.80 0.06276
1169.90 0.06274
1170.00 0.06272
1170.10 0.0627
1170.20 0.06268
1170.30 0.06266
1170.40 0.06265
1170.50 0.06263
1170.60 0.06261
1170.70 0.06259
1170.80 0.06257
1170.90 0.06255
1171.00 0.06253
1171.10 0.06251
1171.20 0.06249
1171.30 0.06248
1171.40 0.06246
1171.50 0.06244
1171.60 0.06242
1171.70 0.0624
1171.80 0.06238
1171.90 0.06236
1172.00 0.06234
1172.10 0.06232
1172.20 0.06231
1172.30 0.06229
1172.40 0.06227
1172.50 0.06225
1172.60 0.06223
1172.70 0.06221
1172.80 0.06219
1172.90 0.06217
1173.00 0.06215
1173.10 0.06214
1173.20 0.06212
1173.30 0.0621
1173.40 0.06208
1173.50 0.06206
1173.60 0.06204
1173.70 0.06202
1173.80 0.062
1173.90 0.06198
1174.00 0.06196
1174.10 0.06195
1174.20 0.06193
1174.30 0.06191
1174.40 0.06189
1174.50 0.06187
1174.60 0.06185
1174.70 0.06183
1174.80 0.06181
1174.90 0.0618
1175.00 0.06178
1175.10 0.06176
1175.20 0.06174
1175.30 0.06172
1175.40 0.0617
1175.50 0.06168
1175.60 0.06166
1175.70 0.06164
1175.80 0.06163
1175.90 0.06161
1176.00 0.06159
1176.10 0.06157
1176.20 0.06155
1176.30 0.06153
1176.40 0.06151
1176.50 0.06149
1176.60 0.06148
1176.70 0.06146
1176.80 0.06144
1176.90 0.06142
1177.00 0.0614
1177.10 0.06138
1177.20 0.06136
1177.30 0.06134
1177.40 0.06132
1177.50 0.06131
1177.60 0.06129
1177.70 0.06127
1177.80 0.06125
1177.90 0.06123
1178.00 0.06121
1178.10 0.06119
1178.20 0.06117
1178.30 0.06115
1178.40 0.06114
1178.50 0.06112
1178.60 0.0611
1178.70 0.06108
1178.80 0.06106
1178.90 0.06104
1179.00 0.06102
1179.10 0.061
1179.20 0.06098
1179.30 0.06097
1179.40 0.06095
1179.50 0.06093
1179.60 0.06091
1179.70 0.06089
1179.80 0.06087
1179.90 0.06085
1180.00 0.06083
1180.10 0.06082
1180.20 0.0608
1180.30 0.06078
1180.40 0.06076
1180.50 0.06074
1180.60 0.06072
1180.70 0.0607
1180.80 0.06068
1180.90 0.06067
1181.00 0.06065
1181.10 0.06063
1181.20 0.06061
1181.30 0.06059
1181.40 0.06057
1181.50 0.06055
1181.60 0.06053
1181.70 0.06052
1181.80 0.0605
1181.90 0.06048
1182.00 0.06046
1182.10 0.06044
1182.20 0.06042
1182.30 0.0604
1182.40 0.06038
1182.50 0.06036
1182.60 0.06035
1182.70 0.06033
1182.80 0.06031
1182.90 0.06029
1183.00 0.06027
1183.10 0.06025
1183.20 0.06023
1183.30 0.06021
1183.40 0.06019
1183.50 0.06018
1183.60 0.06016
1183.70 0.06014
1183.80 0.06012
1183.90 0.0601
1184.00 0.06008
1184.10 0.06006
1184.20 0.06004
1184.30 0.06002
1184.40 0.06001
1184.50 0.05999
1184.60 0.05997
1184.70 0.05995
1184.80 0.05993
1184.90 0.05991
1185.00 0.05989
1185.10 0.05987
1185.20 0.05985
1185.30 0.05984
1185.40 0.05982
1185.50 0.0598
1185.60 0.05978
1185.70 0.05976
1185.80 0.05974
1185.90 0.05972
1186.00 0.0597
1186.10 0.05969
1186.20 0.05967
1186.30 0.05965
1186.40 0.05963
1186.50 0.05961
1186.60 0.05959
1186.70 0.05957
1186.80 0.05956
1186.90 0.05954
1187.00 0.05952
1187.10 0.0595
1187.20 0.05948
1187.30 0.05946
1187.40 0.05944
1187.50 0.05942
1187.60 0.0594
1187.70 0.05939
1187.80 0.05937
1187.90 0.05935
1188.00 0.05933
1188.10 0.05931
1188.20 0.05929
1188.30 0.05927
1188.40 0.05925
1188.50 0.05924
1188.60 0.05922
1188.70 0.0592
1188.80 0.05918
1188.90 0.05916
1189.00 0.05914
1189.10 0.05912
1189.20 0.05911
1189.30 0.05909
1189.40 0.05907
1189.50 0.05905
1189.60 0.05903
1189.70 0.05901
1189.80 0.05899
1189.90 0.05897
1190.00 0.05896
1190.10 0.05894
1190.20 0.05892
1190.30 0.0589
1190.40 0.05888
1190.50 0.05886
1190.60 0.05884
1190.70 0.05883
1190.80 0.05881
1190.90 0.05879
1191.00 0.05877
1191.10 0.05875
1191.20 0.05873
1191.30 0.05871
1191.40 0.0587
1191.50 0.05868
1191.60 0.05866
1191.70 0.05864
1191.80 0.05862
1191.90 0.0586
1192.00 0.05858
1192.10 0.05857
1192.20 0.05855
1192.30 0.05853
1192.40 0.05851
1192.50 0.05849
1192.60 0.05847
1192.70 0.05845
1192.80 0.05843
1192.90 0.05842
1193.00 0.0584
1193.10 0.05838
1193.20 0.05836
1193.30 0.05834
1193.40 0.05832
1193.50 0.0583
1193.60 0.05829
1193.70 0.05827
1193.80 0.05825
1193.90 0.05823
1194.00 0.05821
1194.10 0.05819
1194.20 0.05817
1194.30 0.05816
1194.40 0.05814
1194.50 0.05812
1194.60 0.0581
1194.70 0.05808
1194.80 0.05806
1194.90 0.05804
1195.00 0.05803
1195.10 0.05801
1195.20 0.05799
1195.30 0.05797
1195.40 0.05795
1195.50 0.05793
1195.60 0.05791
1195.70 0.0579
1195.80 0.05788
1195.90 0.05786
1196.00 0.05784
1196.10 0.05782
1196.20 0.0578
1196.30 0.05779
1196.40 0.05777
1196.50 0.05775
1196.60 0.05773
1196.70 0.05771
1196.80 0.05769
1196.90 0.05767
1197.00 0.05766
1197.10 0.05764
1197.20 0.05762
1197.30 0.0576
1197.40 0.05758
1197.50 0.05756
1197.60 0.05754
1197.70 0.05752
1197.80 0.05751
1197.90 0.05749
1198.00 0.05747
1198.10 0.05745
1198.20 0.05743
1198.30 0.05741
1198.40 0.05739
1198.50 0.05737
1198.60 0.05736
1198.70 0.05734
1198.80 0.05732
1198.90 0.0573
1199.00 0.05728
1199.10 0.05726
1199.20 0.05724
1199.30 0.05722
1199.40 0.05721
1199.50 0.05719
1199.60 0.05717
1199.70 0.05715
1199.80 0.05713
1199.90 0.05711
1200.00 0
