# Version 2.1 - nm, norm@500 to 1, cut digits, bergeron_16000_85.dat_16000
# Wavelength(nm)  Flambda(ergs/cm^s/s/nm)
300.00 2.594
300.10 2.592
300.20 2.59
300.30 2.588
300.40 2.586
300.50 2.584
300.60 2.581
300.70 2.579
300.80 2.577
300.90 2.575
301.00 2.573
301.10 2.571
301.20 2.568
301.30 2.566
301.40 2.564
301.50 2.562
301.60 2.56
301.70 2.558
301.80 2.556
301.90 2.554
302.00 2.551
302.10 2.549
302.20 2.547
302.30 2.545
302.40 2.543
302.50 2.541
302.60 2.539
302.70 2.537
302.80 2.534
302.90 2.532
303.00 2.53
303.10 2.528
303.20 2.526
303.30 2.524
303.40 2.522
303.50 2.52
303.60 2.518
303.70 2.516
303.80 2.514
303.90 2.511
304.00 2.509
304.10 2.507
304.20 2.505
304.30 2.503
304.40 2.501
304.50 2.499
304.60 2.497
304.70 2.495
304.80 2.493
304.90 2.491
305.00 2.489
305.10 2.487
305.20 2.485
305.30 2.483
305.40 2.481
305.50 2.478
305.60 2.476
305.70 2.474
305.80 2.472
305.90 2.47
306.00 2.468
306.10 2.466
306.20 2.464
306.30 2.462
306.40 2.46
306.50 2.458
306.60 2.456
306.70 2.454
306.80 2.452
306.90 2.45
307.00 2.448
307.10 2.446
307.20 2.444
307.30 2.442
307.40 2.44
307.50 2.438
307.60 2.436
307.70 2.434
307.80 2.432
307.90 2.43
308.00 2.428
308.10 2.426
308.20 2.424
308.30 2.422
308.40 2.42
308.50 2.418
308.60 2.416
308.70 2.414
308.80 2.412
308.90 2.41
309.00 2.408
309.10 2.406
309.20 2.404
309.30 2.402
309.40 2.4
309.50 2.398
309.60 2.396
309.70 2.394
309.80 2.392
309.90 2.39
310.00 2.389
310.10 2.387
310.20 2.385
310.30 2.383
310.40 2.381
310.50 2.379
310.60 2.377
310.70 2.375
310.80 2.373
310.90 2.371
311.00 2.369
311.10 2.367
311.20 2.365
311.30 2.363
311.40 2.361
311.50 2.36
311.60 2.358
311.70 2.356
311.80 2.354
311.90 2.352
312.00 2.35
312.10 2.348
312.20 2.346
312.30 2.344
312.40 2.342
312.50 2.34
312.60 2.339
312.70 2.337
312.80 2.335
312.90 2.333
313.00 2.331
313.10 2.329
313.20 2.327
313.30 2.325
313.40 2.323
313.50 2.322
313.60 2.32
313.70 2.318
313.80 2.316
313.90 2.314
314.00 2.312
314.10 2.31
314.20 2.308
314.30 2.307
314.40 2.305
314.50 2.303
314.60 2.301
314.70 2.299
314.80 2.297
314.90 2.296
315.00 2.294
315.10 2.292
315.20 2.29
315.30 2.288
315.40 2.286
315.50 2.284
315.60 2.283
315.70 2.281
315.80 2.279
315.90 2.277
316.00 2.275
316.10 2.273
316.20 2.272
316.30 2.27
316.40 2.268
316.50 2.266
316.60 2.264
316.70 2.263
316.80 2.261
316.90 2.259
317.00 2.257
317.10 2.255
317.20 2.254
317.30 2.252
317.40 2.25
317.50 2.248
317.60 2.246
317.70 2.245
317.80 2.243
317.90 2.241
318.00 2.239
318.10 2.237
318.20 2.236
318.30 2.234
318.40 2.232
318.50 2.23
318.60 2.229
318.70 2.227
318.80 2.225
318.90 2.223
319.00 2.221
319.10 2.22
319.20 2.218
319.30 2.216
319.40 2.214
319.50 2.213
319.60 2.211
319.70 2.209
319.80 2.207
319.90 2.206
320.00 2.204
320.10 2.202
320.20 2.2
320.30 2.199
320.40 2.197
320.50 2.195
320.60 2.193
320.70 2.192
320.80 2.19
320.90 2.188
321.00 2.186
321.10 2.185
321.20 2.183
321.30 2.181
321.40 2.18
321.50 2.178
321.60 2.176
321.70 2.174
321.80 2.173
321.90 2.171
322.00 2.169
322.10 2.167
322.20 2.166
322.30 2.164
322.40 2.162
322.50 2.161
322.60 2.159
322.70 2.157
322.80 2.156
322.90 2.154
323.00 2.152
323.10 2.15
323.20 2.149
323.30 2.147
323.40 2.145
323.50 2.144
323.60 2.142
323.70 2.14
323.80 2.139
323.90 2.137
324.00 2.135
324.10 2.134
324.20 2.132
324.30 2.13
324.40 2.129
324.50 2.127
324.60 2.125
324.70 2.124
324.80 2.122
324.90 2.12
325.00 2.119
325.10 2.117
325.20 2.115
325.30 2.114
325.40 2.112
325.50 2.11
325.60 2.109
325.70 2.107
325.80 2.105
325.90 2.104
326.00 2.102
326.10 2.1
326.20 2.099
326.30 2.097
326.40 2.096
326.50 2.094
326.60 2.092
326.70 2.091
326.80 2.089
326.90 2.087
327.00 2.086
327.10 2.084
327.20 2.083
327.30 2.081
327.40 2.079
327.50 2.078
327.60 2.076
327.70 2.074
327.80 2.073
327.90 2.071
328.00 2.07
328.10 2.068
328.20 2.066
328.30 2.065
328.40 2.063
328.50 2.062
328.60 2.06
328.70 2.058
328.80 2.057
328.90 2.055
329.00 2.054
329.10 2.052
329.20 2.05
329.30 2.049
329.40 2.047
329.50 2.046
329.60 2.044
329.70 2.042
329.80 2.041
329.90 2.039
330.00 2.038
330.10 2.036
330.20 2.034
330.30 2.033
330.40 2.031
330.50 2.03
330.60 2.028
330.70 2.027
330.80 2.025
330.90 2.023
331.00 2.022
331.10 2.02
331.20 2.019
331.30 2.017
331.40 2.016
331.50 2.014
331.60 2.013
331.70 2.011
331.80 2.009
331.90 2.008
332.00 2.006
332.10 2.005
332.20 2.003
332.30 2.002
332.40 2
332.50 1.999
332.60 1.997
332.70 1.996
332.80 1.994
332.90 1.993
333.00 1.991
333.10 1.989
333.20 1.988
333.30 1.986
333.40 1.985
333.50 1.983
333.60 1.982
333.70 1.98
333.80 1.979
333.90 1.977
334.00 1.976
334.10 1.974
334.20 1.973
334.30 1.971
334.40 1.97
334.50 1.968
334.60 1.967
334.70 1.965
334.80 1.964
334.90 1.962
335.00 1.961
335.10 1.959
335.20 1.958
335.30 1.956
335.40 1.955
335.50 1.953
335.60 1.952
335.70 1.95
335.80 1.949
335.90 1.947
336.00 1.946
336.10 1.944
336.20 1.943
336.30 1.941
336.40 1.94
336.50 1.938
336.60 1.937
336.70 1.936
336.80 1.934
336.90 1.933
337.00 1.931
337.10 1.93
337.20 1.928
337.30 1.927
337.40 1.925
337.50 1.924
337.60 1.922
337.70 1.921
337.80 1.919
337.90 1.918
338.00 1.917
338.10 1.915
338.20 1.914
338.30 1.912
338.40 1.911
338.50 1.909
338.60 1.908
338.70 1.906
338.80 1.905
338.90 1.903
339.00 1.902
339.10 1.901
339.20 1.899
339.30 1.898
339.40 1.896
339.50 1.895
339.60 1.893
339.70 1.892
339.80 1.891
339.90 1.889
340.00 1.888
340.10 1.886
340.20 1.885
340.30 1.883
340.40 1.882
340.50 1.881
340.60 1.879
340.70 1.878
340.80 1.876
340.90 1.875
341.00 1.873
341.10 1.872
341.20 1.871
341.30 1.869
341.40 1.868
341.50 1.866
341.60 1.865
341.70 1.864
341.80 1.862
341.90 1.861
342.00 1.859
342.10 1.858
342.20 1.857
342.30 1.855
342.40 1.854
342.50 1.852
342.60 1.851
342.70 1.85
342.80 1.848
342.90 1.847
343.00 1.845
343.10 1.844
343.20 1.843
343.30 1.841
343.40 1.84
343.50 1.839
343.60 1.837
343.70 1.836
343.80 1.834
343.90 1.833
344.00 1.832
344.10 1.83
344.20 1.829
344.30 1.828
344.40 1.826
344.50 1.825
344.60 1.823
344.70 1.822
344.80 1.821
344.90 1.819
345.00 1.818
345.10 1.817
345.20 1.815
345.30 1.814
345.40 1.813
345.50 1.811
345.60 1.81
345.70 1.809
345.80 1.807
345.90 1.806
346.00 1.805
346.10 1.803
346.20 1.802
346.30 1.801
346.40 1.799
346.50 1.798
346.60 1.797
346.70 1.795
346.80 1.794
346.90 1.792
347.00 1.791
347.10 1.79
347.20 1.788
347.30 1.787
347.40 1.786
347.50 1.784
347.60 1.783
347.70 1.782
347.80 1.781
347.90 1.779
348.00 1.778
348.10 1.777
348.20 1.775
348.30 1.774
348.40 1.773
348.50 1.771
348.60 1.77
348.70 1.769
348.80 1.767
348.90 1.766
349.00 1.765
349.10 1.763
349.20 1.762
349.30 1.761
349.40 1.76
349.50 1.758
349.60 1.757
349.70 1.756
349.80 1.754
349.90 1.753
350.00 1.752
350.10 1.75
350.20 1.749
350.30 1.748
350.40 1.747
350.50 1.745
350.60 1.744
350.70 1.743
350.80 1.741
350.90 1.74
351.00 1.739
351.10 1.738
351.20 1.736
351.30 1.735
351.40 1.734
351.50 1.733
351.60 1.731
351.70 1.73
351.80 1.729
351.90 1.727
352.00 1.726
352.10 1.725
352.20 1.724
352.30 1.722
352.40 1.721
352.50 1.72
352.60 1.719
352.70 1.717
352.80 1.716
352.90 1.715
353.00 1.714
353.10 1.712
353.20 1.711
353.30 1.71
353.40 1.709
353.50 1.707
353.60 1.706
353.70 1.705
353.80 1.704
353.90 1.702
354.00 1.701
354.10 1.7
354.20 1.699
354.30 1.697
354.40 1.696
354.50 1.695
354.60 1.694
354.70 1.692
354.80 1.691
354.90 1.69
355.00 1.689
355.10 1.687
355.20 1.686
355.30 1.685
355.40 1.684
355.50 1.682
355.60 1.681
355.70 1.68
355.80 1.679
355.90 1.678
356.00 1.676
356.10 1.675
356.20 1.674
356.30 1.673
356.40 1.671
356.50 1.67
356.60 1.669
356.70 1.668
356.80 1.667
356.90 1.665
357.00 1.664
357.10 1.663
357.20 1.662
357.30 1.661
357.40 1.659
357.50 1.658
357.60 1.657
357.70 1.656
357.80 1.655
357.90 1.653
358.00 1.652
358.10 1.651
358.20 1.65
358.30 1.649
358.40 1.647
358.50 1.646
358.60 1.645
358.70 1.644
358.80 1.643
358.90 1.641
359.00 1.64
359.10 1.639
359.20 1.638
359.30 1.637
359.40 1.636
359.50 1.634
359.60 1.633
359.70 1.632
359.80 1.631
359.90 1.63
360.00 1.628
360.10 1.627
360.20 1.626
360.30 1.625
360.40 1.624
360.50 1.623
360.60 1.621
360.70 1.62
360.80 1.619
360.90 1.618
361.00 1.617
361.10 1.616
361.20 1.614
361.30 1.613
361.40 1.612
361.50 1.611
361.60 1.61
361.70 1.609
361.80 1.607
361.90 1.606
362.00 1.605
362.10 1.604
362.20 1.603
362.30 1.602
362.40 1.601
362.50 1.599
362.60 1.598
362.70 1.597
362.80 1.596
362.90 1.595
363.00 1.594
363.10 1.592
363.20 1.591
363.30 1.59
363.40 1.588
363.50 1.587
363.60 1.586
363.70 1.585
363.80 1.583
363.90 1.582
364.00 1.581
364.10 1.58
364.20 1.578
364.30 1.577
364.40 1.576
364.50 1.574
364.60 1.573
364.70 1.572
364.80 1.57
364.90 1.569
365.00 1.568
365.10 1.567
365.20 1.565
365.30 1.564
365.40 1.563
365.50 1.561
365.60 1.56
365.70 1.559
365.80 1.557
365.90 1.556
366.00 1.555
366.10 1.554
366.20 1.553
366.30 1.551
366.40 1.55
366.50 1.549
366.60 1.548
366.70 1.547
366.80 1.546
366.90 1.544
367.00 1.543
367.10 1.542
367.20 1.541
367.30 1.54
367.40 1.539
367.50 1.538
367.60 1.536
367.70 1.535
367.80 1.534
367.90 1.533
368.00 1.532
368.10 1.531
368.20 1.53
368.30 1.528
368.40 1.527
368.50 1.526
368.60 1.525
368.70 1.524
368.80 1.523
368.90 1.522
369.00 1.521
369.10 1.519
369.20 1.518
369.30 1.517
369.40 1.516
369.50 1.515
369.60 1.514
369.70 1.513
369.80 1.512
369.90 1.511
370.00 1.509
370.10 1.509
370.20 1.508
370.30 1.507
370.40 1.506
370.50 1.505
370.60 1.504
370.70 1.503
370.80 1.502
370.90 1.501
371.00 1.5
371.10 1.499
371.20 1.499
371.30 1.498
371.40 1.497
371.50 1.496
371.60 1.495
371.70 1.494
371.80 1.493
371.90 1.492
372.00 1.491
372.10 1.491
372.20 1.49
372.30 1.49
372.40 1.489
372.50 1.489
372.60 1.488
372.70 1.488
372.80 1.487
372.90 1.487
373.00 1.486
373.10 1.485
373.20 1.485
373.30 1.484
373.40 1.484
373.50 1.483
373.60 1.483
373.70 1.482
373.80 1.482
373.90 1.481
374.00 1.481
374.10 1.48
374.20 1.48
374.30 1.48
374.40 1.48
374.50 1.48
374.60 1.479
374.70 1.479
374.80 1.479
374.90 1.479
375.00 1.478
375.10 1.478
375.20 1.478
375.30 1.478
375.40 1.478
375.50 1.477
375.60 1.477
375.70 1.477
375.80 1.477
375.90 1.476
376.00 1.476
376.10 1.476
376.20 1.476
376.30 1.475
376.40 1.475
376.50 1.475
376.60 1.474
376.70 1.474
376.80 1.474
376.90 1.473
377.00 1.473
377.10 1.472
377.20 1.471
377.30 1.47
377.40 1.47
377.50 1.469
377.60 1.468
377.70 1.467
377.80 1.466
377.90 1.465
378.00 1.465
378.10 1.462
378.20 1.459
378.30 1.457
378.40 1.454
378.50 1.452
378.60 1.449
378.70 1.447
378.80 1.444
378.90 1.441
379.00 1.439
379.10 1.437
379.20 1.435
379.30 1.434
379.40 1.432
379.50 1.43
379.60 1.428
379.70 1.427
379.80 1.425
379.90 1.423
380.00 1.421
380.10 1.423
380.20 1.425
380.30 1.427
380.40 1.428
380.50 1.43
380.60 1.432
380.70 1.434
380.80 1.435
380.90 1.437
381.00 1.439
381.10 1.439
381.20 1.439
381.30 1.44
381.40 1.44
381.50 1.44
381.60 1.439
381.70 1.438
381.80 1.436
381.90 1.434
382.00 1.432
382.10 1.428
382.20 1.425
382.30 1.419
382.40 1.412
382.50 1.406
382.60 1.4
382.70 1.394
382.80 1.388
382.90 1.381
383.00 1.375
383.10 1.369
383.20 1.363
383.30 1.359
383.40 1.355
383.50 1.35
383.60 1.35
383.70 1.356
383.80 1.36
383.90 1.364
384.00 1.37
384.10 1.377
384.20 1.384
384.30 1.392
384.40 1.399
384.50 1.406
384.60 1.412
384.70 1.417
384.80 1.422
384.90 1.425
385.00 1.429
385.10 1.431
385.20 1.433
385.30 1.435
385.40 1.436
385.50 1.436
385.60 1.437
385.70 1.436
385.80 1.436
385.90 1.435
386.00 1.433
386.10 1.432
386.20 1.429
386.30 1.427
386.40 1.424
386.50 1.42
386.60 1.416
386.70 1.412
386.80 1.407
386.90 1.402
387.00 1.397
387.10 1.391
387.20 1.385
387.30 1.378
387.40 1.371
387.50 1.362
387.60 1.354
387.70 1.345
387.80 1.335
387.90 1.324
388.00 1.312
388.10 1.299
388.20 1.285
388.30 1.27
388.40 1.253
388.50 1.239
388.60 1.226
388.70 1.217
388.80 1.21
388.90 1.204
389.00 1.209
389.10 1.216
389.20 1.225
389.30 1.238
389.40 1.252
389.50 1.269
389.60 1.284
389.70 1.299
389.80 1.313
389.90 1.325
390.00 1.336
390.10 1.347
390.20 1.357
390.30 1.367
390.40 1.376
390.50 1.384
390.60 1.392
390.70 1.399
390.80 1.406
390.90 1.413
391.00 1.419
391.10 1.425
391.20 1.43
391.30 1.436
391.40 1.44
391.50 1.445
391.60 1.449
391.70 1.452
391.80 1.455
391.90 1.458
392.00 1.46
392.10 1.462
392.20 1.464
392.30 1.464
392.40 1.465
392.50 1.465
392.60 1.464
392.70 1.463
392.80 1.462
392.90 1.46
393.00 1.457
393.10 1.454
393.20 1.45
393.30 1.446
393.40 1.442
393.50 1.437
393.60 1.431
393.70 1.425
393.80 1.419
393.90 1.412
394.00 1.404
394.10 1.396
394.20 1.387
394.30 1.379
394.40 1.369
394.50 1.359
394.60 1.349
394.70 1.338
394.80 1.326
394.90 1.315
395.00 1.303
395.10 1.291
395.20 1.278
395.30 1.265
395.40 1.251
395.50 1.237
395.60 1.223
395.70 1.208
395.80 1.193
395.90 1.177
396.00 1.161
396.10 1.144
396.20 1.126
396.30 1.107
396.40 1.086
396.50 1.061
396.60 1.035
396.70 1.009
396.80 0.9897
396.90 0.9704
397.00 0.9509
397.10 0.9683
397.20 0.9859
397.30 1.003
397.40 1.029
397.50 1.054
397.60 1.078
397.70 1.099
397.80 1.118
397.90 1.136
398.00 1.152
398.10 1.167
398.20 1.182
398.30 1.197
398.40 1.212
398.50 1.226
398.60 1.24
398.70 1.253
398.80 1.267
398.90 1.279
399.00 1.292
399.10 1.305
399.20 1.317
399.30 1.329
399.40 1.34
399.50 1.352
399.60 1.363
399.70 1.374
399.80 1.384
399.90 1.395
400.00 1.405
400.10 1.414
400.20 1.423
400.30 1.433
400.40 1.441
400.50 1.449
400.60 1.457
400.70 1.465
400.80 1.472
400.90 1.479
401.00 1.486
401.10 1.492
401.20 1.499
401.30 1.504
401.40 1.509
401.50 1.515
401.60 1.519
401.70 1.524
401.80 1.528
401.90 1.532
402.00 1.535
402.10 1.539
402.20 1.541
402.30 1.544
402.40 1.546
402.50 1.548
402.60 1.55
402.70 1.551
402.80 1.552
402.90 1.553
403.00 1.553
403.10 1.553
403.20 1.553
403.30 1.553
403.40 1.552
403.50 1.551
403.60 1.549
403.70 1.547
403.80 1.545
403.90 1.543
404.00 1.54
404.10 1.537
404.20 1.533
404.30 1.53
404.40 1.526
404.50 1.521
404.60 1.517
404.70 1.512
404.80 1.506
404.90 1.501
405.00 1.495
405.10 1.489
405.20 1.482
405.30 1.475
405.40 1.468
405.50 1.46
405.60 1.452
405.70 1.444
405.80 1.436
405.90 1.427
406.00 1.418
406.10 1.408
406.20 1.399
406.30 1.389
406.40 1.378
406.50 1.368
406.60 1.357
406.70 1.345
406.80 1.334
406.90 1.322
407.00 1.31
407.10 1.297
407.20 1.284
407.30 1.271
407.40 1.258
407.50 1.244
407.60 1.23
407.70 1.216
407.80 1.202
407.90 1.187
408.00 1.172
408.10 1.157
408.20 1.142
408.30 1.126
408.40 1.111
408.50 1.095
408.60 1.079
408.70 1.062
408.80 1.046
408.90 1.029
409.00 1.012
409.10 0.9952
409.20 0.9781
409.30 0.961
409.40 0.9426
409.50 0.9229
409.60 0.902
409.70 0.8773
409.80 0.8508
409.90 0.8227
410.00 0.7962
410.10 0.7758
410.20 0.7613
410.30 0.7841
410.40 0.8089
410.50 0.8357
410.60 0.862
410.70 0.8864
410.80 0.9087
410.90 0.9275
411.00 0.9453
411.10 0.9621
411.20 0.978
411.30 0.9938
411.40 1.01
411.50 1.025
411.60 1.041
411.70 1.056
411.80 1.071
411.90 1.085
412.00 1.1
412.10 1.114
412.20 1.128
412.30 1.142
412.40 1.156
412.50 1.169
412.60 1.183
412.70 1.196
412.80 1.209
412.90 1.221
413.00 1.234
413.10 1.246
413.20 1.258
413.30 1.269
413.40 1.281
413.50 1.292
413.60 1.302
413.70 1.313
413.80 1.324
413.90 1.334
414.00 1.343
414.10 1.353
414.20 1.363
414.30 1.372
414.40 1.381
414.50 1.39
414.60 1.398
414.70 1.406
414.80 1.415
414.90 1.422
415.00 1.43
415.10 1.438
415.20 1.445
415.30 1.452
415.40 1.459
415.50 1.466
415.60 1.472
415.70 1.479
415.80 1.485
415.90 1.491
416.00 1.497
416.10 1.502
416.20 1.508
416.30 1.513
416.40 1.518
416.50 1.523
416.60 1.528
416.70 1.533
416.80 1.537
416.90 1.541
417.00 1.546
417.10 1.55
417.20 1.553
417.30 1.557
417.40 1.561
417.50 1.564
417.60 1.567
417.70 1.571
417.80 1.574
417.90 1.576
418.00 1.579
418.10 1.582
418.20 1.584
418.30 1.587
418.40 1.589
418.50 1.591
418.60 1.593
418.70 1.595
418.80 1.597
418.90 1.599
419.00 1.6
419.10 1.602
419.20 1.603
419.30 1.604
419.40 1.606
419.50 1.607
419.60 1.608
419.70 1.609
419.80 1.609
419.90 1.61
420.00 1.611
420.10 1.611
420.20 1.612
420.30 1.612
420.40 1.612
420.50 1.612
420.60 1.612
420.70 1.612
420.80 1.612
420.90 1.612
421.00 1.612
421.10 1.612
421.20 1.611
421.30 1.611
421.40 1.61
421.50 1.609
421.60 1.609
421.70 1.608
421.80 1.607
421.90 1.606
422.00 1.605
422.10 1.604
422.20 1.602
422.30 1.601
422.40 1.6
422.50 1.598
422.60 1.597
422.70 1.595
422.80 1.593
422.90 1.591
423.00 1.589
423.10 1.588
423.20 1.586
423.30 1.583
423.40 1.581
423.50 1.579
423.60 1.577
423.70 1.574
423.80 1.572
423.90 1.569
424.00 1.566
424.10 1.564
424.20 1.561
424.30 1.558
424.40 1.555
424.50 1.552
424.60 1.548
424.70 1.545
424.80 1.542
424.90 1.538
425.00 1.535
425.10 1.531
425.20 1.527
425.30 1.523
425.40 1.519
425.50 1.515
425.60 1.511
425.70 1.507
425.80 1.503
425.90 1.498
426.00 1.494
426.10 1.489
426.20 1.483
426.30 1.478
426.40 1.473
426.50 1.467
426.60 1.462
426.70 1.457
426.80 1.451
426.90 1.446
427.00 1.44
427.10 1.434
427.20 1.428
427.30 1.422
427.40 1.416
427.50 1.41
427.60 1.403
427.70 1.397
427.80 1.39
427.90 1.383
428.00 1.376
428.10 1.369
428.20 1.362
428.30 1.354
428.40 1.347
428.50 1.339
428.60 1.331
428.70 1.323
428.80 1.315
428.90 1.307
429.00 1.299
429.10 1.29
429.20 1.281
429.30 1.272
429.40 1.263
429.50 1.254
429.60 1.245
429.70 1.236
429.80 1.226
429.90 1.216
430.00 1.206
430.10 1.196
430.20 1.186
430.30 1.176
430.40 1.165
430.50 1.154
430.60 1.144
430.70 1.133
430.80 1.122
430.90 1.11
431.00 1.099
431.10 1.087
431.20 1.075
431.30 1.063
431.40 1.051
431.50 1.039
431.60 1.027
431.70 1.014
431.80 1.001
431.90 0.9885
432.00 0.9755
432.10 0.9623
432.20 0.9487
432.30 0.935
432.40 0.921
432.50 0.9065
432.60 0.8917
432.70 0.8767
432.80 0.8614
432.90 0.8461
433.00 0.8309
433.10 0.8162
433.20 0.8014
433.30 0.7866
433.40 0.7708
433.50 0.7536
433.60 0.735
433.70 0.7103
433.80 0.6812
433.90 0.6478
434.00 0.6015
434.10 0.6022
434.20 0.65
434.30 0.6822
434.40 0.7101
434.50 0.7337
434.60 0.7512
434.70 0.7675
434.80 0.7824
434.90 0.7963
435.00 0.8101
435.10 0.8239
435.20 0.8382
435.30 0.8524
435.40 0.8666
435.50 0.8805
435.60 0.8941
435.70 0.9074
435.80 0.9201
435.90 0.9326
436.00 0.9448
436.10 0.9567
436.20 0.9684
436.30 0.98
436.40 0.9913
436.50 1.002
436.60 1.013
436.70 1.024
436.80 1.035
436.90 1.045
437.00 1.055
437.10 1.065
437.20 1.075
437.30 1.085
437.40 1.094
437.50 1.104
437.60 1.113
437.70 1.122
437.80 1.13
437.90 1.139
438.00 1.147
438.10 1.156
438.20 1.164
438.30 1.172
438.40 1.18
438.50 1.187
438.60 1.195
438.70 1.202
438.80 1.209
438.90 1.216
439.00 1.223
439.10 1.23
439.20 1.236
439.30 1.242
439.40 1.249
439.50 1.255
439.60 1.261
439.70 1.266
439.80 1.272
439.90 1.278
440.00 1.283
440.10 1.288
440.20 1.293
440.30 1.298
440.40 1.303
440.50 1.308
440.60 1.312
440.70 1.317
440.80 1.321
440.90 1.325
441.00 1.329
441.10 1.333
441.20 1.337
441.30 1.341
441.40 1.345
441.50 1.348
441.60 1.352
441.70 1.355
441.80 1.358
441.90 1.362
442.00 1.365
442.10 1.368
442.20 1.37
442.30 1.373
442.40 1.376
442.50 1.378
442.60 1.381
442.70 1.383
442.80 1.386
442.90 1.388
443.00 1.39
443.10 1.392
443.20 1.394
443.30 1.396
443.40 1.398
443.50 1.4
443.60 1.402
443.70 1.404
443.80 1.405
443.90 1.407
444.00 1.408
444.10 1.41
444.20 1.411
444.30 1.413
444.40 1.414
444.50 1.415
444.60 1.416
444.70 1.418
444.80 1.419
444.90 1.42
445.00 1.421
445.10 1.422
445.20 1.423
445.30 1.424
445.40 1.424
445.50 1.425
445.60 1.426
445.70 1.427
445.80 1.427
445.90 1.428
446.00 1.428
446.10 1.429
446.20 1.43
446.30 1.43
446.40 1.43
446.50 1.431
446.60 1.431
446.70 1.432
446.80 1.432
446.90 1.432
447.00 1.432
447.10 1.433
447.20 1.433
447.30 1.433
447.40 1.433
447.50 1.433
447.60 1.433
447.70 1.433
447.80 1.433
447.90 1.433
448.00 1.433
448.10 1.433
448.20 1.433
448.30 1.433
448.40 1.433
448.50 1.433
448.60 1.433
448.70 1.433
448.80 1.433
448.90 1.432
449.00 1.433
449.10 1.432
449.20 1.432
449.30 1.432
449.40 1.432
449.50 1.431
449.60 1.431
449.70 1.431
449.80 1.43
449.90 1.43
450.00 1.43
450.10 1.429
450.20 1.429
450.30 1.429
450.40 1.428
450.50 1.428
450.60 1.427
450.70 1.427
450.80 1.426
450.90 1.426
451.00 1.425
451.10 1.425
451.20 1.424
451.30 1.424
451.40 1.423
451.50 1.423
451.60 1.422
451.70 1.422
451.80 1.421
451.90 1.42
452.00 1.42
452.10 1.419
452.20 1.419
452.30 1.418
452.40 1.417
452.50 1.417
452.60 1.416
452.70 1.415
452.80 1.415
452.90 1.414
453.00 1.413
453.10 1.413
453.20 1.412
453.30 1.411
453.40 1.411
453.50 1.41
453.60 1.409
453.70 1.408
453.80 1.408
453.90 1.407
454.00 1.406
454.10 1.405
454.20 1.405
454.30 1.404
454.40 1.403
454.50 1.402
454.60 1.402
454.70 1.401
454.80 1.4
454.90 1.399
455.00 1.398
455.10 1.398
455.20 1.397
455.30 1.396
455.40 1.395
455.50 1.394
455.60 1.393
455.70 1.393
455.80 1.392
455.90 1.391
456.00 1.39
456.10 1.389
456.20 1.388
456.30 1.387
456.40 1.387
456.50 1.386
456.60 1.385
456.70 1.384
456.80 1.383
456.90 1.382
457.00 1.382
457.10 1.381
457.20 1.38
457.30 1.379
457.40 1.378
457.50 1.377
457.60 1.376
457.70 1.375
457.80 1.374
457.90 1.374
458.00 1.373
458.10 1.372
458.20 1.371
458.30 1.37
458.40 1.369
458.50 1.368
458.60 1.367
458.70 1.366
458.80 1.365
458.90 1.364
459.00 1.363
459.10 1.362
459.20 1.361
459.30 1.36
459.40 1.359
459.50 1.358
459.60 1.357
459.70 1.356
459.80 1.355
459.90 1.354
460.00 1.353
460.10 1.352
460.20 1.351
460.30 1.35
460.40 1.349
460.50 1.348
460.60 1.347
460.70 1.346
460.80 1.345
460.90 1.344
461.00 1.343
461.10 1.342
461.20 1.341
461.30 1.34
461.40 1.338
461.50 1.337
461.60 1.336
461.70 1.335
461.80 1.334
461.90 1.333
462.00 1.332
462.10 1.331
462.20 1.33
462.30 1.329
462.40 1.328
462.50 1.326
462.60 1.325
462.70 1.324
462.80 1.323
462.90 1.322
463.00 1.321
463.10 1.32
463.20 1.319
463.30 1.318
463.40 1.316
463.50 1.315
463.60 1.314
463.70 1.313
463.80 1.312
463.90 1.311
464.00 1.31
464.10 1.308
464.20 1.307
464.30 1.306
464.40 1.305
464.50 1.304
464.60 1.302
464.70 1.301
464.80 1.3
464.90 1.299
465.00 1.298
465.10 1.297
465.20 1.295
465.30 1.294
465.40 1.293
465.50 1.292
465.60 1.29
465.70 1.289
465.80 1.288
465.90 1.287
466.00 1.285
466.10 1.284
466.20 1.283
466.30 1.282
466.40 1.28
466.50 1.279
466.60 1.278
466.70 1.276
466.80 1.275
466.90 1.274
467.00 1.272
467.10 1.271
467.20 1.27
467.30 1.268
467.40 1.267
467.50 1.266
467.60 1.264
467.70 1.263
467.80 1.262
467.90 1.26
468.00 1.259
468.10 1.258
468.20 1.256
468.30 1.255
468.40 1.253
468.50 1.252
468.60 1.25
468.70 1.249
468.80 1.247
468.90 1.246
469.00 1.245
469.10 1.243
469.20 1.242
469.30 1.24
469.40 1.239
469.50 1.237
469.60 1.236
469.70 1.234
469.80 1.232
469.90 1.231
470.00 1.229
470.10 1.228
470.20 1.226
470.30 1.225
470.40 1.223
470.50 1.222
470.60 1.22
470.70 1.218
470.80 1.217
470.90 1.215
471.00 1.214
471.10 1.212
471.20 1.21
471.30 1.209
471.40 1.207
471.50 1.205
471.60 1.203
471.70 1.201
471.80 1.2
471.90 1.198
472.00 1.196
472.10 1.194
472.20 1.193
472.30 1.191
472.40 1.189
472.50 1.187
472.60 1.185
472.70 1.183
472.80 1.181
472.90 1.179
473.00 1.177
473.10 1.175
473.20 1.173
473.30 1.171
473.40 1.169
473.50 1.167
473.60 1.164
473.70 1.162
473.80 1.16
473.90 1.158
474.00 1.156
474.10 1.154
474.20 1.151
474.30 1.149
474.40 1.147
474.50 1.144
474.60 1.142
474.70 1.14
474.80 1.137
474.90 1.135
475.00 1.132
475.10 1.13
475.20 1.127
475.30 1.125
475.40 1.122
475.50 1.119
475.60 1.117
475.70 1.114
475.80 1.111
475.90 1.109
476.00 1.106
476.10 1.103
476.20 1.101
476.30 1.097
476.40 1.094
476.50 1.091
476.60 1.088
476.70 1.085
476.80 1.082
476.90 1.079
477.00 1.076
477.10 1.073
477.20 1.07
477.30 1.067
477.40 1.063
477.50 1.06
477.60 1.056
477.70 1.053
477.80 1.05
477.90 1.046
478.00 1.043
478.10 1.039
478.20 1.036
478.30 1.032
478.40 1.028
478.50 1.024
478.60 1.02
478.70 1.016
478.80 1.012
478.90 1.008
479.00 1.004
479.10 1
479.20 0.9961
479.30 0.9916
479.40 0.9872
479.50 0.9828
479.60 0.9783
479.70 0.9739
479.80 0.9695
479.90 0.965
480.00 0.9606
480.10 0.9562
480.20 0.9514
480.30 0.9463
480.40 0.9413
480.50 0.9362
480.60 0.9312
480.70 0.9261
480.80 0.9211
480.90 0.9161
481.00 0.9111
481.10 0.906
481.20 0.9005
481.30 0.8948
481.40 0.889
481.50 0.8833
481.60 0.8775
481.70 0.8718
481.80 0.8661
481.90 0.8604
482.00 0.8546
482.10 0.8489
482.20 0.8426
482.30 0.836
482.40 0.8295
482.50 0.8229
482.60 0.8163
482.70 0.8098
482.80 0.8032
482.90 0.7967
483.00 0.7902
483.10 0.7836
483.20 0.7763
483.30 0.7685
483.40 0.7608
483.50 0.7531
483.60 0.7453
483.70 0.7376
483.80 0.7299
483.90 0.7222
484.00 0.7145
484.10 0.7068
484.20 0.6983
484.30 0.6894
484.40 0.6806
484.50 0.6717
484.60 0.6628
484.70 0.6534
484.80 0.6437
484.90 0.634
485.00 0.6243
485.10 0.6146
485.20 0.6047
485.30 0.5947
485.40 0.5843
485.50 0.5736
485.60 0.5618
485.70 0.5495
485.80 0.5326
485.90 0.5136
486.00 0.4843
486.10 0.4245
486.20 0.4478
486.30 0.4963
486.40 0.5186
486.50 0.5374
486.60 0.5514
486.70 0.5632
486.80 0.5738
486.90 0.5838
487.00 0.5934
487.10 0.6027
487.20 0.6118
487.30 0.6208
487.40 0.6298
487.50 0.6387
487.60 0.6477
487.70 0.656
487.80 0.6641
487.90 0.6721
488.00 0.6801
488.10 0.6881
488.20 0.6953
488.30 0.7021
488.40 0.7088
488.50 0.7156
488.60 0.7223
488.70 0.7291
488.80 0.7358
488.90 0.7425
489.00 0.7492
489.10 0.756
489.20 0.7618
489.30 0.7672
489.40 0.7727
489.50 0.7781
489.60 0.7835
489.70 0.7889
489.80 0.7943
489.90 0.7998
490.00 0.8052
490.10 0.8106
490.20 0.8153
490.30 0.8198
490.40 0.8243
490.50 0.8287
490.60 0.8332
490.70 0.8377
490.80 0.8421
490.90 0.8466
491.00 0.851
491.10 0.8554
491.20 0.8594
491.30 0.863
491.40 0.8666
491.50 0.8703
491.60 0.8739
491.70 0.8775
491.80 0.8812
491.90 0.8848
492.00 0.8884
492.10 0.892
492.20 0.8952
492.30 0.8981
492.40 0.9011
492.50 0.904
492.60 0.9069
492.70 0.9099
492.80 0.9128
492.90 0.9157
493.00 0.9186
493.10 0.9216
493.20 0.9241
493.30 0.9265
493.40 0.9288
493.50 0.9312
493.60 0.9335
493.70 0.9359
493.80 0.9382
493.90 0.9406
494.00 0.9429
494.10 0.9453
494.20 0.9472
494.30 0.949
494.40 0.9508
494.50 0.9526
494.60 0.9544
494.70 0.9562
494.80 0.958
494.90 0.9598
495.00 0.9615
495.10 0.9633
495.20 0.9648
495.30 0.9662
495.40 0.9675
495.50 0.9688
495.60 0.9702
495.70 0.9715
495.80 0.9729
495.90 0.9742
496.00 0.9756
496.10 0.9769
496.20 0.978
496.30 0.979
496.40 0.9799
496.50 0.9809
496.60 0.9819
496.70 0.9829
496.80 0.9838
496.90 0.9848
497.00 0.9858
497.10 0.9867
497.20 0.9875
497.30 0.9882
497.40 0.9888
497.50 0.9895
497.60 0.9902
497.70 0.9909
497.80 0.9915
497.90 0.9922
498.00 0.9929
498.10 0.9935
498.20 0.994
498.30 0.9945
498.40 0.9949
498.50 0.9953
498.60 0.9958
498.70 0.9962
498.80 0.9966
498.90 0.997
499.00 0.9975
499.10 0.9979
499.20 0.9982
499.30 0.9984
499.40 0.9986
499.50 0.9989
499.60 0.9991
499.70 0.9993
499.80 0.9995
499.90 0.9998
500.00 1
500.10 1
500.20 1
500.30 1
500.40 1
500.50 1.001
500.60 1.001
500.70 1.001
500.80 1.001
500.90 1.001
501.00 1.001
501.10 1.001
501.20 1.001
501.30 1.001
501.40 1.001
501.50 1.001
501.60 1.001
501.70 1.001
501.80 1.001
501.90 1.001
502.00 1.001
502.10 1
502.20 1
502.30 1
502.40 1
502.50 0.9999
502.60 0.9997
502.70 0.9996
502.80 0.9994
502.90 0.9993
503.00 0.9991
503.10 0.999
503.20 0.9988
503.30 0.9985
503.40 0.9983
503.50 0.9981
503.60 0.9978
503.70 0.9976
503.80 0.9974
503.90 0.9972
504.00 0.9969
504.10 0.9967
504.20 0.9964
504.30 0.9961
504.40 0.9958
504.50 0.9955
504.60 0.9952
504.70 0.9949
504.80 0.9946
504.90 0.9943
505.00 0.994
505.10 0.9937
505.20 0.9934
505.30 0.993
505.40 0.9927
505.50 0.9923
505.60 0.992
505.70 0.9916
505.80 0.9913
505.90 0.9909
506.00 0.9906
506.10 0.9902
506.20 0.9898
506.30 0.9894
506.40 0.9891
506.50 0.9887
506.60 0.9883
506.70 0.9879
506.80 0.9875
506.90 0.9871
507.00 0.9867
507.10 0.9863
507.20 0.9858
507.30 0.9854
507.40 0.985
507.50 0.9845
507.60 0.9841
507.70 0.9837
507.80 0.9833
507.90 0.9828
508.00 0.9824
508.10 0.982
508.20 0.9815
508.30 0.981
508.40 0.9806
508.50 0.9801
508.60 0.9797
508.70 0.9792
508.80 0.9787
508.90 0.9783
509.00 0.9778
509.10 0.9774
509.20 0.9769
509.30 0.9764
509.40 0.9759
509.50 0.9755
509.60 0.975
509.70 0.9745
509.80 0.974
509.90 0.9735
510.00 0.9731
510.10 0.9726
510.20 0.9721
510.30 0.9716
510.40 0.9711
510.50 0.9706
510.60 0.9701
510.70 0.9696
510.80 0.9691
510.90 0.9686
511.00 0.9681
511.10 0.9676
511.20 0.9671
511.30 0.9666
511.40 0.9661
511.50 0.9655
511.60 0.965
511.70 0.9645
511.80 0.964
511.90 0.9635
512.00 0.963
512.10 0.9624
512.20 0.9619
512.30 0.9614
512.40 0.9609
512.50 0.9604
512.60 0.9598
512.70 0.9593
512.80 0.9588
512.90 0.9583
513.00 0.9578
513.10 0.9572
513.20 0.9567
513.30 0.9562
513.40 0.9556
513.50 0.9551
513.60 0.9545
513.70 0.954
513.80 0.9535
513.90 0.9529
514.00 0.9524
514.10 0.9518
514.20 0.9513
514.30 0.9508
514.40 0.9502
514.50 0.9497
514.60 0.9492
514.70 0.9486
514.80 0.9481
514.90 0.9475
515.00 0.947
515.10 0.9465
515.20 0.9459
515.30 0.9454
515.40 0.9448
515.50 0.9443
515.60 0.9437
515.70 0.9432
515.80 0.9426
515.90 0.9421
516.00 0.9416
516.10 0.941
516.20 0.9405
516.30 0.9399
516.40 0.9394
516.50 0.9388
516.60 0.9382
516.70 0.9377
516.80 0.9371
516.90 0.9366
517.00 0.936
517.10 0.9355
517.20 0.9349
517.30 0.9344
517.40 0.9339
517.50 0.9333
517.60 0.9328
517.70 0.9322
517.80 0.9317
517.90 0.9311
518.00 0.9306
518.10 0.93
518.20 0.9295
518.30 0.9289
518.40 0.9283
518.50 0.9278
518.60 0.9272
518.70 0.9267
518.80 0.9261
518.90 0.9256
519.00 0.925
519.10 0.9244
519.20 0.9239
519.30 0.9233
519.40 0.9228
519.50 0.9222
519.60 0.9217
519.70 0.9211
519.80 0.9206
519.90 0.92
520.00 0.9194
520.10 0.9189
520.20 0.9183
520.30 0.9178
520.40 0.9172
520.50 0.9167
520.60 0.9161
520.70 0.9156
520.80 0.915
520.90 0.9145
521.00 0.9139
521.10 0.9134
521.20 0.9128
521.30 0.9123
521.40 0.9117
521.50 0.9112
521.60 0.9106
521.70 0.9101
521.80 0.9095
521.90 0.9089
522.00 0.9084
522.10 0.9078
522.20 0.9073
522.30 0.9067
522.40 0.9062
522.50 0.9056
522.60 0.9051
522.70 0.9045
522.80 0.904
522.90 0.9034
523.00 0.9029
523.10 0.9023
523.20 0.9018
523.30 0.9012
523.40 0.9007
523.50 0.9001
523.60 0.8996
523.70 0.899
523.80 0.8984
523.90 0.8979
524.00 0.8973
524.10 0.8968
524.20 0.8962
524.30 0.8957
524.40 0.8951
524.50 0.8946
524.60 0.894
524.70 0.8935
524.80 0.8929
524.90 0.8924
525.00 0.8918
525.10 0.8913
525.20 0.8907
525.30 0.8902
525.40 0.8896
525.50 0.8891
525.60 0.8885
525.70 0.888
525.80 0.8874
525.90 0.8869
526.00 0.8863
526.10 0.8858
526.20 0.8852
526.30 0.8847
526.40 0.8841
526.50 0.8836
526.60 0.883
526.70 0.8825
526.80 0.8819
526.90 0.8814
527.00 0.8808
527.10 0.8803
527.20 0.8797
527.30 0.8792
527.40 0.8787
527.50 0.8781
527.60 0.8776
527.70 0.877
527.80 0.8765
527.90 0.876
528.00 0.8754
528.10 0.8749
528.20 0.8743
528.30 0.8738
528.40 0.8733
528.50 0.8727
528.60 0.8722
528.70 0.8716
528.80 0.8711
528.90 0.8705
529.00 0.87
529.10 0.8694
529.20 0.8689
529.30 0.8684
529.40 0.8678
529.50 0.8673
529.60 0.8667
529.70 0.8662
529.80 0.8657
529.90 0.8651
530.00 0.8646
530.10 0.864
530.20 0.8635
530.30 0.863
530.40 0.8624
530.50 0.8619
530.60 0.8614
530.70 0.8608
530.80 0.8603
530.90 0.8597
531.00 0.8592
531.10 0.8587
531.20 0.8581
531.30 0.8576
531.40 0.8571
531.50 0.8566
531.60 0.856
531.70 0.8555
531.80 0.855
531.90 0.8545
532.00 0.8539
532.10 0.8534
532.20 0.8529
532.30 0.8523
532.40 0.8518
532.50 0.8513
532.60 0.8507
532.70 0.8502
532.80 0.8496
532.90 0.8491
533.00 0.8486
533.10 0.848
533.20 0.8475
533.30 0.847
533.40 0.8465
533.50 0.8459
533.60 0.8454
533.70 0.8449
533.80 0.8443
533.90 0.8438
534.00 0.8433
534.10 0.8428
534.20 0.8422
534.30 0.8417
534.40 0.8412
534.50 0.8407
534.60 0.8401
534.70 0.8396
534.80 0.8391
534.90 0.8386
535.00 0.8381
535.10 0.8375
535.20 0.837
535.30 0.8365
535.40 0.836
535.50 0.8354
535.60 0.8349
535.70 0.8344
535.80 0.8339
535.90 0.8334
536.00 0.8329
536.10 0.8323
536.20 0.8318
536.30 0.8313
536.40 0.8308
536.50 0.8303
536.60 0.8297
536.70 0.8292
536.80 0.8287
536.90 0.8282
537.00 0.8277
537.10 0.8272
537.20 0.8267
537.30 0.8261
537.40 0.8256
537.50 0.8251
537.60 0.8246
537.70 0.8241
537.80 0.8236
537.90 0.8231
538.00 0.8226
538.10 0.8221
538.20 0.8216
538.30 0.8211
538.40 0.8206
538.50 0.82
538.60 0.8195
538.70 0.819
538.80 0.8185
538.90 0.818
539.00 0.8175
539.10 0.817
539.20 0.8165
539.30 0.816
539.40 0.8155
539.50 0.815
539.60 0.8145
539.70 0.8139
539.80 0.8134
539.90 0.8129
540.00 0.8124
540.10 0.8119
540.20 0.8114
540.30 0.8109
540.40 0.8104
540.50 0.8099
540.60 0.8094
540.70 0.8089
540.80 0.8084
540.90 0.8079
541.00 0.8074
541.10 0.8069
541.20 0.8064
541.30 0.8059
541.40 0.8054
541.50 0.8049
541.60 0.8044
541.70 0.8039
541.80 0.8034
541.90 0.8029
542.00 0.8024
542.10 0.8019
542.20 0.8014
542.30 0.8009
542.40 0.8004
542.50 0.7999
542.60 0.7994
542.70 0.7989
542.80 0.7984
542.90 0.7979
543.00 0.7974
543.10 0.7969
543.20 0.7964
543.30 0.7959
543.40 0.7954
543.50 0.7949
543.60 0.7944
543.70 0.794
543.80 0.7935
543.90 0.793
544.00 0.7925
544.10 0.792
544.20 0.7915
544.30 0.791
544.40 0.7905
544.50 0.79
544.60 0.7896
544.70 0.7891
544.80 0.7886
544.90 0.7881
545.00 0.7876
545.10 0.7871
545.20 0.7866
545.30 0.7861
545.40 0.7856
545.50 0.7852
545.60 0.7847
545.70 0.7842
545.80 0.7837
545.90 0.7832
546.00 0.7828
546.10 0.7823
546.20 0.7818
546.30 0.7814
546.40 0.781
546.50 0.7806
546.60 0.7802
546.70 0.7798
546.80 0.7794
546.90 0.779
547.00 0.7786
547.10 0.7782
547.20 0.7778
547.30 0.7773
547.40 0.7768
547.50 0.7763
547.60 0.7758
547.70 0.7754
547.80 0.7749
547.90 0.7744
548.00 0.7739
548.10 0.7734
548.20 0.773
548.30 0.7725
548.40 0.772
548.50 0.7715
548.60 0.771
548.70 0.7706
548.80 0.7701
548.90 0.7696
549.00 0.7691
549.10 0.7686
549.20 0.7682
549.30 0.7677
549.40 0.7672
549.50 0.7667
549.60 0.7663
549.70 0.7658
549.80 0.7653
549.90 0.7648
550.00 0.7643
550.10 0.7639
550.20 0.7634
550.30 0.7629
550.40 0.7624
550.50 0.762
550.60 0.7615
550.70 0.761
550.80 0.7606
550.90 0.7601
551.00 0.7596
551.10 0.7591
551.20 0.7587
551.30 0.7582
551.40 0.7577
551.50 0.7573
551.60 0.7568
551.70 0.7563
551.80 0.7559
551.90 0.7554
552.00 0.7549
552.10 0.7545
552.20 0.754
552.30 0.7535
552.40 0.7531
552.50 0.7526
552.60 0.7521
552.70 0.7517
552.80 0.7512
552.90 0.7507
553.00 0.7503
553.10 0.7498
553.20 0.7493
553.30 0.7489
553.40 0.7484
553.50 0.748
553.60 0.7475
553.70 0.7471
553.80 0.7466
553.90 0.7461
554.00 0.7457
554.10 0.7452
554.20 0.7448
554.30 0.7443
554.40 0.7438
554.50 0.7434
554.60 0.7429
554.70 0.7425
554.80 0.742
554.90 0.7416
555.00 0.7411
555.10 0.7407
555.20 0.7402
555.30 0.7398
555.40 0.7393
555.50 0.7388
555.60 0.7384
555.70 0.7379
555.80 0.7375
555.90 0.737
556.00 0.7366
556.10 0.7361
556.20 0.7357
556.30 0.7352
556.40 0.7348
556.50 0.7343
556.60 0.7339
556.70 0.7334
556.80 0.733
556.90 0.7325
557.00 0.7321
557.10 0.7316
557.20 0.7312
557.30 0.7307
557.40 0.7303
557.50 0.7298
557.60 0.7294
557.70 0.7289
557.80 0.7285
557.90 0.728
558.00 0.7276
558.10 0.7271
558.20 0.7267
558.30 0.7263
558.40 0.7258
558.50 0.7254
558.60 0.7249
558.70 0.7245
558.80 0.724
558.90 0.7236
559.00 0.7231
559.10 0.7227
559.20 0.7223
559.30 0.7218
559.40 0.7214
559.50 0.7209
559.60 0.7205
559.70 0.7201
559.80 0.7196
559.90 0.7192
560.00 0.7188
560.10 0.7183
560.20 0.7179
560.30 0.7175
560.40 0.717
560.50 0.7166
560.60 0.7161
560.70 0.7157
560.80 0.7153
560.90 0.7148
561.00 0.7144
561.10 0.7139
561.20 0.7135
561.30 0.7131
561.40 0.7126
561.50 0.7122
561.60 0.7118
561.70 0.7113
561.80 0.7109
561.90 0.7105
562.00 0.7101
562.10 0.7096
562.20 0.7092
562.30 0.7088
562.40 0.7083
562.50 0.7079
562.60 0.7075
562.70 0.707
562.80 0.7066
562.90 0.7062
563.00 0.7057
563.10 0.7053
563.20 0.7049
563.30 0.7044
563.40 0.704
563.50 0.7036
563.60 0.7032
563.70 0.7027
563.80 0.7023
563.90 0.7019
564.00 0.7015
564.10 0.701
564.20 0.7006
564.30 0.7002
564.40 0.6998
564.50 0.6993
564.60 0.6989
564.70 0.6985
564.80 0.6981
564.90 0.6976
565.00 0.6972
565.10 0.6968
565.20 0.6964
565.30 0.696
565.40 0.6955
565.50 0.6951
565.60 0.6947
565.70 0.6943
565.80 0.6939
565.90 0.6934
566.00 0.693
566.10 0.6926
566.20 0.6922
566.30 0.6918
566.40 0.6913
566.50 0.6909
566.60 0.6905
566.70 0.6901
566.80 0.6897
566.90 0.6893
567.00 0.6888
567.10 0.6884
567.20 0.688
567.30 0.6876
567.40 0.6872
567.50 0.6868
567.60 0.6864
567.70 0.686
567.80 0.6855
567.90 0.6851
568.00 0.6847
568.10 0.6843
568.20 0.6839
568.30 0.6835
568.40 0.6831
568.50 0.6827
568.60 0.6823
568.70 0.6818
568.80 0.6814
568.90 0.681
569.00 0.6806
569.10 0.6802
569.20 0.6798
569.30 0.6794
569.40 0.679
569.50 0.6786
569.60 0.6781
569.70 0.6777
569.80 0.6773
569.90 0.6769
570.00 0.6765
570.10 0.6761
570.20 0.6757
570.30 0.6753
570.40 0.6749
570.50 0.6745
570.60 0.6741
570.70 0.6737
570.80 0.6733
570.90 0.6729
571.00 0.6725
571.10 0.6721
571.20 0.6717
571.30 0.6713
571.40 0.6709
571.50 0.6705
571.60 0.6701
571.70 0.6697
571.80 0.6693
571.90 0.6689
572.00 0.6685
572.10 0.6681
572.20 0.6677
572.30 0.6673
572.40 0.6669
572.50 0.6665
572.60 0.6661
572.70 0.6656
572.80 0.6652
572.90 0.6648
573.00 0.6644
573.10 0.664
573.20 0.6636
573.30 0.6632
573.40 0.6629
573.50 0.6625
573.60 0.6621
573.70 0.6617
573.80 0.6613
573.90 0.6609
574.00 0.6605
574.10 0.6601
574.20 0.6597
574.30 0.6593
574.40 0.6589
574.50 0.6585
574.60 0.6581
574.70 0.6577
574.80 0.6573
574.90 0.6569
575.00 0.6566
575.10 0.6562
575.20 0.6558
575.30 0.6554
575.40 0.655
575.50 0.6546
575.60 0.6542
575.70 0.6538
575.80 0.6534
575.90 0.653
576.00 0.6526
576.10 0.6523
576.20 0.6519
576.30 0.6515
576.40 0.6511
576.50 0.6507
576.60 0.6503
576.70 0.6499
576.80 0.6495
576.90 0.6492
577.00 0.6488
577.10 0.6484
577.20 0.648
577.30 0.6476
577.40 0.6472
577.50 0.6469
577.60 0.6465
577.70 0.6461
577.80 0.6457
577.90 0.6453
578.00 0.645
578.10 0.6446
578.20 0.6442
578.30 0.6438
578.40 0.6434
578.50 0.643
578.60 0.6427
578.70 0.6423
578.80 0.6419
578.90 0.6415
579.00 0.6411
579.10 0.6407
579.20 0.6404
579.30 0.64
579.40 0.6396
579.50 0.6392
579.60 0.6389
579.70 0.6385
579.80 0.6381
579.90 0.6377
580.00 0.6374
580.10 0.637
580.20 0.6366
580.30 0.6362
580.40 0.6359
580.50 0.6355
580.60 0.6351
580.70 0.6347
580.80 0.6343
580.90 0.634
581.00 0.6336
581.10 0.6332
581.20 0.6328
581.30 0.6325
581.40 0.6321
581.50 0.6317
581.60 0.6313
581.70 0.631
581.80 0.6306
581.90 0.6302
582.00 0.6299
582.10 0.6295
582.20 0.6291
582.30 0.6288
582.40 0.6284
582.50 0.628
582.60 0.6276
582.70 0.6273
582.80 0.6269
582.90 0.6265
583.00 0.6262
583.10 0.6258
583.20 0.6254
583.30 0.6251
583.40 0.6247
583.50 0.6243
583.60 0.624
583.70 0.6236
583.80 0.6232
583.90 0.6229
584.00 0.6225
584.10 0.6221
584.20 0.6218
584.30 0.6214
584.40 0.621
584.50 0.6207
584.60 0.6203
584.70 0.6199
584.80 0.6196
584.90 0.6192
585.00 0.6189
585.10 0.6185
585.20 0.6181
585.30 0.6178
585.40 0.6174
585.50 0.617
585.60 0.6167
585.70 0.6163
585.80 0.616
585.90 0.6156
586.00 0.6152
586.10 0.6149
586.20 0.6145
586.30 0.6141
586.40 0.6138
586.50 0.6134
586.60 0.6131
586.70 0.6127
586.80 0.6123
586.90 0.612
587.00 0.6116
587.10 0.6113
587.20 0.6109
587.30 0.6105
587.40 0.6102
587.50 0.6098
587.60 0.6095
587.70 0.6091
587.80 0.6088
587.90 0.6084
588.00 0.608
588.10 0.6077
588.20 0.6073
588.30 0.607
588.40 0.6066
588.50 0.6063
588.60 0.6059
588.70 0.6056
588.80 0.6052
588.90 0.6049
589.00 0.6045
589.10 0.6042
589.20 0.6038
589.30 0.6035
589.40 0.6031
589.50 0.6028
589.60 0.6024
589.70 0.602
589.80 0.6017
589.90 0.6013
590.00 0.601
590.10 0.6006
590.20 0.6003
590.30 0.5999
590.40 0.5996
590.50 0.5992
590.60 0.5989
590.70 0.5986
590.80 0.5982
590.90 0.5979
591.00 0.5975
591.10 0.5972
591.20 0.5968
591.30 0.5965
591.40 0.5961
591.50 0.5958
591.60 0.5954
591.70 0.5951
591.80 0.5947
591.90 0.5944
592.00 0.594
592.10 0.5937
592.20 0.5933
592.30 0.593
592.40 0.5926
592.50 0.5923
592.60 0.592
592.70 0.5916
592.80 0.5913
592.90 0.5909
593.00 0.5906
593.10 0.5902
593.20 0.5899
593.30 0.5896
593.40 0.5892
593.50 0.5889
593.60 0.5885
593.70 0.5882
593.80 0.5879
593.90 0.5875
594.00 0.5872
594.10 0.5868
594.20 0.5865
594.30 0.5862
594.40 0.5858
594.50 0.5855
594.60 0.5851
594.70 0.5848
594.80 0.5845
594.90 0.5841
595.00 0.5838
595.10 0.5834
595.20 0.5831
595.30 0.5828
595.40 0.5824
595.50 0.5821
595.60 0.5818
595.70 0.5814
595.80 0.5811
595.90 0.5808
596.00 0.5804
596.10 0.5801
596.20 0.5796
596.30 0.5792
596.40 0.5787
596.50 0.5782
596.60 0.5777
596.70 0.5772
596.80 0.5767
596.90 0.5762
597.00 0.5758
597.10 0.5753
597.20 0.5749
597.30 0.5745
597.40 0.5742
597.50 0.5739
597.60 0.5735
597.70 0.5732
597.80 0.5729
597.90 0.5725
598.00 0.5722
598.10 0.5718
598.20 0.5715
598.30 0.5712
598.40 0.5709
598.50 0.5705
598.60 0.5702
598.70 0.5699
598.80 0.5695
598.90 0.5692
599.00 0.5689
599.10 0.5685
599.20 0.5682
599.30 0.5679
599.40 0.5675
599.50 0.5672
599.60 0.5669
599.70 0.5665
599.80 0.5662
599.90 0.5659
600.00 0.5655
600.10 0.5652
600.20 0.5649
600.30 0.5645
600.40 0.5642
600.50 0.5639
600.60 0.5636
600.70 0.5632
600.80 0.5629
600.90 0.5626
601.00 0.5623
601.10 0.5619
601.20 0.5616
601.30 0.5613
601.40 0.5609
601.50 0.5606
601.60 0.5603
601.70 0.56
601.80 0.5596
601.90 0.5593
602.00 0.559
602.10 0.5586
602.20 0.5583
602.30 0.558
602.40 0.5577
602.50 0.5573
602.60 0.557
602.70 0.5567
602.80 0.5564
602.90 0.556
603.00 0.5557
603.10 0.5554
603.20 0.5551
603.30 0.5548
603.40 0.5544
603.50 0.5541
603.60 0.5538
603.70 0.5534
603.80 0.5531
603.90 0.5528
604.00 0.5525
604.10 0.5521
604.20 0.5518
604.30 0.5515
604.40 0.5512
604.50 0.5509
604.60 0.5505
604.70 0.5502
604.80 0.5499
604.90 0.5496
605.00 0.5493
605.10 0.5489
605.20 0.5486
605.30 0.5483
605.40 0.548
605.50 0.5477
605.60 0.5473
605.70 0.547
605.80 0.5467
605.90 0.5464
606.00 0.546
606.10 0.5457
606.20 0.5454
606.30 0.5451
606.40 0.5448
606.50 0.5445
606.60 0.5441
606.70 0.5438
606.80 0.5435
606.90 0.5432
607.00 0.5429
607.10 0.5426
607.20 0.5422
607.30 0.5419
607.40 0.5416
607.50 0.5413
607.60 0.541
607.70 0.5406
607.80 0.5403
607.90 0.54
608.00 0.5397
608.10 0.5394
608.20 0.5391
608.30 0.5387
608.40 0.5384
608.50 0.5381
608.60 0.5378
608.70 0.5375
608.80 0.5372
608.90 0.5369
609.00 0.5366
609.10 0.5363
609.20 0.5359
609.30 0.5356
609.40 0.5353
609.50 0.535
609.60 0.5347
609.70 0.5344
609.80 0.534
609.90 0.5337
610.00 0.5334
610.10 0.5331
610.20 0.5328
610.30 0.5325
610.40 0.5322
610.50 0.5319
610.60 0.5316
610.70 0.5312
610.80 0.5309
610.90 0.5306
611.00 0.5303
611.10 0.53
611.20 0.5297
611.30 0.5294
611.40 0.5291
611.50 0.5288
611.60 0.5284
611.70 0.5281
611.80 0.5278
611.90 0.5275
612.00 0.5272
612.10 0.5269
612.20 0.5266
612.30 0.5263
612.40 0.526
612.50 0.5257
612.60 0.5254
612.70 0.5251
612.80 0.5248
612.90 0.5244
613.00 0.5241
613.10 0.5238
613.20 0.5235
613.30 0.5232
613.40 0.5229
613.50 0.5226
613.60 0.5223
613.70 0.522
613.80 0.5217
613.90 0.5214
614.00 0.5211
614.10 0.5208
614.20 0.5204
614.30 0.5201
614.40 0.5198
614.50 0.5195
614.60 0.5192
614.70 0.5189
614.80 0.5186
614.90 0.5183
615.00 0.518
615.10 0.5177
615.20 0.5174
615.30 0.5171
615.40 0.5168
615.50 0.5165
615.60 0.5162
615.70 0.5159
615.80 0.5156
615.90 0.5152
616.00 0.5149
616.10 0.5146
616.20 0.5143
616.30 0.514
616.40 0.5137
616.50 0.5134
616.60 0.5131
616.70 0.5128
616.80 0.5125
616.90 0.5122
617.00 0.5119
617.10 0.5116
617.20 0.5113
617.30 0.511
617.40 0.5107
617.50 0.5104
617.60 0.5101
617.70 0.5098
617.80 0.5095
617.90 0.5092
618.00 0.5088
618.10 0.5085
618.20 0.5082
618.30 0.5079
618.40 0.5076
618.50 0.5073
618.60 0.507
618.70 0.5067
618.80 0.5064
618.90 0.5061
619.00 0.5058
619.10 0.5055
619.20 0.5052
619.30 0.5049
619.40 0.5046
619.50 0.5043
619.60 0.504
619.70 0.5037
619.80 0.5034
619.90 0.5031
620.00 0.5028
620.10 0.5025
620.20 0.5022
620.30 0.5019
620.40 0.5016
620.50 0.5013
620.60 0.501
620.70 0.5007
620.80 0.5004
620.90 0.5001
621.00 0.4998
621.10 0.4995
621.20 0.4992
621.30 0.4988
621.40 0.4985
621.50 0.4982
621.60 0.4979
621.70 0.4976
621.80 0.4973
621.90 0.497
622.00 0.4967
622.10 0.4964
622.20 0.4961
622.30 0.4958
622.40 0.4955
622.50 0.4952
622.60 0.4949
622.70 0.4946
622.80 0.4943
622.90 0.494
623.00 0.4937
623.10 0.4934
623.20 0.4931
623.30 0.4928
623.40 0.4925
623.50 0.4922
623.60 0.4919
623.70 0.4916
623.80 0.4913
623.90 0.491
624.00 0.4907
624.10 0.4904
624.20 0.4901
624.30 0.4898
624.40 0.4895
624.50 0.4891
624.60 0.4888
624.70 0.4885
624.80 0.4882
624.90 0.4879
625.00 0.4876
625.10 0.4873
625.20 0.487
625.30 0.4867
625.40 0.4864
625.50 0.4861
625.60 0.4858
625.70 0.4855
625.80 0.4852
625.90 0.4849
626.00 0.4846
626.10 0.4843
626.20 0.484
626.30 0.4837
626.40 0.4834
626.50 0.4831
626.60 0.4827
626.70 0.4824
626.80 0.4821
626.90 0.4818
627.00 0.4815
627.10 0.4812
627.20 0.4809
627.30 0.4806
627.40 0.4803
627.50 0.48
627.60 0.4797
627.70 0.4794
627.80 0.4791
627.90 0.4788
628.00 0.4785
628.10 0.4781
628.20 0.4778
628.30 0.4775
628.40 0.4772
628.50 0.4769
628.60 0.4766
628.70 0.4763
628.80 0.476
628.90 0.4757
629.00 0.4754
629.10 0.475
629.20 0.4747
629.30 0.4744
629.40 0.4741
629.50 0.4738
629.60 0.4735
629.70 0.4732
629.80 0.4729
629.90 0.4725
630.00 0.4722
630.10 0.4719
630.20 0.4716
630.30 0.4713
630.40 0.471
630.50 0.4706
630.60 0.4703
630.70 0.47
630.80 0.4697
630.90 0.4694
631.00 0.4691
631.10 0.4687
631.20 0.4684
631.30 0.4681
631.40 0.4678
631.50 0.4675
631.60 0.4671
631.70 0.4668
631.80 0.4665
631.90 0.4662
632.00 0.4658
632.10 0.4655
632.20 0.4652
632.30 0.4649
632.40 0.4646
632.50 0.4642
632.60 0.4639
632.70 0.4636
632.80 0.4632
632.90 0.4629
633.00 0.4626
633.10 0.4622
633.20 0.4619
633.30 0.4616
633.40 0.4613
633.50 0.4609
633.60 0.4606
633.70 0.4602
633.80 0.4599
633.90 0.4596
634.00 0.4592
634.10 0.4589
634.20 0.4586
634.30 0.4582
634.40 0.4579
634.50 0.4575
634.60 0.4572
634.70 0.4568
634.80 0.4565
634.90 0.4561
635.00 0.4558
635.10 0.4554
635.20 0.4551
635.30 0.4548
635.40 0.4544
635.50 0.454
635.60 0.4537
635.70 0.4533
635.80 0.453
635.90 0.4526
636.00 0.4522
636.10 0.4519
636.20 0.4515
636.30 0.4512
636.40 0.4508
636.50 0.4504
636.60 0.4501
636.70 0.4497
636.80 0.4493
636.90 0.4489
637.00 0.4486
637.10 0.4482
637.20 0.4478
637.30 0.4475
637.40 0.4471
637.50 0.4467
637.60 0.4463
637.70 0.4459
637.80 0.4455
637.90 0.4451
638.00 0.4447
638.10 0.4444
638.20 0.444
638.30 0.4436
638.40 0.4432
638.50 0.4428
638.60 0.4424
638.70 0.442
638.80 0.4415
638.90 0.4411
639.00 0.4407
639.10 0.4403
639.20 0.4399
639.30 0.4395
639.40 0.4391
639.50 0.4387
639.60 0.4382
639.70 0.4378
639.80 0.4374
639.90 0.4369
640.00 0.4365
640.10 0.4361
640.20 0.4356
640.30 0.4352
640.40 0.4348
640.50 0.4343
640.60 0.4338
640.70 0.4334
640.80 0.4329
640.90 0.4325
641.00 0.432
641.10 0.4316
641.20 0.4311
641.30 0.4306
641.40 0.4302
641.50 0.4297
641.60 0.4292
641.70 0.4287
641.80 0.4282
641.90 0.4277
642.00 0.4272
642.10 0.4267
642.20 0.4263
642.30 0.4258
642.40 0.4252
642.50 0.4247
642.60 0.4242
642.70 0.4236
642.80 0.4231
642.90 0.4226
643.00 0.4221
643.10 0.4215
643.20 0.421
643.30 0.4205
643.40 0.4199
643.50 0.4193
643.60 0.4188
643.70 0.4182
643.80 0.4176
643.90 0.417
644.00 0.4165
644.10 0.4159
644.20 0.4153
644.30 0.4147
644.40 0.4141
644.50 0.4135
644.60 0.4129
644.70 0.4122
644.80 0.4116
644.90 0.411
645.00 0.4103
645.10 0.4097
645.20 0.4091
645.30 0.4084
645.40 0.4078
645.50 0.4071
645.60 0.4064
645.70 0.4057
645.80 0.405
645.90 0.4043
646.00 0.4036
646.10 0.4029
646.20 0.4022
646.30 0.4015
646.40 0.4008
646.50 0.4
646.60 0.3992
646.70 0.3985
646.80 0.3977
646.90 0.3969
647.00 0.3962
647.10 0.3954
647.20 0.3946
647.30 0.3938
647.40 0.393
647.50 0.3921
647.60 0.3912
647.70 0.3904
647.80 0.3895
647.90 0.3886
648.00 0.3878
648.10 0.3869
648.20 0.386
648.30 0.3851
648.40 0.3842
648.50 0.3832
648.60 0.3822
648.70 0.3812
648.80 0.3802
648.90 0.3792
649.00 0.3782
649.10 0.3772
649.20 0.3762
649.30 0.3752
649.40 0.374
649.50 0.3729
649.60 0.3718
649.70 0.3706
649.80 0.3695
649.90 0.3684
650.00 0.3673
650.10 0.3661
650.20 0.365
650.30 0.3638
650.40 0.3625
650.50 0.3612
650.60 0.3599
650.70 0.3586
650.80 0.3573
650.90 0.356
651.00 0.3547
651.10 0.3534
651.20 0.3521
651.30 0.3507
651.40 0.3492
651.50 0.3477
651.60 0.3462
651.70 0.3447
651.80 0.3432
651.90 0.3417
652.00 0.3402
652.10 0.3387
652.20 0.3373
652.30 0.3357
652.40 0.334
652.50 0.3323
652.60 0.3305
652.70 0.3288
652.80 0.3271
652.90 0.3253
653.00 0.3236
653.10 0.3219
653.20 0.3202
653.30 0.3184
653.40 0.3163
653.50 0.3143
653.60 0.3122
653.70 0.3102
653.80 0.3081
653.90 0.306
654.00 0.304
654.10 0.3019
654.20 0.2999
654.30 0.2978
654.40 0.2955
654.50 0.2931
654.60 0.2908
654.70 0.2885
654.80 0.2861
654.90 0.2834
655.00 0.2807
655.10 0.2781
655.20 0.2754
655.30 0.2727
655.40 0.2697
655.50 0.2666
655.60 0.2631
655.70 0.2595
655.80 0.2551
655.90 0.2501
656.00 0.2423
656.10 0.2336
656.20 0.211
656.30 0.1891
656.40 0.2227
656.50 0.237
656.60 0.2446
656.70 0.2515
656.80 0.2557
656.90 0.2597
657.00 0.2629
657.10 0.266
657.20 0.2688
657.30 0.2714
657.40 0.2738
657.50 0.2762
657.60 0.2786
657.70 0.281
657.80 0.2833
657.90 0.2854
658.00 0.2874
658.10 0.2895
658.20 0.2915
658.30 0.2935
658.40 0.2953
658.50 0.297
658.60 0.2987
658.70 0.3005
658.80 0.3022
658.90 0.3039
659.00 0.3057
659.10 0.3074
659.20 0.3091
659.30 0.3108
659.40 0.3122
659.50 0.3136
659.60 0.315
659.70 0.3163
659.80 0.3177
659.90 0.3191
660.00 0.3205
660.10 0.3218
660.20 0.3232
660.30 0.3245
660.40 0.3257
660.50 0.3268
660.60 0.3279
660.70 0.329
660.80 0.3301
660.90 0.3313
661.00 0.3324
661.10 0.3335
661.20 0.3346
661.30 0.3357
661.40 0.3366
661.50 0.3375
661.60 0.3384
661.70 0.3393
661.80 0.3402
661.90 0.3411
662.00 0.342
662.10 0.3429
662.20 0.3438
662.30 0.3447
662.40 0.3454
662.50 0.3461
662.60 0.3468
662.70 0.3475
662.80 0.3483
662.90 0.349
663.00 0.3497
663.10 0.3504
663.20 0.3511
663.30 0.3518
663.40 0.3523
663.50 0.3529
663.60 0.3535
663.70 0.354
663.80 0.3546
663.90 0.3551
664.00 0.3557
664.10 0.3562
664.20 0.3568
664.30 0.3573
664.40 0.3578
664.50 0.3582
664.60 0.3586
664.70 0.359
664.80 0.3594
664.90 0.3599
665.00 0.3603
665.10 0.3607
665.20 0.3611
665.30 0.3615
665.40 0.3618
665.50 0.3621
665.60 0.3625
665.70 0.3628
665.80 0.3631
665.90 0.3634
666.00 0.3637
666.10 0.364
666.20 0.3643
666.30 0.3646
666.40 0.3648
666.50 0.3651
666.60 0.3653
666.70 0.3655
666.80 0.3658
666.90 0.366
667.00 0.3662
667.10 0.3665
667.20 0.3667
667.30 0.3669
667.40 0.3671
667.50 0.3672
667.60 0.3674
667.70 0.3676
667.80 0.3677
667.90 0.3679
668.00 0.368
668.10 0.3682
668.20 0.3684
668.30 0.3685
668.40 0.3686
668.50 0.3687
668.60 0.3688
668.70 0.3689
668.80 0.369
668.90 0.3691
669.00 0.3692
669.10 0.3693
669.20 0.3695
669.30 0.3695
669.40 0.3696
669.50 0.3697
669.60 0.3697
669.70 0.3698
669.80 0.3698
669.90 0.3699
670.00 0.3699
670.10 0.37
670.20 0.3701
670.30 0.3701
670.40 0.3701
670.50 0.3701
670.60 0.3701
670.70 0.3702
670.80 0.3702
670.90 0.3702
671.00 0.3702
671.10 0.3702
671.20 0.3702
671.30 0.3703
671.40 0.3702
671.50 0.3702
671.60 0.3702
671.70 0.3702
671.80 0.3702
671.90 0.3702
672.00 0.3701
672.10 0.3701
672.20 0.3701
672.30 0.3701
672.40 0.3701
672.50 0.37
672.60 0.37
672.70 0.3699
672.80 0.3699
672.90 0.3698
673.00 0.3698
673.10 0.3698
673.20 0.3697
673.30 0.3697
673.40 0.3696
673.50 0.3695
673.60 0.3695
673.70 0.3694
673.80 0.3693
673.90 0.3693
674.00 0.3692
674.10 0.3692
674.20 0.3691
674.30 0.369
674.40 0.3689
674.50 0.3689
674.60 0.3688
674.70 0.3687
674.80 0.3686
674.90 0.3685
675.00 0.3684
675.10 0.3684
675.20 0.3683
675.30 0.3682
675.40 0.3681
675.50 0.368
675.60 0.3679
675.70 0.3678
675.80 0.3677
675.90 0.3676
676.00 0.3675
676.10 0.3674
676.20 0.3673
676.30 0.3672
676.40 0.3671
676.50 0.367
676.60 0.3669
676.70 0.3668
676.80 0.3667
676.90 0.3665
677.00 0.3664
677.10 0.3663
677.20 0.3662
677.30 0.3661
677.40 0.366
677.50 0.3659
677.60 0.3657
677.70 0.3656
677.80 0.3655
677.90 0.3654
678.00 0.3653
678.10 0.3651
678.20 0.365
678.30 0.3649
678.40 0.3648
678.50 0.3646
678.60 0.3645
678.70 0.3644
678.80 0.3643
678.90 0.3641
679.00 0.364
679.10 0.3639
679.20 0.3637
679.30 0.3636
679.40 0.3635
679.50 0.3633
679.60 0.3632
679.70 0.3631
679.80 0.3629
679.90 0.3628
680.00 0.3627
680.10 0.3625
680.20 0.3624
680.30 0.3622
680.40 0.3621
680.50 0.362
680.60 0.3618
680.70 0.3617
680.80 0.3615
680.90 0.3614
681.00 0.3613
681.10 0.3611
681.20 0.361
681.30 0.3608
681.40 0.3607
681.50 0.3605
681.60 0.3604
681.70 0.3602
681.80 0.3601
681.90 0.36
682.00 0.3598
682.10 0.3597
682.20 0.3595
682.30 0.3594
682.40 0.3592
682.50 0.3591
682.60 0.3589
682.70 0.3588
682.80 0.3586
682.90 0.3585
683.00 0.3583
683.10 0.3582
683.20 0.358
683.30 0.3579
683.40 0.3577
683.50 0.3576
683.60 0.3574
683.70 0.3573
683.80 0.3571
683.90 0.357
684.00 0.3568
684.10 0.3566
684.20 0.3565
684.30 0.3563
684.40 0.3562
684.50 0.356
684.60 0.3559
684.70 0.3557
684.80 0.3556
684.90 0.3554
685.00 0.3553
685.10 0.3551
685.20 0.3549
685.30 0.3548
685.40 0.3546
685.50 0.3545
685.60 0.3543
685.70 0.3542
685.80 0.354
685.90 0.3538
686.00 0.3537
686.10 0.3535
686.20 0.3534
686.30 0.3532
686.40 0.3531
686.50 0.3529
686.60 0.3527
686.70 0.3526
686.80 0.3524
686.90 0.3523
687.00 0.3521
687.10 0.352
687.20 0.3518
687.30 0.3516
687.40 0.3515
687.50 0.3513
687.60 0.3512
687.70 0.351
687.80 0.3508
687.90 0.3507
688.00 0.3505
688.10 0.3504
688.20 0.3502
688.30 0.35
688.40 0.3499
688.50 0.3497
688.60 0.3496
688.70 0.3494
688.80 0.3492
688.90 0.3491
689.00 0.3489
689.10 0.3488
689.20 0.3486
689.30 0.3484
689.40 0.3483
689.50 0.3481
689.60 0.3479
689.70 0.3478
689.80 0.3476
689.90 0.3474
690.00 0.3473
690.10 0.3471
690.20 0.347
690.30 0.3468
690.40 0.3466
690.50 0.3465
690.60 0.3463
690.70 0.3461
690.80 0.346
690.90 0.3458
691.00 0.3456
691.10 0.3455
691.20 0.3453
691.30 0.3451
691.40 0.345
691.50 0.3448
691.60 0.3447
691.70 0.3445
691.80 0.3443
691.90 0.3442
692.00 0.344
692.10 0.3438
692.20 0.3437
692.30 0.3435
692.40 0.3433
692.50 0.3432
692.60 0.343
692.70 0.3429
692.80 0.3427
692.90 0.3425
693.00 0.3424
693.10 0.3422
693.20 0.342
693.30 0.3419
693.40 0.3417
693.50 0.3416
693.60 0.3414
693.70 0.3412
693.80 0.3411
693.90 0.3409
694.00 0.3407
694.10 0.3406
694.20 0.3404
694.30 0.3403
694.40 0.3401
694.50 0.3399
694.60 0.3398
694.70 0.3396
694.80 0.3394
694.90 0.3393
695.00 0.3391
695.10 0.339
695.20 0.3388
695.30 0.3386
695.40 0.3385
695.50 0.3383
695.60 0.3382
695.70 0.338
695.80 0.3378
695.90 0.3377
696.00 0.3375
696.10 0.3374
696.20 0.3372
696.30 0.337
696.40 0.3369
696.50 0.3367
696.60 0.3366
696.70 0.3364
696.80 0.3362
696.90 0.3361
697.00 0.3359
697.10 0.3358
697.20 0.3356
697.30 0.3354
697.40 0.3353
697.50 0.3351
697.60 0.335
697.70 0.3348
697.80 0.3346
697.90 0.3345
698.00 0.3343
698.10 0.3342
698.20 0.334
698.30 0.3339
698.40 0.3337
698.50 0.3335
698.60 0.3334
698.70 0.3332
698.80 0.3331
698.90 0.3329
699.00 0.3327
699.10 0.3326
699.20 0.3324
699.30 0.3323
699.40 0.3321
699.50 0.332
699.60 0.3318
699.70 0.3316
699.80 0.3315
699.90 0.3313
700.00 0.3312
700.10 0.331
700.20 0.3309
700.30 0.3307
700.40 0.3306
700.50 0.3304
700.60 0.3302
700.70 0.3301
700.80 0.3299
700.90 0.3298
701.00 0.3296
701.10 0.3295
701.20 0.3293
701.30 0.3292
701.40 0.329
701.50 0.3289
701.60 0.3287
701.70 0.3286
701.80 0.3284
701.90 0.3283
702.00 0.3281
702.10 0.328
702.20 0.3278
702.30 0.3276
702.40 0.3275
702.50 0.3273
702.60 0.3272
702.70 0.327
702.80 0.3269
702.90 0.3267
703.00 0.3266
703.10 0.3264
703.20 0.3263
703.30 0.3261
703.40 0.326
703.50 0.3258
703.60 0.3257
703.70 0.3255
703.80 0.3254
703.90 0.3252
704.00 0.3251
704.10 0.3249
704.20 0.3248
704.30 0.3246
704.40 0.3245
704.50 0.3243
704.60 0.3242
704.70 0.324
704.80 0.3239
704.90 0.3237
705.00 0.3236
705.10 0.3234
705.20 0.3232
705.30 0.3231
705.40 0.3229
705.50 0.3228
705.60 0.3226
705.70 0.3225
705.80 0.3223
705.90 0.3221
706.00 0.322
706.10 0.3218
706.20 0.3217
706.30 0.3215
706.40 0.3214
706.50 0.3212
706.60 0.3211
706.70 0.3209
706.80 0.3207
706.90 0.3206
707.00 0.3204
707.10 0.3203
707.20 0.3201
707.30 0.32
707.40 0.3198
707.50 0.3197
707.60 0.3195
707.70 0.3193
707.80 0.3192
707.90 0.319
708.00 0.3189
708.10 0.3187
708.20 0.3186
708.30 0.3184
708.40 0.3183
708.50 0.3181
708.60 0.3179
708.70 0.3178
708.80 0.3176
708.90 0.3175
709.00 0.3173
709.10 0.3172
709.20 0.317
709.30 0.3169
709.40 0.3167
709.50 0.3166
709.60 0.3164
709.70 0.3162
709.80 0.3161
709.90 0.3159
710.00 0.3158
710.10 0.3156
710.20 0.3155
710.30 0.3153
710.40 0.3152
710.50 0.315
710.60 0.3149
710.70 0.3147
710.80 0.3146
710.90 0.3144
711.00 0.3143
711.10 0.3141
711.20 0.314
711.30 0.3138
711.40 0.3136
711.50 0.3135
711.60 0.3133
711.70 0.3132
711.80 0.313
711.90 0.3129
712.00 0.3127
712.10 0.3126
712.20 0.3124
712.30 0.3123
712.40 0.3121
712.50 0.312
712.60 0.3118
712.70 0.3117
712.80 0.3115
712.90 0.3114
713.00 0.3112
713.10 0.3111
713.20 0.3109
713.30 0.3108
713.40 0.3106
713.50 0.3105
713.60 0.3103
713.70 0.3102
713.80 0.31
713.90 0.3099
714.00 0.3097
714.10 0.3096
714.20 0.3094
714.30 0.3093
714.40 0.3091
714.50 0.309
714.60 0.3088
714.70 0.3087
714.80 0.3085
714.90 0.3084
715.00 0.3082
715.10 0.3081
715.20 0.3079
715.30 0.3078
715.40 0.3076
715.50 0.3075
715.60 0.3073
715.70 0.3072
715.80 0.3071
715.90 0.3069
716.00 0.3068
716.10 0.3066
716.20 0.3065
716.30 0.3063
716.40 0.3062
716.50 0.3061
716.60 0.3059
716.70 0.3058
716.80 0.3056
716.90 0.3055
717.00 0.3053
717.10 0.3052
717.20 0.3051
717.30 0.3049
717.40 0.3048
717.50 0.3046
717.60 0.3045
717.70 0.3044
717.80 0.3042
717.90 0.3041
718.00 0.3039
718.10 0.3038
718.20 0.3036
718.30 0.3035
718.40 0.3034
718.50 0.3032
718.60 0.3031
718.70 0.3029
718.80 0.3028
718.90 0.3027
719.00 0.3025
719.10 0.3024
719.20 0.3022
719.30 0.3021
719.40 0.3019
719.50 0.3018
719.60 0.3017
719.70 0.3015
719.80 0.3014
719.90 0.3012
720.00 0.3011
720.10 0.301
720.20 0.3008
720.30 0.3007
720.40 0.3005
720.50 0.3004
720.60 0.3002
720.70 0.3001
720.80 0.2999
720.90 0.2998
721.00 0.2996
721.10 0.2995
721.20 0.2994
721.30 0.2992
721.40 0.2991
721.50 0.2989
721.60 0.2988
721.70 0.2986
721.80 0.2985
721.90 0.2983
722.00 0.2982
722.10 0.298
722.20 0.2979
722.30 0.2978
722.40 0.2976
722.50 0.2975
722.60 0.2973
722.70 0.2972
722.80 0.297
722.90 0.2969
723.00 0.2967
723.10 0.2966
723.20 0.2965
723.30 0.2963
723.40 0.2962
723.50 0.296
723.60 0.2959
723.70 0.2957
723.80 0.2956
723.90 0.2955
724.00 0.2953
724.10 0.2952
724.20 0.295
724.30 0.2949
724.40 0.2947
724.50 0.2946
724.60 0.2944
724.70 0.2943
724.80 0.2942
724.90 0.294
725.00 0.2939
725.10 0.2937
725.20 0.2936
725.30 0.2934
725.40 0.2933
725.50 0.2932
725.60 0.293
725.70 0.2929
725.80 0.2927
725.90 0.2926
726.00 0.2925
726.10 0.2923
726.20 0.2922
726.30 0.292
726.40 0.2919
726.50 0.2918
726.60 0.2916
726.70 0.2915
726.80 0.2913
726.90 0.2912
727.00 0.291
727.10 0.2909
727.20 0.2908
727.30 0.2906
727.40 0.2905
727.50 0.2903
727.60 0.2902
727.70 0.2901
727.80 0.2899
727.90 0.2898
728.00 0.2896
728.10 0.2895
728.20 0.2894
728.30 0.2892
728.40 0.2891
728.50 0.2889
728.60 0.2888
728.70 0.2887
728.80 0.2885
728.90 0.2884
729.00 0.2882
729.10 0.2881
729.20 0.288
729.30 0.2878
729.40 0.2877
729.50 0.2876
729.60 0.2874
729.70 0.2873
729.80 0.2871
729.90 0.287
730.00 0.2869
730.10 0.2867
730.20 0.2866
730.30 0.2864
730.40 0.2863
730.50 0.2862
730.60 0.286
730.70 0.2859
730.80 0.2858
730.90 0.2856
731.00 0.2855
731.10 0.2854
731.20 0.2852
731.30 0.2851
731.40 0.2849
731.50 0.2848
731.60 0.2847
731.70 0.2845
731.80 0.2844
731.90 0.2843
732.00 0.2841
732.10 0.284
732.20 0.2839
732.30 0.2837
732.40 0.2836
732.50 0.2834
732.60 0.2833
732.70 0.2832
732.80 0.283
732.90 0.2829
733.00 0.2828
733.10 0.2826
733.20 0.2825
733.30 0.2824
733.40 0.2822
733.50 0.2821
733.60 0.282
733.70 0.2818
733.80 0.2817
733.90 0.2816
734.00 0.2814
734.10 0.2813
734.20 0.2811
734.30 0.281
734.40 0.2809
734.50 0.2807
734.60 0.2806
734.70 0.2805
734.80 0.2803
734.90 0.2802
735.00 0.2801
735.10 0.2799
735.20 0.2798
735.30 0.2797
735.40 0.2795
735.50 0.2794
735.60 0.2793
735.70 0.2791
735.80 0.279
735.90 0.2789
736.00 0.2787
736.10 0.2786
736.20 0.2785
736.30 0.2783
736.40 0.2782
736.50 0.2781
736.60 0.2779
736.70 0.2778
736.80 0.2777
736.90 0.2775
737.00 0.2774
737.10 0.2773
737.20 0.2771
737.30 0.277
737.40 0.2769
737.50 0.2767
737.60 0.2766
737.70 0.2765
737.80 0.2763
737.90 0.2762
738.00 0.2761
738.10 0.2759
738.20 0.2758
738.30 0.2757
738.40 0.2755
738.50 0.2754
738.60 0.2753
738.70 0.2752
738.80 0.275
738.90 0.2749
739.00 0.2748
739.10 0.2746
739.20 0.2745
739.30 0.2744
739.40 0.2742
739.50 0.2741
739.60 0.274
739.70 0.2738
739.80 0.2737
739.90 0.2736
740.00 0.2734
740.10 0.2733
740.20 0.2732
740.30 0.2731
740.40 0.2729
740.50 0.2728
740.60 0.2727
740.70 0.2725
740.80 0.2724
740.90 0.2723
741.00 0.2722
741.10 0.272
741.20 0.2719
741.30 0.2718
741.40 0.2716
741.50 0.2715
741.60 0.2714
741.70 0.2713
741.80 0.2711
741.90 0.271
742.00 0.2709
742.10 0.2707
742.20 0.2706
742.30 0.2705
742.40 0.2704
742.50 0.2702
742.60 0.2701
742.70 0.27
742.80 0.2698
742.90 0.2697
743.00 0.2696
743.10 0.2695
743.20 0.2693
743.30 0.2692
743.40 0.2691
743.50 0.269
743.60 0.2688
743.70 0.2687
743.80 0.2686
743.90 0.2684
744.00 0.2683
744.10 0.2682
744.20 0.2681
744.30 0.2679
744.40 0.2678
744.50 0.2677
744.60 0.2676
744.70 0.2674
744.80 0.2673
744.90 0.2672
745.00 0.2671
745.10 0.2669
745.20 0.2668
745.30 0.2667
745.40 0.2665
745.50 0.2664
745.60 0.2663
745.70 0.2662
745.80 0.266
745.90 0.2659
746.00 0.2658
746.10 0.2657
746.20 0.2655
746.30 0.2654
746.40 0.2653
746.50 0.2652
746.60 0.265
746.70 0.2649
746.80 0.2648
746.90 0.2647
747.00 0.2645
747.10 0.2644
747.20 0.2643
747.30 0.2642
747.40 0.264
747.50 0.2639
747.60 0.2638
747.70 0.2637
747.80 0.2635
747.90 0.2634
748.00 0.2633
748.10 0.2632
748.20 0.263
748.30 0.2629
748.40 0.2628
748.50 0.2627
748.60 0.2625
748.70 0.2624
748.80 0.2623
748.90 0.2622
749.00 0.262
749.10 0.2619
749.20 0.2618
749.30 0.2617
749.40 0.2616
749.50 0.2614
749.60 0.2613
749.70 0.2612
749.80 0.2611
749.90 0.2609
750.00 0.2608
750.10 0.2607
750.20 0.2606
750.30 0.2604
750.40 0.2603
750.50 0.2602
750.60 0.2601
750.70 0.26
750.80 0.2598
750.90 0.2597
751.00 0.2596
751.10 0.2595
751.20 0.2594
751.30 0.2592
751.40 0.2591
751.50 0.259
751.60 0.2589
751.70 0.2587
751.80 0.2586
751.90 0.2585
752.00 0.2584
752.10 0.2583
752.20 0.2581
752.30 0.258
752.40 0.2579
752.50 0.2578
752.60 0.2577
752.70 0.2575
752.80 0.2574
752.90 0.2573
753.00 0.2572
753.10 0.2571
753.20 0.2569
753.30 0.2568
753.40 0.2567
753.50 0.2566
753.60 0.2565
753.70 0.2563
753.80 0.2562
753.90 0.2561
754.00 0.256
754.10 0.2559
754.20 0.2557
754.30 0.2556
754.40 0.2555
754.50 0.2554
754.60 0.2553
754.70 0.2551
754.80 0.255
754.90 0.2549
755.00 0.2548
755.10 0.2547
755.20 0.2545
755.30 0.2544
755.40 0.2543
755.50 0.2542
755.60 0.2541
755.70 0.254
755.80 0.2538
755.90 0.2537
756.00 0.2536
756.10 0.2535
756.20 0.2534
756.30 0.2532
756.40 0.2531
756.50 0.253
756.60 0.2529
756.70 0.2528
756.80 0.2527
756.90 0.2525
757.00 0.2524
757.10 0.2523
757.20 0.2522
757.30 0.2521
757.40 0.2519
757.50 0.2518
757.60 0.2517
757.70 0.2516
757.80 0.2515
757.90 0.2514
758.00 0.2512
758.10 0.2511
758.20 0.251
758.30 0.2509
758.40 0.2508
758.50 0.2507
758.60 0.2505
758.70 0.2504
758.80 0.2503
758.90 0.2502
759.00 0.2501
759.10 0.2499
759.20 0.2498
759.30 0.2497
759.40 0.2496
759.50 0.2495
759.60 0.2494
759.70 0.2492
759.80 0.2491
759.90 0.249
760.00 0.2489
760.10 0.2488
760.20 0.2487
760.30 0.2486
760.40 0.2484
760.50 0.2483
760.60 0.2482
760.70 0.2481
760.80 0.248
760.90 0.2479
761.00 0.2478
761.10 0.2476
761.20 0.2475
761.30 0.2474
761.40 0.2473
761.50 0.2472
761.60 0.2471
761.70 0.247
761.80 0.2468
761.90 0.2467
762.00 0.2466
762.10 0.2465
762.20 0.2464
762.30 0.2463
762.40 0.2462
762.50 0.246
762.60 0.2459
762.70 0.2458
762.80 0.2457
762.90 0.2456
763.00 0.2455
763.10 0.2454
763.20 0.2453
763.30 0.2451
763.40 0.245
763.50 0.2449
763.60 0.2448
763.70 0.2447
763.80 0.2446
763.90 0.2445
764.00 0.2443
764.10 0.2442
764.20 0.2441
764.30 0.244
764.40 0.2439
764.50 0.2438
764.60 0.2437
764.70 0.2436
764.80 0.2434
764.90 0.2433
765.00 0.2432
765.10 0.2431
765.20 0.243
765.30 0.2429
765.40 0.2428
765.50 0.2427
765.60 0.2425
765.70 0.2424
765.80 0.2423
765.90 0.2422
766.00 0.2421
766.10 0.242
766.20 0.2419
766.30 0.2418
766.40 0.2417
766.50 0.2415
766.60 0.2414
766.70 0.2413
766.80 0.2412
766.90 0.2411
767.00 0.241
767.10 0.2409
767.20 0.2408
767.30 0.2407
767.40 0.2405
767.50 0.2404
767.60 0.2403
767.70 0.2402
767.80 0.2401
767.90 0.24
768.00 0.2399
768.10 0.2398
768.20 0.2397
768.30 0.2395
768.40 0.2394
768.50 0.2393
768.60 0.2392
768.70 0.2391
768.80 0.239
768.90 0.2389
769.00 0.2388
769.10 0.2387
769.20 0.2385
769.30 0.2384
769.40 0.2383
769.50 0.2382
769.60 0.2381
769.70 0.238
769.80 0.2379
769.90 0.2378
770.00 0.2377
770.10 0.2376
770.20 0.2375
770.30 0.2373
770.40 0.2372
770.50 0.2371
770.60 0.237
770.70 0.2369
770.80 0.2368
770.90 0.2367
771.00 0.2366
771.10 0.2365
771.20 0.2364
771.30 0.2363
771.40 0.2362
771.50 0.236
771.60 0.2359
771.70 0.2358
771.80 0.2357
771.90 0.2356
772.00 0.2355
772.10 0.2354
772.20 0.2353
772.30 0.2352
772.40 0.2351
772.50 0.235
772.60 0.2349
772.70 0.2348
772.80 0.2347
772.90 0.2345
773.00 0.2344
773.10 0.2343
773.20 0.2342
773.30 0.2341
773.40 0.234
773.50 0.2339
773.60 0.2338
773.70 0.2337
773.80 0.2336
773.90 0.2335
774.00 0.2334
774.10 0.2333
774.20 0.2332
774.30 0.2331
774.40 0.2329
774.50 0.2328
774.60 0.2327
774.70 0.2326
774.80 0.2325
774.90 0.2324
775.00 0.2323
775.10 0.2322
775.20 0.2321
775.30 0.232
775.40 0.2319
775.50 0.2318
775.60 0.2317
775.70 0.2316
775.80 0.2315
775.90 0.2314
776.00 0.2312
776.10 0.2311
776.20 0.231
776.30 0.2309
776.40 0.2308
776.50 0.2307
776.60 0.2306
776.70 0.2305
776.80 0.2304
776.90 0.2303
777.00 0.2302
777.10 0.2301
777.20 0.23
777.30 0.2299
777.40 0.2298
777.50 0.2297
777.60 0.2296
777.70 0.2295
777.80 0.2294
777.90 0.2293
778.00 0.2291
778.10 0.229
778.20 0.2289
778.30 0.2288
778.40 0.2287
778.50 0.2286
778.60 0.2285
778.70 0.2284
778.80 0.2283
778.90 0.2282
779.00 0.2281
779.10 0.228
779.20 0.2279
779.30 0.2278
779.40 0.2277
779.50 0.2276
779.60 0.2275
779.70 0.2274
779.80 0.2273
779.90 0.2272
780.00 0.2271
780.10 0.227
780.20 0.2269
780.30 0.2268
780.40 0.2267
780.50 0.2266
780.60 0.2265
780.70 0.2263
780.80 0.2262
780.90 0.2261
781.00 0.226
781.10 0.2259
781.20 0.2258
781.30 0.2257
781.40 0.2256
781.50 0.2255
781.60 0.2254
781.70 0.2253
781.80 0.2252
781.90 0.2251
782.00 0.225
782.10 0.2249
782.20 0.2248
782.30 0.2247
782.40 0.2246
782.50 0.2245
782.60 0.2244
782.70 0.2243
782.80 0.2242
782.90 0.2241
783.00 0.224
783.10 0.2239
783.20 0.2238
783.30 0.2237
783.40 0.2236
783.50 0.2235
783.60 0.2234
783.70 0.2233
783.80 0.2232
783.90 0.2231
784.00 0.223
784.10 0.2229
784.20 0.2228
784.30 0.2227
784.40 0.2226
784.50 0.2225
784.60 0.2224
784.70 0.2223
784.80 0.2222
784.90 0.2221
785.00 0.222
785.10 0.2219
785.20 0.2218
785.30 0.2217
785.40 0.2216
785.50 0.2215
785.60 0.2214
785.70 0.2213
785.80 0.2212
785.90 0.2211
786.00 0.221
786.10 0.2209
786.20 0.2208
786.30 0.2207
786.40 0.2206
786.50 0.2205
786.60 0.2204
786.70 0.2203
786.80 0.2202
786.90 0.2201
787.00 0.22
787.10 0.2199
787.20 0.2198
787.30 0.2197
787.40 0.2196
787.50 0.2195
787.60 0.2194
787.70 0.2193
787.80 0.2192
787.90 0.2191
788.00 0.219
788.10 0.2189
788.20 0.2188
788.30 0.2187
788.40 0.2186
788.50 0.2185
788.60 0.2184
788.70 0.2183
788.80 0.2182
788.90 0.2181
789.00 0.218
789.10 0.2179
789.20 0.2178
789.30 0.2177
789.40 0.2176
789.50 0.2175
789.60 0.2174
789.70 0.2173
789.80 0.2172
789.90 0.2171
790.00 0.2171
790.10 0.217
790.20 0.2169
790.30 0.2168
790.40 0.2167
790.50 0.2166
790.60 0.2165
790.70 0.2164
790.80 0.2163
790.90 0.2162
791.00 0.2161
791.10 0.216
791.20 0.2159
791.30 0.2158
791.40 0.2157
791.50 0.2156
791.60 0.2155
791.70 0.2154
791.80 0.2153
791.90 0.2152
792.00 0.2151
792.10 0.215
792.20 0.2149
792.30 0.2148
792.40 0.2147
792.50 0.2146
792.60 0.2145
792.70 0.2145
792.80 0.2144
792.90 0.2143
793.00 0.2142
793.10 0.2141
793.20 0.214
793.30 0.2139
793.40 0.2138
793.50 0.2137
793.60 0.2136
793.70 0.2135
793.80 0.2134
793.90 0.2133
794.00 0.2132
794.10 0.2131
794.20 0.213
794.30 0.2129
794.40 0.2128
794.50 0.2127
794.60 0.2126
794.70 0.2125
794.80 0.2125
794.90 0.2124
795.00 0.2123
795.10 0.2122
795.20 0.2121
795.30 0.212
795.40 0.2119
795.50 0.2118
795.60 0.2117
795.70 0.2116
795.80 0.2115
795.90 0.2114
796.00 0.2113
796.10 0.2112
796.20 0.2111
796.30 0.211
796.40 0.2109
796.50 0.2109
796.60 0.2108
796.70 0.2107
796.80 0.2106
796.90 0.2105
797.00 0.2104
797.10 0.2103
797.20 0.2102
797.30 0.2101
797.40 0.21
797.50 0.2099
797.60 0.2098
797.70 0.2097
797.80 0.2096
797.90 0.2095
798.00 0.2094
798.10 0.2094
798.20 0.2093
798.30 0.2092
798.40 0.2091
798.50 0.209
798.60 0.2089
798.70 0.2088
798.80 0.2087
798.90 0.2086
799.00 0.2085
799.10 0.2084
799.20 0.2083
799.30 0.2082
799.40 0.2081
799.50 0.208
799.60 0.208
799.70 0.2079
799.80 0.2078
799.90 0.2077
800.00 0.2076
800.10 0.2075
800.20 0.2074
800.30 0.2073
800.40 0.2072
800.50 0.2071
800.60 0.207
800.70 0.2069
800.80 0.2069
800.90 0.2068
801.00 0.2067
801.10 0.2066
801.20 0.2065
801.30 0.2064
801.40 0.2063
801.50 0.2062
801.60 0.2061
801.70 0.206
801.80 0.2059
801.90 0.2059
802.00 0.2058
802.10 0.2057
802.20 0.2056
802.30 0.2055
802.40 0.2054
802.50 0.2053
802.60 0.2052
802.70 0.2051
802.80 0.205
802.90 0.2049
803.00 0.2049
803.10 0.2048
803.20 0.2047
803.30 0.2046
803.40 0.2045
803.50 0.2044
803.60 0.2043
803.70 0.2042
803.80 0.2041
803.90 0.204
804.00 0.204
804.10 0.2039
804.20 0.2038
804.30 0.2037
804.40 0.2036
804.50 0.2035
804.60 0.2034
804.70 0.2033
804.80 0.2032
804.90 0.2031
805.00 0.2031
805.10 0.203
805.20 0.2029
805.30 0.2028
805.40 0.2027
805.50 0.2026
805.60 0.2025
805.70 0.2024
805.80 0.2023
805.90 0.2023
806.00 0.2022
806.10 0.2021
806.20 0.202
806.30 0.2019
806.40 0.2018
806.50 0.2017
806.60 0.2016
806.70 0.2015
806.80 0.2015
806.90 0.2014
807.00 0.2013
807.10 0.2012
807.20 0.2011
807.30 0.201
807.40 0.2009
807.50 0.2008
807.60 0.2007
807.70 0.2007
807.80 0.2006
807.90 0.2005
808.00 0.2004
808.10 0.2003
808.20 0.2002
808.30 0.2001
808.40 0.2
808.50 0.1999
808.60 0.1999
808.70 0.1998
808.80 0.1997
808.90 0.1996
809.00 0.1995
809.10 0.1994
809.20 0.1993
809.30 0.1992
809.40 0.1992
809.50 0.1991
809.60 0.199
809.70 0.1989
809.80 0.1988
809.90 0.1987
810.00 0.1986
810.10 0.1985
810.20 0.1985
810.30 0.1984
810.40 0.1983
810.50 0.1982
810.60 0.1981
810.70 0.198
810.80 0.1979
810.90 0.1979
811.00 0.1978
811.10 0.1977
811.20 0.1976
811.30 0.1975
811.40 0.1974
811.50 0.1973
811.60 0.1973
811.70 0.1972
811.80 0.1971
811.90 0.197
812.00 0.1969
812.10 0.1968
812.20 0.1967
812.30 0.1966
812.40 0.1966
812.50 0.1965
812.60 0.1964
812.70 0.1963
812.80 0.1962
812.90 0.1961
813.00 0.1961
813.10 0.196
813.20 0.1959
813.30 0.1958
813.40 0.1957
813.50 0.1956
813.60 0.1955
813.70 0.1955
813.80 0.1954
813.90 0.1953
814.00 0.1952
814.10 0.1951
814.20 0.195
814.30 0.1949
814.40 0.1949
814.50 0.1948
814.60 0.1947
814.70 0.1946
814.80 0.1945
814.90 0.1944
815.00 0.1943
815.10 0.1943
815.20 0.1942
815.30 0.1941
815.40 0.194
815.50 0.1939
815.60 0.1938
815.70 0.1938
815.80 0.1937
815.90 0.1936
816.00 0.1935
816.10 0.1934
816.20 0.1933
816.30 0.1933
816.40 0.1932
816.50 0.1931
816.60 0.193
816.70 0.1929
816.80 0.1928
816.90 0.1927
817.00 0.1927
817.10 0.1926
817.20 0.1925
817.30 0.1924
817.40 0.1923
817.50 0.1922
817.60 0.1922
817.70 0.1921
817.80 0.192
817.90 0.1919
818.00 0.1918
818.10 0.1917
818.20 0.1917
818.30 0.1916
818.40 0.1915
818.50 0.1914
818.60 0.1913
818.70 0.1912
818.80 0.1912
818.90 0.1911
819.00 0.191
819.10 0.1909
819.20 0.1908
819.30 0.1907
819.40 0.1907
819.50 0.1906
819.60 0.1905
819.70 0.1904
819.80 0.1903
819.90 0.1902
820.00 0.1902
820.10 0.1901
820.20 0.19
820.30 0.1899
820.40 0.1898
820.50 0.1898
820.60 0.1897
820.70 0.1896
820.80 0.1895
820.90 0.1894
821.00 0.1893
821.10 0.1893
821.20 0.1892
821.30 0.1891
821.40 0.189
821.50 0.1889
821.60 0.1889
821.70 0.1888
821.80 0.1887
821.90 0.1886
822.00 0.1885
822.10 0.1884
822.20 0.1884
822.30 0.1883
822.40 0.1882
822.50 0.1881
822.60 0.188
822.70 0.188
822.80 0.1879
822.90 0.1878
823.00 0.1877
823.10 0.1876
823.20 0.1876
823.30 0.1875
823.40 0.1874
823.50 0.1873
823.60 0.1872
823.70 0.1871
823.80 0.1871
823.90 0.187
824.00 0.1869
824.10 0.1868
824.20 0.1867
824.30 0.1867
824.40 0.1866
824.50 0.1865
824.60 0.1864
824.70 0.1863
824.80 0.1863
824.90 0.1862
825.00 0.1861
825.10 0.186
825.20 0.1859
825.30 0.1859
825.40 0.1858
825.50 0.1857
825.60 0.1856
825.70 0.1855
825.80 0.1855
825.90 0.1854
826.00 0.1853
826.10 0.1852
826.20 0.1851
826.30 0.1851
826.40 0.185
826.50 0.1849
826.60 0.1848
826.70 0.1847
826.80 0.1847
826.90 0.1846
827.00 0.1845
827.10 0.1844
827.20 0.1843
827.30 0.1843
827.40 0.1842
827.50 0.1841
827.60 0.184
827.70 0.1839
827.80 0.1839
827.90 0.1838
828.00 0.1837
828.10 0.1836
828.20 0.1836
828.30 0.1835
828.40 0.1834
828.50 0.1833
828.60 0.1832
828.70 0.1832
828.80 0.1831
828.90 0.183
829.00 0.1829
829.10 0.1828
829.20 0.1828
829.30 0.1827
829.40 0.1826
829.50 0.1825
829.60 0.1825
829.70 0.1824
829.80 0.1823
829.90 0.1822
830.00 0.1821
830.10 0.1821
830.20 0.182
830.30 0.1819
830.40 0.1818
830.50 0.1818
830.60 0.1817
830.70 0.1816
830.80 0.1815
830.90 0.1814
831.00 0.1814
831.10 0.1813
831.20 0.1812
831.30 0.1811
831.40 0.1811
831.50 0.181
831.60 0.1809
831.70 0.1808
831.80 0.1807
831.90 0.1807
832.00 0.1806
832.10 0.1805
832.20 0.1804
832.30 0.1804
832.40 0.1803
832.50 0.1802
832.60 0.1801
832.70 0.18
832.80 0.18
832.90 0.1799
833.00 0.1798
833.10 0.1797
833.20 0.1797
833.30 0.1796
833.40 0.1795
833.50 0.1794
833.60 0.1794
833.70 0.1793
833.80 0.1792
833.90 0.1791
834.00 0.1791
834.10 0.179
834.20 0.1789
834.30 0.1788
834.40 0.1787
834.50 0.1787
834.60 0.1786
834.70 0.1785
834.80 0.1784
834.90 0.1784
835.00 0.1783
835.10 0.1782
835.20 0.1781
835.30 0.1781
835.40 0.178
835.50 0.1779
835.60 0.1778
835.70 0.1778
835.80 0.1777
835.90 0.1776
836.00 0.1775
836.10 0.1775
836.20 0.1774
836.30 0.1773
836.40 0.1772
836.50 0.1772
836.60 0.1771
836.70 0.177
836.80 0.1769
836.90 0.1769
837.00 0.1768
837.10 0.1767
837.20 0.1766
837.30 0.1766
837.40 0.1765
837.50 0.1764
837.60 0.1763
837.70 0.1763
837.80 0.1762
837.90 0.1761
838.00 0.176
838.10 0.176
838.20 0.1759
838.30 0.1758
838.40 0.1757
838.50 0.1757
838.60 0.1756
838.70 0.1755
838.80 0.1754
838.90 0.1754
839.00 0.1753
839.10 0.1752
839.20 0.1751
839.30 0.1751
839.40 0.175
839.50 0.1749
839.60 0.1748
839.70 0.1748
839.80 0.1747
839.90 0.1746
840.00 0.1745
840.10 0.1745
840.20 0.1744
840.30 0.1743
840.40 0.1742
840.50 0.1742
840.60 0.1741
840.70 0.174
840.80 0.1739
840.90 0.1739
841.00 0.1738
841.10 0.1737
841.20 0.1737
841.30 0.1736
841.40 0.1735
841.50 0.1734
841.60 0.1734
841.70 0.1733
841.80 0.1732
841.90 0.1731
842.00 0.1731
842.10 0.173
842.20 0.1729
842.30 0.1728
842.40 0.1728
842.50 0.1727
842.60 0.1726
842.70 0.1726
842.80 0.1725
842.90 0.1724
843.00 0.1723
843.10 0.1723
843.20 0.1722
843.30 0.1721
843.40 0.172
843.50 0.172
843.60 0.1719
843.70 0.1718
843.80 0.1718
843.90 0.1717
844.00 0.1716
844.10 0.1715
844.20 0.1715
844.30 0.1714
844.40 0.1713
844.50 0.1712
844.60 0.1712
844.70 0.1711
844.80 0.171
844.90 0.171
845.00 0.1709
845.10 0.1708
845.20 0.1707
845.30 0.1707
845.40 0.1706
845.50 0.1705
845.60 0.1705
845.70 0.1704
845.80 0.1703
845.90 0.1702
846.00 0.1702
846.10 0.1701
846.20 0.17
846.30 0.17
846.40 0.1699
846.50 0.1698
846.60 0.1697
846.70 0.1697
846.80 0.1696
846.90 0.1695
847.00 0.1695
847.10 0.1694
847.20 0.1693
847.30 0.1692
847.40 0.1692
847.50 0.1691
847.60 0.169
847.70 0.169
847.80 0.1689
847.90 0.1688
848.00 0.1688
848.10 0.1687
848.20 0.1686
848.30 0.1686
848.40 0.1685
848.50 0.1684
848.60 0.1683
848.70 0.1683
848.80 0.1682
848.90 0.1681
849.00 0.1681
849.10 0.168
849.20 0.1679
849.30 0.1679
849.40 0.1678
849.50 0.1677
849.60 0.1677
849.70 0.1676
849.80 0.1675
849.90 0.1675
850.00 0.1674
850.10 0.1673
850.20 0.1672
850.30 0.1672
850.40 0.1671
850.50 0.167
850.60 0.167
850.70 0.1669
850.80 0.1668
850.90 0.1668
851.00 0.1667
851.10 0.1666
851.20 0.1666
851.30 0.1665
851.40 0.1664
851.50 0.1664
851.60 0.1663
851.70 0.1662
851.80 0.1662
851.90 0.1661
852.00 0.166
852.10 0.166
852.20 0.1659
852.30 0.1658
852.40 0.1658
852.50 0.1657
852.60 0.1656
852.70 0.1656
852.80 0.1655
852.90 0.1654
853.00 0.1654
853.10 0.1653
853.20 0.1652
853.30 0.1652
853.40 0.1651
853.50 0.165
853.60 0.165
853.70 0.1649
853.80 0.1648
853.90 0.1648
854.00 0.1647
854.10 0.1646
854.20 0.1646
854.30 0.1645
854.40 0.1644
854.50 0.1644
854.60 0.1643
854.70 0.1642
854.80 0.1642
854.90 0.1641
855.00 0.164
855.10 0.164
855.20 0.1639
855.30 0.1638
855.40 0.1638
855.50 0.1637
855.60 0.1636
855.70 0.1636
855.80 0.1635
855.90 0.1634
856.00 0.1634
856.10 0.1633
856.20 0.1632
856.30 0.1632
856.40 0.1631
856.50 0.163
856.60 0.163
856.70 0.1629
856.80 0.1628
856.90 0.1628
857.00 0.1627
857.10 0.1626
857.20 0.1626
857.30 0.1625
857.40 0.1624
857.50 0.1624
857.60 0.1623
857.70 0.1622
857.80 0.1622
857.90 0.1621
858.00 0.1621
858.10 0.162
858.20 0.1619
858.30 0.1619
858.40 0.1618
858.50 0.1617
858.60 0.1617
858.70 0.1616
858.80 0.1615
858.90 0.1615
859.00 0.1614
859.10 0.1614
859.20 0.1613
859.30 0.1612
859.40 0.1612
859.50 0.1611
859.60 0.161
859.70 0.161
859.80 0.1609
859.90 0.1608
860.00 0.1608
860.10 0.1607
860.20 0.1607
860.30 0.1606
860.40 0.1605
860.50 0.1605
860.60 0.1604
860.70 0.1603
860.80 0.1603
860.90 0.1602
861.00 0.1601
861.10 0.1601
861.20 0.16
861.30 0.16
861.40 0.1599
861.50 0.1598
861.60 0.1598
861.70 0.1597
861.80 0.1596
861.90 0.1596
862.00 0.1595
862.10 0.1595
862.20 0.1594
862.30 0.1593
862.40 0.1593
862.50 0.1592
862.60 0.1591
862.70 0.1591
862.80 0.159
862.90 0.159
863.00 0.1589
863.10 0.1588
863.20 0.1588
863.30 0.1587
863.40 0.1587
863.50 0.1586
863.60 0.1585
863.70 0.1585
863.80 0.1584
863.90 0.1583
864.00 0.1583
864.10 0.1582
864.20 0.1582
864.30 0.1581
864.40 0.158
864.50 0.158
864.60 0.1579
864.70 0.1579
864.80 0.1578
864.90 0.1577
865.00 0.1577
865.10 0.1576
865.20 0.1575
865.30 0.1575
865.40 0.1574
865.50 0.1574
865.60 0.1573
865.70 0.1572
865.80 0.1572
865.90 0.1571
866.00 0.1571
866.10 0.157
866.20 0.1569
866.30 0.1569
866.40 0.1568
866.50 0.1568
866.60 0.1567
866.70 0.1566
866.80 0.1566
866.90 0.1565
867.00 0.1564
867.10 0.1564
867.20 0.1563
867.30 0.1563
867.40 0.1562
867.50 0.1562
867.60 0.1561
867.70 0.1561
867.80 0.156
867.90 0.1559
868.00 0.1559
868.10 0.1558
868.20 0.1558
868.30 0.1557
868.40 0.1557
868.50 0.1556
868.60 0.1555
868.70 0.1555
868.80 0.1554
868.90 0.1554
869.00 0.1553
869.10 0.1553
869.20 0.1552
869.30 0.1552
869.40 0.1551
869.50 0.155
869.60 0.155
869.70 0.1549
869.80 0.1549
869.90 0.1548
870.00 0.1548
870.10 0.1547
870.20 0.1547
870.30 0.1546
870.40 0.1545
870.50 0.1545
870.60 0.1544
870.70 0.1544
870.80 0.1543
870.90 0.1543
871.00 0.1542
871.10 0.1542
871.20 0.1541
871.30 0.154
871.40 0.154
871.50 0.1539
871.60 0.1539
871.70 0.1538
871.80 0.1538
871.90 0.1537
872.00 0.1537
872.10 0.1536
872.20 0.1535
872.30 0.1535
872.40 0.1534
872.50 0.1534
872.60 0.1533
872.70 0.1533
872.80 0.1532
872.90 0.1531
873.00 0.1531
873.10 0.153
873.20 0.153
873.30 0.1529
873.40 0.1529
873.50 0.1528
873.60 0.1528
873.70 0.1527
873.80 0.1526
873.90 0.1526
874.00 0.1525
874.10 0.1525
874.20 0.1524
874.30 0.1524
874.40 0.1523
874.50 0.1523
874.60 0.1522
874.70 0.1521
874.80 0.1521
874.90 0.152
875.00 0.152
875.10 0.1519
875.20 0.1519
875.30 0.1518
875.40 0.1518
875.50 0.1517
875.60 0.1516
875.70 0.1516
875.80 0.1515
875.90 0.1515
876.00 0.1514
876.10 0.1514
876.20 0.1513
876.30 0.1513
876.40 0.1512
876.50 0.1512
876.60 0.1511
876.70 0.151
876.80 0.151
876.90 0.1509
877.00 0.1509
877.10 0.1508
877.20 0.1508
877.30 0.1507
877.40 0.1507
877.50 0.1506
877.60 0.1506
877.70 0.1505
877.80 0.1505
877.90 0.1504
878.00 0.1504
878.10 0.1503
878.20 0.1503
878.30 0.1502
878.40 0.1502
878.50 0.1501
878.60 0.1501
878.70 0.15
878.80 0.15
878.90 0.1499
879.00 0.1499
879.10 0.1498
879.20 0.1498
879.30 0.1497
879.40 0.1497
879.50 0.1496
879.60 0.1496
879.70 0.1495
879.80 0.1495
879.90 0.1494
880.00 0.1494
880.10 0.1493
880.20 0.1493
880.30 0.1492
880.40 0.1492
880.50 0.1491
880.60 0.1491
880.70 0.149
880.80 0.149
880.90 0.149
881.00 0.1489
881.10 0.1489
881.20 0.1488
881.30 0.1488
881.40 0.1487
881.50 0.1487
881.60 0.1486
881.70 0.1486
881.80 0.1485
881.90 0.1485
882.00 0.1484
882.10 0.1484
882.20 0.1483
882.30 0.1482
882.40 0.1482
882.50 0.1481
882.60 0.148
882.70 0.148
882.80 0.1479
882.90 0.1478
883.00 0.1478
883.10 0.1477
883.20 0.1477
883.30 0.1476
883.40 0.1475
883.50 0.1475
883.60 0.1474
883.70 0.1473
883.80 0.1473
883.90 0.1472
884.00 0.1472
884.10 0.1471
884.20 0.147
884.30 0.147
884.40 0.1469
884.50 0.1468
884.60 0.1468
884.70 0.1467
884.80 0.1467
884.90 0.1466
885.00 0.1465
885.10 0.1465
885.20 0.1464
885.30 0.1464
885.40 0.1463
885.50 0.1462
885.60 0.1462
885.70 0.1461
885.80 0.146
885.90 0.146
886.00 0.1459
886.10 0.1459
886.20 0.1458
886.30 0.1457
886.40 0.1457
886.50 0.1456
886.60 0.1455
886.70 0.1455
886.80 0.1454
886.90 0.1454
887.00 0.1453
887.10 0.1453
887.20 0.1452
887.30 0.1452
887.40 0.1452
887.50 0.1451
887.60 0.1451
887.70 0.1451
887.80 0.145
887.90 0.145
888.00 0.145
888.10 0.1449
888.20 0.1449
888.30 0.1449
888.40 0.1448
888.50 0.1448
888.60 0.1448
888.70 0.1447
888.80 0.1447
888.90 0.1447
889.00 0.1446
889.10 0.1446
889.20 0.1446
889.30 0.1445
889.40 0.1445
889.50 0.1445
889.60 0.1444
889.70 0.1444
889.80 0.1444
889.90 0.1443
890.00 0.1443
890.10 0.1443
890.20 0.1442
890.30 0.1442
890.40 0.1442
890.50 0.1441
890.60 0.1441
890.70 0.1441
890.80 0.144
890.90 0.144
891.00 0.144
891.10 0.1439
891.20 0.1439
891.30 0.1439
891.40 0.1438
891.50 0.1438
891.60 0.1438
891.70 0.1437
891.80 0.1437
891.90 0.1437
892.00 0.1436
892.10 0.1436
892.20 0.1435
892.30 0.1435
892.40 0.1434
892.50 0.1434
892.60 0.1433
892.70 0.1433
892.80 0.1433
892.90 0.1432
893.00 0.1432
893.10 0.1431
893.20 0.1431
893.30 0.143
893.40 0.143
893.50 0.1429
893.60 0.1429
893.70 0.1428
893.80 0.1428
893.90 0.1427
894.00 0.1427
894.10 0.1426
894.20 0.1426
894.30 0.1425
894.40 0.1425
894.50 0.1424
894.60 0.1424
894.70 0.1424
894.80 0.1423
894.90 0.1423
895.00 0.1422
895.10 0.1422
895.20 0.1421
895.30 0.1421
895.40 0.142
895.50 0.142
895.60 0.1419
895.70 0.1419
895.80 0.1418
895.90 0.1418
896.00 0.1417
896.10 0.1417
896.20 0.1416
896.30 0.1416
896.40 0.1416
896.50 0.1415
896.60 0.1415
896.70 0.1414
896.80 0.1414
896.90 0.1413
897.00 0.1413
897.10 0.1412
897.20 0.1411
897.30 0.141
897.40 0.1409
897.50 0.1408
897.60 0.1408
897.70 0.1407
897.80 0.1406
897.90 0.1405
898.00 0.1404
898.10 0.1403
898.20 0.1402
898.30 0.1402
898.40 0.1401
898.50 0.14
898.60 0.1399
898.70 0.1398
898.80 0.1397
898.90 0.1396
899.00 0.1396
899.10 0.1395
899.20 0.1394
899.30 0.1393
899.40 0.1392
899.50 0.1391
899.60 0.139
899.70 0.139
899.80 0.1389
899.90 0.1388
900.00 0.1387
900.10 0.1386
900.20 0.1385
900.30 0.1384
900.40 0.1384
900.50 0.1383
900.60 0.1382
900.70 0.1381
900.80 0.138
900.90 0.1379
901.00 0.1378
901.10 0.1378
901.20 0.1377
901.30 0.1376
901.40 0.1375
901.50 0.1374
901.60 0.1373
901.70 0.1373
901.80 0.1372
901.90 0.1371
902.00 0.137
902.10 0.137
902.20 0.137
902.30 0.137
902.40 0.137
902.50 0.1369
902.60 0.1369
902.70 0.1369
902.80 0.1369
902.90 0.1369
903.00 0.1369
903.10 0.1369
903.20 0.1369
903.30 0.1369
903.40 0.1369
903.50 0.1368
903.60 0.1368
903.70 0.1368
903.80 0.1368
903.90 0.1368
904.00 0.1368
904.10 0.1368
904.20 0.1368
904.30 0.1368
904.40 0.1368
904.50 0.1367
904.60 0.1367
904.70 0.1367
904.80 0.1367
904.90 0.1367
905.00 0.1367
905.10 0.1367
905.20 0.1367
905.30 0.1367
905.40 0.1367
905.50 0.1367
905.60 0.1366
905.70 0.1366
905.80 0.1366
905.90 0.1366
906.00 0.1366
906.10 0.1366
906.20 0.1366
906.30 0.1366
906.40 0.1366
906.50 0.1366
906.60 0.1365
906.70 0.1365
906.80 0.1365
906.90 0.1365
907.00 0.1365
907.10 0.1365
907.20 0.1364
907.30 0.1364
907.40 0.1364
907.50 0.1363
907.60 0.1363
907.70 0.1363
907.80 0.1363
907.90 0.1362
908.00 0.1362
908.10 0.1362
908.20 0.1361
908.30 0.1361
908.40 0.1361
908.50 0.136
908.60 0.136
908.70 0.136
908.80 0.1359
908.90 0.1359
909.00 0.1359
909.10 0.1358
909.20 0.1358
909.30 0.1358
909.40 0.1357
909.50 0.1357
909.60 0.1357
909.70 0.1357
909.80 0.1356
909.90 0.1356
910.00 0.1356
910.10 0.1355
910.20 0.1355
910.30 0.1355
910.40 0.1354
910.50 0.1354
910.60 0.1354
910.70 0.1353
910.80 0.1353
910.90 0.1353
911.00 0.1353
911.10 0.1352
911.20 0.1352
911.30 0.1352
911.40 0.1351
911.50 0.1351
911.60 0.1351
911.70 0.135
911.80 0.135
911.90 0.135
912.00 0.1349
912.10 0.1349
912.20 0.1348
912.30 0.1348
912.40 0.1347
912.50 0.1346
912.60 0.1346
912.70 0.1345
912.80 0.1345
912.90 0.1344
913.00 0.1344
913.10 0.1343
913.20 0.1342
913.30 0.1342
913.40 0.1341
913.50 0.1341
913.60 0.134
913.70 0.134
913.80 0.1339
913.90 0.1338
914.00 0.1338
914.10 0.1337
914.20 0.1337
914.30 0.1336
914.40 0.1336
914.50 0.1335
914.60 0.1334
914.70 0.1334
914.80 0.1333
914.90 0.1333
915.00 0.1332
915.10 0.1331
915.20 0.1331
915.30 0.133
915.40 0.133
915.50 0.1329
915.60 0.1329
915.70 0.1328
915.80 0.1327
915.90 0.1327
916.00 0.1326
916.10 0.1326
916.20 0.1325
916.30 0.1325
916.40 0.1324
916.50 0.1323
916.60 0.1323
916.70 0.1322
916.80 0.1322
916.90 0.1321
917.00 0.1321
917.10 0.132
917.20 0.1319
917.30 0.1318
917.40 0.1316
917.50 0.1315
917.60 0.1314
917.70 0.1313
917.80 0.1312
917.90 0.1311
918.00 0.131
918.10 0.1309
918.20 0.1308
918.30 0.1307
918.40 0.1306
918.50 0.1305
918.60 0.1304
918.70 0.1303
918.80 0.1302
918.90 0.1301
919.00 0.13
919.10 0.1299
919.20 0.1298
919.30 0.1297
919.40 0.1296
919.50 0.1295
919.60 0.1294
919.70 0.1293
919.80 0.1292
919.90 0.1291
920.00 0.129
920.10 0.1289
920.20 0.1288
920.30 0.1287
920.40 0.1286
920.50 0.1285
920.60 0.1284
920.70 0.1283
920.80 0.1282
920.90 0.1281
921.00 0.128
921.10 0.1279
921.20 0.1278
921.30 0.1277
921.40 0.1276
921.50 0.1275
921.60 0.1274
921.70 0.1273
921.80 0.1272
921.90 0.1271
922.00 0.127
922.10 0.1269
922.20 0.1268
922.30 0.1268
922.40 0.1267
922.50 0.1266
922.60 0.1265
922.70 0.1265
922.80 0.1264
922.90 0.1263
923.00 0.1262
923.10 0.1261
923.20 0.1261
923.30 0.126
923.40 0.1259
923.50 0.1258
923.60 0.1258
923.70 0.1257
923.80 0.1256
923.90 0.1255
924.00 0.1254
924.10 0.1254
924.20 0.1253
924.30 0.1252
924.40 0.1251
924.50 0.1251
924.60 0.125
924.70 0.1249
924.80 0.1248
924.90 0.1248
925.00 0.1247
925.10 0.1246
925.20 0.1245
925.30 0.1245
925.40 0.1244
925.50 0.1243
925.60 0.1242
925.70 0.1241
925.80 0.1241
925.90 0.124
926.00 0.1239
926.10 0.1238
926.20 0.1238
926.30 0.1237
926.40 0.1236
926.50 0.1235
926.60 0.1235
926.70 0.1234
926.80 0.1233
926.90 0.1232
927.00 0.1232
927.10 0.1232
927.20 0.1232
927.30 0.1233
927.40 0.1233
927.50 0.1233
927.60 0.1233
927.70 0.1234
927.80 0.1234
927.90 0.1234
928.00 0.1235
928.10 0.1235
928.20 0.1235
928.30 0.1236
928.40 0.1236
928.50 0.1236
928.60 0.1237
928.70 0.1237
928.80 0.1237
928.90 0.1238
929.00 0.1238
929.10 0.1238
929.20 0.1239
929.30 0.1239
929.40 0.1239
929.50 0.124
929.60 0.124
929.70 0.124
929.80 0.124
929.90 0.1241
930.00 0.1241
930.10 0.1241
930.20 0.1242
930.30 0.1242
930.40 0.1242
930.50 0.1243
930.60 0.1243
930.70 0.1243
930.80 0.1244
930.90 0.1244
931.00 0.1244
931.10 0.1245
931.20 0.1245
931.30 0.1245
931.40 0.1246
931.50 0.1246
931.60 0.1246
931.70 0.1246
931.80 0.1247
931.90 0.1247
932.00 0.1247
932.10 0.1247
932.20 0.1247
932.30 0.1247
932.40 0.1247
932.50 0.1247
932.60 0.1247
932.70 0.1247
932.80 0.1247
932.90 0.1247
933.00 0.1247
933.10 0.1247
933.20 0.1247
933.30 0.1247
933.40 0.1246
933.50 0.1246
933.60 0.1246
933.70 0.1246
933.80 0.1246
933.90 0.1246
934.00 0.1246
934.10 0.1246
934.20 0.1246
934.30 0.1246
934.40 0.1246
934.50 0.1245
934.60 0.1245
934.70 0.1245
934.80 0.1245
934.90 0.1244
935.00 0.1244
935.10 0.1244
935.20 0.1244
935.30 0.1243
935.40 0.1243
935.50 0.1243
935.60 0.1243
935.70 0.1242
935.80 0.1242
935.90 0.1242
936.00 0.1242
936.10 0.1241
936.20 0.1241
936.30 0.1241
936.40 0.1241
936.50 0.124
936.60 0.124
936.70 0.124
936.80 0.124
936.90 0.1239
937.00 0.1239
937.10 0.1239
937.20 0.1238
937.30 0.1238
937.40 0.1238
937.50 0.1237
937.60 0.1237
937.70 0.1236
937.80 0.1236
937.90 0.1236
938.00 0.1235
938.10 0.1235
938.20 0.1235
938.30 0.1234
938.40 0.1234
938.50 0.1233
938.60 0.1233
938.70 0.1232
938.80 0.1232
938.90 0.1231
939.00 0.1231
939.10 0.1231
939.20 0.123
939.30 0.123
939.40 0.1229
939.50 0.1229
939.60 0.1228
939.70 0.1228
939.80 0.1227
939.90 0.1227
940.00 0.1226
940.10 0.1226
940.20 0.1225
940.30 0.1225
940.40 0.1224
940.50 0.1224
940.60 0.1223
940.70 0.1223
940.80 0.1222
940.90 0.1221
941.00 0.1221
941.10 0.122
941.20 0.122
941.30 0.1219
941.40 0.1218
941.50 0.1218
941.60 0.1217
941.70 0.1217
941.80 0.1216
941.90 0.1216
942.00 0.1215
942.10 0.1214
942.20 0.1214
942.30 0.1213
942.40 0.1212
942.50 0.1211
942.60 0.1211
942.70 0.121
942.80 0.1209
942.90 0.1208
943.00 0.1207
943.10 0.1207
943.20 0.1206
943.30 0.1205
943.40 0.1204
943.50 0.1203
943.60 0.1203
943.70 0.1202
943.80 0.1201
943.90 0.12
944.00 0.1199
944.10 0.1199
944.20 0.1198
944.30 0.1197
944.40 0.1196
944.50 0.1195
944.60 0.1194
944.70 0.1193
944.80 0.1192
944.90 0.1191
945.00 0.119
945.10 0.1189
945.20 0.1188
945.30 0.1187
945.40 0.1186
945.50 0.1184
945.60 0.1183
945.70 0.1182
945.80 0.118
945.90 0.1179
946.00 0.1178
946.10 0.1177
946.20 0.1175
946.30 0.1174
946.40 0.1173
946.50 0.1171
946.60 0.117
946.70 0.1169
946.80 0.1168
946.90 0.1166
947.00 0.1165
947.10 0.1164
947.20 0.1162
947.30 0.1161
947.40 0.1159
947.50 0.1157
947.60 0.1155
947.70 0.1154
947.80 0.1152
947.90 0.115
948.00 0.1148
948.10 0.1147
948.20 0.1145
948.30 0.1143
948.40 0.1141
948.50 0.114
948.60 0.1138
948.70 0.1136
948.80 0.1134
948.90 0.1133
949.00 0.1131
949.10 0.1129
949.20 0.1127
949.30 0.1126
949.40 0.1124
949.50 0.1122
949.60 0.112
949.70 0.1118
949.80 0.1116
949.90 0.1114
950.00 0.1112
950.10 0.111
950.20 0.1108
950.30 0.1106
950.40 0.1104
950.50 0.1102
950.60 0.11
950.70 0.1098
950.80 0.1096
950.90 0.1094
951.00 0.1092
951.10 0.109
951.20 0.1088
951.30 0.1086
951.40 0.1084
951.50 0.1082
951.60 0.1081
951.70 0.1079
951.80 0.1077
951.90 0.1076
952.00 0.1074
952.10 0.1073
952.20 0.1071
952.30 0.107
952.40 0.1069
952.50 0.1067
952.60 0.1066
952.70 0.1065
952.80 0.1064
952.90 0.1063
953.00 0.1063
953.10 0.1063
953.20 0.1063
953.30 0.1062
953.40 0.1062
953.50 0.1062
953.60 0.1065
953.70 0.1069
953.80 0.1072
953.90 0.1075
954.00 0.1081
954.10 0.1086
954.20 0.1092
954.30 0.107
954.40 0.1045
954.50 0.104
954.60 0.1035
954.70 0.103
954.80 0.1026
954.90 0.1022
955.00 0.1018
955.10 0.1015
955.20 0.1013
955.30 0.1011
955.40 0.101
955.50 0.1008
955.60 0.1007
955.70 0.1005
955.80 0.1004
955.90 0.1004
956.00 0.1004
956.10 0.1004
956.20 0.1004
956.30 0.1004
956.40 0.1005
956.50 0.1005
956.60 0.1005
956.70 0.1005
956.80 0.1005
956.90 0.1005
957.00 0.1005
957.10 0.1006
957.20 0.1007
957.30 0.1007
957.40 0.1008
957.50 0.1009
957.60 0.101
957.70 0.1011
957.80 0.1011
957.90 0.1012
958.00 0.1013
958.10 0.1014
958.20 0.1015
958.30 0.1015
958.40 0.1016
958.50 0.1017
958.60 0.1018
958.70 0.1019
958.80 0.1019
958.90 0.102
959.00 0.1021
959.10 0.1022
959.20 0.1023
959.30 0.1023
959.40 0.1024
959.50 0.1025
959.60 0.1026
959.70 0.1027
959.80 0.1028
959.90 0.1028
960.00 0.1029
960.10 0.103
960.20 0.1031
960.30 0.1032
960.40 0.1032
960.50 0.1033
960.60 0.1034
960.70 0.1035
960.80 0.1036
960.90 0.1037
961.00 0.1037
961.10 0.1038
961.20 0.1039
961.30 0.104
961.40 0.1041
961.50 0.1041
961.60 0.1042
961.70 0.1043
961.80 0.1043
961.90 0.1044
962.00 0.1045
962.10 0.1046
962.20 0.1046
962.30 0.1047
962.40 0.1047
962.50 0.1048
962.60 0.1049
962.70 0.1049
962.80 0.105
962.90 0.1051
963.00 0.1051
963.10 0.1052
963.20 0.1053
963.30 0.1053
963.40 0.1054
963.50 0.1054
963.60 0.1055
963.70 0.1055
963.80 0.1056
963.90 0.1056
964.00 0.1057
964.10 0.1057
964.20 0.1058
964.30 0.1059
964.40 0.1059
964.50 0.1059
964.60 0.106
964.70 0.106
964.80 0.1061
964.90 0.1061
965.00 0.1061
965.10 0.1062
965.20 0.1062
965.30 0.1063
965.40 0.1063
965.50 0.1063
965.60 0.1064
965.70 0.1064
965.80 0.1065
965.90 0.1065
966.00 0.1065
966.10 0.1066
966.20 0.1066
966.30 0.1067
966.40 0.1067
966.50 0.1067
966.60 0.1067
966.70 0.1068
966.80 0.1068
966.90 0.1068
967.00 0.1069
967.10 0.1069
967.20 0.1069
967.30 0.1069
967.40 0.1069
967.50 0.107
967.60 0.107
967.70 0.107
967.80 0.107
967.90 0.107
968.00 0.1071
968.10 0.1071
968.20 0.1071
968.30 0.1071
968.40 0.1071
968.50 0.1071
968.60 0.1071
968.70 0.1071
968.80 0.1072
968.90 0.1072
969.00 0.1072
969.10 0.1072
969.20 0.1072
969.30 0.1072
969.40 0.1072
969.50 0.1072
969.60 0.1072
969.70 0.1072
969.80 0.1072
969.90 0.1073
970.00 0.1073
970.10 0.1073
970.20 0.1073
970.30 0.1073
970.40 0.1073
970.50 0.1073
970.60 0.1073
970.70 0.1073
970.80 0.1073
970.90 0.1073
971.00 0.1073
971.10 0.1073
971.20 0.1073
971.30 0.1073
971.40 0.1072
971.50 0.1072
971.60 0.1072
971.70 0.1072
971.80 0.1072
971.90 0.1072
972.00 0.1072
972.10 0.1072
972.20 0.1072
972.30 0.1072
972.40 0.1072
972.50 0.1072
972.60 0.1071
972.70 0.1071
972.80 0.1071
972.90 0.1071
973.00 0.1071
973.10 0.1071
973.20 0.1071
973.30 0.107
973.40 0.107
973.50 0.107
973.60 0.107
973.70 0.107
973.80 0.107
973.90 0.107
974.00 0.1069
974.10 0.1069
974.20 0.1069
974.30 0.1069
974.40 0.1069
974.50 0.1068
974.60 0.1068
974.70 0.1068
974.80 0.1068
974.90 0.1067
975.00 0.1067
975.10 0.1067
975.20 0.1067
975.30 0.1066
975.40 0.1066
975.50 0.1066
975.60 0.1066
975.70 0.1065
975.80 0.1065
975.90 0.1065
976.00 0.1065
976.10 0.1064
976.20 0.1064
976.30 0.1064
976.40 0.1063
976.50 0.1063
976.60 0.1063
976.70 0.1063
976.80 0.1062
976.90 0.1062
977.00 0.1062
977.10 0.1061
977.20 0.1061
977.30 0.1061
977.40 0.106
977.50 0.106
977.60 0.1059
977.70 0.1059
977.80 0.1058
977.90 0.1058
978.00 0.1058
978.10 0.1057
978.20 0.1057
978.30 0.1056
978.40 0.1056
978.50 0.1055
978.60 0.1055
978.70 0.1054
978.80 0.1054
978.90 0.1054
979.00 0.1053
979.10 0.1053
979.20 0.1052
979.30 0.1052
979.40 0.1051
979.50 0.1051
979.60 0.1051
979.70 0.105
979.80 0.105
979.90 0.1049
980.00 0.1049
980.10 0.1048
980.20 0.1048
980.30 0.1048
980.40 0.1047
980.50 0.1047
980.60 0.1046
980.70 0.1046
980.80 0.1045
980.90 0.1045
981.00 0.1045
981.10 0.1044
981.20 0.1044
981.30 0.1043
981.40 0.1043
981.50 0.1042
981.60 0.1042
981.70 0.1041
981.80 0.1041
981.90 0.1041
982.00 0.104
982.10 0.104
982.20 0.1039
982.30 0.1038
982.40 0.1038
982.50 0.1037
982.60 0.1036
982.70 0.1036
982.80 0.1035
982.90 0.1035
983.00 0.1034
983.10 0.1033
983.20 0.1033
983.30 0.1032
983.40 0.1032
983.50 0.1031
983.60 0.103
983.70 0.103
983.80 0.1029
983.90 0.1028
984.00 0.1028
984.10 0.1027
984.20 0.1027
984.30 0.1026
984.40 0.1025
984.50 0.1025
984.60 0.1024
984.70 0.1023
984.80 0.1023
984.90 0.1022
985.00 0.1021
985.10 0.102
985.20 0.102
985.30 0.1019
985.40 0.1018
985.50 0.1017
985.60 0.1017
985.70 0.1016
985.80 0.1015
985.90 0.1014
986.00 0.1014
986.10 0.1013
986.20 0.1012
986.30 0.1011
986.40 0.1011
986.50 0.101
986.60 0.1009
986.70 0.1008
986.80 0.1007
986.90 0.1007
987.00 0.1006
987.10 0.1005
987.20 0.1004
987.30 0.1003
987.40 0.1002
987.50 0.1001
987.60 0.1001
987.70 0.09997
987.80 0.09988
987.90 0.09979
988.00 0.0997
988.10 0.09961
988.20 0.09952
988.30 0.09943
988.40 0.09935
988.50 0.09926
988.60 0.09917
988.70 0.09907
988.80 0.09896
988.90 0.09886
989.00 0.09876
989.10 0.09865
989.20 0.09855
989.30 0.09845
989.40 0.09835
989.50 0.09824
989.60 0.09814
989.70 0.09804
989.80 0.09793
989.90 0.09783
990.00 0.09773
990.10 0.09763
990.20 0.09752
990.30 0.09742
990.40 0.09732
990.50 0.09721
990.60 0.09711
990.70 0.097
990.80 0.09688
990.90 0.09677
991.00 0.09665
991.10 0.09653
991.20 0.09642
991.30 0.0963
991.40 0.09618
991.50 0.09607
991.60 0.09595
991.70 0.09583
991.80 0.09572
991.90 0.0956
992.00 0.09549
992.10 0.09536
992.20 0.09524
992.30 0.09511
992.40 0.09499
992.50 0.09486
992.60 0.09474
992.70 0.09461
992.80 0.09447
992.90 0.09434
993.00 0.0942
993.10 0.09407
993.20 0.09393
993.30 0.0938
993.40 0.09366
993.50 0.09353
993.60 0.09339
993.70 0.09326
993.80 0.09312
993.90 0.09299
994.00 0.09285
994.10 0.09272
994.20 0.09258
994.30 0.09245
994.40 0.09231
994.50 0.09218
994.60 0.09204
994.70 0.0919
994.80 0.09175
994.90 0.09161
995.00 0.09146
995.10 0.09131
995.20 0.09117
995.30 0.09102
995.40 0.09087
995.50 0.09073
995.60 0.09058
995.70 0.09043
995.80 0.09027
995.90 0.09012
996.00 0.08996
996.10 0.0898
996.20 0.08965
996.30 0.08949
996.40 0.08934
996.50 0.08918
996.60 0.08903
996.70 0.08887
996.80 0.08872
996.90 0.08856
997.00 0.0884
997.10 0.08824
997.20 0.08808
997.30 0.08792
997.40 0.08775
997.50 0.08759
997.60 0.08743
997.70 0.08726
997.80 0.08709
997.90 0.08692
998.00 0.08675
998.10 0.08658
998.20 0.0864
998.30 0.08623
998.40 0.08606
998.50 0.08589
998.60 0.08572
998.70 0.08555
998.80 0.08538
998.90 0.08521
999.00 0.08504
999.10 0.08487
999.20 0.0847
999.30 0.08453
999.40 0.08436
999.50 0.08419
999.60 0.08402
999.70 0.08385
999.80 0.08367
999.90 0.0835
1000.00 0.08332
1000.10 0.08315
1000.20 0.08297
1000.30 0.0828
1000.40 0.08262
1000.50 0.08245
1000.60 0.08228
1000.70 0.0821
1000.80 0.08193
1000.90 0.08175
1001.00 0.08158
1001.10 0.08141
1001.20 0.08123
1001.30 0.08106
1001.40 0.08089
1001.50 0.08071
1001.60 0.08054
1001.70 0.08037
1001.80 0.0802
1001.90 0.08004
1002.00 0.07987
1002.10 0.07973
1002.20 0.07958
1002.30 0.07944
1002.40 0.07929
1002.50 0.07915
1002.60 0.079
1002.70 0.07886
1002.80 0.07871
1002.90 0.07857
1003.00 0.07842
1003.10 0.07828
1003.20 0.07821
1003.30 0.07816
1003.40 0.07811
1003.50 0.07806
1003.60 0.07801
1003.70 0.07796
1003.80 0.07791
1003.90 0.07803
1004.00 0.0782
1004.10 0.07837
1004.20 0.07854
1004.30 0.07888
1004.40 0.07929
1004.50 0.07977
1004.60 0.08024
1004.70 0.07975
1004.80 0.07918
1004.90 0.07873
1005.00 0.07828
1005.10 0.07802
1005.20 0.07781
1005.30 0.0776
1005.40 0.0774
1005.50 0.07736
1005.60 0.07736
1005.70 0.07737
1005.80 0.07738
1005.90 0.07738
1006.00 0.07739
1006.10 0.0774
1006.20 0.07746
1006.30 0.07755
1006.40 0.07763
1006.50 0.07772
1006.60 0.0778
1006.70 0.07789
1006.80 0.07797
1006.90 0.07806
1007.00 0.07814
1007.10 0.07825
1007.20 0.07836
1007.30 0.07847
1007.40 0.07857
1007.50 0.07868
1007.60 0.07879
1007.70 0.0789
1007.80 0.07901
1007.90 0.07912
1008.00 0.07924
1008.10 0.07935
1008.20 0.07946
1008.30 0.07957
1008.40 0.07969
1008.50 0.0798
1008.60 0.07991
1008.70 0.08002
1008.80 0.08014
1008.90 0.08025
1009.00 0.08036
1009.10 0.08047
1009.20 0.08059
1009.30 0.0807
1009.40 0.08081
1009.50 0.08092
1009.60 0.08103
1009.70 0.08114
1009.80 0.08124
1009.90 0.08134
1010.00 0.08145
1010.10 0.08155
1010.20 0.08165
1010.30 0.08175
1010.40 0.08185
1010.50 0.08196
1010.60 0.08206
1010.70 0.08216
1010.80 0.08226
1010.90 0.08236
1011.00 0.08247
1011.10 0.08257
1011.20 0.08267
1011.30 0.08277
1011.40 0.08287
1011.50 0.08298
1011.60 0.08308
1011.70 0.08317
1011.80 0.08326
1011.90 0.08335
1012.00 0.08345
1012.10 0.08353
1012.20 0.08361
1012.30 0.08369
1012.40 0.08378
1012.50 0.08386
1012.60 0.08394
1012.70 0.08402
1012.80 0.08411
1012.90 0.08419
1013.00 0.08427
1013.10 0.08435
1013.20 0.08444
1013.30 0.08452
1013.40 0.0846
1013.50 0.08468
1013.60 0.08477
1013.70 0.08484
1013.80 0.08491
1013.90 0.08498
1014.00 0.08505
1014.10 0.08512
1014.20 0.08519
1014.30 0.08526
1014.40 0.08533
1014.50 0.0854
1014.60 0.08547
1014.70 0.08553
1014.80 0.08559
1014.90 0.08565
1015.00 0.08571
1015.10 0.08577
1015.20 0.08582
1015.30 0.08588
1015.40 0.08594
1015.50 0.086
1015.60 0.08605
1015.70 0.08611
1015.80 0.08617
1015.90 0.08623
1016.00 0.08629
1016.10 0.08634
1016.20 0.0864
1016.30 0.08646
1016.40 0.08652
1016.50 0.08657
1016.60 0.08663
1016.70 0.08668
1016.80 0.08673
1016.90 0.08678
1017.00 0.08683
1017.10 0.08687
1017.20 0.08691
1017.30 0.08695
1017.40 0.08699
1017.50 0.08703
1017.60 0.08708
1017.70 0.08712
1017.80 0.08716
1017.90 0.0872
1018.00 0.08724
1018.10 0.08728
1018.20 0.08732
1018.30 0.08736
1018.40 0.08741
1018.50 0.08745
1018.60 0.08749
1018.70 0.08752
1018.80 0.08755
1018.90 0.08758
1019.00 0.08761
1019.10 0.08764
1019.20 0.08767
1019.30 0.0877
1019.40 0.08773
1019.50 0.08776
1019.60 0.08779
1019.70 0.08782
1019.80 0.08785
1019.90 0.08788
1020.00 0.08791
1020.10 0.08793
1020.20 0.08796
1020.30 0.08799
1020.40 0.08802
1020.50 0.08805
1020.60 0.08808
1020.70 0.0881
1020.80 0.08813
1020.90 0.08815
1021.00 0.08817
1021.10 0.08819
1021.20 0.08821
1021.30 0.08823
1021.40 0.08825
1021.50 0.08827
1021.60 0.08829
1021.70 0.08831
1021.80 0.08833
1021.90 0.08835
1022.00 0.08837
1022.10 0.08838
1022.20 0.08839
1022.30 0.0884
1022.40 0.08841
1022.50 0.08842
1022.60 0.08843
1022.70 0.08845
1022.80 0.08846
1022.90 0.08847
1023.00 0.08848
1023.10 0.08849
1023.20 0.0885
1023.30 0.08851
1023.40 0.08852
1023.50 0.08853
1023.60 0.08854
1023.70 0.08856
1023.80 0.08857
1023.90 0.08858
1024.00 0.08859
1024.10 0.0886
1024.20 0.08861
1024.30 0.08862
1024.40 0.08863
1024.50 0.08864
1024.60 0.08865
1024.70 0.08866
1024.80 0.08866
1024.90 0.08866
1025.00 0.08866
1025.10 0.08866
1025.20 0.08866
1025.30 0.08867
1025.40 0.08867
1025.50 0.08867
1025.60 0.08867
1025.70 0.08867
1025.80 0.08867
1025.90 0.08867
1026.00 0.08868
1026.10 0.08868
1026.20 0.08868
1026.30 0.08868
1026.40 0.08868
1026.50 0.08868
1026.60 0.08868
1026.70 0.08869
1026.80 0.08869
1026.90 0.08869
1027.00 0.08869
1027.10 0.08868
1027.20 0.08867
1027.30 0.08866
1027.40 0.08866
1027.50 0.08865
1027.60 0.08864
1027.70 0.08863
1027.80 0.08862
1027.90 0.08861
1028.00 0.0886
1028.10 0.08859
1028.20 0.08859
1028.30 0.08858
1028.40 0.08857
1028.50 0.08856
1028.60 0.08855
1028.70 0.08854
1028.80 0.08853
1028.90 0.08853
1029.00 0.08852
1029.10 0.08851
1029.20 0.0885
1029.30 0.08849
1029.40 0.08848
1029.50 0.08847
1029.60 0.08846
1029.70 0.08846
1029.80 0.08845
1029.90 0.08844
1030.00 0.08843
1030.10 0.08842
1030.20 0.08841
1030.30 0.0884
1030.40 0.0884
1030.50 0.08839
1030.60 0.08838
1030.70 0.08837
1030.80 0.08836
1030.90 0.08835
1031.00 0.08834
1031.10 0.08834
1031.20 0.08833
1031.30 0.08832
1031.40 0.08831
1031.50 0.0883
1031.60 0.08829
1031.70 0.08828
1031.80 0.08828
1031.90 0.08827
1032.00 0.08826
1032.10 0.08824
1032.20 0.08822
1032.30 0.0882
1032.40 0.08819
1032.50 0.08817
1032.60 0.08815
1032.70 0.08813
1032.80 0.08812
1032.90 0.0881
1033.00 0.08808
1033.10 0.08806
1033.20 0.08804
1033.30 0.08803
1033.40 0.08801
1033.50 0.08799
1033.60 0.08797
1033.70 0.08796
1033.80 0.08794
1033.90 0.08792
1034.00 0.0879
1034.10 0.08788
1034.20 0.08787
1034.30 0.08785
1034.40 0.08783
1034.50 0.08781
1034.60 0.0878
1034.70 0.08778
1034.80 0.08776
1034.90 0.08774
1035.00 0.08772
1035.10 0.08771
1035.20 0.08769
1035.30 0.08767
1035.40 0.08765
1035.50 0.08764
1035.60 0.08762
1035.70 0.0876
1035.80 0.08758
1035.90 0.08757
1036.00 0.08755
1036.10 0.08753
1036.20 0.08751
1036.30 0.08749
1036.40 0.08748
1036.50 0.08746
1036.60 0.08744
1036.70 0.08742
1036.80 0.08741
1036.90 0.08739
1037.00 0.08737
1037.10 0.08735
1037.20 0.08732
1037.30 0.0873
1037.40 0.08728
1037.50 0.08725
1037.60 0.08723
1037.70 0.08721
1037.80 0.08718
1037.90 0.08716
1038.00 0.08714
1038.10 0.08711
1038.20 0.08709
1038.30 0.08707
1038.40 0.08704
1038.50 0.08702
1038.60 0.087
1038.70 0.08697
1038.80 0.08695
1038.90 0.08693
1039.00 0.0869
1039.10 0.08688
1039.20 0.08686
1039.30 0.08683
1039.40 0.08681
1039.50 0.08679
1039.60 0.08676
1039.70 0.08674
1039.80 0.08672
1039.90 0.08669
1040.00 0.08667
1040.10 0.08665
1040.20 0.08662
1040.30 0.0866
1040.40 0.08658
1040.50 0.08655
1040.60 0.08653
1040.70 0.08651
1040.80 0.08648
1040.90 0.08646
1041.00 0.08644
1041.10 0.08641
1041.20 0.08639
1041.30 0.08637
1041.40 0.08634
1041.50 0.08632
1041.60 0.0863
1041.70 0.08627
1041.80 0.08625
1041.90 0.08623
1042.00 0.0862
1042.10 0.08618
1042.20 0.08615
1042.30 0.08612
1042.40 0.0861
1042.50 0.08607
1042.60 0.08604
1042.70 0.08601
1042.80 0.08599
1042.90 0.08596
1043.00 0.08593
1043.10 0.08591
1043.20 0.08588
1043.30 0.08585
1043.40 0.08582
1043.50 0.0858
1043.60 0.08577
1043.70 0.08574
1043.80 0.08572
1043.90 0.08569
1044.00 0.08566
1044.10 0.08563
1044.20 0.08561
1044.30 0.08558
1044.40 0.08555
1044.50 0.08553
1044.60 0.0855
1044.70 0.08547
1044.80 0.08545
1044.90 0.08542
1045.00 0.08539
1045.10 0.08536
1045.20 0.08534
1045.30 0.08531
1045.40 0.08528
1045.50 0.08526
1045.60 0.08523
1045.70 0.0852
1045.80 0.08518
1045.90 0.08515
1046.00 0.08512
1046.10 0.0851
1046.20 0.08507
1046.30 0.08504
1046.40 0.08501
1046.50 0.08499
1046.60 0.08496
1046.70 0.08493
1046.80 0.08491
1046.90 0.08488
1047.00 0.08485
1047.10 0.08482
1047.20 0.08479
1047.30 0.08476
1047.40 0.08473
1047.50 0.0847
1047.60 0.08467
1047.70 0.08464
1047.80 0.08462
1047.90 0.08459
1048.00 0.08456
1048.10 0.08453
1048.20 0.0845
1048.30 0.08447
1048.40 0.08444
1048.50 0.08441
1048.60 0.08438
1048.70 0.08435
1048.80 0.08432
1048.90 0.08429
1049.00 0.08426
1049.10 0.08423
1049.20 0.0842
1049.30 0.08417
1049.40 0.08414
1049.50 0.08411
1049.60 0.08408
1049.70 0.08405
1049.80 0.08402
1049.90 0.08399
1050.00 0.08396
1050.10 0.08393
1050.20 0.0839
1050.30 0.08387
1050.40 0.08384
1050.50 0.08381
1050.60 0.08379
1050.70 0.08376
1050.80 0.08373
1050.90 0.0837
1051.00 0.08367
1051.10 0.08364
1051.20 0.08361
1051.30 0.08358
1051.40 0.08355
1051.50 0.08352
1051.60 0.08349
1051.70 0.08346
1051.80 0.08343
1051.90 0.0834
1052.00 0.08337
1052.10 0.08334
1052.20 0.08331
1052.30 0.08327
1052.40 0.08324
1052.50 0.08321
1052.60 0.08318
1052.70 0.08314
1052.80 0.08311
1052.90 0.08308
1053.00 0.08304
1053.10 0.08301
1053.20 0.08298
1053.30 0.08295
1053.40 0.08291
1053.50 0.08288
1053.60 0.08285
1053.70 0.08281
1053.80 0.08278
1053.90 0.08275
1054.00 0.08272
1054.10 0.08268
1054.20 0.08265
1054.30 0.08262
1054.40 0.08258
1054.50 0.08255
1054.60 0.08252
1054.70 0.08249
1054.80 0.08245
1054.90 0.08242
1055.00 0.08239
1055.10 0.08236
1055.20 0.08232
1055.30 0.08229
1055.40 0.08226
1055.50 0.08222
1055.60 0.08219
1055.70 0.08216
1055.80 0.08213
1055.90 0.08209
1056.00 0.08206
1056.10 0.08203
1056.20 0.082
1056.30 0.08196
1056.40 0.08193
1056.50 0.0819
1056.60 0.08187
1056.70 0.08183
1056.80 0.0818
1056.90 0.08177
1057.00 0.08174
1057.10 0.0817
1057.20 0.08166
1057.30 0.08163
1057.40 0.08159
1057.50 0.08155
1057.60 0.08152
1057.70 0.08148
1057.80 0.08145
1057.90 0.08141
1058.00 0.08137
1058.10 0.08134
1058.20 0.0813
1058.30 0.08126
1058.40 0.08123
1058.50 0.08119
1058.60 0.08116
1058.70 0.08112
1058.80 0.08108
1058.90 0.08105
1059.00 0.08101
1059.10 0.08097
1059.20 0.08094
1059.30 0.0809
1059.40 0.08087
1059.50 0.08083
1059.60 0.08079
1059.70 0.08076
1059.80 0.08072
1059.90 0.08069
1060.00 0.08065
1060.10 0.08061
1060.20 0.08058
1060.30 0.08054
1060.40 0.0805
1060.50 0.08047
1060.60 0.08043
1060.70 0.0804
1060.80 0.08036
1060.90 0.08032
1061.00 0.08029
1061.10 0.08025
1061.20 0.08022
1061.30 0.08018
1061.40 0.08014
1061.50 0.08011
1061.60 0.08007
1061.70 0.08004
1061.80 0.08
1061.90 0.07997
1062.00 0.07993
1062.10 0.07989
1062.20 0.07985
1062.30 0.0798
1062.40 0.07976
1062.50 0.07972
1062.60 0.07968
1062.70 0.07964
1062.80 0.0796
1062.90 0.07956
1063.00 0.07951
1063.10 0.07947
1063.20 0.07943
1063.30 0.07939
1063.40 0.07935
1063.50 0.07931
1063.60 0.07927
1063.70 0.07922
1063.80 0.07918
1063.90 0.07914
1064.00 0.0791
1064.10 0.07906
1064.20 0.07902
1064.30 0.07898
1064.40 0.07893
1064.50 0.07889
1064.60 0.07885
1064.70 0.07881
1064.80 0.07877
1064.90 0.07873
1065.00 0.07869
1065.10 0.07865
1065.20 0.07861
1065.30 0.07856
1065.40 0.07852
1065.50 0.07848
1065.60 0.07844
1065.70 0.0784
1065.80 0.07836
1065.90 0.07832
1066.00 0.07828
1066.10 0.07824
1066.20 0.07819
1066.30 0.07815
1066.40 0.07811
1066.50 0.07807
1066.60 0.07803
1066.70 0.07799
1066.80 0.07795
1066.90 0.07791
1067.00 0.07787
1067.10 0.07782
1067.20 0.07777
1067.30 0.07772
1067.40 0.07767
1067.50 0.07762
1067.60 0.07757
1067.70 0.07752
1067.80 0.07747
1067.90 0.07742
1068.00 0.07737
1068.10 0.07732
1068.20 0.07727
1068.30 0.07722
1068.40 0.07717
1068.50 0.07712
1068.60 0.07707
1068.70 0.07702
1068.80 0.07697
1068.90 0.07692
1069.00 0.07687
1069.10 0.07682
1069.20 0.07677
1069.30 0.07672
1069.40 0.07667
1069.50 0.07663
1069.60 0.07658
1069.70 0.07653
1069.80 0.07648
1069.90 0.07643
1070.00 0.07638
1070.10 0.07633
1070.20 0.07628
1070.30 0.07623
1070.40 0.07618
1070.50 0.07613
1070.60 0.07608
1070.70 0.07603
1070.80 0.07598
1070.90 0.07594
1071.00 0.07589
1071.10 0.07584
1071.20 0.07579
1071.30 0.07574
1071.40 0.07569
1071.50 0.07564
1071.60 0.07559
1071.70 0.07554
1071.80 0.07549
1071.90 0.07544
1072.00 0.0754
1072.10 0.07534
1072.20 0.07528
1072.30 0.07522
1072.40 0.07517
1072.50 0.07511
1072.60 0.07505
1072.70 0.075
1072.80 0.07494
1072.90 0.07488
1073.00 0.07483
1073.10 0.07477
1073.20 0.07471
1073.30 0.07466
1073.40 0.0746
1073.50 0.07454
1073.60 0.07448
1073.70 0.07441
1073.80 0.07435
1073.90 0.07428
1074.00 0.07422
1074.10 0.07416
1074.20 0.07409
1074.30 0.07403
1074.40 0.07397
1074.50 0.0739
1074.60 0.07384
1074.70 0.07377
1074.80 0.07371
1074.90 0.07365
1075.00 0.07358
1075.10 0.07352
1075.20 0.07346
1075.30 0.07339
1075.40 0.07333
1075.50 0.07326
1075.60 0.0732
1075.70 0.07314
1075.80 0.07307
1075.90 0.07301
1076.00 0.07295
1076.10 0.07288
1076.20 0.07282
1076.30 0.07276
1076.40 0.07269
1076.50 0.07263
1076.60 0.07257
1076.70 0.0725
1076.80 0.07244
1076.90 0.07238
1077.00 0.07231
1077.10 0.07224
1077.20 0.07217
1077.30 0.0721
1077.40 0.07203
1077.50 0.07195
1077.60 0.07188
1077.70 0.0718
1077.80 0.07173
1077.90 0.07165
1078.00 0.07157
1078.10 0.0715
1078.20 0.07142
1078.30 0.07135
1078.40 0.07127
1078.50 0.0712
1078.60 0.07112
1078.70 0.07105
1078.80 0.07097
1078.90 0.07089
1079.00 0.07082
1079.10 0.07074
1079.20 0.07067
1079.30 0.07059
1079.40 0.07052
1079.50 0.07044
1079.60 0.07035
1079.70 0.07027
1079.80 0.07019
1079.90 0.0701
1080.00 0.07002
1080.10 0.06993
1080.20 0.06985
1080.30 0.06976
1080.40 0.06968
1080.50 0.06959
1080.60 0.06951
1080.70 0.06942
1080.80 0.06934
1080.90 0.06925
1081.00 0.06917
1081.10 0.06909
1081.20 0.069
1081.30 0.06892
1081.40 0.06883
1081.50 0.06875
1081.60 0.06865
1081.70 0.06856
1081.80 0.06847
1081.90 0.06838
1082.00 0.06829
1082.10 0.06819
1082.20 0.06809
1082.30 0.068
1082.40 0.0679
1082.50 0.0678
1082.60 0.06771
1082.70 0.06761
1082.80 0.06751
1082.90 0.06742
1083.00 0.06732
1083.10 0.06722
1083.20 0.06713
1083.30 0.06703
1083.40 0.06693
1083.50 0.06684
1083.60 0.06673
1083.70 0.06663
1083.80 0.06652
1083.90 0.06642
1084.00 0.06631
1084.10 0.06621
1084.20 0.06611
1084.30 0.066
1084.40 0.0659
1084.50 0.06579
1084.60 0.06568
1084.70 0.06556
1084.80 0.06545
1084.90 0.06533
1085.00 0.06522
1085.10 0.0651
1085.20 0.06499
1085.30 0.06487
1085.40 0.06476
1085.50 0.06465
1085.60 0.06453
1085.70 0.06442
1085.80 0.0643
1085.90 0.06419
1086.00 0.06408
1086.10 0.06396
1086.20 0.06385
1086.30 0.06373
1086.40 0.06362
1086.50 0.0635
1086.60 0.06338
1086.70 0.06326
1086.80 0.06313
1086.90 0.06301
1087.00 0.06289
1087.10 0.06276
1087.20 0.06263
1087.30 0.0625
1087.40 0.06237
1087.50 0.06224
1087.60 0.06211
1087.70 0.06198
1087.80 0.06185
1087.90 0.06172
1088.00 0.06159
1088.10 0.06146
1088.20 0.06133
1088.30 0.0612
1088.40 0.06107
1088.50 0.06093
1088.60 0.06079
1088.70 0.06065
1088.80 0.06051
1088.90 0.06037
1089.00 0.06023
1089.10 0.06009
1089.20 0.05995
1089.30 0.05981
1089.40 0.05966
1089.50 0.05952
1089.60 0.05938
1089.70 0.05924
1089.80 0.0591
1089.90 0.05896
1090.00 0.05882
1090.10 0.05868
1090.20 0.05854
1090.30 0.0584
1090.40 0.05826
1090.50 0.05812
1090.60 0.05797
1090.70 0.05782
1090.80 0.05767
1090.90 0.05752
1091.00 0.05737
1091.10 0.05722
1091.20 0.05707
1091.30 0.05692
1091.40 0.05677
1091.50 0.05662
1091.60 0.05648
1091.70 0.05633
1091.80 0.05618
1091.90 0.05603
1092.00 0.05588
1092.10 0.05574
1092.20 0.05559
1092.30 0.05545
1092.40 0.0553
1092.50 0.05516
1092.60 0.05501
1092.70 0.05489
1092.80 0.0548
1092.90 0.05471
1093.00 0.05462
1093.10 0.05459
1093.20 0.05469
1093.30 0.05481
1093.40 0.05515
1093.50 0.05529
1093.60 0.05488
1093.70 0.05465
1093.80 0.05452
1093.90 0.05444
1094.00 0.0545
1094.10 0.05456
1094.20 0.05461
1094.30 0.05469
1094.40 0.0548
1094.50 0.05491
1094.60 0.05502
1094.70 0.05513
1094.80 0.05524
1094.90 0.05535
1095.00 0.05546
1095.10 0.05557
1095.20 0.05568
1095.30 0.05579
1095.40 0.05591
1095.50 0.05602
1095.60 0.05613
1095.70 0.05624
1095.80 0.05635
1095.90 0.05646
1096.00 0.05658
1096.10 0.05669
1096.20 0.0568
1096.30 0.05691
1096.40 0.05702
1096.50 0.05713
1096.60 0.05724
1096.70 0.05734
1096.80 0.05745
1096.90 0.05755
1097.00 0.05766
1097.10 0.05776
1097.20 0.05786
1097.30 0.05795
1097.40 0.05805
1097.50 0.05815
1097.60 0.05825
1097.70 0.05835
1097.80 0.05844
1097.90 0.05854
1098.00 0.05864
1098.10 0.05874
1098.20 0.05884
1098.30 0.05894
1098.40 0.05903
1098.50 0.05913
1098.60 0.05921
1098.70 0.0593
1098.80 0.05938
1098.90 0.05946
1099.00 0.05955
1099.10 0.05963
1099.20 0.05972
1099.30 0.0598
1099.40 0.05989
1099.50 0.05997
1099.60 0.06006
1099.70 0.06014
1099.80 0.06022
1099.90 0.06031
1100.00 0.06039
1100.10 0.06048
1100.20 0.06056
1100.30 0.06064
1100.40 0.06073
1100.50 0.06081
1100.60 0.06088
1100.70 0.06095
1100.80 0.06102
1100.90 0.06109
1101.00 0.06116
1101.10 0.06123
1101.20 0.0613
1101.30 0.06137
1101.40 0.06144
1101.50 0.06151
1101.60 0.06158
1101.70 0.06165
1101.80 0.06172
1101.90 0.06178
1102.00 0.06185
1102.10 0.06192
1102.20 0.06198
1102.30 0.06204
1102.40 0.0621
1102.50 0.06216
1102.60 0.06222
1102.70 0.06227
1102.80 0.06233
1102.90 0.06239
1103.00 0.06244
1103.10 0.0625
1103.20 0.06256
1103.30 0.06261
1103.40 0.06267
1103.50 0.06272
1103.60 0.06277
1103.70 0.06282
1103.80 0.06286
1103.90 0.06291
1104.00 0.06296
1104.10 0.063
1104.20 0.06305
1104.30 0.0631
1104.40 0.06314
1104.50 0.06319
1104.60 0.06324
1104.70 0.06328
1104.80 0.06333
1104.90 0.06338
1105.00 0.06342
1105.10 0.06347
1105.20 0.06351
1105.30 0.06356
1105.40 0.06361
1105.50 0.06365
1105.60 0.06369
1105.70 0.06372
1105.80 0.06376
1105.90 0.0638
1106.00 0.06383
1106.10 0.06387
1106.20 0.06391
1106.30 0.06394
1106.40 0.06398
1106.50 0.06401
1106.60 0.06405
1106.70 0.06409
1106.80 0.06412
1106.90 0.06416
1107.00 0.06419
1107.10 0.06423
1107.20 0.06426
1107.30 0.06429
1107.40 0.06432
1107.50 0.06435
1107.60 0.06437
1107.70 0.0644
1107.80 0.06442
1107.90 0.06445
1108.00 0.06447
1108.10 0.0645
1108.20 0.06452
1108.30 0.06455
1108.40 0.06457
1108.50 0.0646
1108.60 0.06462
1108.70 0.06465
1108.80 0.06467
1108.90 0.0647
1109.00 0.06472
1109.10 0.06475
1109.20 0.06477
1109.30 0.0648
1109.40 0.06482
1109.50 0.06485
1109.60 0.06486
1109.70 0.06488
1109.80 0.06489
1109.90 0.06491
1110.00 0.06493
1110.10 0.06494
1110.20 0.06496
1110.30 0.06497
1110.40 0.06499
1110.50 0.06501
1110.60 0.06502
1110.70 0.06504
1110.80 0.06505
1110.90 0.06507
1111.00 0.06508
1111.10 0.0651
1111.20 0.06512
1111.30 0.06513
1111.40 0.06515
1111.50 0.06516
1111.60 0.06518
1111.70 0.0652
1111.80 0.06521
1111.90 0.06523
1112.00 0.06524
1112.10 0.06525
1112.20 0.06526
1112.30 0.06527
1112.40 0.06528
1112.50 0.06529
1112.60 0.0653
1112.70 0.06531
1112.80 0.06532
1112.90 0.06533
1113.00 0.06534
1113.10 0.06535
1113.20 0.06536
1113.30 0.06537
1113.40 0.06538
1113.50 0.06538
1113.60 0.06539
1113.70 0.06539
1113.80 0.06539
1113.90 0.0654
1114.00 0.0654
1114.10 0.0654
1114.20 0.0654
1114.30 0.06541
1114.40 0.06541
1114.50 0.06541
1114.60 0.06541
1114.70 0.06542
1114.80 0.06542
1114.90 0.06542
1115.00 0.06543
1115.10 0.06543
1115.20 0.06543
1115.30 0.06543
1115.40 0.06544
1115.50 0.06544
1115.60 0.06544
1115.70 0.06545
1115.80 0.06545
1115.90 0.06545
1116.00 0.06545
1116.10 0.06546
1116.20 0.06546
1116.30 0.06546
1116.40 0.06547
1116.50 0.06547
1116.60 0.06547
1116.70 0.06547
1116.80 0.06548
1116.90 0.06548
1117.00 0.06548
1117.10 0.06548
1117.20 0.06547
1117.30 0.06547
1117.40 0.06546
1117.50 0.06546
1117.60 0.06545
1117.70 0.06545
1117.80 0.06544
1117.90 0.06543
1118.00 0.06543
1118.10 0.06542
1118.20 0.06542
1118.30 0.06541
1118.40 0.06541
1118.50 0.0654
1118.60 0.0654
1118.70 0.06539
1118.80 0.06539
1118.90 0.06538
1119.00 0.06538
1119.10 0.06537
1119.20 0.06537
1119.30 0.06536
1119.40 0.06536
1119.50 0.06535
1119.60 0.06535
1119.70 0.06534
1119.80 0.06534
1119.90 0.06533
1120.00 0.06533
1120.10 0.06532
1120.20 0.06532
1120.30 0.06531
1120.40 0.06531
1120.50 0.0653
1120.60 0.06529
1120.70 0.06529
1120.80 0.06528
1120.90 0.06528
1121.00 0.06527
1121.10 0.06527
1121.20 0.06526
1121.30 0.06526
1121.40 0.06525
1121.50 0.06525
1121.60 0.06524
1121.70 0.06524
1121.80 0.06523
1121.90 0.06523
1122.00 0.06522
1122.10 0.06521
1122.20 0.0652
1122.30 0.06519
1122.40 0.06518
1122.50 0.06517
1122.60 0.06515
1122.70 0.06514
1122.80 0.06513
1122.90 0.06512
1123.00 0.06511
1123.10 0.0651
1123.20 0.06509
1123.30 0.06508
1123.40 0.06506
1123.50 0.06505
1123.60 0.06504
1123.70 0.06503
1123.80 0.06502
1123.90 0.06501
1124.00 0.065
1124.10 0.06499
1124.20 0.06497
1124.30 0.06496
1124.40 0.06495
1124.50 0.06494
1124.60 0.06493
1124.70 0.06492
1124.80 0.06491
1124.90 0.0649
1125.00 0.06488
1125.10 0.06487
1125.20 0.06486
1125.30 0.06485
1125.40 0.06484
1125.50 0.06483
1125.60 0.06482
1125.70 0.06481
1125.80 0.06479
1125.90 0.06478
1126.00 0.06477
1126.10 0.06476
1126.20 0.06475
1126.30 0.06474
1126.40 0.06473
1126.50 0.06472
1126.60 0.0647
1126.70 0.06469
1126.80 0.06468
1126.90 0.06467
1127.00 0.06466
1127.10 0.06465
1127.20 0.06463
1127.30 0.06462
1127.40 0.0646
1127.50 0.06459
1127.60 0.06457
1127.70 0.06456
1127.80 0.06454
1127.90 0.06453
1128.00 0.06451
1128.10 0.0645
1128.20 0.06448
1128.30 0.06447
1128.40 0.06445
1128.50 0.06444
1128.60 0.06442
1128.70 0.06441
1128.80 0.0644
1128.90 0.06438
1129.00 0.06437
1129.10 0.06435
1129.20 0.06434
1129.30 0.06432
1129.40 0.06431
1129.50 0.06429
1129.60 0.06428
1129.70 0.06426
1129.80 0.06425
1129.90 0.06423
1130.00 0.06422
1130.10 0.0642
1130.20 0.06419
1130.30 0.06418
1130.40 0.06416
1130.50 0.06415
1130.60 0.06413
1130.70 0.06412
1130.80 0.0641
1130.90 0.06409
1131.00 0.06407
1131.10 0.06406
1131.20 0.06404
1131.30 0.06403
1131.40 0.06402
1131.50 0.064
1131.60 0.06399
1131.70 0.06397
1131.80 0.06396
1131.90 0.06394
1132.00 0.06393
1132.10 0.06391
1132.20 0.06389
1132.30 0.06388
1132.40 0.06386
1132.50 0.06384
1132.60 0.06383
1132.70 0.06381
1132.80 0.06379
1132.90 0.06378
1133.00 0.06376
1133.10 0.06374
1133.20 0.06373
1133.30 0.06371
1133.40 0.06369
1133.50 0.06368
1133.60 0.06366
1133.70 0.06364
1133.80 0.06363
1133.90 0.06361
1134.00 0.06359
1134.10 0.06357
1134.20 0.06356
1134.30 0.06354
1134.40 0.06352
1134.50 0.06351
1134.60 0.06349
1134.70 0.06347
1134.80 0.06346
1134.90 0.06344
1135.00 0.06342
1135.10 0.06341
1135.20 0.06339
1135.30 0.06337
1135.40 0.06336
1135.50 0.06334
1135.60 0.06332
1135.70 0.06331
1135.80 0.06329
1135.90 0.06327
1136.00 0.06326
1136.10 0.06324
1136.20 0.06322
1136.30 0.06321
1136.40 0.06319
1136.50 0.06317
1136.60 0.06316
1136.70 0.06314
1136.80 0.06312
1136.90 0.06311
1137.00 0.06309
1137.10 0.06307
1137.20 0.06306
1137.30 0.06304
1137.40 0.06302
1137.50 0.063
1137.60 0.06298
1137.70 0.06297
1137.80 0.06295
1137.90 0.06293
1138.00 0.06291
1138.10 0.0629
1138.20 0.06288
1138.30 0.06286
1138.40 0.06284
1138.50 0.06282
1138.60 0.06281
1138.70 0.06279
1138.80 0.06277
1138.90 0.06275
1139.00 0.06274
1139.10 0.06272
1139.20 0.0627
1139.30 0.06268
1139.40 0.06266
1139.50 0.06265
1139.60 0.06263
1139.70 0.06261
1139.80 0.06259
1139.90 0.06258
1140.00 0.06256
1140.10 0.06254
1140.20 0.06252
1140.30 0.06251
1140.40 0.06249
1140.50 0.06247
1140.60 0.06245
1140.70 0.06244
1140.80 0.06242
1140.90 0.0624
1141.00 0.06238
1141.10 0.06237
1141.20 0.06235
1141.30 0.06233
1141.40 0.06231
1141.50 0.06229
1141.60 0.06228
1141.70 0.06226
1141.80 0.06224
1141.90 0.06222
1142.00 0.06221
1142.10 0.06219
1142.20 0.06217
1142.30 0.06215
1142.40 0.06213
1142.50 0.06212
1142.60 0.0621
1142.70 0.06208
1142.80 0.06206
1142.90 0.06204
1143.00 0.06202
1143.10 0.06201
1143.20 0.06199
1143.30 0.06197
1143.40 0.06195
1143.50 0.06193
1143.60 0.06191
1143.70 0.0619
1143.80 0.06188
1143.90 0.06186
1144.00 0.06184
1144.10 0.06182
1144.20 0.06181
1144.30 0.06179
1144.40 0.06177
1144.50 0.06175
1144.60 0.06173
1144.70 0.06171
1144.80 0.0617
1144.90 0.06168
1145.00 0.06166
1145.10 0.06164
1145.20 0.06162
1145.30 0.06161
1145.40 0.06159
1145.50 0.06157
1145.60 0.06155
1145.70 0.06153
1145.80 0.06151
1145.90 0.0615
1146.00 0.06148
1146.10 0.06146
1146.20 0.06144
1146.30 0.06142
1146.40 0.06141
1146.50 0.06139
1146.60 0.06137
1146.70 0.06135
1146.80 0.06133
1146.90 0.06132
1147.00 0.0613
1147.10 0.06128
1147.20 0.06126
1147.30 0.06124
1147.40 0.06122
1147.50 0.0612
1147.60 0.06119
1147.70 0.06117
1147.80 0.06115
1147.90 0.06113
1148.00 0.06111
1148.10 0.06109
1148.20 0.06107
1148.30 0.06106
1148.40 0.06104
1148.50 0.06102
1148.60 0.061
1148.70 0.06098
1148.80 0.06096
1148.90 0.06094
1149.00 0.06093
1149.10 0.06091
1149.20 0.06089
1149.30 0.06087
1149.40 0.06085
1149.50 0.06083
1149.60 0.06082
1149.70 0.0608
1149.80 0.06078
1149.90 0.06076
1150.00 0.06074
1150.10 0.06072
1150.20 0.0607
1150.30 0.06069
1150.40 0.06067
1150.50 0.06065
1150.60 0.06063
1150.70 0.06061
1150.80 0.06059
1150.90 0.06058
1151.00 0.06056
1151.10 0.06054
1151.20 0.06052
1151.30 0.0605
1151.40 0.06048
1151.50 0.06047
1151.60 0.06045
1151.70 0.06043
1151.80 0.06041
1151.90 0.06039
1152.00 0.06037
1152.10 0.06035
1152.20 0.06034
1152.30 0.06032
1152.40 0.0603
1152.50 0.06028
1152.60 0.06026
1152.70 0.06024
1152.80 0.06022
1152.90 0.06021
1153.00 0.06019
1153.10 0.06017
1153.20 0.06015
1153.30 0.06013
1153.40 0.06011
1153.50 0.0601
1153.60 0.06008
1153.70 0.06006
1153.80 0.06004
1153.90 0.06002
1154.00 0.06
1154.10 0.05998
1154.20 0.05997
1154.30 0.05995
1154.40 0.05993
1154.50 0.05991
1154.60 0.05989
1154.70 0.05987
1154.80 0.05986
1154.90 0.05984
1155.00 0.05982
1155.10 0.0598
1155.20 0.05978
1155.30 0.05976
1155.40 0.05975
1155.50 0.05973
1155.60 0.05971
1155.70 0.05969
1155.80 0.05967
1155.90 0.05965
1156.00 0.05964
1156.10 0.05962
1156.20 0.0596
1156.30 0.05958
1156.40 0.05956
1156.50 0.05954
1156.60 0.05953
1156.70 0.05951
1156.80 0.05949
1156.90 0.05947
1157.00 0.05945
1157.10 0.05943
1157.20 0.05941
1157.30 0.0594
1157.40 0.05938
1157.50 0.05936
1157.60 0.05934
1157.70 0.05932
1157.80 0.0593
1157.90 0.05929
1158.00 0.05927
1158.10 0.05925
1158.20 0.05923
1158.30 0.05921
1158.40 0.05919
1158.50 0.05917
1158.60 0.05916
1158.70 0.05914
1158.80 0.05912
1158.90 0.0591
1159.00 0.05908
1159.10 0.05906
1159.20 0.05905
1159.30 0.05903
1159.40 0.05901
1159.50 0.05899
1159.60 0.05897
1159.70 0.05895
1159.80 0.05893
1159.90 0.05892
1160.00 0.0589
1160.10 0.05888
1160.20 0.05886
1160.30 0.05884
1160.40 0.05882
1160.50 0.05881
1160.60 0.05879
1160.70 0.05877
1160.80 0.05875
1160.90 0.05873
1161.00 0.05871
1161.10 0.0587
1161.20 0.05868
1161.30 0.05866
1161.40 0.05864
1161.50 0.05862
1161.60 0.0586
1161.70 0.05859
1161.80 0.05857
1161.90 0.05855
1162.00 0.05853
1162.10 0.05851
1162.20 0.0585
1162.30 0.05848
1162.40 0.05846
1162.50 0.05844
1162.60 0.05842
1162.70 0.0584
1162.80 0.05839
1162.90 0.05837
1163.00 0.05835
1163.10 0.05833
1163.20 0.05831
1163.30 0.05829
1163.40 0.05828
1163.50 0.05826
1163.60 0.05824
1163.70 0.05822
1163.80 0.0582
1163.90 0.05818
1164.00 0.05817
1164.10 0.05815
1164.20 0.05813
1164.30 0.05811
1164.40 0.05809
1164.50 0.05808
1164.60 0.05806
1164.70 0.05804
1164.80 0.05802
1164.90 0.058
1165.00 0.05799
1165.10 0.05797
1165.20 0.05795
1165.30 0.05793
1165.40 0.05791
1165.50 0.05789
1165.60 0.05788
1165.70 0.05786
1165.80 0.05784
1165.90 0.05782
1166.00 0.0578
1166.10 0.05779
1166.20 0.05777
1166.30 0.05775
1166.40 0.05773
1166.50 0.05771
1166.60 0.0577
1166.70 0.05768
1166.80 0.05766
1166.90 0.05764
1167.00 0.05762
1167.10 0.05761
1167.20 0.05759
1167.30 0.05757
1167.40 0.05755
1167.50 0.05753
1167.60 0.05751
1167.70 0.0575
1167.80 0.05748
1167.90 0.05746
1168.00 0.05744
1168.10 0.05742
1168.20 0.05741
1168.30 0.05739
1168.40 0.05737
1168.50 0.05735
1168.60 0.05733
1168.70 0.05732
1168.80 0.0573
1168.90 0.05728
1169.00 0.05726
1169.10 0.05724
1169.20 0.05723
1169.30 0.05721
1169.40 0.05719
1169.50 0.05717
1169.60 0.05715
1169.70 0.05714
1169.80 0.05712
1169.90 0.0571
1170.00 0.05708
1170.10 0.05706
1170.20 0.05705
1170.30 0.05703
1170.40 0.05701
1170.50 0.05699
1170.60 0.05697
1170.70 0.05696
1170.80 0.05694
1170.90 0.05692
1171.00 0.0569
1171.10 0.05688
1171.20 0.05687
1171.30 0.05685
1171.40 0.05683
1171.50 0.05681
1171.60 0.05679
1171.70 0.05678
1171.80 0.05676
1171.90 0.05674
1172.00 0.05672
1172.10 0.05671
1172.20 0.05669
1172.30 0.05667
1172.40 0.05665
1172.50 0.05663
1172.60 0.05662
1172.70 0.0566
1172.80 0.05658
1172.90 0.05656
1173.00 0.05654
1173.10 0.05653
1173.20 0.05651
1173.30 0.05649
1173.40 0.05647
1173.50 0.05646
1173.60 0.05644
1173.70 0.05642
1173.80 0.0564
1173.90 0.05638
1174.00 0.05637
1174.10 0.05635
1174.20 0.05633
1174.30 0.05631
1174.40 0.0563
1174.50 0.05628
1174.60 0.05626
1174.70 0.05624
1174.80 0.05622
1174.90 0.05621
1175.00 0.05619
1175.10 0.05617
1175.20 0.05615
1175.30 0.05614
1175.40 0.05612
1175.50 0.0561
1175.60 0.05608
1175.70 0.05607
1175.80 0.05605
1175.90 0.05603
1176.00 0.05601
1176.10 0.05599
1176.20 0.05598
1176.30 0.05596
1176.40 0.05594
1176.50 0.05592
1176.60 0.05591
1176.70 0.05589
1176.80 0.05587
1176.90 0.05585
1177.00 0.05584
1177.10 0.05582
1177.20 0.0558
1177.30 0.05578
1177.40 0.05577
1177.50 0.05575
1177.60 0.05573
1177.70 0.05571
1177.80 0.05569
1177.90 0.05568
1178.00 0.05566
1178.10 0.05564
1178.20 0.05562
1178.30 0.05561
1178.40 0.05559
1178.50 0.05557
1178.60 0.05555
1178.70 0.05554
1178.80 0.05552
1178.90 0.0555
1179.00 0.05548
1179.10 0.05547
1179.20 0.05545
1179.30 0.05543
1179.40 0.05541
1179.50 0.0554
1179.60 0.05538
1179.70 0.05536
1179.80 0.05534
1179.90 0.05533
1180.00 0.05531
1180.10 0.05529
1180.20 0.05527
1180.30 0.05526
1180.40 0.05524
1180.50 0.05522
1180.60 0.0552
1180.70 0.05519
1180.80 0.05517
1180.90 0.05515
1181.00 0.05514
1181.10 0.05512
1181.20 0.0551
1181.30 0.05508
1181.40 0.05507
1181.50 0.05505
1181.60 0.05503
1181.70 0.05501
1181.80 0.055
1181.90 0.05498
1182.00 0.05496
1182.10 0.05494
1182.20 0.05493
1182.30 0.05491
1182.40 0.05489
1182.50 0.05487
1182.60 0.05486
1182.70 0.05484
1182.80 0.05482
1182.90 0.05481
1183.00 0.05479
1183.10 0.05477
1183.20 0.05475
1183.30 0.05474
1183.40 0.05472
1183.50 0.0547
1183.60 0.05468
1183.70 0.05467
1183.80 0.05465
1183.90 0.05463
1184.00 0.05462
1184.10 0.0546
1184.20 0.05458
1184.30 0.05456
1184.40 0.05455
1184.50 0.05453
1184.60 0.05451
1184.70 0.05449
1184.80 0.05448
1184.90 0.05446
1185.00 0.05444
1185.10 0.05443
1185.20 0.05441
1185.30 0.05439
1185.40 0.05437
1185.50 0.05436
1185.60 0.05434
1185.70 0.05432
1185.80 0.05431
1185.90 0.05429
1186.00 0.05427
1186.10 0.05425
1186.20 0.05424
1186.30 0.05422
1186.40 0.0542
1186.50 0.05419
1186.60 0.05417
1186.70 0.05415
1186.80 0.05413
1186.90 0.05412
1187.00 0.0541
1187.10 0.05408
1187.20 0.05407
1187.30 0.05405
1187.40 0.05403
1187.50 0.05401
1187.60 0.054
1187.70 0.05398
1187.80 0.05396
1187.90 0.05395
1188.00 0.05393
1188.10 0.05391
1188.20 0.05389
1188.30 0.05388
1188.40 0.05386
1188.50 0.05384
1188.60 0.05383
1188.70 0.05381
1188.80 0.05379
1188.90 0.05378
1189.00 0.05376
1189.10 0.05374
1189.20 0.05372
1189.30 0.05371
1189.40 0.05369
1189.50 0.05367
1189.60 0.05366
1189.70 0.05364
1189.80 0.05362
1189.90 0.05361
1190.00 0.05359
1190.10 0.05357
1190.20 0.05355
1190.30 0.05354
1190.40 0.05352
1190.50 0.0535
1190.60 0.05349
1190.70 0.05347
1190.80 0.05345
1190.90 0.05344
1191.00 0.05342
1191.10 0.0534
1191.20 0.05339
1191.30 0.05337
1191.40 0.05335
1191.50 0.05333
1191.60 0.05332
1191.70 0.0533
1191.80 0.05328
1191.90 0.05327
1192.00 0.05325
1192.10 0.05323
1192.20 0.05322
1192.30 0.0532
1192.40 0.05318
1192.50 0.05317
1192.60 0.05315
1192.70 0.05313
1192.80 0.05312
1192.90 0.0531
1193.00 0.05308
1193.10 0.05306
1193.20 0.05305
1193.30 0.05303
1193.40 0.05301
1193.50 0.053
1193.60 0.05298
1193.70 0.05296
1193.80 0.05295
1193.90 0.05293
1194.00 0.05291
1194.10 0.0529
1194.20 0.05288
1194.30 0.05286
1194.40 0.05285
1194.50 0.05283
1194.60 0.05281
1194.70 0.0528
1194.80 0.05278
1194.90 0.05276
1195.00 0.05275
1195.10 0.05273
1195.20 0.05271
1195.30 0.0527
1195.40 0.05268
1195.50 0.05266
1195.60 0.05265
1195.70 0.05263
1195.80 0.05261
1195.90 0.0526
1196.00 0.05258
1196.10 0.05256
1196.20 0.05255
1196.30 0.05253
1196.40 0.05251
1196.50 0.0525
1196.60 0.05248
1196.70 0.05246
1196.80 0.05245
1196.90 0.05243
1197.00 0.05241
1197.10 0.0524
1197.20 0.05238
1197.30 0.05236
1197.40 0.05235
1197.50 0.05233
1197.60 0.05231
1197.70 0.0523
1197.80 0.05228
1197.90 0.05226
1198.00 0.05225
1198.10 0.05223
1198.20 0.05221
1198.30 0.0522
1198.40 0.05218
1198.50 0.05216
1198.60 0.05215
1198.70 0.05213
1198.80 0.05211
1198.90 0.0521
1199.00 0.05208
1199.10 0.05206
1199.20 0.05205
1199.30 0.05203
1199.40 0.05201
1199.50 0.052
1199.60 0.05198
1199.70 0.05197
1199.80 0.05195
1199.90 0.05193
1200.00 0
