# Version 2.1 - nm, norm@500 to 1, cut digits, bergeron_2000_65.dat_2000
# Wavelength(nm)  Flambda(ergs/cm^s/s/nm)
300.00 0.01542
300.10 0.01548
300.20 0.01555
300.30 0.01562
300.40 0.01568
300.50 0.01575
300.60 0.01582
300.70 0.01589
300.80 0.01596
300.90 0.01602
301.00 0.01609
301.10 0.01616
301.20 0.01623
301.30 0.01629
301.40 0.01636
301.50 0.01643
301.60 0.0165
301.70 0.01656
301.80 0.01663
301.90 0.0167
302.00 0.01677
302.10 0.01684
302.20 0.01691
302.30 0.01698
302.40 0.01706
302.50 0.01713
302.60 0.0172
302.70 0.01727
302.80 0.01735
302.90 0.01742
303.00 0.01749
303.10 0.01756
303.20 0.01764
303.30 0.01771
303.40 0.01778
303.50 0.01785
303.60 0.01792
303.70 0.01799
303.80 0.01807
303.90 0.01814
304.00 0.01821
304.10 0.01829
304.20 0.01836
304.30 0.01844
304.40 0.01852
304.50 0.0186
304.60 0.01868
304.70 0.01875
304.80 0.01883
304.90 0.01891
305.00 0.01898
305.10 0.01906
305.20 0.01914
305.30 0.01922
305.40 0.01929
305.50 0.01937
305.60 0.01944
305.70 0.01952
305.80 0.0196
305.90 0.01967
306.00 0.01975
306.10 0.01983
306.20 0.01992
306.30 0.02
306.40 0.02008
306.50 0.02016
306.60 0.02025
306.70 0.02033
306.80 0.02041
306.90 0.02049
307.00 0.02058
307.10 0.02066
307.20 0.02074
307.30 0.02082
307.40 0.0209
307.50 0.02098
307.60 0.02107
307.70 0.02115
307.80 0.02123
307.90 0.02131
308.00 0.0214
308.10 0.02148
308.20 0.02157
308.30 0.02166
308.40 0.02174
308.50 0.02183
308.60 0.02192
308.70 0.02201
308.80 0.02209
308.90 0.02218
309.00 0.02227
309.10 0.02236
309.20 0.02244
309.30 0.02253
309.40 0.02262
309.50 0.0227
309.60 0.02279
309.70 0.02288
309.80 0.02296
309.90 0.02305
310.00 0.02314
310.10 0.02323
310.20 0.02332
310.30 0.02342
310.40 0.02351
310.50 0.02361
310.60 0.0237
310.70 0.02379
310.80 0.02389
310.90 0.02398
311.00 0.02407
311.10 0.02417
311.20 0.02426
311.30 0.02435
311.40 0.02444
311.50 0.02454
311.60 0.02463
311.70 0.02472
311.80 0.02481
311.90 0.02491
312.00 0.025
312.10 0.02509
312.20 0.02519
312.30 0.02528
312.40 0.02538
312.50 0.02548
312.60 0.02558
312.70 0.02568
312.80 0.02578
312.90 0.02588
313.00 0.02598
313.10 0.02608
313.20 0.02617
313.30 0.02627
313.40 0.02637
313.50 0.02647
313.60 0.02657
313.70 0.02666
313.80 0.02676
313.90 0.02686
314.00 0.02696
314.10 0.02706
314.20 0.02717
314.30 0.02727
314.40 0.02738
314.50 0.02748
314.60 0.02759
314.70 0.02769
314.80 0.0278
314.90 0.0279
315.00 0.02801
315.10 0.02811
315.20 0.02822
315.30 0.02832
315.40 0.02842
315.50 0.02853
315.60 0.02863
315.70 0.02873
315.80 0.02884
315.90 0.02894
316.00 0.02905
316.10 0.02916
316.20 0.02927
316.30 0.02938
316.40 0.02949
316.50 0.0296
316.60 0.02971
316.70 0.02982
316.80 0.02993
316.90 0.03004
317.00 0.03015
317.10 0.03026
317.20 0.03037
317.30 0.03048
317.40 0.03059
317.50 0.0307
317.60 0.03081
317.70 0.03092
317.80 0.03103
317.90 0.03114
318.00 0.03125
318.10 0.03137
318.20 0.03148
318.30 0.0316
318.40 0.03172
318.50 0.03184
318.60 0.03195
318.70 0.03207
318.80 0.03219
318.90 0.0323
319.00 0.03242
319.10 0.03254
319.20 0.03265
319.30 0.03277
319.40 0.03289
319.50 0.033
319.60 0.03312
319.70 0.03323
319.80 0.03335
319.90 0.03347
320.00 0.03359
320.10 0.03371
320.20 0.03383
320.30 0.03395
320.40 0.03408
320.50 0.0342
320.60 0.03432
320.70 0.03445
320.80 0.03457
320.90 0.0347
321.00 0.03482
321.10 0.03494
321.20 0.03506
321.30 0.03519
321.40 0.03531
321.50 0.03543
321.60 0.03555
321.70 0.03568
321.80 0.0358
321.90 0.03592
322.00 0.03604
322.10 0.03617
322.20 0.0363
322.30 0.03643
322.40 0.03657
322.50 0.0367
322.60 0.03683
322.70 0.03696
322.80 0.03709
322.90 0.03722
323.00 0.03735
323.10 0.03748
323.20 0.03761
323.30 0.03774
323.40 0.03787
323.50 0.03799
323.60 0.03812
323.70 0.03825
323.80 0.03838
323.90 0.03851
324.00 0.03864
324.10 0.03878
324.20 0.03891
324.30 0.03905
324.40 0.03919
324.50 0.03933
324.60 0.03946
324.70 0.0396
324.80 0.03974
324.90 0.03988
325.00 0.04001
325.10 0.04015
325.20 0.04029
325.30 0.04042
325.40 0.04056
325.50 0.04069
325.60 0.04083
325.70 0.04097
325.80 0.0411
325.90 0.04124
326.00 0.04138
326.10 0.04152
326.20 0.04166
326.30 0.04181
326.40 0.04195
326.50 0.0421
326.60 0.04224
326.70 0.04239
326.80 0.04253
326.90 0.04268
327.00 0.04282
327.10 0.04296
327.20 0.04311
327.30 0.04325
327.40 0.04339
327.50 0.04354
327.60 0.04368
327.70 0.04382
327.80 0.04396
327.90 0.04411
328.00 0.04426
328.10 0.0444
328.20 0.04455
328.30 0.04471
328.40 0.04486
328.50 0.04501
328.60 0.04516
328.70 0.04531
328.80 0.04547
328.90 0.04562
329.00 0.04577
329.10 0.04592
329.20 0.04607
329.30 0.04622
329.40 0.04637
329.50 0.04652
329.60 0.04667
329.70 0.04682
329.80 0.04697
329.90 0.04712
330.00 0.04727
330.10 0.04743
330.20 0.04759
330.30 0.04775
330.40 0.04791
330.50 0.04807
330.60 0.04823
330.70 0.04839
330.80 0.04855
330.90 0.04871
331.00 0.04887
331.10 0.04903
331.20 0.04919
331.30 0.04934
331.40 0.0495
331.50 0.04966
331.60 0.04982
331.70 0.04998
331.80 0.05013
331.90 0.05029
332.00 0.05045
332.10 0.05061
332.20 0.05078
332.30 0.05095
332.40 0.05112
332.50 0.05129
332.60 0.05145
332.70 0.05162
332.80 0.05179
332.90 0.05195
333.00 0.05212
333.10 0.05229
333.20 0.05245
333.30 0.05262
333.40 0.05279
333.50 0.05295
333.60 0.05312
333.70 0.05328
333.80 0.05345
333.90 0.05361
334.00 0.05378
334.10 0.05395
334.20 0.05413
334.30 0.0543
334.40 0.05448
334.50 0.05466
334.60 0.05483
334.70 0.05501
334.80 0.05518
334.90 0.05536
335.00 0.05553
335.10 0.0557
335.20 0.05588
335.30 0.05605
335.40 0.05623
335.50 0.0564
335.60 0.05657
335.70 0.05675
335.80 0.05692
335.90 0.05709
336.00 0.05726
336.10 0.05745
336.20 0.05763
336.30 0.05782
336.40 0.058
336.50 0.05818
336.60 0.05837
336.70 0.05855
336.80 0.05873
336.90 0.05892
337.00 0.0591
337.10 0.05928
337.20 0.05946
337.30 0.05965
337.40 0.05983
337.50 0.06001
337.60 0.06019
337.70 0.06037
337.80 0.06055
337.90 0.06073
338.00 0.06091
338.10 0.0611
338.20 0.0613
338.30 0.06149
338.40 0.06168
338.50 0.06188
338.60 0.06207
338.70 0.06226
338.80 0.06245
338.90 0.06264
339.00 0.06283
339.10 0.06302
339.20 0.06321
339.30 0.0634
339.40 0.06359
339.50 0.06378
339.60 0.06397
339.70 0.06416
339.80 0.06435
339.90 0.06454
340.00 0.06473
340.10 0.06493
340.20 0.06513
340.30 0.06533
340.40 0.06553
340.50 0.06574
340.60 0.06594
340.70 0.06614
340.80 0.06634
340.90 0.06654
341.00 0.06673
341.10 0.06693
341.20 0.06713
341.30 0.06733
341.40 0.06753
341.50 0.06773
341.60 0.06793
341.70 0.06812
341.80 0.06832
341.90 0.06852
342.00 0.06872
342.10 0.06893
342.20 0.06914
342.30 0.06935
342.40 0.06956
342.50 0.06977
342.60 0.06997
342.70 0.07018
342.80 0.07039
342.90 0.0706
343.00 0.07081
343.10 0.07102
343.20 0.07122
343.30 0.07143
343.40 0.07164
343.50 0.07185
343.60 0.07205
343.70 0.07226
343.80 0.07246
343.90 0.07267
344.00 0.07288
344.10 0.0731
344.20 0.07331
344.30 0.07353
344.40 0.07375
344.50 0.07397
344.60 0.07419
344.70 0.07441
344.80 0.07462
344.90 0.07484
345.00 0.07506
345.10 0.07527
345.20 0.07549
345.30 0.07571
345.40 0.07592
345.50 0.07614
345.60 0.07635
345.70 0.07657
345.80 0.07678
345.90 0.077
346.00 0.07721
346.10 0.07744
346.20 0.07767
346.30 0.0779
346.40 0.07813
346.50 0.07835
346.60 0.07858
346.70 0.07881
346.80 0.07903
346.90 0.07926
347.00 0.07949
347.10 0.07971
347.20 0.07994
347.30 0.08016
347.40 0.08039
347.50 0.08061
347.60 0.08084
347.70 0.08106
347.80 0.08128
347.90 0.08151
348.00 0.08173
348.10 0.08197
348.20 0.08221
348.30 0.08244
348.40 0.08268
348.50 0.08292
348.60 0.08315
348.70 0.08339
348.80 0.08363
348.90 0.08386
349.00 0.0841
349.10 0.08433
349.20 0.08457
349.30 0.0848
349.40 0.08503
349.50 0.08527
349.60 0.0855
349.70 0.08573
349.80 0.08597
349.90 0.0862
350.00 0.08643
350.10 0.08668
350.20 0.08693
350.30 0.08717
350.40 0.08742
350.50 0.08767
350.60 0.08791
350.70 0.08816
350.80 0.0884
350.90 0.08865
351.00 0.08889
351.10 0.08914
351.20 0.08938
351.30 0.08962
351.40 0.08987
351.50 0.09011
351.60 0.09035
351.70 0.0906
351.80 0.09084
351.90 0.09108
352.00 0.09132
352.10 0.09158
352.20 0.09183
352.30 0.09209
352.40 0.09235
352.50 0.0926
352.60 0.09286
352.70 0.09311
352.80 0.09337
352.90 0.09362
353.00 0.09388
353.10 0.09413
353.20 0.09438
353.30 0.09464
353.40 0.09489
353.50 0.09514
353.60 0.09539
353.70 0.09565
353.80 0.0959
353.90 0.09615
354.00 0.0964
354.10 0.09667
354.20 0.09693
354.30 0.0972
354.40 0.09746
354.50 0.09773
354.60 0.098
354.70 0.09826
354.80 0.09852
354.90 0.09879
355.00 0.09905
355.10 0.09931
355.20 0.09958
355.30 0.09984
355.40 0.1001
355.50 0.1004
355.60 0.1006
355.70 0.1009
355.80 0.1011
355.90 0.1014
356.00 0.1017
356.10 0.1019
356.20 0.1022
356.30 0.1025
356.40 0.1028
356.50 0.1031
356.60 0.1033
356.70 0.1036
356.80 0.1039
356.90 0.1041
357.00 0.1044
357.10 0.1047
357.20 0.105
357.30 0.1052
357.40 0.1055
357.50 0.1058
357.60 0.1061
357.70 0.1063
357.80 0.1066
357.90 0.1069
358.00 0.1071
358.10 0.1074
358.20 0.1077
358.30 0.108
358.40 0.1083
358.50 0.1086
358.60 0.1089
358.70 0.1091
358.80 0.1094
358.90 0.1097
359.00 0.11
359.10 0.1103
359.20 0.1106
359.30 0.1108
359.40 0.1111
359.50 0.1114
359.60 0.1117
359.70 0.112
359.80 0.1122
359.90 0.1125
360.00 0.1128
360.10 0.1131
360.20 0.1134
360.30 0.1137
360.40 0.114
360.50 0.1143
360.60 0.1146
360.70 0.1149
360.80 0.1152
360.90 0.1155
361.00 0.1158
361.10 0.116
361.20 0.1163
361.30 0.1166
361.40 0.1169
361.50 0.1172
361.60 0.1175
361.70 0.1178
361.80 0.1181
361.90 0.1184
362.00 0.1187
362.10 0.119
362.20 0.1193
362.30 0.1196
362.40 0.1199
362.50 0.1202
362.60 0.1205
362.70 0.1208
362.80 0.1211
362.90 0.1214
363.00 0.1217
363.10 0.122
363.20 0.1223
363.30 0.1226
363.40 0.1229
363.50 0.1232
363.60 0.1235
363.70 0.1238
363.80 0.1242
363.90 0.1245
364.00 0.1248
364.10 0.1251
364.20 0.1254
364.30 0.1257
364.40 0.126
364.50 0.1263
364.60 0.1266
364.70 0.1269
364.80 0.1272
364.90 0.1276
365.00 0.1279
365.10 0.1282
365.20 0.1285
365.30 0.1288
365.40 0.1291
365.50 0.1295
365.60 0.1298
365.70 0.1301
365.80 0.1304
365.90 0.1307
366.00 0.131
366.10 0.1313
366.20 0.1317
366.30 0.132
366.40 0.1323
366.50 0.1327
366.60 0.133
366.70 0.1333
366.80 0.1336
366.90 0.134
367.00 0.1343
367.10 0.1346
367.20 0.1349
367.30 0.1352
367.40 0.1356
367.50 0.1359
367.60 0.1362
367.70 0.1365
367.80 0.1369
367.90 0.1372
368.00 0.1375
368.10 0.1378
368.20 0.1382
368.30 0.1385
368.40 0.1389
368.50 0.1392
368.60 0.1395
368.70 0.1399
368.80 0.1402
368.90 0.1405
369.00 0.1409
369.10 0.1412
369.20 0.1415
369.30 0.1419
369.40 0.1422
369.50 0.1425
369.60 0.1429
369.70 0.1432
369.80 0.1435
369.90 0.1439
370.00 0.1442
370.10 0.1445
370.20 0.1449
370.30 0.1452
370.40 0.1456
370.50 0.1459
370.60 0.1463
370.70 0.1466
370.80 0.147
370.90 0.1473
371.00 0.1477
371.10 0.148
371.20 0.1484
371.30 0.1487
371.40 0.149
371.50 0.1494
371.60 0.1497
371.70 0.1501
371.80 0.1504
371.90 0.1508
372.00 0.1511
372.10 0.1515
372.20 0.1518
372.30 0.1522
372.40 0.1525
372.50 0.1529
372.60 0.1532
372.70 0.1536
372.80 0.154
372.90 0.1543
373.00 0.1547
373.10 0.155
373.20 0.1554
373.30 0.1557
373.40 0.1561
373.50 0.1564
373.60 0.1568
373.70 0.1572
373.80 0.1575
373.90 0.1579
374.00 0.1582
374.10 0.1586
374.20 0.159
374.30 0.1593
374.40 0.1597
374.50 0.1601
374.60 0.1604
374.70 0.1608
374.80 0.1612
374.90 0.1615
375.00 0.1619
375.10 0.1623
375.20 0.1626
375.30 0.163
375.40 0.1634
375.50 0.1637
375.60 0.1641
375.70 0.1645
375.80 0.1648
375.90 0.1652
376.00 0.1655
376.10 0.1659
376.20 0.1663
376.30 0.1667
376.40 0.167
376.50 0.1674
376.60 0.1678
376.70 0.1682
376.80 0.1685
376.90 0.1689
377.00 0.1693
377.10 0.1697
377.20 0.1701
377.30 0.1704
377.40 0.1708
377.50 0.1712
377.60 0.1716
377.70 0.172
377.80 0.1723
377.90 0.1727
378.00 0.1731
378.10 0.1735
378.20 0.1739
378.30 0.1743
378.40 0.1746
378.50 0.175
378.60 0.1754
378.70 0.1758
378.80 0.1762
378.90 0.1766
379.00 0.1769
379.10 0.1773
379.20 0.1777
379.30 0.1781
379.40 0.1785
379.50 0.1789
379.60 0.1793
379.70 0.1797
379.80 0.1801
379.90 0.1805
380.00 0.1809
380.10 0.1813
380.20 0.1816
380.30 0.182
380.40 0.1824
380.50 0.1828
380.60 0.1832
380.70 0.1836
380.80 0.184
380.90 0.1844
381.00 0.1848
381.10 0.1852
381.20 0.1856
381.30 0.186
381.40 0.1864
381.50 0.1868
381.60 0.1872
381.70 0.1876
381.80 0.188
381.90 0.1884
382.00 0.1888
382.10 0.1892
382.20 0.1896
382.30 0.1901
382.40 0.1905
382.50 0.1909
382.60 0.1913
382.70 0.1917
382.80 0.1921
382.90 0.1925
383.00 0.1929
383.10 0.1933
383.20 0.1937
383.30 0.1941
383.40 0.1945
383.50 0.195
383.60 0.1954
383.70 0.1958
383.80 0.1962
383.90 0.1966
384.00 0.197
384.10 0.1974
384.20 0.1979
384.30 0.1983
384.40 0.1987
384.50 0.1991
384.60 0.1995
384.70 0.2
384.80 0.2004
384.90 0.2008
385.00 0.2012
385.10 0.2016
385.20 0.2021
385.30 0.2025
385.40 0.2029
385.50 0.2033
385.60 0.2037
385.70 0.2042
385.80 0.2046
385.90 0.205
386.00 0.2054
386.10 0.2059
386.20 0.2063
386.30 0.2067
386.40 0.2072
386.50 0.2076
386.60 0.208
386.70 0.2084
386.80 0.2089
386.90 0.2093
387.00 0.2097
387.10 0.2102
387.20 0.2106
387.30 0.211
387.40 0.2115
387.50 0.2119
387.60 0.2123
387.70 0.2128
387.80 0.2132
387.90 0.2137
388.00 0.2141
388.10 0.2145
388.20 0.215
388.30 0.2154
388.40 0.2158
388.50 0.2163
388.60 0.2167
388.70 0.2172
388.80 0.2176
388.90 0.218
389.00 0.2185
389.10 0.2189
389.20 0.2194
389.30 0.2198
389.40 0.2203
389.50 0.2207
389.60 0.2212
389.70 0.2216
389.80 0.222
389.90 0.2225
390.00 0.2229
390.10 0.2234
390.20 0.2238
390.30 0.2243
390.40 0.2247
390.50 0.2252
390.60 0.2256
390.70 0.2261
390.80 0.2265
390.90 0.227
391.00 0.2275
391.10 0.2279
391.20 0.2284
391.30 0.2288
391.40 0.2293
391.50 0.2297
391.60 0.2302
391.70 0.2306
391.80 0.2311
391.90 0.2316
392.00 0.232
392.10 0.2325
392.20 0.2329
392.30 0.2334
392.40 0.2339
392.50 0.2343
392.60 0.2348
392.70 0.2352
392.80 0.2357
392.90 0.2362
393.00 0.2366
393.10 0.2371
393.20 0.2376
393.30 0.238
393.40 0.2385
393.50 0.239
393.60 0.2394
393.70 0.2399
393.80 0.2404
393.90 0.2408
394.00 0.2413
394.10 0.2418
394.20 0.2423
394.30 0.2427
394.40 0.2432
394.50 0.2437
394.60 0.2441
394.70 0.2446
394.80 0.2451
394.90 0.2456
395.00 0.246
395.10 0.2465
395.20 0.247
395.30 0.2475
395.40 0.2479
395.50 0.2484
395.60 0.2489
395.70 0.2494
395.80 0.2499
395.90 0.2503
396.00 0.2508
396.10 0.2513
396.20 0.2518
396.30 0.2523
396.40 0.2528
396.50 0.2532
396.60 0.2537
396.70 0.2542
396.80 0.2547
396.90 0.2552
397.00 0.2557
397.10 0.2562
397.20 0.2566
397.30 0.2571
397.40 0.2576
397.50 0.2581
397.60 0.2586
397.70 0.2591
397.80 0.2596
397.90 0.2601
398.00 0.2606
398.10 0.2611
398.20 0.2616
398.30 0.262
398.40 0.2625
398.50 0.263
398.60 0.2635
398.70 0.264
398.80 0.2645
398.90 0.265
399.00 0.2655
399.10 0.266
399.20 0.2665
399.30 0.267
399.40 0.2675
399.50 0.268
399.60 0.2685
399.70 0.269
399.80 0.2695
399.90 0.27
400.00 0.2705
400.10 0.271
400.20 0.2715
400.30 0.272
400.40 0.2725
400.50 0.273
400.60 0.2735
400.70 0.274
400.80 0.2746
400.90 0.2751
401.00 0.2756
401.10 0.2761
401.20 0.2766
401.30 0.2771
401.40 0.2776
401.50 0.2781
401.60 0.2786
401.70 0.2791
401.80 0.2797
401.90 0.2802
402.00 0.2807
402.10 0.2812
402.20 0.2817
402.30 0.2822
402.40 0.2827
402.50 0.2833
402.60 0.2838
402.70 0.2843
402.80 0.2848
402.90 0.2853
403.00 0.2859
403.10 0.2864
403.20 0.2869
403.30 0.2874
403.40 0.2879
403.50 0.2885
403.60 0.289
403.70 0.2895
403.80 0.29
403.90 0.2905
404.00 0.2911
404.10 0.2916
404.20 0.2921
404.30 0.2926
404.40 0.2932
404.50 0.2937
404.60 0.2942
404.70 0.2948
404.80 0.2953
404.90 0.2958
405.00 0.2963
405.10 0.2969
405.20 0.2974
405.30 0.2979
405.40 0.2985
405.50 0.299
405.60 0.2995
405.70 0.3001
405.80 0.3006
405.90 0.3011
406.00 0.3017
406.10 0.3022
406.20 0.3027
406.30 0.3033
406.40 0.3038
406.50 0.3044
406.60 0.3049
406.70 0.3054
406.80 0.306
406.90 0.3065
407.00 0.3071
407.10 0.3076
407.20 0.3081
407.30 0.3087
407.40 0.3092
407.50 0.3098
407.60 0.3103
407.70 0.3108
407.80 0.3114
407.90 0.3119
408.00 0.3125
408.10 0.313
408.20 0.3136
408.30 0.3141
408.40 0.3147
408.50 0.3152
408.60 0.3158
408.70 0.3163
408.80 0.3169
408.90 0.3174
409.00 0.318
409.10 0.3185
409.20 0.3191
409.30 0.3196
409.40 0.3202
409.50 0.3207
409.60 0.3213
409.70 0.3219
409.80 0.3224
409.90 0.323
410.00 0.3235
410.10 0.3241
410.20 0.3246
410.30 0.3252
410.40 0.3258
410.50 0.3263
410.60 0.3269
410.70 0.3274
410.80 0.328
410.90 0.3286
411.00 0.3291
411.10 0.3297
411.20 0.3302
411.30 0.3308
411.40 0.3314
411.50 0.3319
411.60 0.3325
411.70 0.3331
411.80 0.3336
411.90 0.3342
412.00 0.3348
412.10 0.3353
412.20 0.3359
412.30 0.3365
412.40 0.337
412.50 0.3376
412.60 0.3382
412.70 0.3388
412.80 0.3393
412.90 0.3399
413.00 0.3405
413.10 0.341
413.20 0.3416
413.30 0.3422
413.40 0.3428
413.50 0.3433
413.60 0.3439
413.70 0.3445
413.80 0.3451
413.90 0.3457
414.00 0.3462
414.10 0.3468
414.20 0.3474
414.30 0.348
414.40 0.3485
414.50 0.3491
414.60 0.3497
414.70 0.3503
414.80 0.3509
414.90 0.3515
415.00 0.352
415.10 0.3526
415.20 0.3532
415.30 0.3538
415.40 0.3544
415.50 0.355
415.60 0.3555
415.70 0.3561
415.80 0.3567
415.90 0.3573
416.00 0.3579
416.10 0.3585
416.20 0.3591
416.30 0.3597
416.40 0.3603
416.50 0.3608
416.60 0.3614
416.70 0.362
416.80 0.3626
416.90 0.3632
417.00 0.3638
417.10 0.3644
417.20 0.365
417.30 0.3656
417.40 0.3662
417.50 0.3668
417.60 0.3674
417.70 0.368
417.80 0.3686
417.90 0.3692
418.00 0.3698
418.10 0.3704
418.20 0.371
418.30 0.3716
418.40 0.3722
418.50 0.3728
418.60 0.3734
418.70 0.374
418.80 0.3746
418.90 0.3752
419.00 0.3758
419.10 0.3764
419.20 0.377
419.30 0.3776
419.40 0.3782
419.50 0.3788
419.60 0.3794
419.70 0.38
419.80 0.3806
419.90 0.3812
420.00 0.3818
420.10 0.3824
420.20 0.3831
420.30 0.3837
420.40 0.3843
420.50 0.3849
420.60 0.3855
420.70 0.3861
420.80 0.3867
420.90 0.3873
421.00 0.388
421.10 0.3886
421.20 0.3892
421.30 0.3898
421.40 0.3904
421.50 0.391
421.60 0.3916
421.70 0.3923
421.80 0.3929
421.90 0.3935
422.00 0.3941
422.10 0.3947
422.20 0.3954
422.30 0.396
422.40 0.3966
422.50 0.3972
422.60 0.3978
422.70 0.3985
422.80 0.3991
422.90 0.3997
423.00 0.4003
423.10 0.401
423.20 0.4016
423.30 0.4022
423.40 0.4028
423.50 0.4035
423.60 0.4041
423.70 0.4047
423.80 0.4054
423.90 0.406
424.00 0.4066
424.10 0.4072
424.20 0.4079
424.30 0.4085
424.40 0.4091
424.50 0.4098
424.60 0.4104
424.70 0.411
424.80 0.4117
424.90 0.4123
425.00 0.4129
425.10 0.4136
425.20 0.4142
425.30 0.4148
425.40 0.4155
425.50 0.4161
425.60 0.4167
425.70 0.4174
425.80 0.418
425.90 0.4187
426.00 0.4193
426.10 0.4199
426.20 0.4206
426.30 0.4212
426.40 0.4219
426.50 0.4225
426.60 0.4231
426.70 0.4238
426.80 0.4244
426.90 0.4251
427.00 0.4257
427.10 0.4264
427.20 0.427
427.30 0.4276
427.40 0.4283
427.50 0.4289
427.60 0.4296
427.70 0.4302
427.80 0.4309
427.90 0.4315
428.00 0.4322
428.10 0.4328
428.20 0.4335
428.30 0.4341
428.40 0.4348
428.50 0.4354
428.60 0.4361
428.70 0.4367
428.80 0.4374
428.90 0.438
429.00 0.4387
429.10 0.4393
429.20 0.44
429.30 0.4406
429.40 0.4413
429.50 0.442
429.60 0.4426
429.70 0.4433
429.80 0.4439
429.90 0.4446
430.00 0.4452
430.10 0.4459
430.20 0.4466
430.30 0.4472
430.40 0.4479
430.50 0.4485
430.60 0.4492
430.70 0.4499
430.80 0.4505
430.90 0.4512
431.00 0.4519
431.10 0.4525
431.20 0.4532
431.30 0.4538
431.40 0.4545
431.50 0.4552
431.60 0.4558
431.70 0.4565
431.80 0.4572
431.90 0.4578
432.00 0.4585
432.10 0.4592
432.20 0.4598
432.30 0.4605
432.40 0.4612
432.50 0.4619
432.60 0.4625
432.70 0.4632
432.80 0.4639
432.90 0.4645
433.00 0.4652
433.10 0.4659
433.20 0.4666
433.30 0.4672
433.40 0.4679
433.50 0.4686
433.60 0.4693
433.70 0.4699
433.80 0.4706
433.90 0.4713
434.00 0.472
434.10 0.4726
434.20 0.4733
434.30 0.474
434.40 0.4747
434.50 0.4754
434.60 0.476
434.70 0.4767
434.80 0.4774
434.90 0.4781
435.00 0.4788
435.10 0.4794
435.20 0.4801
435.30 0.4808
435.40 0.4815
435.50 0.4822
435.60 0.4829
435.70 0.4835
435.80 0.4842
435.90 0.4849
436.00 0.4856
436.10 0.4863
436.20 0.487
436.30 0.4877
436.40 0.4884
436.50 0.489
436.60 0.4897
436.70 0.4904
436.80 0.4911
436.90 0.4918
437.00 0.4925
437.10 0.4932
437.20 0.4939
437.30 0.4946
437.40 0.4953
437.50 0.4959
437.60 0.4966
437.70 0.4973
437.80 0.498
437.90 0.4987
438.00 0.4994
438.10 0.5001
438.20 0.5008
438.30 0.5015
438.40 0.5022
438.50 0.5029
438.60 0.5036
438.70 0.5043
438.80 0.505
438.90 0.5057
439.00 0.5064
439.10 0.5071
439.20 0.5078
439.30 0.5085
439.40 0.5092
439.50 0.5099
439.60 0.5106
439.70 0.5113
439.80 0.512
439.90 0.5127
440.00 0.5134
440.10 0.5141
440.20 0.5148
440.30 0.5156
440.40 0.5163
440.50 0.517
440.60 0.5177
440.70 0.5184
440.80 0.5191
440.90 0.5198
441.00 0.5205
441.10 0.5212
441.20 0.5219
441.30 0.5226
441.40 0.5233
441.50 0.5241
441.60 0.5248
441.70 0.5255
441.80 0.5262
441.90 0.5269
442.00 0.5276
442.10 0.5283
442.20 0.529
442.30 0.5298
442.40 0.5305
442.50 0.5312
442.60 0.5319
442.70 0.5326
442.80 0.5333
442.90 0.534
443.00 0.5348
443.10 0.5355
443.20 0.5362
443.30 0.5369
443.40 0.5376
443.50 0.5384
443.60 0.5391
443.70 0.5398
443.80 0.5405
443.90 0.5412
444.00 0.542
444.10 0.5427
444.20 0.5434
444.30 0.5441
444.40 0.5449
444.50 0.5456
444.60 0.5463
444.70 0.547
444.80 0.5478
444.90 0.5485
445.00 0.5492
445.10 0.5499
445.20 0.5507
445.30 0.5514
445.40 0.5521
445.50 0.5528
445.60 0.5536
445.70 0.5543
445.80 0.555
445.90 0.5558
446.00 0.5565
446.10 0.5572
446.20 0.558
446.30 0.5587
446.40 0.5594
446.50 0.5602
446.60 0.5609
446.70 0.5616
446.80 0.5624
446.90 0.5631
447.00 0.5638
447.10 0.5646
447.20 0.5653
447.30 0.566
447.40 0.5668
447.50 0.5675
447.60 0.5682
447.70 0.569
447.80 0.5697
447.90 0.5705
448.00 0.5712
448.10 0.5719
448.20 0.5727
448.30 0.5734
448.40 0.5742
448.50 0.5749
448.60 0.5756
448.70 0.5764
448.80 0.5771
448.90 0.5779
449.00 0.5786
449.10 0.5793
449.20 0.5801
449.30 0.5808
449.40 0.5816
449.50 0.5823
449.60 0.5831
449.70 0.5838
449.80 0.5846
449.90 0.5853
450.00 0.5861
450.10 0.5868
450.20 0.5875
450.30 0.5883
450.40 0.589
450.50 0.5898
450.60 0.5905
450.70 0.5913
450.80 0.592
450.90 0.5928
451.00 0.5935
451.10 0.5943
451.20 0.595
451.30 0.5958
451.40 0.5966
451.50 0.5973
451.60 0.5981
451.70 0.5988
451.80 0.5996
451.90 0.6003
452.00 0.6011
452.10 0.6018
452.20 0.6026
452.30 0.6033
452.40 0.6041
452.50 0.6049
452.60 0.6056
452.70 0.6064
452.80 0.6071
452.90 0.6079
453.00 0.6087
453.10 0.6094
453.20 0.6102
453.30 0.6109
453.40 0.6117
453.50 0.6124
453.60 0.6132
453.70 0.614
453.80 0.6147
453.90 0.6155
454.00 0.6163
454.10 0.617
454.20 0.6178
454.30 0.6185
454.40 0.6193
454.50 0.6201
454.60 0.6208
454.70 0.6216
454.80 0.6224
454.90 0.6231
455.00 0.6239
455.10 0.6247
455.20 0.6254
455.30 0.6262
455.40 0.627
455.50 0.6277
455.60 0.6285
455.70 0.6293
455.80 0.6301
455.90 0.6308
456.00 0.6316
456.10 0.6324
456.20 0.6331
456.30 0.6339
456.40 0.6347
456.50 0.6354
456.60 0.6362
456.70 0.637
456.80 0.6378
456.90 0.6385
457.00 0.6393
457.10 0.6401
457.20 0.6409
457.30 0.6416
457.40 0.6424
457.50 0.6432
457.60 0.644
457.70 0.6447
457.80 0.6455
457.90 0.6463
458.00 0.6471
458.10 0.6478
458.20 0.6486
458.30 0.6494
458.40 0.6502
458.50 0.651
458.60 0.6517
458.70 0.6525
458.80 0.6533
458.90 0.6541
459.00 0.6549
459.10 0.6557
459.20 0.6564
459.30 0.6572
459.40 0.658
459.50 0.6588
459.60 0.6596
459.70 0.6603
459.80 0.6611
459.90 0.6619
460.00 0.6627
460.10 0.6635
460.20 0.6643
460.30 0.665
460.40 0.6658
460.50 0.6666
460.60 0.6674
460.70 0.6682
460.80 0.669
460.90 0.6698
461.00 0.6706
461.10 0.6714
461.20 0.6721
461.30 0.6729
461.40 0.6737
461.50 0.6745
461.60 0.6753
461.70 0.6761
461.80 0.6769
461.90 0.6777
462.00 0.6785
462.10 0.6793
462.20 0.68
462.30 0.6808
462.40 0.6816
462.50 0.6824
462.60 0.6832
462.70 0.684
462.80 0.6848
462.90 0.6856
463.00 0.6864
463.10 0.6872
463.20 0.688
463.30 0.6888
463.40 0.6896
463.50 0.6904
463.60 0.6912
463.70 0.692
463.80 0.6928
463.90 0.6936
464.00 0.6944
464.10 0.6952
464.20 0.696
464.30 0.6968
464.40 0.6976
464.50 0.6984
464.60 0.6992
464.70 0.7
464.80 0.7008
464.90 0.7016
465.00 0.7024
465.10 0.7032
465.20 0.704
465.30 0.7048
465.40 0.7056
465.50 0.7064
465.60 0.7072
465.70 0.708
465.80 0.7088
465.90 0.7096
466.00 0.7104
466.10 0.7112
466.20 0.712
466.30 0.7128
466.40 0.7136
466.50 0.7145
466.60 0.7153
466.70 0.7161
466.80 0.7169
466.90 0.7177
467.00 0.7185
467.10 0.7193
467.20 0.7201
467.30 0.7209
467.40 0.7217
467.50 0.7225
467.60 0.7234
467.70 0.7242
467.80 0.725
467.90 0.7258
468.00 0.7266
468.10 0.7274
468.20 0.7282
468.30 0.729
468.40 0.7298
468.50 0.7307
468.60 0.7315
468.70 0.7323
468.80 0.7331
468.90 0.7339
469.00 0.7347
469.10 0.7355
469.20 0.7364
469.30 0.7372
469.40 0.738
469.50 0.7388
469.60 0.7396
469.70 0.7405
469.80 0.7413
469.90 0.7421
470.00 0.7429
470.10 0.7437
470.20 0.7445
470.30 0.7454
470.40 0.7462
470.50 0.747
470.60 0.7478
470.70 0.7486
470.80 0.7495
470.90 0.7503
471.00 0.7511
471.10 0.7519
471.20 0.7527
471.30 0.7536
471.40 0.7544
471.50 0.7552
471.60 0.756
471.70 0.7569
471.80 0.7577
471.90 0.7585
472.00 0.7593
472.10 0.7601
472.20 0.761
472.30 0.7618
472.40 0.7626
472.50 0.7635
472.60 0.7643
472.70 0.7651
472.80 0.7659
472.90 0.7668
473.00 0.7676
473.10 0.7684
473.20 0.7692
473.30 0.7701
473.40 0.7709
473.50 0.7717
473.60 0.7726
473.70 0.7734
473.80 0.7742
473.90 0.7751
474.00 0.7759
474.10 0.7767
474.20 0.7775
474.30 0.7784
474.40 0.7792
474.50 0.78
474.60 0.7809
474.70 0.7817
474.80 0.7825
474.90 0.7834
475.00 0.7842
475.10 0.785
475.20 0.7859
475.30 0.7867
475.40 0.7875
475.50 0.7884
475.60 0.7892
475.70 0.79
475.80 0.7909
475.90 0.7917
476.00 0.7925
476.10 0.7934
476.20 0.7942
476.30 0.7951
476.40 0.7959
476.50 0.7967
476.60 0.7976
476.70 0.7984
476.80 0.7992
476.90 0.8001
477.00 0.8009
477.10 0.8018
477.20 0.8026
477.30 0.8034
477.40 0.8043
477.50 0.8051
477.60 0.806
477.70 0.8068
477.80 0.8076
477.90 0.8085
478.00 0.8093
478.10 0.8101
478.20 0.811
478.30 0.8118
478.40 0.8127
478.50 0.8135
478.60 0.8144
478.70 0.8152
478.80 0.8161
478.90 0.8169
479.00 0.8177
479.10 0.8186
479.20 0.8194
479.30 0.8203
479.40 0.8211
479.50 0.822
479.60 0.8228
479.70 0.8237
479.80 0.8245
479.90 0.8254
480.00 0.8262
480.10 0.827
480.20 0.8279
480.30 0.8287
480.40 0.8296
480.50 0.8304
480.60 0.8313
480.70 0.8321
480.80 0.833
480.90 0.8338
481.00 0.8347
481.10 0.8355
481.20 0.8364
481.30 0.8372
481.40 0.8381
481.50 0.8389
481.60 0.8398
481.70 0.8406
481.80 0.8415
481.90 0.8423
482.00 0.8432
482.10 0.844
482.20 0.8449
482.30 0.8457
482.40 0.8466
482.50 0.8474
482.60 0.8483
482.70 0.8492
482.80 0.85
482.90 0.8509
483.00 0.8517
483.10 0.8526
483.20 0.8534
483.30 0.8543
483.40 0.8551
483.50 0.856
483.60 0.8568
483.70 0.8577
483.80 0.8586
483.90 0.8594
484.00 0.8603
484.10 0.8611
484.20 0.862
484.30 0.8628
484.40 0.8637
484.50 0.8645
484.60 0.8654
484.70 0.8663
484.80 0.8671
484.90 0.868
485.00 0.8688
485.10 0.8697
485.20 0.8706
485.30 0.8714
485.40 0.8723
485.50 0.8731
485.60 0.874
485.70 0.8748
485.80 0.8757
485.90 0.8766
486.00 0.8774
486.10 0.8783
486.20 0.8792
486.30 0.88
486.40 0.8809
486.50 0.8817
486.60 0.8826
486.70 0.8835
486.80 0.8843
486.90 0.8852
487.00 0.8861
487.10 0.8869
487.20 0.8878
487.30 0.8887
487.40 0.8895
487.50 0.8904
487.60 0.8912
487.70 0.8921
487.80 0.893
487.90 0.8938
488.00 0.8947
488.10 0.8956
488.20 0.8964
488.30 0.8973
488.40 0.8982
488.50 0.899
488.60 0.8999
488.70 0.9008
488.80 0.9016
488.90 0.9025
489.00 0.9034
489.10 0.9042
489.20 0.9051
489.30 0.906
489.40 0.9069
489.50 0.9077
489.60 0.9086
489.70 0.9095
489.80 0.9103
489.90 0.9112
490.00 0.9121
490.10 0.9129
490.20 0.9138
490.30 0.9147
490.40 0.9156
490.50 0.9164
490.60 0.9173
490.70 0.9182
490.80 0.919
490.90 0.9199
491.00 0.9208
491.10 0.9216
491.20 0.9225
491.30 0.9234
491.40 0.9243
491.50 0.9251
491.60 0.926
491.70 0.9269
491.80 0.9278
491.90 0.9286
492.00 0.9295
492.10 0.9304
492.20 0.9313
492.30 0.9321
492.40 0.933
492.50 0.9339
492.60 0.9348
492.70 0.9356
492.80 0.9365
492.90 0.9374
493.00 0.9383
493.10 0.9391
493.20 0.94
493.30 0.9409
493.40 0.9418
493.50 0.9426
493.60 0.9435
493.70 0.9444
493.80 0.9453
493.90 0.9462
494.00 0.947
494.10 0.9479
494.20 0.9488
494.30 0.9497
494.40 0.9505
494.50 0.9514
494.60 0.9523
494.70 0.9532
494.80 0.9541
494.90 0.9549
495.00 0.9558
495.10 0.9567
495.20 0.9576
495.30 0.9585
495.40 0.9593
495.50 0.9602
495.60 0.9611
495.70 0.962
495.80 0.9629
495.90 0.9637
496.00 0.9646
496.10 0.9655
496.20 0.9664
496.30 0.9673
496.40 0.9681
496.50 0.969
496.60 0.9699
496.70 0.9708
496.80 0.9717
496.90 0.9726
497.00 0.9734
497.10 0.9743
497.20 0.9752
497.30 0.9761
497.40 0.977
497.50 0.9779
497.60 0.9787
497.70 0.9796
497.80 0.9805
497.90 0.9814
498.00 0.9823
498.10 0.9832
498.20 0.984
498.30 0.9849
498.40 0.9858
498.50 0.9867
498.60 0.9876
498.70 0.9885
498.80 0.9894
498.90 0.9902
499.00 0.9911
499.10 0.992
499.20 0.9929
499.30 0.9938
499.40 0.9947
499.50 0.9956
499.60 0.9965
499.70 0.9973
499.80 0.9982
499.90 0.9991
500.00 1
500.10 1.001
500.20 1.002
500.30 1.003
500.40 1.004
500.50 1.004
500.60 1.005
500.70 1.006
500.80 1.007
500.90 1.008
501.00 1.009
501.10 1.01
501.20 1.011
501.30 1.012
501.40 1.012
501.50 1.013
501.60 1.014
501.70 1.015
501.80 1.016
501.90 1.017
502.00 1.018
502.10 1.019
502.20 1.02
502.30 1.02
502.40 1.021
502.50 1.022
502.60 1.023
502.70 1.024
502.80 1.025
502.90 1.026
503.00 1.027
503.10 1.028
503.20 1.028
503.30 1.029
503.40 1.03
503.50 1.031
503.60 1.032
503.70 1.033
503.80 1.034
503.90 1.035
504.00 1.036
504.10 1.037
504.20 1.037
504.30 1.038
504.40 1.039
504.50 1.04
504.60 1.041
504.70 1.042
504.80 1.043
504.90 1.044
505.00 1.045
505.10 1.045
505.20 1.046
505.30 1.047
505.40 1.048
505.50 1.049
505.60 1.05
505.70 1.051
505.80 1.052
505.90 1.053
506.00 1.053
506.10 1.054
506.20 1.055
506.30 1.056
506.40 1.057
506.50 1.058
506.60 1.059
506.70 1.06
506.80 1.061
506.90 1.062
507.00 1.062
507.10 1.063
507.20 1.064
507.30 1.065
507.40 1.066
507.50 1.067
507.60 1.068
507.70 1.069
507.80 1.07
507.90 1.071
508.00 1.071
508.10 1.072
508.20 1.073
508.30 1.074
508.40 1.075
508.50 1.076
508.60 1.077
508.70 1.078
508.80 1.079
508.90 1.08
509.00 1.08
509.10 1.081
509.20 1.082
509.30 1.083
509.40 1.084
509.50 1.085
509.60 1.086
509.70 1.087
509.80 1.088
509.90 1.089
510.00 1.089
510.10 1.09
510.20 1.091
510.30 1.092
510.40 1.093
510.50 1.094
510.60 1.095
510.70 1.096
510.80 1.097
510.90 1.098
511.00 1.098
511.10 1.099
511.20 1.1
511.30 1.101
511.40 1.102
511.50 1.103
511.60 1.104
511.70 1.105
511.80 1.106
511.90 1.107
512.00 1.107
512.10 1.108
512.20 1.109
512.30 1.11
512.40 1.111
512.50 1.112
512.60 1.113
512.70 1.114
512.80 1.115
512.90 1.116
513.00 1.116
513.10 1.117
513.20 1.118
513.30 1.119
513.40 1.12
513.50 1.121
513.60 1.122
513.70 1.123
513.80 1.124
513.90 1.125
514.00 1.126
514.10 1.126
514.20 1.127
514.30 1.128
514.40 1.129
514.50 1.13
514.60 1.131
514.70 1.132
514.80 1.133
514.90 1.134
515.00 1.135
515.10 1.135
515.20 1.136
515.30 1.137
515.40 1.138
515.50 1.139
515.60 1.14
515.70 1.141
515.80 1.142
515.90 1.143
516.00 1.144
516.10 1.145
516.20 1.145
516.30 1.146
516.40 1.147
516.50 1.148
516.60 1.149
516.70 1.15
516.80 1.151
516.90 1.152
517.00 1.153
517.10 1.154
517.20 1.154
517.30 1.155
517.40 1.156
517.50 1.157
517.60 1.158
517.70 1.159
517.80 1.16
517.90 1.161
518.00 1.162
518.10 1.163
518.20 1.164
518.30 1.164
518.40 1.165
518.50 1.166
518.60 1.167
518.70 1.168
518.80 1.169
518.90 1.17
519.00 1.171
519.10 1.172
519.20 1.173
519.30 1.173
519.40 1.174
519.50 1.175
519.60 1.176
519.70 1.177
519.80 1.178
519.90 1.179
520.00 1.18
520.10 1.181
520.20 1.182
520.30 1.183
520.40 1.183
520.50 1.184
520.60 1.185
520.70 1.186
520.80 1.187
520.90 1.188
521.00 1.189
521.10 1.19
521.20 1.191
521.30 1.192
521.40 1.193
521.50 1.193
521.60 1.194
521.70 1.195
521.80 1.196
521.90 1.197
522.00 1.198
522.10 1.199
522.20 1.2
522.30 1.201
522.40 1.202
522.50 1.203
522.60 1.203
522.70 1.204
522.80 1.205
522.90 1.206
523.00 1.207
523.10 1.208
523.20 1.209
523.30 1.21
523.40 1.211
523.50 1.212
523.60 1.213
523.70 1.213
523.80 1.214
523.90 1.215
524.00 1.216
524.10 1.217
524.20 1.218
524.30 1.219
524.40 1.22
524.50 1.221
524.60 1.222
524.70 1.223
524.80 1.223
524.90 1.224
525.00 1.225
525.10 1.226
525.20 1.227
525.30 1.228
525.40 1.229
525.50 1.23
525.60 1.231
525.70 1.232
525.80 1.233
525.90 1.233
526.00 1.234
526.10 1.235
526.20 1.236
526.30 1.237
526.40 1.238
526.50 1.239
526.60 1.24
526.70 1.241
526.80 1.242
526.90 1.243
527.00 1.243
527.10 1.244
527.20 1.245
527.30 1.246
527.40 1.247
527.50 1.248
527.60 1.249
527.70 1.25
527.80 1.251
527.90 1.252
528.00 1.253
528.10 1.253
528.20 1.254
528.30 1.255
528.40 1.256
528.50 1.257
528.60 1.258
528.70 1.259
528.80 1.26
528.90 1.261
529.00 1.262
529.10 1.263
529.20 1.263
529.30 1.264
529.40 1.265
529.50 1.266
529.60 1.267
529.70 1.268
529.80 1.269
529.90 1.27
530.00 1.271
530.10 1.272
530.20 1.273
530.30 1.273
530.40 1.274
530.50 1.275
530.60 1.276
530.70 1.277
530.80 1.278
530.90 1.279
531.00 1.28
531.10 1.281
531.20 1.282
531.30 1.282
531.40 1.283
531.50 1.284
531.60 1.285
531.70 1.286
531.80 1.287
531.90 1.288
532.00 1.289
532.10 1.29
532.20 1.291
532.30 1.292
532.40 1.293
532.50 1.293
532.60 1.294
532.70 1.295
532.80 1.296
532.90 1.297
533.00 1.298
533.10 1.299
533.20 1.3
533.30 1.301
533.40 1.302
533.50 1.302
533.60 1.303
533.70 1.304
533.80 1.305
533.90 1.306
534.00 1.307
534.10 1.308
534.20 1.309
534.30 1.31
534.40 1.311
534.50 1.312
534.60 1.312
534.70 1.313
534.80 1.314
534.90 1.315
535.00 1.316
535.10 1.317
535.20 1.318
535.30 1.319
535.40 1.32
535.50 1.321
535.60 1.321
535.70 1.322
535.80 1.323
535.90 1.324
536.00 1.325
536.10 1.326
536.20 1.327
536.30 1.328
536.40 1.329
536.50 1.33
536.60 1.331
536.70 1.331
536.80 1.332
536.90 1.333
537.00 1.334
537.10 1.335
537.20 1.336
537.30 1.337
537.40 1.338
537.50 1.339
537.60 1.34
537.70 1.34
537.80 1.341
537.90 1.342
538.00 1.343
538.10 1.344
538.20 1.345
538.30 1.346
538.40 1.347
538.50 1.348
538.60 1.349
538.70 1.35
538.80 1.35
538.90 1.351
539.00 1.352
539.10 1.353
539.20 1.354
539.30 1.355
539.40 1.356
539.50 1.357
539.60 1.358
539.70 1.359
539.80 1.36
539.90 1.36
540.00 1.361
540.10 1.362
540.20 1.363
540.30 1.364
540.40 1.365
540.50 1.366
540.60 1.367
540.70 1.368
540.80 1.369
540.90 1.369
541.00 1.37
541.10 1.371
541.20 1.372
541.30 1.373
541.40 1.374
541.50 1.375
541.60 1.376
541.70 1.377
541.80 1.377
541.90 1.378
542.00 1.379
542.10 1.38
542.20 1.381
542.30 1.382
542.40 1.383
542.50 1.384
542.60 1.385
542.70 1.386
542.80 1.387
542.90 1.387
543.00 1.388
543.10 1.389
543.20 1.39
543.30 1.391
543.40 1.392
543.50 1.393
543.60 1.394
543.70 1.395
543.80 1.395
543.90 1.396
544.00 1.397
544.10 1.398
544.20 1.399
544.30 1.4
544.40 1.401
544.50 1.402
544.60 1.403
544.70 1.404
544.80 1.404
544.90 1.405
545.00 1.406
545.10 1.407
545.20 1.408
545.30 1.409
545.40 1.41
545.50 1.411
545.60 1.412
545.70 1.413
545.80 1.413
545.90 1.414
546.00 1.415
546.10 1.416
546.20 1.417
546.30 1.418
546.40 1.419
546.50 1.42
546.60 1.421
546.70 1.421
546.80 1.422
546.90 1.423
547.00 1.424
547.10 1.425
547.20 1.426
547.30 1.427
547.40 1.428
547.50 1.429
547.60 1.43
547.70 1.43
547.80 1.431
547.90 1.432
548.00 1.433
548.10 1.434
548.20 1.435
548.30 1.436
548.40 1.437
548.50 1.438
548.60 1.438
548.70 1.439
548.80 1.44
548.90 1.441
549.00 1.442
549.10 1.443
549.20 1.444
549.30 1.445
549.40 1.446
549.50 1.446
549.60 1.447
549.70 1.448
549.80 1.449
549.90 1.45
550.00 1.451
550.10 1.452
550.20 1.453
550.30 1.454
550.40 1.454
550.50 1.455
550.60 1.456
550.70 1.457
550.80 1.458
550.90 1.459
551.00 1.46
551.10 1.461
551.20 1.462
551.30 1.462
551.40 1.463
551.50 1.464
551.60 1.465
551.70 1.466
551.80 1.467
551.90 1.468
552.00 1.469
552.10 1.47
552.20 1.47
552.30 1.471
552.40 1.472
552.50 1.473
552.60 1.474
552.70 1.475
552.80 1.476
552.90 1.477
553.00 1.478
553.10 1.478
553.20 1.479
553.30 1.48
553.40 1.481
553.50 1.482
553.60 1.483
553.70 1.484
553.80 1.485
553.90 1.485
554.00 1.486
554.10 1.487
554.20 1.488
554.30 1.489
554.40 1.49
554.50 1.491
554.60 1.492
554.70 1.492
554.80 1.493
554.90 1.494
555.00 1.495
555.10 1.496
555.20 1.497
555.30 1.498
555.40 1.499
555.50 1.5
555.60 1.5
555.70 1.501
555.80 1.502
555.90 1.503
556.00 1.504
556.10 1.505
556.20 1.506
556.30 1.507
556.40 1.507
556.50 1.508
556.60 1.509
556.70 1.51
556.80 1.511
556.90 1.512
557.00 1.513
557.10 1.513
557.20 1.514
557.30 1.515
557.40 1.516
557.50 1.517
557.60 1.518
557.70 1.519
557.80 1.52
557.90 1.52
558.00 1.521
558.10 1.522
558.20 1.523
558.30 1.524
558.40 1.525
558.50 1.526
558.60 1.527
558.70 1.527
558.80 1.528
558.90 1.529
559.00 1.53
559.10 1.531
559.20 1.532
559.30 1.533
559.40 1.533
559.50 1.534
559.60 1.535
559.70 1.536
559.80 1.537
559.90 1.538
560.00 1.539
560.10 1.54
560.20 1.54
560.30 1.541
560.40 1.542
560.50 1.543
560.60 1.544
560.70 1.545
560.80 1.546
560.90 1.546
561.00 1.547
561.10 1.548
561.20 1.549
561.30 1.55
561.40 1.551
561.50 1.552
561.60 1.553
561.70 1.553
561.80 1.554
561.90 1.555
562.00 1.556
562.10 1.557
562.20 1.558
562.30 1.559
562.40 1.559
562.50 1.56
562.60 1.561
562.70 1.562
562.80 1.563
562.90 1.564
563.00 1.565
563.10 1.565
563.20 1.566
563.30 1.567
563.40 1.568
563.50 1.569
563.60 1.57
563.70 1.571
563.80 1.571
563.90 1.572
564.00 1.573
564.10 1.574
564.20 1.575
564.30 1.576
564.40 1.577
564.50 1.577
564.60 1.578
564.70 1.579
564.80 1.58
564.90 1.581
565.00 1.582
565.10 1.583
565.20 1.583
565.30 1.584
565.40 1.585
565.50 1.586
565.60 1.587
565.70 1.588
565.80 1.588
565.90 1.589
566.00 1.59
566.10 1.591
566.20 1.592
566.30 1.593
566.40 1.594
566.50 1.594
566.60 1.595
566.70 1.596
566.80 1.597
566.90 1.598
567.00 1.599
567.10 1.599
567.20 1.6
567.30 1.601
567.40 1.602
567.50 1.603
567.60 1.604
567.70 1.604
567.80 1.605
567.90 1.606
568.00 1.607
568.10 1.608
568.20 1.609
568.30 1.61
568.40 1.61
568.50 1.611
568.60 1.612
568.70 1.613
568.80 1.614
568.90 1.615
569.00 1.615
569.10 1.616
569.20 1.617
569.30 1.618
569.40 1.619
569.50 1.62
569.60 1.62
569.70 1.621
569.80 1.622
569.90 1.623
570.00 1.624
570.10 1.625
570.20 1.625
570.30 1.626
570.40 1.627
570.50 1.628
570.60 1.629
570.70 1.63
570.80 1.63
570.90 1.631
571.00 1.632
571.10 1.633
571.20 1.634
571.30 1.634
571.40 1.635
571.50 1.636
571.60 1.637
571.70 1.638
571.80 1.639
571.90 1.639
572.00 1.64
572.10 1.641
572.20 1.642
572.30 1.643
572.40 1.644
572.50 1.644
572.60 1.645
572.70 1.646
572.80 1.647
572.90 1.648
573.00 1.648
573.10 1.649
573.20 1.65
573.30 1.651
573.40 1.652
573.50 1.653
573.60 1.653
573.70 1.654
573.80 1.655
573.90 1.656
574.00 1.657
574.10 1.657
574.20 1.658
574.30 1.659
574.40 1.66
574.50 1.661
574.60 1.662
574.70 1.662
574.80 1.663
574.90 1.664
575.00 1.665
575.10 1.666
575.20 1.666
575.30 1.667
575.40 1.668
575.50 1.669
575.60 1.67
575.70 1.67
575.80 1.671
575.90 1.672
576.00 1.673
576.10 1.674
576.20 1.674
576.30 1.675
576.40 1.676
576.50 1.677
576.60 1.678
576.70 1.678
576.80 1.679
576.90 1.68
577.00 1.681
577.10 1.682
577.20 1.682
577.30 1.683
577.40 1.684
577.50 1.685
577.60 1.686
577.70 1.686
577.80 1.687
577.90 1.688
578.00 1.689
578.10 1.69
578.20 1.69
578.30 1.691
578.40 1.692
578.50 1.693
578.60 1.694
578.70 1.694
578.80 1.695
578.90 1.696
579.00 1.697
579.10 1.698
579.20 1.698
579.30 1.699
579.40 1.7
579.50 1.701
579.60 1.702
579.70 1.702
579.80 1.703
579.90 1.704
580.00 1.705
580.10 1.706
580.20 1.706
580.30 1.707
580.40 1.708
580.50 1.709
580.60 1.709
580.70 1.71
580.80 1.711
580.90 1.712
581.00 1.713
581.10 1.713
581.20 1.714
581.30 1.715
581.40 1.716
581.50 1.717
581.60 1.717
581.70 1.718
581.80 1.719
581.90 1.72
582.00 1.72
582.10 1.721
582.20 1.722
582.30 1.723
582.40 1.723
582.50 1.724
582.60 1.725
582.70 1.726
582.80 1.727
582.90 1.727
583.00 1.728
583.10 1.729
583.20 1.73
583.30 1.73
583.40 1.731
583.50 1.732
583.60 1.733
583.70 1.734
583.80 1.734
583.90 1.735
584.00 1.736
584.10 1.737
584.20 1.737
584.30 1.738
584.40 1.739
584.50 1.74
584.60 1.74
584.70 1.741
584.80 1.742
584.90 1.743
585.00 1.744
585.10 1.744
585.20 1.745
585.30 1.746
585.40 1.747
585.50 1.747
585.60 1.748
585.70 1.749
585.80 1.75
585.90 1.75
586.00 1.751
586.10 1.752
586.20 1.753
586.30 1.753
586.40 1.754
586.50 1.755
586.60 1.756
586.70 1.756
586.80 1.757
586.90 1.758
587.00 1.758
587.10 1.759
587.20 1.76
587.30 1.761
587.40 1.761
587.50 1.762
587.60 1.763
587.70 1.764
587.80 1.764
587.90 1.765
588.00 1.766
588.10 1.767
588.20 1.767
588.30 1.768
588.40 1.769
588.50 1.77
588.60 1.77
588.70 1.771
588.80 1.772
588.90 1.772
589.00 1.773
589.10 1.774
589.20 1.775
589.30 1.775
589.40 1.776
589.50 1.777
589.60 1.778
589.70 1.778
589.80 1.779
589.90 1.78
590.00 1.78
590.10 1.781
590.20 1.782
590.30 1.783
590.40 1.783
590.50 1.784
590.60 1.785
590.70 1.785
590.80 1.786
590.90 1.787
591.00 1.788
591.10 1.788
591.20 1.789
591.30 1.79
591.40 1.79
591.50 1.791
591.60 1.792
591.70 1.793
591.80 1.793
591.90 1.794
592.00 1.795
592.10 1.795
592.20 1.796
592.30 1.797
592.40 1.798
592.50 1.798
592.60 1.799
592.70 1.8
592.80 1.8
592.90 1.801
593.00 1.802
593.10 1.802
593.20 1.803
593.30 1.804
593.40 1.805
593.50 1.805
593.60 1.806
593.70 1.807
593.80 1.807
593.90 1.808
594.00 1.809
594.10 1.809
594.20 1.81
594.30 1.811
594.40 1.812
594.50 1.812
594.60 1.813
594.70 1.814
594.80 1.814
594.90 1.815
595.00 1.816
595.10 1.816
595.20 1.817
595.30 1.818
595.40 1.818
595.50 1.819
595.60 1.82
595.70 1.82
595.80 1.821
595.90 1.822
596.00 1.822
596.10 1.823
596.20 1.824
596.30 1.824
596.40 1.825
596.50 1.826
596.60 1.826
596.70 1.827
596.80 1.828
596.90 1.829
597.00 1.829
597.10 1.83
597.20 1.831
597.30 1.831
597.40 1.832
597.50 1.833
597.60 1.833
597.70 1.834
597.80 1.835
597.90 1.835
598.00 1.836
598.10 1.837
598.20 1.837
598.30 1.838
598.40 1.839
598.50 1.839
598.60 1.84
598.70 1.84
598.80 1.841
598.90 1.842
599.00 1.842
599.10 1.843
599.20 1.844
599.30 1.844
599.40 1.845
599.50 1.846
599.60 1.846
599.70 1.847
599.80 1.848
599.90 1.848
600.00 1.849
600.10 1.85
600.20 1.85
600.30 1.851
600.40 1.851
600.50 1.852
600.60 1.853
600.70 1.853
600.80 1.854
600.90 1.855
601.00 1.855
601.10 1.856
601.20 1.857
601.30 1.857
601.40 1.858
601.50 1.858
601.60 1.859
601.70 1.86
601.80 1.86
601.90 1.861
602.00 1.862
602.10 1.862
602.20 1.863
602.30 1.863
602.40 1.864
602.50 1.865
602.60 1.865
602.70 1.866
602.80 1.866
602.90 1.867
603.00 1.868
603.10 1.868
603.20 1.869
603.30 1.87
603.40 1.87
603.50 1.871
603.60 1.871
603.70 1.872
603.80 1.873
603.90 1.873
604.00 1.874
604.10 1.874
604.20 1.875
604.30 1.876
604.40 1.876
604.50 1.877
604.60 1.877
604.70 1.878
604.80 1.879
604.90 1.879
605.00 1.88
605.10 1.88
605.20 1.881
605.30 1.882
605.40 1.882
605.50 1.883
605.60 1.883
605.70 1.884
605.80 1.884
605.90 1.885
606.00 1.886
606.10 1.886
606.20 1.887
606.30 1.887
606.40 1.888
606.50 1.888
606.60 1.889
606.70 1.89
606.80 1.89
606.90 1.891
607.00 1.891
607.10 1.892
607.20 1.892
607.30 1.893
607.40 1.894
607.50 1.894
607.60 1.895
607.70 1.895
607.80 1.896
607.90 1.896
608.00 1.897
608.10 1.898
608.20 1.898
608.30 1.899
608.40 1.899
608.50 1.9
608.60 1.9
608.70 1.901
608.80 1.901
608.90 1.902
609.00 1.903
609.10 1.903
609.20 1.904
609.30 1.904
609.40 1.905
609.50 1.905
609.60 1.906
609.70 1.906
609.80 1.907
609.90 1.907
610.00 1.908
610.10 1.908
610.20 1.909
610.30 1.91
610.40 1.91
610.50 1.911
610.60 1.911
610.70 1.912
610.80 1.912
610.90 1.913
611.00 1.913
611.10 1.914
611.20 1.914
611.30 1.915
611.40 1.915
611.50 1.916
611.60 1.916
611.70 1.917
611.80 1.917
611.90 1.918
612.00 1.918
612.10 1.919
612.20 1.919
612.30 1.92
612.40 1.92
612.50 1.921
612.60 1.921
612.70 1.922
612.80 1.922
612.90 1.923
613.00 1.923
613.10 1.924
613.20 1.924
613.30 1.925
613.40 1.925
613.50 1.926
613.60 1.926
613.70 1.927
613.80 1.927
613.90 1.928
614.00 1.928
614.10 1.929
614.20 1.929
614.30 1.93
614.40 1.93
614.50 1.931
614.60 1.931
614.70 1.932
614.80 1.932
614.90 1.932
615.00 1.933
615.10 1.933
615.20 1.934
615.30 1.934
615.40 1.935
615.50 1.935
615.60 1.936
615.70 1.936
615.80 1.937
615.90 1.937
616.00 1.937
616.10 1.938
616.20 1.938
616.30 1.939
616.40 1.939
616.50 1.94
616.60 1.94
616.70 1.941
616.80 1.941
616.90 1.941
617.00 1.942
617.10 1.942
617.20 1.943
617.30 1.943
617.40 1.944
617.50 1.944
617.60 1.944
617.70 1.945
617.80 1.945
617.90 1.946
618.00 1.946
618.10 1.947
618.20 1.947
618.30 1.947
618.40 1.948
618.50 1.948
618.60 1.949
618.70 1.949
618.80 1.949
618.90 1.95
619.00 1.95
619.10 1.951
619.20 1.951
619.30 1.951
619.40 1.952
619.50 1.952
619.60 1.953
619.70 1.953
619.80 1.953
619.90 1.954
620.00 1.954
620.10 1.955
620.20 1.955
620.30 1.955
620.40 1.956
620.50 1.956
620.60 1.956
620.70 1.957
620.80 1.957
620.90 1.958
621.00 1.958
621.10 1.958
621.20 1.959
621.30 1.959
621.40 1.959
621.50 1.96
621.60 1.96
621.70 1.961
621.80 1.961
621.90 1.961
622.00 1.962
622.10 1.962
622.20 1.962
622.30 1.963
622.40 1.963
622.50 1.963
622.60 1.964
622.70 1.964
622.80 1.964
622.90 1.965
623.00 1.965
623.10 1.965
623.20 1.966
623.30 1.966
623.40 1.966
623.50 1.967
623.60 1.967
623.70 1.967
623.80 1.968
623.90 1.968
624.00 1.968
624.10 1.969
624.20 1.969
624.30 1.969
624.40 1.97
624.50 1.97
624.60 1.97
624.70 1.971
624.80 1.971
624.90 1.971
625.00 1.972
625.10 1.972
625.20 1.972
625.30 1.972
625.40 1.973
625.50 1.973
625.60 1.973
625.70 1.974
625.80 1.974
625.90 1.974
626.00 1.975
626.10 1.975
626.20 1.975
626.30 1.975
626.40 1.976
626.50 1.976
626.60 1.976
626.70 1.976
626.80 1.977
626.90 1.977
627.00 1.977
627.10 1.978
627.20 1.978
627.30 1.978
627.40 1.978
627.50 1.979
627.60 1.979
627.70 1.979
627.80 1.979
627.90 1.98
628.00 1.98
628.10 1.98
628.20 1.98
628.30 1.981
628.40 1.981
628.50 1.981
628.60 1.981
628.70 1.981
628.80 1.982
628.90 1.982
629.00 1.982
629.10 1.982
629.20 1.983
629.30 1.983
629.40 1.983
629.50 1.983
629.60 1.984
629.70 1.984
629.80 1.984
629.90 1.984
630.00 1.984
630.10 1.985
630.20 1.985
630.30 1.985
630.40 1.985
630.50 1.985
630.60 1.986
630.70 1.986
630.80 1.986
630.90 1.986
631.00 1.986
631.10 1.987
631.20 1.987
631.30 1.987
631.40 1.987
631.50 1.987
631.60 1.987
631.70 1.988
631.80 1.988
631.90 1.988
632.00 1.988
632.10 1.988
632.20 1.988
632.30 1.989
632.40 1.989
632.50 1.989
632.60 1.989
632.70 1.989
632.80 1.989
632.90 1.99
633.00 1.99
633.10 1.99
633.20 1.99
633.30 1.99
633.40 1.99
633.50 1.99
633.60 1.99
633.70 1.991
633.80 1.991
633.90 1.991
634.00 1.991
634.10 1.991
634.20 1.991
634.30 1.991
634.40 1.991
634.50 1.992
634.60 1.992
634.70 1.992
634.80 1.992
634.90 1.992
635.00 1.992
635.10 1.992
635.20 1.992
635.30 1.992
635.40 1.992
635.50 1.992
635.60 1.993
635.70 1.993
635.80 1.993
635.90 1.993
636.00 1.993
636.10 1.993
636.20 1.993
636.30 1.993
636.40 1.993
636.50 1.993
636.60 1.993
636.70 1.993
636.80 1.993
636.90 1.993
637.00 1.993
637.10 1.994
637.20 1.994
637.30 1.994
637.40 1.994
637.50 1.994
637.60 1.994
637.70 1.994
637.80 1.994
637.90 1.994
638.00 1.994
638.10 1.994
638.20 1.994
638.30 1.994
638.40 1.994
638.50 1.994
638.60 1.994
638.70 1.994
638.80 1.994
638.90 1.994
639.00 1.994
639.10 1.994
639.20 1.994
639.30 1.994
639.40 1.994
639.50 1.994
639.60 1.994
639.70 1.994
639.80 1.994
639.90 1.994
640.00 1.994
640.10 1.994
640.20 1.994
640.30 1.994
640.40 1.994
640.50 1.994
640.60 1.994
640.70 1.994
640.80 1.994
640.90 1.994
641.00 1.993
641.10 1.993
641.20 1.993
641.30 1.993
641.40 1.993
641.50 1.993
641.60 1.993
641.70 1.993
641.80 1.993
641.90 1.993
642.00 1.993
642.10 1.993
642.20 1.993
642.30 1.992
642.40 1.992
642.50 1.992
642.60 1.992
642.70 1.992
642.80 1.992
642.90 1.992
643.00 1.992
643.10 1.991
643.20 1.991
643.30 1.991
643.40 1.991
643.50 1.991
643.60 1.991
643.70 1.991
643.80 1.99
643.90 1.99
644.00 1.99
644.10 1.99
644.20 1.99
644.30 1.99
644.40 1.99
644.50 1.989
644.60 1.989
644.70 1.989
644.80 1.989
644.90 1.989
645.00 1.989
645.10 1.988
645.20 1.988
645.30 1.988
645.40 1.988
645.50 1.988
645.60 1.987
645.70 1.987
645.80 1.987
645.90 1.987
646.00 1.987
646.10 1.986
646.20 1.986
646.30 1.986
646.40 1.986
646.50 1.986
646.60 1.985
646.70 1.985
646.80 1.985
646.90 1.985
647.00 1.984
647.10 1.984
647.20 1.984
647.30 1.984
647.40 1.984
647.50 1.983
647.60 1.983
647.70 1.983
647.80 1.983
647.90 1.982
648.00 1.982
648.10 1.982
648.20 1.981
648.30 1.981
648.40 1.981
648.50 1.981
648.60 1.98
648.70 1.98
648.80 1.98
648.90 1.98
649.00 1.979
649.10 1.979
649.20 1.979
649.30 1.978
649.40 1.978
649.50 1.978
649.60 1.977
649.70 1.977
649.80 1.977
649.90 1.976
650.00 1.976
650.10 1.976
650.20 1.975
650.30 1.975
650.40 1.975
650.50 1.974
650.60 1.974
650.70 1.974
650.80 1.973
650.90 1.973
651.00 1.973
651.10 1.972
651.20 1.972
651.30 1.972
651.40 1.971
651.50 1.971
651.60 1.97
651.70 1.97
651.80 1.97
651.90 1.969
652.00 1.969
652.10 1.968
652.20 1.968
652.30 1.968
652.40 1.967
652.50 1.967
652.60 1.966
652.70 1.966
652.80 1.965
652.90 1.965
653.00 1.965
653.10 1.964
653.20 1.964
653.30 1.963
653.40 1.963
653.50 1.962
653.60 1.962
653.70 1.961
653.80 1.961
653.90 1.96
654.00 1.96
654.10 1.96
654.20 1.959
654.30 1.959
654.40 1.958
654.50 1.958
654.60 1.957
654.70 1.957
654.80 1.956
654.90 1.956
655.00 1.955
655.10 1.955
655.20 1.954
655.30 1.954
655.40 1.953
655.50 1.953
655.60 1.952
655.70 1.952
655.80 1.951
655.90 1.95
656.00 1.95
656.10 1.949
656.20 1.949
656.30 1.948
656.40 1.948
656.50 1.947
656.60 1.947
656.70 1.946
656.80 1.945
656.90 1.945
657.00 1.944
657.10 1.944
657.20 1.943
657.30 1.943
657.40 1.942
657.50 1.941
657.60 1.941
657.70 1.94
657.80 1.94
657.90 1.939
658.00 1.938
658.10 1.938
658.20 1.937
658.30 1.936
658.40 1.936
658.50 1.935
658.60 1.935
658.70 1.934
658.80 1.933
658.90 1.933
659.00 1.932
659.10 1.931
659.20 1.931
659.30 1.93
659.40 1.929
659.50 1.929
659.60 1.928
659.70 1.927
659.80 1.927
659.90 1.926
660.00 1.925
660.10 1.925
660.20 1.924
660.30 1.923
660.40 1.922
660.50 1.922
660.60 1.921
660.70 1.92
660.80 1.92
660.90 1.919
661.00 1.918
661.10 1.917
661.20 1.917
661.30 1.916
661.40 1.915
661.50 1.914
661.60 1.914
661.70 1.913
661.80 1.912
661.90 1.911
662.00 1.91
662.10 1.91
662.20 1.909
662.30 1.908
662.40 1.907
662.50 1.907
662.60 1.906
662.70 1.905
662.80 1.904
662.90 1.903
663.00 1.903
663.10 1.902
663.20 1.901
663.30 1.9
663.40 1.899
663.50 1.898
663.60 1.898
663.70 1.897
663.80 1.896
663.90 1.895
664.00 1.894
664.10 1.893
664.20 1.892
664.30 1.892
664.40 1.891
664.50 1.89
664.60 1.889
664.70 1.888
664.80 1.887
664.90 1.886
665.00 1.885
665.10 1.884
665.20 1.884
665.30 1.883
665.40 1.882
665.50 1.881
665.60 1.88
665.70 1.879
665.80 1.878
665.90 1.877
666.00 1.876
666.10 1.875
666.20 1.874
666.30 1.873
666.40 1.872
666.50 1.871
666.60 1.87
666.70 1.869
666.80 1.868
666.90 1.867
667.00 1.866
667.10 1.865
667.20 1.864
667.30 1.863
667.40 1.862
667.50 1.861
667.60 1.86
667.70 1.859
667.80 1.858
667.90 1.857
668.00 1.856
668.10 1.855
668.20 1.854
668.30 1.853
668.40 1.852
668.50 1.851
668.60 1.85
668.70 1.849
668.80 1.848
668.90 1.847
669.00 1.846
669.10 1.845
669.20 1.844
669.30 1.843
669.40 1.841
669.50 1.84
669.60 1.839
669.70 1.838
669.80 1.837
669.90 1.836
670.00 1.835
670.10 1.834
670.20 1.832
670.30 1.831
670.40 1.83
670.50 1.829
670.60 1.828
670.70 1.827
670.80 1.826
670.90 1.824
671.00 1.823
671.10 1.822
671.20 1.821
671.30 1.82
671.40 1.819
671.50 1.817
671.60 1.816
671.70 1.815
671.80 1.814
671.90 1.813
672.00 1.811
672.10 1.81
672.20 1.809
672.30 1.808
672.40 1.806
672.50 1.805
672.60 1.804
672.70 1.803
672.80 1.801
672.90 1.8
673.00 1.799
673.10 1.798
673.20 1.796
673.30 1.795
673.40 1.794
673.50 1.793
673.60 1.791
673.70 1.79
673.80 1.789
673.90 1.787
674.00 1.786
674.10 1.785
674.20 1.784
674.30 1.782
674.40 1.781
674.50 1.78
674.60 1.778
674.70 1.777
674.80 1.776
674.90 1.774
675.00 1.773
675.10 1.772
675.20 1.77
675.30 1.769
675.40 1.767
675.50 1.766
675.60 1.765
675.70 1.763
675.80 1.762
675.90 1.76
676.00 1.759
676.10 1.758
676.20 1.756
676.30 1.755
676.40 1.753
676.50 1.752
676.60 1.751
676.70 1.749
676.80 1.748
676.90 1.746
677.00 1.745
677.10 1.743
677.20 1.742
677.30 1.741
677.40 1.739
677.50 1.738
677.60 1.736
677.70 1.735
677.80 1.733
677.90 1.732
678.00 1.73
678.10 1.729
678.20 1.727
678.30 1.726
678.40 1.724
678.50 1.723
678.60 1.721
678.70 1.72
678.80 1.718
678.90 1.717
679.00 1.715
679.10 1.714
679.20 1.712
679.30 1.711
679.40 1.709
679.50 1.708
679.60 1.706
679.70 1.704
679.80 1.703
679.90 1.701
680.00 1.7
680.10 1.698
680.20 1.697
680.30 1.695
680.40 1.693
680.50 1.692
680.60 1.69
680.70 1.689
680.80 1.687
680.90 1.685
681.00 1.684
681.10 1.682
681.20 1.681
681.30 1.679
681.40 1.677
681.50 1.676
681.60 1.674
681.70 1.672
681.80 1.671
681.90 1.669
682.00 1.667
682.10 1.666
682.20 1.664
682.30 1.662
682.40 1.661
682.50 1.659
682.60 1.657
682.70 1.656
682.80 1.654
682.90 1.652
683.00 1.65
683.10 1.649
683.20 1.647
683.30 1.645
683.40 1.644
683.50 1.642
683.60 1.64
683.70 1.638
683.80 1.637
683.90 1.635
684.00 1.633
684.10 1.631
684.20 1.63
684.30 1.628
684.40 1.626
684.50 1.624
684.60 1.623
684.70 1.621
684.80 1.619
684.90 1.617
685.00 1.615
685.10 1.614
685.20 1.612
685.30 1.61
685.40 1.608
685.50 1.606
685.60 1.605
685.70 1.603
685.80 1.601
685.90 1.599
686.00 1.597
686.10 1.595
686.20 1.594
686.30 1.592
686.40 1.59
686.50 1.588
686.60 1.586
686.70 1.584
686.80 1.583
686.90 1.581
687.00 1.579
687.10 1.577
687.20 1.575
687.30 1.573
687.40 1.571
687.50 1.569
687.60 1.567
687.70 1.566
687.80 1.564
687.90 1.562
688.00 1.56
688.10 1.558
688.20 1.556
688.30 1.554
688.40 1.552
688.50 1.55
688.60 1.548
688.70 1.546
688.80 1.544
688.90 1.543
689.00 1.541
689.10 1.539
689.20 1.537
689.30 1.535
689.40 1.533
689.50 1.531
689.60 1.529
689.70 1.527
689.80 1.524
689.90 1.522
690.00 1.52
690.10 1.518
690.20 1.516
690.30 1.514
690.40 1.512
690.50 1.51
690.60 1.508
690.70 1.506
690.80 1.504
690.90 1.502
691.00 1.5
691.10 1.498
691.20 1.496
691.30 1.494
691.40 1.492
691.50 1.489
691.60 1.487
691.70 1.485
691.80 1.483
691.90 1.481
692.00 1.479
692.10 1.477
692.20 1.475
692.30 1.473
692.40 1.471
692.50 1.469
692.60 1.467
692.70 1.465
692.80 1.463
692.90 1.461
693.00 1.459
693.10 1.457
693.20 1.455
693.30 1.453
693.40 1.451
693.50 1.449
693.60 1.447
693.70 1.445
693.80 1.443
693.90 1.441
694.00 1.439
694.10 1.437
694.20 1.435
694.30 1.433
694.40 1.431
694.50 1.429
694.60 1.427
694.70 1.425
694.80 1.423
694.90 1.421
695.00 1.418
695.10 1.416
695.20 1.414
695.30 1.412
695.40 1.41
695.50 1.408
695.60 1.405
695.70 1.403
695.80 1.401
695.90 1.399
696.00 1.397
696.10 1.395
696.20 1.392
696.30 1.39
696.40 1.388
696.50 1.386
696.60 1.384
696.70 1.382
696.80 1.38
696.90 1.377
697.00 1.375
697.10 1.373
697.20 1.371
697.30 1.369
697.40 1.367
697.50 1.365
697.60 1.362
697.70 1.36
697.80 1.358
697.90 1.356
698.00 1.354
698.10 1.352
698.20 1.35
698.30 1.347
698.40 1.345
698.50 1.343
698.60 1.341
698.70 1.339
698.80 1.337
698.90 1.335
699.00 1.332
699.10 1.33
699.20 1.328
699.30 1.326
699.40 1.324
699.50 1.322
699.60 1.32
699.70 1.318
699.80 1.315
699.90 1.313
700.00 1.311
700.10 1.309
700.20 1.307
700.30 1.305
700.40 1.302
700.50 1.3
700.60 1.298
700.70 1.296
700.80 1.294
700.90 1.291
701.00 1.289
701.10 1.287
701.20 1.285
701.30 1.283
701.40 1.28
701.50 1.278
701.60 1.276
701.70 1.274
701.80 1.272
701.90 1.269
702.00 1.267
702.10 1.265
702.20 1.263
702.30 1.261
702.40 1.259
702.50 1.256
702.60 1.254
702.70 1.252
702.80 1.25
702.90 1.248
703.00 1.246
703.10 1.243
703.20 1.241
703.30 1.239
703.40 1.237
703.50 1.235
703.60 1.232
703.70 1.23
703.80 1.228
703.90 1.226
704.00 1.224
704.10 1.222
704.20 1.22
704.30 1.217
704.40 1.215
704.50 1.213
704.60 1.211
704.70 1.209
704.80 1.207
704.90 1.204
705.00 1.202
705.10 1.2
705.20 1.198
705.30 1.196
705.40 1.194
705.50 1.192
705.60 1.189
705.70 1.187
705.80 1.185
705.90 1.183
706.00 1.181
706.10 1.179
706.20 1.176
706.30 1.174
706.40 1.172
706.50 1.17
706.60 1.168
706.70 1.166
706.80 1.164
706.90 1.162
707.00 1.159
707.10 1.157
707.20 1.155
707.30 1.153
707.40 1.151
707.50 1.149
707.60 1.147
707.70 1.144
707.80 1.142
707.90 1.14
708.00 1.138
708.10 1.136
708.20 1.134
708.30 1.132
708.40 1.13
708.50 1.128
708.60 1.125
708.70 1.123
708.80 1.121
708.90 1.119
709.00 1.117
709.10 1.115
709.20 1.113
709.30 1.111
709.40 1.109
709.50 1.106
709.60 1.104
709.70 1.102
709.80 1.1
709.90 1.098
710.00 1.096
710.10 1.094
710.20 1.092
710.30 1.09
710.40 1.088
710.50 1.086
710.60 1.084
710.70 1.082
710.80 1.08
710.90 1.078
711.00 1.075
711.10 1.073
711.20 1.071
711.30 1.069
711.40 1.067
711.50 1.065
711.60 1.063
711.70 1.061
711.80 1.059
711.90 1.057
712.00 1.055
712.10 1.053
712.20 1.051
712.30 1.049
712.40 1.047
712.50 1.045
712.60 1.043
712.70 1.041
712.80 1.039
712.90 1.037
713.00 1.035
713.10 1.033
713.20 1.031
713.30 1.029
713.40 1.027
713.50 1.025
713.60 1.023
713.70 1.021
713.80 1.019
713.90 1.017
714.00 1.015
714.10 1.013
714.20 1.011
714.30 1.009
714.40 1.007
714.50 1.005
714.60 1.003
714.70 1.001
714.80 0.9989
714.90 0.9969
715.00 0.9949
715.10 0.993
715.20 0.9911
715.30 0.9892
715.40 0.9873
715.50 0.9854
715.60 0.9835
715.70 0.9816
715.80 0.9798
715.90 0.9779
716.00 0.976
716.10 0.9741
716.20 0.9722
716.30 0.9703
716.40 0.9685
716.50 0.9666
716.60 0.9647
716.70 0.9628
716.80 0.961
716.90 0.9591
717.00 0.9572
717.10 0.9553
717.20 0.9535
717.30 0.9516
717.40 0.9497
717.50 0.9479
717.60 0.946
717.70 0.9441
717.80 0.9423
717.90 0.9404
718.00 0.9386
718.10 0.9367
718.20 0.9348
718.30 0.933
718.40 0.9311
718.50 0.9293
718.60 0.9274
718.70 0.9255
718.80 0.9237
718.90 0.9218
719.00 0.92
719.10 0.9181
719.20 0.9163
719.30 0.9144
719.40 0.9126
719.50 0.9107
719.60 0.9089
719.70 0.907
719.80 0.9052
719.90 0.9034
720.00 0.9015
720.10 0.8998
720.20 0.8982
720.30 0.8965
720.40 0.8948
720.50 0.8931
720.60 0.8914
720.70 0.8898
720.80 0.8881
720.90 0.8864
721.00 0.8848
721.10 0.8831
721.20 0.8814
721.30 0.8797
721.40 0.8781
721.50 0.8764
721.60 0.8747
721.70 0.8731
721.80 0.8714
721.90 0.8698
722.00 0.8681
722.10 0.8664
722.20 0.8648
722.30 0.8631
722.40 0.8614
722.50 0.8598
722.60 0.8581
722.70 0.8565
722.80 0.8548
722.90 0.8532
723.00 0.8515
723.10 0.8499
723.20 0.8482
723.30 0.8466
723.40 0.8449
723.50 0.8433
723.60 0.8416
723.70 0.84
723.80 0.8383
723.90 0.8367
724.00 0.835
724.10 0.8334
724.20 0.8317
724.30 0.8301
724.40 0.8285
724.50 0.8268
724.60 0.8252
724.70 0.8235
724.80 0.8219
724.90 0.8203
725.00 0.8186
725.10 0.8172
725.20 0.8157
725.30 0.8143
725.40 0.8128
725.50 0.8113
725.60 0.8099
725.70 0.8084
725.80 0.807
725.90 0.8055
726.00 0.8041
726.10 0.8026
726.20 0.8012
726.30 0.7997
726.40 0.7983
726.50 0.7969
726.60 0.7954
726.70 0.794
726.80 0.7925
726.90 0.7911
727.00 0.7896
727.10 0.7882
727.20 0.7868
727.30 0.7853
727.40 0.7839
727.50 0.7824
727.60 0.781
727.70 0.7796
727.80 0.7781
727.90 0.7767
728.00 0.7753
728.10 0.7738
728.20 0.7724
728.30 0.771
728.40 0.7695
728.50 0.7681
728.60 0.7667
728.70 0.7652
728.80 0.7638
728.90 0.7624
729.00 0.761
729.10 0.7595
729.20 0.7581
729.30 0.7567
729.40 0.7553
729.50 0.7538
729.60 0.7524
729.70 0.751
729.80 0.7496
729.90 0.7482
730.00 0.7467
730.10 0.7456
730.20 0.7446
730.30 0.7435
730.40 0.7424
730.50 0.7413
730.60 0.7402
730.70 0.7391
730.80 0.738
730.90 0.737
731.00 0.7359
731.10 0.7348
731.20 0.7337
731.30 0.7326
731.40 0.7316
731.50 0.7305
731.60 0.7294
731.70 0.7283
731.80 0.7273
731.90 0.7262
732.00 0.7251
732.10 0.724
732.20 0.7229
732.30 0.7219
732.40 0.7208
732.50 0.7197
732.60 0.7187
732.70 0.7176
732.80 0.7165
732.90 0.7154
733.00 0.7144
733.10 0.7133
733.20 0.7122
733.30 0.7112
733.40 0.7101
733.50 0.709
733.60 0.708
733.70 0.7069
733.80 0.7058
733.90 0.7048
734.00 0.7037
734.10 0.7026
734.20 0.7016
734.30 0.7005
734.40 0.6994
734.50 0.6984
734.60 0.6973
734.70 0.6963
734.80 0.6952
734.90 0.6941
735.00 0.6931
735.10 0.692
735.20 0.691
735.30 0.6899
735.40 0.6888
735.50 0.6878
735.60 0.6867
735.70 0.6857
735.80 0.6846
735.90 0.6836
736.00 0.6825
736.10 0.6815
736.20 0.6804
736.30 0.6794
736.40 0.6783
736.50 0.6773
736.60 0.6762
736.70 0.6752
736.80 0.6741
736.90 0.6731
737.00 0.672
737.10 0.671
737.20 0.6699
737.30 0.6689
737.40 0.6678
737.50 0.6668
737.60 0.6657
737.70 0.6647
737.80 0.6636
737.90 0.6626
738.00 0.6616
738.10 0.6605
738.20 0.6595
738.30 0.6584
738.40 0.6574
738.50 0.6563
738.60 0.6553
738.70 0.6543
738.80 0.6532
738.90 0.6522
739.00 0.6512
739.10 0.6501
739.20 0.6491
739.30 0.648
739.40 0.647
739.50 0.646
739.60 0.6449
739.70 0.6439
739.80 0.6429
739.90 0.6418
740.00 0.6408
740.10 0.6401
740.20 0.6395
740.30 0.6388
740.40 0.6382
740.50 0.6375
740.60 0.6368
740.70 0.6362
740.80 0.6355
740.90 0.6349
741.00 0.6342
741.10 0.6335
741.20 0.6329
741.30 0.6322
741.40 0.6316
741.50 0.6309
741.60 0.6302
741.70 0.6296
741.80 0.6289
741.90 0.6283
742.00 0.6276
742.10 0.627
742.20 0.6263
742.30 0.6256
742.40 0.625
742.50 0.6243
742.60 0.6237
742.70 0.623
742.80 0.6224
742.90 0.6217
743.00 0.6211
743.10 0.6204
743.20 0.6198
743.30 0.6191
743.40 0.6185
743.50 0.6178
743.60 0.6172
743.70 0.6165
743.80 0.6159
743.90 0.6152
744.00 0.6146
744.10 0.6139
744.20 0.6133
744.30 0.6126
744.40 0.612
744.50 0.6113
744.60 0.6107
744.70 0.61
744.80 0.6094
744.90 0.6087
745.00 0.6081
745.10 0.6074
745.20 0.6068
745.30 0.6061
745.40 0.6055
745.50 0.6048
745.60 0.6042
745.70 0.6036
745.80 0.6029
745.90 0.6023
746.00 0.6016
746.10 0.601
746.20 0.6003
746.30 0.5997
746.40 0.599
746.50 0.5984
746.60 0.5978
746.70 0.5971
746.80 0.5965
746.90 0.5958
747.00 0.5952
747.10 0.5946
747.20 0.5939
747.30 0.5933
747.40 0.5926
747.50 0.592
747.60 0.5914
747.70 0.5907
747.80 0.5901
747.90 0.5895
748.00 0.5888
748.10 0.5882
748.20 0.5875
748.30 0.5869
748.40 0.5863
748.50 0.5856
748.60 0.585
748.70 0.5844
748.80 0.5837
748.90 0.5831
749.00 0.5825
749.10 0.5818
749.20 0.5812
749.30 0.5806
749.40 0.5799
749.50 0.5793
749.60 0.5787
749.70 0.578
749.80 0.5774
749.90 0.5768
750.00 0.5761
750.10 0.5757
750.20 0.5753
750.30 0.5749
750.40 0.5745
750.50 0.574
750.60 0.5736
750.70 0.5732
750.80 0.5728
750.90 0.5724
751.00 0.572
751.10 0.5715
751.20 0.5711
751.30 0.5707
751.40 0.5703
751.50 0.5699
751.60 0.5695
751.70 0.569
751.80 0.5686
751.90 0.5682
752.00 0.5678
752.10 0.5674
752.20 0.567
752.30 0.5665
752.40 0.5661
752.50 0.5657
752.60 0.5653
752.70 0.5649
752.80 0.5645
752.90 0.5641
753.00 0.5636
753.10 0.5632
753.20 0.5628
753.30 0.5624
753.40 0.562
753.50 0.5616
753.60 0.5612
753.70 0.5608
753.80 0.5603
753.90 0.5599
754.00 0.5595
754.10 0.5591
754.20 0.5587
754.30 0.5583
754.40 0.5579
754.50 0.5575
754.60 0.5571
754.70 0.5566
754.80 0.5562
754.90 0.5558
755.00 0.5554
755.10 0.555
755.20 0.5546
755.30 0.5542
755.40 0.5538
755.50 0.5534
755.60 0.553
755.70 0.5525
755.80 0.5521
755.90 0.5517
756.00 0.5513
756.10 0.5509
756.20 0.5505
756.30 0.5501
756.40 0.5497
756.50 0.5493
756.60 0.5489
756.70 0.5485
756.80 0.5481
756.90 0.5477
757.00 0.5473
757.10 0.5469
757.20 0.5464
757.30 0.546
757.40 0.5456
757.50 0.5452
757.60 0.5448
757.70 0.5444
757.80 0.544
757.90 0.5436
758.00 0.5432
758.10 0.5428
758.20 0.5424
758.30 0.542
758.40 0.5416
758.50 0.5412
758.60 0.5408
758.70 0.5404
758.80 0.54
758.90 0.5396
759.00 0.5392
759.10 0.5388
759.20 0.5384
759.30 0.538
759.40 0.5376
759.50 0.5372
759.60 0.5368
759.70 0.5364
759.80 0.536
759.90 0.5356
760.00 0.5352
760.10 0.5349
760.20 0.5346
760.30 0.5343
760.40 0.534
760.50 0.5337
760.60 0.5335
760.70 0.5332
760.80 0.5329
760.90 0.5326
761.00 0.5323
761.10 0.532
761.20 0.5318
761.30 0.5315
761.40 0.5312
761.50 0.5309
761.60 0.5306
761.70 0.5304
761.80 0.5301
761.90 0.5298
762.00 0.5295
762.10 0.5292
762.20 0.5289
762.30 0.5287
762.40 0.5284
762.50 0.5281
762.60 0.5278
762.70 0.5275
762.80 0.5273
762.90 0.527
763.00 0.5267
763.10 0.5264
763.20 0.5261
763.30 0.5259
763.40 0.5256
763.50 0.5253
763.60 0.525
763.70 0.5247
763.80 0.5245
763.90 0.5242
764.00 0.5239
764.10 0.5236
764.20 0.5233
764.30 0.5231
764.40 0.5228
764.50 0.5225
764.60 0.5222
764.70 0.5219
764.80 0.5217
764.90 0.5214
765.00 0.5211
765.10 0.5208
765.20 0.5206
765.30 0.5203
765.40 0.52
765.50 0.5197
765.60 0.5194
765.70 0.5192
765.80 0.5189
765.90 0.5186
766.00 0.5183
766.10 0.5181
766.20 0.5178
766.30 0.5175
766.40 0.5172
766.50 0.517
766.60 0.5167
766.70 0.5164
766.80 0.5161
766.90 0.5158
767.00 0.5156
767.10 0.5153
767.20 0.515
767.30 0.5147
767.40 0.5145
767.50 0.5142
767.60 0.5139
767.70 0.5136
767.80 0.5134
767.90 0.5131
768.00 0.5128
768.10 0.5125
768.20 0.5123
768.30 0.512
768.40 0.5117
768.50 0.5115
768.60 0.5112
768.70 0.5109
768.80 0.5106
768.90 0.5104
769.00 0.5101
769.10 0.5098
769.20 0.5095
769.30 0.5093
769.40 0.509
769.50 0.5087
769.60 0.5085
769.70 0.5082
769.80 0.5079
769.90 0.5076
770.00 0.5074
770.10 0.5072
770.20 0.5071
770.30 0.5069
770.40 0.5068
770.50 0.5067
770.60 0.5065
770.70 0.5064
770.80 0.5063
770.90 0.5061
771.00 0.506
771.10 0.5059
771.20 0.5057
771.30 0.5056
771.40 0.5054
771.50 0.5053
771.60 0.5052
771.70 0.505
771.80 0.5049
771.90 0.5048
772.00 0.5046
772.10 0.5045
772.20 0.5043
772.30 0.5042
772.40 0.5041
772.50 0.5039
772.60 0.5038
772.70 0.5037
772.80 0.5035
772.90 0.5034
773.00 0.5033
773.10 0.5031
773.20 0.503
773.30 0.5028
773.40 0.5027
773.50 0.5026
773.60 0.5024
773.70 0.5023
773.80 0.5022
773.90 0.502
774.00 0.5019
774.10 0.5018
774.20 0.5016
774.30 0.5015
774.40 0.5014
774.50 0.5012
774.60 0.5011
774.70 0.501
774.80 0.5008
774.90 0.5007
775.00 0.5005
775.10 0.5004
775.20 0.5003
775.30 0.5001
775.40 0.5
775.50 0.4999
775.60 0.4997
775.70 0.4996
775.80 0.4995
775.90 0.4993
776.00 0.4992
776.10 0.4991
776.20 0.4989
776.30 0.4988
776.40 0.4987
776.50 0.4985
776.60 0.4984
776.70 0.4983
776.80 0.4981
776.90 0.498
777.00 0.4979
777.10 0.4977
777.20 0.4976
777.30 0.4975
777.40 0.4973
777.50 0.4972
777.60 0.4971
777.70 0.4969
777.80 0.4968
777.90 0.4967
778.00 0.4965
778.10 0.4964
778.20 0.4963
778.30 0.4961
778.40 0.496
778.50 0.4959
778.60 0.4957
778.70 0.4956
778.80 0.4955
778.90 0.4953
779.00 0.4952
779.10 0.4951
779.20 0.4949
779.30 0.4948
779.40 0.4947
779.50 0.4945
779.60 0.4944
779.70 0.4943
779.80 0.4941
779.90 0.494
780.00 0.4939
780.10 0.4939
780.20 0.494
780.30 0.494
780.40 0.4941
780.50 0.4941
780.60 0.4942
780.70 0.4942
780.80 0.4943
780.90 0.4943
781.00 0.4944
781.10 0.4944
781.20 0.4945
781.30 0.4945
781.40 0.4946
781.50 0.4946
781.60 0.4947
781.70 0.4947
781.80 0.4948
781.90 0.4948
782.00 0.4949
782.10 0.4949
782.20 0.495
782.30 0.495
782.40 0.4951
782.50 0.4951
782.60 0.4952
782.70 0.4952
782.80 0.4953
782.90 0.4953
783.00 0.4954
783.10 0.4954
783.20 0.4955
783.30 0.4955
783.40 0.4956
783.50 0.4956
783.60 0.4957
783.70 0.4957
783.80 0.4958
783.90 0.4958
784.00 0.4959
784.10 0.4959
784.20 0.496
784.30 0.496
784.40 0.4961
784.50 0.4961
784.60 0.4962
784.70 0.4962
784.80 0.4963
784.90 0.4963
785.00 0.4964
785.10 0.4964
785.20 0.4965
785.30 0.4965
785.40 0.4966
785.50 0.4966
785.60 0.4967
785.70 0.4967
785.80 0.4968
785.90 0.4968
786.00 0.4969
786.10 0.4969
786.20 0.497
786.30 0.497
786.40 0.4971
786.50 0.4971
786.60 0.4972
786.70 0.4972
786.80 0.4973
786.90 0.4973
787.00 0.4974
787.10 0.4974
787.20 0.4975
787.30 0.4975
787.40 0.4976
787.50 0.4976
787.60 0.4977
787.70 0.4977
787.80 0.4978
787.90 0.4978
788.00 0.4979
788.10 0.4979
788.20 0.498
788.30 0.498
788.40 0.498
788.50 0.4981
788.60 0.4981
788.70 0.4982
788.80 0.4982
788.90 0.4983
789.00 0.4983
789.10 0.4984
789.20 0.4984
789.30 0.4985
789.40 0.4985
789.50 0.4986
789.60 0.4986
789.70 0.4987
789.80 0.4987
789.90 0.4988
790.00 0.4988
790.10 0.499
790.20 0.4991
790.30 0.4992
790.40 0.4994
790.50 0.4995
790.60 0.4996
790.70 0.4998
790.80 0.4999
790.90 0.5001
791.00 0.5002
791.10 0.5003
791.20 0.5005
791.30 0.5006
791.40 0.5008
791.50 0.5009
791.60 0.501
791.70 0.5012
791.80 0.5013
791.90 0.5014
792.00 0.5016
792.10 0.5017
792.20 0.5019
792.30 0.502
792.40 0.5021
792.50 0.5023
792.60 0.5024
792.70 0.5025
792.80 0.5027
792.90 0.5028
793.00 0.503
793.10 0.5031
793.20 0.5032
793.30 0.5034
793.40 0.5035
793.50 0.5036
793.60 0.5038
793.70 0.5039
793.80 0.504
793.90 0.5042
794.00 0.5043
794.10 0.5045
794.20 0.5046
794.30 0.5047
794.40 0.5049
794.50 0.505
794.60 0.5051
794.70 0.5053
794.80 0.5054
794.90 0.5055
795.00 0.5057
795.10 0.5058
795.20 0.5059
795.30 0.5061
795.40 0.5062
795.50 0.5063
795.60 0.5065
795.70 0.5066
795.80 0.5067
795.90 0.5069
796.00 0.507
796.10 0.5071
796.20 0.5073
796.30 0.5074
796.40 0.5076
796.50 0.5077
796.60 0.5078
796.70 0.508
796.80 0.5081
796.90 0.5082
797.00 0.5084
797.10 0.5085
797.20 0.5086
797.30 0.5088
797.40 0.5089
797.50 0.509
797.60 0.5092
797.70 0.5093
797.80 0.5094
797.90 0.5095
798.00 0.5097
798.10 0.5098
798.20 0.5099
798.30 0.5101
798.40 0.5102
798.50 0.5103
798.60 0.5105
798.70 0.5106
798.80 0.5107
798.90 0.5109
799.00 0.511
799.10 0.5111
799.20 0.5113
799.30 0.5114
799.40 0.5115
799.50 0.5117
799.60 0.5118
799.70 0.5119
799.80 0.5121
799.90 0.5122
800.00 0.5123
800.10 0.5124
800.20 0.5124
800.30 0.5125
800.40 0.5126
800.50 0.5126
800.60 0.5127
800.70 0.5127
800.80 0.5128
800.90 0.5129
801.00 0.5129
801.10 0.513
801.20 0.5131
801.30 0.5131
801.40 0.5132
801.50 0.5132
801.60 0.5133
801.70 0.5134
801.80 0.5134
801.90 0.5135
802.00 0.5135
802.10 0.5136
802.20 0.5137
802.30 0.5137
802.40 0.5138
802.50 0.5138
802.60 0.5139
802.70 0.514
802.80 0.514
802.90 0.5141
803.00 0.5142
803.10 0.5142
803.20 0.5143
803.30 0.5143
803.40 0.5144
803.50 0.5145
803.60 0.5145
803.70 0.5146
803.80 0.5146
803.90 0.5147
804.00 0.5148
804.10 0.5148
804.20 0.5149
804.30 0.5149
804.40 0.515
804.50 0.5151
804.60 0.5151
804.70 0.5152
804.80 0.5152
804.90 0.5153
805.00 0.5154
805.10 0.5154
805.20 0.5155
805.30 0.5155
805.40 0.5156
805.50 0.5156
805.60 0.5157
805.70 0.5158
805.80 0.5158
805.90 0.5159
806.00 0.5159
806.10 0.516
806.20 0.5161
806.30 0.5161
806.40 0.5162
806.50 0.5162
806.60 0.5163
806.70 0.5164
806.80 0.5164
806.90 0.5165
807.00 0.5165
807.10 0.5166
807.20 0.5166
807.30 0.5167
807.40 0.5168
807.50 0.5168
807.60 0.5169
807.70 0.5169
807.80 0.517
807.90 0.5171
808.00 0.5171
808.10 0.5172
808.20 0.5172
808.30 0.5173
808.40 0.5173
808.50 0.5174
808.60 0.5175
808.70 0.5175
808.80 0.5176
808.90 0.5176
809.00 0.5177
809.10 0.5178
809.20 0.5178
809.30 0.5179
809.40 0.5179
809.50 0.518
809.60 0.518
809.70 0.5181
809.80 0.5182
809.90 0.5182
810.00 0.5183
810.10 0.5182
810.20 0.5182
810.30 0.5182
810.40 0.5182
810.50 0.5181
810.60 0.5181
810.70 0.5181
810.80 0.518
810.90 0.518
811.00 0.518
811.10 0.5179
811.20 0.5179
811.30 0.5179
811.40 0.5179
811.50 0.5178
811.60 0.5178
811.70 0.5178
811.80 0.5177
811.90 0.5177
812.00 0.5177
812.10 0.5176
812.20 0.5176
812.30 0.5176
812.40 0.5176
812.50 0.5175
812.60 0.5175
812.70 0.5175
812.80 0.5174
812.90 0.5174
813.00 0.5174
813.10 0.5173
813.20 0.5173
813.30 0.5173
813.40 0.5173
813.50 0.5172
813.60 0.5172
813.70 0.5172
813.80 0.5171
813.90 0.5171
814.00 0.5171
814.10 0.5171
814.20 0.517
814.30 0.517
814.40 0.517
814.50 0.5169
814.60 0.5169
814.70 0.5169
814.80 0.5168
814.90 0.5168
815.00 0.5168
815.10 0.5168
815.20 0.5167
815.30 0.5167
815.40 0.5167
815.50 0.5166
815.60 0.5166
815.70 0.5166
815.80 0.5165
815.90 0.5165
816.00 0.5165
816.10 0.5165
816.20 0.5164
816.30 0.5164
816.40 0.5164
816.50 0.5163
816.60 0.5163
816.70 0.5163
816.80 0.5162
816.90 0.5162
817.00 0.5162
817.10 0.5162
817.20 0.5161
817.30 0.5161
817.40 0.5161
817.50 0.516
817.60 0.516
817.70 0.516
817.80 0.516
817.90 0.5159
818.00 0.5159
818.10 0.5159
818.20 0.5158
818.30 0.5158
818.40 0.5158
818.50 0.5157
818.60 0.5157
818.70 0.5157
818.80 0.5157
818.90 0.5156
819.00 0.5156
819.10 0.5156
819.20 0.5155
819.30 0.5155
819.40 0.5155
819.50 0.5154
819.60 0.5154
819.70 0.5154
819.80 0.5154
819.90 0.5153
820.00 0.5153
820.10 0.5153
820.20 0.5152
820.30 0.5152
820.40 0.5151
820.50 0.5151
820.60 0.5151
820.70 0.515
820.80 0.515
820.90 0.515
821.00 0.5149
821.10 0.5149
821.20 0.5149
821.30 0.5149
821.40 0.5148
821.50 0.5148
821.60 0.5148
821.70 0.5147
821.80 0.5147
821.90 0.5147
822.00 0.5146
822.10 0.5146
822.20 0.5146
822.30 0.5145
822.40 0.5145
822.50 0.5145
822.60 0.5144
822.70 0.5144
822.80 0.5144
822.90 0.5143
823.00 0.5143
823.10 0.5143
823.20 0.5143
823.30 0.5142
823.40 0.5142
823.50 0.5142
823.60 0.5141
823.70 0.5141
823.80 0.5141
823.90 0.514
824.00 0.514
824.10 0.514
824.20 0.514
824.30 0.5139
824.40 0.5139
824.50 0.5139
824.60 0.5138
824.70 0.5138
824.80 0.5138
824.90 0.5137
825.00 0.5137
825.10 0.5137
825.20 0.5137
825.30 0.5136
825.40 0.5136
825.50 0.5136
825.60 0.5135
825.70 0.5135
825.80 0.5135
825.90 0.5134
826.00 0.5134
826.10 0.5134
826.20 0.5134
826.30 0.5133
826.40 0.5133
826.50 0.5133
826.60 0.5132
826.70 0.5132
826.80 0.5132
826.90 0.5131
827.00 0.5131
827.10 0.5131
827.20 0.5131
827.30 0.513
827.40 0.513
827.50 0.513
827.60 0.513
827.70 0.5129
827.80 0.5129
827.90 0.5129
828.00 0.5129
828.10 0.5128
828.20 0.5128
828.30 0.5128
828.40 0.5128
828.50 0.5127
828.60 0.5127
828.70 0.5127
828.80 0.5127
828.90 0.5126
829.00 0.5126
829.10 0.5126
829.20 0.5126
829.30 0.5125
829.40 0.5125
829.50 0.5125
829.60 0.5125
829.70 0.5124
829.80 0.5124
829.90 0.5124
830.00 0.5124
830.10 0.5123
830.20 0.5123
830.30 0.5123
830.40 0.5123
830.50 0.5122
830.60 0.5122
830.70 0.5122
830.80 0.5122
830.90 0.5122
831.00 0.5121
831.10 0.5121
831.20 0.5121
831.30 0.5121
831.40 0.512
831.50 0.512
831.60 0.512
831.70 0.512
831.80 0.5119
831.90 0.5119
832.00 0.5119
832.10 0.5118
832.20 0.5118
832.30 0.5118
832.40 0.5118
832.50 0.5117
832.60 0.5117
832.70 0.5117
832.80 0.5116
832.90 0.5116
833.00 0.5116
833.10 0.5116
833.20 0.5115
833.30 0.5115
833.40 0.5115
833.50 0.5114
833.60 0.5114
833.70 0.5114
833.80 0.5114
833.90 0.5113
834.00 0.5113
834.10 0.5113
834.20 0.5112
834.30 0.5112
834.40 0.5112
834.50 0.5112
834.60 0.5111
834.70 0.5111
834.80 0.5111
834.90 0.511
835.00 0.511
835.10 0.511
835.20 0.511
835.30 0.5109
835.40 0.5109
835.50 0.5109
835.60 0.5108
835.70 0.5108
835.80 0.5108
835.90 0.5108
836.00 0.5107
836.10 0.5107
836.20 0.5107
836.30 0.5106
836.40 0.5106
836.50 0.5106
836.60 0.5106
836.70 0.5105
836.80 0.5105
836.90 0.5105
837.00 0.5104
837.10 0.5104
837.20 0.5104
837.30 0.5103
837.40 0.5103
837.50 0.5103
837.60 0.5102
837.70 0.5102
837.80 0.5102
837.90 0.5101
838.00 0.5101
838.10 0.5101
838.20 0.51
838.30 0.51
838.40 0.51
838.50 0.5099
838.60 0.5099
838.70 0.5099
838.80 0.5098
838.90 0.5098
839.00 0.5097
839.10 0.5097
839.20 0.5097
839.30 0.5096
839.40 0.5096
839.50 0.5096
839.60 0.5095
839.70 0.5095
839.80 0.5095
839.90 0.5094
840.00 0.5094
840.10 0.5094
840.20 0.5093
840.30 0.5093
840.40 0.5093
840.50 0.5092
840.60 0.5092
840.70 0.5092
840.80 0.5091
840.90 0.5091
841.00 0.5091
841.10 0.509
841.20 0.509
841.30 0.5089
841.40 0.5089
841.50 0.5089
841.60 0.5088
841.70 0.5088
841.80 0.5088
841.90 0.5087
842.00 0.5087
842.10 0.5087
842.20 0.5086
842.30 0.5086
842.40 0.5085
842.50 0.5085
842.60 0.5085
842.70 0.5084
842.80 0.5084
842.90 0.5083
843.00 0.5083
843.10 0.5083
843.20 0.5082
843.30 0.5082
843.40 0.5081
843.50 0.5081
843.60 0.5081
843.70 0.508
843.80 0.508
843.90 0.5079
844.00 0.5079
844.10 0.5079
844.20 0.5078
844.30 0.5078
844.40 0.5077
844.50 0.5077
844.60 0.5077
844.70 0.5076
844.80 0.5076
844.90 0.5075
845.00 0.5075
845.10 0.5075
845.20 0.5074
845.30 0.5074
845.40 0.5073
845.50 0.5073
845.60 0.5073
845.70 0.5072
845.80 0.5072
845.90 0.5071
846.00 0.5071
846.10 0.5071
846.20 0.507
846.30 0.507
846.40 0.5069
846.50 0.5069
846.60 0.5069
846.70 0.5068
846.80 0.5068
846.90 0.5067
847.00 0.5067
847.10 0.5067
847.20 0.5066
847.30 0.5066
847.40 0.5065
847.50 0.5065
847.60 0.5064
847.70 0.5064
847.80 0.5063
847.90 0.5063
848.00 0.5062
848.10 0.5062
848.20 0.5061
848.30 0.5061
848.40 0.506
848.50 0.506
848.60 0.506
848.70 0.5059
848.80 0.5059
848.90 0.5058
849.00 0.5058
849.10 0.5057
849.20 0.5057
849.30 0.5056
849.40 0.5056
849.50 0.5055
849.60 0.5055
849.70 0.5054
849.80 0.5054
849.90 0.5053
850.00 0.5053
850.10 0.5052
850.20 0.5052
850.30 0.5052
850.40 0.5051
850.50 0.5051
850.60 0.505
850.70 0.505
850.80 0.5049
850.90 0.5049
851.00 0.5048
851.10 0.5048
851.20 0.5047
851.30 0.5047
851.40 0.5046
851.50 0.5046
851.60 0.5045
851.70 0.5045
851.80 0.5044
851.90 0.5044
852.00 0.5044
852.10 0.5043
852.20 0.5042
852.30 0.5042
852.40 0.5041
852.50 0.5041
852.60 0.504
852.70 0.504
852.80 0.5039
852.90 0.5039
853.00 0.5038
853.10 0.5038
853.20 0.5037
853.30 0.5037
853.40 0.5036
853.50 0.5035
853.60 0.5035
853.70 0.5034
853.80 0.5034
853.90 0.5033
854.00 0.5033
854.10 0.5032
854.20 0.5032
854.30 0.5031
854.40 0.5031
854.50 0.503
854.60 0.503
854.70 0.5029
854.80 0.5028
854.90 0.5028
855.00 0.5027
855.10 0.5027
855.20 0.5026
855.30 0.5026
855.40 0.5025
855.50 0.5025
855.60 0.5024
855.70 0.5024
855.80 0.5023
855.90 0.5023
856.00 0.5022
856.10 0.5021
856.20 0.5021
856.30 0.502
856.40 0.502
856.50 0.5019
856.60 0.5019
856.70 0.5018
856.80 0.5018
856.90 0.5017
857.00 0.5017
857.10 0.5016
857.20 0.5015
857.30 0.5015
857.40 0.5014
857.50 0.5014
857.60 0.5013
857.70 0.5012
857.80 0.5012
857.90 0.5011
858.00 0.5011
858.10 0.501
858.20 0.5009
858.30 0.5009
858.40 0.5008
858.50 0.5008
858.60 0.5007
858.70 0.5007
858.80 0.5006
858.90 0.5005
859.00 0.5005
859.10 0.5004
859.20 0.5004
859.30 0.5003
859.40 0.5002
859.50 0.5002
859.60 0.5001
859.70 0.5001
859.80 0.5
859.90 0.4999
860.00 0.4999
860.10 0.4998
860.20 0.4998
860.30 0.4997
860.40 0.4996
860.50 0.4996
860.60 0.4995
860.70 0.4995
860.80 0.4994
860.90 0.4994
861.00 0.4993
861.10 0.4992
861.20 0.4992
861.30 0.4991
861.40 0.4991
861.50 0.499
861.60 0.4989
861.70 0.4989
861.80 0.4988
861.90 0.4988
862.00 0.4987
862.10 0.4986
862.20 0.4986
862.30 0.4985
862.40 0.4985
862.50 0.4984
862.60 0.4983
862.70 0.4983
862.80 0.4982
862.90 0.4981
863.00 0.4981
863.10 0.498
863.20 0.498
863.30 0.4979
863.40 0.4978
863.50 0.4978
863.60 0.4977
863.70 0.4976
863.80 0.4976
863.90 0.4975
864.00 0.4975
864.10 0.4974
864.20 0.4973
864.30 0.4973
864.40 0.4972
864.50 0.4971
864.60 0.4971
864.70 0.497
864.80 0.497
864.90 0.4969
865.00 0.4968
865.10 0.4968
865.20 0.4967
865.30 0.4967
865.40 0.4966
865.50 0.4965
865.60 0.4965
865.70 0.4964
865.80 0.4963
865.90 0.4963
866.00 0.4962
866.10 0.4962
866.20 0.4961
866.30 0.496
866.40 0.496
866.50 0.4959
866.60 0.4958
866.70 0.4958
866.80 0.4957
866.90 0.4957
867.00 0.4956
867.10 0.4955
867.20 0.4954
867.30 0.4953
867.40 0.4952
867.50 0.4952
867.60 0.4951
867.70 0.495
867.80 0.4949
867.90 0.4948
868.00 0.4947
868.10 0.4946
868.20 0.4945
868.30 0.4944
868.40 0.4944
868.50 0.4943
868.60 0.4942
868.70 0.4941
868.80 0.494
868.90 0.4939
869.00 0.4938
869.10 0.4937
869.20 0.4936
869.30 0.4936
869.40 0.4935
869.50 0.4934
869.60 0.4933
869.70 0.4932
869.80 0.4931
869.90 0.493
870.00 0.4929
870.10 0.4928
870.20 0.4928
870.30 0.4927
870.40 0.4926
870.50 0.4925
870.60 0.4924
870.70 0.4923
870.80 0.4922
870.90 0.4921
871.00 0.492
871.10 0.492
871.20 0.4919
871.30 0.4918
871.40 0.4917
871.50 0.4916
871.60 0.4915
871.70 0.4914
871.80 0.4913
871.90 0.4913
872.00 0.4912
872.10 0.4911
872.20 0.4909
872.30 0.4908
872.40 0.4907
872.50 0.4906
872.60 0.4905
872.70 0.4904
872.80 0.4903
872.90 0.4901
873.00 0.49
873.10 0.4899
873.20 0.4898
873.30 0.4897
873.40 0.4896
873.50 0.4895
873.60 0.4893
873.70 0.4892
873.80 0.4891
873.90 0.489
874.00 0.4889
874.10 0.4888
874.20 0.4887
874.30 0.4886
874.40 0.4884
874.50 0.4883
874.60 0.4882
874.70 0.4881
874.80 0.488
874.90 0.4879
875.00 0.4878
875.10 0.4877
875.20 0.4875
875.30 0.4874
875.40 0.4873
875.50 0.4872
875.60 0.4871
875.70 0.487
875.80 0.4869
875.90 0.4867
876.00 0.4866
876.10 0.4865
876.20 0.4864
876.30 0.4863
876.40 0.4862
876.50 0.4861
876.60 0.486
876.70 0.4859
876.80 0.4857
876.90 0.4856
877.00 0.4855
877.10 0.4854
877.20 0.4852
877.30 0.4851
877.40 0.4849
877.50 0.4847
877.60 0.4846
877.70 0.4844
877.80 0.4843
877.90 0.4841
878.00 0.484
878.10 0.4838
878.20 0.4837
878.30 0.4835
878.40 0.4834
878.50 0.4832
878.60 0.483
878.70 0.4829
878.80 0.4827
878.90 0.4826
879.00 0.4824
879.10 0.4823
879.20 0.4821
879.30 0.482
879.40 0.4818
879.50 0.4817
879.60 0.4815
879.70 0.4814
879.80 0.4812
879.90 0.4811
880.00 0.4809
880.10 0.4807
880.20 0.4806
880.30 0.4804
880.40 0.4803
880.50 0.4801
880.60 0.48
880.70 0.4798
880.80 0.4797
880.90 0.4795
881.00 0.4794
881.10 0.4792
881.20 0.4791
881.30 0.4789
881.40 0.4788
881.50 0.4786
881.60 0.4785
881.70 0.4783
881.80 0.4782
881.90 0.478
882.00 0.4779
882.10 0.4777
882.20 0.4775
882.30 0.4773
882.40 0.4771
882.50 0.4769
882.60 0.4767
882.70 0.4765
882.80 0.4763
882.90 0.4761
883.00 0.476
883.10 0.4758
883.20 0.4756
883.30 0.4754
883.40 0.4752
883.50 0.475
883.60 0.4748
883.70 0.4746
883.80 0.4744
883.90 0.4743
884.00 0.4741
884.10 0.4739
884.20 0.4737
884.30 0.4735
884.40 0.4733
884.50 0.4731
884.60 0.4729
884.70 0.4727
884.80 0.4726
884.90 0.4724
885.00 0.4722
885.10 0.472
885.20 0.4718
885.30 0.4716
885.40 0.4714
885.50 0.4712
885.60 0.4711
885.70 0.4709
885.80 0.4707
885.90 0.4705
886.00 0.4703
886.10 0.4701
886.20 0.4699
886.30 0.4697
886.40 0.4696
886.50 0.4694
886.60 0.4692
886.70 0.469
886.80 0.4688
886.90 0.4686
887.00 0.4684
887.10 0.4682
887.20 0.468
887.30 0.4678
887.40 0.4675
887.50 0.4673
887.60 0.4671
887.70 0.4669
887.80 0.4667
887.90 0.4664
888.00 0.4662
888.10 0.466
888.20 0.4658
888.30 0.4655
888.40 0.4653
888.50 0.4651
888.60 0.4649
888.70 0.4647
888.80 0.4644
888.90 0.4642
889.00 0.464
889.10 0.4638
889.20 0.4636
889.30 0.4633
889.40 0.4631
889.50 0.4629
889.60 0.4627
889.70 0.4625
889.80 0.4622
889.90 0.462
890.00 0.4618
890.10 0.4616
890.20 0.4614
890.30 0.4611
890.40 0.4609
890.50 0.4607
890.60 0.4605
890.70 0.4603
890.80 0.46
890.90 0.4598
891.00 0.4596
891.10 0.4594
891.20 0.4592
891.30 0.4589
891.40 0.4587
891.50 0.4585
891.60 0.4583
891.70 0.4581
891.80 0.4578
891.90 0.4576
892.00 0.4574
892.10 0.4572
892.20 0.4569
892.30 0.4566
892.40 0.4564
892.50 0.4561
892.60 0.4559
892.70 0.4556
892.80 0.4554
892.90 0.4551
893.00 0.4549
893.10 0.4546
893.20 0.4543
893.30 0.4541
893.40 0.4538
893.50 0.4536
893.60 0.4533
893.70 0.4531
893.80 0.4528
893.90 0.4526
894.00 0.4523
894.10 0.4521
894.20 0.4518
894.30 0.4516
894.40 0.4513
894.50 0.451
894.60 0.4508
894.70 0.4505
894.80 0.4503
894.90 0.45
895.00 0.4498
895.10 0.4495
895.20 0.4493
895.30 0.449
895.40 0.4488
895.50 0.4485
895.60 0.4483
895.70 0.448
895.80 0.4478
895.90 0.4475
896.00 0.4473
896.10 0.447
896.20 0.4467
896.30 0.4465
896.40 0.4462
896.50 0.446
896.60 0.4457
896.70 0.4455
896.80 0.4452
896.90 0.445
897.00 0.4447
897.10 0.4445
897.20 0.4442
897.30 0.4439
897.40 0.4436
897.50 0.4434
897.60 0.4431
897.70 0.4428
897.80 0.4426
897.90 0.4423
898.00 0.442
898.10 0.4417
898.20 0.4415
898.30 0.4412
898.40 0.4409
898.50 0.4406
898.60 0.4404
898.70 0.4401
898.80 0.4398
898.90 0.4396
899.00 0.4393
899.10 0.439
899.20 0.4387
899.30 0.4385
899.40 0.4382
899.50 0.4379
899.60 0.4377
899.70 0.4374
899.80 0.4371
899.90 0.4369
900.00 0.4366
900.10 0.4363
900.20 0.436
900.30 0.4358
900.40 0.4355
900.50 0.4352
900.60 0.435
900.70 0.4347
900.80 0.4344
900.90 0.4342
901.00 0.4339
901.10 0.4336
901.20 0.4333
901.30 0.4331
901.40 0.4328
901.50 0.4325
901.60 0.4323
901.70 0.432
901.80 0.4317
901.90 0.4315
902.00 0.4312
902.10 0.4309
902.20 0.4306
902.30 0.4303
902.40 0.4301
902.50 0.4298
902.60 0.4295
902.70 0.4292
902.80 0.4289
902.90 0.4286
903.00 0.4284
903.10 0.4281
903.20 0.4278
903.30 0.4275
903.40 0.4272
903.50 0.4269
903.60 0.4267
903.70 0.4264
903.80 0.4261
903.90 0.4258
904.00 0.4255
904.10 0.4252
904.20 0.425
904.30 0.4247
904.40 0.4244
904.50 0.4241
904.60 0.4238
904.70 0.4235
904.80 0.4233
904.90 0.423
905.00 0.4227
905.10 0.4224
905.20 0.4221
905.30 0.4219
905.40 0.4216
905.50 0.4213
905.60 0.421
905.70 0.4207
905.80 0.4204
905.90 0.4202
906.00 0.4199
906.10 0.4196
906.20 0.4193
906.30 0.419
906.40 0.4188
906.50 0.4185
906.60 0.4182
906.70 0.4179
906.80 0.4176
906.90 0.4174
907.00 0.4171
907.10 0.4168
907.20 0.4165
907.30 0.4161
907.40 0.4158
907.50 0.4155
907.60 0.4152
907.70 0.4149
907.80 0.4146
907.90 0.4142
908.00 0.4139
908.10 0.4136
908.20 0.4133
908.30 0.413
908.40 0.4127
908.50 0.4123
908.60 0.412
908.70 0.4117
908.80 0.4114
908.90 0.4111
909.00 0.4108
909.10 0.4105
909.20 0.4101
909.30 0.4098
909.40 0.4095
909.50 0.4092
909.60 0.4089
909.70 0.4086
909.80 0.4083
909.90 0.4079
910.00 0.4076
910.10 0.4073
910.20 0.407
910.30 0.4067
910.40 0.4064
910.50 0.4061
910.60 0.4058
910.70 0.4054
910.80 0.4051
910.90 0.4048
911.00 0.4045
911.10 0.4042
911.20 0.4039
911.30 0.4036
911.40 0.4033
911.50 0.4029
911.60 0.4026
911.70 0.4023
911.80 0.402
911.90 0.4017
912.00 0.4014
912.10 0.401
912.20 0.4007
912.30 0.4004
912.40 0.4
912.50 0.3997
912.60 0.3993
912.70 0.399
912.80 0.3987
912.90 0.3983
913.00 0.398
913.10 0.3976
913.20 0.3973
913.30 0.397
913.40 0.3966
913.50 0.3963
913.60 0.3959
913.70 0.3956
913.80 0.3952
913.90 0.3949
914.00 0.3946
914.10 0.3942
914.20 0.3939
914.30 0.3936
914.40 0.3932
914.50 0.3929
914.60 0.3925
914.70 0.3922
914.80 0.3919
914.90 0.3915
915.00 0.3912
915.10 0.3908
915.20 0.3905
915.30 0.3902
915.40 0.3898
915.50 0.3895
915.60 0.3892
915.70 0.3888
915.80 0.3885
915.90 0.3881
916.00 0.3878
916.10 0.3875
916.20 0.3871
916.30 0.3868
916.40 0.3865
916.50 0.3861
916.60 0.3858
916.70 0.3855
916.80 0.3851
916.90 0.3848
917.00 0.3844
917.10 0.3841
917.20 0.3837
917.30 0.3834
917.40 0.383
917.50 0.3827
917.60 0.3823
917.70 0.382
917.80 0.3816
917.90 0.3813
918.00 0.3809
918.10 0.3806
918.20 0.3802
918.30 0.3799
918.40 0.3795
918.50 0.3792
918.60 0.3788
918.70 0.3785
918.80 0.3781
918.90 0.3778
919.00 0.3774
919.10 0.3771
919.20 0.3767
919.30 0.3764
919.40 0.376
919.50 0.3757
919.60 0.3753
919.70 0.375
919.80 0.3746
919.90 0.3743
920.00 0.3739
920.10 0.3736
920.20 0.3732
920.30 0.3729
920.40 0.3725
920.50 0.3722
920.60 0.3718
920.70 0.3715
920.80 0.3712
920.90 0.3708
921.00 0.3705
921.10 0.3701
921.20 0.3698
921.30 0.3694
921.40 0.3691
921.50 0.3687
921.60 0.3684
921.70 0.368
921.80 0.3677
921.90 0.3673
922.00 0.367
922.10 0.3666
922.20 0.3663
922.30 0.3659
922.40 0.3655
922.50 0.3652
922.60 0.3648
922.70 0.3645
922.80 0.3641
922.90 0.3637
923.00 0.3634
923.10 0.363
923.20 0.3627
923.30 0.3623
923.40 0.3619
923.50 0.3616
923.60 0.3612
923.70 0.3609
923.80 0.3605
923.90 0.3601
924.00 0.3598
924.10 0.3594
924.20 0.3591
924.30 0.3587
924.40 0.3583
924.50 0.358
924.60 0.3576
924.70 0.3573
924.80 0.3569
924.90 0.3566
925.00 0.3562
925.10 0.3558
925.20 0.3555
925.30 0.3551
925.40 0.3548
925.50 0.3544
925.60 0.354
925.70 0.3537
925.80 0.3533
925.90 0.353
926.00 0.3526
926.10 0.3523
926.20 0.3519
926.30 0.3516
926.40 0.3512
926.50 0.3508
926.60 0.3505
926.70 0.3501
926.80 0.3498
926.90 0.3494
927.00 0.3491
927.10 0.3487
927.20 0.3483
927.30 0.348
927.40 0.3476
927.50 0.3472
927.60 0.3468
927.70 0.3465
927.80 0.3461
927.90 0.3457
928.00 0.3454
928.10 0.345
928.20 0.3446
928.30 0.3443
928.40 0.3439
928.50 0.3435
928.60 0.3432
928.70 0.3428
928.80 0.3424
928.90 0.3421
929.00 0.3417
929.10 0.3413
929.20 0.341
929.30 0.3406
929.40 0.3402
929.50 0.3399
929.60 0.3395
929.70 0.3391
929.80 0.3388
929.90 0.3384
930.00 0.338
930.10 0.3377
930.20 0.3373
930.30 0.3369
930.40 0.3366
930.50 0.3362
930.60 0.3358
930.70 0.3355
930.80 0.3351
930.90 0.3347
931.00 0.3344
931.10 0.334
931.20 0.3337
931.30 0.3333
931.40 0.3329
931.50 0.3326
931.60 0.3322
931.70 0.3318
931.80 0.3315
931.90 0.3311
932.00 0.3307
932.10 0.3304
932.20 0.33
932.30 0.3296
932.40 0.3293
932.50 0.3289
932.60 0.3285
932.70 0.3282
932.80 0.3278
932.90 0.3274
933.00 0.3271
933.10 0.3267
933.20 0.3263
933.30 0.326
933.40 0.3256
933.50 0.3252
933.60 0.3249
933.70 0.3245
933.80 0.3241
933.90 0.3238
934.00 0.3234
934.10 0.323
934.20 0.3227
934.30 0.3223
934.40 0.3219
934.50 0.3216
934.60 0.3212
934.70 0.3208
934.80 0.3205
934.90 0.3201
935.00 0.3197
935.10 0.3194
935.20 0.319
935.30 0.3187
935.40 0.3183
935.50 0.3179
935.60 0.3176
935.70 0.3172
935.80 0.3168
935.90 0.3165
936.00 0.3161
936.10 0.3157
936.20 0.3154
936.30 0.315
936.40 0.3146
936.50 0.3143
936.60 0.3139
936.70 0.3136
936.80 0.3132
936.90 0.3128
937.00 0.3125
937.10 0.3121
937.20 0.3117
937.30 0.3114
937.40 0.311
937.50 0.3106
937.60 0.3103
937.70 0.3099
937.80 0.3095
937.90 0.3092
938.00 0.3088
938.10 0.3084
938.20 0.3081
938.30 0.3077
938.40 0.3073
938.50 0.307
938.60 0.3066
938.70 0.3062
938.80 0.3059
938.90 0.3055
939.00 0.3051
939.10 0.3048
939.20 0.3044
939.30 0.304
939.40 0.3037
939.50 0.3033
939.60 0.3029
939.70 0.3026
939.80 0.3022
939.90 0.3018
940.00 0.3015
940.10 0.3011
940.20 0.3007
940.30 0.3004
940.40 0.3
940.50 0.2996
940.60 0.2993
940.70 0.2989
940.80 0.2985
940.90 0.2982
941.00 0.2978
941.10 0.2975
941.20 0.2971
941.30 0.2967
941.40 0.2964
941.50 0.296
941.60 0.2957
941.70 0.2953
941.80 0.2949
941.90 0.2946
942.00 0.2942
942.10 0.2939
942.20 0.2935
942.30 0.2931
942.40 0.2928
942.50 0.2924
942.60 0.2921
942.70 0.2917
942.80 0.2913
942.90 0.291
943.00 0.2906
943.10 0.2903
943.20 0.2899
943.30 0.2895
943.40 0.2892
943.50 0.2888
943.60 0.2885
943.70 0.2881
943.80 0.2878
943.90 0.2874
944.00 0.287
944.10 0.2867
944.20 0.2863
944.30 0.286
944.40 0.2856
944.50 0.2853
944.60 0.2849
944.70 0.2846
944.80 0.2842
944.90 0.2838
945.00 0.2835
945.10 0.2831
945.20 0.2828
945.30 0.2824
945.40 0.2821
945.50 0.2817
945.60 0.2814
945.70 0.281
945.80 0.2807
945.90 0.2803
946.00 0.2799
946.10 0.2796
946.20 0.2792
946.30 0.2789
946.40 0.2785
946.50 0.2782
946.60 0.2778
946.70 0.2775
946.80 0.2771
946.90 0.2768
947.00 0.2764
947.10 0.2761
947.20 0.2757
947.30 0.2754
947.40 0.275
947.50 0.2747
947.60 0.2743
947.70 0.2739
947.80 0.2736
947.90 0.2732
948.00 0.2729
948.10 0.2725
948.20 0.2722
948.30 0.2718
948.40 0.2715
948.50 0.2711
948.60 0.2708
948.70 0.2704
948.80 0.2701
948.90 0.2697
949.00 0.2694
949.10 0.269
949.20 0.2687
949.30 0.2683
949.40 0.268
949.50 0.2676
949.60 0.2673
949.70 0.2669
949.80 0.2666
949.90 0.2663
950.00 0.2659
950.10 0.2656
950.20 0.2652
950.30 0.2649
950.40 0.2645
950.50 0.2642
950.60 0.2638
950.70 0.2635
950.80 0.2631
950.90 0.2628
951.00 0.2625
951.10 0.2621
951.20 0.2618
951.30 0.2614
951.40 0.2611
951.50 0.2607
951.60 0.2604
951.70 0.2601
951.80 0.2597
951.90 0.2594
952.00 0.259
952.10 0.2587
952.20 0.2583
952.30 0.258
952.40 0.2577
952.50 0.2573
952.60 0.257
952.70 0.2566
952.80 0.2563
952.90 0.256
953.00 0.2556
953.10 0.2553
953.20 0.2549
953.30 0.2546
953.40 0.2543
953.50 0.2539
953.60 0.2536
953.70 0.2533
953.80 0.2529
953.90 0.2526
954.00 0.2522
954.10 0.2519
954.20 0.2516
954.30 0.2512
954.40 0.2509
954.50 0.2506
954.60 0.2502
954.70 0.2499
954.80 0.2496
954.90 0.2492
955.00 0.2489
955.10 0.2485
955.20 0.2482
955.30 0.2479
955.40 0.2475
955.50 0.2472
955.60 0.2469
955.70 0.2465
955.80 0.2462
955.90 0.2459
956.00 0.2455
956.10 0.2452
956.20 0.2448
956.30 0.2445
956.40 0.2442
956.50 0.2438
956.60 0.2435
956.70 0.2431
956.80 0.2428
956.90 0.2425
957.00 0.2421
957.10 0.2418
957.20 0.2415
957.30 0.2411
957.40 0.2408
957.50 0.2405
957.60 0.2402
957.70 0.2398
957.80 0.2395
957.90 0.2392
958.00 0.2388
958.10 0.2385
958.20 0.2382
958.30 0.2379
958.40 0.2375
958.50 0.2372
958.60 0.2369
958.70 0.2366
958.80 0.2362
958.90 0.2359
959.00 0.2356
959.10 0.2353
959.20 0.2349
959.30 0.2346
959.40 0.2343
959.50 0.234
959.60 0.2336
959.70 0.2333
959.80 0.233
959.90 0.2327
960.00 0.2324
960.10 0.232
960.20 0.2317
960.30 0.2314
960.40 0.2311
960.50 0.2307
960.60 0.2304
960.70 0.2301
960.80 0.2298
960.90 0.2295
961.00 0.2291
961.10 0.2288
961.20 0.2285
961.30 0.2282
961.40 0.2279
961.50 0.2276
961.60 0.2272
961.70 0.2269
961.80 0.2266
961.90 0.2263
962.00 0.226
962.10 0.2257
962.20 0.2253
962.30 0.225
962.40 0.2247
962.50 0.2244
962.60 0.2241
962.70 0.2238
962.80 0.2235
962.90 0.2231
963.00 0.2228
963.10 0.2225
963.20 0.2222
963.30 0.2219
963.40 0.2216
963.50 0.2213
963.60 0.221
963.70 0.2206
963.80 0.2203
963.90 0.22
964.00 0.2197
964.10 0.2194
964.20 0.2191
964.30 0.2188
964.40 0.2185
964.50 0.2181
964.60 0.2178
964.70 0.2175
964.80 0.2172
964.90 0.2169
965.00 0.2166
965.10 0.2163
965.20 0.2159
965.30 0.2156
965.40 0.2153
965.50 0.215
965.60 0.2147
965.70 0.2144
965.80 0.2141
965.90 0.2137
966.00 0.2134
966.10 0.2131
966.20 0.2128
966.30 0.2125
966.40 0.2122
966.50 0.2119
966.60 0.2116
966.70 0.2113
966.80 0.211
966.90 0.2107
967.00 0.2104
967.10 0.2101
967.20 0.2098
967.30 0.2095
967.40 0.2092
967.50 0.2089
967.60 0.2086
967.70 0.2083
967.80 0.208
967.90 0.2077
968.00 0.2074
968.10 0.2071
968.20 0.2068
968.30 0.2065
968.40 0.2062
968.50 0.2059
968.60 0.2056
968.70 0.2053
968.80 0.205
968.90 0.2047
969.00 0.2044
969.10 0.2042
969.20 0.2039
969.30 0.2036
969.40 0.2033
969.50 0.203
969.60 0.2027
969.70 0.2024
969.80 0.2021
969.90 0.2018
970.00 0.2015
970.10 0.2012
970.20 0.2009
970.30 0.2007
970.40 0.2004
970.50 0.2001
970.60 0.1998
970.70 0.1995
970.80 0.1992
970.90 0.1989
971.00 0.1987
971.10 0.1984
971.20 0.1981
971.30 0.1978
971.40 0.1975
971.50 0.1972
971.60 0.1969
971.70 0.1967
971.80 0.1964
971.90 0.1961
972.00 0.1958
972.10 0.1955
972.20 0.1952
972.30 0.195
972.40 0.1947
972.50 0.1944
972.60 0.1941
972.70 0.1938
972.80 0.1936
972.90 0.1933
973.00 0.193
973.10 0.1927
973.20 0.1925
973.30 0.1922
973.40 0.1919
973.50 0.1916
973.60 0.1913
973.70 0.1911
973.80 0.1908
973.90 0.1905
974.00 0.1902
974.10 0.19
974.20 0.1897
974.30 0.1894
974.40 0.1891
974.50 0.1889
974.60 0.1886
974.70 0.1883
974.80 0.188
974.90 0.1878
975.00 0.1875
975.10 0.1872
975.20 0.1869
975.30 0.1867
975.40 0.1864
975.50 0.1861
975.60 0.1858
975.70 0.1856
975.80 0.1853
975.90 0.185
976.00 0.1848
976.10 0.1845
976.20 0.1842
976.30 0.1839
976.40 0.1837
976.50 0.1834
976.60 0.1831
976.70 0.1828
976.80 0.1826
976.90 0.1823
977.00 0.182
977.10 0.1818
977.20 0.1815
977.30 0.1813
977.40 0.181
977.50 0.1807
977.60 0.1805
977.70 0.1802
977.80 0.18
977.90 0.1797
978.00 0.1795
978.10 0.1792
978.20 0.1789
978.30 0.1787
978.40 0.1784
978.50 0.1782
978.60 0.1779
978.70 0.1777
978.80 0.1774
978.90 0.1772
979.00 0.1769
979.10 0.1766
979.20 0.1764
979.30 0.1761
979.40 0.1759
979.50 0.1756
979.60 0.1754
979.70 0.1751
979.80 0.1749
979.90 0.1746
980.00 0.1743
980.10 0.1741
980.20 0.1738
980.30 0.1736
980.40 0.1733
980.50 0.1731
980.60 0.1728
980.70 0.1726
980.80 0.1723
980.90 0.1721
981.00 0.1718
981.10 0.1716
981.20 0.1713
981.30 0.171
981.40 0.1708
981.50 0.1705
981.60 0.1703
981.70 0.17
981.80 0.1698
981.90 0.1695
982.00 0.1693
982.10 0.169
982.20 0.1688
982.30 0.1685
982.40 0.1683
982.50 0.1681
982.60 0.1678
982.70 0.1676
982.80 0.1673
982.90 0.1671
983.00 0.1668
983.10 0.1666
983.20 0.1664
983.30 0.1661
983.40 0.1659
983.50 0.1656
983.60 0.1654
983.70 0.1652
983.80 0.1649
983.90 0.1647
984.00 0.1644
984.10 0.1642
984.20 0.164
984.30 0.1637
984.40 0.1635
984.50 0.1632
984.60 0.163
984.70 0.1628
984.80 0.1625
984.90 0.1623
985.00 0.1621
985.10 0.1619
985.20 0.1616
985.30 0.1614
985.40 0.1612
985.50 0.161
985.60 0.1607
985.70 0.1605
985.80 0.1603
985.90 0.1601
986.00 0.1598
986.10 0.1596
986.20 0.1594
986.30 0.1592
986.40 0.1589
986.50 0.1587
986.60 0.1585
986.70 0.1583
986.80 0.158
986.90 0.1578
987.00 0.1576
987.10 0.1574
987.20 0.1571
987.30 0.1569
987.40 0.1567
987.50 0.1564
987.60 0.1562
987.70 0.156
987.80 0.1557
987.90 0.1555
988.00 0.1553
988.10 0.155
988.20 0.1548
988.30 0.1546
988.40 0.1543
988.50 0.1541
988.60 0.1539
988.70 0.1536
988.80 0.1534
988.90 0.1532
989.00 0.1529
989.10 0.1527
989.20 0.1525
989.30 0.1523
989.40 0.152
989.50 0.1518
989.60 0.1516
989.70 0.1513
989.80 0.1511
989.90 0.1509
990.00 0.1506
990.10 0.1504
990.20 0.1502
990.30 0.15
990.40 0.1497
990.50 0.1495
990.60 0.1493
990.70 0.149
990.80 0.1488
990.90 0.1486
991.00 0.1483
991.10 0.1481
991.20 0.1479
991.30 0.1477
991.40 0.1474
991.50 0.1472
991.60 0.147
991.70 0.1467
991.80 0.1465
991.90 0.1463
992.00 0.1461
992.10 0.1458
992.20 0.1456
992.30 0.1454
992.40 0.1452
992.50 0.1449
992.60 0.1447
992.70 0.1445
992.80 0.1442
992.90 0.144
993.00 0.1438
993.10 0.1436
993.20 0.1433
993.30 0.1431
993.40 0.1429
993.50 0.1427
993.60 0.1424
993.70 0.1422
993.80 0.142
993.90 0.1418
994.00 0.1415
994.10 0.1413
994.20 0.1411
994.30 0.1409
994.40 0.1406
994.50 0.1404
994.60 0.1402
994.70 0.1399
994.80 0.1396
994.90 0.1394
995.00 0.1391
995.10 0.1388
995.20 0.1385
995.30 0.1383
995.40 0.138
995.50 0.1377
995.60 0.1374
995.70 0.1372
995.80 0.137
995.90 0.1368
996.00 0.1365
996.10 0.1363
996.20 0.1361
996.30 0.1359
996.40 0.1357
996.50 0.1355
996.60 0.1352
996.70 0.135
996.80 0.1348
996.90 0.1346
997.00 0.1344
997.10 0.1342
997.20 0.134
997.30 0.1337
997.40 0.1335
997.50 0.1333
997.60 0.1331
997.70 0.1329
997.80 0.1327
997.90 0.1325
998.00 0.1323
998.10 0.1321
998.20 0.1319
998.30 0.1317
998.40 0.1315
998.50 0.1313
998.60 0.1311
998.70 0.1309
998.80 0.1307
998.90 0.1304
999.00 0.1302
999.10 0.13
999.20 0.1298
999.30 0.1296
999.40 0.1294
999.50 0.1292
999.60 0.129
999.70 0.1288
999.80 0.1286
999.90 0.1284
1000.00 0.1282
1000.10 0.128
1000.20 0.1278
1000.30 0.1277
1000.40 0.1275
1000.50 0.1273
1000.60 0.1271
1000.70 0.1269
1000.80 0.1267
1000.90 0.1265
1001.00 0.1263
1001.10 0.1261
1001.20 0.1259
1001.30 0.1257
1001.40 0.1255
1001.50 0.1253
1001.60 0.1251
1001.70 0.1249
1001.80 0.1247
1001.90 0.1246
1002.00 0.1244
1002.10 0.1242
1002.20 0.124
1002.30 0.1238
1002.40 0.1236
1002.50 0.1234
1002.60 0.1232
1002.70 0.1231
1002.80 0.1229
1002.90 0.1227
1003.00 0.1225
1003.10 0.1223
1003.20 0.1221
1003.30 0.122
1003.40 0.1218
1003.50 0.1216
1003.60 0.1214
1003.70 0.1212
1003.80 0.121
1003.90 0.1209
1004.00 0.1207
1004.10 0.1205
1004.20 0.1203
1004.30 0.1202
1004.40 0.12
1004.50 0.1198
1004.60 0.1196
1004.70 0.1194
1004.80 0.1193
1004.90 0.119
1005.00 0.1188
1005.10 0.1186
1005.20 0.1184
1005.30 0.1183
1005.40 0.1181
1005.50 0.1179
1005.60 0.1177
1005.70 0.1176
1005.80 0.1174
1005.90 0.1172
1006.00 0.1171
1006.10 0.1169
1006.20 0.1167
1006.30 0.1165
1006.40 0.1164
1006.50 0.1162
1006.60 0.116
1006.70 0.1159
1006.80 0.1157
1006.90 0.1155
1007.00 0.1154
1007.10 0.1152
1007.20 0.1151
1007.30 0.1149
1007.40 0.1147
1007.50 0.1146
1007.60 0.1144
1007.70 0.1142
1007.80 0.1141
1007.90 0.1139
1008.00 0.1138
1008.10 0.1136
1008.20 0.1135
1008.30 0.1133
1008.40 0.1131
1008.50 0.113
1008.60 0.1128
1008.70 0.1127
1008.80 0.1125
1008.90 0.1124
1009.00 0.1122
1009.10 0.1121
1009.20 0.1119
1009.30 0.1117
1009.40 0.1116
1009.50 0.1114
1009.60 0.1113
1009.70 0.1111
1009.80 0.111
1009.90 0.1108
1010.00 0.1107
1010.10 0.1105
1010.20 0.1104
1010.30 0.1102
1010.40 0.1101
1010.50 0.11
1010.60 0.1098
1010.70 0.1097
1010.80 0.1095
1010.90 0.1094
1011.00 0.1092
1011.10 0.1091
1011.20 0.1089
1011.30 0.1088
1011.40 0.1086
1011.50 0.1085
1011.60 0.1083
1011.70 0.1082
1011.80 0.1081
1011.90 0.1079
1012.00 0.1078
1012.10 0.1076
1012.20 0.1075
1012.30 0.1074
1012.40 0.1072
1012.50 0.1071
1012.60 0.107
1012.70 0.1068
1012.80 0.1067
1012.90 0.1065
1013.00 0.1064
1013.10 0.1063
1013.20 0.1061
1013.30 0.106
1013.40 0.1059
1013.50 0.1057
1013.60 0.1056
1013.70 0.1055
1013.80 0.1053
1013.90 0.1052
1014.00 0.1051
1014.10 0.1049
1014.20 0.1048
1014.30 0.1047
1014.40 0.1045
1014.50 0.1044
1014.60 0.1043
1014.70 0.1042
1014.80 0.104
1014.90 0.1039
1015.00 0.1038
1015.10 0.1037
1015.20 0.1036
1015.30 0.1035
1015.40 0.1034
1015.50 0.1033
1015.60 0.1031
1015.70 0.103
1015.80 0.1029
1015.90 0.1028
1016.00 0.1027
1016.10 0.1026
1016.20 0.1025
1016.30 0.1024
1016.40 0.1022
1016.50 0.1021
1016.60 0.102
1016.70 0.1019
1016.80 0.1018
1016.90 0.1017
1017.00 0.1015
1017.10 0.1014
1017.20 0.1013
1017.30 0.1012
1017.40 0.101
1017.50 0.1009
1017.60 0.1008
1017.70 0.1007
1017.80 0.1006
1017.90 0.1004
1018.00 0.1003
1018.10 0.1002
1018.20 0.1001
1018.30 0.09995
1018.40 0.09983
1018.50 0.09971
1018.60 0.09959
1018.70 0.09947
1018.80 0.09936
1018.90 0.09924
1019.00 0.09912
1019.10 0.099
1019.20 0.09889
1019.30 0.09877
1019.40 0.09865
1019.50 0.09853
1019.60 0.09842
1019.70 0.0983
1019.80 0.09818
1019.90 0.09807
1020.00 0.09795
1020.10 0.09783
1020.20 0.09771
1020.30 0.0976
1020.40 0.09748
1020.50 0.09736
1020.60 0.09725
1020.70 0.09713
1020.80 0.09702
1020.90 0.0969
1021.00 0.09679
1021.10 0.09668
1021.20 0.09656
1021.30 0.09645
1021.40 0.09633
1021.50 0.09622
1021.60 0.09611
1021.70 0.09599
1021.80 0.09588
1021.90 0.09577
1022.00 0.09565
1022.10 0.09554
1022.20 0.09543
1022.30 0.09532
1022.40 0.09521
1022.50 0.0951
1022.60 0.09499
1022.70 0.09488
1022.80 0.09477
1022.90 0.09466
1023.00 0.09455
1023.10 0.09444
1023.20 0.09433
1023.30 0.09422
1023.40 0.09411
1023.50 0.094
1023.60 0.09389
1023.70 0.09378
1023.80 0.09367
1023.90 0.09356
1024.00 0.09345
1024.10 0.09334
1024.20 0.09323
1024.30 0.09312
1024.40 0.09301
1024.50 0.0929
1024.60 0.09279
1024.70 0.09268
1024.80 0.09257
1024.90 0.09246
1025.00 0.09236
1025.10 0.09225
1025.20 0.09214
1025.30 0.09203
1025.40 0.09192
1025.50 0.09182
1025.60 0.09171
1025.70 0.0916
1025.80 0.09149
1025.90 0.09139
1026.00 0.09128
1026.10 0.09117
1026.20 0.09106
1026.30 0.09096
1026.40 0.09085
1026.50 0.09074
1026.60 0.09063
1026.70 0.09053
1026.80 0.09042
1026.90 0.09031
1027.00 0.0902
1027.10 0.09011
1027.20 0.09001
1027.30 0.08991
1027.40 0.08981
1027.50 0.08971
1027.60 0.08961
1027.70 0.08952
1027.80 0.08942
1027.90 0.08932
1028.00 0.08922
1028.10 0.08912
1028.20 0.08903
1028.30 0.08893
1028.40 0.08883
1028.50 0.08873
1028.60 0.08863
1028.70 0.08854
1028.80 0.08844
1028.90 0.08834
1029.00 0.08824
1029.10 0.08814
1029.20 0.08805
1029.30 0.08795
1029.40 0.08785
1029.50 0.08775
1029.60 0.08766
1029.70 0.08756
1029.80 0.08746
1029.90 0.08736
1030.00 0.08727
1030.10 0.08717
1030.20 0.08707
1030.30 0.08697
1030.40 0.08688
1030.50 0.08678
1030.60 0.08668
1030.70 0.08659
1030.80 0.08649
1030.90 0.08639
1031.00 0.08629
1031.10 0.0862
1031.20 0.0861
1031.30 0.086
1031.40 0.08591
1031.50 0.08581
1031.60 0.08571
1031.70 0.08562
1031.80 0.08552
1031.90 0.08542
1032.00 0.08533
1032.10 0.08524
1032.20 0.08515
1032.30 0.08506
1032.40 0.08497
1032.50 0.08488
1032.60 0.08479
1032.70 0.0847
1032.80 0.08461
1032.90 0.08452
1033.00 0.08443
1033.10 0.08434
1033.20 0.08425
1033.30 0.08417
1033.40 0.08408
1033.50 0.08399
1033.60 0.0839
1033.70 0.08381
1033.80 0.08372
1033.90 0.08363
1034.00 0.08354
1034.10 0.08345
1034.20 0.08337
1034.30 0.08328
1034.40 0.08319
1034.50 0.0831
1034.60 0.08301
1034.70 0.08292
1034.80 0.08283
1034.90 0.08275
1035.00 0.08266
1035.10 0.08257
1035.20 0.08248
1035.30 0.08239
1035.40 0.0823
1035.50 0.08222
1035.60 0.08213
1035.70 0.08204
1035.80 0.08195
1035.90 0.08186
1036.00 0.08177
1036.10 0.08169
1036.20 0.0816
1036.30 0.08151
1036.40 0.08142
1036.50 0.08133
1036.60 0.08125
1036.70 0.08116
1036.80 0.08107
1036.90 0.08098
1037.00 0.08089
1037.10 0.08082
1037.20 0.08074
1037.30 0.08066
1037.40 0.08058
1037.50 0.0805
1037.60 0.08043
1037.70 0.08035
1037.80 0.08027
1037.90 0.08019
1038.00 0.08011
1038.10 0.08003
1038.20 0.07996
1038.30 0.07988
1038.40 0.0798
1038.50 0.07972
1038.60 0.07964
1038.70 0.07957
1038.80 0.07949
1038.90 0.07941
1039.00 0.07933
1039.10 0.07926
1039.20 0.07918
1039.30 0.0791
1039.40 0.07902
1039.50 0.07895
1039.60 0.07887
1039.70 0.07879
1039.80 0.07871
1039.90 0.07863
1040.00 0.07856
1040.10 0.07848
1040.20 0.0784
1040.30 0.07833
1040.40 0.07825
1040.50 0.07817
1040.60 0.07809
1040.70 0.07802
1040.80 0.07794
1040.90 0.07786
1041.00 0.07778
1041.10 0.07771
1041.20 0.07763
1041.30 0.07755
1041.40 0.07748
1041.50 0.0774
1041.60 0.07732
1041.70 0.07724
1041.80 0.07717
1041.90 0.07709
1042.00 0.07701
1042.10 0.07695
1042.20 0.07688
1042.30 0.07681
1042.40 0.07674
1042.50 0.07667
1042.60 0.0766
1042.70 0.07654
1042.80 0.07647
1042.90 0.0764
1043.00 0.07633
1043.10 0.07626
1043.20 0.07619
1043.30 0.07613
1043.40 0.07606
1043.50 0.07599
1043.60 0.07592
1043.70 0.07585
1043.80 0.07579
1043.90 0.07572
1044.00 0.07565
1044.10 0.07558
1044.20 0.07551
1044.30 0.07545
1044.40 0.07538
1044.50 0.07531
1044.60 0.07524
1044.70 0.07517
1044.80 0.07511
1044.90 0.07504
1045.00 0.07497
1045.10 0.0749
1045.20 0.07484
1045.30 0.07477
1045.40 0.0747
1045.50 0.07463
1045.60 0.07457
1045.70 0.0745
1045.80 0.07443
1045.90 0.07436
1046.00 0.0743
1046.10 0.07423
1046.20 0.07416
1046.30 0.07409
1046.40 0.07403
1046.50 0.07396
1046.60 0.07389
1046.70 0.07382
1046.80 0.07376
1046.90 0.07369
1047.00 0.07362
1047.10 0.07356
1047.20 0.0735
1047.30 0.07345
1047.40 0.07339
1047.50 0.07333
1047.60 0.07327
1047.70 0.07321
1047.80 0.07315
1047.90 0.07309
1048.00 0.07303
1048.10 0.07297
1048.20 0.07291
1048.30 0.07286
1048.40 0.0728
1048.50 0.07274
1048.60 0.07268
1048.70 0.07262
1048.80 0.07256
1048.90 0.0725
1049.00 0.07244
1049.10 0.07238
1049.20 0.07233
1049.30 0.07227
1049.40 0.07221
1049.50 0.07215
1049.60 0.07209
1049.70 0.07203
1049.80 0.07197
1049.90 0.07192
1050.00 0.07186
1050.10 0.0718
1050.20 0.07174
1050.30 0.07168
1050.40 0.07162
1050.50 0.07157
1050.60 0.07151
1050.70 0.07145
1050.80 0.07139
1050.90 0.07133
1051.00 0.07127
1051.10 0.07122
1051.20 0.07116
1051.30 0.0711
1051.40 0.07104
1051.50 0.07098
1051.60 0.07092
1051.70 0.07087
1051.80 0.07081
1051.90 0.07075
1052.00 0.07069
1052.10 0.07064
1052.20 0.07059
1052.30 0.07053
1052.40 0.07048
1052.50 0.07043
1052.60 0.07038
1052.70 0.07032
1052.80 0.07027
1052.90 0.07022
1053.00 0.07017
1053.10 0.07011
1053.20 0.07006
1053.30 0.07001
1053.40 0.06996
1053.50 0.0699
1053.60 0.06985
1053.70 0.0698
1053.80 0.06975
1053.90 0.06969
1054.00 0.06964
1054.10 0.06959
1054.20 0.06954
1054.30 0.06948
1054.40 0.06943
1054.50 0.06938
1054.60 0.06933
1054.70 0.06928
1054.80 0.06922
1054.90 0.06917
1055.00 0.06912
1055.10 0.06907
1055.20 0.06902
1055.30 0.06896
1055.40 0.06891
1055.50 0.06886
1055.60 0.06881
1055.70 0.06876
1055.80 0.0687
1055.90 0.06865
1056.00 0.0686
1056.10 0.06855
1056.20 0.0685
1056.30 0.06844
1056.40 0.06839
1056.50 0.06834
1056.60 0.06829
1056.70 0.06824
1056.80 0.06818
1056.90 0.06813
1057.00 0.06808
1057.10 0.06803
1057.20 0.06799
1057.30 0.06794
1057.40 0.0679
1057.50 0.06785
1057.60 0.0678
1057.70 0.06776
1057.80 0.06771
1057.90 0.06767
1058.00 0.06762
1058.10 0.06757
1058.20 0.06753
1058.30 0.06748
1058.40 0.06744
1058.50 0.06739
1058.60 0.06734
1058.70 0.0673
1058.80 0.06725
1058.90 0.06721
1059.00 0.06716
1059.10 0.06712
1059.20 0.06707
1059.30 0.06702
1059.40 0.06698
1059.50 0.06693
1059.60 0.06689
1059.70 0.06684
1059.80 0.0668
1059.90 0.06675
1060.00 0.0667
1060.10 0.06666
1060.20 0.06661
1060.30 0.06657
1060.40 0.06652
1060.50 0.06648
1060.60 0.06643
1060.70 0.06638
1060.80 0.06634
1060.90 0.06629
1061.00 0.06625
1061.10 0.0662
1061.20 0.06616
1061.30 0.06611
1061.40 0.06607
1061.50 0.06602
1061.60 0.06598
1061.70 0.06593
1061.80 0.06588
1061.90 0.06584
1062.00 0.06579
1062.10 0.06575
1062.20 0.06571
1062.30 0.06567
1062.40 0.06564
1062.50 0.0656
1062.60 0.06556
1062.70 0.06552
1062.80 0.06548
1062.90 0.06544
1063.00 0.0654
1063.10 0.06536
1063.20 0.06532
1063.30 0.06528
1063.40 0.06524
1063.50 0.0652
1063.60 0.06516
1063.70 0.06512
1063.80 0.06508
1063.90 0.06504
1064.00 0.065
1064.10 0.06496
1064.20 0.06492
1064.30 0.06489
1064.40 0.06485
1064.50 0.06481
1064.60 0.06477
1064.70 0.06473
1064.80 0.06469
1064.90 0.06465
1065.00 0.06461
1065.10 0.06457
1065.20 0.06453
1065.30 0.06449
1065.40 0.06445
1065.50 0.06441
1065.60 0.06438
1065.70 0.06434
1065.80 0.0643
1065.90 0.06426
1066.00 0.06422
1066.10 0.06418
1066.20 0.06414
1066.30 0.0641
1066.40 0.06406
1066.50 0.06402
1066.60 0.06398
1066.70 0.06395
1066.80 0.06391
1066.90 0.06387
1067.00 0.06383
1067.10 0.06379
1067.20 0.06376
1067.30 0.06372
1067.40 0.06369
1067.50 0.06365
1067.60 0.06362
1067.70 0.06358
1067.80 0.06355
1067.90 0.06351
1068.00 0.06348
1068.10 0.06344
1068.20 0.06341
1068.30 0.06337
1068.40 0.06334
1068.50 0.0633
1068.60 0.06327
1068.70 0.06323
1068.80 0.0632
1068.90 0.06316
1069.00 0.06313
1069.10 0.06309
1069.20 0.06306
1069.30 0.06302
1069.40 0.06299
1069.50 0.06295
1069.60 0.06292
1069.70 0.06288
1069.80 0.06285
1069.90 0.06281
1070.00 0.06278
1070.10 0.06274
1070.20 0.06271
1070.30 0.06267
1070.40 0.06264
1070.50 0.0626
1070.60 0.06257
1070.70 0.06253
1070.80 0.0625
1070.90 0.06247
1071.00 0.06243
1071.10 0.0624
1071.20 0.06236
1071.30 0.06233
1071.40 0.06229
1071.50 0.06226
1071.60 0.06222
1071.70 0.06219
1071.80 0.06215
1071.90 0.06212
1072.00 0.06208
1072.10 0.06206
1072.20 0.06203
1072.30 0.062
1072.40 0.06197
1072.50 0.06194
1072.60 0.06191
1072.70 0.06189
1072.80 0.06186
1072.90 0.06183
1073.00 0.0618
1073.10 0.06177
1073.20 0.06175
1073.30 0.06172
1073.40 0.06169
1073.50 0.06166
1073.60 0.06164
1073.70 0.06161
1073.80 0.06159
1073.90 0.06156
1074.00 0.06154
1074.10 0.06152
1074.20 0.06149
1074.30 0.06147
1074.40 0.06144
1074.50 0.06142
1074.60 0.06139
1074.70 0.06137
1074.80 0.06134
1074.90 0.06132
1075.00 0.0613
1075.10 0.06127
1075.20 0.06125
1075.30 0.06122
1075.40 0.0612
1075.50 0.06117
1075.60 0.06115
1075.70 0.06113
1075.80 0.0611
1075.90 0.06108
1076.00 0.06105
1076.10 0.06103
1076.20 0.061
1076.30 0.06098
1076.40 0.06095
1076.50 0.06093
1076.60 0.06091
1076.70 0.06088
1076.80 0.06086
1076.90 0.06083
1077.00 0.06081
1077.10 0.06079
1077.20 0.06077
1077.30 0.06075
1077.40 0.06072
1077.50 0.0607
1077.60 0.06068
1077.70 0.06067
1077.80 0.06065
1077.90 0.06063
1078.00 0.06061
1078.10 0.06059
1078.20 0.06057
1078.30 0.06055
1078.40 0.06053
1078.50 0.06051
1078.60 0.06049
1078.70 0.06047
1078.80 0.06045
1078.90 0.06043
1079.00 0.06041
1079.10 0.0604
1079.20 0.06038
1079.30 0.06036
1079.40 0.06034
1079.50 0.06032
1079.60 0.06031
1079.70 0.06029
1079.80 0.06028
1079.90 0.06026
1080.00 0.06025
1080.10 0.06023
1080.20 0.06022
1080.30 0.0602
1080.40 0.06019
1080.50 0.06018
1080.60 0.06016
1080.70 0.06015
1080.80 0.06013
1080.90 0.06012
1081.00 0.0601
1081.10 0.06009
1081.20 0.06007
1081.30 0.06006
1081.40 0.06005
1081.50 0.06003
1081.60 0.06002
1081.70 0.06
1081.80 0.05999
1081.90 0.05997
1082.00 0.05996
1082.10 0.05994
1082.20 0.05993
1082.30 0.05992
1082.40 0.05991
1082.50 0.05989
1082.60 0.05988
1082.70 0.05987
1082.80 0.05985
1082.90 0.05984
1083.00 0.05983
1083.10 0.05981
1083.20 0.0598
1083.30 0.05979
1083.40 0.05977
1083.50 0.05976
1083.60 0.05975
1083.70 0.05974
1083.80 0.05973
1083.90 0.05971
1084.00 0.0597
1084.10 0.05969
1084.20 0.05968
1084.30 0.05967
1084.40 0.05965
1084.50 0.05964
1084.60 0.05963
1084.70 0.05962
1084.80 0.05961
1084.90 0.0596
1085.00 0.05959
1085.10 0.05958
1085.20 0.05957
1085.30 0.05956
1085.40 0.05956
1085.50 0.05955
1085.60 0.05954
1085.70 0.05953
1085.80 0.05952
1085.90 0.05951
1086.00 0.0595
1086.10 0.05949
1086.20 0.05948
1086.30 0.05947
1086.40 0.05946
1086.50 0.05945
1086.60 0.05944
1086.70 0.05943
1086.80 0.05942
1086.90 0.05941
1087.00 0.05941
1087.10 0.0594
1087.20 0.05939
1087.30 0.05938
1087.40 0.05938
1087.50 0.05937
1087.60 0.05936
1087.70 0.05936
1087.80 0.05935
1087.90 0.05934
1088.00 0.05933
1088.10 0.05933
1088.20 0.05932
1088.30 0.05931
1088.40 0.05931
1088.50 0.0593
1088.60 0.0593
1088.70 0.05929
1088.80 0.05929
1088.90 0.05928
1089.00 0.05928
1089.10 0.05927
1089.20 0.05927
1089.30 0.05926
1089.40 0.05926
1089.50 0.05925
1089.60 0.05925
1089.70 0.05924
1089.80 0.05924
1089.90 0.05923
1090.00 0.05923
1090.10 0.05922
1090.20 0.05922
1090.30 0.05921
1090.40 0.05921
1090.50 0.0592
1090.60 0.0592
1090.70 0.0592
1090.80 0.05919
1090.90 0.05919
1091.00 0.05919
1091.10 0.05919
1091.20 0.05918
1091.30 0.05918
1091.40 0.05918
1091.50 0.05918
1091.60 0.05917
1091.70 0.05917
1091.80 0.05917
1091.90 0.05916
1092.00 0.05916
1092.10 0.05916
1092.20 0.05916
1092.30 0.05916
1092.40 0.05916
1092.50 0.05915
1092.60 0.05915
1092.70 0.05916
1092.80 0.05919
1092.90 0.05921
1093.00 0.05924
1093.10 0.05925
1093.20 0.05925
1093.30 0.05925
1093.40 0.05925
1093.50 0.05925
1093.60 0.05925
1093.70 0.05925
1093.80 0.05925
1093.90 0.05925
1094.00 0.05925
1094.10 0.05925
1094.20 0.05925
1094.30 0.05925
1094.40 0.05925
1094.50 0.05925
1094.60 0.05925
1094.70 0.05925
1094.80 0.05925
1094.90 0.05925
1095.00 0.05925
1095.10 0.05925
1095.20 0.05925
1095.30 0.05926
1095.40 0.05926
1095.50 0.05926
1095.60 0.05926
1095.70 0.05926
1095.80 0.05926
1095.90 0.05926
1096.00 0.05926
1096.10 0.05926
1096.20 0.05926
1096.30 0.05926
1096.40 0.05927
1096.50 0.05927
1096.60 0.05927
1096.70 0.05927
1096.80 0.05927
1096.90 0.05927
1097.00 0.05928
1097.10 0.05928
1097.20 0.05928
1097.30 0.05928
1097.40 0.05928
1097.50 0.05929
1097.60 0.05929
1097.70 0.05929
1097.80 0.05929
1097.90 0.05929
1098.00 0.0593
1098.10 0.0593
1098.20 0.0593
1098.30 0.0593
1098.40 0.0593
1098.50 0.05931
1098.60 0.05931
1098.70 0.05931
1098.80 0.05932
1098.90 0.05932
1099.00 0.05932
1099.10 0.05933
1099.20 0.05933
1099.30 0.05933
1099.40 0.05934
1099.50 0.05934
1099.60 0.05934
1099.70 0.05934
1099.80 0.05935
1099.90 0.05935
1100.00 0.05935
1100.10 0.05936
1100.20 0.05936
1100.30 0.05936
1100.40 0.05937
1100.50 0.05937
1100.60 0.05937
1100.70 0.05938
1100.80 0.05938
1100.90 0.05939
1101.00 0.05939
1101.10 0.0594
1101.20 0.0594
1101.30 0.0594
1101.40 0.05941
1101.50 0.05941
1101.60 0.05942
1101.70 0.05942
1101.80 0.05942
1101.90 0.05943
1102.00 0.05943
1102.10 0.05944
1102.20 0.05944
1102.30 0.05945
1102.40 0.05945
1102.50 0.05946
1102.60 0.05946
1102.70 0.05947
1102.80 0.05947
1102.90 0.05948
1103.00 0.05948
1103.10 0.05949
1103.20 0.05949
1103.30 0.0595
1103.40 0.0595
1103.50 0.05951
1103.60 0.05952
1103.70 0.05952
1103.80 0.05953
1103.90 0.05953
1104.00 0.05954
1104.10 0.05955
1104.20 0.05955
1104.30 0.05956
1104.40 0.05956
1104.50 0.05957
1104.60 0.05958
1104.70 0.05958
1104.80 0.05959
1104.90 0.05959
1105.00 0.0596
1105.10 0.05961
1105.20 0.05961
1105.30 0.05962
1105.40 0.05962
1105.50 0.05963
1105.60 0.05964
1105.70 0.05964
1105.80 0.05965
1105.90 0.05966
1106.00 0.05967
1106.10 0.05967
1106.20 0.05968
1106.30 0.05969
1106.40 0.05969
1106.50 0.0597
1106.60 0.05971
1106.70 0.05972
1106.80 0.05972
1106.90 0.05973
1107.00 0.05974
1107.10 0.05974
1107.20 0.05975
1107.30 0.05976
1107.40 0.05977
1107.50 0.05978
1107.60 0.05978
1107.70 0.05979
1107.80 0.0598
1107.90 0.05981
1108.00 0.05982
1108.10 0.05983
1108.20 0.05984
1108.30 0.05984
1108.40 0.05985
1108.50 0.05986
1108.60 0.05987
1108.70 0.05988
1108.80 0.05989
1108.90 0.05989
1109.00 0.0599
1109.10 0.05991
1109.20 0.05992
1109.30 0.05993
1109.40 0.05994
1109.50 0.05995
1109.60 0.05996
1109.70 0.05997
1109.80 0.05998
1109.90 0.05999
1110.00 0.06
1110.10 0.06001
1110.20 0.06002
1110.30 0.06002
1110.40 0.06003
1110.50 0.06004
1110.60 0.06005
1110.70 0.06006
1110.80 0.06007
1110.90 0.06008
1111.00 0.06009
1111.10 0.0601
1111.20 0.06011
1111.30 0.06012
1111.40 0.06013
1111.50 0.06014
1111.60 0.06015
1111.70 0.06016
1111.80 0.06017
1111.90 0.06018
1112.00 0.06019
1112.10 0.0602
1112.20 0.06021
1112.30 0.06023
1112.40 0.06024
1112.50 0.06025
1112.60 0.06026
1112.70 0.06027
1112.80 0.06028
1112.90 0.06029
1113.00 0.0603
1113.10 0.06031
1113.20 0.06033
1113.30 0.06034
1113.40 0.06035
1113.50 0.06036
1113.60 0.06037
1113.70 0.06038
1113.80 0.0604
1113.90 0.06041
1114.00 0.06042
1114.10 0.06043
1114.20 0.06045
1114.30 0.06046
1114.40 0.06047
1114.50 0.06049
1114.60 0.0605
1114.70 0.06051
1114.80 0.06052
1114.90 0.06054
1115.00 0.06055
1115.10 0.06056
1115.20 0.06057
1115.30 0.06059
1115.40 0.0606
1115.50 0.06061
1115.60 0.06062
1115.70 0.06064
1115.80 0.06065
1115.90 0.06066
1116.00 0.06067
1116.10 0.06069
1116.20 0.0607
1116.30 0.06071
1116.40 0.06072
1116.50 0.06074
1116.60 0.06075
1116.70 0.06076
1116.80 0.06077
1116.90 0.06079
1117.00 0.0608
1117.10 0.06081
1117.20 0.06083
1117.30 0.06084
1117.40 0.06086
1117.50 0.06087
1117.60 0.06089
1117.70 0.0609
1117.80 0.06092
1117.90 0.06093
1118.00 0.06095
1118.10 0.06096
1118.20 0.06098
1118.30 0.06099
1118.40 0.06101
1118.50 0.06102
1118.60 0.06104
1118.70 0.06105
1118.80 0.06106
1118.90 0.06108
1119.00 0.06109
1119.10 0.06111
1119.20 0.06112
1119.30 0.06114
1119.40 0.06115
1119.50 0.06117
1119.60 0.06118
1119.70 0.0612
1119.80 0.06121
1119.90 0.06123
1120.00 0.06124
1120.10 0.06126
1120.20 0.06127
1120.30 0.06129
1120.40 0.0613
1120.50 0.06131
1120.60 0.06133
1120.70 0.06134
1120.80 0.06136
1120.90 0.06137
1121.00 0.06139
1121.10 0.0614
1121.20 0.06142
1121.30 0.06143
1121.40 0.06145
1121.50 0.06146
1121.60 0.06148
1121.70 0.06149
1121.80 0.0615
1121.90 0.06152
1122.00 0.06153
1122.10 0.06155
1122.20 0.06157
1122.30 0.06159
1122.40 0.06161
1122.50 0.06163
1122.60 0.06165
1122.70 0.06167
1122.80 0.06169
1122.90 0.06171
1123.00 0.06173
1123.10 0.06175
1123.20 0.06177
1123.30 0.06179
1123.40 0.06181
1123.50 0.06183
1123.60 0.06185
1123.70 0.06187
1123.80 0.06189
1123.90 0.06191
1124.00 0.06193
1124.10 0.06195
1124.20 0.06197
1124.30 0.06199
1124.40 0.06201
1124.50 0.06203
1124.60 0.06205
1124.70 0.06207
1124.80 0.06209
1124.90 0.06211
1125.00 0.06213
1125.10 0.06215
1125.20 0.06217
1125.30 0.06219
1125.40 0.06221
1125.50 0.06223
1125.60 0.06225
1125.70 0.06227
1125.80 0.06229
1125.90 0.06231
1126.00 0.06233
1126.10 0.06235
1126.20 0.06237
1126.30 0.06239
1126.40 0.06241
1126.50 0.06243
1126.60 0.06245
1126.70 0.06247
1126.80 0.06249
1126.90 0.06251
1127.00 0.06253
1127.10 0.06256
1127.20 0.06258
1127.30 0.06261
1127.40 0.06263
1127.50 0.06266
1127.60 0.06269
1127.70 0.06271
1127.80 0.06274
1127.90 0.06277
1128.00 0.06279
1128.10 0.06282
1128.20 0.06285
1128.30 0.06287
1128.40 0.0629
1128.50 0.06292
1128.60 0.06295
1128.70 0.06298
1128.80 0.063
1128.90 0.06303
1129.00 0.06305
1129.10 0.06308
1129.20 0.06311
1129.30 0.06313
1129.40 0.06316
1129.50 0.06319
1129.60 0.06321
1129.70 0.06324
1129.80 0.06326
1129.90 0.06329
1130.00 0.06332
1130.10 0.06334
1130.20 0.06337
1130.30 0.06339
1130.40 0.06342
1130.50 0.06345
1130.60 0.06347
1130.70 0.0635
1130.80 0.06352
1130.90 0.06355
1131.00 0.06358
1131.10 0.0636
1131.20 0.06363
1131.30 0.06365
1131.40 0.06368
1131.50 0.06371
1131.60 0.06373
1131.70 0.06376
1131.80 0.06378
1131.90 0.06381
1132.00 0.06384
1132.10 0.06386
1132.20 0.06389
1132.30 0.06391
1132.40 0.06394
1132.50 0.06397
1132.60 0.06399
1132.70 0.06402
1132.80 0.06405
1132.90 0.06407
1133.00 0.0641
1133.10 0.06413
1133.20 0.06415
1133.30 0.06418
1133.40 0.0642
1133.50 0.06423
1133.60 0.06426
1133.70 0.06428
1133.80 0.06431
1133.90 0.06434
1134.00 0.06436
1134.10 0.06439
1134.20 0.06441
1134.30 0.06444
1134.40 0.06447
1134.50 0.06449
1134.60 0.06452
1134.70 0.06454
1134.80 0.06457
1134.90 0.0646
1135.00 0.06462
1135.10 0.06465
1135.20 0.06468
1135.30 0.0647
1135.40 0.06473
1135.50 0.06475
1135.60 0.06478
1135.70 0.06481
1135.80 0.06483
1135.90 0.06486
1136.00 0.06488
1136.10 0.06491
1136.20 0.06494
1136.30 0.06496
1136.40 0.06499
1136.50 0.06501
1136.60 0.06504
1136.70 0.06507
1136.80 0.06509
1136.90 0.06512
1137.00 0.06514
1137.10 0.06517
1137.20 0.0652
1137.30 0.06523
1137.40 0.06526
1137.50 0.06528
1137.60 0.06531
1137.70 0.06534
1137.80 0.06537
1137.90 0.0654
1138.00 0.06542
1138.10 0.06545
1138.20 0.06548
1138.30 0.06551
1138.40 0.06554
1138.50 0.06556
1138.60 0.06559
1138.70 0.06562
1138.80 0.06565
1138.90 0.06568
1139.00 0.0657
1139.10 0.06573
1139.20 0.06576
1139.30 0.06579
1139.40 0.06582
1139.50 0.06584
1139.60 0.06587
1139.70 0.0659
1139.80 0.06593
1139.90 0.06596
1140.00 0.06598
1140.10 0.06601
1140.20 0.06604
1140.30 0.06607
1140.40 0.0661
1140.50 0.06612
1140.60 0.06615
1140.70 0.06618
1140.80 0.06621
1140.90 0.06623
1141.00 0.06626
1141.10 0.06629
1141.20 0.06632
1141.30 0.06634
1141.40 0.06637
1141.50 0.0664
1141.60 0.06643
1141.70 0.06646
1141.80 0.06648
1141.90 0.06651
1142.00 0.06654
1142.10 0.06657
1142.20 0.0666
1142.30 0.06663
1142.40 0.06667
1142.50 0.0667
1142.60 0.06673
1142.70 0.06676
1142.80 0.06679
1142.90 0.06682
1143.00 0.06685
1143.10 0.06689
1143.20 0.06692
1143.30 0.06695
1143.40 0.06698
1143.50 0.06701
1143.60 0.06704
1143.70 0.06707
1143.80 0.06711
1143.90 0.06714
1144.00 0.06717
1144.10 0.0672
1144.20 0.06723
1144.30 0.06726
1144.40 0.06729
1144.50 0.06733
1144.60 0.06736
1144.70 0.06739
1144.80 0.06742
1144.90 0.06745
1145.00 0.06748
1145.10 0.06751
1145.20 0.06754
1145.30 0.06758
1145.40 0.06761
1145.50 0.06764
1145.60 0.06767
1145.70 0.0677
1145.80 0.06773
1145.90 0.06776
1146.00 0.06779
1146.10 0.06783
1146.20 0.06786
1146.30 0.06789
1146.40 0.06792
1146.50 0.06795
1146.60 0.06798
1146.70 0.06801
1146.80 0.06804
1146.90 0.06807
1147.00 0.0681
1147.10 0.06813
1147.20 0.06816
1147.30 0.06819
1147.40 0.06821
1147.50 0.06824
1147.60 0.06827
1147.70 0.06829
1147.80 0.06832
1147.90 0.06835
1148.00 0.06837
1148.10 0.0684
1148.20 0.06843
1148.30 0.06845
1148.40 0.06848
1148.50 0.06851
1148.60 0.06854
1148.70 0.06856
1148.80 0.06859
1148.90 0.06862
1149.00 0.06864
1149.10 0.06867
1149.20 0.0687
1149.30 0.06872
1149.40 0.06875
1149.50 0.06878
1149.60 0.0688
1149.70 0.06883
1149.80 0.06886
1149.90 0.06888
1150.00 0.06891
1150.10 0.06894
1150.20 0.06896
1150.30 0.06899
1150.40 0.06902
1150.50 0.06904
1150.60 0.06907
1150.70 0.0691
1150.80 0.06912
1150.90 0.06915
1151.00 0.06918
1151.10 0.0692
1151.20 0.06923
1151.30 0.06926
1151.40 0.06928
1151.50 0.06931
1151.60 0.06934
1151.70 0.06936
1151.80 0.06939
1151.90 0.06941
1152.00 0.06944
1152.10 0.06947
1152.20 0.0695
1152.30 0.06952
1152.40 0.06955
1152.50 0.06958
1152.60 0.06961
1152.70 0.06963
1152.80 0.06966
1152.90 0.06969
1153.00 0.06972
1153.10 0.06974
1153.20 0.06977
1153.30 0.0698
1153.40 0.06983
1153.50 0.06985
1153.60 0.06988
1153.70 0.06991
1153.80 0.06993
1153.90 0.06996
1154.00 0.06999
1154.10 0.07002
1154.20 0.07004
1154.30 0.07007
1154.40 0.0701
1154.50 0.07013
1154.60 0.07015
1154.70 0.07018
1154.80 0.07021
1154.90 0.07023
1155.00 0.07026
1155.10 0.07029
1155.20 0.07032
1155.30 0.07034
1155.40 0.07037
1155.50 0.0704
1155.60 0.07042
1155.70 0.07045
1155.80 0.07048
1155.90 0.07051
1156.00 0.07053
1156.10 0.07056
1156.20 0.07059
1156.30 0.07061
1156.40 0.07064
1156.50 0.07067
1156.60 0.07069
1156.70 0.07072
1156.80 0.07075
1156.90 0.07078
1157.00 0.0708
1157.10 0.07082
1157.20 0.07085
1157.30 0.07087
1157.40 0.07089
1157.50 0.07091
1157.60 0.07093
1157.70 0.07095
1157.80 0.07098
1157.90 0.071
1158.00 0.07102
1158.10 0.07104
1158.20 0.07106
1158.30 0.07108
1158.40 0.07111
1158.50 0.07113
1158.60 0.07115
1158.70 0.07117
1158.80 0.07119
1158.90 0.07121
1159.00 0.07124
1159.10 0.07126
1159.20 0.07128
1159.30 0.0713
1159.40 0.07132
1159.50 0.07134
1159.60 0.07137
1159.70 0.07139
1159.80 0.07141
1159.90 0.07143
1160.00 0.07145
1160.10 0.07147
1160.20 0.07149
1160.30 0.07152
1160.40 0.07154
1160.50 0.07156
1160.60 0.07158
1160.70 0.0716
1160.80 0.07162
1160.90 0.07164
1161.00 0.07167
1161.10 0.07169
1161.20 0.07171
1161.30 0.07173
1161.40 0.07175
1161.50 0.07177
1161.60 0.07179
1161.70 0.07182
1161.80 0.07184
1161.90 0.07186
1162.00 0.07188
1162.10 0.0719
1162.20 0.07191
1162.30 0.07193
1162.40 0.07195
1162.50 0.07197
1162.60 0.07198
1162.70 0.072
1162.80 0.07202
1162.90 0.07204
1163.00 0.07205
1163.10 0.07207
1163.20 0.07209
1163.30 0.07211
1163.40 0.07212
1163.50 0.07214
1163.60 0.07216
1163.70 0.07218
1163.80 0.07219
1163.90 0.07221
1164.00 0.07223
1164.10 0.07225
1164.20 0.07226
1164.30 0.07228
1164.40 0.0723
1164.50 0.07231
1164.60 0.07233
1164.70 0.07235
1164.80 0.07237
1164.90 0.07238
1165.00 0.0724
1165.10 0.07242
1165.20 0.07244
1165.30 0.07245
1165.40 0.07247
1165.50 0.07249
1165.60 0.0725
1165.70 0.07252
1165.80 0.07254
1165.90 0.07256
1166.00 0.07257
1166.10 0.07259
1166.20 0.07261
1166.30 0.07263
1166.40 0.07264
1166.50 0.07266
1166.60 0.07268
1166.70 0.07269
1166.80 0.07271
1166.90 0.07273
1167.00 0.07275
1167.10 0.07276
1167.20 0.07278
1167.30 0.07279
1167.40 0.07281
1167.50 0.07282
1167.60 0.07284
1167.70 0.07286
1167.80 0.07287
1167.90 0.07289
1168.00 0.0729
1168.10 0.07292
1168.20 0.07294
1168.30 0.07295
1168.40 0.07297
1168.50 0.07298
1168.60 0.073
1168.70 0.07301
1168.80 0.07303
1168.90 0.07305
1169.00 0.07306
1169.10 0.07308
1169.20 0.07309
1169.30 0.07311
1169.40 0.07312
1169.50 0.07314
1169.60 0.07316
1169.70 0.07317
1169.80 0.07319
1169.90 0.0732
1170.00 0.07322
1170.10 0.07323
1170.20 0.07325
1170.30 0.07326
1170.40 0.07328
1170.50 0.0733
1170.60 0.07331
1170.70 0.07333
1170.80 0.07334
1170.90 0.07336
1171.00 0.07337
1171.10 0.07339
1171.20 0.07341
1171.30 0.07342
1171.40 0.07344
1171.50 0.07345
1171.60 0.07347
1171.70 0.07348
1171.80 0.0735
1171.90 0.07351
1172.00 0.07353
1172.10 0.07354
1172.20 0.07354
1172.30 0.07355
1172.40 0.07355
1172.50 0.07356
1172.60 0.07357
1172.70 0.07357
1172.80 0.07358
1172.90 0.07358
1173.00 0.07359
1173.10 0.0736
1173.20 0.0736
1173.30 0.07361
1173.40 0.07361
1173.50 0.07362
1173.60 0.07363
1173.70 0.07363
1173.80 0.07364
1173.90 0.07364
1174.00 0.07365
1174.10 0.07366
1174.20 0.07366
1174.30 0.07367
1174.40 0.07367
1174.50 0.07368
1174.60 0.07369
1174.70 0.07369
1174.80 0.0737
1174.90 0.0737
1175.00 0.07371
1175.10 0.07372
1175.20 0.07372
1175.30 0.07373
1175.40 0.07373
1175.50 0.07374
1175.60 0.07375
1175.70 0.07375
1175.80 0.07376
1175.90 0.07376
1176.00 0.07377
1176.10 0.07377
1176.20 0.07378
1176.30 0.07379
1176.40 0.07379
1176.50 0.0738
1176.60 0.0738
1176.70 0.07381
1176.80 0.07382
1176.90 0.07382
1177.00 0.07383
1177.10 0.07383
1177.20 0.07383
1177.30 0.07382
1177.40 0.07382
1177.50 0.07382
1177.60 0.07382
1177.70 0.07382
1177.80 0.07382
1177.90 0.07382
1178.00 0.07382
1178.10 0.07382
1178.20 0.07381
1178.30 0.07381
1178.40 0.07381
1178.50 0.07381
1178.60 0.07381
1178.70 0.07381
1178.80 0.07381
1178.90 0.07381
1179.00 0.0738
1179.10 0.0738
1179.20 0.0738
1179.30 0.0738
1179.40 0.0738
1179.50 0.0738
1179.60 0.0738
1179.70 0.0738
1179.80 0.0738
1179.90 0.07379
1180.00 0.07379
1180.10 0.07379
1180.20 0.07379
1180.30 0.07379
1180.40 0.07379
1180.50 0.07379
1180.60 0.07379
1180.70 0.07379
1180.80 0.07378
1180.90 0.07378
1181.00 0.07378
1181.10 0.07378
1181.20 0.07378
1181.30 0.07378
1181.40 0.07378
1181.50 0.07378
1181.60 0.07377
1181.70 0.07377
1181.80 0.07377
1181.90 0.07377
1182.00 0.07377
1182.10 0.07376
1182.20 0.07375
1182.30 0.07374
1182.40 0.07372
1182.50 0.07371
1182.60 0.0737
1182.70 0.07369
1182.80 0.07368
1182.90 0.07367
1183.00 0.07365
1183.10 0.07364
1183.20 0.07363
1183.30 0.07362
1183.40 0.07361
1183.50 0.0736
1183.60 0.07359
1183.70 0.07357
1183.80 0.07356
1183.90 0.07355
1184.00 0.07354
1184.10 0.07353
1184.20 0.07352
1184.30 0.0735
1184.40 0.07349
1184.50 0.07348
1184.60 0.07347
1184.70 0.07346
1184.80 0.07345
1184.90 0.07344
1185.00 0.07342
1185.10 0.07341
1185.20 0.0734
1185.30 0.07339
1185.40 0.07338
1185.50 0.07337
1185.60 0.07336
1185.70 0.07334
1185.80 0.07333
1185.90 0.07332
1186.00 0.07331
1186.10 0.0733
1186.20 0.07329
1186.30 0.07328
1186.40 0.07326
1186.50 0.07325
1186.60 0.07324
1186.70 0.07323
1186.80 0.07322
1186.90 0.07321
1187.00 0.0732
1187.10 0.07319
1187.20 0.07318
1187.30 0.07317
1187.40 0.07316
1187.50 0.07315
1187.60 0.07314
1187.70 0.07313
1187.80 0.07312
1187.90 0.07311
1188.00 0.07311
1188.10 0.0731
1188.20 0.07309
1188.30 0.07308
1188.40 0.07307
1188.50 0.07306
1188.60 0.07305
1188.70 0.07304
1188.80 0.07303
1188.90 0.07302
1189.00 0.07302
1189.10 0.07301
1189.20 0.073
1189.30 0.07299
1189.40 0.07298
1189.50 0.07297
1189.60 0.07296
1189.70 0.07295
1189.80 0.07294
1189.90 0.07294
1190.00 0.07293
1190.10 0.07292
1190.20 0.07291
1190.30 0.0729
1190.40 0.07289
1190.50 0.07288
1190.60 0.07287
1190.70 0.07286
1190.80 0.07286
1190.90 0.07285
1191.00 0.07284
1191.10 0.07283
1191.20 0.07282
1191.30 0.07281
1191.40 0.0728
1191.50 0.07279
1191.60 0.07278
1191.70 0.07278
1191.80 0.07277
1191.90 0.07276
1192.00 0.07275
1192.10 0.07274
1192.20 0.07273
1192.30 0.07272
1192.40 0.0727
1192.50 0.07269
1192.60 0.07268
1192.70 0.07267
1192.80 0.07266
1192.90 0.07265
1193.00 0.07264
1193.10 0.07263
1193.20 0.07262
1193.30 0.07261
1193.40 0.0726
1193.50 0.07258
1193.60 0.07257
1193.70 0.07256
1193.80 0.07255
1193.90 0.07254
1194.00 0.07253
1194.10 0.07252
1194.20 0.07251
1194.30 0.0725
1194.40 0.07249
1194.50 0.07248
1194.60 0.07246
1194.70 0.07245
1194.80 0.07244
1194.90 0.07243
1195.00 0.07242
1195.10 0.07241
1195.20 0.0724
1195.30 0.07239
1195.40 0.07238
1195.50 0.07237
1195.60 0.07236
1195.70 0.07234
1195.80 0.07233
1195.90 0.07232
1196.00 0.07231
1196.10 0.0723
1196.20 0.07229
1196.30 0.07228
1196.40 0.07227
1196.50 0.07226
1196.60 0.07225
1196.70 0.07224
1196.80 0.07223
1196.90 0.07221
1197.00 0.0722
1197.10 0.07219
1197.20 0.07217
1197.30 0.07215
1197.40 0.07213
1197.50 0.07212
1197.60 0.0721
1197.70 0.07208
1197.80 0.07207
1197.90 0.07205
1198.00 0.07203
1198.10 0.07201
1198.20 0.072
1198.30 0.07198
1198.40 0.07196
1198.50 0.07194
1198.60 0.07193
1198.70 0.07191
1198.80 0.07189
1198.90 0.07188
1199.00 0.07186
1199.10 0.07184
1199.20 0.07182
1199.30 0.07181
1199.40 0.07179
1199.50 0.07177
1199.60 0.07175
1199.70 0.07174
1199.80 0.07172
1199.90 0.0717
1200.00 0
