# Version 2.1 - nm, norm@500 to 1, cut digits, bergeron_2250_90.dat_2250
# Wavelength(nm)  Flambda(ergs/cm^s/s/nm)
300.00 0.06888
300.10 0.06906
300.20 0.06925
300.30 0.06945
300.40 0.06964
300.50 0.06983
300.60 0.07002
300.70 0.07021
300.80 0.07041
300.90 0.0706
301.00 0.07079
301.10 0.07098
301.20 0.07117
301.30 0.07136
301.40 0.07155
301.50 0.07174
301.60 0.07193
301.70 0.07211
301.80 0.0723
301.90 0.07249
302.00 0.07268
302.10 0.07288
302.20 0.07308
302.30 0.07328
302.40 0.07348
302.50 0.07368
302.60 0.07387
302.70 0.07407
302.80 0.07427
302.90 0.07447
303.00 0.07467
303.10 0.07486
303.20 0.07506
303.30 0.07526
303.40 0.07545
303.50 0.07565
303.60 0.07584
303.70 0.07604
303.80 0.07624
303.90 0.07643
304.00 0.07663
304.10 0.07683
304.20 0.07704
304.30 0.07724
304.40 0.07745
304.50 0.07766
304.60 0.07786
304.70 0.07807
304.80 0.07827
304.90 0.07848
305.00 0.07868
305.10 0.07888
305.20 0.07909
305.30 0.07929
305.40 0.0795
305.50 0.0797
305.60 0.0799
305.70 0.0801
305.80 0.08031
305.90 0.08051
306.00 0.08072
306.10 0.08093
306.20 0.08114
306.30 0.08135
306.40 0.08156
306.50 0.08178
306.60 0.08199
306.70 0.0822
306.80 0.08241
306.90 0.08262
307.00 0.08283
307.10 0.08305
307.20 0.08326
307.30 0.08347
307.40 0.08368
307.50 0.08389
307.60 0.0841
307.70 0.08431
307.80 0.08451
307.90 0.08472
308.00 0.08494
308.10 0.08516
308.20 0.08537
308.30 0.08559
308.40 0.08581
308.50 0.08603
308.60 0.08625
308.70 0.08647
308.80 0.08669
308.90 0.08691
309.00 0.08713
309.10 0.08734
309.20 0.08756
309.30 0.08778
309.40 0.088
309.50 0.08821
309.60 0.08843
309.70 0.08865
309.80 0.08886
309.90 0.08908
310.00 0.0893
310.10 0.08952
310.20 0.08975
310.30 0.08998
310.40 0.09021
310.50 0.09043
310.60 0.09066
310.70 0.09089
310.80 0.09111
310.90 0.09134
311.00 0.09157
311.10 0.09179
311.20 0.09202
311.30 0.09224
311.40 0.09247
311.50 0.09269
311.60 0.09291
311.70 0.09314
311.80 0.09336
311.90 0.09359
312.00 0.09381
312.10 0.09403
312.20 0.09426
312.30 0.09449
312.40 0.09472
312.50 0.09496
312.60 0.09519
312.70 0.09543
312.80 0.09566
312.90 0.09589
313.00 0.09613
313.10 0.09636
313.20 0.09659
313.30 0.09682
313.40 0.09706
313.50 0.09729
313.60 0.09752
313.70 0.09775
313.80 0.09798
313.90 0.09821
314.00 0.09845
314.10 0.09868
314.20 0.09892
314.30 0.09917
314.40 0.09941
314.50 0.09965
314.60 0.09989
314.70 0.1001
314.80 0.1004
314.90 0.1006
315.00 0.1008
315.10 0.1011
315.20 0.1013
315.30 0.1016
315.40 0.1018
315.50 0.102
315.60 0.1023
315.70 0.1025
315.80 0.1028
315.90 0.103
316.00 0.1032
316.10 0.1035
316.20 0.1037
316.30 0.104
316.40 0.1042
316.50 0.1045
316.60 0.1047
316.70 0.105
316.80 0.1052
316.90 0.1055
317.00 0.1057
317.10 0.106
317.20 0.1062
317.30 0.1064
317.40 0.1067
317.50 0.1069
317.60 0.1072
317.70 0.1074
317.80 0.1077
317.90 0.1079
318.00 0.1082
318.10 0.1084
318.20 0.1087
318.30 0.1089
318.40 0.1092
318.50 0.1094
318.60 0.1097
318.70 0.1099
318.80 0.1102
318.90 0.1105
319.00 0.1107
319.10 0.111
319.20 0.1112
319.30 0.1115
319.40 0.1117
319.50 0.112
319.60 0.1122
319.70 0.1125
319.80 0.1127
319.90 0.113
320.00 0.1132
320.10 0.1135
320.20 0.1138
320.30 0.114
320.40 0.1143
320.50 0.1145
320.60 0.1148
320.70 0.1151
320.80 0.1153
320.90 0.1156
321.00 0.1159
321.10 0.1161
321.20 0.1164
321.30 0.1166
321.40 0.1169
321.50 0.1172
321.60 0.1174
321.70 0.1177
321.80 0.1179
321.90 0.1182
322.00 0.1185
322.10 0.1187
322.20 0.119
322.30 0.1193
322.40 0.1195
322.50 0.1198
322.60 0.1201
322.70 0.1203
322.80 0.1206
322.90 0.1209
323.00 0.1211
323.10 0.1214
323.20 0.1217
323.30 0.122
323.40 0.1222
323.50 0.1225
323.60 0.1228
323.70 0.123
323.80 0.1233
323.90 0.1236
324.00 0.1238
324.10 0.1241
324.20 0.1244
324.30 0.1247
324.40 0.1249
324.50 0.1252
324.60 0.1255
324.70 0.1258
324.80 0.126
324.90 0.1263
325.00 0.1266
325.10 0.1269
325.20 0.1271
325.30 0.1274
325.40 0.1277
325.50 0.128
325.60 0.1282
325.70 0.1285
325.80 0.1288
325.90 0.1291
326.00 0.1293
326.10 0.1296
326.20 0.1299
326.30 0.1302
326.40 0.1305
326.50 0.1308
326.60 0.131
326.70 0.1313
326.80 0.1316
326.90 0.1319
327.00 0.1322
327.10 0.1325
327.20 0.1327
327.30 0.133
327.40 0.1333
327.50 0.1336
327.60 0.1339
327.70 0.1341
327.80 0.1344
327.90 0.1347
328.00 0.135
328.10 0.1353
328.20 0.1356
328.30 0.1359
328.40 0.1361
328.50 0.1364
328.60 0.1367
328.70 0.137
328.80 0.1373
328.90 0.1376
329.00 0.1379
329.10 0.1382
329.20 0.1385
329.30 0.1388
329.40 0.1391
329.50 0.1393
329.60 0.1396
329.70 0.1399
329.80 0.1402
329.90 0.1405
330.00 0.1408
330.10 0.1411
330.20 0.1414
330.30 0.1417
330.40 0.142
330.50 0.1423
330.60 0.1426
330.70 0.1429
330.80 0.1432
330.90 0.1435
331.00 0.1438
331.10 0.1441
331.20 0.1444
331.30 0.1447
331.40 0.145
331.50 0.1453
331.60 0.1455
331.70 0.1458
331.80 0.1461
331.90 0.1464
332.00 0.1467
332.10 0.147
332.20 0.1473
332.30 0.1476
332.40 0.148
332.50 0.1483
332.60 0.1486
332.70 0.1489
332.80 0.1492
332.90 0.1495
333.00 0.1498
333.10 0.1501
333.20 0.1504
333.30 0.1507
333.40 0.151
333.50 0.1513
333.60 0.1516
333.70 0.1519
333.80 0.1522
333.90 0.1525
334.00 0.1528
334.10 0.1531
334.20 0.1534
334.30 0.1538
334.40 0.1541
334.50 0.1544
334.60 0.1547
334.70 0.155
334.80 0.1553
334.90 0.1556
335.00 0.156
335.10 0.1563
335.20 0.1566
335.30 0.1569
335.40 0.1572
335.50 0.1575
335.60 0.1578
335.70 0.1581
335.80 0.1584
335.90 0.1587
336.00 0.1591
336.10 0.1594
336.20 0.1597
336.30 0.16
336.40 0.1603
336.50 0.1607
336.60 0.161
336.70 0.1613
336.80 0.1616
336.90 0.1619
337.00 0.1623
337.10 0.1626
337.20 0.1629
337.30 0.1632
337.40 0.1635
337.50 0.1639
337.60 0.1642
337.70 0.1645
337.80 0.1648
337.90 0.1651
338.00 0.1654
338.10 0.1658
338.20 0.1661
338.30 0.1664
338.40 0.1668
338.50 0.1671
338.60 0.1674
338.70 0.1677
338.80 0.1681
338.90 0.1684
339.00 0.1687
339.10 0.169
339.20 0.1694
339.30 0.1697
339.40 0.17
339.50 0.1704
339.60 0.1707
339.70 0.171
339.80 0.1713
339.90 0.1716
340.00 0.172
340.10 0.1723
340.20 0.1726
340.30 0.173
340.40 0.1733
340.50 0.1736
340.60 0.174
340.70 0.1743
340.80 0.1747
340.90 0.175
341.00 0.1753
341.10 0.1757
341.20 0.176
341.30 0.1763
341.40 0.1767
341.50 0.177
341.60 0.1773
341.70 0.1776
341.80 0.178
341.90 0.1783
342.00 0.1786
342.10 0.179
342.20 0.1793
342.30 0.1797
342.40 0.18
342.50 0.1804
342.60 0.1807
342.70 0.181
342.80 0.1814
342.90 0.1817
343.00 0.1821
343.10 0.1824
343.20 0.1827
343.30 0.1831
343.40 0.1834
343.50 0.1838
343.60 0.1841
343.70 0.1844
343.80 0.1848
343.90 0.1851
344.00 0.1855
344.10 0.1858
344.20 0.1862
344.30 0.1865
344.40 0.1869
344.50 0.1872
344.60 0.1876
344.70 0.1879
344.80 0.1883
344.90 0.1886
345.00 0.189
345.10 0.1893
345.20 0.1897
345.30 0.19
345.40 0.1903
345.50 0.1907
345.60 0.191
345.70 0.1914
345.80 0.1917
345.90 0.1921
346.00 0.1924
346.10 0.1928
346.20 0.1931
346.30 0.1935
346.40 0.1938
346.50 0.1942
346.60 0.1946
346.70 0.1949
346.80 0.1953
346.90 0.1956
347.00 0.196
347.10 0.1963
347.20 0.1967
347.30 0.197
347.40 0.1974
347.50 0.1978
347.60 0.1981
347.70 0.1985
347.80 0.1988
347.90 0.1992
348.00 0.1995
348.10 0.1999
348.20 0.2002
348.30 0.2006
348.40 0.201
348.50 0.2013
348.60 0.2017
348.70 0.2021
348.80 0.2024
348.90 0.2028
349.00 0.2032
349.10 0.2035
349.20 0.2039
349.30 0.2042
349.40 0.2046
349.50 0.205
349.60 0.2053
349.70 0.2057
349.80 0.206
349.90 0.2064
350.00 0.2068
350.10 0.2071
350.20 0.2075
350.30 0.2079
350.40 0.2082
350.50 0.2086
350.60 0.209
350.70 0.2094
350.80 0.2097
350.90 0.2101
351.00 0.2105
351.10 0.2108
351.20 0.2112
351.30 0.2116
351.40 0.2119
351.50 0.2123
351.60 0.2127
351.70 0.213
351.80 0.2134
351.90 0.2138
352.00 0.2141
352.10 0.2145
352.20 0.2149
352.30 0.2153
352.40 0.2157
352.50 0.216
352.60 0.2164
352.70 0.2168
352.80 0.2172
352.90 0.2175
353.00 0.2179
353.10 0.2183
353.20 0.2187
353.30 0.2191
353.40 0.2194
353.50 0.2198
353.60 0.2202
353.70 0.2205
353.80 0.2209
353.90 0.2213
354.00 0.2217
354.10 0.222
354.20 0.2224
354.30 0.2228
354.40 0.2232
354.50 0.2236
354.60 0.224
354.70 0.2244
354.80 0.2247
354.90 0.2251
355.00 0.2255
355.10 0.2259
355.20 0.2263
355.30 0.2267
355.40 0.227
355.50 0.2274
355.60 0.2278
355.70 0.2282
355.80 0.2286
355.90 0.2289
356.00 0.2293
356.10 0.2297
356.20 0.2301
356.30 0.2305
356.40 0.2309
356.50 0.2313
356.60 0.2317
356.70 0.2321
356.80 0.2325
356.90 0.2329
357.00 0.2332
357.10 0.2336
357.20 0.234
357.30 0.2344
357.40 0.2348
357.50 0.2352
357.60 0.2356
357.70 0.236
357.80 0.2363
357.90 0.2367
358.00 0.2371
358.10 0.2375
358.20 0.2379
358.30 0.2383
358.40 0.2387
358.50 0.2391
358.60 0.2395
358.70 0.2399
358.80 0.2403
358.90 0.2407
359.00 0.2411
359.10 0.2415
359.20 0.2419
359.30 0.2423
359.40 0.2427
359.50 0.2431
359.60 0.2435
359.70 0.2439
359.80 0.2443
359.90 0.2447
360.00 0.2451
360.10 0.2455
360.20 0.2459
360.30 0.2463
360.40 0.2467
360.50 0.2471
360.60 0.2475
360.70 0.2479
360.80 0.2483
360.90 0.2487
361.00 0.2491
361.10 0.2495
361.20 0.2499
361.30 0.2503
361.40 0.2507
361.50 0.2511
361.60 0.2515
361.70 0.2519
361.80 0.2523
361.90 0.2527
362.00 0.2531
362.10 0.2535
362.20 0.2539
362.30 0.2543
362.40 0.2548
362.50 0.2552
362.60 0.2556
362.70 0.256
362.80 0.2564
362.90 0.2568
363.00 0.2572
363.10 0.2576
363.20 0.258
363.30 0.2584
363.40 0.2589
363.50 0.2593
363.60 0.2597
363.70 0.2601
363.80 0.2605
363.90 0.2609
364.00 0.2613
364.10 0.2617
364.20 0.2622
364.30 0.2626
364.40 0.263
364.50 0.2634
364.60 0.2638
364.70 0.2642
364.80 0.2646
364.90 0.2651
365.00 0.2655
365.10 0.2659
365.20 0.2663
365.30 0.2667
365.40 0.2672
365.50 0.2676
365.60 0.268
365.70 0.2684
365.80 0.2688
365.90 0.2692
366.00 0.2696
366.10 0.2701
366.20 0.2705
366.30 0.2709
366.40 0.2714
366.50 0.2718
366.60 0.2722
366.70 0.2726
366.80 0.2731
366.90 0.2735
367.00 0.2739
367.10 0.2743
367.20 0.2747
367.30 0.2752
367.40 0.2756
367.50 0.276
367.60 0.2764
367.70 0.2769
367.80 0.2773
367.90 0.2777
368.00 0.2781
368.10 0.2785
368.20 0.279
368.30 0.2794
368.40 0.2798
368.50 0.2803
368.60 0.2807
368.70 0.2811
368.80 0.2816
368.90 0.282
369.00 0.2824
369.10 0.2829
369.20 0.2833
369.30 0.2837
369.40 0.2841
369.50 0.2846
369.60 0.285
369.70 0.2854
369.80 0.2858
369.90 0.2863
370.00 0.2867
370.10 0.2871
370.20 0.2876
370.30 0.288
370.40 0.2885
370.50 0.2889
370.60 0.2893
370.70 0.2898
370.80 0.2902
370.90 0.2906
371.00 0.2911
371.10 0.2915
371.20 0.292
371.30 0.2924
371.40 0.2928
371.50 0.2933
371.60 0.2937
371.70 0.2941
371.80 0.2946
371.90 0.295
372.00 0.2954
372.10 0.2959
372.20 0.2963
372.30 0.2968
372.40 0.2972
372.50 0.2976
372.60 0.2981
372.70 0.2985
372.80 0.299
372.90 0.2994
373.00 0.2999
373.10 0.3003
373.20 0.3007
373.30 0.3012
373.40 0.3016
373.50 0.3021
373.60 0.3025
373.70 0.3029
373.80 0.3034
373.90 0.3038
374.00 0.3043
374.10 0.3047
374.20 0.3052
374.30 0.3056
374.40 0.3061
374.50 0.3065
374.60 0.307
374.70 0.3074
374.80 0.3079
374.90 0.3083
375.00 0.3088
375.10 0.3092
375.20 0.3097
375.30 0.3101
375.40 0.3105
375.50 0.311
375.60 0.3114
375.70 0.3119
375.80 0.3123
375.90 0.3128
376.00 0.3132
376.10 0.3137
376.20 0.3141
376.30 0.3146
376.40 0.315
376.50 0.3155
376.60 0.3159
376.70 0.3164
376.80 0.3168
376.90 0.3173
377.00 0.3177
377.10 0.3182
377.20 0.3187
377.30 0.3191
377.40 0.3196
377.50 0.32
377.60 0.3205
377.70 0.3209
377.80 0.3214
377.90 0.3218
378.00 0.3223
378.10 0.3228
378.20 0.3232
378.30 0.3237
378.40 0.3241
378.50 0.3246
378.60 0.3251
378.70 0.3255
378.80 0.326
378.90 0.3264
379.00 0.3269
379.10 0.3274
379.20 0.3278
379.30 0.3283
379.40 0.3287
379.50 0.3292
379.60 0.3297
379.70 0.3301
379.80 0.3306
379.90 0.331
380.00 0.3315
380.10 0.332
380.20 0.3324
380.30 0.3329
380.40 0.3334
380.50 0.3338
380.60 0.3343
380.70 0.3348
380.80 0.3352
380.90 0.3357
381.00 0.3361
381.10 0.3366
381.20 0.3371
381.30 0.3375
381.40 0.338
381.50 0.3385
381.60 0.3389
381.70 0.3394
381.80 0.3399
381.90 0.3403
382.00 0.3408
382.10 0.3413
382.20 0.3418
382.30 0.3422
382.40 0.3427
382.50 0.3432
382.60 0.3436
382.70 0.3441
382.80 0.3446
382.90 0.3451
383.00 0.3455
383.10 0.346
383.20 0.3465
383.30 0.3469
383.40 0.3474
383.50 0.3479
383.60 0.3484
383.70 0.3488
383.80 0.3493
383.90 0.3498
384.00 0.3502
384.10 0.3507
384.20 0.3512
384.30 0.3517
384.40 0.3521
384.50 0.3526
384.60 0.3531
384.70 0.3536
384.80 0.3541
384.90 0.3545
385.00 0.355
385.10 0.3555
385.20 0.356
385.30 0.3564
385.40 0.3569
385.50 0.3574
385.60 0.3579
385.70 0.3584
385.80 0.3588
385.90 0.3593
386.00 0.3598
386.10 0.3603
386.20 0.3607
386.30 0.3612
386.40 0.3617
386.50 0.3622
386.60 0.3627
386.70 0.3632
386.80 0.3636
386.90 0.3641
387.00 0.3646
387.10 0.3651
387.20 0.3656
387.30 0.3661
387.40 0.3665
387.50 0.367
387.60 0.3675
387.70 0.368
387.80 0.3685
387.90 0.369
388.00 0.3694
388.10 0.3699
388.20 0.3704
388.30 0.3709
388.40 0.3714
388.50 0.3719
388.60 0.3724
388.70 0.3728
388.80 0.3733
388.90 0.3738
389.00 0.3743
389.10 0.3748
389.20 0.3753
389.30 0.3758
389.40 0.3763
389.50 0.3768
389.60 0.3772
389.70 0.3777
389.80 0.3782
389.90 0.3787
390.00 0.3792
390.10 0.3797
390.20 0.3802
390.30 0.3807
390.40 0.3812
390.50 0.3817
390.60 0.3822
390.70 0.3826
390.80 0.3831
390.90 0.3836
391.00 0.3841
391.10 0.3846
391.20 0.3851
391.30 0.3856
391.40 0.3861
391.50 0.3866
391.60 0.3871
391.70 0.3876
391.80 0.3881
391.90 0.3886
392.00 0.3891
392.10 0.3896
392.20 0.3901
392.30 0.3906
392.40 0.3911
392.50 0.3916
392.60 0.392
392.70 0.3925
392.80 0.393
392.90 0.3935
393.00 0.394
393.10 0.3945
393.20 0.395
393.30 0.3955
393.40 0.396
393.50 0.3965
393.60 0.397
393.70 0.3975
393.80 0.398
393.90 0.3985
394.00 0.399
394.10 0.3995
394.20 0.4
394.30 0.4005
394.40 0.401
394.50 0.4015
394.60 0.402
394.70 0.4025
394.80 0.403
394.90 0.4036
395.00 0.4041
395.10 0.4046
395.20 0.4051
395.30 0.4056
395.40 0.4061
395.50 0.4066
395.60 0.4071
395.70 0.4076
395.80 0.4081
395.90 0.4086
396.00 0.4091
396.10 0.4096
396.20 0.4101
396.30 0.4106
396.40 0.4111
396.50 0.4116
396.60 0.4121
396.70 0.4126
396.80 0.4132
396.90 0.4137
397.00 0.4142
397.10 0.4147
397.20 0.4152
397.30 0.4157
397.40 0.4162
397.50 0.4167
397.60 0.4172
397.70 0.4177
397.80 0.4182
397.90 0.4188
398.00 0.4193
398.10 0.4198
398.20 0.4203
398.30 0.4208
398.40 0.4213
398.50 0.4218
398.60 0.4223
398.70 0.4228
398.80 0.4234
398.90 0.4239
399.00 0.4244
399.10 0.4249
399.20 0.4254
399.30 0.4259
399.40 0.4264
399.50 0.427
399.60 0.4275
399.70 0.428
399.80 0.4285
399.90 0.429
400.00 0.4295
400.10 0.43
400.20 0.4306
400.30 0.4311
400.40 0.4316
400.50 0.4321
400.60 0.4326
400.70 0.4331
400.80 0.4337
400.90 0.4342
401.00 0.4347
401.10 0.4352
401.20 0.4357
401.30 0.4362
401.40 0.4368
401.50 0.4373
401.60 0.4378
401.70 0.4383
401.80 0.4388
401.90 0.4394
402.00 0.4399
402.10 0.4404
402.20 0.4409
402.30 0.4414
402.40 0.442
402.50 0.4425
402.60 0.443
402.70 0.4435
402.80 0.444
402.90 0.4446
403.00 0.4451
403.10 0.4456
403.20 0.4461
403.30 0.4467
403.40 0.4472
403.50 0.4477
403.60 0.4482
403.70 0.4487
403.80 0.4493
403.90 0.4498
404.00 0.4503
404.10 0.4508
404.20 0.4514
404.30 0.4519
404.40 0.4524
404.50 0.4529
404.60 0.4535
404.70 0.454
404.80 0.4545
404.90 0.455
405.00 0.4556
405.10 0.4561
405.20 0.4566
405.30 0.4571
405.40 0.4577
405.50 0.4582
405.60 0.4587
405.70 0.4593
405.80 0.4598
405.90 0.4603
406.00 0.4608
406.10 0.4614
406.20 0.4619
406.30 0.4624
406.40 0.463
406.50 0.4635
406.60 0.464
406.70 0.4646
406.80 0.4651
406.90 0.4656
407.00 0.4661
407.10 0.4667
407.20 0.4672
407.30 0.4677
407.40 0.4683
407.50 0.4688
407.60 0.4693
407.70 0.4699
407.80 0.4704
407.90 0.4709
408.00 0.4715
408.10 0.472
408.20 0.4725
408.30 0.4731
408.40 0.4736
408.50 0.4741
408.60 0.4747
408.70 0.4752
408.80 0.4757
408.90 0.4763
409.00 0.4768
409.10 0.4773
409.20 0.4779
409.30 0.4784
409.40 0.4789
409.50 0.4795
409.60 0.48
409.70 0.4805
409.80 0.4811
409.90 0.4816
410.00 0.4822
410.10 0.4827
410.20 0.4832
410.30 0.4838
410.40 0.4843
410.50 0.4848
410.60 0.4854
410.70 0.4859
410.80 0.4865
410.90 0.487
411.00 0.4875
411.10 0.4881
411.20 0.4886
411.30 0.4891
411.40 0.4897
411.50 0.4902
411.60 0.4908
411.70 0.4913
411.80 0.4918
411.90 0.4924
412.00 0.4929
412.10 0.4935
412.20 0.494
412.30 0.4945
412.40 0.4951
412.50 0.4956
412.60 0.4962
412.70 0.4967
412.80 0.4973
412.90 0.4978
413.00 0.4983
413.10 0.4989
413.20 0.4994
413.30 0.5
413.40 0.5005
413.50 0.5011
413.60 0.5016
413.70 0.5021
413.80 0.5027
413.90 0.5032
414.00 0.5038
414.10 0.5043
414.20 0.5049
414.30 0.5054
414.40 0.5059
414.50 0.5065
414.60 0.507
414.70 0.5076
414.80 0.5081
414.90 0.5087
415.00 0.5092
415.10 0.5098
415.20 0.5103
415.30 0.5109
415.40 0.5114
415.50 0.512
415.60 0.5125
415.70 0.513
415.80 0.5136
415.90 0.5141
416.00 0.5147
416.10 0.5152
416.20 0.5158
416.30 0.5163
416.40 0.5169
416.50 0.5174
416.60 0.518
416.70 0.5185
416.80 0.5191
416.90 0.5196
417.00 0.5202
417.10 0.5207
417.20 0.5213
417.30 0.5218
417.40 0.5224
417.50 0.5229
417.60 0.5235
417.70 0.524
417.80 0.5246
417.90 0.5251
418.00 0.5257
418.10 0.5262
418.20 0.5268
418.30 0.5273
418.40 0.5279
418.50 0.5284
418.60 0.529
418.70 0.5295
418.80 0.5301
418.90 0.5307
419.00 0.5312
419.10 0.5318
419.20 0.5323
419.30 0.5329
419.40 0.5334
419.50 0.534
419.60 0.5345
419.70 0.5351
419.80 0.5356
419.90 0.5362
420.00 0.5367
420.10 0.5373
420.20 0.5378
420.30 0.5384
420.40 0.539
420.50 0.5395
420.60 0.5401
420.70 0.5406
420.80 0.5412
420.90 0.5417
421.00 0.5423
421.10 0.5429
421.20 0.5434
421.30 0.544
421.40 0.5445
421.50 0.5451
421.60 0.5456
421.70 0.5462
421.80 0.5467
421.90 0.5473
422.00 0.5479
422.10 0.5484
422.20 0.549
422.30 0.5495
422.40 0.5501
422.50 0.5507
422.60 0.5512
422.70 0.5518
422.80 0.5523
422.90 0.5529
423.00 0.5534
423.10 0.554
423.20 0.5546
423.30 0.5551
423.40 0.5557
423.50 0.5562
423.60 0.5568
423.70 0.5574
423.80 0.5579
423.90 0.5585
424.00 0.559
424.10 0.5596
424.20 0.5602
424.30 0.5607
424.40 0.5613
424.50 0.5619
424.60 0.5624
424.70 0.563
424.80 0.5635
424.90 0.5641
425.00 0.5647
425.10 0.5652
425.20 0.5658
425.30 0.5664
425.40 0.5669
425.50 0.5675
425.60 0.568
425.70 0.5686
425.80 0.5692
425.90 0.5697
426.00 0.5703
426.10 0.5709
426.20 0.5714
426.30 0.572
426.40 0.5725
426.50 0.5731
426.60 0.5737
426.70 0.5742
426.80 0.5748
426.90 0.5754
427.00 0.5759
427.10 0.5765
427.20 0.5771
427.30 0.5776
427.40 0.5782
427.50 0.5788
427.60 0.5793
427.70 0.5799
427.80 0.5805
427.90 0.581
428.00 0.5816
428.10 0.5822
428.20 0.5827
428.30 0.5833
428.40 0.5839
428.50 0.5844
428.60 0.585
428.70 0.5856
428.80 0.5861
428.90 0.5867
429.00 0.5873
429.10 0.5878
429.20 0.5884
429.30 0.589
429.40 0.5895
429.50 0.5901
429.60 0.5907
429.70 0.5912
429.80 0.5918
429.90 0.5924
430.00 0.5929
430.10 0.5935
430.20 0.5941
430.30 0.5946
430.40 0.5952
430.50 0.5958
430.60 0.5964
430.70 0.5969
430.80 0.5975
430.90 0.5981
431.00 0.5986
431.10 0.5992
431.20 0.5998
431.30 0.6003
431.40 0.6009
431.50 0.6015
431.60 0.6021
431.70 0.6026
431.80 0.6032
431.90 0.6038
432.00 0.6043
432.10 0.6049
432.20 0.6055
432.30 0.606
432.40 0.6066
432.50 0.6072
432.60 0.6078
432.70 0.6084
432.80 0.6089
432.90 0.6095
433.00 0.6101
433.10 0.6106
433.20 0.6112
433.30 0.6118
433.40 0.6124
433.50 0.6129
433.60 0.6135
433.70 0.6141
433.80 0.6147
433.90 0.6152
434.00 0.6158
434.10 0.6164
434.20 0.617
434.30 0.6175
434.40 0.6181
434.50 0.6187
434.60 0.6192
434.70 0.6198
434.80 0.6204
434.90 0.621
435.00 0.6215
435.10 0.6221
435.20 0.6227
435.30 0.6232
435.40 0.6238
435.50 0.6244
435.60 0.625
435.70 0.6255
435.80 0.6261
435.90 0.6267
436.00 0.6273
436.10 0.6279
436.20 0.6284
436.30 0.629
436.40 0.6296
436.50 0.6301
436.60 0.6307
436.70 0.6313
436.80 0.6319
436.90 0.6325
437.00 0.6331
437.10 0.6336
437.20 0.6342
437.30 0.6348
437.40 0.6354
437.50 0.6359
437.60 0.6365
437.70 0.6371
437.80 0.6377
437.90 0.6382
438.00 0.6388
438.10 0.6394
438.20 0.64
438.30 0.6405
438.40 0.6411
438.50 0.6417
438.60 0.6423
438.70 0.6429
438.80 0.6434
438.90 0.644
439.00 0.6446
439.10 0.6452
439.20 0.6457
439.30 0.6463
439.40 0.6469
439.50 0.6475
439.60 0.648
439.70 0.6486
439.80 0.6492
439.90 0.6498
440.00 0.6504
440.10 0.651
440.20 0.6515
440.30 0.6521
440.40 0.6527
440.50 0.6533
440.60 0.6539
440.70 0.6544
440.80 0.655
440.90 0.6556
441.00 0.6562
441.10 0.6568
441.20 0.6573
441.30 0.6579
441.40 0.6585
441.50 0.6591
441.60 0.6597
441.70 0.6602
441.80 0.6608
441.90 0.6614
442.00 0.662
442.10 0.6626
442.20 0.6632
442.30 0.6637
442.40 0.6643
442.50 0.6649
442.60 0.6655
442.70 0.666
442.80 0.6666
442.90 0.6672
443.00 0.6678
443.10 0.6684
443.20 0.669
443.30 0.6695
443.40 0.6701
443.50 0.6707
443.60 0.6713
443.70 0.6719
443.80 0.6724
443.90 0.673
444.00 0.6736
444.10 0.6742
444.20 0.6748
444.30 0.6754
444.40 0.676
444.50 0.6765
444.60 0.6771
444.70 0.6777
444.80 0.6783
444.90 0.6789
445.00 0.6795
445.10 0.68
445.20 0.6806
445.30 0.6812
445.40 0.6818
445.50 0.6824
445.60 0.6829
445.70 0.6835
445.80 0.6841
445.90 0.6847
446.00 0.6853
446.10 0.6859
446.20 0.6864
446.30 0.687
446.40 0.6876
446.50 0.6882
446.60 0.6888
446.70 0.6894
446.80 0.69
446.90 0.6905
447.00 0.6911
447.10 0.6917
447.20 0.6923
447.30 0.6929
447.40 0.6934
447.50 0.694
447.60 0.6946
447.70 0.6952
447.80 0.6958
447.90 0.6964
448.00 0.697
448.10 0.6976
448.20 0.6981
448.30 0.6987
448.40 0.6993
448.50 0.6999
448.60 0.7005
448.70 0.7011
448.80 0.7017
448.90 0.7022
449.00 0.7028
449.10 0.7034
449.20 0.704
449.30 0.7046
449.40 0.7052
449.50 0.7057
449.60 0.7063
449.70 0.7069
449.80 0.7075
449.90 0.7081
450.00 0.7087
450.10 0.7093
450.20 0.7099
450.30 0.7104
450.40 0.711
450.50 0.7116
450.60 0.7122
450.70 0.7128
450.80 0.7134
450.90 0.714
451.00 0.7146
451.10 0.7152
451.20 0.7157
451.30 0.7163
451.40 0.7169
451.50 0.7175
451.60 0.7181
451.70 0.7187
451.80 0.7193
451.90 0.7198
452.00 0.7204
452.10 0.721
452.20 0.7216
452.30 0.7222
452.40 0.7228
452.50 0.7234
452.60 0.724
452.70 0.7246
452.80 0.7251
452.90 0.7257
453.00 0.7263
453.10 0.7269
453.20 0.7275
453.30 0.7281
453.40 0.7287
453.50 0.7293
453.60 0.7298
453.70 0.7304
453.80 0.731
453.90 0.7316
454.00 0.7322
454.10 0.7328
454.20 0.7334
454.30 0.7339
454.40 0.7345
454.50 0.7351
454.60 0.7357
454.70 0.7363
454.80 0.7369
454.90 0.7375
455.00 0.7381
455.10 0.7386
455.20 0.7392
455.30 0.7398
455.40 0.7404
455.50 0.741
455.60 0.7416
455.70 0.7422
455.80 0.7428
455.90 0.7434
456.00 0.7439
456.10 0.7445
456.20 0.7451
456.30 0.7457
456.40 0.7463
456.50 0.7469
456.60 0.7475
456.70 0.7481
456.80 0.7487
456.90 0.7492
457.00 0.7498
457.10 0.7504
457.20 0.751
457.30 0.7516
457.40 0.7522
457.50 0.7528
457.60 0.7534
457.70 0.7539
457.80 0.7545
457.90 0.7551
458.00 0.7557
458.10 0.7563
458.20 0.7569
458.30 0.7575
458.40 0.7581
458.50 0.7586
458.60 0.7592
458.70 0.7598
458.80 0.7604
458.90 0.761
459.00 0.7616
459.10 0.7622
459.20 0.7628
459.30 0.7633
459.40 0.7639
459.50 0.7645
459.60 0.7651
459.70 0.7657
459.80 0.7663
459.90 0.7669
460.00 0.7675
460.10 0.7681
460.20 0.7687
460.30 0.7693
460.40 0.7698
460.50 0.7704
460.60 0.771
460.70 0.7716
460.80 0.7722
460.90 0.7728
461.00 0.7734
461.10 0.774
461.20 0.7746
461.30 0.7752
461.40 0.7758
461.50 0.7763
461.60 0.7769
461.70 0.7775
461.80 0.7781
461.90 0.7787
462.00 0.7793
462.10 0.7799
462.20 0.7805
462.30 0.781
462.40 0.7816
462.50 0.7822
462.60 0.7828
462.70 0.7834
462.80 0.784
462.90 0.7846
463.00 0.7852
463.10 0.7858
463.20 0.7864
463.30 0.787
463.40 0.7875
463.50 0.7881
463.60 0.7887
463.70 0.7893
463.80 0.7899
463.90 0.7905
464.00 0.7911
464.10 0.7917
464.20 0.7922
464.30 0.7928
464.40 0.7934
464.50 0.794
464.60 0.7946
464.70 0.7952
464.80 0.7958
464.90 0.7964
465.00 0.797
465.10 0.7976
465.20 0.7982
465.30 0.7987
465.40 0.7993
465.50 0.7999
465.60 0.8005
465.70 0.8011
465.80 0.8017
465.90 0.8023
466.00 0.8029
466.10 0.8035
466.20 0.8041
466.30 0.8046
466.40 0.8052
466.50 0.8058
466.60 0.8064
466.70 0.807
466.80 0.8076
466.90 0.8082
467.00 0.8087
467.10 0.8093
467.20 0.8099
467.30 0.8105
467.40 0.8111
467.50 0.8117
467.60 0.8123
467.70 0.8129
467.80 0.8134
467.90 0.814
468.00 0.8146
468.10 0.8152
468.20 0.8158
468.30 0.8164
468.40 0.817
468.50 0.8176
468.60 0.8182
468.70 0.8187
468.80 0.8193
468.90 0.8199
469.00 0.8205
469.10 0.8211
469.20 0.8217
469.30 0.8223
469.40 0.8229
469.50 0.8235
469.60 0.8241
469.70 0.8246
469.80 0.8252
469.90 0.8258
470.00 0.8264
470.10 0.827
470.20 0.8276
470.30 0.8282
470.40 0.8288
470.50 0.8294
470.60 0.83
470.70 0.8305
470.80 0.8311
470.90 0.8317
471.00 0.8323
471.10 0.8329
471.20 0.8335
471.30 0.8341
471.40 0.8347
471.50 0.8353
471.60 0.8358
471.70 0.8364
471.80 0.837
471.90 0.8376
472.00 0.8382
472.10 0.8388
472.20 0.8394
472.30 0.8399
472.40 0.8405
472.50 0.8411
472.60 0.8417
472.70 0.8423
472.80 0.8429
472.90 0.8435
473.00 0.8441
473.10 0.8446
473.20 0.8452
473.30 0.8458
473.40 0.8464
473.50 0.847
473.60 0.8476
473.70 0.8482
473.80 0.8487
473.90 0.8493
474.00 0.8499
474.10 0.8505
474.20 0.8511
474.30 0.8517
474.40 0.8523
474.50 0.8529
474.60 0.8534
474.70 0.854
474.80 0.8546
474.90 0.8552
475.00 0.8558
475.10 0.8564
475.20 0.857
475.30 0.8576
475.40 0.8581
475.50 0.8587
475.60 0.8593
475.70 0.8599
475.80 0.8605
475.90 0.8611
476.00 0.8617
476.10 0.8622
476.20 0.8628
476.30 0.8634
476.40 0.864
476.50 0.8646
476.60 0.8652
476.70 0.8658
476.80 0.8664
476.90 0.8669
477.00 0.8675
477.10 0.8681
477.20 0.8687
477.30 0.8693
477.40 0.8699
477.50 0.8705
477.60 0.871
477.70 0.8716
477.80 0.8722
477.90 0.8728
478.00 0.8734
478.10 0.8739
478.20 0.8745
478.30 0.8751
478.40 0.8757
478.50 0.8763
478.60 0.8769
478.70 0.8775
478.80 0.8781
478.90 0.8786
479.00 0.8792
479.10 0.8798
479.20 0.8804
479.30 0.881
479.40 0.8816
479.50 0.8822
479.60 0.8827
479.70 0.8833
479.80 0.8839
479.90 0.8845
480.00 0.8851
480.10 0.8857
480.20 0.8862
480.30 0.8868
480.40 0.8874
480.50 0.888
480.60 0.8886
480.70 0.8892
480.80 0.8897
480.90 0.8903
481.00 0.8909
481.10 0.8915
481.20 0.8921
481.30 0.8927
481.40 0.8932
481.50 0.8938
481.60 0.8944
481.70 0.895
481.80 0.8956
481.90 0.8961
482.00 0.8967
482.10 0.8973
482.20 0.8979
482.30 0.8985
482.40 0.899
482.50 0.8996
482.60 0.9002
482.70 0.9008
482.80 0.9014
482.90 0.902
483.00 0.9025
483.10 0.9031
483.20 0.9037
483.30 0.9043
483.40 0.9049
483.50 0.9055
483.60 0.906
483.70 0.9066
483.80 0.9072
483.90 0.9078
484.00 0.9083
484.10 0.9089
484.20 0.9095
484.30 0.9101
484.40 0.9107
484.50 0.9113
484.60 0.9119
484.70 0.9124
484.80 0.913
484.90 0.9136
485.00 0.9142
485.10 0.9147
485.20 0.9153
485.30 0.9159
485.40 0.9165
485.50 0.9171
485.60 0.9177
485.70 0.9182
485.80 0.9188
485.90 0.9194
486.00 0.9199
486.10 0.9205
486.20 0.9211
486.30 0.9217
486.40 0.9223
486.50 0.9229
486.60 0.9235
486.70 0.924
486.80 0.9246
486.90 0.9252
487.00 0.9258
487.10 0.9263
487.20 0.9269
487.30 0.9275
487.40 0.9281
487.50 0.9287
487.60 0.9292
487.70 0.9298
487.80 0.9304
487.90 0.9309
488.00 0.9315
488.10 0.9321
488.20 0.9327
488.30 0.9332
488.40 0.9338
488.50 0.9344
488.60 0.935
488.70 0.9356
488.80 0.9361
488.90 0.9367
489.00 0.9373
489.10 0.9379
489.20 0.9385
489.30 0.939
489.40 0.9396
489.50 0.9402
489.60 0.9408
489.70 0.9413
489.80 0.9419
489.90 0.9425
490.00 0.943
490.10 0.9436
490.20 0.9442
490.30 0.9448
490.40 0.9453
490.50 0.9459
490.60 0.9465
490.70 0.9471
490.80 0.9476
490.90 0.9482
491.00 0.9488
491.10 0.9494
491.20 0.9499
491.30 0.9505
491.40 0.9511
491.50 0.9517
491.60 0.9522
491.70 0.9528
491.80 0.9534
491.90 0.954
492.00 0.9545
492.10 0.9551
492.20 0.9557
492.30 0.9563
492.40 0.9568
492.50 0.9574
492.60 0.958
492.70 0.9586
492.80 0.9591
492.90 0.9597
493.00 0.9603
493.10 0.9608
493.20 0.9614
493.30 0.962
493.40 0.9626
493.50 0.9631
493.60 0.9637
493.70 0.9643
493.80 0.9648
493.90 0.9654
494.00 0.966
494.10 0.9666
494.20 0.9671
494.30 0.9677
494.40 0.9683
494.50 0.9688
494.60 0.9694
494.70 0.97
494.80 0.9706
494.90 0.9711
495.00 0.9717
495.10 0.9723
495.20 0.9728
495.30 0.9734
495.40 0.974
495.50 0.9745
495.60 0.9751
495.70 0.9757
495.80 0.9763
495.90 0.9768
496.00 0.9774
496.10 0.978
496.20 0.9785
496.30 0.9791
496.40 0.9797
496.50 0.9802
496.60 0.9808
496.70 0.9813
496.80 0.9819
496.90 0.9825
497.00 0.983
497.10 0.9836
497.20 0.9842
497.30 0.9847
497.40 0.9853
497.50 0.9859
497.60 0.9864
497.70 0.987
497.80 0.9876
497.90 0.9881
498.00 0.9887
498.10 0.9893
498.20 0.9898
498.30 0.9904
498.40 0.991
498.50 0.9915
498.60 0.9921
498.70 0.9927
498.80 0.9932
498.90 0.9938
499.00 0.9943
499.10 0.9949
499.20 0.9955
499.30 0.996
499.40 0.9966
499.50 0.9972
499.60 0.9977
499.70 0.9983
499.80 0.9989
499.90 0.9994
500.00 1
500.10 1.001
500.20 1.001
500.30 1.002
500.40 1.002
500.50 1.003
500.60 1.003
500.70 1.004
500.80 1.004
500.90 1.005
501.00 1.006
501.10 1.006
501.20 1.007
501.30 1.007
501.40 1.008
501.50 1.008
501.60 1.009
501.70 1.01
501.80 1.01
501.90 1.011
502.00 1.011
502.10 1.012
502.20 1.012
502.30 1.013
502.40 1.013
502.50 1.014
502.60 1.015
502.70 1.015
502.80 1.016
502.90 1.016
503.00 1.017
503.10 1.017
503.20 1.018
503.30 1.018
503.40 1.019
503.50 1.02
503.60 1.02
503.70 1.021
503.80 1.021
503.90 1.022
504.00 1.022
504.10 1.023
504.20 1.023
504.30 1.024
504.40 1.025
504.50 1.025
504.60 1.026
504.70 1.026
504.80 1.027
504.90 1.027
505.00 1.028
505.10 1.028
505.20 1.029
505.30 1.03
505.40 1.03
505.50 1.031
505.60 1.031
505.70 1.032
505.80 1.032
505.90 1.033
506.00 1.033
506.10 1.034
506.20 1.034
506.30 1.035
506.40 1.036
506.50 1.036
506.60 1.037
506.70 1.037
506.80 1.038
506.90 1.038
507.00 1.039
507.10 1.039
507.20 1.04
507.30 1.041
507.40 1.041
507.50 1.042
507.60 1.042
507.70 1.043
507.80 1.043
507.90 1.044
508.00 1.044
508.10 1.045
508.20 1.045
508.30 1.046
508.40 1.047
508.50 1.047
508.60 1.048
508.70 1.048
508.80 1.049
508.90 1.049
509.00 1.05
509.10 1.05
509.20 1.051
509.30 1.051
509.40 1.052
509.50 1.053
509.60 1.053
509.70 1.054
509.80 1.054
509.90 1.055
510.00 1.055
510.10 1.056
510.20 1.056
510.30 1.057
510.40 1.057
510.50 1.058
510.60 1.059
510.70 1.059
510.80 1.06
510.90 1.06
511.00 1.061
511.10 1.061
511.20 1.062
511.30 1.062
511.40 1.063
511.50 1.063
511.60 1.064
511.70 1.065
511.80 1.065
511.90 1.066
512.00 1.066
512.10 1.067
512.20 1.067
512.30 1.068
512.40 1.068
512.50 1.069
512.60 1.069
512.70 1.07
512.80 1.071
512.90 1.071
513.00 1.072
513.10 1.072
513.20 1.073
513.30 1.073
513.40 1.074
513.50 1.074
513.60 1.075
513.70 1.075
513.80 1.076
513.90 1.076
514.00 1.077
514.10 1.078
514.20 1.078
514.30 1.079
514.40 1.079
514.50 1.08
514.60 1.08
514.70 1.081
514.80 1.081
514.90 1.082
515.00 1.082
515.10 1.083
515.20 1.083
515.30 1.084
515.40 1.084
515.50 1.085
515.60 1.086
515.70 1.086
515.80 1.087
515.90 1.087
516.00 1.088
516.10 1.088
516.20 1.089
516.30 1.089
516.40 1.09
516.50 1.09
516.60 1.091
516.70 1.091
516.80 1.092
516.90 1.092
517.00 1.093
517.10 1.093
517.20 1.094
517.30 1.095
517.40 1.095
517.50 1.096
517.60 1.096
517.70 1.097
517.80 1.097
517.90 1.098
518.00 1.098
518.10 1.099
518.20 1.099
518.30 1.1
518.40 1.1
518.50 1.101
518.60 1.101
518.70 1.102
518.80 1.102
518.90 1.103
519.00 1.104
519.10 1.104
519.20 1.105
519.30 1.105
519.40 1.106
519.50 1.106
519.60 1.107
519.70 1.107
519.80 1.108
519.90 1.108
520.00 1.109
520.10 1.109
520.20 1.11
520.30 1.11
520.40 1.111
520.50 1.111
520.60 1.112
520.70 1.112
520.80 1.113
520.90 1.113
521.00 1.114
521.10 1.114
521.20 1.115
521.30 1.116
521.40 1.116
521.50 1.117
521.60 1.117
521.70 1.118
521.80 1.118
521.90 1.119
522.00 1.119
522.10 1.12
522.20 1.12
522.30 1.121
522.40 1.121
522.50 1.122
522.60 1.122
522.70 1.123
522.80 1.123
522.90 1.124
523.00 1.124
523.10 1.125
523.20 1.125
523.30 1.126
523.40 1.126
523.50 1.127
523.60 1.127
523.70 1.128
523.80 1.128
523.90 1.129
524.00 1.129
524.10 1.13
524.20 1.13
524.30 1.131
524.40 1.132
524.50 1.132
524.60 1.133
524.70 1.133
524.80 1.134
524.90 1.134
525.00 1.135
525.10 1.135
525.20 1.136
525.30 1.136
525.40 1.137
525.50 1.137
525.60 1.138
525.70 1.138
525.80 1.139
525.90 1.139
526.00 1.14
526.10 1.14
526.20 1.141
526.30 1.141
526.40 1.142
526.50 1.142
526.60 1.143
526.70 1.143
526.80 1.144
526.90 1.144
527.00 1.145
527.10 1.145
527.20 1.146
527.30 1.146
527.40 1.147
527.50 1.147
527.60 1.148
527.70 1.148
527.80 1.149
527.90 1.149
528.00 1.15
528.10 1.15
528.20 1.151
528.30 1.151
528.40 1.152
528.50 1.152
528.60 1.153
528.70 1.153
528.80 1.154
528.90 1.154
529.00 1.155
529.10 1.155
529.20 1.156
529.30 1.156
529.40 1.157
529.50 1.157
529.60 1.158
529.70 1.158
529.80 1.159
529.90 1.159
530.00 1.16
530.10 1.16
530.20 1.161
530.30 1.161
530.40 1.162
530.50 1.162
530.60 1.163
530.70 1.163
530.80 1.164
530.90 1.164
531.00 1.165
531.10 1.165
531.20 1.166
531.30 1.166
531.40 1.167
531.50 1.167
531.60 1.168
531.70 1.168
531.80 1.168
531.90 1.169
532.00 1.169
532.10 1.17
532.20 1.17
532.30 1.171
532.40 1.171
532.50 1.172
532.60 1.172
532.70 1.173
532.80 1.173
532.90 1.174
533.00 1.174
533.10 1.175
533.20 1.175
533.30 1.176
533.40 1.176
533.50 1.177
533.60 1.177
533.70 1.178
533.80 1.178
533.90 1.179
534.00 1.179
534.10 1.18
534.20 1.18
534.30 1.181
534.40 1.181
534.50 1.182
534.60 1.182
534.70 1.183
534.80 1.183
534.90 1.183
535.00 1.184
535.10 1.184
535.20 1.185
535.30 1.185
535.40 1.186
535.50 1.186
535.60 1.187
535.70 1.187
535.80 1.188
535.90 1.188
536.00 1.189
536.10 1.189
536.20 1.19
536.30 1.19
536.40 1.191
536.50 1.191
536.60 1.191
536.70 1.192
536.80 1.192
536.90 1.193
537.00 1.193
537.10 1.194
537.20 1.194
537.30 1.195
537.40 1.195
537.50 1.196
537.60 1.196
537.70 1.197
537.80 1.197
537.90 1.198
538.00 1.198
538.10 1.199
538.20 1.199
538.30 1.199
538.40 1.2
538.50 1.2
538.60 1.201
538.70 1.201
538.80 1.202
538.90 1.202
539.00 1.203
539.10 1.203
539.20 1.204
539.30 1.204
539.40 1.205
539.50 1.205
539.60 1.205
539.70 1.206
539.80 1.206
539.90 1.207
540.00 1.207
540.10 1.208
540.20 1.208
540.30 1.209
540.40 1.209
540.50 1.21
540.60 1.21
540.70 1.21
540.80 1.211
540.90 1.211
541.00 1.212
541.10 1.212
541.20 1.213
541.30 1.213
541.40 1.214
541.50 1.214
541.60 1.214
541.70 1.215
541.80 1.215
541.90 1.216
542.00 1.216
542.10 1.217
542.20 1.217
542.30 1.218
542.40 1.218
542.50 1.219
542.60 1.219
542.70 1.219
542.80 1.22
542.90 1.22
543.00 1.221
543.10 1.221
543.20 1.222
543.30 1.222
543.40 1.223
543.50 1.223
543.60 1.223
543.70 1.224
543.80 1.224
543.90 1.225
544.00 1.225
544.10 1.226
544.20 1.226
544.30 1.226
544.40 1.227
544.50 1.227
544.60 1.228
544.70 1.228
544.80 1.229
544.90 1.229
545.00 1.23
545.10 1.23
545.20 1.23
545.30 1.231
545.40 1.231
545.50 1.232
545.60 1.232
545.70 1.233
545.80 1.233
545.90 1.233
546.00 1.234
546.10 1.234
546.20 1.235
546.30 1.235
546.40 1.236
546.50 1.236
546.60 1.236
546.70 1.237
546.80 1.237
546.90 1.238
547.00 1.238
547.10 1.238
547.20 1.239
547.30 1.239
547.40 1.24
547.50 1.24
547.60 1.241
547.70 1.241
547.80 1.241
547.90 1.242
548.00 1.242
548.10 1.243
548.20 1.243
548.30 1.244
548.40 1.244
548.50 1.244
548.60 1.245
548.70 1.245
548.80 1.246
548.90 1.246
549.00 1.246
549.10 1.247
549.20 1.247
549.30 1.248
549.40 1.248
549.50 1.249
549.60 1.249
549.70 1.249
549.80 1.25
549.90 1.25
550.00 1.251
550.10 1.251
550.20 1.251
550.30 1.252
550.40 1.252
550.50 1.253
550.60 1.253
550.70 1.253
550.80 1.254
550.90 1.254
551.00 1.255
551.10 1.255
551.20 1.255
551.30 1.256
551.40 1.256
551.50 1.257
551.60 1.257
551.70 1.257
551.80 1.258
551.90 1.258
552.00 1.259
552.10 1.259
552.20 1.259
552.30 1.26
552.40 1.26
552.50 1.261
552.60 1.261
552.70 1.261
552.80 1.262
552.90 1.262
553.00 1.263
553.10 1.263
553.20 1.263
553.30 1.264
553.40 1.264
553.50 1.264
553.60 1.265
553.70 1.265
553.80 1.266
553.90 1.266
554.00 1.266
554.10 1.267
554.20 1.267
554.30 1.268
554.40 1.268
554.50 1.268
554.60 1.269
554.70 1.269
554.80 1.269
554.90 1.27
555.00 1.27
555.10 1.271
555.20 1.271
555.30 1.271
555.40 1.272
555.50 1.272
555.60 1.272
555.70 1.273
555.80 1.273
555.90 1.274
556.00 1.274
556.10 1.274
556.20 1.275
556.30 1.275
556.40 1.275
556.50 1.276
556.60 1.276
556.70 1.276
556.80 1.277
556.90 1.277
557.00 1.278
557.10 1.278
557.20 1.278
557.30 1.279
557.40 1.279
557.50 1.279
557.60 1.28
557.70 1.28
557.80 1.28
557.90 1.281
558.00 1.281
558.10 1.282
558.20 1.282
558.30 1.282
558.40 1.283
558.50 1.283
558.60 1.283
558.70 1.284
558.80 1.284
558.90 1.284
559.00 1.285
559.10 1.285
559.20 1.285
559.30 1.286
559.40 1.286
559.50 1.287
559.60 1.287
559.70 1.287
559.80 1.288
559.90 1.288
560.00 1.288
560.10 1.289
560.20 1.289
560.30 1.289
560.40 1.29
560.50 1.29
560.60 1.29
560.70 1.291
560.80 1.291
560.90 1.291
561.00 1.292
561.10 1.292
561.20 1.292
561.30 1.293
561.40 1.293
561.50 1.293
561.60 1.294
561.70 1.294
561.80 1.294
561.90 1.295
562.00 1.295
562.10 1.295
562.20 1.296
562.30 1.296
562.40 1.296
562.50 1.297
562.60 1.297
562.70 1.297
562.80 1.298
562.90 1.298
563.00 1.298
563.10 1.299
563.20 1.299
563.30 1.299
563.40 1.3
563.50 1.3
563.60 1.3
563.70 1.301
563.80 1.301
563.90 1.301
564.00 1.302
564.10 1.302
564.20 1.302
564.30 1.303
564.40 1.303
564.50 1.303
564.60 1.304
564.70 1.304
564.80 1.304
564.90 1.304
565.00 1.305
565.10 1.305
565.20 1.305
565.30 1.306
565.40 1.306
565.50 1.306
565.60 1.307
565.70 1.307
565.80 1.307
565.90 1.308
566.00 1.308
566.10 1.308
566.20 1.308
566.30 1.309
566.40 1.309
566.50 1.309
566.60 1.31
566.70 1.31
566.80 1.31
566.90 1.311
567.00 1.311
567.10 1.311
567.20 1.311
567.30 1.312
567.40 1.312
567.50 1.312
567.60 1.313
567.70 1.313
567.80 1.313
567.90 1.313
568.00 1.314
568.10 1.314
568.20 1.314
568.30 1.315
568.40 1.315
568.50 1.315
568.60 1.315
568.70 1.316
568.80 1.316
568.90 1.316
569.00 1.316
569.10 1.317
569.20 1.317
569.30 1.317
569.40 1.318
569.50 1.318
569.60 1.318
569.70 1.318
569.80 1.319
569.90 1.319
570.00 1.319
570.10 1.319
570.20 1.32
570.30 1.32
570.40 1.32
570.50 1.32
570.60 1.321
570.70 1.321
570.80 1.321
570.90 1.322
571.00 1.322
571.10 1.322
571.20 1.322
571.30 1.323
571.40 1.323
571.50 1.323
571.60 1.323
571.70 1.324
571.80 1.324
571.90 1.324
572.00 1.324
572.10 1.325
572.20 1.325
572.30 1.325
572.40 1.325
572.50 1.326
572.60 1.326
572.70 1.326
572.80 1.326
572.90 1.327
573.00 1.327
573.10 1.327
573.20 1.327
573.30 1.327
573.40 1.328
573.50 1.328
573.60 1.328
573.70 1.328
573.80 1.329
573.90 1.329
574.00 1.329
574.10 1.329
574.20 1.33
574.30 1.33
574.40 1.33
574.50 1.33
574.60 1.33
574.70 1.331
574.80 1.331
574.90 1.331
575.00 1.331
575.10 1.332
575.20 1.332
575.30 1.332
575.40 1.332
575.50 1.332
575.60 1.333
575.70 1.333
575.80 1.333
575.90 1.333
576.00 1.334
576.10 1.334
576.20 1.334
576.30 1.334
576.40 1.334
576.50 1.335
576.60 1.335
576.70 1.335
576.80 1.335
576.90 1.335
577.00 1.336
577.10 1.336
577.20 1.336
577.30 1.336
577.40 1.336
577.50 1.337
577.60 1.337
577.70 1.337
577.80 1.337
577.90 1.337
578.00 1.338
578.10 1.338
578.20 1.338
578.30 1.338
578.40 1.338
578.50 1.339
578.60 1.339
578.70 1.339
578.80 1.339
578.90 1.339
579.00 1.34
579.10 1.34
579.20 1.34
579.30 1.34
579.40 1.34
579.50 1.34
579.60 1.341
579.70 1.341
579.80 1.341
579.90 1.341
580.00 1.341
580.10 1.342
580.20 1.342
580.30 1.342
580.40 1.342
580.50 1.342
580.60 1.342
580.70 1.343
580.80 1.343
580.90 1.343
581.00 1.343
581.10 1.343
581.20 1.343
581.30 1.344
581.40 1.344
581.50 1.344
581.60 1.344
581.70 1.344
581.80 1.344
581.90 1.344
582.00 1.345
582.10 1.345
582.20 1.345
582.30 1.345
582.40 1.345
582.50 1.345
582.60 1.345
582.70 1.346
582.80 1.346
582.90 1.346
583.00 1.346
583.10 1.346
583.20 1.346
583.30 1.346
583.40 1.347
583.50 1.347
583.60 1.347
583.70 1.347
583.80 1.347
583.90 1.347
584.00 1.347
584.10 1.347
584.20 1.348
584.30 1.348
584.40 1.348
584.50 1.348
584.60 1.348
584.70 1.348
584.80 1.348
584.90 1.348
585.00 1.349
585.10 1.349
585.20 1.349
585.30 1.349
585.40 1.349
585.50 1.349
585.60 1.349
585.70 1.349
585.80 1.349
585.90 1.349
586.00 1.35
586.10 1.35
586.20 1.35
586.30 1.35
586.40 1.35
586.50 1.35
586.60 1.35
586.70 1.35
586.80 1.35
586.90 1.35
587.00 1.351
587.10 1.351
587.20 1.351
587.30 1.351
587.40 1.351
587.50 1.351
587.60 1.351
587.70 1.351
587.80 1.351
587.90 1.351
588.00 1.351
588.10 1.351
588.20 1.351
588.30 1.352
588.40 1.352
588.50 1.352
588.60 1.352
588.70 1.352
588.80 1.352
588.90 1.352
589.00 1.352
589.10 1.352
589.20 1.352
589.30 1.352
589.40 1.352
589.50 1.352
589.60 1.352
589.70 1.352
589.80 1.352
589.90 1.352
590.00 1.352
590.10 1.353
590.20 1.353
590.30 1.353
590.40 1.353
590.50 1.353
590.60 1.353
590.70 1.353
590.80 1.353
590.90 1.353
591.00 1.353
591.10 1.353
591.20 1.353
591.30 1.353
591.40 1.353
591.50 1.353
591.60 1.353
591.70 1.353
591.80 1.353
591.90 1.353
592.00 1.353
592.10 1.353
592.20 1.353
592.30 1.353
592.40 1.353
592.50 1.353
592.60 1.353
592.70 1.353
592.80 1.353
592.90 1.353
593.00 1.353
593.10 1.353
593.20 1.353
593.30 1.353
593.40 1.353
593.50 1.353
593.60 1.353
593.70 1.353
593.80 1.353
593.90 1.353
594.00 1.353
594.10 1.353
594.20 1.353
594.30 1.353
594.40 1.353
594.50 1.353
594.60 1.353
594.70 1.353
594.80 1.353
594.90 1.353
595.00 1.353
595.10 1.353
595.20 1.353
595.30 1.353
595.40 1.353
595.50 1.353
595.60 1.353
595.70 1.353
595.80 1.353
595.90 1.353
596.00 1.353
596.10 1.353
596.20 1.353
596.30 1.353
596.40 1.353
596.50 1.353
596.60 1.353
596.70 1.353
596.80 1.353
596.90 1.353
597.00 1.353
597.10 1.353
597.20 1.353
597.30 1.353
597.40 1.353
597.50 1.353
597.60 1.353
597.70 1.353
597.80 1.352
597.90 1.352
598.00 1.352
598.10 1.352
598.20 1.352
598.30 1.352
598.40 1.352
598.50 1.352
598.60 1.352
598.70 1.352
598.80 1.352
598.90 1.352
599.00 1.352
599.10 1.352
599.20 1.352
599.30 1.352
599.40 1.352
599.50 1.351
599.60 1.351
599.70 1.351
599.80 1.351
599.90 1.351
600.00 1.351
600.10 1.351
600.20 1.351
600.30 1.351
600.40 1.351
600.50 1.351
600.60 1.351
600.70 1.35
600.80 1.35
600.90 1.35
601.00 1.35
601.10 1.35
601.20 1.35
601.30 1.35
601.40 1.35
601.50 1.35
601.60 1.35
601.70 1.35
601.80 1.349
601.90 1.349
602.00 1.349
602.10 1.349
602.20 1.349
602.30 1.349
602.40 1.349
602.50 1.349
602.60 1.349
602.70 1.348
602.80 1.348
602.90 1.348
603.00 1.348
603.10 1.348
603.20 1.348
603.30 1.348
603.40 1.348
603.50 1.347
603.60 1.347
603.70 1.347
603.80 1.347
603.90 1.347
604.00 1.347
604.10 1.347
604.20 1.346
604.30 1.346
604.40 1.346
604.50 1.346
604.60 1.346
604.70 1.346
604.80 1.346
604.90 1.345
605.00 1.345
605.10 1.345
605.20 1.345
605.30 1.345
605.40 1.345
605.50 1.344
605.60 1.344
605.70 1.344
605.80 1.344
605.90 1.344
606.00 1.344
606.10 1.343
606.20 1.343
606.30 1.343
606.40 1.343
606.50 1.343
606.60 1.343
606.70 1.342
606.80 1.342
606.90 1.342
607.00 1.342
607.10 1.342
607.20 1.341
607.30 1.341
607.40 1.341
607.50 1.341
607.60 1.341
607.70 1.34
607.80 1.34
607.90 1.34
608.00 1.34
608.10 1.34
608.20 1.34
608.30 1.339
608.40 1.339
608.50 1.339
608.60 1.339
608.70 1.338
608.80 1.338
608.90 1.338
609.00 1.338
609.10 1.338
609.20 1.337
609.30 1.337
609.40 1.337
609.50 1.337
609.60 1.337
609.70 1.336
609.80 1.336
609.90 1.336
610.00 1.336
610.10 1.335
610.20 1.335
610.30 1.335
610.40 1.335
610.50 1.334
610.60 1.334
610.70 1.334
610.80 1.334
610.90 1.333
611.00 1.333
611.10 1.333
611.20 1.333
611.30 1.332
611.40 1.332
611.50 1.332
611.60 1.332
611.70 1.331
611.80 1.331
611.90 1.331
612.00 1.331
612.10 1.33
612.20 1.33
612.30 1.33
612.40 1.33
612.50 1.329
612.60 1.329
612.70 1.329
612.80 1.329
612.90 1.328
613.00 1.328
613.10 1.328
613.20 1.327
613.30 1.327
613.40 1.327
613.50 1.327
613.60 1.326
613.70 1.326
613.80 1.326
613.90 1.325
614.00 1.325
614.10 1.325
614.20 1.324
614.30 1.324
614.40 1.324
614.50 1.324
614.60 1.323
614.70 1.323
614.80 1.323
614.90 1.322
615.00 1.322
615.10 1.322
615.20 1.321
615.30 1.321
615.40 1.321
615.50 1.32
615.60 1.32
615.70 1.32
615.80 1.319
615.90 1.319
616.00 1.319
616.10 1.318
616.20 1.318
616.30 1.318
616.40 1.317
616.50 1.317
616.60 1.317
616.70 1.316
616.80 1.316
616.90 1.316
617.00 1.315
617.10 1.315
617.20 1.314
617.30 1.314
617.40 1.314
617.50 1.313
617.60 1.313
617.70 1.313
617.80 1.312
617.90 1.312
618.00 1.312
618.10 1.311
618.20 1.311
618.30 1.31
618.40 1.31
618.50 1.31
618.60 1.309
618.70 1.309
618.80 1.309
618.90 1.308
619.00 1.308
619.10 1.307
619.20 1.307
619.30 1.307
619.40 1.306
619.50 1.306
619.60 1.305
619.70 1.305
619.80 1.305
619.90 1.304
620.00 1.304
620.10 1.303
620.20 1.303
620.30 1.303
620.40 1.302
620.50 1.302
620.60 1.301
620.70 1.301
620.80 1.301
620.90 1.3
621.00 1.3
621.10 1.299
621.20 1.299
621.30 1.298
621.40 1.298
621.50 1.298
621.60 1.297
621.70 1.297
621.80 1.296
621.90 1.296
622.00 1.295
622.10 1.295
622.20 1.295
622.30 1.294
622.40 1.294
622.50 1.293
622.60 1.293
622.70 1.292
622.80 1.292
622.90 1.292
623.00 1.291
623.10 1.291
623.20 1.29
623.30 1.29
623.40 1.289
623.50 1.289
623.60 1.288
623.70 1.288
623.80 1.287
623.90 1.287
624.00 1.287
624.10 1.286
624.20 1.286
624.30 1.285
624.40 1.285
624.50 1.284
624.60 1.284
624.70 1.283
624.80 1.283
624.90 1.282
625.00 1.282
625.10 1.281
625.20 1.281
625.30 1.28
625.40 1.28
625.50 1.279
625.60 1.279
625.70 1.278
625.80 1.278
625.90 1.277
626.00 1.277
626.10 1.276
626.20 1.276
626.30 1.275
626.40 1.275
626.50 1.274
626.60 1.274
626.70 1.273
626.80 1.273
626.90 1.272
627.00 1.272
627.10 1.271
627.20 1.271
627.30 1.27
627.40 1.27
627.50 1.269
627.60 1.269
627.70 1.268
627.80 1.268
627.90 1.267
628.00 1.267
628.10 1.266
628.20 1.266
628.30 1.265
628.40 1.264
628.50 1.264
628.60 1.263
628.70 1.263
628.80 1.262
628.90 1.262
629.00 1.261
629.10 1.261
629.20 1.26
629.30 1.26
629.40 1.259
629.50 1.258
629.60 1.258
629.70 1.257
629.80 1.257
629.90 1.256
630.00 1.256
630.10 1.255
630.20 1.255
630.30 1.254
630.40 1.253
630.50 1.253
630.60 1.252
630.70 1.252
630.80 1.251
630.90 1.251
631.00 1.25
631.10 1.249
631.20 1.249
631.30 1.248
631.40 1.248
631.50 1.247
631.60 1.246
631.70 1.246
631.80 1.245
631.90 1.245
632.00 1.244
632.10 1.244
632.20 1.243
632.30 1.242
632.40 1.242
632.50 1.241
632.60 1.24
632.70 1.24
632.80 1.239
632.90 1.239
633.00 1.238
633.10 1.237
633.20 1.237
633.30 1.236
633.40 1.236
633.50 1.235
633.60 1.234
633.70 1.234
633.80 1.233
633.90 1.232
634.00 1.232
634.10 1.231
634.20 1.231
634.30 1.23
634.40 1.229
634.50 1.229
634.60 1.228
634.70 1.227
634.80 1.227
634.90 1.226
635.00 1.225
635.10 1.225
635.20 1.224
635.30 1.223
635.40 1.223
635.50 1.222
635.60 1.222
635.70 1.221
635.80 1.22
635.90 1.22
636.00 1.219
636.10 1.218
636.20 1.218
636.30 1.217
636.40 1.216
636.50 1.216
636.60 1.215
636.70 1.214
636.80 1.214
636.90 1.213
637.00 1.212
637.10 1.211
637.20 1.211
637.30 1.21
637.40 1.209
637.50 1.209
637.60 1.208
637.70 1.207
637.80 1.207
637.90 1.206
638.00 1.205
638.10 1.205
638.20 1.204
638.30 1.203
638.40 1.203
638.50 1.202
638.60 1.201
638.70 1.2
638.80 1.2
638.90 1.199
639.00 1.198
639.10 1.198
639.20 1.197
639.30 1.196
639.40 1.196
639.50 1.195
639.60 1.194
639.70 1.193
639.80 1.193
639.90 1.192
640.00 1.191
640.10 1.19
640.20 1.19
640.30 1.189
640.40 1.188
640.50 1.188
640.60 1.187
640.70 1.186
640.80 1.185
640.90 1.185
641.00 1.184
641.10 1.183
641.20 1.182
641.30 1.182
641.40 1.181
641.50 1.18
641.60 1.179
641.70 1.179
641.80 1.178
641.90 1.177
642.00 1.176
642.10 1.175
642.20 1.175
642.30 1.174
642.40 1.173
642.50 1.172
642.60 1.172
642.70 1.171
642.80 1.17
642.90 1.169
643.00 1.168
643.10 1.168
643.20 1.167
643.30 1.166
643.40 1.165
643.50 1.164
643.60 1.164
643.70 1.163
643.80 1.162
643.90 1.161
644.00 1.16
644.10 1.16
644.20 1.159
644.30 1.158
644.40 1.157
644.50 1.156
644.60 1.156
644.70 1.155
644.80 1.154
644.90 1.153
645.00 1.152
645.10 1.151
645.20 1.151
645.30 1.15
645.40 1.149
645.50 1.148
645.60 1.147
645.70 1.147
645.80 1.146
645.90 1.145
646.00 1.144
646.10 1.143
646.20 1.142
646.30 1.142
646.40 1.141
646.50 1.14
646.60 1.139
646.70 1.138
646.80 1.137
646.90 1.137
647.00 1.136
647.10 1.135
647.20 1.134
647.30 1.133
647.40 1.132
647.50 1.132
647.60 1.131
647.70 1.13
647.80 1.129
647.90 1.128
648.00 1.127
648.10 1.126
648.20 1.126
648.30 1.125
648.40 1.124
648.50 1.123
648.60 1.122
648.70 1.121
648.80 1.12
648.90 1.12
649.00 1.119
649.10 1.118
649.20 1.117
649.30 1.116
649.40 1.115
649.50 1.114
649.60 1.113
649.70 1.113
649.80 1.112
649.90 1.111
650.00 1.11
650.10 1.109
650.20 1.108
650.30 1.107
650.40 1.106
650.50 1.105
650.60 1.105
650.70 1.104
650.80 1.103
650.90 1.102
651.00 1.101
651.10 1.1
651.20 1.099
651.30 1.098
651.40 1.097
651.50 1.096
651.60 1.096
651.70 1.095
651.80 1.094
651.90 1.093
652.00 1.092
652.10 1.091
652.20 1.09
652.30 1.089
652.40 1.088
652.50 1.087
652.60 1.086
652.70 1.085
652.80 1.085
652.90 1.084
653.00 1.083
653.10 1.082
653.20 1.081
653.30 1.08
653.40 1.079
653.50 1.078
653.60 1.077
653.70 1.076
653.80 1.075
653.90 1.074
654.00 1.073
654.10 1.072
654.20 1.071
654.30 1.071
654.40 1.07
654.50 1.069
654.60 1.068
654.70 1.067
654.80 1.066
654.90 1.065
655.00 1.064
655.10 1.063
655.20 1.062
655.30 1.061
655.40 1.06
655.50 1.059
655.60 1.058
655.70 1.057
655.80 1.056
655.90 1.055
656.00 1.054
656.10 1.053
656.20 1.052
656.30 1.051
656.40 1.05
656.50 1.049
656.60 1.048
656.70 1.047
656.80 1.046
656.90 1.046
657.00 1.045
657.10 1.044
657.20 1.043
657.30 1.042
657.40 1.041
657.50 1.04
657.60 1.039
657.70 1.038
657.80 1.037
657.90 1.036
658.00 1.035
658.10 1.034
658.20 1.033
658.30 1.032
658.40 1.031
658.50 1.03
658.60 1.029
658.70 1.028
658.80 1.027
658.90 1.026
659.00 1.025
659.10 1.024
659.20 1.023
659.30 1.022
659.40 1.021
659.50 1.02
659.60 1.019
659.70 1.018
659.80 1.017
659.90 1.016
660.00 1.015
660.10 1.014
660.20 1.013
660.30 1.012
660.40 1.011
660.50 1.01
660.60 1.009
660.70 1.008
660.80 1.007
660.90 1.006
661.00 1.004
661.10 1.003
661.20 1.002
661.30 1.001
661.40 1
661.50 0.9994
661.60 0.9983
661.70 0.9973
661.80 0.9963
661.90 0.9952
662.00 0.9942
662.10 0.9932
662.20 0.9921
662.30 0.9911
662.40 0.9901
662.50 0.989
662.60 0.988
662.70 0.9869
662.80 0.9859
662.90 0.9848
663.00 0.9838
663.10 0.9827
663.20 0.9817
663.30 0.9807
663.40 0.9796
663.50 0.9785
663.60 0.9775
663.70 0.9764
663.80 0.9754
663.90 0.9743
664.00 0.9733
664.10 0.9722
664.20 0.9712
664.30 0.9701
664.40 0.969
664.50 0.968
664.60 0.9669
664.70 0.9658
664.80 0.9648
664.90 0.9637
665.00 0.9627
665.10 0.9616
665.20 0.9605
665.30 0.9595
665.40 0.9584
665.50 0.9573
665.60 0.9562
665.70 0.9552
665.80 0.9541
665.90 0.953
666.00 0.952
666.10 0.9509
666.20 0.9498
666.30 0.9487
666.40 0.9476
666.50 0.9466
666.60 0.9455
666.70 0.9444
666.80 0.9433
666.90 0.9422
667.00 0.9411
667.10 0.9401
667.20 0.939
667.30 0.9379
667.40 0.9368
667.50 0.9357
667.60 0.9346
667.70 0.9335
667.80 0.9324
667.90 0.9313
668.00 0.9302
668.10 0.9291
668.20 0.928
668.30 0.9269
668.40 0.9258
668.50 0.9247
668.60 0.9236
668.70 0.9225
668.80 0.9214
668.90 0.9203
669.00 0.9192
669.10 0.9181
669.20 0.917
669.30 0.9159
669.40 0.9148
669.50 0.9137
669.60 0.9126
669.70 0.9115
669.80 0.9104
669.90 0.9093
670.00 0.9081
670.10 0.907
670.20 0.9059
670.30 0.9048
670.40 0.9037
670.50 0.9026
670.60 0.9015
670.70 0.9003
670.80 0.8992
670.90 0.8981
671.00 0.897
671.10 0.8959
671.20 0.8948
671.30 0.8937
671.40 0.8925
671.50 0.8914
671.60 0.8903
671.70 0.8891
671.80 0.888
671.90 0.8869
672.00 0.8858
672.10 0.8846
672.20 0.8835
672.30 0.8824
672.40 0.8813
672.50 0.8801
672.60 0.879
672.70 0.8779
672.80 0.8767
672.90 0.8756
673.00 0.8745
673.10 0.8733
673.20 0.8722
673.30 0.8711
673.40 0.8699
673.50 0.8688
673.60 0.8677
673.70 0.8665
673.80 0.8654
673.90 0.8643
674.00 0.8631
674.10 0.862
674.20 0.8609
674.30 0.8597
674.40 0.8586
674.50 0.8574
674.60 0.8563
674.70 0.8551
674.80 0.854
674.90 0.8529
675.00 0.8517
675.10 0.8506
675.20 0.8494
675.30 0.8483
675.40 0.8471
675.50 0.846
675.60 0.8448
675.70 0.8437
675.80 0.8425
675.90 0.8414
676.00 0.8403
676.10 0.8391
676.20 0.838
676.30 0.8368
676.40 0.8357
676.50 0.8345
676.60 0.8334
676.70 0.8322
676.80 0.831
676.90 0.8299
677.00 0.8287
677.10 0.8276
677.20 0.8264
677.30 0.8253
677.40 0.8241
677.50 0.823
677.60 0.8218
677.70 0.8207
677.80 0.8195
677.90 0.8184
678.00 0.8172
678.10 0.8161
678.20 0.8149
678.30 0.8138
678.40 0.8126
678.50 0.8115
678.60 0.8103
678.70 0.8091
678.80 0.808
678.90 0.8068
679.00 0.8057
679.10 0.8045
679.20 0.8033
679.30 0.8022
679.40 0.801
679.50 0.7999
679.60 0.7987
679.70 0.7975
679.80 0.7964
679.90 0.7952
680.00 0.794
680.10 0.7929
680.20 0.7917
680.30 0.7906
680.40 0.7894
680.50 0.7882
680.60 0.7871
680.70 0.7859
680.80 0.7847
680.90 0.7836
681.00 0.7824
681.10 0.7812
681.20 0.7801
681.30 0.7789
681.40 0.7778
681.50 0.7766
681.60 0.7754
681.70 0.7742
681.80 0.7731
681.90 0.7719
682.00 0.7707
682.10 0.7696
682.20 0.7684
682.30 0.7672
682.40 0.7661
682.50 0.7649
682.60 0.7637
682.70 0.7625
682.80 0.7614
682.90 0.7602
683.00 0.759
683.10 0.7579
683.20 0.7567
683.30 0.7555
683.40 0.7544
683.50 0.7532
683.60 0.752
683.70 0.7508
683.80 0.7497
683.90 0.7485
684.00 0.7473
684.10 0.7462
684.20 0.745
684.30 0.7438
684.40 0.7426
684.50 0.7415
684.60 0.7403
684.70 0.7391
684.80 0.738
684.90 0.7368
685.00 0.7356
685.10 0.7344
685.20 0.7333
685.30 0.7321
685.40 0.7309
685.50 0.7298
685.60 0.7286
685.70 0.7274
685.80 0.7263
685.90 0.7251
686.00 0.7239
686.10 0.7227
686.20 0.7216
686.30 0.7204
686.40 0.7192
686.50 0.7181
686.60 0.7169
686.70 0.7157
686.80 0.7146
686.90 0.7134
687.00 0.7122
687.10 0.7111
687.20 0.7099
687.30 0.7087
687.40 0.7076
687.50 0.7064
687.60 0.7052
687.70 0.7041
687.80 0.7029
687.90 0.7017
688.00 0.7006
688.10 0.6994
688.20 0.6982
688.30 0.6971
688.40 0.6959
688.50 0.6947
688.60 0.6936
688.70 0.6924
688.80 0.6912
688.90 0.6901
689.00 0.6889
689.10 0.6877
689.20 0.6866
689.30 0.6854
689.40 0.6843
689.50 0.6831
689.60 0.6819
689.70 0.6808
689.80 0.6796
689.90 0.6784
690.00 0.6773
690.10 0.6761
690.20 0.6749
690.30 0.6738
690.40 0.6726
690.50 0.6715
690.60 0.6703
690.70 0.6691
690.80 0.668
690.90 0.6668
691.00 0.6657
691.10 0.6645
691.20 0.6633
691.30 0.6622
691.40 0.661
691.50 0.6599
691.60 0.6587
691.70 0.6576
691.80 0.6564
691.90 0.6553
692.00 0.6541
692.10 0.653
692.20 0.6518
692.30 0.6507
692.40 0.6495
692.50 0.6484
692.60 0.6472
692.70 0.6461
692.80 0.6449
692.90 0.6438
693.00 0.6426
693.10 0.6415
693.20 0.6404
693.30 0.6392
693.40 0.6381
693.50 0.6369
693.60 0.6358
693.70 0.6346
693.80 0.6335
693.90 0.6324
694.00 0.6312
694.10 0.6301
694.20 0.629
694.30 0.6278
694.40 0.6267
694.50 0.6256
694.60 0.6244
694.70 0.6233
694.80 0.6221
694.90 0.621
695.00 0.6199
695.10 0.6188
695.20 0.6177
695.30 0.6165
695.40 0.6154
695.50 0.6143
695.60 0.6132
695.70 0.6121
695.80 0.611
695.90 0.6099
696.00 0.6087
696.10 0.6076
696.20 0.6065
696.30 0.6054
696.40 0.6043
696.50 0.6032
696.60 0.6021
696.70 0.601
696.80 0.5999
696.90 0.5988
697.00 0.5977
697.10 0.5966
697.20 0.5955
697.30 0.5944
697.40 0.5933
697.50 0.5921
697.60 0.591
697.70 0.5899
697.80 0.5888
697.90 0.5877
698.00 0.5866
698.10 0.5855
698.20 0.5845
698.30 0.5834
698.40 0.5823
698.50 0.5812
698.60 0.5801
698.70 0.579
698.80 0.5779
698.90 0.5768
699.00 0.5757
699.10 0.5746
699.20 0.5735
699.30 0.5724
699.40 0.5713
699.50 0.5702
699.60 0.5691
699.70 0.5681
699.80 0.567
699.90 0.5659
700.00 0.5648
700.10 0.5637
700.20 0.5627
700.30 0.5616
700.40 0.5606
700.50 0.5595
700.60 0.5584
700.70 0.5574
700.80 0.5563
700.90 0.5553
701.00 0.5542
701.10 0.5532
701.20 0.5521
701.30 0.5511
701.40 0.55
701.50 0.549
701.60 0.5479
701.70 0.5469
701.80 0.5458
701.90 0.5448
702.00 0.5437
702.10 0.5427
702.20 0.5416
702.30 0.5406
702.40 0.5395
702.50 0.5385
702.60 0.5375
702.70 0.5364
702.80 0.5354
702.90 0.5343
703.00 0.5333
703.10 0.5322
703.20 0.5312
703.30 0.5302
703.40 0.5291
703.50 0.5281
703.60 0.527
703.70 0.526
703.80 0.525
703.90 0.5239
704.00 0.5229
704.10 0.5219
704.20 0.5208
704.30 0.5198
704.40 0.5188
704.50 0.5177
704.60 0.5167
704.70 0.5157
704.80 0.5146
704.90 0.5136
705.00 0.5126
705.10 0.5116
705.20 0.5106
705.30 0.5096
705.40 0.5086
705.50 0.5077
705.60 0.5067
705.70 0.5057
705.80 0.5047
705.90 0.5038
706.00 0.5028
706.10 0.5018
706.20 0.5008
706.30 0.4999
706.40 0.4989
706.50 0.4979
706.60 0.497
706.70 0.496
706.80 0.495
706.90 0.494
707.00 0.4931
707.10 0.4921
707.20 0.4911
707.30 0.4902
707.40 0.4892
707.50 0.4882
707.60 0.4873
707.70 0.4863
707.80 0.4853
707.90 0.4844
708.00 0.4834
708.10 0.4825
708.20 0.4815
708.30 0.4805
708.40 0.4796
708.50 0.4786
708.60 0.4776
708.70 0.4767
708.80 0.4757
708.90 0.4748
709.00 0.4738
709.10 0.4729
709.20 0.4719
709.30 0.4709
709.40 0.47
709.50 0.469
709.60 0.4681
709.70 0.4671
709.80 0.4662
709.90 0.4652
710.00 0.4643
710.10 0.4634
710.20 0.4625
710.30 0.4616
710.40 0.4607
710.50 0.4598
710.60 0.4589
710.70 0.458
710.80 0.4571
710.90 0.4562
711.00 0.4554
711.10 0.4545
711.20 0.4536
711.30 0.4527
711.40 0.4518
711.50 0.4509
711.60 0.45
711.70 0.4492
711.80 0.4483
711.90 0.4474
712.00 0.4465
712.10 0.4456
712.20 0.4447
712.30 0.4439
712.40 0.443
712.50 0.4421
712.60 0.4412
712.70 0.4403
712.80 0.4395
712.90 0.4386
713.00 0.4377
713.10 0.4368
713.20 0.436
713.30 0.4351
713.40 0.4342
713.50 0.4333
713.60 0.4325
713.70 0.4316
713.80 0.4307
713.90 0.4298
714.00 0.429
714.10 0.4281
714.20 0.4272
714.30 0.4263
714.40 0.4255
714.50 0.4246
714.60 0.4237
714.70 0.4229
714.80 0.422
714.90 0.4211
715.00 0.4203
715.10 0.4195
715.20 0.4187
715.30 0.4179
715.40 0.4171
715.50 0.4163
715.60 0.4155
715.70 0.4147
715.80 0.4139
715.90 0.4131
716.00 0.4123
716.10 0.4115
716.20 0.4107
716.30 0.4099
716.40 0.4091
716.50 0.4083
716.60 0.4075
716.70 0.4067
716.80 0.4059
716.90 0.4051
717.00 0.4044
717.10 0.4036
717.20 0.4028
717.30 0.402
717.40 0.4012
717.50 0.4004
717.60 0.3996
717.70 0.3988
717.80 0.398
717.90 0.3972
718.00 0.3965
718.10 0.3957
718.20 0.3949
718.30 0.3941
718.40 0.3933
718.50 0.3925
718.60 0.3918
718.70 0.391
718.80 0.3902
718.90 0.3894
719.00 0.3886
719.10 0.3878
719.20 0.3871
719.30 0.3863
719.40 0.3855
719.50 0.3847
719.60 0.3839
719.70 0.3831
719.80 0.3824
719.90 0.3816
720.00 0.3808
720.10 0.3801
720.20 0.3794
720.30 0.3787
720.40 0.378
720.50 0.3773
720.60 0.3766
720.70 0.376
720.80 0.3753
720.90 0.3746
721.00 0.3739
721.10 0.3732
721.20 0.3725
721.30 0.3718
721.40 0.3711
721.50 0.3704
721.60 0.3697
721.70 0.369
721.80 0.3684
721.90 0.3677
722.00 0.367
722.10 0.3663
722.20 0.3656
722.30 0.3649
722.40 0.3642
722.50 0.3635
722.60 0.3629
722.70 0.3622
722.80 0.3615
722.90 0.3608
723.00 0.3601
723.10 0.3594
723.20 0.3588
723.30 0.3581
723.40 0.3574
723.50 0.3567
723.60 0.356
723.70 0.3553
723.80 0.3547
723.90 0.354
724.00 0.3533
724.10 0.3526
724.20 0.3519
724.30 0.3513
724.40 0.3506
724.50 0.3499
724.60 0.3492
724.70 0.3485
724.80 0.3479
724.90 0.3472
725.00 0.3465
725.10 0.3459
725.20 0.3453
725.30 0.3447
725.40 0.3441
725.50 0.3435
725.60 0.3429
725.70 0.3424
725.80 0.3418
725.90 0.3412
726.00 0.3406
726.10 0.34
726.20 0.3394
726.30 0.3388
726.40 0.3382
726.50 0.3376
726.60 0.337
726.70 0.3365
726.80 0.3359
726.90 0.3353
727.00 0.3347
727.10 0.3341
727.20 0.3335
727.30 0.3329
727.40 0.3323
727.50 0.3318
727.60 0.3312
727.70 0.3306
727.80 0.33
727.90 0.3294
728.00 0.3288
728.10 0.3282
728.20 0.3277
728.30 0.3271
728.40 0.3265
728.50 0.3259
728.60 0.3253
728.70 0.3247
728.80 0.3242
728.90 0.3236
729.00 0.323
729.10 0.3224
729.20 0.3218
729.30 0.3212
729.40 0.3207
729.50 0.3201
729.60 0.3195
729.70 0.3189
729.80 0.3183
729.90 0.3178
730.00 0.3172
730.10 0.3168
730.20 0.3163
730.30 0.3159
730.40 0.3154
730.50 0.315
730.60 0.3146
730.70 0.3141
730.80 0.3137
730.90 0.3133
731.00 0.3128
731.10 0.3124
731.20 0.312
731.30 0.3115
731.40 0.3111
731.50 0.3107
731.60 0.3102
731.70 0.3098
731.80 0.3094
731.90 0.3089
732.00 0.3085
732.10 0.3081
732.20 0.3076
732.30 0.3072
732.40 0.3068
732.50 0.3063
732.60 0.3059
732.70 0.3055
732.80 0.305
732.90 0.3046
733.00 0.3042
733.10 0.3037
733.20 0.3033
733.30 0.3029
733.40 0.3025
733.50 0.302
733.60 0.3016
733.70 0.3012
733.80 0.3007
733.90 0.3003
734.00 0.2999
734.10 0.2995
734.20 0.299
734.30 0.2986
734.40 0.2982
734.50 0.2977
734.60 0.2973
734.70 0.2969
734.80 0.2965
734.90 0.296
735.00 0.2956
735.10 0.2952
735.20 0.2948
735.30 0.2943
735.40 0.2939
735.50 0.2935
735.60 0.2931
735.70 0.2926
735.80 0.2922
735.90 0.2918
736.00 0.2914
736.10 0.2909
736.20 0.2905
736.30 0.2901
736.40 0.2897
736.50 0.2892
736.60 0.2888
736.70 0.2884
736.80 0.288
736.90 0.2876
737.00 0.2871
737.10 0.2867
737.20 0.2863
737.30 0.2859
737.40 0.2854
737.50 0.285
737.60 0.2846
737.70 0.2842
737.80 0.2838
737.90 0.2833
738.00 0.2829
738.10 0.2825
738.20 0.2821
738.30 0.2817
738.40 0.2813
738.50 0.2808
738.60 0.2804
738.70 0.28
738.80 0.2796
738.90 0.2792
739.00 0.2787
739.10 0.2783
739.20 0.2779
739.30 0.2775
739.40 0.2771
739.50 0.2767
739.60 0.2762
739.70 0.2758
739.80 0.2754
739.90 0.275
740.00 0.2746
740.10 0.2743
740.20 0.2741
740.30 0.2738
740.40 0.2735
740.50 0.2733
740.60 0.273
740.70 0.2727
740.80 0.2725
740.90 0.2722
741.00 0.272
741.10 0.2717
741.20 0.2714
741.30 0.2712
741.40 0.2709
741.50 0.2707
741.60 0.2704
741.70 0.2701
741.80 0.2699
741.90 0.2696
742.00 0.2693
742.10 0.2691
742.20 0.2688
742.30 0.2686
742.40 0.2683
742.50 0.268
742.60 0.2678
742.70 0.2675
742.80 0.2673
742.90 0.267
743.00 0.2668
743.10 0.2665
743.20 0.2662
743.30 0.266
743.40 0.2657
743.50 0.2655
743.60 0.2652
743.70 0.2649
743.80 0.2647
743.90 0.2644
744.00 0.2642
744.10 0.2639
744.20 0.2637
744.30 0.2634
744.40 0.2631
744.50 0.2629
744.60 0.2626
744.70 0.2624
744.80 0.2621
744.90 0.2619
745.00 0.2616
745.10 0.2613
745.20 0.2611
745.30 0.2608
745.40 0.2606
745.50 0.2603
745.60 0.2601
745.70 0.2598
745.80 0.2596
745.90 0.2593
746.00 0.259
746.10 0.2588
746.20 0.2585
746.30 0.2583
746.40 0.258
746.50 0.2578
746.60 0.2575
746.70 0.2573
746.80 0.257
746.90 0.2567
747.00 0.2565
747.10 0.2562
747.20 0.256
747.30 0.2557
747.40 0.2555
747.50 0.2552
747.60 0.255
747.70 0.2547
747.80 0.2545
747.90 0.2542
748.00 0.254
748.10 0.2537
748.20 0.2535
748.30 0.2532
748.40 0.253
748.50 0.2527
748.60 0.2524
748.70 0.2522
748.80 0.2519
748.90 0.2517
749.00 0.2514
749.10 0.2512
749.20 0.2509
749.30 0.2507
749.40 0.2504
749.50 0.2502
749.60 0.2499
749.70 0.2497
749.80 0.2494
749.90 0.2492
750.00 0.2489
750.10 0.2488
750.20 0.2486
750.30 0.2484
750.40 0.2483
750.50 0.2481
750.60 0.2479
750.70 0.2478
750.80 0.2476
750.90 0.2475
751.00 0.2473
751.10 0.2471
751.20 0.247
751.30 0.2468
751.40 0.2466
751.50 0.2465
751.60 0.2463
751.70 0.2461
751.80 0.246
751.90 0.2458
752.00 0.2456
752.10 0.2455
752.20 0.2453
752.30 0.2452
752.40 0.245
752.50 0.2448
752.60 0.2447
752.70 0.2445
752.80 0.2443
752.90 0.2442
753.00 0.244
753.10 0.2439
753.20 0.2437
753.30 0.2435
753.40 0.2434
753.50 0.2432
753.60 0.243
753.70 0.2429
753.80 0.2427
753.90 0.2426
754.00 0.2424
754.10 0.2422
754.20 0.2421
754.30 0.2419
754.40 0.2417
754.50 0.2416
754.60 0.2414
754.70 0.2413
754.80 0.2411
754.90 0.2409
755.00 0.2408
755.10 0.2406
755.20 0.2405
755.30 0.2403
755.40 0.2401
755.50 0.24
755.60 0.2398
755.70 0.2396
755.80 0.2395
755.90 0.2393
756.00 0.2392
756.10 0.239
756.20 0.2388
756.30 0.2387
756.40 0.2385
756.50 0.2384
756.60 0.2382
756.70 0.238
756.80 0.2379
756.90 0.2377
757.00 0.2376
757.10 0.2374
757.20 0.2372
757.30 0.2371
757.40 0.2369
757.50 0.2368
757.60 0.2366
757.70 0.2364
757.80 0.2363
757.90 0.2361
758.00 0.236
758.10 0.2358
758.20 0.2357
758.30 0.2355
758.40 0.2353
758.50 0.2352
758.60 0.235
758.70 0.2349
758.80 0.2347
758.90 0.2345
759.00 0.2344
759.10 0.2342
759.20 0.2341
759.30 0.2339
759.40 0.2338
759.50 0.2336
759.60 0.2334
759.70 0.2333
759.80 0.2331
759.90 0.233
760.00 0.2328
760.10 0.2327
760.20 0.2326
760.30 0.2325
760.40 0.2324
760.50 0.2323
760.60 0.2321
760.70 0.232
760.80 0.2319
760.90 0.2318
761.00 0.2317
761.10 0.2316
761.20 0.2315
761.30 0.2314
761.40 0.2313
761.50 0.2311
761.60 0.231
761.70 0.2309
761.80 0.2308
761.90 0.2307
762.00 0.2306
762.10 0.2305
762.20 0.2304
762.30 0.2303
762.40 0.2302
762.50 0.23
762.60 0.2299
762.70 0.2298
762.80 0.2297
762.90 0.2296
763.00 0.2295
763.10 0.2294
763.20 0.2293
763.30 0.2292
763.40 0.2291
763.50 0.229
763.60 0.2288
763.70 0.2287
763.80 0.2286
763.90 0.2285
764.00 0.2284
764.10 0.2283
764.20 0.2282
764.30 0.2281
764.40 0.228
764.50 0.2279
764.60 0.2278
764.70 0.2276
764.80 0.2275
764.90 0.2274
765.00 0.2273
765.10 0.2272
765.20 0.2271
765.30 0.227
765.40 0.2269
765.50 0.2268
765.60 0.2267
765.70 0.2266
765.80 0.2264
765.90 0.2263
766.00 0.2262
766.10 0.2261
766.20 0.226
766.30 0.2259
766.40 0.2258
766.50 0.2257
766.60 0.2256
766.70 0.2255
766.80 0.2254
766.90 0.2253
767.00 0.2252
767.10 0.225
767.20 0.2249
767.30 0.2248
767.40 0.2247
767.50 0.2246
767.60 0.2245
767.70 0.2244
767.80 0.2243
767.90 0.2242
768.00 0.2241
768.10 0.224
768.20 0.2239
768.30 0.2238
768.40 0.2237
768.50 0.2235
768.60 0.2234
768.70 0.2233
768.80 0.2232
768.90 0.2231
769.00 0.223
769.10 0.2229
769.20 0.2228
769.30 0.2227
769.40 0.2226
769.50 0.2225
769.60 0.2224
769.70 0.2223
769.80 0.2222
769.90 0.2221
770.00 0.2219
770.10 0.2219
770.20 0.2218
770.30 0.2218
770.40 0.2217
770.50 0.2217
770.60 0.2216
770.70 0.2216
770.80 0.2215
770.90 0.2215
771.00 0.2214
771.10 0.2214
771.20 0.2213
771.30 0.2213
771.40 0.2212
771.50 0.2212
771.60 0.2211
771.70 0.2211
771.80 0.221
771.90 0.221
772.00 0.2209
772.10 0.2209
772.20 0.2208
772.30 0.2208
772.40 0.2207
772.50 0.2207
772.60 0.2206
772.70 0.2206
772.80 0.2205
772.90 0.2205
773.00 0.2204
773.10 0.2204
773.20 0.2203
773.30 0.2203
773.40 0.2202
773.50 0.2202
773.60 0.2201
773.70 0.2201
773.80 0.22
773.90 0.22
774.00 0.2199
774.10 0.2199
774.20 0.2198
774.30 0.2198
774.40 0.2197
774.50 0.2196
774.60 0.2196
774.70 0.2195
774.80 0.2195
774.90 0.2194
775.00 0.2194
775.10 0.2193
775.20 0.2193
775.30 0.2192
775.40 0.2192
775.50 0.2191
775.60 0.2191
775.70 0.219
775.80 0.219
775.90 0.2189
776.00 0.2189
776.10 0.2188
776.20 0.2188
776.30 0.2187
776.40 0.2187
776.50 0.2186
776.60 0.2186
776.70 0.2185
776.80 0.2185
776.90 0.2184
777.00 0.2184
777.10 0.2183
777.20 0.2183
777.30 0.2182
777.40 0.2182
777.50 0.2181
777.60 0.2181
777.70 0.218
777.80 0.218
777.90 0.2179
778.00 0.2179
778.10 0.2178
778.20 0.2178
778.30 0.2177
778.40 0.2177
778.50 0.2176
778.60 0.2176
778.70 0.2175
778.80 0.2175
778.90 0.2174
779.00 0.2174
779.10 0.2173
779.20 0.2173
779.30 0.2172
779.40 0.2172
779.50 0.2171
779.60 0.2171
779.70 0.217
779.80 0.217
779.90 0.2169
780.00 0.2169
780.10 0.2169
780.20 0.2169
780.30 0.217
780.40 0.217
780.50 0.217
780.60 0.217
780.70 0.2171
780.80 0.2171
780.90 0.2171
781.00 0.2171
781.10 0.2172
781.20 0.2172
781.30 0.2172
781.40 0.2172
781.50 0.2173
781.60 0.2173
781.70 0.2173
781.80 0.2173
781.90 0.2174
782.00 0.2174
782.10 0.2174
782.20 0.2174
782.30 0.2175
782.40 0.2175
782.50 0.2175
782.60 0.2175
782.70 0.2176
782.80 0.2176
782.90 0.2176
783.00 0.2176
783.10 0.2176
783.20 0.2177
783.30 0.2177
783.40 0.2177
783.50 0.2177
783.60 0.2178
783.70 0.2178
783.80 0.2178
783.90 0.2178
784.00 0.2179
784.10 0.2179
784.20 0.2179
784.30 0.2179
784.40 0.218
784.50 0.218
784.60 0.218
784.70 0.218
784.80 0.2181
784.90 0.2181
785.00 0.2181
785.10 0.2181
785.20 0.2182
785.30 0.2182
785.40 0.2182
785.50 0.2182
785.60 0.2182
785.70 0.2183
785.80 0.2183
785.90 0.2183
786.00 0.2183
786.10 0.2184
786.20 0.2184
786.30 0.2184
786.40 0.2184
786.50 0.2185
786.60 0.2185
786.70 0.2185
786.80 0.2185
786.90 0.2186
787.00 0.2186
787.10 0.2186
787.20 0.2186
787.30 0.2186
787.40 0.2187
787.50 0.2187
787.60 0.2187
787.70 0.2187
787.80 0.2188
787.90 0.2188
788.00 0.2188
788.10 0.2188
788.20 0.2189
788.30 0.2189
788.40 0.2189
788.50 0.2189
788.60 0.2189
788.70 0.219
788.80 0.219
788.90 0.219
789.00 0.219
789.10 0.2191
789.20 0.2191
789.30 0.2191
789.40 0.2191
789.50 0.2192
789.60 0.2192
789.70 0.2192
789.80 0.2192
789.90 0.2192
790.00 0.2193
790.10 0.2193
790.20 0.2194
790.30 0.2194
790.40 0.2195
790.50 0.2196
790.60 0.2196
790.70 0.2197
790.80 0.2197
790.90 0.2198
791.00 0.2199
791.10 0.2199
791.20 0.22
791.30 0.22
791.40 0.2201
791.50 0.2202
791.60 0.2202
791.70 0.2203
791.80 0.2203
791.90 0.2204
792.00 0.2205
792.10 0.2205
792.20 0.2206
792.30 0.2206
792.40 0.2207
792.50 0.2207
792.60 0.2208
792.70 0.2209
792.80 0.2209
792.90 0.221
793.00 0.221
793.10 0.2211
793.20 0.2212
793.30 0.2212
793.40 0.2213
793.50 0.2213
793.60 0.2214
793.70 0.2215
793.80 0.2215
793.90 0.2216
794.00 0.2216
794.10 0.2217
794.20 0.2217
794.30 0.2218
794.40 0.2219
794.50 0.2219
794.60 0.222
794.70 0.222
794.80 0.2221
794.90 0.2221
795.00 0.2222
795.10 0.2223
795.20 0.2223
795.30 0.2224
795.40 0.2224
795.50 0.2225
795.60 0.2226
795.70 0.2226
795.80 0.2227
795.90 0.2227
796.00 0.2228
796.10 0.2228
796.20 0.2229
796.30 0.223
796.40 0.223
796.50 0.2231
796.60 0.2231
796.70 0.2232
796.80 0.2232
796.90 0.2233
797.00 0.2234
797.10 0.2234
797.20 0.2235
797.30 0.2235
797.40 0.2236
797.50 0.2236
797.60 0.2237
797.70 0.2238
797.80 0.2238
797.90 0.2239
798.00 0.2239
798.10 0.224
798.20 0.224
798.30 0.2241
798.40 0.2242
798.50 0.2242
798.60 0.2243
798.70 0.2243
798.80 0.2244
798.90 0.2244
799.00 0.2245
799.10 0.2245
799.20 0.2246
799.30 0.2247
799.40 0.2247
799.50 0.2248
799.60 0.2248
799.70 0.2249
799.80 0.2249
799.90 0.225
800.00 0.2251
800.10 0.2251
800.20 0.2251
800.30 0.2251
800.40 0.2252
800.50 0.2252
800.60 0.2252
800.70 0.2253
800.80 0.2253
800.90 0.2253
801.00 0.2253
801.10 0.2254
801.20 0.2254
801.30 0.2254
801.40 0.2254
801.50 0.2255
801.60 0.2255
801.70 0.2255
801.80 0.2256
801.90 0.2256
802.00 0.2256
802.10 0.2256
802.20 0.2257
802.30 0.2257
802.40 0.2257
802.50 0.2258
802.60 0.2258
802.70 0.2258
802.80 0.2258
802.90 0.2259
803.00 0.2259
803.10 0.2259
803.20 0.226
803.30 0.226
803.40 0.226
803.50 0.226
803.60 0.2261
803.70 0.2261
803.80 0.2261
803.90 0.2261
804.00 0.2262
804.10 0.2262
804.20 0.2262
804.30 0.2263
804.40 0.2263
804.50 0.2263
804.60 0.2263
804.70 0.2264
804.80 0.2264
804.90 0.2264
805.00 0.2264
805.10 0.2265
805.20 0.2265
805.30 0.2265
805.40 0.2266
805.50 0.2266
805.60 0.2266
805.70 0.2266
805.80 0.2267
805.90 0.2267
806.00 0.2267
806.10 0.2267
806.20 0.2268
806.30 0.2268
806.40 0.2268
806.50 0.2269
806.60 0.2269
806.70 0.2269
806.80 0.2269
806.90 0.227
807.00 0.227
807.10 0.227
807.20 0.227
807.30 0.2271
807.40 0.2271
807.50 0.2271
807.60 0.2272
807.70 0.2272
807.80 0.2272
807.90 0.2272
808.00 0.2273
808.10 0.2273
808.20 0.2273
808.30 0.2273
808.40 0.2274
808.50 0.2274
808.60 0.2274
808.70 0.2274
808.80 0.2275
808.90 0.2275
809.00 0.2275
809.10 0.2276
809.20 0.2276
809.30 0.2276
809.40 0.2276
809.50 0.2277
809.60 0.2277
809.70 0.2277
809.80 0.2277
809.90 0.2278
810.00 0.2278
810.10 0.2278
810.20 0.2278
810.30 0.2278
810.40 0.2278
810.50 0.2277
810.60 0.2277
810.70 0.2277
810.80 0.2277
810.90 0.2277
811.00 0.2277
811.10 0.2277
811.20 0.2277
811.30 0.2277
811.40 0.2277
811.50 0.2277
811.60 0.2276
811.70 0.2276
811.80 0.2276
811.90 0.2276
812.00 0.2276
812.10 0.2276
812.20 0.2276
812.30 0.2276
812.40 0.2276
812.50 0.2276
812.60 0.2276
812.70 0.2275
812.80 0.2275
812.90 0.2275
813.00 0.2275
813.10 0.2275
813.20 0.2275
813.30 0.2275
813.40 0.2275
813.50 0.2275
813.60 0.2275
813.70 0.2275
813.80 0.2274
813.90 0.2274
814.00 0.2274
814.10 0.2274
814.20 0.2274
814.30 0.2274
814.40 0.2274
814.50 0.2274
814.60 0.2274
814.70 0.2274
814.80 0.2274
814.90 0.2273
815.00 0.2273
815.10 0.2273
815.20 0.2273
815.30 0.2273
815.40 0.2273
815.50 0.2273
815.60 0.2273
815.70 0.2273
815.80 0.2273
815.90 0.2273
816.00 0.2272
816.10 0.2272
816.20 0.2272
816.30 0.2272
816.40 0.2272
816.50 0.2272
816.60 0.2272
816.70 0.2272
816.80 0.2272
816.90 0.2272
817.00 0.2272
817.10 0.2271
817.20 0.2271
817.30 0.2271
817.40 0.2271
817.50 0.2271
817.60 0.2271
817.70 0.2271
817.80 0.2271
817.90 0.2271
818.00 0.2271
818.10 0.2271
818.20 0.227
818.30 0.227
818.40 0.227
818.50 0.227
818.60 0.227
818.70 0.227
818.80 0.227
818.90 0.227
819.00 0.227
819.10 0.227
819.20 0.2269
819.30 0.2269
819.40 0.2269
819.50 0.2269
819.60 0.2269
819.70 0.2269
819.80 0.2269
819.90 0.2269
820.00 0.2269
820.10 0.2269
820.20 0.2268
820.30 0.2268
820.40 0.2268
820.50 0.2268
820.60 0.2268
820.70 0.2268
820.80 0.2268
820.90 0.2268
821.00 0.2267
821.10 0.2267
821.20 0.2267
821.30 0.2267
821.40 0.2267
821.50 0.2267
821.60 0.2267
821.70 0.2267
821.80 0.2266
821.90 0.2266
822.00 0.2266
822.10 0.2266
822.20 0.2266
822.30 0.2266
822.40 0.2266
822.50 0.2266
822.60 0.2265
822.70 0.2265
822.80 0.2265
822.90 0.2265
823.00 0.2265
823.10 0.2265
823.20 0.2265
823.30 0.2265
823.40 0.2265
823.50 0.2264
823.60 0.2264
823.70 0.2264
823.80 0.2264
823.90 0.2264
824.00 0.2264
824.10 0.2264
824.20 0.2264
824.30 0.2264
824.40 0.2263
824.50 0.2263
824.60 0.2263
824.70 0.2263
824.80 0.2263
824.90 0.2263
825.00 0.2263
825.10 0.2263
825.20 0.2262
825.30 0.2262
825.40 0.2262
825.50 0.2262
825.60 0.2262
825.70 0.2262
825.80 0.2262
825.90 0.2262
826.00 0.2262
826.10 0.2261
826.20 0.2261
826.30 0.2261
826.40 0.2261
826.50 0.2261
826.60 0.2261
826.70 0.2261
826.80 0.2261
826.90 0.226
827.00 0.226
827.10 0.226
827.20 0.226
827.30 0.226
827.40 0.226
827.50 0.226
827.60 0.226
827.70 0.226
827.80 0.226
827.90 0.2259
828.00 0.2259
828.10 0.2259
828.20 0.2259
828.30 0.2259
828.40 0.2259
828.50 0.2259
828.60 0.2259
828.70 0.2259
828.80 0.2259
828.90 0.2258
829.00 0.2258
829.10 0.2258
829.20 0.2258
829.30 0.2258
829.40 0.2258
829.50 0.2258
829.60 0.2258
829.70 0.2258
829.80 0.2257
829.90 0.2257
830.00 0.2257
830.10 0.2257
830.20 0.2257
830.30 0.2257
830.40 0.2257
830.50 0.2257
830.60 0.2257
830.70 0.2257
830.80 0.2256
830.90 0.2256
831.00 0.2256
831.10 0.2256
831.20 0.2256
831.30 0.2256
831.40 0.2256
831.50 0.2256
831.60 0.2256
831.70 0.2256
831.80 0.2255
831.90 0.2255
832.00 0.2255
832.10 0.2255
832.20 0.2255
832.30 0.2255
832.40 0.2255
832.50 0.2255
832.60 0.2255
832.70 0.2254
832.80 0.2254
832.90 0.2254
833.00 0.2254
833.10 0.2254
833.20 0.2254
833.30 0.2254
833.40 0.2254
833.50 0.2254
833.60 0.2253
833.70 0.2253
833.80 0.2253
833.90 0.2253
834.00 0.2253
834.10 0.2253
834.20 0.2253
834.30 0.2253
834.40 0.2253
834.50 0.2253
834.60 0.2252
834.70 0.2252
834.80 0.2252
834.90 0.2252
835.00 0.2252
835.10 0.2252
835.20 0.2252
835.30 0.2252
835.40 0.2252
835.50 0.2251
835.60 0.2251
835.70 0.2251
835.80 0.2251
835.90 0.2251
836.00 0.2251
836.10 0.2251
836.20 0.2251
836.30 0.2251
836.40 0.225
836.50 0.225
836.60 0.225
836.70 0.225
836.80 0.225
836.90 0.225
837.00 0.225
837.10 0.225
837.20 0.225
837.30 0.2249
837.40 0.2249
837.50 0.2249
837.60 0.2249
837.70 0.2249
837.80 0.2249
837.90 0.2249
838.00 0.2249
838.10 0.2248
838.20 0.2248
838.30 0.2248
838.40 0.2248
838.50 0.2248
838.60 0.2248
838.70 0.2248
838.80 0.2247
838.90 0.2247
839.00 0.2247
839.10 0.2247
839.20 0.2247
839.30 0.2247
839.40 0.2247
839.50 0.2247
839.60 0.2246
839.70 0.2246
839.80 0.2246
839.90 0.2246
840.00 0.2246
840.10 0.2246
840.20 0.2246
840.30 0.2246
840.40 0.2245
840.50 0.2245
840.60 0.2245
840.70 0.2245
840.80 0.2245
840.90 0.2245
841.00 0.2245
841.10 0.2244
841.20 0.2244
841.30 0.2244
841.40 0.2244
841.50 0.2244
841.60 0.2244
841.70 0.2244
841.80 0.2244
841.90 0.2243
842.00 0.2243
842.10 0.2243
842.20 0.2243
842.30 0.2243
842.40 0.2243
842.50 0.2243
842.60 0.2242
842.70 0.2242
842.80 0.2242
842.90 0.2242
843.00 0.2242
843.10 0.2242
843.20 0.2242
843.30 0.2241
843.40 0.2241
843.50 0.2241
843.60 0.2241
843.70 0.2241
843.80 0.2241
843.90 0.2241
844.00 0.224
844.10 0.224
844.20 0.224
844.30 0.224
844.40 0.224
844.50 0.224
844.60 0.2239
844.70 0.2239
844.80 0.2239
844.90 0.2239
845.00 0.2239
845.10 0.2239
845.20 0.2239
845.30 0.2238
845.40 0.2238
845.50 0.2238
845.60 0.2238
845.70 0.2238
845.80 0.2238
845.90 0.2238
846.00 0.2237
846.10 0.2237
846.20 0.2237
846.30 0.2237
846.40 0.2237
846.50 0.2237
846.60 0.2237
846.70 0.2236
846.80 0.2236
846.90 0.2236
847.00 0.2236
847.10 0.2236
847.20 0.2236
847.30 0.2235
847.40 0.2235
847.50 0.2235
847.60 0.2235
847.70 0.2235
847.80 0.2235
847.90 0.2234
848.00 0.2234
848.10 0.2234
848.20 0.2234
848.30 0.2234
848.40 0.2233
848.50 0.2233
848.60 0.2233
848.70 0.2233
848.80 0.2233
848.90 0.2232
849.00 0.2232
849.10 0.2232
849.20 0.2232
849.30 0.2232
849.40 0.2232
849.50 0.2231
849.60 0.2231
849.70 0.2231
849.80 0.2231
849.90 0.2231
850.00 0.223
850.10 0.223
850.20 0.223
850.30 0.223
850.40 0.223
850.50 0.223
850.60 0.2229
850.70 0.2229
850.80 0.2229
850.90 0.2229
851.00 0.2229
851.10 0.2228
851.20 0.2228
851.30 0.2228
851.40 0.2228
851.50 0.2228
851.60 0.2228
851.70 0.2227
851.80 0.2227
851.90 0.2227
852.00 0.2227
852.10 0.2227
852.20 0.2226
852.30 0.2226
852.40 0.2226
852.50 0.2226
852.60 0.2226
852.70 0.2225
852.80 0.2225
852.90 0.2225
853.00 0.2225
853.10 0.2225
853.20 0.2224
853.30 0.2224
853.40 0.2224
853.50 0.2224
853.60 0.2223
853.70 0.2223
853.80 0.2223
853.90 0.2223
854.00 0.2223
854.10 0.2222
854.20 0.2222
854.30 0.2222
854.40 0.2222
854.50 0.2222
854.60 0.2221
854.70 0.2221
854.80 0.2221
854.90 0.2221
855.00 0.2221
855.10 0.222
855.20 0.222
855.30 0.222
855.40 0.222
855.50 0.2219
855.60 0.2219
855.70 0.2219
855.80 0.2219
855.90 0.2219
856.00 0.2218
856.10 0.2218
856.20 0.2218
856.30 0.2218
856.40 0.2218
856.50 0.2217
856.60 0.2217
856.70 0.2217
856.80 0.2217
856.90 0.2217
857.00 0.2216
857.10 0.2216
857.20 0.2216
857.30 0.2216
857.40 0.2215
857.50 0.2215
857.60 0.2215
857.70 0.2215
857.80 0.2214
857.90 0.2214
858.00 0.2214
858.10 0.2214
858.20 0.2213
858.30 0.2213
858.40 0.2213
858.50 0.2213
858.60 0.2212
858.70 0.2212
858.80 0.2212
858.90 0.2212
859.00 0.2212
859.10 0.2211
859.20 0.2211
859.30 0.2211
859.40 0.2211
859.50 0.221
859.60 0.221
859.70 0.221
859.80 0.221
859.90 0.2209
860.00 0.2209
860.10 0.2209
860.20 0.2209
860.30 0.2208
860.40 0.2208
860.50 0.2208
860.60 0.2208
860.70 0.2207
860.80 0.2207
860.90 0.2207
861.00 0.2207
861.10 0.2207
861.20 0.2206
861.30 0.2206
861.40 0.2206
861.50 0.2206
861.60 0.2205
861.70 0.2205
861.80 0.2205
861.90 0.2205
862.00 0.2204
862.10 0.2204
862.20 0.2204
862.30 0.2204
862.40 0.2203
862.50 0.2203
862.60 0.2203
862.70 0.2203
862.80 0.2202
862.90 0.2202
863.00 0.2202
863.10 0.2202
863.20 0.2201
863.30 0.2201
863.40 0.2201
863.50 0.2201
863.60 0.22
863.70 0.22
863.80 0.22
863.90 0.2199
864.00 0.2199
864.10 0.2199
864.20 0.2199
864.30 0.2198
864.40 0.2198
864.50 0.2198
864.60 0.2198
864.70 0.2197
864.80 0.2197
864.90 0.2197
865.00 0.2197
865.10 0.2196
865.20 0.2196
865.30 0.2196
865.40 0.2196
865.50 0.2195
865.60 0.2195
865.70 0.2195
865.80 0.2195
865.90 0.2194
866.00 0.2194
866.10 0.2194
866.20 0.2194
866.30 0.2193
866.40 0.2193
866.50 0.2193
866.60 0.2193
866.70 0.2192
866.80 0.2192
866.90 0.2192
867.00 0.2192
867.10 0.2191
867.20 0.2191
867.30 0.219
867.40 0.219
867.50 0.219
867.60 0.2189
867.70 0.2189
867.80 0.2189
867.90 0.2188
868.00 0.2188
868.10 0.2187
868.20 0.2187
868.30 0.2187
868.40 0.2186
868.50 0.2186
868.60 0.2186
868.70 0.2185
868.80 0.2185
868.90 0.2185
869.00 0.2184
869.10 0.2184
869.20 0.2183
869.30 0.2183
869.40 0.2183
869.50 0.2182
869.60 0.2182
869.70 0.2182
869.80 0.2181
869.90 0.2181
870.00 0.218
870.10 0.218
870.20 0.218
870.30 0.2179
870.40 0.2179
870.50 0.2179
870.60 0.2178
870.70 0.2178
870.80 0.2178
870.90 0.2177
871.00 0.2177
871.10 0.2176
871.20 0.2176
871.30 0.2176
871.40 0.2175
871.50 0.2175
871.60 0.2175
871.70 0.2174
871.80 0.2174
871.90 0.2174
872.00 0.2173
872.10 0.2173
872.20 0.2172
872.30 0.2172
872.40 0.2171
872.50 0.2171
872.60 0.217
872.70 0.217
872.80 0.2169
872.90 0.2169
873.00 0.2169
873.10 0.2168
873.20 0.2168
873.30 0.2167
873.40 0.2167
873.50 0.2166
873.60 0.2166
873.70 0.2165
873.80 0.2165
873.90 0.2164
874.00 0.2164
874.10 0.2163
874.20 0.2163
874.30 0.2162
874.40 0.2162
874.50 0.2162
874.60 0.2161
874.70 0.2161
874.80 0.216
874.90 0.216
875.00 0.2159
875.10 0.2159
875.20 0.2158
875.30 0.2158
875.40 0.2157
875.50 0.2157
875.60 0.2156
875.70 0.2156
875.80 0.2155
875.90 0.2155
876.00 0.2155
876.10 0.2154
876.20 0.2154
876.30 0.2153
876.40 0.2153
876.50 0.2152
876.60 0.2152
876.70 0.2151
876.80 0.2151
876.90 0.215
877.00 0.215
877.10 0.2149
877.20 0.2149
877.30 0.2148
877.40 0.2147
877.50 0.2147
877.60 0.2146
877.70 0.2146
877.80 0.2145
877.90 0.2144
878.00 0.2144
878.10 0.2143
878.20 0.2142
878.30 0.2142
878.40 0.2141
878.50 0.214
878.60 0.214
878.70 0.2139
878.80 0.2139
878.90 0.2138
879.00 0.2137
879.10 0.2137
879.20 0.2136
879.30 0.2135
879.40 0.2135
879.50 0.2134
879.60 0.2134
879.70 0.2133
879.80 0.2132
879.90 0.2132
880.00 0.2131
880.10 0.213
880.20 0.213
880.30 0.2129
880.40 0.2129
880.50 0.2128
880.60 0.2127
880.70 0.2127
880.80 0.2126
880.90 0.2125
881.00 0.2125
881.10 0.2124
881.20 0.2123
881.30 0.2123
881.40 0.2122
881.50 0.2122
881.60 0.2121
881.70 0.212
881.80 0.212
881.90 0.2119
882.00 0.2119
882.10 0.2118
882.20 0.2117
882.30 0.2116
882.40 0.2115
882.50 0.2115
882.60 0.2114
882.70 0.2113
882.80 0.2112
882.90 0.2111
883.00 0.2111
883.10 0.211
883.20 0.2109
883.30 0.2108
883.40 0.2108
883.50 0.2107
883.60 0.2106
883.70 0.2105
883.80 0.2105
883.90 0.2104
884.00 0.2103
884.10 0.2102
884.20 0.2101
884.30 0.2101
884.40 0.21
884.50 0.2099
884.60 0.2098
884.70 0.2098
884.80 0.2097
884.90 0.2096
885.00 0.2095
885.10 0.2094
885.20 0.2094
885.30 0.2093
885.40 0.2092
885.50 0.2091
885.60 0.2091
885.70 0.209
885.80 0.2089
885.90 0.2088
886.00 0.2088
886.10 0.2087
886.20 0.2086
886.30 0.2085
886.40 0.2084
886.50 0.2084
886.60 0.2083
886.70 0.2082
886.80 0.2081
886.90 0.2081
887.00 0.208
887.10 0.2079
887.20 0.2078
887.30 0.2077
887.40 0.2076
887.50 0.2075
887.60 0.2074
887.70 0.2073
887.80 0.2073
887.90 0.2072
888.00 0.2071
888.10 0.207
888.20 0.2069
888.30 0.2068
888.40 0.2067
888.50 0.2066
888.60 0.2065
888.70 0.2064
888.80 0.2064
888.90 0.2063
889.00 0.2062
889.10 0.2061
889.20 0.206
889.30 0.2059
889.40 0.2058
889.50 0.2057
889.60 0.2056
889.70 0.2055
889.80 0.2054
889.90 0.2054
890.00 0.2053
890.10 0.2052
890.20 0.2051
890.30 0.205
890.40 0.2049
890.50 0.2048
890.60 0.2047
890.70 0.2046
890.80 0.2045
890.90 0.2045
891.00 0.2044
891.10 0.2043
891.20 0.2042
891.30 0.2041
891.40 0.204
891.50 0.2039
891.60 0.2038
891.70 0.2037
891.80 0.2037
891.90 0.2036
892.00 0.2035
892.10 0.2034
892.20 0.2033
892.30 0.2032
892.40 0.203
892.50 0.2029
892.60 0.2028
892.70 0.2027
892.80 0.2026
892.90 0.2025
893.00 0.2024
893.10 0.2023
893.20 0.2022
893.30 0.2021
893.40 0.202
893.50 0.2019
893.60 0.2018
893.70 0.2017
893.80 0.2016
893.90 0.2015
894.00 0.2014
894.10 0.2013
894.20 0.2012
894.30 0.201
894.40 0.2009
894.50 0.2008
894.60 0.2007
894.70 0.2006
894.80 0.2005
894.90 0.2004
895.00 0.2003
895.10 0.2002
895.20 0.2001
895.30 0.2
895.40 0.1999
895.50 0.1998
895.60 0.1997
895.70 0.1996
895.80 0.1995
895.90 0.1994
896.00 0.1993
896.10 0.1992
896.20 0.1991
896.30 0.199
896.40 0.1989
896.50 0.1987
896.60 0.1986
896.70 0.1985
896.80 0.1984
896.90 0.1983
897.00 0.1982
897.10 0.1981
897.20 0.198
897.30 0.1979
897.40 0.1978
897.50 0.1977
897.60 0.1976
897.70 0.1974
897.80 0.1973
897.90 0.1972
898.00 0.1971
898.10 0.197
898.20 0.1969
898.30 0.1968
898.40 0.1967
898.50 0.1965
898.60 0.1964
898.70 0.1963
898.80 0.1962
898.90 0.1961
899.00 0.196
899.10 0.1959
899.20 0.1958
899.30 0.1956
899.40 0.1955
899.50 0.1954
899.60 0.1953
899.70 0.1952
899.80 0.1951
899.90 0.195
900.00 0.1949
900.10 0.1948
900.20 0.1946
900.30 0.1945
900.40 0.1944
900.50 0.1943
900.60 0.1942
900.70 0.1941
900.80 0.194
900.90 0.1939
901.00 0.1937
901.10 0.1936
901.20 0.1935
901.30 0.1934
901.40 0.1933
901.50 0.1932
901.60 0.1931
901.70 0.193
901.80 0.1929
901.90 0.1928
902.00 0.1926
902.10 0.1925
902.20 0.1924
902.30 0.1923
902.40 0.1922
902.50 0.1921
902.60 0.1919
902.70 0.1918
902.80 0.1917
902.90 0.1916
903.00 0.1915
903.10 0.1914
903.20 0.1912
903.30 0.1911
903.40 0.191
903.50 0.1909
903.60 0.1908
903.70 0.1907
903.80 0.1905
903.90 0.1904
904.00 0.1903
904.10 0.1902
904.20 0.1901
904.30 0.19
904.40 0.1898
904.50 0.1897
904.60 0.1896
904.70 0.1895
904.80 0.1894
904.90 0.1893
905.00 0.1891
905.10 0.189
905.20 0.1889
905.30 0.1888
905.40 0.1887
905.50 0.1886
905.60 0.1884
905.70 0.1883
905.80 0.1882
905.90 0.1881
906.00 0.188
906.10 0.1879
906.20 0.1878
906.30 0.1876
906.40 0.1875
906.50 0.1874
906.60 0.1873
906.70 0.1872
906.80 0.1871
906.90 0.187
907.00 0.1868
907.10 0.1867
907.20 0.1866
907.30 0.1864
907.40 0.1863
907.50 0.1862
907.60 0.186
907.70 0.1859
907.80 0.1858
907.90 0.1857
908.00 0.1855
908.10 0.1854
908.20 0.1853
908.30 0.1851
908.40 0.185
908.50 0.1849
908.60 0.1847
908.70 0.1846
908.80 0.1845
908.90 0.1843
909.00 0.1842
909.10 0.1841
909.20 0.184
909.30 0.1838
909.40 0.1837
909.50 0.1836
909.60 0.1834
909.70 0.1833
909.80 0.1832
909.90 0.183
910.00 0.1829
910.10 0.1828
910.20 0.1826
910.30 0.1825
910.40 0.1824
910.50 0.1823
910.60 0.1821
910.70 0.182
910.80 0.1819
910.90 0.1817
911.00 0.1816
911.10 0.1815
911.20 0.1813
911.30 0.1812
911.40 0.1811
911.50 0.181
911.60 0.1808
911.70 0.1807
911.80 0.1806
911.90 0.1804
912.00 0.1803
912.10 0.1802
912.20 0.18
912.30 0.1799
912.40 0.1797
912.50 0.1796
912.60 0.1795
912.70 0.1793
912.80 0.1792
912.90 0.179
913.00 0.1789
913.10 0.1787
913.20 0.1786
913.30 0.1785
913.40 0.1783
913.50 0.1782
913.60 0.178
913.70 0.1779
913.80 0.1778
913.90 0.1776
914.00 0.1775
914.10 0.1773
914.20 0.1772
914.30 0.177
914.40 0.1769
914.50 0.1768
914.60 0.1766
914.70 0.1765
914.80 0.1763
914.90 0.1762
915.00 0.1761
915.10 0.1759
915.20 0.1758
915.30 0.1756
915.40 0.1755
915.50 0.1753
915.60 0.1752
915.70 0.1751
915.80 0.1749
915.90 0.1748
916.00 0.1746
916.10 0.1745
916.20 0.1744
916.30 0.1742
916.40 0.1741
916.50 0.1739
916.60 0.1738
916.70 0.1737
916.80 0.1735
916.90 0.1734
917.00 0.1732
917.10 0.1731
917.20 0.1729
917.30 0.1728
917.40 0.1726
917.50 0.1725
917.60 0.1724
917.70 0.1722
917.80 0.1721
917.90 0.1719
918.00 0.1718
918.10 0.1716
918.20 0.1715
918.30 0.1713
918.40 0.1712
918.50 0.171
918.60 0.1709
918.70 0.1707
918.80 0.1706
918.90 0.1704
919.00 0.1703
919.10 0.1701
919.20 0.17
919.30 0.1699
919.40 0.1697
919.50 0.1696
919.60 0.1694
919.70 0.1693
919.80 0.1691
919.90 0.169
920.00 0.1688
920.10 0.1687
920.20 0.1685
920.30 0.1684
920.40 0.1682
920.50 0.1681
920.60 0.168
920.70 0.1678
920.80 0.1677
920.90 0.1675
921.00 0.1674
921.10 0.1672
921.20 0.1671
921.30 0.1669
921.40 0.1668
921.50 0.1666
921.60 0.1665
921.70 0.1664
921.80 0.1662
921.90 0.1661
922.00 0.1659
922.10 0.1658
922.20 0.1656
922.30 0.1655
922.40 0.1653
922.50 0.1652
922.60 0.165
922.70 0.1649
922.80 0.1647
922.90 0.1646
923.00 0.1644
923.10 0.1642
923.20 0.1641
923.30 0.1639
923.40 0.1638
923.50 0.1636
923.60 0.1635
923.70 0.1633
923.80 0.1632
923.90 0.163
924.00 0.1629
924.10 0.1627
924.20 0.1626
924.30 0.1624
924.40 0.1623
924.50 0.1621
924.60 0.162
924.70 0.1618
924.80 0.1617
924.90 0.1615
925.00 0.1614
925.10 0.1612
925.20 0.1611
925.30 0.1609
925.40 0.1608
925.50 0.1606
925.60 0.1605
925.70 0.1603
925.80 0.1602
925.90 0.16
926.00 0.1599
926.10 0.1597
926.20 0.1596
926.30 0.1594
926.40 0.1593
926.50 0.1591
926.60 0.159
926.70 0.1588
926.80 0.1587
926.90 0.1585
927.00 0.1584
927.10 0.1582
927.20 0.1581
927.30 0.1579
927.40 0.1578
927.50 0.1576
927.60 0.1575
927.70 0.1573
927.80 0.1571
927.90 0.157
928.00 0.1568
928.10 0.1567
928.20 0.1565
928.30 0.1564
928.40 0.1562
928.50 0.1561
928.60 0.1559
928.70 0.1557
928.80 0.1556
928.90 0.1554
929.00 0.1553
929.10 0.1551
929.20 0.155
929.30 0.1548
929.40 0.1547
929.50 0.1545
929.60 0.1544
929.70 0.1542
929.80 0.154
929.90 0.1539
930.00 0.1537
930.10 0.1536
930.20 0.1534
930.30 0.1533
930.40 0.1531
930.50 0.153
930.60 0.1528
930.70 0.1527
930.80 0.1525
930.90 0.1523
931.00 0.1522
931.10 0.152
931.20 0.1519
931.30 0.1517
931.40 0.1516
931.50 0.1514
931.60 0.1513
931.70 0.1511
931.80 0.151
931.90 0.1508
932.00 0.1507
932.10 0.1505
932.20 0.1504
932.30 0.1502
932.40 0.15
932.50 0.1499
932.60 0.1497
932.70 0.1496
932.80 0.1494
932.90 0.1493
933.00 0.1491
933.10 0.149
933.20 0.1488
933.30 0.1486
933.40 0.1485
933.50 0.1483
933.60 0.1482
933.70 0.148
933.80 0.1479
933.90 0.1477
934.00 0.1476
934.10 0.1474
934.20 0.1473
934.30 0.1471
934.40 0.147
934.50 0.1468
934.60 0.1466
934.70 0.1465
934.80 0.1463
934.90 0.1462
935.00 0.146
935.10 0.1459
935.20 0.1457
935.30 0.1456
935.40 0.1454
935.50 0.1452
935.60 0.1451
935.70 0.1449
935.80 0.1448
935.90 0.1446
936.00 0.1445
936.10 0.1443
936.20 0.1442
936.30 0.144
936.40 0.1438
936.50 0.1437
936.60 0.1435
936.70 0.1434
936.80 0.1432
936.90 0.1431
937.00 0.1429
937.10 0.1428
937.20 0.1426
937.30 0.1425
937.40 0.1423
937.50 0.1422
937.60 0.142
937.70 0.1418
937.80 0.1417
937.90 0.1415
938.00 0.1414
938.10 0.1412
938.20 0.1411
938.30 0.1409
938.40 0.1408
938.50 0.1406
938.60 0.1404
938.70 0.1403
938.80 0.1401
938.90 0.14
939.00 0.1398
939.10 0.1397
939.20 0.1395
939.30 0.1393
939.40 0.1392
939.50 0.139
939.60 0.1389
939.70 0.1387
939.80 0.1386
939.90 0.1384
940.00 0.1383
940.10 0.1381
940.20 0.1379
940.30 0.1378
940.40 0.1376
940.50 0.1375
940.60 0.1373
940.70 0.1372
940.80 0.137
940.90 0.1369
941.00 0.1367
941.10 0.1366
941.20 0.1364
941.30 0.1362
941.40 0.1361
941.50 0.1359
941.60 0.1358
941.70 0.1356
941.80 0.1355
941.90 0.1353
942.00 0.1352
942.10 0.135
942.20 0.1349
942.30 0.1347
942.40 0.1346
942.50 0.1344
942.60 0.1343
942.70 0.1341
942.80 0.134
942.90 0.1338
943.00 0.1336
943.10 0.1335
943.20 0.1333
943.30 0.1332
943.40 0.133
943.50 0.1329
943.60 0.1327
943.70 0.1326
943.80 0.1324
943.90 0.1323
944.00 0.1321
944.10 0.132
944.20 0.1318
944.30 0.1317
944.40 0.1315
944.50 0.1314
944.60 0.1312
944.70 0.1311
944.80 0.1309
944.90 0.1308
945.00 0.1306
945.10 0.1305
945.20 0.1303
945.30 0.1301
945.40 0.13
945.50 0.1298
945.60 0.1297
945.70 0.1295
945.80 0.1294
945.90 0.1292
946.00 0.1291
946.10 0.1289
946.20 0.1288
946.30 0.1286
946.40 0.1285
946.50 0.1283
946.60 0.1282
946.70 0.128
946.80 0.1279
946.90 0.1277
947.00 0.1276
947.10 0.1274
947.20 0.1273
947.30 0.1271
947.40 0.127
947.50 0.1268
947.60 0.1267
947.70 0.1265
947.80 0.1264
947.90 0.1262
948.00 0.1261
948.10 0.1259
948.20 0.1258
948.30 0.1256
948.40 0.1255
948.50 0.1253
948.60 0.1252
948.70 0.125
948.80 0.1249
948.90 0.1247
949.00 0.1246
949.10 0.1244
949.20 0.1243
949.30 0.1241
949.40 0.124
949.50 0.1238
949.60 0.1237
949.70 0.1235
949.80 0.1234
949.90 0.1232
950.00 0.1231
950.10 0.1229
950.20 0.1228
950.30 0.1226
950.40 0.1225
950.50 0.1223
950.60 0.1222
950.70 0.122
950.80 0.1219
950.90 0.1217
951.00 0.1216
951.10 0.1215
951.20 0.1213
951.30 0.1212
951.40 0.121
951.50 0.1209
951.60 0.1207
951.70 0.1206
951.80 0.1204
951.90 0.1203
952.00 0.1201
952.10 0.12
952.20 0.1198
952.30 0.1197
952.40 0.1195
952.50 0.1194
952.60 0.1193
952.70 0.1191
952.80 0.119
952.90 0.1188
953.00 0.1187
953.10 0.1185
953.20 0.1184
953.30 0.1182
953.40 0.1181
953.50 0.1179
953.60 0.1178
953.70 0.1176
953.80 0.1175
953.90 0.1174
954.00 0.1172
954.10 0.1171
954.20 0.1169
954.30 0.1168
954.40 0.1166
954.50 0.1165
954.60 0.1163
954.70 0.1162
954.80 0.1161
954.90 0.1159
955.00 0.1158
955.10 0.1156
955.20 0.1155
955.30 0.1153
955.40 0.1152
955.50 0.115
955.60 0.1149
955.70 0.1148
955.80 0.1146
955.90 0.1145
956.00 0.1143
956.10 0.1142
956.20 0.114
956.30 0.1139
956.40 0.1137
956.50 0.1136
956.60 0.1134
956.70 0.1133
956.80 0.1131
956.90 0.113
957.00 0.1129
957.10 0.1127
957.20 0.1126
957.30 0.1124
957.40 0.1123
957.50 0.1121
957.60 0.112
957.70 0.1119
957.80 0.1117
957.90 0.1116
958.00 0.1114
958.10 0.1113
958.20 0.1112
958.30 0.111
958.40 0.1109
958.50 0.1107
958.60 0.1106
958.70 0.1104
958.80 0.1103
958.90 0.1102
959.00 0.11
959.10 0.1099
959.20 0.1097
959.30 0.1096
959.40 0.1095
959.50 0.1093
959.60 0.1092
959.70 0.109
959.80 0.1089
959.90 0.1088
960.00 0.1086
960.10 0.1085
960.20 0.1084
960.30 0.1082
960.40 0.1081
960.50 0.1079
960.60 0.1078
960.70 0.1077
960.80 0.1075
960.90 0.1074
961.00 0.1072
961.10 0.1071
961.20 0.107
961.30 0.1068
961.40 0.1067
961.50 0.1066
961.60 0.1064
961.70 0.1063
961.80 0.1061
961.90 0.106
962.00 0.1059
962.10 0.1057
962.20 0.1056
962.30 0.1055
962.40 0.1053
962.50 0.1052
962.60 0.1051
962.70 0.1049
962.80 0.1048
962.90 0.1046
963.00 0.1045
963.10 0.1044
963.20 0.1042
963.30 0.1041
963.40 0.104
963.50 0.1038
963.60 0.1037
963.70 0.1036
963.80 0.1034
963.90 0.1033
964.00 0.1032
964.10 0.103
964.20 0.1029
964.30 0.1028
964.40 0.1026
964.50 0.1025
964.60 0.1023
964.70 0.1022
964.80 0.1021
964.90 0.1019
965.00 0.1018
965.10 0.1017
965.20 0.1015
965.30 0.1014
965.40 0.1013
965.50 0.1011
965.60 0.101
965.70 0.1008
965.80 0.1007
965.90 0.1006
966.00 0.1004
966.10 0.1003
966.20 0.1002
966.30 0.1
966.40 0.09989
966.50 0.09976
966.60 0.09963
966.70 0.0995
966.80 0.09937
966.90 0.09924
967.00 0.09911
967.10 0.09898
967.20 0.09885
967.30 0.09872
967.40 0.09859
967.50 0.09846
967.60 0.09833
967.70 0.0982
967.80 0.09807
967.90 0.09794
968.00 0.09781
968.10 0.09768
968.20 0.09755
968.30 0.09742
968.40 0.09729
968.50 0.09716
968.60 0.09703
968.70 0.09691
968.80 0.09678
968.90 0.09665
969.00 0.09652
969.10 0.0964
969.20 0.09627
969.30 0.09614
969.40 0.09601
969.50 0.09589
969.60 0.09576
969.70 0.09563
969.80 0.09551
969.90 0.09538
970.00 0.09525
970.10 0.09513
970.20 0.095
970.30 0.09487
970.40 0.09475
970.50 0.09462
970.60 0.0945
970.70 0.09437
970.80 0.09425
970.90 0.09412
971.00 0.094
971.10 0.09387
971.20 0.09375
971.30 0.09362
971.40 0.0935
971.50 0.09338
971.60 0.09325
971.70 0.09313
971.80 0.093
971.90 0.09288
972.00 0.09276
972.10 0.09263
972.20 0.09251
972.30 0.09239
972.40 0.09227
972.50 0.09214
972.60 0.09202
972.70 0.0919
972.80 0.09178
972.90 0.09166
973.00 0.09154
973.10 0.09141
973.20 0.09129
973.30 0.09117
973.40 0.09105
973.50 0.09093
973.60 0.09081
973.70 0.09069
973.80 0.09056
973.90 0.09044
974.00 0.09032
974.10 0.0902
974.20 0.09008
974.30 0.08996
974.40 0.08984
974.50 0.08972
974.60 0.0896
974.70 0.08948
974.80 0.08936
974.90 0.08924
975.00 0.08912
975.10 0.089
975.20 0.08888
975.30 0.08876
975.40 0.08864
975.50 0.08852
975.60 0.0884
975.70 0.08828
975.80 0.08816
975.90 0.08804
976.00 0.08792
976.10 0.0878
976.20 0.08769
976.30 0.08757
976.40 0.08745
976.50 0.08733
976.60 0.08721
976.70 0.08709
976.80 0.08697
976.90 0.08685
977.00 0.08673
977.10 0.08662
977.20 0.08651
977.30 0.08639
977.40 0.08628
977.50 0.08617
977.60 0.08606
977.70 0.08594
977.80 0.08583
977.90 0.08572
978.00 0.08561
978.10 0.08549
978.20 0.08538
978.30 0.08527
978.40 0.08515
978.50 0.08504
978.60 0.08493
978.70 0.08482
978.80 0.08471
978.90 0.08459
979.00 0.08448
979.10 0.08437
979.20 0.08426
979.30 0.08414
979.40 0.08403
979.50 0.08392
979.60 0.08381
979.70 0.0837
979.80 0.08358
979.90 0.08347
980.00 0.08336
980.10 0.08325
980.20 0.08314
980.30 0.08303
980.40 0.08291
980.50 0.0828
980.60 0.08269
980.70 0.08258
980.80 0.08247
980.90 0.08236
981.00 0.08225
981.10 0.08213
981.20 0.08202
981.30 0.08191
981.40 0.0818
981.50 0.08169
981.60 0.08158
981.70 0.08147
981.80 0.08136
981.90 0.08125
982.00 0.08113
982.10 0.08103
982.20 0.08092
982.30 0.08081
982.40 0.08071
982.50 0.0806
982.60 0.08049
982.70 0.08039
982.80 0.08028
982.90 0.08017
983.00 0.08007
983.10 0.07996
983.20 0.07985
983.30 0.07975
983.40 0.07964
983.50 0.07954
983.60 0.07943
983.70 0.07932
983.80 0.07922
983.90 0.07911
984.00 0.079
984.10 0.0789
984.20 0.07879
984.30 0.07869
984.40 0.07858
984.50 0.07847
984.60 0.07837
984.70 0.07827
984.80 0.07817
984.90 0.07807
985.00 0.07797
985.10 0.07787
985.20 0.07777
985.30 0.07767
985.40 0.07757
985.50 0.07747
985.60 0.07737
985.70 0.07728
985.80 0.07718
985.90 0.07708
986.00 0.07698
986.10 0.07688
986.20 0.07678
986.30 0.07668
986.40 0.07658
986.50 0.07648
986.60 0.07639
986.70 0.07629
986.80 0.07619
986.90 0.07609
987.00 0.07599
987.10 0.07589
987.20 0.07579
987.30 0.07568
987.40 0.07558
987.50 0.07548
987.60 0.07537
987.70 0.07527
987.80 0.07517
987.90 0.07507
988.00 0.07496
988.10 0.07486
988.20 0.07476
988.30 0.07465
988.40 0.07455
988.50 0.07445
988.60 0.07435
988.70 0.07425
988.80 0.07414
988.90 0.07404
989.00 0.07394
989.10 0.07384
989.20 0.07373
989.30 0.07363
989.40 0.07353
989.50 0.07343
989.60 0.07333
989.70 0.07322
989.80 0.07312
989.90 0.07302
990.00 0.07292
990.10 0.07282
990.20 0.07271
990.30 0.07261
990.40 0.07251
990.50 0.07241
990.60 0.07231
990.70 0.07221
990.80 0.07211
990.90 0.072
991.00 0.0719
991.10 0.0718
991.20 0.0717
991.30 0.0716
991.40 0.0715
991.50 0.0714
991.60 0.07129
991.70 0.07119
991.80 0.07109
991.90 0.07099
992.00 0.07089
992.10 0.07079
992.20 0.07069
992.30 0.07059
992.40 0.07049
992.50 0.07039
992.60 0.07029
992.70 0.07019
992.80 0.07008
992.90 0.06998
993.00 0.06988
993.10 0.06978
993.20 0.06968
993.30 0.06958
993.40 0.06948
993.50 0.06938
993.60 0.06928
993.70 0.06918
993.80 0.06908
993.90 0.06898
994.00 0.06888
994.10 0.06878
994.20 0.06868
994.30 0.06858
994.40 0.06848
994.50 0.06838
994.60 0.06828
994.70 0.06816
994.80 0.06804
994.90 0.06792
995.00 0.06779
995.10 0.06767
995.20 0.06755
995.30 0.06743
995.40 0.0673
995.50 0.06718
995.60 0.06706
995.70 0.06696
995.80 0.06686
995.90 0.06676
996.00 0.06667
996.10 0.06657
996.20 0.06647
996.30 0.06638
996.40 0.06628
996.50 0.06618
996.60 0.06609
996.70 0.06599
996.80 0.0659
996.90 0.0658
997.00 0.0657
997.10 0.06561
997.20 0.06551
997.30 0.06542
997.40 0.06533
997.50 0.06523
997.60 0.06514
997.70 0.06505
997.80 0.06495
997.90 0.06486
998.00 0.06477
998.10 0.06468
998.20 0.06459
998.30 0.0645
998.40 0.06441
998.50 0.06431
998.60 0.06422
998.70 0.06413
998.80 0.06404
998.90 0.06395
999.00 0.06386
999.10 0.06377
999.20 0.06368
999.30 0.06358
999.40 0.06349
999.50 0.0634
999.60 0.06331
999.70 0.06322
999.80 0.06314
999.90 0.06305
1000.00 0.06296
1000.10 0.06287
1000.20 0.06279
1000.30 0.0627
1000.40 0.06261
1000.50 0.06253
1000.60 0.06244
1000.70 0.06235
1000.80 0.06227
1000.90 0.06218
1001.00 0.06209
1001.10 0.062
1001.20 0.06192
1001.30 0.06183
1001.40 0.06174
1001.50 0.06166
1001.60 0.06157
1001.70 0.06149
1001.80 0.0614
1001.90 0.06132
1002.00 0.06123
1002.10 0.06115
1002.20 0.06107
1002.30 0.06098
1002.40 0.0609
1002.50 0.06082
1002.60 0.06073
1002.70 0.06065
1002.80 0.06057
1002.90 0.06048
1003.00 0.0604
1003.10 0.06032
1003.20 0.06024
1003.30 0.06016
1003.40 0.06007
1003.50 0.05999
1003.60 0.05991
1003.70 0.05983
1003.80 0.05975
1003.90 0.05967
1004.00 0.05959
1004.10 0.05951
1004.20 0.05943
1004.30 0.05935
1004.40 0.05927
1004.50 0.05919
1004.60 0.05911
1004.70 0.05903
1004.80 0.05895
1004.90 0.05884
1005.00 0.05874
1005.10 0.05865
1005.20 0.05857
1005.30 0.0585
1005.40 0.05842
1005.50 0.05834
1005.60 0.05826
1005.70 0.05819
1005.80 0.05811
1005.90 0.05803
1006.00 0.05796
1006.10 0.05788
1006.20 0.05781
1006.30 0.05773
1006.40 0.05766
1006.50 0.05758
1006.60 0.05751
1006.70 0.05743
1006.80 0.05736
1006.90 0.05728
1007.00 0.05721
1007.10 0.05714
1007.20 0.05706
1007.30 0.05699
1007.40 0.05692
1007.50 0.05684
1007.60 0.05677
1007.70 0.0567
1007.80 0.05663
1007.90 0.05656
1008.00 0.05649
1008.10 0.05642
1008.20 0.05635
1008.30 0.05628
1008.40 0.05621
1008.50 0.05614
1008.60 0.05607
1008.70 0.056
1008.80 0.05593
1008.90 0.05586
1009.00 0.05579
1009.10 0.05572
1009.20 0.05565
1009.30 0.05558
1009.40 0.05551
1009.50 0.05544
1009.60 0.05537
1009.70 0.0553
1009.80 0.05523
1009.90 0.05517
1010.00 0.0551
1010.10 0.05503
1010.20 0.05497
1010.30 0.0549
1010.40 0.05484
1010.50 0.05477
1010.60 0.0547
1010.70 0.05464
1010.80 0.05457
1010.90 0.05451
1011.00 0.05444
1011.10 0.05437
1011.20 0.05431
1011.30 0.05424
1011.40 0.05418
1011.50 0.05411
1011.60 0.05405
1011.70 0.05398
1011.80 0.05392
1011.90 0.05385
1012.00 0.05379
1012.10 0.05373
1012.20 0.05367
1012.30 0.05361
1012.40 0.05354
1012.50 0.05348
1012.60 0.05342
1012.70 0.05336
1012.80 0.0533
1012.90 0.05324
1013.00 0.05317
1013.10 0.05311
1013.20 0.05305
1013.30 0.05299
1013.40 0.05293
1013.50 0.05287
1013.60 0.05281
1013.70 0.05275
1013.80 0.05269
1013.90 0.05263
1014.00 0.05257
1014.10 0.05251
1014.20 0.05245
1014.30 0.05239
1014.40 0.05233
1014.50 0.05227
1014.60 0.05221
1014.70 0.05216
1014.80 0.05211
1014.90 0.05206
1015.00 0.05201
1015.10 0.05196
1015.20 0.05191
1015.30 0.05186
1015.40 0.05181
1015.50 0.05175
1015.60 0.0517
1015.70 0.05165
1015.80 0.0516
1015.90 0.05155
1016.00 0.0515
1016.10 0.05145
1016.20 0.0514
1016.30 0.05135
1016.40 0.0513
1016.50 0.05125
1016.60 0.0512
1016.70 0.05114
1016.80 0.05109
1016.90 0.05103
1017.00 0.05098
1017.10 0.05092
1017.20 0.05087
1017.30 0.05081
1017.40 0.05076
1017.50 0.0507
1017.60 0.05065
1017.70 0.05059
1017.80 0.05054
1017.90 0.05048
1018.00 0.05043
1018.10 0.05038
1018.20 0.05032
1018.30 0.05027
1018.40 0.05021
1018.50 0.05016
1018.60 0.0501
1018.70 0.05005
1018.80 0.05
1018.90 0.04994
1019.00 0.04989
1019.10 0.04984
1019.20 0.04978
1019.30 0.04973
1019.40 0.04968
1019.50 0.04962
1019.60 0.04957
1019.70 0.04952
1019.80 0.04947
1019.90 0.04941
1020.00 0.04936
1020.10 0.04931
1020.20 0.04925
1020.30 0.0492
1020.40 0.04915
1020.50 0.0491
1020.60 0.04904
1020.70 0.04899
1020.80 0.04894
1020.90 0.04889
1021.00 0.04884
1021.10 0.04878
1021.20 0.04873
1021.30 0.04868
1021.40 0.04863
1021.50 0.04858
1021.60 0.04853
1021.70 0.04848
1021.80 0.04842
1021.90 0.04837
1022.00 0.04832
1022.10 0.04827
1022.20 0.04822
1022.30 0.04817
1022.40 0.04812
1022.50 0.04807
1022.60 0.04802
1022.70 0.04797
1022.80 0.04792
1022.90 0.04787
1023.00 0.04782
1023.10 0.04777
1023.20 0.04772
1023.30 0.04767
1023.40 0.04762
1023.50 0.04757
1023.60 0.04752
1023.70 0.04747
1023.80 0.04742
1023.90 0.04737
1024.00 0.04732
1024.10 0.04727
1024.20 0.04722
1024.30 0.04717
1024.40 0.04712
1024.50 0.04708
1024.60 0.04703
1024.70 0.04698
1024.80 0.04693
1024.90 0.04688
1025.00 0.04683
1025.10 0.04678
1025.20 0.04673
1025.30 0.04668
1025.40 0.04663
1025.50 0.04659
1025.60 0.04654
1025.70 0.04649
1025.80 0.04644
1025.90 0.04639
1026.00 0.04634
1026.10 0.04629
1026.20 0.04624
1026.30 0.0462
1026.40 0.04615
1026.50 0.0461
1026.60 0.04605
1026.70 0.046
1026.80 0.04595
1026.90 0.0459
1027.00 0.04586
1027.10 0.04581
1027.20 0.04577
1027.30 0.04572
1027.40 0.04568
1027.50 0.04563
1027.60 0.04559
1027.70 0.04554
1027.80 0.0455
1027.90 0.04545
1028.00 0.04541
1028.10 0.04536
1028.20 0.04532
1028.30 0.04527
1028.40 0.04523
1028.50 0.04519
1028.60 0.04514
1028.70 0.0451
1028.80 0.04505
1028.90 0.04501
1029.00 0.04496
1029.10 0.04492
1029.20 0.04487
1029.30 0.04483
1029.40 0.04479
1029.50 0.04474
1029.60 0.0447
1029.70 0.04465
1029.80 0.04461
1029.90 0.04456
1030.00 0.04452
1030.10 0.04448
1030.20 0.04443
1030.30 0.04439
1030.40 0.04434
1030.50 0.0443
1030.60 0.04425
1030.70 0.04421
1030.80 0.04417
1030.90 0.04412
1031.00 0.04408
1031.10 0.04403
1031.20 0.04399
1031.30 0.04395
1031.40 0.0439
1031.50 0.04386
1031.60 0.04381
1031.70 0.04377
1031.80 0.04372
1031.90 0.04368
1032.00 0.04364
1032.10 0.0436
1032.20 0.04356
1032.30 0.04351
1032.40 0.04347
1032.50 0.04343
1032.60 0.04339
1032.70 0.04335
1032.80 0.04331
1032.90 0.04327
1033.00 0.04323
1033.10 0.04319
1033.20 0.04315
1033.30 0.04311
1033.40 0.04307
1033.50 0.04303
1033.60 0.04299
1033.70 0.04295
1033.80 0.04291
1033.90 0.04286
1034.00 0.04282
1034.10 0.04278
1034.20 0.04274
1034.30 0.0427
1034.40 0.04266
1034.50 0.04262
1034.60 0.04258
1034.70 0.04254
1034.80 0.0425
1034.90 0.04246
1035.00 0.04242
1035.10 0.04238
1035.20 0.04234
1035.30 0.0423
1035.40 0.04226
1035.50 0.04222
1035.60 0.04218
1035.70 0.04214
1035.80 0.0421
1035.90 0.04206
1036.00 0.04202
1036.10 0.04198
1036.20 0.04194
1036.30 0.0419
1036.40 0.04186
1036.50 0.04182
1036.60 0.04178
1036.70 0.04174
1036.80 0.0417
1036.90 0.04166
1037.00 0.04162
1037.10 0.04158
1037.20 0.04154
1037.30 0.04151
1037.40 0.04147
1037.50 0.04144
1037.60 0.0414
1037.70 0.04137
1037.80 0.04133
1037.90 0.04129
1038.00 0.04126
1038.10 0.04122
1038.20 0.04119
1038.30 0.04115
1038.40 0.04112
1038.50 0.04108
1038.60 0.04104
1038.70 0.04101
1038.80 0.04097
1038.90 0.04094
1039.00 0.0409
1039.10 0.04087
1039.20 0.04083
1039.30 0.0408
1039.40 0.04076
1039.50 0.04072
1039.60 0.04069
1039.70 0.04065
1039.80 0.04062
1039.90 0.04058
1040.00 0.04055
1040.10 0.04051
1040.20 0.04048
1040.30 0.04044
1040.40 0.04041
1040.50 0.04037
1040.60 0.04034
1040.70 0.0403
1040.80 0.04026
1040.90 0.04023
1041.00 0.04019
1041.10 0.04016
1041.20 0.04012
1041.30 0.04009
1041.40 0.04005
1041.50 0.04002
1041.60 0.03998
1041.70 0.03995
1041.80 0.03991
1041.90 0.03988
1042.00 0.03984
1042.10 0.03981
1042.20 0.03978
1042.30 0.03975
1042.40 0.03972
1042.50 0.03968
1042.60 0.03965
1042.70 0.03962
1042.80 0.03959
1042.90 0.03956
1043.00 0.03953
1043.10 0.0395
1043.20 0.03947
1043.30 0.03943
1043.40 0.0394
1043.50 0.03937
1043.60 0.03934
1043.70 0.03931
1043.80 0.03928
1043.90 0.03925
1044.00 0.03922
1044.10 0.03919
1044.20 0.03915
1044.30 0.03912
1044.40 0.03909
1044.50 0.03906
1044.60 0.03903
1044.70 0.039
1044.80 0.03897
1044.90 0.03894
1045.00 0.03891
1045.10 0.03887
1045.20 0.03884
1045.30 0.03881
1045.40 0.03878
1045.50 0.03875
1045.60 0.03872
1045.70 0.03869
1045.80 0.03866
1045.90 0.03863
1046.00 0.0386
1046.10 0.03856
1046.20 0.03853
1046.30 0.0385
1046.40 0.03847
1046.50 0.03844
1046.60 0.03841
1046.70 0.03838
1046.80 0.03835
1046.90 0.03832
1047.00 0.03829
1047.10 0.03826
1047.20 0.03823
1047.30 0.03821
1047.40 0.03818
1047.50 0.03815
1047.60 0.03812
1047.70 0.0381
1047.80 0.03807
1047.90 0.03804
1048.00 0.03802
1048.10 0.03799
1048.20 0.03796
1048.30 0.03793
1048.40 0.03791
1048.50 0.03788
1048.60 0.03785
1048.70 0.03783
1048.80 0.0378
1048.90 0.03777
1049.00 0.03775
1049.10 0.03772
1049.20 0.03769
1049.30 0.03766
1049.40 0.03764
1049.50 0.03761
1049.60 0.03758
1049.70 0.03756
1049.80 0.03753
1049.90 0.0375
1050.00 0.03748
1050.10 0.03745
1050.20 0.03742
1050.30 0.0374
1050.40 0.03737
1050.50 0.03734
1050.60 0.03731
1050.70 0.03729
1050.80 0.03726
1050.90 0.03723
1051.00 0.03721
1051.10 0.03718
1051.20 0.03715
1051.30 0.03713
1051.40 0.0371
1051.50 0.03707
1051.60 0.03705
1051.70 0.03702
1051.80 0.03699
1051.90 0.03697
1052.00 0.03694
1052.10 0.03692
1052.20 0.03689
1052.30 0.03687
1052.40 0.03684
1052.50 0.03682
1052.60 0.0368
1052.70 0.03677
1052.80 0.03675
1052.90 0.03672
1053.00 0.0367
1053.10 0.03668
1053.20 0.03665
1053.30 0.03663
1053.40 0.0366
1053.50 0.03658
1053.60 0.03656
1053.70 0.03653
1053.80 0.03651
1053.90 0.03648
1054.00 0.03646
1054.10 0.03644
1054.20 0.03641
1054.30 0.03639
1054.40 0.03636
1054.50 0.03634
1054.60 0.03632
1054.70 0.03629
1054.80 0.03627
1054.90 0.03624
1055.00 0.03622
1055.10 0.0362
1055.20 0.03617
1055.30 0.03615
1055.40 0.03613
1055.50 0.0361
1055.60 0.03608
1055.70 0.03605
1055.80 0.03603
1055.90 0.03601
1056.00 0.03598
1056.10 0.03596
1056.20 0.03594
1056.30 0.03591
1056.40 0.03589
1056.50 0.03586
1056.60 0.03584
1056.70 0.03582
1056.80 0.03579
1056.90 0.03577
1057.00 0.03575
1057.10 0.03572
1057.20 0.0357
1057.30 0.03568
1057.40 0.03566
1057.50 0.03564
1057.60 0.03562
1057.70 0.0356
1057.80 0.03558
1057.90 0.03556
1058.00 0.03554
1058.10 0.03551
1058.20 0.03549
1058.30 0.03547
1058.40 0.03545
1058.50 0.03543
1058.60 0.03541
1058.70 0.03539
1058.80 0.03537
1058.90 0.03535
1059.00 0.03533
1059.10 0.03531
1059.20 0.03528
1059.30 0.03526
1059.40 0.03524
1059.50 0.03522
1059.60 0.0352
1059.70 0.03518
1059.80 0.03516
1059.90 0.03514
1060.00 0.03512
1060.10 0.0351
1060.20 0.03508
1060.30 0.03505
1060.40 0.03503
1060.50 0.03501
1060.60 0.03499
1060.70 0.03497
1060.80 0.03495
1060.90 0.03493
1061.00 0.03491
1061.10 0.03489
1061.20 0.03487
1061.30 0.03485
1061.40 0.03483
1061.50 0.03481
1061.60 0.03478
1061.70 0.03476
1061.80 0.03474
1061.90 0.03472
1062.00 0.0347
1062.10 0.03468
1062.20 0.03467
1062.30 0.03465
1062.40 0.03463
1062.50 0.03461
1062.60 0.03459
1062.70 0.03458
1062.80 0.03456
1062.90 0.03454
1063.00 0.03452
1063.10 0.0345
1063.20 0.03449
1063.30 0.03447
1063.40 0.03445
1063.50 0.03443
1063.60 0.03441
1063.70 0.0344
1063.80 0.03438
1063.90 0.03436
1064.00 0.03434
1064.10 0.03433
1064.20 0.03431
1064.30 0.03429
1064.40 0.03427
1064.50 0.03425
1064.60 0.03424
1064.70 0.03422
1064.80 0.0342
1064.90 0.03418
1065.00 0.03416
1065.10 0.03415
1065.20 0.03413
1065.30 0.03411
1065.40 0.03409
1065.50 0.03408
1065.60 0.03406
1065.70 0.03404
1065.80 0.03402
1065.90 0.034
1066.00 0.03399
1066.10 0.03397
1066.20 0.03395
1066.30 0.03393
1066.40 0.03392
1066.50 0.0339
1066.60 0.03388
1066.70 0.03386
1066.80 0.03384
1066.90 0.03383
1067.00 0.03381
1067.10 0.03379
1067.20 0.03378
1067.30 0.03376
1067.40 0.03375
1067.50 0.03373
1067.60 0.03371
1067.70 0.0337
1067.80 0.03368
1067.90 0.03367
1068.00 0.03365
1068.10 0.03363
1068.20 0.03362
1068.30 0.0336
1068.40 0.03359
1068.50 0.03357
1068.60 0.03356
1068.70 0.03354
1068.80 0.03352
1068.90 0.03351
1069.00 0.03349
1069.10 0.03348
1069.20 0.03346
1069.30 0.03345
1069.40 0.03343
1069.50 0.03341
1069.60 0.0334
1069.70 0.03338
1069.80 0.03337
1069.90 0.03335
1070.00 0.03334
1070.10 0.03332
1070.20 0.0333
1070.30 0.03329
1070.40 0.03327
1070.50 0.03326
1070.60 0.03324
1070.70 0.03323
1070.80 0.03321
1070.90 0.03319
1071.00 0.03318
1071.10 0.03316
1071.20 0.03315
1071.30 0.03313
1071.40 0.03312
1071.50 0.0331
1071.60 0.03308
1071.70 0.03307
1071.80 0.03305
1071.90 0.03304
1072.00 0.03302
1072.10 0.03301
1072.20 0.033
1072.30 0.03298
1072.40 0.03297
1072.50 0.03296
1072.60 0.03295
1072.70 0.03293
1072.80 0.03292
1072.90 0.03291
1073.00 0.0329
1073.10 0.03288
1073.20 0.03287
1073.30 0.03286
1073.40 0.03284
1073.50 0.03283
1073.60 0.03282
1073.70 0.03281
1073.80 0.0328
1073.90 0.03279
1074.00 0.03278
1074.10 0.03277
1074.20 0.03276
1074.30 0.03275
1074.40 0.03273
1074.50 0.03272
1074.60 0.03271
1074.70 0.0327
1074.80 0.03269
1074.90 0.03268
1075.00 0.03267
1075.10 0.03266
1075.20 0.03265
1075.30 0.03264
1075.40 0.03263
1075.50 0.03261
1075.60 0.0326
1075.70 0.03259
1075.80 0.03258
1075.90 0.03257
1076.00 0.03256
1076.10 0.03255
1076.20 0.03254
1076.30 0.03253
1076.40 0.03252
1076.50 0.03251
1076.60 0.0325
1076.70 0.03248
1076.80 0.03247
1076.90 0.03246
1077.00 0.03245
1077.10 0.03244
1077.20 0.03243
1077.30 0.03242
1077.40 0.03241
1077.50 0.03241
1077.60 0.0324
1077.70 0.03239
1077.80 0.03238
1077.90 0.03237
1078.00 0.03236
1078.10 0.03235
1078.20 0.03235
1078.30 0.03234
1078.40 0.03233
1078.50 0.03232
1078.60 0.03231
1078.70 0.0323
1078.80 0.03229
1078.90 0.03229
1079.00 0.03228
1079.10 0.03227
1079.20 0.03226
1079.30 0.03225
1079.40 0.03224
1079.50 0.03223
1079.60 0.03223
1079.70 0.03222
1079.80 0.03222
1079.90 0.03221
1080.00 0.0322
1080.10 0.0322
1080.20 0.03219
1080.30 0.03218
1080.40 0.03218
1080.50 0.03217
1080.60 0.03217
1080.70 0.03216
1080.80 0.03215
1080.90 0.03215
1081.00 0.03214
1081.10 0.03213
1081.20 0.03213
1081.30 0.03212
1081.40 0.03212
1081.50 0.03211
1081.60 0.0321
1081.70 0.0321
1081.80 0.03209
1081.90 0.03208
1082.00 0.03208
1082.10 0.03207
1082.20 0.03207
1082.30 0.03206
1082.40 0.03206
1082.50 0.03205
1082.60 0.03204
1082.70 0.03204
1082.80 0.03203
1082.90 0.03203
1083.00 0.03202
1083.10 0.03202
1083.20 0.03201
1083.30 0.032
1083.40 0.032
1083.50 0.03199
1083.60 0.03199
1083.70 0.03198
1083.80 0.03198
1083.90 0.03197
1084.00 0.03197
1084.10 0.03196
1084.20 0.03196
1084.30 0.03195
1084.40 0.03195
1084.50 0.03194
1084.60 0.03194
1084.70 0.03193
1084.80 0.03193
1084.90 0.03193
1085.00 0.03192
1085.10 0.03192
1085.20 0.03191
1085.30 0.03191
1085.40 0.03191
1085.50 0.0319
1085.60 0.0319
1085.70 0.03189
1085.80 0.03189
1085.90 0.03189
1086.00 0.03188
1086.10 0.03188
1086.20 0.03187
1086.30 0.03187
1086.40 0.03186
1086.50 0.03186
1086.60 0.03186
1086.70 0.03185
1086.80 0.03185
1086.90 0.03185
1087.00 0.03184
1087.10 0.03184
1087.20 0.03184
1087.30 0.03184
1087.40 0.03183
1087.50 0.03183
1087.60 0.03183
1087.70 0.03182
1087.80 0.03182
1087.90 0.03182
1088.00 0.03182
1088.10 0.03181
1088.20 0.03181
1088.30 0.03181
1088.40 0.03181
1088.50 0.0318
1088.60 0.0318
1088.70 0.0318
1088.80 0.0318
1088.90 0.0318
1089.00 0.03179
1089.10 0.03179
1089.20 0.03179
1089.30 0.03179
1089.40 0.03179
1089.50 0.03178
1089.60 0.03178
1089.70 0.03178
1089.80 0.03178
1089.90 0.03178
1090.00 0.03178
1090.10 0.03177
1090.20 0.03177
1090.30 0.03177
1090.40 0.03177
1090.50 0.03177
1090.60 0.03177
1090.70 0.03177
1090.80 0.03176
1090.90 0.03176
1091.00 0.03176
1091.10 0.03176
1091.20 0.03176
1091.30 0.03176
1091.40 0.03176
1091.50 0.03176
1091.60 0.03176
1091.70 0.03176
1091.80 0.03176
1091.90 0.03176
1092.00 0.03175
1092.10 0.03175
1092.20 0.03175
1092.30 0.03175
1092.40 0.03175
1092.50 0.03175
1092.60 0.03175
1092.70 0.03176
1092.80 0.03177
1092.90 0.03178
1093.00 0.03179
1093.10 0.0318
1093.20 0.0318
1093.30 0.0318
1093.40 0.0318
1093.50 0.0318
1093.60 0.0318
1093.70 0.0318
1093.80 0.0318
1093.90 0.0318
1094.00 0.03181
1094.10 0.03181
1094.20 0.03181
1094.30 0.03181
1094.40 0.03181
1094.50 0.03181
1094.60 0.03181
1094.70 0.03181
1094.80 0.03181
1094.90 0.03181
1095.00 0.03181
1095.10 0.03181
1095.20 0.03181
1095.30 0.03181
1095.40 0.03182
1095.50 0.03182
1095.60 0.03182
1095.70 0.03182
1095.80 0.03182
1095.90 0.03182
1096.00 0.03182
1096.10 0.03182
1096.20 0.03182
1096.30 0.03182
1096.40 0.03183
1096.50 0.03183
1096.60 0.03183
1096.70 0.03183
1096.80 0.03183
1096.90 0.03183
1097.00 0.03183
1097.10 0.03183
1097.20 0.03184
1097.30 0.03184
1097.40 0.03184
1097.50 0.03184
1097.60 0.03184
1097.70 0.03184
1097.80 0.03185
1097.90 0.03185
1098.00 0.03185
1098.10 0.03185
1098.20 0.03185
1098.30 0.03185
1098.40 0.03185
1098.50 0.03186
1098.60 0.03186
1098.70 0.03186
1098.80 0.03186
1098.90 0.03186
1099.00 0.03187
1099.10 0.03187
1099.20 0.03187
1099.30 0.03187
1099.40 0.03187
1099.50 0.03188
1099.60 0.03188
1099.70 0.03188
1099.80 0.03188
1099.90 0.03189
1100.00 0.03189
1100.10 0.03189
1100.20 0.03189
1100.30 0.03189
1100.40 0.0319
1100.50 0.0319
1100.60 0.0319
1100.70 0.0319
1100.80 0.03191
1100.90 0.03191
1101.00 0.03191
1101.10 0.03191
1101.20 0.03192
1101.30 0.03192
1101.40 0.03192
1101.50 0.03192
1101.60 0.03193
1101.70 0.03193
1101.80 0.03193
1101.90 0.03193
1102.00 0.03194
1102.10 0.03194
1102.20 0.03194
1102.30 0.03195
1102.40 0.03195
1102.50 0.03195
1102.60 0.03195
1102.70 0.03196
1102.80 0.03196
1102.90 0.03196
1103.00 0.03197
1103.10 0.03197
1103.20 0.03197
1103.30 0.03198
1103.40 0.03198
1103.50 0.03198
1103.60 0.03199
1103.70 0.03199
1103.80 0.03199
1103.90 0.032
1104.00 0.032
1104.10 0.032
1104.20 0.03201
1104.30 0.03201
1104.40 0.03201
1104.50 0.03202
1104.60 0.03202
1104.70 0.03202
1104.80 0.03203
1104.90 0.03203
1105.00 0.03203
1105.10 0.03204
1105.20 0.03204
1105.30 0.03205
1105.40 0.03205
1105.50 0.03205
1105.60 0.03206
1105.70 0.03206
1105.80 0.03206
1105.90 0.03207
1106.00 0.03207
1106.10 0.03208
1106.20 0.03208
1106.30 0.03208
1106.40 0.03209
1106.50 0.03209
1106.60 0.0321
1106.70 0.0321
1106.80 0.0321
1106.90 0.03211
1107.00 0.03211
1107.10 0.03212
1107.20 0.03212
1107.30 0.03213
1107.40 0.03213
1107.50 0.03213
1107.60 0.03214
1107.70 0.03214
1107.80 0.03215
1107.90 0.03215
1108.00 0.03216
1108.10 0.03216
1108.20 0.03217
1108.30 0.03217
1108.40 0.03218
1108.50 0.03218
1108.60 0.03218
1108.70 0.03219
1108.80 0.03219
1108.90 0.0322
1109.00 0.0322
1109.10 0.03221
1109.20 0.03221
1109.30 0.03222
1109.40 0.03222
1109.50 0.03223
1109.60 0.03223
1109.70 0.03224
1109.80 0.03224
1109.90 0.03225
1110.00 0.03225
1110.10 0.03226
1110.20 0.03226
1110.30 0.03227
1110.40 0.03227
1110.50 0.03228
1110.60 0.03228
1110.70 0.03229
1110.80 0.0323
1110.90 0.0323
1111.00 0.03231
1111.10 0.03231
1111.20 0.03232
1111.30 0.03232
1111.40 0.03233
1111.50 0.03233
1111.60 0.03234
1111.70 0.03234
1111.80 0.03235
1111.90 0.03235
1112.00 0.03236
1112.10 0.03236
1112.20 0.03237
1112.30 0.03238
1112.40 0.03238
1112.50 0.03239
1112.60 0.03239
1112.70 0.0324
1112.80 0.0324
1112.90 0.03241
1113.00 0.03242
1113.10 0.03242
1113.20 0.03243
1113.30 0.03243
1113.40 0.03244
1113.50 0.03245
1113.60 0.03245
1113.70 0.03246
1113.80 0.03247
1113.90 0.03247
1114.00 0.03248
1114.10 0.03249
1114.20 0.03249
1114.30 0.0325
1114.40 0.03251
1114.50 0.03251
1114.60 0.03252
1114.70 0.03252
1114.80 0.03253
1114.90 0.03254
1115.00 0.03254
1115.10 0.03255
1115.20 0.03256
1115.30 0.03256
1115.40 0.03257
1115.50 0.03258
1115.60 0.03258
1115.70 0.03259
1115.80 0.0326
1115.90 0.0326
1116.00 0.03261
1116.10 0.03262
1116.20 0.03262
1116.30 0.03263
1116.40 0.03264
1116.50 0.03264
1116.60 0.03265
1116.70 0.03266
1116.80 0.03266
1116.90 0.03267
1117.00 0.03268
1117.10 0.03268
1117.20 0.03269
1117.30 0.0327
1117.40 0.03271
1117.50 0.03271
1117.60 0.03272
1117.70 0.03273
1117.80 0.03274
1117.90 0.03274
1118.00 0.03275
1118.10 0.03276
1118.20 0.03277
1118.30 0.03277
1118.40 0.03278
1118.50 0.03279
1118.60 0.0328
1118.70 0.0328
1118.80 0.03281
1118.90 0.03282
1119.00 0.03283
1119.10 0.03284
1119.20 0.03284
1119.30 0.03285
1119.40 0.03286
1119.50 0.03287
1119.60 0.03287
1119.70 0.03288
1119.80 0.03289
1119.90 0.0329
1120.00 0.0329
1120.10 0.03291
1120.20 0.03292
1120.30 0.03293
1120.40 0.03293
1120.50 0.03294
1120.60 0.03295
1120.70 0.03296
1120.80 0.03296
1120.90 0.03297
1121.00 0.03298
1121.10 0.03299
1121.20 0.03299
1121.30 0.033
1121.40 0.03301
1121.50 0.03302
1121.60 0.03302
1121.70 0.03303
1121.80 0.03304
1121.90 0.03305
1122.00 0.03305
1122.10 0.03306
1122.20 0.03307
1122.30 0.03308
1122.40 0.03309
1122.50 0.0331
1122.60 0.03311
1122.70 0.03312
1122.80 0.03313
1122.90 0.03314
1123.00 0.03315
1123.10 0.03316
1123.20 0.03317
1123.30 0.03318
1123.40 0.03319
1123.50 0.0332
1123.60 0.03321
1123.70 0.03322
1123.80 0.03323
1123.90 0.03324
1124.00 0.03325
1124.10 0.03326
1124.20 0.03327
1124.30 0.03328
1124.40 0.03329
1124.50 0.0333
1124.60 0.03331
1124.70 0.03332
1124.80 0.03333
1124.90 0.03334
1125.00 0.03335
1125.10 0.03336
1125.20 0.03337
1125.30 0.03338
1125.40 0.03339
1125.50 0.0334
1125.60 0.03341
1125.70 0.03342
1125.80 0.03343
1125.90 0.03344
1126.00 0.03345
1126.10 0.03346
1126.20 0.03347
1126.30 0.03348
1126.40 0.03349
1126.50 0.0335
1126.60 0.03351
1126.70 0.03352
1126.80 0.03353
1126.90 0.03354
1127.00 0.03355
1127.10 0.03356
1127.20 0.03357
1127.30 0.03358
1127.40 0.0336
1127.50 0.03361
1127.60 0.03362
1127.70 0.03364
1127.80 0.03365
1127.90 0.03366
1128.00 0.03367
1128.10 0.03369
1128.20 0.0337
1128.30 0.03371
1128.40 0.03372
1128.50 0.03374
1128.60 0.03375
1128.70 0.03376
1128.80 0.03378
1128.90 0.03379
1129.00 0.0338
1129.10 0.03381
1129.20 0.03383
1129.30 0.03384
1129.40 0.03385
1129.50 0.03386
1129.60 0.03388
1129.70 0.03389
1129.80 0.0339
1129.90 0.03391
1130.00 0.03393
1130.10 0.03394
1130.20 0.03395
1130.30 0.03397
1130.40 0.03398
1130.50 0.03399
1130.60 0.034
1130.70 0.03402
1130.80 0.03403
1130.90 0.03404
1131.00 0.03405
1131.10 0.03407
1131.20 0.03408
1131.30 0.03409
1131.40 0.0341
1131.50 0.03412
1131.60 0.03413
1131.70 0.03414
1131.80 0.03415
1131.90 0.03417
1132.00 0.03418
1132.10 0.03419
1132.20 0.0342
1132.30 0.03422
1132.40 0.03423
1132.50 0.03424
1132.60 0.03425
1132.70 0.03427
1132.80 0.03428
1132.90 0.03429
1133.00 0.03431
1133.10 0.03432
1133.20 0.03433
1133.30 0.03434
1133.40 0.03436
1133.50 0.03437
1133.60 0.03438
1133.70 0.03439
1133.80 0.03441
1133.90 0.03442
1134.00 0.03443
1134.10 0.03444
1134.20 0.03446
1134.30 0.03447
1134.40 0.03448
1134.50 0.03449
1134.60 0.03451
1134.70 0.03452
1134.80 0.03453
1134.90 0.03454
1135.00 0.03456
1135.10 0.03457
1135.20 0.03458
1135.30 0.03459
1135.40 0.03461
1135.50 0.03462
1135.60 0.03463
1135.70 0.03464
1135.80 0.03466
1135.90 0.03467
1136.00 0.03468
1136.10 0.03469
1136.20 0.03471
1136.30 0.03472
1136.40 0.03473
1136.50 0.03474
1136.60 0.03476
1136.70 0.03477
1136.80 0.03478
1136.90 0.03479
1137.00 0.03481
1137.10 0.03482
1137.20 0.03483
1137.30 0.03485
1137.40 0.03486
1137.50 0.03487
1137.60 0.03489
1137.70 0.0349
1137.80 0.03491
1137.90 0.03493
1138.00 0.03494
1138.10 0.03495
1138.20 0.03497
1138.30 0.03498
1138.40 0.03499
1138.50 0.03501
1138.60 0.03502
1138.70 0.03503
1138.80 0.03505
1138.90 0.03506
1139.00 0.03507
1139.10 0.03509
1139.20 0.0351
1139.30 0.03511
1139.40 0.03513
1139.50 0.03514
1139.60 0.03515
1139.70 0.03517
1139.80 0.03518
1139.90 0.03519
1140.00 0.0352
1140.10 0.03522
1140.20 0.03523
1140.30 0.03524
1140.40 0.03526
1140.50 0.03527
1140.60 0.03528
1140.70 0.0353
1140.80 0.03531
1140.90 0.03532
1141.00 0.03534
1141.10 0.03535
1141.20 0.03536
1141.30 0.03538
1141.40 0.03539
1141.50 0.0354
1141.60 0.03542
1141.70 0.03543
1141.80 0.03544
1141.90 0.03545
1142.00 0.03547
1142.10 0.03548
1142.20 0.0355
1142.30 0.03551
1142.40 0.03553
1142.50 0.03554
1142.60 0.03556
1142.70 0.03557
1142.80 0.03559
1142.90 0.0356
1143.00 0.03562
1143.10 0.03563
1143.20 0.03565
1143.30 0.03566
1143.40 0.03568
1143.50 0.03569
1143.60 0.0357
1143.70 0.03572
1143.80 0.03573
1143.90 0.03575
1144.00 0.03576
1144.10 0.03578
1144.20 0.03579
1144.30 0.03581
1144.40 0.03582
1144.50 0.03584
1144.60 0.03585
1144.70 0.03587
1144.80 0.03588
1144.90 0.0359
1145.00 0.03591
1145.10 0.03593
1145.20 0.03594
1145.30 0.03595
1145.40 0.03597
1145.50 0.03598
1145.60 0.036
1145.70 0.03601
1145.80 0.03603
1145.90 0.03604
1146.00 0.03606
1146.10 0.03607
1146.20 0.03609
1146.30 0.0361
1146.40 0.03612
1146.50 0.03613
1146.60 0.03614
1146.70 0.03616
1146.80 0.03617
1146.90 0.03619
1147.00 0.0362
1147.10 0.03622
1147.20 0.03623
1147.30 0.03624
1147.40 0.03625
1147.50 0.03627
1147.60 0.03628
1147.70 0.03629
1147.80 0.0363
1147.90 0.03632
1148.00 0.03633
1148.10 0.03634
1148.20 0.03635
1148.30 0.03637
1148.40 0.03638
1148.50 0.03639
1148.60 0.0364
1148.70 0.03642
1148.80 0.03643
1148.90 0.03644
1149.00 0.03645
1149.10 0.03647
1149.20 0.03648
1149.30 0.03649
1149.40 0.0365
1149.50 0.03652
1149.60 0.03653
1149.70 0.03654
1149.80 0.03655
1149.90 0.03657
1150.00 0.03658
1150.10 0.03659
1150.20 0.0366
1150.30 0.03662
1150.40 0.03663
1150.50 0.03664
1150.60 0.03665
1150.70 0.03667
1150.80 0.03668
1150.90 0.03669
1151.00 0.0367
1151.10 0.03672
1151.20 0.03673
1151.30 0.03674
1151.40 0.03675
1151.50 0.03676
1151.60 0.03678
1151.70 0.03679
1151.80 0.0368
1151.90 0.03681
1152.00 0.03683
1152.10 0.03684
1152.20 0.03685
1152.30 0.03686
1152.40 0.03688
1152.50 0.03689
1152.60 0.0369
1152.70 0.03692
1152.80 0.03693
1152.90 0.03694
1153.00 0.03695
1153.10 0.03697
1153.20 0.03698
1153.30 0.03699
1153.40 0.037
1153.50 0.03702
1153.60 0.03703
1153.70 0.03704
1153.80 0.03705
1153.90 0.03707
1154.00 0.03708
1154.10 0.03709
1154.20 0.0371
1154.30 0.03712
1154.40 0.03713
1154.50 0.03714
1154.60 0.03716
1154.70 0.03717
1154.80 0.03718
1154.90 0.03719
1155.00 0.03721
1155.10 0.03722
1155.20 0.03723
1155.30 0.03724
1155.40 0.03726
1155.50 0.03727
1155.60 0.03728
1155.70 0.03729
1155.80 0.03731
1155.90 0.03732
1156.00 0.03733
1156.10 0.03734
1156.20 0.03736
1156.30 0.03737
1156.40 0.03738
1156.50 0.03739
1156.60 0.03741
1156.70 0.03742
1156.80 0.03743
1156.90 0.03744
1157.00 0.03746
1157.10 0.03747
1157.20 0.03748
1157.30 0.03749
1157.40 0.0375
1157.50 0.03751
1157.60 0.03752
1157.70 0.03753
1157.80 0.03753
1157.90 0.03754
1158.00 0.03755
1158.10 0.03756
1158.20 0.03757
1158.30 0.03758
1158.40 0.03759
1158.50 0.0376
1158.60 0.03761
1158.70 0.03762
1158.80 0.03763
1158.90 0.03764
1159.00 0.03765
1159.10 0.03766
1159.20 0.03767
1159.30 0.03768
1159.40 0.03769
1159.50 0.0377
1159.60 0.03771
1159.70 0.03772
1159.80 0.03773
1159.90 0.03774
1160.00 0.03775
1160.10 0.03776
1160.20 0.03777
1160.30 0.03778
1160.40 0.03779
1160.50 0.0378
1160.60 0.03781
1160.70 0.03782
1160.80 0.03783
1160.90 0.03784
1161.00 0.03785
1161.10 0.03786
1161.20 0.03787
1161.30 0.03788
1161.40 0.03789
1161.50 0.0379
1161.60 0.03791
1161.70 0.03792
1161.80 0.03793
1161.90 0.03794
1162.00 0.03795
1162.10 0.03796
1162.20 0.03797
1162.30 0.03797
1162.40 0.03798
1162.50 0.03799
1162.60 0.038
1162.70 0.038
1162.80 0.03801
1162.90 0.03802
1163.00 0.03803
1163.10 0.03804
1163.20 0.03804
1163.30 0.03805
1163.40 0.03806
1163.50 0.03807
1163.60 0.03808
1163.70 0.03808
1163.80 0.03809
1163.90 0.0381
1164.00 0.03811
1164.10 0.03811
1164.20 0.03812
1164.30 0.03813
1164.40 0.03814
1164.50 0.03815
1164.60 0.03815
1164.70 0.03816
1164.80 0.03817
1164.90 0.03818
1165.00 0.03819
1165.10 0.03819
1165.20 0.0382
1165.30 0.03821
1165.40 0.03822
1165.50 0.03822
1165.60 0.03823
1165.70 0.03824
1165.80 0.03825
1165.90 0.03826
1166.00 0.03826
1166.10 0.03827
1166.20 0.03828
1166.30 0.03829
1166.40 0.03829
1166.50 0.0383
1166.60 0.03831
1166.70 0.03832
1166.80 0.03833
1166.90 0.03833
1167.00 0.03834
1167.10 0.03835
1167.20 0.03836
1167.30 0.03836
1167.40 0.03837
1167.50 0.03838
1167.60 0.03838
1167.70 0.03839
1167.80 0.0384
1167.90 0.0384
1168.00 0.03841
1168.10 0.03842
1168.20 0.03843
1168.30 0.03843
1168.40 0.03844
1168.50 0.03845
1168.60 0.03845
1168.70 0.03846
1168.80 0.03847
1168.90 0.03847
1169.00 0.03848
1169.10 0.03849
1169.20 0.0385
1169.30 0.0385
1169.40 0.03851
1169.50 0.03852
1169.60 0.03852
1169.70 0.03853
1169.80 0.03854
1169.90 0.03854
1170.00 0.03855
1170.10 0.03856
1170.20 0.03856
1170.30 0.03857
1170.40 0.03858
1170.50 0.03859
1170.60 0.03859
1170.70 0.0386
1170.80 0.03861
1170.90 0.03861
1171.00 0.03862
1171.10 0.03863
1171.20 0.03863
1171.30 0.03864
1171.40 0.03865
1171.50 0.03865
1171.60 0.03866
1171.70 0.03867
1171.80 0.03868
1171.90 0.03868
1172.00 0.03869
1172.10 0.03869
1172.20 0.03869
1172.30 0.0387
1172.40 0.0387
1172.50 0.0387
1172.60 0.0387
1172.70 0.03871
1172.80 0.03871
1172.90 0.03871
1173.00 0.03871
1173.10 0.03872
1173.20 0.03872
1173.30 0.03872
1173.40 0.03872
1173.50 0.03873
1173.60 0.03873
1173.70 0.03873
1173.80 0.03874
1173.90 0.03874
1174.00 0.03874
1174.10 0.03874
1174.20 0.03875
1174.30 0.03875
1174.40 0.03875
1174.50 0.03875
1174.60 0.03876
1174.70 0.03876
1174.80 0.03876
1174.90 0.03876
1175.00 0.03877
1175.10 0.03877
1175.20 0.03877
1175.30 0.03877
1175.40 0.03878
1175.50 0.03878
1175.60 0.03878
1175.70 0.03878
1175.80 0.03879
1175.90 0.03879
1176.00 0.03879
1176.10 0.03879
1176.20 0.0388
1176.30 0.0388
1176.40 0.0388
1176.50 0.0388
1176.60 0.03881
1176.70 0.03881
1176.80 0.03881
1176.90 0.03881
1177.00 0.03882
1177.10 0.03882
1177.20 0.03881
1177.30 0.03881
1177.40 0.03881
1177.50 0.03881
1177.60 0.03881
1177.70 0.03881
1177.80 0.03881
1177.90 0.03881
1178.00 0.03881
1178.10 0.03881
1178.20 0.03881
1178.30 0.03881
1178.40 0.03881
1178.50 0.03881
1178.60 0.0388
1178.70 0.0388
1178.80 0.0388
1178.90 0.0388
1179.00 0.0388
1179.10 0.0388
1179.20 0.0388
1179.30 0.0388
1179.40 0.0388
1179.50 0.0388
1179.60 0.0388
1179.70 0.0388
1179.80 0.0388
1179.90 0.0388
1180.00 0.03879
1180.10 0.03879
1180.20 0.03879
1180.30 0.03879
1180.40 0.03879
1180.50 0.03879
1180.60 0.03879
1180.70 0.03879
1180.80 0.03879
1180.90 0.03879
1181.00 0.03879
1181.10 0.03879
1181.20 0.03879
1181.30 0.03879
1181.40 0.03878
1181.50 0.03878
1181.60 0.03878
1181.70 0.03878
1181.80 0.03878
1181.90 0.03878
1182.00 0.03878
1182.10 0.03878
1182.20 0.03877
1182.30 0.03876
1182.40 0.03876
1182.50 0.03875
1182.60 0.03875
1182.70 0.03874
1182.80 0.03874
1182.90 0.03873
1183.00 0.03873
1183.10 0.03872
1183.20 0.03872
1183.30 0.03871
1183.40 0.0387
1183.50 0.0387
1183.60 0.03869
1183.70 0.03869
1183.80 0.03868
1183.90 0.03868
1184.00 0.03867
1184.10 0.03867
1184.20 0.03866
1184.30 0.03866
1184.40 0.03865
1184.50 0.03865
1184.60 0.03864
1184.70 0.03863
1184.80 0.03863
1184.90 0.03862
1185.00 0.03862
1185.10 0.03861
1185.20 0.03861
1185.30 0.0386
1185.40 0.0386
1185.50 0.03859
1185.60 0.03859
1185.70 0.03858
1185.80 0.03858
1185.90 0.03857
1186.00 0.03856
1186.10 0.03856
1186.20 0.03855
1186.30 0.03855
1186.40 0.03854
1186.50 0.03854
1186.60 0.03853
1186.70 0.03853
1186.80 0.03852
1186.90 0.03852
1187.00 0.03851
1187.10 0.03851
1187.20 0.0385
1187.30 0.0385
1187.40 0.03849
1187.50 0.03849
1187.60 0.03848
1187.70 0.03848
1187.80 0.03848
1187.90 0.03847
1188.00 0.03847
1188.10 0.03846
1188.20 0.03846
1188.30 0.03845
1188.40 0.03845
1188.50 0.03845
1188.60 0.03844
1188.70 0.03844
1188.80 0.03843
1188.90 0.03843
1189.00 0.03842
1189.10 0.03842
1189.20 0.03842
1189.30 0.03841
1189.40 0.03841
1189.50 0.0384
1189.60 0.0384
1189.70 0.03839
1189.80 0.03839
1189.90 0.03838
1190.00 0.03838
1190.10 0.03838
1190.20 0.03837
1190.30 0.03837
1190.40 0.03836
1190.50 0.03836
1190.60 0.03835
1190.70 0.03835
1190.80 0.03835
1190.90 0.03834
1191.00 0.03834
1191.10 0.03833
1191.20 0.03833
1191.30 0.03832
1191.40 0.03832
1191.50 0.03832
1191.60 0.03831
1191.70 0.03831
1191.80 0.0383
1191.90 0.0383
1192.00 0.03829
1192.10 0.03829
1192.20 0.03828
1192.30 0.03828
1192.40 0.03827
1192.50 0.03827
1192.60 0.03826
1192.70 0.03826
1192.80 0.03825
1192.90 0.03825
1193.00 0.03824
1193.10 0.03824
1193.20 0.03823
1193.30 0.03823
1193.40 0.03822
1193.50 0.03821
1193.60 0.03821
1193.70 0.0382
1193.80 0.0382
1193.90 0.03819
1194.00 0.03819
1194.10 0.03818
1194.20 0.03818
1194.30 0.03817
1194.40 0.03817
1194.50 0.03816
1194.60 0.03816
1194.70 0.03815
1194.80 0.03815
1194.90 0.03814
1195.00 0.03814
1195.10 0.03813
1195.20 0.03813
1195.30 0.03812
1195.40 0.03812
1195.50 0.03811
1195.60 0.03811
1195.70 0.0381
1195.80 0.03809
1195.90 0.03809
1196.00 0.03808
1196.10 0.03808
1196.20 0.03807
1196.30 0.03807
1196.40 0.03806
1196.50 0.03806
1196.60 0.03805
1196.70 0.03805
1196.80 0.03804
1196.90 0.03804
1197.00 0.03803
1197.10 0.03802
1197.20 0.03802
1197.30 0.03801
1197.40 0.038
1197.50 0.03799
1197.60 0.03798
1197.70 0.03797
1197.80 0.03797
1197.90 0.03796
1198.00 0.03795
1198.10 0.03794
1198.20 0.03793
1198.30 0.03793
1198.40 0.03792
1198.50 0.03791
1198.60 0.0379
1198.70 0.03789
1198.80 0.03788
1198.90 0.03788
1199.00 0.03787
1199.10 0.03786
1199.20 0.03785
1199.30 0.03784
1199.40 0.03783
1199.50 0.03783
1199.60 0.03782
1199.70 0.03781
1199.80 0.0378
1199.90 0.03779
1200.00 0
