# Version 2.1 - nm, norm@500 to 1, cut digits, bergeron_3250_85.dat_3250
# Wavelength(nm)  Flambda(ergs/cm^s/s/nm)
300.00 0.1295
300.10 0.1297
300.20 0.13
300.30 0.1303
300.40 0.1306
300.50 0.1309
300.60 0.1312
300.70 0.1314
300.80 0.1317
300.90 0.132
301.00 0.1323
301.10 0.1326
301.20 0.1328
301.30 0.1331
301.40 0.1334
301.50 0.1337
301.60 0.134
301.70 0.1342
301.80 0.1345
301.90 0.1348
302.00 0.1351
302.10 0.1354
302.20 0.1357
302.30 0.136
302.40 0.1362
302.50 0.1365
302.60 0.1368
302.70 0.1371
302.80 0.1374
302.90 0.1377
303.00 0.138
303.10 0.1383
303.20 0.1386
303.30 0.1388
303.40 0.1391
303.50 0.1394
303.60 0.1397
303.70 0.14
303.80 0.1403
303.90 0.1406
304.00 0.1408
304.10 0.1411
304.20 0.1414
304.30 0.1417
304.40 0.142
304.50 0.1423
304.60 0.1426
304.70 0.1429
304.80 0.1432
304.90 0.1435
305.00 0.1438
305.10 0.1441
305.20 0.1444
305.30 0.1447
305.40 0.145
305.50 0.1453
305.60 0.1456
305.70 0.1459
305.80 0.1462
305.90 0.1464
306.00 0.1467
306.10 0.147
306.20 0.1473
306.30 0.1477
306.40 0.148
306.50 0.1483
306.60 0.1486
306.70 0.1489
306.80 0.1492
306.90 0.1495
307.00 0.1498
307.10 0.1501
307.20 0.1504
307.30 0.1507
307.40 0.151
307.50 0.1513
307.60 0.1516
307.70 0.1519
307.80 0.1522
307.90 0.1525
308.00 0.1528
308.10 0.1531
308.20 0.1534
308.30 0.1537
308.40 0.154
308.50 0.1543
308.60 0.1546
308.70 0.1549
308.80 0.1552
308.90 0.1556
309.00 0.1559
309.10 0.1562
309.20 0.1565
309.30 0.1568
309.40 0.1571
309.50 0.1574
309.60 0.1577
309.70 0.158
309.80 0.1583
309.90 0.1586
310.00 0.1589
310.10 0.1592
310.20 0.1596
310.30 0.1599
310.40 0.1602
310.50 0.1605
310.60 0.1608
310.70 0.1611
310.80 0.1615
310.90 0.1618
311.00 0.1621
311.10 0.1624
311.20 0.1627
311.30 0.163
311.40 0.1633
311.50 0.1637
311.60 0.164
311.70 0.1643
311.80 0.1646
311.90 0.1649
312.00 0.1652
312.10 0.1655
312.20 0.1658
312.30 0.1662
312.40 0.1665
312.50 0.1668
312.60 0.1671
312.70 0.1675
312.80 0.1678
312.90 0.1681
313.00 0.1684
313.10 0.1687
313.20 0.1691
313.30 0.1694
313.40 0.1697
313.50 0.17
313.60 0.1703
313.70 0.1707
313.80 0.171
313.90 0.1713
314.00 0.1716
314.10 0.1719
314.20 0.1723
314.30 0.1726
314.40 0.1729
314.50 0.1733
314.60 0.1736
314.70 0.1739
314.80 0.1742
314.90 0.1746
315.00 0.1749
315.10 0.1752
315.20 0.1756
315.30 0.1759
315.40 0.1762
315.50 0.1765
315.60 0.1769
315.70 0.1772
315.80 0.1775
315.90 0.1778
316.00 0.1782
316.10 0.1785
316.20 0.1788
316.30 0.1792
316.40 0.1795
316.50 0.1798
316.60 0.1802
316.70 0.1805
316.80 0.1808
316.90 0.1812
317.00 0.1815
317.10 0.1818
317.20 0.1822
317.30 0.1825
317.40 0.1828
317.50 0.1832
317.60 0.1835
317.70 0.1838
317.80 0.1842
317.90 0.1845
318.00 0.1848
318.10 0.1852
318.20 0.1855
318.30 0.1858
318.40 0.1862
318.50 0.1865
318.60 0.1869
318.70 0.1872
318.80 0.1876
318.90 0.1879
319.00 0.1882
319.10 0.1886
319.20 0.1889
319.30 0.1892
319.40 0.1896
319.50 0.1899
319.60 0.1903
319.70 0.1906
319.80 0.1909
319.90 0.1913
320.00 0.1916
320.10 0.192
320.20 0.1923
320.30 0.1926
320.40 0.193
320.50 0.1933
320.60 0.1937
320.70 0.194
320.80 0.1944
320.90 0.1947
321.00 0.1951
321.10 0.1954
321.20 0.1958
321.30 0.1961
321.40 0.1965
321.50 0.1968
321.60 0.1971
321.70 0.1975
321.80 0.1978
321.90 0.1982
322.00 0.1985
322.10 0.1989
322.20 0.1992
322.30 0.1996
322.40 0.1999
322.50 0.2003
322.60 0.2006
322.70 0.201
322.80 0.2013
322.90 0.2017
323.00 0.202
323.10 0.2024
323.20 0.2028
323.30 0.2031
323.40 0.2035
323.50 0.2038
323.60 0.2041
323.70 0.2045
323.80 0.2048
323.90 0.2052
324.00 0.2055
324.10 0.2059
324.20 0.2063
324.30 0.2066
324.40 0.207
324.50 0.2073
324.60 0.2077
324.70 0.2081
324.80 0.2084
324.90 0.2088
325.00 0.2091
325.10 0.2095
325.20 0.2099
325.30 0.2102
325.40 0.2106
325.50 0.2109
325.60 0.2113
325.70 0.2116
325.80 0.212
325.90 0.2123
326.00 0.2127
326.10 0.2131
326.20 0.2134
326.30 0.2138
326.40 0.2142
326.50 0.2145
326.60 0.2149
326.70 0.2152
326.80 0.2156
326.90 0.216
327.00 0.2163
327.10 0.2167
327.20 0.2171
327.30 0.2174
327.40 0.2178
327.50 0.2182
327.60 0.2185
327.70 0.2189
327.80 0.2192
327.90 0.2196
328.00 0.22
328.10 0.2203
328.20 0.2207
328.30 0.2211
328.40 0.2214
328.50 0.2218
328.60 0.2222
328.70 0.2226
328.80 0.2229
328.90 0.2233
329.00 0.2237
329.10 0.224
329.20 0.2244
329.30 0.2248
329.40 0.2251
329.50 0.2255
329.60 0.2259
329.70 0.2262
329.80 0.2266
329.90 0.227
330.00 0.2273
330.10 0.2277
330.20 0.2281
330.30 0.2285
330.40 0.2288
330.50 0.2292
330.60 0.2296
330.70 0.23
330.80 0.2303
330.90 0.2307
331.00 0.2311
331.10 0.2315
331.20 0.2318
331.30 0.2322
331.40 0.2326
331.50 0.233
331.60 0.2333
331.70 0.2337
331.80 0.2341
331.90 0.2344
332.00 0.2348
332.10 0.2352
332.20 0.2356
332.30 0.236
332.40 0.2364
332.50 0.2367
332.60 0.2371
332.70 0.2375
332.80 0.2379
332.90 0.2383
333.00 0.2386
333.10 0.239
333.20 0.2394
333.30 0.2398
333.40 0.2402
333.50 0.2405
333.60 0.2409
333.70 0.2413
333.80 0.2417
333.90 0.242
334.00 0.2424
334.10 0.2428
334.20 0.2432
334.30 0.2436
334.40 0.244
334.50 0.2444
334.60 0.2447
334.70 0.2451
334.80 0.2455
334.90 0.2459
335.00 0.2463
335.10 0.2467
335.20 0.2471
335.30 0.2474
335.40 0.2478
335.50 0.2482
335.60 0.2486
335.70 0.249
335.80 0.2494
335.90 0.2497
336.00 0.2501
336.10 0.2505
336.20 0.2509
336.30 0.2513
336.40 0.2517
336.50 0.2521
336.60 0.2525
336.70 0.2529
336.80 0.2533
336.90 0.2537
337.00 0.254
337.10 0.2544
337.20 0.2548
337.30 0.2552
337.40 0.2556
337.50 0.256
337.60 0.2564
337.70 0.2568
337.80 0.2572
337.90 0.2575
338.00 0.2579
338.10 0.2583
338.20 0.2587
338.30 0.2591
338.40 0.2595
338.50 0.2599
338.60 0.2603
338.70 0.2607
338.80 0.2611
338.90 0.2615
339.00 0.2619
339.10 0.2623
339.20 0.2627
339.30 0.2631
339.40 0.2635
339.50 0.2639
339.60 0.2643
339.70 0.2647
339.80 0.2651
339.90 0.2655
340.00 0.2658
340.10 0.2663
340.20 0.2667
340.30 0.2671
340.40 0.2675
340.50 0.2679
340.60 0.2683
340.70 0.2687
340.80 0.2691
340.90 0.2695
341.00 0.2699
341.10 0.2703
341.20 0.2707
341.30 0.2711
341.40 0.2715
341.50 0.2719
341.60 0.2723
341.70 0.2727
341.80 0.2731
341.90 0.2735
342.00 0.2739
342.10 0.2743
342.20 0.2747
342.30 0.2751
342.40 0.2755
342.50 0.2759
342.60 0.2763
342.70 0.2767
342.80 0.2771
342.90 0.2775
343.00 0.2779
343.10 0.2783
343.20 0.2788
343.30 0.2792
343.40 0.2796
343.50 0.28
343.60 0.2804
343.70 0.2808
343.80 0.2812
343.90 0.2816
344.00 0.282
344.10 0.2824
344.20 0.2828
344.30 0.2832
344.40 0.2836
344.50 0.284
344.60 0.2845
344.70 0.2849
344.80 0.2853
344.90 0.2857
345.00 0.2861
345.10 0.2865
345.20 0.2869
345.30 0.2873
345.40 0.2877
345.50 0.2881
345.60 0.2886
345.70 0.289
345.80 0.2894
345.90 0.2898
346.00 0.2902
346.10 0.2906
346.20 0.291
346.30 0.2914
346.40 0.2919
346.50 0.2923
346.60 0.2927
346.70 0.2931
346.80 0.2935
346.90 0.2939
347.00 0.2944
347.10 0.2948
347.20 0.2952
347.30 0.2956
347.40 0.296
347.50 0.2964
347.60 0.2968
347.70 0.2972
347.80 0.2977
347.90 0.2981
348.00 0.2985
348.10 0.2989
348.20 0.2993
348.30 0.2998
348.40 0.3002
348.50 0.3006
348.60 0.301
348.70 0.3014
348.80 0.3019
348.90 0.3023
349.00 0.3027
349.10 0.3031
349.20 0.3035
349.30 0.304
349.40 0.3044
349.50 0.3048
349.60 0.3052
349.70 0.3056
349.80 0.306
349.90 0.3065
350.00 0.3069
350.10 0.3073
350.20 0.3077
350.30 0.3082
350.40 0.3086
350.50 0.309
350.60 0.3094
350.70 0.3099
350.80 0.3103
350.90 0.3107
351.00 0.3111
351.10 0.3116
351.20 0.312
351.30 0.3124
351.40 0.3128
351.50 0.3133
351.60 0.3137
351.70 0.3141
351.80 0.3145
351.90 0.3149
352.00 0.3154
352.10 0.3158
352.20 0.3162
352.30 0.3166
352.40 0.3171
352.50 0.3175
352.60 0.3179
352.70 0.3184
352.80 0.3188
352.90 0.3192
353.00 0.3197
353.10 0.3201
353.20 0.3205
353.30 0.3209
353.40 0.3214
353.50 0.3218
353.60 0.3222
353.70 0.3226
353.80 0.3231
353.90 0.3235
354.00 0.3239
354.10 0.3244
354.20 0.3248
354.30 0.3252
354.40 0.3257
354.50 0.3261
354.60 0.3265
354.70 0.327
354.80 0.3274
354.90 0.3278
355.00 0.3283
355.10 0.3287
355.20 0.3291
355.30 0.3296
355.40 0.33
355.50 0.3304
355.60 0.3309
355.70 0.3313
355.80 0.3317
355.90 0.3321
356.00 0.3326
356.10 0.333
356.20 0.3334
356.30 0.3339
356.40 0.3343
356.50 0.3348
356.60 0.3352
356.70 0.3356
356.80 0.3361
356.90 0.3365
357.00 0.337
357.10 0.3374
357.20 0.3378
357.30 0.3383
357.40 0.3387
357.50 0.3391
357.60 0.3396
357.70 0.34
357.80 0.3404
357.90 0.3409
358.00 0.3413
358.10 0.3417
358.20 0.3422
358.30 0.3426
358.40 0.3431
358.50 0.3435
358.60 0.344
358.70 0.3444
358.80 0.3448
358.90 0.3453
359.00 0.3457
359.10 0.3462
359.20 0.3466
359.30 0.347
359.40 0.3475
359.50 0.3479
359.60 0.3483
359.70 0.3488
359.80 0.3492
359.90 0.3497
360.00 0.3501
360.10 0.3505
360.20 0.351
360.30 0.3514
360.40 0.3519
360.50 0.3523
360.60 0.3528
360.70 0.3532
360.80 0.3537
360.90 0.3541
361.00 0.3546
361.10 0.355
361.20 0.3554
361.30 0.3559
361.40 0.3563
361.50 0.3568
361.60 0.3572
361.70 0.3577
361.80 0.3581
361.90 0.3585
362.00 0.359
362.10 0.3594
362.20 0.3599
362.30 0.3603
362.40 0.3608
362.50 0.3612
362.60 0.3617
362.70 0.3621
362.80 0.3625
362.90 0.363
363.00 0.3634
363.10 0.3639
363.20 0.3643
363.30 0.3648
363.40 0.3652
363.50 0.3657
363.60 0.3661
363.70 0.3666
363.80 0.367
363.90 0.3675
364.00 0.3679
364.10 0.3684
364.20 0.3688
364.30 0.3693
364.40 0.3697
364.50 0.3702
364.60 0.3706
364.70 0.3711
364.80 0.3715
364.90 0.372
365.00 0.3724
365.10 0.3729
365.20 0.3733
365.30 0.3738
365.40 0.3742
365.50 0.3747
365.60 0.3752
365.70 0.3756
365.80 0.3761
365.90 0.3765
366.00 0.377
366.10 0.3774
366.20 0.3779
366.30 0.3783
366.40 0.3788
366.50 0.3792
366.60 0.3797
366.70 0.3802
366.80 0.3806
366.90 0.3811
367.00 0.3815
367.10 0.382
367.20 0.3824
367.30 0.3829
367.40 0.3833
367.50 0.3838
367.60 0.3842
367.70 0.3847
367.80 0.3851
367.90 0.3856
368.00 0.386
368.10 0.3865
368.20 0.387
368.30 0.3874
368.40 0.3879
368.50 0.3883
368.60 0.3888
368.70 0.3893
368.80 0.3897
368.90 0.3902
369.00 0.3906
369.10 0.3911
369.20 0.3915
369.30 0.392
369.40 0.3925
369.50 0.3929
369.60 0.3934
369.70 0.3938
369.80 0.3943
369.90 0.3947
370.00 0.3952
370.10 0.3956
370.20 0.3961
370.30 0.3966
370.40 0.397
370.50 0.3975
370.60 0.398
370.70 0.3984
370.80 0.3989
370.90 0.3993
371.00 0.3998
371.10 0.4003
371.20 0.4007
371.30 0.4012
371.40 0.4016
371.50 0.4021
371.60 0.4025
371.70 0.403
371.80 0.4035
371.90 0.4039
372.00 0.4044
372.10 0.4048
372.20 0.4053
372.30 0.4058
372.40 0.4062
372.50 0.4067
372.60 0.4072
372.70 0.4076
372.80 0.4081
372.90 0.4086
373.00 0.409
373.10 0.4095
373.20 0.41
373.30 0.4104
373.40 0.4109
373.50 0.4113
373.60 0.4118
373.70 0.4123
373.80 0.4127
373.90 0.4132
374.00 0.4136
374.10 0.4141
374.20 0.4146
374.30 0.415
374.40 0.4155
374.50 0.416
374.60 0.4164
374.70 0.4169
374.80 0.4174
374.90 0.4178
375.00 0.4183
375.10 0.4188
375.20 0.4192
375.30 0.4197
375.40 0.4202
375.50 0.4206
375.60 0.4211
375.70 0.4216
375.80 0.422
375.90 0.4225
376.00 0.4229
376.10 0.4234
376.20 0.4239
376.30 0.4244
376.40 0.4248
376.50 0.4253
376.60 0.4258
376.70 0.4262
376.80 0.4267
376.90 0.4272
377.00 0.4276
377.10 0.4281
377.20 0.4286
377.30 0.4291
377.40 0.4295
377.50 0.43
377.60 0.4305
377.70 0.4309
377.80 0.4314
377.90 0.4319
378.00 0.4323
378.10 0.4328
378.20 0.4333
378.30 0.4337
378.40 0.4342
378.50 0.4347
378.60 0.4352
378.70 0.4356
378.80 0.4361
378.90 0.4366
379.00 0.437
379.10 0.4375
379.20 0.438
379.30 0.4384
379.40 0.4389
379.50 0.4394
379.60 0.4399
379.70 0.4403
379.80 0.4408
379.90 0.4413
380.00 0.4417
380.10 0.4422
380.20 0.4427
380.30 0.4432
380.40 0.4436
380.50 0.4441
380.60 0.4446
380.70 0.445
380.80 0.4455
380.90 0.446
381.00 0.4465
381.10 0.4469
381.20 0.4474
381.30 0.4479
381.40 0.4484
381.50 0.4488
381.60 0.4493
381.70 0.4498
381.80 0.4503
381.90 0.4507
382.00 0.4512
382.10 0.4517
382.20 0.4522
382.30 0.4526
382.40 0.4531
382.50 0.4536
382.60 0.4541
382.70 0.4545
382.80 0.455
382.90 0.4555
383.00 0.456
383.10 0.4564
383.20 0.4569
383.30 0.4574
383.40 0.4579
383.50 0.4583
383.60 0.4588
383.70 0.4593
383.80 0.4597
383.90 0.4602
384.00 0.4607
384.10 0.4612
384.20 0.4616
384.30 0.4621
384.40 0.4626
384.50 0.4631
384.60 0.4636
384.70 0.464
384.80 0.4645
384.90 0.465
385.00 0.4655
385.10 0.466
385.20 0.4664
385.30 0.4669
385.40 0.4674
385.50 0.4679
385.60 0.4683
385.70 0.4688
385.80 0.4693
385.90 0.4698
386.00 0.4703
386.10 0.4707
386.20 0.4712
386.30 0.4717
386.40 0.4722
386.50 0.4726
386.60 0.4731
386.70 0.4736
386.80 0.4741
386.90 0.4746
387.00 0.475
387.10 0.4755
387.20 0.476
387.30 0.4765
387.40 0.477
387.50 0.4774
387.60 0.4779
387.70 0.4784
387.80 0.4789
387.90 0.4794
388.00 0.4798
388.10 0.4803
388.20 0.4808
388.30 0.4813
388.40 0.4818
388.50 0.4822
388.60 0.4827
388.70 0.4832
388.80 0.4837
388.90 0.4842
389.00 0.4846
389.10 0.4851
389.20 0.4856
389.30 0.4861
389.40 0.4866
389.50 0.4871
389.60 0.4875
389.70 0.488
389.80 0.4885
389.90 0.489
390.00 0.4895
390.10 0.4899
390.20 0.4904
390.30 0.4909
390.40 0.4914
390.50 0.4919
390.60 0.4923
390.70 0.4928
390.80 0.4933
390.90 0.4938
391.00 0.4943
391.10 0.4948
391.20 0.4952
391.30 0.4957
391.40 0.4962
391.50 0.4967
391.60 0.4972
391.70 0.4977
391.80 0.4981
391.90 0.4986
392.00 0.4991
392.10 0.4996
392.20 0.5001
392.30 0.5006
392.40 0.501
392.50 0.5015
392.60 0.502
392.70 0.5025
392.80 0.503
392.90 0.5035
393.00 0.5039
393.10 0.5044
393.20 0.5049
393.30 0.5054
393.40 0.5059
393.50 0.5064
393.60 0.5068
393.70 0.5073
393.80 0.5078
393.90 0.5083
394.00 0.5088
394.10 0.5092
394.20 0.5097
394.30 0.5102
394.40 0.5107
394.50 0.5112
394.60 0.5117
394.70 0.5122
394.80 0.5127
394.90 0.5131
395.00 0.5136
395.10 0.5141
395.20 0.5146
395.30 0.5151
395.40 0.5156
395.50 0.5161
395.60 0.5165
395.70 0.517
395.80 0.5175
395.90 0.518
396.00 0.5185
396.10 0.519
396.20 0.5194
396.30 0.5199
396.40 0.5204
396.50 0.5209
396.60 0.5214
396.70 0.5219
396.80 0.5224
396.90 0.5228
397.00 0.5233
397.10 0.5238
397.20 0.5243
397.30 0.5248
397.40 0.5253
397.50 0.5258
397.60 0.5263
397.70 0.5267
397.80 0.5272
397.90 0.5277
398.00 0.5282
398.10 0.5287
398.20 0.5292
398.30 0.5297
398.40 0.5301
398.50 0.5306
398.60 0.5311
398.70 0.5316
398.80 0.5321
398.90 0.5326
399.00 0.5331
399.10 0.5336
399.20 0.5341
399.30 0.5345
399.40 0.535
399.50 0.5355
399.60 0.536
399.70 0.5365
399.80 0.537
399.90 0.5375
400.00 0.538
400.10 0.5384
400.20 0.5389
400.30 0.5394
400.40 0.5399
400.50 0.5404
400.60 0.5409
400.70 0.5414
400.80 0.5418
400.90 0.5424
401.00 0.5428
401.10 0.5433
401.20 0.5438
401.30 0.5443
401.40 0.5448
401.50 0.5453
401.60 0.5458
401.70 0.5462
401.80 0.5467
401.90 0.5472
402.00 0.5477
402.10 0.5482
402.20 0.5487
402.30 0.5492
402.40 0.5497
402.50 0.5502
402.60 0.5507
402.70 0.5511
402.80 0.5516
402.90 0.5521
403.00 0.5526
403.10 0.5531
403.20 0.5536
403.30 0.5541
403.40 0.5546
403.50 0.555
403.60 0.5555
403.70 0.556
403.80 0.5565
403.90 0.557
404.00 0.5575
404.10 0.558
404.20 0.5585
404.30 0.559
404.40 0.5595
404.50 0.5599
404.60 0.5604
404.70 0.5609
404.80 0.5614
404.90 0.5619
405.00 0.5624
405.10 0.5629
405.20 0.5634
405.30 0.5639
405.40 0.5643
405.50 0.5648
405.60 0.5653
405.70 0.5658
405.80 0.5663
405.90 0.5668
406.00 0.5673
406.10 0.5678
406.20 0.5683
406.30 0.5687
406.40 0.5692
406.50 0.5697
406.60 0.5702
406.70 0.5707
406.80 0.5712
406.90 0.5717
407.00 0.5722
407.10 0.5727
407.20 0.5732
407.30 0.5736
407.40 0.5741
407.50 0.5746
407.60 0.5751
407.70 0.5756
407.80 0.5761
407.90 0.5766
408.00 0.5771
408.10 0.5776
408.20 0.5781
408.30 0.5786
408.40 0.579
408.50 0.5795
408.60 0.58
408.70 0.5805
408.80 0.581
408.90 0.5815
409.00 0.582
409.10 0.5825
409.20 0.583
409.30 0.5834
409.40 0.5839
409.50 0.5844
409.60 0.5849
409.70 0.5854
409.80 0.5859
409.90 0.5864
410.00 0.5869
410.10 0.5874
410.20 0.5879
410.30 0.5884
410.40 0.5888
410.50 0.5893
410.60 0.5898
410.70 0.5903
410.80 0.5908
410.90 0.5913
411.00 0.5918
411.10 0.5923
411.20 0.5928
411.30 0.5933
411.40 0.5938
411.50 0.5942
411.60 0.5947
411.70 0.5952
411.80 0.5957
411.90 0.5962
412.00 0.5967
412.10 0.5972
412.20 0.5977
412.30 0.5982
412.40 0.5987
412.50 0.5991
412.60 0.5996
412.70 0.6001
412.80 0.6006
412.90 0.6011
413.00 0.6016
413.10 0.6021
413.20 0.6026
413.30 0.6031
413.40 0.6036
413.50 0.6041
413.60 0.6046
413.70 0.605
413.80 0.6055
413.90 0.606
414.00 0.6065
414.10 0.607
414.20 0.6075
414.30 0.608
414.40 0.6085
414.50 0.609
414.60 0.6095
414.70 0.6099
414.80 0.6104
414.90 0.6109
415.00 0.6114
415.10 0.6119
415.20 0.6124
415.30 0.6129
415.40 0.6134
415.50 0.6139
415.60 0.6144
415.70 0.6149
415.80 0.6153
415.90 0.6158
416.00 0.6163
416.10 0.6168
416.20 0.6173
416.30 0.6178
416.40 0.6183
416.50 0.6188
416.60 0.6193
416.70 0.6198
416.80 0.6202
416.90 0.6207
417.00 0.6212
417.10 0.6217
417.20 0.6222
417.30 0.6227
417.40 0.6232
417.50 0.6237
417.60 0.6242
417.70 0.6247
417.80 0.6251
417.90 0.6256
418.00 0.6261
418.10 0.6266
418.20 0.6271
418.30 0.6276
418.40 0.6281
418.50 0.6286
418.60 0.6291
418.70 0.6296
418.80 0.63
418.90 0.6305
419.00 0.631
419.10 0.6315
419.20 0.632
419.30 0.6325
419.40 0.633
419.50 0.6335
419.60 0.634
419.70 0.6345
419.80 0.635
419.90 0.6354
420.00 0.6359
420.10 0.6364
420.20 0.6369
420.30 0.6374
420.40 0.6379
420.50 0.6384
420.60 0.6389
420.70 0.6394
420.80 0.6399
420.90 0.6404
421.00 0.6408
421.10 0.6413
421.20 0.6418
421.30 0.6423
421.40 0.6428
421.50 0.6433
421.60 0.6438
421.70 0.6443
421.80 0.6447
421.90 0.6452
422.00 0.6457
422.10 0.6462
422.20 0.6467
422.30 0.6472
422.40 0.6477
422.50 0.6482
422.60 0.6487
422.70 0.6492
422.80 0.6496
422.90 0.6501
423.00 0.6506
423.10 0.6511
423.20 0.6516
423.30 0.6521
423.40 0.6526
423.50 0.6531
423.60 0.6535
423.70 0.654
423.80 0.6545
423.90 0.655
424.00 0.6555
424.10 0.656
424.20 0.6565
424.30 0.657
424.40 0.6575
424.50 0.658
424.60 0.6584
424.70 0.6589
424.80 0.6594
424.90 0.6599
425.00 0.6604
425.10 0.6609
425.20 0.6614
425.30 0.6619
425.40 0.6624
425.50 0.6628
425.60 0.6633
425.70 0.6638
425.80 0.6643
425.90 0.6648
426.00 0.6653
426.10 0.6658
426.20 0.6663
426.30 0.6668
426.40 0.6672
426.50 0.6677
426.60 0.6682
426.70 0.6687
426.80 0.6692
426.90 0.6697
427.00 0.6702
427.10 0.6707
427.20 0.6711
427.30 0.6716
427.40 0.6721
427.50 0.6726
427.60 0.6731
427.70 0.6736
427.80 0.6741
427.90 0.6746
428.00 0.675
428.10 0.6755
428.20 0.676
428.30 0.6765
428.40 0.677
428.50 0.6775
428.60 0.678
428.70 0.6785
428.80 0.6789
428.90 0.6794
429.00 0.6799
429.10 0.6804
429.20 0.6809
429.30 0.6814
429.40 0.6819
429.50 0.6824
429.60 0.6828
429.70 0.6833
429.80 0.6838
429.90 0.6843
430.00 0.6848
430.10 0.6853
430.20 0.6858
430.30 0.6862
430.40 0.6867
430.50 0.6872
430.60 0.6877
430.70 0.6882
430.80 0.6887
430.90 0.6892
431.00 0.6896
431.10 0.6901
431.20 0.6906
431.30 0.6911
431.40 0.6916
431.50 0.6921
431.60 0.6926
431.70 0.6931
431.80 0.6935
431.90 0.694
432.00 0.6945
432.10 0.695
432.20 0.6955
432.30 0.696
432.40 0.6965
432.50 0.6969
432.60 0.6974
432.70 0.6979
432.80 0.6984
432.90 0.6989
433.00 0.6993
433.10 0.6998
433.20 0.7003
433.30 0.7008
433.40 0.7013
433.50 0.7018
433.60 0.7023
433.70 0.7027
433.80 0.7032
433.90 0.7037
434.00 0.7042
434.10 0.7047
434.20 0.7052
434.30 0.7057
434.40 0.7061
434.50 0.7066
434.60 0.7071
434.70 0.7076
434.80 0.7081
434.90 0.7086
435.00 0.709
435.10 0.7095
435.20 0.71
435.30 0.7105
435.40 0.711
435.50 0.7115
435.60 0.7119
435.70 0.7124
435.80 0.7129
435.90 0.7134
436.00 0.7139
436.10 0.7144
436.20 0.7149
436.30 0.7153
436.40 0.7158
436.50 0.7163
436.60 0.7168
436.70 0.7173
436.80 0.7177
436.90 0.7182
437.00 0.7187
437.10 0.7192
437.20 0.7197
437.30 0.7202
437.40 0.7206
437.50 0.7211
437.60 0.7216
437.70 0.7221
437.80 0.7226
437.90 0.7231
438.00 0.7235
438.10 0.724
438.20 0.7245
438.30 0.725
438.40 0.7254
438.50 0.7259
438.60 0.7264
438.70 0.7269
438.80 0.7274
438.90 0.7279
439.00 0.7283
439.10 0.7288
439.20 0.7293
439.30 0.7298
439.40 0.7303
439.50 0.7307
439.60 0.7312
439.70 0.7317
439.80 0.7322
439.90 0.7327
440.00 0.7331
440.10 0.7336
440.20 0.7341
440.30 0.7346
440.40 0.7351
440.50 0.7356
440.60 0.736
440.70 0.7365
440.80 0.737
440.90 0.7375
441.00 0.738
441.10 0.7384
441.20 0.7389
441.30 0.7394
441.40 0.7399
441.50 0.7403
441.60 0.7408
441.70 0.7413
441.80 0.7418
441.90 0.7423
442.00 0.7427
442.10 0.7432
442.20 0.7437
442.30 0.7442
442.40 0.7446
442.50 0.7451
442.60 0.7456
442.70 0.7461
442.80 0.7466
442.90 0.747
443.00 0.7475
443.10 0.748
443.20 0.7485
443.30 0.749
443.40 0.7494
443.50 0.7499
443.60 0.7504
443.70 0.7509
443.80 0.7513
443.90 0.7518
444.00 0.7523
444.10 0.7528
444.20 0.7532
444.30 0.7537
444.40 0.7542
444.50 0.7547
444.60 0.7552
444.70 0.7556
444.80 0.7561
444.90 0.7566
445.00 0.7571
445.10 0.7575
445.20 0.758
445.30 0.7585
445.40 0.759
445.50 0.7594
445.60 0.7599
445.70 0.7604
445.80 0.7609
445.90 0.7613
446.00 0.7618
446.10 0.7623
446.20 0.7628
446.30 0.7632
446.40 0.7637
446.50 0.7642
446.60 0.7647
446.70 0.7651
446.80 0.7656
446.90 0.7661
447.00 0.7666
447.10 0.767
447.20 0.7675
447.30 0.768
447.40 0.7685
447.50 0.7689
447.60 0.7694
447.70 0.7699
447.80 0.7704
447.90 0.7708
448.00 0.7713
448.10 0.7718
448.20 0.7723
448.30 0.7727
448.40 0.7732
448.50 0.7737
448.60 0.7742
448.70 0.7746
448.80 0.7751
448.90 0.7756
449.00 0.776
449.10 0.7765
449.20 0.777
449.30 0.7774
449.40 0.7779
449.50 0.7784
449.60 0.7789
449.70 0.7793
449.80 0.7798
449.90 0.7803
450.00 0.7808
450.10 0.7812
450.20 0.7817
450.30 0.7822
450.40 0.7826
450.50 0.7831
450.60 0.7836
450.70 0.7841
450.80 0.7845
450.90 0.785
451.00 0.7855
451.10 0.7859
451.20 0.7864
451.30 0.7869
451.40 0.7873
451.50 0.7878
451.60 0.7883
451.70 0.7887
451.80 0.7892
451.90 0.7897
452.00 0.7902
452.10 0.7906
452.20 0.7911
452.30 0.7916
452.40 0.792
452.50 0.7925
452.60 0.793
452.70 0.7935
452.80 0.7939
452.90 0.7944
453.00 0.7949
453.10 0.7953
453.20 0.7958
453.30 0.7963
453.40 0.7967
453.50 0.7972
453.60 0.7977
453.70 0.7981
453.80 0.7986
453.90 0.7991
454.00 0.7995
454.10 0.8
454.20 0.8005
454.30 0.8009
454.40 0.8014
454.50 0.8019
454.60 0.8023
454.70 0.8028
454.80 0.8033
454.90 0.8037
455.00 0.8042
455.10 0.8047
455.20 0.8051
455.30 0.8056
455.40 0.8061
455.50 0.8065
455.60 0.807
455.70 0.8075
455.80 0.8079
455.90 0.8084
456.00 0.8089
456.10 0.8093
456.20 0.8098
456.30 0.8103
456.40 0.8107
456.50 0.8112
456.60 0.8116
456.70 0.8121
456.80 0.8126
456.90 0.813
457.00 0.8135
457.10 0.814
457.20 0.8144
457.30 0.8149
457.40 0.8154
457.50 0.8158
457.60 0.8163
457.70 0.8168
457.80 0.8172
457.90 0.8177
458.00 0.8181
458.10 0.8186
458.20 0.8191
458.30 0.8195
458.40 0.82
458.50 0.8205
458.60 0.8209
458.70 0.8214
458.80 0.8218
458.90 0.8223
459.00 0.8228
459.10 0.8232
459.20 0.8237
459.30 0.8241
459.40 0.8246
459.50 0.8251
459.60 0.8255
459.70 0.826
459.80 0.8264
459.90 0.8269
460.00 0.8274
460.10 0.8278
460.20 0.8283
460.30 0.8288
460.40 0.8292
460.50 0.8297
460.60 0.8301
460.70 0.8306
460.80 0.8311
460.90 0.8315
461.00 0.832
461.10 0.8324
461.20 0.8329
461.30 0.8333
461.40 0.8338
461.50 0.8343
461.60 0.8347
461.70 0.8352
461.80 0.8356
461.90 0.8361
462.00 0.8366
462.10 0.837
462.20 0.8375
462.30 0.8379
462.40 0.8384
462.50 0.8388
462.60 0.8393
462.70 0.8398
462.80 0.8402
462.90 0.8407
463.00 0.8411
463.10 0.8416
463.20 0.842
463.30 0.8425
463.40 0.843
463.50 0.8434
463.60 0.8439
463.70 0.8443
463.80 0.8448
463.90 0.8452
464.00 0.8457
464.10 0.8461
464.20 0.8466
464.30 0.8471
464.40 0.8475
464.50 0.848
464.60 0.8484
464.70 0.8489
464.80 0.8493
464.90 0.8498
465.00 0.8502
465.10 0.8507
465.20 0.8511
465.30 0.8516
465.40 0.852
465.50 0.8525
465.60 0.853
465.70 0.8534
465.80 0.8539
465.90 0.8543
466.00 0.8548
466.10 0.8552
466.20 0.8557
466.30 0.8561
466.40 0.8566
466.50 0.857
466.60 0.8575
466.70 0.8579
466.80 0.8584
466.90 0.8589
467.00 0.8593
467.10 0.8598
467.20 0.8602
467.30 0.8607
467.40 0.8611
467.50 0.8616
467.60 0.862
467.70 0.8625
467.80 0.8629
467.90 0.8634
468.00 0.8638
468.10 0.8642
468.20 0.8647
468.30 0.8652
468.40 0.8656
468.50 0.8661
468.60 0.8665
468.70 0.867
468.80 0.8674
468.90 0.8679
469.00 0.8683
469.10 0.8688
469.20 0.8692
469.30 0.8697
469.40 0.8701
469.50 0.8706
469.60 0.871
469.70 0.8714
469.80 0.8719
469.90 0.8723
470.00 0.8728
470.10 0.8732
470.20 0.8737
470.30 0.8741
470.40 0.8746
470.50 0.875
470.60 0.8755
470.70 0.8759
470.80 0.8764
470.90 0.8768
471.00 0.8773
471.10 0.8777
471.20 0.8782
471.30 0.8786
471.40 0.879
471.50 0.8795
471.60 0.8799
471.70 0.8804
471.80 0.8808
471.90 0.8813
472.00 0.8817
472.10 0.8821
472.20 0.8826
472.30 0.883
472.40 0.8835
472.50 0.8839
472.60 0.8844
472.70 0.8848
472.80 0.8853
472.90 0.8857
473.00 0.8861
473.10 0.8866
473.20 0.887
473.30 0.8875
473.40 0.8879
473.50 0.8884
473.60 0.8888
473.70 0.8892
473.80 0.8897
473.90 0.8901
474.00 0.8906
474.10 0.891
474.20 0.8915
474.30 0.8919
474.40 0.8923
474.50 0.8928
474.60 0.8932
474.70 0.8937
474.80 0.8941
474.90 0.8945
475.00 0.895
475.10 0.8954
475.20 0.8958
475.30 0.8963
475.40 0.8967
475.50 0.8972
475.60 0.8976
475.70 0.8981
475.80 0.8985
475.90 0.8989
476.00 0.8994
476.10 0.8998
476.20 0.9003
476.30 0.9007
476.40 0.9011
476.50 0.9016
476.60 0.902
476.70 0.9024
476.80 0.9029
476.90 0.9033
477.00 0.9038
477.10 0.9042
477.20 0.9046
477.30 0.9051
477.40 0.9055
477.50 0.9059
477.60 0.9064
477.70 0.9068
477.80 0.9072
477.90 0.9077
478.00 0.9081
478.10 0.9086
478.20 0.909
478.30 0.9094
478.40 0.9099
478.50 0.9103
478.60 0.9107
478.70 0.9112
478.80 0.9116
478.90 0.912
479.00 0.9125
479.10 0.9129
479.20 0.9133
479.30 0.9138
479.40 0.9142
479.50 0.9146
479.60 0.9151
479.70 0.9155
479.80 0.9159
479.90 0.9164
480.00 0.9168
480.10 0.9172
480.20 0.9177
480.30 0.9181
480.40 0.9185
480.50 0.919
480.60 0.9194
480.70 0.9198
480.80 0.9203
480.90 0.9207
481.00 0.9211
481.10 0.9216
481.20 0.922
481.30 0.9224
481.40 0.9228
481.50 0.9233
481.60 0.9237
481.70 0.9241
481.80 0.9246
481.90 0.925
482.00 0.9254
482.10 0.9258
482.20 0.9263
482.30 0.9267
482.40 0.9271
482.50 0.9276
482.60 0.928
482.70 0.9284
482.80 0.9289
482.90 0.9293
483.00 0.9297
483.10 0.9301
483.20 0.9306
483.30 0.931
483.40 0.9314
483.50 0.9319
483.60 0.9323
483.70 0.9327
483.80 0.9331
483.90 0.9336
484.00 0.934
484.10 0.9344
484.20 0.9348
484.30 0.9353
484.40 0.9357
484.50 0.9361
484.60 0.9365
484.70 0.9369
484.80 0.9374
484.90 0.9378
485.00 0.9382
485.10 0.9387
485.20 0.9391
485.30 0.9395
485.40 0.9399
485.50 0.9403
485.60 0.9408
485.70 0.9412
485.80 0.9416
485.90 0.942
486.00 0.9425
486.10 0.9429
486.20 0.9433
486.30 0.9437
486.40 0.9442
486.50 0.9446
486.60 0.945
486.70 0.9454
486.80 0.9458
486.90 0.9463
487.00 0.9467
487.10 0.9471
487.20 0.9475
487.30 0.948
487.40 0.9484
487.50 0.9488
487.60 0.9492
487.70 0.9496
487.80 0.9501
487.90 0.9505
488.00 0.9509
488.10 0.9513
488.20 0.9517
488.30 0.9522
488.40 0.9526
488.50 0.953
488.60 0.9534
488.70 0.9538
488.80 0.9543
488.90 0.9547
489.00 0.9551
489.10 0.9555
489.20 0.9559
489.30 0.9563
489.40 0.9568
489.50 0.9572
489.60 0.9576
489.70 0.958
489.80 0.9584
489.90 0.9588
490.00 0.9593
490.10 0.9597
490.20 0.9601
490.30 0.9605
490.40 0.9609
490.50 0.9613
490.60 0.9617
490.70 0.9622
490.80 0.9626
490.90 0.963
491.00 0.9634
491.10 0.9638
491.20 0.9642
491.30 0.9647
491.40 0.9651
491.50 0.9655
491.60 0.9659
491.70 0.9663
491.80 0.9667
491.90 0.9671
492.00 0.9675
492.10 0.968
492.20 0.9684
492.30 0.9688
492.40 0.9692
492.50 0.9696
492.60 0.97
492.70 0.9704
492.80 0.9708
492.90 0.9713
493.00 0.9717
493.10 0.9721
493.20 0.9725
493.30 0.9729
493.40 0.9733
493.50 0.9737
493.60 0.9741
493.70 0.9745
493.80 0.975
493.90 0.9754
494.00 0.9758
494.10 0.9762
494.20 0.9766
494.30 0.977
494.40 0.9774
494.50 0.9778
494.60 0.9782
494.70 0.9786
494.80 0.979
494.90 0.9794
495.00 0.9798
495.10 0.9803
495.20 0.9807
495.30 0.9811
495.40 0.9815
495.50 0.9819
495.60 0.9823
495.70 0.9827
495.80 0.9831
495.90 0.9835
496.00 0.9839
496.10 0.9843
496.20 0.9847
496.30 0.9851
496.40 0.9855
496.50 0.986
496.60 0.9864
496.70 0.9868
496.80 0.9872
496.90 0.9876
497.00 0.988
497.10 0.9884
497.20 0.9888
497.30 0.9892
497.40 0.9896
497.50 0.99
497.60 0.9904
497.70 0.9908
497.80 0.9912
497.90 0.9916
498.00 0.992
498.10 0.9924
498.20 0.9928
498.30 0.9932
498.40 0.9936
498.50 0.994
498.60 0.9944
498.70 0.9948
498.80 0.9952
498.90 0.9956
499.00 0.996
499.10 0.9964
499.20 0.9968
499.30 0.9972
499.40 0.9976
499.50 0.998
499.60 0.9984
499.70 0.9988
499.80 0.9992
499.90 0.9996
500.00 1
500.10 1
500.20 1.001
500.30 1.001
500.40 1.002
500.50 1.002
500.60 1.002
500.70 1.003
500.80 1.003
500.90 1.004
501.00 1.004
501.10 1.004
501.20 1.005
501.30 1.005
501.40 1.006
501.50 1.006
501.60 1.006
501.70 1.007
501.80 1.007
501.90 1.008
502.00 1.008
502.10 1.008
502.20 1.009
502.30 1.009
502.40 1.01
502.50 1.01
502.60 1.01
502.70 1.011
502.80 1.011
502.90 1.011
503.00 1.012
503.10 1.012
503.20 1.013
503.30 1.013
503.40 1.013
503.50 1.014
503.60 1.014
503.70 1.015
503.80 1.015
503.90 1.015
504.00 1.016
504.10 1.016
504.20 1.017
504.30 1.017
504.40 1.017
504.50 1.018
504.60 1.018
504.70 1.019
504.80 1.019
504.90 1.019
505.00 1.02
505.10 1.02
505.20 1.02
505.30 1.021
505.40 1.021
505.50 1.022
505.60 1.022
505.70 1.022
505.80 1.023
505.90 1.023
506.00 1.024
506.10 1.024
506.20 1.024
506.30 1.025
506.40 1.025
506.50 1.026
506.60 1.026
506.70 1.026
506.80 1.027
506.90 1.027
507.00 1.027
507.10 1.028
507.20 1.028
507.30 1.029
507.40 1.029
507.50 1.029
507.60 1.03
507.70 1.03
507.80 1.031
507.90 1.031
508.00 1.031
508.10 1.032
508.20 1.032
508.30 1.032
508.40 1.033
508.50 1.033
508.60 1.034
508.70 1.034
508.80 1.034
508.90 1.035
509.00 1.035
509.10 1.036
509.20 1.036
509.30 1.036
509.40 1.037
509.50 1.037
509.60 1.037
509.70 1.038
509.80 1.038
509.90 1.039
510.00 1.039
510.10 1.039
510.20 1.04
510.30 1.04
510.40 1.04
510.50 1.041
510.60 1.041
510.70 1.042
510.80 1.042
510.90 1.042
511.00 1.043
511.10 1.043
511.20 1.043
511.30 1.044
511.40 1.044
511.50 1.045
511.60 1.045
511.70 1.045
511.80 1.046
511.90 1.046
512.00 1.047
512.10 1.047
512.20 1.047
512.30 1.048
512.40 1.048
512.50 1.048
512.60 1.049
512.70 1.049
512.80 1.05
512.90 1.05
513.00 1.05
513.10 1.051
513.20 1.051
513.30 1.051
513.40 1.052
513.50 1.052
513.60 1.052
513.70 1.053
513.80 1.053
513.90 1.054
514.00 1.054
514.10 1.054
514.20 1.055
514.30 1.055
514.40 1.055
514.50 1.056
514.60 1.056
514.70 1.057
514.80 1.057
514.90 1.057
515.00 1.058
515.10 1.058
515.20 1.058
515.30 1.059
515.40 1.059
515.50 1.06
515.60 1.06
515.70 1.06
515.80 1.061
515.90 1.061
516.00 1.061
516.10 1.062
516.20 1.062
516.30 1.062
516.40 1.063
516.50 1.063
516.60 1.064
516.70 1.064
516.80 1.064
516.90 1.065
517.00 1.065
517.10 1.065
517.20 1.066
517.30 1.066
517.40 1.067
517.50 1.067
517.60 1.067
517.70 1.068
517.80 1.068
517.90 1.068
518.00 1.069
518.10 1.069
518.20 1.069
518.30 1.07
518.40 1.07
518.50 1.071
518.60 1.071
518.70 1.071
518.80 1.072
518.90 1.072
519.00 1.072
519.10 1.073
519.20 1.073
519.30 1.073
519.40 1.074
519.50 1.074
519.60 1.075
519.70 1.075
519.80 1.075
519.90 1.076
520.00 1.076
520.10 1.076
520.20 1.077
520.30 1.077
520.40 1.077
520.50 1.078
520.60 1.078
520.70 1.078
520.80 1.079
520.90 1.079
521.00 1.08
521.10 1.08
521.20 1.08
521.30 1.081
521.40 1.081
521.50 1.081
521.60 1.082
521.70 1.082
521.80 1.082
521.90 1.083
522.00 1.083
522.10 1.083
522.20 1.084
522.30 1.084
522.40 1.085
522.50 1.085
522.60 1.085
522.70 1.086
522.80 1.086
522.90 1.086
523.00 1.087
523.10 1.087
523.20 1.087
523.30 1.088
523.40 1.088
523.50 1.088
523.60 1.089
523.70 1.089
523.80 1.09
523.90 1.09
524.00 1.09
524.10 1.091
524.20 1.091
524.30 1.091
524.40 1.092
524.50 1.092
524.60 1.092
524.70 1.093
524.80 1.093
524.90 1.093
525.00 1.094
525.10 1.094
525.20 1.094
525.30 1.095
525.40 1.095
525.50 1.095
525.60 1.096
525.70 1.096
525.80 1.097
525.90 1.097
526.00 1.097
526.10 1.098
526.20 1.098
526.30 1.098
526.40 1.099
526.50 1.099
526.60 1.099
526.70 1.1
526.80 1.1
526.90 1.1
527.00 1.101
527.10 1.101
527.20 1.101
527.30 1.102
527.40 1.102
527.50 1.102
527.60 1.103
527.70 1.103
527.80 1.103
527.90 1.104
528.00 1.104
528.10 1.104
528.20 1.105
528.30 1.105
528.40 1.106
528.50 1.106
528.60 1.106
528.70 1.107
528.80 1.107
528.90 1.107
529.00 1.108
529.10 1.108
529.20 1.108
529.30 1.109
529.40 1.109
529.50 1.109
529.60 1.11
529.70 1.11
529.80 1.11
529.90 1.111
530.00 1.111
530.10 1.111
530.20 1.112
530.30 1.112
530.40 1.112
530.50 1.113
530.60 1.113
530.70 1.113
530.80 1.114
530.90 1.114
531.00 1.114
531.10 1.115
531.20 1.115
531.30 1.115
531.40 1.116
531.50 1.116
531.60 1.116
531.70 1.117
531.80 1.117
531.90 1.117
532.00 1.118
532.10 1.118
532.20 1.118
532.30 1.119
532.40 1.119
532.50 1.119
532.60 1.12
532.70 1.12
532.80 1.12
532.90 1.121
533.00 1.121
533.10 1.121
533.20 1.122
533.30 1.122
533.40 1.122
533.50 1.123
533.60 1.123
533.70 1.123
533.80 1.124
533.90 1.124
534.00 1.124
534.10 1.125
534.20 1.125
534.30 1.125
534.40 1.126
534.50 1.126
534.60 1.126
534.70 1.127
534.80 1.127
534.90 1.127
535.00 1.128
535.10 1.128
535.20 1.128
535.30 1.129
535.40 1.129
535.50 1.129
535.60 1.13
535.70 1.13
535.80 1.13
535.90 1.131
536.00 1.131
536.10 1.131
536.20 1.132
536.30 1.132
536.40 1.132
536.50 1.133
536.60 1.133
536.70 1.133
536.80 1.134
536.90 1.134
537.00 1.134
537.10 1.135
537.20 1.135
537.30 1.135
537.40 1.136
537.50 1.136
537.60 1.136
537.70 1.137
537.80 1.137
537.90 1.137
538.00 1.137
538.10 1.138
538.20 1.138
538.30 1.138
538.40 1.139
538.50 1.139
538.60 1.139
538.70 1.14
538.80 1.14
538.90 1.14
539.00 1.141
539.10 1.141
539.20 1.141
539.30 1.142
539.40 1.142
539.50 1.142
539.60 1.143
539.70 1.143
539.80 1.143
539.90 1.144
540.00 1.144
540.10 1.144
540.20 1.145
540.30 1.145
540.40 1.145
540.50 1.146
540.60 1.146
540.70 1.146
540.80 1.146
540.90 1.147
541.00 1.147
541.10 1.147
541.20 1.148
541.30 1.148
541.40 1.148
541.50 1.149
541.60 1.149
541.70 1.149
541.80 1.15
541.90 1.15
542.00 1.15
542.10 1.151
542.20 1.151
542.30 1.151
542.40 1.152
542.50 1.152
542.60 1.152
542.70 1.152
542.80 1.153
542.90 1.153
543.00 1.153
543.10 1.154
543.20 1.154
543.30 1.154
543.40 1.155
543.50 1.155
543.60 1.155
543.70 1.156
543.80 1.156
543.90 1.156
544.00 1.157
544.10 1.157
544.20 1.157
544.30 1.157
544.40 1.158
544.50 1.158
544.60 1.158
544.70 1.159
544.80 1.159
544.90 1.159
545.00 1.16
545.10 1.16
545.20 1.16
545.30 1.161
545.40 1.161
545.50 1.161
545.60 1.161
545.70 1.162
545.80 1.162
545.90 1.162
546.00 1.163
546.10 1.163
546.20 1.163
546.30 1.164
546.40 1.164
546.50 1.164
546.60 1.165
546.70 1.165
546.80 1.165
546.90 1.165
547.00 1.166
547.10 1.166
547.20 1.166
547.30 1.167
547.40 1.167
547.50 1.167
547.60 1.168
547.70 1.168
547.80 1.168
547.90 1.168
548.00 1.169
548.10 1.169
548.20 1.169
548.30 1.17
548.40 1.17
548.50 1.17
548.60 1.171
548.70 1.171
548.80 1.171
548.90 1.171
549.00 1.172
549.10 1.172
549.20 1.172
549.30 1.173
549.40 1.173
549.50 1.173
549.60 1.174
549.70 1.174
549.80 1.174
549.90 1.174
550.00 1.175
550.10 1.175
550.20 1.175
550.30 1.176
550.40 1.176
550.50 1.176
550.60 1.177
550.70 1.177
550.80 1.177
550.90 1.177
551.00 1.178
551.10 1.178
551.20 1.178
551.30 1.179
551.40 1.179
551.50 1.179
551.60 1.179
551.70 1.18
551.80 1.18
551.90 1.18
552.00 1.181
552.10 1.181
552.20 1.181
552.30 1.182
552.40 1.182
552.50 1.182
552.60 1.182
552.70 1.183
552.80 1.183
552.90 1.183
553.00 1.184
553.10 1.184
553.20 1.184
553.30 1.184
553.40 1.185
553.50 1.185
553.60 1.185
553.70 1.186
553.80 1.186
553.90 1.186
554.00 1.186
554.10 1.187
554.20 1.187
554.30 1.187
554.40 1.188
554.50 1.188
554.60 1.188
554.70 1.189
554.80 1.189
554.90 1.189
555.00 1.189
555.10 1.19
555.20 1.19
555.30 1.19
555.40 1.191
555.50 1.191
555.60 1.191
555.70 1.191
555.80 1.192
555.90 1.192
556.00 1.192
556.10 1.193
556.20 1.193
556.30 1.193
556.40 1.193
556.50 1.194
556.60 1.194
556.70 1.194
556.80 1.194
556.90 1.195
557.00 1.195
557.10 1.195
557.20 1.196
557.30 1.196
557.40 1.196
557.50 1.196
557.60 1.197
557.70 1.197
557.80 1.197
557.90 1.198
558.00 1.198
558.10 1.198
558.20 1.198
558.30 1.199
558.40 1.199
558.50 1.199
558.60 1.2
558.70 1.2
558.80 1.2
558.90 1.2
559.00 1.201
559.10 1.201
559.20 1.201
559.30 1.202
559.40 1.202
559.50 1.202
559.60 1.202
559.70 1.203
559.80 1.203
559.90 1.203
560.00 1.203
560.10 1.204
560.20 1.204
560.30 1.204
560.40 1.205
560.50 1.205
560.60 1.205
560.70 1.205
560.80 1.206
560.90 1.206
561.00 1.206
561.10 1.206
561.20 1.207
561.30 1.207
561.40 1.207
561.50 1.208
561.60 1.208
561.70 1.208
561.80 1.208
561.90 1.209
562.00 1.209
562.10 1.209
562.20 1.209
562.30 1.21
562.40 1.21
562.50 1.21
562.60 1.211
562.70 1.211
562.80 1.211
562.90 1.211
563.00 1.212
563.10 1.212
563.20 1.212
563.30 1.212
563.40 1.213
563.50 1.213
563.60 1.213
563.70 1.213
563.80 1.214
563.90 1.214
564.00 1.214
564.10 1.215
564.20 1.215
564.30 1.215
564.40 1.215
564.50 1.216
564.60 1.216
564.70 1.216
564.80 1.216
564.90 1.217
565.00 1.217
565.10 1.217
565.20 1.217
565.30 1.218
565.40 1.218
565.50 1.218
565.60 1.219
565.70 1.219
565.80 1.219
565.90 1.219
566.00 1.22
566.10 1.22
566.20 1.22
566.30 1.22
566.40 1.221
566.50 1.221
566.60 1.221
566.70 1.221
566.80 1.222
566.90 1.222
567.00 1.222
567.10 1.222
567.20 1.223
567.30 1.223
567.40 1.223
567.50 1.224
567.60 1.224
567.70 1.224
567.80 1.224
567.90 1.225
568.00 1.225
568.10 1.225
568.20 1.225
568.30 1.226
568.40 1.226
568.50 1.226
568.60 1.226
568.70 1.227
568.80 1.227
568.90 1.227
569.00 1.227
569.10 1.228
569.20 1.228
569.30 1.228
569.40 1.228
569.50 1.229
569.60 1.229
569.70 1.229
569.80 1.229
569.90 1.23
570.00 1.23
570.10 1.23
570.20 1.23
570.30 1.231
570.40 1.231
570.50 1.231
570.60 1.231
570.70 1.232
570.80 1.232
570.90 1.232
571.00 1.232
571.10 1.233
571.20 1.233
571.30 1.233
571.40 1.233
571.50 1.234
571.60 1.234
571.70 1.234
571.80 1.234
571.90 1.235
572.00 1.235
572.10 1.235
572.20 1.235
572.30 1.236
572.40 1.236
572.50 1.236
572.60 1.236
572.70 1.237
572.80 1.237
572.90 1.237
573.00 1.237
573.10 1.238
573.20 1.238
573.30 1.238
573.40 1.238
573.50 1.239
573.60 1.239
573.70 1.239
573.80 1.239
573.90 1.24
574.00 1.24
574.10 1.24
574.20 1.24
574.30 1.241
574.40 1.241
574.50 1.241
574.60 1.241
574.70 1.242
574.80 1.242
574.90 1.242
575.00 1.242
575.10 1.243
575.20 1.243
575.30 1.243
575.40 1.243
575.50 1.244
575.60 1.244
575.70 1.244
575.80 1.244
575.90 1.244
576.00 1.245
576.10 1.245
576.20 1.245
576.30 1.245
576.40 1.246
576.50 1.246
576.60 1.246
576.70 1.246
576.80 1.247
576.90 1.247
577.00 1.247
577.10 1.247
577.20 1.248
577.30 1.248
577.40 1.248
577.50 1.248
577.60 1.249
577.70 1.249
577.80 1.249
577.90 1.249
578.00 1.249
578.10 1.25
578.20 1.25
578.30 1.25
578.40 1.25
578.50 1.251
578.60 1.251
578.70 1.251
578.80 1.251
578.90 1.252
579.00 1.252
579.10 1.252
579.20 1.252
579.30 1.253
579.40 1.253
579.50 1.253
579.60 1.253
579.70 1.253
579.80 1.254
579.90 1.254
580.00 1.254
580.10 1.254
580.20 1.255
580.30 1.255
580.40 1.255
580.50 1.255
580.60 1.256
580.70 1.256
580.80 1.256
580.90 1.256
581.00 1.256
581.10 1.257
581.20 1.257
581.30 1.257
581.40 1.257
581.50 1.258
581.60 1.258
581.70 1.258
581.80 1.258
581.90 1.258
582.00 1.259
582.10 1.259
582.20 1.259
582.30 1.259
582.40 1.26
582.50 1.26
582.60 1.26
582.70 1.26
582.80 1.261
582.90 1.261
583.00 1.261
583.10 1.261
583.20 1.261
583.30 1.262
583.40 1.262
583.50 1.262
583.60 1.262
583.70 1.263
583.80 1.263
583.90 1.263
584.00 1.263
584.10 1.263
584.20 1.264
584.30 1.264
584.40 1.264
584.50 1.264
584.60 1.265
584.70 1.265
584.80 1.265
584.90 1.265
585.00 1.265
585.10 1.266
585.20 1.266
585.30 1.266
585.40 1.266
585.50 1.267
585.60 1.267
585.70 1.267
585.80 1.267
585.90 1.267
586.00 1.268
586.10 1.268
586.20 1.268
586.30 1.268
586.40 1.268
586.50 1.269
586.60 1.269
586.70 1.269
586.80 1.269
586.90 1.27
587.00 1.27
587.10 1.27
587.20 1.27
587.30 1.27
587.40 1.271
587.50 1.271
587.60 1.271
587.70 1.271
587.80 1.271
587.90 1.272
588.00 1.272
588.10 1.272
588.20 1.272
588.30 1.273
588.40 1.273
588.50 1.273
588.60 1.273
588.70 1.273
588.80 1.274
588.90 1.274
589.00 1.274
589.10 1.274
589.20 1.274
589.30 1.275
589.40 1.275
589.50 1.275
589.60 1.275
589.70 1.275
589.80 1.276
589.90 1.276
590.00 1.276
590.10 1.276
590.20 1.277
590.30 1.277
590.40 1.277
590.50 1.277
590.60 1.277
590.70 1.278
590.80 1.278
590.90 1.278
591.00 1.278
591.10 1.278
591.20 1.279
591.30 1.279
591.40 1.279
591.50 1.279
591.60 1.279
591.70 1.28
591.80 1.28
591.90 1.28
592.00 1.28
592.10 1.28
592.20 1.281
592.30 1.281
592.40 1.281
592.50 1.281
592.60 1.281
592.70 1.282
592.80 1.282
592.90 1.282
593.00 1.282
593.10 1.282
593.20 1.283
593.30 1.283
593.40 1.283
593.50 1.283
593.60 1.283
593.70 1.284
593.80 1.284
593.90 1.284
594.00 1.284
594.10 1.284
594.20 1.285
594.30 1.285
594.40 1.285
594.50 1.285
594.60 1.285
594.70 1.286
594.80 1.286
594.90 1.286
595.00 1.286
595.10 1.286
595.20 1.287
595.30 1.287
595.40 1.287
595.50 1.287
595.60 1.287
595.70 1.288
595.80 1.288
595.90 1.288
596.00 1.288
596.10 1.288
596.20 1.289
596.30 1.289
596.40 1.289
596.50 1.289
596.60 1.289
596.70 1.29
596.80 1.29
596.90 1.29
597.00 1.29
597.10 1.29
597.20 1.29
597.30 1.291
597.40 1.291
597.50 1.291
597.60 1.291
597.70 1.291
597.80 1.292
597.90 1.292
598.00 1.292
598.10 1.292
598.20 1.292
598.30 1.293
598.40 1.293
598.50 1.293
598.60 1.293
598.70 1.293
598.80 1.294
598.90 1.294
599.00 1.294
599.10 1.294
599.20 1.294
599.30 1.294
599.40 1.295
599.50 1.295
599.60 1.295
599.70 1.295
599.80 1.295
599.90 1.296
600.00 1.296
600.10 1.296
600.20 1.296
600.30 1.296
600.40 1.296
600.50 1.297
600.60 1.297
600.70 1.297
600.80 1.297
600.90 1.297
601.00 1.298
601.10 1.298
601.20 1.298
601.30 1.298
601.40 1.298
601.50 1.298
601.60 1.299
601.70 1.299
601.80 1.299
601.90 1.299
602.00 1.299
602.10 1.3
602.20 1.3
602.30 1.3
602.40 1.3
602.50 1.3
602.60 1.3
602.70 1.301
602.80 1.301
602.90 1.301
603.00 1.301
603.10 1.301
603.20 1.302
603.30 1.302
603.40 1.302
603.50 1.302
603.60 1.302
603.70 1.302
603.80 1.303
603.90 1.303
604.00 1.303
604.10 1.303
604.20 1.303
604.30 1.303
604.40 1.304
604.50 1.304
604.60 1.304
604.70 1.304
604.80 1.304
604.90 1.305
605.00 1.305
605.10 1.305
605.20 1.305
605.30 1.305
605.40 1.305
605.50 1.306
605.60 1.306
605.70 1.306
605.80 1.306
605.90 1.306
606.00 1.306
606.10 1.307
606.20 1.307
606.30 1.307
606.40 1.307
606.50 1.307
606.60 1.307
606.70 1.308
606.80 1.308
606.90 1.308
607.00 1.308
607.10 1.308
607.20 1.308
607.30 1.309
607.40 1.309
607.50 1.309
607.60 1.309
607.70 1.309
607.80 1.309
607.90 1.31
608.00 1.31
608.10 1.31
608.20 1.31
608.30 1.31
608.40 1.31
608.50 1.311
608.60 1.311
608.70 1.311
608.80 1.311
608.90 1.311
609.00 1.311
609.10 1.312
609.20 1.312
609.30 1.312
609.40 1.312
609.50 1.312
609.60 1.312
609.70 1.313
609.80 1.313
609.90 1.313
610.00 1.313
610.10 1.313
610.20 1.313
610.30 1.313
610.40 1.314
610.50 1.314
610.60 1.314
610.70 1.314
610.80 1.314
610.90 1.314
611.00 1.315
611.10 1.315
611.20 1.315
611.30 1.315
611.40 1.315
611.50 1.315
611.60 1.316
611.70 1.316
611.80 1.316
611.90 1.316
612.00 1.316
612.10 1.316
612.20 1.317
612.30 1.317
612.40 1.317
612.50 1.317
612.60 1.317
612.70 1.317
612.80 1.317
612.90 1.318
613.00 1.318
613.10 1.318
613.20 1.318
613.30 1.318
613.40 1.318
613.50 1.319
613.60 1.319
613.70 1.319
613.80 1.319
613.90 1.319
614.00 1.319
614.10 1.319
614.20 1.32
614.30 1.32
614.40 1.32
614.50 1.32
614.60 1.32
614.70 1.32
614.80 1.32
614.90 1.321
615.00 1.321
615.10 1.321
615.20 1.321
615.30 1.321
615.40 1.321
615.50 1.321
615.60 1.322
615.70 1.322
615.80 1.322
615.90 1.322
616.00 1.322
616.10 1.322
616.20 1.322
616.30 1.323
616.40 1.323
616.50 1.323
616.60 1.323
616.70 1.323
616.80 1.323
616.90 1.323
617.00 1.324
617.10 1.324
617.20 1.324
617.30 1.324
617.40 1.324
617.50 1.324
617.60 1.324
617.70 1.325
617.80 1.325
617.90 1.325
618.00 1.325
618.10 1.325
618.20 1.325
618.30 1.326
618.40 1.326
618.50 1.326
618.60 1.326
618.70 1.326
618.80 1.326
618.90 1.326
619.00 1.326
619.10 1.327
619.20 1.327
619.30 1.327
619.40 1.327
619.50 1.327
619.60 1.327
619.70 1.327
619.80 1.328
619.90 1.328
620.00 1.328
620.10 1.328
620.20 1.328
620.30 1.328
620.40 1.328
620.50 1.328
620.60 1.329
620.70 1.329
620.80 1.329
620.90 1.329
621.00 1.329
621.10 1.329
621.20 1.329
621.30 1.33
621.40 1.33
621.50 1.33
621.60 1.33
621.70 1.33
621.80 1.33
621.90 1.33
622.00 1.33
622.10 1.331
622.20 1.331
622.30 1.331
622.40 1.331
622.50 1.331
622.60 1.331
622.70 1.331
622.80 1.332
622.90 1.332
623.00 1.332
623.10 1.332
623.20 1.332
623.30 1.332
623.40 1.332
623.50 1.332
623.60 1.333
623.70 1.333
623.80 1.333
623.90 1.333
624.00 1.333
624.10 1.333
624.20 1.333
624.30 1.333
624.40 1.334
624.50 1.334
624.60 1.334
624.70 1.334
624.80 1.334
624.90 1.334
625.00 1.334
625.10 1.334
625.20 1.334
625.30 1.335
625.40 1.335
625.50 1.335
625.60 1.335
625.70 1.335
625.80 1.335
625.90 1.335
626.00 1.335
626.10 1.336
626.20 1.336
626.30 1.336
626.40 1.336
626.50 1.336
626.60 1.336
626.70 1.336
626.80 1.336
626.90 1.337
627.00 1.337
627.10 1.337
627.20 1.337
627.30 1.337
627.40 1.337
627.50 1.337
627.60 1.337
627.70 1.337
627.80 1.338
627.90 1.338
628.00 1.338
628.10 1.338
628.20 1.338
628.30 1.338
628.40 1.338
628.50 1.338
628.60 1.338
628.70 1.339
628.80 1.339
628.90 1.339
629.00 1.339
629.10 1.339
629.20 1.339
629.30 1.339
629.40 1.339
629.50 1.339
629.60 1.34
629.70 1.34
629.80 1.34
629.90 1.34
630.00 1.34
630.10 1.34
630.20 1.34
630.30 1.34
630.40 1.341
630.50 1.341
630.60 1.341
630.70 1.341
630.80 1.341
630.90 1.341
631.00 1.341
631.10 1.341
631.20 1.341
631.30 1.341
631.40 1.342
631.50 1.342
631.60 1.342
631.70 1.342
631.80 1.342
631.90 1.342
632.00 1.342
632.10 1.342
632.20 1.342
632.30 1.342
632.40 1.343
632.50 1.343
632.60 1.343
632.70 1.343
632.80 1.343
632.90 1.343
633.00 1.343
633.10 1.343
633.20 1.343
633.30 1.343
633.40 1.344
633.50 1.344
633.60 1.344
633.70 1.344
633.80 1.344
633.90 1.344
634.00 1.344
634.10 1.344
634.20 1.344
634.30 1.344
634.40 1.344
634.50 1.345
634.60 1.345
634.70 1.345
634.80 1.345
634.90 1.345
635.00 1.345
635.10 1.345
635.20 1.345
635.30 1.345
635.40 1.345
635.50 1.346
635.60 1.346
635.70 1.346
635.80 1.346
635.90 1.346
636.00 1.346
636.10 1.346
636.20 1.346
636.30 1.346
636.40 1.346
636.50 1.346
636.60 1.347
636.70 1.347
636.80 1.347
636.90 1.347
637.00 1.347
637.10 1.347
637.20 1.347
637.30 1.347
637.40 1.347
637.50 1.347
637.60 1.347
637.70 1.348
637.80 1.348
637.90 1.348
638.00 1.348
638.10 1.348
638.20 1.348
638.30 1.348
638.40 1.348
638.50 1.348
638.60 1.348
638.70 1.348
638.80 1.349
638.90 1.349
639.00 1.349
639.10 1.349
639.20 1.349
639.30 1.349
639.40 1.349
639.50 1.349
639.60 1.349
639.70 1.349
639.80 1.349
639.90 1.349
640.00 1.349
640.10 1.35
640.20 1.35
640.30 1.35
640.40 1.35
640.50 1.35
640.60 1.35
640.70 1.35
640.80 1.35
640.90 1.35
641.00 1.35
641.10 1.35
641.20 1.35
641.30 1.35
641.40 1.351
641.50 1.351
641.60 1.351
641.70 1.351
641.80 1.351
641.90 1.351
642.00 1.351
642.10 1.351
642.20 1.351
642.30 1.351
642.40 1.351
642.50 1.351
642.60 1.351
642.70 1.351
642.80 1.352
642.90 1.352
643.00 1.352
643.10 1.352
643.20 1.352
643.30 1.352
643.40 1.352
643.50 1.352
643.60 1.352
643.70 1.352
643.80 1.352
643.90 1.352
644.00 1.352
644.10 1.352
644.20 1.352
644.30 1.353
644.40 1.353
644.50 1.353
644.60 1.353
644.70 1.353
644.80 1.353
644.90 1.353
645.00 1.353
645.10 1.353
645.20 1.353
645.30 1.353
645.40 1.353
645.50 1.353
645.60 1.353
645.70 1.353
645.80 1.354
645.90 1.354
646.00 1.354
646.10 1.354
646.20 1.354
646.30 1.354
646.40 1.354
646.50 1.354
646.60 1.354
646.70 1.354
646.80 1.354
646.90 1.354
647.00 1.354
647.10 1.354
647.20 1.354
647.30 1.354
647.40 1.355
647.50 1.355
647.60 1.355
647.70 1.355
647.80 1.355
647.90 1.355
648.00 1.355
648.10 1.355
648.20 1.355
648.30 1.355
648.40 1.355
648.50 1.355
648.60 1.355
648.70 1.355
648.80 1.355
648.90 1.355
649.00 1.355
649.10 1.355
649.20 1.355
649.30 1.355
649.40 1.355
649.50 1.356
649.60 1.356
649.70 1.356
649.80 1.356
649.90 1.356
650.00 1.356
650.10 1.356
650.20 1.356
650.30 1.356
650.40 1.356
650.50 1.356
650.60 1.356
650.70 1.356
650.80 1.356
650.90 1.356
651.00 1.356
651.10 1.356
651.20 1.356
651.30 1.356
651.40 1.356
651.50 1.356
651.60 1.357
651.70 1.357
651.80 1.357
651.90 1.357
652.00 1.357
652.10 1.357
652.20 1.357
652.30 1.357
652.40 1.357
652.50 1.357
652.60 1.357
652.70 1.357
652.80 1.357
652.90 1.357
653.00 1.357
653.10 1.357
653.20 1.357
653.30 1.357
653.40 1.357
653.50 1.357
653.60 1.357
653.70 1.357
653.80 1.357
653.90 1.357
654.00 1.357
654.10 1.357
654.20 1.357
654.30 1.358
654.40 1.358
654.50 1.358
654.60 1.358
654.70 1.358
654.80 1.358
654.90 1.358
655.00 1.358
655.10 1.358
655.20 1.358
655.30 1.358
655.40 1.358
655.50 1.358
655.60 1.358
655.70 1.358
655.80 1.358
655.90 1.358
656.00 1.358
656.10 1.358
656.20 1.358
656.30 1.358
656.40 1.358
656.50 1.358
656.60 1.358
656.70 1.358
656.80 1.358
656.90 1.358
657.00 1.358
657.10 1.358
657.20 1.358
657.30 1.358
657.40 1.358
657.50 1.358
657.60 1.358
657.70 1.358
657.80 1.358
657.90 1.358
658.00 1.358
658.10 1.358
658.20 1.359
658.30 1.359
658.40 1.359
658.50 1.359
658.60 1.359
658.70 1.359
658.80 1.359
658.90 1.359
659.00 1.359
659.10 1.359
659.20 1.359
659.30 1.359
659.40 1.359
659.50 1.359
659.60 1.359
659.70 1.359
659.80 1.359
659.90 1.359
660.00 1.359
660.10 1.359
660.20 1.359
660.30 1.359
660.40 1.359
660.50 1.359
660.60 1.359
660.70 1.359
660.80 1.359
660.90 1.359
661.00 1.359
661.10 1.359
661.20 1.359
661.30 1.359
661.40 1.359
661.50 1.359
661.60 1.359
661.70 1.359
661.80 1.359
661.90 1.359
662.00 1.359
662.10 1.359
662.20 1.359
662.30 1.359
662.40 1.359
662.50 1.359
662.60 1.359
662.70 1.359
662.80 1.359
662.90 1.359
663.00 1.359
663.10 1.359
663.20 1.359
663.30 1.359
663.40 1.359
663.50 1.359
663.60 1.359
663.70 1.359
663.80 1.359
663.90 1.359
664.00 1.359
664.10 1.359
664.20 1.359
664.30 1.359
664.40 1.359
664.50 1.359
664.60 1.359
664.70 1.359
664.80 1.359
664.90 1.359
665.00 1.359
665.10 1.359
665.20 1.359
665.30 1.359
665.40 1.359
665.50 1.359
665.60 1.359
665.70 1.359
665.80 1.359
665.90 1.359
666.00 1.359
666.10 1.359
666.20 1.359
666.30 1.359
666.40 1.358
666.50 1.358
666.60 1.358
666.70 1.358
666.80 1.358
666.90 1.358
667.00 1.358
667.10 1.358
667.20 1.358
667.30 1.358
667.40 1.358
667.50 1.358
667.60 1.358
667.70 1.358
667.80 1.358
667.90 1.358
668.00 1.358
668.10 1.358
668.20 1.358
668.30 1.358
668.40 1.358
668.50 1.358
668.60 1.358
668.70 1.358
668.80 1.358
668.90 1.358
669.00 1.358
669.10 1.358
669.20 1.358
669.30 1.358
669.40 1.358
669.50 1.358
669.60 1.358
669.70 1.358
669.80 1.358
669.90 1.358
670.00 1.358
670.10 1.357
670.20 1.357
670.30 1.357
670.40 1.357
670.50 1.357
670.60 1.357
670.70 1.357
670.80 1.357
670.90 1.357
671.00 1.357
671.10 1.357
671.20 1.357
671.30 1.357
671.40 1.357
671.50 1.357
671.60 1.357
671.70 1.357
671.80 1.357
671.90 1.357
672.00 1.357
672.10 1.357
672.20 1.357
672.30 1.357
672.40 1.357
672.50 1.357
672.60 1.356
672.70 1.356
672.80 1.356
672.90 1.356
673.00 1.356
673.10 1.356
673.20 1.356
673.30 1.356
673.40 1.356
673.50 1.356
673.60 1.356
673.70 1.356
673.80 1.356
673.90 1.356
674.00 1.356
674.10 1.356
674.20 1.356
674.30 1.356
674.40 1.355
674.50 1.355
674.60 1.355
674.70 1.355
674.80 1.355
674.90 1.355
675.00 1.355
675.10 1.355
675.20 1.355
675.30 1.355
675.40 1.355
675.50 1.355
675.60 1.355
675.70 1.355
675.80 1.355
675.90 1.355
676.00 1.354
676.10 1.354
676.20 1.354
676.30 1.354
676.40 1.354
676.50 1.354
676.60 1.354
676.70 1.354
676.80 1.354
676.90 1.354
677.00 1.354
677.10 1.354
677.20 1.354
677.30 1.354
677.40 1.354
677.50 1.353
677.60 1.353
677.70 1.353
677.80 1.353
677.90 1.353
678.00 1.353
678.10 1.353
678.20 1.353
678.30 1.353
678.40 1.353
678.50 1.353
678.60 1.353
678.70 1.352
678.80 1.352
678.90 1.352
679.00 1.352
679.10 1.352
679.20 1.352
679.30 1.352
679.40 1.352
679.50 1.352
679.60 1.352
679.70 1.352
679.80 1.352
679.90 1.351
680.00 1.351
680.10 1.351
680.20 1.351
680.30 1.351
680.40 1.351
680.50 1.351
680.60 1.351
680.70 1.351
680.80 1.351
680.90 1.351
681.00 1.351
681.10 1.35
681.20 1.35
681.30 1.35
681.40 1.35
681.50 1.35
681.60 1.35
681.70 1.35
681.80 1.35
681.90 1.35
682.00 1.349
682.10 1.349
682.20 1.349
682.30 1.349
682.40 1.349
682.50 1.349
682.60 1.349
682.70 1.349
682.80 1.349
682.90 1.349
683.00 1.348
683.10 1.348
683.20 1.348
683.30 1.348
683.40 1.348
683.50 1.348
683.60 1.348
683.70 1.348
683.80 1.348
683.90 1.347
684.00 1.347
684.10 1.347
684.20 1.347
684.30 1.347
684.40 1.347
684.50 1.347
684.60 1.347
684.70 1.346
684.80 1.346
684.90 1.346
685.00 1.346
685.10 1.346
685.20 1.346
685.30 1.346
685.40 1.346
685.50 1.345
685.60 1.345
685.70 1.345
685.80 1.345
685.90 1.345
686.00 1.345
686.10 1.345
686.20 1.345
686.30 1.344
686.40 1.344
686.50 1.344
686.60 1.344
686.70 1.344
686.80 1.344
686.90 1.344
687.00 1.344
687.10 1.343
687.20 1.343
687.30 1.343
687.40 1.343
687.50 1.343
687.60 1.343
687.70 1.343
687.80 1.342
687.90 1.342
688.00 1.342
688.10 1.342
688.20 1.342
688.30 1.342
688.40 1.342
688.50 1.341
688.60 1.341
688.70 1.341
688.80 1.341
688.90 1.341
689.00 1.341
689.10 1.341
689.20 1.34
689.30 1.34
689.40 1.34
689.50 1.34
689.60 1.34
689.70 1.34
689.80 1.339
689.90 1.339
690.00 1.339
690.10 1.339
690.20 1.339
690.30 1.338
690.40 1.338
690.50 1.338
690.60 1.338
690.70 1.338
690.80 1.338
690.90 1.337
691.00 1.337
691.10 1.337
691.20 1.337
691.30 1.337
691.40 1.337
691.50 1.336
691.60 1.336
691.70 1.336
691.80 1.336
691.90 1.336
692.00 1.335
692.10 1.335
692.20 1.335
692.30 1.335
692.40 1.335
692.50 1.335
692.60 1.334
692.70 1.334
692.80 1.334
692.90 1.334
693.00 1.334
693.10 1.334
693.20 1.333
693.30 1.333
693.40 1.333
693.50 1.333
693.60 1.333
693.70 1.332
693.80 1.332
693.90 1.332
694.00 1.332
694.10 1.332
694.20 1.332
694.30 1.331
694.40 1.331
694.50 1.331
694.60 1.331
694.70 1.331
694.80 1.331
694.90 1.33
695.00 1.33
695.10 1.33
695.20 1.33
695.30 1.33
695.40 1.329
695.50 1.329
695.60 1.329
695.70 1.329
695.80 1.328
695.90 1.328
696.00 1.328
696.10 1.328
696.20 1.328
696.30 1.327
696.40 1.327
696.50 1.327
696.60 1.327
696.70 1.327
696.80 1.326
696.90 1.326
697.00 1.326
697.10 1.326
697.20 1.325
697.30 1.325
697.40 1.325
697.50 1.325
697.60 1.325
697.70 1.324
697.80 1.324
697.90 1.324
698.00 1.324
698.10 1.324
698.20 1.323
698.30 1.323
698.40 1.323
698.50 1.323
698.60 1.322
698.70 1.322
698.80 1.322
698.90 1.322
699.00 1.322
699.10 1.321
699.20 1.321
699.30 1.321
699.40 1.321
699.50 1.321
699.60 1.32
699.70 1.32
699.80 1.32
699.90 1.32
700.00 1.319
700.10 1.319
700.20 1.319
700.30 1.319
700.40 1.318
700.50 1.318
700.60 1.318
700.70 1.318
700.80 1.317
700.90 1.317
701.00 1.317
701.10 1.317
701.20 1.316
701.30 1.316
701.40 1.316
701.50 1.316
701.60 1.315
701.70 1.315
701.80 1.315
701.90 1.315
702.00 1.314
702.10 1.314
702.20 1.314
702.30 1.314
702.40 1.313
702.50 1.313
702.60 1.313
702.70 1.313
702.80 1.312
702.90 1.312
703.00 1.312
703.10 1.312
703.20 1.311
703.30 1.311
703.40 1.311
703.50 1.311
703.60 1.31
703.70 1.31
703.80 1.31
703.90 1.31
704.00 1.309
704.10 1.309
704.20 1.309
704.30 1.309
704.40 1.308
704.50 1.308
704.60 1.308
704.70 1.308
704.80 1.307
704.90 1.307
705.00 1.307
705.10 1.306
705.20 1.306
705.30 1.306
705.40 1.306
705.50 1.305
705.60 1.305
705.70 1.305
705.80 1.304
705.90 1.304
706.00 1.304
706.10 1.304
706.20 1.303
706.30 1.303
706.40 1.303
706.50 1.302
706.60 1.302
706.70 1.302
706.80 1.302
706.90 1.301
707.00 1.301
707.10 1.301
707.20 1.3
707.30 1.3
707.40 1.3
707.50 1.299
707.60 1.299
707.70 1.299
707.80 1.299
707.90 1.298
708.00 1.298
708.10 1.298
708.20 1.297
708.30 1.297
708.40 1.297
708.50 1.297
708.60 1.296
708.70 1.296
708.80 1.296
708.90 1.295
709.00 1.295
709.10 1.295
709.20 1.295
709.30 1.294
709.40 1.294
709.50 1.294
709.60 1.293
709.70 1.293
709.80 1.293
709.90 1.293
710.00 1.292
710.10 1.292
710.20 1.292
710.30 1.291
710.40 1.291
710.50 1.291
710.60 1.29
710.70 1.29
710.80 1.29
710.90 1.289
711.00 1.289
711.10 1.289
711.20 1.288
711.30 1.288
711.40 1.288
711.50 1.287
711.60 1.287
711.70 1.287
711.80 1.286
711.90 1.286
712.00 1.286
712.10 1.285
712.20 1.285
712.30 1.285
712.40 1.285
712.50 1.284
712.60 1.284
712.70 1.284
712.80 1.283
712.90 1.283
713.00 1.283
713.10 1.282
713.20 1.282
713.30 1.282
713.40 1.281
713.50 1.281
713.60 1.281
713.70 1.28
713.80 1.28
713.90 1.28
714.00 1.279
714.10 1.279
714.20 1.279
714.30 1.278
714.40 1.278
714.50 1.278
714.60 1.278
714.70 1.277
714.80 1.277
714.90 1.277
715.00 1.276
715.10 1.276
715.20 1.276
715.30 1.275
715.40 1.275
715.50 1.274
715.60 1.274
715.70 1.274
715.80 1.273
715.90 1.273
716.00 1.273
716.10 1.272
716.20 1.272
716.30 1.272
716.40 1.271
716.50 1.271
716.60 1.271
716.70 1.27
716.80 1.27
716.90 1.27
717.00 1.269
717.10 1.269
717.20 1.269
717.30 1.268
717.40 1.268
717.50 1.267
717.60 1.267
717.70 1.267
717.80 1.266
717.90 1.266
718.00 1.266
718.10 1.265
718.20 1.265
718.30 1.265
718.40 1.264
718.50 1.264
718.60 1.264
718.70 1.263
718.80 1.263
718.90 1.263
719.00 1.262
719.10 1.262
719.20 1.262
719.30 1.261
719.40 1.261
719.50 1.261
719.60 1.26
719.70 1.26
719.80 1.259
719.90 1.259
720.00 1.259
720.10 1.258
720.20 1.258
720.30 1.258
720.40 1.257
720.50 1.257
720.60 1.257
720.70 1.256
720.80 1.256
720.90 1.256
721.00 1.255
721.10 1.255
721.20 1.254
721.30 1.254
721.40 1.254
721.50 1.253
721.60 1.253
721.70 1.253
721.80 1.252
721.90 1.252
722.00 1.252
722.10 1.251
722.20 1.251
722.30 1.25
722.40 1.25
722.50 1.25
722.60 1.249
722.70 1.249
722.80 1.249
722.90 1.248
723.00 1.248
723.10 1.248
723.20 1.247
723.30 1.247
723.40 1.247
723.50 1.246
723.60 1.246
723.70 1.245
723.80 1.245
723.90 1.245
724.00 1.244
724.10 1.244
724.20 1.244
724.30 1.243
724.40 1.243
724.50 1.243
724.60 1.242
724.70 1.242
724.80 1.242
724.90 1.241
725.00 1.241
725.10 1.24
725.20 1.24
725.30 1.24
725.40 1.239
725.50 1.239
725.60 1.239
725.70 1.238
725.80 1.238
725.90 1.238
726.00 1.237
726.10 1.237
726.20 1.236
726.30 1.236
726.40 1.236
726.50 1.235
726.60 1.235
726.70 1.235
726.80 1.234
726.90 1.234
727.00 1.234
727.10 1.233
727.20 1.233
727.30 1.232
727.40 1.232
727.50 1.232
727.60 1.231
727.70 1.231
727.80 1.231
727.90 1.23
728.00 1.23
728.10 1.23
728.20 1.229
728.30 1.229
728.40 1.228
728.50 1.228
728.60 1.228
728.70 1.227
728.80 1.227
728.90 1.227
729.00 1.226
729.10 1.226
729.20 1.226
729.30 1.225
729.40 1.225
729.50 1.224
729.60 1.224
729.70 1.224
729.80 1.223
729.90 1.223
730.00 1.223
730.10 1.222
730.20 1.222
730.30 1.222
730.40 1.221
730.50 1.221
730.60 1.221
730.70 1.22
730.80 1.22
730.90 1.22
731.00 1.219
731.10 1.219
731.20 1.219
731.30 1.218
731.40 1.218
731.50 1.218
731.60 1.217
731.70 1.217
731.80 1.217
731.90 1.216
732.00 1.216
732.10 1.215
732.20 1.215
732.30 1.215
732.40 1.214
732.50 1.214
732.60 1.214
732.70 1.213
732.80 1.213
732.90 1.213
733.00 1.212
733.10 1.212
733.20 1.212
733.30 1.211
733.40 1.211
733.50 1.211
733.60 1.21
733.70 1.21
733.80 1.21
733.90 1.209
734.00 1.209
734.10 1.209
734.20 1.208
734.30 1.208
734.40 1.208
734.50 1.207
734.60 1.207
734.70 1.207
734.80 1.206
734.90 1.206
735.00 1.206
735.10 1.205
735.20 1.205
735.30 1.205
735.40 1.204
735.50 1.204
735.60 1.204
735.70 1.203
735.80 1.203
735.90 1.203
736.00 1.202
736.10 1.202
736.20 1.202
736.30 1.201
736.40 1.201
736.50 1.201
736.60 1.2
736.70 1.2
736.80 1.2
736.90 1.199
737.00 1.199
737.10 1.199
737.20 1.198
737.30 1.198
737.40 1.198
737.50 1.197
737.60 1.197
737.70 1.197
737.80 1.196
737.90 1.196
738.00 1.196
738.10 1.195
738.20 1.195
738.30 1.195
738.40 1.194
738.50 1.194
738.60 1.194
738.70 1.193
738.80 1.193
738.90 1.193
739.00 1.192
739.10 1.192
739.20 1.192
739.30 1.191
739.40 1.191
739.50 1.191
739.60 1.19
739.70 1.19
739.80 1.19
739.90 1.189
740.00 1.189
740.10 1.189
740.20 1.188
740.30 1.188
740.40 1.188
740.50 1.188
740.60 1.187
740.70 1.187
740.80 1.187
740.90 1.186
741.00 1.186
741.10 1.186
741.20 1.186
741.30 1.185
741.40 1.185
741.50 1.185
741.60 1.184
741.70 1.184
741.80 1.184
741.90 1.184
742.00 1.183
742.10 1.183
742.20 1.183
742.30 1.182
742.40 1.182
742.50 1.182
742.60 1.182
742.70 1.181
742.80 1.181
742.90 1.181
743.00 1.18
743.10 1.18
743.20 1.18
743.30 1.18
743.40 1.179
743.50 1.179
743.60 1.179
743.70 1.178
743.80 1.178
743.90 1.178
744.00 1.178
744.10 1.177
744.20 1.177
744.30 1.177
744.40 1.176
744.50 1.176
744.60 1.176
744.70 1.176
744.80 1.175
744.90 1.175
745.00 1.175
745.10 1.174
745.20 1.174
745.30 1.174
745.40 1.174
745.50 1.173
745.60 1.173
745.70 1.173
745.80 1.173
745.90 1.172
746.00 1.172
746.10 1.172
746.20 1.171
746.30 1.171
746.40 1.171
746.50 1.171
746.60 1.17
746.70 1.17
746.80 1.17
746.90 1.169
747.00 1.169
747.10 1.169
747.20 1.169
747.30 1.168
747.40 1.168
747.50 1.168
747.60 1.167
747.70 1.167
747.80 1.167
747.90 1.167
748.00 1.166
748.10 1.166
748.20 1.166
748.30 1.166
748.40 1.165
748.50 1.165
748.60 1.165
748.70 1.164
748.80 1.164
748.90 1.164
749.00 1.164
749.10 1.163
749.20 1.163
749.30 1.163
749.40 1.162
749.50 1.162
749.60 1.162
749.70 1.162
749.80 1.161
749.90 1.161
750.00 1.161
750.10 1.161
750.20 1.16
750.30 1.16
750.40 1.16
750.50 1.16
750.60 1.159
750.70 1.159
750.80 1.159
750.90 1.159
751.00 1.158
751.10 1.158
751.20 1.158
751.30 1.158
751.40 1.157
751.50 1.157
751.60 1.157
751.70 1.157
751.80 1.156
751.90 1.156
752.00 1.156
752.10 1.156
752.20 1.155
752.30 1.155
752.40 1.155
752.50 1.155
752.60 1.154
752.70 1.154
752.80 1.154
752.90 1.154
753.00 1.154
753.10 1.153
753.20 1.153
753.30 1.153
753.40 1.153
753.50 1.152
753.60 1.152
753.70 1.152
753.80 1.152
753.90 1.151
754.00 1.151
754.10 1.151
754.20 1.151
754.30 1.15
754.40 1.15
754.50 1.15
754.60 1.15
754.70 1.149
754.80 1.149
754.90 1.149
755.00 1.149
755.10 1.148
755.20 1.148
755.30 1.148
755.40 1.148
755.50 1.148
755.60 1.147
755.70 1.147
755.80 1.147
755.90 1.147
756.00 1.146
756.10 1.146
756.20 1.146
756.30 1.146
756.40 1.145
756.50 1.145
756.60 1.145
756.70 1.145
756.80 1.144
756.90 1.144
757.00 1.144
757.10 1.144
757.20 1.143
757.30 1.143
757.40 1.143
757.50 1.143
757.60 1.143
757.70 1.142
757.80 1.142
757.90 1.142
758.00 1.142
758.10 1.141
758.20 1.141
758.30 1.141
758.40 1.141
758.50 1.14
758.60 1.14
758.70 1.14
758.80 1.14
758.90 1.139
759.00 1.139
759.10 1.139
759.20 1.139
759.30 1.139
759.40 1.138
759.50 1.138
759.60 1.138
759.70 1.138
759.80 1.137
759.90 1.137
760.00 1.137
760.10 1.137
760.20 1.136
760.30 1.136
760.40 1.136
760.50 1.136
760.60 1.136
760.70 1.135
760.80 1.135
760.90 1.135
761.00 1.135
761.10 1.135
761.20 1.134
761.30 1.134
761.40 1.134
761.50 1.134
761.60 1.134
761.70 1.133
761.80 1.133
761.90 1.133
762.00 1.133
762.10 1.132
762.20 1.132
762.30 1.132
762.40 1.132
762.50 1.132
762.60 1.131
762.70 1.131
762.80 1.131
762.90 1.131
763.00 1.131
763.10 1.13
763.20 1.13
763.30 1.13
763.40 1.13
763.50 1.13
763.60 1.129
763.70 1.129
763.80 1.129
763.90 1.129
764.00 1.128
764.10 1.128
764.20 1.128
764.30 1.128
764.40 1.128
764.50 1.127
764.60 1.127
764.70 1.127
764.80 1.127
764.90 1.127
765.00 1.126
765.10 1.126
765.20 1.126
765.30 1.126
765.40 1.126
765.50 1.125
765.60 1.125
765.70 1.125
765.80 1.125
765.90 1.124
766.00 1.124
766.10 1.124
766.20 1.124
766.30 1.124
766.40 1.123
766.50 1.123
766.60 1.123
766.70 1.123
766.80 1.123
766.90 1.122
767.00 1.122
767.10 1.122
767.20 1.122
767.30 1.122
767.40 1.121
767.50 1.121
767.60 1.121
767.70 1.121
767.80 1.121
767.90 1.12
768.00 1.12
768.10 1.12
768.20 1.12
768.30 1.12
768.40 1.119
768.50 1.119
768.60 1.119
768.70 1.119
768.80 1.118
768.90 1.118
769.00 1.118
769.10 1.118
769.20 1.118
769.30 1.117
769.40 1.117
769.50 1.117
769.60 1.117
769.70 1.117
769.80 1.116
769.90 1.116
770.00 1.116
770.10 1.116
770.20 1.116
770.30 1.116
770.40 1.115
770.50 1.115
770.60 1.115
770.70 1.115
770.80 1.115
770.90 1.114
771.00 1.114
771.10 1.114
771.20 1.114
771.30 1.114
771.40 1.114
771.50 1.113
771.60 1.113
771.70 1.113
771.80 1.113
771.90 1.113
772.00 1.113
772.10 1.112
772.20 1.112
772.30 1.112
772.40 1.112
772.50 1.112
772.60 1.112
772.70 1.111
772.80 1.111
772.90 1.111
773.00 1.111
773.10 1.111
773.20 1.111
773.30 1.11
773.40 1.11
773.50 1.11
773.60 1.11
773.70 1.11
773.80 1.11
773.90 1.109
774.00 1.109
774.10 1.109
774.20 1.109
774.30 1.109
774.40 1.109
774.50 1.108
774.60 1.108
774.70 1.108
774.80 1.108
774.90 1.108
775.00 1.108
775.10 1.107
775.20 1.107
775.30 1.107
775.40 1.107
775.50 1.107
775.60 1.107
775.70 1.106
775.80 1.106
775.90 1.106
776.00 1.106
776.10 1.106
776.20 1.106
776.30 1.105
776.40 1.105
776.50 1.105
776.60 1.105
776.70 1.105
776.80 1.105
776.90 1.104
777.00 1.104
777.10 1.104
777.20 1.104
777.30 1.104
777.40 1.104
777.50 1.103
777.60 1.103
777.70 1.103
777.80 1.103
777.90 1.103
778.00 1.103
778.10 1.102
778.20 1.102
778.30 1.102
778.40 1.102
778.50 1.102
778.60 1.102
778.70 1.101
778.80 1.101
778.90 1.101
779.00 1.101
779.10 1.101
779.20 1.101
779.30 1.1
779.40 1.1
779.50 1.1
779.60 1.1
779.70 1.1
779.80 1.1
779.90 1.099
780.00 1.099
780.10 1.099
780.20 1.099
780.30 1.099
780.40 1.099
780.50 1.099
780.60 1.099
780.70 1.098
780.80 1.098
780.90 1.098
781.00 1.098
781.10 1.098
781.20 1.098
781.30 1.098
781.40 1.098
781.50 1.097
781.60 1.097
781.70 1.097
781.80 1.097
781.90 1.097
782.00 1.097
782.10 1.097
782.20 1.097
782.30 1.096
782.40 1.096
782.50 1.096
782.60 1.096
782.70 1.096
782.80 1.096
782.90 1.096
783.00 1.096
783.10 1.095
783.20 1.095
783.30 1.095
783.40 1.095
783.50 1.095
783.60 1.095
783.70 1.095
783.80 1.095
783.90 1.095
784.00 1.094
784.10 1.094
784.20 1.094
784.30 1.094
784.40 1.094
784.50 1.094
784.60 1.094
784.70 1.094
784.80 1.093
784.90 1.093
785.00 1.093
785.10 1.093
785.20 1.093
785.30 1.093
785.40 1.093
785.50 1.093
785.60 1.092
785.70 1.092
785.80 1.092
785.90 1.092
786.00 1.092
786.10 1.092
786.20 1.092
786.30 1.092
786.40 1.091
786.50 1.091
786.60 1.091
786.70 1.091
786.80 1.091
786.90 1.091
787.00 1.091
787.10 1.091
787.20 1.091
787.30 1.09
787.40 1.09
787.50 1.09
787.60 1.09
787.70 1.09
787.80 1.09
787.90 1.09
788.00 1.09
788.10 1.089
788.20 1.089
788.30 1.089
788.40 1.089
788.50 1.089
788.60 1.089
788.70 1.089
788.80 1.089
788.90 1.088
789.00 1.088
789.10 1.088
789.20 1.088
789.30 1.088
789.40 1.088
789.50 1.088
789.60 1.088
789.70 1.087
789.80 1.087
789.90 1.087
790.00 1.087
790.10 1.087
790.20 1.087
790.30 1.087
790.40 1.087
790.50 1.087
790.60 1.086
790.70 1.086
790.80 1.086
790.90 1.086
791.00 1.086
791.10 1.086
791.20 1.086
791.30 1.086
791.40 1.086
791.50 1.085
791.60 1.085
791.70 1.085
791.80 1.085
791.90 1.085
792.00 1.085
792.10 1.085
792.20 1.085
792.30 1.085
792.40 1.084
792.50 1.084
792.60 1.084
792.70 1.084
792.80 1.084
792.90 1.084
793.00 1.084
793.10 1.084
793.20 1.084
793.30 1.083
793.40 1.083
793.50 1.083
793.60 1.083
793.70 1.083
793.80 1.083
793.90 1.083
794.00 1.083
794.10 1.082
794.20 1.082
794.30 1.082
794.40 1.082
794.50 1.082
794.60 1.082
794.70 1.082
794.80 1.082
794.90 1.082
795.00 1.081
795.10 1.081
795.20 1.081
795.30 1.081
795.40 1.081
795.50 1.081
795.60 1.081
795.70 1.081
795.80 1.081
795.90 1.08
796.00 1.08
796.10 1.08
796.20 1.08
796.30 1.08
796.40 1.08
796.50 1.08
796.60 1.08
796.70 1.08
796.80 1.079
796.90 1.079
797.00 1.079
797.10 1.079
797.20 1.079
797.30 1.079
797.40 1.079
797.50 1.079
797.60 1.079
797.70 1.078
797.80 1.078
797.90 1.078
798.00 1.078
798.10 1.078
798.20 1.078
798.30 1.078
798.40 1.078
798.50 1.078
798.60 1.077
798.70 1.077
798.80 1.077
798.90 1.077
799.00 1.077
799.10 1.077
799.20 1.077
799.30 1.077
799.40 1.077
799.50 1.076
799.60 1.076
799.70 1.076
799.80 1.076
799.90 1.076
800.00 1.076
800.10 1.076
800.20 1.076
800.30 1.075
800.40 1.075
800.50 1.075
800.60 1.075
800.70 1.075
800.80 1.075
800.90 1.075
801.00 1.074
801.10 1.074
801.20 1.074
801.30 1.074
801.40 1.074
801.50 1.074
801.60 1.073
801.70 1.073
801.80 1.073
801.90 1.073
802.00 1.073
802.10 1.073
802.20 1.073
802.30 1.072
802.40 1.072
802.50 1.072
802.60 1.072
802.70 1.072
802.80 1.072
802.90 1.072
803.00 1.071
803.10 1.071
803.20 1.071
803.30 1.071
803.40 1.071
803.50 1.071
803.60 1.07
803.70 1.07
803.80 1.07
803.90 1.07
804.00 1.07
804.10 1.07
804.20 1.07
804.30 1.069
804.40 1.069
804.50 1.069
804.60 1.069
804.70 1.069
804.80 1.069
804.90 1.069
805.00 1.068
805.10 1.068
805.20 1.068
805.30 1.068
805.40 1.068
805.50 1.068
805.60 1.067
805.70 1.067
805.80 1.067
805.90 1.067
806.00 1.067
806.10 1.067
806.20 1.067
806.30 1.066
806.40 1.066
806.50 1.066
806.60 1.066
806.70 1.066
806.80 1.066
806.90 1.066
807.00 1.065
807.10 1.065
807.20 1.065
807.30 1.065
807.40 1.065
807.50 1.065
807.60 1.065
807.70 1.064
807.80 1.064
807.90 1.064
808.00 1.064
808.10 1.064
808.20 1.064
808.30 1.063
808.40 1.063
808.50 1.063
808.60 1.063
808.70 1.063
808.80 1.063
808.90 1.063
809.00 1.062
809.10 1.062
809.20 1.062
809.30 1.062
809.40 1.062
809.50 1.062
809.60 1.062
809.70 1.061
809.80 1.061
809.90 1.061
810.00 1.061
810.10 1.061
810.20 1.061
810.30 1.06
810.40 1.06
810.50 1.06
810.60 1.06
810.70 1.06
810.80 1.059
810.90 1.059
811.00 1.059
811.10 1.059
811.20 1.059
811.30 1.058
811.40 1.058
811.50 1.058
811.60 1.058
811.70 1.058
811.80 1.057
811.90 1.057
812.00 1.057
812.10 1.057
812.20 1.057
812.30 1.056
812.40 1.056
812.50 1.056
812.60 1.056
812.70 1.056
812.80 1.055
812.90 1.055
813.00 1.055
813.10 1.055
813.20 1.055
813.30 1.054
813.40 1.054
813.50 1.054
813.60 1.054
813.70 1.054
813.80 1.053
813.90 1.053
814.00 1.053
814.10 1.053
814.20 1.053
814.30 1.052
814.40 1.052
814.50 1.052
814.60 1.052
814.70 1.052
814.80 1.052
814.90 1.051
815.00 1.051
815.10 1.051
815.20 1.051
815.30 1.051
815.40 1.05
815.50 1.05
815.60 1.05
815.70 1.05
815.80 1.05
815.90 1.049
816.00 1.049
816.10 1.049
816.20 1.049
816.30 1.049
816.40 1.048
816.50 1.048
816.60 1.048
816.70 1.048
816.80 1.048
816.90 1.047
817.00 1.047
817.10 1.047
817.20 1.047
817.30 1.047
817.40 1.046
817.50 1.046
817.60 1.046
817.70 1.046
817.80 1.046
817.90 1.045
818.00 1.045
818.10 1.045
818.20 1.045
818.30 1.045
818.40 1.045
818.50 1.044
818.60 1.044
818.70 1.044
818.80 1.044
818.90 1.044
819.00 1.043
819.10 1.043
819.20 1.043
819.30 1.043
819.40 1.043
819.50 1.042
819.60 1.042
819.70 1.042
819.80 1.042
819.90 1.042
820.00 1.041
820.10 1.041
820.20 1.041
820.30 1.041
820.40 1.041
820.50 1.04
820.60 1.04
820.70 1.04
820.80 1.04
820.90 1.039
821.00 1.039
821.10 1.039
821.20 1.039
821.30 1.039
821.40 1.038
821.50 1.038
821.60 1.038
821.70 1.038
821.80 1.038
821.90 1.037
822.00 1.037
822.10 1.037
822.20 1.037
822.30 1.036
822.40 1.036
822.50 1.036
822.60 1.036
822.70 1.035
822.80 1.035
822.90 1.035
823.00 1.035
823.10 1.035
823.20 1.034
823.30 1.034
823.40 1.034
823.50 1.034
823.60 1.033
823.70 1.033
823.80 1.033
823.90 1.033
824.00 1.033
824.10 1.032
824.20 1.032
824.30 1.032
824.40 1.032
824.50 1.031
824.60 1.031
824.70 1.031
824.80 1.031
824.90 1.031
825.00 1.03
825.10 1.03
825.20 1.03
825.30 1.03
825.40 1.029
825.50 1.029
825.60 1.029
825.70 1.029
825.80 1.028
825.90 1.028
826.00 1.028
826.10 1.028
826.20 1.028
826.30 1.027
826.40 1.027
826.50 1.027
826.60 1.027
826.70 1.026
826.80 1.026
826.90 1.026
827.00 1.026
827.10 1.026
827.20 1.025
827.30 1.025
827.40 1.025
827.50 1.025
827.60 1.024
827.70 1.024
827.80 1.024
827.90 1.024
828.00 1.023
828.10 1.023
828.20 1.023
828.30 1.023
828.40 1.022
828.50 1.022
828.60 1.022
828.70 1.022
828.80 1.021
828.90 1.021
829.00 1.021
829.10 1.021
829.20 1.021
829.30 1.02
829.40 1.02
829.50 1.02
829.60 1.02
829.70 1.019
829.80 1.019
829.90 1.019
830.00 1.019
830.10 1.018
830.20 1.018
830.30 1.018
830.40 1.018
830.50 1.017
830.60 1.017
830.70 1.017
830.80 1.017
830.90 1.016
831.00 1.016
831.10 1.016
831.20 1.016
831.30 1.016
831.40 1.015
831.50 1.015
831.60 1.015
831.70 1.015
831.80 1.014
831.90 1.014
832.00 1.014
832.10 1.014
832.20 1.013
832.30 1.013
832.40 1.013
832.50 1.013
832.60 1.012
832.70 1.012
832.80 1.012
832.90 1.012
833.00 1.011
833.10 1.011
833.20 1.011
833.30 1.011
833.40 1.01
833.50 1.01
833.60 1.01
833.70 1.01
833.80 1.009
833.90 1.009
834.00 1.009
834.10 1.009
834.20 1.008
834.30 1.008
834.40 1.008
834.50 1.008
834.60 1.007
834.70 1.007
834.80 1.007
834.90 1.007
835.00 1.006
835.10 1.006
835.20 1.006
835.30 1.006
835.40 1.005
835.50 1.005
835.60 1.005
835.70 1.005
835.80 1.004
835.90 1.004
836.00 1.004
836.10 1.004
836.20 1.004
836.30 1.003
836.40 1.003
836.50 1.003
836.60 1.003
836.70 1.002
836.80 1.002
836.90 1.002
837.00 1.002
837.10 1.001
837.20 1.001
837.30 1.001
837.40 1.001
837.50 1
837.60 1
837.70 0.9998
837.80 0.9995
837.90 0.9992
838.00 0.999
838.10 0.9987
838.20 0.9985
838.30 0.9982
838.40 0.998
838.50 0.9977
838.60 0.9974
838.70 0.9972
838.80 0.9969
838.90 0.9967
839.00 0.9964
839.10 0.9962
839.20 0.9959
839.30 0.9957
839.40 0.9954
839.50 0.9951
839.60 0.9949
839.70 0.9946
839.80 0.9944
839.90 0.9941
840.00 0.9939
840.10 0.9936
840.20 0.9934
840.30 0.9931
840.40 0.9929
840.50 0.9926
840.60 0.9923
840.70 0.9921
840.80 0.9918
840.90 0.9916
841.00 0.9913
841.10 0.9911
841.20 0.9908
841.30 0.9906
841.40 0.9903
841.50 0.9901
841.60 0.9898
841.70 0.9896
841.80 0.9893
841.90 0.989
842.00 0.9888
842.10 0.9885
842.20 0.9883
842.30 0.988
842.40 0.9877
842.50 0.9875
842.60 0.9872
842.70 0.9869
842.80 0.9867
842.90 0.9864
843.00 0.9861
843.10 0.9859
843.20 0.9856
843.30 0.9854
843.40 0.9851
843.50 0.9848
843.60 0.9846
843.70 0.9843
843.80 0.984
843.90 0.9838
844.00 0.9835
844.10 0.9832
844.20 0.983
844.30 0.9827
844.40 0.9825
844.50 0.9822
844.60 0.9819
844.70 0.9817
844.80 0.9814
844.90 0.9811
845.00 0.9809
845.10 0.9806
845.20 0.9804
845.30 0.9801
845.40 0.9798
845.50 0.9796
845.60 0.9793
845.70 0.979
845.80 0.9788
845.90 0.9785
846.00 0.9783
846.10 0.978
846.20 0.9777
846.30 0.9775
846.40 0.9772
846.50 0.977
846.60 0.9767
846.70 0.9764
846.80 0.9762
846.90 0.9759
847.00 0.9757
847.10 0.9754
847.20 0.9751
847.30 0.9748
847.40 0.9746
847.50 0.9743
847.60 0.974
847.70 0.9738
847.80 0.9735
847.90 0.9732
848.00 0.973
848.10 0.9727
848.20 0.9724
848.30 0.9721
848.40 0.9719
848.50 0.9716
848.60 0.9713
848.70 0.9711
848.80 0.9708
848.90 0.9705
849.00 0.9703
849.10 0.97
849.20 0.9697
849.30 0.9695
849.40 0.9692
849.50 0.9689
849.60 0.9687
849.70 0.9684
849.80 0.9681
849.90 0.9679
850.00 0.9676
850.10 0.9673
850.20 0.9671
850.30 0.9668
850.40 0.9665
850.50 0.9663
850.60 0.966
850.70 0.9657
850.80 0.9655
850.90 0.9652
851.00 0.9649
851.10 0.9647
851.20 0.9644
851.30 0.9641
851.40 0.9639
851.50 0.9636
851.60 0.9633
851.70 0.9631
851.80 0.9628
851.90 0.9625
852.00 0.9623
852.10 0.962
852.20 0.9617
852.30 0.9614
852.40 0.9612
852.50 0.9609
852.60 0.9606
852.70 0.9603
852.80 0.9601
852.90 0.9598
853.00 0.9595
853.10 0.9592
853.20 0.959
853.30 0.9587
853.40 0.9584
853.50 0.9581
853.60 0.9578
853.70 0.9576
853.80 0.9573
853.90 0.957
854.00 0.9567
854.10 0.9565
854.20 0.9562
854.30 0.9559
854.40 0.9556
854.50 0.9554
854.60 0.9551
854.70 0.9548
854.80 0.9545
854.90 0.9543
855.00 0.954
855.10 0.9537
855.20 0.9534
855.30 0.9532
855.40 0.9529
855.50 0.9526
855.60 0.9524
855.70 0.9521
855.80 0.9518
855.90 0.9515
856.00 0.9513
856.10 0.951
856.20 0.9507
856.30 0.9504
856.40 0.9502
856.50 0.9499
856.60 0.9496
856.70 0.9494
856.80 0.9491
856.90 0.9488
857.00 0.9485
857.10 0.9482
857.20 0.948
857.30 0.9477
857.40 0.9474
857.50 0.9471
857.60 0.9468
857.70 0.9465
857.80 0.9463
857.90 0.946
858.00 0.9457
858.10 0.9454
858.20 0.9451
858.30 0.9448
858.40 0.9446
858.50 0.9443
858.60 0.944
858.70 0.9437
858.80 0.9434
858.90 0.9432
859.00 0.9429
859.10 0.9426
859.20 0.9423
859.30 0.942
859.40 0.9417
859.50 0.9415
859.60 0.9412
859.70 0.9409
859.80 0.9406
859.90 0.9403
860.00 0.9401
860.10 0.9398
860.20 0.9395
860.30 0.9392
860.40 0.9389
860.50 0.9387
860.60 0.9384
860.70 0.9381
860.80 0.9378
860.90 0.9375
861.00 0.9372
861.10 0.937
861.20 0.9367
861.30 0.9364
861.40 0.9361
861.50 0.9359
861.60 0.9356
861.70 0.9353
861.80 0.935
861.90 0.9347
862.00 0.9345
862.10 0.9342
862.20 0.9339
862.30 0.9336
862.40 0.9333
862.50 0.933
862.60 0.9327
862.70 0.9324
862.80 0.9321
862.90 0.9318
863.00 0.9315
863.10 0.9312
863.20 0.9309
863.30 0.9306
863.40 0.9304
863.50 0.9301
863.60 0.9298
863.70 0.9295
863.80 0.9292
863.90 0.9289
864.00 0.9286
864.10 0.9283
864.20 0.928
864.30 0.9277
864.40 0.9274
864.50 0.9272
864.60 0.9269
864.70 0.9266
864.80 0.9263
864.90 0.926
865.00 0.9257
865.10 0.9254
865.20 0.9251
865.30 0.9248
865.40 0.9245
865.50 0.9243
865.60 0.924
865.70 0.9237
865.80 0.9234
865.90 0.9231
866.00 0.9228
866.10 0.9225
866.20 0.9222
866.30 0.9219
866.40 0.9216
866.50 0.9214
866.60 0.9211
866.70 0.9208
866.80 0.9205
866.90 0.9202
867.00 0.9199
867.10 0.9196
867.20 0.9193
867.30 0.919
867.40 0.9187
867.50 0.9184
867.60 0.9181
867.70 0.9178
867.80 0.9175
867.90 0.9172
868.00 0.9169
868.10 0.9166
868.20 0.9163
868.30 0.916
868.40 0.9157
868.50 0.9154
868.60 0.9151
868.70 0.9147
868.80 0.9144
868.90 0.9141
869.00 0.9138
869.10 0.9135
869.20 0.9132
869.30 0.9129
869.40 0.9126
869.50 0.9123
869.60 0.912
869.70 0.9117
869.80 0.9114
869.90 0.9111
870.00 0.9108
870.10 0.9105
870.20 0.9102
870.30 0.9099
870.40 0.9096
870.50 0.9093
870.60 0.909
870.70 0.9087
870.80 0.9084
870.90 0.9081
871.00 0.9078
871.10 0.9075
871.20 0.9072
871.30 0.9069
871.40 0.9066
871.50 0.9063
871.60 0.906
871.70 0.9057
871.80 0.9054
871.90 0.9051
872.00 0.9048
872.10 0.9045
872.20 0.9042
872.30 0.9039
872.40 0.9035
872.50 0.9032
872.60 0.9029
872.70 0.9026
872.80 0.9023
872.90 0.9019
873.00 0.9016
873.10 0.9013
873.20 0.901
873.30 0.9007
873.40 0.9004
873.50 0.9
873.60 0.8997
873.70 0.8994
873.80 0.8991
873.90 0.8988
874.00 0.8985
874.10 0.8981
874.20 0.8978
874.30 0.8975
874.40 0.8972
874.50 0.8969
874.60 0.8966
874.70 0.8963
874.80 0.8959
874.90 0.8956
875.00 0.8953
875.10 0.895
875.20 0.8947
875.30 0.8944
875.40 0.894
875.50 0.8937
875.60 0.8934
875.70 0.8931
875.80 0.8928
875.90 0.8925
876.00 0.8922
876.10 0.8919
876.20 0.8915
876.30 0.8912
876.40 0.8909
876.50 0.8906
876.60 0.8903
876.70 0.89
876.80 0.8897
876.90 0.8893
877.00 0.889
877.10 0.8887
877.20 0.8884
877.30 0.888
877.40 0.8877
877.50 0.8874
877.60 0.887
877.70 0.8867
877.80 0.8864
877.90 0.886
878.00 0.8857
878.10 0.8853
878.20 0.885
878.30 0.8847
878.40 0.8843
878.50 0.884
878.60 0.8837
878.70 0.8833
878.80 0.883
878.90 0.8827
879.00 0.8823
879.10 0.882
879.20 0.8817
879.30 0.8813
879.40 0.881
879.50 0.8807
879.60 0.8804
879.70 0.88
879.80 0.8797
879.90 0.8794
880.00 0.879
880.10 0.8787
880.20 0.8784
880.30 0.878
880.40 0.8777
880.50 0.8774
880.60 0.877
880.70 0.8767
880.80 0.8764
880.90 0.876
881.00 0.8757
881.10 0.8754
881.20 0.8751
881.30 0.8747
881.40 0.8744
881.50 0.8741
881.60 0.8737
881.70 0.8734
881.80 0.8731
881.90 0.8727
882.00 0.8724
882.10 0.8721
882.20 0.8717
882.30 0.8714
882.40 0.871
882.50 0.8706
882.60 0.8703
882.70 0.8699
882.80 0.8696
882.90 0.8692
883.00 0.8689
883.10 0.8685
883.20 0.8682
883.30 0.8678
883.40 0.8675
883.50 0.8671
883.60 0.8668
883.70 0.8664
883.80 0.8661
883.90 0.8657
884.00 0.8654
884.10 0.865
884.20 0.8647
884.30 0.8643
884.40 0.8639
884.50 0.8636
884.60 0.8632
884.70 0.8629
884.80 0.8625
884.90 0.8622
885.00 0.8618
885.10 0.8615
885.20 0.8611
885.30 0.8608
885.40 0.8604
885.50 0.8601
885.60 0.8597
885.70 0.8594
885.80 0.859
885.90 0.8587
886.00 0.8583
886.10 0.858
886.20 0.8577
886.30 0.8573
886.40 0.857
886.50 0.8566
886.60 0.8563
886.70 0.8559
886.80 0.8556
886.90 0.8552
887.00 0.8549
887.10 0.8545
887.20 0.8541
887.30 0.8537
887.40 0.8534
887.50 0.853
887.60 0.8526
887.70 0.8523
887.80 0.8519
887.90 0.8515
888.00 0.8511
888.10 0.8508
888.20 0.8504
888.30 0.85
888.40 0.8497
888.50 0.8493
888.60 0.8489
888.70 0.8486
888.80 0.8482
888.90 0.8478
889.00 0.8474
889.10 0.8471
889.20 0.8467
889.30 0.8463
889.40 0.846
889.50 0.8456
889.60 0.8452
889.70 0.8449
889.80 0.8445
889.90 0.8441
890.00 0.8438
890.10 0.8434
890.20 0.843
890.30 0.8427
890.40 0.8423
890.50 0.8419
890.60 0.8415
890.70 0.8412
890.80 0.8408
890.90 0.8404
891.00 0.8401
891.10 0.8397
891.20 0.8393
891.30 0.839
891.40 0.8386
891.50 0.8382
891.60 0.8379
891.70 0.8375
891.80 0.8371
891.90 0.8368
892.00 0.8364
892.10 0.8361
892.20 0.8357
892.30 0.8353
892.40 0.835
892.50 0.8346
892.60 0.8343
892.70 0.8339
892.80 0.8336
892.90 0.8332
893.00 0.8328
893.10 0.8325
893.20 0.8321
893.30 0.8318
893.40 0.8314
893.50 0.8311
893.60 0.8307
893.70 0.8304
893.80 0.83
893.90 0.8296
894.00 0.8293
894.10 0.8289
894.20 0.8286
894.30 0.8282
894.40 0.8279
894.50 0.8275
894.60 0.8272
894.70 0.8268
894.80 0.8265
894.90 0.8261
895.00 0.8257
895.10 0.8254
895.20 0.825
895.30 0.8247
895.40 0.8243
895.50 0.824
895.60 0.8236
895.70 0.8233
895.80 0.8229
895.90 0.8226
896.00 0.8222
896.10 0.8219
896.20 0.8215
896.30 0.8212
896.40 0.8208
896.50 0.8205
896.60 0.8201
896.70 0.8197
896.80 0.8194
896.90 0.819
897.00 0.8187
897.10 0.8183
897.20 0.8179
897.30 0.8175
897.40 0.817
897.50 0.8166
897.60 0.8162
897.70 0.8158
897.80 0.8154
897.90 0.815
898.00 0.8146
898.10 0.8142
898.20 0.8137
898.30 0.8133
898.40 0.8129
898.50 0.8125
898.60 0.8121
898.70 0.8117
898.80 0.8113
898.90 0.8109
899.00 0.8105
899.10 0.8101
899.20 0.8096
899.30 0.8092
899.40 0.8088
899.50 0.8084
899.60 0.808
899.70 0.8076
899.80 0.8072
899.90 0.8068
900.00 0.8064
900.10 0.806
900.20 0.8056
900.30 0.8051
900.40 0.8047
900.50 0.8043
900.60 0.8039
900.70 0.8035
900.80 0.8031
900.90 0.8027
901.00 0.8023
901.10 0.8019
901.20 0.8015
901.30 0.8011
901.40 0.8007
901.50 0.8003
901.60 0.7999
901.70 0.7995
901.80 0.799
901.90 0.7986
902.00 0.7982
902.10 0.7977
902.20 0.7973
902.30 0.7968
902.40 0.7963
902.50 0.7958
902.60 0.7953
902.70 0.7948
902.80 0.7943
902.90 0.7938
903.00 0.7933
903.10 0.7929
903.20 0.7924
903.30 0.7919
903.40 0.7914
903.50 0.7909
903.60 0.7904
903.70 0.7899
903.80 0.7895
903.90 0.789
904.00 0.7885
904.10 0.788
904.20 0.7875
904.30 0.787
904.40 0.7865
904.50 0.7861
904.60 0.7856
904.70 0.7851
904.80 0.7846
904.90 0.7841
905.00 0.7836
905.10 0.7831
905.20 0.7827
905.30 0.7822
905.40 0.7817
905.50 0.7812
905.60 0.7807
905.70 0.7802
905.80 0.7798
905.90 0.7793
906.00 0.7788
906.10 0.7783
906.20 0.7778
906.30 0.7774
906.40 0.7769
906.50 0.7764
906.60 0.7759
906.70 0.7754
906.80 0.775
906.90 0.7745
907.00 0.774
907.10 0.7735
907.20 0.7731
907.30 0.7727
907.40 0.7722
907.50 0.7718
907.60 0.7713
907.70 0.7709
907.80 0.7704
907.90 0.77
908.00 0.7695
908.10 0.7691
908.20 0.7687
908.30 0.7682
908.40 0.7678
908.50 0.7673
908.60 0.7669
908.70 0.7664
908.80 0.766
908.90 0.7656
909.00 0.7651
909.10 0.7647
909.20 0.7642
909.30 0.7638
909.40 0.7634
909.50 0.7629
909.60 0.7625
909.70 0.762
909.80 0.7616
909.90 0.7612
910.00 0.7607
910.10 0.7603
910.20 0.7598
910.30 0.7594
910.40 0.759
910.50 0.7585
910.60 0.7581
910.70 0.7576
910.80 0.7572
910.90 0.7568
911.00 0.7563
911.10 0.7559
911.20 0.7554
911.30 0.755
911.40 0.7546
911.50 0.7541
911.60 0.7537
911.70 0.7533
911.80 0.7528
911.90 0.7524
912.00 0.7519
912.10 0.7515
912.20 0.7511
912.30 0.7507
912.40 0.7503
912.50 0.7499
912.60 0.7494
912.70 0.749
912.80 0.7486
912.90 0.7482
913.00 0.7478
913.10 0.7474
913.20 0.7469
913.30 0.7465
913.40 0.7461
913.50 0.7457
913.60 0.7453
913.70 0.7449
913.80 0.7445
913.90 0.744
914.00 0.7436
914.10 0.7432
914.20 0.7428
914.30 0.7424
914.40 0.742
914.50 0.7416
914.60 0.7411
914.70 0.7407
914.80 0.7403
914.90 0.7399
915.00 0.7395
915.10 0.7391
915.20 0.7387
915.30 0.7383
915.40 0.7378
915.50 0.7374
915.60 0.737
915.70 0.7366
915.80 0.7362
915.90 0.7358
916.00 0.7354
916.10 0.735
916.20 0.7345
916.30 0.7341
916.40 0.7337
916.50 0.7333
916.60 0.7329
916.70 0.7325
916.80 0.7321
916.90 0.7317
917.00 0.7313
917.10 0.7308
917.20 0.7304
917.30 0.7299
917.40 0.7295
917.50 0.7291
917.60 0.7286
917.70 0.7282
917.80 0.7277
917.90 0.7273
918.00 0.7268
918.10 0.7264
918.20 0.726
918.30 0.7255
918.40 0.7251
918.50 0.7246
918.60 0.7242
918.70 0.7238
918.80 0.7233
918.90 0.7229
919.00 0.7224
919.10 0.722
919.20 0.7216
919.30 0.7211
919.40 0.7207
919.50 0.7202
919.60 0.7198
919.70 0.7194
919.80 0.7189
919.90 0.7185
920.00 0.718
920.10 0.7176
920.20 0.7172
920.30 0.7167
920.40 0.7163
920.50 0.7159
920.60 0.7154
920.70 0.715
920.80 0.7145
920.90 0.7141
921.00 0.7137
921.10 0.7132
921.20 0.7128
921.30 0.7124
921.40 0.7119
921.50 0.7115
921.60 0.7111
921.70 0.7106
921.80 0.7102
921.90 0.7098
922.00 0.7093
922.10 0.7089
922.20 0.7084
922.30 0.708
922.40 0.7075
922.50 0.7071
922.60 0.7066
922.70 0.7062
922.80 0.7057
922.90 0.7053
923.00 0.7049
923.10 0.7044
923.20 0.704
923.30 0.7035
923.40 0.7031
923.50 0.7026
923.60 0.7022
923.70 0.7017
923.80 0.7013
923.90 0.7008
924.00 0.7004
924.10 0.7
924.20 0.6995
924.30 0.6991
924.40 0.6986
924.50 0.6982
924.60 0.6977
924.70 0.6973
924.80 0.6969
924.90 0.6964
925.00 0.696
925.10 0.6955
925.20 0.6951
925.30 0.6947
925.40 0.6942
925.50 0.6938
925.60 0.6933
925.70 0.6929
925.80 0.6924
925.90 0.692
926.00 0.6916
926.10 0.6911
926.20 0.6907
926.30 0.6902
926.40 0.6898
926.50 0.6894
926.60 0.6889
926.70 0.6885
926.80 0.688
926.90 0.6876
927.00 0.6872
927.10 0.6867
927.20 0.6863
927.30 0.6858
927.40 0.6854
927.50 0.6849
927.60 0.6845
927.70 0.684
927.80 0.6836
927.90 0.6831
928.00 0.6827
928.10 0.6822
928.20 0.6818
928.30 0.6813
928.40 0.6809
928.50 0.6804
928.60 0.68
928.70 0.6795
928.80 0.6791
928.90 0.6786
929.00 0.6782
929.10 0.6778
929.20 0.6773
929.30 0.6769
929.40 0.6764
929.50 0.676
929.60 0.6755
929.70 0.6751
929.80 0.6746
929.90 0.6742
930.00 0.6737
930.10 0.6733
930.20 0.6729
930.30 0.6724
930.40 0.672
930.50 0.6715
930.60 0.6711
930.70 0.6706
930.80 0.6702
930.90 0.6698
931.00 0.6693
931.10 0.6689
931.20 0.6684
931.30 0.668
931.40 0.6675
931.50 0.6671
931.60 0.6667
931.70 0.6662
931.80 0.6658
931.90 0.6653
932.00 0.6649
932.10 0.6644
932.20 0.664
932.30 0.6635
932.40 0.6631
932.50 0.6626
932.60 0.6622
932.70 0.6617
932.80 0.6613
932.90 0.6608
933.00 0.6604
933.10 0.6599
933.20 0.6595
933.30 0.659
933.40 0.6586
933.50 0.6582
933.60 0.6577
933.70 0.6573
933.80 0.6568
933.90 0.6564
934.00 0.6559
934.10 0.6555
934.20 0.655
934.30 0.6546
934.40 0.6541
934.50 0.6537
934.60 0.6532
934.70 0.6528
934.80 0.6523
934.90 0.6519
935.00 0.6514
935.10 0.651
935.20 0.6505
935.30 0.6501
935.40 0.6496
935.50 0.6492
935.60 0.6487
935.70 0.6483
935.80 0.6478
935.90 0.6474
936.00 0.6469
936.10 0.6465
936.20 0.6461
936.30 0.6456
936.40 0.6452
936.50 0.6447
936.60 0.6443
936.70 0.6438
936.80 0.6434
936.90 0.6429
937.00 0.6425
937.10 0.642
937.20 0.6416
937.30 0.6411
937.40 0.6407
937.50 0.6402
937.60 0.6398
937.70 0.6394
937.80 0.6389
937.90 0.6385
938.00 0.638
938.10 0.6376
938.20 0.6371
938.30 0.6367
938.40 0.6362
938.50 0.6358
938.60 0.6353
938.70 0.6349
938.80 0.6344
938.90 0.634
939.00 0.6335
939.10 0.6331
939.20 0.6326
939.30 0.6322
939.40 0.6317
939.50 0.6312
939.60 0.6308
939.70 0.6303
939.80 0.6299
939.90 0.6294
940.00 0.629
940.10 0.6285
940.20 0.6281
940.30 0.6276
940.40 0.6272
940.50 0.6267
940.60 0.6263
940.70 0.6259
940.80 0.6254
940.90 0.625
941.00 0.6245
941.10 0.6241
941.20 0.6236
941.30 0.6232
941.40 0.6227
941.50 0.6223
941.60 0.6218
941.70 0.6214
941.80 0.621
941.90 0.6205
942.00 0.6201
942.10 0.6196
942.20 0.6192
942.30 0.6187
942.40 0.6183
942.50 0.6178
942.60 0.6174
942.70 0.6169
942.80 0.6165
942.90 0.6161
943.00 0.6156
943.10 0.6152
943.20 0.6147
943.30 0.6143
943.40 0.6138
943.50 0.6134
943.60 0.6129
943.70 0.6125
943.80 0.612
943.90 0.6116
944.00 0.6112
944.10 0.6107
944.20 0.6103
944.30 0.6098
944.40 0.6094
944.50 0.6089
944.60 0.6085
944.70 0.6081
944.80 0.6076
944.90 0.6072
945.00 0.6067
945.10 0.6063
945.20 0.6059
945.30 0.6054
945.40 0.605
945.50 0.6045
945.60 0.6041
945.70 0.6036
945.80 0.6032
945.90 0.6028
946.00 0.6023
946.10 0.6019
946.20 0.6014
946.30 0.601
946.40 0.6006
946.50 0.6001
946.60 0.5997
946.70 0.5992
946.80 0.5988
946.90 0.5984
947.00 0.5979
947.10 0.5975
947.20 0.5971
947.30 0.5966
947.40 0.5962
947.50 0.5957
947.60 0.5953
947.70 0.5948
947.80 0.5944
947.90 0.594
948.00 0.5935
948.10 0.5931
948.20 0.5926
948.30 0.5922
948.40 0.5917
948.50 0.5913
948.60 0.5909
948.70 0.5904
948.80 0.59
948.90 0.5895
949.00 0.5891
949.10 0.5887
949.20 0.5882
949.30 0.5878
949.40 0.5873
949.50 0.5869
949.60 0.5865
949.70 0.586
949.80 0.5856
949.90 0.5852
950.00 0.5847
950.10 0.5843
950.20 0.5839
950.30 0.5834
950.40 0.583
950.50 0.5825
950.60 0.5821
950.70 0.5817
950.80 0.5812
950.90 0.5808
951.00 0.5804
951.10 0.5799
951.20 0.5795
951.30 0.5791
951.40 0.5786
951.50 0.5782
951.60 0.5778
951.70 0.5773
951.80 0.5769
951.90 0.5765
952.00 0.5761
952.10 0.5756
952.20 0.5752
952.30 0.5748
952.40 0.5743
952.50 0.5739
952.60 0.5735
952.70 0.573
952.80 0.5726
952.90 0.5722
953.00 0.5717
953.10 0.5713
953.20 0.5709
953.30 0.5705
953.40 0.57
953.50 0.5696
953.60 0.5692
953.70 0.5687
953.80 0.5683
953.90 0.5679
954.00 0.5674
954.10 0.567
954.20 0.5665
954.30 0.5661
954.40 0.5657
954.50 0.5653
954.60 0.5649
954.70 0.5644
954.80 0.564
954.90 0.5636
955.00 0.5632
955.10 0.5627
955.20 0.5623
955.30 0.5619
955.40 0.5615
955.50 0.561
955.60 0.5606
955.70 0.5602
955.80 0.5598
955.90 0.5593
956.00 0.5589
956.10 0.5585
956.20 0.558
956.30 0.5576
956.40 0.5572
956.50 0.5567
956.60 0.5563
956.70 0.5559
956.80 0.5554
956.90 0.555
957.00 0.5546
957.10 0.5541
957.20 0.5537
957.30 0.5533
957.40 0.5529
957.50 0.5524
957.60 0.552
957.70 0.5516
957.80 0.5512
957.90 0.5508
958.00 0.5503
958.10 0.5499
958.20 0.5495
958.30 0.5491
958.40 0.5487
958.50 0.5482
958.60 0.5478
958.70 0.5474
958.80 0.547
958.90 0.5466
959.00 0.5462
959.10 0.5457
959.20 0.5453
959.30 0.5449
959.40 0.5445
959.50 0.5441
959.60 0.5437
959.70 0.5432
959.80 0.5428
959.90 0.5424
960.00 0.542
960.10 0.5416
960.20 0.5412
960.30 0.5408
960.40 0.5403
960.50 0.5399
960.60 0.5395
960.70 0.5391
960.80 0.5387
960.90 0.5383
961.00 0.5379
961.10 0.5375
961.20 0.537
961.30 0.5366
961.40 0.5362
961.50 0.5358
961.60 0.5354
961.70 0.535
961.80 0.5346
961.90 0.5341
962.00 0.5337
962.10 0.5333
962.20 0.5329
962.30 0.5325
962.40 0.5321
962.50 0.5317
962.60 0.5313
962.70 0.5309
962.80 0.5305
962.90 0.5301
963.00 0.5297
963.10 0.5293
963.20 0.5288
963.30 0.5284
963.40 0.528
963.50 0.5276
963.60 0.5272
963.70 0.5268
963.80 0.5264
963.90 0.526
964.00 0.5256
964.10 0.5252
964.20 0.5248
964.30 0.5244
964.40 0.524
964.50 0.5236
964.60 0.5232
964.70 0.5228
964.80 0.5224
964.90 0.522
965.00 0.5216
965.10 0.5211
965.20 0.5207
965.30 0.5203
965.40 0.5199
965.50 0.5195
965.60 0.5191
965.70 0.5187
965.80 0.5183
965.90 0.5179
966.00 0.5175
966.10 0.5171
966.20 0.5167
966.30 0.5163
966.40 0.5159
966.50 0.5155
966.60 0.5151
966.70 0.5147
966.80 0.5143
966.90 0.5139
967.00 0.5135
967.10 0.5131
967.20 0.5127
967.30 0.5123
967.40 0.5119
967.50 0.5116
967.60 0.5112
967.70 0.5108
967.80 0.5104
967.90 0.51
968.00 0.5096
968.10 0.5092
968.20 0.5088
968.30 0.5084
968.40 0.508
968.50 0.5076
968.60 0.5073
968.70 0.5069
968.80 0.5065
968.90 0.5061
969.00 0.5057
969.10 0.5053
969.20 0.5049
969.30 0.5045
969.40 0.5042
969.50 0.5038
969.60 0.5034
969.70 0.503
969.80 0.5026
969.90 0.5022
970.00 0.5018
970.10 0.5015
970.20 0.5011
970.30 0.5007
970.40 0.5003
970.50 0.4999
970.60 0.4995
970.70 0.4992
970.80 0.4988
970.90 0.4984
971.00 0.498
971.10 0.4976
971.20 0.4973
971.30 0.4969
971.40 0.4965
971.50 0.4961
971.60 0.4957
971.70 0.4954
971.80 0.495
971.90 0.4946
972.00 0.4942
972.10 0.4939
972.20 0.4935
972.30 0.4931
972.40 0.4927
972.50 0.4924
972.60 0.492
972.70 0.4916
972.80 0.4912
972.90 0.4909
973.00 0.4905
973.10 0.4901
973.20 0.4897
973.30 0.4894
973.40 0.489
973.50 0.4886
973.60 0.4883
973.70 0.4879
973.80 0.4875
973.90 0.4871
974.00 0.4868
974.10 0.4864
974.20 0.486
974.30 0.4857
974.40 0.4853
974.50 0.4849
974.60 0.4845
974.70 0.4842
974.80 0.4838
974.90 0.4834
975.00 0.4831
975.10 0.4827
975.20 0.4823
975.30 0.482
975.40 0.4816
975.50 0.4812
975.60 0.4809
975.70 0.4805
975.80 0.4801
975.90 0.4798
976.00 0.4794
976.10 0.479
976.20 0.4787
976.30 0.4783
976.40 0.4779
976.50 0.4776
976.60 0.4772
976.70 0.4769
976.80 0.4765
976.90 0.4761
977.00 0.4758
977.10 0.4754
977.20 0.4751
977.30 0.4747
977.40 0.4743
977.50 0.474
977.60 0.4736
977.70 0.4733
977.80 0.4729
977.90 0.4726
978.00 0.4722
978.10 0.4719
978.20 0.4715
978.30 0.4712
978.40 0.4708
978.50 0.4705
978.60 0.4701
978.70 0.4698
978.80 0.4694
978.90 0.4691
979.00 0.4687
979.10 0.4684
979.20 0.468
979.30 0.4677
979.40 0.4673
979.50 0.467
979.60 0.4666
979.70 0.4663
979.80 0.4659
979.90 0.4656
980.00 0.4652
980.10 0.4649
980.20 0.4645
980.30 0.4642
980.40 0.4638
980.50 0.4635
980.60 0.4632
980.70 0.4628
980.80 0.4625
980.90 0.4621
981.00 0.4618
981.10 0.4614
981.20 0.4611
981.30 0.4607
981.40 0.4604
981.50 0.46
981.60 0.4597
981.70 0.4593
981.80 0.459
981.90 0.4586
982.00 0.4583
982.10 0.458
982.20 0.4576
982.30 0.4573
982.40 0.4569
982.50 0.4566
982.60 0.4563
982.70 0.4559
982.80 0.4556
982.90 0.4553
983.00 0.4549
983.10 0.4546
983.20 0.4543
983.30 0.4539
983.40 0.4536
983.50 0.4533
983.60 0.4529
983.70 0.4526
983.80 0.4523
983.90 0.4519
984.00 0.4516
984.10 0.4513
984.20 0.4509
984.30 0.4506
984.40 0.4503
984.50 0.4499
984.60 0.4496
984.70 0.4493
984.80 0.449
984.90 0.4486
985.00 0.4483
985.10 0.448
985.20 0.4477
985.30 0.4474
985.40 0.4471
985.50 0.4468
985.60 0.4464
985.70 0.4461
985.80 0.4458
985.90 0.4455
986.00 0.4452
986.10 0.4449
986.20 0.4446
986.30 0.4442
986.40 0.4439
986.50 0.4436
986.60 0.4433
986.70 0.443
986.80 0.4427
986.90 0.4424
987.00 0.442
987.10 0.4417
987.20 0.4414
987.30 0.4411
987.40 0.4407
987.50 0.4404
987.60 0.4401
987.70 0.4398
987.80 0.4394
987.90 0.4391
988.00 0.4388
988.10 0.4385
988.20 0.4381
988.30 0.4378
988.40 0.4375
988.50 0.4372
988.60 0.4368
988.70 0.4365
988.80 0.4362
988.90 0.4359
989.00 0.4355
989.10 0.4352
989.20 0.4349
989.30 0.4346
989.40 0.4342
989.50 0.4339
989.60 0.4336
989.70 0.4333
989.80 0.4329
989.90 0.4326
990.00 0.4323
990.10 0.432
990.20 0.4317
990.30 0.4313
990.40 0.431
990.50 0.4307
990.60 0.4304
990.70 0.43
990.80 0.4297
990.90 0.4294
991.00 0.4291
991.10 0.4287
991.20 0.4284
991.30 0.4281
991.40 0.4278
991.50 0.4275
991.60 0.4271
991.70 0.4268
991.80 0.4265
991.90 0.4262
992.00 0.4258
992.10 0.4255
992.20 0.4252
992.30 0.4249
992.40 0.4246
992.50 0.4242
992.60 0.4239
992.70 0.4236
992.80 0.4233
992.90 0.423
993.00 0.4226
993.10 0.4223
993.20 0.422
993.30 0.4217
993.40 0.4213
993.50 0.421
993.60 0.4207
993.70 0.4204
993.80 0.4201
993.90 0.4197
994.00 0.4194
994.10 0.4191
994.20 0.4188
994.30 0.4185
994.40 0.4181
994.50 0.4178
994.60 0.4175
994.70 0.4171
994.80 0.4168
994.90 0.4164
995.00 0.416
995.10 0.4156
995.20 0.4152
995.30 0.4149
995.40 0.4145
995.50 0.4141
995.60 0.4137
995.70 0.4134
995.80 0.4131
995.90 0.4128
996.00 0.4125
996.10 0.4122
996.20 0.4118
996.30 0.4115
996.40 0.4112
996.50 0.4109
996.60 0.4106
996.70 0.4103
996.80 0.41
996.90 0.4097
997.00 0.4094
997.10 0.409
997.20 0.4087
997.30 0.4084
997.40 0.4081
997.50 0.4078
997.60 0.4075
997.70 0.4072
997.80 0.4069
997.90 0.4066
998.00 0.4063
998.10 0.406
998.20 0.4057
998.30 0.4054
998.40 0.4051
998.50 0.4048
998.60 0.4045
998.70 0.4042
998.80 0.4039
998.90 0.4036
999.00 0.4033
999.10 0.403
999.20 0.4027
999.30 0.4024
999.40 0.4021
999.50 0.4018
999.60 0.4015
999.70 0.4013
999.80 0.401
999.90 0.4007
1000.00 0.4004
1000.10 0.4001
1000.20 0.3998
1000.30 0.3995
1000.40 0.3992
1000.50 0.399
1000.60 0.3987
1000.70 0.3984
1000.80 0.3981
1000.90 0.3978
1001.00 0.3975
1001.10 0.3972
1001.20 0.3969
1001.30 0.3967
1001.40 0.3964
1001.50 0.3961
1001.60 0.3958
1001.70 0.3955
1001.80 0.3952
1001.90 0.395
1002.00 0.3947
1002.10 0.3944
1002.20 0.3941
1002.30 0.3938
1002.40 0.3936
1002.50 0.3933
1002.60 0.393
1002.70 0.3927
1002.80 0.3925
1002.90 0.3922
1003.00 0.3919
1003.10 0.3916
1003.20 0.3914
1003.30 0.3911
1003.40 0.3908
1003.50 0.3905
1003.60 0.3903
1003.70 0.39
1003.80 0.3897
1003.90 0.3895
1004.00 0.3892
1004.10 0.3889
1004.20 0.3887
1004.30 0.3884
1004.40 0.3881
1004.50 0.3878
1004.60 0.3876
1004.70 0.3873
1004.80 0.3871
1004.90 0.3867
1005.00 0.3864
1005.10 0.3861
1005.20 0.3858
1005.30 0.3856
1005.40 0.3853
1005.50 0.3851
1005.60 0.3848
1005.70 0.3845
1005.80 0.3843
1005.90 0.384
1006.00 0.3838
1006.10 0.3835
1006.20 0.3833
1006.30 0.383
1006.40 0.3827
1006.50 0.3825
1006.60 0.3822
1006.70 0.382
1006.80 0.3817
1006.90 0.3815
1007.00 0.3812
1007.10 0.381
1007.20 0.3807
1007.30 0.3805
1007.40 0.3802
1007.50 0.38
1007.60 0.3797
1007.70 0.3795
1007.80 0.3792
1007.90 0.379
1008.00 0.3788
1008.10 0.3785
1008.20 0.3783
1008.30 0.378
1008.40 0.3778
1008.50 0.3776
1008.60 0.3773
1008.70 0.3771
1008.80 0.3768
1008.90 0.3766
1009.00 0.3763
1009.10 0.3761
1009.20 0.3759
1009.30 0.3756
1009.40 0.3754
1009.50 0.3751
1009.60 0.3749
1009.70 0.3747
1009.80 0.3744
1009.90 0.3742
1010.00 0.374
1010.10 0.3738
1010.20 0.3735
1010.30 0.3733
1010.40 0.3731
1010.50 0.3728
1010.60 0.3726
1010.70 0.3724
1010.80 0.3722
1010.90 0.3719
1011.00 0.3717
1011.10 0.3715
1011.20 0.3712
1011.30 0.371
1011.40 0.3708
1011.50 0.3705
1011.60 0.3703
1011.70 0.3701
1011.80 0.3699
1011.90 0.3697
1012.00 0.3694
1012.10 0.3692
1012.20 0.369
1012.30 0.3688
1012.40 0.3686
1012.50 0.3684
1012.60 0.3681
1012.70 0.3679
1012.80 0.3677
1012.90 0.3675
1013.00 0.3673
1013.10 0.3671
1013.20 0.3668
1013.30 0.3666
1013.40 0.3664
1013.50 0.3662
1013.60 0.366
1013.70 0.3658
1013.80 0.3656
1013.90 0.3654
1014.00 0.3651
1014.10 0.3649
1014.20 0.3647
1014.30 0.3645
1014.40 0.3643
1014.50 0.3641
1014.60 0.3639
1014.70 0.3637
1014.80 0.3635
1014.90 0.3633
1015.00 0.3632
1015.10 0.363
1015.20 0.3628
1015.30 0.3626
1015.40 0.3624
1015.50 0.3622
1015.60 0.3621
1015.70 0.3619
1015.80 0.3617
1015.90 0.3615
1016.00 0.3613
1016.10 0.3611
1016.20 0.361
1016.30 0.3608
1016.40 0.3606
1016.50 0.3604
1016.60 0.3602
1016.70 0.36
1016.80 0.3598
1016.90 0.3596
1017.00 0.3594
1017.10 0.3592
1017.20 0.3591
1017.30 0.3589
1017.40 0.3587
1017.50 0.3585
1017.60 0.3583
1017.70 0.3581
1017.80 0.3579
1017.90 0.3577
1018.00 0.3575
1018.10 0.3573
1018.20 0.3571
1018.30 0.3569
1018.40 0.3567
1018.50 0.3565
1018.60 0.3563
1018.70 0.3561
1018.80 0.356
1018.90 0.3558
1019.00 0.3556
1019.10 0.3554
1019.20 0.3552
1019.30 0.355
1019.40 0.3548
1019.50 0.3546
1019.60 0.3544
1019.70 0.3543
1019.80 0.3541
1019.90 0.3539
1020.00 0.3537
1020.10 0.3535
1020.20 0.3533
1020.30 0.3531
1020.40 0.3529
1020.50 0.3527
1020.60 0.3526
1020.70 0.3524
1020.80 0.3522
1020.90 0.352
1021.00 0.3518
1021.10 0.3516
1021.20 0.3514
1021.30 0.3513
1021.40 0.3511
1021.50 0.3509
1021.60 0.3507
1021.70 0.3505
1021.80 0.3503
1021.90 0.3502
1022.00 0.35
1022.10 0.3498
1022.20 0.3496
1022.30 0.3494
1022.40 0.3493
1022.50 0.3491
1022.60 0.3489
1022.70 0.3487
1022.80 0.3485
1022.90 0.3484
1023.00 0.3482
1023.10 0.348
1023.20 0.3478
1023.30 0.3476
1023.40 0.3475
1023.50 0.3473
1023.60 0.3471
1023.70 0.3469
1023.80 0.3467
1023.90 0.3466
1024.00 0.3464
1024.10 0.3462
1024.20 0.346
1024.30 0.3459
1024.40 0.3457
1024.50 0.3455
1024.60 0.3453
1024.70 0.3451
1024.80 0.345
1024.90 0.3448
1025.00 0.3446
1025.10 0.3444
1025.20 0.3443
1025.30 0.3441
1025.40 0.3439
1025.50 0.3438
1025.60 0.3436
1025.70 0.3434
1025.80 0.3432
1025.90 0.3431
1026.00 0.3429
1026.10 0.3427
1026.20 0.3425
1026.30 0.3424
1026.40 0.3422
1026.50 0.342
1026.60 0.3418
1026.70 0.3417
1026.80 0.3415
1026.90 0.3413
1027.00 0.3411
1027.10 0.341
1027.20 0.3408
1027.30 0.3407
1027.40 0.3405
1027.50 0.3403
1027.60 0.3402
1027.70 0.34
1027.80 0.3398
1027.90 0.3397
1028.00 0.3395
1028.10 0.3394
1028.20 0.3392
1028.30 0.339
1028.40 0.3389
1028.50 0.3387
1028.60 0.3386
1028.70 0.3384
1028.80 0.3382
1028.90 0.3381
1029.00 0.3379
1029.10 0.3377
1029.20 0.3376
1029.30 0.3374
1029.40 0.3373
1029.50 0.3371
1029.60 0.3369
1029.70 0.3368
1029.80 0.3366
1029.90 0.3365
1030.00 0.3363
1030.10 0.3361
1030.20 0.336
1030.30 0.3358
1030.40 0.3356
1030.50 0.3355
1030.60 0.3353
1030.70 0.3352
1030.80 0.335
1030.90 0.3348
1031.00 0.3347
1031.10 0.3345
1031.20 0.3344
1031.30 0.3342
1031.40 0.334
1031.50 0.3339
1031.60 0.3337
1031.70 0.3336
1031.80 0.3334
1031.90 0.3332
1032.00 0.3331
1032.10 0.3329
1032.20 0.3328
1032.30 0.3326
1032.40 0.3325
1032.50 0.3323
1032.60 0.3322
1032.70 0.332
1032.80 0.3319
1032.90 0.3317
1033.00 0.3316
1033.10 0.3314
1033.20 0.3313
1033.30 0.3311
1033.40 0.331
1033.50 0.3309
1033.60 0.3307
1033.70 0.3306
1033.80 0.3304
1033.90 0.3303
1034.00 0.3301
1034.10 0.33
1034.20 0.3298
1034.30 0.3297
1034.40 0.3295
1034.50 0.3294
1034.60 0.3292
1034.70 0.3291
1034.80 0.3289
1034.90 0.3288
1035.00 0.3286
1035.10 0.3285
1035.20 0.3283
1035.30 0.3282
1035.40 0.328
1035.50 0.3279
1035.60 0.3277
1035.70 0.3276
1035.80 0.3274
1035.90 0.3273
1036.00 0.3272
1036.10 0.327
1036.20 0.3269
1036.30 0.3267
1036.40 0.3266
1036.50 0.3264
1036.60 0.3263
1036.70 0.3261
1036.80 0.326
1036.90 0.3258
1037.00 0.3257
1037.10 0.3255
1037.20 0.3254
1037.30 0.3253
1037.40 0.3251
1037.50 0.325
1037.60 0.3249
1037.70 0.3247
1037.80 0.3246
1037.90 0.3245
1038.00 0.3243
1038.10 0.3242
1038.20 0.3241
1038.30 0.3239
1038.40 0.3238
1038.50 0.3237
1038.60 0.3235
1038.70 0.3234
1038.80 0.3233
1038.90 0.3231
1039.00 0.323
1039.10 0.3229
1039.20 0.3227
1039.30 0.3226
1039.40 0.3225
1039.50 0.3223
1039.60 0.3222
1039.70 0.3221
1039.80 0.3219
1039.90 0.3218
1040.00 0.3217
1040.10 0.3215
1040.20 0.3214
1040.30 0.3213
1040.40 0.3211
1040.50 0.321
1040.60 0.3209
1040.70 0.3207
1040.80 0.3206
1040.90 0.3205
1041.00 0.3203
1041.10 0.3202
1041.20 0.3201
1041.30 0.3199
1041.40 0.3198
1041.50 0.3197
1041.60 0.3195
1041.70 0.3194
1041.80 0.3193
1041.90 0.3191
1042.00 0.319
1042.10 0.3189
1042.20 0.3188
1042.30 0.3186
1042.40 0.3185
1042.50 0.3184
1042.60 0.3183
1042.70 0.3182
1042.80 0.318
1042.90 0.3179
1043.00 0.3178
1043.10 0.3177
1043.20 0.3176
1043.30 0.3174
1043.40 0.3173
1043.50 0.3172
1043.60 0.3171
1043.70 0.317
1043.80 0.3168
1043.90 0.3167
1044.00 0.3166
1044.10 0.3165
1044.20 0.3164
1044.30 0.3162
1044.40 0.3161
1044.50 0.316
1044.60 0.3159
1044.70 0.3158
1044.80 0.3156
1044.90 0.3155
1045.00 0.3154
1045.10 0.3153
1045.20 0.3152
1045.30 0.315
1045.40 0.3149
1045.50 0.3148
1045.60 0.3147
1045.70 0.3146
1045.80 0.3144
1045.90 0.3143
1046.00 0.3142
1046.10 0.3141
1046.20 0.314
1046.30 0.3138
1046.40 0.3137
1046.50 0.3136
1046.60 0.3135
1046.70 0.3134
1046.80 0.3132
1046.90 0.3131
1047.00 0.313
1047.10 0.3129
1047.20 0.3128
1047.30 0.3127
1047.40 0.3126
1047.50 0.3125
1047.60 0.3124
1047.70 0.3123
1047.80 0.3121
1047.90 0.312
1048.00 0.3119
1048.10 0.3118
1048.20 0.3117
1048.30 0.3116
1048.40 0.3115
1048.50 0.3114
1048.60 0.3113
1048.70 0.3112
1048.80 0.3111
1048.90 0.311
1049.00 0.3108
1049.10 0.3107
1049.20 0.3106
1049.30 0.3105
1049.40 0.3104
1049.50 0.3103
1049.60 0.3102
1049.70 0.3101
1049.80 0.31
1049.90 0.3099
1050.00 0.3098
1050.10 0.3097
1050.20 0.3096
1050.30 0.3095
1050.40 0.3093
1050.50 0.3092
1050.60 0.3091
1050.70 0.309
1050.80 0.3089
1050.90 0.3088
1051.00 0.3087
1051.10 0.3086
1051.20 0.3085
1051.30 0.3084
1051.40 0.3083
1051.50 0.3082
1051.60 0.3081
1051.70 0.308
1051.80 0.3079
1051.90 0.3077
1052.00 0.3076
1052.10 0.3075
1052.20 0.3074
1052.30 0.3074
1052.40 0.3073
1052.50 0.3072
1052.60 0.3071
1052.70 0.307
1052.80 0.3069
1052.90 0.3068
1053.00 0.3067
1053.10 0.3066
1053.20 0.3065
1053.30 0.3064
1053.40 0.3063
1053.50 0.3062
1053.60 0.3061
1053.70 0.306
1053.80 0.3059
1053.90 0.3058
1054.00 0.3057
1054.10 0.3056
1054.20 0.3056
1054.30 0.3055
1054.40 0.3054
1054.50 0.3053
1054.60 0.3052
1054.70 0.3051
1054.80 0.305
1054.90 0.3049
1055.00 0.3048
1055.10 0.3047
1055.20 0.3046
1055.30 0.3045
1055.40 0.3044
1055.50 0.3043
1055.60 0.3042
1055.70 0.3041
1055.80 0.304
1055.90 0.3039
1056.00 0.3039
1056.10 0.3038
1056.20 0.3037
1056.30 0.3036
1056.40 0.3035
1056.50 0.3034
1056.60 0.3033
1056.70 0.3032
1056.80 0.3031
1056.90 0.303
1057.00 0.3029
1057.10 0.3028
1057.20 0.3027
1057.30 0.3027
1057.40 0.3026
1057.50 0.3025
1057.60 0.3024
1057.70 0.3023
1057.80 0.3023
1057.90 0.3022
1058.00 0.3021
1058.10 0.302
1058.20 0.3019
1058.30 0.3018
1058.40 0.3018
1058.50 0.3017
1058.60 0.3016
1058.70 0.3015
1058.80 0.3014
1058.90 0.3013
1059.00 0.3013
1059.10 0.3012
1059.20 0.3011
1059.30 0.301
1059.40 0.3009
1059.50 0.3008
1059.60 0.3008
1059.70 0.3007
1059.80 0.3006
1059.90 0.3005
1060.00 0.3004
1060.10 0.3004
1060.20 0.3003
1060.30 0.3002
1060.40 0.3001
1060.50 0.3
1060.60 0.2999
1060.70 0.2999
1060.80 0.2998
1060.90 0.2997
1061.00 0.2996
1061.10 0.2995
1061.20 0.2995
1061.30 0.2994
1061.40 0.2993
1061.50 0.2992
1061.60 0.2991
1061.70 0.299
1061.80 0.299
1061.90 0.2989
1062.00 0.2988
1062.10 0.2987
1062.20 0.2987
1062.30 0.2986
1062.40 0.2985
1062.50 0.2984
1062.60 0.2984
1062.70 0.2983
1062.80 0.2982
1062.90 0.2981
1063.00 0.2981
1063.10 0.298
1063.20 0.2979
1063.30 0.2979
1063.40 0.2978
1063.50 0.2977
1063.60 0.2976
1063.70 0.2976
1063.80 0.2975
1063.90 0.2974
1064.00 0.2974
1064.10 0.2973
1064.20 0.2972
1064.30 0.2971
1064.40 0.2971
1064.50 0.297
1064.60 0.2969
1064.70 0.2969
1064.80 0.2968
1064.90 0.2967
1065.00 0.2966
1065.10 0.2966
1065.20 0.2965
1065.30 0.2964
1065.40 0.2964
1065.50 0.2963
1065.60 0.2962
1065.70 0.2961
1065.80 0.2961
1065.90 0.296
1066.00 0.2959
1066.10 0.2959
1066.20 0.2958
1066.30 0.2957
1066.40 0.2956
1066.50 0.2956
1066.60 0.2955
1066.70 0.2954
1066.80 0.2954
1066.90 0.2953
1067.00 0.2952
1067.10 0.2952
1067.20 0.2951
1067.30 0.295
1067.40 0.295
1067.50 0.2949
1067.60 0.2949
1067.70 0.2948
1067.80 0.2947
1067.90 0.2947
1068.00 0.2946
1068.10 0.2946
1068.20 0.2945
1068.30 0.2944
1068.40 0.2944
1068.50 0.2943
1068.60 0.2942
1068.70 0.2942
1068.80 0.2941
1068.90 0.2941
1069.00 0.294
1069.10 0.2939
1069.20 0.2939
1069.30 0.2938
1069.40 0.2938
1069.50 0.2937
1069.60 0.2936
1069.70 0.2936
1069.80 0.2935
1069.90 0.2935
1070.00 0.2934
1070.10 0.2933
1070.20 0.2933
1070.30 0.2932
1070.40 0.2932
1070.50 0.2931
1070.60 0.293
1070.70 0.293
1070.80 0.2929
1070.90 0.2929
1071.00 0.2928
1071.10 0.2927
1071.20 0.2927
1071.30 0.2926
1071.40 0.2926
1071.50 0.2925
1071.60 0.2924
1071.70 0.2924
1071.80 0.2923
1071.90 0.2923
1072.00 0.2922
1072.10 0.2921
1072.20 0.2921
1072.30 0.292
1072.40 0.292
1072.50 0.2919
1072.60 0.2919
1072.70 0.2918
1072.80 0.2918
1072.90 0.2917
1073.00 0.2916
1073.10 0.2916
1073.20 0.2915
1073.30 0.2915
1073.40 0.2914
1073.50 0.2914
1073.60 0.2913
1073.70 0.2913
1073.80 0.2912
1073.90 0.2912
1074.00 0.2911
1074.10 0.2911
1074.20 0.291
1074.30 0.2909
1074.40 0.2909
1074.50 0.2908
1074.60 0.2908
1074.70 0.2907
1074.80 0.2907
1074.90 0.2906
1075.00 0.2906
1075.10 0.2905
1075.20 0.2905
1075.30 0.2904
1075.40 0.2904
1075.50 0.2903
1075.60 0.2903
1075.70 0.2902
1075.80 0.2902
1075.90 0.2901
1076.00 0.2901
1076.10 0.29
1076.20 0.29
1076.30 0.2899
1076.40 0.2899
1076.50 0.2898
1076.60 0.2898
1076.70 0.2897
1076.80 0.2897
1076.90 0.2896
1077.00 0.2896
1077.10 0.2895
1077.20 0.2895
1077.30 0.2894
1077.40 0.2894
1077.50 0.2893
1077.60 0.2893
1077.70 0.2892
1077.80 0.2892
1077.90 0.2891
1078.00 0.2891
1078.10 0.289
1078.20 0.289
1078.30 0.2889
1078.40 0.2889
1078.50 0.2888
1078.60 0.2888
1078.70 0.2887
1078.80 0.2887
1078.90 0.2887
1079.00 0.2886
1079.10 0.2886
1079.20 0.2885
1079.30 0.2885
1079.40 0.2884
1079.50 0.2884
1079.60 0.2883
1079.70 0.2883
1079.80 0.2882
1079.90 0.2882
1080.00 0.2882
1080.10 0.2881
1080.20 0.2881
1080.30 0.288
1080.40 0.288
1080.50 0.288
1080.60 0.2879
1080.70 0.2879
1080.80 0.2878
1080.90 0.2878
1081.00 0.2877
1081.10 0.2877
1081.20 0.2877
1081.30 0.2876
1081.40 0.2876
1081.50 0.2875
1081.60 0.2875
1081.70 0.2875
1081.80 0.2874
1081.90 0.2874
1082.00 0.2873
1082.10 0.2873
1082.20 0.2872
1082.30 0.2872
1082.40 0.2872
1082.50 0.2871
1082.60 0.2871
1082.70 0.287
1082.80 0.287
1082.90 0.287
1083.00 0.2869
1083.10 0.2869
1083.20 0.2868
1083.30 0.2868
1083.40 0.2868
1083.50 0.2867
1083.60 0.2867
1083.70 0.2866
1083.80 0.2866
1083.90 0.2866
1084.00 0.2865
1084.10 0.2865
1084.20 0.2864
1084.30 0.2864
1084.40 0.2864
1084.50 0.2863
1084.60 0.2863
1084.70 0.2862
1084.80 0.2862
1084.90 0.2862
1085.00 0.2861
1085.10 0.2861
1085.20 0.2861
1085.30 0.286
1085.40 0.286
1085.50 0.286
1085.60 0.2859
1085.70 0.2859
1085.80 0.2858
1085.90 0.2858
1086.00 0.2858
1086.10 0.2857
1086.20 0.2857
1086.30 0.2857
1086.40 0.2856
1086.50 0.2856
1086.60 0.2855
1086.70 0.2855
1086.80 0.2855
1086.90 0.2854
1087.00 0.2854
1087.10 0.2854
1087.20 0.2853
1087.30 0.2853
1087.40 0.2853
1087.50 0.2852
1087.60 0.2852
1087.70 0.2852
1087.80 0.2851
1087.90 0.2851
1088.00 0.2851
1088.10 0.285
1088.20 0.285
1088.30 0.285
1088.40 0.2849
1088.50 0.2849
1088.60 0.2849
1088.70 0.2848
1088.80 0.2848
1088.90 0.2848
1089.00 0.2847
1089.10 0.2847
1089.20 0.2847
1089.30 0.2846
1089.40 0.2846
1089.50 0.2846
1089.60 0.2845
1089.70 0.2845
1089.80 0.2845
1089.90 0.2844
1090.00 0.2844
1090.10 0.2844
1090.20 0.2843
1090.30 0.2843
1090.40 0.2843
1090.50 0.2842
1090.60 0.2842
1090.70 0.2842
1090.80 0.2841
1090.90 0.2841
1091.00 0.2841
1091.10 0.2841
1091.20 0.284
1091.30 0.284
1091.40 0.284
1091.50 0.2839
1091.60 0.2839
1091.70 0.2839
1091.80 0.2838
1091.90 0.2838
1092.00 0.2838
1092.10 0.2838
1092.20 0.2837
1092.30 0.2837
1092.40 0.2837
1092.50 0.2836
1092.60 0.2836
1092.70 0.2836
1092.80 0.2836
1092.90 0.2836
1093.00 0.2835
1093.10 0.2835
1093.20 0.2835
1093.30 0.2835
1093.40 0.2834
1093.50 0.2834
1093.60 0.2834
1093.70 0.2834
1093.80 0.2833
1093.90 0.2833
1094.00 0.2833
1094.10 0.2833
1094.20 0.2832
1094.30 0.2832
1094.40 0.2832
1094.50 0.2831
1094.60 0.2831
1094.70 0.2831
1094.80 0.2831
1094.90 0.283
1095.00 0.283
1095.10 0.283
1095.20 0.283
1095.30 0.2829
1095.40 0.2829
1095.50 0.2829
1095.60 0.2829
1095.70 0.2828
1095.80 0.2828
1095.90 0.2828
1096.00 0.2828
1096.10 0.2827
1096.20 0.2827
1096.30 0.2827
1096.40 0.2826
1096.50 0.2826
1096.60 0.2826
1096.70 0.2826
1096.80 0.2825
1096.90 0.2825
1097.00 0.2825
1097.10 0.2825
1097.20 0.2824
1097.30 0.2824
1097.40 0.2824
1097.50 0.2824
1097.60 0.2823
1097.70 0.2823
1097.80 0.2823
1097.90 0.2823
1098.00 0.2823
1098.10 0.2822
1098.20 0.2822
1098.30 0.2822
1098.40 0.2822
1098.50 0.2821
1098.60 0.2821
1098.70 0.2821
1098.80 0.2821
1098.90 0.282
1099.00 0.282
1099.10 0.282
1099.20 0.282
1099.30 0.2819
1099.40 0.2819
1099.50 0.2819
1099.60 0.2819
1099.70 0.2819
1099.80 0.2818
1099.90 0.2818
1100.00 0.2818
1100.10 0.2818
1100.20 0.2817
1100.30 0.2817
1100.40 0.2817
1100.50 0.2817
1100.60 0.2816
1100.70 0.2816
1100.80 0.2816
1100.90 0.2816
1101.00 0.2816
1101.10 0.2815
1101.20 0.2815
1101.30 0.2815
1101.40 0.2815
1101.50 0.2814
1101.60 0.2814
1101.70 0.2814
1101.80 0.2814
1101.90 0.2814
1102.00 0.2813
1102.10 0.2813
1102.20 0.2813
1102.30 0.2813
1102.40 0.2813
1102.50 0.2812
1102.60 0.2812
1102.70 0.2812
1102.80 0.2812
1102.90 0.2811
1103.00 0.2811
1103.10 0.2811
1103.20 0.2811
1103.30 0.2811
1103.40 0.281
1103.50 0.281
1103.60 0.281
1103.70 0.281
1103.80 0.281
1103.90 0.281
1104.00 0.2809
1104.10 0.2809
1104.20 0.2809
1104.30 0.2809
1104.40 0.2809
1104.50 0.2809
1104.60 0.2808
1104.70 0.2808
1104.80 0.2808
1104.90 0.2808
1105.00 0.2808
1105.10 0.2808
1105.20 0.2807
1105.30 0.2807
1105.40 0.2807
1105.50 0.2807
1105.60 0.2807
1105.70 0.2806
1105.80 0.2806
1105.90 0.2806
1106.00 0.2806
1106.10 0.2806
1106.20 0.2806
1106.30 0.2805
1106.40 0.2805
1106.50 0.2805
1106.60 0.2805
1106.70 0.2805
1106.80 0.2804
1106.90 0.2804
1107.00 0.2804
1107.10 0.2804
1107.20 0.2804
1107.30 0.2804
1107.40 0.2803
1107.50 0.2803
1107.60 0.2803
1107.70 0.2803
1107.80 0.2803
1107.90 0.2802
1108.00 0.2802
1108.10 0.2802
1108.20 0.2802
1108.30 0.2802
1108.40 0.2802
1108.50 0.2801
1108.60 0.2801
1108.70 0.2801
1108.80 0.2801
1108.90 0.2801
1109.00 0.2801
1109.10 0.28
1109.20 0.28
1109.30 0.28
1109.40 0.28
1109.50 0.28
1109.60 0.2799
1109.70 0.2799
1109.80 0.2799
1109.90 0.2799
1110.00 0.2799
1110.10 0.2799
1110.20 0.2798
1110.30 0.2798
1110.40 0.2798
1110.50 0.2798
1110.60 0.2798
1110.70 0.2798
1110.80 0.2797
1110.90 0.2797
1111.00 0.2797
1111.10 0.2797
1111.20 0.2797
1111.30 0.2797
1111.40 0.2796
1111.50 0.2796
1111.60 0.2796
1111.70 0.2796
1111.80 0.2796
1111.90 0.2796
1112.00 0.2796
1112.10 0.2795
1112.20 0.2795
1112.30 0.2795
1112.40 0.2795
1112.50 0.2795
1112.60 0.2795
1112.70 0.2794
1112.80 0.2794
1112.90 0.2794
1113.00 0.2794
1113.10 0.2794
1113.20 0.2794
1113.30 0.2793
1113.40 0.2793
1113.50 0.2793
1113.60 0.2793
1113.70 0.2793
1113.80 0.2793
1113.90 0.2793
1114.00 0.2792
1114.10 0.2792
1114.20 0.2792
1114.30 0.2792
1114.40 0.2792
1114.50 0.2792
1114.60 0.2792
1114.70 0.2791
1114.80 0.2791
1114.90 0.2791
1115.00 0.2791
1115.10 0.2791
1115.20 0.2791
1115.30 0.279
1115.40 0.279
1115.50 0.279
1115.60 0.279
1115.70 0.279
1115.80 0.279
1115.90 0.279
1116.00 0.2789
1116.10 0.2789
1116.20 0.2789
1116.30 0.2789
1116.40 0.2789
1116.50 0.2789
1116.60 0.2789
1116.70 0.2788
1116.80 0.2788
1116.90 0.2788
1117.00 0.2788
1117.10 0.2788
1117.20 0.2788
1117.30 0.2788
1117.40 0.2787
1117.50 0.2787
1117.60 0.2787
1117.70 0.2787
1117.80 0.2787
1117.90 0.2787
1118.00 0.2787
1118.10 0.2787
1118.20 0.2786
1118.30 0.2786
1118.40 0.2786
1118.50 0.2786
1118.60 0.2786
1118.70 0.2786
1118.80 0.2786
1118.90 0.2786
1119.00 0.2785
1119.10 0.2785
1119.20 0.2785
1119.30 0.2785
1119.40 0.2785
1119.50 0.2785
1119.60 0.2785
1119.70 0.2785
1119.80 0.2784
1119.90 0.2784
1120.00 0.2784
1120.10 0.2784
1120.20 0.2784
1120.30 0.2784
1120.40 0.2784
1120.50 0.2784
1120.60 0.2783
1120.70 0.2783
1120.80 0.2783
1120.90 0.2783
1121.00 0.2783
1121.10 0.2783
1121.20 0.2783
1121.30 0.2783
1121.40 0.2782
1121.50 0.2782
1121.60 0.2782
1121.70 0.2782
1121.80 0.2782
1121.90 0.2782
1122.00 0.2782
1122.10 0.2782
1122.20 0.2781
1122.30 0.2781
1122.40 0.2781
1122.50 0.2781
1122.60 0.2781
1122.70 0.2781
1122.80 0.2781
1122.90 0.2781
1123.00 0.278
1123.10 0.278
1123.20 0.278
1123.30 0.278
1123.40 0.278
1123.50 0.278
1123.60 0.278
1123.70 0.2779
1123.80 0.2779
1123.90 0.2779
1124.00 0.2779
1124.10 0.2779
1124.20 0.2779
1124.30 0.2779
1124.40 0.2778
1124.50 0.2778
1124.60 0.2778
1124.70 0.2778
1124.80 0.2778
1124.90 0.2778
1125.00 0.2778
1125.10 0.2778
1125.20 0.2777
1125.30 0.2777
1125.40 0.2777
1125.50 0.2777
1125.60 0.2777
1125.70 0.2777
1125.80 0.2777
1125.90 0.2776
1126.00 0.2776
1126.10 0.2776
1126.20 0.2776
1126.30 0.2776
1126.40 0.2776
1126.50 0.2776
1126.60 0.2775
1126.70 0.2775
1126.80 0.2775
1126.90 0.2775
1127.00 0.2775
1127.10 0.2775
1127.20 0.2775
1127.30 0.2775
1127.40 0.2774
1127.50 0.2774
1127.60 0.2774
1127.70 0.2774
1127.80 0.2774
1127.90 0.2774
1128.00 0.2774
1128.10 0.2774
1128.20 0.2774
1128.30 0.2773
1128.40 0.2773
1128.50 0.2773
1128.60 0.2773
1128.70 0.2773
1128.80 0.2773
1128.90 0.2773
1129.00 0.2773
1129.10 0.2773
1129.20 0.2772
1129.30 0.2772
1129.40 0.2772
1129.50 0.2772
1129.60 0.2772
1129.70 0.2772
1129.80 0.2772
1129.90 0.2772
1130.00 0.2771
1130.10 0.2771
1130.20 0.2771
1130.30 0.2771
1130.40 0.2771
1130.50 0.2771
1130.60 0.2771
1130.70 0.2771
1130.80 0.2771
1130.90 0.277
1131.00 0.277
1131.10 0.277
1131.20 0.277
1131.30 0.277
1131.40 0.277
1131.50 0.277
1131.60 0.277
1131.70 0.2769
1131.80 0.2769
1131.90 0.2769
1132.00 0.2769
1132.10 0.2769
1132.20 0.2769
1132.30 0.2769
1132.40 0.2768
1132.50 0.2768
1132.60 0.2768
1132.70 0.2768
1132.80 0.2768
1132.90 0.2768
1133.00 0.2768
1133.10 0.2767
1133.20 0.2767
1133.30 0.2767
1133.40 0.2767
1133.50 0.2767
1133.60 0.2767
1133.70 0.2766
1133.80 0.2766
1133.90 0.2766
1134.00 0.2766
1134.10 0.2766
1134.20 0.2766
1134.30 0.2766
1134.40 0.2765
1134.50 0.2765
1134.60 0.2765
1134.70 0.2765
1134.80 0.2765
1134.90 0.2765
1135.00 0.2764
1135.10 0.2764
1135.20 0.2764
1135.30 0.2764
1135.40 0.2764
1135.50 0.2764
1135.60 0.2764
1135.70 0.2763
1135.80 0.2763
1135.90 0.2763
1136.00 0.2763
1136.10 0.2763
1136.20 0.2763
1136.30 0.2762
1136.40 0.2762
1136.50 0.2762
1136.60 0.2762
1136.70 0.2762
1136.80 0.2762
1136.90 0.2762
1137.00 0.2761
1137.10 0.2761
1137.20 0.2761
1137.30 0.2761
1137.40 0.2761
1137.50 0.276
1137.60 0.276
1137.70 0.276
1137.80 0.276
1137.90 0.276
1138.00 0.276
1138.10 0.2759
1138.20 0.2759
1138.30 0.2759
1138.40 0.2759
1138.50 0.2759
1138.60 0.2759
1138.70 0.2758
1138.80 0.2758
1138.90 0.2758
1139.00 0.2758
1139.10 0.2758
1139.20 0.2757
1139.30 0.2757
1139.40 0.2757
1139.50 0.2757
1139.60 0.2757
1139.70 0.2757
1139.80 0.2756
1139.90 0.2756
1140.00 0.2756
1140.10 0.2756
1140.20 0.2756
1140.30 0.2755
1140.40 0.2755
1140.50 0.2755
1140.60 0.2755
1140.70 0.2755
1140.80 0.2755
1140.90 0.2754
1141.00 0.2754
1141.10 0.2754
1141.20 0.2754
1141.30 0.2754
1141.40 0.2754
1141.50 0.2753
1141.60 0.2753
1141.70 0.2753
1141.80 0.2753
1141.90 0.2753
1142.00 0.2752
1142.10 0.2752
1142.20 0.2752
1142.30 0.2752
1142.40 0.2752
1142.50 0.2752
1142.60 0.2751
1142.70 0.2751
1142.80 0.2751
1142.90 0.2751
1143.00 0.2751
1143.10 0.275
1143.20 0.275
1143.30 0.275
1143.40 0.275
1143.50 0.275
1143.60 0.2749
1143.70 0.2749
1143.80 0.2749
1143.90 0.2749
1144.00 0.2749
1144.10 0.2748
1144.20 0.2748
1144.30 0.2748
1144.40 0.2748
1144.50 0.2748
1144.60 0.2748
1144.70 0.2747
1144.80 0.2747
1144.90 0.2747
1145.00 0.2747
1145.10 0.2747
1145.20 0.2746
1145.30 0.2746
1145.40 0.2746
1145.50 0.2746
1145.60 0.2746
1145.70 0.2745
1145.80 0.2745
1145.90 0.2745
1146.00 0.2745
1146.10 0.2745
1146.20 0.2744
1146.30 0.2744
1146.40 0.2744
1146.50 0.2744
1146.60 0.2744
1146.70 0.2744
1146.80 0.2743
1146.90 0.2743
1147.00 0.2743
1147.10 0.2743
1147.20 0.2742
1147.30 0.2742
1147.40 0.2742
1147.50 0.2742
1147.60 0.2742
1147.70 0.2741
1147.80 0.2741
1147.90 0.2741
1148.00 0.2741
1148.10 0.274
1148.20 0.274
1148.30 0.274
1148.40 0.274
1148.50 0.2739
1148.60 0.2739
1148.70 0.2739
1148.80 0.2739
1148.90 0.2738
1149.00 0.2738
1149.10 0.2738
1149.20 0.2738
1149.30 0.2737
1149.40 0.2737
1149.50 0.2737
1149.60 0.2737
1149.70 0.2736
1149.80 0.2736
1149.90 0.2736
1150.00 0.2736
1150.10 0.2736
1150.20 0.2735
1150.30 0.2735
1150.40 0.2735
1150.50 0.2735
1150.60 0.2734
1150.70 0.2734
1150.80 0.2734
1150.90 0.2734
1151.00 0.2733
1151.10 0.2733
1151.20 0.2733
1151.30 0.2733
1151.40 0.2732
1151.50 0.2732
1151.60 0.2732
1151.70 0.2732
1151.80 0.2731
1151.90 0.2731
1152.00 0.2731
1152.10 0.2731
1152.20 0.273
1152.30 0.273
1152.40 0.273
1152.50 0.273
1152.60 0.2729
1152.70 0.2729
1152.80 0.2729
1152.90 0.2729
1153.00 0.2728
1153.10 0.2728
1153.20 0.2728
1153.30 0.2728
1153.40 0.2727
1153.50 0.2727
1153.60 0.2727
1153.70 0.2727
1153.80 0.2726
1153.90 0.2726
1154.00 0.2726
1154.10 0.2726
1154.20 0.2725
1154.30 0.2725
1154.40 0.2725
1154.50 0.2725
1154.60 0.2724
1154.70 0.2724
1154.80 0.2724
1154.90 0.2723
1155.00 0.2723
1155.10 0.2723
1155.20 0.2723
1155.30 0.2722
1155.40 0.2722
1155.50 0.2722
1155.60 0.2722
1155.70 0.2721
1155.80 0.2721
1155.90 0.2721
1156.00 0.2721
1156.10 0.272
1156.20 0.272
1156.30 0.272
1156.40 0.272
1156.50 0.2719
1156.60 0.2719
1156.70 0.2719
1156.80 0.2719
1156.90 0.2718
1157.00 0.2718
1157.10 0.2718
1157.20 0.2717
1157.30 0.2717
1157.40 0.2717
1157.50 0.2716
1157.60 0.2716
1157.70 0.2716
1157.80 0.2716
1157.90 0.2715
1158.00 0.2715
1158.10 0.2715
1158.20 0.2714
1158.30 0.2714
1158.40 0.2714
1158.50 0.2713
1158.60 0.2713
1158.70 0.2713
1158.80 0.2712
1158.90 0.2712
1159.00 0.2712
1159.10 0.2711
1159.20 0.2711
1159.30 0.2711
1159.40 0.2711
1159.50 0.271
1159.60 0.271
1159.70 0.271
1159.80 0.2709
1159.90 0.2709
1160.00 0.2709
1160.10 0.2708
1160.20 0.2708
1160.30 0.2708
1160.40 0.2707
1160.50 0.2707
1160.60 0.2707
1160.70 0.2706
1160.80 0.2706
1160.90 0.2706
1161.00 0.2705
1161.10 0.2705
1161.20 0.2705
1161.30 0.2705
1161.40 0.2704
1161.50 0.2704
1161.60 0.2704
1161.70 0.2703
1161.80 0.2703
1161.90 0.2703
1162.00 0.2702
1162.10 0.2702
1162.20 0.2702
1162.30 0.2701
1162.40 0.2701
1162.50 0.2701
1162.60 0.27
1162.70 0.27
1162.80 0.2699
1162.90 0.2699
1163.00 0.2699
1163.10 0.2698
1163.20 0.2698
1163.30 0.2698
1163.40 0.2697
1163.50 0.2697
1163.60 0.2697
1163.70 0.2696
1163.80 0.2696
1163.90 0.2695
1164.00 0.2695
1164.10 0.2695
1164.20 0.2694
1164.30 0.2694
1164.40 0.2694
1164.50 0.2693
1164.60 0.2693
1164.70 0.2693
1164.80 0.2692
1164.90 0.2692
1165.00 0.2692
1165.10 0.2691
1165.20 0.2691
1165.30 0.269
1165.40 0.269
1165.50 0.269
1165.60 0.2689
1165.70 0.2689
1165.80 0.2689
1165.90 0.2688
1166.00 0.2688
1166.10 0.2688
1166.20 0.2687
1166.30 0.2687
1166.40 0.2687
1166.50 0.2686
1166.60 0.2686
1166.70 0.2685
1166.80 0.2685
1166.90 0.2685
1167.00 0.2684
1167.10 0.2684
1167.20 0.2684
1167.30 0.2683
1167.40 0.2683
1167.50 0.2682
1167.60 0.2682
1167.70 0.2682
1167.80 0.2681
1167.90 0.2681
1168.00 0.268
1168.10 0.268
1168.20 0.2679
1168.30 0.2679
1168.40 0.2679
1168.50 0.2678
1168.60 0.2678
1168.70 0.2677
1168.80 0.2677
1168.90 0.2677
1169.00 0.2676
1169.10 0.2676
1169.20 0.2675
1169.30 0.2675
1169.40 0.2675
1169.50 0.2674
1169.60 0.2674
1169.70 0.2673
1169.80 0.2673
1169.90 0.2673
1170.00 0.2672
1170.10 0.2672
1170.20 0.2671
1170.30 0.2671
1170.40 0.2671
1170.50 0.267
1170.60 0.267
1170.70 0.2669
1170.80 0.2669
1170.90 0.2669
1171.00 0.2668
1171.10 0.2668
1171.20 0.2667
1171.30 0.2667
1171.40 0.2667
1171.50 0.2666
1171.60 0.2666
1171.70 0.2665
1171.80 0.2665
1171.90 0.2665
1172.00 0.2664
1172.10 0.2664
1172.20 0.2663
1172.30 0.2663
1172.40 0.2662
1172.50 0.2662
1172.60 0.2662
1172.70 0.2661
1172.80 0.2661
1172.90 0.266
1173.00 0.266
1173.10 0.2659
1173.20 0.2659
1173.30 0.2658
1173.40 0.2658
1173.50 0.2658
1173.60 0.2657
1173.70 0.2657
1173.80 0.2656
1173.90 0.2656
1174.00 0.2655
1174.10 0.2655
1174.20 0.2654
1174.30 0.2654
1174.40 0.2654
1174.50 0.2653
1174.60 0.2653
1174.70 0.2652
1174.80 0.2652
1174.90 0.2651
1175.00 0.2651
1175.10 0.265
1175.20 0.265
1175.30 0.265
1175.40 0.2649
1175.50 0.2649
1175.60 0.2648
1175.70 0.2648
1175.80 0.2647
1175.90 0.2647
1176.00 0.2647
1176.10 0.2646
1176.20 0.2646
1176.30 0.2645
1176.40 0.2645
1176.50 0.2644
1176.60 0.2644
1176.70 0.2643
1176.80 0.2643
1176.90 0.2643
1177.00 0.2642
1177.10 0.2642
1177.20 0.2641
1177.30 0.2641
1177.40 0.264
1177.50 0.264
1177.60 0.2639
1177.70 0.2639
1177.80 0.2638
1177.90 0.2638
1178.00 0.2637
1178.10 0.2637
1178.20 0.2636
1178.30 0.2636
1178.40 0.2635
1178.50 0.2635
1178.60 0.2635
1178.70 0.2634
1178.80 0.2634
1178.90 0.2633
1179.00 0.2633
1179.10 0.2632
1179.20 0.2632
1179.30 0.2631
1179.40 0.2631
1179.50 0.263
1179.60 0.263
1179.70 0.2629
1179.80 0.2629
1179.90 0.2628
1180.00 0.2628
1180.10 0.2627
1180.20 0.2627
1180.30 0.2626
1180.40 0.2626
1180.50 0.2625
1180.60 0.2625
1180.70 0.2625
1180.80 0.2624
1180.90 0.2624
1181.00 0.2623
1181.10 0.2623
1181.20 0.2622
1181.30 0.2622
1181.40 0.2621
1181.50 0.2621
1181.60 0.262
1181.70 0.262
1181.80 0.2619
1181.90 0.2619
1182.00 0.2618
1182.10 0.2618
1182.20 0.2617
1182.30 0.2617
1182.40 0.2616
1182.50 0.2616
1182.60 0.2615
1182.70 0.2615
1182.80 0.2614
1182.90 0.2614
1183.00 0.2613
1183.10 0.2613
1183.20 0.2612
1183.30 0.2612
1183.40 0.2611
1183.50 0.2611
1183.60 0.261
1183.70 0.2609
1183.80 0.2609
1183.90 0.2608
1184.00 0.2608
1184.10 0.2607
1184.20 0.2607
1184.30 0.2606
1184.40 0.2606
1184.50 0.2605
1184.60 0.2605
1184.70 0.2604
1184.80 0.2604
1184.90 0.2603
1185.00 0.2603
1185.10 0.2602
1185.20 0.2602
1185.30 0.2601
1185.40 0.2601
1185.50 0.26
1185.60 0.26
1185.70 0.2599
1185.80 0.2599
1185.90 0.2598
1186.00 0.2598
1186.10 0.2597
1186.20 0.2596
1186.30 0.2596
1186.40 0.2595
1186.50 0.2595
1186.60 0.2594
1186.70 0.2594
1186.80 0.2593
1186.90 0.2593
1187.00 0.2592
1187.10 0.2592
1187.20 0.2591
1187.30 0.2591
1187.40 0.259
1187.50 0.259
1187.60 0.2589
1187.70 0.2589
1187.80 0.2588
1187.90 0.2588
1188.00 0.2587
1188.10 0.2587
1188.20 0.2586
1188.30 0.2585
1188.40 0.2585
1188.50 0.2584
1188.60 0.2584
1188.70 0.2583
1188.80 0.2583
1188.90 0.2582
1189.00 0.2582
1189.10 0.2581
1189.20 0.2581
1189.30 0.258
1189.40 0.258
1189.50 0.2579
1189.60 0.2579
1189.70 0.2578
1189.80 0.2578
1189.90 0.2577
1190.00 0.2577
1190.10 0.2576
1190.20 0.2576
1190.30 0.2575
1190.40 0.2574
1190.50 0.2574
1190.60 0.2573
1190.70 0.2573
1190.80 0.2572
1190.90 0.2572
1191.00 0.2571
1191.10 0.2571
1191.20 0.257
1191.30 0.257
1191.40 0.2569
1191.50 0.2569
1191.60 0.2568
1191.70 0.2568
1191.80 0.2567
1191.90 0.2567
1192.00 0.2566
1192.10 0.2566
1192.20 0.2565
1192.30 0.2564
1192.40 0.2564
1192.50 0.2563
1192.60 0.2563
1192.70 0.2562
1192.80 0.2562
1192.90 0.2561
1193.00 0.2561
1193.10 0.256
1193.20 0.256
1193.30 0.2559
1193.40 0.2558
1193.50 0.2558
1193.60 0.2557
1193.70 0.2557
1193.80 0.2556
1193.90 0.2556
1194.00 0.2555
1194.10 0.2555
1194.20 0.2554
1194.30 0.2554
1194.40 0.2553
1194.50 0.2552
1194.60 0.2552
1194.70 0.2551
1194.80 0.2551
1194.90 0.255
1195.00 0.255
1195.10 0.2549
1195.20 0.2549
1195.30 0.2548
1195.40 0.2548
1195.50 0.2547
1195.60 0.2547
1195.70 0.2546
1195.80 0.2545
1195.90 0.2545
1196.00 0.2544
1196.10 0.2544
1196.20 0.2543
1196.30 0.2543
1196.40 0.2542
1196.50 0.2542
1196.60 0.2541
1196.70 0.2541
1196.80 0.254
1196.90 0.2539
1197.00 0.2539
1197.10 0.2538
1197.20 0.2538
1197.30 0.2537
1197.40 0.2537
1197.50 0.2536
1197.60 0.2535
1197.70 0.2535
1197.80 0.2534
1197.90 0.2534
1198.00 0.2533
1198.10 0.2533
1198.20 0.2532
1198.30 0.2531
1198.40 0.2531
1198.50 0.253
1198.60 0.253
1198.70 0.2529
1198.80 0.2529
1198.90 0.2528
1199.00 0.2527
1199.10 0.2527
1199.20 0.2526
1199.30 0.2526
1199.40 0.2525
1199.50 0.2525
1199.60 0.2524
1199.70 0.2523
1199.80 0.2523
1199.90 0.2522
1200.00 0
