# Version 2.1 - nm, norm@500 to 1, cut digits, bergeron_2250_95.dat_2250
# Wavelength(nm)  Flambda(ergs/cm^s/s/nm)
300.00 0.07916
300.10 0.07937
300.20 0.07958
300.30 0.07979
300.40 0.08
300.50 0.08021
300.60 0.08042
300.70 0.08063
300.80 0.08085
300.90 0.08106
301.00 0.08126
301.10 0.08147
301.20 0.08168
301.30 0.08189
301.40 0.0821
301.50 0.08231
301.60 0.08252
301.70 0.08272
301.80 0.08293
301.90 0.08314
302.00 0.08335
302.10 0.08356
302.20 0.08378
302.30 0.084
302.40 0.08422
302.50 0.08444
302.60 0.08466
302.70 0.08488
302.80 0.08509
302.90 0.08531
303.00 0.08553
303.10 0.08574
303.20 0.08596
303.30 0.08617
303.40 0.08639
303.50 0.08661
303.60 0.08682
303.70 0.08703
303.80 0.08725
303.90 0.08746
304.00 0.08768
304.10 0.08791
304.20 0.08813
304.30 0.08836
304.40 0.08858
304.50 0.08881
304.60 0.08903
304.70 0.08926
304.80 0.08948
304.90 0.0897
305.00 0.08993
305.10 0.09015
305.20 0.09038
305.30 0.0906
305.40 0.09082
305.50 0.09104
305.60 0.09126
305.70 0.09149
305.80 0.09171
305.90 0.09193
306.00 0.09216
306.10 0.09239
306.20 0.09262
306.30 0.09285
306.40 0.09308
306.50 0.09331
306.60 0.09355
306.70 0.09378
306.80 0.09401
306.90 0.09424
307.00 0.09447
307.10 0.0947
307.20 0.09493
307.30 0.09516
307.40 0.09539
307.50 0.09562
307.60 0.09585
307.70 0.09608
307.80 0.09631
307.90 0.09654
308.00 0.09677
308.10 0.09701
308.20 0.09725
308.30 0.09749
308.40 0.09773
308.50 0.09797
308.60 0.09821
308.70 0.09844
308.80 0.09868
308.90 0.09892
309.00 0.09916
309.10 0.0994
309.20 0.09963
309.30 0.09987
309.40 0.1001
309.50 0.1003
309.60 0.1006
309.70 0.1008
309.80 0.1011
309.90 0.1013
310.00 0.1015
310.10 0.1018
310.20 0.102
310.30 0.1023
310.40 0.1025
310.50 0.1028
310.60 0.103
310.70 0.1033
310.80 0.1035
310.90 0.1038
311.00 0.104
311.10 0.1042
311.20 0.1045
311.30 0.1047
311.40 0.105
311.50 0.1052
311.60 0.1055
311.70 0.1057
311.80 0.106
311.90 0.1062
312.00 0.1064
312.10 0.1067
312.20 0.1069
312.30 0.1072
312.40 0.1074
312.50 0.1077
312.60 0.1079
312.70 0.1082
312.80 0.1084
312.90 0.1087
313.00 0.109
313.10 0.1092
313.20 0.1095
313.30 0.1097
313.40 0.11
313.50 0.1102
313.60 0.1105
313.70 0.1107
313.80 0.111
313.90 0.1112
314.00 0.1115
314.10 0.1117
314.20 0.112
314.30 0.1123
314.40 0.1125
314.50 0.1128
314.60 0.113
314.70 0.1133
314.80 0.1136
314.90 0.1138
315.00 0.1141
315.10 0.1143
315.20 0.1146
315.30 0.1149
315.40 0.1151
315.50 0.1154
315.60 0.1156
315.70 0.1159
315.80 0.1161
315.90 0.1164
316.00 0.1167
316.10 0.1169
316.20 0.1172
316.30 0.1175
316.40 0.1177
316.50 0.118
316.60 0.1183
316.70 0.1185
316.80 0.1188
316.90 0.1191
317.00 0.1193
317.10 0.1196
317.20 0.1199
317.30 0.1201
317.40 0.1204
317.50 0.1207
317.60 0.1209
317.70 0.1212
317.80 0.1215
317.90 0.1217
318.00 0.122
318.10 0.1223
318.20 0.1226
318.30 0.1228
318.40 0.1231
318.50 0.1234
318.60 0.1237
318.70 0.1239
318.80 0.1242
318.90 0.1245
319.00 0.1248
319.10 0.125
319.20 0.1253
319.30 0.1256
319.40 0.1258
319.50 0.1261
319.60 0.1264
319.70 0.1267
319.80 0.1269
319.90 0.1272
320.00 0.1275
320.10 0.1278
320.20 0.128
320.30 0.1283
320.40 0.1286
320.50 0.1289
320.60 0.1292
320.70 0.1295
320.80 0.1297
320.90 0.13
321.00 0.1303
321.10 0.1306
321.20 0.1309
321.30 0.1312
321.40 0.1314
321.50 0.1317
321.60 0.132
321.70 0.1323
321.80 0.1325
321.90 0.1328
322.00 0.1331
322.10 0.1334
322.20 0.1337
322.30 0.134
322.40 0.1343
322.50 0.1346
322.60 0.1349
322.70 0.1351
322.80 0.1354
322.90 0.1357
323.00 0.136
323.10 0.1363
323.20 0.1366
323.30 0.1369
323.40 0.1372
323.50 0.1374
323.60 0.1377
323.70 0.138
323.80 0.1383
323.90 0.1386
324.00 0.1389
324.10 0.1392
324.20 0.1395
324.30 0.1398
324.40 0.1401
324.50 0.1404
324.60 0.1407
324.70 0.141
324.80 0.1413
324.90 0.1416
325.00 0.1419
325.10 0.1421
325.20 0.1424
325.30 0.1427
325.40 0.143
325.50 0.1433
325.60 0.1436
325.70 0.1439
325.80 0.1442
325.90 0.1445
326.00 0.1448
326.10 0.1451
326.20 0.1454
326.30 0.1457
326.40 0.146
326.50 0.1463
326.60 0.1466
326.70 0.1469
326.80 0.1472
326.90 0.1475
327.00 0.1478
327.10 0.1481
327.20 0.1484
327.30 0.1487
327.40 0.149
327.50 0.1493
327.60 0.1496
327.70 0.1499
327.80 0.1502
327.90 0.1505
328.00 0.1509
328.10 0.1512
328.20 0.1515
328.30 0.1518
328.40 0.1521
328.50 0.1524
328.60 0.1527
328.70 0.153
328.80 0.1533
328.90 0.1537
329.00 0.154
329.10 0.1543
329.20 0.1546
329.30 0.1549
329.40 0.1552
329.50 0.1555
329.60 0.1558
329.70 0.1561
329.80 0.1564
329.90 0.1567
330.00 0.157
330.10 0.1574
330.20 0.1577
330.30 0.158
330.40 0.1583
330.50 0.1587
330.60 0.159
330.70 0.1593
330.80 0.1596
330.90 0.1599
331.00 0.1602
331.10 0.1606
331.20 0.1609
331.30 0.1612
331.40 0.1615
331.50 0.1618
331.60 0.1621
331.70 0.1625
331.80 0.1628
331.90 0.1631
332.00 0.1634
332.10 0.1637
332.20 0.1641
332.30 0.1644
332.40 0.1647
332.50 0.165
332.60 0.1654
332.70 0.1657
332.80 0.166
332.90 0.1663
333.00 0.1667
333.10 0.167
333.20 0.1673
333.30 0.1676
333.40 0.168
333.50 0.1683
333.60 0.1686
333.70 0.1689
333.80 0.1692
333.90 0.1696
334.00 0.1699
334.10 0.1702
334.20 0.1706
334.30 0.1709
334.40 0.1712
334.50 0.1716
334.60 0.1719
334.70 0.1722
334.80 0.1726
334.90 0.1729
335.00 0.1732
335.10 0.1735
335.20 0.1739
335.30 0.1742
335.40 0.1745
335.50 0.1749
335.60 0.1752
335.70 0.1755
335.80 0.1759
335.90 0.1762
336.00 0.1765
336.10 0.1769
336.20 0.1772
336.30 0.1775
336.40 0.1779
336.50 0.1782
336.60 0.1786
336.70 0.1789
336.80 0.1792
336.90 0.1796
337.00 0.1799
337.10 0.1803
337.20 0.1806
337.30 0.1809
337.40 0.1813
337.50 0.1816
337.60 0.1819
337.70 0.1823
337.80 0.1826
337.90 0.183
338.00 0.1833
338.10 0.1836
338.20 0.184
338.30 0.1843
338.40 0.1847
338.50 0.185
338.60 0.1854
338.70 0.1857
338.80 0.1861
338.90 0.1864
339.00 0.1868
339.10 0.1871
339.20 0.1875
339.30 0.1878
339.40 0.1881
339.50 0.1885
339.60 0.1888
339.70 0.1892
339.80 0.1895
339.90 0.1899
340.00 0.1902
340.10 0.1906
340.20 0.1909
340.30 0.1913
340.40 0.1916
340.50 0.192
340.60 0.1923
340.70 0.1927
340.80 0.193
340.90 0.1934
341.00 0.1937
341.10 0.1941
341.20 0.1944
341.30 0.1948
341.40 0.1951
341.50 0.1955
341.60 0.1958
341.70 0.1962
341.80 0.1965
341.90 0.1969
342.00 0.1972
342.10 0.1976
342.20 0.198
342.30 0.1983
342.40 0.1987
342.50 0.1991
342.60 0.1994
342.70 0.1998
342.80 0.2001
342.90 0.2005
343.00 0.2009
343.10 0.2012
343.20 0.2016
343.30 0.2019
343.40 0.2023
343.50 0.2027
343.60 0.203
343.70 0.2034
343.80 0.2037
343.90 0.2041
344.00 0.2044
344.10 0.2048
344.20 0.2052
344.30 0.2055
344.40 0.2059
344.50 0.2063
344.60 0.2066
344.70 0.207
344.80 0.2074
344.90 0.2077
345.00 0.2081
345.10 0.2085
345.20 0.2088
345.30 0.2092
345.40 0.2096
345.50 0.2099
345.60 0.2103
345.70 0.2107
345.80 0.211
345.90 0.2114
346.00 0.2117
346.10 0.2121
346.20 0.2125
346.30 0.2129
346.40 0.2133
346.50 0.2136
346.60 0.214
346.70 0.2144
346.80 0.2148
346.90 0.2151
347.00 0.2155
347.10 0.2159
347.20 0.2162
347.30 0.2166
347.40 0.217
347.50 0.2174
347.60 0.2177
347.70 0.2181
347.80 0.2185
347.90 0.2188
348.00 0.2192
348.10 0.2196
348.20 0.22
348.30 0.2204
348.40 0.2207
348.50 0.2211
348.60 0.2215
348.70 0.2219
348.80 0.2223
348.90 0.2226
349.00 0.223
349.10 0.2234
349.20 0.2238
349.30 0.2242
349.40 0.2245
349.50 0.2249
349.60 0.2253
349.70 0.2257
349.80 0.226
349.90 0.2264
350.00 0.2268
350.10 0.2272
350.20 0.2276
350.30 0.228
350.40 0.2284
350.50 0.2287
350.60 0.2291
350.70 0.2295
350.80 0.2299
350.90 0.2303
351.00 0.2307
351.10 0.2311
351.20 0.2315
351.30 0.2318
351.40 0.2322
351.50 0.2326
351.60 0.233
351.70 0.2334
351.80 0.2338
351.90 0.2341
352.00 0.2345
352.10 0.2349
352.20 0.2353
352.30 0.2357
352.40 0.2361
352.50 0.2365
352.60 0.2369
352.70 0.2373
352.80 0.2377
352.90 0.2381
353.00 0.2385
353.10 0.2389
353.20 0.2393
353.30 0.2396
353.40 0.24
353.50 0.2404
353.60 0.2408
353.70 0.2412
353.80 0.2416
353.90 0.242
354.00 0.2424
354.10 0.2428
354.20 0.2432
354.30 0.2436
354.40 0.244
354.50 0.2444
354.60 0.2448
354.70 0.2452
354.80 0.2456
354.90 0.246
355.00 0.2464
355.10 0.2468
355.20 0.2472
355.30 0.2476
355.40 0.248
355.50 0.2484
355.60 0.2488
355.70 0.2492
355.80 0.2496
355.90 0.25
356.00 0.2504
356.10 0.2508
356.20 0.2512
356.30 0.2516
356.40 0.252
356.50 0.2524
356.60 0.2528
356.70 0.2532
356.80 0.2536
356.90 0.254
357.00 0.2544
357.10 0.2548
357.20 0.2552
357.30 0.2556
357.40 0.256
357.50 0.2564
357.60 0.2569
357.70 0.2573
357.80 0.2577
357.90 0.2581
358.00 0.2585
358.10 0.2589
358.20 0.2593
358.30 0.2597
358.40 0.2601
358.50 0.2605
358.60 0.2609
358.70 0.2614
358.80 0.2618
358.90 0.2622
359.00 0.2626
359.10 0.263
359.20 0.2634
359.30 0.2638
359.40 0.2642
359.50 0.2646
359.60 0.2651
359.70 0.2655
359.80 0.2659
359.90 0.2663
360.00 0.2667
360.10 0.2671
360.20 0.2675
360.30 0.268
360.40 0.2684
360.50 0.2688
360.60 0.2692
360.70 0.2696
360.80 0.2701
360.90 0.2705
361.00 0.2709
361.10 0.2713
361.20 0.2717
361.30 0.2721
361.40 0.2726
361.50 0.273
361.60 0.2734
361.70 0.2738
361.80 0.2742
361.90 0.2746
362.00 0.275
362.10 0.2755
362.20 0.2759
362.30 0.2763
362.40 0.2767
362.50 0.2772
362.60 0.2776
362.70 0.278
362.80 0.2784
362.90 0.2788
363.00 0.2793
363.10 0.2797
363.20 0.2801
363.30 0.2805
363.40 0.281
363.50 0.2814
363.60 0.2818
363.70 0.2823
363.80 0.2827
363.90 0.2831
364.00 0.2835
364.10 0.284
364.20 0.2844
364.30 0.2848
364.40 0.2852
364.50 0.2856
364.60 0.2861
364.70 0.2865
364.80 0.2869
364.90 0.2874
365.00 0.2878
365.10 0.2882
365.20 0.2887
365.30 0.2891
365.40 0.2895
365.50 0.29
365.60 0.2904
365.70 0.2908
365.80 0.2912
365.90 0.2917
366.00 0.2921
366.10 0.2925
366.20 0.293
366.30 0.2934
366.40 0.2939
366.50 0.2943
366.60 0.2947
366.70 0.2952
366.80 0.2956
366.90 0.296
367.00 0.2965
367.10 0.2969
367.20 0.2974
367.30 0.2978
367.40 0.2982
367.50 0.2987
367.60 0.2991
367.70 0.2995
367.80 0.2999
367.90 0.3004
368.00 0.3008
368.10 0.3013
368.20 0.3017
368.30 0.3021
368.40 0.3026
368.50 0.303
368.60 0.3035
368.70 0.3039
368.80 0.3044
368.90 0.3048
369.00 0.3052
369.10 0.3057
369.20 0.3061
369.30 0.3066
369.40 0.307
369.50 0.3074
369.60 0.3079
369.70 0.3083
369.80 0.3088
369.90 0.3092
370.00 0.3096
370.10 0.3101
370.20 0.3105
370.30 0.311
370.40 0.3114
370.50 0.3119
370.60 0.3123
370.70 0.3128
370.80 0.3132
370.90 0.3137
371.00 0.3141
371.10 0.3146
371.20 0.315
371.30 0.3155
371.40 0.3159
371.50 0.3163
371.60 0.3168
371.70 0.3172
371.80 0.3177
371.90 0.3181
372.00 0.3186
372.10 0.319
372.20 0.3195
372.30 0.3199
372.40 0.3204
372.50 0.3208
372.60 0.3213
372.70 0.3217
372.80 0.3222
372.90 0.3227
373.00 0.3231
373.10 0.3236
373.20 0.324
373.30 0.3245
373.40 0.3249
373.50 0.3254
373.60 0.3258
373.70 0.3263
373.80 0.3267
373.90 0.3272
374.00 0.3276
374.10 0.3281
374.20 0.3285
374.30 0.329
374.40 0.3294
374.50 0.3299
374.60 0.3304
374.70 0.3308
374.80 0.3313
374.90 0.3317
375.00 0.3322
375.10 0.3327
375.20 0.3331
375.30 0.3336
375.40 0.334
375.50 0.3345
375.60 0.3349
375.70 0.3354
375.80 0.3358
375.90 0.3363
376.00 0.3368
376.10 0.3372
376.20 0.3377
376.30 0.3381
376.40 0.3386
376.50 0.3391
376.60 0.3395
376.70 0.34
376.80 0.3404
376.90 0.3409
377.00 0.3414
377.10 0.3418
377.20 0.3423
377.30 0.3428
377.40 0.3432
377.50 0.3437
377.60 0.3442
377.70 0.3446
377.80 0.3451
377.90 0.3455
378.00 0.346
378.10 0.3465
378.20 0.3469
378.30 0.3474
378.40 0.3479
378.50 0.3483
378.60 0.3488
378.70 0.3493
378.80 0.3497
378.90 0.3502
379.00 0.3507
379.10 0.3511
379.20 0.3516
379.30 0.3521
379.40 0.3525
379.50 0.353
379.60 0.3535
379.70 0.354
379.80 0.3544
379.90 0.3549
380.00 0.3554
380.10 0.3558
380.20 0.3563
380.30 0.3568
380.40 0.3572
380.50 0.3577
380.60 0.3582
380.70 0.3587
380.80 0.3591
380.90 0.3596
381.00 0.3601
381.10 0.3605
381.20 0.361
381.30 0.3615
381.40 0.362
381.50 0.3624
381.60 0.3629
381.70 0.3634
381.80 0.3639
381.90 0.3643
382.00 0.3648
382.10 0.3653
382.20 0.3658
382.30 0.3662
382.40 0.3667
382.50 0.3672
382.60 0.3677
382.70 0.3682
382.80 0.3686
382.90 0.3691
383.00 0.3696
383.10 0.3701
383.20 0.3705
383.30 0.371
383.40 0.3715
383.50 0.372
383.60 0.3724
383.70 0.3729
383.80 0.3734
383.90 0.3739
384.00 0.3744
384.10 0.3748
384.20 0.3753
384.30 0.3758
384.40 0.3763
384.50 0.3768
384.60 0.3772
384.70 0.3777
384.80 0.3782
384.90 0.3787
385.00 0.3792
385.10 0.3797
385.20 0.3801
385.30 0.3806
385.40 0.3811
385.50 0.3816
385.60 0.3821
385.70 0.3826
385.80 0.383
385.90 0.3835
386.00 0.384
386.10 0.3845
386.20 0.385
386.30 0.3855
386.40 0.3859
386.50 0.3864
386.60 0.3869
386.70 0.3874
386.80 0.3879
386.90 0.3884
387.00 0.3889
387.10 0.3893
387.20 0.3898
387.30 0.3903
387.40 0.3908
387.50 0.3913
387.60 0.3918
387.70 0.3923
387.80 0.3928
387.90 0.3933
388.00 0.3937
388.10 0.3942
388.20 0.3947
388.30 0.3952
388.40 0.3957
388.50 0.3962
388.60 0.3967
388.70 0.3972
388.80 0.3977
388.90 0.3981
389.00 0.3986
389.10 0.3991
389.20 0.3996
389.30 0.4001
389.40 0.4006
389.50 0.4011
389.60 0.4016
389.70 0.4021
389.80 0.4026
389.90 0.4031
390.00 0.4036
390.10 0.4041
390.20 0.4046
390.30 0.405
390.40 0.4055
390.50 0.406
390.60 0.4065
390.70 0.407
390.80 0.4075
390.90 0.408
391.00 0.4085
391.10 0.409
391.20 0.4095
391.30 0.41
391.40 0.4105
391.50 0.411
391.60 0.4115
391.70 0.412
391.80 0.4125
391.90 0.413
392.00 0.4135
392.10 0.414
392.20 0.4145
392.30 0.415
392.40 0.4155
392.50 0.416
392.60 0.4165
392.70 0.417
392.80 0.4175
392.90 0.418
393.00 0.4185
393.10 0.419
393.20 0.4195
393.30 0.42
393.40 0.4205
393.50 0.421
393.60 0.4215
393.70 0.422
393.80 0.4225
393.90 0.423
394.00 0.4235
394.10 0.424
394.20 0.4245
394.30 0.425
394.40 0.4255
394.50 0.426
394.60 0.4265
394.70 0.427
394.80 0.4275
394.90 0.428
395.00 0.4285
395.10 0.429
395.20 0.4295
395.30 0.43
395.40 0.4305
395.50 0.431
395.60 0.4315
395.70 0.432
395.80 0.4325
395.90 0.433
396.00 0.4335
396.10 0.434
396.20 0.4346
396.30 0.4351
396.40 0.4356
396.50 0.4361
396.60 0.4366
396.70 0.4371
396.80 0.4376
396.90 0.4381
397.00 0.4386
397.10 0.4391
397.20 0.4396
397.30 0.4401
397.40 0.4406
397.50 0.4411
397.60 0.4417
397.70 0.4422
397.80 0.4427
397.90 0.4432
398.00 0.4437
398.10 0.4442
398.20 0.4447
398.30 0.4452
398.40 0.4457
398.50 0.4462
398.60 0.4468
398.70 0.4473
398.80 0.4478
398.90 0.4483
399.00 0.4488
399.10 0.4493
399.20 0.4498
399.30 0.4503
399.40 0.4508
399.50 0.4514
399.60 0.4519
399.70 0.4524
399.80 0.4529
399.90 0.4534
400.00 0.4539
400.10 0.4544
400.20 0.455
400.30 0.4555
400.40 0.456
400.50 0.4565
400.60 0.457
400.70 0.4575
400.80 0.458
400.90 0.4585
401.00 0.4591
401.10 0.4596
401.20 0.4601
401.30 0.4606
401.40 0.4611
401.50 0.4616
401.60 0.4622
401.70 0.4627
401.80 0.4632
401.90 0.4637
402.00 0.4642
402.10 0.4647
402.20 0.4653
402.30 0.4658
402.40 0.4663
402.50 0.4668
402.60 0.4673
402.70 0.4678
402.80 0.4684
402.90 0.4689
403.00 0.4694
403.10 0.4699
403.20 0.4704
403.30 0.471
403.40 0.4715
403.50 0.472
403.60 0.4725
403.70 0.473
403.80 0.4736
403.90 0.4741
404.00 0.4746
404.10 0.4751
404.20 0.4756
404.30 0.4762
404.40 0.4767
404.50 0.4772
404.60 0.4777
404.70 0.4782
404.80 0.4788
404.90 0.4793
405.00 0.4798
405.10 0.4803
405.20 0.4809
405.30 0.4814
405.40 0.4819
405.50 0.4824
405.60 0.4829
405.70 0.4835
405.80 0.484
405.90 0.4845
406.00 0.485
406.10 0.4856
406.20 0.4861
406.30 0.4866
406.40 0.4871
406.50 0.4877
406.60 0.4882
406.70 0.4887
406.80 0.4892
406.90 0.4898
407.00 0.4903
407.10 0.4908
407.20 0.4913
407.30 0.4919
407.40 0.4924
407.50 0.4929
407.60 0.4934
407.70 0.494
407.80 0.4945
407.90 0.495
408.00 0.4955
408.10 0.4961
408.20 0.4966
408.30 0.4971
408.40 0.4976
408.50 0.4982
408.60 0.4987
408.70 0.4992
408.80 0.4998
408.90 0.5003
409.00 0.5008
409.10 0.5013
409.20 0.5019
409.30 0.5024
409.40 0.5029
409.50 0.5034
409.60 0.504
409.70 0.5045
409.80 0.505
409.90 0.5056
410.00 0.5061
410.10 0.5066
410.20 0.5072
410.30 0.5077
410.40 0.5082
410.50 0.5087
410.60 0.5093
410.70 0.5098
410.80 0.5103
410.90 0.5109
411.00 0.5114
411.10 0.5119
411.20 0.5125
411.30 0.513
411.40 0.5135
411.50 0.5141
411.60 0.5146
411.70 0.5151
411.80 0.5157
411.90 0.5162
412.00 0.5167
412.10 0.5173
412.20 0.5178
412.30 0.5183
412.40 0.5188
412.50 0.5194
412.60 0.5199
412.70 0.5204
412.80 0.521
412.90 0.5215
413.00 0.522
413.10 0.5226
413.20 0.5231
413.30 0.5237
413.40 0.5242
413.50 0.5247
413.60 0.5253
413.70 0.5258
413.80 0.5263
413.90 0.5269
414.00 0.5274
414.10 0.5279
414.20 0.5285
414.30 0.529
414.40 0.5295
414.50 0.5301
414.60 0.5306
414.70 0.5311
414.80 0.5317
414.90 0.5322
415.00 0.5328
415.10 0.5333
415.20 0.5338
415.30 0.5344
415.40 0.5349
415.50 0.5354
415.60 0.536
415.70 0.5365
415.80 0.537
415.90 0.5376
416.00 0.5381
416.10 0.5387
416.20 0.5392
416.30 0.5397
416.40 0.5403
416.50 0.5408
416.60 0.5414
416.70 0.5419
416.80 0.5424
416.90 0.543
417.00 0.5435
417.10 0.544
417.20 0.5446
417.30 0.5451
417.40 0.5457
417.50 0.5462
417.60 0.5467
417.70 0.5473
417.80 0.5478
417.90 0.5484
418.00 0.5489
418.10 0.5494
418.20 0.55
418.30 0.5505
418.40 0.5511
418.50 0.5516
418.60 0.5521
418.70 0.5527
418.80 0.5532
418.90 0.5538
419.00 0.5543
419.10 0.5549
419.20 0.5554
419.30 0.5559
419.40 0.5565
419.50 0.557
419.60 0.5576
419.70 0.5581
419.80 0.5586
419.90 0.5592
420.00 0.5597
420.10 0.5603
420.20 0.5608
420.30 0.5614
420.40 0.5619
420.50 0.5624
420.60 0.563
420.70 0.5635
420.80 0.5641
420.90 0.5646
421.00 0.5652
421.10 0.5657
421.20 0.5662
421.30 0.5668
421.40 0.5673
421.50 0.5679
421.60 0.5684
421.70 0.569
421.80 0.5695
421.90 0.5701
422.00 0.5706
422.10 0.5711
422.20 0.5717
422.30 0.5722
422.40 0.5728
422.50 0.5733
422.60 0.5739
422.70 0.5744
422.80 0.575
422.90 0.5755
423.00 0.5761
423.10 0.5766
423.20 0.5771
423.30 0.5777
423.40 0.5782
423.50 0.5788
423.60 0.5793
423.70 0.5799
423.80 0.5804
423.90 0.581
424.00 0.5815
424.10 0.5821
424.20 0.5826
424.30 0.5832
424.40 0.5837
424.50 0.5842
424.60 0.5848
424.70 0.5853
424.80 0.5859
424.90 0.5864
425.00 0.587
425.10 0.5875
425.20 0.5881
425.30 0.5886
425.40 0.5892
425.50 0.5897
425.60 0.5903
425.70 0.5908
425.80 0.5914
425.90 0.5919
426.00 0.5925
426.10 0.593
426.20 0.5936
426.30 0.5941
426.40 0.5946
426.50 0.5952
426.60 0.5957
426.70 0.5963
426.80 0.5968
426.90 0.5974
427.00 0.598
427.10 0.5985
427.20 0.5991
427.30 0.5996
427.40 0.6002
427.50 0.6007
427.60 0.6012
427.70 0.6018
427.80 0.6023
427.90 0.6029
428.00 0.6035
428.10 0.604
428.20 0.6045
428.30 0.6051
428.40 0.6057
428.50 0.6062
428.60 0.6067
428.70 0.6073
428.80 0.6079
428.90 0.6084
429.00 0.609
429.10 0.6095
429.20 0.6101
429.30 0.6106
429.40 0.6112
429.50 0.6117
429.60 0.6123
429.70 0.6128
429.80 0.6134
429.90 0.6139
430.00 0.6145
430.10 0.615
430.20 0.6156
430.30 0.6161
430.40 0.6167
430.50 0.6172
430.60 0.6178
430.70 0.6183
430.80 0.6189
430.90 0.6194
431.00 0.62
431.10 0.6206
431.20 0.6211
431.30 0.6217
431.40 0.6222
431.50 0.6228
431.60 0.6233
431.70 0.6238
431.80 0.6244
431.90 0.625
432.00 0.6255
432.10 0.6261
432.20 0.6266
432.30 0.6272
432.40 0.6277
432.50 0.6283
432.60 0.6288
432.70 0.6294
432.80 0.63
432.90 0.6305
433.00 0.6311
433.10 0.6316
433.20 0.6322
433.30 0.6327
433.40 0.6333
433.50 0.6338
433.60 0.6344
433.70 0.6349
433.80 0.6355
433.90 0.6361
434.00 0.6366
434.10 0.6372
434.20 0.6377
434.30 0.6383
434.40 0.6388
434.50 0.6394
434.60 0.6399
434.70 0.6405
434.80 0.641
434.90 0.6416
435.00 0.6422
435.10 0.6427
435.20 0.6433
435.30 0.6438
435.40 0.6444
435.50 0.6449
435.60 0.6455
435.70 0.646
435.80 0.6466
435.90 0.6472
436.00 0.6477
436.10 0.6483
436.20 0.6488
436.30 0.6494
436.40 0.65
436.50 0.6505
436.60 0.651
436.70 0.6516
436.80 0.6522
436.90 0.6527
437.00 0.6533
437.10 0.6538
437.20 0.6544
437.30 0.6549
437.40 0.6555
437.50 0.656
437.60 0.6566
437.70 0.6572
437.80 0.6577
437.90 0.6583
438.00 0.6588
438.10 0.6594
438.20 0.66
438.30 0.6605
438.40 0.6611
438.50 0.6616
438.60 0.6622
438.70 0.6627
438.80 0.6633
438.90 0.6638
439.00 0.6644
439.10 0.665
439.20 0.6655
439.30 0.6661
439.40 0.6666
439.50 0.6672
439.60 0.6677
439.70 0.6683
439.80 0.6689
439.90 0.6694
440.00 0.67
440.10 0.6705
440.20 0.6711
440.30 0.6717
440.40 0.6722
440.50 0.6728
440.60 0.6733
440.70 0.6739
440.80 0.6745
440.90 0.675
441.00 0.6756
441.10 0.6761
441.20 0.6767
441.30 0.6772
441.40 0.6778
441.50 0.6784
441.60 0.6789
441.70 0.6795
441.80 0.68
441.90 0.6806
442.00 0.6811
442.10 0.6817
442.20 0.6823
442.30 0.6828
442.40 0.6834
442.50 0.6839
442.60 0.6845
442.70 0.6851
442.80 0.6856
442.90 0.6862
443.00 0.6868
443.10 0.6873
443.20 0.6878
443.30 0.6884
443.40 0.689
443.50 0.6895
443.60 0.6901
443.70 0.6907
443.80 0.6912
443.90 0.6918
444.00 0.6923
444.10 0.6929
444.20 0.6935
444.30 0.694
444.40 0.6946
444.50 0.6951
444.60 0.6957
444.70 0.6962
444.80 0.6968
444.90 0.6973
445.00 0.6979
445.10 0.6985
445.20 0.6991
445.30 0.6996
445.40 0.7002
445.50 0.7007
445.60 0.7013
445.70 0.7018
445.80 0.7024
445.90 0.703
446.00 0.7035
446.10 0.7041
446.20 0.7046
446.30 0.7052
446.40 0.7058
446.50 0.7063
446.60 0.7069
446.70 0.7074
446.80 0.708
446.90 0.7085
447.00 0.7091
447.10 0.7097
447.20 0.7102
447.30 0.7108
447.40 0.7114
447.50 0.7119
447.60 0.7125
447.70 0.713
447.80 0.7136
447.90 0.7142
448.00 0.7147
448.10 0.7153
448.20 0.7158
448.30 0.7164
448.40 0.717
448.50 0.7175
448.60 0.7181
448.70 0.7186
448.80 0.7192
448.90 0.7198
449.00 0.7203
449.10 0.7209
449.20 0.7214
449.30 0.722
449.40 0.7226
449.50 0.7231
449.60 0.7237
449.70 0.7243
449.80 0.7248
449.90 0.7254
450.00 0.7259
450.10 0.7265
450.20 0.7271
450.30 0.7276
450.40 0.7282
450.50 0.7287
450.60 0.7293
450.70 0.7299
450.80 0.7304
450.90 0.731
451.00 0.7315
451.10 0.7321
451.20 0.7326
451.30 0.7332
451.40 0.7337
451.50 0.7343
451.60 0.7349
451.70 0.7355
451.80 0.736
451.90 0.7366
452.00 0.7371
452.10 0.7377
452.20 0.7383
452.30 0.7388
452.40 0.7394
452.50 0.7399
452.60 0.7405
452.70 0.7411
452.80 0.7416
452.90 0.7422
453.00 0.7427
453.10 0.7433
453.20 0.7439
453.30 0.7444
453.40 0.745
453.50 0.7455
453.60 0.7461
453.70 0.7467
453.80 0.7472
453.90 0.7478
454.00 0.7483
454.10 0.7489
454.20 0.7495
454.30 0.75
454.40 0.7506
454.50 0.7511
454.60 0.7517
454.70 0.7523
454.80 0.7528
454.90 0.7534
455.00 0.754
455.10 0.7545
455.20 0.7551
455.30 0.7556
455.40 0.7562
455.50 0.7568
455.60 0.7573
455.70 0.7579
455.80 0.7584
455.90 0.759
456.00 0.7595
456.10 0.7601
456.20 0.7606
456.30 0.7612
456.40 0.7618
456.50 0.7623
456.60 0.7629
456.70 0.7634
456.80 0.764
456.90 0.7646
457.00 0.7651
457.10 0.7657
457.20 0.7662
457.30 0.7668
457.40 0.7674
457.50 0.7679
457.60 0.7685
457.70 0.769
457.80 0.7696
457.90 0.7702
458.00 0.7707
458.10 0.7713
458.20 0.7718
458.30 0.7724
458.40 0.773
458.50 0.7735
458.60 0.7741
458.70 0.7746
458.80 0.7752
458.90 0.7758
459.00 0.7763
459.10 0.7769
459.20 0.7774
459.30 0.778
459.40 0.7786
459.50 0.7791
459.60 0.7797
459.70 0.7802
459.80 0.7808
459.90 0.7813
460.00 0.7819
460.10 0.7825
460.20 0.783
460.30 0.7836
460.40 0.7842
460.50 0.7847
460.60 0.7853
460.70 0.7858
460.80 0.7864
460.90 0.787
461.00 0.7875
461.10 0.7881
461.20 0.7887
461.30 0.7892
461.40 0.7898
461.50 0.7903
461.60 0.7909
461.70 0.7915
461.80 0.792
461.90 0.7926
462.00 0.7931
462.10 0.7937
462.20 0.7943
462.30 0.7948
462.40 0.7954
462.50 0.7959
462.60 0.7965
462.70 0.7971
462.80 0.7976
462.90 0.7982
463.00 0.7987
463.10 0.7993
463.20 0.7998
463.30 0.8004
463.40 0.801
463.50 0.8015
463.60 0.8021
463.70 0.8026
463.80 0.8032
463.90 0.8038
464.00 0.8043
464.10 0.8049
464.20 0.8054
464.30 0.806
464.40 0.8065
464.50 0.8071
464.60 0.8077
464.70 0.8082
464.80 0.8088
464.90 0.8093
465.00 0.8099
465.10 0.8104
465.20 0.811
465.30 0.8116
465.40 0.8121
465.50 0.8127
465.60 0.8132
465.70 0.8138
465.80 0.8143
465.90 0.8149
466.00 0.8155
466.10 0.816
466.20 0.8166
466.30 0.8171
466.40 0.8177
466.50 0.8182
466.60 0.8188
466.70 0.8194
466.80 0.8199
466.90 0.8205
467.00 0.821
467.10 0.8216
467.20 0.8221
467.30 0.8227
467.40 0.8233
467.50 0.8238
467.60 0.8244
467.70 0.8249
467.80 0.8255
467.90 0.826
468.00 0.8266
468.10 0.8271
468.20 0.8277
468.30 0.8283
468.40 0.8288
468.50 0.8294
468.60 0.8299
468.70 0.8305
468.80 0.831
468.90 0.8316
469.00 0.8321
469.10 0.8327
469.20 0.8333
469.30 0.8338
469.40 0.8344
469.50 0.8349
469.60 0.8355
469.70 0.836
469.80 0.8366
469.90 0.8372
470.00 0.8377
470.10 0.8383
470.20 0.8388
470.30 0.8394
470.40 0.8399
470.50 0.8405
470.60 0.841
470.70 0.8416
470.80 0.8421
470.90 0.8427
471.00 0.8432
471.10 0.8438
471.20 0.8443
471.30 0.8449
471.40 0.8455
471.50 0.846
471.60 0.8466
471.70 0.8471
471.80 0.8477
471.90 0.8482
472.00 0.8488
472.10 0.8493
472.20 0.8499
472.30 0.8504
472.40 0.851
472.50 0.8515
472.60 0.8521
472.70 0.8526
472.80 0.8532
472.90 0.8537
473.00 0.8543
473.10 0.8549
473.20 0.8554
473.30 0.856
473.40 0.8565
473.50 0.8571
473.60 0.8576
473.70 0.8582
473.80 0.8588
473.90 0.8593
474.00 0.8599
474.10 0.8604
474.20 0.861
474.30 0.8615
474.40 0.8621
474.50 0.8626
474.60 0.8632
474.70 0.8637
474.80 0.8643
474.90 0.8648
475.00 0.8654
475.10 0.8659
475.20 0.8665
475.30 0.867
475.40 0.8676
475.50 0.8681
475.60 0.8687
475.70 0.8693
475.80 0.8698
475.90 0.8704
476.00 0.8709
476.10 0.8714
476.20 0.872
476.30 0.8726
476.40 0.8731
476.50 0.8737
476.60 0.8742
476.70 0.8748
476.80 0.8753
476.90 0.8759
477.00 0.8764
477.10 0.877
477.20 0.8775
477.30 0.8781
477.40 0.8786
477.50 0.8792
477.60 0.8797
477.70 0.8803
477.80 0.8808
477.90 0.8814
478.00 0.8819
478.10 0.8824
478.20 0.883
478.30 0.8835
478.40 0.8841
478.50 0.8846
478.60 0.8852
478.70 0.8857
478.80 0.8863
478.90 0.8868
479.00 0.8874
479.10 0.8879
479.20 0.8885
479.30 0.889
479.40 0.8896
479.50 0.8901
479.60 0.8907
479.70 0.8912
479.80 0.8918
479.90 0.8923
480.00 0.8929
480.10 0.8934
480.20 0.8939
480.30 0.8945
480.40 0.895
480.50 0.8956
480.60 0.8961
480.70 0.8967
480.80 0.8972
480.90 0.8978
481.00 0.8983
481.10 0.8989
481.20 0.8994
481.30 0.8999
481.40 0.9005
481.50 0.901
481.60 0.9016
481.70 0.9021
481.80 0.9027
481.90 0.9032
482.00 0.9038
482.10 0.9043
482.20 0.9049
482.30 0.9054
482.40 0.906
482.50 0.9065
482.60 0.9071
482.70 0.9076
482.80 0.9082
482.90 0.9087
483.00 0.9092
483.10 0.9098
483.20 0.9103
483.30 0.9109
483.40 0.9114
483.50 0.912
483.60 0.9125
483.70 0.9131
483.80 0.9136
483.90 0.9142
484.00 0.9147
484.10 0.9152
484.20 0.9158
484.30 0.9163
484.40 0.9169
484.50 0.9174
484.60 0.9179
484.70 0.9185
484.80 0.919
484.90 0.9196
485.00 0.9201
485.10 0.9206
485.20 0.9212
485.30 0.9218
485.40 0.9223
485.50 0.9228
485.60 0.9234
485.70 0.9239
485.80 0.9244
485.90 0.925
486.00 0.9255
486.10 0.926
486.20 0.9266
486.30 0.9271
486.40 0.9277
486.50 0.9282
486.60 0.9288
486.70 0.9293
486.80 0.9298
486.90 0.9304
487.00 0.9309
487.10 0.9315
487.20 0.932
487.30 0.9326
487.40 0.9331
487.50 0.9336
487.60 0.9342
487.70 0.9347
487.80 0.9352
487.90 0.9358
488.00 0.9363
488.10 0.9369
488.20 0.9374
488.30 0.9379
488.40 0.9385
488.50 0.939
488.60 0.9396
488.70 0.9401
488.80 0.9406
488.90 0.9412
489.00 0.9417
489.10 0.9422
489.20 0.9428
489.30 0.9433
489.40 0.9439
489.50 0.9444
489.60 0.9449
489.70 0.9455
489.80 0.946
489.90 0.9465
490.00 0.9471
490.10 0.9476
490.20 0.9481
490.30 0.9487
490.40 0.9492
490.50 0.9498
490.60 0.9503
490.70 0.9508
490.80 0.9514
490.90 0.9519
491.00 0.9524
491.10 0.953
491.20 0.9535
491.30 0.954
491.40 0.9546
491.50 0.9551
491.60 0.9556
491.70 0.9562
491.80 0.9567
491.90 0.9572
492.00 0.9578
492.10 0.9583
492.20 0.9588
492.30 0.9594
492.40 0.9599
492.50 0.9604
492.60 0.961
492.70 0.9615
492.80 0.962
492.90 0.9626
493.00 0.9631
493.10 0.9636
493.20 0.9642
493.30 0.9647
493.40 0.9652
493.50 0.9658
493.60 0.9663
493.70 0.9668
493.80 0.9674
493.90 0.9679
494.00 0.9684
494.10 0.969
494.20 0.9695
494.30 0.97
494.40 0.9706
494.50 0.9711
494.60 0.9716
494.70 0.9721
494.80 0.9727
494.90 0.9732
495.00 0.9737
495.10 0.9743
495.20 0.9748
495.30 0.9753
495.40 0.9758
495.50 0.9764
495.60 0.9769
495.70 0.9774
495.80 0.978
495.90 0.9785
496.00 0.979
496.10 0.9795
496.20 0.9801
496.30 0.9806
496.40 0.9811
496.50 0.9817
496.60 0.9822
496.70 0.9827
496.80 0.9832
496.90 0.9838
497.00 0.9843
497.10 0.9848
497.20 0.9853
497.30 0.9859
497.40 0.9864
497.50 0.9869
497.60 0.9874
497.70 0.988
497.80 0.9885
497.90 0.989
498.00 0.9895
498.10 0.99
498.20 0.9906
498.30 0.9911
498.40 0.9916
498.50 0.9922
498.60 0.9927
498.70 0.9932
498.80 0.9937
498.90 0.9943
499.00 0.9948
499.10 0.9953
499.20 0.9958
499.30 0.9964
499.40 0.9969
499.50 0.9974
499.60 0.9979
499.70 0.9984
499.80 0.999
499.90 0.9995
500.00 1
500.10 1.001
500.20 1.001
500.30 1.002
500.40 1.002
500.50 1.003
500.60 1.003
500.70 1.004
500.80 1.004
500.90 1.005
501.00 1.005
501.10 1.006
501.20 1.006
501.30 1.007
501.40 1.007
501.50 1.008
501.60 1.008
501.70 1.009
501.80 1.009
501.90 1.01
502.00 1.01
502.10 1.011
502.20 1.011
502.30 1.012
502.40 1.012
502.50 1.013
502.60 1.013
502.70 1.014
502.80 1.015
502.90 1.015
503.00 1.016
503.10 1.016
503.20 1.017
503.30 1.017
503.40 1.018
503.50 1.018
503.60 1.019
503.70 1.019
503.80 1.02
503.90 1.02
504.00 1.021
504.10 1.021
504.20 1.022
504.30 1.022
504.40 1.023
504.50 1.023
504.60 1.024
504.70 1.024
504.80 1.025
504.90 1.025
505.00 1.026
505.10 1.026
505.20 1.027
505.30 1.027
505.40 1.028
505.50 1.028
505.60 1.029
505.70 1.029
505.80 1.03
505.90 1.03
506.00 1.031
506.10 1.031
506.20 1.032
506.30 1.032
506.40 1.033
506.50 1.033
506.60 1.034
506.70 1.034
506.80 1.035
506.90 1.035
507.00 1.036
507.10 1.036
507.20 1.037
507.30 1.037
507.40 1.038
507.50 1.038
507.60 1.039
507.70 1.039
507.80 1.04
507.90 1.04
508.00 1.041
508.10 1.041
508.20 1.042
508.30 1.042
508.40 1.043
508.50 1.043
508.60 1.044
508.70 1.044
508.80 1.045
508.90 1.045
509.00 1.046
509.10 1.046
509.20 1.047
509.30 1.047
509.40 1.048
509.50 1.048
509.60 1.049
509.70 1.049
509.80 1.05
509.90 1.05
510.00 1.051
510.10 1.051
510.20 1.052
510.30 1.052
510.40 1.053
510.50 1.053
510.60 1.054
510.70 1.054
510.80 1.055
510.90 1.055
511.00 1.056
511.10 1.056
511.20 1.057
511.30 1.057
511.40 1.058
511.50 1.058
511.60 1.059
511.70 1.059
511.80 1.06
511.90 1.06
512.00 1.061
512.10 1.061
512.20 1.062
512.30 1.062
512.40 1.063
512.50 1.063
512.60 1.064
512.70 1.064
512.80 1.065
512.90 1.065
513.00 1.066
513.10 1.066
513.20 1.067
513.30 1.067
513.40 1.068
513.50 1.068
513.60 1.069
513.70 1.069
513.80 1.07
513.90 1.07
514.00 1.071
514.10 1.071
514.20 1.072
514.30 1.072
514.40 1.073
514.50 1.073
514.60 1.074
514.70 1.074
514.80 1.075
514.90 1.075
515.00 1.076
515.10 1.076
515.20 1.077
515.30 1.077
515.40 1.078
515.50 1.078
515.60 1.079
515.70 1.079
515.80 1.08
515.90 1.08
516.00 1.081
516.10 1.081
516.20 1.082
516.30 1.082
516.40 1.083
516.50 1.083
516.60 1.084
516.70 1.084
516.80 1.085
516.90 1.085
517.00 1.085
517.10 1.086
517.20 1.086
517.30 1.087
517.40 1.087
517.50 1.088
517.60 1.088
517.70 1.089
517.80 1.089
517.90 1.09
518.00 1.09
518.10 1.091
518.20 1.091
518.30 1.092
518.40 1.092
518.50 1.093
518.60 1.093
518.70 1.094
518.80 1.094
518.90 1.095
519.00 1.095
519.10 1.096
519.20 1.096
519.30 1.097
519.40 1.097
519.50 1.097
519.60 1.098
519.70 1.098
519.80 1.099
519.90 1.099
520.00 1.1
520.10 1.1
520.20 1.101
520.30 1.101
520.40 1.102
520.50 1.102
520.60 1.103
520.70 1.103
520.80 1.104
520.90 1.104
521.00 1.105
521.10 1.105
521.20 1.106
521.30 1.106
521.40 1.107
521.50 1.107
521.60 1.107
521.70 1.108
521.80 1.108
521.90 1.109
522.00 1.109
522.10 1.11
522.20 1.11
522.30 1.111
522.40 1.111
522.50 1.112
522.60 1.112
522.70 1.113
522.80 1.113
522.90 1.114
523.00 1.114
523.10 1.114
523.20 1.115
523.30 1.115
523.40 1.116
523.50 1.116
523.60 1.117
523.70 1.117
523.80 1.118
523.90 1.118
524.00 1.119
524.10 1.119
524.20 1.12
524.30 1.12
524.40 1.121
524.50 1.121
524.60 1.121
524.70 1.122
524.80 1.122
524.90 1.123
525.00 1.123
525.10 1.124
525.20 1.124
525.30 1.125
525.40 1.125
525.50 1.126
525.60 1.126
525.70 1.127
525.80 1.127
525.90 1.127
526.00 1.128
526.10 1.128
526.20 1.129
526.30 1.129
526.40 1.13
526.50 1.13
526.60 1.131
526.70 1.131
526.80 1.132
526.90 1.132
527.00 1.132
527.10 1.133
527.20 1.133
527.30 1.134
527.40 1.134
527.50 1.135
527.60 1.135
527.70 1.136
527.80 1.136
527.90 1.137
528.00 1.137
528.10 1.137
528.20 1.138
528.30 1.138
528.40 1.139
528.50 1.139
528.60 1.14
528.70 1.14
528.80 1.141
528.90 1.141
529.00 1.142
529.10 1.142
529.20 1.142
529.30 1.143
529.40 1.143
529.50 1.144
529.60 1.144
529.70 1.145
529.80 1.145
529.90 1.146
530.00 1.146
530.10 1.146
530.20 1.147
530.30 1.147
530.40 1.148
530.50 1.148
530.60 1.149
530.70 1.149
530.80 1.149
530.90 1.15
531.00 1.15
531.10 1.151
531.20 1.151
531.30 1.152
531.40 1.152
531.50 1.153
531.60 1.153
531.70 1.153
531.80 1.154
531.90 1.154
532.00 1.155
532.10 1.155
532.20 1.156
532.30 1.156
532.40 1.156
532.50 1.157
532.60 1.157
532.70 1.158
532.80 1.158
532.90 1.159
533.00 1.159
533.10 1.16
533.20 1.16
533.30 1.16
533.40 1.161
533.50 1.161
533.60 1.162
533.70 1.162
533.80 1.163
533.90 1.163
534.00 1.163
534.10 1.164
534.20 1.164
534.30 1.165
534.40 1.165
534.50 1.166
534.60 1.166
534.70 1.166
534.80 1.167
534.90 1.167
535.00 1.168
535.10 1.168
535.20 1.169
535.30 1.169
535.40 1.169
535.50 1.17
535.60 1.17
535.70 1.171
535.80 1.171
535.90 1.171
536.00 1.172
536.10 1.172
536.20 1.173
536.30 1.173
536.40 1.174
536.50 1.174
536.60 1.174
536.70 1.175
536.80 1.175
536.90 1.176
537.00 1.176
537.10 1.177
537.20 1.177
537.30 1.177
537.40 1.178
537.50 1.178
537.60 1.179
537.70 1.179
537.80 1.179
537.90 1.18
538.00 1.18
538.10 1.181
538.20 1.181
538.30 1.181
538.40 1.182
538.50 1.182
538.60 1.183
538.70 1.183
538.80 1.183
538.90 1.184
539.00 1.184
539.10 1.185
539.20 1.185
539.30 1.186
539.40 1.186
539.50 1.186
539.60 1.187
539.70 1.187
539.80 1.188
539.90 1.188
540.00 1.188
540.10 1.189
540.20 1.189
540.30 1.19
540.40 1.19
540.50 1.19
540.60 1.191
540.70 1.191
540.80 1.192
540.90 1.192
541.00 1.192
541.10 1.193
541.20 1.193
541.30 1.194
541.40 1.194
541.50 1.194
541.60 1.195
541.70 1.195
541.80 1.196
541.90 1.196
542.00 1.196
542.10 1.197
542.20 1.197
542.30 1.197
542.40 1.198
542.50 1.198
542.60 1.199
542.70 1.199
542.80 1.199
542.90 1.2
543.00 1.2
543.10 1.201
543.20 1.201
543.30 1.201
543.40 1.202
543.50 1.202
543.60 1.202
543.70 1.203
543.80 1.203
543.90 1.204
544.00 1.204
544.10 1.204
544.20 1.205
544.30 1.205
544.40 1.206
544.50 1.206
544.60 1.206
544.70 1.207
544.80 1.207
544.90 1.207
545.00 1.208
545.10 1.208
545.20 1.209
545.30 1.209
545.40 1.209
545.50 1.21
545.60 1.21
545.70 1.21
545.80 1.211
545.90 1.211
546.00 1.212
546.10 1.212
546.20 1.212
546.30 1.213
546.40 1.213
546.50 1.213
546.60 1.214
546.70 1.214
546.80 1.215
546.90 1.215
547.00 1.215
547.10 1.216
547.20 1.216
547.30 1.216
547.40 1.217
547.50 1.217
547.60 1.217
547.70 1.218
547.80 1.218
547.90 1.219
548.00 1.219
548.10 1.219
548.20 1.22
548.30 1.22
548.40 1.22
548.50 1.221
548.60 1.221
548.70 1.221
548.80 1.222
548.90 1.222
549.00 1.222
549.10 1.223
549.20 1.223
549.30 1.224
549.40 1.224
549.50 1.224
549.60 1.225
549.70 1.225
549.80 1.225
549.90 1.226
550.00 1.226
550.10 1.226
550.20 1.227
550.30 1.227
550.40 1.227
550.50 1.228
550.60 1.228
550.70 1.228
550.80 1.229
550.90 1.229
551.00 1.229
551.10 1.23
551.20 1.23
551.30 1.23
551.40 1.231
551.50 1.231
551.60 1.231
551.70 1.232
551.80 1.232
551.90 1.232
552.00 1.233
552.10 1.233
552.20 1.234
552.30 1.234
552.40 1.234
552.50 1.234
552.60 1.235
552.70 1.235
552.80 1.235
552.90 1.236
553.00 1.236
553.10 1.236
553.20 1.237
553.30 1.237
553.40 1.237
553.50 1.238
553.60 1.238
553.70 1.238
553.80 1.239
553.90 1.239
554.00 1.239
554.10 1.24
554.20 1.24
554.30 1.24
554.40 1.241
554.50 1.241
554.60 1.241
554.70 1.242
554.80 1.242
554.90 1.242
555.00 1.242
555.10 1.243
555.20 1.243
555.30 1.243
555.40 1.244
555.50 1.244
555.60 1.244
555.70 1.245
555.80 1.245
555.90 1.245
556.00 1.246
556.10 1.246
556.20 1.246
556.30 1.246
556.40 1.247
556.50 1.247
556.60 1.247
556.70 1.248
556.80 1.248
556.90 1.248
557.00 1.249
557.10 1.249
557.20 1.249
557.30 1.249
557.40 1.25
557.50 1.25
557.60 1.25
557.70 1.251
557.80 1.251
557.90 1.251
558.00 1.252
558.10 1.252
558.20 1.252
558.30 1.252
558.40 1.253
558.50 1.253
558.60 1.253
558.70 1.254
558.80 1.254
558.90 1.254
559.00 1.254
559.10 1.255
559.20 1.255
559.30 1.255
559.40 1.256
559.50 1.256
559.60 1.256
559.70 1.256
559.80 1.257
559.90 1.257
560.00 1.257
560.10 1.258
560.20 1.258
560.30 1.258
560.40 1.258
560.50 1.259
560.60 1.259
560.70 1.259
560.80 1.259
560.90 1.26
561.00 1.26
561.10 1.26
561.20 1.261
561.30 1.261
561.40 1.261
561.50 1.261
561.60 1.262
561.70 1.262
561.80 1.262
561.90 1.262
562.00 1.263
562.10 1.263
562.20 1.263
562.30 1.264
562.40 1.264
562.50 1.264
562.60 1.264
562.70 1.265
562.80 1.265
562.90 1.265
563.00 1.265
563.10 1.266
563.20 1.266
563.30 1.266
563.40 1.266
563.50 1.267
563.60 1.267
563.70 1.267
563.80 1.267
563.90 1.268
564.00 1.268
564.10 1.268
564.20 1.268
564.30 1.269
564.40 1.269
564.50 1.269
564.60 1.269
564.70 1.27
564.80 1.27
564.90 1.27
565.00 1.27
565.10 1.271
565.20 1.271
565.30 1.271
565.40 1.271
565.50 1.272
565.60 1.272
565.70 1.272
565.80 1.272
565.90 1.272
566.00 1.273
566.10 1.273
566.20 1.273
566.30 1.273
566.40 1.274
566.50 1.274
566.60 1.274
566.70 1.274
566.80 1.274
566.90 1.275
567.00 1.275
567.10 1.275
567.20 1.275
567.30 1.276
567.40 1.276
567.50 1.276
567.60 1.276
567.70 1.276
567.80 1.277
567.90 1.277
568.00 1.277
568.10 1.277
568.20 1.277
568.30 1.278
568.40 1.278
568.50 1.278
568.60 1.278
568.70 1.278
568.80 1.279
568.90 1.279
569.00 1.279
569.10 1.279
569.20 1.279
569.30 1.28
569.40 1.28
569.50 1.28
569.60 1.28
569.70 1.28
569.80 1.281
569.90 1.281
570.00 1.281
570.10 1.281
570.20 1.281
570.30 1.282
570.40 1.282
570.50 1.282
570.60 1.282
570.70 1.282
570.80 1.282
570.90 1.283
571.00 1.283
571.10 1.283
571.20 1.283
571.30 1.283
571.40 1.284
571.50 1.284
571.60 1.284
571.70 1.284
571.80 1.284
571.90 1.284
572.00 1.285
572.10 1.285
572.20 1.285
572.30 1.285
572.40 1.285
572.50 1.285
572.60 1.286
572.70 1.286
572.80 1.286
572.90 1.286
573.00 1.286
573.10 1.286
573.20 1.287
573.30 1.287
573.40 1.287
573.50 1.287
573.60 1.287
573.70 1.287
573.80 1.287
573.90 1.288
574.00 1.288
574.10 1.288
574.20 1.288
574.30 1.288
574.40 1.288
574.50 1.289
574.60 1.289
574.70 1.289
574.80 1.289
574.90 1.289
575.00 1.289
575.10 1.289
575.20 1.29
575.30 1.29
575.40 1.29
575.50 1.29
575.60 1.29
575.70 1.29
575.80 1.29
575.90 1.291
576.00 1.291
576.10 1.291
576.20 1.291
576.30 1.291
576.40 1.291
576.50 1.291
576.60 1.291
576.70 1.292
576.80 1.292
576.90 1.292
577.00 1.292
577.10 1.292
577.20 1.292
577.30 1.292
577.40 1.292
577.50 1.293
577.60 1.293
577.70 1.293
577.80 1.293
577.90 1.293
578.00 1.293
578.10 1.293
578.20 1.293
578.30 1.293
578.40 1.294
578.50 1.294
578.60 1.294
578.70 1.294
578.80 1.294
578.90 1.294
579.00 1.294
579.10 1.294
579.20 1.294
579.30 1.294
579.40 1.295
579.50 1.295
579.60 1.295
579.70 1.295
579.80 1.295
579.90 1.295
580.00 1.295
580.10 1.295
580.20 1.295
580.30 1.295
580.40 1.295
580.50 1.296
580.60 1.296
580.70 1.296
580.80 1.296
580.90 1.296
581.00 1.296
581.10 1.296
581.20 1.296
581.30 1.296
581.40 1.296
581.50 1.296
581.60 1.296
581.70 1.296
581.80 1.296
581.90 1.297
582.00 1.297
582.10 1.297
582.20 1.297
582.30 1.297
582.40 1.297
582.50 1.297
582.60 1.297
582.70 1.297
582.80 1.297
582.90 1.297
583.00 1.297
583.10 1.297
583.20 1.297
583.30 1.297
583.40 1.297
583.50 1.297
583.60 1.297
583.70 1.297
583.80 1.297
583.90 1.297
584.00 1.298
584.10 1.298
584.20 1.298
584.30 1.298
584.40 1.298
584.50 1.298
584.60 1.298
584.70 1.298
584.80 1.298
584.90 1.298
585.00 1.298
585.10 1.298
585.20 1.298
585.30 1.298
585.40 1.298
585.50 1.298
585.60 1.298
585.70 1.298
585.80 1.298
585.90 1.298
586.00 1.298
586.10 1.298
586.20 1.298
586.30 1.298
586.40 1.298
586.50 1.298
586.60 1.298
586.70 1.298
586.80 1.298
586.90 1.298
587.00 1.298
587.10 1.298
587.20 1.298
587.30 1.298
587.40 1.298
587.50 1.298
587.60 1.298
587.70 1.298
587.80 1.298
587.90 1.298
588.00 1.298
588.10 1.298
588.20 1.298
588.30 1.298
588.40 1.298
588.50 1.298
588.60 1.298
588.70 1.297
588.80 1.297
588.90 1.297
589.00 1.297
589.10 1.297
589.20 1.297
589.30 1.297
589.40 1.297
589.50 1.297
589.60 1.297
589.70 1.297
589.80 1.297
589.90 1.297
590.00 1.297
590.10 1.297
590.20 1.297
590.30 1.297
590.40 1.297
590.50 1.297
590.60 1.297
590.70 1.296
590.80 1.296
590.90 1.296
591.00 1.296
591.10 1.296
591.20 1.296
591.30 1.296
591.40 1.296
591.50 1.296
591.60 1.296
591.70 1.296
591.80 1.296
591.90 1.296
592.00 1.296
592.10 1.296
592.20 1.295
592.30 1.295
592.40 1.295
592.50 1.295
592.60 1.295
592.70 1.295
592.80 1.295
592.90 1.295
593.00 1.295
593.10 1.295
593.20 1.295
593.30 1.294
593.40 1.294
593.50 1.294
593.60 1.294
593.70 1.294
593.80 1.294
593.90 1.294
594.00 1.294
594.10 1.294
594.20 1.294
594.30 1.293
594.40 1.293
594.50 1.293
594.60 1.293
594.70 1.293
594.80 1.293
594.90 1.293
595.00 1.293
595.10 1.293
595.20 1.292
595.30 1.292
595.40 1.292
595.50 1.292
595.60 1.292
595.70 1.292
595.80 1.292
595.90 1.292
596.00 1.291
596.10 1.291
596.20 1.291
596.30 1.291
596.40 1.291
596.50 1.291
596.60 1.291
596.70 1.291
596.80 1.29
596.90 1.29
597.00 1.29
597.10 1.29
597.20 1.29
597.30 1.29
597.40 1.289
597.50 1.289
597.60 1.289
597.70 1.289
597.80 1.289
597.90 1.289
598.00 1.289
598.10 1.288
598.20 1.288
598.30 1.288
598.40 1.288
598.50 1.288
598.60 1.288
598.70 1.287
598.80 1.287
598.90 1.287
599.00 1.287
599.10 1.287
599.20 1.287
599.30 1.286
599.40 1.286
599.50 1.286
599.60 1.286
599.70 1.286
599.80 1.285
599.90 1.285
600.00 1.285
600.10 1.285
600.20 1.285
600.30 1.284
600.40 1.284
600.50 1.284
600.60 1.284
600.70 1.284
600.80 1.283
600.90 1.283
601.00 1.283
601.10 1.283
601.20 1.283
601.30 1.282
601.40 1.282
601.50 1.282
601.60 1.282
601.70 1.282
601.80 1.281
601.90 1.281
602.00 1.281
602.10 1.281
602.20 1.28
602.30 1.28
602.40 1.28
602.50 1.28
602.60 1.28
602.70 1.279
602.80 1.279
602.90 1.279
603.00 1.279
603.10 1.278
603.20 1.278
603.30 1.278
603.40 1.278
603.50 1.277
603.60 1.277
603.70 1.277
603.80 1.277
603.90 1.276
604.00 1.276
604.10 1.276
604.20 1.276
604.30 1.275
604.40 1.275
604.50 1.275
604.60 1.275
604.70 1.274
604.80 1.274
604.90 1.274
605.00 1.274
605.10 1.273
605.20 1.273
605.30 1.273
605.40 1.272
605.50 1.272
605.60 1.272
605.70 1.272
605.80 1.271
605.90 1.271
606.00 1.271
606.10 1.27
606.20 1.27
606.30 1.27
606.40 1.27
606.50 1.269
606.60 1.269
606.70 1.269
606.80 1.268
606.90 1.268
607.00 1.268
607.10 1.268
607.20 1.267
607.30 1.267
607.40 1.267
607.50 1.266
607.60 1.266
607.70 1.266
607.80 1.265
607.90 1.265
608.00 1.265
608.10 1.264
608.20 1.264
608.30 1.264
608.40 1.263
608.50 1.263
608.60 1.263
608.70 1.262
608.80 1.262
608.90 1.262
609.00 1.261
609.10 1.261
609.20 1.261
609.30 1.26
609.40 1.26
609.50 1.26
609.60 1.259
609.70 1.259
609.80 1.259
609.90 1.258
610.00 1.258
610.10 1.258
610.20 1.257
610.30 1.257
610.40 1.257
610.50 1.256
610.60 1.256
610.70 1.255
610.80 1.255
610.90 1.255
611.00 1.254
611.10 1.254
611.20 1.254
611.30 1.253
611.40 1.253
611.50 1.252
611.60 1.252
611.70 1.252
611.80 1.251
611.90 1.251
612.00 1.251
612.10 1.25
612.20 1.25
612.30 1.249
612.40 1.249
612.50 1.249
612.60 1.248
612.70 1.248
612.80 1.247
612.90 1.247
613.00 1.247
613.10 1.246
613.20 1.246
613.30 1.245
613.40 1.245
613.50 1.245
613.60 1.244
613.70 1.244
613.80 1.243
613.90 1.243
614.00 1.242
614.10 1.242
614.20 1.242
614.30 1.241
614.40 1.241
614.50 1.24
614.60 1.24
614.70 1.239
614.80 1.239
614.90 1.238
615.00 1.238
615.10 1.238
615.20 1.237
615.30 1.237
615.40 1.236
615.50 1.236
615.60 1.235
615.70 1.235
615.80 1.234
615.90 1.234
616.00 1.233
616.10 1.233
616.20 1.232
616.30 1.232
616.40 1.232
616.50 1.231
616.60 1.231
616.70 1.23
616.80 1.23
616.90 1.229
617.00 1.229
617.10 1.228
617.20 1.228
617.30 1.227
617.40 1.227
617.50 1.226
617.60 1.226
617.70 1.225
617.80 1.225
617.90 1.224
618.00 1.224
618.10 1.223
618.20 1.223
618.30 1.222
618.40 1.222
618.50 1.221
618.60 1.221
618.70 1.22
618.80 1.22
618.90 1.219
619.00 1.219
619.10 1.218
619.20 1.218
619.30 1.217
619.40 1.216
619.50 1.216
619.60 1.215
619.70 1.215
619.80 1.214
619.90 1.214
620.00 1.213
620.10 1.213
620.20 1.212
620.30 1.212
620.40 1.211
620.50 1.211
620.60 1.21
620.70 1.209
620.80 1.209
620.90 1.208
621.00 1.208
621.10 1.207
621.20 1.207
621.30 1.206
621.40 1.206
621.50 1.205
621.60 1.204
621.70 1.204
621.80 1.203
621.90 1.203
622.00 1.202
622.10 1.202
622.20 1.201
622.30 1.201
622.40 1.2
622.50 1.199
622.60 1.199
622.70 1.198
622.80 1.198
622.90 1.197
623.00 1.197
623.10 1.196
623.20 1.195
623.30 1.195
623.40 1.194
623.50 1.194
623.60 1.193
623.70 1.192
623.80 1.192
623.90 1.191
624.00 1.191
624.10 1.19
624.20 1.189
624.30 1.189
624.40 1.188
624.50 1.188
624.60 1.187
624.70 1.186
624.80 1.186
624.90 1.185
625.00 1.185
625.10 1.184
625.20 1.183
625.30 1.183
625.40 1.182
625.50 1.181
625.60 1.181
625.70 1.18
625.80 1.18
625.90 1.179
626.00 1.178
626.10 1.178
626.20 1.177
626.30 1.176
626.40 1.176
626.50 1.175
626.60 1.174
626.70 1.174
626.80 1.173
626.90 1.172
627.00 1.172
627.10 1.171
627.20 1.171
627.30 1.17
627.40 1.169
627.50 1.169
627.60 1.168
627.70 1.167
627.80 1.167
627.90 1.166
628.00 1.165
628.10 1.165
628.20 1.164
628.30 1.163
628.40 1.163
628.50 1.162
628.60 1.161
628.70 1.16
628.80 1.16
628.90 1.159
629.00 1.158
629.10 1.158
629.20 1.157
629.30 1.156
629.40 1.156
629.50 1.155
629.60 1.154
629.70 1.154
629.80 1.153
629.90 1.152
630.00 1.152
630.10 1.151
630.20 1.15
630.30 1.149
630.40 1.149
630.50 1.148
630.60 1.147
630.70 1.147
630.80 1.146
630.90 1.145
631.00 1.144
631.10 1.144
631.20 1.143
631.30 1.142
631.40 1.142
631.50 1.141
631.60 1.14
631.70 1.139
631.80 1.139
631.90 1.138
632.00 1.137
632.10 1.137
632.20 1.136
632.30 1.135
632.40 1.134
632.50 1.134
632.60 1.133
632.70 1.132
632.80 1.131
632.90 1.131
633.00 1.13
633.10 1.129
633.20 1.128
633.30 1.128
633.40 1.127
633.50 1.126
633.60 1.125
633.70 1.125
633.80 1.124
633.90 1.123
634.00 1.122
634.10 1.122
634.20 1.121
634.30 1.12
634.40 1.119
634.50 1.118
634.60 1.118
634.70 1.117
634.80 1.116
634.90 1.115
635.00 1.115
635.10 1.114
635.20 1.113
635.30 1.112
635.40 1.111
635.50 1.111
635.60 1.11
635.70 1.109
635.80 1.108
635.90 1.108
636.00 1.107
636.10 1.106
636.20 1.105
636.30 1.104
636.40 1.104
636.50 1.103
636.60 1.102
636.70 1.101
636.80 1.1
636.90 1.1
637.00 1.099
637.10 1.098
637.20 1.097
637.30 1.096
637.40 1.096
637.50 1.095
637.60 1.094
637.70 1.093
637.80 1.092
637.90 1.091
638.00 1.091
638.10 1.09
638.20 1.089
638.30 1.088
638.40 1.087
638.50 1.087
638.60 1.086
638.70 1.085
638.80 1.084
638.90 1.083
639.00 1.082
639.10 1.082
639.20 1.081
639.30 1.08
639.40 1.079
639.50 1.078
639.60 1.077
639.70 1.077
639.80 1.076
639.90 1.075
640.00 1.074
640.10 1.073
640.20 1.072
640.30 1.072
640.40 1.071
640.50 1.07
640.60 1.069
640.70 1.068
640.80 1.067
640.90 1.066
641.00 1.066
641.10 1.065
641.20 1.064
641.30 1.063
641.40 1.062
641.50 1.061
641.60 1.06
641.70 1.059
641.80 1.059
641.90 1.058
642.00 1.057
642.10 1.056
642.20 1.055
642.30 1.054
642.40 1.053
642.50 1.052
642.60 1.051
642.70 1.05
642.80 1.05
642.90 1.049
643.00 1.048
643.10 1.047
643.20 1.046
643.30 1.045
643.40 1.044
643.50 1.043
643.60 1.042
643.70 1.041
643.80 1.04
643.90 1.04
644.00 1.039
644.10 1.038
644.20 1.037
644.30 1.036
644.40 1.035
644.50 1.034
644.60 1.033
644.70 1.032
644.80 1.031
644.90 1.03
645.00 1.03
645.10 1.029
645.20 1.028
645.30 1.027
645.40 1.026
645.50 1.025
645.60 1.024
645.70 1.023
645.80 1.022
645.90 1.021
646.00 1.02
646.10 1.019
646.20 1.018
646.30 1.018
646.40 1.017
646.50 1.016
646.60 1.015
646.70 1.014
646.80 1.013
646.90 1.012
647.00 1.011
647.10 1.01
647.20 1.009
647.30 1.008
647.40 1.007
647.50 1.006
647.60 1.005
647.70 1.005
647.80 1.004
647.90 1.003
648.00 1.002
648.10 1.001
648.20 0.9998
648.30 0.9989
648.40 0.9979
648.50 0.997
648.60 0.996
648.70 0.9951
648.80 0.9941
648.90 0.9931
649.00 0.9922
649.10 0.9912
649.20 0.9903
649.30 0.9893
649.40 0.9884
649.50 0.9874
649.60 0.9864
649.70 0.9855
649.80 0.9845
649.90 0.9836
650.00 0.9826
650.10 0.9816
650.20 0.9807
650.30 0.9797
650.40 0.9787
650.50 0.9778
650.60 0.9768
650.70 0.9758
650.80 0.9748
650.90 0.9739
651.00 0.9729
651.10 0.9719
651.20 0.971
651.30 0.97
651.40 0.969
651.50 0.968
651.60 0.967
651.70 0.966
651.80 0.9651
651.90 0.9641
652.00 0.9631
652.10 0.9621
652.20 0.9611
652.30 0.9601
652.40 0.9592
652.50 0.9582
652.60 0.9572
652.70 0.9562
652.80 0.9552
652.90 0.9542
653.00 0.9532
653.10 0.9522
653.20 0.9512
653.30 0.9503
653.40 0.9493
653.50 0.9483
653.60 0.9473
653.70 0.9463
653.80 0.9453
653.90 0.9443
654.00 0.9433
654.10 0.9423
654.20 0.9413
654.30 0.9403
654.40 0.9393
654.50 0.9383
654.60 0.9373
654.70 0.9363
654.80 0.9353
654.90 0.9343
655.00 0.9333
655.10 0.9323
655.20 0.9313
655.30 0.9303
655.40 0.9293
655.50 0.9283
655.60 0.9273
655.70 0.9263
655.80 0.9252
655.90 0.9242
656.00 0.9232
656.10 0.9222
656.20 0.9212
656.30 0.9202
656.40 0.9192
656.50 0.9182
656.60 0.9172
656.70 0.9162
656.80 0.9151
656.90 0.9141
657.00 0.9131
657.10 0.9121
657.20 0.9111
657.30 0.9101
657.40 0.909
657.50 0.908
657.60 0.907
657.70 0.906
657.80 0.905
657.90 0.904
658.00 0.9029
658.10 0.9019
658.20 0.9009
658.30 0.8999
658.40 0.8989
658.50 0.8978
658.60 0.8968
658.70 0.8958
658.80 0.8948
658.90 0.8937
659.00 0.8927
659.10 0.8917
659.20 0.8907
659.30 0.8896
659.40 0.8886
659.50 0.8876
659.60 0.8866
659.70 0.8855
659.80 0.8845
659.90 0.8835
660.00 0.8825
660.10 0.8815
660.20 0.8804
660.30 0.8794
660.40 0.8784
660.50 0.8773
660.60 0.8763
660.70 0.8753
660.80 0.8743
660.90 0.8732
661.00 0.8722
661.10 0.8712
661.20 0.8701
661.30 0.8691
661.40 0.8681
661.50 0.867
661.60 0.866
661.70 0.865
661.80 0.8639
661.90 0.8629
662.00 0.8619
662.10 0.8608
662.20 0.8598
662.30 0.8587
662.40 0.8577
662.50 0.8567
662.60 0.8556
662.70 0.8546
662.80 0.8535
662.90 0.8525
663.00 0.8515
663.10 0.8504
663.20 0.8494
663.30 0.8483
663.40 0.8473
663.50 0.8463
663.60 0.8452
663.70 0.8442
663.80 0.8431
663.90 0.8421
664.00 0.841
664.10 0.84
664.20 0.839
664.30 0.8379
664.40 0.8369
664.50 0.8358
664.60 0.8348
664.70 0.8337
664.80 0.8327
664.90 0.8317
665.00 0.8306
665.10 0.8296
665.20 0.8285
665.30 0.8275
665.40 0.8264
665.50 0.8254
665.60 0.8243
665.70 0.8233
665.80 0.8222
665.90 0.8212
666.00 0.8201
666.10 0.8191
666.20 0.818
666.30 0.817
666.40 0.8159
666.50 0.8149
666.60 0.8138
666.70 0.8128
666.80 0.8117
666.90 0.8107
667.00 0.8096
667.10 0.8086
667.20 0.8075
667.30 0.8065
667.40 0.8054
667.50 0.8044
667.60 0.8033
667.70 0.8023
667.80 0.8012
667.90 0.8002
668.00 0.7991
668.10 0.7981
668.20 0.797
668.30 0.796
668.40 0.7949
668.50 0.7939
668.60 0.7928
668.70 0.7917
668.80 0.7907
668.90 0.7896
669.00 0.7886
669.10 0.7875
669.20 0.7865
669.30 0.7854
669.40 0.7844
669.50 0.7833
669.60 0.7823
669.70 0.7812
669.80 0.7801
669.90 0.7791
670.00 0.778
670.10 0.777
670.20 0.7759
670.30 0.7749
670.40 0.7738
670.50 0.7727
670.60 0.7717
670.70 0.7706
670.80 0.7696
670.90 0.7685
671.00 0.7675
671.10 0.7664
671.20 0.7654
671.30 0.7643
671.40 0.7633
671.50 0.7622
671.60 0.7611
671.70 0.7601
671.80 0.759
671.90 0.758
672.00 0.7569
672.10 0.7559
672.20 0.7548
672.30 0.7537
672.40 0.7527
672.50 0.7516
672.60 0.7506
672.70 0.7495
672.80 0.7485
672.90 0.7474
673.00 0.7463
673.10 0.7453
673.20 0.7442
673.30 0.7432
673.40 0.7421
673.50 0.7411
673.60 0.74
673.70 0.739
673.80 0.7379
673.90 0.7369
674.00 0.7358
674.10 0.7348
674.20 0.7337
674.30 0.7326
674.40 0.7316
674.50 0.7305
674.60 0.7295
674.70 0.7284
674.80 0.7274
674.90 0.7263
675.00 0.7253
675.10 0.7242
675.20 0.7231
675.30 0.7221
675.40 0.721
675.50 0.72
675.60 0.7189
675.70 0.7179
675.80 0.7168
675.90 0.7158
676.00 0.7147
676.10 0.7137
676.20 0.7126
676.30 0.7116
676.40 0.7105
676.50 0.7094
676.60 0.7084
676.70 0.7073
676.80 0.7063
676.90 0.7052
677.00 0.7042
677.10 0.7031
677.20 0.7021
677.30 0.701
677.40 0.7
677.50 0.6989
677.60 0.6979
677.70 0.6968
677.80 0.6958
677.90 0.6948
678.00 0.6937
678.10 0.6927
678.20 0.6916
678.30 0.6906
678.40 0.6895
678.50 0.6885
678.60 0.6874
678.70 0.6864
678.80 0.6853
678.90 0.6843
679.00 0.6832
679.10 0.6822
679.20 0.6811
679.30 0.6801
679.40 0.679
679.50 0.678
679.60 0.6769
679.70 0.6759
679.80 0.6749
679.90 0.6738
680.00 0.6728
680.10 0.6717
680.20 0.6707
680.30 0.6696
680.40 0.6686
680.50 0.6675
680.60 0.6665
680.70 0.6654
680.80 0.6644
680.90 0.6633
681.00 0.6623
681.10 0.6613
681.20 0.6602
681.30 0.6592
681.40 0.6581
681.50 0.6571
681.60 0.656
681.70 0.655
681.80 0.6539
681.90 0.6529
682.00 0.6519
682.10 0.6508
682.20 0.6498
682.30 0.6487
682.40 0.6477
682.50 0.6467
682.60 0.6456
682.70 0.6446
682.80 0.6435
682.90 0.6425
683.00 0.6415
683.10 0.6404
683.20 0.6394
683.30 0.6383
683.40 0.6373
683.50 0.6363
683.60 0.6352
683.70 0.6342
683.80 0.6331
683.90 0.6321
684.00 0.6311
684.10 0.63
684.20 0.629
684.30 0.628
684.40 0.6269
684.50 0.6259
684.60 0.6249
684.70 0.6238
684.80 0.6228
684.90 0.6218
685.00 0.6207
685.10 0.6197
685.20 0.6187
685.30 0.6176
685.40 0.6166
685.50 0.6156
685.60 0.6145
685.70 0.6135
685.80 0.6125
685.90 0.6115
686.00 0.6104
686.10 0.6094
686.20 0.6084
686.30 0.6073
686.40 0.6063
686.50 0.6053
686.60 0.6043
686.70 0.6032
686.80 0.6022
686.90 0.6012
687.00 0.6002
687.10 0.5991
687.20 0.5981
687.30 0.5971
687.40 0.5961
687.50 0.5951
687.60 0.594
687.70 0.593
687.80 0.592
687.90 0.591
688.00 0.59
688.10 0.5889
688.20 0.5879
688.30 0.5869
688.40 0.5859
688.50 0.5849
688.60 0.5838
688.70 0.5828
688.80 0.5818
688.90 0.5808
689.00 0.5798
689.10 0.5788
689.20 0.5778
689.30 0.5767
689.40 0.5757
689.50 0.5747
689.60 0.5737
689.70 0.5727
689.80 0.5717
689.90 0.5707
690.00 0.5697
690.10 0.5687
690.20 0.5677
690.30 0.5667
690.40 0.5657
690.50 0.5647
690.60 0.5637
690.70 0.5627
690.80 0.5617
690.90 0.5607
691.00 0.5597
691.10 0.5587
691.20 0.5577
691.30 0.5567
691.40 0.5557
691.50 0.5547
691.60 0.5537
691.70 0.5527
691.80 0.5517
691.90 0.5507
692.00 0.5497
692.10 0.5487
692.20 0.5477
692.30 0.5467
692.40 0.5457
692.50 0.5447
692.60 0.5437
692.70 0.5427
692.80 0.5418
692.90 0.5408
693.00 0.5398
693.10 0.5388
693.20 0.5378
693.30 0.5368
693.40 0.5358
693.50 0.5348
693.60 0.5339
693.70 0.5329
693.80 0.5319
693.90 0.5309
694.00 0.5299
694.10 0.5289
694.20 0.5279
694.30 0.527
694.40 0.526
694.50 0.525
694.60 0.524
694.70 0.523
694.80 0.5221
694.90 0.5211
695.00 0.5201
695.10 0.5191
695.20 0.5182
695.30 0.5172
695.40 0.5163
695.50 0.5153
695.60 0.5144
695.70 0.5134
695.80 0.5125
695.90 0.5115
696.00 0.5106
696.10 0.5096
696.20 0.5087
696.30 0.5077
696.40 0.5068
696.50 0.5058
696.60 0.5049
696.70 0.5039
696.80 0.503
696.90 0.502
697.00 0.5011
697.10 0.5001
697.20 0.4992
697.30 0.4983
697.40 0.4973
697.50 0.4964
697.60 0.4954
697.70 0.4945
697.80 0.4935
697.90 0.4926
698.00 0.4917
698.10 0.4907
698.20 0.4898
698.30 0.4888
698.40 0.4879
698.50 0.487
698.60 0.486
698.70 0.4851
698.80 0.4842
698.90 0.4832
699.00 0.4823
699.10 0.4814
699.20 0.4804
699.30 0.4795
699.40 0.4785
699.50 0.4776
699.60 0.4767
699.70 0.4758
699.80 0.4748
699.90 0.4739
700.00 0.473
700.10 0.4721
700.20 0.4712
700.30 0.4703
700.40 0.4694
700.50 0.4685
700.60 0.4676
700.70 0.4667
700.80 0.4658
700.90 0.4649
701.00 0.464
701.10 0.4631
701.20 0.4622
701.30 0.4613
701.40 0.4604
701.50 0.4595
701.60 0.4586
701.70 0.4577
701.80 0.4568
701.90 0.456
702.00 0.4551
702.10 0.4542
702.20 0.4533
702.30 0.4524
702.40 0.4515
702.50 0.4506
702.60 0.4497
702.70 0.4488
702.80 0.448
702.90 0.4471
703.00 0.4462
703.10 0.4453
703.20 0.4444
703.30 0.4435
703.40 0.4427
703.50 0.4418
703.60 0.4409
703.70 0.44
703.80 0.4391
703.90 0.4382
704.00 0.4374
704.10 0.4365
704.20 0.4356
704.30 0.4347
704.40 0.4338
704.50 0.433
704.60 0.4321
704.70 0.4312
704.80 0.4303
704.90 0.4295
705.00 0.4286
705.10 0.4278
705.20 0.4269
705.30 0.4261
705.40 0.4253
705.50 0.4245
705.60 0.4236
705.70 0.4228
705.80 0.422
705.90 0.4212
706.00 0.4203
706.10 0.4195
706.20 0.4187
706.30 0.4179
706.40 0.4171
706.50 0.4162
706.60 0.4154
706.70 0.4146
706.80 0.4138
706.90 0.413
707.00 0.4121
707.10 0.4113
707.20 0.4105
707.30 0.4097
707.40 0.4089
707.50 0.4081
707.60 0.4073
707.70 0.4064
707.80 0.4056
707.90 0.4048
708.00 0.404
708.10 0.4032
708.20 0.4024
708.30 0.4016
708.40 0.4007
708.50 0.3999
708.60 0.3991
708.70 0.3983
708.80 0.3975
708.90 0.3967
709.00 0.3959
709.10 0.3951
709.20 0.3943
709.30 0.3935
709.40 0.3927
709.50 0.3918
709.60 0.391
709.70 0.3902
709.80 0.3894
709.90 0.3886
710.00 0.3878
710.10 0.3871
710.20 0.3863
710.30 0.3856
710.40 0.3848
710.50 0.3841
710.60 0.3833
710.70 0.3826
710.80 0.3818
710.90 0.3811
711.00 0.3803
711.10 0.3796
711.20 0.3789
711.30 0.3781
711.40 0.3774
711.50 0.3766
711.60 0.3759
711.70 0.3751
711.80 0.3744
711.90 0.3737
712.00 0.3729
712.10 0.3722
712.20 0.3714
712.30 0.3707
712.40 0.37
712.50 0.3692
712.60 0.3685
712.70 0.3677
712.80 0.367
712.90 0.3663
713.00 0.3655
713.10 0.3648
713.20 0.3641
713.30 0.3633
713.40 0.3626
713.50 0.3618
713.60 0.3611
713.70 0.3604
713.80 0.3596
713.90 0.3589
714.00 0.3582
714.10 0.3574
714.20 0.3567
714.30 0.356
714.40 0.3552
714.50 0.3545
714.60 0.3538
714.70 0.353
714.80 0.3523
714.90 0.3516
715.00 0.3509
715.10 0.3502
715.20 0.3495
715.30 0.3489
715.40 0.3482
715.50 0.3475
715.60 0.3469
715.70 0.3462
715.80 0.3455
715.90 0.3449
716.00 0.3442
716.10 0.3435
716.20 0.3429
716.30 0.3422
716.40 0.3415
716.50 0.3409
716.60 0.3402
716.70 0.3395
716.80 0.3389
716.90 0.3382
717.00 0.3376
717.10 0.3369
717.20 0.3362
717.30 0.3356
717.40 0.3349
717.50 0.3343
717.60 0.3336
717.70 0.3329
717.80 0.3323
717.90 0.3316
718.00 0.331
718.10 0.3303
718.20 0.3296
718.30 0.329
718.40 0.3283
718.50 0.3277
718.60 0.327
718.70 0.3264
718.80 0.3257
718.90 0.325
719.00 0.3244
719.10 0.3237
719.20 0.3231
719.30 0.3224
719.40 0.3218
719.50 0.3211
719.60 0.3205
719.70 0.3198
719.80 0.3192
719.90 0.3185
720.00 0.3179
720.10 0.3173
720.20 0.3167
720.30 0.3161
720.40 0.3155
720.50 0.315
720.60 0.3144
720.70 0.3138
720.80 0.3132
720.90 0.3127
721.00 0.3121
721.10 0.3115
721.20 0.3109
721.30 0.3104
721.40 0.3098
721.50 0.3092
721.60 0.3086
721.70 0.308
721.80 0.3075
721.90 0.3069
722.00 0.3063
722.10 0.3058
722.20 0.3052
722.30 0.3046
722.40 0.304
722.50 0.3035
722.60 0.3029
722.70 0.3023
722.80 0.3017
722.90 0.3012
723.00 0.3006
723.10 0.3
723.20 0.2995
723.30 0.2989
723.40 0.2983
723.50 0.2978
723.60 0.2972
723.70 0.2966
723.80 0.296
723.90 0.2955
724.00 0.2949
724.10 0.2943
724.20 0.2938
724.30 0.2932
724.40 0.2926
724.50 0.2921
724.60 0.2915
724.70 0.2909
724.80 0.2904
724.90 0.2898
725.00 0.2892
725.10 0.2888
725.20 0.2883
725.30 0.2878
725.40 0.2873
725.50 0.2868
725.60 0.2863
725.70 0.2858
725.80 0.2853
725.90 0.2848
726.00 0.2843
726.10 0.2838
726.20 0.2833
726.30 0.2828
726.40 0.2823
726.50 0.2819
726.60 0.2814
726.70 0.2809
726.80 0.2804
726.90 0.2799
727.00 0.2794
727.10 0.2789
727.20 0.2784
727.30 0.2779
727.40 0.2775
727.50 0.277
727.60 0.2765
727.70 0.276
727.80 0.2755
727.90 0.275
728.00 0.2745
728.10 0.274
728.20 0.2736
728.30 0.2731
728.40 0.2726
728.50 0.2721
728.60 0.2716
728.70 0.2711
728.80 0.2706
728.90 0.2702
729.00 0.2697
729.10 0.2692
729.20 0.2687
729.30 0.2682
729.40 0.2677
729.50 0.2673
729.60 0.2668
729.70 0.2663
729.80 0.2658
729.90 0.2653
730.00 0.2648
730.10 0.2645
730.20 0.2641
730.30 0.2638
730.40 0.2634
730.50 0.263
730.60 0.2627
730.70 0.2623
730.80 0.2619
730.90 0.2616
731.00 0.2612
731.10 0.2609
731.20 0.2605
731.30 0.2601
731.40 0.2598
731.50 0.2594
731.60 0.2591
731.70 0.2587
731.80 0.2583
731.90 0.258
732.00 0.2576
732.10 0.2573
732.20 0.2569
732.30 0.2566
732.40 0.2562
732.50 0.2558
732.60 0.2555
732.70 0.2551
732.80 0.2548
732.90 0.2544
733.00 0.254
733.10 0.2537
733.20 0.2533
733.30 0.253
733.40 0.2526
733.50 0.2523
733.60 0.2519
733.70 0.2516
733.80 0.2512
733.90 0.2508
734.00 0.2505
734.10 0.2501
734.20 0.2498
734.30 0.2494
734.40 0.2491
734.50 0.2487
734.60 0.2484
734.70 0.248
734.80 0.2477
734.90 0.2473
735.00 0.2469
735.10 0.2466
735.20 0.2462
735.30 0.2459
735.40 0.2455
735.50 0.2452
735.60 0.2448
735.70 0.2445
735.80 0.2441
735.90 0.2438
736.00 0.2434
736.10 0.2431
736.20 0.2427
736.30 0.2424
736.40 0.242
736.50 0.2417
736.60 0.2413
736.70 0.241
736.80 0.2406
736.90 0.2403
737.00 0.2399
737.10 0.2396
737.20 0.2392
737.30 0.2389
737.40 0.2385
737.50 0.2382
737.60 0.2378
737.70 0.2375
737.80 0.2371
737.90 0.2368
738.00 0.2364
738.10 0.2361
738.20 0.2357
738.30 0.2354
738.40 0.235
738.50 0.2347
738.60 0.2343
738.70 0.234
738.80 0.2336
738.90 0.2333
739.00 0.233
739.10 0.2326
739.20 0.2323
739.30 0.2319
739.40 0.2316
739.50 0.2312
739.60 0.2309
739.70 0.2305
739.80 0.2302
739.90 0.2298
740.00 0.2295
740.10 0.2293
740.20 0.2291
740.30 0.2289
740.40 0.2286
740.50 0.2284
740.60 0.2282
740.70 0.228
740.80 0.2278
740.90 0.2276
741.00 0.2273
741.10 0.2271
741.20 0.2269
741.30 0.2267
741.40 0.2265
741.50 0.2263
741.60 0.2261
741.70 0.2258
741.80 0.2256
741.90 0.2254
742.00 0.2252
742.10 0.225
742.20 0.2248
742.30 0.2246
742.40 0.2243
742.50 0.2241
742.60 0.2239
742.70 0.2237
742.80 0.2235
742.90 0.2233
743.00 0.2231
743.10 0.2228
743.20 0.2226
743.30 0.2224
743.40 0.2222
743.50 0.222
743.60 0.2218
743.70 0.2216
743.80 0.2214
743.90 0.2211
744.00 0.2209
744.10 0.2207
744.20 0.2205
744.30 0.2203
744.40 0.2201
744.50 0.2199
744.60 0.2197
744.70 0.2194
744.80 0.2192
744.90 0.219
745.00 0.2188
745.10 0.2186
745.20 0.2184
745.30 0.2182
745.40 0.218
745.50 0.2178
745.60 0.2175
745.70 0.2173
745.80 0.2171
745.90 0.2169
746.00 0.2167
746.10 0.2165
746.20 0.2163
746.30 0.2161
746.40 0.2159
746.50 0.2157
746.60 0.2154
746.70 0.2152
746.80 0.215
746.90 0.2148
747.00 0.2146
747.10 0.2144
747.20 0.2142
747.30 0.214
747.40 0.2138
747.50 0.2136
747.60 0.2134
747.70 0.2131
747.80 0.2129
747.90 0.2127
748.00 0.2125
748.10 0.2123
748.20 0.2121
748.30 0.2119
748.40 0.2117
748.50 0.2115
748.60 0.2113
748.70 0.2111
748.80 0.2109
748.90 0.2107
749.00 0.2104
749.10 0.2102
749.20 0.21
749.30 0.2098
749.40 0.2096
749.50 0.2094
749.60 0.2092
749.70 0.209
749.80 0.2088
749.90 0.2086
750.00 0.2084
750.10 0.2082
750.20 0.2081
750.30 0.208
750.40 0.2078
750.50 0.2077
750.60 0.2076
750.70 0.2074
750.80 0.2073
750.90 0.2072
751.00 0.207
751.10 0.2069
751.20 0.2068
751.30 0.2066
751.40 0.2065
751.50 0.2064
751.60 0.2062
751.70 0.2061
751.80 0.206
751.90 0.2058
752.00 0.2057
752.10 0.2056
752.20 0.2054
752.30 0.2053
752.40 0.2052
752.50 0.205
752.60 0.2049
752.70 0.2048
752.80 0.2046
752.90 0.2045
753.00 0.2044
753.10 0.2042
753.20 0.2041
753.30 0.204
753.40 0.2038
753.50 0.2037
753.60 0.2036
753.70 0.2034
753.80 0.2033
753.90 0.2032
754.00 0.203
754.10 0.2029
754.20 0.2028
754.30 0.2026
754.40 0.2025
754.50 0.2024
754.60 0.2023
754.70 0.2021
754.80 0.202
754.90 0.2019
755.00 0.2017
755.10 0.2016
755.20 0.2015
755.30 0.2013
755.40 0.2012
755.50 0.2011
755.60 0.2009
755.70 0.2008
755.80 0.2007
755.90 0.2005
756.00 0.2004
756.10 0.2003
756.20 0.2002
756.30 0.2
756.40 0.1999
756.50 0.1998
756.60 0.1996
756.70 0.1995
756.80 0.1994
756.90 0.1992
757.00 0.1991
757.10 0.199
757.20 0.1989
757.30 0.1987
757.40 0.1986
757.50 0.1985
757.60 0.1983
757.70 0.1982
757.80 0.1981
757.90 0.1979
758.00 0.1978
758.10 0.1977
758.20 0.1976
758.30 0.1974
758.40 0.1973
758.50 0.1972
758.60 0.197
758.70 0.1969
758.80 0.1968
758.90 0.1966
759.00 0.1965
759.10 0.1964
759.20 0.1963
759.30 0.1961
759.40 0.196
759.50 0.1959
759.60 0.1957
759.70 0.1956
759.80 0.1955
759.90 0.1954
760.00 0.1952
760.10 0.1951
760.20 0.1951
760.30 0.195
760.40 0.1949
760.50 0.1948
760.60 0.1947
760.70 0.1946
760.80 0.1945
760.90 0.1944
761.00 0.1943
761.10 0.1943
761.20 0.1942
761.30 0.1941
761.40 0.194
761.50 0.1939
761.60 0.1938
761.70 0.1937
761.80 0.1936
761.90 0.1935
762.00 0.1935
762.10 0.1934
762.20 0.1933
762.30 0.1932
762.40 0.1931
762.50 0.193
762.60 0.1929
762.70 0.1928
762.80 0.1927
762.90 0.1927
763.00 0.1926
763.10 0.1925
763.20 0.1924
763.30 0.1923
763.40 0.1922
763.50 0.1921
763.60 0.192
763.70 0.192
763.80 0.1919
763.90 0.1918
764.00 0.1917
764.10 0.1916
764.20 0.1915
764.30 0.1914
764.40 0.1913
764.50 0.1913
764.60 0.1912
764.70 0.1911
764.80 0.191
764.90 0.1909
765.00 0.1908
765.10 0.1907
765.20 0.1906
765.30 0.1906
765.40 0.1905
765.50 0.1904
765.60 0.1903
765.70 0.1902
765.80 0.1901
765.90 0.19
766.00 0.1899
766.10 0.1899
766.20 0.1898
766.30 0.1897
766.40 0.1896
766.50 0.1895
766.60 0.1894
766.70 0.1893
766.80 0.1893
766.90 0.1892
767.00 0.1891
767.10 0.189
767.20 0.1889
767.30 0.1888
767.40 0.1887
767.50 0.1886
767.60 0.1886
767.70 0.1885
767.80 0.1884
767.90 0.1883
768.00 0.1882
768.10 0.1881
768.20 0.188
768.30 0.188
768.40 0.1879
768.50 0.1878
768.60 0.1877
768.70 0.1876
768.80 0.1875
768.90 0.1874
769.00 0.1874
769.10 0.1873
769.20 0.1872
769.30 0.1871
769.40 0.187
769.50 0.1869
769.60 0.1868
769.70 0.1868
769.80 0.1867
769.90 0.1866
770.00 0.1865
770.10 0.1865
770.20 0.1864
770.30 0.1864
770.40 0.1863
770.50 0.1863
770.60 0.1863
770.70 0.1862
770.80 0.1862
770.90 0.1861
771.00 0.1861
771.10 0.1861
771.20 0.186
771.30 0.186
771.40 0.1859
771.50 0.1859
771.60 0.1859
771.70 0.1858
771.80 0.1858
771.90 0.1857
772.00 0.1857
772.10 0.1857
772.20 0.1856
772.30 0.1856
772.40 0.1855
772.50 0.1855
772.60 0.1855
772.70 0.1854
772.80 0.1854
772.90 0.1854
773.00 0.1853
773.10 0.1853
773.20 0.1852
773.30 0.1852
773.40 0.1852
773.50 0.1851
773.60 0.1851
773.70 0.185
773.80 0.185
773.90 0.185
774.00 0.1849
774.10 0.1849
774.20 0.1848
774.30 0.1848
774.40 0.1848
774.50 0.1847
774.60 0.1847
774.70 0.1846
774.80 0.1846
774.90 0.1846
775.00 0.1845
775.10 0.1845
775.20 0.1845
775.30 0.1844
775.40 0.1844
775.50 0.1843
775.60 0.1843
775.70 0.1843
775.80 0.1842
775.90 0.1842
776.00 0.1841
776.10 0.1841
776.20 0.1841
776.30 0.184
776.40 0.184
776.50 0.1839
776.60 0.1839
776.70 0.1839
776.80 0.1838
776.90 0.1838
777.00 0.1838
777.10 0.1837
777.20 0.1837
777.30 0.1836
777.40 0.1836
777.50 0.1836
777.60 0.1835
777.70 0.1835
777.80 0.1834
777.90 0.1834
778.00 0.1834
778.10 0.1833
778.20 0.1833
778.30 0.1832
778.40 0.1832
778.50 0.1832
778.60 0.1831
778.70 0.1831
778.80 0.1831
778.90 0.183
779.00 0.183
779.10 0.1829
779.20 0.1829
779.30 0.1829
779.40 0.1828
779.50 0.1828
779.60 0.1827
779.70 0.1827
779.80 0.1827
779.90 0.1826
780.00 0.1826
780.10 0.1826
780.20 0.1826
780.30 0.1827
780.40 0.1827
780.50 0.1827
780.60 0.1827
780.70 0.1828
780.80 0.1828
780.90 0.1828
781.00 0.1828
781.10 0.1829
781.20 0.1829
781.30 0.1829
781.40 0.1829
781.50 0.183
781.60 0.183
781.70 0.183
781.80 0.183
781.90 0.1831
782.00 0.1831
782.10 0.1831
782.20 0.1831
782.30 0.1832
782.40 0.1832
782.50 0.1832
782.60 0.1832
782.70 0.1833
782.80 0.1833
782.90 0.1833
783.00 0.1833
783.10 0.1834
783.20 0.1834
783.30 0.1834
783.40 0.1834
783.50 0.1834
783.60 0.1835
783.70 0.1835
783.80 0.1835
783.90 0.1835
784.00 0.1836
784.10 0.1836
784.20 0.1836
784.30 0.1836
784.40 0.1837
784.50 0.1837
784.60 0.1837
784.70 0.1837
784.80 0.1838
784.90 0.1838
785.00 0.1838
785.10 0.1838
785.20 0.1839
785.30 0.1839
785.40 0.1839
785.50 0.1839
785.60 0.1839
785.70 0.184
785.80 0.184
785.90 0.184
786.00 0.184
786.10 0.1841
786.20 0.1841
786.30 0.1841
786.40 0.1841
786.50 0.1842
786.60 0.1842
786.70 0.1842
786.80 0.1842
786.90 0.1843
787.00 0.1843
787.10 0.1843
787.20 0.1843
787.30 0.1843
787.40 0.1844
787.50 0.1844
787.60 0.1844
787.70 0.1844
787.80 0.1845
787.90 0.1845
788.00 0.1845
788.10 0.1845
788.20 0.1846
788.30 0.1846
788.40 0.1846
788.50 0.1846
788.60 0.1846
788.70 0.1847
788.80 0.1847
788.90 0.1847
789.00 0.1847
789.10 0.1848
789.20 0.1848
789.30 0.1848
789.40 0.1848
789.50 0.1849
789.60 0.1849
789.70 0.1849
789.80 0.1849
789.90 0.1849
790.00 0.185
790.10 0.185
790.20 0.1851
790.30 0.1851
790.40 0.1852
790.50 0.1852
790.60 0.1853
790.70 0.1854
790.80 0.1854
790.90 0.1855
791.00 0.1855
791.10 0.1856
791.20 0.1856
791.30 0.1857
791.40 0.1857
791.50 0.1858
791.60 0.1858
791.70 0.1859
791.80 0.186
791.90 0.186
792.00 0.1861
792.10 0.1861
792.20 0.1862
792.30 0.1862
792.40 0.1863
792.50 0.1863
792.60 0.1864
792.70 0.1864
792.80 0.1865
792.90 0.1866
793.00 0.1866
793.10 0.1867
793.20 0.1867
793.30 0.1868
793.40 0.1868
793.50 0.1869
793.60 0.1869
793.70 0.187
793.80 0.187
793.90 0.1871
794.00 0.1871
794.10 0.1872
794.20 0.1873
794.30 0.1873
794.40 0.1874
794.50 0.1874
794.60 0.1875
794.70 0.1875
794.80 0.1876
794.90 0.1876
795.00 0.1877
795.10 0.1877
795.20 0.1878
795.30 0.1878
795.40 0.1879
795.50 0.1879
795.60 0.188
795.70 0.1881
795.80 0.1881
795.90 0.1882
796.00 0.1882
796.10 0.1883
796.20 0.1883
796.30 0.1884
796.40 0.1884
796.50 0.1885
796.60 0.1885
796.70 0.1886
796.80 0.1886
796.90 0.1887
797.00 0.1887
797.10 0.1888
797.20 0.1888
797.30 0.1889
797.40 0.189
797.50 0.189
797.60 0.1891
797.70 0.1891
797.80 0.1892
797.90 0.1892
798.00 0.1893
798.10 0.1893
798.20 0.1894
798.30 0.1894
798.40 0.1895
798.50 0.1895
798.60 0.1896
798.70 0.1896
798.80 0.1897
798.90 0.1897
799.00 0.1898
799.10 0.1898
799.20 0.1899
799.30 0.1899
799.40 0.19
799.50 0.1901
799.60 0.1901
799.70 0.1902
799.80 0.1902
799.90 0.1903
800.00 0.1903
800.10 0.1903
800.20 0.1904
800.30 0.1904
800.40 0.1904
800.50 0.1905
800.60 0.1905
800.70 0.1905
800.80 0.1905
800.90 0.1906
801.00 0.1906
801.10 0.1906
801.20 0.1907
801.30 0.1907
801.40 0.1907
801.50 0.1907
801.60 0.1908
801.70 0.1908
801.80 0.1908
801.90 0.1909
802.00 0.1909
802.10 0.1909
802.20 0.1909
802.30 0.191
802.40 0.191
802.50 0.191
802.60 0.191
802.70 0.1911
802.80 0.1911
802.90 0.1911
803.00 0.1912
803.10 0.1912
803.20 0.1912
803.30 0.1912
803.40 0.1913
803.50 0.1913
803.60 0.1913
803.70 0.1914
803.80 0.1914
803.90 0.1914
804.00 0.1914
804.10 0.1915
804.20 0.1915
804.30 0.1915
804.40 0.1916
804.50 0.1916
804.60 0.1916
804.70 0.1916
804.80 0.1917
804.90 0.1917
805.00 0.1917
805.10 0.1917
805.20 0.1918
805.30 0.1918
805.40 0.1918
805.50 0.1919
805.60 0.1919
805.70 0.1919
805.80 0.1919
805.90 0.192
806.00 0.192
806.10 0.192
806.20 0.192
806.30 0.1921
806.40 0.1921
806.50 0.1921
806.60 0.1922
806.70 0.1922
806.80 0.1922
806.90 0.1922
807.00 0.1923
807.10 0.1923
807.20 0.1923
807.30 0.1923
807.40 0.1924
807.50 0.1924
807.60 0.1924
807.70 0.1925
807.80 0.1925
807.90 0.1925
808.00 0.1925
808.10 0.1926
808.20 0.1926
808.30 0.1926
808.40 0.1926
808.50 0.1927
808.60 0.1927
808.70 0.1927
808.80 0.1928
808.90 0.1928
809.00 0.1928
809.10 0.1928
809.20 0.1929
809.30 0.1929
809.40 0.1929
809.50 0.1929
809.60 0.193
809.70 0.193
809.80 0.193
809.90 0.193
810.00 0.1931
810.10 0.1931
810.20 0.1931
810.30 0.1931
810.40 0.1931
810.50 0.1931
810.60 0.1931
810.70 0.1931
810.80 0.193
810.90 0.193
811.00 0.193
811.10 0.193
811.20 0.193
811.30 0.193
811.40 0.193
811.50 0.193
811.60 0.193
811.70 0.193
811.80 0.193
811.90 0.193
812.00 0.193
812.10 0.193
812.20 0.193
812.30 0.193
812.40 0.193
812.50 0.193
812.60 0.193
812.70 0.193
812.80 0.193
812.90 0.193
813.00 0.193
813.10 0.193
813.20 0.193
813.30 0.193
813.40 0.193
813.50 0.193
813.60 0.193
813.70 0.193
813.80 0.193
813.90 0.193
814.00 0.1929
814.10 0.1929
814.20 0.1929
814.30 0.1929
814.40 0.1929
814.50 0.1929
814.60 0.1929
814.70 0.1929
814.80 0.1929
814.90 0.1929
815.00 0.1929
815.10 0.1929
815.20 0.1929
815.30 0.1929
815.40 0.1929
815.50 0.1929
815.60 0.1929
815.70 0.1929
815.80 0.1929
815.90 0.1929
816.00 0.1929
816.10 0.1929
816.20 0.1929
816.30 0.1929
816.40 0.1929
816.50 0.1929
816.60 0.1929
816.70 0.1929
816.80 0.1929
816.90 0.1929
817.00 0.1928
817.10 0.1928
817.20 0.1928
817.30 0.1928
817.40 0.1928
817.50 0.1928
817.60 0.1928
817.70 0.1928
817.80 0.1928
817.90 0.1928
818.00 0.1928
818.10 0.1928
818.20 0.1928
818.30 0.1928
818.40 0.1928
818.50 0.1928
818.60 0.1928
818.70 0.1928
818.80 0.1928
818.90 0.1928
819.00 0.1928
819.10 0.1928
819.20 0.1928
819.30 0.1928
819.40 0.1928
819.50 0.1928
819.60 0.1928
819.70 0.1928
819.80 0.1928
819.90 0.1927
820.00 0.1927
820.10 0.1927
820.20 0.1927
820.30 0.1927
820.40 0.1927
820.50 0.1927
820.60 0.1927
820.70 0.1927
820.80 0.1927
820.90 0.1927
821.00 0.1927
821.10 0.1927
821.20 0.1927
821.30 0.1927
821.40 0.1927
821.50 0.1927
821.60 0.1927
821.70 0.1927
821.80 0.1927
821.90 0.1926
822.00 0.1926
822.10 0.1926
822.20 0.1926
822.30 0.1926
822.40 0.1926
822.50 0.1926
822.60 0.1926
822.70 0.1926
822.80 0.1926
822.90 0.1926
823.00 0.1926
823.10 0.1926
823.20 0.1926
823.30 0.1926
823.40 0.1926
823.50 0.1926
823.60 0.1926
823.70 0.1926
823.80 0.1926
823.90 0.1926
824.00 0.1926
824.10 0.1926
824.20 0.1926
824.30 0.1926
824.40 0.1926
824.50 0.1926
824.60 0.1925
824.70 0.1925
824.80 0.1925
824.90 0.1925
825.00 0.1925
825.10 0.1925
825.20 0.1925
825.30 0.1925
825.40 0.1925
825.50 0.1925
825.60 0.1925
825.70 0.1925
825.80 0.1925
825.90 0.1925
826.00 0.1925
826.10 0.1925
826.20 0.1925
826.30 0.1925
826.40 0.1925
826.50 0.1925
826.60 0.1925
826.70 0.1925
826.80 0.1925
826.90 0.1925
827.00 0.1925
827.10 0.1925
827.20 0.1925
827.30 0.1925
827.40 0.1924
827.50 0.1924
827.60 0.1924
827.70 0.1924
827.80 0.1924
827.90 0.1924
828.00 0.1924
828.10 0.1924
828.20 0.1924
828.30 0.1924
828.40 0.1924
828.50 0.1924
828.60 0.1924
828.70 0.1924
828.80 0.1924
828.90 0.1924
829.00 0.1924
829.10 0.1924
829.20 0.1924
829.30 0.1924
829.40 0.1924
829.50 0.1924
829.60 0.1924
829.70 0.1924
829.80 0.1924
829.90 0.1924
830.00 0.1924
830.10 0.1924
830.20 0.1924
830.30 0.1924
830.40 0.1924
830.50 0.1924
830.60 0.1924
830.70 0.1924
830.80 0.1924
830.90 0.1924
831.00 0.1924
831.10 0.1924
831.20 0.1924
831.30 0.1924
831.40 0.1924
831.50 0.1924
831.60 0.1924
831.70 0.1924
831.80 0.1924
831.90 0.1924
832.00 0.1924
832.10 0.1924
832.20 0.1923
832.30 0.1923
832.40 0.1923
832.50 0.1923
832.60 0.1923
832.70 0.1923
832.80 0.1923
832.90 0.1923
833.00 0.1923
833.10 0.1923
833.20 0.1923
833.30 0.1923
833.40 0.1923
833.50 0.1923
833.60 0.1923
833.70 0.1923
833.80 0.1923
833.90 0.1923
834.00 0.1923
834.10 0.1923
834.20 0.1923
834.30 0.1923
834.40 0.1923
834.50 0.1923
834.60 0.1923
834.70 0.1923
834.80 0.1923
834.90 0.1923
835.00 0.1922
835.10 0.1922
835.20 0.1922
835.30 0.1922
835.40 0.1922
835.50 0.1922
835.60 0.1922
835.70 0.1922
835.80 0.1922
835.90 0.1922
836.00 0.1922
836.10 0.1922
836.20 0.1922
836.30 0.1922
836.40 0.1922
836.50 0.1922
836.60 0.1922
836.70 0.1922
836.80 0.1922
836.90 0.1922
837.00 0.1922
837.10 0.1922
837.20 0.1922
837.30 0.1922
837.40 0.1922
837.50 0.1922
837.60 0.1921
837.70 0.1921
837.80 0.1921
837.90 0.1921
838.00 0.1921
838.10 0.1921
838.20 0.1921
838.30 0.1921
838.40 0.1921
838.50 0.1921
838.60 0.1921
838.70 0.1921
838.80 0.1921
838.90 0.1921
839.00 0.1921
839.10 0.1921
839.20 0.1921
839.30 0.1921
839.40 0.1921
839.50 0.192
839.60 0.192
839.70 0.192
839.80 0.192
839.90 0.192
840.00 0.192
840.10 0.192
840.20 0.192
840.30 0.192
840.40 0.192
840.50 0.192
840.60 0.192
840.70 0.192
840.80 0.192
840.90 0.192
841.00 0.192
841.10 0.192
841.20 0.192
841.30 0.192
841.40 0.1919
841.50 0.1919
841.60 0.1919
841.70 0.1919
841.80 0.1919
841.90 0.1919
842.00 0.1919
842.10 0.1919
842.20 0.1919
842.30 0.1919
842.40 0.1919
842.50 0.1919
842.60 0.1919
842.70 0.1919
842.80 0.1919
842.90 0.1919
843.00 0.1918
843.10 0.1918
843.20 0.1918
843.30 0.1918
843.40 0.1918
843.50 0.1918
843.60 0.1918
843.70 0.1918
843.80 0.1918
843.90 0.1918
844.00 0.1918
844.10 0.1918
844.20 0.1918
844.30 0.1918
844.40 0.1917
844.50 0.1917
844.60 0.1917
844.70 0.1917
844.80 0.1917
844.90 0.1917
845.00 0.1917
845.10 0.1917
845.20 0.1917
845.30 0.1917
845.40 0.1917
845.50 0.1917
845.60 0.1917
845.70 0.1917
845.80 0.1916
845.90 0.1916
846.00 0.1916
846.10 0.1916
846.20 0.1916
846.30 0.1916
846.40 0.1916
846.50 0.1916
846.60 0.1916
846.70 0.1916
846.80 0.1916
846.90 0.1916
847.00 0.1916
847.10 0.1915
847.20 0.1915
847.30 0.1915
847.40 0.1915
847.50 0.1915
847.60 0.1915
847.70 0.1915
847.80 0.1915
847.90 0.1915
848.00 0.1915
848.10 0.1914
848.20 0.1914
848.30 0.1914
848.40 0.1914
848.50 0.1914
848.60 0.1914
848.70 0.1914
848.80 0.1914
848.90 0.1914
849.00 0.1914
849.10 0.1913
849.20 0.1913
849.30 0.1913
849.40 0.1913
849.50 0.1913
849.60 0.1913
849.70 0.1913
849.80 0.1913
849.90 0.1913
850.00 0.1913
850.10 0.1912
850.20 0.1912
850.30 0.1912
850.40 0.1912
850.50 0.1912
850.60 0.1912
850.70 0.1912
850.80 0.1912
850.90 0.1912
851.00 0.1912
851.10 0.1911
851.20 0.1911
851.30 0.1911
851.40 0.1911
851.50 0.1911
851.60 0.1911
851.70 0.1911
851.80 0.1911
851.90 0.1911
852.00 0.191
852.10 0.191
852.20 0.191
852.30 0.191
852.40 0.191
852.50 0.191
852.60 0.191
852.70 0.191
852.80 0.1909
852.90 0.1909
853.00 0.1909
853.10 0.1909
853.20 0.1909
853.30 0.1909
853.40 0.1909
853.50 0.1909
853.60 0.1908
853.70 0.1908
853.80 0.1908
853.90 0.1908
854.00 0.1908
854.10 0.1908
854.20 0.1908
854.30 0.1908
854.40 0.1907
854.50 0.1907
854.60 0.1907
854.70 0.1907
854.80 0.1907
854.90 0.1907
855.00 0.1907
855.10 0.1907
855.20 0.1906
855.30 0.1906
855.40 0.1906
855.50 0.1906
855.60 0.1906
855.70 0.1906
855.80 0.1906
855.90 0.1906
856.00 0.1905
856.10 0.1905
856.20 0.1905
856.30 0.1905
856.40 0.1905
856.50 0.1905
856.60 0.1905
856.70 0.1905
856.80 0.1904
856.90 0.1904
857.00 0.1904
857.10 0.1904
857.20 0.1904
857.30 0.1904
857.40 0.1904
857.50 0.1903
857.60 0.1903
857.70 0.1903
857.80 0.1903
857.90 0.1903
858.00 0.1903
858.10 0.1903
858.20 0.1902
858.30 0.1902
858.40 0.1902
858.50 0.1902
858.60 0.1902
858.70 0.1902
858.80 0.1902
858.90 0.1901
859.00 0.1901
859.10 0.1901
859.20 0.1901
859.30 0.1901
859.40 0.1901
859.50 0.1901
859.60 0.19
859.70 0.19
859.80 0.19
859.90 0.19
860.00 0.19
860.10 0.19
860.20 0.19
860.30 0.1899
860.40 0.1899
860.50 0.1899
860.60 0.1899
860.70 0.1899
860.80 0.1899
860.90 0.1899
861.00 0.1898
861.10 0.1898
861.20 0.1898
861.30 0.1898
861.40 0.1898
861.50 0.1898
861.60 0.1898
861.70 0.1897
861.80 0.1897
861.90 0.1897
862.00 0.1897
862.10 0.1897
862.20 0.1897
862.30 0.1896
862.40 0.1896
862.50 0.1896
862.60 0.1896
862.70 0.1896
862.80 0.1896
862.90 0.1895
863.00 0.1895
863.10 0.1895
863.20 0.1895
863.30 0.1895
863.40 0.1895
863.50 0.1894
863.60 0.1894
863.70 0.1894
863.80 0.1894
863.90 0.1894
864.00 0.1894
864.10 0.1894
864.20 0.1893
864.30 0.1893
864.40 0.1893
864.50 0.1893
864.60 0.1893
864.70 0.1893
864.80 0.1892
864.90 0.1892
865.00 0.1892
865.10 0.1892
865.20 0.1892
865.30 0.1892
865.40 0.1891
865.50 0.1891
865.60 0.1891
865.70 0.1891
865.80 0.1891
865.90 0.1891
866.00 0.189
866.10 0.189
866.20 0.189
866.30 0.189
866.40 0.189
866.50 0.189
866.60 0.1889
866.70 0.1889
866.80 0.1889
866.90 0.1889
867.00 0.1889
867.10 0.1889
867.20 0.1888
867.30 0.1888
867.40 0.1888
867.50 0.1888
867.60 0.1887
867.70 0.1887
867.80 0.1887
867.90 0.1887
868.00 0.1886
868.10 0.1886
868.20 0.1886
868.30 0.1886
868.40 0.1885
868.50 0.1885
868.60 0.1885
868.70 0.1884
868.80 0.1884
868.90 0.1884
869.00 0.1884
869.10 0.1883
869.20 0.1883
869.30 0.1883
869.40 0.1883
869.50 0.1882
869.60 0.1882
869.70 0.1882
869.80 0.1882
869.90 0.1881
870.00 0.1881
870.10 0.1881
870.20 0.1881
870.30 0.188
870.40 0.188
870.50 0.188
870.60 0.188
870.70 0.1879
870.80 0.1879
870.90 0.1879
871.00 0.1879
871.10 0.1878
871.20 0.1878
871.30 0.1878
871.40 0.1878
871.50 0.1877
871.60 0.1877
871.70 0.1877
871.80 0.1877
871.90 0.1876
872.00 0.1876
872.10 0.1876
872.20 0.1875
872.30 0.1875
872.40 0.1875
872.50 0.1874
872.60 0.1874
872.70 0.1874
872.80 0.1873
872.90 0.1873
873.00 0.1873
873.10 0.1872
873.20 0.1872
873.30 0.1872
873.40 0.1871
873.50 0.1871
873.60 0.1871
873.70 0.187
873.80 0.187
873.90 0.187
874.00 0.1869
874.10 0.1869
874.20 0.1869
874.30 0.1868
874.40 0.1868
874.50 0.1868
874.60 0.1867
874.70 0.1867
874.80 0.1866
874.90 0.1866
875.00 0.1866
875.10 0.1865
875.20 0.1865
875.30 0.1865
875.40 0.1864
875.50 0.1864
875.60 0.1864
875.70 0.1863
875.80 0.1863
875.90 0.1863
876.00 0.1862
876.10 0.1862
876.20 0.1862
876.30 0.1861
876.40 0.1861
876.50 0.1861
876.60 0.186
876.70 0.186
876.80 0.186
876.90 0.1859
877.00 0.1859
877.10 0.1858
877.20 0.1858
877.30 0.1858
877.40 0.1857
877.50 0.1857
877.60 0.1856
877.70 0.1856
877.80 0.1855
877.90 0.1855
878.00 0.1854
878.10 0.1854
878.20 0.1853
878.30 0.1853
878.40 0.1852
878.50 0.1852
878.60 0.1851
878.70 0.1851
878.80 0.185
878.90 0.185
879.00 0.1849
879.10 0.1849
879.20 0.1848
879.30 0.1848
879.40 0.1847
879.50 0.1847
879.60 0.1846
879.70 0.1846
879.80 0.1845
879.90 0.1845
880.00 0.1844
880.10 0.1844
880.20 0.1843
880.30 0.1843
880.40 0.1842
880.50 0.1842
880.60 0.1841
880.70 0.1841
880.80 0.184
880.90 0.184
881.00 0.1839
881.10 0.1839
881.20 0.1838
881.30 0.1838
881.40 0.1837
881.50 0.1837
881.60 0.1836
881.70 0.1836
881.80 0.1835
881.90 0.1835
882.00 0.1835
882.10 0.1834
882.20 0.1833
882.30 0.1833
882.40 0.1832
882.50 0.1831
882.60 0.1831
882.70 0.183
882.80 0.183
882.90 0.1829
883.00 0.1828
883.10 0.1828
883.20 0.1827
883.30 0.1826
883.40 0.1826
883.50 0.1825
883.60 0.1825
883.70 0.1824
883.80 0.1823
883.90 0.1823
884.00 0.1822
884.10 0.1821
884.20 0.1821
884.30 0.182
884.40 0.182
884.50 0.1819
884.60 0.1818
884.70 0.1818
884.80 0.1817
884.90 0.1817
885.00 0.1816
885.10 0.1815
885.20 0.1815
885.30 0.1814
885.40 0.1813
885.50 0.1813
885.60 0.1812
885.70 0.1812
885.80 0.1811
885.90 0.181
886.00 0.181
886.10 0.1809
886.20 0.1809
886.30 0.1808
886.40 0.1807
886.50 0.1807
886.60 0.1806
886.70 0.1805
886.80 0.1805
886.90 0.1804
887.00 0.1804
887.10 0.1803
887.20 0.1802
887.30 0.1801
887.40 0.1801
887.50 0.18
887.60 0.1799
887.70 0.1798
887.80 0.1798
887.90 0.1797
888.00 0.1796
888.10 0.1796
888.20 0.1795
888.30 0.1794
888.40 0.1793
888.50 0.1793
888.60 0.1792
888.70 0.1791
888.80 0.179
888.90 0.179
889.00 0.1789
889.10 0.1788
889.20 0.1787
889.30 0.1787
889.40 0.1786
889.50 0.1785
889.60 0.1784
889.70 0.1784
889.80 0.1783
889.90 0.1782
890.00 0.1782
890.10 0.1781
890.20 0.178
890.30 0.1779
890.40 0.1779
890.50 0.1778
890.60 0.1777
890.70 0.1776
890.80 0.1776
890.90 0.1775
891.00 0.1774
891.10 0.1773
891.20 0.1773
891.30 0.1772
891.40 0.1771
891.50 0.1771
891.60 0.177
891.70 0.1769
891.80 0.1768
891.90 0.1768
892.00 0.1767
892.10 0.1766
892.20 0.1765
892.30 0.1764
892.40 0.1763
892.50 0.1763
892.60 0.1762
892.70 0.1761
892.80 0.176
892.90 0.1759
893.00 0.1758
893.10 0.1757
893.20 0.1757
893.30 0.1756
893.40 0.1755
893.50 0.1754
893.60 0.1753
893.70 0.1752
893.80 0.1751
893.90 0.175
894.00 0.175
894.10 0.1749
894.20 0.1748
894.30 0.1747
894.40 0.1746
894.50 0.1745
894.60 0.1744
894.70 0.1744
894.80 0.1743
894.90 0.1742
895.00 0.1741
895.10 0.174
895.20 0.1739
895.30 0.1738
895.40 0.1738
895.50 0.1737
895.60 0.1736
895.70 0.1735
895.80 0.1734
895.90 0.1733
896.00 0.1733
896.10 0.1732
896.20 0.1731
896.30 0.173
896.40 0.1729
896.50 0.1728
896.60 0.1727
896.70 0.1727
896.80 0.1726
896.90 0.1725
897.00 0.1724
897.10 0.1723
897.20 0.1722
897.30 0.1721
897.40 0.172
897.50 0.1719
897.60 0.1718
897.70 0.1717
897.80 0.1717
897.90 0.1716
898.00 0.1715
898.10 0.1714
898.20 0.1713
898.30 0.1712
898.40 0.1711
898.50 0.171
898.60 0.1709
898.70 0.1708
898.80 0.1707
898.90 0.1706
899.00 0.1705
899.10 0.1704
899.20 0.1704
899.30 0.1703
899.40 0.1702
899.50 0.1701
899.60 0.17
899.70 0.1699
899.80 0.1698
899.90 0.1697
900.00 0.1696
900.10 0.1695
900.20 0.1694
900.30 0.1693
900.40 0.1692
900.50 0.1692
900.60 0.1691
900.70 0.169
900.80 0.1689
900.90 0.1688
901.00 0.1687
901.10 0.1686
901.20 0.1685
901.30 0.1684
901.40 0.1683
901.50 0.1682
901.60 0.1681
901.70 0.1681
901.80 0.168
901.90 0.1679
902.00 0.1678
902.10 0.1677
902.20 0.1676
902.30 0.1675
902.40 0.1674
902.50 0.1673
902.60 0.1672
902.70 0.1671
902.80 0.167
902.90 0.1669
903.00 0.1668
903.10 0.1667
903.20 0.1666
903.30 0.1665
903.40 0.1664
903.50 0.1663
903.60 0.1662
903.70 0.1661
903.80 0.166
903.90 0.1659
904.00 0.1658
904.10 0.1657
904.20 0.1656
904.30 0.1655
904.40 0.1654
904.50 0.1653
904.60 0.1652
904.70 0.1652
904.80 0.1651
904.90 0.165
905.00 0.1649
905.10 0.1648
905.20 0.1647
905.30 0.1646
905.40 0.1645
905.50 0.1644
905.60 0.1643
905.70 0.1642
905.80 0.1641
905.90 0.164
906.00 0.1639
906.10 0.1638
906.20 0.1637
906.30 0.1636
906.40 0.1635
906.50 0.1634
906.60 0.1633
906.70 0.1632
906.80 0.1631
906.90 0.163
907.00 0.1629
907.10 0.1628
907.20 0.1627
907.30 0.1626
907.40 0.1625
907.50 0.1624
907.60 0.1623
907.70 0.1622
907.80 0.1621
907.90 0.1619
908.00 0.1618
908.10 0.1617
908.20 0.1616
908.30 0.1615
908.40 0.1614
908.50 0.1613
908.60 0.1612
908.70 0.1611
908.80 0.161
908.90 0.1608
909.00 0.1607
909.10 0.1606
909.20 0.1605
909.30 0.1604
909.40 0.1603
909.50 0.1602
909.60 0.1601
909.70 0.16
909.80 0.1599
909.90 0.1598
910.00 0.1596
910.10 0.1595
910.20 0.1594
910.30 0.1593
910.40 0.1592
910.50 0.1591
910.60 0.159
910.70 0.1589
910.80 0.1588
910.90 0.1587
911.00 0.1586
911.10 0.1584
911.20 0.1583
911.30 0.1582
911.40 0.1581
911.50 0.158
911.60 0.1579
911.70 0.1578
911.80 0.1577
911.90 0.1576
912.00 0.1575
912.10 0.1573
912.20 0.1572
912.30 0.1571
912.40 0.157
912.50 0.1569
912.60 0.1567
912.70 0.1566
912.80 0.1565
912.90 0.1564
913.00 0.1563
913.10 0.1561
913.20 0.156
913.30 0.1559
913.40 0.1558
913.50 0.1557
913.60 0.1555
913.70 0.1554
913.80 0.1553
913.90 0.1552
914.00 0.1551
914.10 0.155
914.20 0.1548
914.30 0.1547
914.40 0.1546
914.50 0.1545
914.60 0.1544
914.70 0.1542
914.80 0.1541
914.90 0.154
915.00 0.1539
915.10 0.1538
915.20 0.1536
915.30 0.1535
915.40 0.1534
915.50 0.1533
915.60 0.1532
915.70 0.153
915.80 0.1529
915.90 0.1528
916.00 0.1527
916.10 0.1526
916.20 0.1525
916.30 0.1523
916.40 0.1522
916.50 0.1521
916.60 0.152
916.70 0.1519
916.80 0.1517
916.90 0.1516
917.00 0.1515
917.10 0.1514
917.20 0.1513
917.30 0.1511
917.40 0.151
917.50 0.1509
917.60 0.1508
917.70 0.1506
917.80 0.1505
917.90 0.1504
918.00 0.1503
918.10 0.1501
918.20 0.15
918.30 0.1499
918.40 0.1498
918.50 0.1496
918.60 0.1495
918.70 0.1494
918.80 0.1493
918.90 0.1491
919.00 0.149
919.10 0.1489
919.20 0.1488
919.30 0.1487
919.40 0.1485
919.50 0.1484
919.60 0.1483
919.70 0.1482
919.80 0.148
919.90 0.1479
920.00 0.1478
920.10 0.1477
920.20 0.1475
920.30 0.1474
920.40 0.1473
920.50 0.1472
920.60 0.147
920.70 0.1469
920.80 0.1468
920.90 0.1467
921.00 0.1466
921.10 0.1464
921.20 0.1463
921.30 0.1462
921.40 0.1461
921.50 0.1459
921.60 0.1458
921.70 0.1457
921.80 0.1456
921.90 0.1454
922.00 0.1453
922.10 0.1452
922.20 0.1451
922.30 0.1449
922.40 0.1448
922.50 0.1447
922.60 0.1446
922.70 0.1444
922.80 0.1443
922.90 0.1442
923.00 0.144
923.10 0.1439
923.20 0.1438
923.30 0.1436
923.40 0.1435
923.50 0.1434
923.60 0.1433
923.70 0.1431
923.80 0.143
923.90 0.1429
924.00 0.1427
924.10 0.1426
924.20 0.1425
924.30 0.1424
924.40 0.1422
924.50 0.1421
924.60 0.142
924.70 0.1419
924.80 0.1417
924.90 0.1416
925.00 0.1415
925.10 0.1413
925.20 0.1412
925.30 0.1411
925.40 0.141
925.50 0.1408
925.60 0.1407
925.70 0.1406
925.80 0.1404
925.90 0.1403
926.00 0.1402
926.10 0.1401
926.20 0.1399
926.30 0.1398
926.40 0.1397
926.50 0.1396
926.60 0.1394
926.70 0.1393
926.80 0.1392
926.90 0.1391
927.00 0.1389
927.10 0.1388
927.20 0.1387
927.30 0.1385
927.40 0.1384
927.50 0.1383
927.60 0.1381
927.70 0.138
927.80 0.1379
927.90 0.1377
928.00 0.1376
928.10 0.1375
928.20 0.1373
928.30 0.1372
928.40 0.1371
928.50 0.1369
928.60 0.1368
928.70 0.1367
928.80 0.1365
928.90 0.1364
929.00 0.1363
929.10 0.1361
929.20 0.136
929.30 0.1359
929.40 0.1357
929.50 0.1356
929.60 0.1355
929.70 0.1353
929.80 0.1352
929.90 0.1351
930.00 0.135
930.10 0.1348
930.20 0.1347
930.30 0.1346
930.40 0.1344
930.50 0.1343
930.60 0.1342
930.70 0.134
930.80 0.1339
930.90 0.1338
931.00 0.1336
931.10 0.1335
931.20 0.1334
931.30 0.1332
931.40 0.1331
931.50 0.133
931.60 0.1329
931.70 0.1327
931.80 0.1326
931.90 0.1325
932.00 0.1323
932.10 0.1322
932.20 0.1321
932.30 0.1319
932.40 0.1318
932.50 0.1317
932.60 0.1315
932.70 0.1314
932.80 0.1313
932.90 0.1311
933.00 0.131
933.10 0.1309
933.20 0.1307
933.30 0.1306
933.40 0.1305
933.50 0.1303
933.60 0.1302
933.70 0.1301
933.80 0.13
933.90 0.1298
934.00 0.1297
934.10 0.1296
934.20 0.1294
934.30 0.1293
934.40 0.1292
934.50 0.129
934.60 0.1289
934.70 0.1288
934.80 0.1286
934.90 0.1285
935.00 0.1284
935.10 0.1282
935.20 0.1281
935.30 0.128
935.40 0.1278
935.50 0.1277
935.60 0.1276
935.70 0.1274
935.80 0.1273
935.90 0.1272
936.00 0.127
936.10 0.1269
936.20 0.1268
936.30 0.1266
936.40 0.1265
936.50 0.1264
936.60 0.1262
936.70 0.1261
936.80 0.126
936.90 0.1258
937.00 0.1257
937.10 0.1256
937.20 0.1254
937.30 0.1253
937.40 0.1252
937.50 0.1251
937.60 0.1249
937.70 0.1248
937.80 0.1247
937.90 0.1245
938.00 0.1244
938.10 0.1243
938.20 0.1241
938.30 0.124
938.40 0.1239
938.50 0.1237
938.60 0.1236
938.70 0.1235
938.80 0.1233
938.90 0.1232
939.00 0.1231
939.10 0.1229
939.20 0.1228
939.30 0.1227
939.40 0.1225
939.50 0.1224
939.60 0.1222
939.70 0.1221
939.80 0.122
939.90 0.1218
940.00 0.1217
940.10 0.1216
940.20 0.1214
940.30 0.1213
940.40 0.1212
940.50 0.121
940.60 0.1209
940.70 0.1208
940.80 0.1206
940.90 0.1205
941.00 0.1204
941.10 0.1203
941.20 0.1201
941.30 0.12
941.40 0.1199
941.50 0.1197
941.60 0.1196
941.70 0.1195
941.80 0.1193
941.90 0.1192
942.00 0.1191
942.10 0.1189
942.20 0.1188
942.30 0.1187
942.40 0.1185
942.50 0.1184
942.60 0.1183
942.70 0.1181
942.80 0.118
942.90 0.1179
943.00 0.1178
943.10 0.1176
943.20 0.1175
943.30 0.1174
943.40 0.1172
943.50 0.1171
943.60 0.117
943.70 0.1168
943.80 0.1167
943.90 0.1166
944.00 0.1164
944.10 0.1163
944.20 0.1162
944.30 0.1161
944.40 0.1159
944.50 0.1158
944.60 0.1157
944.70 0.1155
944.80 0.1154
944.90 0.1153
945.00 0.1151
945.10 0.115
945.20 0.1149
945.30 0.1147
945.40 0.1146
945.50 0.1145
945.60 0.1144
945.70 0.1142
945.80 0.1141
945.90 0.114
946.00 0.1138
946.10 0.1137
946.20 0.1136
946.30 0.1134
946.40 0.1133
946.50 0.1132
946.60 0.1131
946.70 0.1129
946.80 0.1128
946.90 0.1127
947.00 0.1125
947.10 0.1124
947.20 0.1123
947.30 0.1122
947.40 0.112
947.50 0.1119
947.60 0.1118
947.70 0.1116
947.80 0.1115
947.90 0.1114
948.00 0.1112
948.10 0.1111
948.20 0.111
948.30 0.1109
948.40 0.1107
948.50 0.1106
948.60 0.1105
948.70 0.1103
948.80 0.1102
948.90 0.1101
949.00 0.1099
949.10 0.1098
949.20 0.1097
949.30 0.1096
949.40 0.1094
949.50 0.1093
949.60 0.1092
949.70 0.109
949.80 0.1089
949.90 0.1088
950.00 0.1087
950.10 0.1085
950.20 0.1084
950.30 0.1083
950.40 0.1082
950.50 0.108
950.60 0.1079
950.70 0.1078
950.80 0.1076
950.90 0.1075
951.00 0.1074
951.10 0.1073
951.20 0.1071
951.30 0.107
951.40 0.1069
951.50 0.1068
951.60 0.1066
951.70 0.1065
951.80 0.1064
951.90 0.1062
952.00 0.1061
952.10 0.106
952.20 0.1059
952.30 0.1057
952.40 0.1056
952.50 0.1055
952.60 0.1054
952.70 0.1052
952.80 0.1051
952.90 0.105
953.00 0.1049
953.10 0.1047
953.20 0.1046
953.30 0.1045
953.40 0.1044
953.50 0.1042
953.60 0.1041
953.70 0.104
953.80 0.1039
953.90 0.1037
954.00 0.1036
954.10 0.1035
954.20 0.1034
954.30 0.1032
954.40 0.1031
954.50 0.103
954.60 0.1029
954.70 0.1027
954.80 0.1026
954.90 0.1025
955.00 0.1024
955.10 0.1022
955.20 0.1021
955.30 0.102
955.40 0.1019
955.50 0.1017
955.60 0.1016
955.70 0.1015
955.80 0.1014
955.90 0.1012
956.00 0.1011
956.10 0.101
956.20 0.1009
956.30 0.1007
956.40 0.1006
956.50 0.1005
956.60 0.1003
956.70 0.1002
956.80 0.1001
956.90 0.09996
957.00 0.09984
957.10 0.09971
957.20 0.09959
957.30 0.09947
957.40 0.09935
957.50 0.09922
957.60 0.0991
957.70 0.09898
957.80 0.09886
957.90 0.09873
958.00 0.09861
958.10 0.09849
958.20 0.09837
958.30 0.09825
958.40 0.09812
958.50 0.098
958.60 0.09788
958.70 0.09776
958.80 0.09764
958.90 0.09751
959.00 0.09739
959.10 0.09727
959.20 0.09715
959.30 0.09703
959.40 0.09691
959.50 0.09679
959.60 0.09667
959.70 0.09655
959.80 0.09643
959.90 0.09631
960.00 0.09619
960.10 0.09606
960.20 0.09594
960.30 0.09582
960.40 0.0957
960.50 0.09558
960.60 0.09546
960.70 0.09534
960.80 0.09522
960.90 0.0951
961.00 0.09498
961.10 0.09487
961.20 0.09475
961.30 0.09463
961.40 0.09451
961.50 0.09439
961.60 0.09427
961.70 0.09415
961.80 0.09403
961.90 0.09391
962.00 0.09379
962.10 0.09368
962.20 0.09356
962.30 0.09344
962.40 0.09332
962.50 0.0932
962.60 0.09309
962.70 0.09297
962.80 0.09285
962.90 0.09273
963.00 0.09261
963.10 0.0925
963.20 0.09238
963.30 0.09226
963.40 0.09214
963.50 0.09203
963.60 0.09191
963.70 0.09179
963.80 0.09168
963.90 0.09156
964.00 0.09144
964.10 0.09132
964.20 0.09121
964.30 0.09109
964.40 0.09097
964.50 0.09085
964.60 0.09073
964.70 0.09062
964.80 0.0905
964.90 0.09038
965.00 0.09026
965.10 0.09014
965.20 0.09002
965.30 0.0899
965.40 0.08979
965.50 0.08967
965.60 0.08955
965.70 0.08943
965.80 0.08931
965.90 0.0892
966.00 0.08908
966.10 0.08896
966.20 0.08884
966.30 0.08872
966.40 0.08861
966.50 0.0885
966.60 0.08838
966.70 0.08827
966.80 0.08815
966.90 0.08804
967.00 0.08793
967.10 0.08781
967.20 0.0877
967.30 0.08759
967.40 0.08747
967.50 0.08736
967.60 0.08725
967.70 0.08713
967.80 0.08702
967.90 0.08691
968.00 0.0868
968.10 0.08668
968.20 0.08657
968.30 0.08646
968.40 0.08635
968.50 0.08624
968.60 0.08613
968.70 0.08601
968.80 0.0859
968.90 0.08579
969.00 0.08568
969.10 0.08557
969.20 0.08546
969.30 0.08535
969.40 0.08524
969.50 0.08513
969.60 0.08502
969.70 0.08491
969.80 0.0848
969.90 0.08469
970.00 0.08458
970.10 0.08447
970.20 0.08436
970.30 0.08425
970.40 0.08414
970.50 0.08403
970.60 0.08392
970.70 0.08381
970.80 0.0837
970.90 0.08359
971.00 0.08349
971.10 0.08338
971.20 0.08327
971.30 0.08316
971.40 0.08305
971.50 0.08294
971.60 0.08284
971.70 0.08273
971.80 0.08262
971.90 0.08251
972.00 0.0824
972.10 0.0823
972.20 0.08219
972.30 0.08209
972.40 0.08198
972.50 0.08187
972.60 0.08177
972.70 0.08166
972.80 0.08155
972.90 0.08145
973.00 0.08134
973.10 0.08124
973.20 0.08113
973.30 0.08102
973.40 0.08092
973.50 0.08081
973.60 0.08071
973.70 0.0806
973.80 0.0805
973.90 0.08039
974.00 0.08029
974.10 0.08018
974.20 0.08007
974.30 0.07997
974.40 0.07986
974.50 0.07976
974.60 0.07966
974.70 0.07955
974.80 0.07945
974.90 0.07934
975.00 0.07924
975.10 0.07913
975.20 0.07903
975.30 0.07892
975.40 0.07882
975.50 0.07872
975.60 0.07861
975.70 0.07851
975.80 0.0784
975.90 0.0783
976.00 0.0782
976.10 0.07809
976.20 0.07799
976.30 0.07789
976.40 0.07778
976.50 0.07768
976.60 0.07757
976.70 0.07747
976.80 0.07737
976.90 0.07726
977.00 0.07716
977.10 0.07706
977.20 0.07696
977.30 0.07686
977.40 0.07677
977.50 0.07667
977.60 0.07657
977.70 0.07647
977.80 0.07637
977.90 0.07627
978.00 0.07617
978.10 0.07608
978.20 0.07598
978.30 0.07588
978.40 0.07578
978.50 0.07568
978.60 0.07559
978.70 0.07549
978.80 0.07539
978.90 0.07529
979.00 0.07519
979.10 0.0751
979.20 0.075
979.30 0.0749
979.40 0.0748
979.50 0.0747
979.60 0.07461
979.70 0.07451
979.80 0.07441
979.90 0.07431
980.00 0.07422
980.10 0.07412
980.20 0.07402
980.30 0.07392
980.40 0.07383
980.50 0.07373
980.60 0.07363
980.70 0.07353
980.80 0.07344
980.90 0.07334
981.00 0.07324
981.10 0.07315
981.20 0.07305
981.30 0.07295
981.40 0.07285
981.50 0.07276
981.60 0.07266
981.70 0.07256
981.80 0.07247
981.90 0.07237
982.00 0.07227
982.10 0.07218
982.20 0.07209
982.30 0.07199
982.40 0.0719
982.50 0.07181
982.60 0.07171
982.70 0.07162
982.80 0.07153
982.90 0.07143
983.00 0.07134
983.10 0.07125
983.20 0.07115
983.30 0.07106
983.40 0.07097
983.50 0.07088
983.60 0.07078
983.70 0.07069
983.80 0.0706
983.90 0.0705
984.00 0.07041
984.10 0.07032
984.20 0.07023
984.30 0.07013
984.40 0.07004
984.50 0.06995
984.60 0.06986
984.70 0.06977
984.80 0.06968
984.90 0.06959
985.00 0.06951
985.10 0.06942
985.20 0.06933
985.30 0.06925
985.40 0.06916
985.50 0.06907
985.60 0.06899
985.70 0.0689
985.80 0.06881
985.90 0.06873
986.00 0.06864
986.10 0.06855
986.20 0.06847
986.30 0.06838
986.40 0.06829
986.50 0.06821
986.60 0.06812
986.70 0.06804
986.80 0.06795
986.90 0.06786
987.00 0.06778
987.10 0.06769
987.20 0.0676
987.30 0.06751
987.40 0.06742
987.50 0.06733
987.60 0.06724
987.70 0.06715
987.80 0.06706
987.90 0.06697
988.00 0.06688
988.10 0.06679
988.20 0.0667
988.30 0.06661
988.40 0.06652
988.50 0.06643
988.60 0.06634
988.70 0.06625
988.80 0.06616
988.90 0.06607
989.00 0.06598
989.10 0.06589
989.20 0.0658
989.30 0.06571
989.40 0.06562
989.50 0.06553
989.60 0.06544
989.70 0.06535
989.80 0.06526
989.90 0.06518
990.00 0.06509
990.10 0.065
990.20 0.06491
990.30 0.06482
990.40 0.06473
990.50 0.06464
990.60 0.06455
990.70 0.06446
990.80 0.06437
990.90 0.06428
991.00 0.0642
991.10 0.06411
991.20 0.06402
991.30 0.06393
991.40 0.06384
991.50 0.06375
991.60 0.06366
991.70 0.06357
991.80 0.06349
991.90 0.0634
992.00 0.06331
992.10 0.06322
992.20 0.06313
992.30 0.06304
992.40 0.06296
992.50 0.06287
992.60 0.06278
992.70 0.06269
992.80 0.0626
992.90 0.06251
993.00 0.06243
993.10 0.06234
993.20 0.06225
993.30 0.06216
993.40 0.06207
993.50 0.06199
993.60 0.0619
993.70 0.06181
993.80 0.06172
993.90 0.06163
994.00 0.06155
994.10 0.06146
994.20 0.06137
994.30 0.06128
994.40 0.0612
994.50 0.06111
994.60 0.06102
994.70 0.06092
994.80 0.06081
994.90 0.0607
995.00 0.06059
995.10 0.06048
995.20 0.06038
995.30 0.06027
995.40 0.06016
995.50 0.06005
995.60 0.05995
995.70 0.05985
995.80 0.05977
995.90 0.05969
996.00 0.0596
996.10 0.05952
996.20 0.05943
996.30 0.05935
996.40 0.05926
996.50 0.05918
996.60 0.05909
996.70 0.05901
996.80 0.05892
996.90 0.05884
997.00 0.05875
997.10 0.05867
997.20 0.05859
997.30 0.05851
997.40 0.05842
997.50 0.05834
997.60 0.05826
997.70 0.05818
997.80 0.0581
997.90 0.05802
998.00 0.05794
998.10 0.05785
998.20 0.05777
998.30 0.05769
998.40 0.05761
998.50 0.05753
998.60 0.05745
998.70 0.05737
998.80 0.05729
998.90 0.05721
999.00 0.05713
999.10 0.05705
999.20 0.05697
999.30 0.05689
999.40 0.05681
999.50 0.05673
999.60 0.05665
999.70 0.05658
999.80 0.0565
999.90 0.05642
1000.00 0.05635
1000.10 0.05627
1000.20 0.05619
1000.30 0.05612
1000.40 0.05604
1000.50 0.05596
1000.60 0.05589
1000.70 0.05581
1000.80 0.05573
1000.90 0.05566
1001.00 0.05558
1001.10 0.0555
1001.20 0.05543
1001.30 0.05535
1001.40 0.05528
1001.50 0.0552
1001.60 0.05512
1001.70 0.05505
1001.80 0.05497
1001.90 0.0549
1002.00 0.05482
1002.10 0.05475
1002.20 0.05468
1002.30 0.05461
1002.40 0.05453
1002.50 0.05446
1002.60 0.05439
1002.70 0.05431
1002.80 0.05424
1002.90 0.05417
1003.00 0.05409
1003.10 0.05402
1003.20 0.05395
1003.30 0.05388
1003.40 0.05381
1003.50 0.05373
1003.60 0.05366
1003.70 0.05359
1003.80 0.05352
1003.90 0.05345
1004.00 0.05338
1004.10 0.05331
1004.20 0.05324
1004.30 0.05317
1004.40 0.0531
1004.50 0.05303
1004.60 0.05296
1004.70 0.05289
1004.80 0.05282
1004.90 0.05272
1005.00 0.05263
1005.10 0.05255
1005.20 0.05249
1005.30 0.05242
1005.40 0.05235
1005.50 0.05228
1005.60 0.05221
1005.70 0.05215
1005.80 0.05208
1005.90 0.05201
1006.00 0.05194
1006.10 0.05188
1006.20 0.05181
1006.30 0.05174
1006.40 0.05168
1006.50 0.05161
1006.60 0.05155
1006.70 0.05148
1006.80 0.05141
1006.90 0.05135
1007.00 0.05128
1007.10 0.05122
1007.20 0.05115
1007.30 0.05109
1007.40 0.05103
1007.50 0.05096
1007.60 0.0509
1007.70 0.05083
1007.80 0.05077
1007.90 0.05071
1008.00 0.05065
1008.10 0.05059
1008.20 0.05052
1008.30 0.05046
1008.40 0.0504
1008.50 0.05034
1008.60 0.05028
1008.70 0.05022
1008.80 0.05015
1008.90 0.05009
1009.00 0.05003
1009.10 0.04997
1009.20 0.04991
1009.30 0.04984
1009.40 0.04978
1009.50 0.04972
1009.60 0.04966
1009.70 0.0496
1009.80 0.04954
1009.90 0.04948
1010.00 0.04943
1010.10 0.04937
1010.20 0.04931
1010.30 0.04925
1010.40 0.04919
1010.50 0.04913
1010.60 0.04908
1010.70 0.04902
1010.80 0.04896
1010.90 0.0489
1011.00 0.04884
1011.10 0.04879
1011.20 0.04873
1011.30 0.04867
1011.40 0.04861
1011.50 0.04855
1011.60 0.0485
1011.70 0.04844
1011.80 0.04838
1011.90 0.04833
1012.00 0.04827
1012.10 0.04822
1012.20 0.04816
1012.30 0.04811
1012.40 0.04805
1012.50 0.048
1012.60 0.04795
1012.70 0.04789
1012.80 0.04784
1012.90 0.04778
1013.00 0.04773
1013.10 0.04767
1013.20 0.04762
1013.30 0.04757
1013.40 0.04751
1013.50 0.04746
1013.60 0.0474
1013.70 0.04735
1013.80 0.0473
1013.90 0.04725
1014.00 0.04719
1014.10 0.04714
1014.20 0.04709
1014.30 0.04704
1014.40 0.04699
1014.50 0.04693
1014.60 0.04688
1014.70 0.04684
1014.80 0.04679
1014.90 0.04675
1015.00 0.0467
1015.10 0.04666
1015.20 0.04661
1015.30 0.04657
1015.40 0.04652
1015.50 0.04648
1015.60 0.04643
1015.70 0.04639
1015.80 0.04634
1015.90 0.0463
1016.00 0.04625
1016.10 0.04621
1016.20 0.04616
1016.30 0.04612
1016.40 0.04608
1016.50 0.04603
1016.60 0.04599
1016.70 0.04594
1016.80 0.04589
1016.90 0.04584
1017.00 0.04579
1017.10 0.04574
1017.20 0.0457
1017.30 0.04565
1017.40 0.0456
1017.50 0.04555
1017.60 0.0455
1017.70 0.04545
1017.80 0.04541
1017.90 0.04536
1018.00 0.04531
1018.10 0.04526
1018.20 0.04521
1018.30 0.04517
1018.40 0.04512
1018.50 0.04507
1018.60 0.04502
1018.70 0.04497
1018.80 0.04493
1018.90 0.04488
1019.00 0.04483
1019.10 0.04479
1019.20 0.04474
1019.30 0.04469
1019.40 0.04465
1019.50 0.0446
1019.60 0.04455
1019.70 0.04451
1019.80 0.04446
1019.90 0.04441
1020.00 0.04437
1020.10 0.04432
1020.20 0.04427
1020.30 0.04423
1020.40 0.04418
1020.50 0.04413
1020.60 0.04409
1020.70 0.04404
1020.80 0.04399
1020.90 0.04395
1021.00 0.0439
1021.10 0.04386
1021.20 0.04381
1021.30 0.04377
1021.40 0.04372
1021.50 0.04368
1021.60 0.04363
1021.70 0.04358
1021.80 0.04354
1021.90 0.04349
1022.00 0.04345
1022.10 0.0434
1022.20 0.04336
1022.30 0.04332
1022.40 0.04327
1022.50 0.04323
1022.60 0.04318
1022.70 0.04314
1022.80 0.0431
1022.90 0.04305
1023.00 0.04301
1023.10 0.04296
1023.20 0.04292
1023.30 0.04288
1023.40 0.04283
1023.50 0.04279
1023.60 0.04274
1023.70 0.0427
1023.80 0.04266
1023.90 0.04261
1024.00 0.04257
1024.10 0.04252
1024.20 0.04248
1024.30 0.04244
1024.40 0.04239
1024.50 0.04235
1024.60 0.04231
1024.70 0.04226
1024.80 0.04222
1024.90 0.04217
1025.00 0.04213
1025.10 0.04209
1025.20 0.04205
1025.30 0.042
1025.40 0.04196
1025.50 0.04192
1025.60 0.04187
1025.70 0.04183
1025.80 0.04179
1025.90 0.04174
1026.00 0.0417
1026.10 0.04166
1026.20 0.04161
1026.30 0.04157
1026.40 0.04153
1026.50 0.04148
1026.60 0.04144
1026.70 0.0414
1026.80 0.04136
1026.90 0.04131
1027.00 0.04127
1027.10 0.04123
1027.20 0.04119
1027.30 0.04115
1027.40 0.04111
1027.50 0.04107
1027.60 0.04103
1027.70 0.04099
1027.80 0.04095
1027.90 0.04091
1028.00 0.04087
1028.10 0.04083
1028.20 0.0408
1028.30 0.04076
1028.40 0.04072
1028.50 0.04068
1028.60 0.04064
1028.70 0.0406
1028.80 0.04056
1028.90 0.04052
1029.00 0.04048
1029.10 0.04044
1029.20 0.0404
1029.30 0.04036
1029.40 0.04032
1029.50 0.04028
1029.60 0.04025
1029.70 0.04021
1029.80 0.04017
1029.90 0.04013
1030.00 0.04009
1030.10 0.04005
1030.20 0.04001
1030.30 0.03997
1030.40 0.03993
1030.50 0.03989
1030.60 0.03985
1030.70 0.03982
1030.80 0.03978
1030.90 0.03974
1031.00 0.0397
1031.10 0.03966
1031.20 0.03962
1031.30 0.03958
1031.40 0.03954
1031.50 0.0395
1031.60 0.03946
1031.70 0.03943
1031.80 0.03939
1031.90 0.03935
1032.00 0.03931
1032.10 0.03927
1032.20 0.03924
1032.30 0.0392
1032.40 0.03916
1032.50 0.03913
1032.60 0.03909
1032.70 0.03906
1032.80 0.03902
1032.90 0.03898
1033.00 0.03895
1033.10 0.03891
1033.20 0.03888
1033.30 0.03884
1033.40 0.03881
1033.50 0.03877
1033.60 0.03873
1033.70 0.0387
1033.80 0.03866
1033.90 0.03863
1034.00 0.03859
1034.10 0.03855
1034.20 0.03852
1034.30 0.03848
1034.40 0.03845
1034.50 0.03841
1034.60 0.03838
1034.70 0.03834
1034.80 0.0383
1034.90 0.03827
1035.00 0.03823
1035.10 0.0382
1035.20 0.03816
1035.30 0.03813
1035.40 0.03809
1035.50 0.03805
1035.60 0.03802
1035.70 0.03798
1035.80 0.03795
1035.90 0.03791
1036.00 0.03788
1036.10 0.03784
1036.20 0.03781
1036.30 0.03777
1036.40 0.03773
1036.50 0.0377
1036.60 0.03766
1036.70 0.03763
1036.80 0.03759
1036.90 0.03756
1037.00 0.03752
1037.10 0.03749
1037.20 0.03746
1037.30 0.03743
1037.40 0.0374
1037.50 0.03736
1037.60 0.03733
1037.70 0.0373
1037.80 0.03727
1037.90 0.03724
1038.00 0.03721
1038.10 0.03717
1038.20 0.03714
1038.30 0.03711
1038.40 0.03708
1038.50 0.03705
1038.60 0.03702
1038.70 0.03698
1038.80 0.03695
1038.90 0.03692
1039.00 0.03689
1039.10 0.03686
1039.20 0.03683
1039.30 0.0368
1039.40 0.03676
1039.50 0.03673
1039.60 0.0367
1039.70 0.03667
1039.80 0.03664
1039.90 0.03661
1040.00 0.03658
1040.10 0.03654
1040.20 0.03651
1040.30 0.03648
1040.40 0.03645
1040.50 0.03642
1040.60 0.03639
1040.70 0.03636
1040.80 0.03633
1040.90 0.03629
1041.00 0.03626
1041.10 0.03623
1041.20 0.0362
1041.30 0.03617
1041.40 0.03614
1041.50 0.03611
1041.60 0.03608
1041.70 0.03605
1041.80 0.03601
1041.90 0.03598
1042.00 0.03595
1042.10 0.03592
1042.20 0.0359
1042.30 0.03587
1042.40 0.03584
1042.50 0.03581
1042.60 0.03579
1042.70 0.03576
1042.80 0.03573
1042.90 0.0357
1043.00 0.03567
1043.10 0.03565
1043.20 0.03562
1043.30 0.03559
1043.40 0.03556
1043.50 0.03554
1043.60 0.03551
1043.70 0.03548
1043.80 0.03545
1043.90 0.03543
1044.00 0.0354
1044.10 0.03537
1044.20 0.03534
1044.30 0.03532
1044.40 0.03529
1044.50 0.03526
1044.60 0.03523
1044.70 0.03521
1044.80 0.03518
1044.90 0.03515
1045.00 0.03512
1045.10 0.0351
1045.20 0.03507
1045.30 0.03504
1045.40 0.03501
1045.50 0.03499
1045.60 0.03496
1045.70 0.03493
1045.80 0.0349
1045.90 0.03488
1046.00 0.03485
1046.10 0.03482
1046.20 0.03479
1046.30 0.03477
1046.40 0.03474
1046.50 0.03471
1046.60 0.03469
1046.70 0.03466
1046.80 0.03463
1046.90 0.0346
1047.00 0.03458
1047.10 0.03455
1047.20 0.03453
1047.30 0.0345
1047.40 0.03448
1047.50 0.03446
1047.60 0.03443
1047.70 0.03441
1047.80 0.03438
1047.90 0.03436
1048.00 0.03434
1048.10 0.03431
1048.20 0.03429
1048.30 0.03426
1048.40 0.03424
1048.50 0.03422
1048.60 0.03419
1048.70 0.03417
1048.80 0.03414
1048.90 0.03412
1049.00 0.0341
1049.10 0.03407
1049.20 0.03405
1049.30 0.03403
1049.40 0.034
1049.50 0.03398
1049.60 0.03395
1049.70 0.03393
1049.80 0.03391
1049.90 0.03388
1050.00 0.03386
1050.10 0.03384
1050.20 0.03381
1050.30 0.03379
1050.40 0.03376
1050.50 0.03374
1050.60 0.03372
1050.70 0.03369
1050.80 0.03367
1050.90 0.03365
1051.00 0.03362
1051.10 0.0336
1051.20 0.03357
1051.30 0.03355
1051.40 0.03353
1051.50 0.0335
1051.60 0.03348
1051.70 0.03346
1051.80 0.03343
1051.90 0.03341
1052.00 0.03338
1052.10 0.03336
1052.20 0.03334
1052.30 0.03332
1052.40 0.0333
1052.50 0.03328
1052.60 0.03326
1052.70 0.03324
1052.80 0.03321
1052.90 0.03319
1053.00 0.03317
1053.10 0.03315
1053.20 0.03313
1053.30 0.03311
1053.40 0.03309
1053.50 0.03307
1053.60 0.03304
1053.70 0.03302
1053.80 0.033
1053.90 0.03298
1054.00 0.03296
1054.10 0.03294
1054.20 0.03292
1054.30 0.0329
1054.40 0.03287
1054.50 0.03285
1054.60 0.03283
1054.70 0.03281
1054.80 0.03279
1054.90 0.03277
1055.00 0.03275
1055.10 0.03273
1055.20 0.03271
1055.30 0.03268
1055.40 0.03266
1055.50 0.03264
1055.60 0.03262
1055.70 0.0326
1055.80 0.03258
1055.90 0.03256
1056.00 0.03254
1056.10 0.03252
1056.20 0.0325
1056.30 0.03247
1056.40 0.03245
1056.50 0.03243
1056.60 0.03241
1056.70 0.03239
1056.80 0.03237
1056.90 0.03235
1057.00 0.03233
1057.10 0.03231
1057.20 0.03229
1057.30 0.03227
1057.40 0.03225
1057.50 0.03223
1057.60 0.03222
1057.70 0.0322
1057.80 0.03218
1057.90 0.03216
1058.00 0.03214
1058.10 0.03212
1058.20 0.0321
1058.30 0.03209
1058.40 0.03207
1058.50 0.03205
1058.60 0.03203
1058.70 0.03201
1058.80 0.03199
1058.90 0.03197
1059.00 0.03196
1059.10 0.03194
1059.20 0.03192
1059.30 0.0319
1059.40 0.03188
1059.50 0.03186
1059.60 0.03185
1059.70 0.03183
1059.80 0.03181
1059.90 0.03179
1060.00 0.03177
1060.10 0.03175
1060.20 0.03173
1060.30 0.03172
1060.40 0.0317
1060.50 0.03168
1060.60 0.03166
1060.70 0.03164
1060.80 0.03162
1060.90 0.03161
1061.00 0.03159
1061.10 0.03157
1061.20 0.03155
1061.30 0.03153
1061.40 0.03151
1061.50 0.0315
1061.60 0.03148
1061.70 0.03146
1061.80 0.03144
1061.90 0.03142
1062.00 0.0314
1062.10 0.03139
1062.20 0.03137
1062.30 0.03136
1062.40 0.03134
1062.50 0.03132
1062.60 0.03131
1062.70 0.03129
1062.80 0.03128
1062.90 0.03126
1063.00 0.03124
1063.10 0.03123
1063.20 0.03121
1063.30 0.0312
1063.40 0.03118
1063.50 0.03117
1063.60 0.03115
1063.70 0.03113
1063.80 0.03112
1063.90 0.0311
1064.00 0.03109
1064.10 0.03107
1064.20 0.03105
1064.30 0.03104
1064.40 0.03102
1064.50 0.03101
1064.60 0.03099
1064.70 0.03098
1064.80 0.03096
1064.90 0.03094
1065.00 0.03093
1065.10 0.03091
1065.20 0.0309
1065.30 0.03088
1065.40 0.03086
1065.50 0.03085
1065.60 0.03083
1065.70 0.03082
1065.80 0.0308
1065.90 0.03079
1066.00 0.03077
1066.10 0.03075
1066.20 0.03074
1066.30 0.03072
1066.40 0.03071
1066.50 0.03069
1066.60 0.03068
1066.70 0.03066
1066.80 0.03064
1066.90 0.03063
1067.00 0.03061
1067.10 0.0306
1067.20 0.03058
1067.30 0.03057
1067.40 0.03056
1067.50 0.03054
1067.60 0.03053
1067.70 0.03051
1067.80 0.0305
1067.90 0.03049
1068.00 0.03047
1068.10 0.03046
1068.20 0.03045
1068.30 0.03043
1068.40 0.03042
1068.50 0.0304
1068.60 0.03039
1068.70 0.03038
1068.80 0.03036
1068.90 0.03035
1069.00 0.03033
1069.10 0.03032
1069.20 0.03031
1069.30 0.03029
1069.40 0.03028
1069.50 0.03026
1069.60 0.03025
1069.70 0.03024
1069.80 0.03022
1069.90 0.03021
1070.00 0.03019
1070.10 0.03018
1070.20 0.03017
1070.30 0.03015
1070.40 0.03014
1070.50 0.03013
1070.60 0.03011
1070.70 0.0301
1070.80 0.03008
1070.90 0.03007
1071.00 0.03006
1071.10 0.03004
1071.20 0.03003
1071.30 0.03001
1071.40 0.03
1071.50 0.02999
1071.60 0.02997
1071.70 0.02996
1071.80 0.02995
1071.90 0.02993
1072.00 0.02992
1072.10 0.02991
1072.20 0.0299
1072.30 0.02988
1072.40 0.02987
1072.50 0.02986
1072.60 0.02985
1072.70 0.02984
1072.80 0.02983
1072.90 0.02982
1073.00 0.02981
1073.10 0.02979
1073.20 0.02978
1073.30 0.02977
1073.40 0.02976
1073.50 0.02975
1073.60 0.02974
1073.70 0.02973
1073.80 0.02972
1073.90 0.02971
1074.00 0.0297
1074.10 0.02969
1074.20 0.02968
1074.30 0.02967
1074.40 0.02966
1074.50 0.02965
1074.60 0.02964
1074.70 0.02963
1074.80 0.02962
1074.90 0.02962
1075.00 0.02961
1075.10 0.0296
1075.20 0.02959
1075.30 0.02958
1075.40 0.02957
1075.50 0.02956
1075.60 0.02955
1075.70 0.02954
1075.80 0.02953
1075.90 0.02952
1076.00 0.02951
1076.10 0.0295
1076.20 0.02949
1076.30 0.02948
1076.40 0.02947
1076.50 0.02946
1076.60 0.02945
1076.70 0.02944
1076.80 0.02943
1076.90 0.02942
1077.00 0.02941
1077.10 0.02941
1077.20 0.0294
1077.30 0.02939
1077.40 0.02938
1077.50 0.02937
1077.60 0.02937
1077.70 0.02936
1077.80 0.02935
1077.90 0.02934
1078.00 0.02934
1078.10 0.02933
1078.20 0.02932
1078.30 0.02931
1078.40 0.02931
1078.50 0.0293
1078.60 0.02929
1078.70 0.02928
1078.80 0.02928
1078.90 0.02927
1079.00 0.02926
1079.10 0.02925
1079.20 0.02925
1079.30 0.02924
1079.40 0.02923
1079.50 0.02923
1079.60 0.02922
1079.70 0.02921
1079.80 0.02921
1079.90 0.0292
1080.00 0.0292
1080.10 0.02919
1080.20 0.02919
1080.30 0.02918
1080.40 0.02918
1080.50 0.02917
1080.60 0.02917
1080.70 0.02916
1080.80 0.02915
1080.90 0.02915
1081.00 0.02914
1081.10 0.02914
1081.20 0.02913
1081.30 0.02913
1081.40 0.02912
1081.50 0.02912
1081.60 0.02911
1081.70 0.02911
1081.80 0.0291
1081.90 0.02909
1082.00 0.02909
1082.10 0.02908
1082.20 0.02908
1082.30 0.02907
1082.40 0.02907
1082.50 0.02906
1082.60 0.02906
1082.70 0.02905
1082.80 0.02905
1082.90 0.02904
1083.00 0.02904
1083.10 0.02903
1083.20 0.02903
1083.30 0.02902
1083.40 0.02902
1083.50 0.02901
1083.60 0.02901
1083.70 0.02901
1083.80 0.029
1083.90 0.029
1084.00 0.02899
1084.10 0.02899
1084.20 0.02898
1084.30 0.02898
1084.40 0.02898
1084.50 0.02897
1084.60 0.02897
1084.70 0.02896
1084.80 0.02896
1084.90 0.02896
1085.00 0.02895
1085.10 0.02895
1085.20 0.02895
1085.30 0.02894
1085.40 0.02894
1085.50 0.02894
1085.60 0.02893
1085.70 0.02893
1085.80 0.02893
1085.90 0.02892
1086.00 0.02892
1086.10 0.02892
1086.20 0.02891
1086.30 0.02891
1086.40 0.0289
1086.50 0.0289
1086.60 0.0289
1086.70 0.0289
1086.80 0.02889
1086.90 0.02889
1087.00 0.02889
1087.10 0.02889
1087.20 0.02888
1087.30 0.02888
1087.40 0.02888
1087.50 0.02888
1087.60 0.02887
1087.70 0.02887
1087.80 0.02887
1087.90 0.02887
1088.00 0.02886
1088.10 0.02886
1088.20 0.02886
1088.30 0.02886
1088.40 0.02886
1088.50 0.02885
1088.60 0.02885
1088.70 0.02885
1088.80 0.02885
1088.90 0.02885
1089.00 0.02885
1089.10 0.02884
1089.20 0.02884
1089.30 0.02884
1089.40 0.02884
1089.50 0.02884
1089.60 0.02884
1089.70 0.02884
1089.80 0.02883
1089.90 0.02883
1090.00 0.02883
1090.10 0.02883
1090.20 0.02883
1090.30 0.02883
1090.40 0.02883
1090.50 0.02882
1090.60 0.02882
1090.70 0.02882
1090.80 0.02882
1090.90 0.02882
1091.00 0.02882
1091.10 0.02882
1091.20 0.02882
1091.30 0.02882
1091.40 0.02882
1091.50 0.02882
1091.60 0.02882
1091.70 0.02882
1091.80 0.02882
1091.90 0.02882
1092.00 0.02882
1092.10 0.02882
1092.20 0.02882
1092.30 0.02882
1092.40 0.02882
1092.50 0.02882
1092.60 0.02882
1092.70 0.02882
1092.80 0.02883
1092.90 0.02884
1093.00 0.02885
1093.10 0.02886
1093.20 0.02886
1093.30 0.02886
1093.40 0.02886
1093.50 0.02886
1093.60 0.02886
1093.70 0.02886
1093.80 0.02886
1093.90 0.02886
1094.00 0.02887
1094.10 0.02887
1094.20 0.02887
1094.30 0.02887
1094.40 0.02887
1094.50 0.02887
1094.60 0.02887
1094.70 0.02887
1094.80 0.02887
1094.90 0.02887
1095.00 0.02887
1095.10 0.02887
1095.20 0.02888
1095.30 0.02888
1095.40 0.02888
1095.50 0.02888
1095.60 0.02888
1095.70 0.02888
1095.80 0.02888
1095.90 0.02888
1096.00 0.02888
1096.10 0.02888
1096.20 0.02889
1096.30 0.02889
1096.40 0.02889
1096.50 0.02889
1096.60 0.02889
1096.70 0.02889
1096.80 0.02889
1096.90 0.02889
1097.00 0.0289
1097.10 0.0289
1097.20 0.0289
1097.30 0.0289
1097.40 0.0289
1097.50 0.0289
1097.60 0.02891
1097.70 0.02891
1097.80 0.02891
1097.90 0.02891
1098.00 0.02891
1098.10 0.02891
1098.20 0.02891
1098.30 0.02892
1098.40 0.02892
1098.50 0.02892
1098.60 0.02892
1098.70 0.02892
1098.80 0.02893
1098.90 0.02893
1099.00 0.02893
1099.10 0.02893
1099.20 0.02893
1099.30 0.02894
1099.40 0.02894
1099.50 0.02894
1099.60 0.02894
1099.70 0.02894
1099.80 0.02895
1099.90 0.02895
1100.00 0.02895
1100.10 0.02895
1100.20 0.02895
1100.30 0.02896
1100.40 0.02896
1100.50 0.02896
1100.60 0.02896
1100.70 0.02897
1100.80 0.02897
1100.90 0.02897
1101.00 0.02897
1101.10 0.02898
1101.20 0.02898
1101.30 0.02898
1101.40 0.02898
1101.50 0.02898
1101.60 0.02899
1101.70 0.02899
1101.80 0.02899
1101.90 0.02899
1102.00 0.029
1102.10 0.029
1102.20 0.029
1102.30 0.02901
1102.40 0.02901
1102.50 0.02901
1102.60 0.02901
1102.70 0.02902
1102.80 0.02902
1102.90 0.02902
1103.00 0.02903
1103.10 0.02903
1103.20 0.02903
1103.30 0.02904
1103.40 0.02904
1103.50 0.02904
1103.60 0.02904
1103.70 0.02905
1103.80 0.02905
1103.90 0.02905
1104.00 0.02906
1104.10 0.02906
1104.20 0.02906
1104.30 0.02907
1104.40 0.02907
1104.50 0.02907
1104.60 0.02908
1104.70 0.02908
1104.80 0.02908
1104.90 0.02909
1105.00 0.02909
1105.10 0.02909
1105.20 0.0291
1105.30 0.0291
1105.40 0.0291
1105.50 0.02911
1105.60 0.02911
1105.70 0.02911
1105.80 0.02912
1105.90 0.02912
1106.00 0.02913
1106.10 0.02913
1106.20 0.02913
1106.30 0.02914
1106.40 0.02914
1106.50 0.02914
1106.60 0.02915
1106.70 0.02915
1106.80 0.02916
1106.90 0.02916
1107.00 0.02916
1107.10 0.02917
1107.20 0.02917
1107.30 0.02918
1107.40 0.02918
1107.50 0.02918
1107.60 0.02919
1107.70 0.02919
1107.80 0.0292
1107.90 0.0292
1108.00 0.02921
1108.10 0.02921
1108.20 0.02921
1108.30 0.02922
1108.40 0.02922
1108.50 0.02923
1108.60 0.02923
1108.70 0.02924
1108.80 0.02924
1108.90 0.02924
1109.00 0.02925
1109.10 0.02925
1109.20 0.02926
1109.30 0.02926
1109.40 0.02927
1109.50 0.02927
1109.60 0.02928
1109.70 0.02928
1109.80 0.02929
1109.90 0.02929
1110.00 0.0293
1110.10 0.0293
1110.20 0.0293
1110.30 0.02931
1110.40 0.02931
1110.50 0.02932
1110.60 0.02932
1110.70 0.02933
1110.80 0.02933
1110.90 0.02934
1111.00 0.02934
1111.10 0.02935
1111.20 0.02935
1111.30 0.02936
1111.40 0.02936
1111.50 0.02937
1111.60 0.02937
1111.70 0.02938
1111.80 0.02938
1111.90 0.02939
1112.00 0.02939
1112.10 0.0294
1112.20 0.0294
1112.30 0.02941
1112.40 0.02941
1112.50 0.02942
1112.60 0.02943
1112.70 0.02943
1112.80 0.02944
1112.90 0.02944
1113.00 0.02945
1113.10 0.02945
1113.20 0.02946
1113.30 0.02946
1113.40 0.02947
1113.50 0.02947
1113.60 0.02948
1113.70 0.02949
1113.80 0.02949
1113.90 0.0295
1114.00 0.0295
1114.10 0.02951
1114.20 0.02952
1114.30 0.02952
1114.40 0.02953
1114.50 0.02954
1114.60 0.02954
1114.70 0.02955
1114.80 0.02955
1114.90 0.02956
1115.00 0.02957
1115.10 0.02957
1115.20 0.02958
1115.30 0.02958
1115.40 0.02959
1115.50 0.0296
1115.60 0.0296
1115.70 0.02961
1115.80 0.02961
1115.90 0.02962
1116.00 0.02963
1116.10 0.02963
1116.20 0.02964
1116.30 0.02964
1116.40 0.02965
1116.50 0.02966
1116.60 0.02966
1116.70 0.02967
1116.80 0.02967
1116.90 0.02968
1117.00 0.02969
1117.10 0.02969
1117.20 0.0297
1117.30 0.02971
1117.40 0.02971
1117.50 0.02972
1117.60 0.02973
1117.70 0.02974
1117.80 0.02974
1117.90 0.02975
1118.00 0.02976
1118.10 0.02976
1118.20 0.02977
1118.30 0.02978
1118.40 0.02978
1118.50 0.02979
1118.60 0.0298
1118.70 0.02981
1118.80 0.02981
1118.90 0.02982
1119.00 0.02983
1119.10 0.02983
1119.20 0.02984
1119.30 0.02985
1119.40 0.02985
1119.50 0.02986
1119.60 0.02987
1119.70 0.02988
1119.80 0.02988
1119.90 0.02989
1120.00 0.0299
1120.10 0.0299
1120.20 0.02991
1120.30 0.02992
1120.40 0.02992
1120.50 0.02993
1120.60 0.02994
1120.70 0.02995
1120.80 0.02995
1120.90 0.02996
1121.00 0.02997
1121.10 0.02997
1121.20 0.02998
1121.30 0.02999
1121.40 0.02999
1121.50 0.03
1121.60 0.03001
1121.70 0.03001
1121.80 0.03002
1121.90 0.03003
1122.00 0.03003
1122.10 0.03004
1122.20 0.03005
1122.30 0.03006
1122.40 0.03007
1122.50 0.03008
1122.60 0.03009
1122.70 0.0301
1122.80 0.03011
1122.90 0.03012
1123.00 0.03013
1123.10 0.03014
1123.20 0.03014
1123.30 0.03015
1123.40 0.03016
1123.50 0.03017
1123.60 0.03018
1123.70 0.03019
1123.80 0.0302
1123.90 0.03021
1124.00 0.03022
1124.10 0.03023
1124.20 0.03024
1124.30 0.03024
1124.40 0.03025
1124.50 0.03026
1124.60 0.03027
1124.70 0.03028
1124.80 0.03029
1124.90 0.0303
1125.00 0.03031
1125.10 0.03032
1125.20 0.03033
1125.30 0.03033
1125.40 0.03034
1125.50 0.03035
1125.60 0.03036
1125.70 0.03037
1125.80 0.03038
1125.90 0.03039
1126.00 0.0304
1126.10 0.03041
1126.20 0.03042
1126.30 0.03042
1126.40 0.03043
1126.50 0.03044
1126.60 0.03045
1126.70 0.03046
1126.80 0.03047
1126.90 0.03048
1127.00 0.03049
1127.10 0.0305
1127.20 0.03051
1127.30 0.03052
1127.40 0.03053
1127.50 0.03055
1127.60 0.03056
1127.70 0.03057
1127.80 0.03058
1127.90 0.03059
1128.00 0.0306
1128.10 0.03062
1128.20 0.03063
1128.30 0.03064
1128.40 0.03065
1128.50 0.03066
1128.60 0.03067
1128.70 0.03069
1128.80 0.0307
1128.90 0.03071
1129.00 0.03072
1129.10 0.03073
1129.20 0.03074
1129.30 0.03075
1129.40 0.03077
1129.50 0.03078
1129.60 0.03079
1129.70 0.0308
1129.80 0.03081
1129.90 0.03082
1130.00 0.03084
1130.10 0.03085
1130.20 0.03086
1130.30 0.03087
1130.40 0.03088
1130.50 0.03089
1130.60 0.0309
1130.70 0.03092
1130.80 0.03093
1130.90 0.03094
1131.00 0.03095
1131.10 0.03096
1131.20 0.03097
1131.30 0.03099
1131.40 0.031
1131.50 0.03101
1131.60 0.03102
1131.70 0.03103
1131.80 0.03104
1131.90 0.03105
1132.00 0.03107
1132.10 0.03108
1132.20 0.03109
1132.30 0.0311
1132.40 0.03111
1132.50 0.03112
1132.60 0.03114
1132.70 0.03115
1132.80 0.03116
1132.90 0.03117
1133.00 0.03118
1133.10 0.03119
1133.20 0.0312
1133.30 0.03122
1133.40 0.03123
1133.50 0.03124
1133.60 0.03125
1133.70 0.03126
1133.80 0.03127
1133.90 0.03129
1134.00 0.0313
1134.10 0.03131
1134.20 0.03132
1134.30 0.03133
1134.40 0.03134
1134.50 0.03135
1134.60 0.03137
1134.70 0.03138
1134.80 0.03139
1134.90 0.0314
1135.00 0.03141
1135.10 0.03142
1135.20 0.03144
1135.30 0.03145
1135.40 0.03146
1135.50 0.03147
1135.60 0.03148
1135.70 0.03149
1135.80 0.0315
1135.90 0.03152
1136.00 0.03153
1136.10 0.03154
1136.20 0.03155
1136.30 0.03156
1136.40 0.03157
1136.50 0.03158
1136.60 0.0316
1136.70 0.03161
1136.80 0.03162
1136.90 0.03163
1137.00 0.03164
1137.10 0.03165
1137.20 0.03167
1137.30 0.03168
1137.40 0.03169
1137.50 0.0317
1137.60 0.03171
1137.70 0.03173
1137.80 0.03174
1137.90 0.03175
1138.00 0.03176
1138.10 0.03178
1138.20 0.03179
1138.30 0.0318
1138.40 0.03181
1138.50 0.03182
1138.60 0.03184
1138.70 0.03185
1138.80 0.03186
1138.90 0.03187
1139.00 0.03189
1139.10 0.0319
1139.20 0.03191
1139.30 0.03192
1139.40 0.03193
1139.50 0.03195
1139.60 0.03196
1139.70 0.03197
1139.80 0.03198
1139.90 0.03199
1140.00 0.03201
1140.10 0.03202
1140.20 0.03203
1140.30 0.03204
1140.40 0.03206
1140.50 0.03207
1140.60 0.03208
1140.70 0.03209
1140.80 0.0321
1140.90 0.03212
1141.00 0.03213
1141.10 0.03214
1141.20 0.03215
1141.30 0.03216
1141.40 0.03218
1141.50 0.03219
1141.60 0.0322
1141.70 0.03221
1141.80 0.03222
1141.90 0.03224
1142.00 0.03225
1142.10 0.03226
1142.20 0.03228
1142.30 0.03229
1142.40 0.0323
1142.50 0.03232
1142.60 0.03233
1142.70 0.03234
1142.80 0.03236
1142.90 0.03237
1143.00 0.03238
1143.10 0.0324
1143.20 0.03241
1143.30 0.03243
1143.40 0.03244
1143.50 0.03245
1143.60 0.03247
1143.70 0.03248
1143.80 0.03249
1143.90 0.03251
1144.00 0.03252
1144.10 0.03253
1144.20 0.03255
1144.30 0.03256
1144.40 0.03257
1144.50 0.03259
1144.60 0.0326
1144.70 0.03261
1144.80 0.03263
1144.90 0.03264
1145.00 0.03265
1145.10 0.03267
1145.20 0.03268
1145.30 0.03269
1145.40 0.03271
1145.50 0.03272
1145.60 0.03274
1145.70 0.03275
1145.80 0.03276
1145.90 0.03278
1146.00 0.03279
1146.10 0.0328
1146.20 0.03282
1146.30 0.03283
1146.40 0.03284
1146.50 0.03286
1146.60 0.03287
1146.70 0.03288
1146.80 0.0329
1146.90 0.03291
1147.00 0.03292
1147.10 0.03293
1147.20 0.03295
1147.30 0.03296
1147.40 0.03297
1147.50 0.03298
1147.60 0.03299
1147.70 0.033
1147.80 0.03302
1147.90 0.03303
1148.00 0.03304
1148.10 0.03305
1148.20 0.03306
1148.30 0.03307
1148.40 0.03308
1148.50 0.0331
1148.60 0.03311
1148.70 0.03312
1148.80 0.03313
1148.90 0.03314
1149.00 0.03315
1149.10 0.03317
1149.20 0.03318
1149.30 0.03319
1149.40 0.0332
1149.50 0.03321
1149.60 0.03322
1149.70 0.03323
1149.80 0.03325
1149.90 0.03326
1150.00 0.03327
1150.10 0.03328
1150.20 0.03329
1150.30 0.0333
1150.40 0.03331
1150.50 0.03333
1150.60 0.03334
1150.70 0.03335
1150.80 0.03336
1150.90 0.03337
1151.00 0.03338
1151.10 0.03339
1151.20 0.03341
1151.30 0.03342
1151.40 0.03343
1151.50 0.03344
1151.60 0.03345
1151.70 0.03346
1151.80 0.03347
1151.90 0.03349
1152.00 0.0335
1152.10 0.03351
1152.20 0.03352
1152.30 0.03353
1152.40 0.03354
1152.50 0.03356
1152.60 0.03357
1152.70 0.03358
1152.80 0.03359
1152.90 0.0336
1153.00 0.03361
1153.10 0.03363
1153.20 0.03364
1153.30 0.03365
1153.40 0.03366
1153.50 0.03367
1153.60 0.03368
1153.70 0.0337
1153.80 0.03371
1153.90 0.03372
1154.00 0.03373
1154.10 0.03374
1154.20 0.03375
1154.30 0.03376
1154.40 0.03378
1154.50 0.03379
1154.60 0.0338
1154.70 0.03381
1154.80 0.03382
1154.90 0.03383
1155.00 0.03385
1155.10 0.03386
1155.20 0.03387
1155.30 0.03388
1155.40 0.03389
1155.50 0.0339
1155.60 0.03392
1155.70 0.03393
1155.80 0.03394
1155.90 0.03395
1156.00 0.03396
1156.10 0.03397
1156.20 0.03398
1156.30 0.034
1156.40 0.03401
1156.50 0.03402
1156.60 0.03403
1156.70 0.03404
1156.80 0.03405
1156.90 0.03407
1157.00 0.03408
1157.10 0.03409
1157.20 0.0341
1157.30 0.0341
1157.40 0.03411
1157.50 0.03412
1157.60 0.03413
1157.70 0.03414
1157.80 0.03415
1157.90 0.03416
1158.00 0.03417
1158.10 0.03418
1158.20 0.03419
1158.30 0.0342
1158.40 0.03421
1158.50 0.03422
1158.60 0.03422
1158.70 0.03423
1158.80 0.03424
1158.90 0.03425
1159.00 0.03426
1159.10 0.03427
1159.20 0.03428
1159.30 0.03429
1159.40 0.0343
1159.50 0.03431
1159.60 0.03432
1159.70 0.03433
1159.80 0.03433
1159.90 0.03434
1160.00 0.03435
1160.10 0.03436
1160.20 0.03437
1160.30 0.03438
1160.40 0.03439
1160.50 0.0344
1160.60 0.03441
1160.70 0.03442
1160.80 0.03443
1160.90 0.03444
1161.00 0.03444
1161.10 0.03445
1161.20 0.03446
1161.30 0.03447
1161.40 0.03448
1161.50 0.03449
1161.60 0.0345
1161.70 0.03451
1161.80 0.03452
1161.90 0.03453
1162.00 0.03454
1162.10 0.03454
1162.20 0.03455
1162.30 0.03456
1162.40 0.03456
1162.50 0.03457
1162.60 0.03458
1162.70 0.03459
1162.80 0.03459
1162.90 0.0346
1163.00 0.03461
1163.10 0.03462
1163.20 0.03462
1163.30 0.03463
1163.40 0.03464
1163.50 0.03465
1163.60 0.03465
1163.70 0.03466
1163.80 0.03467
1163.90 0.03468
1164.00 0.03468
1164.10 0.03469
1164.20 0.0347
1164.30 0.0347
1164.40 0.03471
1164.50 0.03472
1164.60 0.03473
1164.70 0.03473
1164.80 0.03474
1164.90 0.03475
1165.00 0.03476
1165.10 0.03476
1165.20 0.03477
1165.30 0.03478
1165.40 0.03479
1165.50 0.03479
1165.60 0.0348
1165.70 0.03481
1165.80 0.03481
1165.90 0.03482
1166.00 0.03483
1166.10 0.03484
1166.20 0.03484
1166.30 0.03485
1166.40 0.03486
1166.50 0.03487
1166.60 0.03487
1166.70 0.03488
1166.80 0.03489
1166.90 0.03489
1167.00 0.0349
1167.10 0.03491
1167.20 0.03491
1167.30 0.03492
1167.40 0.03493
1167.50 0.03493
1167.60 0.03494
1167.70 0.03495
1167.80 0.03495
1167.90 0.03496
1168.00 0.03497
1168.10 0.03497
1168.20 0.03498
1168.30 0.03499
1168.40 0.03499
1168.50 0.035
1168.60 0.03501
1168.70 0.03501
1168.80 0.03502
1168.90 0.03503
1169.00 0.03503
1169.10 0.03504
1169.20 0.03505
1169.30 0.03505
1169.40 0.03506
1169.50 0.03507
1169.60 0.03507
1169.70 0.03508
1169.80 0.03509
1169.90 0.03509
1170.00 0.0351
1170.10 0.03511
1170.20 0.03511
1170.30 0.03512
1170.40 0.03513
1170.50 0.03513
1170.60 0.03514
1170.70 0.03515
1170.80 0.03515
1170.90 0.03516
1171.00 0.03516
1171.10 0.03517
1171.20 0.03518
1171.30 0.03518
1171.40 0.03519
1171.50 0.0352
1171.60 0.0352
1171.70 0.03521
1171.80 0.03522
1171.90 0.03522
1172.00 0.03523
1172.10 0.03523
1172.20 0.03524
1172.30 0.03524
1172.40 0.03524
1172.50 0.03524
1172.60 0.03525
1172.70 0.03525
1172.80 0.03525
1172.90 0.03525
1173.00 0.03526
1173.10 0.03526
1173.20 0.03526
1173.30 0.03526
1173.40 0.03527
1173.50 0.03527
1173.60 0.03527
1173.70 0.03527
1173.80 0.03528
1173.90 0.03528
1174.00 0.03528
1174.10 0.03528
1174.20 0.03529
1174.30 0.03529
1174.40 0.03529
1174.50 0.03529
1174.60 0.0353
1174.70 0.0353
1174.80 0.0353
1174.90 0.0353
1175.00 0.03531
1175.10 0.03531
1175.20 0.03531
1175.30 0.03532
1175.40 0.03532
1175.50 0.03532
1175.60 0.03532
1175.70 0.03533
1175.80 0.03533
1175.90 0.03533
1176.00 0.03533
1176.10 0.03534
1176.20 0.03534
1176.30 0.03534
1176.40 0.03534
1176.50 0.03535
1176.60 0.03535
1176.70 0.03535
1176.80 0.03535
1176.90 0.03536
1177.00 0.03536
1177.10 0.03536
1177.20 0.03536
1177.30 0.03536
1177.40 0.03536
1177.50 0.03536
1177.60 0.03536
1177.70 0.03536
1177.80 0.03536
1177.90 0.03536
1178.00 0.03535
1178.10 0.03535
1178.20 0.03535
1178.30 0.03535
1178.40 0.03535
1178.50 0.03535
1178.60 0.03535
1178.70 0.03535
1178.80 0.03535
1178.90 0.03535
1179.00 0.03535
1179.10 0.03535
1179.20 0.03535
1179.30 0.03535
1179.40 0.03535
1179.50 0.03535
1179.60 0.03535
1179.70 0.03535
1179.80 0.03535
1179.90 0.03535
1180.00 0.03535
1180.10 0.03535
1180.20 0.03535
1180.30 0.03535
1180.40 0.03535
1180.50 0.03535
1180.60 0.03535
1180.70 0.03534
1180.80 0.03534
1180.90 0.03534
1181.00 0.03534
1181.10 0.03534
1181.20 0.03534
1181.30 0.03534
1181.40 0.03534
1181.50 0.03534
1181.60 0.03534
1181.70 0.03534
1181.80 0.03534
1181.90 0.03534
1182.00 0.03534
1182.10 0.03534
1182.20 0.03533
1182.30 0.03533
1182.40 0.03532
1182.50 0.03532
1182.60 0.03531
1182.70 0.03531
1182.80 0.0353
1182.90 0.0353
1183.00 0.03529
1183.10 0.03529
1183.20 0.03528
1183.30 0.03528
1183.40 0.03527
1183.50 0.03527
1183.60 0.03527
1183.70 0.03526
1183.80 0.03526
1183.90 0.03525
1184.00 0.03525
1184.10 0.03524
1184.20 0.03524
1184.30 0.03523
1184.40 0.03523
1184.50 0.03522
1184.60 0.03522
1184.70 0.03521
1184.80 0.03521
1184.90 0.03521
1185.00 0.0352
1185.10 0.0352
1185.20 0.03519
1185.30 0.03519
1185.40 0.03518
1185.50 0.03518
1185.60 0.03517
1185.70 0.03517
1185.80 0.03516
1185.90 0.03516
1186.00 0.03515
1186.10 0.03515
1186.20 0.03515
1186.30 0.03514
1186.40 0.03514
1186.50 0.03513
1186.60 0.03513
1186.70 0.03512
1186.80 0.03512
1186.90 0.03511
1187.00 0.03511
1187.10 0.0351
1187.20 0.0351
1187.30 0.0351
1187.40 0.03509
1187.50 0.03509
1187.60 0.03509
1187.70 0.03508
1187.80 0.03508
1187.90 0.03508
1188.00 0.03507
1188.10 0.03507
1188.20 0.03506
1188.30 0.03506
1188.40 0.03506
1188.50 0.03505
1188.60 0.03505
1188.70 0.03505
1188.80 0.03504
1188.90 0.03504
1189.00 0.03503
1189.10 0.03503
1189.20 0.03503
1189.30 0.03502
1189.40 0.03502
1189.50 0.03502
1189.60 0.03501
1189.70 0.03501
1189.80 0.03501
1189.90 0.035
1190.00 0.035
1190.10 0.03499
1190.20 0.03499
1190.30 0.03499
1190.40 0.03498
1190.50 0.03498
1190.60 0.03498
1190.70 0.03497
1190.80 0.03497
1190.90 0.03497
1191.00 0.03496
1191.10 0.03496
1191.20 0.03495
1191.30 0.03495
1191.40 0.03495
1191.50 0.03494
1191.60 0.03494
1191.70 0.03494
1191.80 0.03493
1191.90 0.03493
1192.00 0.03493
1192.10 0.03492
1192.20 0.03492
1192.30 0.03491
1192.40 0.03491
1192.50 0.0349
1192.60 0.0349
1192.70 0.03489
1192.80 0.03489
1192.90 0.03488
1193.00 0.03488
1193.10 0.03488
1193.20 0.03487
1193.30 0.03487
1193.40 0.03486
1193.50 0.03486
1193.60 0.03485
1193.70 0.03485
1193.80 0.03484
1193.90 0.03484
1194.00 0.03484
1194.10 0.03483
1194.20 0.03483
1194.30 0.03482
1194.40 0.03482
1194.50 0.03481
1194.60 0.03481
1194.70 0.0348
1194.80 0.0348
1194.90 0.03479
1195.00 0.03479
1195.10 0.03479
1195.20 0.03478
1195.30 0.03478
1195.40 0.03477
1195.50 0.03477
1195.60 0.03476
1195.70 0.03476
1195.80 0.03475
1195.90 0.03475
1196.00 0.03475
1196.10 0.03474
1196.20 0.03474
1196.30 0.03473
1196.40 0.03473
1196.50 0.03472
1196.60 0.03472
1196.70 0.03471
1196.80 0.03471
1196.90 0.03471
1197.00 0.0347
1197.10 0.03469
1197.20 0.03469
1197.30 0.03468
1197.40 0.03467
1197.50 0.03466
1197.60 0.03466
1197.70 0.03465
1197.80 0.03464
1197.90 0.03464
1198.00 0.03463
1198.10 0.03462
1198.20 0.03461
1198.30 0.03461
1198.40 0.0346
1198.50 0.03459
1198.60 0.03459
1198.70 0.03458
1198.80 0.03457
1198.90 0.03456
1199.00 0.03456
1199.10 0.03455
1199.20 0.03454
1199.30 0.03454
1199.40 0.03453
1199.50 0.03452
1199.60 0.03451
1199.70 0.03451
1199.80 0.0345
1199.90 0.03449
1200.00 0
