# Version 2.1 - nm, norm@500 to 1, cut digits, bergeron_2500_65.dat_2500
# Wavelength(nm)  Flambda(ergs/cm^s/s/nm)
300.00 0.03051
300.10 0.03062
300.20 0.03073
300.30 0.03085
300.40 0.03096
300.50 0.03108
300.60 0.0312
300.70 0.03131
300.80 0.03143
300.90 0.03154
301.00 0.03165
301.10 0.03177
301.20 0.03188
301.30 0.032
301.40 0.03211
301.50 0.03222
301.60 0.03234
301.70 0.03245
301.80 0.03257
301.90 0.03268
302.00 0.0328
302.10 0.03291
302.20 0.03304
302.30 0.03316
302.40 0.03328
302.50 0.0334
302.60 0.03352
302.70 0.03364
302.80 0.03377
302.90 0.03389
303.00 0.03401
303.10 0.03413
303.20 0.03425
303.30 0.03437
303.40 0.03449
303.50 0.03461
303.60 0.03473
303.70 0.03485
303.80 0.03497
303.90 0.03509
304.00 0.03521
304.10 0.03534
304.20 0.03546
304.30 0.03559
304.40 0.03572
304.50 0.03585
304.60 0.03598
304.70 0.0361
304.80 0.03623
304.90 0.03636
305.00 0.03649
305.10 0.03661
305.20 0.03674
305.30 0.03687
305.40 0.03699
305.50 0.03712
305.60 0.03725
305.70 0.03737
305.80 0.0375
305.90 0.03762
306.00 0.03775
306.10 0.03789
306.20 0.03802
306.30 0.03815
306.40 0.03829
306.50 0.03842
306.60 0.03856
306.70 0.03869
306.80 0.03883
306.90 0.03896
307.00 0.0391
307.10 0.03923
307.20 0.03936
307.30 0.0395
307.40 0.03963
307.50 0.03976
307.60 0.0399
307.70 0.04003
307.80 0.04016
307.90 0.04029
308.00 0.04043
308.10 0.04057
308.20 0.04071
308.30 0.04085
308.40 0.04099
308.50 0.04113
308.60 0.04128
308.70 0.04142
308.80 0.04156
308.90 0.0417
309.00 0.04184
309.10 0.04198
309.20 0.04212
309.30 0.04226
309.40 0.0424
309.50 0.04254
309.60 0.04268
309.70 0.04282
309.80 0.04296
309.90 0.0431
310.00 0.04324
310.10 0.04339
310.20 0.04353
310.30 0.04368
310.40 0.04383
310.50 0.04398
310.60 0.04413
310.70 0.04428
310.80 0.04443
310.90 0.04457
311.00 0.04472
311.10 0.04487
311.20 0.04502
311.30 0.04517
311.40 0.04531
311.50 0.04546
311.60 0.04561
311.70 0.04575
311.80 0.0459
311.90 0.04605
312.00 0.04619
312.10 0.04634
312.20 0.04649
312.30 0.04664
312.40 0.0468
312.50 0.04695
312.60 0.04711
312.70 0.04726
312.80 0.04742
312.90 0.04757
313.00 0.04773
313.10 0.04788
313.20 0.04804
313.30 0.04819
313.40 0.04835
313.50 0.0485
313.60 0.04866
313.70 0.04881
313.80 0.04896
313.90 0.04912
314.00 0.04928
314.10 0.04944
314.20 0.0496
314.30 0.04976
314.40 0.04992
314.50 0.05009
314.60 0.05025
314.70 0.05041
314.80 0.05057
314.90 0.05074
315.00 0.0509
315.10 0.05106
315.20 0.05122
315.30 0.05138
315.40 0.05154
315.50 0.0517
315.60 0.05186
315.70 0.05202
315.80 0.05219
315.90 0.05235
316.00 0.05251
316.10 0.05268
316.20 0.05285
316.30 0.05302
316.40 0.05319
316.50 0.05336
316.60 0.05353
316.70 0.0537
316.80 0.05387
316.90 0.05404
317.00 0.05421
317.10 0.05438
317.20 0.05454
317.30 0.05471
317.40 0.05488
317.50 0.05505
317.60 0.05522
317.70 0.05539
317.80 0.05555
317.90 0.05572
318.00 0.0559
318.10 0.05607
318.20 0.05624
318.30 0.05642
318.40 0.0566
318.50 0.05678
318.60 0.05696
318.70 0.05713
318.80 0.05731
318.90 0.05749
319.00 0.05766
319.10 0.05784
319.20 0.05802
319.30 0.05819
319.40 0.05837
319.50 0.05854
319.60 0.05872
319.70 0.05889
319.80 0.05907
319.90 0.05925
320.00 0.05943
320.10 0.05961
320.20 0.05979
320.30 0.05998
320.40 0.06016
320.50 0.06035
320.60 0.06053
320.70 0.06072
320.80 0.0609
320.90 0.06109
321.00 0.06127
321.10 0.06146
321.20 0.06164
321.30 0.06183
321.40 0.06201
321.50 0.06219
321.60 0.06238
321.70 0.06256
321.80 0.06274
321.90 0.06292
322.00 0.06311
322.10 0.0633
322.20 0.06349
322.30 0.06369
322.40 0.06388
322.50 0.06408
322.60 0.06427
322.70 0.06446
322.80 0.06465
322.90 0.06485
323.00 0.06504
323.10 0.06523
323.20 0.06542
323.30 0.06561
323.40 0.06581
323.50 0.066
323.60 0.06619
323.70 0.06638
323.80 0.06657
323.90 0.06676
324.00 0.06695
324.10 0.06715
324.20 0.06735
324.30 0.06755
324.40 0.06776
324.50 0.06796
324.60 0.06816
324.70 0.06836
324.80 0.06856
324.90 0.06876
325.00 0.06896
325.10 0.06916
325.20 0.06936
325.30 0.06956
325.40 0.06976
325.50 0.06996
325.60 0.07016
325.70 0.07035
325.80 0.07055
325.90 0.07075
326.00 0.07096
326.10 0.07116
326.20 0.07137
326.30 0.07158
326.40 0.07179
326.50 0.072
326.60 0.07221
326.70 0.07242
326.80 0.07263
326.90 0.07284
327.00 0.07304
327.10 0.07325
327.20 0.07346
327.30 0.07367
327.40 0.07387
327.50 0.07408
327.60 0.07429
327.70 0.07449
327.80 0.0747
327.90 0.07491
328.00 0.07512
328.10 0.07533
328.20 0.07555
328.30 0.07577
328.40 0.07599
328.50 0.0762
328.60 0.07642
328.70 0.07664
328.80 0.07686
328.90 0.07707
329.00 0.07729
329.10 0.07751
329.20 0.07772
329.30 0.07794
329.40 0.07815
329.50 0.07837
329.60 0.07858
329.70 0.0788
329.80 0.07901
329.90 0.07922
330.00 0.07944
330.10 0.07967
330.20 0.07989
330.30 0.08012
330.40 0.08035
330.50 0.08057
330.60 0.0808
330.70 0.08102
330.80 0.08125
330.90 0.08147
331.00 0.0817
331.10 0.08192
331.20 0.08215
331.30 0.08237
331.40 0.0826
331.50 0.08282
331.60 0.08304
331.70 0.08327
331.80 0.08349
331.90 0.08371
332.00 0.08393
332.10 0.08417
332.20 0.0844
332.30 0.08464
332.40 0.08487
332.50 0.08511
332.60 0.08534
332.70 0.08558
332.80 0.08581
332.90 0.08604
333.00 0.08628
333.10 0.08651
333.20 0.08674
333.30 0.08697
333.40 0.08721
333.50 0.08744
333.60 0.08767
333.70 0.0879
333.80 0.08813
333.90 0.08836
334.00 0.08859
334.10 0.08884
334.20 0.08908
334.30 0.08933
334.40 0.08957
334.50 0.08981
334.60 0.09005
334.70 0.0903
334.80 0.09054
334.90 0.09078
335.00 0.09102
335.10 0.09127
335.20 0.09151
335.30 0.09175
335.40 0.09199
335.50 0.09223
335.60 0.09247
335.70 0.09271
335.80 0.09295
335.90 0.09319
336.00 0.09342
336.10 0.09368
336.20 0.09393
336.30 0.09418
336.40 0.09443
336.50 0.09469
336.60 0.09494
336.70 0.09519
336.80 0.09544
336.90 0.09569
337.00 0.09594
337.10 0.09619
337.20 0.09644
337.30 0.09669
337.40 0.09694
337.50 0.09719
337.60 0.09744
337.70 0.09768
337.80 0.09793
337.90 0.09818
338.00 0.09843
338.10 0.09869
338.20 0.09895
338.30 0.09921
338.40 0.09947
338.50 0.09973
338.60 0.09999
338.70 0.1003
338.80 0.1005
338.90 0.1008
339.00 0.101
339.10 0.1013
339.20 0.1015
339.30 0.1018
339.40 0.1021
339.50 0.1023
339.60 0.1026
339.70 0.1028
339.80 0.1031
339.90 0.1033
340.00 0.1036
340.10 0.1039
340.20 0.1041
340.30 0.1044
340.40 0.1047
340.50 0.105
340.60 0.1052
340.70 0.1055
340.80 0.1058
340.90 0.106
341.00 0.1063
341.10 0.1066
341.20 0.1068
341.30 0.1071
341.40 0.1074
341.50 0.1076
341.60 0.1079
341.70 0.1082
341.80 0.1084
341.90 0.1087
342.00 0.109
342.10 0.1092
342.20 0.1095
342.30 0.1098
342.40 0.1101
342.50 0.1104
342.60 0.1106
342.70 0.1109
342.80 0.1112
342.90 0.1115
343.00 0.1117
343.10 0.112
343.20 0.1123
343.30 0.1126
343.40 0.1128
343.50 0.1131
343.60 0.1134
343.70 0.1137
343.80 0.1139
343.90 0.1142
344.00 0.1145
344.10 0.1148
344.20 0.1151
344.30 0.1154
344.40 0.1156
344.50 0.1159
344.60 0.1162
344.70 0.1165
344.80 0.1168
344.90 0.1171
345.00 0.1174
345.10 0.1176
345.20 0.1179
345.30 0.1182
345.40 0.1185
345.50 0.1188
345.60 0.1191
345.70 0.1193
345.80 0.1196
345.90 0.1199
346.00 0.1202
346.10 0.1205
346.20 0.1208
346.30 0.1211
346.40 0.1214
346.50 0.1217
346.60 0.122
346.70 0.1223
346.80 0.1226
346.90 0.1229
347.00 0.1232
347.10 0.1234
347.20 0.1237
347.30 0.124
347.40 0.1243
347.50 0.1246
347.60 0.1249
347.70 0.1252
347.80 0.1255
347.90 0.1258
348.00 0.1261
348.10 0.1264
348.20 0.1267
348.30 0.127
348.40 0.1273
348.50 0.1276
348.60 0.1279
348.70 0.1282
348.80 0.1285
348.90 0.1288
349.00 0.1291
349.10 0.1294
349.20 0.1297
349.30 0.13
349.40 0.1303
349.50 0.1306
349.60 0.1309
349.70 0.1312
349.80 0.1315
349.90 0.1318
350.00 0.1321
350.10 0.1325
350.20 0.1328
350.30 0.1331
350.40 0.1334
350.50 0.1337
350.60 0.134
350.70 0.1343
350.80 0.1347
350.90 0.135
351.00 0.1353
351.10 0.1356
351.20 0.1359
351.30 0.1362
351.40 0.1365
351.50 0.1368
351.60 0.1372
351.70 0.1375
351.80 0.1378
351.90 0.1381
352.00 0.1384
352.10 0.1387
352.20 0.139
352.30 0.1394
352.40 0.1397
352.50 0.14
352.60 0.1403
352.70 0.1407
352.80 0.141
352.90 0.1413
353.00 0.1416
353.10 0.1419
353.20 0.1423
353.30 0.1426
353.40 0.1429
353.50 0.1432
353.60 0.1435
353.70 0.1439
353.80 0.1442
353.90 0.1445
354.00 0.1448
354.10 0.1452
354.20 0.1455
354.30 0.1458
354.40 0.1462
354.50 0.1465
354.60 0.1468
354.70 0.1472
354.80 0.1475
354.90 0.1478
355.00 0.1481
355.10 0.1485
355.20 0.1488
355.30 0.1491
355.40 0.1495
355.50 0.1498
355.60 0.1501
355.70 0.1504
355.80 0.1508
355.90 0.1511
356.00 0.1514
356.10 0.1518
356.20 0.1521
356.30 0.1525
356.40 0.1528
356.50 0.1531
356.60 0.1535
356.70 0.1538
356.80 0.1542
356.90 0.1545
357.00 0.1548
357.10 0.1552
357.20 0.1555
357.30 0.1559
357.40 0.1562
357.50 0.1565
357.60 0.1569
357.70 0.1572
357.80 0.1576
357.90 0.1579
358.00 0.1582
358.10 0.1586
358.20 0.1589
358.30 0.1593
358.40 0.1596
358.50 0.16
358.60 0.1603
358.70 0.1607
358.80 0.161
358.90 0.1614
359.00 0.1617
359.10 0.1621
359.20 0.1624
359.30 0.1628
359.40 0.1631
359.50 0.1635
359.60 0.1638
359.70 0.1642
359.80 0.1645
359.90 0.1648
360.00 0.1652
360.10 0.1656
360.20 0.1659
360.30 0.1663
360.40 0.1666
360.50 0.167
360.60 0.1674
360.70 0.1677
360.80 0.1681
360.90 0.1684
361.00 0.1688
361.10 0.1692
361.20 0.1695
361.30 0.1699
361.40 0.1702
361.50 0.1706
361.60 0.1709
361.70 0.1713
361.80 0.1716
361.90 0.172
362.00 0.1724
362.10 0.1727
362.20 0.1731
362.30 0.1735
362.40 0.1738
362.50 0.1742
362.60 0.1745
362.70 0.1749
362.80 0.1753
362.90 0.1756
363.00 0.176
363.10 0.1764
363.20 0.1767
363.30 0.1771
363.40 0.1775
363.50 0.1779
363.60 0.1782
363.70 0.1786
363.80 0.179
363.90 0.1793
364.00 0.1797
364.10 0.1801
364.20 0.1805
364.30 0.1808
364.40 0.1812
364.50 0.1816
364.60 0.1819
364.70 0.1823
364.80 0.1827
364.90 0.1831
365.00 0.1834
365.10 0.1838
365.20 0.1842
365.30 0.1846
365.40 0.185
365.50 0.1853
365.60 0.1857
365.70 0.1861
365.80 0.1865
365.90 0.1868
366.00 0.1872
366.10 0.1876
366.20 0.188
366.30 0.1884
366.40 0.1888
366.50 0.1892
366.60 0.1895
366.70 0.1899
366.80 0.1903
366.90 0.1907
367.00 0.1911
367.10 0.1915
367.20 0.1919
367.30 0.1922
367.40 0.1926
367.50 0.193
367.60 0.1934
367.70 0.1938
367.80 0.1942
367.90 0.1945
368.00 0.1949
368.10 0.1953
368.20 0.1957
368.30 0.1961
368.40 0.1965
368.50 0.1969
368.60 0.1973
368.70 0.1977
368.80 0.1981
368.90 0.1985
369.00 0.1989
369.10 0.1993
369.20 0.1997
369.30 0.2001
369.40 0.2005
369.50 0.2008
369.60 0.2012
369.70 0.2016
369.80 0.202
369.90 0.2024
370.00 0.2028
370.10 0.2032
370.20 0.2036
370.30 0.204
370.40 0.2044
370.50 0.2048
370.60 0.2052
370.70 0.2056
370.80 0.206
370.90 0.2065
371.00 0.2069
371.10 0.2073
371.20 0.2077
371.30 0.2081
371.40 0.2085
371.50 0.2089
371.60 0.2093
371.70 0.2097
371.80 0.2101
371.90 0.2105
372.00 0.2109
372.10 0.2113
372.20 0.2117
372.30 0.2121
372.40 0.2125
372.50 0.2129
372.60 0.2134
372.70 0.2138
372.80 0.2142
372.90 0.2146
373.00 0.215
373.10 0.2154
373.20 0.2158
373.30 0.2162
373.40 0.2167
373.50 0.2171
373.60 0.2175
373.70 0.2179
373.80 0.2183
373.90 0.2187
374.00 0.2191
374.10 0.2195
374.20 0.22
374.30 0.2204
374.40 0.2208
374.50 0.2212
374.60 0.2217
374.70 0.2221
374.80 0.2225
374.90 0.2229
375.00 0.2233
375.10 0.2238
375.20 0.2242
375.30 0.2246
375.40 0.225
375.50 0.2254
375.60 0.2259
375.70 0.2263
375.80 0.2267
375.90 0.2271
376.00 0.2275
376.10 0.228
376.20 0.2284
376.30 0.2288
376.40 0.2293
376.50 0.2297
376.60 0.2301
376.70 0.2305
376.80 0.231
376.90 0.2314
377.00 0.2318
377.10 0.2322
377.20 0.2327
377.30 0.2331
377.40 0.2335
377.50 0.234
377.60 0.2344
377.70 0.2348
377.80 0.2353
377.90 0.2357
378.00 0.2361
378.10 0.2366
378.20 0.237
378.30 0.2374
378.40 0.2379
378.50 0.2383
378.60 0.2388
378.70 0.2392
378.80 0.2396
378.90 0.2401
379.00 0.2405
379.10 0.2409
379.20 0.2414
379.30 0.2418
379.40 0.2423
379.50 0.2427
379.60 0.2432
379.70 0.2436
379.80 0.244
379.90 0.2445
380.00 0.2449
380.10 0.2454
380.20 0.2458
380.30 0.2463
380.40 0.2467
380.50 0.2471
380.60 0.2476
380.70 0.248
380.80 0.2485
380.90 0.2489
381.00 0.2494
381.10 0.2498
381.20 0.2503
381.30 0.2507
381.40 0.2512
381.50 0.2516
381.60 0.2521
381.70 0.2525
381.80 0.253
381.90 0.2534
382.00 0.2539
382.10 0.2543
382.20 0.2548
382.30 0.2552
382.40 0.2557
382.50 0.2561
382.60 0.2566
382.70 0.2571
382.80 0.2575
382.90 0.258
383.00 0.2584
383.10 0.2589
383.20 0.2593
383.30 0.2598
383.40 0.2602
383.50 0.2607
383.60 0.2612
383.70 0.2616
383.80 0.2621
383.90 0.2625
384.00 0.263
384.10 0.2635
384.20 0.2639
384.30 0.2644
384.40 0.2648
384.50 0.2653
384.60 0.2658
384.70 0.2662
384.80 0.2667
384.90 0.2672
385.00 0.2676
385.10 0.2681
385.20 0.2686
385.30 0.269
385.40 0.2695
385.50 0.27
385.60 0.2704
385.70 0.2709
385.80 0.2714
385.90 0.2718
386.00 0.2723
386.10 0.2728
386.20 0.2732
386.30 0.2737
386.40 0.2742
386.50 0.2746
386.60 0.2751
386.70 0.2756
386.80 0.2761
386.90 0.2765
387.00 0.277
387.10 0.2775
387.20 0.278
387.30 0.2784
387.40 0.2789
387.50 0.2794
387.60 0.2799
387.70 0.2803
387.80 0.2808
387.90 0.2813
388.00 0.2818
388.10 0.2822
388.20 0.2827
388.30 0.2832
388.40 0.2837
388.50 0.2842
388.60 0.2846
388.70 0.2851
388.80 0.2856
388.90 0.2861
389.00 0.2866
389.10 0.2871
389.20 0.2875
389.30 0.288
389.40 0.2885
389.50 0.289
389.60 0.2895
389.70 0.29
389.80 0.2904
389.90 0.2909
390.00 0.2914
390.10 0.2919
390.20 0.2924
390.30 0.2929
390.40 0.2934
390.50 0.2938
390.60 0.2943
390.70 0.2948
390.80 0.2953
390.90 0.2958
391.00 0.2963
391.10 0.2968
391.20 0.2973
391.30 0.2978
391.40 0.2983
391.50 0.2987
391.60 0.2992
391.70 0.2997
391.80 0.3002
391.90 0.3007
392.00 0.3012
392.10 0.3017
392.20 0.3022
392.30 0.3027
392.40 0.3032
392.50 0.3037
392.60 0.3042
392.70 0.3047
392.80 0.3052
392.90 0.3057
393.00 0.3062
393.10 0.3067
393.20 0.3072
393.30 0.3077
393.40 0.3082
393.50 0.3087
393.60 0.3092
393.70 0.3097
393.80 0.3102
393.90 0.3107
394.00 0.3112
394.10 0.3117
394.20 0.3122
394.30 0.3127
394.40 0.3132
394.50 0.3137
394.60 0.3142
394.70 0.3147
394.80 0.3152
394.90 0.3157
395.00 0.3162
395.10 0.3167
395.20 0.3173
395.30 0.3178
395.40 0.3183
395.50 0.3188
395.60 0.3193
395.70 0.3198
395.80 0.3203
395.90 0.3208
396.00 0.3213
396.10 0.3218
396.20 0.3223
396.30 0.3229
396.40 0.3234
396.50 0.3239
396.60 0.3244
396.70 0.3249
396.80 0.3254
396.90 0.3259
397.00 0.3265
397.10 0.327
397.20 0.3275
397.30 0.328
397.40 0.3285
397.50 0.329
397.60 0.3295
397.70 0.3301
397.80 0.3306
397.90 0.3311
398.00 0.3316
398.10 0.3321
398.20 0.3327
398.30 0.3332
398.40 0.3337
398.50 0.3342
398.60 0.3347
398.70 0.3353
398.80 0.3358
398.90 0.3363
399.00 0.3368
399.10 0.3374
399.20 0.3379
399.30 0.3384
399.40 0.3389
399.50 0.3394
399.60 0.34
399.70 0.3405
399.80 0.341
399.90 0.3415
400.00 0.3421
400.10 0.3426
400.20 0.3431
400.30 0.3437
400.40 0.3442
400.50 0.3447
400.60 0.3452
400.70 0.3458
400.80 0.3463
400.90 0.3468
401.00 0.3474
401.10 0.3479
401.20 0.3484
401.30 0.3489
401.40 0.3495
401.50 0.35
401.60 0.3505
401.70 0.3511
401.80 0.3516
401.90 0.3521
402.00 0.3527
402.10 0.3532
402.20 0.3538
402.30 0.3543
402.40 0.3548
402.50 0.3554
402.60 0.3559
402.70 0.3564
402.80 0.357
402.90 0.3575
403.00 0.358
403.10 0.3586
403.20 0.3591
403.30 0.3597
403.40 0.3602
403.50 0.3607
403.60 0.3613
403.70 0.3618
403.80 0.3624
403.90 0.3629
404.00 0.3634
404.10 0.364
404.20 0.3645
404.30 0.3651
404.40 0.3656
404.50 0.3662
404.60 0.3667
404.70 0.3673
404.80 0.3678
404.90 0.3683
405.00 0.3689
405.10 0.3694
405.20 0.37
405.30 0.3705
405.40 0.3711
405.50 0.3716
405.60 0.3722
405.70 0.3727
405.80 0.3733
405.90 0.3738
406.00 0.3744
406.10 0.3749
406.20 0.3755
406.30 0.376
406.40 0.3766
406.50 0.3771
406.60 0.3777
406.70 0.3782
406.80 0.3788
406.90 0.3793
407.00 0.3799
407.10 0.3804
407.20 0.381
407.30 0.3815
407.40 0.3821
407.50 0.3826
407.60 0.3832
407.70 0.3838
407.80 0.3843
407.90 0.3849
408.00 0.3854
408.10 0.386
408.20 0.3865
408.30 0.3871
408.40 0.3877
408.50 0.3882
408.60 0.3888
408.70 0.3893
408.80 0.3899
408.90 0.3904
409.00 0.391
409.10 0.3916
409.20 0.3921
409.30 0.3927
409.40 0.3933
409.50 0.3938
409.60 0.3944
409.70 0.3949
409.80 0.3955
409.90 0.3961
410.00 0.3966
410.10 0.3972
410.20 0.3978
410.30 0.3983
410.40 0.3989
410.50 0.3995
410.60 0.4
410.70 0.4006
410.80 0.4012
410.90 0.4017
411.00 0.4023
411.10 0.4029
411.20 0.4034
411.30 0.404
411.40 0.4046
411.50 0.4051
411.60 0.4057
411.70 0.4063
411.80 0.4068
411.90 0.4074
412.00 0.408
412.10 0.4086
412.20 0.4091
412.30 0.4097
412.40 0.4103
412.50 0.4108
412.60 0.4114
412.70 0.412
412.80 0.4126
412.90 0.4131
413.00 0.4137
413.10 0.4143
413.20 0.4149
413.30 0.4154
413.40 0.416
413.50 0.4166
413.60 0.4172
413.70 0.4177
413.80 0.4183
413.90 0.4189
414.00 0.4195
414.10 0.4201
414.20 0.4206
414.30 0.4212
414.40 0.4218
414.50 0.4224
414.60 0.423
414.70 0.4235
414.80 0.4241
414.90 0.4247
415.00 0.4253
415.10 0.4259
415.20 0.4264
415.30 0.427
415.40 0.4276
415.50 0.4282
415.60 0.4288
415.70 0.4294
415.80 0.4299
415.90 0.4305
416.00 0.4311
416.10 0.4317
416.20 0.4323
416.30 0.4329
416.40 0.4334
416.50 0.434
416.60 0.4346
416.70 0.4352
416.80 0.4358
416.90 0.4364
417.00 0.437
417.10 0.4376
417.20 0.4381
417.30 0.4387
417.40 0.4393
417.50 0.4399
417.60 0.4405
417.70 0.4411
417.80 0.4417
417.90 0.4423
418.00 0.4429
418.10 0.4435
418.20 0.4441
418.30 0.4446
418.40 0.4452
418.50 0.4458
418.60 0.4464
418.70 0.447
418.80 0.4476
418.90 0.4482
419.00 0.4488
419.10 0.4494
419.20 0.45
419.30 0.4506
419.40 0.4512
419.50 0.4518
419.60 0.4524
419.70 0.453
419.80 0.4536
419.90 0.4542
420.00 0.4548
420.10 0.4554
420.20 0.456
420.30 0.4566
420.40 0.4572
420.50 0.4578
420.60 0.4584
420.70 0.459
420.80 0.4596
420.90 0.4602
421.00 0.4608
421.10 0.4614
421.20 0.462
421.30 0.4626
421.40 0.4632
421.50 0.4638
421.60 0.4644
421.70 0.465
421.80 0.4656
421.90 0.4662
422.00 0.4668
422.10 0.4674
422.20 0.468
422.30 0.4686
422.40 0.4692
422.50 0.4698
422.60 0.4704
422.70 0.471
422.80 0.4716
422.90 0.4722
423.00 0.4728
423.10 0.4735
423.20 0.4741
423.30 0.4747
423.40 0.4753
423.50 0.4759
423.60 0.4765
423.70 0.4771
423.80 0.4777
423.90 0.4783
424.00 0.4789
424.10 0.4796
424.20 0.4802
424.30 0.4808
424.40 0.4814
424.50 0.482
424.60 0.4826
424.70 0.4832
424.80 0.4838
424.90 0.4844
425.00 0.4851
425.10 0.4857
425.20 0.4863
425.30 0.4869
425.40 0.4875
425.50 0.4881
425.60 0.4887
425.70 0.4894
425.80 0.49
425.90 0.4906
426.00 0.4912
426.10 0.4918
426.20 0.4924
426.30 0.4931
426.40 0.4937
426.50 0.4943
426.60 0.4949
426.70 0.4955
426.80 0.4961
426.90 0.4968
427.00 0.4974
427.10 0.498
427.20 0.4986
427.30 0.4992
427.40 0.4999
427.50 0.5005
427.60 0.5011
427.70 0.5017
427.80 0.5024
427.90 0.503
428.00 0.5036
428.10 0.5042
428.20 0.5048
428.30 0.5055
428.40 0.5061
428.50 0.5067
428.60 0.5073
428.70 0.508
428.80 0.5086
428.90 0.5092
429.00 0.5098
429.10 0.5105
429.20 0.5111
429.30 0.5117
429.40 0.5123
429.50 0.513
429.60 0.5136
429.70 0.5142
429.80 0.5148
429.90 0.5155
430.00 0.5161
430.10 0.5167
430.20 0.5174
430.30 0.518
430.40 0.5186
430.50 0.5192
430.60 0.5199
430.70 0.5205
430.80 0.5211
430.90 0.5218
431.00 0.5224
431.10 0.523
431.20 0.5237
431.30 0.5243
431.40 0.5249
431.50 0.5256
431.60 0.5262
431.70 0.5268
431.80 0.5275
431.90 0.5281
432.00 0.5287
432.10 0.5293
432.20 0.53
432.30 0.5306
432.40 0.5313
432.50 0.5319
432.60 0.5325
432.70 0.5332
432.80 0.5338
432.90 0.5344
433.00 0.5351
433.10 0.5357
433.20 0.5363
433.30 0.537
433.40 0.5376
433.50 0.5383
433.60 0.5389
433.70 0.5395
433.80 0.5402
433.90 0.5408
434.00 0.5414
434.10 0.5421
434.20 0.5427
434.30 0.5434
434.40 0.544
434.50 0.5446
434.60 0.5453
434.70 0.5459
434.80 0.5466
434.90 0.5472
435.00 0.5478
435.10 0.5485
435.20 0.5491
435.30 0.5498
435.40 0.5504
435.50 0.5511
435.60 0.5517
435.70 0.5523
435.80 0.553
435.90 0.5536
436.00 0.5543
436.10 0.5549
436.20 0.5556
436.30 0.5562
436.40 0.5568
436.50 0.5575
436.60 0.5581
436.70 0.5588
436.80 0.5594
436.90 0.5601
437.00 0.5607
437.10 0.5614
437.20 0.562
437.30 0.5627
437.40 0.5633
437.50 0.564
437.60 0.5646
437.70 0.5653
437.80 0.5659
437.90 0.5666
438.00 0.5672
438.10 0.5679
438.20 0.5685
438.30 0.5692
438.40 0.5698
438.50 0.5705
438.60 0.5711
438.70 0.5718
438.80 0.5724
438.90 0.5731
439.00 0.5737
439.10 0.5744
439.20 0.575
439.30 0.5757
439.40 0.5763
439.50 0.577
439.60 0.5776
439.70 0.5783
439.80 0.5789
439.90 0.5796
440.00 0.5802
440.10 0.5809
440.20 0.5815
440.30 0.5822
440.40 0.5829
440.50 0.5835
440.60 0.5842
440.70 0.5848
440.80 0.5855
440.90 0.5861
441.00 0.5868
441.10 0.5874
441.20 0.5881
441.30 0.5888
441.40 0.5894
441.50 0.5901
441.60 0.5907
441.70 0.5914
441.80 0.5921
441.90 0.5927
442.00 0.5934
442.10 0.594
442.20 0.5947
442.30 0.5953
442.40 0.596
442.50 0.5967
442.60 0.5973
442.70 0.598
442.80 0.5986
442.90 0.5993
443.00 0.6
443.10 0.6006
443.20 0.6013
443.30 0.6019
443.40 0.6026
443.50 0.6033
443.60 0.6039
443.70 0.6046
443.80 0.6053
443.90 0.6059
444.00 0.6066
444.10 0.6072
444.20 0.6079
444.30 0.6086
444.40 0.6092
444.50 0.6099
444.60 0.6106
444.70 0.6112
444.80 0.6119
444.90 0.6126
445.00 0.6132
445.10 0.6139
445.20 0.6146
445.30 0.6152
445.40 0.6159
445.50 0.6166
445.60 0.6172
445.70 0.6179
445.80 0.6186
445.90 0.6192
446.00 0.6199
446.10 0.6206
446.20 0.6212
446.30 0.6219
446.40 0.6226
446.50 0.6232
446.60 0.6239
446.70 0.6246
446.80 0.6252
446.90 0.6259
447.00 0.6266
447.10 0.6272
447.20 0.6279
447.30 0.6286
447.40 0.6293
447.50 0.6299
447.60 0.6306
447.70 0.6313
447.80 0.6319
447.90 0.6326
448.00 0.6333
448.10 0.634
448.20 0.6346
448.30 0.6353
448.40 0.636
448.50 0.6366
448.60 0.6373
448.70 0.638
448.80 0.6387
448.90 0.6393
449.00 0.64
449.10 0.6407
449.20 0.6414
449.30 0.642
449.40 0.6427
449.50 0.6434
449.60 0.6441
449.70 0.6447
449.80 0.6454
449.90 0.6461
450.00 0.6468
450.10 0.6474
450.20 0.6481
450.30 0.6488
450.40 0.6495
450.50 0.6501
450.60 0.6508
450.70 0.6515
450.80 0.6522
450.90 0.6528
451.00 0.6535
451.10 0.6542
451.20 0.6549
451.30 0.6556
451.40 0.6562
451.50 0.6569
451.60 0.6576
451.70 0.6583
451.80 0.659
451.90 0.6596
452.00 0.6603
452.10 0.661
452.20 0.6617
452.30 0.6623
452.40 0.663
452.50 0.6637
452.60 0.6644
452.70 0.6651
452.80 0.6658
452.90 0.6664
453.00 0.6671
453.10 0.6678
453.20 0.6685
453.30 0.6692
453.40 0.6698
453.50 0.6705
453.60 0.6712
453.70 0.6719
453.80 0.6726
453.90 0.6733
454.00 0.6739
454.10 0.6746
454.20 0.6753
454.30 0.676
454.40 0.6767
454.50 0.6774
454.60 0.678
454.70 0.6787
454.80 0.6794
454.90 0.6801
455.00 0.6808
455.10 0.6815
455.20 0.6822
455.30 0.6828
455.40 0.6835
455.50 0.6842
455.60 0.6849
455.70 0.6856
455.80 0.6863
455.90 0.687
456.00 0.6876
456.10 0.6883
456.20 0.689
456.30 0.6897
456.40 0.6904
456.50 0.6911
456.60 0.6918
456.70 0.6925
456.80 0.6931
456.90 0.6938
457.00 0.6945
457.10 0.6952
457.20 0.6959
457.30 0.6966
457.40 0.6973
457.50 0.698
457.60 0.6986
457.70 0.6993
457.80 0.7
457.90 0.7007
458.00 0.7014
458.10 0.7021
458.20 0.7028
458.30 0.7035
458.40 0.7042
458.50 0.7049
458.60 0.7056
458.70 0.7062
458.80 0.7069
458.90 0.7076
459.00 0.7083
459.10 0.709
459.20 0.7097
459.30 0.7104
459.40 0.7111
459.50 0.7118
459.60 0.7125
459.70 0.7132
459.80 0.7139
459.90 0.7146
460.00 0.7153
460.10 0.716
460.20 0.7166
460.30 0.7173
460.40 0.718
460.50 0.7187
460.60 0.7194
460.70 0.7201
460.80 0.7208
460.90 0.7215
461.00 0.7222
461.10 0.7229
461.20 0.7236
461.30 0.7242
461.40 0.7249
461.50 0.7256
461.60 0.7263
461.70 0.727
461.80 0.7277
461.90 0.7284
462.00 0.7291
462.10 0.7298
462.20 0.7305
462.30 0.7312
462.40 0.7319
462.50 0.7326
462.60 0.7333
462.70 0.734
462.80 0.7347
462.90 0.7354
463.00 0.7361
463.10 0.7368
463.20 0.7375
463.30 0.7382
463.40 0.7389
463.50 0.7396
463.60 0.7403
463.70 0.741
463.80 0.7417
463.90 0.7423
464.00 0.743
464.10 0.7437
464.20 0.7444
464.30 0.7451
464.40 0.7458
464.50 0.7466
464.60 0.7473
464.70 0.748
464.80 0.7487
464.90 0.7494
465.00 0.7501
465.10 0.7508
465.20 0.7515
465.30 0.7522
465.40 0.7529
465.50 0.7536
465.60 0.7543
465.70 0.755
465.80 0.7557
465.90 0.7563
466.00 0.757
466.10 0.7577
466.20 0.7584
466.30 0.7591
466.40 0.7599
466.50 0.7606
466.60 0.7613
466.70 0.762
466.80 0.7627
466.90 0.7634
467.00 0.7641
467.10 0.7648
467.20 0.7655
467.30 0.7662
467.40 0.7669
467.50 0.7676
467.60 0.7683
467.70 0.769
467.80 0.7697
467.90 0.7704
468.00 0.7711
468.10 0.7718
468.20 0.7725
468.30 0.7732
468.40 0.7739
468.50 0.7746
468.60 0.7753
468.70 0.7761
468.80 0.7768
468.90 0.7775
469.00 0.7782
469.10 0.7789
469.20 0.7796
469.30 0.7803
469.40 0.781
469.50 0.7817
469.60 0.7824
469.70 0.7831
469.80 0.7838
469.90 0.7845
470.00 0.7852
470.10 0.7859
470.20 0.7866
470.30 0.7873
470.40 0.7881
470.50 0.7888
470.60 0.7895
470.70 0.7902
470.80 0.7909
470.90 0.7916
471.00 0.7923
471.10 0.793
471.20 0.7937
471.30 0.7944
471.40 0.7951
471.50 0.7958
471.60 0.7965
471.70 0.7972
471.80 0.7979
471.90 0.7987
472.00 0.7994
472.10 0.8001
472.20 0.8008
472.30 0.8015
472.40 0.8022
472.50 0.8029
472.60 0.8036
472.70 0.8043
472.80 0.805
472.90 0.8057
473.00 0.8065
473.10 0.8072
473.20 0.8079
473.30 0.8086
473.40 0.8093
473.50 0.81
473.60 0.8107
473.70 0.8114
473.80 0.8121
473.90 0.8129
474.00 0.8136
474.10 0.8143
474.20 0.815
474.30 0.8157
474.40 0.8164
474.50 0.8171
474.60 0.8178
474.70 0.8185
474.80 0.8193
474.90 0.82
475.00 0.8207
475.10 0.8214
475.20 0.8221
475.30 0.8228
475.40 0.8235
475.50 0.8242
475.60 0.8249
475.70 0.8257
475.80 0.8264
475.90 0.8271
476.00 0.8278
476.10 0.8285
476.20 0.8292
476.30 0.8299
476.40 0.8306
476.50 0.8313
476.60 0.832
476.70 0.8328
476.80 0.8335
476.90 0.8342
477.00 0.8349
477.10 0.8356
477.20 0.8363
477.30 0.837
477.40 0.8377
477.50 0.8384
477.60 0.8392
477.70 0.8399
477.80 0.8406
477.90 0.8413
478.00 0.842
478.10 0.8427
478.20 0.8434
478.30 0.8441
478.40 0.8449
478.50 0.8456
478.60 0.8463
478.70 0.847
478.80 0.8477
478.90 0.8484
479.00 0.8492
479.10 0.8499
479.20 0.8506
479.30 0.8513
479.40 0.852
479.50 0.8527
479.60 0.8534
479.70 0.8541
479.80 0.8549
479.90 0.8556
480.00 0.8563
480.10 0.857
480.20 0.8577
480.30 0.8584
480.40 0.8591
480.50 0.8599
480.60 0.8606
480.70 0.8613
480.80 0.862
480.90 0.8627
481.00 0.8634
481.10 0.8641
481.20 0.8649
481.30 0.8656
481.40 0.8663
481.50 0.867
481.60 0.8677
481.70 0.8684
481.80 0.8692
481.90 0.8699
482.00 0.8706
482.10 0.8713
482.20 0.872
482.30 0.8727
482.40 0.8735
482.50 0.8742
482.60 0.8749
482.70 0.8756
482.80 0.8763
482.90 0.877
483.00 0.8777
483.10 0.8785
483.20 0.8792
483.30 0.8799
483.40 0.8806
483.50 0.8813
483.60 0.882
483.70 0.8828
483.80 0.8835
483.90 0.8842
484.00 0.8849
484.10 0.8856
484.20 0.8863
484.30 0.887
484.40 0.8878
484.50 0.8885
484.60 0.8892
484.70 0.8899
484.80 0.8906
484.90 0.8914
485.00 0.8921
485.10 0.8928
485.20 0.8935
485.30 0.8943
485.40 0.895
485.50 0.8957
485.60 0.8964
485.70 0.8971
485.80 0.8978
485.90 0.8985
486.00 0.8993
486.10 0.9
486.20 0.9007
486.30 0.9014
486.40 0.9021
486.50 0.9029
486.60 0.9036
486.70 0.9043
486.80 0.905
486.90 0.9057
487.00 0.9065
487.10 0.9072
487.20 0.9079
487.30 0.9086
487.40 0.9093
487.50 0.91
487.60 0.9107
487.70 0.9115
487.80 0.9122
487.90 0.9129
488.00 0.9136
488.10 0.9143
488.20 0.9151
488.30 0.9158
488.40 0.9165
488.50 0.9172
488.60 0.9179
488.70 0.9187
488.80 0.9194
488.90 0.9201
489.00 0.9208
489.10 0.9215
489.20 0.9223
489.30 0.923
489.40 0.9237
489.50 0.9244
489.60 0.9251
489.70 0.9259
489.80 0.9266
489.90 0.9273
490.00 0.928
490.10 0.9287
490.20 0.9295
490.30 0.9302
490.40 0.9309
490.50 0.9316
490.60 0.9323
490.70 0.9331
490.80 0.9338
490.90 0.9345
491.00 0.9352
491.10 0.9359
491.20 0.9367
491.30 0.9374
491.40 0.9381
491.50 0.9388
491.60 0.9395
491.70 0.9403
491.80 0.941
491.90 0.9417
492.00 0.9424
492.10 0.9431
492.20 0.9439
492.30 0.9446
492.40 0.9453
492.50 0.946
492.60 0.9467
492.70 0.9475
492.80 0.9482
492.90 0.9489
493.00 0.9496
493.10 0.9503
493.20 0.951
493.30 0.9518
493.40 0.9525
493.50 0.9532
493.60 0.9539
493.70 0.9546
493.80 0.9553
493.90 0.9561
494.00 0.9568
494.10 0.9575
494.20 0.9582
494.30 0.9589
494.40 0.9597
494.50 0.9604
494.60 0.9611
494.70 0.9618
494.80 0.9626
494.90 0.9633
495.00 0.964
495.10 0.9647
495.20 0.9654
495.30 0.9662
495.40 0.9669
495.50 0.9676
495.60 0.9683
495.70 0.969
495.80 0.9698
495.90 0.9705
496.00 0.9712
496.10 0.9719
496.20 0.9726
496.30 0.9734
496.40 0.9741
496.50 0.9748
496.60 0.9755
496.70 0.9762
496.80 0.977
496.90 0.9777
497.00 0.9784
497.10 0.9791
497.20 0.9798
497.30 0.9806
497.40 0.9813
497.50 0.982
497.60 0.9827
497.70 0.9834
497.80 0.9842
497.90 0.9849
498.00 0.9856
498.10 0.9863
498.20 0.987
498.30 0.9877
498.40 0.9885
498.50 0.9892
498.60 0.9899
498.70 0.9906
498.80 0.9913
498.90 0.9921
499.00 0.9928
499.10 0.9935
499.20 0.9942
499.30 0.995
499.40 0.9957
499.50 0.9964
499.60 0.9971
499.70 0.9978
499.80 0.9986
499.90 0.9993
500.00 1
500.10 1.001
500.20 1.001
500.30 1.002
500.40 1.003
500.50 1.004
500.60 1.004
500.70 1.005
500.80 1.006
500.90 1.006
501.00 1.007
501.10 1.008
501.20 1.009
501.30 1.009
501.40 1.01
501.50 1.011
501.60 1.012
501.70 1.012
501.80 1.013
501.90 1.014
502.00 1.014
502.10 1.015
502.20 1.016
502.30 1.017
502.40 1.017
502.50 1.018
502.60 1.019
502.70 1.019
502.80 1.02
502.90 1.021
503.00 1.022
503.10 1.022
503.20 1.023
503.30 1.024
503.40 1.024
503.50 1.025
503.60 1.026
503.70 1.027
503.80 1.027
503.90 1.028
504.00 1.029
504.10 1.03
504.20 1.03
504.30 1.031
504.40 1.032
504.50 1.032
504.60 1.033
504.70 1.034
504.80 1.035
504.90 1.035
505.00 1.036
505.10 1.037
505.20 1.037
505.30 1.038
505.40 1.039
505.50 1.04
505.60 1.04
505.70 1.041
505.80 1.042
505.90 1.042
506.00 1.043
506.10 1.044
506.20 1.045
506.30 1.045
506.40 1.046
506.50 1.047
506.60 1.047
506.70 1.048
506.80 1.049
506.90 1.05
507.00 1.05
507.10 1.051
507.20 1.052
507.30 1.052
507.40 1.053
507.50 1.054
507.60 1.055
507.70 1.055
507.80 1.056
507.90 1.057
508.00 1.057
508.10 1.058
508.20 1.059
508.30 1.06
508.40 1.06
508.50 1.061
508.60 1.062
508.70 1.063
508.80 1.063
508.90 1.064
509.00 1.065
509.10 1.065
509.20 1.066
509.30 1.067
509.40 1.068
509.50 1.068
509.60 1.069
509.70 1.07
509.80 1.07
509.90 1.071
510.00 1.072
510.10 1.073
510.20 1.073
510.30 1.074
510.40 1.075
510.50 1.075
510.60 1.076
510.70 1.077
510.80 1.078
510.90 1.078
511.00 1.079
511.10 1.08
511.20 1.08
511.30 1.081
511.40 1.082
511.50 1.083
511.60 1.083
511.70 1.084
511.80 1.085
511.90 1.085
512.00 1.086
512.10 1.087
512.20 1.088
512.30 1.088
512.40 1.089
512.50 1.09
512.60 1.09
512.70 1.091
512.80 1.092
512.90 1.093
513.00 1.093
513.10 1.094
513.20 1.095
513.30 1.095
513.40 1.096
513.50 1.097
513.60 1.098
513.70 1.098
513.80 1.099
513.90 1.1
514.00 1.1
514.10 1.101
514.20 1.102
514.30 1.103
514.40 1.103
514.50 1.104
514.60 1.105
514.70 1.105
514.80 1.106
514.90 1.107
515.00 1.108
515.10 1.108
515.20 1.109
515.30 1.11
515.40 1.11
515.50 1.111
515.60 1.112
515.70 1.113
515.80 1.113
515.90 1.114
516.00 1.115
516.10 1.115
516.20 1.116
516.30 1.117
516.40 1.118
516.50 1.118
516.60 1.119
516.70 1.12
516.80 1.12
516.90 1.121
517.00 1.122
517.10 1.123
517.20 1.123
517.30 1.124
517.40 1.125
517.50 1.125
517.60 1.126
517.70 1.127
517.80 1.128
517.90 1.128
518.00 1.129
518.10 1.13
518.20 1.13
518.30 1.131
518.40 1.132
518.50 1.133
518.60 1.133
518.70 1.134
518.80 1.135
518.90 1.135
519.00 1.136
519.10 1.137
519.20 1.137
519.30 1.138
519.40 1.139
519.50 1.14
519.60 1.14
519.70 1.141
519.80 1.142
519.90 1.142
520.00 1.143
520.10 1.144
520.20 1.145
520.30 1.145
520.40 1.146
520.50 1.147
520.60 1.147
520.70 1.148
520.80 1.149
520.90 1.15
521.00 1.15
521.10 1.151
521.20 1.152
521.30 1.152
521.40 1.153
521.50 1.154
521.60 1.155
521.70 1.155
521.80 1.156
521.90 1.157
522.00 1.157
522.10 1.158
522.20 1.159
522.30 1.159
522.40 1.16
522.50 1.161
522.60 1.162
522.70 1.162
522.80 1.163
522.90 1.164
523.00 1.164
523.10 1.165
523.20 1.166
523.30 1.167
523.40 1.167
523.50 1.168
523.60 1.169
523.70 1.169
523.80 1.17
523.90 1.171
524.00 1.171
524.10 1.172
524.20 1.173
524.30 1.174
524.40 1.174
524.50 1.175
524.60 1.176
524.70 1.176
524.80 1.177
524.90 1.178
525.00 1.179
525.10 1.179
525.20 1.18
525.30 1.181
525.40 1.181
525.50 1.182
525.60 1.183
525.70 1.183
525.80 1.184
525.90 1.185
526.00 1.186
526.10 1.186
526.20 1.187
526.30 1.188
526.40 1.188
526.50 1.189
526.60 1.19
526.70 1.191
526.80 1.191
526.90 1.192
527.00 1.193
527.10 1.193
527.20 1.194
527.30 1.195
527.40 1.195
527.50 1.196
527.60 1.197
527.70 1.198
527.80 1.198
527.90 1.199
528.00 1.2
528.10 1.2
528.20 1.201
528.30 1.202
528.40 1.202
528.50 1.203
528.60 1.204
528.70 1.205
528.80 1.205
528.90 1.206
529.00 1.207
529.10 1.207
529.20 1.208
529.30 1.209
529.40 1.209
529.50 1.21
529.60 1.211
529.70 1.212
529.80 1.212
529.90 1.213
530.00 1.214
530.10 1.214
530.20 1.215
530.30 1.216
530.40 1.216
530.50 1.217
530.60 1.218
530.70 1.219
530.80 1.219
530.90 1.22
531.00 1.221
531.10 1.221
531.20 1.222
531.30 1.223
531.40 1.223
531.50 1.224
531.60 1.225
531.70 1.226
531.80 1.226
531.90 1.227
532.00 1.228
532.10 1.228
532.20 1.229
532.30 1.23
532.40 1.23
532.50 1.231
532.60 1.232
532.70 1.232
532.80 1.233
532.90 1.234
533.00 1.235
533.10 1.235
533.20 1.236
533.30 1.237
533.40 1.237
533.50 1.238
533.60 1.239
533.70 1.239
533.80 1.24
533.90 1.241
534.00 1.242
534.10 1.242
534.20 1.243
534.30 1.244
534.40 1.244
534.50 1.245
534.60 1.246
534.70 1.246
534.80 1.247
534.90 1.248
535.00 1.248
535.10 1.249
535.20 1.25
535.30 1.251
535.40 1.251
535.50 1.252
535.60 1.253
535.70 1.253
535.80 1.254
535.90 1.255
536.00 1.255
536.10 1.256
536.20 1.257
536.30 1.257
536.40 1.258
536.50 1.259
536.60 1.26
536.70 1.26
536.80 1.261
536.90 1.262
537.00 1.262
537.10 1.263
537.20 1.264
537.30 1.264
537.40 1.265
537.50 1.266
537.60 1.266
537.70 1.267
537.80 1.268
537.90 1.268
538.00 1.269
538.10 1.27
538.20 1.271
538.30 1.271
538.40 1.272
538.50 1.273
538.60 1.273
538.70 1.274
538.80 1.275
538.90 1.275
539.00 1.276
539.10 1.277
539.20 1.277
539.30 1.278
539.40 1.279
539.50 1.279
539.60 1.28
539.70 1.281
539.80 1.282
539.90 1.282
540.00 1.283
540.10 1.284
540.20 1.284
540.30 1.285
540.40 1.286
540.50 1.286
540.60 1.287
540.70 1.288
540.80 1.288
540.90 1.289
541.00 1.29
541.10 1.29
541.20 1.291
541.30 1.292
541.40 1.292
541.50 1.293
541.60 1.294
541.70 1.295
541.80 1.295
541.90 1.296
542.00 1.297
542.10 1.297
542.20 1.298
542.30 1.299
542.40 1.299
542.50 1.3
542.60 1.301
542.70 1.301
542.80 1.302
542.90 1.303
543.00 1.303
543.10 1.304
543.20 1.305
543.30 1.305
543.40 1.306
543.50 1.307
543.60 1.307
543.70 1.308
543.80 1.309
543.90 1.31
544.00 1.31
544.10 1.311
544.20 1.312
544.30 1.312
544.40 1.313
544.50 1.314
544.60 1.314
544.70 1.315
544.80 1.316
544.90 1.316
545.00 1.317
545.10 1.318
545.20 1.318
545.30 1.319
545.40 1.32
545.50 1.32
545.60 1.321
545.70 1.322
545.80 1.322
545.90 1.323
546.00 1.324
546.10 1.324
546.20 1.325
546.30 1.326
546.40 1.326
546.50 1.327
546.60 1.328
546.70 1.328
546.80 1.329
546.90 1.33
547.00 1.331
547.10 1.331
547.20 1.332
547.30 1.333
547.40 1.333
547.50 1.334
547.60 1.335
547.70 1.335
547.80 1.336
547.90 1.337
548.00 1.337
548.10 1.338
548.20 1.339
548.30 1.339
548.40 1.34
548.50 1.341
548.60 1.341
548.70 1.342
548.80 1.343
548.90 1.343
549.00 1.344
549.10 1.345
549.20 1.345
549.30 1.346
549.40 1.347
549.50 1.347
549.60 1.348
549.70 1.349
549.80 1.349
549.90 1.35
550.00 1.351
550.10 1.351
550.20 1.352
550.30 1.353
550.40 1.353
550.50 1.354
550.60 1.355
550.70 1.355
550.80 1.356
550.90 1.357
551.00 1.357
551.10 1.358
551.20 1.359
551.30 1.359
551.40 1.36
551.50 1.361
551.60 1.361
551.70 1.362
551.80 1.363
551.90 1.363
552.00 1.364
552.10 1.365
552.20 1.365
552.30 1.366
552.40 1.367
552.50 1.367
552.60 1.368
552.70 1.369
552.80 1.369
552.90 1.37
553.00 1.371
553.10 1.371
553.20 1.372
553.30 1.373
553.40 1.373
553.50 1.374
553.60 1.375
553.70 1.375
553.80 1.376
553.90 1.377
554.00 1.377
554.10 1.378
554.20 1.379
554.30 1.379
554.40 1.38
554.50 1.381
554.60 1.381
554.70 1.382
554.80 1.383
554.90 1.383
555.00 1.384
555.10 1.385
555.20 1.385
555.30 1.386
555.40 1.386
555.50 1.387
555.60 1.388
555.70 1.388
555.80 1.389
555.90 1.39
556.00 1.39
556.10 1.391
556.20 1.392
556.30 1.392
556.40 1.393
556.50 1.394
556.60 1.394
556.70 1.395
556.80 1.396
556.90 1.396
557.00 1.397
557.10 1.398
557.20 1.398
557.30 1.399
557.40 1.4
557.50 1.4
557.60 1.401
557.70 1.402
557.80 1.402
557.90 1.403
558.00 1.404
558.10 1.404
558.20 1.405
558.30 1.405
558.40 1.406
558.50 1.407
558.60 1.407
558.70 1.408
558.80 1.409
558.90 1.409
559.00 1.41
559.10 1.411
559.20 1.411
559.30 1.412
559.40 1.413
559.50 1.413
559.60 1.414
559.70 1.415
559.80 1.415
559.90 1.416
560.00 1.417
560.10 1.417
560.20 1.418
560.30 1.418
560.40 1.419
560.50 1.42
560.60 1.42
560.70 1.421
560.80 1.422
560.90 1.422
561.00 1.423
561.10 1.424
561.20 1.424
561.30 1.425
561.40 1.426
561.50 1.426
561.60 1.427
561.70 1.428
561.80 1.428
561.90 1.429
562.00 1.429
562.10 1.43
562.20 1.431
562.30 1.431
562.40 1.432
562.50 1.433
562.60 1.433
562.70 1.434
562.80 1.435
562.90 1.435
563.00 1.436
563.10 1.437
563.20 1.437
563.30 1.438
563.40 1.438
563.50 1.439
563.60 1.44
563.70 1.44
563.80 1.441
563.90 1.442
564.00 1.442
564.10 1.443
564.20 1.444
564.30 1.444
564.40 1.445
564.50 1.445
564.60 1.446
564.70 1.447
564.80 1.447
564.90 1.448
565.00 1.449
565.10 1.449
565.20 1.45
565.30 1.451
565.40 1.451
565.50 1.452
565.60 1.452
565.70 1.453
565.80 1.454
565.90 1.454
566.00 1.455
566.10 1.456
566.20 1.456
566.30 1.457
566.40 1.458
566.50 1.458
566.60 1.459
566.70 1.459
566.80 1.46
566.90 1.461
567.00 1.461
567.10 1.462
567.20 1.463
567.30 1.463
567.40 1.464
567.50 1.464
567.60 1.465
567.70 1.466
567.80 1.466
567.90 1.467
568.00 1.468
568.10 1.468
568.20 1.469
568.30 1.47
568.40 1.47
568.50 1.471
568.60 1.471
568.70 1.472
568.80 1.473
568.90 1.473
569.00 1.474
569.10 1.475
569.20 1.475
569.30 1.476
569.40 1.476
569.50 1.477
569.60 1.478
569.70 1.478
569.80 1.479
569.90 1.48
570.00 1.48
570.10 1.481
570.20 1.481
570.30 1.482
570.40 1.483
570.50 1.483
570.60 1.484
570.70 1.485
570.80 1.485
570.90 1.486
571.00 1.486
571.10 1.487
571.20 1.488
571.30 1.488
571.40 1.489
571.50 1.49
571.60 1.49
571.70 1.491
571.80 1.491
571.90 1.492
572.00 1.493
572.10 1.493
572.20 1.494
572.30 1.494
572.40 1.495
572.50 1.496
572.60 1.496
572.70 1.497
572.80 1.498
572.90 1.498
573.00 1.499
573.10 1.499
573.20 1.5
573.30 1.501
573.40 1.501
573.50 1.502
573.60 1.502
573.70 1.503
573.80 1.504
573.90 1.504
574.00 1.505
574.10 1.506
574.20 1.506
574.30 1.507
574.40 1.507
574.50 1.508
574.60 1.509
574.70 1.509
574.80 1.51
574.90 1.51
575.00 1.511
575.10 1.512
575.20 1.512
575.30 1.513
575.40 1.514
575.50 1.514
575.60 1.515
575.70 1.515
575.80 1.516
575.90 1.517
576.00 1.517
576.10 1.518
576.20 1.518
576.30 1.519
576.40 1.52
576.50 1.52
576.60 1.521
576.70 1.521
576.80 1.522
576.90 1.523
577.00 1.523
577.10 1.524
577.20 1.524
577.30 1.525
577.40 1.526
577.50 1.526
577.60 1.527
577.70 1.527
577.80 1.528
577.90 1.529
578.00 1.529
578.10 1.53
578.20 1.531
578.30 1.531
578.40 1.532
578.50 1.532
578.60 1.533
578.70 1.534
578.80 1.534
578.90 1.535
579.00 1.535
579.10 1.536
579.20 1.537
579.30 1.537
579.40 1.538
579.50 1.538
579.60 1.539
579.70 1.54
579.80 1.54
579.90 1.541
580.00 1.541
580.10 1.542
580.20 1.543
580.30 1.543
580.40 1.544
580.50 1.544
580.60 1.545
580.70 1.545
580.80 1.546
580.90 1.547
581.00 1.547
581.10 1.548
581.20 1.548
581.30 1.549
581.40 1.55
581.50 1.55
581.60 1.551
581.70 1.551
581.80 1.552
581.90 1.553
582.00 1.553
582.10 1.554
582.20 1.554
582.30 1.555
582.40 1.556
582.50 1.556
582.60 1.557
582.70 1.557
582.80 1.558
582.90 1.559
583.00 1.559
583.10 1.56
583.20 1.56
583.30 1.561
583.40 1.561
583.50 1.562
583.60 1.563
583.70 1.563
583.80 1.564
583.90 1.564
584.00 1.565
584.10 1.566
584.20 1.566
584.30 1.567
584.40 1.567
584.50 1.568
584.60 1.568
584.70 1.569
584.80 1.57
584.90 1.57
585.00 1.571
585.10 1.571
585.20 1.572
585.30 1.573
585.40 1.573
585.50 1.574
585.60 1.574
585.70 1.575
585.80 1.575
585.90 1.576
586.00 1.577
586.10 1.577
586.20 1.578
586.30 1.578
586.40 1.579
586.50 1.579
586.60 1.58
586.70 1.581
586.80 1.581
586.90 1.582
587.00 1.582
587.10 1.583
587.20 1.584
587.30 1.584
587.40 1.585
587.50 1.585
587.60 1.586
587.70 1.586
587.80 1.587
587.90 1.587
588.00 1.588
588.10 1.589
588.20 1.589
588.30 1.59
588.40 1.59
588.50 1.591
588.60 1.591
588.70 1.592
588.80 1.593
588.90 1.593
589.00 1.594
589.10 1.594
589.20 1.595
589.30 1.595
589.40 1.596
589.50 1.597
589.60 1.597
589.70 1.598
589.80 1.598
589.90 1.599
590.00 1.599
590.10 1.6
590.20 1.601
590.30 1.601
590.40 1.602
590.50 1.602
590.60 1.603
590.70 1.603
590.80 1.604
590.90 1.604
591.00 1.605
591.10 1.606
591.20 1.606
591.30 1.607
591.40 1.607
591.50 1.608
591.60 1.608
591.70 1.609
591.80 1.61
591.90 1.61
592.00 1.611
592.10 1.611
592.20 1.612
592.30 1.612
592.40 1.613
592.50 1.613
592.60 1.614
592.70 1.615
592.80 1.615
592.90 1.616
593.00 1.616
593.10 1.617
593.20 1.617
593.30 1.618
593.40 1.618
593.50 1.619
593.60 1.62
593.70 1.62
593.80 1.621
593.90 1.621
594.00 1.622
594.10 1.622
594.20 1.623
594.30 1.623
594.40 1.624
594.50 1.624
594.60 1.625
594.70 1.626
594.80 1.626
594.90 1.627
595.00 1.627
595.10 1.628
595.20 1.628
595.30 1.629
595.40 1.629
595.50 1.63
595.60 1.631
595.70 1.631
595.80 1.632
595.90 1.632
596.00 1.633
596.10 1.633
596.20 1.634
596.30 1.634
596.40 1.635
596.50 1.635
596.60 1.636
596.70 1.637
596.80 1.637
596.90 1.638
597.00 1.638
597.10 1.639
597.20 1.639
597.30 1.64
597.40 1.64
597.50 1.641
597.60 1.641
597.70 1.642
597.80 1.642
597.90 1.643
598.00 1.644
598.10 1.644
598.20 1.645
598.30 1.645
598.40 1.646
598.50 1.646
598.60 1.647
598.70 1.647
598.80 1.648
598.90 1.648
599.00 1.649
599.10 1.649
599.20 1.65
599.30 1.65
599.40 1.651
599.50 1.652
599.60 1.652
599.70 1.653
599.80 1.653
599.90 1.654
600.00 1.654
600.10 1.655
600.20 1.655
600.30 1.656
600.40 1.656
600.50 1.657
600.60 1.657
600.70 1.658
600.80 1.658
600.90 1.659
601.00 1.659
601.10 1.66
601.20 1.66
601.30 1.661
601.40 1.662
601.50 1.662
601.60 1.663
601.70 1.663
601.80 1.664
601.90 1.664
602.00 1.665
602.10 1.665
602.20 1.666
602.30 1.666
602.40 1.667
602.50 1.667
602.60 1.668
602.70 1.668
602.80 1.669
602.90 1.669
603.00 1.67
603.10 1.67
603.20 1.671
603.30 1.671
603.40 1.672
603.50 1.672
603.60 1.673
603.70 1.673
603.80 1.674
603.90 1.674
604.00 1.675
604.10 1.676
604.20 1.676
604.30 1.677
604.40 1.677
604.50 1.678
604.60 1.678
604.70 1.679
604.80 1.679
604.90 1.68
605.00 1.68
605.10 1.681
605.20 1.681
605.30 1.682
605.40 1.682
605.50 1.683
605.60 1.683
605.70 1.684
605.80 1.684
605.90 1.685
606.00 1.685
606.10 1.686
606.20 1.686
606.30 1.687
606.40 1.687
606.50 1.688
606.60 1.688
606.70 1.689
606.80 1.689
606.90 1.69
607.00 1.69
607.10 1.691
607.20 1.691
607.30 1.692
607.40 1.692
607.50 1.693
607.60 1.693
607.70 1.694
607.80 1.694
607.90 1.695
608.00 1.695
608.10 1.696
608.20 1.696
608.30 1.697
608.40 1.697
608.50 1.698
608.60 1.698
608.70 1.699
608.80 1.699
608.90 1.7
609.00 1.7
609.10 1.701
609.20 1.701
609.30 1.702
609.40 1.702
609.50 1.703
609.60 1.703
609.70 1.704
609.80 1.704
609.90 1.705
610.00 1.705
610.10 1.705
610.20 1.706
610.30 1.706
610.40 1.707
610.50 1.707
610.60 1.708
610.70 1.708
610.80 1.709
610.90 1.709
611.00 1.71
611.10 1.71
611.20 1.711
611.30 1.711
611.40 1.712
611.50 1.712
611.60 1.713
611.70 1.713
611.80 1.714
611.90 1.714
612.00 1.715
612.10 1.715
612.20 1.716
612.30 1.716
612.40 1.717
612.50 1.717
612.60 1.717
612.70 1.718
612.80 1.718
612.90 1.719
613.00 1.719
613.10 1.72
613.20 1.72
613.30 1.721
613.40 1.721
613.50 1.722
613.60 1.722
613.70 1.723
613.80 1.723
613.90 1.724
614.00 1.724
614.10 1.725
614.20 1.725
614.30 1.725
614.40 1.726
614.50 1.726
614.60 1.727
614.70 1.727
614.80 1.728
614.90 1.728
615.00 1.729
615.10 1.729
615.20 1.73
615.30 1.73
615.40 1.731
615.50 1.731
615.60 1.731
615.70 1.732
615.80 1.732
615.90 1.733
616.00 1.733
616.10 1.734
616.20 1.734
616.30 1.735
616.40 1.735
616.50 1.736
616.60 1.736
616.70 1.736
616.80 1.737
616.90 1.737
617.00 1.738
617.10 1.738
617.20 1.739
617.30 1.739
617.40 1.74
617.50 1.74
617.60 1.741
617.70 1.741
617.80 1.741
617.90 1.742
618.00 1.742
618.10 1.743
618.20 1.743
618.30 1.744
618.40 1.744
618.50 1.745
618.60 1.745
618.70 1.745
618.80 1.746
618.90 1.746
619.00 1.747
619.10 1.747
619.20 1.748
619.30 1.748
619.40 1.749
619.50 1.749
619.60 1.749
619.70 1.75
619.80 1.75
619.90 1.751
620.00 1.751
620.10 1.752
620.20 1.752
620.30 1.752
620.40 1.753
620.50 1.753
620.60 1.754
620.70 1.754
620.80 1.755
620.90 1.755
621.00 1.755
621.10 1.756
621.20 1.756
621.30 1.757
621.40 1.757
621.50 1.758
621.60 1.758
621.70 1.758
621.80 1.759
621.90 1.759
622.00 1.76
622.10 1.76
622.20 1.761
622.30 1.761
622.40 1.761
622.50 1.762
622.60 1.762
622.70 1.763
622.80 1.763
622.90 1.764
623.00 1.764
623.10 1.764
623.20 1.765
623.30 1.765
623.40 1.766
623.50 1.766
623.60 1.767
623.70 1.767
623.80 1.767
623.90 1.768
624.00 1.768
624.10 1.769
624.20 1.769
624.30 1.769
624.40 1.77
624.50 1.77
624.60 1.771
624.70 1.771
624.80 1.771
624.90 1.772
625.00 1.772
625.10 1.773
625.20 1.773
625.30 1.773
625.40 1.774
625.50 1.774
625.60 1.775
625.70 1.775
625.80 1.776
625.90 1.776
626.00 1.776
626.10 1.777
626.20 1.777
626.30 1.778
626.40 1.778
626.50 1.778
626.60 1.779
626.70 1.779
626.80 1.78
626.90 1.78
627.00 1.78
627.10 1.781
627.20 1.781
627.30 1.781
627.40 1.782
627.50 1.782
627.60 1.783
627.70 1.783
627.80 1.783
627.90 1.784
628.00 1.784
628.10 1.785
628.20 1.785
628.30 1.785
628.40 1.786
628.50 1.786
628.60 1.787
628.70 1.787
628.80 1.787
628.90 1.788
629.00 1.788
629.10 1.788
629.20 1.789
629.30 1.789
629.40 1.79
629.50 1.79
629.60 1.79
629.70 1.791
629.80 1.791
629.90 1.792
630.00 1.792
630.10 1.792
630.20 1.793
630.30 1.793
630.40 1.793
630.50 1.794
630.60 1.794
630.70 1.794
630.80 1.795
630.90 1.795
631.00 1.796
631.10 1.796
631.20 1.796
631.30 1.797
631.40 1.797
631.50 1.797
631.60 1.798
631.70 1.798
631.80 1.799
631.90 1.799
632.00 1.799
632.10 1.8
632.20 1.8
632.30 1.8
632.40 1.801
632.50 1.801
632.60 1.801
632.70 1.802
632.80 1.802
632.90 1.802
633.00 1.803
633.10 1.803
633.20 1.804
633.30 1.804
633.40 1.804
633.50 1.805
633.60 1.805
633.70 1.805
633.80 1.806
633.90 1.806
634.00 1.806
634.10 1.807
634.20 1.807
634.30 1.807
634.40 1.808
634.50 1.808
634.60 1.808
634.70 1.809
634.80 1.809
634.90 1.809
635.00 1.81
635.10 1.81
635.20 1.811
635.30 1.811
635.40 1.811
635.50 1.812
635.60 1.812
635.70 1.812
635.80 1.813
635.90 1.813
636.00 1.813
636.10 1.814
636.20 1.814
636.30 1.814
636.40 1.815
636.50 1.815
636.60 1.815
636.70 1.816
636.80 1.816
636.90 1.816
637.00 1.817
637.10 1.817
637.20 1.817
637.30 1.817
637.40 1.818
637.50 1.818
637.60 1.818
637.70 1.819
637.80 1.819
637.90 1.819
638.00 1.82
638.10 1.82
638.20 1.82
638.30 1.821
638.40 1.821
638.50 1.821
638.60 1.822
638.70 1.822
638.80 1.822
638.90 1.823
639.00 1.823
639.10 1.823
639.20 1.824
639.30 1.824
639.40 1.824
639.50 1.824
639.60 1.825
639.70 1.825
639.80 1.825
639.90 1.826
640.00 1.826
640.10 1.826
640.20 1.827
640.30 1.827
640.40 1.827
640.50 1.827
640.60 1.828
640.70 1.828
640.80 1.828
640.90 1.829
641.00 1.829
641.10 1.829
641.20 1.83
641.30 1.83
641.40 1.83
641.50 1.83
641.60 1.831
641.70 1.831
641.80 1.831
641.90 1.832
642.00 1.832
642.10 1.832
642.20 1.832
642.30 1.833
642.40 1.833
642.50 1.833
642.60 1.833
642.70 1.834
642.80 1.834
642.90 1.834
643.00 1.835
643.10 1.835
643.20 1.835
643.30 1.835
643.40 1.836
643.50 1.836
643.60 1.836
643.70 1.836
643.80 1.837
643.90 1.837
644.00 1.837
644.10 1.838
644.20 1.838
644.30 1.838
644.40 1.838
644.50 1.839
644.60 1.839
644.70 1.839
644.80 1.839
644.90 1.84
645.00 1.84
645.10 1.84
645.20 1.84
645.30 1.841
645.40 1.841
645.50 1.841
645.60 1.841
645.70 1.842
645.80 1.842
645.90 1.842
646.00 1.842
646.10 1.843
646.20 1.843
646.30 1.843
646.40 1.843
646.50 1.844
646.60 1.844
646.70 1.844
646.80 1.844
646.90 1.845
647.00 1.845
647.10 1.845
647.20 1.845
647.30 1.846
647.40 1.846
647.50 1.846
647.60 1.846
647.70 1.847
647.80 1.847
647.90 1.847
648.00 1.847
648.10 1.847
648.20 1.848
648.30 1.848
648.40 1.848
648.50 1.848
648.60 1.849
648.70 1.849
648.80 1.849
648.90 1.849
649.00 1.849
649.10 1.85
649.20 1.85
649.30 1.85
649.40 1.85
649.50 1.851
649.60 1.851
649.70 1.851
649.80 1.851
649.90 1.851
650.00 1.852
650.10 1.852
650.20 1.852
650.30 1.852
650.40 1.852
650.50 1.853
650.60 1.853
650.70 1.853
650.80 1.853
650.90 1.853
651.00 1.854
651.10 1.854
651.20 1.854
651.30 1.854
651.40 1.854
651.50 1.855
651.60 1.855
651.70 1.855
651.80 1.855
651.90 1.855
652.00 1.856
652.10 1.856
652.20 1.856
652.30 1.856
652.40 1.856
652.50 1.856
652.60 1.857
652.70 1.857
652.80 1.857
652.90 1.857
653.00 1.857
653.10 1.858
653.20 1.858
653.30 1.858
653.40 1.858
653.50 1.858
653.60 1.858
653.70 1.859
653.80 1.859
653.90 1.859
654.00 1.859
654.10 1.859
654.20 1.859
654.30 1.86
654.40 1.86
654.50 1.86
654.60 1.86
654.70 1.86
654.80 1.86
654.90 1.86
655.00 1.861
655.10 1.861
655.20 1.861
655.30 1.861
655.40 1.861
655.50 1.861
655.60 1.862
655.70 1.862
655.80 1.862
655.90 1.862
656.00 1.862
656.10 1.862
656.20 1.862
656.30 1.862
656.40 1.863
656.50 1.863
656.60 1.863
656.70 1.863
656.80 1.863
656.90 1.863
657.00 1.863
657.10 1.864
657.20 1.864
657.30 1.864
657.40 1.864
657.50 1.864
657.60 1.864
657.70 1.864
657.80 1.864
657.90 1.865
658.00 1.865
658.10 1.865
658.20 1.865
658.30 1.865
658.40 1.865
658.50 1.865
658.60 1.865
658.70 1.865
658.80 1.865
658.90 1.866
659.00 1.866
659.10 1.866
659.20 1.866
659.30 1.866
659.40 1.866
659.50 1.866
659.60 1.866
659.70 1.866
659.80 1.866
659.90 1.867
660.00 1.867
660.10 1.867
660.20 1.867
660.30 1.867
660.40 1.867
660.50 1.867
660.60 1.867
660.70 1.867
660.80 1.867
660.90 1.867
661.00 1.868
661.10 1.868
661.20 1.868
661.30 1.868
661.40 1.868
661.50 1.868
661.60 1.868
661.70 1.868
661.80 1.868
661.90 1.868
662.00 1.868
662.10 1.868
662.20 1.868
662.30 1.868
662.40 1.868
662.50 1.868
662.60 1.869
662.70 1.869
662.80 1.869
662.90 1.869
663.00 1.869
663.10 1.869
663.20 1.869
663.30 1.869
663.40 1.869
663.50 1.869
663.60 1.869
663.70 1.869
663.80 1.869
663.90 1.869
664.00 1.869
664.10 1.869
664.20 1.869
664.30 1.869
664.40 1.869
664.50 1.869
664.60 1.869
664.70 1.869
664.80 1.869
664.90 1.869
665.00 1.869
665.10 1.869
665.20 1.869
665.30 1.869
665.40 1.869
665.50 1.869
665.60 1.869
665.70 1.869
665.80 1.869
665.90 1.869
666.00 1.869
666.10 1.869
666.20 1.869
666.30 1.869
666.40 1.869
666.50 1.869
666.60 1.869
666.70 1.869
666.80 1.869
666.90 1.869
667.00 1.869
667.10 1.869
667.20 1.869
667.30 1.869
667.40 1.869
667.50 1.869
667.60 1.869
667.70 1.869
667.80 1.869
667.90 1.869
668.00 1.869
668.10 1.869
668.20 1.869
668.30 1.869
668.40 1.869
668.50 1.869
668.60 1.869
668.70 1.869
668.80 1.869
668.90 1.869
669.00 1.869
669.10 1.869
669.20 1.869
669.30 1.869
669.40 1.869
669.50 1.868
669.60 1.868
669.70 1.868
669.80 1.868
669.90 1.868
670.00 1.868
670.10 1.868
670.20 1.868
670.30 1.868
670.40 1.868
670.50 1.868
670.60 1.868
670.70 1.868
670.80 1.868
670.90 1.867
671.00 1.867
671.10 1.867
671.20 1.867
671.30 1.867
671.40 1.867
671.50 1.867
671.60 1.867
671.70 1.867
671.80 1.867
671.90 1.867
672.00 1.866
672.10 1.866
672.20 1.866
672.30 1.866
672.40 1.866
672.50 1.866
672.60 1.866
672.70 1.866
672.80 1.866
672.90 1.865
673.00 1.865
673.10 1.865
673.20 1.865
673.30 1.865
673.40 1.865
673.50 1.865
673.60 1.865
673.70 1.864
673.80 1.864
673.90 1.864
674.00 1.864
674.10 1.864
674.20 1.864
674.30 1.864
674.40 1.863
674.50 1.863
674.60 1.863
674.70 1.863
674.80 1.863
674.90 1.863
675.00 1.862
675.10 1.862
675.20 1.862
675.30 1.862
675.40 1.862
675.50 1.862
675.60 1.861
675.70 1.861
675.80 1.861
675.90 1.861
676.00 1.861
676.10 1.861
676.20 1.86
676.30 1.86
676.40 1.86
676.50 1.86
676.60 1.86
676.70 1.859
676.80 1.859
676.90 1.859
677.00 1.859
677.10 1.859
677.20 1.858
677.30 1.858
677.40 1.858
677.50 1.858
677.60 1.858
677.70 1.857
677.80 1.857
677.90 1.857
678.00 1.857
678.10 1.857
678.20 1.856
678.30 1.856
678.40 1.856
678.50 1.856
678.60 1.855
678.70 1.855
678.80 1.855
678.90 1.855
679.00 1.854
679.10 1.854
679.20 1.854
679.30 1.854
679.40 1.853
679.50 1.853
679.60 1.853
679.70 1.853
679.80 1.852
679.90 1.852
680.00 1.852
680.10 1.852
680.20 1.851
680.30 1.851
680.40 1.851
680.50 1.85
680.60 1.85
680.70 1.85
680.80 1.85
680.90 1.849
681.00 1.849
681.10 1.849
681.20 1.848
681.30 1.848
681.40 1.848
681.50 1.847
681.60 1.847
681.70 1.847
681.80 1.847
681.90 1.846
682.00 1.846
682.10 1.846
682.20 1.845
682.30 1.845
682.40 1.845
682.50 1.844
682.60 1.844
682.70 1.844
682.80 1.843
682.90 1.843
683.00 1.843
683.10 1.842
683.20 1.842
683.30 1.842
683.40 1.841
683.50 1.841
683.60 1.841
683.70 1.84
683.80 1.84
683.90 1.839
684.00 1.839
684.10 1.839
684.20 1.838
684.30 1.838
684.40 1.838
684.50 1.837
684.60 1.837
684.70 1.836
684.80 1.836
684.90 1.836
685.00 1.835
685.10 1.835
685.20 1.834
685.30 1.834
685.40 1.834
685.50 1.833
685.60 1.833
685.70 1.832
685.80 1.832
685.90 1.832
686.00 1.831
686.10 1.831
686.20 1.83
686.30 1.83
686.40 1.829
686.50 1.829
686.60 1.829
686.70 1.828
686.80 1.828
686.90 1.827
687.00 1.827
687.10 1.826
687.20 1.826
687.30 1.826
687.40 1.825
687.50 1.825
687.60 1.824
687.70 1.824
687.80 1.823
687.90 1.823
688.00 1.822
688.10 1.822
688.20 1.821
688.30 1.821
688.40 1.82
688.50 1.82
688.60 1.819
688.70 1.819
688.80 1.818
688.90 1.818
689.00 1.817
689.10 1.817
689.20 1.816
689.30 1.816
689.40 1.815
689.50 1.815
689.60 1.814
689.70 1.814
689.80 1.813
689.90 1.812
690.00 1.812
690.10 1.811
690.20 1.811
690.30 1.81
690.40 1.809
690.50 1.809
690.60 1.808
690.70 1.808
690.80 1.807
690.90 1.806
691.00 1.806
691.10 1.805
691.20 1.805
691.30 1.804
691.40 1.803
691.50 1.803
691.60 1.802
691.70 1.802
691.80 1.801
691.90 1.8
692.00 1.8
692.10 1.799
692.20 1.799
692.30 1.798
692.40 1.797
692.50 1.797
692.60 1.796
692.70 1.796
692.80 1.795
692.90 1.794
693.00 1.794
693.10 1.793
693.20 1.793
693.30 1.792
693.40 1.792
693.50 1.791
693.60 1.79
693.70 1.79
693.80 1.789
693.90 1.789
694.00 1.788
694.10 1.787
694.20 1.787
694.30 1.786
694.40 1.786
694.50 1.785
694.60 1.784
694.70 1.784
694.80 1.783
694.90 1.783
695.00 1.782
695.10 1.781
695.20 1.781
695.30 1.78
695.40 1.779
695.50 1.778
695.60 1.778
695.70 1.777
695.80 1.776
695.90 1.775
696.00 1.775
696.10 1.774
696.20 1.773
696.30 1.772
696.40 1.772
696.50 1.771
696.60 1.77
696.70 1.769
696.80 1.769
696.90 1.768
697.00 1.767
697.10 1.767
697.20 1.766
697.30 1.765
697.40 1.764
697.50 1.764
697.60 1.763
697.70 1.762
697.80 1.761
697.90 1.761
698.00 1.76
698.10 1.759
698.20 1.758
698.30 1.758
698.40 1.757
698.50 1.756
698.60 1.755
698.70 1.755
698.80 1.754
698.90 1.753
699.00 1.753
699.10 1.752
699.20 1.751
699.30 1.75
699.40 1.75
699.50 1.749
699.60 1.748
699.70 1.747
699.80 1.747
699.90 1.746
700.00 1.745
700.10 1.744
700.20 1.743
700.30 1.743
700.40 1.742
700.50 1.741
700.60 1.74
700.70 1.739
700.80 1.738
700.90 1.737
701.00 1.736
701.10 1.735
701.20 1.735
701.30 1.734
701.40 1.733
701.50 1.732
701.60 1.731
701.70 1.73
701.80 1.729
701.90 1.728
702.00 1.727
702.10 1.727
702.20 1.726
702.30 1.725
702.40 1.724
702.50 1.723
702.60 1.722
702.70 1.721
702.80 1.72
702.90 1.72
703.00 1.719
703.10 1.718
703.20 1.717
703.30 1.716
703.40 1.715
703.50 1.714
703.60 1.713
703.70 1.713
703.80 1.712
703.90 1.711
704.00 1.71
704.10 1.709
704.20 1.708
704.30 1.707
704.40 1.706
704.50 1.706
704.60 1.705
704.70 1.704
704.80 1.703
704.90 1.702
705.00 1.701
705.10 1.7
705.20 1.699
705.30 1.698
705.40 1.697
705.50 1.696
705.60 1.695
705.70 1.694
705.80 1.693
705.90 1.692
706.00 1.691
706.10 1.69
706.20 1.689
706.30 1.688
706.40 1.687
706.50 1.686
706.60 1.685
706.70 1.684
706.80 1.683
706.90 1.682
707.00 1.681
707.10 1.68
707.20 1.679
707.30 1.678
707.40 1.677
707.50 1.676
707.60 1.675
707.70 1.674
707.80 1.673
707.90 1.672
708.00 1.671
708.10 1.67
708.20 1.669
708.30 1.668
708.40 1.667
708.50 1.666
708.60 1.665
708.70 1.664
708.80 1.663
708.90 1.662
709.00 1.661
709.10 1.66
709.20 1.659
709.30 1.658
709.40 1.657
709.50 1.656
709.60 1.655
709.70 1.654
709.80 1.653
709.90 1.652
710.00 1.651
710.10 1.65
710.20 1.649
710.30 1.648
710.40 1.647
710.50 1.646
710.60 1.645
710.70 1.644
710.80 1.643
710.90 1.642
711.00 1.641
711.10 1.639
711.20 1.638
711.30 1.637
711.40 1.636
711.50 1.635
711.60 1.634
711.70 1.633
711.80 1.632
711.90 1.631
712.00 1.63
712.10 1.629
712.20 1.627
712.30 1.626
712.40 1.625
712.50 1.624
712.60 1.623
712.70 1.622
712.80 1.621
712.90 1.62
713.00 1.619
713.10 1.618
713.20 1.617
713.30 1.615
713.40 1.614
713.50 1.613
713.60 1.612
713.70 1.611
713.80 1.61
713.90 1.609
714.00 1.608
714.10 1.607
714.20 1.606
714.30 1.605
714.40 1.604
714.50 1.603
714.60 1.601
714.70 1.6
714.80 1.599
714.90 1.598
715.00 1.597
715.10 1.596
715.20 1.595
715.30 1.594
715.40 1.593
715.50 1.591
715.60 1.59
715.70 1.589
715.80 1.588
715.90 1.587
716.00 1.586
716.10 1.584
716.20 1.583
716.30 1.582
716.40 1.581
716.50 1.58
716.60 1.579
716.70 1.577
716.80 1.576
716.90 1.575
717.00 1.574
717.10 1.573
717.20 1.572
717.30 1.571
717.40 1.569
717.50 1.568
717.60 1.567
717.70 1.566
717.80 1.565
717.90 1.564
718.00 1.563
718.10 1.561
718.20 1.56
718.30 1.559
718.40 1.558
718.50 1.557
718.60 1.556
718.70 1.555
718.80 1.553
718.90 1.552
719.00 1.551
719.10 1.55
719.20 1.549
719.30 1.548
719.40 1.547
719.50 1.545
719.60 1.544
719.70 1.543
719.80 1.542
719.90 1.541
720.00 1.54
720.10 1.539
720.20 1.537
720.30 1.536
720.40 1.535
720.50 1.534
720.60 1.533
720.70 1.532
720.80 1.53
720.90 1.529
721.00 1.528
721.10 1.527
721.20 1.526
721.30 1.525
721.40 1.524
721.50 1.522
721.60 1.521
721.70 1.52
721.80 1.519
721.90 1.518
722.00 1.517
722.10 1.515
722.20 1.514
722.30 1.513
722.40 1.512
722.50 1.511
722.60 1.51
722.70 1.509
722.80 1.507
722.90 1.506
723.00 1.505
723.10 1.504
723.20 1.503
723.30 1.502
723.40 1.5
723.50 1.499
723.60 1.498
723.70 1.497
723.80 1.496
723.90 1.495
724.00 1.494
724.10 1.492
724.20 1.491
724.30 1.49
724.40 1.489
724.50 1.488
724.60 1.487
724.70 1.486
724.80 1.485
724.90 1.483
725.00 1.482
725.10 1.481
725.20 1.48
725.30 1.479
725.40 1.478
725.50 1.477
725.60 1.476
725.70 1.474
725.80 1.473
725.90 1.472
726.00 1.471
726.10 1.47
726.20 1.469
726.30 1.468
726.40 1.467
726.50 1.465
726.60 1.464
726.70 1.463
726.80 1.462
726.90 1.461
727.00 1.46
727.10 1.459
727.20 1.458
727.30 1.457
727.40 1.455
727.50 1.454
727.60 1.453
727.70 1.452
727.80 1.451
727.90 1.45
728.00 1.449
728.10 1.448
728.20 1.447
728.30 1.446
728.40 1.444
728.50 1.443
728.60 1.442
728.70 1.441
728.80 1.44
728.90 1.439
729.00 1.438
729.10 1.437
729.20 1.436
729.30 1.435
729.40 1.433
729.50 1.432
729.60 1.431
729.70 1.43
729.80 1.429
729.90 1.428
730.00 1.427
730.10 1.426
730.20 1.425
730.30 1.424
730.40 1.423
730.50 1.422
730.60 1.421
730.70 1.42
730.80 1.419
730.90 1.418
731.00 1.417
731.10 1.416
731.20 1.415
731.30 1.414
731.40 1.413
731.50 1.412
731.60 1.411
731.70 1.411
731.80 1.41
731.90 1.409
732.00 1.408
732.10 1.407
732.20 1.406
732.30 1.405
732.40 1.404
732.50 1.403
732.60 1.402
732.70 1.401
732.80 1.4
732.90 1.399
733.00 1.398
733.10 1.397
733.20 1.396
733.30 1.395
733.40 1.394
733.50 1.393
733.60 1.392
733.70 1.392
733.80 1.391
733.90 1.39
734.00 1.389
734.10 1.388
734.20 1.387
734.30 1.386
734.40 1.385
734.50 1.384
734.60 1.383
734.70 1.382
734.80 1.381
734.90 1.38
735.00 1.379
735.10 1.378
735.20 1.377
735.30 1.376
735.40 1.376
735.50 1.375
735.60 1.374
735.70 1.373
735.80 1.372
735.90 1.371
736.00 1.37
736.10 1.369
736.20 1.368
736.30 1.367
736.40 1.366
736.50 1.365
736.60 1.364
736.70 1.363
736.80 1.362
736.90 1.362
737.00 1.361
737.10 1.36
737.20 1.359
737.30 1.358
737.40 1.357
737.50 1.356
737.60 1.355
737.70 1.354
737.80 1.353
737.90 1.352
738.00 1.351
738.10 1.35
738.20 1.349
738.30 1.349
738.40 1.348
738.50 1.347
738.60 1.346
738.70 1.345
738.80 1.344
738.90 1.343
739.00 1.342
739.10 1.341
739.20 1.34
739.30 1.339
739.40 1.338
739.50 1.337
739.60 1.337
739.70 1.336
739.80 1.335
739.90 1.334
740.00 1.333
740.10 1.332
740.20 1.331
740.30 1.331
740.40 1.33
740.50 1.329
740.60 1.329
740.70 1.328
740.80 1.327
740.90 1.327
741.00 1.326
741.10 1.325
741.20 1.325
741.30 1.324
741.40 1.323
741.50 1.323
741.60 1.322
741.70 1.321
741.80 1.321
741.90 1.32
742.00 1.319
742.10 1.318
742.20 1.318
742.30 1.317
742.40 1.316
742.50 1.316
742.60 1.315
742.70 1.314
742.80 1.314
742.90 1.313
743.00 1.312
743.10 1.312
743.20 1.311
743.30 1.31
743.40 1.31
743.50 1.309
743.60 1.308
743.70 1.308
743.80 1.307
743.90 1.306
744.00 1.306
744.10 1.305
744.20 1.304
744.30 1.304
744.40 1.303
744.50 1.302
744.60 1.302
744.70 1.301
744.80 1.3
744.90 1.3
745.00 1.299
745.10 1.298
745.20 1.298
745.30 1.297
745.40 1.296
745.50 1.296
745.60 1.295
745.70 1.294
745.80 1.294
745.90 1.293
746.00 1.292
746.10 1.292
746.20 1.291
746.30 1.29
746.40 1.29
746.50 1.289
746.60 1.288
746.70 1.288
746.80 1.287
746.90 1.286
747.00 1.286
747.10 1.285
747.20 1.284
747.30 1.284
747.40 1.283
747.50 1.282
747.60 1.282
747.70 1.281
747.80 1.28
747.90 1.28
748.00 1.279
748.10 1.278
748.20 1.278
748.30 1.277
748.40 1.276
748.50 1.276
748.60 1.275
748.70 1.274
748.80 1.274
748.90 1.273
749.00 1.272
749.10 1.272
749.20 1.271
749.30 1.27
749.40 1.27
749.50 1.269
749.60 1.268
749.70 1.268
749.80 1.267
749.90 1.266
750.00 1.266
750.10 1.265
750.20 1.265
750.30 1.264
750.40 1.264
750.50 1.263
750.60 1.263
750.70 1.262
750.80 1.262
750.90 1.261
751.00 1.261
751.10 1.26
751.20 1.26
751.30 1.259
751.40 1.259
751.50 1.258
751.60 1.258
751.70 1.257
751.80 1.257
751.90 1.256
752.00 1.256
752.10 1.255
752.20 1.255
752.30 1.254
752.40 1.254
752.50 1.253
752.60 1.253
752.70 1.252
752.80 1.252
752.90 1.251
753.00 1.251
753.10 1.25
753.20 1.25
753.30 1.249
753.40 1.249
753.50 1.248
753.60 1.248
753.70 1.247
753.80 1.247
753.90 1.246
754.00 1.246
754.10 1.246
754.20 1.245
754.30 1.245
754.40 1.244
754.50 1.244
754.60 1.243
754.70 1.243
754.80 1.242
754.90 1.242
755.00 1.241
755.10 1.241
755.20 1.24
755.30 1.24
755.40 1.239
755.50 1.239
755.60 1.238
755.70 1.238
755.80 1.237
755.90 1.237
756.00 1.236
756.10 1.236
756.20 1.235
756.30 1.235
756.40 1.234
756.50 1.234
756.60 1.233
756.70 1.233
756.80 1.232
756.90 1.232
757.00 1.231
757.10 1.231
757.20 1.23
757.30 1.23
757.40 1.23
757.50 1.229
757.60 1.229
757.70 1.228
757.80 1.228
757.90 1.227
758.00 1.227
758.10 1.226
758.20 1.226
758.30 1.225
758.40 1.225
758.50 1.224
758.60 1.224
758.70 1.223
758.80 1.223
758.90 1.222
759.00 1.222
759.10 1.221
759.20 1.221
759.30 1.22
759.40 1.22
759.50 1.219
759.60 1.219
759.70 1.219
759.80 1.218
759.90 1.218
760.00 1.217
760.10 1.217
760.20 1.216
760.30 1.216
760.40 1.216
760.50 1.215
760.60 1.215
760.70 1.214
760.80 1.214
760.90 1.214
761.00 1.213
761.10 1.213
761.20 1.213
761.30 1.212
761.40 1.212
761.50 1.211
761.60 1.211
761.70 1.211
761.80 1.21
761.90 1.21
762.00 1.21
762.10 1.209
762.20 1.209
762.30 1.208
762.40 1.208
762.50 1.208
762.60 1.207
762.70 1.207
762.80 1.207
762.90 1.206
763.00 1.206
763.10 1.205
763.20 1.205
763.30 1.205
763.40 1.204
763.50 1.204
763.60 1.204
763.70 1.203
763.80 1.203
763.90 1.202
764.00 1.202
764.10 1.202
764.20 1.201
764.30 1.201
764.40 1.201
764.50 1.2
764.60 1.2
764.70 1.199
764.80 1.199
764.90 1.199
765.00 1.198
765.10 1.198
765.20 1.198
765.30 1.197
765.40 1.197
765.50 1.196
765.60 1.196
765.70 1.196
765.80 1.195
765.90 1.195
766.00 1.195
766.10 1.194
766.20 1.194
766.30 1.194
766.40 1.193
766.50 1.193
766.60 1.192
766.70 1.192
766.80 1.192
766.90 1.191
767.00 1.191
767.10 1.191
767.20 1.19
767.30 1.19
767.40 1.189
767.50 1.189
767.60 1.189
767.70 1.188
767.80 1.188
767.90 1.188
768.00 1.187
768.10 1.187
768.20 1.187
768.30 1.186
768.40 1.186
768.50 1.185
768.60 1.185
768.70 1.185
768.80 1.184
768.90 1.184
769.00 1.184
769.10 1.183
769.20 1.183
769.30 1.183
769.40 1.182
769.50 1.182
769.60 1.181
769.70 1.181
769.80 1.181
769.90 1.18
770.00 1.18
770.10 1.18
770.20 1.18
770.30 1.179
770.40 1.179
770.50 1.179
770.60 1.179
770.70 1.178
770.80 1.178
770.90 1.178
771.00 1.178
771.10 1.178
771.20 1.177
771.30 1.177
771.40 1.177
771.50 1.177
771.60 1.176
771.70 1.176
771.80 1.176
771.90 1.176
772.00 1.176
772.10 1.175
772.20 1.175
772.30 1.175
772.40 1.175
772.50 1.174
772.60 1.174
772.70 1.174
772.80 1.174
772.90 1.174
773.00 1.173
773.10 1.173
773.20 1.173
773.30 1.173
773.40 1.172
773.50 1.172
773.60 1.172
773.70 1.172
773.80 1.172
773.90 1.171
774.00 1.171
774.10 1.171
774.20 1.171
774.30 1.171
774.40 1.17
774.50 1.17
774.60 1.17
774.70 1.17
774.80 1.169
774.90 1.169
775.00 1.169
775.10 1.169
775.20 1.169
775.30 1.168
775.40 1.168
775.50 1.168
775.60 1.168
775.70 1.167
775.80 1.167
775.90 1.167
776.00 1.167
776.10 1.167
776.20 1.166
776.30 1.166
776.40 1.166
776.50 1.166
776.60 1.165
776.70 1.165
776.80 1.165
776.90 1.165
777.00 1.165
777.10 1.164
777.20 1.164
777.30 1.164
777.40 1.164
777.50 1.164
777.60 1.163
777.70 1.163
777.80 1.163
777.90 1.163
778.00 1.162
778.10 1.162
778.20 1.162
778.30 1.162
778.40 1.162
778.50 1.161
778.60 1.161
778.70 1.161
778.80 1.161
778.90 1.161
779.00 1.16
779.10 1.16
779.20 1.16
779.30 1.16
779.40 1.159
779.50 1.159
779.60 1.159
779.70 1.159
779.80 1.159
779.90 1.158
780.00 1.158
780.10 1.158
780.20 1.158
780.30 1.158
780.40 1.158
780.50 1.158
780.60 1.158
780.70 1.158
780.80 1.158
780.90 1.158
781.00 1.158
781.10 1.158
781.20 1.158
781.30 1.158
781.40 1.158
781.50 1.158
781.60 1.158
781.70 1.158
781.80 1.158
781.90 1.157
782.00 1.157
782.10 1.157
782.20 1.157
782.30 1.157
782.40 1.157
782.50 1.157
782.60 1.157
782.70 1.157
782.80 1.157
782.90 1.157
783.00 1.157
783.10 1.157
783.20 1.157
783.30 1.157
783.40 1.157
783.50 1.157
783.60 1.157
783.70 1.157
783.80 1.157
783.90 1.157
784.00 1.157
784.10 1.157
784.20 1.157
784.30 1.157
784.40 1.157
784.50 1.156
784.60 1.156
784.70 1.156
784.80 1.156
784.90 1.156
785.00 1.156
785.10 1.156
785.20 1.156
785.30 1.156
785.40 1.156
785.50 1.156
785.60 1.156
785.70 1.156
785.80 1.156
785.90 1.156
786.00 1.156
786.10 1.156
786.20 1.156
786.30 1.156
786.40 1.156
786.50 1.156
786.60 1.156
786.70 1.156
786.80 1.156
786.90 1.156
787.00 1.156
787.10 1.156
787.20 1.155
787.30 1.155
787.40 1.155
787.50 1.155
787.60 1.155
787.70 1.155
787.80 1.155
787.90 1.155
788.00 1.155
788.10 1.155
788.20 1.155
788.30 1.155
788.40 1.155
788.50 1.155
788.60 1.155
788.70 1.155
788.80 1.155
788.90 1.155
789.00 1.155
789.10 1.155
789.20 1.155
789.30 1.155
789.40 1.155
789.50 1.155
789.60 1.155
789.70 1.155
789.80 1.154
789.90 1.154
790.00 1.154
790.10 1.154
790.20 1.154
790.30 1.154
790.40 1.155
790.50 1.155
790.60 1.155
790.70 1.155
790.80 1.155
790.90 1.155
791.00 1.155
791.10 1.155
791.20 1.155
791.30 1.155
791.40 1.155
791.50 1.155
791.60 1.155
791.70 1.155
791.80 1.155
791.90 1.155
792.00 1.155
792.10 1.155
792.20 1.155
792.30 1.155
792.40 1.155
792.50 1.155
792.60 1.155
792.70 1.155
792.80 1.155
792.90 1.155
793.00 1.155
793.10 1.155
793.20 1.155
793.30 1.155
793.40 1.155
793.50 1.155
793.60 1.155
793.70 1.155
793.80 1.156
793.90 1.156
794.00 1.156
794.10 1.156
794.20 1.156
794.30 1.156
794.40 1.156
794.50 1.156
794.60 1.156
794.70 1.156
794.80 1.156
794.90 1.156
795.00 1.156
795.10 1.156
795.20 1.156
795.30 1.156
795.40 1.156
795.50 1.156
795.60 1.156
795.70 1.156
795.80 1.156
795.90 1.156
796.00 1.156
796.10 1.156
796.20 1.156
796.30 1.156
796.40 1.156
796.50 1.156
796.60 1.156
796.70 1.156
796.80 1.156
796.90 1.156
797.00 1.156
797.10 1.156
797.20 1.156
797.30 1.156
797.40 1.156
797.50 1.156
797.60 1.157
797.70 1.157
797.80 1.157
797.90 1.157
798.00 1.157
798.10 1.157
798.20 1.157
798.30 1.157
798.40 1.157
798.50 1.157
798.60 1.157
798.70 1.157
798.80 1.157
798.90 1.157
799.00 1.157
799.10 1.157
799.20 1.157
799.30 1.157
799.40 1.157
799.50 1.157
799.60 1.157
799.70 1.157
799.80 1.157
799.90 1.157
800.00 1.157
800.10 1.157
800.20 1.157
800.30 1.157
800.40 1.157
800.50 1.157
800.60 1.157
800.70 1.157
800.80 1.157
800.90 1.157
801.00 1.157
801.10 1.156
801.20 1.156
801.30 1.156
801.40 1.156
801.50 1.156
801.60 1.156
801.70 1.156
801.80 1.156
801.90 1.156
802.00 1.156
802.10 1.156
802.20 1.156
802.30 1.156
802.40 1.156
802.50 1.156
802.60 1.155
802.70 1.155
802.80 1.155
802.90 1.155
803.00 1.155
803.10 1.155
803.20 1.155
803.30 1.155
803.40 1.155
803.50 1.155
803.60 1.155
803.70 1.155
803.80 1.155
803.90 1.155
804.00 1.155
804.10 1.155
804.20 1.154
804.30 1.154
804.40 1.154
804.50 1.154
804.60 1.154
804.70 1.154
804.80 1.154
804.90 1.154
805.00 1.154
805.10 1.154
805.20 1.154
805.30 1.154
805.40 1.154
805.50 1.154
805.60 1.154
805.70 1.154
805.80 1.153
805.90 1.153
806.00 1.153
806.10 1.153
806.20 1.153
806.30 1.153
806.40 1.153
806.50 1.153
806.60 1.153
806.70 1.153
806.80 1.153
806.90 1.153
807.00 1.153
807.10 1.153
807.20 1.153
807.30 1.153
807.40 1.152
807.50 1.152
807.60 1.152
807.70 1.152
807.80 1.152
807.90 1.152
808.00 1.152
808.10 1.152
808.20 1.152
808.30 1.152
808.40 1.152
808.50 1.152
808.60 1.152
808.70 1.152
808.80 1.152
808.90 1.152
809.00 1.151
809.10 1.151
809.20 1.151
809.30 1.151
809.40 1.151
809.50 1.151
809.60 1.151
809.70 1.151
809.80 1.151
809.90 1.151
810.00 1.151
810.10 1.151
810.20 1.15
810.30 1.15
810.40 1.15
810.50 1.15
810.60 1.15
810.70 1.15
810.80 1.149
810.90 1.149
811.00 1.149
811.10 1.149
811.20 1.149
811.30 1.148
811.40 1.148
811.50 1.148
811.60 1.148
811.70 1.148
811.80 1.147
811.90 1.147
812.00 1.147
812.10 1.147
812.20 1.147
812.30 1.147
812.40 1.146
812.50 1.146
812.60 1.146
812.70 1.146
812.80 1.146
812.90 1.145
813.00 1.145
813.10 1.145
813.20 1.145
813.30 1.145
813.40 1.144
813.50 1.144
813.60 1.144
813.70 1.144
813.80 1.144
813.90 1.144
814.00 1.143
814.10 1.143
814.20 1.143
814.30 1.143
814.40 1.143
814.50 1.142
814.60 1.142
814.70 1.142
814.80 1.142
814.90 1.142
815.00 1.142
815.10 1.141
815.20 1.141
815.30 1.141
815.40 1.141
815.50 1.141
815.60 1.14
815.70 1.14
815.80 1.14
815.90 1.14
816.00 1.14
816.10 1.139
816.20 1.139
816.30 1.139
816.40 1.139
816.50 1.139
816.60 1.139
816.70 1.138
816.80 1.138
816.90 1.138
817.00 1.138
817.10 1.138
817.20 1.137
817.30 1.137
817.40 1.137
817.50 1.137
817.60 1.137
817.70 1.137
817.80 1.136
817.90 1.136
818.00 1.136
818.10 1.136
818.20 1.136
818.30 1.135
818.40 1.135
818.50 1.135
818.60 1.135
818.70 1.135
818.80 1.135
818.90 1.134
819.00 1.134
819.10 1.134
819.20 1.134
819.30 1.134
819.40 1.133
819.50 1.133
819.60 1.133
819.70 1.133
819.80 1.133
819.90 1.133
820.00 1.132
820.10 1.132
820.20 1.132
820.30 1.132
820.40 1.131
820.50 1.131
820.60 1.131
820.70 1.131
820.80 1.131
820.90 1.13
821.00 1.13
821.10 1.13
821.20 1.13
821.30 1.129
821.40 1.129
821.50 1.129
821.60 1.129
821.70 1.128
821.80 1.128
821.90 1.128
822.00 1.128
822.10 1.128
822.20 1.127
822.30 1.127
822.40 1.127
822.50 1.127
822.60 1.126
822.70 1.126
822.80 1.126
822.90 1.126
823.00 1.125
823.10 1.125
823.20 1.125
823.30 1.125
823.40 1.124
823.50 1.124
823.60 1.124
823.70 1.124
823.80 1.123
823.90 1.123
824.00 1.123
824.10 1.123
824.20 1.122
824.30 1.122
824.40 1.122
824.50 1.122
824.60 1.121
824.70 1.121
824.80 1.121
824.90 1.121
825.00 1.12
825.10 1.12
825.20 1.12
825.30 1.12
825.40 1.119
825.50 1.119
825.60 1.119
825.70 1.119
825.80 1.118
825.90 1.118
826.00 1.118
826.10 1.118
826.20 1.117
826.30 1.117
826.40 1.117
826.50 1.117
826.60 1.116
826.70 1.116
826.80 1.116
826.90 1.116
827.00 1.116
827.10 1.115
827.20 1.115
827.30 1.115
827.40 1.114
827.50 1.114
827.60 1.114
827.70 1.114
827.80 1.113
827.90 1.113
828.00 1.113
828.10 1.113
828.20 1.112
828.30 1.112
828.40 1.112
828.50 1.112
828.60 1.111
828.70 1.111
828.80 1.111
828.90 1.111
829.00 1.11
829.10 1.11
829.20 1.11
829.30 1.11
829.40 1.109
829.50 1.109
829.60 1.109
829.70 1.109
829.80 1.108
829.90 1.108
830.00 1.108
830.10 1.107
830.20 1.107
830.30 1.107
830.40 1.107
830.50 1.106
830.60 1.106
830.70 1.106
830.80 1.106
830.90 1.105
831.00 1.105
831.10 1.105
831.20 1.105
831.30 1.104
831.40 1.104
831.50 1.104
831.60 1.104
831.70 1.103
831.80 1.103
831.90 1.103
832.00 1.103
832.10 1.102
832.20 1.102
832.30 1.102
832.40 1.102
832.50 1.101
832.60 1.101
832.70 1.101
832.80 1.1
832.90 1.1
833.00 1.1
833.10 1.1
833.20 1.099
833.30 1.099
833.40 1.099
833.50 1.099
833.60 1.098
833.70 1.098
833.80 1.098
833.90 1.098
834.00 1.097
834.10 1.097
834.20 1.097
834.30 1.097
834.40 1.096
834.50 1.096
834.60 1.096
834.70 1.096
834.80 1.095
834.90 1.095
835.00 1.095
835.10 1.094
835.20 1.094
835.30 1.094
835.40 1.094
835.50 1.093
835.60 1.093
835.70 1.093
835.80 1.093
835.90 1.092
836.00 1.092
836.10 1.092
836.20 1.092
836.30 1.091
836.40 1.091
836.50 1.091
836.60 1.091
836.70 1.09
836.80 1.09
836.90 1.09
837.00 1.09
837.10 1.089
837.20 1.089
837.30 1.089
837.40 1.088
837.50 1.088
837.60 1.088
837.70 1.088
837.80 1.087
837.90 1.087
838.00 1.087
838.10 1.087
838.20 1.086
838.30 1.086
838.40 1.086
838.50 1.086
838.60 1.085
838.70 1.085
838.80 1.085
838.90 1.084
839.00 1.084
839.10 1.084
839.20 1.084
839.30 1.083
839.40 1.083
839.50 1.083
839.60 1.083
839.70 1.082
839.80 1.082
839.90 1.082
840.00 1.082
840.10 1.081
840.20 1.081
840.30 1.081
840.40 1.08
840.50 1.08
840.60 1.08
840.70 1.08
840.80 1.079
840.90 1.079
841.00 1.079
841.10 1.079
841.20 1.078
841.30 1.078
841.40 1.078
841.50 1.078
841.60 1.077
841.70 1.077
841.80 1.077
841.90 1.077
842.00 1.076
842.10 1.076
842.20 1.076
842.30 1.075
842.40 1.075
842.50 1.075
842.60 1.075
842.70 1.074
842.80 1.074
842.90 1.074
843.00 1.074
843.10 1.073
843.20 1.073
843.30 1.073
843.40 1.072
843.50 1.072
843.60 1.072
843.70 1.072
843.80 1.071
843.90 1.071
844.00 1.071
844.10 1.071
844.20 1.07
844.30 1.07
844.40 1.07
844.50 1.07
844.60 1.069
844.70 1.069
844.80 1.069
844.90 1.068
845.00 1.068
845.10 1.068
845.20 1.068
845.30 1.067
845.40 1.067
845.50 1.067
845.60 1.067
845.70 1.066
845.80 1.066
845.90 1.066
846.00 1.066
846.10 1.065
846.20 1.065
846.30 1.065
846.40 1.064
846.50 1.064
846.60 1.064
846.70 1.064
846.80 1.063
846.90 1.063
847.00 1.063
847.10 1.063
847.20 1.062
847.30 1.062
847.40 1.062
847.50 1.061
847.60 1.061
847.70 1.061
847.80 1.061
847.90 1.06
848.00 1.06
848.10 1.06
848.20 1.059
848.30 1.059
848.40 1.059
848.50 1.059
848.60 1.058
848.70 1.058
848.80 1.058
848.90 1.058
849.00 1.057
849.10 1.057
849.20 1.057
849.30 1.056
849.40 1.056
849.50 1.056
849.60 1.056
849.70 1.055
849.80 1.055
849.90 1.055
850.00 1.054
850.10 1.054
850.20 1.054
850.30 1.054
850.40 1.053
850.50 1.053
850.60 1.053
850.70 1.053
850.80 1.052
850.90 1.052
851.00 1.052
851.10 1.051
851.20 1.051
851.30 1.051
851.40 1.051
851.50 1.05
851.60 1.05
851.70 1.05
851.80 1.05
851.90 1.049
852.00 1.049
852.10 1.049
852.20 1.048
852.30 1.048
852.40 1.048
852.50 1.047
852.60 1.047
852.70 1.047
852.80 1.047
852.90 1.046
853.00 1.046
853.10 1.046
853.20 1.045
853.30 1.045
853.40 1.045
853.50 1.045
853.60 1.044
853.70 1.044
853.80 1.044
853.90 1.043
854.00 1.043
854.10 1.043
854.20 1.043
854.30 1.042
854.40 1.042
854.50 1.042
854.60 1.041
854.70 1.041
854.80 1.041
854.90 1.04
855.00 1.04
855.10 1.04
855.20 1.04
855.30 1.039
855.40 1.039
855.50 1.039
855.60 1.038
855.70 1.038
855.80 1.038
855.90 1.038
856.00 1.037
856.10 1.037
856.20 1.037
856.30 1.036
856.40 1.036
856.50 1.036
856.60 1.036
856.70 1.035
856.80 1.035
856.90 1.035
857.00 1.034
857.10 1.034
857.20 1.034
857.30 1.033
857.40 1.033
857.50 1.033
857.60 1.033
857.70 1.032
857.80 1.032
857.90 1.032
858.00 1.031
858.10 1.031
858.20 1.031
858.30 1.03
858.40 1.03
858.50 1.03
858.60 1.029
858.70 1.029
858.80 1.029
858.90 1.029
859.00 1.028
859.10 1.028
859.20 1.028
859.30 1.027
859.40 1.027
859.50 1.027
859.60 1.026
859.70 1.026
859.80 1.026
859.90 1.026
860.00 1.025
860.10 1.025
860.20 1.025
860.30 1.024
860.40 1.024
860.50 1.024
860.60 1.023
860.70 1.023
860.80 1.023
860.90 1.022
861.00 1.022
861.10 1.022
861.20 1.022
861.30 1.021
861.40 1.021
861.50 1.021
861.60 1.02
861.70 1.02
861.80 1.02
861.90 1.019
862.00 1.019
862.10 1.019
862.20 1.018
862.30 1.018
862.40 1.018
862.50 1.018
862.60 1.017
862.70 1.017
862.80 1.017
862.90 1.016
863.00 1.016
863.10 1.016
863.20 1.015
863.30 1.015
863.40 1.015
863.50 1.014
863.60 1.014
863.70 1.014
863.80 1.013
863.90 1.013
864.00 1.013
864.10 1.012
864.20 1.012
864.30 1.012
864.40 1.011
864.50 1.011
864.60 1.011
864.70 1.01
864.80 1.01
864.90 1.01
865.00 1.009
865.10 1.009
865.20 1.009
865.30 1.009
865.40 1.008
865.50 1.008
865.60 1.008
865.70 1.007
865.80 1.007
865.90 1.007
866.00 1.006
866.10 1.006
866.20 1.006
866.30 1.005
866.40 1.005
866.50 1.005
866.60 1.004
866.70 1.004
866.80 1.004
866.90 1.003
867.00 1.003
867.10 1.003
867.20 1.002
867.30 1.002
867.40 1.002
867.50 1.001
867.60 1.001
867.70 1.001
867.80 1
867.90 1
868.00 0.9996
868.10 0.9993
868.20 0.9989
868.30 0.9986
868.40 0.9982
868.50 0.9979
868.60 0.9975
868.70 0.9972
868.80 0.9968
868.90 0.9965
869.00 0.9961
869.10 0.9958
869.20 0.9954
869.30 0.9951
869.40 0.9947
869.50 0.9944
869.60 0.994
869.70 0.9937
869.80 0.9933
869.90 0.993
870.00 0.9926
870.10 0.9923
870.20 0.9919
870.30 0.9916
870.40 0.9912
870.50 0.9909
870.60 0.9905
870.70 0.9902
870.80 0.9898
870.90 0.9895
871.00 0.9891
871.10 0.9888
871.20 0.9884
871.30 0.9881
871.40 0.9878
871.50 0.9874
871.60 0.9871
871.70 0.9867
871.80 0.9864
871.90 0.986
872.00 0.9857
872.10 0.9853
872.20 0.9849
872.30 0.9845
872.40 0.9842
872.50 0.9838
872.60 0.9834
872.70 0.983
872.80 0.9827
872.90 0.9823
873.00 0.9819
873.10 0.9815
873.20 0.9811
873.30 0.9808
873.40 0.9804
873.50 0.98
873.60 0.9796
873.70 0.9793
873.80 0.9789
873.90 0.9785
874.00 0.9781
874.10 0.9778
874.20 0.9774
874.30 0.977
874.40 0.9766
874.50 0.9763
874.60 0.9759
874.70 0.9755
874.80 0.9751
874.90 0.9748
875.00 0.9744
875.10 0.974
875.20 0.9736
875.30 0.9733
875.40 0.9729
875.50 0.9725
875.60 0.9722
875.70 0.9718
875.80 0.9714
875.90 0.971
876.00 0.9707
876.10 0.9703
876.20 0.9699
876.30 0.9695
876.40 0.9692
876.50 0.9688
876.60 0.9684
876.70 0.9681
876.80 0.9677
876.90 0.9673
877.00 0.9669
877.10 0.9665
877.20 0.9661
877.30 0.9657
877.40 0.9653
877.50 0.9649
877.60 0.9645
877.70 0.9641
877.80 0.9637
877.90 0.9632
878.00 0.9628
878.10 0.9624
878.20 0.962
878.30 0.9616
878.40 0.9612
878.50 0.9608
878.60 0.9604
878.70 0.96
878.80 0.9596
878.90 0.9592
879.00 0.9587
879.10 0.9583
879.20 0.9579
879.30 0.9575
879.40 0.9571
879.50 0.9567
879.60 0.9563
879.70 0.9559
879.80 0.9555
879.90 0.9551
880.00 0.9547
880.10 0.9543
880.20 0.9539
880.30 0.9535
880.40 0.953
880.50 0.9526
880.60 0.9522
880.70 0.9518
880.80 0.9514
880.90 0.951
881.00 0.9506
881.10 0.9502
881.20 0.9498
881.30 0.9494
881.40 0.949
881.50 0.9486
881.60 0.9482
881.70 0.9478
881.80 0.9474
881.90 0.947
882.00 0.9466
882.10 0.9461
882.20 0.9457
882.30 0.9452
882.40 0.9448
882.50 0.9443
882.60 0.9439
882.70 0.9435
882.80 0.943
882.90 0.9426
883.00 0.9421
883.10 0.9417
883.20 0.9412
883.30 0.9408
883.40 0.9403
883.50 0.9399
883.60 0.9395
883.70 0.939
883.80 0.9386
883.90 0.9381
884.00 0.9377
884.10 0.9372
884.20 0.9368
884.30 0.9364
884.40 0.9359
884.50 0.9355
884.60 0.935
884.70 0.9346
884.80 0.9342
884.90 0.9337
885.00 0.9333
885.10 0.9328
885.20 0.9324
885.30 0.9319
885.40 0.9315
885.50 0.9311
885.60 0.9306
885.70 0.9302
885.80 0.9297
885.90 0.9293
886.00 0.9289
886.10 0.9284
886.20 0.928
886.30 0.9276
886.40 0.9271
886.50 0.9267
886.60 0.9262
886.70 0.9258
886.80 0.9254
886.90 0.9249
887.00 0.9245
887.10 0.924
887.20 0.9235
887.30 0.9231
887.40 0.9226
887.50 0.9221
887.60 0.9216
887.70 0.9212
887.80 0.9207
887.90 0.9202
888.00 0.9197
888.10 0.9193
888.20 0.9188
888.30 0.9183
888.40 0.9178
888.50 0.9174
888.60 0.9169
888.70 0.9164
888.80 0.9159
888.90 0.9155
889.00 0.915
889.10 0.9145
889.20 0.9141
889.30 0.9136
889.40 0.9131
889.50 0.9126
889.60 0.9122
889.70 0.9117
889.80 0.9112
889.90 0.9108
890.00 0.9103
890.10 0.9098
890.20 0.9094
890.30 0.9089
890.40 0.9084
890.50 0.9079
890.60 0.9075
890.70 0.907
890.80 0.9065
890.90 0.9061
891.00 0.9056
891.10 0.9051
891.20 0.9047
891.30 0.9042
891.40 0.9037
891.50 0.9033
891.60 0.9028
891.70 0.9023
891.80 0.9019
891.90 0.9014
892.00 0.9009
892.10 0.9004
892.20 0.8999
892.30 0.8994
892.40 0.8989
892.50 0.8983
892.60 0.8978
892.70 0.8973
892.80 0.8968
892.90 0.8963
893.00 0.8958
893.10 0.8952
893.20 0.8947
893.30 0.8942
893.40 0.8937
893.50 0.8932
893.60 0.8927
893.70 0.8921
893.80 0.8916
893.90 0.8911
894.00 0.8906
894.10 0.8901
894.20 0.8896
894.30 0.8891
894.40 0.8886
894.50 0.888
894.60 0.8875
894.70 0.887
894.80 0.8865
894.90 0.886
895.00 0.8855
895.10 0.885
895.20 0.8845
895.30 0.8839
895.40 0.8834
895.50 0.8829
895.60 0.8824
895.70 0.8819
895.80 0.8814
895.90 0.8809
896.00 0.8804
896.10 0.8799
896.20 0.8794
896.30 0.8788
896.40 0.8783
896.50 0.8778
896.60 0.8773
896.70 0.8768
896.80 0.8763
896.90 0.8758
897.00 0.8753
897.10 0.8748
897.20 0.8742
897.30 0.8737
897.40 0.8732
897.50 0.8726
897.60 0.8721
897.70 0.8716
897.80 0.871
897.90 0.8705
898.00 0.87
898.10 0.8694
898.20 0.8689
898.30 0.8684
898.40 0.8678
898.50 0.8673
898.60 0.8668
898.70 0.8662
898.80 0.8657
898.90 0.8652
899.00 0.8646
899.10 0.8641
899.20 0.8636
899.30 0.8631
899.40 0.8625
899.50 0.862
899.60 0.8615
899.70 0.8609
899.80 0.8604
899.90 0.8599
900.00 0.8594
900.10 0.8588
900.20 0.8583
900.30 0.8578
900.40 0.8572
900.50 0.8567
900.60 0.8562
900.70 0.8557
900.80 0.8551
900.90 0.8546
901.00 0.8541
901.10 0.8536
901.20 0.853
901.30 0.8525
901.40 0.852
901.50 0.8515
901.60 0.8509
901.70 0.8504
901.80 0.8499
901.90 0.8494
902.00 0.8488
902.10 0.8483
902.20 0.8478
902.30 0.8472
902.40 0.8467
902.50 0.8461
902.60 0.8456
902.70 0.8451
902.80 0.8445
902.90 0.844
903.00 0.8435
903.10 0.8429
903.20 0.8424
903.30 0.8419
903.40 0.8413
903.50 0.8408
903.60 0.8403
903.70 0.8397
903.80 0.8392
903.90 0.8387
904.00 0.8381
904.10 0.8376
904.20 0.8371
904.30 0.8365
904.40 0.836
904.50 0.8355
904.60 0.8349
904.70 0.8344
904.80 0.8339
904.90 0.8333
905.00 0.8328
905.10 0.8323
905.20 0.8318
905.30 0.8312
905.40 0.8307
905.50 0.8302
905.60 0.8296
905.70 0.8291
905.80 0.8286
905.90 0.8281
906.00 0.8275
906.10 0.827
906.20 0.8265
906.30 0.8259
906.40 0.8254
906.50 0.8249
906.60 0.8244
906.70 0.8238
906.80 0.8233
906.90 0.8228
907.00 0.8222
907.10 0.8217
907.20 0.8211
907.30 0.8205
907.40 0.82
907.50 0.8194
907.60 0.8188
907.70 0.8182
907.80 0.8177
907.90 0.8171
908.00 0.8165
908.10 0.8159
908.20 0.8154
908.30 0.8148
908.40 0.8142
908.50 0.8136
908.60 0.8131
908.70 0.8125
908.80 0.8119
908.90 0.8114
909.00 0.8108
909.10 0.8102
909.20 0.8097
909.30 0.8091
909.40 0.8085
909.50 0.8079
909.60 0.8074
909.70 0.8068
909.80 0.8062
909.90 0.8057
910.00 0.8051
910.10 0.8045
910.20 0.804
910.30 0.8034
910.40 0.8028
910.50 0.8023
910.60 0.8017
910.70 0.8011
910.80 0.8006
910.90 0.8
911.00 0.7994
911.10 0.7989
911.20 0.7983
911.30 0.7977
911.40 0.7972
911.50 0.7966
911.60 0.796
911.70 0.7955
911.80 0.7949
911.90 0.7943
912.00 0.7938
912.10 0.7932
912.20 0.7926
912.30 0.792
912.40 0.7914
912.50 0.7908
912.60 0.7901
912.70 0.7895
912.80 0.7889
912.90 0.7883
913.00 0.7877
913.10 0.7871
913.20 0.7865
913.30 0.7859
913.40 0.7853
913.50 0.7847
913.60 0.7841
913.70 0.7835
913.80 0.7829
913.90 0.7823
914.00 0.7817
914.10 0.7811
914.20 0.7805
914.30 0.7799
914.40 0.7793
914.50 0.7787
914.60 0.7781
914.70 0.7775
914.80 0.7769
914.90 0.7763
915.00 0.7757
915.10 0.7751
915.20 0.7745
915.30 0.7739
915.40 0.7733
915.50 0.7727
915.60 0.7721
915.70 0.7715
915.80 0.7709
915.90 0.7703
916.00 0.7697
916.10 0.7691
916.20 0.7685
916.30 0.7679
916.40 0.7673
916.50 0.7667
916.60 0.7661
916.70 0.7655
916.80 0.7649
916.90 0.7643
917.00 0.7637
917.10 0.7631
917.20 0.7625
917.30 0.7619
917.40 0.7613
917.50 0.7607
917.60 0.7601
917.70 0.7594
917.80 0.7588
917.90 0.7582
918.00 0.7576
918.10 0.757
918.20 0.7564
918.30 0.7558
918.40 0.7552
918.50 0.7546
918.60 0.754
918.70 0.7533
918.80 0.7527
918.90 0.7521
919.00 0.7515
919.10 0.7509
919.20 0.7503
919.30 0.7497
919.40 0.7491
919.50 0.7485
919.60 0.7479
919.70 0.7473
919.80 0.7467
919.90 0.7461
920.00 0.7455
920.10 0.7449
920.20 0.7443
920.30 0.7437
920.40 0.743
920.50 0.7424
920.60 0.7418
920.70 0.7412
920.80 0.7406
920.90 0.74
921.00 0.7394
921.10 0.7388
921.20 0.7382
921.30 0.7376
921.40 0.737
921.50 0.7364
921.60 0.7358
921.70 0.7352
921.80 0.7346
921.90 0.734
922.00 0.7334
922.10 0.7328
922.20 0.7322
922.30 0.7316
922.40 0.7309
922.50 0.7303
922.60 0.7297
922.70 0.7291
922.80 0.7285
922.90 0.7279
923.00 0.7272
923.10 0.7266
923.20 0.726
923.30 0.7254
923.40 0.7248
923.50 0.7242
923.60 0.7236
923.70 0.7229
923.80 0.7223
923.90 0.7217
924.00 0.7211
924.10 0.7205
924.20 0.7199
924.30 0.7193
924.40 0.7186
924.50 0.718
924.60 0.7174
924.70 0.7168
924.80 0.7162
924.90 0.7156
925.00 0.715
925.10 0.7144
925.20 0.7137
925.30 0.7131
925.40 0.7125
925.50 0.7119
925.60 0.7113
925.70 0.7107
925.80 0.7101
925.90 0.7095
926.00 0.7089
926.10 0.7083
926.20 0.7077
926.30 0.707
926.40 0.7064
926.50 0.7058
926.60 0.7052
926.70 0.7046
926.80 0.704
926.90 0.7034
927.00 0.7028
927.10 0.7022
927.20 0.7015
927.30 0.7009
927.40 0.7003
927.50 0.6997
927.60 0.6991
927.70 0.6984
927.80 0.6978
927.90 0.6972
928.00 0.6966
928.10 0.6959
928.20 0.6953
928.30 0.6947
928.40 0.6941
928.50 0.6935
928.60 0.6928
928.70 0.6922
928.80 0.6916
928.90 0.691
929.00 0.6904
929.10 0.6897
929.20 0.6891
929.30 0.6885
929.40 0.6879
929.50 0.6873
929.60 0.6867
929.70 0.686
929.80 0.6854
929.90 0.6848
930.00 0.6842
930.10 0.6836
930.20 0.6829
930.30 0.6823
930.40 0.6817
930.50 0.6811
930.60 0.6805
930.70 0.6799
930.80 0.6793
930.90 0.6786
931.00 0.678
931.10 0.6774
931.20 0.6768
931.30 0.6762
931.40 0.6756
931.50 0.675
931.60 0.6743
931.70 0.6737
931.80 0.6731
931.90 0.6725
932.00 0.6719
932.10 0.6713
932.20 0.6707
932.30 0.67
932.40 0.6694
932.50 0.6688
932.60 0.6682
932.70 0.6676
932.80 0.667
932.90 0.6663
933.00 0.6657
933.10 0.6651
933.20 0.6645
933.30 0.6639
933.40 0.6633
933.50 0.6627
933.60 0.662
933.70 0.6614
933.80 0.6608
933.90 0.6602
934.00 0.6596
934.10 0.659
934.20 0.6584
934.30 0.6577
934.40 0.6571
934.50 0.6565
934.60 0.6559
934.70 0.6553
934.80 0.6547
934.90 0.654
935.00 0.6534
935.10 0.6528
935.20 0.6522
935.30 0.6516
935.40 0.651
935.50 0.6504
935.60 0.6497
935.70 0.6491
935.80 0.6485
935.90 0.6479
936.00 0.6473
936.10 0.6467
936.20 0.6461
936.30 0.6455
936.40 0.6448
936.50 0.6442
936.60 0.6436
936.70 0.643
936.80 0.6424
936.90 0.6418
937.00 0.6412
937.10 0.6406
937.20 0.64
937.30 0.6393
937.40 0.6387
937.50 0.6381
937.60 0.6375
937.70 0.6369
937.80 0.6363
937.90 0.6357
938.00 0.6351
938.10 0.6345
938.20 0.6338
938.30 0.6332
938.40 0.6326
938.50 0.632
938.60 0.6314
938.70 0.6308
938.80 0.6302
938.90 0.6295
939.00 0.6289
939.10 0.6283
939.20 0.6277
939.30 0.6271
939.40 0.6265
939.50 0.6258
939.60 0.6252
939.70 0.6246
939.80 0.624
939.90 0.6234
940.00 0.6228
940.10 0.6222
940.20 0.6215
940.30 0.6209
940.40 0.6203
940.50 0.6197
940.60 0.6191
940.70 0.6185
940.80 0.6179
940.90 0.6173
941.00 0.6167
941.10 0.6161
941.20 0.6155
941.30 0.6149
941.40 0.6143
941.50 0.6137
941.60 0.613
941.70 0.6124
941.80 0.6118
941.90 0.6112
942.00 0.6106
942.10 0.61
942.20 0.6094
942.30 0.6088
942.40 0.6082
942.50 0.6076
942.60 0.607
942.70 0.6064
942.80 0.6058
942.90 0.6052
943.00 0.6046
943.10 0.604
943.20 0.6034
943.30 0.6028
943.40 0.6022
943.50 0.6016
943.60 0.601
943.70 0.6004
943.80 0.5998
943.90 0.5992
944.00 0.5986
944.10 0.598
944.20 0.5974
944.30 0.5968
944.40 0.5962
944.50 0.5956
944.60 0.595
944.70 0.5944
944.80 0.5938
944.90 0.5932
945.00 0.5926
945.10 0.592
945.20 0.5914
945.30 0.5908
945.40 0.5902
945.50 0.5897
945.60 0.5891
945.70 0.5885
945.80 0.5879
945.90 0.5873
946.00 0.5867
946.10 0.5861
946.20 0.5855
946.30 0.5849
946.40 0.5843
946.50 0.5837
946.60 0.5831
946.70 0.5825
946.80 0.5819
946.90 0.5813
947.00 0.5807
947.10 0.5801
947.20 0.5796
947.30 0.579
947.40 0.5784
947.50 0.5778
947.60 0.5772
947.70 0.5766
947.80 0.576
947.90 0.5754
948.00 0.5748
948.10 0.5742
948.20 0.5736
948.30 0.573
948.40 0.5724
948.50 0.5718
948.60 0.5712
948.70 0.5706
948.80 0.57
948.90 0.5695
949.00 0.5689
949.10 0.5683
949.20 0.5677
949.30 0.5671
949.40 0.5665
949.50 0.5659
949.60 0.5653
949.70 0.5648
949.80 0.5642
949.90 0.5636
950.00 0.563
950.10 0.5624
950.20 0.5618
950.30 0.5613
950.40 0.5607
950.50 0.5601
950.60 0.5595
950.70 0.5589
950.80 0.5584
950.90 0.5578
951.00 0.5572
951.10 0.5566
951.20 0.556
951.30 0.5555
951.40 0.5549
951.50 0.5543
951.60 0.5537
951.70 0.5531
951.80 0.5526
951.90 0.552
952.00 0.5514
952.10 0.5508
952.20 0.5503
952.30 0.5497
952.40 0.5491
952.50 0.5485
952.60 0.548
952.70 0.5474
952.80 0.5468
952.90 0.5462
953.00 0.5457
953.10 0.5451
953.20 0.5445
953.30 0.544
953.40 0.5434
953.50 0.5428
953.60 0.5423
953.70 0.5417
953.80 0.5411
953.90 0.5405
954.00 0.54
954.10 0.5394
954.20 0.5388
954.30 0.5383
954.40 0.5377
954.50 0.5371
954.60 0.5366
954.70 0.536
954.80 0.5354
954.90 0.5349
955.00 0.5343
955.10 0.5337
955.20 0.5332
955.30 0.5326
955.40 0.532
955.50 0.5315
955.60 0.5309
955.70 0.5304
955.80 0.5298
955.90 0.5292
956.00 0.5286
956.10 0.5281
956.20 0.5275
956.30 0.5269
956.40 0.5263
956.50 0.5258
956.60 0.5252
956.70 0.5246
956.80 0.524
956.90 0.5235
957.00 0.5229
957.10 0.5223
957.20 0.5218
957.30 0.5212
957.40 0.5207
957.50 0.5201
957.60 0.5195
957.70 0.519
957.80 0.5184
957.90 0.5179
958.00 0.5173
958.10 0.5168
958.20 0.5162
958.30 0.5157
958.40 0.5151
958.50 0.5146
958.60 0.514
958.70 0.5135
958.80 0.5129
958.90 0.5124
959.00 0.5118
959.10 0.5113
959.20 0.5107
959.30 0.5102
959.40 0.5096
959.50 0.5091
959.60 0.5085
959.70 0.508
959.80 0.5074
959.90 0.5069
960.00 0.5064
960.10 0.5058
960.20 0.5053
960.30 0.5047
960.40 0.5042
960.50 0.5036
960.60 0.5031
960.70 0.5026
960.80 0.502
960.90 0.5015
961.00 0.5009
961.10 0.5004
961.20 0.4999
961.30 0.4993
961.40 0.4988
961.50 0.4983
961.60 0.4977
961.70 0.4972
961.80 0.4966
961.90 0.4961
962.00 0.4956
962.10 0.495
962.20 0.4945
962.30 0.494
962.40 0.4934
962.50 0.4929
962.60 0.4924
962.70 0.4919
962.80 0.4913
962.90 0.4908
963.00 0.4903
963.10 0.4897
963.20 0.4892
963.30 0.4887
963.40 0.4881
963.50 0.4876
963.60 0.4871
963.70 0.4866
963.80 0.486
963.90 0.4855
964.00 0.485
964.10 0.4845
964.20 0.4839
964.30 0.4834
964.40 0.4829
964.50 0.4824
964.60 0.4818
964.70 0.4813
964.80 0.4808
964.90 0.4802
965.00 0.4797
965.10 0.4792
965.20 0.4786
965.30 0.4781
965.40 0.4776
965.50 0.4771
965.60 0.4765
965.70 0.476
965.80 0.4755
965.90 0.4749
966.00 0.4744
966.10 0.4739
966.20 0.4734
966.30 0.4728
966.40 0.4723
966.50 0.4718
966.60 0.4713
966.70 0.4708
966.80 0.4703
966.90 0.4698
967.00 0.4693
967.10 0.4688
967.20 0.4682
967.30 0.4677
967.40 0.4672
967.50 0.4667
967.60 0.4662
967.70 0.4657
967.80 0.4652
967.90 0.4647
968.00 0.4642
968.10 0.4637
968.20 0.4632
968.30 0.4627
968.40 0.4622
968.50 0.4617
968.60 0.4612
968.70 0.4607
968.80 0.4602
968.90 0.4597
969.00 0.4592
969.10 0.4587
969.20 0.4582
969.30 0.4577
969.40 0.4572
969.50 0.4567
969.60 0.4562
969.70 0.4557
969.80 0.4552
969.90 0.4547
970.00 0.4543
970.10 0.4538
970.20 0.4533
970.30 0.4528
970.40 0.4523
970.50 0.4518
970.60 0.4513
970.70 0.4508
970.80 0.4503
970.90 0.4499
971.00 0.4494
971.10 0.4489
971.20 0.4484
971.30 0.4479
971.40 0.4474
971.50 0.4469
971.60 0.4465
971.70 0.446
971.80 0.4455
971.90 0.445
972.00 0.4445
972.10 0.4441
972.20 0.4436
972.30 0.4431
972.40 0.4426
972.50 0.4422
972.60 0.4417
972.70 0.4412
972.80 0.4407
972.90 0.4403
973.00 0.4398
973.10 0.4393
973.20 0.4388
973.30 0.4384
973.40 0.4379
973.50 0.4374
973.60 0.437
973.70 0.4365
973.80 0.436
973.90 0.4355
974.00 0.4351
974.10 0.4346
974.20 0.4341
974.30 0.4337
974.40 0.4332
974.50 0.4327
974.60 0.4323
974.70 0.4318
974.80 0.4313
974.90 0.4309
975.00 0.4304
975.10 0.4299
975.20 0.4295
975.30 0.429
975.40 0.4285
975.50 0.4281
975.60 0.4276
975.70 0.4272
975.80 0.4267
975.90 0.4262
976.00 0.4258
976.10 0.4253
976.20 0.4248
976.30 0.4244
976.40 0.4239
976.50 0.4234
976.60 0.423
976.70 0.4225
976.80 0.4221
976.90 0.4216
977.00 0.4211
977.10 0.4207
977.20 0.4203
977.30 0.4198
977.40 0.4194
977.50 0.4189
977.60 0.4185
977.70 0.4181
977.80 0.4176
977.90 0.4172
978.00 0.4167
978.10 0.4163
978.20 0.4159
978.30 0.4154
978.40 0.415
978.50 0.4146
978.60 0.4141
978.70 0.4137
978.80 0.4132
978.90 0.4128
979.00 0.4124
979.10 0.4119
979.20 0.4115
979.30 0.4111
979.40 0.4106
979.50 0.4102
979.60 0.4098
979.70 0.4093
979.80 0.4089
979.90 0.4084
980.00 0.408
980.10 0.4076
980.20 0.4071
980.30 0.4067
980.40 0.4063
980.50 0.4058
980.60 0.4054
980.70 0.405
980.80 0.4045
980.90 0.4041
981.00 0.4037
981.10 0.4032
981.20 0.4028
981.30 0.4024
981.40 0.4019
981.50 0.4015
981.60 0.4011
981.70 0.4006
981.80 0.4002
981.90 0.3998
982.00 0.3993
982.10 0.3989
982.20 0.3985
982.30 0.3981
982.40 0.3977
982.50 0.3973
982.60 0.3968
982.70 0.3964
982.80 0.396
982.90 0.3956
983.00 0.3952
983.10 0.3948
983.20 0.3944
983.30 0.3939
983.40 0.3935
983.50 0.3931
983.60 0.3927
983.70 0.3923
983.80 0.3919
983.90 0.3915
984.00 0.391
984.10 0.3906
984.20 0.3902
984.30 0.3898
984.40 0.3894
984.50 0.389
984.60 0.3886
984.70 0.3882
984.80 0.3878
984.90 0.3874
985.00 0.387
985.10 0.3866
985.20 0.3862
985.30 0.3859
985.40 0.3855
985.50 0.3851
985.60 0.3847
985.70 0.3843
985.80 0.3839
985.90 0.3835
986.00 0.3832
986.10 0.3828
986.20 0.3824
986.30 0.382
986.40 0.3816
986.50 0.3812
986.60 0.3809
986.70 0.3805
986.80 0.3801
986.90 0.3797
987.00 0.3793
987.10 0.3789
987.20 0.3785
987.30 0.3781
987.40 0.3777
987.50 0.3773
987.60 0.3769
987.70 0.3765
987.80 0.3761
987.90 0.3757
988.00 0.3753
988.10 0.3749
988.20 0.3745
988.30 0.3741
988.40 0.3737
988.50 0.3733
988.60 0.3729
988.70 0.3725
988.80 0.3721
988.90 0.3717
989.00 0.3713
989.10 0.3709
989.20 0.3705
989.30 0.3701
989.40 0.3697
989.50 0.3693
989.60 0.3689
989.70 0.3685
989.80 0.3681
989.90 0.3678
990.00 0.3674
990.10 0.367
990.20 0.3666
990.30 0.3662
990.40 0.3658
990.50 0.3654
990.60 0.365
990.70 0.3646
990.80 0.3642
990.90 0.3638
991.00 0.3634
991.10 0.363
991.20 0.3626
991.30 0.3622
991.40 0.3618
991.50 0.3614
991.60 0.361
991.70 0.3606
991.80 0.3602
991.90 0.3598
992.00 0.3594
992.10 0.3591
992.20 0.3587
992.30 0.3583
992.40 0.3579
992.50 0.3575
992.60 0.3571
992.70 0.3567
992.80 0.3563
992.90 0.3559
993.00 0.3555
993.10 0.3551
993.20 0.3547
993.30 0.3543
993.40 0.354
993.50 0.3536
993.60 0.3532
993.70 0.3528
993.80 0.3524
993.90 0.352
994.00 0.3516
994.10 0.3512
994.20 0.3508
994.30 0.3504
994.40 0.3501
994.50 0.3497
994.60 0.3493
994.70 0.3488
994.80 0.3483
994.90 0.3479
995.00 0.3474
995.10 0.3469
995.20 0.3464
995.30 0.346
995.40 0.3455
995.50 0.345
995.60 0.3445
995.70 0.3441
995.80 0.3438
995.90 0.3434
996.00 0.343
996.10 0.3426
996.20 0.3423
996.30 0.3419
996.40 0.3415
996.50 0.3411
996.60 0.3407
996.70 0.3404
996.80 0.34
996.90 0.3396
997.00 0.3392
997.10 0.3389
997.20 0.3385
997.30 0.3381
997.40 0.3378
997.50 0.3374
997.60 0.337
997.70 0.3367
997.80 0.3363
997.90 0.336
998.00 0.3356
998.10 0.3352
998.20 0.3349
998.30 0.3345
998.40 0.3342
998.50 0.3338
998.60 0.3335
998.70 0.3331
998.80 0.3327
998.90 0.3324
999.00 0.332
999.10 0.3317
999.20 0.3313
999.30 0.331
999.40 0.3306
999.50 0.3302
999.60 0.3299
999.70 0.3295
999.80 0.3292
999.90 0.3289
1000.00 0.3285
1000.10 0.3282
1000.20 0.3278
1000.30 0.3275
1000.40 0.3271
1000.50 0.3268
1000.60 0.3265
1000.70 0.3261
1000.80 0.3258
1000.90 0.3254
1001.00 0.3251
1001.10 0.3248
1001.20 0.3244
1001.30 0.3241
1001.40 0.3237
1001.50 0.3234
1001.60 0.323
1001.70 0.3227
1001.80 0.3224
1001.90 0.322
1002.00 0.3217
1002.10 0.3214
1002.20 0.3211
1002.30 0.3207
1002.40 0.3204
1002.50 0.3201
1002.60 0.3198
1002.70 0.3194
1002.80 0.3191
1002.90 0.3188
1003.00 0.3185
1003.10 0.3181
1003.20 0.3178
1003.30 0.3175
1003.40 0.3172
1003.50 0.3168
1003.60 0.3165
1003.70 0.3162
1003.80 0.3159
1003.90 0.3156
1004.00 0.3153
1004.10 0.3149
1004.20 0.3146
1004.30 0.3143
1004.40 0.314
1004.50 0.3137
1004.60 0.3134
1004.70 0.3131
1004.80 0.3127
1004.90 0.3123
1005.00 0.3119
1005.10 0.3116
1005.20 0.3113
1005.30 0.311
1005.40 0.3107
1005.50 0.3104
1005.60 0.3101
1005.70 0.3098
1005.80 0.3095
1005.90 0.3092
1006.00 0.3089
1006.10 0.3086
1006.20 0.3083
1006.30 0.308
1006.40 0.3077
1006.50 0.3074
1006.60 0.3071
1006.70 0.3068
1006.80 0.3065
1006.90 0.3062
1007.00 0.3059
1007.10 0.3056
1007.20 0.3053
1007.30 0.305
1007.40 0.3048
1007.50 0.3045
1007.60 0.3042
1007.70 0.3039
1007.80 0.3036
1007.90 0.3033
1008.00 0.3031
1008.10 0.3028
1008.20 0.3025
1008.30 0.3022
1008.40 0.302
1008.50 0.3017
1008.60 0.3014
1008.70 0.3011
1008.80 0.3009
1008.90 0.3006
1009.00 0.3003
1009.10 0.3
1009.20 0.2997
1009.30 0.2995
1009.40 0.2992
1009.50 0.2989
1009.60 0.2986
1009.70 0.2984
1009.80 0.2981
1009.90 0.2979
1010.00 0.2976
1010.10 0.2973
1010.20 0.2971
1010.30 0.2968
1010.40 0.2965
1010.50 0.2963
1010.60 0.296
1010.70 0.2958
1010.80 0.2955
1010.90 0.2952
1011.00 0.295
1011.10 0.2947
1011.20 0.2945
1011.30 0.2942
1011.40 0.2939
1011.50 0.2937
1011.60 0.2934
1011.70 0.2932
1011.80 0.2929
1011.90 0.2927
1012.00 0.2924
1012.10 0.2922
1012.20 0.2919
1012.30 0.2917
1012.40 0.2914
1012.50 0.2912
1012.60 0.2909
1012.70 0.2907
1012.80 0.2905
1012.90 0.2902
1013.00 0.29
1013.10 0.2897
1013.20 0.2895
1013.30 0.2892
1013.40 0.289
1013.50 0.2888
1013.60 0.2885
1013.70 0.2883
1013.80 0.288
1013.90 0.2878
1014.00 0.2876
1014.10 0.2873
1014.20 0.2871
1014.30 0.2869
1014.40 0.2866
1014.50 0.2864
1014.60 0.2862
1014.70 0.286
1014.80 0.2858
1014.90 0.2856
1015.00 0.2854
1015.10 0.2852
1015.20 0.285
1015.30 0.2848
1015.40 0.2846
1015.50 0.2844
1015.60 0.2842
1015.70 0.284
1015.80 0.2838
1015.90 0.2836
1016.00 0.2834
1016.10 0.2832
1016.20 0.283
1016.30 0.2828
1016.40 0.2826
1016.50 0.2824
1016.60 0.2822
1016.70 0.282
1016.80 0.2817
1016.90 0.2815
1017.00 0.2813
1017.10 0.2811
1017.20 0.2809
1017.30 0.2806
1017.40 0.2804
1017.50 0.2802
1017.60 0.28
1017.70 0.2798
1017.80 0.2796
1017.90 0.2793
1018.00 0.2791
1018.10 0.2789
1018.20 0.2787
1018.30 0.2785
1018.40 0.2783
1018.50 0.2781
1018.60 0.2778
1018.70 0.2776
1018.80 0.2774
1018.90 0.2772
1019.00 0.277
1019.10 0.2768
1019.20 0.2766
1019.30 0.2764
1019.40 0.2762
1019.50 0.2759
1019.60 0.2757
1019.70 0.2755
1019.80 0.2753
1019.90 0.2751
1020.00 0.2749
1020.10 0.2747
1020.20 0.2745
1020.30 0.2743
1020.40 0.2741
1020.50 0.2739
1020.60 0.2736
1020.70 0.2734
1020.80 0.2732
1020.90 0.273
1021.00 0.2728
1021.10 0.2726
1021.20 0.2724
1021.30 0.2722
1021.40 0.272
1021.50 0.2718
1021.60 0.2716
1021.70 0.2714
1021.80 0.2712
1021.90 0.271
1022.00 0.2708
1022.10 0.2706
1022.20 0.2704
1022.30 0.2702
1022.40 0.27
1022.50 0.2698
1022.60 0.2696
1022.70 0.2694
1022.80 0.2692
1022.90 0.269
1023.00 0.2688
1023.10 0.2686
1023.20 0.2684
1023.30 0.2682
1023.40 0.268
1023.50 0.2678
1023.60 0.2676
1023.70 0.2674
1023.80 0.2672
1023.90 0.267
1024.00 0.2669
1024.10 0.2667
1024.20 0.2665
1024.30 0.2663
1024.40 0.2661
1024.50 0.2659
1024.60 0.2657
1024.70 0.2655
1024.80 0.2653
1024.90 0.2651
1025.00 0.2649
1025.10 0.2647
1025.20 0.2645
1025.30 0.2643
1025.40 0.2641
1025.50 0.264
1025.60 0.2638
1025.70 0.2636
1025.80 0.2634
1025.90 0.2632
1026.00 0.263
1026.10 0.2628
1026.20 0.2626
1026.30 0.2624
1026.40 0.2622
1026.50 0.262
1026.60 0.2619
1026.70 0.2617
1026.80 0.2615
1026.90 0.2613
1027.00 0.2611
1027.10 0.2609
1027.20 0.2607
1027.30 0.2606
1027.40 0.2604
1027.50 0.2602
1027.60 0.26
1027.70 0.2599
1027.80 0.2597
1027.90 0.2595
1028.00 0.2593
1028.10 0.2591
1028.20 0.259
1028.30 0.2588
1028.40 0.2586
1028.50 0.2584
1028.60 0.2583
1028.70 0.2581
1028.80 0.2579
1028.90 0.2577
1029.00 0.2576
1029.10 0.2574
1029.20 0.2572
1029.30 0.257
1029.40 0.2569
1029.50 0.2567
1029.60 0.2565
1029.70 0.2563
1029.80 0.2562
1029.90 0.256
1030.00 0.2558
1030.10 0.2556
1030.20 0.2555
1030.30 0.2553
1030.40 0.2551
1030.50 0.2549
1030.60 0.2548
1030.70 0.2546
1030.80 0.2544
1030.90 0.2542
1031.00 0.2541
1031.10 0.2539
1031.20 0.2537
1031.30 0.2535
1031.40 0.2534
1031.50 0.2532
1031.60 0.253
1031.70 0.2528
1031.80 0.2527
1031.90 0.2525
1032.00 0.2523
1032.10 0.2521
1032.20 0.252
1032.30 0.2518
1032.40 0.2517
1032.50 0.2515
1032.60 0.2513
1032.70 0.2512
1032.80 0.251
1032.90 0.2509
1033.00 0.2507
1033.10 0.2505
1033.20 0.2504
1033.30 0.2502
1033.40 0.25
1033.50 0.2499
1033.60 0.2497
1033.70 0.2496
1033.80 0.2494
1033.90 0.2492
1034.00 0.2491
1034.10 0.2489
1034.20 0.2488
1034.30 0.2486
1034.40 0.2484
1034.50 0.2483
1034.60 0.2481
1034.70 0.248
1034.80 0.2478
1034.90 0.2476
1035.00 0.2475
1035.10 0.2473
1035.20 0.2472
1035.30 0.247
1035.40 0.2468
1035.50 0.2467
1035.60 0.2465
1035.70 0.2464
1035.80 0.2462
1035.90 0.246
1036.00 0.2459
1036.10 0.2457
1036.20 0.2456
1036.30 0.2454
1036.40 0.2452
1036.50 0.2451
1036.60 0.2449
1036.70 0.2448
1036.80 0.2446
1036.90 0.2444
1037.00 0.2443
1037.10 0.2441
1037.20 0.244
1037.30 0.2439
1037.40 0.2437
1037.50 0.2436
1037.60 0.2434
1037.70 0.2433
1037.80 0.2431
1037.90 0.243
1038.00 0.2429
1038.10 0.2427
1038.20 0.2426
1038.30 0.2424
1038.40 0.2423
1038.50 0.2421
1038.60 0.242
1038.70 0.2419
1038.80 0.2417
1038.90 0.2416
1039.00 0.2414
1039.10 0.2413
1039.20 0.2411
1039.30 0.241
1039.40 0.2409
1039.50 0.2407
1039.60 0.2406
1039.70 0.2404
1039.80 0.2403
1039.90 0.2402
1040.00 0.24
1040.10 0.2399
1040.20 0.2397
1040.30 0.2396
1040.40 0.2394
1040.50 0.2393
1040.60 0.2392
1040.70 0.239
1040.80 0.2389
1040.90 0.2387
1041.00 0.2386
1041.10 0.2385
1041.20 0.2383
1041.30 0.2382
1041.40 0.238
1041.50 0.2379
1041.60 0.2377
1041.70 0.2376
1041.80 0.2375
1041.90 0.2373
1042.00 0.2372
1042.10 0.2371
1042.20 0.2369
1042.30 0.2368
1042.40 0.2367
1042.50 0.2366
1042.60 0.2364
1042.70 0.2363
1042.80 0.2362
1042.90 0.236
1043.00 0.2359
1043.10 0.2358
1043.20 0.2357
1043.30 0.2355
1043.40 0.2354
1043.50 0.2353
1043.60 0.2352
1043.70 0.235
1043.80 0.2349
1043.90 0.2348
1044.00 0.2347
1044.10 0.2345
1044.20 0.2344
1044.30 0.2343
1044.40 0.2342
1044.50 0.234
1044.60 0.2339
1044.70 0.2338
1044.80 0.2337
1044.90 0.2335
1045.00 0.2334
1045.10 0.2333
1045.20 0.2332
1045.30 0.233
1045.40 0.2329
1045.50 0.2328
1045.60 0.2327
1045.70 0.2325
1045.80 0.2324
1045.90 0.2323
1046.00 0.2322
1046.10 0.232
1046.20 0.2319
1046.30 0.2318
1046.40 0.2317
1046.50 0.2315
1046.60 0.2314
1046.70 0.2313
1046.80 0.2312
1046.90 0.231
1047.00 0.2309
1047.10 0.2308
1047.20 0.2307
1047.30 0.2306
1047.40 0.2305
1047.50 0.2304
1047.60 0.2303
1047.70 0.2301
1047.80 0.23
1047.90 0.2299
1048.00 0.2298
1048.10 0.2297
1048.20 0.2296
1048.30 0.2295
1048.40 0.2294
1048.50 0.2293
1048.60 0.2291
1048.70 0.229
1048.80 0.2289
1048.90 0.2288
1049.00 0.2287
1049.10 0.2286
1049.20 0.2285
1049.30 0.2284
1049.40 0.2283
1049.50 0.2282
1049.60 0.228
1049.70 0.2279
1049.80 0.2278
1049.90 0.2277
1050.00 0.2276
1050.10 0.2275
1050.20 0.2274
1050.30 0.2273
1050.40 0.2272
1050.50 0.2271
1050.60 0.227
1050.70 0.2268
1050.80 0.2267
1050.90 0.2266
1051.00 0.2265
1051.10 0.2264
1051.20 0.2263
1051.30 0.2262
1051.40 0.2261
1051.50 0.226
1051.60 0.2259
1051.70 0.2258
1051.80 0.2256
1051.90 0.2255
1052.00 0.2254
1052.10 0.2253
1052.20 0.2252
1052.30 0.2251
1052.40 0.225
1052.50 0.2249
1052.60 0.2249
1052.70 0.2248
1052.80 0.2247
1052.90 0.2246
1053.00 0.2245
1053.10 0.2244
1053.20 0.2243
1053.30 0.2242
1053.40 0.2241
1053.50 0.224
1053.60 0.2239
1053.70 0.2238
1053.80 0.2237
1053.90 0.2236
1054.00 0.2235
1054.10 0.2234
1054.20 0.2233
1054.30 0.2232
1054.40 0.2231
1054.50 0.223
1054.60 0.223
1054.70 0.2229
1054.80 0.2228
1054.90 0.2227
1055.00 0.2226
1055.10 0.2225
1055.20 0.2224
1055.30 0.2223
1055.40 0.2222
1055.50 0.2221
1055.60 0.222
1055.70 0.2219
1055.80 0.2218
1055.90 0.2217
1056.00 0.2216
1056.10 0.2215
1056.20 0.2214
1056.30 0.2213
1056.40 0.2213
1056.50 0.2212
1056.60 0.2211
1056.70 0.221
1056.80 0.2209
1056.90 0.2208
1057.00 0.2207
1057.10 0.2206
1057.20 0.2205
1057.30 0.2204
1057.40 0.2204
1057.50 0.2203
1057.60 0.2202
1057.70 0.2201
1057.80 0.22
1057.90 0.22
1058.00 0.2199
1058.10 0.2198
1058.20 0.2197
1058.30 0.2196
1058.40 0.2196
1058.50 0.2195
1058.60 0.2194
1058.70 0.2193
1058.80 0.2192
1058.90 0.2192
1059.00 0.2191
1059.10 0.219
1059.20 0.2189
1059.30 0.2188
1059.40 0.2187
1059.50 0.2187
1059.60 0.2186
1059.70 0.2185
1059.80 0.2184
1059.90 0.2183
1060.00 0.2183
1060.10 0.2182
1060.20 0.2181
1060.30 0.218
1060.40 0.2179
1060.50 0.2179
1060.60 0.2178
1060.70 0.2177
1060.80 0.2176
1060.90 0.2175
1061.00 0.2175
1061.10 0.2174
1061.20 0.2173
1061.30 0.2172
1061.40 0.2171
1061.50 0.2171
1061.60 0.217
1061.70 0.2169
1061.80 0.2168
1061.90 0.2167
1062.00 0.2167
1062.10 0.2166
1062.20 0.2165
1062.30 0.2165
1062.40 0.2164
1062.50 0.2163
1062.60 0.2163
1062.70 0.2162
1062.80 0.2161
1062.90 0.216
1063.00 0.216
1063.10 0.2159
1063.20 0.2158
1063.30 0.2158
1063.40 0.2157
1063.50 0.2156
1063.60 0.2156
1063.70 0.2155
1063.80 0.2154
1063.90 0.2154
1064.00 0.2153
1064.10 0.2152
1064.20 0.2152
1064.30 0.2151
1064.40 0.215
1064.50 0.215
1064.60 0.2149
1064.70 0.2148
1064.80 0.2148
1064.90 0.2147
1065.00 0.2146
1065.10 0.2145
1065.20 0.2145
1065.30 0.2144
1065.40 0.2143
1065.50 0.2143
1065.60 0.2142
1065.70 0.2141
1065.80 0.2141
1065.90 0.214
1066.00 0.2139
1066.10 0.2139
1066.20 0.2138
1066.30 0.2137
1066.40 0.2137
1066.50 0.2136
1066.60 0.2135
1066.70 0.2135
1066.80 0.2134
1066.90 0.2133
1067.00 0.2133
1067.10 0.2132
1067.20 0.2131
1067.30 0.2131
1067.40 0.213
1067.50 0.213
1067.60 0.2129
1067.70 0.2129
1067.80 0.2128
1067.90 0.2128
1068.00 0.2127
1068.10 0.2126
1068.20 0.2126
1068.30 0.2125
1068.40 0.2125
1068.50 0.2124
1068.60 0.2124
1068.70 0.2123
1068.80 0.2123
1068.90 0.2122
1069.00 0.2121
1069.10 0.2121
1069.20 0.212
1069.30 0.212
1069.40 0.2119
1069.50 0.2119
1069.60 0.2118
1069.70 0.2117
1069.80 0.2117
1069.90 0.2116
1070.00 0.2116
1070.10 0.2115
1070.20 0.2115
1070.30 0.2114
1070.40 0.2114
1070.50 0.2113
1070.60 0.2112
1070.70 0.2112
1070.80 0.2111
1070.90 0.2111
1071.00 0.211
1071.10 0.211
1071.20 0.2109
1071.30 0.2109
1071.40 0.2108
1071.50 0.2107
1071.60 0.2107
1071.70 0.2106
1071.80 0.2106
1071.90 0.2105
1072.00 0.2105
1072.10 0.2104
1072.20 0.2104
1072.30 0.2103
1072.40 0.2103
1072.50 0.2102
1072.60 0.2102
1072.70 0.2101
1072.80 0.2101
1072.90 0.21
1073.00 0.21
1073.10 0.21
1073.20 0.2099
1073.30 0.2099
1073.40 0.2098
1073.50 0.2098
1073.60 0.2097
1073.70 0.2097
1073.80 0.2096
1073.90 0.2096
1074.00 0.2096
1074.10 0.2095
1074.20 0.2095
1074.30 0.2094
1074.40 0.2094
1074.50 0.2093
1074.60 0.2093
1074.70 0.2093
1074.80 0.2092
1074.90 0.2092
1075.00 0.2091
1075.10 0.2091
1075.20 0.2091
1075.30 0.209
1075.40 0.209
1075.50 0.2089
1075.60 0.2089
1075.70 0.2089
1075.80 0.2088
1075.90 0.2088
1076.00 0.2087
1076.10 0.2087
1076.20 0.2086
1076.30 0.2086
1076.40 0.2086
1076.50 0.2085
1076.60 0.2085
1076.70 0.2084
1076.80 0.2084
1076.90 0.2084
1077.00 0.2083
1077.10 0.2083
1077.20 0.2082
1077.30 0.2082
1077.40 0.2082
1077.50 0.2081
1077.60 0.2081
1077.70 0.2081
1077.80 0.208
1077.90 0.208
1078.00 0.208
1078.10 0.2079
1078.20 0.2079
1078.30 0.2079
1078.40 0.2078
1078.50 0.2078
1078.60 0.2078
1078.70 0.2077
1078.80 0.2077
1078.90 0.2077
1079.00 0.2076
1079.10 0.2076
1079.20 0.2076
1079.30 0.2075
1079.40 0.2075
1079.50 0.2075
1079.60 0.2075
1079.70 0.2074
1079.80 0.2074
1079.90 0.2074
1080.00 0.2074
1080.10 0.2073
1080.20 0.2073
1080.30 0.2073
1080.40 0.2072
1080.50 0.2072
1080.60 0.2072
1080.70 0.2072
1080.80 0.2071
1080.90 0.2071
1081.00 0.2071
1081.10 0.2071
1081.20 0.207
1081.30 0.207
1081.40 0.207
1081.50 0.207
1081.60 0.2069
1081.70 0.2069
1081.80 0.2069
1081.90 0.2069
1082.00 0.2068
1082.10 0.2068
1082.20 0.2068
1082.30 0.2068
1082.40 0.2067
1082.50 0.2067
1082.60 0.2067
1082.70 0.2067
1082.80 0.2066
1082.90 0.2066
1083.00 0.2066
1083.10 0.2066
1083.20 0.2065
1083.30 0.2065
1083.40 0.2065
1083.50 0.2065
1083.60 0.2065
1083.70 0.2064
1083.80 0.2064
1083.90 0.2064
1084.00 0.2064
1084.10 0.2064
1084.20 0.2063
1084.30 0.2063
1084.40 0.2063
1084.50 0.2063
1084.60 0.2063
1084.70 0.2062
1084.80 0.2062
1084.90 0.2062
1085.00 0.2062
1085.10 0.2062
1085.20 0.2061
1085.30 0.2061
1085.40 0.2061
1085.50 0.2061
1085.60 0.2061
1085.70 0.2061
1085.80 0.206
1085.90 0.206
1086.00 0.206
1086.10 0.206
1086.20 0.206
1086.30 0.2059
1086.40 0.2059
1086.50 0.2059
1086.60 0.2059
1086.70 0.2059
1086.80 0.2059
1086.90 0.2059
1087.00 0.2058
1087.10 0.2058
1087.20 0.2058
1087.30 0.2058
1087.40 0.2058
1087.50 0.2058
1087.60 0.2058
1087.70 0.2057
1087.80 0.2057
1087.90 0.2057
1088.00 0.2057
1088.10 0.2057
1088.20 0.2057
1088.30 0.2057
1088.40 0.2056
1088.50 0.2056
1088.60 0.2056
1088.70 0.2056
1088.80 0.2056
1088.90 0.2056
1089.00 0.2056
1089.10 0.2056
1089.20 0.2056
1089.30 0.2056
1089.40 0.2055
1089.50 0.2055
1089.60 0.2055
1089.70 0.2055
1089.80 0.2055
1089.90 0.2055
1090.00 0.2055
1090.10 0.2055
1090.20 0.2055
1090.30 0.2055
1090.40 0.2054
1090.50 0.2054
1090.60 0.2054
1090.70 0.2054
1090.80 0.2054
1090.90 0.2054
1091.00 0.2054
1091.10 0.2054
1091.20 0.2054
1091.30 0.2054
1091.40 0.2054
1091.50 0.2054
1091.60 0.2054
1091.70 0.2054
1091.80 0.2053
1091.90 0.2053
1092.00 0.2053
1092.10 0.2053
1092.20 0.2053
1092.30 0.2053
1092.40 0.2053
1092.50 0.2053
1092.60 0.2053
1092.70 0.2053
1092.80 0.2054
1092.90 0.2054
1093.00 0.2054
1093.10 0.2054
1093.20 0.2054
1093.30 0.2054
1093.40 0.2054
1093.50 0.2054
1093.60 0.2054
1093.70 0.2054
1093.80 0.2054
1093.90 0.2054
1094.00 0.2054
1094.10 0.2054
1094.20 0.2054
1094.30 0.2054
1094.40 0.2054
1094.50 0.2054
1094.60 0.2054
1094.70 0.2054
1094.80 0.2054
1094.90 0.2054
1095.00 0.2054
1095.10 0.2054
1095.20 0.2054
1095.30 0.2054
1095.40 0.2054
1095.50 0.2054
1095.60 0.2054
1095.70 0.2054
1095.80 0.2054
1095.90 0.2054
1096.00 0.2054
1096.10 0.2054
1096.20 0.2054
1096.30 0.2054
1096.40 0.2054
1096.50 0.2054
1096.60 0.2054
1096.70 0.2054
1096.80 0.2054
1096.90 0.2054
1097.00 0.2054
1097.10 0.2054
1097.20 0.2054
1097.30 0.2054
1097.40 0.2054
1097.50 0.2054
1097.60 0.2054
1097.70 0.2054
1097.80 0.2054
1097.90 0.2054
1098.00 0.2054
1098.10 0.2054
1098.20 0.2054
1098.30 0.2054
1098.40 0.2054
1098.50 0.2054
1098.60 0.2055
1098.70 0.2055
1098.80 0.2055
1098.90 0.2055
1099.00 0.2055
1099.10 0.2055
1099.20 0.2055
1099.30 0.2055
1099.40 0.2055
1099.50 0.2055
1099.60 0.2055
1099.70 0.2055
1099.80 0.2055
1099.90 0.2055
1100.00 0.2055
1100.10 0.2055
1100.20 0.2055
1100.30 0.2055
1100.40 0.2055
1100.50 0.2055
1100.60 0.2055
1100.70 0.2056
1100.80 0.2056
1100.90 0.2056
1101.00 0.2056
1101.10 0.2056
1101.20 0.2056
1101.30 0.2056
1101.40 0.2056
1101.50 0.2056
1101.60 0.2056
1101.70 0.2056
1101.80 0.2056
1101.90 0.2056
1102.00 0.2056
1102.10 0.2057
1102.20 0.2057
1102.30 0.2057
1102.40 0.2057
1102.50 0.2057
1102.60 0.2057
1102.70 0.2057
1102.80 0.2057
1102.90 0.2057
1103.00 0.2057
1103.10 0.2057
1103.20 0.2057
1103.30 0.2058
1103.40 0.2058
1103.50 0.2058
1103.60 0.2058
1103.70 0.2058
1103.80 0.2058
1103.90 0.2058
1104.00 0.2058
1104.10 0.2059
1104.20 0.2059
1104.30 0.2059
1104.40 0.2059
1104.50 0.2059
1104.60 0.2059
1104.70 0.2059
1104.80 0.206
1104.90 0.206
1105.00 0.206
1105.10 0.206
1105.20 0.206
1105.30 0.206
1105.40 0.206
1105.50 0.206
1105.60 0.2061
1105.70 0.2061
1105.80 0.2061
1105.90 0.2061
1106.00 0.2061
1106.10 0.2061
1106.20 0.2061
1106.30 0.2061
1106.40 0.2062
1106.50 0.2062
1106.60 0.2062
1106.70 0.2062
1106.80 0.2062
1106.90 0.2062
1107.00 0.2062
1107.10 0.2062
1107.20 0.2063
1107.30 0.2063
1107.40 0.2063
1107.50 0.2063
1107.60 0.2063
1107.70 0.2063
1107.80 0.2063
1107.90 0.2064
1108.00 0.2064
1108.10 0.2064
1108.20 0.2064
1108.30 0.2064
1108.40 0.2064
1108.50 0.2065
1108.60 0.2065
1108.70 0.2065
1108.80 0.2065
1108.90 0.2065
1109.00 0.2065
1109.10 0.2065
1109.20 0.2066
1109.30 0.2066
1109.40 0.2066
1109.50 0.2066
1109.60 0.2066
1109.70 0.2066
1109.80 0.2066
1109.90 0.2067
1110.00 0.2067
1110.10 0.2067
1110.20 0.2067
1110.30 0.2067
1110.40 0.2067
1110.50 0.2068
1110.60 0.2068
1110.70 0.2068
1110.80 0.2068
1110.90 0.2068
1111.00 0.2068
1111.10 0.2069
1111.20 0.2069
1111.30 0.2069
1111.40 0.2069
1111.50 0.2069
1111.60 0.2069
1111.70 0.207
1111.80 0.207
1111.90 0.207
1112.00 0.207
1112.10 0.207
1112.20 0.207
1112.30 0.2071
1112.40 0.2071
1112.50 0.2071
1112.60 0.2071
1112.70 0.2071
1112.80 0.2072
1112.90 0.2072
1113.00 0.2072
1113.10 0.2072
1113.20 0.2072
1113.30 0.2072
1113.40 0.2073
1113.50 0.2073
1113.60 0.2073
1113.70 0.2073
1113.80 0.2073
1113.90 0.2074
1114.00 0.2074
1114.10 0.2074
1114.20 0.2074
1114.30 0.2075
1114.40 0.2075
1114.50 0.2075
1114.60 0.2075
1114.70 0.2075
1114.80 0.2076
1114.90 0.2076
1115.00 0.2076
1115.10 0.2076
1115.20 0.2076
1115.30 0.2077
1115.40 0.2077
1115.50 0.2077
1115.60 0.2077
1115.70 0.2077
1115.80 0.2078
1115.90 0.2078
1116.00 0.2078
1116.10 0.2078
1116.20 0.2078
1116.30 0.2079
1116.40 0.2079
1116.50 0.2079
1116.60 0.2079
1116.70 0.2079
1116.80 0.208
1116.90 0.208
1117.00 0.208
1117.10 0.208
1117.20 0.2081
1117.30 0.2081
1117.40 0.2081
1117.50 0.2081
1117.60 0.2082
1117.70 0.2082
1117.80 0.2082
1117.90 0.2082
1118.00 0.2083
1118.10 0.2083
1118.20 0.2083
1118.30 0.2083
1118.40 0.2084
1118.50 0.2084
1118.60 0.2084
1118.70 0.2084
1118.80 0.2085
1118.90 0.2085
1119.00 0.2085
1119.10 0.2085
1119.20 0.2086
1119.30 0.2086
1119.40 0.2086
1119.50 0.2086
1119.60 0.2087
1119.70 0.2087
1119.80 0.2087
1119.90 0.2087
1120.00 0.2088
1120.10 0.2088
1120.20 0.2088
1120.30 0.2088
1120.40 0.2089
1120.50 0.2089
1120.60 0.2089
1120.70 0.2089
1120.80 0.209
1120.90 0.209
1121.00 0.209
1121.10 0.209
1121.20 0.2091
1121.30 0.2091
1121.40 0.2091
1121.50 0.2091
1121.60 0.2092
1121.70 0.2092
1121.80 0.2092
1121.90 0.2092
1122.00 0.2092
1122.10 0.2093
1122.20 0.2093
1122.30 0.2093
1122.40 0.2094
1122.50 0.2094
1122.60 0.2094
1122.70 0.2094
1122.80 0.2095
1122.90 0.2095
1123.00 0.2095
1123.10 0.2095
1123.20 0.2096
1123.30 0.2096
1123.40 0.2096
1123.50 0.2097
1123.60 0.2097
1123.70 0.2097
1123.80 0.2097
1123.90 0.2098
1124.00 0.2098
1124.10 0.2098
1124.20 0.2098
1124.30 0.2099
1124.40 0.2099
1124.50 0.2099
1124.60 0.2099
1124.70 0.21
1124.80 0.21
1124.90 0.21
1125.00 0.2101
1125.10 0.2101
1125.20 0.2101
1125.30 0.2101
1125.40 0.2102
1125.50 0.2102
1125.60 0.2102
1125.70 0.2102
1125.80 0.2103
1125.90 0.2103
1126.00 0.2103
1126.10 0.2103
1126.20 0.2104
1126.30 0.2104
1126.40 0.2104
1126.50 0.2105
1126.60 0.2105
1126.70 0.2105
1126.80 0.2105
1126.90 0.2106
1127.00 0.2106
1127.10 0.2106
1127.20 0.2107
1127.30 0.2107
1127.40 0.2107
1127.50 0.2108
1127.60 0.2108
1127.70 0.2108
1127.80 0.2109
1127.90 0.2109
1128.00 0.2109
1128.10 0.211
1128.20 0.211
1128.30 0.211
1128.40 0.2111
1128.50 0.2111
1128.60 0.2111
1128.70 0.2112
1128.80 0.2112
1128.90 0.2112
1129.00 0.2112
1129.10 0.2113
1129.20 0.2113
1129.30 0.2113
1129.40 0.2114
1129.50 0.2114
1129.60 0.2114
1129.70 0.2115
1129.80 0.2115
1129.90 0.2115
1130.00 0.2116
1130.10 0.2116
1130.20 0.2116
1130.30 0.2117
1130.40 0.2117
1130.50 0.2117
1130.60 0.2118
1130.70 0.2118
1130.80 0.2118
1130.90 0.2119
1131.00 0.2119
1131.10 0.2119
1131.20 0.212
1131.30 0.212
1131.40 0.212
1131.50 0.2121
1131.60 0.2121
1131.70 0.2121
1131.80 0.2122
1131.90 0.2122
1132.00 0.2122
1132.10 0.2123
1132.20 0.2123
1132.30 0.2123
1132.40 0.2124
1132.50 0.2124
1132.60 0.2124
1132.70 0.2124
1132.80 0.2125
1132.90 0.2125
1133.00 0.2125
1133.10 0.2126
1133.20 0.2126
1133.30 0.2126
1133.40 0.2126
1133.50 0.2127
1133.60 0.2127
1133.70 0.2127
1133.80 0.2128
1133.90 0.2128
1134.00 0.2128
1134.10 0.2129
1134.20 0.2129
1134.30 0.2129
1134.40 0.2129
1134.50 0.213
1134.60 0.213
1134.70 0.213
1134.80 0.2131
1134.90 0.2131
1135.00 0.2131
1135.10 0.2131
1135.20 0.2132
1135.30 0.2132
1135.40 0.2132
1135.50 0.2133
1135.60 0.2133
1135.70 0.2133
1135.80 0.2134
1135.90 0.2134
1136.00 0.2134
1136.10 0.2134
1136.20 0.2135
1136.30 0.2135
1136.40 0.2135
1136.50 0.2136
1136.60 0.2136
1136.70 0.2136
1136.80 0.2136
1136.90 0.2137
1137.00 0.2137
1137.10 0.2137
1137.20 0.2138
1137.30 0.2138
1137.40 0.2138
1137.50 0.2138
1137.60 0.2139
1137.70 0.2139
1137.80 0.2139
1137.90 0.214
1138.00 0.214
1138.10 0.214
1138.20 0.214
1138.30 0.2141
1138.40 0.2141
1138.50 0.2141
1138.60 0.2142
1138.70 0.2142
1138.80 0.2142
1138.90 0.2142
1139.00 0.2143
1139.10 0.2143
1139.20 0.2143
1139.30 0.2144
1139.40 0.2144
1139.50 0.2144
1139.60 0.2144
1139.70 0.2145
1139.80 0.2145
1139.90 0.2145
1140.00 0.2146
1140.10 0.2146
1140.20 0.2146
1140.30 0.2146
1140.40 0.2147
1140.50 0.2147
1140.60 0.2147
1140.70 0.2148
1140.80 0.2148
1140.90 0.2148
1141.00 0.2148
1141.10 0.2149
1141.20 0.2149
1141.30 0.2149
1141.40 0.215
1141.50 0.215
1141.60 0.215
1141.70 0.215
1141.80 0.2151
1141.90 0.2151
1142.00 0.2151
1142.10 0.2152
1142.20 0.2152
1142.30 0.2152
1142.40 0.2152
1142.50 0.2153
1142.60 0.2153
1142.70 0.2153
1142.80 0.2154
1142.90 0.2154
1143.00 0.2154
1143.10 0.2155
1143.20 0.2155
1143.30 0.2155
1143.40 0.2155
1143.50 0.2156
1143.60 0.2156
1143.70 0.2156
1143.80 0.2157
1143.90 0.2157
1144.00 0.2157
1144.10 0.2158
1144.20 0.2158
1144.30 0.2158
1144.40 0.2158
1144.50 0.2159
1144.60 0.2159
1144.70 0.2159
1144.80 0.216
1144.90 0.216
1145.00 0.216
1145.10 0.216
1145.20 0.2161
1145.30 0.2161
1145.40 0.2161
1145.50 0.2162
1145.60 0.2162
1145.70 0.2162
1145.80 0.2163
1145.90 0.2163
1146.00 0.2163
1146.10 0.2163
1146.20 0.2164
1146.30 0.2164
1146.40 0.2164
1146.50 0.2165
1146.60 0.2165
1146.70 0.2165
1146.80 0.2165
1146.90 0.2166
1147.00 0.2166
1147.10 0.2166
1147.20 0.2166
1147.30 0.2167
1147.40 0.2167
1147.50 0.2167
1147.60 0.2167
1147.70 0.2168
1147.80 0.2168
1147.90 0.2168
1148.00 0.2168
1148.10 0.2168
1148.20 0.2169
1148.30 0.2169
1148.40 0.2169
1148.50 0.2169
1148.60 0.2169
1148.70 0.217
1148.80 0.217
1148.90 0.217
1149.00 0.217
1149.10 0.217
1149.20 0.2171
1149.30 0.2171
1149.40 0.2171
1149.50 0.2171
1149.60 0.2172
1149.70 0.2172
1149.80 0.2172
1149.90 0.2172
1150.00 0.2172
1150.10 0.2173
1150.20 0.2173
1150.30 0.2173
1150.40 0.2173
1150.50 0.2173
1150.60 0.2174
1150.70 0.2174
1150.80 0.2174
1150.90 0.2174
1151.00 0.2174
1151.10 0.2175
1151.20 0.2175
1151.30 0.2175
1151.40 0.2175
1151.50 0.2175
1151.60 0.2176
1151.70 0.2176
1151.80 0.2176
1151.90 0.2176
1152.00 0.2176
1152.10 0.2177
1152.20 0.2177
1152.30 0.2177
1152.40 0.2177
1152.50 0.2177
1152.60 0.2178
1152.70 0.2178
1152.80 0.2178
1152.90 0.2178
1153.00 0.2178
1153.10 0.2179
1153.20 0.2179
1153.30 0.2179
1153.40 0.2179
1153.50 0.2179
1153.60 0.2179
1153.70 0.218
1153.80 0.218
1153.90 0.218
1154.00 0.218
1154.10 0.218
1154.20 0.2181
1154.30 0.2181
1154.40 0.2181
1154.50 0.2181
1154.60 0.2181
1154.70 0.2182
1154.80 0.2182
1154.90 0.2182
1155.00 0.2182
1155.10 0.2182
1155.20 0.2182
1155.30 0.2183
1155.40 0.2183
1155.50 0.2183
1155.60 0.2183
1155.70 0.2183
1155.80 0.2184
1155.90 0.2184
1156.00 0.2184
1156.10 0.2184
1156.20 0.2184
1156.30 0.2184
1156.40 0.2185
1156.50 0.2185
1156.60 0.2185
1156.70 0.2185
1156.80 0.2185
1156.90 0.2186
1157.00 0.2186
1157.10 0.2186
1157.20 0.2186
1157.30 0.2186
1157.40 0.2186
1157.50 0.2186
1157.60 0.2186
1157.70 0.2186
1157.80 0.2186
1157.90 0.2187
1158.00 0.2187
1158.10 0.2187
1158.20 0.2187
1158.30 0.2187
1158.40 0.2187
1158.50 0.2187
1158.60 0.2187
1158.70 0.2187
1158.80 0.2187
1158.90 0.2187
1159.00 0.2188
1159.10 0.2188
1159.20 0.2188
1159.30 0.2188
1159.40 0.2188
1159.50 0.2188
1159.60 0.2188
1159.70 0.2188
1159.80 0.2188
1159.90 0.2188
1160.00 0.2188
1160.10 0.2188
1160.20 0.2189
1160.30 0.2189
1160.40 0.2189
1160.50 0.2189
1160.60 0.2189
1160.70 0.2189
1160.80 0.2189
1160.90 0.2189
1161.00 0.2189
1161.10 0.2189
1161.20 0.2189
1161.30 0.219
1161.40 0.219
1161.50 0.219
1161.60 0.219
1161.70 0.219
1161.80 0.219
1161.90 0.219
1162.00 0.219
1162.10 0.219
1162.20 0.219
1162.30 0.219
1162.40 0.219
1162.50 0.219
1162.60 0.219
1162.70 0.219
1162.80 0.219
1162.90 0.219
1163.00 0.219
1163.10 0.219
1163.20 0.219
1163.30 0.219
1163.40 0.219
1163.50 0.219
1163.60 0.219
1163.70 0.219
1163.80 0.219
1163.90 0.219
1164.00 0.219
1164.10 0.219
1164.20 0.219
1164.30 0.219
1164.40 0.219
1164.50 0.219
1164.60 0.219
1164.70 0.219
1164.80 0.219
1164.90 0.219
1165.00 0.219
1165.10 0.219
1165.20 0.219
1165.30 0.219
1165.40 0.219
1165.50 0.219
1165.60 0.2191
1165.70 0.2191
1165.80 0.2191
1165.90 0.2191
1166.00 0.2191
1166.10 0.2191
1166.20 0.2191
1166.30 0.2191
1166.40 0.2191
1166.50 0.2191
1166.60 0.2191
1166.70 0.2191
1166.80 0.2191
1166.90 0.2191
1167.00 0.2191
1167.10 0.2191
1167.20 0.2191
1167.30 0.219
1167.40 0.219
1167.50 0.219
1167.60 0.219
1167.70 0.219
1167.80 0.219
1167.90 0.219
1168.00 0.219
1168.10 0.219
1168.20 0.219
1168.30 0.219
1168.40 0.219
1168.50 0.219
1168.60 0.219
1168.70 0.219
1168.80 0.219
1168.90 0.219
1169.00 0.219
1169.10 0.219
1169.20 0.219
1169.30 0.219
1169.40 0.219
1169.50 0.2189
1169.60 0.2189
1169.70 0.2189
1169.80 0.2189
1169.90 0.2189
1170.00 0.2189
1170.10 0.2189
1170.20 0.2189
1170.30 0.2189
1170.40 0.2189
1170.50 0.2189
1170.60 0.2189
1170.70 0.2189
1170.80 0.2189
1170.90 0.2189
1171.00 0.2189
1171.10 0.2189
1171.20 0.2189
1171.30 0.2189
1171.40 0.2189
1171.50 0.2189
1171.60 0.2188
1171.70 0.2188
1171.80 0.2188
1171.90 0.2188
1172.00 0.2188
1172.10 0.2188
1172.20 0.2188
1172.30 0.2188
1172.40 0.2188
1172.50 0.2188
1172.60 0.2187
1172.70 0.2187
1172.80 0.2187
1172.90 0.2187
1173.00 0.2187
1173.10 0.2187
1173.20 0.2186
1173.30 0.2186
1173.40 0.2186
1173.50 0.2186
1173.60 0.2186
1173.70 0.2186
1173.80 0.2186
1173.90 0.2185
1174.00 0.2185
1174.10 0.2185
1174.20 0.2185
1174.30 0.2185
1174.40 0.2185
1174.50 0.2184
1174.60 0.2184
1174.70 0.2184
1174.80 0.2184
1174.90 0.2184
1175.00 0.2184
1175.10 0.2184
1175.20 0.2183
1175.30 0.2183
1175.40 0.2183
1175.50 0.2183
1175.60 0.2183
1175.70 0.2183
1175.80 0.2182
1175.90 0.2182
1176.00 0.2182
1176.10 0.2182
1176.20 0.2182
1176.30 0.2182
1176.40 0.2182
1176.50 0.2181
1176.60 0.2181
1176.70 0.2181
1176.80 0.2181
1176.90 0.2181
1177.00 0.2181
1177.10 0.218
1177.20 0.218
1177.30 0.218
1177.40 0.218
1177.50 0.2179
1177.60 0.2179
1177.70 0.2179
1177.80 0.2179
1177.90 0.2179
1178.00 0.2178
1178.10 0.2178
1178.20 0.2178
1178.30 0.2178
1178.40 0.2177
1178.50 0.2177
1178.60 0.2177
1178.70 0.2177
1178.80 0.2176
1178.90 0.2176
1179.00 0.2176
1179.10 0.2176
1179.20 0.2175
1179.30 0.2175
1179.40 0.2175
1179.50 0.2175
1179.60 0.2174
1179.70 0.2174
1179.80 0.2174
1179.90 0.2174
1180.00 0.2174
1180.10 0.2173
1180.20 0.2173
1180.30 0.2173
1180.40 0.2173
1180.50 0.2172
1180.60 0.2172
1180.70 0.2172
1180.80 0.2172
1180.90 0.2171
1181.00 0.2171
1181.10 0.2171
1181.20 0.2171
1181.30 0.217
1181.40 0.217
1181.50 0.217
1181.60 0.217
1181.70 0.2169
1181.80 0.2169
1181.90 0.2169
1182.00 0.2169
1182.10 0.2168
1182.20 0.2168
1182.30 0.2168
1182.40 0.2167
1182.50 0.2167
1182.60 0.2167
1182.70 0.2166
1182.80 0.2166
1182.90 0.2166
1183.00 0.2165
1183.10 0.2165
1183.20 0.2165
1183.30 0.2164
1183.40 0.2164
1183.50 0.2163
1183.60 0.2163
1183.70 0.2163
1183.80 0.2162
1183.90 0.2162
1184.00 0.2162
1184.10 0.2161
1184.20 0.2161
1184.30 0.2161
1184.40 0.216
1184.50 0.216
1184.60 0.216
1184.70 0.2159
1184.80 0.2159
1184.90 0.2159
1185.00 0.2158
1185.10 0.2158
1185.20 0.2157
1185.30 0.2157
1185.40 0.2157
1185.50 0.2156
1185.60 0.2156
1185.70 0.2156
1185.80 0.2155
1185.90 0.2155
1186.00 0.2155
1186.10 0.2154
1186.20 0.2154
1186.30 0.2154
1186.40 0.2153
1186.50 0.2153
1186.60 0.2153
1186.70 0.2152
1186.80 0.2152
1186.90 0.2152
1187.00 0.2151
1187.10 0.2151
1187.20 0.215
1187.30 0.215
1187.40 0.215
1187.50 0.2149
1187.60 0.2149
1187.70 0.2149
1187.80 0.2148
1187.90 0.2148
1188.00 0.2148
1188.10 0.2147
1188.20 0.2147
1188.30 0.2147
1188.40 0.2146
1188.50 0.2146
1188.60 0.2146
1188.70 0.2145
1188.80 0.2145
1188.90 0.2145
1189.00 0.2144
1189.10 0.2144
1189.20 0.2144
1189.30 0.2143
1189.40 0.2143
1189.50 0.2143
1189.60 0.2142
1189.70 0.2142
1189.80 0.2142
1189.90 0.2141
1190.00 0.2141
1190.10 0.2141
1190.20 0.214
1190.30 0.214
1190.40 0.2139
1190.50 0.2139
1190.60 0.2139
1190.70 0.2138
1190.80 0.2138
1190.90 0.2138
1191.00 0.2137
1191.10 0.2137
1191.20 0.2137
1191.30 0.2136
1191.40 0.2136
1191.50 0.2136
1191.60 0.2135
1191.70 0.2135
1191.80 0.2135
1191.90 0.2134
1192.00 0.2134
1192.10 0.2134
1192.20 0.2133
1192.30 0.2133
1192.40 0.2133
1192.50 0.2132
1192.60 0.2132
1192.70 0.2131
1192.80 0.2131
1192.90 0.2131
1193.00 0.213
1193.10 0.213
1193.20 0.213
1193.30 0.2129
1193.40 0.2129
1193.50 0.2128
1193.60 0.2128
1193.70 0.2128
1193.80 0.2127
1193.90 0.2127
1194.00 0.2126
1194.10 0.2126
1194.20 0.2126
1194.30 0.2125
1194.40 0.2125
1194.50 0.2125
1194.60 0.2124
1194.70 0.2124
1194.80 0.2124
1194.90 0.2123
1195.00 0.2123
1195.10 0.2122
1195.20 0.2122
1195.30 0.2122
1195.40 0.2121
1195.50 0.2121
1195.60 0.2121
1195.70 0.212
1195.80 0.212
1195.90 0.2119
1196.00 0.2119
1196.10 0.2119
1196.20 0.2118
1196.30 0.2118
1196.40 0.2118
1196.50 0.2117
1196.60 0.2117
1196.70 0.2116
1196.80 0.2116
1196.90 0.2116
1197.00 0.2115
1197.10 0.2115
1197.20 0.2114
1197.30 0.2114
1197.40 0.2113
1197.50 0.2113
1197.60 0.2113
1197.70 0.2112
1197.80 0.2112
1197.90 0.2111
1198.00 0.2111
1198.10 0.211
1198.20 0.211
1198.30 0.2109
1198.40 0.2109
1198.50 0.2108
1198.60 0.2108
1198.70 0.2108
1198.80 0.2107
1198.90 0.2107
1199.00 0.2106
1199.10 0.2106
1199.20 0.2105
1199.30 0.2105
1199.40 0.2104
1199.50 0.2104
1199.60 0.2104
1199.70 0.2103
1199.80 0.2103
1199.90 0.2102
1200.00 0
