# Version 2.1 - nm, norm@500 to 1, cut digits, bergeron_4000_90.dat_4000
# Wavelength(nm)  Flambda(ergs/cm^s/s/nm)
300.00 0.2091
300.10 0.2095
300.20 0.2099
300.30 0.2102
300.40 0.2106
300.50 0.2109
300.60 0.2113
300.70 0.2117
300.80 0.212
300.90 0.2124
301.00 0.2127
301.10 0.2131
301.20 0.2135
301.30 0.2138
301.40 0.2142
301.50 0.2145
301.60 0.2149
301.70 0.2152
301.80 0.2156
301.90 0.2159
302.00 0.2163
302.10 0.2167
302.20 0.217
302.30 0.2174
302.40 0.2178
302.50 0.2181
302.60 0.2185
302.70 0.2189
302.80 0.2192
302.90 0.2196
303.00 0.22
303.10 0.2203
303.20 0.2207
303.30 0.221
303.40 0.2214
303.50 0.2218
303.60 0.2221
303.70 0.2225
303.80 0.2228
303.90 0.2232
304.00 0.2236
304.10 0.2239
304.20 0.2243
304.30 0.2247
304.40 0.2251
304.50 0.2254
304.60 0.2258
304.70 0.2262
304.80 0.2265
304.90 0.2269
305.00 0.2273
305.10 0.2276
305.20 0.228
305.30 0.2284
305.40 0.2287
305.50 0.2291
305.60 0.2295
305.70 0.2298
305.80 0.2302
305.90 0.2306
306.00 0.2309
306.10 0.2313
306.20 0.2317
306.30 0.2321
306.40 0.2324
306.50 0.2328
306.60 0.2332
306.70 0.2336
306.80 0.234
306.90 0.2343
307.00 0.2347
307.10 0.2351
307.20 0.2354
307.30 0.2358
307.40 0.2362
307.50 0.2366
307.60 0.2369
307.70 0.2373
307.80 0.2377
307.90 0.238
308.00 0.2384
308.10 0.2388
308.20 0.2392
308.30 0.2396
308.40 0.2399
308.50 0.2403
308.60 0.2407
308.70 0.2411
308.80 0.2415
308.90 0.2418
309.00 0.2422
309.10 0.2426
309.20 0.243
309.30 0.2434
309.40 0.2437
309.50 0.2441
309.60 0.2445
309.70 0.2449
309.80 0.2452
309.90 0.2456
310.00 0.246
310.10 0.2464
310.20 0.2468
310.30 0.2471
310.40 0.2475
310.50 0.2479
310.60 0.2483
310.70 0.2487
310.80 0.2491
310.90 0.2495
311.00 0.2498
311.10 0.2502
311.20 0.2506
311.30 0.251
311.40 0.2514
311.50 0.2518
311.60 0.2521
311.70 0.2525
311.80 0.2529
311.90 0.2533
312.00 0.2537
312.10 0.254
312.20 0.2544
312.30 0.2548
312.40 0.2552
312.50 0.2556
312.60 0.256
312.70 0.2564
312.80 0.2567
312.90 0.2571
313.00 0.2575
313.10 0.2579
313.20 0.2583
313.30 0.2587
313.40 0.2591
313.50 0.2595
313.60 0.2598
313.70 0.2602
313.80 0.2606
313.90 0.261
314.00 0.2614
314.10 0.2618
314.20 0.2622
314.30 0.2626
314.40 0.263
314.50 0.2634
314.60 0.2638
314.70 0.2642
314.80 0.2645
314.90 0.2649
315.00 0.2653
315.10 0.2657
315.20 0.2661
315.30 0.2665
315.40 0.2669
315.50 0.2673
315.60 0.2677
315.70 0.2681
315.80 0.2685
315.90 0.2688
316.00 0.2692
316.10 0.2696
316.20 0.27
316.30 0.2704
316.40 0.2708
316.50 0.2712
316.60 0.2716
316.70 0.272
316.80 0.2724
316.90 0.2728
317.00 0.2732
317.10 0.2736
317.20 0.274
317.30 0.2744
317.40 0.2748
317.50 0.2752
317.60 0.2756
317.70 0.276
317.80 0.2764
317.90 0.2768
318.00 0.2772
318.10 0.2776
318.20 0.278
318.30 0.2784
318.40 0.2788
318.50 0.2792
318.60 0.2796
318.70 0.28
318.80 0.2804
318.90 0.2808
319.00 0.2812
319.10 0.2816
319.20 0.282
319.30 0.2824
319.40 0.2828
319.50 0.2832
319.60 0.2836
319.70 0.284
319.80 0.2844
319.90 0.2848
320.00 0.2852
320.10 0.2856
320.20 0.286
320.30 0.2864
320.40 0.2868
320.50 0.2872
320.60 0.2876
320.70 0.288
320.80 0.2884
320.90 0.2888
321.00 0.2892
321.10 0.2896
321.20 0.2901
321.30 0.2905
321.40 0.2909
321.50 0.2913
321.60 0.2917
321.70 0.2921
321.80 0.2925
321.90 0.2929
322.00 0.2933
322.10 0.2937
322.20 0.2941
322.30 0.2945
322.40 0.2949
322.50 0.2953
322.60 0.2957
322.70 0.2961
322.80 0.2965
322.90 0.297
323.00 0.2974
323.10 0.2978
323.20 0.2982
323.30 0.2986
323.40 0.299
323.50 0.2994
323.60 0.2998
323.70 0.3002
323.80 0.3006
323.90 0.301
324.00 0.3014
324.10 0.3018
324.20 0.3022
324.30 0.3027
324.40 0.3031
324.50 0.3035
324.60 0.3039
324.70 0.3043
324.80 0.3047
324.90 0.3051
325.00 0.3056
325.10 0.306
325.20 0.3064
325.30 0.3068
325.40 0.3072
325.50 0.3076
325.60 0.308
325.70 0.3084
325.80 0.3088
325.90 0.3093
326.00 0.3097
326.10 0.3101
326.20 0.3105
326.30 0.3109
326.40 0.3113
326.50 0.3118
326.60 0.3122
326.70 0.3126
326.80 0.313
326.90 0.3134
327.00 0.3138
327.10 0.3143
327.20 0.3147
327.30 0.3151
327.40 0.3155
327.50 0.3159
327.60 0.3163
327.70 0.3167
327.80 0.3171
327.90 0.3176
328.00 0.318
328.10 0.3184
328.20 0.3188
328.30 0.3192
328.40 0.3197
328.50 0.3201
328.60 0.3205
328.70 0.3209
328.80 0.3213
328.90 0.3218
329.00 0.3222
329.10 0.3226
329.20 0.323
329.30 0.3234
329.40 0.3238
329.50 0.3243
329.60 0.3247
329.70 0.3251
329.80 0.3255
329.90 0.3259
330.00 0.3263
330.10 0.3268
330.20 0.3272
330.30 0.3276
330.40 0.328
330.50 0.3285
330.60 0.3289
330.70 0.3293
330.80 0.3297
330.90 0.3302
331.00 0.3306
331.10 0.331
331.20 0.3314
331.30 0.3318
331.40 0.3323
331.50 0.3327
331.60 0.3331
331.70 0.3335
331.80 0.3339
331.90 0.3343
332.00 0.3348
332.10 0.3352
332.20 0.3356
332.30 0.336
332.40 0.3365
332.50 0.3369
332.60 0.3373
332.70 0.3378
332.80 0.3382
332.90 0.3386
333.00 0.339
333.10 0.3395
333.20 0.3399
333.30 0.3403
333.40 0.3407
333.50 0.3412
333.60 0.3416
333.70 0.342
333.80 0.3424
333.90 0.3428
334.00 0.3433
334.10 0.3437
334.20 0.3441
334.30 0.3446
334.40 0.345
334.50 0.3454
334.60 0.3459
334.70 0.3463
334.80 0.3467
334.90 0.3471
335.00 0.3476
335.10 0.348
335.20 0.3484
335.30 0.3488
335.40 0.3493
335.50 0.3497
335.60 0.3501
335.70 0.3505
335.80 0.351
335.90 0.3514
336.00 0.3518
336.10 0.3522
336.20 0.3527
336.30 0.3531
336.40 0.3536
336.50 0.354
336.60 0.3544
336.70 0.3549
336.80 0.3553
336.90 0.3557
337.00 0.3561
337.10 0.3566
337.20 0.357
337.30 0.3574
337.40 0.3579
337.50 0.3583
337.60 0.3587
337.70 0.3592
337.80 0.3596
337.90 0.36
338.00 0.3604
338.10 0.3609
338.20 0.3613
338.30 0.3617
338.40 0.3622
338.50 0.3626
338.60 0.3631
338.70 0.3635
338.80 0.3639
338.90 0.3644
339.00 0.3648
339.10 0.3652
339.20 0.3657
339.30 0.3661
339.40 0.3665
339.50 0.3669
339.60 0.3674
339.70 0.3678
339.80 0.3682
339.90 0.3687
340.00 0.3691
340.10 0.3695
340.20 0.37
340.30 0.3704
340.40 0.3708
340.50 0.3713
340.60 0.3717
340.70 0.3722
340.80 0.3726
340.90 0.373
341.00 0.3735
341.10 0.3739
341.20 0.3743
341.30 0.3748
341.40 0.3752
341.50 0.3756
341.60 0.3761
341.70 0.3765
341.80 0.3769
341.90 0.3774
342.00 0.3778
342.10 0.3782
342.20 0.3787
342.30 0.3791
342.40 0.3796
342.50 0.38
342.60 0.3804
342.70 0.3809
342.80 0.3813
342.90 0.3817
343.00 0.3822
343.10 0.3826
343.20 0.3831
343.30 0.3835
343.40 0.3839
343.50 0.3844
343.60 0.3848
343.70 0.3852
343.80 0.3857
343.90 0.3861
344.00 0.3865
344.10 0.387
344.20 0.3874
344.30 0.3879
344.40 0.3883
344.50 0.3888
344.60 0.3892
344.70 0.3896
344.80 0.3901
344.90 0.3905
345.00 0.391
345.10 0.3914
345.20 0.3918
345.30 0.3923
345.40 0.3927
345.50 0.3932
345.60 0.3936
345.70 0.394
345.80 0.3945
345.90 0.3949
346.00 0.3953
346.10 0.3958
346.20 0.3962
346.30 0.3967
346.40 0.3971
346.50 0.3976
346.60 0.398
346.70 0.3985
346.80 0.3989
346.90 0.3993
347.00 0.3998
347.10 0.4002
347.20 0.4007
347.30 0.4011
347.40 0.4015
347.50 0.402
347.60 0.4024
347.70 0.4029
347.80 0.4033
347.90 0.4037
348.00 0.4042
348.10 0.4046
348.20 0.4051
348.30 0.4055
348.40 0.406
348.50 0.4064
348.60 0.4068
348.70 0.4073
348.80 0.4077
348.90 0.4082
349.00 0.4086
349.10 0.4091
349.20 0.4095
349.30 0.4099
349.40 0.4104
349.50 0.4108
349.60 0.4113
349.70 0.4117
349.80 0.4121
349.90 0.4126
350.00 0.413
350.10 0.4135
350.20 0.4139
350.30 0.4144
350.40 0.4148
350.50 0.4153
350.60 0.4157
350.70 0.4162
350.80 0.4166
350.90 0.4171
351.00 0.4175
351.10 0.4179
351.20 0.4184
351.30 0.4188
351.40 0.4193
351.50 0.4197
351.60 0.4202
351.70 0.4206
351.80 0.421
351.90 0.4215
352.00 0.4219
352.10 0.4224
352.20 0.4228
352.30 0.4233
352.40 0.4237
352.50 0.4242
352.60 0.4246
352.70 0.4251
352.80 0.4255
352.90 0.426
353.00 0.4264
353.10 0.4269
353.20 0.4273
353.30 0.4277
353.40 0.4282
353.50 0.4286
353.60 0.4291
353.70 0.4295
353.80 0.43
353.90 0.4304
354.00 0.4308
354.10 0.4313
354.20 0.4317
354.30 0.4322
354.40 0.4326
354.50 0.4331
354.60 0.4335
354.70 0.434
354.80 0.4344
354.90 0.4349
355.00 0.4353
355.10 0.4358
355.20 0.4362
355.30 0.4367
355.40 0.4371
355.50 0.4376
355.60 0.438
355.70 0.4385
355.80 0.4389
355.90 0.4393
356.00 0.4398
356.10 0.4402
356.20 0.4407
356.30 0.4412
356.40 0.4416
356.50 0.4421
356.60 0.4425
356.70 0.443
356.80 0.4434
356.90 0.4439
357.00 0.4443
357.10 0.4448
357.20 0.4452
357.30 0.4456
357.40 0.4461
357.50 0.4465
357.60 0.447
357.70 0.4474
357.80 0.4479
357.90 0.4483
358.00 0.4488
358.10 0.4492
358.20 0.4497
358.30 0.4501
358.40 0.4506
358.50 0.451
358.60 0.4515
358.70 0.4519
358.80 0.4524
358.90 0.4528
359.00 0.4533
359.10 0.4537
359.20 0.4542
359.30 0.4546
359.40 0.4551
359.50 0.4555
359.60 0.456
359.70 0.4564
359.80 0.4569
359.90 0.4573
360.00 0.4578
360.10 0.4582
360.20 0.4587
360.30 0.4591
360.40 0.4596
360.50 0.46
360.60 0.4605
360.70 0.4609
360.80 0.4614
360.90 0.4618
361.00 0.4623
361.10 0.4627
361.20 0.4632
361.30 0.4636
361.40 0.4641
361.50 0.4645
361.60 0.465
361.70 0.4654
361.80 0.4659
361.90 0.4663
362.00 0.4668
362.10 0.4672
362.20 0.4677
362.30 0.4681
362.40 0.4686
362.50 0.469
362.60 0.4695
362.70 0.4699
362.80 0.4704
362.90 0.4708
363.00 0.4713
363.10 0.4717
363.20 0.4722
363.30 0.4726
363.40 0.4731
363.50 0.4736
363.60 0.474
363.70 0.4745
363.80 0.4749
363.90 0.4754
364.00 0.4758
364.10 0.4763
364.20 0.4767
364.30 0.4772
364.40 0.4776
364.50 0.4781
364.60 0.4785
364.70 0.479
364.80 0.4794
364.90 0.4799
365.00 0.4803
365.10 0.4808
365.20 0.4812
365.30 0.4817
365.40 0.4821
365.50 0.4826
365.60 0.483
365.70 0.4835
365.80 0.4839
365.90 0.4844
366.00 0.4848
366.10 0.4853
366.20 0.4857
366.30 0.4862
366.40 0.4867
366.50 0.4871
366.60 0.4876
366.70 0.488
366.80 0.4885
366.90 0.4889
367.00 0.4894
367.10 0.4898
367.20 0.4903
367.30 0.4907
367.40 0.4912
367.50 0.4916
367.60 0.4921
367.70 0.4925
367.80 0.493
367.90 0.4934
368.00 0.4939
368.10 0.4943
368.20 0.4948
368.30 0.4952
368.40 0.4957
368.50 0.4961
368.60 0.4966
368.70 0.4971
368.80 0.4975
368.90 0.498
369.00 0.4984
369.10 0.4989
369.20 0.4993
369.30 0.4998
369.40 0.5002
369.50 0.5007
369.60 0.5011
369.70 0.5016
369.80 0.502
369.90 0.5025
370.00 0.5029
370.10 0.5034
370.20 0.5038
370.30 0.5043
370.40 0.5047
370.50 0.5052
370.60 0.5056
370.70 0.5061
370.80 0.5066
370.90 0.507
371.00 0.5075
371.10 0.5079
371.20 0.5084
371.30 0.5088
371.40 0.5093
371.50 0.5097
371.60 0.5102
371.70 0.5106
371.80 0.5111
371.90 0.5115
372.00 0.512
372.10 0.5124
372.20 0.5129
372.30 0.5133
372.40 0.5138
372.50 0.5143
372.60 0.5147
372.70 0.5152
372.80 0.5156
372.90 0.5161
373.00 0.5165
373.10 0.517
373.20 0.5174
373.30 0.5179
373.40 0.5183
373.50 0.5188
373.60 0.5192
373.70 0.5197
373.80 0.5201
373.90 0.5206
374.00 0.521
374.10 0.5215
374.20 0.5219
374.30 0.5224
374.40 0.5228
374.50 0.5233
374.60 0.5237
374.70 0.5242
374.80 0.5247
374.90 0.5251
375.00 0.5256
375.10 0.526
375.20 0.5265
375.30 0.5269
375.40 0.5274
375.50 0.5278
375.60 0.5283
375.70 0.5287
375.80 0.5292
375.90 0.5296
376.00 0.5301
376.10 0.5305
376.20 0.531
376.30 0.5314
376.40 0.5319
376.50 0.5323
376.60 0.5328
376.70 0.5332
376.80 0.5337
376.90 0.5341
377.00 0.5346
377.10 0.535
377.20 0.5355
377.30 0.5359
377.40 0.5364
377.50 0.5368
377.60 0.5373
377.70 0.5378
377.80 0.5382
377.90 0.5387
378.00 0.5391
378.10 0.5396
378.20 0.54
378.30 0.5405
378.40 0.5409
378.50 0.5414
378.60 0.5418
378.70 0.5423
378.80 0.5427
378.90 0.5432
379.00 0.5436
379.10 0.5441
379.20 0.5445
379.30 0.545
379.40 0.5454
379.50 0.5459
379.60 0.5463
379.70 0.5468
379.80 0.5472
379.90 0.5477
380.00 0.5481
380.10 0.5486
380.20 0.549
380.30 0.5495
380.40 0.5499
380.50 0.5504
380.60 0.5508
380.70 0.5513
380.80 0.5517
380.90 0.5522
381.00 0.5526
381.10 0.5531
381.20 0.5535
381.30 0.554
381.40 0.5544
381.50 0.5549
381.60 0.5553
381.70 0.5558
381.80 0.5562
381.90 0.5567
382.00 0.5571
382.10 0.5576
382.20 0.5581
382.30 0.5585
382.40 0.559
382.50 0.5594
382.60 0.5599
382.70 0.5603
382.80 0.5608
382.90 0.5612
383.00 0.5617
383.10 0.5621
383.20 0.5626
383.30 0.563
383.40 0.5634
383.50 0.5639
383.60 0.5643
383.70 0.5648
383.80 0.5652
383.90 0.5657
384.00 0.5661
384.10 0.5666
384.20 0.5671
384.30 0.5675
384.40 0.568
384.50 0.5684
384.60 0.5688
384.70 0.5693
384.80 0.5697
384.90 0.5702
385.00 0.5706
385.10 0.5711
385.20 0.5715
385.30 0.572
385.40 0.5724
385.50 0.5729
385.60 0.5733
385.70 0.5738
385.80 0.5742
385.90 0.5747
386.00 0.5751
386.10 0.5756
386.20 0.576
386.30 0.5765
386.40 0.5769
386.50 0.5774
386.60 0.5778
386.70 0.5783
386.80 0.5787
386.90 0.5792
387.00 0.5796
387.10 0.5801
387.20 0.5805
387.30 0.581
387.40 0.5814
387.50 0.5818
387.60 0.5823
387.70 0.5828
387.80 0.5832
387.90 0.5836
388.00 0.5841
388.10 0.5845
388.20 0.585
388.30 0.5854
388.40 0.5859
388.50 0.5863
388.60 0.5868
388.70 0.5872
388.80 0.5877
388.90 0.5881
389.00 0.5886
389.10 0.589
389.20 0.5895
389.30 0.5899
389.40 0.5904
389.50 0.5908
389.60 0.5912
389.70 0.5917
389.80 0.5922
389.90 0.5926
390.00 0.593
390.10 0.5935
390.20 0.5939
390.30 0.5944
390.40 0.5948
390.50 0.5953
390.60 0.5957
390.70 0.5962
390.80 0.5966
390.90 0.5971
391.00 0.5975
391.10 0.598
391.20 0.5984
391.30 0.5988
391.40 0.5993
391.50 0.5997
391.60 0.6002
391.70 0.6006
391.80 0.6011
391.90 0.6015
392.00 0.602
392.10 0.6024
392.20 0.6029
392.30 0.6033
392.40 0.6037
392.50 0.6042
392.60 0.6046
392.70 0.6051
392.80 0.6055
392.90 0.606
393.00 0.6064
393.10 0.6069
393.20 0.6073
393.30 0.6077
393.40 0.6082
393.50 0.6086
393.60 0.6091
393.70 0.6095
393.80 0.61
393.90 0.6104
394.00 0.6109
394.10 0.6113
394.20 0.6117
394.30 0.6122
394.40 0.6126
394.50 0.6131
394.60 0.6135
394.70 0.614
394.80 0.6144
394.90 0.6148
395.00 0.6153
395.10 0.6157
395.20 0.6162
395.30 0.6166
395.40 0.6171
395.50 0.6175
395.60 0.6179
395.70 0.6184
395.80 0.6188
395.90 0.6193
396.00 0.6197
396.10 0.6202
396.20 0.6206
396.30 0.621
396.40 0.6215
396.50 0.6219
396.60 0.6224
396.70 0.6228
396.80 0.6233
396.90 0.6237
397.00 0.6241
397.10 0.6246
397.20 0.625
397.30 0.6255
397.40 0.6259
397.50 0.6263
397.60 0.6268
397.70 0.6272
397.80 0.6277
397.90 0.6281
398.00 0.6285
398.10 0.629
398.20 0.6294
398.30 0.6299
398.40 0.6303
398.50 0.6307
398.60 0.6312
398.70 0.6316
398.80 0.6321
398.90 0.6325
399.00 0.6329
399.10 0.6334
399.20 0.6338
399.30 0.6343
399.40 0.6347
399.50 0.6352
399.60 0.6356
399.70 0.636
399.80 0.6365
399.90 0.6369
400.00 0.6373
400.10 0.6378
400.20 0.6382
400.30 0.6387
400.40 0.6391
400.50 0.6395
400.60 0.64
400.70 0.6404
400.80 0.6409
400.90 0.6413
401.00 0.6417
401.10 0.6422
401.20 0.6426
401.30 0.643
401.40 0.6435
401.50 0.6439
401.60 0.6444
401.70 0.6448
401.80 0.6452
401.90 0.6457
402.00 0.6461
402.10 0.6465
402.20 0.647
402.30 0.6474
402.40 0.6479
402.50 0.6483
402.60 0.6487
402.70 0.6492
402.80 0.6496
402.90 0.65
403.00 0.6505
403.10 0.6509
403.20 0.6513
403.30 0.6518
403.40 0.6522
403.50 0.6527
403.60 0.6531
403.70 0.6535
403.80 0.654
403.90 0.6544
404.00 0.6548
404.10 0.6553
404.20 0.6557
404.30 0.6561
404.40 0.6566
404.50 0.657
404.60 0.6574
404.70 0.6579
404.80 0.6583
404.90 0.6587
405.00 0.6592
405.10 0.6596
405.20 0.6601
405.30 0.6605
405.40 0.6609
405.50 0.6613
405.60 0.6618
405.70 0.6622
405.80 0.6627
405.90 0.6631
406.00 0.6635
406.10 0.664
406.20 0.6644
406.30 0.6648
406.40 0.6652
406.50 0.6657
406.60 0.6661
406.70 0.6665
406.80 0.667
406.90 0.6674
407.00 0.6678
407.10 0.6683
407.20 0.6687
407.30 0.6691
407.40 0.6696
407.50 0.67
407.60 0.6704
407.70 0.6709
407.80 0.6713
407.90 0.6717
408.00 0.6722
408.10 0.6726
408.20 0.673
408.30 0.6734
408.40 0.6739
408.50 0.6743
408.60 0.6747
408.70 0.6752
408.80 0.6756
408.90 0.676
409.00 0.6765
409.10 0.6769
409.20 0.6773
409.30 0.6778
409.40 0.6782
409.50 0.6786
409.60 0.679
409.70 0.6795
409.80 0.6799
409.90 0.6803
410.00 0.6808
410.10 0.6812
410.20 0.6816
410.30 0.682
410.40 0.6825
410.50 0.6829
410.60 0.6833
410.70 0.6838
410.80 0.6842
410.90 0.6846
411.00 0.685
411.10 0.6855
411.20 0.6859
411.30 0.6863
411.40 0.6868
411.50 0.6872
411.60 0.6876
411.70 0.688
411.80 0.6885
411.90 0.6889
412.00 0.6893
412.10 0.6897
412.20 0.6902
412.30 0.6906
412.40 0.691
412.50 0.6914
412.60 0.6919
412.70 0.6923
412.80 0.6927
412.90 0.6931
413.00 0.6936
413.10 0.694
413.20 0.6944
413.30 0.6948
413.40 0.6953
413.50 0.6957
413.60 0.6961
413.70 0.6965
413.80 0.697
413.90 0.6974
414.00 0.6978
414.10 0.6982
414.20 0.6987
414.30 0.6991
414.40 0.6995
414.50 0.6999
414.60 0.7004
414.70 0.7008
414.80 0.7012
414.90 0.7016
415.00 0.702
415.10 0.7025
415.20 0.7029
415.30 0.7033
415.40 0.7037
415.50 0.7042
415.60 0.7046
415.70 0.705
415.80 0.7054
415.90 0.7059
416.00 0.7063
416.10 0.7067
416.20 0.7071
416.30 0.7075
416.40 0.708
416.50 0.7084
416.60 0.7088
416.70 0.7092
416.80 0.7096
416.90 0.7101
417.00 0.7105
417.10 0.7109
417.20 0.7113
417.30 0.7117
417.40 0.7122
417.50 0.7126
417.60 0.713
417.70 0.7134
417.80 0.7138
417.90 0.7143
418.00 0.7147
418.10 0.7151
418.20 0.7155
418.30 0.7159
418.40 0.7164
418.50 0.7168
418.60 0.7172
418.70 0.7176
418.80 0.718
418.90 0.7184
419.00 0.7189
419.10 0.7193
419.20 0.7197
419.30 0.7201
419.40 0.7205
419.50 0.7209
419.60 0.7214
419.70 0.7218
419.80 0.7222
419.90 0.7226
420.00 0.723
420.10 0.7234
420.20 0.7239
420.30 0.7243
420.40 0.7247
420.50 0.7251
420.60 0.7255
420.70 0.7259
420.80 0.7264
420.90 0.7268
421.00 0.7272
421.10 0.7276
421.20 0.728
421.30 0.7284
421.40 0.7288
421.50 0.7293
421.60 0.7297
421.70 0.7301
421.80 0.7305
421.90 0.7309
422.00 0.7313
422.10 0.7317
422.20 0.7322
422.30 0.7326
422.40 0.733
422.50 0.7334
422.60 0.7338
422.70 0.7342
422.80 0.7346
422.90 0.735
423.00 0.7355
423.10 0.7359
423.20 0.7363
423.30 0.7367
423.40 0.7371
423.50 0.7375
423.60 0.7379
423.70 0.7383
423.80 0.7387
423.90 0.7392
424.00 0.7396
424.10 0.74
424.20 0.7404
424.30 0.7408
424.40 0.7412
424.50 0.7416
424.60 0.742
424.70 0.7424
424.80 0.7429
424.90 0.7433
425.00 0.7437
425.10 0.7441
425.20 0.7445
425.30 0.7449
425.40 0.7453
425.50 0.7457
425.60 0.7461
425.70 0.7465
425.80 0.7469
425.90 0.7473
426.00 0.7478
426.10 0.7482
426.20 0.7486
426.30 0.749
426.40 0.7494
426.50 0.7498
426.60 0.7502
426.70 0.7506
426.80 0.751
426.90 0.7514
427.00 0.7518
427.10 0.7522
427.20 0.7526
427.30 0.753
427.40 0.7535
427.50 0.7539
427.60 0.7543
427.70 0.7547
427.80 0.7551
427.90 0.7555
428.00 0.7559
428.10 0.7563
428.20 0.7567
428.30 0.7571
428.40 0.7575
428.50 0.7579
428.60 0.7583
428.70 0.7587
428.80 0.7591
428.90 0.7595
429.00 0.7599
429.10 0.7603
429.20 0.7607
429.30 0.7611
429.40 0.7615
429.50 0.7619
429.60 0.7623
429.70 0.7627
429.80 0.7631
429.90 0.7635
430.00 0.7639
430.10 0.7643
430.20 0.7647
430.30 0.7651
430.40 0.7655
430.50 0.7659
430.60 0.7663
430.70 0.7667
430.80 0.7671
430.90 0.7675
431.00 0.768
431.10 0.7684
431.20 0.7688
431.30 0.7691
431.40 0.7695
431.50 0.77
431.60 0.7703
431.70 0.7707
431.80 0.7711
431.90 0.7715
432.00 0.7719
432.10 0.7723
432.20 0.7727
432.30 0.7731
432.40 0.7735
432.50 0.7739
432.60 0.7743
432.70 0.7747
432.80 0.7751
432.90 0.7755
433.00 0.7759
433.10 0.7763
433.20 0.7767
433.30 0.7771
433.40 0.7775
433.50 0.7779
433.60 0.7783
433.70 0.7787
433.80 0.7791
433.90 0.7795
434.00 0.7799
434.10 0.7803
434.20 0.7807
434.30 0.7811
434.40 0.7815
434.50 0.7819
434.60 0.7823
434.70 0.7826
434.80 0.783
434.90 0.7834
435.00 0.7838
435.10 0.7842
435.20 0.7846
435.30 0.785
435.40 0.7854
435.50 0.7858
435.60 0.7862
435.70 0.7866
435.80 0.787
435.90 0.7874
436.00 0.7877
436.10 0.7881
436.20 0.7885
436.30 0.7889
436.40 0.7893
436.50 0.7897
436.60 0.7901
436.70 0.7905
436.80 0.7909
436.90 0.7913
437.00 0.7917
437.10 0.7921
437.20 0.7924
437.30 0.7928
437.40 0.7932
437.50 0.7936
437.60 0.794
437.70 0.7944
437.80 0.7948
437.90 0.7952
438.00 0.7956
438.10 0.7959
438.20 0.7963
438.30 0.7967
438.40 0.7971
438.50 0.7975
438.60 0.7979
438.70 0.7983
438.80 0.7987
438.90 0.799
439.00 0.7994
439.10 0.7998
439.20 0.8002
439.30 0.8006
439.40 0.801
439.50 0.8014
439.60 0.8018
439.70 0.8021
439.80 0.8025
439.90 0.8029
440.00 0.8033
440.10 0.8037
440.20 0.8041
440.30 0.8045
440.40 0.8048
440.50 0.8052
440.60 0.8056
440.70 0.806
440.80 0.8064
440.90 0.8068
441.00 0.8072
441.10 0.8075
441.20 0.8079
441.30 0.8083
441.40 0.8087
441.50 0.8091
441.60 0.8094
441.70 0.8098
441.80 0.8102
441.90 0.8106
442.00 0.811
442.10 0.8114
442.20 0.8117
442.30 0.8121
442.40 0.8125
442.50 0.8129
442.60 0.8133
442.70 0.8136
442.80 0.814
442.90 0.8144
443.00 0.8148
443.10 0.8152
443.20 0.8155
443.30 0.8159
443.40 0.8163
443.50 0.8167
443.60 0.8171
443.70 0.8174
443.80 0.8178
443.90 0.8182
444.00 0.8186
444.10 0.819
444.20 0.8193
444.30 0.8197
444.40 0.8201
444.50 0.8205
444.60 0.8208
444.70 0.8212
444.80 0.8216
444.90 0.822
445.00 0.8224
445.10 0.8227
445.20 0.8231
445.30 0.8235
445.40 0.8239
445.50 0.8242
445.60 0.8246
445.70 0.825
445.80 0.8254
445.90 0.8257
446.00 0.8261
446.10 0.8265
446.20 0.8269
446.30 0.8272
446.40 0.8276
446.50 0.828
446.60 0.8283
446.70 0.8287
446.80 0.8291
446.90 0.8295
447.00 0.8299
447.10 0.8302
447.20 0.8306
447.30 0.831
447.40 0.8313
447.50 0.8317
447.60 0.8321
447.70 0.8325
447.80 0.8328
447.90 0.8332
448.00 0.8336
448.10 0.8339
448.20 0.8343
448.30 0.8347
448.40 0.8351
448.50 0.8354
448.60 0.8358
448.70 0.8362
448.80 0.8365
448.90 0.8369
449.00 0.8373
449.10 0.8376
449.20 0.838
449.30 0.8384
449.40 0.8387
449.50 0.8391
449.60 0.8395
449.70 0.8399
449.80 0.8402
449.90 0.8406
450.00 0.841
450.10 0.8413
450.20 0.8417
450.30 0.8421
450.40 0.8424
450.50 0.8428
450.60 0.8432
450.70 0.8435
450.80 0.8439
450.90 0.8443
451.00 0.8446
451.10 0.845
451.20 0.8454
451.30 0.8457
451.40 0.8461
451.50 0.8464
451.60 0.8468
451.70 0.8472
451.80 0.8475
451.90 0.8479
452.00 0.8483
452.10 0.8486
452.20 0.849
452.30 0.8494
452.40 0.8497
452.50 0.8501
452.60 0.8505
452.70 0.8508
452.80 0.8512
452.90 0.8515
453.00 0.8519
453.10 0.8523
453.20 0.8526
453.30 0.853
453.40 0.8534
453.50 0.8537
453.60 0.8541
453.70 0.8544
453.80 0.8548
453.90 0.8552
454.00 0.8555
454.10 0.8559
454.20 0.8562
454.30 0.8566
454.40 0.857
454.50 0.8573
454.60 0.8577
454.70 0.858
454.80 0.8584
454.90 0.8587
455.00 0.8591
455.10 0.8595
455.20 0.8598
455.30 0.8602
455.40 0.8605
455.50 0.8609
455.60 0.8612
455.70 0.8616
455.80 0.862
455.90 0.8623
456.00 0.8627
456.10 0.863
456.20 0.8634
456.30 0.8637
456.40 0.8641
456.50 0.8645
456.60 0.8648
456.70 0.8652
456.80 0.8655
456.90 0.8659
457.00 0.8662
457.10 0.8666
457.20 0.8669
457.30 0.8673
457.40 0.8676
457.50 0.868
457.60 0.8684
457.70 0.8687
457.80 0.8691
457.90 0.8694
458.00 0.8698
458.10 0.8701
458.20 0.8705
458.30 0.8708
458.40 0.8712
458.50 0.8715
458.60 0.8719
458.70 0.8722
458.80 0.8726
458.90 0.8729
459.00 0.8733
459.10 0.8736
459.20 0.874
459.30 0.8743
459.40 0.8747
459.50 0.875
459.60 0.8754
459.70 0.8757
459.80 0.8761
459.90 0.8764
460.00 0.8768
460.10 0.8771
460.20 0.8775
460.30 0.8778
460.40 0.8782
460.50 0.8785
460.60 0.8789
460.70 0.8792
460.80 0.8796
460.90 0.8799
461.00 0.8803
461.10 0.8806
461.20 0.8809
461.30 0.8813
461.40 0.8816
461.50 0.882
461.60 0.8823
461.70 0.8827
461.80 0.883
461.90 0.8834
462.00 0.8837
462.10 0.8841
462.20 0.8844
462.30 0.8847
462.40 0.8851
462.50 0.8854
462.60 0.8858
462.70 0.8861
462.80 0.8865
462.90 0.8868
463.00 0.8872
463.10 0.8875
463.20 0.8878
463.30 0.8882
463.40 0.8885
463.50 0.8889
463.60 0.8892
463.70 0.8895
463.80 0.8899
463.90 0.8902
464.00 0.8906
464.10 0.8909
464.20 0.8912
464.30 0.8916
464.40 0.8919
464.50 0.8923
464.60 0.8926
464.70 0.893
464.80 0.8933
464.90 0.8936
465.00 0.894
465.10 0.8943
465.20 0.8946
465.30 0.895
465.40 0.8953
465.50 0.8957
465.60 0.896
465.70 0.8963
465.80 0.8967
465.90 0.897
466.00 0.8973
466.10 0.8977
466.20 0.898
466.30 0.8984
466.40 0.8987
466.50 0.899
466.60 0.8994
466.70 0.8997
466.80 0.9
466.90 0.9004
467.00 0.9007
467.10 0.901
467.20 0.9014
467.30 0.9017
467.40 0.902
467.50 0.9024
467.60 0.9027
467.70 0.903
467.80 0.9034
467.90 0.9037
468.00 0.904
468.10 0.9044
468.20 0.9047
468.30 0.905
468.40 0.9054
468.50 0.9057
468.60 0.906
468.70 0.9064
468.80 0.9067
468.90 0.907
469.00 0.9074
469.10 0.9077
469.20 0.908
469.30 0.9083
469.40 0.9087
469.50 0.909
469.60 0.9093
469.70 0.9097
469.80 0.91
469.90 0.9103
470.00 0.9107
470.10 0.911
470.20 0.9113
470.30 0.9116
470.40 0.912
470.50 0.9123
470.60 0.9126
470.70 0.913
470.80 0.9133
470.90 0.9136
471.00 0.9139
471.10 0.9143
471.20 0.9146
471.30 0.9149
471.40 0.9152
471.50 0.9156
471.60 0.9159
471.70 0.9162
471.80 0.9165
471.90 0.9169
472.00 0.9172
472.10 0.9175
472.20 0.9178
472.30 0.9182
472.40 0.9185
472.50 0.9188
472.60 0.9191
472.70 0.9195
472.80 0.9198
472.90 0.9201
473.00 0.9204
473.10 0.9208
473.20 0.9211
473.30 0.9214
473.40 0.9217
473.50 0.922
473.60 0.9224
473.70 0.9227
473.80 0.923
473.90 0.9233
474.00 0.9237
474.10 0.924
474.20 0.9243
474.30 0.9246
474.40 0.9249
474.50 0.9253
474.60 0.9256
474.70 0.9259
474.80 0.9262
474.90 0.9265
475.00 0.9268
475.10 0.9272
475.20 0.9275
475.30 0.9278
475.40 0.9281
475.50 0.9284
475.60 0.9288
475.70 0.9291
475.80 0.9294
475.90 0.9297
476.00 0.93
476.10 0.9303
476.20 0.9307
476.30 0.931
476.40 0.9313
476.50 0.9316
476.60 0.9319
476.70 0.9322
476.80 0.9326
476.90 0.9329
477.00 0.9332
477.10 0.9335
477.20 0.9338
477.30 0.9341
477.40 0.9344
477.50 0.9348
477.60 0.9351
477.70 0.9354
477.80 0.9357
477.90 0.936
478.00 0.9363
478.10 0.9366
478.20 0.9369
478.30 0.9373
478.40 0.9376
478.50 0.9379
478.60 0.9382
478.70 0.9385
478.80 0.9388
478.90 0.9391
479.00 0.9394
479.10 0.9397
479.20 0.9401
479.30 0.9404
479.40 0.9407
479.50 0.941
479.60 0.9413
479.70 0.9416
479.80 0.9419
479.90 0.9422
480.00 0.9425
480.10 0.9428
480.20 0.9431
480.30 0.9435
480.40 0.9438
480.50 0.9441
480.60 0.9444
480.70 0.9447
480.80 0.945
480.90 0.9453
481.00 0.9456
481.10 0.9459
481.20 0.9462
481.30 0.9465
481.40 0.9468
481.50 0.9471
481.60 0.9474
481.70 0.9477
481.80 0.948
481.90 0.9484
482.00 0.9487
482.10 0.949
482.20 0.9493
482.30 0.9496
482.40 0.9499
482.50 0.9502
482.60 0.9505
482.70 0.9508
482.80 0.9511
482.90 0.9514
483.00 0.9517
483.10 0.952
483.20 0.9523
483.30 0.9526
483.40 0.9529
483.50 0.9532
483.60 0.9535
483.70 0.9538
483.80 0.9541
483.90 0.9544
484.00 0.9547
484.10 0.955
484.20 0.9553
484.30 0.9556
484.40 0.9559
484.50 0.9562
484.60 0.9565
484.70 0.9568
484.80 0.9571
484.90 0.9574
485.00 0.9577
485.10 0.958
485.20 0.9583
485.30 0.9586
485.40 0.9589
485.50 0.9592
485.60 0.9595
485.70 0.9598
485.80 0.9601
485.90 0.9604
486.00 0.9607
486.10 0.961
486.20 0.9612
486.30 0.9615
486.40 0.9618
486.50 0.9621
486.60 0.9624
486.70 0.9627
486.80 0.963
486.90 0.9633
487.00 0.9636
487.10 0.9639
487.20 0.9642
487.30 0.9645
487.40 0.9648
487.50 0.9651
487.60 0.9654
487.70 0.9657
487.80 0.966
487.90 0.9662
488.00 0.9665
488.10 0.9668
488.20 0.9671
488.30 0.9674
488.40 0.9677
488.50 0.968
488.60 0.9683
488.70 0.9686
488.80 0.9689
488.90 0.9692
489.00 0.9694
489.10 0.9697
489.20 0.97
489.30 0.9703
489.40 0.9706
489.50 0.9709
489.60 0.9712
489.70 0.9715
489.80 0.9718
489.90 0.972
490.00 0.9723
490.10 0.9726
490.20 0.9729
490.30 0.9732
490.40 0.9735
490.50 0.9738
490.60 0.974
490.70 0.9743
490.80 0.9746
490.90 0.9749
491.00 0.9752
491.10 0.9755
491.20 0.9758
491.30 0.976
491.40 0.9763
491.50 0.9766
491.60 0.9769
491.70 0.9772
491.80 0.9775
491.90 0.9778
492.00 0.978
492.10 0.9783
492.20 0.9786
492.30 0.9789
492.40 0.9792
492.50 0.9795
492.60 0.9797
492.70 0.98
492.80 0.9803
492.90 0.9806
493.00 0.9809
493.10 0.9811
493.20 0.9814
493.30 0.9817
493.40 0.982
493.50 0.9823
493.60 0.9825
493.70 0.9828
493.80 0.9831
493.90 0.9834
494.00 0.9837
494.10 0.9839
494.20 0.9842
494.30 0.9845
494.40 0.9848
494.50 0.9851
494.60 0.9853
494.70 0.9856
494.80 0.9859
494.90 0.9862
495.00 0.9864
495.10 0.9867
495.20 0.987
495.30 0.9873
495.40 0.9875
495.50 0.9878
495.60 0.9881
495.70 0.9884
495.80 0.9887
495.90 0.9889
496.00 0.9892
496.10 0.9895
496.20 0.9898
496.30 0.99
496.40 0.9903
496.50 0.9906
496.60 0.9908
496.70 0.9911
496.80 0.9914
496.90 0.9917
497.00 0.9919
497.10 0.9922
497.20 0.9925
497.30 0.9928
497.40 0.993
497.50 0.9933
497.60 0.9936
497.70 0.9938
497.80 0.9941
497.90 0.9944
498.00 0.9947
498.10 0.9949
498.20 0.9952
498.30 0.9955
498.40 0.9957
498.50 0.996
498.60 0.9963
498.70 0.9965
498.80 0.9968
498.90 0.9971
499.00 0.9974
499.10 0.9976
499.20 0.9979
499.30 0.9982
499.40 0.9984
499.50 0.9987
499.60 0.9989
499.70 0.9992
499.80 0.9995
499.90 0.9997
500.00 1
500.10 1
500.20 1.001
500.30 1.001
500.40 1.001
500.50 1.001
500.60 1.002
500.70 1.002
500.80 1.002
500.90 1.002
501.00 1.003
501.10 1.003
501.20 1.003
501.30 1.003
501.40 1.004
501.50 1.004
501.60 1.004
501.70 1.005
501.80 1.005
501.90 1.005
502.00 1.005
502.10 1.006
502.20 1.006
502.30 1.006
502.40 1.006
502.50 1.007
502.60 1.007
502.70 1.007
502.80 1.007
502.90 1.008
503.00 1.008
503.10 1.008
503.20 1.008
503.30 1.009
503.40 1.009
503.50 1.009
503.60 1.01
503.70 1.01
503.80 1.01
503.90 1.01
504.00 1.011
504.10 1.011
504.20 1.011
504.30 1.011
504.40 1.012
504.50 1.012
504.60 1.012
504.70 1.012
504.80 1.013
504.90 1.013
505.00 1.013
505.10 1.013
505.20 1.014
505.30 1.014
505.40 1.014
505.50 1.014
505.60 1.015
505.70 1.015
505.80 1.015
505.90 1.015
506.00 1.016
506.10 1.016
506.20 1.016
506.30 1.016
506.40 1.017
506.50 1.017
506.60 1.017
506.70 1.017
506.80 1.018
506.90 1.018
507.00 1.018
507.10 1.018
507.20 1.019
507.30 1.019
507.40 1.019
507.50 1.019
507.60 1.02
507.70 1.02
507.80 1.02
507.90 1.02
508.00 1.021
508.10 1.021
508.20 1.021
508.30 1.021
508.40 1.022
508.50 1.022
508.60 1.022
508.70 1.022
508.80 1.023
508.90 1.023
509.00 1.023
509.10 1.023
509.20 1.024
509.30 1.024
509.40 1.024
509.50 1.024
509.60 1.025
509.70 1.025
509.80 1.025
509.90 1.025
510.00 1.026
510.10 1.026
510.20 1.026
510.30 1.026
510.40 1.027
510.50 1.027
510.60 1.027
510.70 1.027
510.80 1.028
510.90 1.028
511.00 1.028
511.10 1.028
511.20 1.029
511.30 1.029
511.40 1.029
511.50 1.029
511.60 1.03
511.70 1.03
511.80 1.03
511.90 1.03
512.00 1.03
512.10 1.031
512.20 1.031
512.30 1.031
512.40 1.031
512.50 1.032
512.60 1.032
512.70 1.032
512.80 1.032
512.90 1.033
513.00 1.033
513.10 1.033
513.20 1.033
513.30 1.034
513.40 1.034
513.50 1.034
513.60 1.034
513.70 1.035
513.80 1.035
513.90 1.035
514.00 1.035
514.10 1.036
514.20 1.036
514.30 1.036
514.40 1.036
514.50 1.036
514.60 1.037
514.70 1.037
514.80 1.037
514.90 1.037
515.00 1.038
515.10 1.038
515.20 1.038
515.30 1.038
515.40 1.039
515.50 1.039
515.60 1.039
515.70 1.039
515.80 1.04
515.90 1.04
516.00 1.04
516.10 1.04
516.20 1.04
516.30 1.041
516.40 1.041
516.50 1.041
516.60 1.041
516.70 1.042
516.80 1.042
516.90 1.042
517.00 1.042
517.10 1.042
517.20 1.043
517.30 1.043
517.40 1.043
517.50 1.043
517.60 1.044
517.70 1.044
517.80 1.044
517.90 1.044
518.00 1.045
518.10 1.045
518.20 1.045
518.30 1.045
518.40 1.046
518.50 1.046
518.60 1.046
518.70 1.046
518.80 1.046
518.90 1.047
519.00 1.047
519.10 1.047
519.20 1.047
519.30 1.048
519.40 1.048
519.50 1.048
519.60 1.048
519.70 1.048
519.80 1.049
519.90 1.049
520.00 1.049
520.10 1.049
520.20 1.05
520.30 1.05
520.40 1.05
520.50 1.05
520.60 1.05
520.70 1.051
520.80 1.051
520.90 1.051
521.00 1.051
521.10 1.052
521.20 1.052
521.30 1.052
521.40 1.052
521.50 1.052
521.60 1.053
521.70 1.053
521.80 1.053
521.90 1.053
522.00 1.054
522.10 1.054
522.20 1.054
522.30 1.054
522.40 1.054
522.50 1.055
522.60 1.055
522.70 1.055
522.80 1.055
522.90 1.056
523.00 1.056
523.10 1.056
523.20 1.056
523.30 1.056
523.40 1.057
523.50 1.057
523.60 1.057
523.70 1.057
523.80 1.057
523.90 1.058
524.00 1.058
524.10 1.058
524.20 1.058
524.30 1.059
524.40 1.059
524.50 1.059
524.60 1.059
524.70 1.059
524.80 1.06
524.90 1.06
525.00 1.06
525.10 1.06
525.20 1.061
525.30 1.061
525.40 1.061
525.50 1.061
525.60 1.061
525.70 1.062
525.80 1.062
525.90 1.062
526.00 1.062
526.10 1.062
526.20 1.063
526.30 1.063
526.40 1.063
526.50 1.063
526.60 1.063
526.70 1.064
526.80 1.064
526.90 1.064
527.00 1.064
527.10 1.064
527.20 1.065
527.30 1.065
527.40 1.065
527.50 1.065
527.60 1.066
527.70 1.066
527.80 1.066
527.90 1.066
528.00 1.066
528.10 1.067
528.20 1.067
528.30 1.067
528.40 1.067
528.50 1.067
528.60 1.068
528.70 1.068
528.80 1.068
528.90 1.068
529.00 1.068
529.10 1.069
529.20 1.069
529.30 1.069
529.40 1.069
529.50 1.069
529.60 1.07
529.70 1.07
529.80 1.07
529.90 1.07
530.00 1.07
530.10 1.071
530.20 1.071
530.30 1.071
530.40 1.071
530.50 1.071
530.60 1.072
530.70 1.072
530.80 1.072
530.90 1.072
531.00 1.072
531.10 1.073
531.20 1.073
531.30 1.073
531.40 1.073
531.50 1.074
531.60 1.074
531.70 1.074
531.80 1.074
531.90 1.074
532.00 1.075
532.10 1.075
532.20 1.075
532.30 1.075
532.40 1.075
532.50 1.075
532.60 1.076
532.70 1.076
532.80 1.076
532.90 1.076
533.00 1.076
533.10 1.077
533.20 1.077
533.30 1.077
533.40 1.077
533.50 1.077
533.60 1.078
533.70 1.078
533.80 1.078
533.90 1.078
534.00 1.078
534.10 1.079
534.20 1.079
534.30 1.079
534.40 1.079
534.50 1.079
534.60 1.08
534.70 1.08
534.80 1.08
534.90 1.08
535.00 1.08
535.10 1.081
535.20 1.081
535.30 1.081
535.40 1.081
535.50 1.081
535.60 1.082
535.70 1.082
535.80 1.082
535.90 1.082
536.00 1.082
536.10 1.083
536.20 1.083
536.30 1.083
536.40 1.083
536.50 1.083
536.60 1.084
536.70 1.084
536.80 1.084
536.90 1.084
537.00 1.084
537.10 1.084
537.20 1.085
537.30 1.085
537.40 1.085
537.50 1.085
537.60 1.085
537.70 1.086
537.80 1.086
537.90 1.086
538.00 1.086
538.10 1.086
538.20 1.086
538.30 1.087
538.40 1.087
538.50 1.087
538.60 1.087
538.70 1.087
538.80 1.088
538.90 1.088
539.00 1.088
539.10 1.088
539.20 1.088
539.30 1.089
539.40 1.089
539.50 1.089
539.60 1.089
539.70 1.089
539.80 1.089
539.90 1.09
540.00 1.09
540.10 1.09
540.20 1.09
540.30 1.09
540.40 1.091
540.50 1.091
540.60 1.091
540.70 1.091
540.80 1.091
540.90 1.091
541.00 1.092
541.10 1.092
541.20 1.092
541.30 1.092
541.40 1.092
541.50 1.093
541.60 1.093
541.70 1.093
541.80 1.093
541.90 1.093
542.00 1.093
542.10 1.094
542.20 1.094
542.30 1.094
542.40 1.094
542.50 1.094
542.60 1.094
542.70 1.095
542.80 1.095
542.90 1.095
543.00 1.095
543.10 1.095
543.20 1.096
543.30 1.096
543.40 1.096
543.50 1.096
543.60 1.096
543.70 1.096
543.80 1.097
543.90 1.097
544.00 1.097
544.10 1.097
544.20 1.097
544.30 1.098
544.40 1.098
544.50 1.098
544.60 1.098
544.70 1.098
544.80 1.098
544.90 1.099
545.00 1.099
545.10 1.099
545.20 1.099
545.30 1.099
545.40 1.099
545.50 1.1
545.60 1.1
545.70 1.1
545.80 1.1
545.90 1.1
546.00 1.1
546.10 1.101
546.20 1.101
546.30 1.101
546.40 1.101
546.50 1.101
546.60 1.101
546.70 1.102
546.80 1.102
546.90 1.102
547.00 1.102
547.10 1.102
547.20 1.103
547.30 1.103
547.40 1.103
547.50 1.103
547.60 1.103
547.70 1.103
547.80 1.104
547.90 1.104
548.00 1.104
548.10 1.104
548.20 1.104
548.30 1.104
548.40 1.104
548.50 1.105
548.60 1.105
548.70 1.105
548.80 1.105
548.90 1.105
549.00 1.105
549.10 1.106
549.20 1.106
549.30 1.106
549.40 1.106
549.50 1.106
549.60 1.106
549.70 1.107
549.80 1.107
549.90 1.107
550.00 1.107
550.10 1.107
550.20 1.107
550.30 1.108
550.40 1.108
550.50 1.108
550.60 1.108
550.70 1.108
550.80 1.108
550.90 1.109
551.00 1.109
551.10 1.109
551.20 1.109
551.30 1.109
551.40 1.109
551.50 1.11
551.60 1.11
551.70 1.11
551.80 1.11
551.90 1.11
552.00 1.11
552.10 1.11
552.20 1.111
552.30 1.111
552.40 1.111
552.50 1.111
552.60 1.111
552.70 1.111
552.80 1.112
552.90 1.112
553.00 1.112
553.10 1.112
553.20 1.112
553.30 1.112
553.40 1.113
553.50 1.113
553.60 1.113
553.70 1.113
553.80 1.113
553.90 1.113
554.00 1.114
554.10 1.114
554.20 1.114
554.30 1.114
554.40 1.114
554.50 1.114
554.60 1.114
554.70 1.115
554.80 1.115
554.90 1.115
555.00 1.115
555.10 1.115
555.20 1.115
555.30 1.115
555.40 1.116
555.50 1.116
555.60 1.116
555.70 1.116
555.80 1.116
555.90 1.116
556.00 1.117
556.10 1.117
556.20 1.117
556.30 1.117
556.40 1.117
556.50 1.117
556.60 1.117
556.70 1.118
556.80 1.118
556.90 1.118
557.00 1.118
557.10 1.118
557.20 1.118
557.30 1.118
557.40 1.119
557.50 1.119
557.60 1.119
557.70 1.119
557.80 1.119
557.90 1.119
558.00 1.12
558.10 1.12
558.20 1.12
558.30 1.12
558.40 1.12
558.50 1.12
558.60 1.12
558.70 1.121
558.80 1.121
558.90 1.121
559.00 1.121
559.10 1.121
559.20 1.121
559.30 1.121
559.40 1.122
559.50 1.122
559.60 1.122
559.70 1.122
559.80 1.122
559.90 1.122
560.00 1.122
560.10 1.123
560.20 1.123
560.30 1.123
560.40 1.123
560.50 1.123
560.60 1.123
560.70 1.123
560.80 1.124
560.90 1.124
561.00 1.124
561.10 1.124
561.20 1.124
561.30 1.124
561.40 1.124
561.50 1.125
561.60 1.125
561.70 1.125
561.80 1.125
561.90 1.125
562.00 1.125
562.10 1.125
562.20 1.126
562.30 1.126
562.40 1.126
562.50 1.126
562.60 1.126
562.70 1.126
562.80 1.126
562.90 1.127
563.00 1.127
563.10 1.127
563.20 1.127
563.30 1.127
563.40 1.127
563.50 1.127
563.60 1.127
563.70 1.128
563.80 1.128
563.90 1.128
564.00 1.128
564.10 1.128
564.20 1.128
564.30 1.128
564.40 1.129
564.50 1.129
564.60 1.129
564.70 1.129
564.80 1.129
564.90 1.129
565.00 1.129
565.10 1.13
565.20 1.13
565.30 1.13
565.40 1.13
565.50 1.13
565.60 1.13
565.70 1.13
565.80 1.13
565.90 1.131
566.00 1.131
566.10 1.131
566.20 1.131
566.30 1.131
566.40 1.131
566.50 1.131
566.60 1.132
566.70 1.132
566.80 1.132
566.90 1.132
567.00 1.132
567.10 1.132
567.20 1.132
567.30 1.132
567.40 1.133
567.50 1.133
567.60 1.133
567.70 1.133
567.80 1.133
567.90 1.133
568.00 1.133
568.10 1.133
568.20 1.134
568.30 1.134
568.40 1.134
568.50 1.134
568.60 1.134
568.70 1.134
568.80 1.134
568.90 1.135
569.00 1.135
569.10 1.135
569.20 1.135
569.30 1.135
569.40 1.135
569.50 1.135
569.60 1.135
569.70 1.135
569.80 1.136
569.90 1.136
570.00 1.136
570.10 1.136
570.20 1.136
570.30 1.136
570.40 1.136
570.50 1.136
570.60 1.137
570.70 1.137
570.80 1.137
570.90 1.137
571.00 1.137
571.10 1.137
571.20 1.137
571.30 1.137
571.40 1.138
571.50 1.138
571.60 1.138
571.70 1.138
571.80 1.138
571.90 1.138
572.00 1.138
572.10 1.138
572.20 1.139
572.30 1.139
572.40 1.139
572.50 1.139
572.60 1.139
572.70 1.139
572.80 1.139
572.90 1.139
573.00 1.139
573.10 1.14
573.20 1.14
573.30 1.14
573.40 1.14
573.50 1.14
573.60 1.14
573.70 1.14
573.80 1.14
573.90 1.141
574.00 1.141
574.10 1.141
574.20 1.141
574.30 1.141
574.40 1.141
574.50 1.141
574.60 1.141
574.70 1.141
574.80 1.142
574.90 1.142
575.00 1.142
575.10 1.142
575.20 1.142
575.30 1.142
575.40 1.142
575.50 1.142
575.60 1.143
575.70 1.143
575.80 1.143
575.90 1.143
576.00 1.143
576.10 1.143
576.20 1.143
576.30 1.143
576.40 1.143
576.50 1.144
576.60 1.144
576.70 1.144
576.80 1.144
576.90 1.144
577.00 1.144
577.10 1.144
577.20 1.144
577.30 1.144
577.40 1.145
577.50 1.145
577.60 1.145
577.70 1.145
577.80 1.145
577.90 1.145
578.00 1.145
578.10 1.145
578.20 1.145
578.30 1.146
578.40 1.146
578.50 1.146
578.60 1.146
578.70 1.146
578.80 1.146
578.90 1.146
579.00 1.146
579.10 1.146
579.20 1.147
579.30 1.147
579.40 1.147
579.50 1.147
579.60 1.147
579.70 1.147
579.80 1.147
579.90 1.147
580.00 1.147
580.10 1.147
580.20 1.148
580.30 1.148
580.40 1.148
580.50 1.148
580.60 1.148
580.70 1.148
580.80 1.148
580.90 1.148
581.00 1.148
581.10 1.149
581.20 1.149
581.30 1.149
581.40 1.149
581.50 1.149
581.60 1.149
581.70 1.149
581.80 1.149
581.90 1.149
582.00 1.15
582.10 1.15
582.20 1.15
582.30 1.15
582.40 1.15
582.50 1.15
582.60 1.15
582.70 1.15
582.80 1.15
582.90 1.15
583.00 1.151
583.10 1.151
583.20 1.151
583.30 1.151
583.40 1.151
583.50 1.151
583.60 1.151
583.70 1.151
583.80 1.151
583.90 1.151
584.00 1.152
584.10 1.152
584.20 1.152
584.30 1.152
584.40 1.152
584.50 1.152
584.60 1.152
584.70 1.152
584.80 1.152
584.90 1.152
585.00 1.152
585.10 1.153
585.20 1.153
585.30 1.153
585.40 1.153
585.50 1.153
585.60 1.153
585.70 1.153
585.80 1.153
585.90 1.153
586.00 1.153
586.10 1.154
586.20 1.154
586.30 1.154
586.40 1.154
586.50 1.154
586.60 1.154
586.70 1.154
586.80 1.154
586.90 1.154
587.00 1.154
587.10 1.155
587.20 1.155
587.30 1.155
587.40 1.155
587.50 1.155
587.60 1.155
587.70 1.155
587.80 1.155
587.90 1.155
588.00 1.155
588.10 1.155
588.20 1.156
588.30 1.156
588.40 1.156
588.50 1.156
588.60 1.156
588.70 1.156
588.80 1.156
588.90 1.156
589.00 1.156
589.10 1.156
589.20 1.156
589.30 1.157
589.40 1.157
589.50 1.157
589.60 1.157
589.70 1.157
589.80 1.157
589.90 1.157
590.00 1.157
590.10 1.157
590.20 1.157
590.30 1.157
590.40 1.157
590.50 1.158
590.60 1.158
590.70 1.158
590.80 1.158
590.90 1.158
591.00 1.158
591.10 1.158
591.20 1.158
591.30 1.158
591.40 1.158
591.50 1.158
591.60 1.159
591.70 1.159
591.80 1.159
591.90 1.159
592.00 1.159
592.10 1.159
592.20 1.159
592.30 1.159
592.40 1.159
592.50 1.159
592.60 1.159
592.70 1.159
592.80 1.16
592.90 1.16
593.00 1.16
593.10 1.16
593.20 1.16
593.30 1.16
593.40 1.16
593.50 1.16
593.60 1.16
593.70 1.16
593.80 1.16
593.90 1.161
594.00 1.161
594.10 1.161
594.20 1.161
594.30 1.161
594.40 1.161
594.50 1.161
594.60 1.161
594.70 1.161
594.80 1.161
594.90 1.161
595.00 1.161
595.10 1.161
595.20 1.162
595.30 1.162
595.40 1.162
595.50 1.162
595.60 1.162
595.70 1.162
595.80 1.162
595.90 1.162
596.00 1.162
596.10 1.162
596.20 1.162
596.30 1.162
596.40 1.162
596.50 1.163
596.60 1.163
596.70 1.163
596.80 1.163
596.90 1.163
597.00 1.163
597.10 1.163
597.20 1.163
597.30 1.163
597.40 1.163
597.50 1.163
597.60 1.163
597.70 1.163
597.80 1.164
597.90 1.164
598.00 1.164
598.10 1.164
598.20 1.164
598.30 1.164
598.40 1.164
598.50 1.164
598.60 1.164
598.70 1.164
598.80 1.164
598.90 1.164
599.00 1.164
599.10 1.165
599.20 1.165
599.30 1.165
599.40 1.165
599.50 1.165
599.60 1.165
599.70 1.165
599.80 1.165
599.90 1.165
600.00 1.165
600.10 1.165
600.20 1.165
600.30 1.165
600.40 1.165
600.50 1.166
600.60 1.166
600.70 1.166
600.80 1.166
600.90 1.166
601.00 1.166
601.10 1.166
601.20 1.166
601.30 1.166
601.40 1.166
601.50 1.166
601.60 1.166
601.70 1.166
601.80 1.166
601.90 1.166
602.00 1.167
602.10 1.167
602.20 1.167
602.30 1.167
602.40 1.167
602.50 1.167
602.60 1.167
602.70 1.167
602.80 1.167
602.90 1.167
603.00 1.167
603.10 1.167
603.20 1.167
603.30 1.167
603.40 1.167
603.50 1.168
603.60 1.168
603.70 1.168
603.80 1.168
603.90 1.168
604.00 1.168
604.10 1.168
604.20 1.168
604.30 1.168
604.40 1.168
604.50 1.168
604.60 1.168
604.70 1.168
604.80 1.168
604.90 1.169
605.00 1.169
605.10 1.169
605.20 1.169
605.30 1.169
605.40 1.169
605.50 1.169
605.60 1.169
605.70 1.169
605.80 1.169
605.90 1.169
606.00 1.169
606.10 1.169
606.20 1.169
606.30 1.169
606.40 1.169
606.50 1.169
606.60 1.17
606.70 1.17
606.80 1.17
606.90 1.17
607.00 1.17
607.10 1.17
607.20 1.17
607.30 1.17
607.40 1.17
607.50 1.17
607.60 1.17
607.70 1.17
607.80 1.17
607.90 1.17
608.00 1.17
608.10 1.17
608.20 1.171
608.30 1.171
608.40 1.171
608.50 1.171
608.60 1.171
608.70 1.171
608.80 1.171
608.90 1.171
609.00 1.171
609.10 1.171
609.20 1.171
609.30 1.171
609.40 1.171
609.50 1.171
609.60 1.171
609.70 1.171
609.80 1.171
609.90 1.171
610.00 1.172
610.10 1.172
610.20 1.172
610.30 1.172
610.40 1.172
610.50 1.172
610.60 1.172
610.70 1.172
610.80 1.172
610.90 1.172
611.00 1.172
611.10 1.172
611.20 1.172
611.30 1.172
611.40 1.172
611.50 1.172
611.60 1.172
611.70 1.172
611.80 1.172
611.90 1.173
612.00 1.173
612.10 1.173
612.20 1.173
612.30 1.173
612.40 1.173
612.50 1.173
612.60 1.173
612.70 1.173
612.80 1.173
612.90 1.173
613.00 1.173
613.10 1.173
613.20 1.173
613.30 1.173
613.40 1.173
613.50 1.173
613.60 1.173
613.70 1.173
613.80 1.174
613.90 1.174
614.00 1.174
614.10 1.174
614.20 1.174
614.30 1.174
614.40 1.174
614.50 1.174
614.60 1.174
614.70 1.174
614.80 1.174
614.90 1.174
615.00 1.174
615.10 1.174
615.20 1.174
615.30 1.174
615.40 1.174
615.50 1.174
615.60 1.174
615.70 1.174
615.80 1.174
615.90 1.175
616.00 1.175
616.10 1.175
616.20 1.175
616.30 1.175
616.40 1.175
616.50 1.175
616.60 1.175
616.70 1.175
616.80 1.175
616.90 1.175
617.00 1.175
617.10 1.175
617.20 1.175
617.30 1.175
617.40 1.175
617.50 1.175
617.60 1.175
617.70 1.175
617.80 1.175
617.90 1.175
618.00 1.175
618.10 1.175
618.20 1.176
618.30 1.176
618.40 1.176
618.50 1.176
618.60 1.176
618.70 1.176
618.80 1.176
618.90 1.176
619.00 1.176
619.10 1.176
619.20 1.176
619.30 1.176
619.40 1.176
619.50 1.176
619.60 1.176
619.70 1.176
619.80 1.176
619.90 1.176
620.00 1.176
620.10 1.176
620.20 1.176
620.30 1.176
620.40 1.176
620.50 1.176
620.60 1.177
620.70 1.177
620.80 1.177
620.90 1.177
621.00 1.177
621.10 1.177
621.20 1.177
621.30 1.177
621.40 1.177
621.50 1.177
621.60 1.177
621.70 1.177
621.80 1.177
621.90 1.177
622.00 1.177
622.10 1.177
622.20 1.177
622.30 1.177
622.40 1.177
622.50 1.177
622.60 1.177
622.70 1.177
622.80 1.177
622.90 1.177
623.00 1.177
623.10 1.177
623.20 1.177
623.30 1.178
623.40 1.178
623.50 1.178
623.60 1.178
623.70 1.178
623.80 1.178
623.90 1.178
624.00 1.178
624.10 1.178
624.20 1.178
624.30 1.178
624.40 1.178
624.50 1.178
624.60 1.178
624.70 1.178
624.80 1.178
624.90 1.178
625.00 1.178
625.10 1.178
625.20 1.178
625.30 1.178
625.40 1.178
625.50 1.178
625.60 1.178
625.70 1.178
625.80 1.178
625.90 1.178
626.00 1.178
626.10 1.178
626.20 1.178
626.30 1.179
626.40 1.179
626.50 1.179
626.60 1.179
626.70 1.179
626.80 1.179
626.90 1.179
627.00 1.179
627.10 1.179
627.20 1.179
627.30 1.179
627.40 1.179
627.50 1.179
627.60 1.179
627.70 1.179
627.80 1.179
627.90 1.179
628.00 1.179
628.10 1.179
628.20 1.179
628.30 1.179
628.40 1.179
628.50 1.179
628.60 1.179
628.70 1.179
628.80 1.179
628.90 1.179
629.00 1.179
629.10 1.179
629.20 1.179
629.30 1.179
629.40 1.179
629.50 1.179
629.60 1.179
629.70 1.179
629.80 1.179
629.90 1.179
630.00 1.18
630.10 1.18
630.20 1.18
630.30 1.18
630.40 1.18
630.50 1.18
630.60 1.18
630.70 1.18
630.80 1.18
630.90 1.18
631.00 1.18
631.10 1.18
631.20 1.18
631.30 1.18
631.40 1.18
631.50 1.18
631.60 1.18
631.70 1.18
631.80 1.18
631.90 1.18
632.00 1.18
632.10 1.18
632.20 1.18
632.30 1.18
632.40 1.18
632.50 1.18
632.60 1.18
632.70 1.18
632.80 1.18
632.90 1.18
633.00 1.18
633.10 1.18
633.20 1.18
633.30 1.18
633.40 1.18
633.50 1.18
633.60 1.18
633.70 1.18
633.80 1.18
633.90 1.18
634.00 1.18
634.10 1.18
634.20 1.18
634.30 1.18
634.40 1.18
634.50 1.18
634.60 1.181
634.70 1.181
634.80 1.181
634.90 1.181
635.00 1.181
635.10 1.181
635.20 1.181
635.30 1.181
635.40 1.181
635.50 1.181
635.60 1.181
635.70 1.181
635.80 1.181
635.90 1.181
636.00 1.181
636.10 1.181
636.20 1.181
636.30 1.181
636.40 1.181
636.50 1.181
636.60 1.181
636.70 1.181
636.80 1.181
636.90 1.181
637.00 1.181
637.10 1.181
637.20 1.181
637.30 1.181
637.40 1.181
637.50 1.181
637.60 1.181
637.70 1.181
637.80 1.181
637.90 1.181
638.00 1.181
638.10 1.181
638.20 1.181
638.30 1.181
638.40 1.181
638.50 1.181
638.60 1.181
638.70 1.181
638.80 1.181
638.90 1.181
639.00 1.181
639.10 1.181
639.20 1.181
639.30 1.181
639.40 1.181
639.50 1.181
639.60 1.181
639.70 1.181
639.80 1.181
639.90 1.181
640.00 1.181
640.10 1.181
640.20 1.181
640.30 1.181
640.40 1.181
640.50 1.181
640.60 1.181
640.70 1.181
640.80 1.181
640.90 1.181
641.00 1.181
641.10 1.181
641.20 1.181
641.30 1.181
641.40 1.181
641.50 1.181
641.60 1.181
641.70 1.181
641.80 1.181
641.90 1.181
642.00 1.181
642.10 1.181
642.20 1.181
642.30 1.181
642.40 1.181
642.50 1.181
642.60 1.181
642.70 1.181
642.80 1.182
642.90 1.182
643.00 1.182
643.10 1.182
643.20 1.182
643.30 1.182
643.40 1.182
643.50 1.182
643.60 1.182
643.70 1.182
643.80 1.182
643.90 1.182
644.00 1.182
644.10 1.182
644.20 1.182
644.30 1.182
644.40 1.182
644.50 1.182
644.60 1.182
644.70 1.182
644.80 1.182
644.90 1.182
645.00 1.182
645.10 1.182
645.20 1.182
645.30 1.182
645.40 1.182
645.50 1.182
645.60 1.182
645.70 1.182
645.80 1.182
645.90 1.182
646.00 1.182
646.10 1.182
646.20 1.182
646.30 1.182
646.40 1.182
646.50 1.182
646.60 1.182
646.70 1.182
646.80 1.182
646.90 1.182
647.00 1.182
647.10 1.182
647.20 1.182
647.30 1.182
647.40 1.182
647.50 1.182
647.60 1.182
647.70 1.182
647.80 1.182
647.90 1.182
648.00 1.182
648.10 1.182
648.20 1.182
648.30 1.182
648.40 1.182
648.50 1.182
648.60 1.182
648.70 1.182
648.80 1.182
648.90 1.182
649.00 1.182
649.10 1.182
649.20 1.182
649.30 1.182
649.40 1.182
649.50 1.182
649.60 1.182
649.70 1.182
649.80 1.182
649.90 1.182
650.00 1.182
650.10 1.182
650.20 1.182
650.30 1.182
650.40 1.182
650.50 1.182
650.60 1.182
650.70 1.182
650.80 1.182
650.90 1.182
651.00 1.182
651.10 1.182
651.20 1.182
651.30 1.182
651.40 1.182
651.50 1.182
651.60 1.182
651.70 1.182
651.80 1.182
651.90 1.182
652.00 1.182
652.10 1.182
652.20 1.181
652.30 1.181
652.40 1.181
652.50 1.181
652.60 1.181
652.70 1.181
652.80 1.181
652.90 1.181
653.00 1.181
653.10 1.181
653.20 1.181
653.30 1.181
653.40 1.181
653.50 1.181
653.60 1.181
653.70 1.181
653.80 1.181
653.90 1.181
654.00 1.181
654.10 1.181
654.20 1.181
654.30 1.181
654.40 1.181
654.50 1.181
654.60 1.181
654.70 1.181
654.80 1.181
654.90 1.181
655.00 1.181
655.10 1.181
655.20 1.181
655.30 1.181
655.40 1.181
655.50 1.181
655.60 1.181
655.70 1.181
655.80 1.181
655.90 1.181
656.00 1.181
656.10 1.181
656.20 1.181
656.30 1.181
656.40 1.181
656.50 1.181
656.60 1.181
656.70 1.181
656.80 1.181
656.90 1.181
657.00 1.181
657.10 1.181
657.20 1.181
657.30 1.181
657.40 1.181
657.50 1.181
657.60 1.181
657.70 1.181
657.80 1.181
657.90 1.181
658.00 1.181
658.10 1.181
658.20 1.181
658.30 1.181
658.40 1.181
658.50 1.181
658.60 1.181
658.70 1.181
658.80 1.181
658.90 1.181
659.00 1.181
659.10 1.181
659.20 1.181
659.30 1.181
659.40 1.181
659.50 1.181
659.60 1.181
659.70 1.181
659.80 1.181
659.90 1.181
660.00 1.181
660.10 1.181
660.20 1.181
660.30 1.18
660.40 1.18
660.50 1.18
660.60 1.18
660.70 1.18
660.80 1.18
660.90 1.18
661.00 1.18
661.10 1.18
661.20 1.18
661.30 1.18
661.40 1.18
661.50 1.18
661.60 1.18
661.70 1.18
661.80 1.18
661.90 1.18
662.00 1.18
662.10 1.18
662.20 1.18
662.30 1.18
662.40 1.18
662.50 1.18
662.60 1.18
662.70 1.18
662.80 1.18
662.90 1.18
663.00 1.18
663.10 1.18
663.20 1.18
663.30 1.18
663.40 1.18
663.50 1.18
663.60 1.18
663.70 1.18
663.80 1.18
663.90 1.18
664.00 1.18
664.10 1.18
664.20 1.18
664.30 1.18
664.40 1.18
664.50 1.18
664.60 1.18
664.70 1.18
664.80 1.18
664.90 1.18
665.00 1.18
665.10 1.18
665.20 1.179
665.30 1.179
665.40 1.179
665.50 1.179
665.60 1.179
665.70 1.179
665.80 1.179
665.90 1.179
666.00 1.179
666.10 1.179
666.20 1.179
666.30 1.179
666.40 1.179
666.50 1.179
666.60 1.179
666.70 1.179
666.80 1.179
666.90 1.179
667.00 1.179
667.10 1.179
667.20 1.179
667.30 1.179
667.40 1.179
667.50 1.179
667.60 1.179
667.70 1.179
667.80 1.179
667.90 1.179
668.00 1.179
668.10 1.179
668.20 1.179
668.30 1.179
668.40 1.179
668.50 1.179
668.60 1.179
668.70 1.179
668.80 1.179
668.90 1.179
669.00 1.178
669.10 1.178
669.20 1.178
669.30 1.178
669.40 1.178
669.50 1.178
669.60 1.178
669.70 1.178
669.80 1.178
669.90 1.178
670.00 1.178
670.10 1.178
670.20 1.178
670.30 1.178
670.40 1.178
670.50 1.178
670.60 1.178
670.70 1.178
670.80 1.178
670.90 1.178
671.00 1.178
671.10 1.178
671.20 1.178
671.30 1.178
671.40 1.178
671.50 1.178
671.60 1.178
671.70 1.178
671.80 1.178
671.90 1.178
672.00 1.178
672.10 1.178
672.20 1.177
672.30 1.177
672.40 1.177
672.50 1.177
672.60 1.177
672.70 1.177
672.80 1.177
672.90 1.177
673.00 1.177
673.10 1.177
673.20 1.177
673.30 1.177
673.40 1.177
673.50 1.177
673.60 1.177
673.70 1.177
673.80 1.177
673.90 1.177
674.00 1.177
674.10 1.177
674.20 1.177
674.30 1.177
674.40 1.177
674.50 1.177
674.60 1.177
674.70 1.177
674.80 1.177
674.90 1.177
675.00 1.176
675.10 1.176
675.20 1.176
675.30 1.176
675.40 1.176
675.50 1.176
675.60 1.176
675.70 1.176
675.80 1.176
675.90 1.176
676.00 1.176
676.10 1.176
676.20 1.176
676.30 1.176
676.40 1.176
676.50 1.176
676.60 1.176
676.70 1.176
676.80 1.176
676.90 1.176
677.00 1.176
677.10 1.176
677.20 1.176
677.30 1.176
677.40 1.176
677.50 1.176
677.60 1.175
677.70 1.175
677.80 1.175
677.90 1.175
678.00 1.175
678.10 1.175
678.20 1.175
678.30 1.175
678.40 1.175
678.50 1.175
678.60 1.175
678.70 1.175
678.80 1.175
678.90 1.175
679.00 1.175
679.10 1.175
679.20 1.175
679.30 1.175
679.40 1.175
679.50 1.175
679.60 1.175
679.70 1.175
679.80 1.175
679.90 1.174
680.00 1.174
680.10 1.174
680.20 1.174
680.30 1.174
680.40 1.174
680.50 1.174
680.60 1.174
680.70 1.174
680.80 1.174
680.90 1.174
681.00 1.174
681.10 1.174
681.20 1.174
681.30 1.174
681.40 1.174
681.50 1.174
681.60 1.174
681.70 1.174
681.80 1.174
681.90 1.174
682.00 1.174
682.10 1.174
682.20 1.173
682.30 1.173
682.40 1.173
682.50 1.173
682.60 1.173
682.70 1.173
682.80 1.173
682.90 1.173
683.00 1.173
683.10 1.173
683.20 1.173
683.30 1.173
683.40 1.173
683.50 1.173
683.60 1.173
683.70 1.173
683.80 1.173
683.90 1.173
684.00 1.173
684.10 1.173
684.20 1.172
684.30 1.172
684.40 1.172
684.50 1.172
684.60 1.172
684.70 1.172
684.80 1.172
684.90 1.172
685.00 1.172
685.10 1.172
685.20 1.172
685.30 1.172
685.40 1.172
685.50 1.172
685.60 1.172
685.70 1.172
685.80 1.172
685.90 1.172
686.00 1.172
686.10 1.171
686.20 1.171
686.30 1.171
686.40 1.171
686.50 1.171
686.60 1.171
686.70 1.171
686.80 1.171
686.90 1.171
687.00 1.171
687.10 1.171
687.20 1.171
687.30 1.171
687.40 1.171
687.50 1.171
687.60 1.171
687.70 1.171
687.80 1.171
687.90 1.171
688.00 1.17
688.10 1.17
688.20 1.17
688.30 1.17
688.40 1.17
688.50 1.17
688.60 1.17
688.70 1.17
688.80 1.17
688.90 1.17
689.00 1.17
689.10 1.17
689.20 1.17
689.30 1.17
689.40 1.17
689.50 1.17
689.60 1.17
689.70 1.17
689.80 1.169
689.90 1.169
690.00 1.169
690.10 1.169
690.20 1.169
690.30 1.169
690.40 1.169
690.50 1.169
690.60 1.169
690.70 1.169
690.80 1.169
690.90 1.169
691.00 1.169
691.10 1.169
691.20 1.169
691.30 1.169
691.40 1.168
691.50 1.168
691.60 1.168
691.70 1.168
691.80 1.168
691.90 1.168
692.00 1.168
692.10 1.168
692.20 1.168
692.30 1.168
692.40 1.168
692.50 1.168
692.60 1.168
692.70 1.168
692.80 1.168
692.90 1.168
693.00 1.167
693.10 1.167
693.20 1.167
693.30 1.167
693.40 1.167
693.50 1.167
693.60 1.167
693.70 1.167
693.80 1.167
693.90 1.167
694.00 1.167
694.10 1.167
694.20 1.167
694.30 1.167
694.40 1.167
694.50 1.167
694.60 1.167
694.70 1.166
694.80 1.166
694.90 1.166
695.00 1.166
695.10 1.166
695.20 1.166
695.30 1.166
695.40 1.166
695.50 1.166
695.60 1.166
695.70 1.166
695.80 1.166
695.90 1.166
696.00 1.166
696.10 1.166
696.20 1.165
696.30 1.165
696.40 1.165
696.50 1.165
696.60 1.165
696.70 1.165
696.80 1.165
696.90 1.165
697.00 1.165
697.10 1.165
697.20 1.165
697.30 1.165
697.40 1.165
697.50 1.165
697.60 1.165
697.70 1.164
697.80 1.164
697.90 1.164
698.00 1.164
698.10 1.164
698.20 1.164
698.30 1.164
698.40 1.164
698.50 1.164
698.60 1.164
698.70 1.164
698.80 1.164
698.90 1.164
699.00 1.164
699.10 1.163
699.20 1.163
699.30 1.163
699.40 1.163
699.50 1.163
699.60 1.163
699.70 1.163
699.80 1.163
699.90 1.163
700.00 1.163
700.10 1.163
700.20 1.163
700.30 1.163
700.40 1.163
700.50 1.163
700.60 1.162
700.70 1.162
700.80 1.162
700.90 1.162
701.00 1.162
701.10 1.162
701.20 1.162
701.30 1.162
701.40 1.162
701.50 1.162
701.60 1.162
701.70 1.162
701.80 1.162
701.90 1.161
702.00 1.161
702.10 1.161
702.20 1.161
702.30 1.161
702.40 1.161
702.50 1.161
702.60 1.161
702.70 1.161
702.80 1.161
702.90 1.161
703.00 1.161
703.10 1.161
703.20 1.16
703.30 1.16
703.40 1.16
703.50 1.16
703.60 1.16
703.70 1.16
703.80 1.16
703.90 1.16
704.00 1.16
704.10 1.16
704.20 1.16
704.30 1.16
704.40 1.16
704.50 1.16
704.60 1.159
704.70 1.159
704.80 1.159
704.90 1.159
705.00 1.159
705.10 1.159
705.20 1.159
705.30 1.159
705.40 1.159
705.50 1.159
705.60 1.159
705.70 1.159
705.80 1.158
705.90 1.158
706.00 1.158
706.10 1.158
706.20 1.158
706.30 1.158
706.40 1.158
706.50 1.158
706.60 1.158
706.70 1.158
706.80 1.158
706.90 1.158
707.00 1.157
707.10 1.157
707.20 1.157
707.30 1.157
707.40 1.157
707.50 1.157
707.60 1.157
707.70 1.157
707.80 1.157
707.90 1.157
708.00 1.157
708.10 1.157
708.20 1.157
708.30 1.156
708.40 1.156
708.50 1.156
708.60 1.156
708.70 1.156
708.80 1.156
708.90 1.156
709.00 1.156
709.10 1.156
709.20 1.156
709.30 1.156
709.40 1.156
709.50 1.155
709.60 1.155
709.70 1.155
709.80 1.155
709.90 1.155
710.00 1.155
710.10 1.155
710.20 1.155
710.30 1.155
710.40 1.155
710.50 1.155
710.60 1.155
710.70 1.154
710.80 1.154
710.90 1.154
711.00 1.154
711.10 1.154
711.20 1.154
711.30 1.154
711.40 1.154
711.50 1.154
711.60 1.154
711.70 1.154
711.80 1.153
711.90 1.153
712.00 1.153
712.10 1.153
712.20 1.153
712.30 1.153
712.40 1.153
712.50 1.153
712.60 1.153
712.70 1.153
712.80 1.153
712.90 1.152
713.00 1.152
713.10 1.152
713.20 1.152
713.30 1.152
713.40 1.152
713.50 1.152
713.60 1.152
713.70 1.152
713.80 1.152
713.90 1.152
714.00 1.152
714.10 1.151
714.20 1.151
714.30 1.151
714.40 1.151
714.50 1.151
714.60 1.151
714.70 1.151
714.80 1.151
714.90 1.151
715.00 1.151
715.10 1.151
715.20 1.15
715.30 1.15
715.40 1.15
715.50 1.15
715.60 1.15
715.70 1.15
715.80 1.15
715.90 1.15
716.00 1.15
716.10 1.15
716.20 1.15
716.30 1.149
716.40 1.149
716.50 1.149
716.60 1.149
716.70 1.149
716.80 1.149
716.90 1.149
717.00 1.149
717.10 1.149
717.20 1.149
717.30 1.148
717.40 1.148
717.50 1.148
717.60 1.148
717.70 1.148
717.80 1.148
717.90 1.148
718.00 1.148
718.10 1.148
718.20 1.148
718.30 1.148
718.40 1.147
718.50 1.147
718.60 1.147
718.70 1.147
718.80 1.147
718.90 1.147
719.00 1.147
719.10 1.147
719.20 1.147
719.30 1.147
719.40 1.147
719.50 1.146
719.60 1.146
719.70 1.146
719.80 1.146
719.90 1.146
720.00 1.146
720.10 1.146
720.20 1.146
720.30 1.146
720.40 1.146
720.50 1.145
720.60 1.145
720.70 1.145
720.80 1.145
720.90 1.145
721.00 1.145
721.10 1.145
721.20 1.145
721.30 1.145
721.40 1.145
721.50 1.144
721.60 1.144
721.70 1.144
721.80 1.144
721.90 1.144
722.00 1.144
722.10 1.144
722.20 1.144
722.30 1.144
722.40 1.144
722.50 1.144
722.60 1.143
722.70 1.143
722.80 1.143
722.90 1.143
723.00 1.143
723.10 1.143
723.20 1.143
723.30 1.143
723.40 1.143
723.50 1.143
723.60 1.142
723.70 1.142
723.80 1.142
723.90 1.142
724.00 1.142
724.10 1.142
724.20 1.142
724.30 1.142
724.40 1.142
724.50 1.142
724.60 1.141
724.70 1.141
724.80 1.141
724.90 1.141
725.00 1.141
725.10 1.141
725.20 1.141
725.30 1.141
725.40 1.141
725.50 1.141
725.60 1.14
725.70 1.14
725.80 1.14
725.90 1.14
726.00 1.14
726.10 1.14
726.20 1.14
726.30 1.14
726.40 1.14
726.50 1.14
726.60 1.139
726.70 1.139
726.80 1.139
726.90 1.139
727.00 1.139
727.10 1.139
727.20 1.139
727.30 1.139
727.40 1.139
727.50 1.138
727.60 1.138
727.70 1.138
727.80 1.138
727.90 1.138
728.00 1.138
728.10 1.138
728.20 1.138
728.30 1.138
728.40 1.138
728.50 1.137
728.60 1.137
728.70 1.137
728.80 1.137
728.90 1.137
729.00 1.137
729.10 1.137
729.20 1.137
729.30 1.137
729.40 1.137
729.50 1.136
729.60 1.136
729.70 1.136
729.80 1.136
729.90 1.136
730.00 1.136
730.10 1.136
730.20 1.136
730.30 1.136
730.40 1.136
730.50 1.135
730.60 1.135
730.70 1.135
730.80 1.135
730.90 1.135
731.00 1.135
731.10 1.135
731.20 1.135
731.30 1.135
731.40 1.134
731.50 1.134
731.60 1.134
731.70 1.134
731.80 1.134
731.90 1.134
732.00 1.134
732.10 1.134
732.20 1.134
732.30 1.134
732.40 1.133
732.50 1.133
732.60 1.133
732.70 1.133
732.80 1.133
732.90 1.133
733.00 1.133
733.10 1.133
733.20 1.133
733.30 1.132
733.40 1.132
733.50 1.132
733.60 1.132
733.70 1.132
733.80 1.132
733.90 1.132
734.00 1.132
734.10 1.132
734.20 1.132
734.30 1.131
734.40 1.131
734.50 1.131
734.60 1.131
734.70 1.131
734.80 1.131
734.90 1.131
735.00 1.131
735.10 1.131
735.20 1.13
735.30 1.13
735.40 1.13
735.50 1.13
735.60 1.13
735.70 1.13
735.80 1.13
735.90 1.13
736.00 1.13
736.10 1.13
736.20 1.129
736.30 1.129
736.40 1.129
736.50 1.129
736.60 1.129
736.70 1.129
736.80 1.129
736.90 1.129
737.00 1.129
737.10 1.128
737.20 1.128
737.30 1.128
737.40 1.128
737.50 1.128
737.60 1.128
737.70 1.128
737.80 1.128
737.90 1.128
738.00 1.128
738.10 1.127
738.20 1.127
738.30 1.127
738.40 1.127
738.50 1.127
738.60 1.127
738.70 1.127
738.80 1.127
738.90 1.127
739.00 1.126
739.10 1.126
739.20 1.126
739.30 1.126
739.40 1.126
739.50 1.126
739.60 1.126
739.70 1.126
739.80 1.126
739.90 1.126
740.00 1.125
740.10 1.125
740.20 1.125
740.30 1.125
740.40 1.125
740.50 1.125
740.60 1.125
740.70 1.125
740.80 1.125
740.90 1.124
741.00 1.124
741.10 1.124
741.20 1.124
741.30 1.124
741.40 1.124
741.50 1.124
741.60 1.124
741.70 1.124
741.80 1.123
741.90 1.123
742.00 1.123
742.10 1.123
742.20 1.123
742.30 1.123
742.40 1.123
742.50 1.123
742.60 1.123
742.70 1.122
742.80 1.122
742.90 1.122
743.00 1.122
743.10 1.122
743.20 1.122
743.30 1.122
743.40 1.122
743.50 1.122
743.60 1.122
743.70 1.121
743.80 1.121
743.90 1.121
744.00 1.121
744.10 1.121
744.20 1.121
744.30 1.121
744.40 1.121
744.50 1.121
744.60 1.12
744.70 1.12
744.80 1.12
744.90 1.12
745.00 1.12
745.10 1.12
745.20 1.12
745.30 1.12
745.40 1.12
745.50 1.119
745.60 1.119
745.70 1.119
745.80 1.119
745.90 1.119
746.00 1.119
746.10 1.119
746.20 1.119
746.30 1.119
746.40 1.118
746.50 1.118
746.60 1.118
746.70 1.118
746.80 1.118
746.90 1.118
747.00 1.118
747.10 1.118
747.20 1.118
747.30 1.118
747.40 1.117
747.50 1.117
747.60 1.117
747.70 1.117
747.80 1.117
747.90 1.117
748.00 1.117
748.10 1.117
748.20 1.117
748.30 1.116
748.40 1.116
748.50 1.116
748.60 1.116
748.70 1.116
748.80 1.116
748.90 1.116
749.00 1.116
749.10 1.116
749.20 1.115
749.30 1.115
749.40 1.115
749.50 1.115
749.60 1.115
749.70 1.115
749.80 1.115
749.90 1.115
750.00 1.115
750.10 1.115
750.20 1.114
750.30 1.114
750.40 1.114
750.50 1.114
750.60 1.114
750.70 1.114
750.80 1.114
750.90 1.114
751.00 1.114
751.10 1.113
751.20 1.113
751.30 1.113
751.40 1.113
751.50 1.113
751.60 1.113
751.70 1.113
751.80 1.113
751.90 1.113
752.00 1.112
752.10 1.112
752.20 1.112
752.30 1.112
752.40 1.112
752.50 1.112
752.60 1.112
752.70 1.112
752.80 1.112
752.90 1.111
753.00 1.111
753.10 1.111
753.20 1.111
753.30 1.111
753.40 1.111
753.50 1.111
753.60 1.111
753.70 1.111
753.80 1.11
753.90 1.11
754.00 1.11
754.10 1.11
754.20 1.11
754.30 1.11
754.40 1.11
754.50 1.11
754.60 1.11
754.70 1.109
754.80 1.109
754.90 1.109
755.00 1.109
755.10 1.109
755.20 1.109
755.30 1.109
755.40 1.109
755.50 1.109
755.60 1.108
755.70 1.108
755.80 1.108
755.90 1.108
756.00 1.108
756.10 1.108
756.20 1.108
756.30 1.108
756.40 1.108
756.50 1.107
756.60 1.107
756.70 1.107
756.80 1.107
756.90 1.107
757.00 1.107
757.10 1.107
757.20 1.107
757.30 1.107
757.40 1.106
757.50 1.106
757.60 1.106
757.70 1.106
757.80 1.106
757.90 1.106
758.00 1.106
758.10 1.106
758.20 1.106
758.30 1.105
758.40 1.105
758.50 1.105
758.60 1.105
758.70 1.105
758.80 1.105
758.90 1.105
759.00 1.105
759.10 1.105
759.20 1.104
759.30 1.104
759.40 1.104
759.50 1.104
759.60 1.104
759.70 1.104
759.80 1.104
759.90 1.104
760.00 1.104
760.10 1.103
760.20 1.103
760.30 1.103
760.40 1.103
760.50 1.103
760.60 1.103
760.70 1.103
760.80 1.103
760.90 1.103
761.00 1.102
761.10 1.102
761.20 1.102
761.30 1.102
761.40 1.102
761.50 1.102
761.60 1.102
761.70 1.102
761.80 1.102
761.90 1.101
762.00 1.101
762.10 1.101
762.20 1.101
762.30 1.101
762.40 1.101
762.50 1.101
762.60 1.101
762.70 1.101
762.80 1.1
762.90 1.1
763.00 1.1
763.10 1.1
763.20 1.1
763.30 1.1
763.40 1.1
763.50 1.1
763.60 1.099
763.70 1.099
763.80 1.099
763.90 1.099
764.00 1.099
764.10 1.099
764.20 1.099
764.30 1.099
764.40 1.099
764.50 1.098
764.60 1.098
764.70 1.098
764.80 1.098
764.90 1.098
765.00 1.098
765.10 1.098
765.20 1.098
765.30 1.098
765.40 1.097
765.50 1.097
765.60 1.097
765.70 1.097
765.80 1.097
765.90 1.097
766.00 1.097
766.10 1.097
766.20 1.097
766.30 1.096
766.40 1.096
766.50 1.096
766.60 1.096
766.70 1.096
766.80 1.096
766.90 1.096
767.00 1.096
767.10 1.096
767.20 1.095
767.30 1.095
767.40 1.095
767.50 1.095
767.60 1.095
767.70 1.095
767.80 1.095
767.90 1.095
768.00 1.095
768.10 1.094
768.20 1.094
768.30 1.094
768.40 1.094
768.50 1.094
768.60 1.094
768.70 1.094
768.80 1.094
768.90 1.094
769.00 1.093
769.10 1.093
769.20 1.093
769.30 1.093
769.40 1.093
769.50 1.093
769.60 1.093
769.70 1.093
769.80 1.093
769.90 1.092
770.00 1.092
770.10 1.092
770.20 1.092
770.30 1.092
770.40 1.092
770.50 1.092
770.60 1.092
770.70 1.091
770.80 1.091
770.90 1.091
771.00 1.091
771.10 1.091
771.20 1.091
771.30 1.091
771.40 1.091
771.50 1.091
771.60 1.09
771.70 1.09
771.80 1.09
771.90 1.09
772.00 1.09
772.10 1.09
772.20 1.09
772.30 1.09
772.40 1.09
772.50 1.089
772.60 1.089
772.70 1.089
772.80 1.089
772.90 1.089
773.00 1.089
773.10 1.089
773.20 1.089
773.30 1.088
773.40 1.088
773.50 1.088
773.60 1.088
773.70 1.088
773.80 1.088
773.90 1.088
774.00 1.088
774.10 1.088
774.20 1.087
774.30 1.087
774.40 1.087
774.50 1.087
774.60 1.087
774.70 1.087
774.80 1.087
774.90 1.087
775.00 1.087
775.10 1.086
775.20 1.086
775.30 1.086
775.40 1.086
775.50 1.086
775.60 1.086
775.70 1.086
775.80 1.086
775.90 1.086
776.00 1.085
776.10 1.085
776.20 1.085
776.30 1.085
776.40 1.085
776.50 1.085
776.60 1.085
776.70 1.085
776.80 1.084
776.90 1.084
777.00 1.084
777.10 1.084
777.20 1.084
777.30 1.084
777.40 1.084
777.50 1.084
777.60 1.084
777.70 1.083
777.80 1.083
777.90 1.083
778.00 1.083
778.10 1.083
778.20 1.083
778.30 1.083
778.40 1.083
778.50 1.083
778.60 1.082
778.70 1.082
778.80 1.082
778.90 1.082
779.00 1.082
779.10 1.082
779.20 1.082
779.30 1.082
779.40 1.082
779.50 1.081
779.60 1.081
779.70 1.081
779.80 1.081
779.90 1.081
780.00 1.081
780.10 1.081
780.20 1.081
780.30 1.08
780.40 1.08
780.50 1.08
780.60 1.08
780.70 1.08
780.80 1.08
780.90 1.08
781.00 1.08
781.10 1.08
781.20 1.079
781.30 1.079
781.40 1.079
781.50 1.079
781.60 1.079
781.70 1.079
781.80 1.079
781.90 1.079
782.00 1.079
782.10 1.078
782.20 1.078
782.30 1.078
782.40 1.078
782.50 1.078
782.60 1.078
782.70 1.078
782.80 1.078
782.90 1.077
783.00 1.077
783.10 1.077
783.20 1.077
783.30 1.077
783.40 1.077
783.50 1.077
783.60 1.077
783.70 1.077
783.80 1.076
783.90 1.076
784.00 1.076
784.10 1.076
784.20 1.076
784.30 1.076
784.40 1.076
784.50 1.076
784.60 1.076
784.70 1.075
784.80 1.075
784.90 1.075
785.00 1.075
785.10 1.075
785.20 1.075
785.30 1.075
785.40 1.075
785.50 1.074
785.60 1.074
785.70 1.074
785.80 1.074
785.90 1.074
786.00 1.074
786.10 1.074
786.20 1.074
786.30 1.074
786.40 1.073
786.50 1.073
786.60 1.073
786.70 1.073
786.80 1.073
786.90 1.073
787.00 1.073
787.10 1.073
787.20 1.073
787.30 1.072
787.40 1.072
787.50 1.072
787.60 1.072
787.70 1.072
787.80 1.072
787.90 1.072
788.00 1.072
788.10 1.071
788.20 1.071
788.30 1.071
788.40 1.071
788.50 1.071
788.60 1.071
788.70 1.071
788.80 1.071
788.90 1.071
789.00 1.07
789.10 1.07
789.20 1.07
789.30 1.07
789.40 1.07
789.50 1.07
789.60 1.07
789.70 1.07
789.80 1.07
789.90 1.069
790.00 1.069
790.10 1.069
790.20 1.069
790.30 1.069
790.40 1.069
790.50 1.069
790.60 1.069
790.70 1.068
790.80 1.068
790.90 1.068
791.00 1.068
791.10 1.068
791.20 1.068
791.30 1.068
791.40 1.068
791.50 1.068
791.60 1.067
791.70 1.067
791.80 1.067
791.90 1.067
792.00 1.067
792.10 1.067
792.20 1.067
792.30 1.067
792.40 1.066
792.50 1.066
792.60 1.066
792.70 1.066
792.80 1.066
792.90 1.066
793.00 1.066
793.10 1.066
793.20 1.065
793.30 1.065
793.40 1.065
793.50 1.065
793.60 1.065
793.70 1.065
793.80 1.065
793.90 1.065
794.00 1.065
794.10 1.064
794.20 1.064
794.30 1.064
794.40 1.064
794.50 1.064
794.60 1.064
794.70 1.064
794.80 1.064
794.90 1.063
795.00 1.063
795.10 1.063
795.20 1.063
795.30 1.063
795.40 1.063
795.50 1.063
795.60 1.063
795.70 1.063
795.80 1.062
795.90 1.062
796.00 1.062
796.10 1.062
796.20 1.062
796.30 1.062
796.40 1.062
796.50 1.062
796.60 1.061
796.70 1.061
796.80 1.061
796.90 1.061
797.00 1.061
797.10 1.061
797.20 1.061
797.30 1.061
797.40 1.06
797.50 1.06
797.60 1.06
797.70 1.06
797.80 1.06
797.90 1.06
798.00 1.06
798.10 1.06
798.20 1.06
798.30 1.059
798.40 1.059
798.50 1.059
798.60 1.059
798.70 1.059
798.80 1.059
798.90 1.059
799.00 1.059
799.10 1.058
799.20 1.058
799.30 1.058
799.40 1.058
799.50 1.058
799.60 1.058
799.70 1.058
799.80 1.058
799.90 1.058
800.00 1.057
800.10 1.057
800.20 1.057
800.30 1.057
800.40 1.057
800.50 1.057
800.60 1.057
800.70 1.057
800.80 1.056
800.90 1.056
801.00 1.056
801.10 1.056
801.20 1.056
801.30 1.056
801.40 1.056
801.50 1.056
801.60 1.055
801.70 1.055
801.80 1.055
801.90 1.055
802.00 1.055
802.10 1.055
802.20 1.055
802.30 1.055
802.40 1.054
802.50 1.054
802.60 1.054
802.70 1.054
802.80 1.054
802.90 1.054
803.00 1.054
803.10 1.053
803.20 1.053
803.30 1.053
803.40 1.053
803.50 1.053
803.60 1.053
803.70 1.053
803.80 1.053
803.90 1.052
804.00 1.052
804.10 1.052
804.20 1.052
804.30 1.052
804.40 1.052
804.50 1.052
804.60 1.052
804.70 1.051
804.80 1.051
804.90 1.051
805.00 1.051
805.10 1.051
805.20 1.051
805.30 1.051
805.40 1.051
805.50 1.05
805.60 1.05
805.70 1.05
805.80 1.05
805.90 1.05
806.00 1.05
806.10 1.05
806.20 1.05
806.30 1.049
806.40 1.049
806.50 1.049
806.60 1.049
806.70 1.049
806.80 1.049
806.90 1.049
807.00 1.049
807.10 1.048
807.20 1.048
807.30 1.048
807.40 1.048
807.50 1.048
807.60 1.048
807.70 1.048
807.80 1.048
807.90 1.047
808.00 1.047
808.10 1.047
808.20 1.047
808.30 1.047
808.40 1.047
808.50 1.047
808.60 1.047
808.70 1.046
808.80 1.046
808.90 1.046
809.00 1.046
809.10 1.046
809.20 1.046
809.30 1.046
809.40 1.046
809.50 1.045
809.60 1.045
809.70 1.045
809.80 1.045
809.90 1.045
810.00 1.045
810.10 1.045
810.20 1.045
810.30 1.044
810.40 1.044
810.50 1.044
810.60 1.044
810.70 1.044
810.80 1.044
810.90 1.044
811.00 1.043
811.10 1.043
811.20 1.043
811.30 1.043
811.40 1.043
811.50 1.043
811.60 1.043
811.70 1.043
811.80 1.042
811.90 1.042
812.00 1.042
812.10 1.042
812.20 1.042
812.30 1.042
812.40 1.042
812.50 1.041
812.60 1.041
812.70 1.041
812.80 1.041
812.90 1.041
813.00 1.041
813.10 1.041
813.20 1.041
813.30 1.04
813.40 1.04
813.50 1.04
813.60 1.04
813.70 1.04
813.80 1.04
813.90 1.04
814.00 1.039
814.10 1.039
814.20 1.039
814.30 1.039
814.40 1.039
814.50 1.039
814.60 1.039
814.70 1.038
814.80 1.038
814.90 1.038
815.00 1.038
815.10 1.038
815.20 1.038
815.30 1.038
815.40 1.038
815.50 1.037
815.60 1.037
815.70 1.037
815.80 1.037
815.90 1.037
816.00 1.037
816.10 1.037
816.20 1.036
816.30 1.036
816.40 1.036
816.50 1.036
816.60 1.036
816.70 1.036
816.80 1.036
816.90 1.036
817.00 1.035
817.10 1.035
817.20 1.035
817.30 1.035
817.40 1.035
817.50 1.035
817.60 1.035
817.70 1.034
817.80 1.034
817.90 1.034
818.00 1.034
818.10 1.034
818.20 1.034
818.30 1.034
818.40 1.034
818.50 1.033
818.60 1.033
818.70 1.033
818.80 1.033
818.90 1.033
819.00 1.033
819.10 1.033
819.20 1.033
819.30 1.032
819.40 1.032
819.50 1.032
819.60 1.032
819.70 1.032
819.80 1.032
819.90 1.032
820.00 1.031
820.10 1.031
820.20 1.031
820.30 1.031
820.40 1.031
820.50 1.031
820.60 1.031
820.70 1.031
820.80 1.03
820.90 1.03
821.00 1.03
821.10 1.03
821.20 1.03
821.30 1.03
821.40 1.03
821.50 1.029
821.60 1.029
821.70 1.029
821.80 1.029
821.90 1.029
822.00 1.029
822.10 1.029
822.20 1.028
822.30 1.028
822.40 1.028
822.50 1.028
822.60 1.028
822.70 1.028
822.80 1.028
822.90 1.027
823.00 1.027
823.10 1.027
823.20 1.027
823.30 1.027
823.40 1.027
823.50 1.027
823.60 1.026
823.70 1.026
823.80 1.026
823.90 1.026
824.00 1.026
824.10 1.026
824.20 1.026
824.30 1.025
824.40 1.025
824.50 1.025
824.60 1.025
824.70 1.025
824.80 1.025
824.90 1.025
825.00 1.024
825.10 1.024
825.20 1.024
825.30 1.024
825.40 1.024
825.50 1.024
825.60 1.024
825.70 1.024
825.80 1.023
825.90 1.023
826.00 1.023
826.10 1.023
826.20 1.023
826.30 1.023
826.40 1.023
826.50 1.022
826.60 1.022
826.70 1.022
826.80 1.022
826.90 1.022
827.00 1.022
827.10 1.022
827.20 1.021
827.30 1.021
827.40 1.021
827.50 1.021
827.60 1.021
827.70 1.021
827.80 1.021
827.90 1.02
828.00 1.02
828.10 1.02
828.20 1.02
828.30 1.02
828.40 1.02
828.50 1.02
828.60 1.019
828.70 1.019
828.80 1.019
828.90 1.019
829.00 1.019
829.10 1.019
829.20 1.019
829.30 1.018
829.40 1.018
829.50 1.018
829.60 1.018
829.70 1.018
829.80 1.018
829.90 1.018
830.00 1.017
830.10 1.017
830.20 1.017
830.30 1.017
830.40 1.017
830.50 1.017
830.60 1.017
830.70 1.016
830.80 1.016
830.90 1.016
831.00 1.016
831.10 1.016
831.20 1.016
831.30 1.016
831.40 1.015
831.50 1.015
831.60 1.015
831.70 1.015
831.80 1.015
831.90 1.015
832.00 1.015
832.10 1.014
832.20 1.014
832.30 1.014
832.40 1.014
832.50 1.014
832.60 1.014
832.70 1.014
832.80 1.013
832.90 1.013
833.00 1.013
833.10 1.013
833.20 1.013
833.30 1.013
833.40 1.013
833.50 1.012
833.60 1.012
833.70 1.012
833.80 1.012
833.90 1.012
834.00 1.012
834.10 1.011
834.20 1.011
834.30 1.011
834.40 1.011
834.50 1.011
834.60 1.011
834.70 1.011
834.80 1.01
834.90 1.01
835.00 1.01
835.10 1.01
835.20 1.01
835.30 1.01
835.40 1.01
835.50 1.009
835.60 1.009
835.70 1.009
835.80 1.009
835.90 1.009
836.00 1.009
836.10 1.009
836.20 1.008
836.30 1.008
836.40 1.008
836.50 1.008
836.60 1.008
836.70 1.008
836.80 1.008
836.90 1.007
837.00 1.007
837.10 1.007
837.20 1.007
837.30 1.007
837.40 1.007
837.50 1.006
837.60 1.006
837.70 1.006
837.80 1.006
837.90 1.006
838.00 1.006
838.10 1.006
838.20 1.005
838.30 1.005
838.40 1.005
838.50 1.005
838.60 1.005
838.70 1.005
838.80 1.005
838.90 1.004
839.00 1.004
839.10 1.004
839.20 1.004
839.30 1.004
839.40 1.004
839.50 1.004
839.60 1.003
839.70 1.003
839.80 1.003
839.90 1.003
840.00 1.003
840.10 1.003
840.20 1.002
840.30 1.002
840.40 1.002
840.50 1.002
840.60 1.002
840.70 1.002
840.80 1.002
840.90 1.001
841.00 1.001
841.10 1.001
841.20 1.001
841.30 1.001
841.40 1.001
841.50 1.001
841.60 1
841.70 1
841.80 1
841.90 1
842.00 0.9998
842.10 0.9997
842.20 0.9995
842.30 0.9994
842.40 0.9992
842.50 0.9991
842.60 0.9989
842.70 0.9987
842.80 0.9986
842.90 0.9984
843.00 0.9983
843.10 0.9981
843.20 0.998
843.30 0.9978
843.40 0.9977
843.50 0.9975
843.60 0.9974
843.70 0.9972
843.80 0.9971
843.90 0.9969
844.00 0.9968
844.10 0.9966
844.20 0.9965
844.30 0.9963
844.40 0.9962
844.50 0.996
844.60 0.9959
844.70 0.9957
844.80 0.9955
844.90 0.9954
845.00 0.9952
845.10 0.9951
845.20 0.9949
845.30 0.9948
845.40 0.9946
845.50 0.9945
845.60 0.9943
845.70 0.9942
845.80 0.994
845.90 0.9939
846.00 0.9937
846.10 0.9936
846.20 0.9934
846.30 0.9933
846.40 0.9931
846.50 0.993
846.60 0.9928
846.70 0.9927
846.80 0.9925
846.90 0.9924
847.00 0.9922
847.10 0.9921
847.20 0.9919
847.30 0.9918
847.40 0.9916
847.50 0.9914
847.60 0.9913
847.70 0.9911
847.80 0.991
847.90 0.9908
848.00 0.9907
848.10 0.9905
848.20 0.9904
848.30 0.9902
848.40 0.9901
848.50 0.9899
848.60 0.9897
848.70 0.9896
848.80 0.9894
848.90 0.9893
849.00 0.9891
849.10 0.989
849.20 0.9888
849.30 0.9887
849.40 0.9885
849.50 0.9884
849.60 0.9882
849.70 0.988
849.80 0.9879
849.90 0.9877
850.00 0.9876
850.10 0.9874
850.20 0.9873
850.30 0.9871
850.40 0.987
850.50 0.9868
850.60 0.9867
850.70 0.9865
850.80 0.9864
850.90 0.9862
851.00 0.9861
851.10 0.9859
851.20 0.9857
851.30 0.9856
851.40 0.9854
851.50 0.9853
851.60 0.9851
851.70 0.985
851.80 0.9848
851.90 0.9847
852.00 0.9845
852.10 0.9844
852.20 0.9842
852.30 0.9841
852.40 0.9839
852.50 0.9837
852.60 0.9836
852.70 0.9834
852.80 0.9833
852.90 0.9831
853.00 0.983
853.10 0.9828
853.20 0.9826
853.30 0.9825
853.40 0.9823
853.50 0.9822
853.60 0.982
853.70 0.9819
853.80 0.9817
853.90 0.9815
854.00 0.9814
854.10 0.9812
854.20 0.9811
854.30 0.9809
854.40 0.9808
854.50 0.9806
854.60 0.9804
854.70 0.9803
854.80 0.9801
854.90 0.98
855.00 0.9798
855.10 0.9797
855.20 0.9795
855.30 0.9794
855.40 0.9792
855.50 0.979
855.60 0.9789
855.70 0.9787
855.80 0.9786
855.90 0.9784
856.00 0.9783
856.10 0.9781
856.20 0.978
856.30 0.9778
856.40 0.9776
856.50 0.9775
856.60 0.9773
856.70 0.9772
856.80 0.977
856.90 0.9769
857.00 0.9767
857.10 0.9765
857.20 0.9764
857.30 0.9762
857.40 0.9761
857.50 0.9759
857.60 0.9757
857.70 0.9756
857.80 0.9754
857.90 0.9753
858.00 0.9751
858.10 0.9749
858.20 0.9748
858.30 0.9746
858.40 0.9745
858.50 0.9743
858.60 0.9741
858.70 0.974
858.80 0.9738
858.90 0.9737
859.00 0.9735
859.10 0.9733
859.20 0.9732
859.30 0.973
859.40 0.9729
859.50 0.9727
859.60 0.9725
859.70 0.9724
859.80 0.9722
859.90 0.9721
860.00 0.9719
860.10 0.9718
860.20 0.9716
860.30 0.9714
860.40 0.9713
860.50 0.9711
860.60 0.971
860.70 0.9708
860.80 0.9706
860.90 0.9705
861.00 0.9703
861.10 0.9702
861.20 0.97
861.30 0.9698
861.40 0.9697
861.50 0.9695
861.60 0.9694
861.70 0.9692
861.80 0.9691
861.90 0.9689
862.00 0.9687
862.10 0.9686
862.20 0.9684
862.30 0.9682
862.40 0.9681
862.50 0.9679
862.60 0.9678
862.70 0.9676
862.80 0.9674
862.90 0.9673
863.00 0.9671
863.10 0.9669
863.20 0.9668
863.30 0.9666
863.40 0.9665
863.50 0.9663
863.60 0.9661
863.70 0.966
863.80 0.9658
863.90 0.9656
864.00 0.9655
864.10 0.9653
864.20 0.9652
864.30 0.965
864.40 0.9648
864.50 0.9647
864.60 0.9645
864.70 0.9643
864.80 0.9642
864.90 0.964
865.00 0.9639
865.10 0.9637
865.20 0.9635
865.30 0.9634
865.40 0.9632
865.50 0.963
865.60 0.9629
865.70 0.9627
865.80 0.9626
865.90 0.9624
866.00 0.9622
866.10 0.9621
866.20 0.9619
866.30 0.9618
866.40 0.9616
866.50 0.9614
866.60 0.9613
866.70 0.9611
866.80 0.9609
866.90 0.9608
867.00 0.9606
867.10 0.9605
867.20 0.9603
867.30 0.9601
867.40 0.96
867.50 0.9598
867.60 0.9596
867.70 0.9595
867.80 0.9593
867.90 0.9591
868.00 0.959
868.10 0.9588
868.20 0.9586
868.30 0.9585
868.40 0.9583
868.50 0.9581
868.60 0.958
868.70 0.9578
868.80 0.9576
868.90 0.9575
869.00 0.9573
869.10 0.9571
869.20 0.957
869.30 0.9568
869.40 0.9566
869.50 0.9565
869.60 0.9563
869.70 0.9562
869.80 0.956
869.90 0.9558
870.00 0.9557
870.10 0.9555
870.20 0.9553
870.30 0.9552
870.40 0.955
870.50 0.9548
870.60 0.9547
870.70 0.9545
870.80 0.9543
870.90 0.9542
871.00 0.954
871.10 0.9538
871.20 0.9537
871.30 0.9535
871.40 0.9534
871.50 0.9532
871.60 0.953
871.70 0.9529
871.80 0.9527
871.90 0.9525
872.00 0.9524
872.10 0.9522
872.20 0.952
872.30 0.9519
872.40 0.9517
872.50 0.9515
872.60 0.9514
872.70 0.9512
872.80 0.951
872.90 0.9508
873.00 0.9507
873.10 0.9505
873.20 0.9503
873.30 0.9502
873.40 0.95
873.50 0.9498
873.60 0.9497
873.70 0.9495
873.80 0.9493
873.90 0.9491
874.00 0.949
874.10 0.9488
874.20 0.9486
874.30 0.9485
874.40 0.9483
874.50 0.9481
874.60 0.948
874.70 0.9478
874.80 0.9476
874.90 0.9475
875.00 0.9473
875.10 0.9471
875.20 0.9469
875.30 0.9468
875.40 0.9466
875.50 0.9464
875.60 0.9463
875.70 0.9461
875.80 0.9459
875.90 0.9458
876.00 0.9456
876.10 0.9454
876.20 0.9453
876.30 0.9451
876.40 0.9449
876.50 0.9448
876.60 0.9446
876.70 0.9444
876.80 0.9443
876.90 0.9441
877.00 0.9439
877.10 0.9437
877.20 0.9436
877.30 0.9434
877.40 0.9432
877.50 0.943
877.60 0.9429
877.70 0.9427
877.80 0.9425
877.90 0.9424
878.00 0.9422
878.10 0.942
878.20 0.9418
878.30 0.9417
878.40 0.9415
878.50 0.9413
878.60 0.9411
878.70 0.941
878.80 0.9408
878.90 0.9406
879.00 0.9404
879.10 0.9403
879.20 0.9401
879.30 0.9399
879.40 0.9397
879.50 0.9396
879.60 0.9394
879.70 0.9392
879.80 0.9391
879.90 0.9389
880.00 0.9387
880.10 0.9385
880.20 0.9384
880.30 0.9382
880.40 0.938
880.50 0.9378
880.60 0.9377
880.70 0.9375
880.80 0.9373
880.90 0.9371
881.00 0.937
881.10 0.9368
881.20 0.9366
881.30 0.9365
881.40 0.9363
881.50 0.9361
881.60 0.9359
881.70 0.9358
881.80 0.9356
881.90 0.9354
882.00 0.9353
882.10 0.9351
882.20 0.9349
882.30 0.9347
882.40 0.9345
882.50 0.9344
882.60 0.9342
882.70 0.934
882.80 0.9338
882.90 0.9336
883.00 0.9335
883.10 0.9333
883.20 0.9331
883.30 0.9329
883.40 0.9327
883.50 0.9326
883.60 0.9324
883.70 0.9322
883.80 0.932
883.90 0.9319
884.00 0.9317
884.10 0.9315
884.20 0.9313
884.30 0.9311
884.40 0.931
884.50 0.9308
884.60 0.9306
884.70 0.9304
884.80 0.9302
884.90 0.9301
885.00 0.9299
885.10 0.9297
885.20 0.9295
885.30 0.9294
885.40 0.9292
885.50 0.929
885.60 0.9288
885.70 0.9286
885.80 0.9285
885.90 0.9283
886.00 0.9281
886.10 0.9279
886.20 0.9278
886.30 0.9276
886.40 0.9274
886.50 0.9272
886.60 0.927
886.70 0.9269
886.80 0.9267
886.90 0.9265
887.00 0.9263
887.10 0.9262
887.20 0.926
887.30 0.9258
887.40 0.9256
887.50 0.9254
887.60 0.9252
887.70 0.925
887.80 0.9249
887.90 0.9247
888.00 0.9245
888.10 0.9243
888.20 0.9241
888.30 0.9239
888.40 0.9237
888.50 0.9236
888.60 0.9234
888.70 0.9232
888.80 0.923
888.90 0.9228
889.00 0.9226
889.10 0.9224
889.20 0.9223
889.30 0.9221
889.40 0.9219
889.50 0.9217
889.60 0.9215
889.70 0.9213
889.80 0.9212
889.90 0.921
890.00 0.9208
890.10 0.9206
890.20 0.9204
890.30 0.9202
890.40 0.92
890.50 0.9199
890.60 0.9197
890.70 0.9195
890.80 0.9193
890.90 0.9191
891.00 0.9189
891.10 0.9188
891.20 0.9186
891.30 0.9184
891.40 0.9182
891.50 0.918
891.60 0.9178
891.70 0.9177
891.80 0.9175
891.90 0.9173
892.00 0.9171
892.10 0.9169
892.20 0.9168
892.30 0.9166
892.40 0.9164
892.50 0.9162
892.60 0.9161
892.70 0.9159
892.80 0.9157
892.90 0.9155
893.00 0.9154
893.10 0.9152
893.20 0.915
893.30 0.9149
893.40 0.9147
893.50 0.9145
893.60 0.9143
893.70 0.9142
893.80 0.914
893.90 0.9138
894.00 0.9137
894.10 0.9135
894.20 0.9133
894.30 0.9131
894.40 0.913
894.50 0.9128
894.60 0.9126
894.70 0.9124
894.80 0.9123
894.90 0.9121
895.00 0.9119
895.10 0.9118
895.20 0.9116
895.30 0.9114
895.40 0.9112
895.50 0.9111
895.60 0.9109
895.70 0.9107
895.80 0.9106
895.90 0.9104
896.00 0.9102
896.10 0.91
896.20 0.9099
896.30 0.9097
896.40 0.9095
896.50 0.9094
896.60 0.9092
896.70 0.909
896.80 0.9088
896.90 0.9087
897.00 0.9085
897.10 0.9083
897.20 0.9081
897.30 0.9079
897.40 0.9077
897.50 0.9075
897.60 0.9073
897.70 0.9071
897.80 0.9069
897.90 0.9067
898.00 0.9065
898.10 0.9063
898.20 0.9061
898.30 0.9059
898.40 0.9057
898.50 0.9055
898.60 0.9053
898.70 0.9051
898.80 0.9049
898.90 0.9047
899.00 0.9045
899.10 0.9043
899.20 0.9041
899.30 0.9039
899.40 0.9037
899.50 0.9035
899.60 0.9033
899.70 0.9031
899.80 0.9029
899.90 0.9027
900.00 0.9025
900.10 0.9023
900.20 0.9021
900.30 0.9019
900.40 0.9017
900.50 0.9015
900.60 0.9013
900.70 0.9011
900.80 0.9009
900.90 0.9007
901.00 0.9005
901.10 0.9003
901.20 0.9001
901.30 0.8999
901.40 0.8997
901.50 0.8995
901.60 0.8993
901.70 0.8991
901.80 0.8989
901.90 0.8987
902.00 0.8985
902.10 0.8983
902.20 0.898
902.30 0.8978
902.40 0.8975
902.50 0.8973
902.60 0.897
902.70 0.8968
902.80 0.8965
902.90 0.8963
903.00 0.896
903.10 0.8958
903.20 0.8955
903.30 0.8952
903.40 0.895
903.50 0.8947
903.60 0.8945
903.70 0.8942
903.80 0.894
903.90 0.8937
904.00 0.8935
904.10 0.8932
904.20 0.893
904.30 0.8927
904.40 0.8925
904.50 0.8922
904.60 0.892
904.70 0.8917
904.80 0.8915
904.90 0.8912
905.00 0.891
905.10 0.8907
905.20 0.8905
905.30 0.8902
905.40 0.89
905.50 0.8897
905.60 0.8895
905.70 0.8892
905.80 0.889
905.90 0.8887
906.00 0.8885
906.10 0.8882
906.20 0.888
906.30 0.8877
906.40 0.8875
906.50 0.8872
906.60 0.887
906.70 0.8867
906.80 0.8865
906.90 0.8862
907.00 0.886
907.10 0.8858
907.20 0.8856
907.30 0.8853
907.40 0.8851
907.50 0.8849
907.60 0.8847
907.70 0.8844
907.80 0.8842
907.90 0.884
908.00 0.8838
908.10 0.8835
908.20 0.8833
908.30 0.8831
908.40 0.8829
908.50 0.8826
908.60 0.8824
908.70 0.8822
908.80 0.882
908.90 0.8818
909.00 0.8815
909.10 0.8813
909.20 0.8811
909.30 0.8809
909.40 0.8806
909.50 0.8804
909.60 0.8802
909.70 0.88
909.80 0.8798
909.90 0.8795
910.00 0.8793
910.10 0.8791
910.20 0.8789
910.30 0.8786
910.40 0.8784
910.50 0.8782
910.60 0.878
910.70 0.8778
910.80 0.8775
910.90 0.8773
911.00 0.8771
911.10 0.8769
911.20 0.8766
911.30 0.8764
911.40 0.8762
911.50 0.876
911.60 0.8758
911.70 0.8755
911.80 0.8753
911.90 0.8751
912.00 0.8749
912.10 0.8747
912.20 0.8745
912.30 0.8743
912.40 0.8741
912.50 0.8739
912.60 0.8737
912.70 0.8735
912.80 0.8733
912.90 0.8731
913.00 0.8729
913.10 0.8727
913.20 0.8725
913.30 0.8723
913.40 0.8721
913.50 0.8719
913.60 0.8717
913.70 0.8715
913.80 0.8713
913.90 0.8711
914.00 0.8709
914.10 0.8707
914.20 0.8705
914.30 0.8703
914.40 0.8701
914.50 0.8699
914.60 0.8697
914.70 0.8695
914.80 0.8693
914.90 0.8691
915.00 0.8689
915.10 0.8687
915.20 0.8685
915.30 0.8683
915.40 0.8681
915.50 0.8679
915.60 0.8677
915.70 0.8675
915.80 0.8673
915.90 0.8671
916.00 0.8669
916.10 0.8667
916.20 0.8665
916.30 0.8663
916.40 0.8661
916.50 0.8659
916.60 0.8657
916.70 0.8655
916.80 0.8654
916.90 0.8652
917.00 0.865
917.10 0.8647
917.20 0.8645
917.30 0.8643
917.40 0.8641
917.50 0.8639
917.60 0.8636
917.70 0.8634
917.80 0.8632
917.90 0.863
918.00 0.8628
918.10 0.8626
918.20 0.8623
918.30 0.8621
918.40 0.8619
918.50 0.8617
918.60 0.8615
918.70 0.8612
918.80 0.861
918.90 0.8608
919.00 0.8606
919.10 0.8604
919.20 0.8602
919.30 0.8599
919.40 0.8597
919.50 0.8595
919.60 0.8593
919.70 0.8591
919.80 0.8588
919.90 0.8586
920.00 0.8584
920.10 0.8582
920.20 0.858
920.30 0.8578
920.40 0.8575
920.50 0.8573
920.60 0.8571
920.70 0.8569
920.80 0.8567
920.90 0.8565
921.00 0.8562
921.10 0.856
921.20 0.8558
921.30 0.8556
921.40 0.8554
921.50 0.8552
921.60 0.855
921.70 0.8547
921.80 0.8545
921.90 0.8543
922.00 0.8541
922.10 0.8539
922.20 0.8536
922.30 0.8534
922.40 0.8532
922.50 0.853
922.60 0.8527
922.70 0.8525
922.80 0.8523
922.90 0.8521
923.00 0.8519
923.10 0.8516
923.20 0.8514
923.30 0.8512
923.40 0.851
923.50 0.8507
923.60 0.8505
923.70 0.8503
923.80 0.8501
923.90 0.8499
924.00 0.8496
924.10 0.8494
924.20 0.8492
924.30 0.849
924.40 0.8487
924.50 0.8485
924.60 0.8483
924.70 0.8481
924.80 0.8479
924.90 0.8476
925.00 0.8474
925.10 0.8472
925.20 0.847
925.30 0.8467
925.40 0.8465
925.50 0.8463
925.60 0.8461
925.70 0.8459
925.80 0.8456
925.90 0.8454
926.00 0.8452
926.10 0.845
926.20 0.8448
926.30 0.8445
926.40 0.8443
926.50 0.8441
926.60 0.8439
926.70 0.8437
926.80 0.8434
926.90 0.8432
927.00 0.843
927.10 0.8428
927.20 0.8425
927.30 0.8423
927.40 0.8421
927.50 0.8419
927.60 0.8416
927.70 0.8414
927.80 0.8412
927.90 0.841
928.00 0.8407
928.10 0.8405
928.20 0.8403
928.30 0.8401
928.40 0.8398
928.50 0.8396
928.60 0.8394
928.70 0.8392
928.80 0.8389
928.90 0.8387
929.00 0.8385
929.10 0.8383
929.20 0.838
929.30 0.8378
929.40 0.8376
929.50 0.8374
929.60 0.8371
929.70 0.8369
929.80 0.8367
929.90 0.8365
930.00 0.8362
930.10 0.836
930.20 0.8358
930.30 0.8356
930.40 0.8353
930.50 0.8351
930.60 0.8349
930.70 0.8347
930.80 0.8344
930.90 0.8342
931.00 0.834
931.10 0.8338
931.20 0.8335
931.30 0.8333
931.40 0.8331
931.50 0.8329
931.60 0.8327
931.70 0.8324
931.80 0.8322
931.90 0.832
932.00 0.8318
932.10 0.8315
932.20 0.8313
932.30 0.8311
932.40 0.8308
932.50 0.8306
932.60 0.8304
932.70 0.8301
932.80 0.8299
932.90 0.8297
933.00 0.8295
933.10 0.8292
933.20 0.829
933.30 0.8288
933.40 0.8285
933.50 0.8283
933.60 0.8281
933.70 0.8279
933.80 0.8276
933.90 0.8274
934.00 0.8272
934.10 0.8269
934.20 0.8267
934.30 0.8265
934.40 0.8262
934.50 0.826
934.60 0.8258
934.70 0.8255
934.80 0.8253
934.90 0.8251
935.00 0.8249
935.10 0.8246
935.20 0.8244
935.30 0.8242
935.40 0.8239
935.50 0.8237
935.60 0.8235
935.70 0.8232
935.80 0.823
935.90 0.8228
936.00 0.8225
936.10 0.8223
936.20 0.8221
936.30 0.8218
936.40 0.8216
936.50 0.8214
936.60 0.8212
936.70 0.8209
936.80 0.8207
936.90 0.8205
937.00 0.8202
937.10 0.82
937.20 0.8198
937.30 0.8195
937.40 0.8193
937.50 0.8191
937.60 0.8188
937.70 0.8186
937.80 0.8184
937.90 0.8181
938.00 0.8179
938.10 0.8177
938.20 0.8174
938.30 0.8172
938.40 0.817
938.50 0.8167
938.60 0.8165
938.70 0.8163
938.80 0.816
938.90 0.8158
939.00 0.8155
939.10 0.8153
939.20 0.8151
939.30 0.8148
939.40 0.8146
939.50 0.8144
939.60 0.8141
939.70 0.8139
939.80 0.8136
939.90 0.8134
940.00 0.8132
940.10 0.8129
940.20 0.8127
940.30 0.8125
940.40 0.8122
940.50 0.812
940.60 0.8118
940.70 0.8115
940.80 0.8113
940.90 0.811
941.00 0.8108
941.10 0.8106
941.20 0.8103
941.30 0.8101
941.40 0.8098
941.50 0.8096
941.60 0.8094
941.70 0.8091
941.80 0.8089
941.90 0.8087
942.00 0.8084
942.10 0.8082
942.20 0.808
942.30 0.8077
942.40 0.8075
942.50 0.8072
942.60 0.807
942.70 0.8068
942.80 0.8065
942.90 0.8063
943.00 0.806
943.10 0.8058
943.20 0.8056
943.30 0.8053
943.40 0.8051
943.50 0.8048
943.60 0.8046
943.70 0.8044
943.80 0.8041
943.90 0.8039
944.00 0.8037
944.10 0.8034
944.20 0.8032
944.30 0.8029
944.40 0.8027
944.50 0.8025
944.60 0.8022
944.70 0.802
944.80 0.8017
944.90 0.8015
945.00 0.8013
945.10 0.801
945.20 0.8008
945.30 0.8005
945.40 0.8003
945.50 0.8001
945.60 0.7998
945.70 0.7996
945.80 0.7993
945.90 0.7991
946.00 0.7989
946.10 0.7986
946.20 0.7984
946.30 0.7981
946.40 0.7979
946.50 0.7977
946.60 0.7974
946.70 0.7972
946.80 0.7969
946.90 0.7967
947.00 0.7965
947.10 0.7962
947.20 0.796
947.30 0.7957
947.40 0.7955
947.50 0.7952
947.60 0.795
947.70 0.7948
947.80 0.7945
947.90 0.7943
948.00 0.794
948.10 0.7938
948.20 0.7935
948.30 0.7933
948.40 0.793
948.50 0.7928
948.60 0.7926
948.70 0.7923
948.80 0.7921
948.90 0.7918
949.00 0.7916
949.10 0.7913
949.20 0.7911
949.30 0.7909
949.40 0.7906
949.50 0.7904
949.60 0.7901
949.70 0.7899
949.80 0.7896
949.90 0.7894
950.00 0.7891
950.10 0.7889
950.20 0.7887
950.30 0.7884
950.40 0.7882
950.50 0.7879
950.60 0.7877
950.70 0.7875
950.80 0.7872
950.90 0.787
951.00 0.7867
951.10 0.7865
951.20 0.7862
951.30 0.786
951.40 0.7858
951.50 0.7855
951.60 0.7853
951.70 0.785
951.80 0.7848
951.90 0.7845
952.00 0.7843
952.10 0.784
952.20 0.7838
952.30 0.7835
952.40 0.7833
952.50 0.7831
952.60 0.7828
952.70 0.7826
952.80 0.7823
952.90 0.7821
953.00 0.7818
953.10 0.7816
953.20 0.7813
953.30 0.7811
953.40 0.7809
953.50 0.7806
953.60 0.7804
953.70 0.7801
953.80 0.7799
953.90 0.7796
954.00 0.7794
954.10 0.7791
954.20 0.7789
954.30 0.7786
954.40 0.7784
954.50 0.7781
954.60 0.7779
954.70 0.7776
954.80 0.7774
954.90 0.7772
955.00 0.7769
955.10 0.7767
955.20 0.7764
955.30 0.7762
955.40 0.7759
955.50 0.7757
955.60 0.7754
955.70 0.7752
955.80 0.775
955.90 0.7747
956.00 0.7745
956.10 0.7742
956.20 0.774
956.30 0.7737
956.40 0.7735
956.50 0.7732
956.60 0.773
956.70 0.7727
956.80 0.7725
956.90 0.7722
957.00 0.772
957.10 0.7717
957.20 0.7715
957.30 0.7712
957.40 0.771
957.50 0.7707
957.60 0.7705
957.70 0.7702
957.80 0.77
957.90 0.7697
958.00 0.7695
958.10 0.7692
958.20 0.769
958.30 0.7687
958.40 0.7685
958.50 0.7682
958.60 0.768
958.70 0.7678
958.80 0.7675
958.90 0.7673
959.00 0.767
959.10 0.7668
959.20 0.7665
959.30 0.7663
959.40 0.766
959.50 0.7658
959.60 0.7655
959.70 0.7653
959.80 0.765
959.90 0.7648
960.00 0.7645
960.10 0.7643
960.20 0.764
960.30 0.7638
960.40 0.7636
960.50 0.7633
960.60 0.7631
960.70 0.7628
960.80 0.7626
960.90 0.7623
961.00 0.7621
961.10 0.7618
961.20 0.7616
961.30 0.7613
961.40 0.7611
961.50 0.7608
961.60 0.7606
961.70 0.7603
961.80 0.7601
961.90 0.7598
962.00 0.7596
962.10 0.7593
962.20 0.7591
962.30 0.7588
962.40 0.7586
962.50 0.7583
962.60 0.7581
962.70 0.7578
962.80 0.7576
962.90 0.7573
963.00 0.7571
963.10 0.7569
963.20 0.7566
963.30 0.7564
963.40 0.7561
963.50 0.7559
963.60 0.7556
963.70 0.7554
963.80 0.7551
963.90 0.7549
964.00 0.7546
964.10 0.7544
964.20 0.7541
964.30 0.7539
964.40 0.7536
964.50 0.7534
964.60 0.7531
964.70 0.7529
964.80 0.7526
964.90 0.7524
965.00 0.7521
965.10 0.7519
965.20 0.7516
965.30 0.7514
965.40 0.7511
965.50 0.7509
965.60 0.7506
965.70 0.7504
965.80 0.7501
965.90 0.7499
966.00 0.7496
966.10 0.7494
966.20 0.7491
966.30 0.7489
966.40 0.7486
966.50 0.7484
966.60 0.7481
966.70 0.7479
966.80 0.7476
966.90 0.7474
967.00 0.7471
967.10 0.7469
967.20 0.7466
967.30 0.7464
967.40 0.7461
967.50 0.7459
967.60 0.7457
967.70 0.7454
967.80 0.7452
967.90 0.7449
968.00 0.7447
968.10 0.7444
968.20 0.7442
968.30 0.7439
968.40 0.7437
968.50 0.7434
968.60 0.7432
968.70 0.7429
968.80 0.7427
968.90 0.7424
969.00 0.7422
969.10 0.7419
969.20 0.7417
969.30 0.7414
969.40 0.7412
969.50 0.7409
969.60 0.7407
969.70 0.7405
969.80 0.7402
969.90 0.74
970.00 0.7397
970.10 0.7395
970.20 0.7392
970.30 0.739
970.40 0.7387
970.50 0.7385
970.60 0.7382
970.70 0.738
970.80 0.7377
970.90 0.7375
971.00 0.7372
971.10 0.737
971.20 0.7367
971.30 0.7365
971.40 0.7362
971.50 0.736
971.60 0.7357
971.70 0.7355
971.80 0.7353
971.90 0.735
972.00 0.7348
972.10 0.7345
972.20 0.7343
972.30 0.734
972.40 0.7338
972.50 0.7335
972.60 0.7333
972.70 0.733
972.80 0.7328
972.90 0.7325
973.00 0.7323
973.10 0.732
973.20 0.7318
973.30 0.7315
973.40 0.7313
973.50 0.7311
973.60 0.7308
973.70 0.7306
973.80 0.7303
973.90 0.7301
974.00 0.7298
974.10 0.7296
974.20 0.7293
974.30 0.7291
974.40 0.7288
974.50 0.7286
974.60 0.7283
974.70 0.7281
974.80 0.7278
974.90 0.7276
975.00 0.7274
975.10 0.7271
975.20 0.7269
975.30 0.7266
975.40 0.7264
975.50 0.7261
975.60 0.7259
975.70 0.7256
975.80 0.7254
975.90 0.7251
976.00 0.7249
976.10 0.7246
976.20 0.7244
976.30 0.7242
976.40 0.7239
976.50 0.7237
976.60 0.7234
976.70 0.7232
976.80 0.7229
976.90 0.7227
977.00 0.7224
977.10 0.7222
977.20 0.722
977.30 0.7217
977.40 0.7215
977.50 0.7212
977.60 0.721
977.70 0.7207
977.80 0.7205
977.90 0.7202
978.00 0.72
978.10 0.7197
978.20 0.7195
978.30 0.7193
978.40 0.719
978.50 0.7188
978.60 0.7185
978.70 0.7183
978.80 0.718
978.90 0.7178
979.00 0.7175
979.10 0.7173
979.20 0.7171
979.30 0.7168
979.40 0.7166
979.50 0.7163
979.60 0.7161
979.70 0.7158
979.80 0.7156
979.90 0.7153
980.00 0.7151
980.10 0.7149
980.20 0.7146
980.30 0.7144
980.40 0.7141
980.50 0.7139
980.60 0.7136
980.70 0.7134
980.80 0.7132
980.90 0.7129
981.00 0.7127
981.10 0.7124
981.20 0.7122
981.30 0.7119
981.40 0.7117
981.50 0.7115
981.60 0.7112
981.70 0.711
981.80 0.7107
981.90 0.7105
982.00 0.7103
982.10 0.71
982.20 0.7098
982.30 0.7095
982.40 0.7093
982.50 0.709
982.60 0.7088
982.70 0.7086
982.80 0.7083
982.90 0.7081
983.00 0.7078
983.10 0.7076
983.20 0.7074
983.30 0.7071
983.40 0.7069
983.50 0.7066
983.60 0.7064
983.70 0.7061
983.80 0.7059
983.90 0.7057
984.00 0.7054
984.10 0.7052
984.20 0.7049
984.30 0.7047
984.40 0.7045
984.50 0.7042
984.60 0.704
984.70 0.7037
984.80 0.7035
984.90 0.7033
985.00 0.703
985.10 0.7028
985.20 0.7025
985.30 0.7023
985.40 0.7021
985.50 0.7018
985.60 0.7016
985.70 0.7014
985.80 0.7011
985.90 0.7009
986.00 0.7006
986.10 0.7004
986.20 0.7002
986.30 0.6999
986.40 0.6997
986.50 0.6994
986.60 0.6992
986.70 0.699
986.80 0.6987
986.90 0.6985
987.00 0.6983
987.10 0.698
987.20 0.6978
987.30 0.6975
987.40 0.6973
987.50 0.6971
987.60 0.6968
987.70 0.6966
987.80 0.6963
987.90 0.6961
988.00 0.6959
988.10 0.6956
988.20 0.6954
988.30 0.6952
988.40 0.6949
988.50 0.6947
988.60 0.6945
988.70 0.6942
988.80 0.694
988.90 0.6937
989.00 0.6935
989.10 0.6933
989.20 0.693
989.30 0.6928
989.40 0.6926
989.50 0.6923
989.60 0.6921
989.70 0.6919
989.80 0.6916
989.90 0.6914
990.00 0.6911
990.10 0.6909
990.20 0.6907
990.30 0.6904
990.40 0.6902
990.50 0.69
990.60 0.6897
990.70 0.6895
990.80 0.6893
990.90 0.689
991.00 0.6888
991.10 0.6886
991.20 0.6883
991.30 0.6881
991.40 0.6878
991.50 0.6876
991.60 0.6874
991.70 0.6871
991.80 0.6869
991.90 0.6867
992.00 0.6864
992.10 0.6862
992.20 0.686
992.30 0.6857
992.40 0.6855
992.50 0.6853
992.60 0.685
992.70 0.6848
992.80 0.6846
992.90 0.6843
993.00 0.6841
993.10 0.6839
993.20 0.6836
993.30 0.6834
993.40 0.6831
993.50 0.6829
993.60 0.6827
993.70 0.6824
993.80 0.6822
993.90 0.682
994.00 0.6817
994.10 0.6815
994.20 0.6813
994.30 0.681
994.40 0.6808
994.50 0.6806
994.60 0.6803
994.70 0.6801
994.80 0.6799
994.90 0.6796
995.00 0.6794
995.10 0.6791
995.20 0.6789
995.30 0.6787
995.40 0.6784
995.50 0.6782
995.60 0.6779
995.70 0.6777
995.80 0.6775
995.90 0.6772
996.00 0.677
996.10 0.6768
996.20 0.6765
996.30 0.6763
996.40 0.6761
996.50 0.6758
996.60 0.6756
996.70 0.6754
996.80 0.6752
996.90 0.6749
997.00 0.6747
997.10 0.6745
997.20 0.6742
997.30 0.674
997.40 0.6738
997.50 0.6735
997.60 0.6733
997.70 0.6731
997.80 0.6728
997.90 0.6726
998.00 0.6724
998.10 0.6722
998.20 0.6719
998.30 0.6717
998.40 0.6715
998.50 0.6712
998.60 0.671
998.70 0.6708
998.80 0.6706
998.90 0.6703
999.00 0.6701
999.10 0.6699
999.20 0.6696
999.30 0.6694
999.40 0.6692
999.50 0.669
999.60 0.6687
999.70 0.6685
999.80 0.6683
999.90 0.6681
1000.00 0.6678
1000.10 0.6676
1000.20 0.6674
1000.30 0.6672
1000.40 0.6669
1000.50 0.6667
1000.60 0.6665
1000.70 0.6663
1000.80 0.666
1000.90 0.6658
1001.00 0.6656
1001.10 0.6654
1001.20 0.6651
1001.30 0.6649
1001.40 0.6647
1001.50 0.6645
1001.60 0.6642
1001.70 0.664
1001.80 0.6638
1001.90 0.6636
1002.00 0.6633
1002.10 0.6631
1002.20 0.6629
1002.30 0.6627
1002.40 0.6625
1002.50 0.6622
1002.60 0.662
1002.70 0.6618
1002.80 0.6616
1002.90 0.6613
1003.00 0.6611
1003.10 0.6609
1003.20 0.6607
1003.30 0.6605
1003.40 0.6602
1003.50 0.66
1003.60 0.6598
1003.70 0.6596
1003.80 0.6593
1003.90 0.6591
1004.00 0.6589
1004.10 0.6587
1004.20 0.6585
1004.30 0.6583
1004.40 0.658
1004.50 0.6578
1004.60 0.6576
1004.70 0.6574
1004.80 0.6572
1004.90 0.6569
1005.00 0.6567
1005.10 0.6565
1005.20 0.6563
1005.30 0.6561
1005.40 0.6558
1005.50 0.6556
1005.60 0.6554
1005.70 0.6552
1005.80 0.655
1005.90 0.6548
1006.00 0.6545
1006.10 0.6543
1006.20 0.6541
1006.30 0.6539
1006.40 0.6537
1006.50 0.6535
1006.60 0.6532
1006.70 0.653
1006.80 0.6528
1006.90 0.6526
1007.00 0.6524
1007.10 0.6522
1007.20 0.6519
1007.30 0.6517
1007.40 0.6515
1007.50 0.6513
1007.60 0.6511
1007.70 0.6509
1007.80 0.6507
1007.90 0.6504
1008.00 0.6502
1008.10 0.65
1008.20 0.6498
1008.30 0.6496
1008.40 0.6494
1008.50 0.6492
1008.60 0.649
1008.70 0.6487
1008.80 0.6485
1008.90 0.6483
1009.00 0.6481
1009.10 0.6479
1009.20 0.6477
1009.30 0.6475
1009.40 0.6473
1009.50 0.647
1009.60 0.6468
1009.70 0.6466
1009.80 0.6464
1009.90 0.6462
1010.00 0.646
1010.10 0.6458
1010.20 0.6456
1010.30 0.6454
1010.40 0.6452
1010.50 0.6449
1010.60 0.6447
1010.70 0.6445
1010.80 0.6443
1010.90 0.6441
1011.00 0.6439
1011.10 0.6437
1011.20 0.6435
1011.30 0.6433
1011.40 0.6431
1011.50 0.6428
1011.60 0.6426
1011.70 0.6424
1011.80 0.6422
1011.90 0.642
1012.00 0.6418
1012.10 0.6416
1012.20 0.6414
1012.30 0.6412
1012.40 0.641
1012.50 0.6408
1012.60 0.6406
1012.70 0.6404
1012.80 0.6402
1012.90 0.6399
1013.00 0.6397
1013.10 0.6395
1013.20 0.6393
1013.30 0.6391
1013.40 0.6389
1013.50 0.6387
1013.60 0.6385
1013.70 0.6383
1013.80 0.6381
1013.90 0.6379
1014.00 0.6377
1014.10 0.6375
1014.20 0.6373
1014.30 0.6371
1014.40 0.6369
1014.50 0.6367
1014.60 0.6365
1014.70 0.6363
1014.80 0.6361
1014.90 0.6359
1015.00 0.6357
1015.10 0.6355
1015.20 0.6353
1015.30 0.6351
1015.40 0.6349
1015.50 0.6347
1015.60 0.6345
1015.70 0.6343
1015.80 0.6341
1015.90 0.6339
1016.00 0.6337
1016.10 0.6335
1016.20 0.6333
1016.30 0.6331
1016.40 0.6329
1016.50 0.6327
1016.60 0.6325
1016.70 0.6323
1016.80 0.6321
1016.90 0.6319
1017.00 0.6317
1017.10 0.6315
1017.20 0.6313
1017.30 0.6311
1017.40 0.6309
1017.50 0.6307
1017.60 0.6305
1017.70 0.6303
1017.80 0.6301
1017.90 0.6299
1018.00 0.6297
1018.10 0.6295
1018.20 0.6293
1018.30 0.6291
1018.40 0.6289
1018.50 0.6287
1018.60 0.6285
1018.70 0.6283
1018.80 0.6281
1018.90 0.6279
1019.00 0.6277
1019.10 0.6275
1019.20 0.6273
1019.30 0.6271
1019.40 0.6269
1019.50 0.6267
1019.60 0.6265
1019.70 0.6263
1019.80 0.6261
1019.90 0.6259
1020.00 0.6258
1020.10 0.6256
1020.20 0.6254
1020.30 0.6252
1020.40 0.625
1020.50 0.6248
1020.60 0.6246
1020.70 0.6244
1020.80 0.6242
1020.90 0.624
1021.00 0.6238
1021.10 0.6236
1021.20 0.6234
1021.30 0.6232
1021.40 0.623
1021.50 0.6228
1021.60 0.6226
1021.70 0.6224
1021.80 0.6223
1021.90 0.6221
1022.00 0.6219
1022.10 0.6217
1022.20 0.6215
1022.30 0.6213
1022.40 0.6211
1022.50 0.6209
1022.60 0.6207
1022.70 0.6205
1022.80 0.6203
1022.90 0.6201
1023.00 0.62
1023.10 0.6198
1023.20 0.6196
1023.30 0.6194
1023.40 0.6192
1023.50 0.619
1023.60 0.6188
1023.70 0.6186
1023.80 0.6184
1023.90 0.6182
1024.00 0.6181
1024.10 0.6179
1024.20 0.6177
1024.30 0.6175
1024.40 0.6173
1024.50 0.6171
1024.60 0.6169
1024.70 0.6167
1024.80 0.6165
1024.90 0.6163
1025.00 0.6162
1025.10 0.616
1025.20 0.6158
1025.30 0.6156
1025.40 0.6154
1025.50 0.6152
1025.60 0.615
1025.70 0.6148
1025.80 0.6146
1025.90 0.6145
1026.00 0.6143
1026.10 0.6141
1026.20 0.6139
1026.30 0.6137
1026.40 0.6135
1026.50 0.6133
1026.60 0.6131
1026.70 0.6129
1026.80 0.6128
1026.90 0.6126
1027.00 0.6124
1027.10 0.6122
1027.20 0.612
1027.30 0.6118
1027.40 0.6116
1027.50 0.6115
1027.60 0.6113
1027.70 0.6111
1027.80 0.6109
1027.90 0.6107
1028.00 0.6106
1028.10 0.6104
1028.20 0.6102
1028.30 0.61
1028.40 0.6098
1028.50 0.6096
1028.60 0.6095
1028.70 0.6093
1028.80 0.6091
1028.90 0.6089
1029.00 0.6087
1029.10 0.6086
1029.20 0.6084
1029.30 0.6082
1029.40 0.608
1029.50 0.6078
1029.60 0.6076
1029.70 0.6075
1029.80 0.6073
1029.90 0.6071
1030.00 0.6069
1030.10 0.6067
1030.20 0.6066
1030.30 0.6064
1030.40 0.6062
1030.50 0.606
1030.60 0.6058
1030.70 0.6057
1030.80 0.6055
1030.90 0.6053
1031.00 0.6051
1031.10 0.6049
1031.20 0.6048
1031.30 0.6046
1031.40 0.6044
1031.50 0.6042
1031.60 0.604
1031.70 0.6039
1031.80 0.6037
1031.90 0.6035
1032.00 0.6033
1032.10 0.6031
1032.20 0.603
1032.30 0.6028
1032.40 0.6026
1032.50 0.6024
1032.60 0.6023
1032.70 0.6021
1032.80 0.6019
1032.90 0.6017
1033.00 0.6016
1033.10 0.6014
1033.20 0.6012
1033.30 0.6011
1033.40 0.6009
1033.50 0.6007
1033.60 0.6005
1033.70 0.6004
1033.80 0.6002
1033.90 0.6
1034.00 0.5998
1034.10 0.5997
1034.20 0.5995
1034.30 0.5993
1034.40 0.5991
1034.50 0.599
1034.60 0.5988
1034.70 0.5986
1034.80 0.5984
1034.90 0.5983
1035.00 0.5981
1035.10 0.5979
1035.20 0.5977
1035.30 0.5976
1035.40 0.5974
1035.50 0.5972
1035.60 0.5971
1035.70 0.5969
1035.80 0.5967
1035.90 0.5965
1036.00 0.5964
1036.10 0.5962
1036.20 0.596
1036.30 0.5958
1036.40 0.5957
1036.50 0.5955
1036.60 0.5953
1036.70 0.5952
1036.80 0.595
1036.90 0.5948
1037.00 0.5946
1037.10 0.5945
1037.20 0.5943
1037.30 0.5941
1037.40 0.594
1037.50 0.5938
1037.60 0.5936
1037.70 0.5935
1037.80 0.5933
1037.90 0.5931
1038.00 0.593
1038.10 0.5928
1038.20 0.5926
1038.30 0.5925
1038.40 0.5923
1038.50 0.5921
1038.60 0.592
1038.70 0.5918
1038.80 0.5917
1038.90 0.5915
1039.00 0.5913
1039.10 0.5912
1039.20 0.591
1039.30 0.5908
1039.40 0.5907
1039.50 0.5905
1039.60 0.5903
1039.70 0.5902
1039.80 0.59
1039.90 0.5898
1040.00 0.5897
1040.10 0.5895
1040.20 0.5893
1040.30 0.5892
1040.40 0.589
1040.50 0.5888
1040.60 0.5887
1040.70 0.5885
1040.80 0.5883
1040.90 0.5882
1041.00 0.588
1041.10 0.5879
1041.20 0.5877
1041.30 0.5875
1041.40 0.5874
1041.50 0.5872
1041.60 0.587
1041.70 0.5869
1041.80 0.5867
1041.90 0.5865
1042.00 0.5864
1042.10 0.5862
1042.20 0.5861
1042.30 0.5859
1042.40 0.5857
1042.50 0.5856
1042.60 0.5854
1042.70 0.5853
1042.80 0.5851
1042.90 0.5849
1043.00 0.5848
1043.10 0.5846
1043.20 0.5845
1043.30 0.5843
1043.40 0.5842
1043.50 0.584
1043.60 0.5838
1043.70 0.5837
1043.80 0.5835
1043.90 0.5834
1044.00 0.5832
1044.10 0.5831
1044.20 0.5829
1044.30 0.5827
1044.40 0.5826
1044.50 0.5824
1044.60 0.5823
1044.70 0.5821
1044.80 0.582
1044.90 0.5818
1045.00 0.5816
1045.10 0.5815
1045.20 0.5813
1045.30 0.5812
1045.40 0.581
1045.50 0.5809
1045.60 0.5807
1045.70 0.5805
1045.80 0.5804
1045.90 0.5802
1046.00 0.5801
1046.10 0.5799
1046.20 0.5798
1046.30 0.5796
1046.40 0.5794
1046.50 0.5793
1046.60 0.5791
1046.70 0.579
1046.80 0.5788
1046.90 0.5787
1047.00 0.5785
1047.10 0.5784
1047.20 0.5782
1047.30 0.5781
1047.40 0.5779
1047.50 0.5778
1047.60 0.5776
1047.70 0.5775
1047.80 0.5773
1047.90 0.5772
1048.00 0.577
1048.10 0.5769
1048.20 0.5767
1048.30 0.5766
1048.40 0.5764
1048.50 0.5763
1048.60 0.5761
1048.70 0.576
1048.80 0.5758
1048.90 0.5757
1049.00 0.5755
1049.10 0.5754
1049.20 0.5752
1049.30 0.5751
1049.40 0.5749
1049.50 0.5748
1049.60 0.5746
1049.70 0.5745
1049.80 0.5743
1049.90 0.5742
1050.00 0.574
1050.10 0.5739
1050.20 0.5737
1050.30 0.5736
1050.40 0.5734
1050.50 0.5733
1050.60 0.5731
1050.70 0.573
1050.80 0.5728
1050.90 0.5727
1051.00 0.5725
1051.10 0.5724
1051.20 0.5722
1051.30 0.5721
1051.40 0.5719
1051.50 0.5718
1051.60 0.5716
1051.70 0.5715
1051.80 0.5714
1051.90 0.5712
1052.00 0.5711
1052.10 0.5709
1052.20 0.5708
1052.30 0.5706
1052.40 0.5705
1052.50 0.5703
1052.60 0.5702
1052.70 0.5701
1052.80 0.5699
1052.90 0.5698
1053.00 0.5696
1053.10 0.5695
1053.20 0.5693
1053.30 0.5692
1053.40 0.5691
1053.50 0.5689
1053.60 0.5688
1053.70 0.5686
1053.80 0.5685
1053.90 0.5684
1054.00 0.5682
1054.10 0.5681
1054.20 0.5679
1054.30 0.5678
1054.40 0.5676
1054.50 0.5675
1054.60 0.5674
1054.70 0.5672
1054.80 0.5671
1054.90 0.5669
1055.00 0.5668
1055.10 0.5667
1055.20 0.5665
1055.30 0.5664
1055.40 0.5662
1055.50 0.5661
1055.60 0.566
1055.70 0.5658
1055.80 0.5657
1055.90 0.5655
1056.00 0.5654
1056.10 0.5652
1056.20 0.5651
1056.30 0.565
1056.40 0.5648
1056.50 0.5647
1056.60 0.5645
1056.70 0.5644
1056.80 0.5643
1056.90 0.5641
1057.00 0.564
1057.10 0.5638
1057.20 0.5637
1057.30 0.5636
1057.40 0.5634
1057.50 0.5633
1057.60 0.5632
1057.70 0.563
1057.80 0.5629
1057.90 0.5628
1058.00 0.5626
1058.10 0.5625
1058.20 0.5624
1058.30 0.5622
1058.40 0.5621
1058.50 0.562
1058.60 0.5618
1058.70 0.5617
1058.80 0.5616
1058.90 0.5614
1059.00 0.5613
1059.10 0.5612
1059.20 0.561
1059.30 0.5609
1059.40 0.5608
1059.50 0.5606
1059.60 0.5605
1059.70 0.5604
1059.80 0.5602
1059.90 0.5601
1060.00 0.56
1060.10 0.5598
1060.20 0.5597
1060.30 0.5596
1060.40 0.5594
1060.50 0.5593
1060.60 0.5592
1060.70 0.559
1060.80 0.5589
1060.90 0.5588
1061.00 0.5586
1061.10 0.5585
1061.20 0.5584
1061.30 0.5582
1061.40 0.5581
1061.50 0.558
1061.60 0.5578
1061.70 0.5577
1061.80 0.5576
1061.90 0.5574
1062.00 0.5573
1062.10 0.5572
1062.20 0.557
1062.30 0.5569
1062.40 0.5568
1062.50 0.5567
1062.60 0.5565
1062.70 0.5564
1062.80 0.5563
1062.90 0.5562
1063.00 0.556
1063.10 0.5559
1063.20 0.5558
1063.30 0.5557
1063.40 0.5555
1063.50 0.5554
1063.60 0.5553
1063.70 0.5551
1063.80 0.555
1063.90 0.5549
1064.00 0.5548
1064.10 0.5546
1064.20 0.5545
1064.30 0.5544
1064.40 0.5543
1064.50 0.5541
1064.60 0.554
1064.70 0.5539
1064.80 0.5538
1064.90 0.5536
1065.00 0.5535
1065.10 0.5534
1065.20 0.5532
1065.30 0.5531
1065.40 0.553
1065.50 0.5529
1065.60 0.5527
1065.70 0.5526
1065.80 0.5525
1065.90 0.5524
1066.00 0.5522
1066.10 0.5521
1066.20 0.552
1066.30 0.5519
1066.40 0.5517
1066.50 0.5516
1066.60 0.5515
1066.70 0.5514
1066.80 0.5512
1066.90 0.5511
1067.00 0.551
1067.10 0.5509
1067.20 0.5507
1067.30 0.5506
1067.40 0.5505
1067.50 0.5504
1067.60 0.5503
1067.70 0.5502
1067.80 0.55
1067.90 0.5499
1068.00 0.5498
1068.10 0.5497
1068.20 0.5496
1068.30 0.5494
1068.40 0.5493
1068.50 0.5492
1068.60 0.5491
1068.70 0.549
1068.80 0.5488
1068.90 0.5487
1069.00 0.5486
1069.10 0.5485
1069.20 0.5484
1069.30 0.5482
1069.40 0.5481
1069.50 0.548
1069.60 0.5479
1069.70 0.5478
1069.80 0.5477
1069.90 0.5475
1070.00 0.5474
1070.10 0.5473
1070.20 0.5472
1070.30 0.5471
1070.40 0.5469
1070.50 0.5468
1070.60 0.5467
1070.70 0.5466
1070.80 0.5465
1070.90 0.5464
1071.00 0.5462
1071.10 0.5461
1071.20 0.546
1071.30 0.5459
1071.40 0.5458
1071.50 0.5456
1071.60 0.5455
1071.70 0.5454
1071.80 0.5453
1071.90 0.5452
1072.00 0.5451
1072.10 0.5449
1072.20 0.5448
1072.30 0.5447
1072.40 0.5446
1072.50 0.5445
1072.60 0.5444
1072.70 0.5442
1072.80 0.5441
1072.90 0.544
1073.00 0.5439
1073.10 0.5438
1073.20 0.5437
1073.30 0.5436
1073.40 0.5434
1073.50 0.5433
1073.60 0.5432
1073.70 0.5431
1073.80 0.543
1073.90 0.5429
1074.00 0.5427
1074.10 0.5426
1074.20 0.5425
1074.30 0.5424
1074.40 0.5423
1074.50 0.5422
1074.60 0.5421
1074.70 0.5419
1074.80 0.5418
1074.90 0.5417
1075.00 0.5416
1075.10 0.5415
1075.20 0.5414
1075.30 0.5413
1075.40 0.5411
1075.50 0.541
1075.60 0.5409
1075.70 0.5408
1075.80 0.5407
1075.90 0.5406
1076.00 0.5405
1076.10 0.5404
1076.20 0.5402
1076.30 0.5401
1076.40 0.54
1076.50 0.5399
1076.60 0.5398
1076.70 0.5397
1076.80 0.5396
1076.90 0.5394
1077.00 0.5393
1077.10 0.5392
1077.20 0.5391
1077.30 0.539
1077.40 0.5389
1077.50 0.5388
1077.60 0.5387
1077.70 0.5385
1077.80 0.5384
1077.90 0.5383
1078.00 0.5382
1078.10 0.5381
1078.20 0.538
1078.30 0.5379
1078.40 0.5378
1078.50 0.5377
1078.60 0.5375
1078.70 0.5374
1078.80 0.5373
1078.90 0.5372
1079.00 0.5371
1079.10 0.537
1079.20 0.5369
1079.30 0.5368
1079.40 0.5367
1079.50 0.5366
1079.60 0.5364
1079.70 0.5363
1079.80 0.5362
1079.90 0.5361
1080.00 0.536
1080.10 0.5359
1080.20 0.5358
1080.30 0.5357
1080.40 0.5356
1080.50 0.5355
1080.60 0.5354
1080.70 0.5353
1080.80 0.5352
1080.90 0.535
1081.00 0.5349
1081.10 0.5348
1081.20 0.5347
1081.30 0.5346
1081.40 0.5345
1081.50 0.5344
1081.60 0.5343
1081.70 0.5342
1081.80 0.5341
1081.90 0.534
1082.00 0.5339
1082.10 0.5338
1082.20 0.5337
1082.30 0.5335
1082.40 0.5334
1082.50 0.5333
1082.60 0.5332
1082.70 0.5331
1082.80 0.533
1082.90 0.5329
1083.00 0.5328
1083.10 0.5327
1083.20 0.5326
1083.30 0.5325
1083.40 0.5324
1083.50 0.5323
1083.60 0.5322
1083.70 0.5321
1083.80 0.5319
1083.90 0.5318
1084.00 0.5317
1084.10 0.5316
1084.20 0.5315
1084.30 0.5314
1084.40 0.5313
1084.50 0.5312
1084.60 0.5311
1084.70 0.531
1084.80 0.5309
1084.90 0.5308
1085.00 0.5307
1085.10 0.5306
1085.20 0.5305
1085.30 0.5304
1085.40 0.5303
1085.50 0.5301
1085.60 0.53
1085.70 0.5299
1085.80 0.5298
1085.90 0.5297
1086.00 0.5296
1086.10 0.5295
1086.20 0.5294
1086.30 0.5293
1086.40 0.5292
1086.50 0.5291
1086.60 0.529
1086.70 0.5289
1086.80 0.5288
1086.90 0.5287
1087.00 0.5286
1087.10 0.5285
1087.20 0.5284
1087.30 0.5283
1087.40 0.5282
1087.50 0.5281
1087.60 0.528
1087.70 0.5279
1087.80 0.5278
1087.90 0.5277
1088.00 0.5276
1088.10 0.5274
1088.20 0.5273
1088.30 0.5272
1088.40 0.5271
1088.50 0.527
1088.60 0.5269
1088.70 0.5268
1088.80 0.5267
1088.90 0.5266
1089.00 0.5265
1089.10 0.5264
1089.20 0.5263
1089.30 0.5262
1089.40 0.5261
1089.50 0.526
1089.60 0.5259
1089.70 0.5258
1089.80 0.5257
1089.90 0.5256
1090.00 0.5255
1090.10 0.5254
1090.20 0.5253
1090.30 0.5252
1090.40 0.5251
1090.50 0.525
1090.60 0.5249
1090.70 0.5248
1090.80 0.5247
1090.90 0.5246
1091.00 0.5245
1091.10 0.5244
1091.20 0.5243
1091.30 0.5242
1091.40 0.5241
1091.50 0.524
1091.60 0.5239
1091.70 0.5238
1091.80 0.5237
1091.90 0.5236
1092.00 0.5235
1092.10 0.5234
1092.20 0.5233
1092.30 0.5232
1092.40 0.5231
1092.50 0.523
1092.60 0.5229
1092.70 0.5228
1092.80 0.5227
1092.90 0.5226
1093.00 0.5226
1093.10 0.5225
1093.20 0.5224
1093.30 0.5223
1093.40 0.5222
1093.50 0.5221
1093.60 0.522
1093.70 0.5219
1093.80 0.5218
1093.90 0.5217
1094.00 0.5216
1094.10 0.5215
1094.20 0.5214
1094.30 0.5213
1094.40 0.5212
1094.50 0.5211
1094.60 0.521
1094.70 0.5209
1094.80 0.5208
1094.90 0.5207
1095.00 0.5206
1095.10 0.5205
1095.20 0.5204
1095.30 0.5203
1095.40 0.5202
1095.50 0.5201
1095.60 0.52
1095.70 0.5199
1095.80 0.5198
1095.90 0.5197
1096.00 0.5196
1096.10 0.5195
1096.20 0.5194
1096.30 0.5193
1096.40 0.5192
1096.50 0.5191
1096.60 0.519
1096.70 0.5189
1096.80 0.5188
1096.90 0.5187
1097.00 0.5186
1097.10 0.5185
1097.20 0.5184
1097.30 0.5183
1097.40 0.5182
1097.50 0.5181
1097.60 0.518
1097.70 0.5179
1097.80 0.5178
1097.90 0.5177
1098.00 0.5176
1098.10 0.5175
1098.20 0.5174
1098.30 0.5173
1098.40 0.5172
1098.50 0.5172
1098.60 0.5171
1098.70 0.517
1098.80 0.5169
1098.90 0.5168
1099.00 0.5167
1099.10 0.5166
1099.20 0.5165
1099.30 0.5164
1099.40 0.5163
1099.50 0.5162
1099.60 0.5161
1099.70 0.516
1099.80 0.5159
1099.90 0.5158
1100.00 0.5157
1100.10 0.5156
1100.20 0.5155
1100.30 0.5154
1100.40 0.5153
1100.50 0.5152
1100.60 0.5151
1100.70 0.515
1100.80 0.5149
1100.90 0.5148
1101.00 0.5148
1101.10 0.5147
1101.20 0.5146
1101.30 0.5145
1101.40 0.5144
1101.50 0.5143
1101.60 0.5142
1101.70 0.5141
1101.80 0.514
1101.90 0.5139
1102.00 0.5138
1102.10 0.5137
1102.20 0.5136
1102.30 0.5135
1102.40 0.5134
1102.50 0.5133
1102.60 0.5132
1102.70 0.5131
1102.80 0.513
1102.90 0.5129
1103.00 0.5128
1103.10 0.5127
1103.20 0.5126
1103.30 0.5125
1103.40 0.5125
1103.50 0.5124
1103.60 0.5123
1103.70 0.5122
1103.80 0.5121
1103.90 0.512
1104.00 0.5119
1104.10 0.5118
1104.20 0.5117
1104.30 0.5116
1104.40 0.5115
1104.50 0.5114
1104.60 0.5113
1104.70 0.5112
1104.80 0.5111
1104.90 0.511
1105.00 0.5109
1105.10 0.5108
1105.20 0.5107
1105.30 0.5107
1105.40 0.5106
1105.50 0.5105
1105.60 0.5104
1105.70 0.5103
1105.80 0.5102
1105.90 0.5101
1106.00 0.51
1106.10 0.5099
1106.20 0.5098
1106.30 0.5097
1106.40 0.5096
1106.50 0.5095
1106.60 0.5094
1106.70 0.5093
1106.80 0.5092
1106.90 0.5092
1107.00 0.5091
1107.10 0.509
1107.20 0.5089
1107.30 0.5088
1107.40 0.5087
1107.50 0.5086
1107.60 0.5085
1107.70 0.5084
1107.80 0.5083
1107.90 0.5082
1108.00 0.5081
1108.10 0.508
1108.20 0.5079
1108.30 0.5079
1108.40 0.5078
1108.50 0.5077
1108.60 0.5076
1108.70 0.5075
1108.80 0.5074
1108.90 0.5073
1109.00 0.5072
1109.10 0.5071
1109.20 0.507
1109.30 0.5069
1109.40 0.5068
1109.50 0.5067
1109.60 0.5066
1109.70 0.5065
1109.80 0.5064
1109.90 0.5064
1110.00 0.5063
1110.10 0.5062
1110.20 0.5061
1110.30 0.506
1110.40 0.5059
1110.50 0.5058
1110.60 0.5057
1110.70 0.5056
1110.80 0.5055
1110.90 0.5054
1111.00 0.5053
1111.10 0.5052
1111.20 0.5052
1111.30 0.5051
1111.40 0.505
1111.50 0.5049
1111.60 0.5048
1111.70 0.5047
1111.80 0.5046
1111.90 0.5045
1112.00 0.5044
1112.10 0.5043
1112.20 0.5042
1112.30 0.5041
1112.40 0.5041
1112.50 0.504
1112.60 0.5039
1112.70 0.5038
1112.80 0.5037
1112.90 0.5036
1113.00 0.5035
1113.10 0.5034
1113.20 0.5033
1113.30 0.5032
1113.40 0.5031
1113.50 0.5031
1113.60 0.503
1113.70 0.5029
1113.80 0.5028
1113.90 0.5027
1114.00 0.5026
1114.10 0.5025
1114.20 0.5024
1114.30 0.5023
1114.40 0.5022
1114.50 0.5021
1114.60 0.502
1114.70 0.502
1114.80 0.5019
1114.90 0.5018
1115.00 0.5017
1115.10 0.5016
1115.20 0.5015
1115.30 0.5014
1115.40 0.5013
1115.50 0.5012
1115.60 0.5011
1115.70 0.501
1115.80 0.501
1115.90 0.5009
1116.00 0.5008
1116.10 0.5007
1116.20 0.5006
1116.30 0.5005
1116.40 0.5004
1116.50 0.5003
1116.60 0.5002
1116.70 0.5001
1116.80 0.5
1116.90 0.5
1117.00 0.4999
1117.10 0.4998
1117.20 0.4997
1117.30 0.4996
1117.40 0.4995
1117.50 0.4994
1117.60 0.4993
1117.70 0.4992
1117.80 0.4992
1117.90 0.4991
1118.00 0.499
1118.10 0.4989
1118.20 0.4988
1118.30 0.4987
1118.40 0.4986
1118.50 0.4985
1118.60 0.4984
1118.70 0.4983
1118.80 0.4983
1118.90 0.4982
1119.00 0.4981
1119.10 0.498
1119.20 0.4979
1119.30 0.4978
1119.40 0.4977
1119.50 0.4976
1119.60 0.4975
1119.70 0.4975
1119.80 0.4974
1119.90 0.4973
1120.00 0.4972
1120.10 0.4971
1120.20 0.497
1120.30 0.4969
1120.40 0.4968
1120.50 0.4967
1120.60 0.4967
1120.70 0.4966
1120.80 0.4965
1120.90 0.4964
1121.00 0.4963
1121.10 0.4962
1121.20 0.4961
1121.30 0.496
1121.40 0.496
1121.50 0.4959
1121.60 0.4958
1121.70 0.4957
1121.80 0.4956
1121.90 0.4955
1122.00 0.4954
1122.10 0.4953
1122.20 0.4952
1122.30 0.4952
1122.40 0.4951
1122.50 0.495
1122.60 0.4949
1122.70 0.4948
1122.80 0.4947
1122.90 0.4946
1123.00 0.4945
1123.10 0.4944
1123.20 0.4943
1123.30 0.4943
1123.40 0.4942
1123.50 0.4941
1123.60 0.494
1123.70 0.4939
1123.80 0.4938
1123.90 0.4937
1124.00 0.4936
1124.10 0.4935
1124.20 0.4935
1124.30 0.4934
1124.40 0.4933
1124.50 0.4932
1124.60 0.4931
1124.70 0.493
1124.80 0.4929
1124.90 0.4928
1125.00 0.4927
1125.10 0.4926
1125.20 0.4926
1125.30 0.4925
1125.40 0.4924
1125.50 0.4923
1125.60 0.4922
1125.70 0.4921
1125.80 0.492
1125.90 0.4919
1126.00 0.4918
1126.10 0.4918
1126.20 0.4917
1126.30 0.4916
1126.40 0.4915
1126.50 0.4914
1126.60 0.4913
1126.70 0.4912
1126.80 0.4911
1126.90 0.491
1127.00 0.491
1127.10 0.4909
1127.20 0.4908
1127.30 0.4907
1127.40 0.4906
1127.50 0.4905
1127.60 0.4904
1127.70 0.4903
1127.80 0.4903
1127.90 0.4902
1128.00 0.4901
1128.10 0.49
1128.20 0.4899
1128.30 0.4898
1128.40 0.4897
1128.50 0.4896
1128.60 0.4895
1128.70 0.4895
1128.80 0.4894
1128.90 0.4893
1129.00 0.4892
1129.10 0.4891
1129.20 0.489
1129.30 0.4889
1129.40 0.4888
1129.50 0.4888
1129.60 0.4887
1129.70 0.4886
1129.80 0.4885
1129.90 0.4884
1130.00 0.4883
1130.10 0.4882
1130.20 0.4881
1130.30 0.4881
1130.40 0.488
1130.50 0.4879
1130.60 0.4878
1130.70 0.4877
1130.80 0.4876
1130.90 0.4875
1131.00 0.4874
1131.10 0.4874
1131.20 0.4873
1131.30 0.4872
1131.40 0.4871
1131.50 0.487
1131.60 0.4869
1131.70 0.4868
1131.80 0.4867
1131.90 0.4867
1132.00 0.4866
1132.10 0.4865
1132.20 0.4864
1132.30 0.4863
1132.40 0.4862
1132.50 0.4861
1132.60 0.486
1132.70 0.4859
1132.80 0.4859
1132.90 0.4858
1133.00 0.4857
1133.10 0.4856
1133.20 0.4855
1133.30 0.4854
1133.40 0.4853
1133.50 0.4852
1133.60 0.4851
1133.70 0.4851
1133.80 0.485
1133.90 0.4849
1134.00 0.4848
1134.10 0.4847
1134.20 0.4846
1134.30 0.4845
1134.40 0.4844
1134.50 0.4843
1134.60 0.4843
1134.70 0.4842
1134.80 0.4841
1134.90 0.484
1135.00 0.4839
1135.10 0.4838
1135.20 0.4837
1135.30 0.4836
1135.40 0.4835
1135.50 0.4835
1135.60 0.4834
1135.70 0.4833
1135.80 0.4832
1135.90 0.4831
1136.00 0.483
1136.10 0.4829
1136.20 0.4828
1136.30 0.4827
1136.40 0.4827
1136.50 0.4826
1136.60 0.4825
1136.70 0.4824
1136.80 0.4823
1136.90 0.4822
1137.00 0.4821
1137.10 0.482
1137.20 0.482
1137.30 0.4819
1137.40 0.4818
1137.50 0.4817
1137.60 0.4816
1137.70 0.4815
1137.80 0.4814
1137.90 0.4813
1138.00 0.4812
1138.10 0.4811
1138.20 0.4811
1138.30 0.481
1138.40 0.4809
1138.50 0.4808
1138.60 0.4807
1138.70 0.4806
1138.80 0.4805
1138.90 0.4804
1139.00 0.4803
1139.10 0.4803
1139.20 0.4802
1139.30 0.4801
1139.40 0.48
1139.50 0.4799
1139.60 0.4798
1139.70 0.4797
1139.80 0.4796
1139.90 0.4795
1140.00 0.4794
1140.10 0.4794
1140.20 0.4793
1140.30 0.4792
1140.40 0.4791
1140.50 0.479
1140.60 0.4789
1140.70 0.4788
1140.80 0.4787
1140.90 0.4786
1141.00 0.4786
1141.10 0.4785
1141.20 0.4784
1141.30 0.4783
1141.40 0.4782
1141.50 0.4781
1141.60 0.478
1141.70 0.4779
1141.80 0.4778
1141.90 0.4778
1142.00 0.4777
1142.10 0.4776
1142.20 0.4775
1142.30 0.4774
1142.40 0.4773
1142.50 0.4772
1142.60 0.4771
1142.70 0.477
1142.80 0.477
1142.90 0.4769
1143.00 0.4768
1143.10 0.4767
1143.20 0.4766
1143.30 0.4765
1143.40 0.4764
1143.50 0.4763
1143.60 0.4762
1143.70 0.4761
1143.80 0.4761
1143.90 0.476
1144.00 0.4759
1144.10 0.4758
1144.20 0.4757
1144.30 0.4756
1144.40 0.4755
1144.50 0.4754
1144.60 0.4753
1144.70 0.4753
1144.80 0.4752
1144.90 0.4751
1145.00 0.475
1145.10 0.4749
1145.20 0.4748
1145.30 0.4747
1145.40 0.4746
1145.50 0.4745
1145.60 0.4745
1145.70 0.4744
1145.80 0.4743
1145.90 0.4742
1146.00 0.4741
1146.10 0.474
1146.20 0.4739
1146.30 0.4738
1146.40 0.4737
1146.50 0.4737
1146.60 0.4736
1146.70 0.4735
1146.80 0.4734
1146.90 0.4733
1147.00 0.4732
1147.10 0.4731
1147.20 0.473
1147.30 0.4729
1147.40 0.4728
1147.50 0.4728
1147.60 0.4727
1147.70 0.4726
1147.80 0.4725
1147.90 0.4724
1148.00 0.4723
1148.10 0.4722
1148.20 0.4721
1148.30 0.472
1148.40 0.4719
1148.50 0.4718
1148.60 0.4718
1148.70 0.4717
1148.80 0.4716
1148.90 0.4715
1149.00 0.4714
1149.10 0.4713
1149.20 0.4712
1149.30 0.4711
1149.40 0.471
1149.50 0.4709
1149.60 0.4708
1149.70 0.4708
1149.80 0.4707
1149.90 0.4706
1150.00 0.4705
1150.10 0.4704
1150.20 0.4703
1150.30 0.4702
1150.40 0.4701
1150.50 0.47
1150.60 0.4699
1150.70 0.4698
1150.80 0.4698
1150.90 0.4697
1151.00 0.4696
1151.10 0.4695
1151.20 0.4694
1151.30 0.4693
1151.40 0.4692
1151.50 0.4691
1151.60 0.469
1151.70 0.4689
1151.80 0.4689
1151.90 0.4688
1152.00 0.4687
1152.10 0.4686
1152.20 0.4685
1152.30 0.4684
1152.40 0.4683
1152.50 0.4682
1152.60 0.4681
1152.70 0.468
1152.80 0.4679
1152.90 0.4678
1153.00 0.4678
1153.10 0.4677
1153.20 0.4676
1153.30 0.4675
1153.40 0.4674
1153.50 0.4673
1153.60 0.4672
1153.70 0.4671
1153.80 0.467
1153.90 0.4669
1154.00 0.4668
1154.10 0.4667
1154.20 0.4667
1154.30 0.4666
1154.40 0.4665
1154.50 0.4664
1154.60 0.4663
1154.70 0.4662
1154.80 0.4661
1154.90 0.466
1155.00 0.4659
1155.10 0.4658
1155.20 0.4657
1155.30 0.4657
1155.40 0.4656
1155.50 0.4655
1155.60 0.4654
1155.70 0.4653
1155.80 0.4652
1155.90 0.4651
1156.00 0.465
1156.10 0.4649
1156.20 0.4648
1156.30 0.4647
1156.40 0.4647
1156.50 0.4646
1156.60 0.4645
1156.70 0.4644
1156.80 0.4643
1156.90 0.4642
1157.00 0.4641
1157.10 0.464
1157.20 0.4639
1157.30 0.4638
1157.40 0.4637
1157.50 0.4636
1157.60 0.4635
1157.70 0.4635
1157.80 0.4634
1157.90 0.4633
1158.00 0.4632
1158.10 0.4631
1158.20 0.463
1158.30 0.4629
1158.40 0.4628
1158.50 0.4627
1158.60 0.4626
1158.70 0.4625
1158.80 0.4624
1158.90 0.4623
1159.00 0.4622
1159.10 0.4622
1159.20 0.4621
1159.30 0.462
1159.40 0.4619
1159.50 0.4618
1159.60 0.4617
1159.70 0.4616
1159.80 0.4615
1159.90 0.4614
1160.00 0.4613
1160.10 0.4612
1160.20 0.4611
1160.30 0.461
1160.40 0.4609
1160.50 0.4609
1160.60 0.4608
1160.70 0.4607
1160.80 0.4606
1160.90 0.4605
1161.00 0.4604
1161.10 0.4603
1161.20 0.4602
1161.30 0.4601
1161.40 0.46
1161.50 0.4599
1161.60 0.4598
1161.70 0.4597
1161.80 0.4596
1161.90 0.4596
1162.00 0.4595
1162.10 0.4594
1162.20 0.4593
1162.30 0.4592
1162.40 0.4591
1162.50 0.459
1162.60 0.4589
1162.70 0.4588
1162.80 0.4587
1162.90 0.4586
1163.00 0.4585
1163.10 0.4584
1163.20 0.4583
1163.30 0.4582
1163.40 0.4581
1163.50 0.458
1163.60 0.4579
1163.70 0.4579
1163.80 0.4578
1163.90 0.4577
1164.00 0.4576
1164.10 0.4575
1164.20 0.4574
1164.30 0.4573
1164.40 0.4572
1164.50 0.4571
1164.60 0.457
1164.70 0.4569
1164.80 0.4568
1164.90 0.4567
1165.00 0.4566
1165.10 0.4565
1165.20 0.4564
1165.30 0.4563
1165.40 0.4562
1165.50 0.4561
1165.60 0.4561
1165.70 0.456
1165.80 0.4559
1165.90 0.4558
1166.00 0.4557
1166.10 0.4556
1166.20 0.4555
1166.30 0.4554
1166.40 0.4553
1166.50 0.4552
1166.60 0.4551
1166.70 0.455
1166.80 0.4549
1166.90 0.4548
1167.00 0.4547
1167.10 0.4546
1167.20 0.4545
1167.30 0.4544
1167.40 0.4544
1167.50 0.4543
1167.60 0.4542
1167.70 0.4541
1167.80 0.454
1167.90 0.4539
1168.00 0.4538
1168.10 0.4537
1168.20 0.4536
1168.30 0.4535
1168.40 0.4534
1168.50 0.4533
1168.60 0.4532
1168.70 0.4531
1168.80 0.453
1168.90 0.4529
1169.00 0.4528
1169.10 0.4527
1169.20 0.4526
1169.30 0.4525
1169.40 0.4524
1169.50 0.4523
1169.60 0.4522
1169.70 0.4522
1169.80 0.4521
1169.90 0.452
1170.00 0.4519
1170.10 0.4518
1170.20 0.4517
1170.30 0.4516
1170.40 0.4515
1170.50 0.4514
1170.60 0.4513
1170.70 0.4512
1170.80 0.4511
1170.90 0.451
1171.00 0.4509
1171.10 0.4508
1171.20 0.4507
1171.30 0.4506
1171.40 0.4505
1171.50 0.4504
1171.60 0.4503
1171.70 0.4502
1171.80 0.4502
1171.90 0.4501
1172.00 0.45
1172.10 0.4499
1172.20 0.4498
1172.30 0.4497
1172.40 0.4496
1172.50 0.4495
1172.60 0.4494
1172.70 0.4493
1172.80 0.4492
1172.90 0.4491
1173.00 0.449
1173.10 0.4489
1173.20 0.4488
1173.30 0.4487
1173.40 0.4486
1173.50 0.4485
1173.60 0.4484
1173.70 0.4483
1173.80 0.4482
1173.90 0.4481
1174.00 0.448
1174.10 0.4479
1174.20 0.4478
1174.30 0.4477
1174.40 0.4476
1174.50 0.4475
1174.60 0.4474
1174.70 0.4473
1174.80 0.4473
1174.90 0.4472
1175.00 0.4471
1175.10 0.447
1175.20 0.4469
1175.30 0.4468
1175.40 0.4467
1175.50 0.4466
1175.60 0.4465
1175.70 0.4464
1175.80 0.4463
1175.90 0.4462
1176.00 0.4461
1176.10 0.446
1176.20 0.4459
1176.30 0.4458
1176.40 0.4457
1176.50 0.4456
1176.60 0.4455
1176.70 0.4454
1176.80 0.4453
1176.90 0.4452
1177.00 0.4451
1177.10 0.445
1177.20 0.4449
1177.30 0.4448
1177.40 0.4447
1177.50 0.4446
1177.60 0.4445
1177.70 0.4444
1177.80 0.4443
1177.90 0.4442
1178.00 0.4441
1178.10 0.4441
1178.20 0.444
1178.30 0.4439
1178.40 0.4438
1178.50 0.4437
1178.60 0.4436
1178.70 0.4435
1178.80 0.4434
1178.90 0.4433
1179.00 0.4432
1179.10 0.4431
1179.20 0.443
1179.30 0.4429
1179.40 0.4428
1179.50 0.4427
1179.60 0.4426
1179.70 0.4425
1179.80 0.4424
1179.90 0.4423
1180.00 0.4422
1180.10 0.4421
1180.20 0.442
1180.30 0.4419
1180.40 0.4418
1180.50 0.4417
1180.60 0.4416
1180.70 0.4415
1180.80 0.4414
1180.90 0.4413
1181.00 0.4412
1181.10 0.4411
1181.20 0.441
1181.30 0.4409
1181.40 0.4408
1181.50 0.4407
1181.60 0.4406
1181.70 0.4405
1181.80 0.4404
1181.90 0.4403
1182.00 0.4402
1182.10 0.4401
1182.20 0.44
1182.30 0.4399
1182.40 0.4398
1182.50 0.4397
1182.60 0.4396
1182.70 0.4395
1182.80 0.4394
1182.90 0.4393
1183.00 0.4392
1183.10 0.4391
1183.20 0.439
1183.30 0.4389
1183.40 0.4388
1183.50 0.4388
1183.60 0.4387
1183.70 0.4386
1183.80 0.4385
1183.90 0.4384
1184.00 0.4383
1184.10 0.4382
1184.20 0.4381
1184.30 0.438
1184.40 0.4379
1184.50 0.4378
1184.60 0.4377
1184.70 0.4376
1184.80 0.4375
1184.90 0.4374
1185.00 0.4373
1185.10 0.4372
1185.20 0.4371
1185.30 0.437
1185.40 0.4369
1185.50 0.4368
1185.60 0.4367
1185.70 0.4366
1185.80 0.4365
1185.90 0.4364
1186.00 0.4363
1186.10 0.4362
1186.20 0.4361
1186.30 0.436
1186.40 0.4359
1186.50 0.4358
1186.60 0.4357
1186.70 0.4356
1186.80 0.4355
1186.90 0.4354
1187.00 0.4353
1187.10 0.4352
1187.20 0.4351
1187.30 0.435
1187.40 0.4349
1187.50 0.4348
1187.60 0.4347
1187.70 0.4346
1187.80 0.4345
1187.90 0.4344
1188.00 0.4343
1188.10 0.4342
1188.20 0.4341
1188.30 0.434
1188.40 0.4339
1188.50 0.4338
1188.60 0.4337
1188.70 0.4336
1188.80 0.4335
1188.90 0.4334
1189.00 0.4333
1189.10 0.4332
1189.20 0.4331
1189.30 0.433
1189.40 0.4329
1189.50 0.4328
1189.60 0.4327
1189.70 0.4326
1189.80 0.4325
1189.90 0.4324
1190.00 0.4323
1190.10 0.4322
1190.20 0.4321
1190.30 0.432
1190.40 0.4319
1190.50 0.4318
1190.60 0.4317
1190.70 0.4316
1190.80 0.4315
1190.90 0.4314
1191.00 0.4313
1191.10 0.4312
1191.20 0.4311
1191.30 0.431
1191.40 0.4309
1191.50 0.4308
1191.60 0.4307
1191.70 0.4306
1191.80 0.4305
1191.90 0.4304
1192.00 0.4303
1192.10 0.4302
1192.20 0.4301
1192.30 0.43
1192.40 0.4299
1192.50 0.4298
1192.60 0.4297
1192.70 0.4296
1192.80 0.4295
1192.90 0.4294
1193.00 0.4293
1193.10 0.4292
1193.20 0.4291
1193.30 0.429
1193.40 0.4289
1193.50 0.4288
1193.60 0.4287
1193.70 0.4286
1193.80 0.4285
1193.90 0.4284
1194.00 0.4283
1194.10 0.4282
1194.20 0.4282
1194.30 0.4281
1194.40 0.428
1194.50 0.4279
1194.60 0.4278
1194.70 0.4277
1194.80 0.4276
1194.90 0.4275
1195.00 0.4274
1195.10 0.4273
1195.20 0.4272
1195.30 0.4271
1195.40 0.427
1195.50 0.4269
1195.60 0.4268
1195.70 0.4267
1195.80 0.4266
1195.90 0.4265
1196.00 0.4264
1196.10 0.4263
1196.20 0.4262
1196.30 0.4261
1196.40 0.426
1196.50 0.4259
1196.60 0.4258
1196.70 0.4257
1196.80 0.4256
1196.90 0.4255
1197.00 0.4254
1197.10 0.4253
1197.20 0.4252
1197.30 0.4251
1197.40 0.425
1197.50 0.4249
1197.60 0.4248
1197.70 0.4247
1197.80 0.4246
1197.90 0.4245
1198.00 0.4244
1198.10 0.4243
1198.20 0.4242
1198.30 0.4241
1198.40 0.424
1198.50 0.4239
1198.60 0.4238
1198.70 0.4237
1198.80 0.4236
1198.90 0.4235
1199.00 0.4234
1199.10 0.4233
1199.20 0.4232
1199.30 0.4231
1199.40 0.423
1199.50 0.4229
1199.60 0.4228
1199.70 0.4227
1199.80 0.4226
1199.90 0.4225
1200.00 0
