# Version 2.1 - nm, norm@500 to 1, cut digits, bergeron_3000_75.dat_3000
# Wavelength(nm)  Flambda(ergs/cm^s/s/nm)
300.00 0.08234
300.10 0.08256
300.20 0.08277
300.30 0.083
300.40 0.08322
300.50 0.08344
300.60 0.08366
300.70 0.08388
300.80 0.0841
300.90 0.08432
301.00 0.08454
301.10 0.08476
301.20 0.08498
301.30 0.0852
301.40 0.08542
301.50 0.08564
301.60 0.08586
301.70 0.08608
301.80 0.08629
301.90 0.08651
302.00 0.08673
302.10 0.08696
302.20 0.08719
302.30 0.08742
302.40 0.08765
302.50 0.08788
302.60 0.08811
302.70 0.08833
302.80 0.08856
302.90 0.08879
303.00 0.08902
303.10 0.08925
303.20 0.08947
303.30 0.0897
303.40 0.08992
303.50 0.09015
303.60 0.09038
303.70 0.0906
303.80 0.09083
303.90 0.09105
304.00 0.09128
304.10 0.09152
304.20 0.09175
304.30 0.09199
304.40 0.09223
304.50 0.09246
304.60 0.0927
304.70 0.09294
304.80 0.09317
304.90 0.09341
305.00 0.09364
305.10 0.09388
305.20 0.09411
305.30 0.09435
305.40 0.09458
305.50 0.09481
305.60 0.09505
305.70 0.09528
305.80 0.09551
305.90 0.09574
306.00 0.09598
306.10 0.09622
306.20 0.09647
306.30 0.09671
306.40 0.09695
306.50 0.0972
306.60 0.09744
306.70 0.09768
306.80 0.09792
306.90 0.09817
307.00 0.09841
307.10 0.09865
307.20 0.09889
307.30 0.09913
307.40 0.09937
307.50 0.09961
307.60 0.09985
307.70 0.1001
307.80 0.1003
307.90 0.1006
308.00 0.1008
308.10 0.1011
308.20 0.1013
308.30 0.1016
308.40 0.1018
308.50 0.1021
308.60 0.1023
308.70 0.1026
308.80 0.1028
308.90 0.1031
309.00 0.1033
309.10 0.1036
309.20 0.1038
309.30 0.1041
309.40 0.1043
309.50 0.1046
309.60 0.1048
309.70 0.1051
309.80 0.1053
309.90 0.1056
310.00 0.1058
310.10 0.1061
310.20 0.1063
310.30 0.1066
310.40 0.1068
310.50 0.1071
310.60 0.1074
310.70 0.1076
310.80 0.1079
310.90 0.1081
311.00 0.1084
311.10 0.1086
311.20 0.1089
311.30 0.1092
311.40 0.1094
311.50 0.1097
311.60 0.1099
311.70 0.1102
311.80 0.1104
311.90 0.1107
312.00 0.1109
312.10 0.1112
312.20 0.1115
312.30 0.1117
312.40 0.112
312.50 0.1123
312.60 0.1125
312.70 0.1128
312.80 0.1131
312.90 0.1133
313.00 0.1136
313.10 0.1138
313.20 0.1141
313.30 0.1144
313.40 0.1146
313.50 0.1149
313.60 0.1152
313.70 0.1154
313.80 0.1157
313.90 0.116
314.00 0.1162
314.10 0.1165
314.20 0.1168
314.30 0.117
314.40 0.1173
314.50 0.1176
314.60 0.1179
314.70 0.1181
314.80 0.1184
314.90 0.1187
315.00 0.1189
315.10 0.1192
315.20 0.1195
315.30 0.1197
315.40 0.12
315.50 0.1203
315.60 0.1206
315.70 0.1208
315.80 0.1211
315.90 0.1214
316.00 0.1216
316.10 0.1219
316.20 0.1222
316.30 0.1225
316.40 0.1228
316.50 0.123
316.60 0.1233
316.70 0.1236
316.80 0.1239
316.90 0.1242
317.00 0.1244
317.10 0.1247
317.20 0.125
317.30 0.1253
317.40 0.1255
317.50 0.1258
317.60 0.1261
317.70 0.1264
317.80 0.1267
317.90 0.1269
318.00 0.1272
318.10 0.1275
318.20 0.1278
318.30 0.1281
318.40 0.1284
318.50 0.1286
318.60 0.1289
318.70 0.1292
318.80 0.1295
318.90 0.1298
319.00 0.1301
319.10 0.1304
319.20 0.1306
319.30 0.1309
319.40 0.1312
319.50 0.1315
319.60 0.1318
319.70 0.1321
319.80 0.1324
319.90 0.1326
320.00 0.1329
320.10 0.1332
320.20 0.1335
320.30 0.1338
320.40 0.1341
320.50 0.1344
320.60 0.1347
320.70 0.135
320.80 0.1353
320.90 0.1356
321.00 0.1359
321.10 0.1362
321.20 0.1365
321.30 0.1367
321.40 0.137
321.50 0.1373
321.60 0.1376
321.70 0.1379
321.80 0.1382
321.90 0.1385
322.00 0.1388
322.10 0.1391
322.20 0.1394
322.30 0.1397
322.40 0.14
322.50 0.1403
322.60 0.1406
322.70 0.1409
322.80 0.1412
322.90 0.1415
323.00 0.1418
323.10 0.1421
323.20 0.1424
323.30 0.1427
323.40 0.143
323.50 0.1433
323.60 0.1436
323.70 0.1439
323.80 0.1442
323.90 0.1445
324.00 0.1448
324.10 0.1451
324.20 0.1454
324.30 0.1457
324.40 0.146
324.50 0.1463
324.60 0.1466
324.70 0.147
324.80 0.1473
324.90 0.1476
325.00 0.1479
325.10 0.1482
325.20 0.1485
325.30 0.1488
325.40 0.1491
325.50 0.1494
325.60 0.1497
325.70 0.15
325.80 0.1503
325.90 0.1506
326.00 0.1509
326.10 0.1513
326.20 0.1516
326.30 0.1519
326.40 0.1522
326.50 0.1525
326.60 0.1528
326.70 0.1532
326.80 0.1535
326.90 0.1538
327.00 0.1541
327.10 0.1544
327.20 0.1547
327.30 0.155
327.40 0.1554
327.50 0.1557
327.60 0.156
327.70 0.1563
327.80 0.1566
327.90 0.1569
328.00 0.1572
328.10 0.1576
328.20 0.1579
328.30 0.1582
328.40 0.1585
328.50 0.1589
328.60 0.1592
328.70 0.1595
328.80 0.1598
328.90 0.1601
329.00 0.1605
329.10 0.1608
329.20 0.1611
329.30 0.1614
329.40 0.1618
329.50 0.1621
329.60 0.1624
329.70 0.1627
329.80 0.163
329.90 0.1633
330.00 0.1637
330.10 0.164
330.20 0.1643
330.30 0.1647
330.40 0.165
330.50 0.1653
330.60 0.1657
330.70 0.166
330.80 0.1663
330.90 0.1666
331.00 0.167
331.10 0.1673
331.20 0.1676
331.30 0.168
331.40 0.1683
331.50 0.1686
331.60 0.1689
331.70 0.1693
331.80 0.1696
331.90 0.1699
332.00 0.1702
332.10 0.1706
332.20 0.1709
332.30 0.1713
332.40 0.1716
332.50 0.1719
332.60 0.1723
332.70 0.1726
332.80 0.173
332.90 0.1733
333.00 0.1736
333.10 0.174
333.20 0.1743
333.30 0.1746
333.40 0.175
333.50 0.1753
333.60 0.1756
333.70 0.176
333.80 0.1763
333.90 0.1766
334.00 0.177
334.10 0.1773
334.20 0.1777
334.30 0.178
334.40 0.1784
334.50 0.1787
334.60 0.179
334.70 0.1794
334.80 0.1797
334.90 0.1801
335.00 0.1804
335.10 0.1808
335.20 0.1811
335.30 0.1814
335.40 0.1818
335.50 0.1821
335.60 0.1825
335.70 0.1828
335.80 0.1831
335.90 0.1835
336.00 0.1838
336.10 0.1842
336.20 0.1845
336.30 0.1849
336.40 0.1852
336.50 0.1856
336.60 0.1859
336.70 0.1863
336.80 0.1866
336.90 0.187
337.00 0.1873
337.10 0.1877
337.20 0.188
337.30 0.1884
337.40 0.1887
337.50 0.1891
337.60 0.1894
337.70 0.1898
337.80 0.1901
337.90 0.1905
338.00 0.1908
338.10 0.1912
338.20 0.1915
338.30 0.1919
338.40 0.1923
338.50 0.1926
338.60 0.193
338.70 0.1933
338.80 0.1937
338.90 0.1941
339.00 0.1944
339.10 0.1948
339.20 0.1951
339.30 0.1955
339.40 0.1958
339.50 0.1962
339.60 0.1965
339.70 0.1969
339.80 0.1973
339.90 0.1976
340.00 0.198
340.10 0.1983
340.20 0.1987
340.30 0.1991
340.40 0.1994
340.50 0.1998
340.60 0.2002
340.70 0.2005
340.80 0.2009
340.90 0.2012
341.00 0.2016
341.10 0.202
341.20 0.2023
341.30 0.2027
341.40 0.2031
341.50 0.2034
341.60 0.2038
341.70 0.2041
341.80 0.2045
341.90 0.2049
342.00 0.2052
342.10 0.2056
342.20 0.206
342.30 0.2063
342.40 0.2067
342.50 0.2071
342.60 0.2075
342.70 0.2078
342.80 0.2082
342.90 0.2086
343.00 0.2089
343.10 0.2093
343.20 0.2097
343.30 0.2101
343.40 0.2104
343.50 0.2108
343.60 0.2112
343.70 0.2115
343.80 0.2119
343.90 0.2123
344.00 0.2126
344.10 0.213
344.20 0.2134
344.30 0.2138
344.40 0.2141
344.50 0.2145
344.60 0.2149
344.70 0.2153
344.80 0.2157
344.90 0.216
345.00 0.2164
345.10 0.2168
345.20 0.2172
345.30 0.2175
345.40 0.2179
345.50 0.2183
345.60 0.2187
345.70 0.219
345.80 0.2194
345.90 0.2198
346.00 0.2202
346.10 0.2206
346.20 0.2209
346.30 0.2213
346.40 0.2217
346.50 0.2221
346.60 0.2225
346.70 0.2229
346.80 0.2233
346.90 0.2236
347.00 0.224
347.10 0.2244
347.20 0.2248
347.30 0.2252
347.40 0.2255
347.50 0.2259
347.60 0.2263
347.70 0.2267
347.80 0.2271
347.90 0.2274
348.00 0.2278
348.10 0.2282
348.20 0.2286
348.30 0.229
348.40 0.2294
348.50 0.2298
348.60 0.2302
348.70 0.2306
348.80 0.231
348.90 0.2314
349.00 0.2317
349.10 0.2321
349.20 0.2325
349.30 0.2329
349.40 0.2333
349.50 0.2337
349.60 0.2341
349.70 0.2345
349.80 0.2348
349.90 0.2352
350.00 0.2356
350.10 0.236
350.20 0.2364
350.30 0.2368
350.40 0.2372
350.50 0.2376
350.60 0.238
350.70 0.2384
350.80 0.2388
350.90 0.2392
351.00 0.2396
351.10 0.24
351.20 0.2404
351.30 0.2408
351.40 0.2412
351.50 0.2416
351.60 0.242
351.70 0.2424
351.80 0.2428
351.90 0.2431
352.00 0.2435
352.10 0.2439
352.20 0.2444
352.30 0.2448
352.40 0.2452
352.50 0.2456
352.60 0.246
352.70 0.2464
352.80 0.2468
352.90 0.2472
353.00 0.2476
353.10 0.248
353.20 0.2484
353.30 0.2488
353.40 0.2492
353.50 0.2496
353.60 0.25
353.70 0.2504
353.80 0.2508
353.90 0.2512
354.00 0.2516
354.10 0.252
354.20 0.2524
354.30 0.2528
354.40 0.2532
354.50 0.2536
354.60 0.2541
354.70 0.2545
354.80 0.2549
354.90 0.2553
355.00 0.2557
355.10 0.2561
355.20 0.2565
355.30 0.2569
355.40 0.2573
355.50 0.2577
355.60 0.2581
355.70 0.2585
355.80 0.2589
355.90 0.2593
356.00 0.2598
356.10 0.2602
356.20 0.2606
356.30 0.261
356.40 0.2614
356.50 0.2618
356.60 0.2623
356.70 0.2627
356.80 0.2631
356.90 0.2635
357.00 0.2639
357.10 0.2643
357.20 0.2647
357.30 0.2652
357.40 0.2656
357.50 0.266
357.60 0.2664
357.70 0.2668
357.80 0.2672
357.90 0.2676
358.00 0.268
358.10 0.2685
358.20 0.2689
358.30 0.2693
358.40 0.2697
358.50 0.2702
358.60 0.2706
358.70 0.271
358.80 0.2714
358.90 0.2718
359.00 0.2723
359.10 0.2727
359.20 0.2731
359.30 0.2735
359.40 0.2739
359.50 0.2744
359.60 0.2748
359.70 0.2752
359.80 0.2756
359.90 0.276
360.00 0.2764
360.10 0.2769
360.20 0.2773
360.30 0.2777
360.40 0.2782
360.50 0.2786
360.60 0.279
360.70 0.2794
360.80 0.2799
360.90 0.2803
361.00 0.2807
361.10 0.2812
361.20 0.2816
361.30 0.282
361.40 0.2824
361.50 0.2829
361.60 0.2833
361.70 0.2837
361.80 0.2841
361.90 0.2845
362.00 0.285
362.10 0.2854
362.20 0.2858
362.30 0.2863
362.40 0.2867
362.50 0.2871
362.60 0.2876
362.70 0.288
362.80 0.2884
362.90 0.2888
363.00 0.2893
363.10 0.2897
363.20 0.2901
363.30 0.2906
363.40 0.291
363.50 0.2915
363.60 0.2919
363.70 0.2923
363.80 0.2928
363.90 0.2932
364.00 0.2936
364.10 0.2941
364.20 0.2945
364.30 0.2949
364.40 0.2953
364.50 0.2958
364.60 0.2962
364.70 0.2967
364.80 0.2971
364.90 0.2975
365.00 0.298
365.10 0.2984
365.20 0.2989
365.30 0.2993
365.40 0.2997
365.50 0.3002
365.60 0.3006
365.70 0.301
365.80 0.3015
365.90 0.3019
366.00 0.3023
366.10 0.3028
366.20 0.3032
366.30 0.3037
366.40 0.3041
366.50 0.3046
366.60 0.305
366.70 0.3055
366.80 0.3059
366.90 0.3064
367.00 0.3068
367.10 0.3072
367.20 0.3077
367.30 0.3081
367.40 0.3086
367.50 0.309
367.60 0.3094
367.70 0.3099
367.80 0.3103
367.90 0.3108
368.00 0.3112
368.10 0.3117
368.20 0.3121
368.30 0.3126
368.40 0.313
368.50 0.3135
368.60 0.3139
368.70 0.3144
368.80 0.3148
368.90 0.3153
369.00 0.3157
369.10 0.3162
369.20 0.3166
369.30 0.3171
369.40 0.3175
369.50 0.3179
369.60 0.3184
369.70 0.3188
369.80 0.3193
369.90 0.3197
370.00 0.3202
370.10 0.3206
370.20 0.3211
370.30 0.3215
370.40 0.322
370.50 0.3225
370.60 0.3229
370.70 0.3234
370.80 0.3238
370.90 0.3243
371.00 0.3247
371.10 0.3252
371.20 0.3256
371.30 0.3261
371.40 0.3265
371.50 0.327
371.60 0.3274
371.70 0.3279
371.80 0.3283
371.90 0.3288
372.00 0.3292
372.10 0.3297
372.20 0.3302
372.30 0.3306
372.40 0.3311
372.50 0.3315
372.60 0.332
372.70 0.3325
372.80 0.3329
372.90 0.3334
373.00 0.3338
373.10 0.3343
373.20 0.3348
373.30 0.3352
373.40 0.3357
373.50 0.3361
373.60 0.3366
373.70 0.337
373.80 0.3375
373.90 0.3379
374.00 0.3384
374.10 0.3389
374.20 0.3393
374.30 0.3398
374.40 0.3403
374.50 0.3407
374.60 0.3412
374.70 0.3417
374.80 0.3421
374.90 0.3426
375.00 0.3431
375.10 0.3435
375.20 0.344
375.30 0.3444
375.40 0.3449
375.50 0.3454
375.60 0.3458
375.70 0.3463
375.80 0.3468
375.90 0.3472
376.00 0.3477
376.10 0.3481
376.20 0.3486
376.30 0.3491
376.40 0.3495
376.50 0.35
376.60 0.3505
376.70 0.3509
376.80 0.3514
376.90 0.3519
377.00 0.3523
377.10 0.3528
377.20 0.3533
377.30 0.3537
377.40 0.3542
377.50 0.3547
377.60 0.3552
377.70 0.3556
377.80 0.3561
377.90 0.3566
378.00 0.357
378.10 0.3575
378.20 0.358
378.30 0.3584
378.40 0.3589
378.50 0.3594
378.60 0.3599
378.70 0.3603
378.80 0.3608
378.90 0.3613
379.00 0.3617
379.10 0.3622
379.20 0.3627
379.30 0.3632
379.40 0.3636
379.50 0.3641
379.60 0.3646
379.70 0.3651
379.80 0.3655
379.90 0.366
380.00 0.3665
380.10 0.367
380.20 0.3674
380.30 0.3679
380.40 0.3684
380.50 0.3689
380.60 0.3693
380.70 0.3698
380.80 0.3703
380.90 0.3708
381.00 0.3712
381.10 0.3717
381.20 0.3722
381.30 0.3727
381.40 0.3732
381.50 0.3736
381.60 0.3741
381.70 0.3746
381.80 0.3751
381.90 0.3756
382.00 0.376
382.10 0.3765
382.20 0.377
382.30 0.3775
382.40 0.378
382.50 0.3784
382.60 0.3789
382.70 0.3794
382.80 0.3799
382.90 0.3804
383.00 0.3808
383.10 0.3813
383.20 0.3818
383.30 0.3823
383.40 0.3828
383.50 0.3832
383.60 0.3837
383.70 0.3842
383.80 0.3847
383.90 0.3852
384.00 0.3857
384.10 0.3861
384.20 0.3866
384.30 0.3871
384.40 0.3876
384.50 0.3881
384.60 0.3886
384.70 0.3891
384.80 0.3895
384.90 0.39
385.00 0.3905
385.10 0.391
385.20 0.3915
385.30 0.392
385.40 0.3925
385.50 0.3929
385.60 0.3934
385.70 0.3939
385.80 0.3944
385.90 0.3949
386.00 0.3954
386.10 0.3959
386.20 0.3964
386.30 0.3968
386.40 0.3973
386.50 0.3978
386.60 0.3983
386.70 0.3988
386.80 0.3993
386.90 0.3998
387.00 0.4003
387.10 0.4008
387.20 0.4013
387.30 0.4017
387.40 0.4022
387.50 0.4027
387.60 0.4032
387.70 0.4037
387.80 0.4042
387.90 0.4047
388.00 0.4052
388.10 0.4057
388.20 0.4062
388.30 0.4067
388.40 0.4072
388.50 0.4076
388.60 0.4081
388.70 0.4086
388.80 0.4091
388.90 0.4096
389.00 0.4101
389.10 0.4106
389.20 0.4111
389.30 0.4116
389.40 0.4121
389.50 0.4126
389.60 0.4131
389.70 0.4136
389.80 0.4141
389.90 0.4146
390.00 0.4151
390.10 0.4156
390.20 0.4161
390.30 0.4166
390.40 0.417
390.50 0.4175
390.60 0.418
390.70 0.4185
390.80 0.419
390.90 0.4195
391.00 0.42
391.10 0.4205
391.20 0.421
391.30 0.4215
391.40 0.422
391.50 0.4225
391.60 0.423
391.70 0.4235
391.80 0.424
391.90 0.4245
392.00 0.425
392.10 0.4255
392.20 0.426
392.30 0.4265
392.40 0.427
392.50 0.4275
392.60 0.428
392.70 0.4285
392.80 0.429
392.90 0.4295
393.00 0.43
393.10 0.4305
393.20 0.431
393.30 0.4315
393.40 0.432
393.50 0.4325
393.60 0.433
393.70 0.4335
393.80 0.434
393.90 0.4345
394.00 0.435
394.10 0.4356
394.20 0.4361
394.30 0.4366
394.40 0.4371
394.50 0.4376
394.60 0.4381
394.70 0.4386
394.80 0.4391
394.90 0.4396
395.00 0.4401
395.10 0.4406
395.20 0.4411
395.30 0.4416
395.40 0.4421
395.50 0.4426
395.60 0.4431
395.70 0.4436
395.80 0.4441
395.90 0.4446
396.00 0.4452
396.10 0.4457
396.20 0.4462
396.30 0.4467
396.40 0.4472
396.50 0.4477
396.60 0.4482
396.70 0.4487
396.80 0.4492
396.90 0.4497
397.00 0.4502
397.10 0.4507
397.20 0.4512
397.30 0.4518
397.40 0.4523
397.50 0.4528
397.60 0.4533
397.70 0.4538
397.80 0.4543
397.90 0.4548
398.00 0.4553
398.10 0.4558
398.20 0.4563
398.30 0.4569
398.40 0.4574
398.50 0.4579
398.60 0.4584
398.70 0.4589
398.80 0.4594
398.90 0.4599
399.00 0.4604
399.10 0.4609
399.20 0.4615
399.30 0.462
399.40 0.4625
399.50 0.463
399.60 0.4635
399.70 0.464
399.80 0.4645
399.90 0.465
400.00 0.4655
400.10 0.4661
400.20 0.4666
400.30 0.4671
400.40 0.4676
400.50 0.4681
400.60 0.4686
400.70 0.4691
400.80 0.4697
400.90 0.4702
401.00 0.4707
401.10 0.4712
401.20 0.4717
401.30 0.4722
401.40 0.4727
401.50 0.4733
401.60 0.4738
401.70 0.4743
401.80 0.4748
401.90 0.4753
402.00 0.4759
402.10 0.4764
402.20 0.4769
402.30 0.4774
402.40 0.4779
402.50 0.4785
402.60 0.479
402.70 0.4795
402.80 0.48
402.90 0.4805
403.00 0.481
403.10 0.4815
403.20 0.4821
403.30 0.4826
403.40 0.4831
403.50 0.4836
403.60 0.4841
403.70 0.4846
403.80 0.4852
403.90 0.4857
404.00 0.4862
404.10 0.4867
404.20 0.4872
404.30 0.4878
404.40 0.4883
404.50 0.4888
404.60 0.4893
404.70 0.4898
404.80 0.4903
404.90 0.4909
405.00 0.4914
405.10 0.4919
405.20 0.4925
405.30 0.493
405.40 0.4935
405.50 0.494
405.60 0.4945
405.70 0.495
405.80 0.4956
405.90 0.4961
406.00 0.4966
406.10 0.4971
406.20 0.4977
406.30 0.4982
406.40 0.4987
406.50 0.4992
406.60 0.4998
406.70 0.5003
406.80 0.5008
406.90 0.5013
407.00 0.5018
407.10 0.5024
407.20 0.5029
407.30 0.5034
407.40 0.5039
407.50 0.5045
407.60 0.505
407.70 0.5055
407.80 0.506
407.90 0.5066
408.00 0.5071
408.10 0.5076
408.20 0.5081
408.30 0.5087
408.40 0.5092
408.50 0.5097
408.60 0.5102
408.70 0.5108
408.80 0.5113
408.90 0.5118
409.00 0.5124
409.10 0.5129
409.20 0.5134
409.30 0.5139
409.40 0.5144
409.50 0.515
409.60 0.5155
409.70 0.516
409.80 0.5166
409.90 0.5171
410.00 0.5176
410.10 0.5181
410.20 0.5186
410.30 0.5192
410.40 0.5197
410.50 0.5203
410.60 0.5208
410.70 0.5213
410.80 0.5218
410.90 0.5224
411.00 0.5229
411.10 0.5234
411.20 0.5239
411.30 0.5244
411.40 0.525
411.50 0.5255
411.60 0.526
411.70 0.5266
411.80 0.5271
411.90 0.5276
412.00 0.5282
412.10 0.5287
412.20 0.5292
412.30 0.5297
412.40 0.5303
412.50 0.5308
412.60 0.5314
412.70 0.5319
412.80 0.5324
412.90 0.5329
413.00 0.5335
413.10 0.534
413.20 0.5345
413.30 0.5351
413.40 0.5356
413.50 0.5361
413.60 0.5367
413.70 0.5372
413.80 0.5377
413.90 0.5383
414.00 0.5388
414.10 0.5393
414.20 0.5398
414.30 0.5404
414.40 0.5409
414.50 0.5414
414.60 0.542
414.70 0.5425
414.80 0.543
414.90 0.5436
415.00 0.5441
415.10 0.5446
415.20 0.5452
415.30 0.5457
415.40 0.5462
415.50 0.5467
415.60 0.5473
415.70 0.5478
415.80 0.5484
415.90 0.5489
416.00 0.5494
416.10 0.55
416.20 0.5505
416.30 0.551
416.40 0.5516
416.50 0.5521
416.60 0.5526
416.70 0.5531
416.80 0.5537
416.90 0.5542
417.00 0.5548
417.10 0.5553
417.20 0.5558
417.30 0.5564
417.40 0.5569
417.50 0.5574
417.60 0.558
417.70 0.5585
417.80 0.559
417.90 0.5596
418.00 0.5601
418.10 0.5606
418.20 0.5612
418.30 0.5617
418.40 0.5623
418.50 0.5628
418.60 0.5633
418.70 0.5639
418.80 0.5644
418.90 0.5649
419.00 0.5655
419.10 0.566
419.20 0.5666
419.30 0.5671
419.40 0.5676
419.50 0.5682
419.60 0.5687
419.70 0.5692
419.80 0.5698
419.90 0.5703
420.00 0.5709
420.10 0.5714
420.20 0.5719
420.30 0.5725
420.40 0.573
420.50 0.5735
420.60 0.5741
420.70 0.5746
420.80 0.5752
420.90 0.5757
421.00 0.5762
421.10 0.5768
421.20 0.5773
421.30 0.5778
421.40 0.5784
421.50 0.5789
421.60 0.5795
421.70 0.58
421.80 0.5805
421.90 0.5811
422.00 0.5816
422.10 0.5821
422.20 0.5827
422.30 0.5832
422.40 0.5838
422.50 0.5843
422.60 0.5848
422.70 0.5854
422.80 0.5859
422.90 0.5864
423.00 0.587
423.10 0.5875
423.20 0.5881
423.30 0.5886
423.40 0.5891
423.50 0.5897
423.60 0.5902
423.70 0.5908
423.80 0.5913
423.90 0.5918
424.00 0.5924
424.10 0.5929
424.20 0.5935
424.30 0.594
424.40 0.5946
424.50 0.5951
424.60 0.5956
424.70 0.5962
424.80 0.5967
424.90 0.5973
425.00 0.5978
425.10 0.5983
425.20 0.5989
425.30 0.5994
425.40 0.6
425.50 0.6005
425.60 0.6011
425.70 0.6016
425.80 0.6021
425.90 0.6027
426.00 0.6032
426.10 0.6038
426.20 0.6043
426.30 0.6048
426.40 0.6054
426.50 0.6059
426.60 0.6065
426.70 0.607
426.80 0.6075
426.90 0.6081
427.00 0.6086
427.10 0.6092
427.20 0.6097
427.30 0.6103
427.40 0.6108
427.50 0.6114
427.60 0.6119
427.70 0.6124
427.80 0.613
427.90 0.6135
428.00 0.614
428.10 0.6146
428.20 0.6151
428.30 0.6157
428.40 0.6162
428.50 0.6168
428.60 0.6173
428.70 0.6179
428.80 0.6184
428.90 0.6189
429.00 0.6195
429.10 0.62
429.20 0.6206
429.30 0.6211
429.40 0.6216
429.50 0.6222
429.60 0.6227
429.70 0.6233
429.80 0.6238
429.90 0.6244
430.00 0.6249
430.10 0.6255
430.20 0.626
430.30 0.6266
430.40 0.6271
430.50 0.6276
430.60 0.6282
430.70 0.6287
430.80 0.6293
430.90 0.6298
431.00 0.6304
431.10 0.6309
431.20 0.6314
431.30 0.632
431.40 0.6325
431.50 0.6331
431.60 0.6336
431.70 0.6342
431.80 0.6347
431.90 0.6353
432.00 0.6358
432.10 0.6363
432.20 0.6369
432.30 0.6374
432.40 0.638
432.50 0.6385
432.60 0.6391
432.70 0.6396
432.80 0.6402
432.90 0.6407
433.00 0.6413
433.10 0.6418
433.20 0.6424
433.30 0.6429
433.40 0.6435
433.50 0.644
433.60 0.6445
433.70 0.6451
433.80 0.6456
433.90 0.6462
434.00 0.6467
434.10 0.6472
434.20 0.6478
434.30 0.6483
434.40 0.6489
434.50 0.6494
434.60 0.65
434.70 0.6505
434.80 0.6511
434.90 0.6516
435.00 0.6522
435.10 0.6527
435.20 0.6533
435.30 0.6538
435.40 0.6544
435.50 0.6549
435.60 0.6554
435.70 0.656
435.80 0.6565
435.90 0.6571
436.00 0.6576
436.10 0.6582
436.20 0.6587
436.30 0.6593
436.40 0.6598
436.50 0.6604
436.60 0.6609
436.70 0.6615
436.80 0.662
436.90 0.6626
437.00 0.6631
437.10 0.6636
437.20 0.6642
437.30 0.6647
437.40 0.6653
437.50 0.6658
437.60 0.6664
437.70 0.6669
437.80 0.6674
437.90 0.668
438.00 0.6685
438.10 0.6691
438.20 0.6697
438.30 0.6702
438.40 0.6707
438.50 0.6713
438.60 0.6718
438.70 0.6724
438.80 0.6729
438.90 0.6735
439.00 0.674
439.10 0.6746
439.20 0.6751
439.30 0.6757
439.40 0.6762
439.50 0.6767
439.60 0.6773
439.70 0.6778
439.80 0.6784
439.90 0.6789
440.00 0.6795
440.10 0.68
440.20 0.6806
440.30 0.6811
440.40 0.6817
440.50 0.6822
440.60 0.6828
440.70 0.6833
440.80 0.6839
440.90 0.6844
441.00 0.685
441.10 0.6855
441.20 0.686
441.30 0.6866
441.40 0.6871
441.50 0.6877
441.60 0.6882
441.70 0.6888
441.80 0.6893
441.90 0.6899
442.00 0.6904
442.10 0.691
442.20 0.6915
442.30 0.6921
442.40 0.6926
442.50 0.6932
442.60 0.6937
442.70 0.6943
442.80 0.6948
442.90 0.6954
443.00 0.6959
443.10 0.6965
443.20 0.697
443.30 0.6976
443.40 0.6981
443.50 0.6986
443.60 0.6992
443.70 0.6997
443.80 0.7003
443.90 0.7008
444.00 0.7014
444.10 0.7019
444.20 0.7025
444.30 0.703
444.40 0.7036
444.50 0.7041
444.60 0.7047
444.70 0.7052
444.80 0.7058
444.90 0.7063
445.00 0.7069
445.10 0.7074
445.20 0.708
445.30 0.7085
445.40 0.709
445.50 0.7096
445.60 0.7101
445.70 0.7107
445.80 0.7112
445.90 0.7118
446.00 0.7123
446.10 0.7129
446.20 0.7134
446.30 0.714
446.40 0.7145
446.50 0.7151
446.60 0.7156
446.70 0.7162
446.80 0.7167
446.90 0.7173
447.00 0.7178
447.10 0.7183
447.20 0.7189
447.30 0.7194
447.40 0.72
447.50 0.7205
447.60 0.7211
447.70 0.7216
447.80 0.7222
447.90 0.7227
448.00 0.7233
448.10 0.7238
448.20 0.7244
448.30 0.7249
448.40 0.7255
448.50 0.726
448.60 0.7266
448.70 0.7271
448.80 0.7276
448.90 0.7282
449.00 0.7288
449.10 0.7293
449.20 0.7298
449.30 0.7304
449.40 0.7309
449.50 0.7315
449.60 0.732
449.70 0.7326
449.80 0.7331
449.90 0.7337
450.00 0.7342
450.10 0.7348
450.20 0.7353
450.30 0.7359
450.40 0.7364
450.50 0.737
450.60 0.7375
450.70 0.7381
450.80 0.7386
450.90 0.7392
451.00 0.7397
451.10 0.7402
451.20 0.7408
451.30 0.7413
451.40 0.7419
451.50 0.7424
451.60 0.743
451.70 0.7435
451.80 0.7441
451.90 0.7446
452.00 0.7452
452.10 0.7457
452.20 0.7462
452.30 0.7468
452.40 0.7474
452.50 0.7479
452.60 0.7484
452.70 0.749
452.80 0.7495
452.90 0.7501
453.00 0.7506
453.10 0.7512
453.20 0.7517
453.30 0.7523
453.40 0.7528
453.50 0.7534
453.60 0.7539
453.70 0.7545
453.80 0.755
453.90 0.7555
454.00 0.7561
454.10 0.7566
454.20 0.7572
454.30 0.7577
454.40 0.7583
454.50 0.7588
454.60 0.7594
454.70 0.7599
454.80 0.7605
454.90 0.761
455.00 0.7616
455.10 0.7621
455.20 0.7626
455.30 0.7632
455.40 0.7637
455.50 0.7643
455.60 0.7648
455.70 0.7654
455.80 0.7659
455.90 0.7665
456.00 0.767
456.10 0.7676
456.20 0.7681
456.30 0.7687
456.40 0.7692
456.50 0.7697
456.60 0.7703
456.70 0.7708
456.80 0.7714
456.90 0.7719
457.00 0.7725
457.10 0.773
457.20 0.7736
457.30 0.7741
457.40 0.7746
457.50 0.7752
457.60 0.7757
457.70 0.7763
457.80 0.7768
457.90 0.7774
458.00 0.7779
458.10 0.7785
458.20 0.779
458.30 0.7795
458.40 0.7801
458.50 0.7806
458.60 0.7812
458.70 0.7817
458.80 0.7823
458.90 0.7828
459.00 0.7833
459.10 0.7839
459.20 0.7844
459.30 0.785
459.40 0.7855
459.50 0.7861
459.60 0.7866
459.70 0.7872
459.80 0.7877
459.90 0.7882
460.00 0.7888
460.10 0.7893
460.20 0.7899
460.30 0.7904
460.40 0.791
460.50 0.7915
460.60 0.7921
460.70 0.7926
460.80 0.7931
460.90 0.7937
461.00 0.7942
461.10 0.7948
461.20 0.7953
461.30 0.7959
461.40 0.7964
461.50 0.7969
461.60 0.7975
461.70 0.798
461.80 0.7986
461.90 0.7991
462.00 0.7997
462.10 0.8002
462.20 0.8007
462.30 0.8013
462.40 0.8018
462.50 0.8024
462.60 0.8029
462.70 0.8035
462.80 0.804
462.90 0.8045
463.00 0.8051
463.10 0.8056
463.20 0.8062
463.30 0.8067
463.40 0.8073
463.50 0.8078
463.60 0.8083
463.70 0.8089
463.80 0.8094
463.90 0.81
464.00 0.8105
464.10 0.811
464.20 0.8116
464.30 0.8121
464.40 0.8127
464.50 0.8132
464.60 0.8138
464.70 0.8143
464.80 0.8148
464.90 0.8154
465.00 0.8159
465.10 0.8165
465.20 0.817
465.30 0.8175
465.40 0.8181
465.50 0.8186
465.60 0.8192
465.70 0.8197
465.80 0.8203
465.90 0.8208
466.00 0.8213
466.10 0.8219
466.20 0.8224
466.30 0.823
466.40 0.8235
466.50 0.824
466.60 0.8246
466.70 0.8251
466.80 0.8257
466.90 0.8262
467.00 0.8267
467.10 0.8273
467.20 0.8278
467.30 0.8284
467.40 0.8289
467.50 0.8294
467.60 0.83
467.70 0.8305
467.80 0.8311
467.90 0.8316
468.00 0.8321
468.10 0.8327
468.20 0.8332
468.30 0.8338
468.40 0.8343
468.50 0.8348
468.60 0.8354
468.70 0.8359
468.80 0.8365
468.90 0.837
469.00 0.8375
469.10 0.8381
469.20 0.8386
469.30 0.8391
469.40 0.8397
469.50 0.8402
469.60 0.8408
469.70 0.8413
469.80 0.8418
469.90 0.8424
470.00 0.8429
470.10 0.8435
470.20 0.844
470.30 0.8445
470.40 0.8451
470.50 0.8456
470.60 0.8462
470.70 0.8467
470.80 0.8472
470.90 0.8478
471.00 0.8483
471.10 0.8488
471.20 0.8494
471.30 0.8499
471.40 0.8505
471.50 0.851
471.60 0.8515
471.70 0.8521
471.80 0.8526
471.90 0.8531
472.00 0.8537
472.10 0.8542
472.20 0.8547
472.30 0.8553
472.40 0.8558
472.50 0.8564
472.60 0.8569
472.70 0.8574
472.80 0.858
472.90 0.8585
473.00 0.859
473.10 0.8596
473.20 0.8601
473.30 0.8606
473.40 0.8612
473.50 0.8617
473.60 0.8622
473.70 0.8628
473.80 0.8633
473.90 0.8639
474.00 0.8644
474.10 0.8649
474.20 0.8655
474.30 0.866
474.40 0.8665
474.50 0.8671
474.60 0.8676
474.70 0.8681
474.80 0.8687
474.90 0.8692
475.00 0.8697
475.10 0.8703
475.20 0.8708
475.30 0.8713
475.40 0.8719
475.50 0.8724
475.60 0.8729
475.70 0.8735
475.80 0.874
475.90 0.8745
476.00 0.8751
476.10 0.8756
476.20 0.8761
476.30 0.8767
476.40 0.8772
476.50 0.8777
476.60 0.8783
476.70 0.8788
476.80 0.8793
476.90 0.8799
477.00 0.8804
477.10 0.8809
477.20 0.8815
477.30 0.882
477.40 0.8825
477.50 0.8831
477.60 0.8836
477.70 0.8841
477.80 0.8847
477.90 0.8852
478.00 0.8857
478.10 0.8863
478.20 0.8868
478.30 0.8873
478.40 0.8878
478.50 0.8884
478.60 0.8889
478.70 0.8894
478.80 0.89
478.90 0.8905
479.00 0.891
479.10 0.8916
479.20 0.8921
479.30 0.8926
479.40 0.8931
479.50 0.8937
479.60 0.8942
479.70 0.8947
479.80 0.8953
479.90 0.8958
480.00 0.8963
480.10 0.8968
480.20 0.8974
480.30 0.8979
480.40 0.8984
480.50 0.899
480.60 0.8995
480.70 0.9
480.80 0.9006
480.90 0.9011
481.00 0.9016
481.10 0.9022
481.20 0.9027
481.30 0.9032
481.40 0.9037
481.50 0.9043
481.60 0.9048
481.70 0.9053
481.80 0.9058
481.90 0.9064
482.00 0.9069
482.10 0.9074
482.20 0.908
482.30 0.9085
482.40 0.909
482.50 0.9095
482.60 0.9101
482.70 0.9106
482.80 0.9111
482.90 0.9117
483.00 0.9122
483.10 0.9127
483.20 0.9132
483.30 0.9138
483.40 0.9143
483.50 0.9148
483.60 0.9153
483.70 0.9159
483.80 0.9164
483.90 0.9169
484.00 0.9174
484.10 0.9179
484.20 0.9185
484.30 0.919
484.40 0.9195
484.50 0.9201
484.60 0.9206
484.70 0.9211
484.80 0.9216
484.90 0.9222
485.00 0.9227
485.10 0.9232
485.20 0.9237
485.30 0.9242
485.40 0.9248
485.50 0.9253
485.60 0.9258
485.70 0.9264
485.80 0.9269
485.90 0.9274
486.00 0.9279
486.10 0.9284
486.20 0.929
486.30 0.9295
486.40 0.93
486.50 0.9305
486.60 0.9311
486.70 0.9316
486.80 0.9321
486.90 0.9326
487.00 0.9332
487.10 0.9337
487.20 0.9342
487.30 0.9347
487.40 0.9352
487.50 0.9358
487.60 0.9363
487.70 0.9368
487.80 0.9373
487.90 0.9378
488.00 0.9384
488.10 0.9389
488.20 0.9394
488.30 0.9399
488.40 0.9405
488.50 0.941
488.60 0.9415
488.70 0.942
488.80 0.9425
488.90 0.9431
489.00 0.9436
489.10 0.9441
489.20 0.9446
489.30 0.9451
489.40 0.9456
489.50 0.9462
489.60 0.9467
489.70 0.9472
489.80 0.9477
489.90 0.9482
490.00 0.9488
490.10 0.9493
490.20 0.9498
490.30 0.9503
490.40 0.9508
490.50 0.9513
490.60 0.9519
490.70 0.9524
490.80 0.9529
490.90 0.9534
491.00 0.9539
491.10 0.9545
491.20 0.955
491.30 0.9555
491.40 0.956
491.50 0.9565
491.60 0.9571
491.70 0.9576
491.80 0.9581
491.90 0.9586
492.00 0.9591
492.10 0.9596
492.20 0.9602
492.30 0.9607
492.40 0.9612
492.50 0.9617
492.60 0.9622
492.70 0.9627
492.80 0.9632
492.90 0.9638
493.00 0.9643
493.10 0.9648
493.20 0.9653
493.30 0.9658
493.40 0.9663
493.50 0.9668
493.60 0.9674
493.70 0.9679
493.80 0.9684
493.90 0.9689
494.00 0.9694
494.10 0.9699
494.20 0.9704
494.30 0.971
494.40 0.9715
494.50 0.972
494.60 0.9725
494.70 0.973
494.80 0.9735
494.90 0.974
495.00 0.9745
495.10 0.975
495.20 0.9756
495.30 0.9761
495.40 0.9766
495.50 0.9771
495.60 0.9776
495.70 0.9781
495.80 0.9786
495.90 0.9791
496.00 0.9797
496.10 0.9802
496.20 0.9807
496.30 0.9812
496.40 0.9817
496.50 0.9822
496.60 0.9827
496.70 0.9832
496.80 0.9837
496.90 0.9843
497.00 0.9848
497.10 0.9853
497.20 0.9858
497.30 0.9863
497.40 0.9868
497.50 0.9873
497.60 0.9878
497.70 0.9883
497.80 0.9888
497.90 0.9893
498.00 0.9899
498.10 0.9904
498.20 0.9909
498.30 0.9914
498.40 0.9919
498.50 0.9924
498.60 0.9929
498.70 0.9934
498.80 0.9939
498.90 0.9944
499.00 0.9949
499.10 0.9955
499.20 0.996
499.30 0.9965
499.40 0.997
499.50 0.9975
499.60 0.998
499.70 0.9985
499.80 0.999
499.90 0.9995
500.00 1
500.10 1.001
500.20 1.001
500.30 1.002
500.40 1.002
500.50 1.003
500.60 1.003
500.70 1.004
500.80 1.004
500.90 1.005
501.00 1.005
501.10 1.006
501.20 1.006
501.30 1.007
501.40 1.007
501.50 1.008
501.60 1.008
501.70 1.009
501.80 1.009
501.90 1.01
502.00 1.01
502.10 1.011
502.20 1.011
502.30 1.012
502.40 1.012
502.50 1.013
502.60 1.013
502.70 1.014
502.80 1.014
502.90 1.015
503.00 1.015
503.10 1.016
503.20 1.016
503.30 1.017
503.40 1.017
503.50 1.018
503.60 1.018
503.70 1.019
503.80 1.019
503.90 1.02
504.00 1.02
504.10 1.021
504.20 1.021
504.30 1.022
504.40 1.022
504.50 1.023
504.60 1.023
504.70 1.024
504.80 1.024
504.90 1.025
505.00 1.025
505.10 1.026
505.20 1.026
505.30 1.027
505.40 1.027
505.50 1.028
505.60 1.028
505.70 1.029
505.80 1.029
505.90 1.03
506.00 1.03
506.10 1.031
506.20 1.031
506.30 1.032
506.40 1.032
506.50 1.033
506.60 1.033
506.70 1.034
506.80 1.034
506.90 1.035
507.00 1.035
507.10 1.036
507.20 1.036
507.30 1.037
507.40 1.037
507.50 1.038
507.60 1.038
507.70 1.039
507.80 1.039
507.90 1.039
508.00 1.04
508.10 1.04
508.20 1.041
508.30 1.041
508.40 1.042
508.50 1.042
508.60 1.043
508.70 1.043
508.80 1.044
508.90 1.044
509.00 1.045
509.10 1.045
509.20 1.046
509.30 1.046
509.40 1.047
509.50 1.047
509.60 1.048
509.70 1.048
509.80 1.049
509.90 1.049
510.00 1.05
510.10 1.05
510.20 1.051
510.30 1.051
510.40 1.052
510.50 1.052
510.60 1.053
510.70 1.053
510.80 1.054
510.90 1.054
511.00 1.055
511.10 1.055
511.20 1.056
511.30 1.056
511.40 1.057
511.50 1.057
511.60 1.058
511.70 1.058
511.80 1.059
511.90 1.059
512.00 1.06
512.10 1.06
512.20 1.061
512.30 1.061
512.40 1.062
512.50 1.062
512.60 1.063
512.70 1.063
512.80 1.064
512.90 1.064
513.00 1.064
513.10 1.065
513.20 1.065
513.30 1.066
513.40 1.066
513.50 1.067
513.60 1.067
513.70 1.068
513.80 1.068
513.90 1.069
514.00 1.069
514.10 1.07
514.20 1.07
514.30 1.071
514.40 1.071
514.50 1.072
514.60 1.072
514.70 1.073
514.80 1.073
514.90 1.074
515.00 1.074
515.10 1.075
515.20 1.075
515.30 1.076
515.40 1.076
515.50 1.077
515.60 1.077
515.70 1.078
515.80 1.078
515.90 1.079
516.00 1.079
516.10 1.079
516.20 1.08
516.30 1.08
516.40 1.081
516.50 1.081
516.60 1.082
516.70 1.082
516.80 1.083
516.90 1.083
517.00 1.084
517.10 1.084
517.20 1.085
517.30 1.085
517.40 1.086
517.50 1.086
517.60 1.087
517.70 1.087
517.80 1.088
517.90 1.088
518.00 1.089
518.10 1.089
518.20 1.09
518.30 1.09
518.40 1.091
518.50 1.091
518.60 1.091
518.70 1.092
518.80 1.092
518.90 1.093
519.00 1.093
519.10 1.094
519.20 1.094
519.30 1.095
519.40 1.095
519.50 1.096
519.60 1.096
519.70 1.097
519.80 1.097
519.90 1.098
520.00 1.098
520.10 1.099
520.20 1.099
520.30 1.1
520.40 1.1
520.50 1.1
520.60 1.101
520.70 1.101
520.80 1.102
520.90 1.102
521.00 1.103
521.10 1.103
521.20 1.104
521.30 1.104
521.40 1.105
521.50 1.105
521.60 1.106
521.70 1.106
521.80 1.107
521.90 1.107
522.00 1.108
522.10 1.108
522.20 1.109
522.30 1.109
522.40 1.109
522.50 1.11
522.60 1.11
522.70 1.111
522.80 1.111
522.90 1.112
523.00 1.112
523.10 1.113
523.20 1.113
523.30 1.114
523.40 1.114
523.50 1.115
523.60 1.115
523.70 1.116
523.80 1.116
523.90 1.116
524.00 1.117
524.10 1.117
524.20 1.118
524.30 1.118
524.40 1.119
524.50 1.119
524.60 1.12
524.70 1.12
524.80 1.121
524.90 1.121
525.00 1.122
525.10 1.122
525.20 1.123
525.30 1.123
525.40 1.123
525.50 1.124
525.60 1.124
525.70 1.125
525.80 1.125
525.90 1.126
526.00 1.126
526.10 1.127
526.20 1.127
526.30 1.128
526.40 1.128
526.50 1.129
526.60 1.129
526.70 1.129
526.80 1.13
526.90 1.13
527.00 1.131
527.10 1.131
527.20 1.132
527.30 1.132
527.40 1.133
527.50 1.133
527.60 1.134
527.70 1.134
527.80 1.135
527.90 1.135
528.00 1.135
528.10 1.136
528.20 1.136
528.30 1.137
528.40 1.137
528.50 1.138
528.60 1.138
528.70 1.139
528.80 1.139
528.90 1.14
529.00 1.14
529.10 1.141
529.20 1.141
529.30 1.141
529.40 1.142
529.50 1.142
529.60 1.143
529.70 1.143
529.80 1.144
529.90 1.144
530.00 1.145
530.10 1.145
530.20 1.146
530.30 1.146
530.40 1.146
530.50 1.147
530.60 1.147
530.70 1.148
530.80 1.148
530.90 1.149
531.00 1.149
531.10 1.15
531.20 1.15
531.30 1.151
531.40 1.151
531.50 1.151
531.60 1.152
531.70 1.152
531.80 1.153
531.90 1.153
532.00 1.154
532.10 1.154
532.20 1.155
532.30 1.155
532.40 1.156
532.50 1.156
532.60 1.156
532.70 1.157
532.80 1.157
532.90 1.158
533.00 1.158
533.10 1.159
533.20 1.159
533.30 1.16
533.40 1.16
533.50 1.16
533.60 1.161
533.70 1.161
533.80 1.162
533.90 1.162
534.00 1.163
534.10 1.163
534.20 1.164
534.30 1.164
534.40 1.165
534.50 1.165
534.60 1.165
534.70 1.166
534.80 1.166
534.90 1.167
535.00 1.167
535.10 1.168
535.20 1.168
535.30 1.169
535.40 1.169
535.50 1.169
535.60 1.17
535.70 1.17
535.80 1.171
535.90 1.171
536.00 1.172
536.10 1.172
536.20 1.173
536.30 1.173
536.40 1.173
536.50 1.174
536.60 1.174
536.70 1.175
536.80 1.175
536.90 1.176
537.00 1.176
537.10 1.177
537.20 1.177
537.30 1.177
537.40 1.178
537.50 1.178
537.60 1.179
537.70 1.179
537.80 1.18
537.90 1.18
538.00 1.181
538.10 1.181
538.20 1.181
538.30 1.182
538.40 1.182
538.50 1.183
538.60 1.183
538.70 1.184
538.80 1.184
538.90 1.184
539.00 1.185
539.10 1.185
539.20 1.186
539.30 1.186
539.40 1.187
539.50 1.187
539.60 1.188
539.70 1.188
539.80 1.188
539.90 1.189
540.00 1.189
540.10 1.19
540.20 1.19
540.30 1.191
540.40 1.191
540.50 1.191
540.60 1.192
540.70 1.192
540.80 1.193
540.90 1.193
541.00 1.194
541.10 1.194
541.20 1.195
541.30 1.195
541.40 1.195
541.50 1.196
541.60 1.196
541.70 1.197
541.80 1.197
541.90 1.198
542.00 1.198
542.10 1.198
542.20 1.199
542.30 1.199
542.40 1.2
542.50 1.2
542.60 1.201
542.70 1.201
542.80 1.201
542.90 1.202
543.00 1.202
543.10 1.203
543.20 1.203
543.30 1.204
543.40 1.204
543.50 1.204
543.60 1.205
543.70 1.205
543.80 1.206
543.90 1.206
544.00 1.207
544.10 1.207
544.20 1.207
544.30 1.208
544.40 1.208
544.50 1.209
544.60 1.209
544.70 1.21
544.80 1.21
544.90 1.21
545.00 1.211
545.10 1.211
545.20 1.212
545.30 1.212
545.40 1.213
545.50 1.213
545.60 1.213
545.70 1.214
545.80 1.214
545.90 1.215
546.00 1.215
546.10 1.216
546.20 1.216
546.30 1.216
546.40 1.217
546.50 1.217
546.60 1.218
546.70 1.218
546.80 1.219
546.90 1.219
547.00 1.219
547.10 1.22
547.20 1.22
547.30 1.221
547.40 1.221
547.50 1.221
547.60 1.222
547.70 1.222
547.80 1.223
547.90 1.223
548.00 1.224
548.10 1.224
548.20 1.224
548.30 1.225
548.40 1.225
548.50 1.226
548.60 1.226
548.70 1.227
548.80 1.227
548.90 1.227
549.00 1.228
549.10 1.228
549.20 1.229
549.30 1.229
549.40 1.229
549.50 1.23
549.60 1.23
549.70 1.231
549.80 1.231
549.90 1.232
550.00 1.232
550.10 1.232
550.20 1.233
550.30 1.233
550.40 1.234
550.50 1.234
550.60 1.234
550.70 1.235
550.80 1.235
550.90 1.236
551.00 1.236
551.10 1.237
551.20 1.237
551.30 1.237
551.40 1.238
551.50 1.238
551.60 1.239
551.70 1.239
551.80 1.239
551.90 1.24
552.00 1.24
552.10 1.241
552.20 1.241
552.30 1.241
552.40 1.242
552.50 1.242
552.60 1.243
552.70 1.243
552.80 1.244
552.90 1.244
553.00 1.244
553.10 1.245
553.20 1.245
553.30 1.246
553.40 1.246
553.50 1.246
553.60 1.247
553.70 1.247
553.80 1.248
553.90 1.248
554.00 1.248
554.10 1.249
554.20 1.249
554.30 1.25
554.40 1.25
554.50 1.25
554.60 1.251
554.70 1.251
554.80 1.252
554.90 1.252
555.00 1.252
555.10 1.253
555.20 1.253
555.30 1.254
555.40 1.254
555.50 1.255
555.60 1.255
555.70 1.255
555.80 1.256
555.90 1.256
556.00 1.257
556.10 1.257
556.20 1.257
556.30 1.258
556.40 1.258
556.50 1.259
556.60 1.259
556.70 1.259
556.80 1.26
556.90 1.26
557.00 1.261
557.10 1.261
557.20 1.261
557.30 1.262
557.40 1.262
557.50 1.263
557.60 1.263
557.70 1.263
557.80 1.264
557.90 1.264
558.00 1.265
558.10 1.265
558.20 1.265
558.30 1.266
558.40 1.266
558.50 1.267
558.60 1.267
558.70 1.267
558.80 1.268
558.90 1.268
559.00 1.269
559.10 1.269
559.20 1.269
559.30 1.27
559.40 1.27
559.50 1.271
559.60 1.271
559.70 1.271
559.80 1.272
559.90 1.272
560.00 1.272
560.10 1.273
560.20 1.273
560.30 1.274
560.40 1.274
560.50 1.274
560.60 1.275
560.70 1.275
560.80 1.276
560.90 1.276
561.00 1.276
561.10 1.277
561.20 1.277
561.30 1.278
561.40 1.278
561.50 1.278
561.60 1.279
561.70 1.279
561.80 1.28
561.90 1.28
562.00 1.28
562.10 1.281
562.20 1.281
562.30 1.282
562.40 1.282
562.50 1.282
562.60 1.283
562.70 1.283
562.80 1.283
562.90 1.284
563.00 1.284
563.10 1.285
563.20 1.285
563.30 1.285
563.40 1.286
563.50 1.286
563.60 1.287
563.70 1.287
563.80 1.287
563.90 1.288
564.00 1.288
564.10 1.288
564.20 1.289
564.30 1.289
564.40 1.29
564.50 1.29
564.60 1.29
564.70 1.291
564.80 1.291
564.90 1.292
565.00 1.292
565.10 1.292
565.20 1.293
565.30 1.293
565.40 1.293
565.50 1.294
565.60 1.294
565.70 1.295
565.80 1.295
565.90 1.295
566.00 1.296
566.10 1.296
566.20 1.297
566.30 1.297
566.40 1.297
566.50 1.298
566.60 1.298
566.70 1.298
566.80 1.299
566.90 1.299
567.00 1.3
567.10 1.3
567.20 1.3
567.30 1.301
567.40 1.301
567.50 1.301
567.60 1.302
567.70 1.302
567.80 1.303
567.90 1.303
568.00 1.303
568.10 1.304
568.20 1.304
568.30 1.304
568.40 1.305
568.50 1.305
568.60 1.306
568.70 1.306
568.80 1.306
568.90 1.307
569.00 1.307
569.10 1.307
569.20 1.308
569.30 1.308
569.40 1.309
569.50 1.309
569.60 1.309
569.70 1.31
569.80 1.31
569.90 1.31
570.00 1.311
570.10 1.311
570.20 1.312
570.30 1.312
570.40 1.312
570.50 1.313
570.60 1.313
570.70 1.313
570.80 1.314
570.90 1.314
571.00 1.315
571.10 1.315
571.20 1.315
571.30 1.316
571.40 1.316
571.50 1.316
571.60 1.317
571.70 1.317
571.80 1.317
571.90 1.318
572.00 1.318
572.10 1.319
572.20 1.319
572.30 1.319
572.40 1.32
572.50 1.32
572.60 1.32
572.70 1.321
572.80 1.321
572.90 1.321
573.00 1.322
573.10 1.322
573.20 1.323
573.30 1.323
573.40 1.323
573.50 1.324
573.60 1.324
573.70 1.324
573.80 1.325
573.90 1.325
574.00 1.325
574.10 1.326
574.20 1.326
574.30 1.327
574.40 1.327
574.50 1.327
574.60 1.328
574.70 1.328
574.80 1.328
574.90 1.329
575.00 1.329
575.10 1.329
575.20 1.33
575.30 1.33
575.40 1.331
575.50 1.331
575.60 1.331
575.70 1.332
575.80 1.332
575.90 1.332
576.00 1.333
576.10 1.333
576.20 1.333
576.30 1.334
576.40 1.334
576.50 1.334
576.60 1.335
576.70 1.335
576.80 1.336
576.90 1.336
577.00 1.336
577.10 1.337
577.20 1.337
577.30 1.337
577.40 1.338
577.50 1.338
577.60 1.338
577.70 1.339
577.80 1.339
577.90 1.339
578.00 1.34
578.10 1.34
578.20 1.34
578.30 1.341
578.40 1.341
578.50 1.342
578.60 1.342
578.70 1.342
578.80 1.343
578.90 1.343
579.00 1.343
579.10 1.344
579.20 1.344
579.30 1.344
579.40 1.345
579.50 1.345
579.60 1.345
579.70 1.346
579.80 1.346
579.90 1.346
580.00 1.347
580.10 1.347
580.20 1.348
580.30 1.348
580.40 1.348
580.50 1.349
580.60 1.349
580.70 1.349
580.80 1.35
580.90 1.35
581.00 1.35
581.10 1.351
581.20 1.351
581.30 1.351
581.40 1.352
581.50 1.352
581.60 1.352
581.70 1.353
581.80 1.353
581.90 1.353
582.00 1.354
582.10 1.354
582.20 1.354
582.30 1.355
582.40 1.355
582.50 1.355
582.60 1.356
582.70 1.356
582.80 1.356
582.90 1.357
583.00 1.357
583.10 1.357
583.20 1.358
583.30 1.358
583.40 1.359
583.50 1.359
583.60 1.359
583.70 1.36
583.80 1.36
583.90 1.36
584.00 1.361
584.10 1.361
584.20 1.361
584.30 1.362
584.40 1.362
584.50 1.362
584.60 1.363
584.70 1.363
584.80 1.363
584.90 1.364
585.00 1.364
585.10 1.364
585.20 1.365
585.30 1.365
585.40 1.365
585.50 1.366
585.60 1.366
585.70 1.366
585.80 1.367
585.90 1.367
586.00 1.367
586.10 1.368
586.20 1.368
586.30 1.368
586.40 1.369
586.50 1.369
586.60 1.369
586.70 1.37
586.80 1.37
586.90 1.37
587.00 1.371
587.10 1.371
587.20 1.371
587.30 1.372
587.40 1.372
587.50 1.372
587.60 1.373
587.70 1.373
587.80 1.373
587.90 1.374
588.00 1.374
588.10 1.374
588.20 1.375
588.30 1.375
588.40 1.375
588.50 1.375
588.60 1.376
588.70 1.376
588.80 1.376
588.90 1.377
589.00 1.377
589.10 1.377
589.20 1.378
589.30 1.378
589.40 1.378
589.50 1.379
589.60 1.379
589.70 1.379
589.80 1.38
589.90 1.38
590.00 1.38
590.10 1.381
590.20 1.381
590.30 1.381
590.40 1.382
590.50 1.382
590.60 1.382
590.70 1.383
590.80 1.383
590.90 1.383
591.00 1.384
591.10 1.384
591.20 1.384
591.30 1.385
591.40 1.385
591.50 1.385
591.60 1.386
591.70 1.386
591.80 1.386
591.90 1.386
592.00 1.387
592.10 1.387
592.20 1.387
592.30 1.388
592.40 1.388
592.50 1.388
592.60 1.389
592.70 1.389
592.80 1.389
592.90 1.39
593.00 1.39
593.10 1.39
593.20 1.391
593.30 1.391
593.40 1.391
593.50 1.392
593.60 1.392
593.70 1.392
593.80 1.392
593.90 1.393
594.00 1.393
594.10 1.393
594.20 1.394
594.30 1.394
594.40 1.394
594.50 1.395
594.60 1.395
594.70 1.395
594.80 1.396
594.90 1.396
595.00 1.396
595.10 1.397
595.20 1.397
595.30 1.397
595.40 1.397
595.50 1.398
595.60 1.398
595.70 1.398
595.80 1.399
595.90 1.399
596.00 1.399
596.10 1.4
596.20 1.4
596.30 1.4
596.40 1.401
596.50 1.401
596.60 1.401
596.70 1.401
596.80 1.402
596.90 1.402
597.00 1.402
597.10 1.403
597.20 1.403
597.30 1.403
597.40 1.404
597.50 1.404
597.60 1.404
597.70 1.404
597.80 1.405
597.90 1.405
598.00 1.405
598.10 1.406
598.20 1.406
598.30 1.406
598.40 1.407
598.50 1.407
598.60 1.407
598.70 1.408
598.80 1.408
598.90 1.408
599.00 1.408
599.10 1.409
599.20 1.409
599.30 1.409
599.40 1.41
599.50 1.41
599.60 1.41
599.70 1.411
599.80 1.411
599.90 1.411
600.00 1.411
600.10 1.412
600.20 1.412
600.30 1.412
600.40 1.413
600.50 1.413
600.60 1.413
600.70 1.413
600.80 1.414
600.90 1.414
601.00 1.414
601.10 1.415
601.20 1.415
601.30 1.415
601.40 1.416
601.50 1.416
601.60 1.416
601.70 1.416
601.80 1.417
601.90 1.417
602.00 1.417
602.10 1.418
602.20 1.418
602.30 1.418
602.40 1.418
602.50 1.419
602.60 1.419
602.70 1.419
602.80 1.42
602.90 1.42
603.00 1.42
603.10 1.42
603.20 1.421
603.30 1.421
603.40 1.421
603.50 1.422
603.60 1.422
603.70 1.422
603.80 1.423
603.90 1.423
604.00 1.423
604.10 1.423
604.20 1.424
604.30 1.424
604.40 1.424
604.50 1.425
604.60 1.425
604.70 1.425
604.80 1.425
604.90 1.426
605.00 1.426
605.10 1.426
605.20 1.427
605.30 1.427
605.40 1.427
605.50 1.427
605.60 1.428
605.70 1.428
605.80 1.428
605.90 1.428
606.00 1.429
606.10 1.429
606.20 1.429
606.30 1.43
606.40 1.43
606.50 1.43
606.60 1.43
606.70 1.431
606.80 1.431
606.90 1.431
607.00 1.432
607.10 1.432
607.20 1.432
607.30 1.432
607.40 1.433
607.50 1.433
607.60 1.433
607.70 1.433
607.80 1.434
607.90 1.434
608.00 1.434
608.10 1.435
608.20 1.435
608.30 1.435
608.40 1.435
608.50 1.436
608.60 1.436
608.70 1.436
608.80 1.437
608.90 1.437
609.00 1.437
609.10 1.437
609.20 1.438
609.30 1.438
609.40 1.438
609.50 1.438
609.60 1.439
609.70 1.439
609.80 1.439
609.90 1.44
610.00 1.44
610.10 1.44
610.20 1.44
610.30 1.441
610.40 1.441
610.50 1.441
610.60 1.441
610.70 1.442
610.80 1.442
610.90 1.442
611.00 1.442
611.10 1.443
611.20 1.443
611.30 1.443
611.40 1.444
611.50 1.444
611.60 1.444
611.70 1.444
611.80 1.445
611.90 1.445
612.00 1.445
612.10 1.445
612.20 1.446
612.30 1.446
612.40 1.446
612.50 1.446
612.60 1.447
612.70 1.447
612.80 1.447
612.90 1.447
613.00 1.448
613.10 1.448
613.20 1.448
613.30 1.449
613.40 1.449
613.50 1.449
613.60 1.449
613.70 1.45
613.80 1.45
613.90 1.45
614.00 1.45
614.10 1.451
614.20 1.451
614.30 1.451
614.40 1.451
614.50 1.452
614.60 1.452
614.70 1.452
614.80 1.452
614.90 1.453
615.00 1.453
615.10 1.453
615.20 1.453
615.30 1.454
615.40 1.454
615.50 1.454
615.60 1.454
615.70 1.455
615.80 1.455
615.90 1.455
616.00 1.455
616.10 1.456
616.20 1.456
616.30 1.456
616.40 1.456
616.50 1.457
616.60 1.457
616.70 1.457
616.80 1.457
616.90 1.458
617.00 1.458
617.10 1.458
617.20 1.458
617.30 1.459
617.40 1.459
617.50 1.459
617.60 1.459
617.70 1.46
617.80 1.46
617.90 1.46
618.00 1.46
618.10 1.461
618.20 1.461
618.30 1.461
618.40 1.461
618.50 1.462
618.60 1.462
618.70 1.462
618.80 1.462
618.90 1.463
619.00 1.463
619.10 1.463
619.20 1.463
619.30 1.464
619.40 1.464
619.50 1.464
619.60 1.464
619.70 1.465
619.80 1.465
619.90 1.465
620.00 1.465
620.10 1.466
620.20 1.466
620.30 1.466
620.40 1.466
620.50 1.467
620.60 1.467
620.70 1.467
620.80 1.467
620.90 1.467
621.00 1.468
621.10 1.468
621.20 1.468
621.30 1.468
621.40 1.469
621.50 1.469
621.60 1.469
621.70 1.469
621.80 1.47
621.90 1.47
622.00 1.47
622.10 1.47
622.20 1.471
622.30 1.471
622.40 1.471
622.50 1.471
622.60 1.471
622.70 1.472
622.80 1.472
622.90 1.472
623.00 1.472
623.10 1.473
623.20 1.473
623.30 1.473
623.40 1.473
623.50 1.474
623.60 1.474
623.70 1.474
623.80 1.474
623.90 1.474
624.00 1.475
624.10 1.475
624.20 1.475
624.30 1.475
624.40 1.476
624.50 1.476
624.60 1.476
624.70 1.476
624.80 1.477
624.90 1.477
625.00 1.477
625.10 1.477
625.20 1.477
625.30 1.478
625.40 1.478
625.50 1.478
625.60 1.478
625.70 1.479
625.80 1.479
625.90 1.479
626.00 1.479
626.10 1.479
626.20 1.48
626.30 1.48
626.40 1.48
626.50 1.48
626.60 1.481
626.70 1.481
626.80 1.481
626.90 1.481
627.00 1.481
627.10 1.482
627.20 1.482
627.30 1.482
627.40 1.482
627.50 1.483
627.60 1.483
627.70 1.483
627.80 1.483
627.90 1.483
628.00 1.484
628.10 1.484
628.20 1.484
628.30 1.484
628.40 1.484
628.50 1.485
628.60 1.485
628.70 1.485
628.80 1.485
628.90 1.486
629.00 1.486
629.10 1.486
629.20 1.486
629.30 1.486
629.40 1.487
629.50 1.487
629.60 1.487
629.70 1.487
629.80 1.487
629.90 1.488
630.00 1.488
630.10 1.488
630.20 1.488
630.30 1.488
630.40 1.489
630.50 1.489
630.60 1.489
630.70 1.489
630.80 1.49
630.90 1.49
631.00 1.49
631.10 1.49
631.20 1.49
631.30 1.491
631.40 1.491
631.50 1.491
631.60 1.491
631.70 1.491
631.80 1.492
631.90 1.492
632.00 1.492
632.10 1.492
632.20 1.492
632.30 1.493
632.40 1.493
632.50 1.493
632.60 1.493
632.70 1.493
632.80 1.494
632.90 1.494
633.00 1.494
633.10 1.494
633.20 1.494
633.30 1.495
633.40 1.495
633.50 1.495
633.60 1.495
633.70 1.495
633.80 1.496
633.90 1.496
634.00 1.496
634.10 1.496
634.20 1.496
634.30 1.497
634.40 1.497
634.50 1.497
634.60 1.497
634.70 1.497
634.80 1.497
634.90 1.498
635.00 1.498
635.10 1.498
635.20 1.498
635.30 1.498
635.40 1.499
635.50 1.499
635.60 1.499
635.70 1.499
635.80 1.499
635.90 1.5
636.00 1.5
636.10 1.5
636.20 1.5
636.30 1.5
636.40 1.501
636.50 1.501
636.60 1.501
636.70 1.501
636.80 1.501
636.90 1.501
637.00 1.502
637.10 1.502
637.20 1.502
637.30 1.502
637.40 1.502
637.50 1.503
637.60 1.503
637.70 1.503
637.80 1.503
637.90 1.503
638.00 1.503
638.10 1.504
638.20 1.504
638.30 1.504
638.40 1.504
638.50 1.504
638.60 1.505
638.70 1.505
638.80 1.505
638.90 1.505
639.00 1.505
639.10 1.505
639.20 1.506
639.30 1.506
639.40 1.506
639.50 1.506
639.60 1.506
639.70 1.507
639.80 1.507
639.90 1.507
640.00 1.507
640.10 1.507
640.20 1.507
640.30 1.508
640.40 1.508
640.50 1.508
640.60 1.508
640.70 1.508
640.80 1.508
640.90 1.509
641.00 1.509
641.10 1.509
641.20 1.509
641.30 1.509
641.40 1.509
641.50 1.51
641.60 1.51
641.70 1.51
641.80 1.51
641.90 1.51
642.00 1.51
642.10 1.511
642.20 1.511
642.30 1.511
642.40 1.511
642.50 1.511
642.60 1.511
642.70 1.512
642.80 1.512
642.90 1.512
643.00 1.512
643.10 1.512
643.20 1.512
643.30 1.513
643.40 1.513
643.50 1.513
643.60 1.513
643.70 1.513
643.80 1.513
643.90 1.513
644.00 1.514
644.10 1.514
644.20 1.514
644.30 1.514
644.40 1.514
644.50 1.514
644.60 1.515
644.70 1.515
644.80 1.515
644.90 1.515
645.00 1.515
645.10 1.515
645.20 1.516
645.30 1.516
645.40 1.516
645.50 1.516
645.60 1.516
645.70 1.516
645.80 1.516
645.90 1.517
646.00 1.517
646.10 1.517
646.20 1.517
646.30 1.517
646.40 1.517
646.50 1.517
646.60 1.518
646.70 1.518
646.80 1.518
646.90 1.518
647.00 1.518
647.10 1.518
647.20 1.519
647.30 1.519
647.40 1.519
647.50 1.519
647.60 1.519
647.70 1.519
647.80 1.519
647.90 1.52
648.00 1.52
648.10 1.52
648.20 1.52
648.30 1.52
648.40 1.52
648.50 1.52
648.60 1.521
648.70 1.521
648.80 1.521
648.90 1.521
649.00 1.521
649.10 1.521
649.20 1.521
649.30 1.521
649.40 1.522
649.50 1.522
649.60 1.522
649.70 1.522
649.80 1.522
649.90 1.522
650.00 1.522
650.10 1.523
650.20 1.523
650.30 1.523
650.40 1.523
650.50 1.523
650.60 1.523
650.70 1.523
650.80 1.523
650.90 1.524
651.00 1.524
651.10 1.524
651.20 1.524
651.30 1.524
651.40 1.524
651.50 1.524
651.60 1.524
651.70 1.525
651.80 1.525
651.90 1.525
652.00 1.525
652.10 1.525
652.20 1.525
652.30 1.525
652.40 1.525
652.50 1.526
652.60 1.526
652.70 1.526
652.80 1.526
652.90 1.526
653.00 1.526
653.10 1.526
653.20 1.526
653.30 1.527
653.40 1.527
653.50 1.527
653.60 1.527
653.70 1.527
653.80 1.527
653.90 1.527
654.00 1.527
654.10 1.527
654.20 1.528
654.30 1.528
654.40 1.528
654.50 1.528
654.60 1.528
654.70 1.528
654.80 1.528
654.90 1.528
655.00 1.528
655.10 1.529
655.20 1.529
655.30 1.529
655.40 1.529
655.50 1.529
655.60 1.529
655.70 1.529
655.80 1.529
655.90 1.529
656.00 1.53
656.10 1.53
656.20 1.53
656.30 1.53
656.40 1.53
656.50 1.53
656.60 1.53
656.70 1.53
656.80 1.53
656.90 1.53
657.00 1.531
657.10 1.531
657.20 1.531
657.30 1.531
657.40 1.531
657.50 1.531
657.60 1.531
657.70 1.531
657.80 1.531
657.90 1.531
658.00 1.532
658.10 1.532
658.20 1.532
658.30 1.532
658.40 1.532
658.50 1.532
658.60 1.532
658.70 1.532
658.80 1.532
658.90 1.532
659.00 1.533
659.10 1.533
659.20 1.533
659.30 1.533
659.40 1.533
659.50 1.533
659.60 1.533
659.70 1.533
659.80 1.533
659.90 1.533
660.00 1.533
660.10 1.533
660.20 1.534
660.30 1.534
660.40 1.534
660.50 1.534
660.60 1.534
660.70 1.534
660.80 1.534
660.90 1.534
661.00 1.534
661.10 1.534
661.20 1.534
661.30 1.534
661.40 1.535
661.50 1.535
661.60 1.535
661.70 1.535
661.80 1.535
661.90 1.535
662.00 1.535
662.10 1.535
662.20 1.535
662.30 1.535
662.40 1.535
662.50 1.535
662.60 1.535
662.70 1.535
662.80 1.536
662.90 1.536
663.00 1.536
663.10 1.536
663.20 1.536
663.30 1.536
663.40 1.536
663.50 1.536
663.60 1.536
663.70 1.536
663.80 1.536
663.90 1.536
664.00 1.536
664.10 1.536
664.20 1.537
664.30 1.537
664.40 1.537
664.50 1.537
664.60 1.537
664.70 1.537
664.80 1.537
664.90 1.537
665.00 1.537
665.10 1.537
665.20 1.537
665.30 1.537
665.40 1.537
665.50 1.537
665.60 1.537
665.70 1.537
665.80 1.537
665.90 1.537
666.00 1.538
666.10 1.538
666.20 1.538
666.30 1.538
666.40 1.538
666.50 1.538
666.60 1.538
666.70 1.538
666.80 1.538
666.90 1.538
667.00 1.538
667.10 1.538
667.20 1.538
667.30 1.538
667.40 1.538
667.50 1.538
667.60 1.538
667.70 1.538
667.80 1.538
667.90 1.538
668.00 1.538
668.10 1.538
668.20 1.539
668.30 1.539
668.40 1.539
668.50 1.539
668.60 1.539
668.70 1.539
668.80 1.539
668.90 1.539
669.00 1.539
669.10 1.539
669.20 1.539
669.30 1.539
669.40 1.539
669.50 1.539
669.60 1.539
669.70 1.539
669.80 1.539
669.90 1.539
670.00 1.539
670.10 1.539
670.20 1.539
670.30 1.539
670.40 1.539
670.50 1.539
670.60 1.539
670.70 1.539
670.80 1.539
670.90 1.539
671.00 1.539
671.10 1.539
671.20 1.539
671.30 1.539
671.40 1.539
671.50 1.539
671.60 1.539
671.70 1.539
671.80 1.539
671.90 1.539
672.00 1.539
672.10 1.54
672.20 1.54
672.30 1.54
672.40 1.54
672.50 1.54
672.60 1.54
672.70 1.54
672.80 1.54
672.90 1.54
673.00 1.54
673.10 1.54
673.20 1.54
673.30 1.54
673.40 1.54
673.50 1.54
673.60 1.54
673.70 1.54
673.80 1.54
673.90 1.54
674.00 1.54
674.10 1.54
674.20 1.54
674.30 1.54
674.40 1.54
674.50 1.54
674.60 1.54
674.70 1.54
674.80 1.54
674.90 1.54
675.00 1.54
675.10 1.54
675.20 1.54
675.30 1.54
675.40 1.54
675.50 1.54
675.60 1.54
675.70 1.539
675.80 1.539
675.90 1.539
676.00 1.539
676.10 1.539
676.20 1.539
676.30 1.539
676.40 1.539
676.50 1.539
676.60 1.539
676.70 1.539
676.80 1.539
676.90 1.539
677.00 1.539
677.10 1.539
677.20 1.539
677.30 1.539
677.40 1.539
677.50 1.539
677.60 1.539
677.70 1.539
677.80 1.539
677.90 1.539
678.00 1.539
678.10 1.539
678.20 1.539
678.30 1.539
678.40 1.539
678.50 1.539
678.60 1.539
678.70 1.539
678.80 1.539
678.90 1.539
679.00 1.539
679.10 1.539
679.20 1.539
679.30 1.539
679.40 1.538
679.50 1.538
679.60 1.538
679.70 1.538
679.80 1.538
679.90 1.538
680.00 1.538
680.10 1.538
680.20 1.538
680.30 1.538
680.40 1.538
680.50 1.538
680.60 1.538
680.70 1.538
680.80 1.538
680.90 1.538
681.00 1.538
681.10 1.538
681.20 1.538
681.30 1.538
681.40 1.537
681.50 1.537
681.60 1.537
681.70 1.537
681.80 1.537
681.90 1.537
682.00 1.537
682.10 1.537
682.20 1.537
682.30 1.537
682.40 1.537
682.50 1.537
682.60 1.537
682.70 1.537
682.80 1.537
682.90 1.536
683.00 1.536
683.10 1.536
683.20 1.536
683.30 1.536
683.40 1.536
683.50 1.536
683.60 1.536
683.70 1.536
683.80 1.536
683.90 1.536
684.00 1.536
684.10 1.536
684.20 1.535
684.30 1.535
684.40 1.535
684.50 1.535
684.60 1.535
684.70 1.535
684.80 1.535
684.90 1.535
685.00 1.535
685.10 1.535
685.20 1.535
685.30 1.534
685.40 1.534
685.50 1.534
685.60 1.534
685.70 1.534
685.80 1.534
685.90 1.534
686.00 1.534
686.10 1.534
686.20 1.534
686.30 1.533
686.40 1.533
686.50 1.533
686.60 1.533
686.70 1.533
686.80 1.533
686.90 1.533
687.00 1.533
687.10 1.533
687.20 1.532
687.30 1.532
687.40 1.532
687.50 1.532
687.60 1.532
687.70 1.532
687.80 1.532
687.90 1.532
688.00 1.532
688.10 1.531
688.20 1.531
688.30 1.531
688.40 1.531
688.50 1.531
688.60 1.531
688.70 1.531
688.80 1.531
688.90 1.53
689.00 1.53
689.10 1.53
689.20 1.53
689.30 1.53
689.40 1.53
689.50 1.53
689.60 1.529
689.70 1.529
689.80 1.529
689.90 1.529
690.00 1.529
690.10 1.529
690.20 1.528
690.30 1.528
690.40 1.528
690.50 1.528
690.60 1.528
690.70 1.528
690.80 1.527
690.90 1.527
691.00 1.527
691.10 1.527
691.20 1.527
691.30 1.527
691.40 1.526
691.50 1.526
691.60 1.526
691.70 1.526
691.80 1.526
691.90 1.526
692.00 1.525
692.10 1.525
692.20 1.525
692.30 1.525
692.40 1.525
692.50 1.525
692.60 1.524
692.70 1.524
692.80 1.524
692.90 1.524
693.00 1.524
693.10 1.524
693.20 1.523
693.30 1.523
693.40 1.523
693.50 1.523
693.60 1.523
693.70 1.523
693.80 1.522
693.90 1.522
694.00 1.522
694.10 1.522
694.20 1.522
694.30 1.522
694.40 1.521
694.50 1.521
694.60 1.521
694.70 1.521
694.80 1.521
694.90 1.521
695.00 1.52
695.10 1.52
695.20 1.52
695.30 1.52
695.40 1.519
695.50 1.519
695.60 1.519
695.70 1.519
695.80 1.519
695.90 1.518
696.00 1.518
696.10 1.518
696.20 1.518
696.30 1.517
696.40 1.517
696.50 1.517
696.60 1.517
696.70 1.517
696.80 1.516
696.90 1.516
697.00 1.516
697.10 1.516
697.20 1.515
697.30 1.515
697.40 1.515
697.50 1.515
697.60 1.515
697.70 1.514
697.80 1.514
697.90 1.514
698.00 1.514
698.10 1.513
698.20 1.513
698.30 1.513
698.40 1.513
698.50 1.513
698.60 1.512
698.70 1.512
698.80 1.512
698.90 1.512
699.00 1.511
699.10 1.511
699.20 1.511
699.30 1.511
699.40 1.511
699.50 1.51
699.60 1.51
699.70 1.51
699.80 1.51
699.90 1.509
700.00 1.509
700.10 1.509
700.20 1.509
700.30 1.508
700.40 1.508
700.50 1.508
700.60 1.508
700.70 1.507
700.80 1.507
700.90 1.507
701.00 1.506
701.10 1.506
701.20 1.506
701.30 1.506
701.40 1.505
701.50 1.505
701.60 1.505
701.70 1.504
701.80 1.504
701.90 1.504
702.00 1.504
702.10 1.503
702.20 1.503
702.30 1.503
702.40 1.503
702.50 1.502
702.60 1.502
702.70 1.502
702.80 1.501
702.90 1.501
703.00 1.501
703.10 1.501
703.20 1.5
703.30 1.5
703.40 1.5
703.50 1.499
703.60 1.499
703.70 1.499
703.80 1.499
703.90 1.498
704.00 1.498
704.10 1.498
704.20 1.497
704.30 1.497
704.40 1.497
704.50 1.497
704.60 1.496
704.70 1.496
704.80 1.496
704.90 1.496
705.00 1.495
705.10 1.495
705.20 1.495
705.30 1.494
705.40 1.494
705.50 1.494
705.60 1.493
705.70 1.493
705.80 1.493
705.90 1.492
706.00 1.492
706.10 1.492
706.20 1.491
706.30 1.491
706.40 1.491
706.50 1.49
706.60 1.49
706.70 1.49
706.80 1.489
706.90 1.489
707.00 1.489
707.10 1.488
707.20 1.488
707.30 1.488
707.40 1.487
707.50 1.487
707.60 1.487
707.70 1.486
707.80 1.486
707.90 1.486
708.00 1.485
708.10 1.485
708.20 1.485
708.30 1.484
708.40 1.484
708.50 1.484
708.60 1.483
708.70 1.483
708.80 1.483
708.90 1.482
709.00 1.482
709.10 1.482
709.20 1.481
709.30 1.481
709.40 1.481
709.50 1.48
709.60 1.48
709.70 1.48
709.80 1.479
709.90 1.479
710.00 1.479
710.10 1.478
710.20 1.478
710.30 1.478
710.40 1.477
710.50 1.477
710.60 1.476
710.70 1.476
710.80 1.476
710.90 1.475
711.00 1.475
711.10 1.475
711.20 1.474
711.30 1.474
711.40 1.473
711.50 1.473
711.60 1.473
711.70 1.472
711.80 1.472
711.90 1.472
712.00 1.471
712.10 1.471
712.20 1.47
712.30 1.47
712.40 1.47
712.50 1.469
712.60 1.469
712.70 1.468
712.80 1.468
712.90 1.468
713.00 1.467
713.10 1.467
713.20 1.467
713.30 1.466
713.40 1.466
713.50 1.465
713.60 1.465
713.70 1.465
713.80 1.464
713.90 1.464
714.00 1.464
714.10 1.463
714.20 1.463
714.30 1.462
714.40 1.462
714.50 1.462
714.60 1.461
714.70 1.461
714.80 1.461
714.90 1.46
715.00 1.46
715.10 1.459
715.20 1.459
715.30 1.459
715.40 1.458
715.50 1.458
715.60 1.457
715.70 1.457
715.80 1.456
715.90 1.456
716.00 1.456
716.10 1.455
716.20 1.455
716.30 1.454
716.40 1.454
716.50 1.453
716.60 1.453
716.70 1.453
716.80 1.452
716.90 1.452
717.00 1.451
717.10 1.451
717.20 1.451
717.30 1.45
717.40 1.45
717.50 1.449
717.60 1.449
717.70 1.448
717.80 1.448
717.90 1.448
718.00 1.447
718.10 1.447
718.20 1.446
718.30 1.446
718.40 1.446
718.50 1.445
718.60 1.445
718.70 1.444
718.80 1.444
718.90 1.443
719.00 1.443
719.10 1.443
719.20 1.442
719.30 1.442
719.40 1.441
719.50 1.441
719.60 1.441
719.70 1.44
719.80 1.44
719.90 1.439
720.00 1.439
720.10 1.438
720.20 1.438
720.30 1.438
720.40 1.437
720.50 1.437
720.60 1.436
720.70 1.436
720.80 1.435
720.90 1.435
721.00 1.434
721.10 1.434
721.20 1.434
721.30 1.433
721.40 1.433
721.50 1.432
721.60 1.432
721.70 1.431
721.80 1.431
721.90 1.43
722.00 1.43
722.10 1.43
722.20 1.429
722.30 1.429
722.40 1.428
722.50 1.428
722.60 1.427
722.70 1.427
722.80 1.427
722.90 1.426
723.00 1.426
723.10 1.425
723.20 1.425
723.30 1.424
723.40 1.424
723.50 1.423
723.60 1.423
723.70 1.423
723.80 1.422
723.90 1.422
724.00 1.421
724.10 1.421
724.20 1.42
724.30 1.42
724.40 1.42
724.50 1.419
724.60 1.419
724.70 1.418
724.80 1.418
724.90 1.417
725.00 1.417
725.10 1.417
725.20 1.416
725.30 1.416
725.40 1.415
725.50 1.415
725.60 1.414
725.70 1.414
725.80 1.413
725.90 1.413
726.00 1.413
726.10 1.412
726.20 1.412
726.30 1.411
726.40 1.411
726.50 1.41
726.60 1.41
726.70 1.409
726.80 1.409
726.90 1.409
727.00 1.408
727.10 1.408
727.20 1.407
727.30 1.407
727.40 1.406
727.50 1.406
727.60 1.405
727.70 1.405
727.80 1.405
727.90 1.404
728.00 1.404
728.10 1.403
728.20 1.403
728.30 1.402
728.40 1.402
728.50 1.401
728.60 1.401
728.70 1.401
728.80 1.4
728.90 1.4
729.00 1.399
729.10 1.399
729.20 1.398
729.30 1.398
729.40 1.397
729.50 1.397
729.60 1.397
729.70 1.396
729.80 1.396
729.90 1.395
730.00 1.395
730.10 1.394
730.20 1.394
730.30 1.394
730.40 1.393
730.50 1.393
730.60 1.392
730.70 1.392
730.80 1.392
730.90 1.391
731.00 1.391
731.10 1.39
731.20 1.39
731.30 1.389
731.40 1.389
731.50 1.389
731.60 1.388
731.70 1.388
731.80 1.387
731.90 1.387
732.00 1.387
732.10 1.386
732.20 1.386
732.30 1.385
732.40 1.385
732.50 1.385
732.60 1.384
732.70 1.384
732.80 1.383
732.90 1.383
733.00 1.382
733.10 1.382
733.20 1.382
733.30 1.381
733.40 1.381
733.50 1.38
733.60 1.38
733.70 1.38
733.80 1.379
733.90 1.379
734.00 1.378
734.10 1.378
734.20 1.378
734.30 1.377
734.40 1.377
734.50 1.376
734.60 1.376
734.70 1.376
734.80 1.375
734.90 1.375
735.00 1.374
735.10 1.374
735.20 1.373
735.30 1.373
735.40 1.373
735.50 1.372
735.60 1.372
735.70 1.371
735.80 1.371
735.90 1.371
736.00 1.37
736.10 1.37
736.20 1.369
736.30 1.369
736.40 1.369
736.50 1.368
736.60 1.368
736.70 1.367
736.80 1.367
736.90 1.367
737.00 1.366
737.10 1.366
737.20 1.365
737.30 1.365
737.40 1.365
737.50 1.364
737.60 1.364
737.70 1.363
737.80 1.363
737.90 1.363
738.00 1.362
738.10 1.362
738.20 1.361
738.30 1.361
738.40 1.361
738.50 1.36
738.60 1.36
738.70 1.359
738.80 1.359
738.90 1.359
739.00 1.358
739.10 1.358
739.20 1.357
739.30 1.357
739.40 1.357
739.50 1.356
739.60 1.356
739.70 1.355
739.80 1.355
739.90 1.355
740.00 1.354
740.10 1.354
740.20 1.353
740.30 1.353
740.40 1.353
740.50 1.352
740.60 1.352
740.70 1.352
740.80 1.351
740.90 1.351
741.00 1.351
741.10 1.35
741.20 1.35
741.30 1.35
741.40 1.349
741.50 1.349
741.60 1.349
741.70 1.348
741.80 1.348
741.90 1.348
742.00 1.347
742.10 1.347
742.20 1.347
742.30 1.346
742.40 1.346
742.50 1.346
742.60 1.346
742.70 1.345
742.80 1.345
742.90 1.345
743.00 1.344
743.10 1.344
743.20 1.344
743.30 1.343
743.40 1.343
743.50 1.343
743.60 1.342
743.70 1.342
743.80 1.342
743.90 1.341
744.00 1.341
744.10 1.341
744.20 1.34
744.30 1.34
744.40 1.34
744.50 1.339
744.60 1.339
744.70 1.339
744.80 1.338
744.90 1.338
745.00 1.338
745.10 1.337
745.20 1.337
745.30 1.337
745.40 1.336
745.50 1.336
745.60 1.336
745.70 1.335
745.80 1.335
745.90 1.335
746.00 1.334
746.10 1.334
746.20 1.334
746.30 1.333
746.40 1.333
746.50 1.333
746.60 1.332
746.70 1.332
746.80 1.332
746.90 1.331
747.00 1.331
747.10 1.331
747.20 1.33
747.30 1.33
747.40 1.33
747.50 1.329
747.60 1.329
747.70 1.329
747.80 1.328
747.90 1.328
748.00 1.328
748.10 1.327
748.20 1.327
748.30 1.327
748.40 1.326
748.50 1.326
748.60 1.326
748.70 1.326
748.80 1.325
748.90 1.325
749.00 1.325
749.10 1.324
749.20 1.324
749.30 1.324
749.40 1.323
749.50 1.323
749.60 1.323
749.70 1.322
749.80 1.322
749.90 1.322
750.00 1.321
750.10 1.321
750.20 1.321
750.30 1.321
750.40 1.32
750.50 1.32
750.60 1.32
750.70 1.319
750.80 1.319
750.90 1.319
751.00 1.319
751.10 1.318
751.20 1.318
751.30 1.318
751.40 1.318
751.50 1.317
751.60 1.317
751.70 1.317
751.80 1.316
751.90 1.316
752.00 1.316
752.10 1.316
752.20 1.315
752.30 1.315
752.40 1.315
752.50 1.315
752.60 1.314
752.70 1.314
752.80 1.314
752.90 1.313
753.00 1.313
753.10 1.313
753.20 1.313
753.30 1.312
753.40 1.312
753.50 1.312
753.60 1.312
753.70 1.311
753.80 1.311
753.90 1.311
754.00 1.311
754.10 1.31
754.20 1.31
754.30 1.31
754.40 1.309
754.50 1.309
754.60 1.309
754.70 1.309
754.80 1.308
754.90 1.308
755.00 1.308
755.10 1.308
755.20 1.307
755.30 1.307
755.40 1.307
755.50 1.307
755.60 1.306
755.70 1.306
755.80 1.306
755.90 1.305
756.00 1.305
756.10 1.305
756.20 1.305
756.30 1.304
756.40 1.304
756.50 1.304
756.60 1.304
756.70 1.303
756.80 1.303
756.90 1.303
757.00 1.303
757.10 1.302
757.20 1.302
757.30 1.302
757.40 1.301
757.50 1.301
757.60 1.301
757.70 1.301
757.80 1.3
757.90 1.3
758.00 1.3
758.10 1.3
758.20 1.299
758.30 1.299
758.40 1.299
758.50 1.299
758.60 1.298
758.70 1.298
758.80 1.298
758.90 1.297
759.00 1.297
759.10 1.297
759.20 1.297
759.30 1.296
759.40 1.296
759.50 1.296
759.60 1.296
759.70 1.295
759.80 1.295
759.90 1.295
760.00 1.295
760.10 1.294
760.20 1.294
760.30 1.294
760.40 1.294
760.50 1.293
760.60 1.293
760.70 1.293
760.80 1.293
760.90 1.293
761.00 1.292
761.10 1.292
761.20 1.292
761.30 1.292
761.40 1.291
761.50 1.291
761.60 1.291
761.70 1.291
761.80 1.29
761.90 1.29
762.00 1.29
762.10 1.29
762.20 1.29
762.30 1.289
762.40 1.289
762.50 1.289
762.60 1.289
762.70 1.288
762.80 1.288
762.90 1.288
763.00 1.288
763.10 1.287
763.20 1.287
763.30 1.287
763.40 1.287
763.50 1.287
763.60 1.286
763.70 1.286
763.80 1.286
763.90 1.286
764.00 1.285
764.10 1.285
764.20 1.285
764.30 1.285
764.40 1.285
764.50 1.284
764.60 1.284
764.70 1.284
764.80 1.284
764.90 1.283
765.00 1.283
765.10 1.283
765.20 1.283
765.30 1.282
765.40 1.282
765.50 1.282
765.60 1.282
765.70 1.282
765.80 1.281
765.90 1.281
766.00 1.281
766.10 1.281
766.20 1.28
766.30 1.28
766.40 1.28
766.50 1.28
766.60 1.28
766.70 1.279
766.80 1.279
766.90 1.279
767.00 1.279
767.10 1.278
767.20 1.278
767.30 1.278
767.40 1.278
767.50 1.278
767.60 1.277
767.70 1.277
767.80 1.277
767.90 1.277
768.00 1.276
768.10 1.276
768.20 1.276
768.30 1.276
768.40 1.275
768.50 1.275
768.60 1.275
768.70 1.275
768.80 1.275
768.90 1.274
769.00 1.274
769.10 1.274
769.20 1.274
769.30 1.273
769.40 1.273
769.50 1.273
769.60 1.273
769.70 1.273
769.80 1.272
769.90 1.272
770.00 1.272
770.10 1.272
770.20 1.272
770.30 1.271
770.40 1.271
770.50 1.271
770.60 1.271
770.70 1.271
770.80 1.271
770.90 1.27
771.00 1.27
771.10 1.27
771.20 1.27
771.30 1.27
771.40 1.27
771.50 1.269
771.60 1.269
771.70 1.269
771.80 1.269
771.90 1.269
772.00 1.269
772.10 1.268
772.20 1.268
772.30 1.268
772.40 1.268
772.50 1.268
772.60 1.268
772.70 1.267
772.80 1.267
772.90 1.267
773.00 1.267
773.10 1.267
773.20 1.267
773.30 1.266
773.40 1.266
773.50 1.266
773.60 1.266
773.70 1.266
773.80 1.266
773.90 1.265
774.00 1.265
774.10 1.265
774.20 1.265
774.30 1.265
774.40 1.265
774.50 1.264
774.60 1.264
774.70 1.264
774.80 1.264
774.90 1.264
775.00 1.264
775.10 1.263
775.20 1.263
775.30 1.263
775.40 1.263
775.50 1.263
775.60 1.263
775.70 1.262
775.80 1.262
775.90 1.262
776.00 1.262
776.10 1.262
776.20 1.262
776.30 1.261
776.40 1.261
776.50 1.261
776.60 1.261
776.70 1.261
776.80 1.261
776.90 1.26
777.00 1.26
777.10 1.26
777.20 1.26
777.30 1.26
777.40 1.26
777.50 1.259
777.60 1.259
777.70 1.259
777.80 1.259
777.90 1.259
778.00 1.259
778.10 1.258
778.20 1.258
778.30 1.258
778.40 1.258
778.50 1.258
778.60 1.258
778.70 1.257
778.80 1.257
778.90 1.257
779.00 1.257
779.10 1.257
779.20 1.257
779.30 1.256
779.40 1.256
779.50 1.256
779.60 1.256
779.70 1.256
779.80 1.256
779.90 1.255
780.00 1.255
780.10 1.255
780.20 1.255
780.30 1.255
780.40 1.255
780.50 1.255
780.60 1.255
780.70 1.255
780.80 1.254
780.90 1.254
781.00 1.254
781.10 1.254
781.20 1.254
781.30 1.254
781.40 1.254
781.50 1.254
781.60 1.254
781.70 1.254
781.80 1.253
781.90 1.253
782.00 1.253
782.10 1.253
782.20 1.253
782.30 1.253
782.40 1.253
782.50 1.253
782.60 1.253
782.70 1.253
782.80 1.253
782.90 1.252
783.00 1.252
783.10 1.252
783.20 1.252
783.30 1.252
783.40 1.252
783.50 1.252
783.60 1.252
783.70 1.252
783.80 1.252
783.90 1.251
784.00 1.251
784.10 1.251
784.20 1.251
784.30 1.251
784.40 1.251
784.50 1.251
784.60 1.251
784.70 1.251
784.80 1.251
784.90 1.251
785.00 1.25
785.10 1.25
785.20 1.25
785.30 1.25
785.40 1.25
785.50 1.25
785.60 1.25
785.70 1.25
785.80 1.25
785.90 1.25
786.00 1.249
786.10 1.249
786.20 1.249
786.30 1.249
786.40 1.249
786.50 1.249
786.60 1.249
786.70 1.249
786.80 1.249
786.90 1.249
787.00 1.249
787.10 1.248
787.20 1.248
787.30 1.248
787.40 1.248
787.50 1.248
787.60 1.248
787.70 1.248
787.80 1.248
787.90 1.248
788.00 1.248
788.10 1.247
788.20 1.247
788.30 1.247
788.40 1.247
788.50 1.247
788.60 1.247
788.70 1.247
788.80 1.247
788.90 1.247
789.00 1.247
789.10 1.247
789.20 1.246
789.30 1.246
789.40 1.246
789.50 1.246
789.60 1.246
789.70 1.246
789.80 1.246
789.90 1.246
790.00 1.246
790.10 1.246
790.20 1.246
790.30 1.245
790.40 1.245
790.50 1.245
790.60 1.245
790.70 1.245
790.80 1.245
790.90 1.245
791.00 1.245
791.10 1.245
791.20 1.245
791.30 1.245
791.40 1.245
791.50 1.245
791.60 1.244
791.70 1.244
791.80 1.244
791.90 1.244
792.00 1.244
792.10 1.244
792.20 1.244
792.30 1.244
792.40 1.244
792.50 1.244
792.60 1.244
792.70 1.244
792.80 1.243
792.90 1.243
793.00 1.243
793.10 1.243
793.20 1.243
793.30 1.243
793.40 1.243
793.50 1.243
793.60 1.243
793.70 1.243
793.80 1.243
793.90 1.243
794.00 1.243
794.10 1.242
794.20 1.242
794.30 1.242
794.40 1.242
794.50 1.242
794.60 1.242
794.70 1.242
794.80 1.242
794.90 1.242
795.00 1.242
795.10 1.242
795.20 1.242
795.30 1.242
795.40 1.241
795.50 1.241
795.60 1.241
795.70 1.241
795.80 1.241
795.90 1.241
796.00 1.241
796.10 1.241
796.20 1.241
796.30 1.241
796.40 1.241
796.50 1.241
796.60 1.241
796.70 1.24
796.80 1.24
796.90 1.24
797.00 1.24
797.10 1.24
797.20 1.24
797.30 1.24
797.40 1.24
797.50 1.24
797.60 1.24
797.70 1.24
797.80 1.24
797.90 1.24
798.00 1.239
798.10 1.239
798.20 1.239
798.30 1.239
798.40 1.239
798.50 1.239
798.60 1.239
798.70 1.239
798.80 1.239
798.90 1.239
799.00 1.239
799.10 1.239
799.20 1.238
799.30 1.238
799.40 1.238
799.50 1.238
799.60 1.238
799.70 1.238
799.80 1.238
799.90 1.238
800.00 1.238
800.10 1.238
800.20 1.238
800.30 1.237
800.40 1.237
800.50 1.237
800.60 1.237
800.70 1.237
800.80 1.237
800.90 1.237
801.00 1.237
801.10 1.236
801.20 1.236
801.30 1.236
801.40 1.236
801.50 1.236
801.60 1.236
801.70 1.236
801.80 1.236
801.90 1.235
802.00 1.235
802.10 1.235
802.20 1.235
802.30 1.235
802.40 1.235
802.50 1.235
802.60 1.234
802.70 1.234
802.80 1.234
802.90 1.234
803.00 1.234
803.10 1.234
803.20 1.234
803.30 1.234
803.40 1.233
803.50 1.233
803.60 1.233
803.70 1.233
803.80 1.233
803.90 1.233
804.00 1.233
804.10 1.233
804.20 1.232
804.30 1.232
804.40 1.232
804.50 1.232
804.60 1.232
804.70 1.232
804.80 1.232
804.90 1.231
805.00 1.231
805.10 1.231
805.20 1.231
805.30 1.231
805.40 1.231
805.50 1.231
805.60 1.231
805.70 1.23
805.80 1.23
805.90 1.23
806.00 1.23
806.10 1.23
806.20 1.23
806.30 1.23
806.40 1.23
806.50 1.229
806.60 1.229
806.70 1.229
806.80 1.229
806.90 1.229
807.00 1.229
807.10 1.229
807.20 1.228
807.30 1.228
807.40 1.228
807.50 1.228
807.60 1.228
807.70 1.228
807.80 1.228
807.90 1.228
808.00 1.227
808.10 1.227
808.20 1.227
808.30 1.227
808.40 1.227
808.50 1.227
808.60 1.227
808.70 1.227
808.80 1.226
808.90 1.226
809.00 1.226
809.10 1.226
809.20 1.226
809.30 1.226
809.40 1.226
809.50 1.226
809.60 1.225
809.70 1.225
809.80 1.225
809.90 1.225
810.00 1.225
810.10 1.225
810.20 1.224
810.30 1.224
810.40 1.224
810.50 1.224
810.60 1.224
810.70 1.223
810.80 1.223
810.90 1.223
811.00 1.223
811.10 1.223
811.20 1.222
811.30 1.222
811.40 1.222
811.50 1.222
811.60 1.222
811.70 1.221
811.80 1.221
811.90 1.221
812.00 1.221
812.10 1.221
812.20 1.22
812.30 1.22
812.40 1.22
812.50 1.22
812.60 1.22
812.70 1.219
812.80 1.219
812.90 1.219
813.00 1.219
813.10 1.219
813.20 1.219
813.30 1.218
813.40 1.218
813.50 1.218
813.60 1.218
813.70 1.218
813.80 1.217
813.90 1.217
814.00 1.217
814.10 1.217
814.20 1.217
814.30 1.216
814.40 1.216
814.50 1.216
814.60 1.216
814.70 1.216
814.80 1.215
814.90 1.215
815.00 1.215
815.10 1.215
815.20 1.215
815.30 1.214
815.40 1.214
815.50 1.214
815.60 1.214
815.70 1.214
815.80 1.213
815.90 1.213
816.00 1.213
816.10 1.213
816.20 1.213
816.30 1.212
816.40 1.212
816.50 1.212
816.60 1.212
816.70 1.212
816.80 1.211
816.90 1.211
817.00 1.211
817.10 1.211
817.20 1.211
817.30 1.21
817.40 1.21
817.50 1.21
817.60 1.21
817.70 1.21
817.80 1.209
817.90 1.209
818.00 1.209
818.10 1.209
818.20 1.209
818.30 1.209
818.40 1.208
818.50 1.208
818.60 1.208
818.70 1.208
818.80 1.208
818.90 1.207
819.00 1.207
819.10 1.207
819.20 1.207
819.30 1.207
819.40 1.206
819.50 1.206
819.60 1.206
819.70 1.206
819.80 1.206
819.90 1.205
820.00 1.205
820.10 1.205
820.20 1.205
820.30 1.205
820.40 1.204
820.50 1.204
820.60 1.204
820.70 1.204
820.80 1.203
820.90 1.203
821.00 1.203
821.10 1.203
821.20 1.203
821.30 1.202
821.40 1.202
821.50 1.202
821.60 1.202
821.70 1.201
821.80 1.201
821.90 1.201
822.00 1.201
822.10 1.201
822.20 1.2
822.30 1.2
822.40 1.2
822.50 1.2
822.60 1.199
822.70 1.199
822.80 1.199
822.90 1.199
823.00 1.198
823.10 1.198
823.20 1.198
823.30 1.198
823.40 1.197
823.50 1.197
823.60 1.197
823.70 1.197
823.80 1.196
823.90 1.196
824.00 1.196
824.10 1.196
824.20 1.195
824.30 1.195
824.40 1.195
824.50 1.195
824.60 1.194
824.70 1.194
824.80 1.194
824.90 1.194
825.00 1.194
825.10 1.193
825.20 1.193
825.30 1.193
825.40 1.193
825.50 1.192
825.60 1.192
825.70 1.192
825.80 1.192
825.90 1.191
826.00 1.191
826.10 1.191
826.20 1.191
826.30 1.19
826.40 1.19
826.50 1.19
826.60 1.19
826.70 1.189
826.80 1.189
826.90 1.189
827.00 1.189
827.10 1.189
827.20 1.188
827.30 1.188
827.40 1.188
827.50 1.187
827.60 1.187
827.70 1.187
827.80 1.187
827.90 1.186
828.00 1.186
828.10 1.186
828.20 1.186
828.30 1.185
828.40 1.185
828.50 1.185
828.60 1.185
828.70 1.184
828.80 1.184
828.90 1.184
829.00 1.184
829.10 1.183
829.20 1.183
829.30 1.183
829.40 1.183
829.50 1.182
829.60 1.182
829.70 1.182
829.80 1.182
829.90 1.181
830.00 1.181
830.10 1.181
830.20 1.181
830.30 1.18
830.40 1.18
830.50 1.18
830.60 1.18
830.70 1.179
830.80 1.179
830.90 1.179
831.00 1.179
831.10 1.178
831.20 1.178
831.30 1.178
831.40 1.178
831.50 1.177
831.60 1.177
831.70 1.177
831.80 1.177
831.90 1.176
832.00 1.176
832.10 1.176
832.20 1.176
832.30 1.175
832.40 1.175
832.50 1.175
832.60 1.175
832.70 1.174
832.80 1.174
832.90 1.174
833.00 1.173
833.10 1.173
833.20 1.173
833.30 1.173
833.40 1.172
833.50 1.172
833.60 1.172
833.70 1.172
833.80 1.171
833.90 1.171
834.00 1.171
834.10 1.171
834.20 1.17
834.30 1.17
834.40 1.17
834.50 1.169
834.60 1.169
834.70 1.169
834.80 1.169
834.90 1.168
835.00 1.168
835.10 1.168
835.20 1.168
835.30 1.167
835.40 1.167
835.50 1.167
835.60 1.167
835.70 1.166
835.80 1.166
835.90 1.166
836.00 1.165
836.10 1.165
836.20 1.165
836.30 1.165
836.40 1.164
836.50 1.164
836.60 1.164
836.70 1.164
836.80 1.163
836.90 1.163
837.00 1.163
837.10 1.163
837.20 1.162
837.30 1.162
837.40 1.162
837.50 1.161
837.60 1.161
837.70 1.161
837.80 1.161
837.90 1.16
838.00 1.16
838.10 1.16
838.20 1.16
838.30 1.159
838.40 1.159
838.50 1.159
838.60 1.158
838.70 1.158
838.80 1.158
838.90 1.158
839.00 1.157
839.10 1.157
839.20 1.157
839.30 1.156
839.40 1.156
839.50 1.156
839.60 1.156
839.70 1.155
839.80 1.155
839.90 1.155
840.00 1.155
840.10 1.154
840.20 1.154
840.30 1.154
840.40 1.153
840.50 1.153
840.60 1.153
840.70 1.153
840.80 1.152
840.90 1.152
841.00 1.152
841.10 1.152
841.20 1.151
841.30 1.151
841.40 1.151
841.50 1.15
841.60 1.15
841.70 1.15
841.80 1.15
841.90 1.149
842.00 1.149
842.10 1.149
842.20 1.149
842.30 1.148
842.40 1.148
842.50 1.148
842.60 1.147
842.70 1.147
842.80 1.147
842.90 1.147
843.00 1.146
843.10 1.146
843.20 1.146
843.30 1.145
843.40 1.145
843.50 1.145
843.60 1.145
843.70 1.144
843.80 1.144
843.90 1.144
844.00 1.143
844.10 1.143
844.20 1.143
844.30 1.143
844.40 1.142
844.50 1.142
844.60 1.142
844.70 1.141
844.80 1.141
844.90 1.141
845.00 1.141
845.10 1.14
845.20 1.14
845.30 1.14
845.40 1.139
845.50 1.139
845.60 1.139
845.70 1.139
845.80 1.138
845.90 1.138
846.00 1.138
846.10 1.137
846.20 1.137
846.30 1.137
846.40 1.137
846.50 1.136
846.60 1.136
846.70 1.136
846.80 1.135
846.90 1.135
847.00 1.135
847.10 1.135
847.20 1.134
847.30 1.134
847.40 1.134
847.50 1.133
847.60 1.133
847.70 1.133
847.80 1.133
847.90 1.132
848.00 1.132
848.10 1.132
848.20 1.131
848.30 1.131
848.40 1.131
848.50 1.131
848.60 1.13
848.70 1.13
848.80 1.13
848.90 1.129
849.00 1.129
849.10 1.129
849.20 1.129
849.30 1.128
849.40 1.128
849.50 1.128
849.60 1.127
849.70 1.127
849.80 1.127
849.90 1.126
850.00 1.126
850.10 1.126
850.20 1.126
850.30 1.125
850.40 1.125
850.50 1.125
850.60 1.124
850.70 1.124
850.80 1.124
850.90 1.124
851.00 1.123
851.10 1.123
851.20 1.123
851.30 1.122
851.40 1.122
851.50 1.122
851.60 1.122
851.70 1.121
851.80 1.121
851.90 1.121
852.00 1.12
852.10 1.12
852.20 1.12
852.30 1.12
852.40 1.119
852.50 1.119
852.60 1.119
852.70 1.118
852.80 1.118
852.90 1.118
853.00 1.117
853.10 1.117
853.20 1.117
853.30 1.116
853.40 1.116
853.50 1.116
853.60 1.116
853.70 1.115
853.80 1.115
853.90 1.115
854.00 1.114
854.10 1.114
854.20 1.114
854.30 1.113
854.40 1.113
854.50 1.113
854.60 1.113
854.70 1.112
854.80 1.112
854.90 1.112
855.00 1.111
855.10 1.111
855.20 1.111
855.30 1.11
855.40 1.11
855.50 1.11
855.60 1.109
855.70 1.109
855.80 1.109
855.90 1.109
856.00 1.108
856.10 1.108
856.20 1.108
856.30 1.107
856.40 1.107
856.50 1.107
856.60 1.106
856.70 1.106
856.80 1.106
856.90 1.106
857.00 1.105
857.10 1.105
857.20 1.105
857.30 1.104
857.40 1.104
857.50 1.104
857.60 1.103
857.70 1.103
857.80 1.103
857.90 1.102
858.00 1.102
858.10 1.102
858.20 1.102
858.30 1.101
858.40 1.101
858.50 1.101
858.60 1.1
858.70 1.1
858.80 1.1
858.90 1.099
859.00 1.099
859.10 1.099
859.20 1.098
859.30 1.098
859.40 1.098
859.50 1.097
859.60 1.097
859.70 1.097
859.80 1.097
859.90 1.096
860.00 1.096
860.10 1.096
860.20 1.095
860.30 1.095
860.40 1.095
860.50 1.094
860.60 1.094
860.70 1.094
860.80 1.093
860.90 1.093
861.00 1.093
861.10 1.092
861.20 1.092
861.30 1.092
861.40 1.092
861.50 1.091
861.60 1.091
861.70 1.091
861.80 1.09
861.90 1.09
862.00 1.09
862.10 1.089
862.20 1.089
862.30 1.089
862.40 1.088
862.50 1.088
862.60 1.088
862.70 1.087
862.80 1.087
862.90 1.087
863.00 1.086
863.10 1.086
863.20 1.086
863.30 1.085
863.40 1.085
863.50 1.085
863.60 1.084
863.70 1.084
863.80 1.084
863.90 1.083
864.00 1.083
864.10 1.083
864.20 1.083
864.30 1.082
864.40 1.082
864.50 1.082
864.60 1.081
864.70 1.081
864.80 1.081
864.90 1.08
865.00 1.08
865.10 1.08
865.20 1.079
865.30 1.079
865.40 1.079
865.50 1.078
865.60 1.078
865.70 1.078
865.80 1.077
865.90 1.077
866.00 1.077
866.10 1.076
866.20 1.076
866.30 1.076
866.40 1.075
866.50 1.075
866.60 1.075
866.70 1.074
866.80 1.074
866.90 1.074
867.00 1.073
867.10 1.073
867.20 1.073
867.30 1.072
867.40 1.072
867.50 1.072
867.60 1.071
867.70 1.071
867.80 1.071
867.90 1.07
868.00 1.07
868.10 1.07
868.20 1.069
868.30 1.069
868.40 1.069
868.50 1.068
868.60 1.068
868.70 1.068
868.80 1.067
868.90 1.067
869.00 1.067
869.10 1.066
869.20 1.066
869.30 1.066
869.40 1.065
869.50 1.065
869.60 1.064
869.70 1.064
869.80 1.064
869.90 1.063
870.00 1.063
870.10 1.063
870.20 1.062
870.30 1.062
870.40 1.062
870.50 1.061
870.60 1.061
870.70 1.061
870.80 1.06
870.90 1.06
871.00 1.06
871.10 1.059
871.20 1.059
871.30 1.059
871.40 1.058
871.50 1.058
871.60 1.058
871.70 1.057
871.80 1.057
871.90 1.057
872.00 1.056
872.10 1.056
872.20 1.056
872.30 1.055
872.40 1.055
872.50 1.054
872.60 1.054
872.70 1.054
872.80 1.053
872.90 1.053
873.00 1.053
873.10 1.052
873.20 1.052
873.30 1.052
873.40 1.051
873.50 1.051
873.60 1.05
873.70 1.05
873.80 1.05
873.90 1.049
874.00 1.049
874.10 1.049
874.20 1.048
874.30 1.048
874.40 1.048
874.50 1.047
874.60 1.047
874.70 1.046
874.80 1.046
874.90 1.046
875.00 1.045
875.10 1.045
875.20 1.045
875.30 1.044
875.40 1.044
875.50 1.044
875.60 1.043
875.70 1.043
875.80 1.042
875.90 1.042
876.00 1.042
876.10 1.041
876.20 1.041
876.30 1.041
876.40 1.04
876.50 1.04
876.60 1.04
876.70 1.039
876.80 1.039
876.90 1.038
877.00 1.038
877.10 1.038
877.20 1.037
877.30 1.037
877.40 1.037
877.50 1.036
877.60 1.036
877.70 1.035
877.80 1.035
877.90 1.035
878.00 1.034
878.10 1.034
878.20 1.033
878.30 1.033
878.40 1.033
878.50 1.032
878.60 1.032
878.70 1.032
878.80 1.031
878.90 1.031
879.00 1.03
879.10 1.03
879.20 1.03
879.30 1.029
879.40 1.029
879.50 1.028
879.60 1.028
879.70 1.028
879.80 1.027
879.90 1.027
880.00 1.027
880.10 1.026
880.20 1.026
880.30 1.025
880.40 1.025
880.50 1.025
880.60 1.024
880.70 1.024
880.80 1.023
880.90 1.023
881.00 1.023
881.10 1.022
881.20 1.022
881.30 1.022
881.40 1.021
881.50 1.021
881.60 1.02
881.70 1.02
881.80 1.02
881.90 1.019
882.00 1.019
882.10 1.018
882.20 1.018
882.30 1.018
882.40 1.017
882.50 1.017
882.60 1.016
882.70 1.016
882.80 1.016
882.90 1.015
883.00 1.015
883.10 1.014
883.20 1.014
883.30 1.013
883.40 1.013
883.50 1.013
883.60 1.012
883.70 1.012
883.80 1.011
883.90 1.011
884.00 1.011
884.10 1.01
884.20 1.01
884.30 1.009
884.40 1.009
884.50 1.009
884.60 1.008
884.70 1.008
884.80 1.007
884.90 1.007
885.00 1.006
885.10 1.006
885.20 1.006
885.30 1.005
885.40 1.005
885.50 1.004
885.60 1.004
885.70 1.004
885.80 1.003
885.90 1.003
886.00 1.002
886.10 1.002
886.20 1.002
886.30 1.001
886.40 1.001
886.50 1
886.60 0.9999
886.70 0.9995
886.80 0.9991
886.90 0.9987
887.00 0.9983
887.10 0.9978
887.20 0.9974
887.30 0.997
887.40 0.9965
887.50 0.9961
887.60 0.9956
887.70 0.9952
887.80 0.9948
887.90 0.9943
888.00 0.9939
888.10 0.9935
888.20 0.993
888.30 0.9926
888.40 0.9921
888.50 0.9917
888.60 0.9913
888.70 0.9908
888.80 0.9904
888.90 0.99
889.00 0.9895
889.10 0.9891
889.20 0.9887
889.30 0.9882
889.40 0.9878
889.50 0.9873
889.60 0.9869
889.70 0.9865
889.80 0.986
889.90 0.9856
890.00 0.9852
890.10 0.9847
890.20 0.9843
890.30 0.9839
890.40 0.9834
890.50 0.983
890.60 0.9826
890.70 0.9821
890.80 0.9817
890.90 0.9813
891.00 0.9808
891.10 0.9804
891.20 0.98
891.30 0.9795
891.40 0.9791
891.50 0.9787
891.60 0.9782
891.70 0.9778
891.80 0.9774
891.90 0.977
892.00 0.9765
892.10 0.9761
892.20 0.9756
892.30 0.9752
892.40 0.9747
892.50 0.9743
892.60 0.9739
892.70 0.9734
892.80 0.973
892.90 0.9725
893.00 0.9721
893.10 0.9716
893.20 0.9712
893.30 0.9708
893.40 0.9703
893.50 0.9699
893.60 0.9694
893.70 0.969
893.80 0.9686
893.90 0.9681
894.00 0.9677
894.10 0.9672
894.20 0.9668
894.30 0.9664
894.40 0.9659
894.50 0.9655
894.60 0.965
894.70 0.9646
894.80 0.9642
894.90 0.9637
895.00 0.9633
895.10 0.9628
895.20 0.9624
895.30 0.962
895.40 0.9615
895.50 0.9611
895.60 0.9606
895.70 0.9602
895.80 0.9598
895.90 0.9593
896.00 0.9589
896.10 0.9585
896.20 0.958
896.30 0.9576
896.40 0.9571
896.50 0.9567
896.60 0.9563
896.70 0.9558
896.80 0.9554
896.90 0.955
897.00 0.9545
897.10 0.954
897.20 0.9536
897.30 0.9531
897.40 0.9526
897.50 0.9521
897.60 0.9516
897.70 0.9511
897.80 0.9506
897.90 0.9501
898.00 0.9496
898.10 0.9491
898.20 0.9487
898.30 0.9482
898.40 0.9477
898.50 0.9472
898.60 0.9467
898.70 0.9462
898.80 0.9457
898.90 0.9452
899.00 0.9448
899.10 0.9443
899.20 0.9438
899.30 0.9433
899.40 0.9428
899.50 0.9423
899.60 0.9418
899.70 0.9414
899.80 0.9409
899.90 0.9404
900.00 0.9399
900.10 0.9394
900.20 0.9389
900.30 0.9385
900.40 0.938
900.50 0.9375
900.60 0.937
900.70 0.9365
900.80 0.936
900.90 0.9355
901.00 0.9351
901.10 0.9346
901.20 0.9341
901.30 0.9336
901.40 0.9331
901.50 0.9327
901.60 0.9322
901.70 0.9317
901.80 0.9312
901.90 0.9307
902.00 0.9302
902.10 0.9297
902.20 0.9291
902.30 0.9286
902.40 0.928
902.50 0.9275
902.60 0.9269
902.70 0.9264
902.80 0.9258
902.90 0.9253
903.00 0.9247
903.10 0.9242
903.20 0.9236
903.30 0.9231
903.40 0.9225
903.50 0.922
903.60 0.9214
903.70 0.9209
903.80 0.9203
903.90 0.9198
904.00 0.9193
904.10 0.9187
904.20 0.9182
904.30 0.9176
904.40 0.9171
904.50 0.9165
904.60 0.916
904.70 0.9154
904.80 0.9149
904.90 0.9143
905.00 0.9138
905.10 0.9132
905.20 0.9127
905.30 0.9122
905.40 0.9116
905.50 0.9111
905.60 0.9105
905.70 0.91
905.80 0.9094
905.90 0.9089
906.00 0.9083
906.10 0.9078
906.20 0.9073
906.30 0.9067
906.40 0.9062
906.50 0.9056
906.60 0.9051
906.70 0.9045
906.80 0.904
906.90 0.9035
907.00 0.9029
907.10 0.9024
907.20 0.9019
907.30 0.9013
907.40 0.9008
907.50 0.9003
907.60 0.8997
907.70 0.8992
907.80 0.8987
907.90 0.8982
908.00 0.8976
908.10 0.8971
908.20 0.8966
908.30 0.896
908.40 0.8955
908.50 0.895
908.60 0.8945
908.70 0.8939
908.80 0.8934
908.90 0.8929
909.00 0.8923
909.10 0.8918
909.20 0.8913
909.30 0.8908
909.40 0.8902
909.50 0.8897
909.60 0.8892
909.70 0.8887
909.80 0.8881
909.90 0.8876
910.00 0.8871
910.10 0.8866
910.20 0.886
910.30 0.8855
910.40 0.885
910.50 0.8845
910.60 0.8839
910.70 0.8834
910.80 0.8829
910.90 0.8824
911.00 0.8818
911.10 0.8813
911.20 0.8808
911.30 0.8803
911.40 0.8798
911.50 0.8792
911.60 0.8787
911.70 0.8782
911.80 0.8777
911.90 0.8772
912.00 0.8766
912.10 0.8761
912.20 0.8756
912.30 0.8751
912.40 0.8745
912.50 0.874
912.60 0.8735
912.70 0.873
912.80 0.8724
912.90 0.8719
913.00 0.8714
913.10 0.8709
913.20 0.8703
913.30 0.8698
913.40 0.8693
913.50 0.8688
913.60 0.8683
913.70 0.8677
913.80 0.8672
913.90 0.8667
914.00 0.8662
914.10 0.8657
914.20 0.8651
914.30 0.8646
914.40 0.8641
914.50 0.8636
914.60 0.8631
914.70 0.8625
914.80 0.862
914.90 0.8615
915.00 0.861
915.10 0.8605
915.20 0.8599
915.30 0.8594
915.40 0.8589
915.50 0.8584
915.60 0.8579
915.70 0.8574
915.80 0.8568
915.90 0.8563
916.00 0.8558
916.10 0.8553
916.20 0.8548
916.30 0.8543
916.40 0.8537
916.50 0.8532
916.60 0.8527
916.70 0.8522
916.80 0.8517
916.90 0.8512
917.00 0.8507
917.10 0.8501
917.20 0.8496
917.30 0.849
917.40 0.8485
917.50 0.8479
917.60 0.8474
917.70 0.8468
917.80 0.8463
917.90 0.8457
918.00 0.8452
918.10 0.8447
918.20 0.8441
918.30 0.8436
918.40 0.843
918.50 0.8425
918.60 0.8419
918.70 0.8414
918.80 0.8408
918.90 0.8403
919.00 0.8398
919.10 0.8392
919.20 0.8387
919.30 0.8381
919.40 0.8376
919.50 0.837
919.60 0.8365
919.70 0.836
919.80 0.8354
919.90 0.8349
920.00 0.8343
920.10 0.8338
920.20 0.8333
920.30 0.8327
920.40 0.8322
920.50 0.8316
920.60 0.8311
920.70 0.8306
920.80 0.83
920.90 0.8295
921.00 0.8289
921.10 0.8284
921.20 0.8279
921.30 0.8273
921.40 0.8268
921.50 0.8263
921.60 0.8257
921.70 0.8252
921.80 0.8246
921.90 0.8241
922.00 0.8236
922.10 0.823
922.20 0.8225
922.30 0.8219
922.40 0.8213
922.50 0.8208
922.60 0.8202
922.70 0.8197
922.80 0.8191
922.90 0.8186
923.00 0.818
923.10 0.8175
923.20 0.8169
923.30 0.8164
923.40 0.8158
923.50 0.8153
923.60 0.8147
923.70 0.8142
923.80 0.8136
923.90 0.8131
924.00 0.8125
924.10 0.812
924.20 0.8114
924.30 0.8109
924.40 0.8103
924.50 0.8098
924.60 0.8092
924.70 0.8087
924.80 0.8081
924.90 0.8076
925.00 0.807
925.10 0.8065
925.20 0.8059
925.30 0.8054
925.40 0.8048
925.50 0.8043
925.60 0.8038
925.70 0.8032
925.80 0.8027
925.90 0.8021
926.00 0.8016
926.10 0.801
926.20 0.8005
926.30 0.7999
926.40 0.7994
926.50 0.7988
926.60 0.7983
926.70 0.7978
926.80 0.7972
926.90 0.7967
927.00 0.7961
927.10 0.7956
927.20 0.795
927.30 0.7944
927.40 0.7939
927.50 0.7933
927.60 0.7928
927.70 0.7922
927.80 0.7916
927.90 0.7911
928.00 0.7905
928.10 0.79
928.20 0.7894
928.30 0.7889
928.40 0.7883
928.50 0.7877
928.60 0.7872
928.70 0.7866
928.80 0.7861
928.90 0.7855
929.00 0.785
929.10 0.7844
929.20 0.7838
929.30 0.7833
929.40 0.7827
929.50 0.7822
929.60 0.7816
929.70 0.7811
929.80 0.7805
929.90 0.78
930.00 0.7794
930.10 0.7788
930.20 0.7783
930.30 0.7777
930.40 0.7772
930.50 0.7766
930.60 0.7761
930.70 0.7755
930.80 0.775
930.90 0.7744
931.00 0.7739
931.10 0.7733
931.20 0.7728
931.30 0.7722
931.40 0.7717
931.50 0.7711
931.60 0.7706
931.70 0.77
931.80 0.7695
931.90 0.7689
932.00 0.7684
932.10 0.7678
932.20 0.7672
932.30 0.7667
932.40 0.7661
932.50 0.7656
932.60 0.765
932.70 0.7645
932.80 0.7639
932.90 0.7633
933.00 0.7628
933.10 0.7622
933.20 0.7617
933.30 0.7611
933.40 0.7606
933.50 0.76
933.60 0.7595
933.70 0.7589
933.80 0.7583
933.90 0.7578
934.00 0.7572
934.10 0.7567
934.20 0.7561
934.30 0.7556
934.40 0.755
934.50 0.7544
934.60 0.7539
934.70 0.7533
934.80 0.7528
934.90 0.7522
935.00 0.7517
935.10 0.7511
935.20 0.7505
935.30 0.75
935.40 0.7494
935.50 0.7489
935.60 0.7483
935.70 0.7477
935.80 0.7472
935.90 0.7466
936.00 0.7461
936.10 0.7455
936.20 0.745
936.30 0.7444
936.40 0.7439
936.50 0.7433
936.60 0.7427
936.70 0.7422
936.80 0.7416
936.90 0.7411
937.00 0.7405
937.10 0.74
937.20 0.7394
937.30 0.7389
937.40 0.7383
937.50 0.7377
937.60 0.7372
937.70 0.7366
937.80 0.7361
937.90 0.7355
938.00 0.735
938.10 0.7344
938.20 0.7338
938.30 0.7333
938.40 0.7327
938.50 0.7322
938.60 0.7316
938.70 0.731
938.80 0.7305
938.90 0.7299
939.00 0.7293
939.10 0.7288
939.20 0.7282
939.30 0.7277
939.40 0.7271
939.50 0.7265
939.60 0.726
939.70 0.7254
939.80 0.7249
939.90 0.7243
940.00 0.7237
940.10 0.7232
940.20 0.7226
940.30 0.7221
940.40 0.7215
940.50 0.7209
940.60 0.7204
940.70 0.7198
940.80 0.7193
940.90 0.7187
941.00 0.7182
941.10 0.7176
941.20 0.7171
941.30 0.7165
941.40 0.7159
941.50 0.7154
941.60 0.7148
941.70 0.7143
941.80 0.7137
941.90 0.7132
942.00 0.7126
942.10 0.7121
942.20 0.7115
942.30 0.711
942.40 0.7104
942.50 0.7098
942.60 0.7093
942.70 0.7087
942.80 0.7082
942.90 0.7076
943.00 0.7071
943.10 0.7065
943.20 0.706
943.30 0.7054
943.40 0.7049
943.50 0.7043
943.60 0.7038
943.70 0.7032
943.80 0.7027
943.90 0.7021
944.00 0.7016
944.10 0.701
944.20 0.7005
944.30 0.6999
944.40 0.6994
944.50 0.6988
944.60 0.6983
944.70 0.6977
944.80 0.6972
944.90 0.6966
945.00 0.6961
945.10 0.6955
945.20 0.695
945.30 0.6944
945.40 0.6939
945.50 0.6933
945.60 0.6928
945.70 0.6922
945.80 0.6917
945.90 0.6911
946.00 0.6906
946.10 0.69
946.20 0.6895
946.30 0.6889
946.40 0.6884
946.50 0.6878
946.60 0.6873
946.70 0.6867
946.80 0.6862
946.90 0.6856
947.00 0.6851
947.10 0.6845
947.20 0.684
947.30 0.6834
947.40 0.6829
947.50 0.6823
947.60 0.6818
947.70 0.6812
947.80 0.6807
947.90 0.6801
948.00 0.6796
948.10 0.679
948.20 0.6785
948.30 0.6779
948.40 0.6774
948.50 0.6768
948.60 0.6763
948.70 0.6757
948.80 0.6752
948.90 0.6746
949.00 0.6741
949.10 0.6735
949.20 0.673
949.30 0.6724
949.40 0.6719
949.50 0.6713
949.60 0.6708
949.70 0.6703
949.80 0.6697
949.90 0.6692
950.00 0.6686
950.10 0.6681
950.20 0.6675
950.30 0.667
950.40 0.6665
950.50 0.6659
950.60 0.6654
950.70 0.6648
950.80 0.6643
950.90 0.6638
951.00 0.6632
951.10 0.6627
951.20 0.6621
951.30 0.6616
951.40 0.6611
951.50 0.6605
951.60 0.66
951.70 0.6595
951.80 0.6589
951.90 0.6584
952.00 0.6578
952.10 0.6573
952.20 0.6568
952.30 0.6562
952.40 0.6557
952.50 0.6552
952.60 0.6546
952.70 0.6541
952.80 0.6535
952.90 0.653
953.00 0.6525
953.10 0.6519
953.20 0.6514
953.30 0.6509
953.40 0.6503
953.50 0.6498
953.60 0.6493
953.70 0.6487
953.80 0.6482
953.90 0.6477
954.00 0.6471
954.10 0.6466
954.20 0.6461
954.30 0.6455
954.40 0.645
954.50 0.6445
954.60 0.644
954.70 0.6434
954.80 0.6429
954.90 0.6424
955.00 0.6418
955.10 0.6413
955.20 0.6408
955.30 0.6402
955.40 0.6397
955.50 0.6392
955.60 0.6387
955.70 0.6381
955.80 0.6376
955.90 0.6371
956.00 0.6365
956.10 0.636
956.20 0.6354
956.30 0.6349
956.40 0.6344
956.50 0.6338
956.60 0.6333
956.70 0.6327
956.80 0.6322
956.90 0.6317
957.00 0.6311
957.10 0.6306
957.20 0.6301
957.30 0.6296
957.40 0.629
957.50 0.6285
957.60 0.628
957.70 0.6275
957.80 0.6269
957.90 0.6264
958.00 0.6259
958.10 0.6254
958.20 0.6249
958.30 0.6243
958.40 0.6238
958.50 0.6233
958.60 0.6228
958.70 0.6223
958.80 0.6217
958.90 0.6212
959.00 0.6207
959.10 0.6202
959.20 0.6197
959.30 0.6192
959.40 0.6186
959.50 0.6181
959.60 0.6176
959.70 0.6171
959.80 0.6166
959.90 0.6161
960.00 0.6156
960.10 0.615
960.20 0.6145
960.30 0.614
960.40 0.6135
960.50 0.613
960.60 0.6125
960.70 0.612
960.80 0.6114
960.90 0.6109
961.00 0.6104
961.10 0.6099
961.20 0.6094
961.30 0.6089
961.40 0.6084
961.50 0.6079
961.60 0.6074
961.70 0.6069
961.80 0.6064
961.90 0.6058
962.00 0.6053
962.10 0.6048
962.20 0.6043
962.30 0.6038
962.40 0.6033
962.50 0.6028
962.60 0.6023
962.70 0.6018
962.80 0.6013
962.90 0.6008
963.00 0.6003
963.10 0.5998
963.20 0.5993
963.30 0.5988
963.40 0.5983
963.50 0.5978
963.60 0.5973
963.70 0.5968
963.80 0.5963
963.90 0.5958
964.00 0.5953
964.10 0.5948
964.20 0.5943
964.30 0.5938
964.40 0.5933
964.50 0.5928
964.60 0.5923
964.70 0.5918
964.80 0.5913
964.90 0.5908
965.00 0.5902
965.10 0.5897
965.20 0.5892
965.30 0.5887
965.40 0.5882
965.50 0.5877
965.60 0.5872
965.70 0.5867
965.80 0.5862
965.90 0.5857
966.00 0.5852
966.10 0.5847
966.20 0.5842
966.30 0.5837
966.40 0.5832
966.50 0.5827
966.60 0.5823
966.70 0.5818
966.80 0.5813
966.90 0.5808
967.00 0.5803
967.10 0.5798
967.20 0.5793
967.30 0.5788
967.40 0.5784
967.50 0.5779
967.60 0.5774
967.70 0.5769
967.80 0.5764
967.90 0.5759
968.00 0.5755
968.10 0.575
968.20 0.5745
968.30 0.574
968.40 0.5735
968.50 0.573
968.60 0.5726
968.70 0.5721
968.80 0.5716
968.90 0.5711
969.00 0.5707
969.10 0.5702
969.20 0.5697
969.30 0.5692
969.40 0.5687
969.50 0.5683
969.60 0.5678
969.70 0.5673
969.80 0.5668
969.90 0.5664
970.00 0.5659
970.10 0.5654
970.20 0.5649
970.30 0.5645
970.40 0.564
970.50 0.5635
970.60 0.5631
970.70 0.5626
970.80 0.5621
970.90 0.5616
971.00 0.5612
971.10 0.5607
971.20 0.5602
971.30 0.5598
971.40 0.5593
971.50 0.5588
971.60 0.5584
971.70 0.5579
971.80 0.5574
971.90 0.557
972.00 0.5565
972.10 0.556
972.20 0.5556
972.30 0.5551
972.40 0.5547
972.50 0.5542
972.60 0.5537
972.70 0.5533
972.80 0.5528
972.90 0.5524
973.00 0.5519
973.10 0.5514
973.20 0.551
973.30 0.5505
973.40 0.5501
973.50 0.5496
973.60 0.5492
973.70 0.5487
973.80 0.5482
973.90 0.5478
974.00 0.5473
974.10 0.5469
974.20 0.5464
974.30 0.546
974.40 0.5455
974.50 0.545
974.60 0.5446
974.70 0.5441
974.80 0.5437
974.90 0.5432
975.00 0.5428
975.10 0.5423
975.20 0.5419
975.30 0.5414
975.40 0.541
975.50 0.5405
975.60 0.5401
975.70 0.5396
975.80 0.5392
975.90 0.5387
976.00 0.5383
976.10 0.5378
976.20 0.5374
976.30 0.5369
976.40 0.5365
976.50 0.536
976.60 0.5356
976.70 0.5351
976.80 0.5347
976.90 0.5342
977.00 0.5338
977.10 0.5334
977.20 0.5329
977.30 0.5325
977.40 0.5321
977.50 0.5316
977.60 0.5312
977.70 0.5308
977.80 0.5303
977.90 0.5299
978.00 0.5295
978.10 0.5291
978.20 0.5286
978.30 0.5282
978.40 0.5278
978.50 0.5273
978.60 0.5269
978.70 0.5265
978.80 0.526
978.90 0.5256
979.00 0.5252
979.10 0.5248
979.20 0.5243
979.30 0.5239
979.40 0.5235
979.50 0.523
979.60 0.5226
979.70 0.5222
979.80 0.5218
979.90 0.5213
980.00 0.5209
980.10 0.5205
980.20 0.5201
980.30 0.5196
980.40 0.5192
980.50 0.5188
980.60 0.5184
980.70 0.5179
980.80 0.5175
980.90 0.5171
981.00 0.5167
981.10 0.5162
981.20 0.5158
981.30 0.5154
981.40 0.515
981.50 0.5145
981.60 0.5141
981.70 0.5137
981.80 0.5133
981.90 0.5128
982.00 0.5124
982.10 0.512
982.20 0.5116
982.30 0.5112
982.40 0.5108
982.50 0.5104
982.60 0.5099
982.70 0.5095
982.80 0.5091
982.90 0.5087
983.00 0.5083
983.10 0.5079
983.20 0.5075
983.30 0.5071
983.40 0.5067
983.50 0.5063
983.60 0.5058
983.70 0.5054
983.80 0.505
983.90 0.5046
984.00 0.5042
984.10 0.5038
984.20 0.5034
984.30 0.503
984.40 0.5026
984.50 0.5022
984.60 0.5018
984.70 0.5014
984.80 0.501
984.90 0.5006
985.00 0.5002
985.10 0.4998
985.20 0.4995
985.30 0.4991
985.40 0.4987
985.50 0.4983
985.60 0.4979
985.70 0.4976
985.80 0.4972
985.90 0.4968
986.00 0.4964
986.10 0.496
986.20 0.4956
986.30 0.4953
986.40 0.4949
986.50 0.4945
986.60 0.4941
986.70 0.4937
986.80 0.4934
986.90 0.493
987.00 0.4926
987.10 0.4922
987.20 0.4918
987.30 0.4914
987.40 0.491
987.50 0.4906
987.60 0.4902
987.70 0.4898
987.80 0.4894
987.90 0.489
988.00 0.4886
988.10 0.4882
988.20 0.4878
988.30 0.4874
988.40 0.487
988.50 0.4866
988.60 0.4862
988.70 0.4858
988.80 0.4854
988.90 0.485
989.00 0.4847
989.10 0.4843
989.20 0.4839
989.30 0.4835
989.40 0.4831
989.50 0.4827
989.60 0.4823
989.70 0.4819
989.80 0.4815
989.90 0.4811
990.00 0.4807
990.10 0.4803
990.20 0.4799
990.30 0.4795
990.40 0.4791
990.50 0.4787
990.60 0.4783
990.70 0.4779
990.80 0.4775
990.90 0.4771
991.00 0.4768
991.10 0.4764
991.20 0.476
991.30 0.4756
991.40 0.4752
991.50 0.4748
991.60 0.4744
991.70 0.474
991.80 0.4736
991.90 0.4732
992.00 0.4728
992.10 0.4724
992.20 0.472
992.30 0.4716
992.40 0.4713
992.50 0.4709
992.60 0.4705
992.70 0.4701
992.80 0.4697
992.90 0.4693
993.00 0.4689
993.10 0.4685
993.20 0.4681
993.30 0.4677
993.40 0.4673
993.50 0.4669
993.60 0.4665
993.70 0.4662
993.80 0.4658
993.90 0.4654
994.00 0.465
994.10 0.4646
994.20 0.4642
994.30 0.4638
994.40 0.4634
994.50 0.463
994.60 0.4626
994.70 0.4622
994.80 0.4617
994.90 0.4613
995.00 0.4608
995.10 0.4603
995.20 0.4599
995.30 0.4594
995.40 0.4589
995.50 0.4585
995.60 0.458
995.70 0.4576
995.80 0.4572
995.90 0.4568
996.00 0.4564
996.10 0.4561
996.20 0.4557
996.30 0.4553
996.40 0.4549
996.50 0.4545
996.60 0.4542
996.70 0.4538
996.80 0.4534
996.90 0.453
997.00 0.4526
997.10 0.4523
997.20 0.4519
997.30 0.4515
997.40 0.4512
997.50 0.4508
997.60 0.4504
997.70 0.4501
997.80 0.4497
997.90 0.4493
998.00 0.449
998.10 0.4486
998.20 0.4482
998.30 0.4479
998.40 0.4475
998.50 0.4472
998.60 0.4468
998.70 0.4464
998.80 0.4461
998.90 0.4457
999.00 0.4453
999.10 0.445
999.20 0.4446
999.30 0.4443
999.40 0.4439
999.50 0.4435
999.60 0.4432
999.70 0.4428
999.80 0.4425
999.90 0.4421
1000.00 0.4418
1000.10 0.4414
1000.20 0.4411
1000.30 0.4407
1000.40 0.4404
1000.50 0.44
1000.60 0.4397
1000.70 0.4393
1000.80 0.439
1000.90 0.4387
1001.00 0.4383
1001.10 0.438
1001.20 0.4376
1001.30 0.4373
1001.40 0.4369
1001.50 0.4366
1001.60 0.4362
1001.70 0.4359
1001.80 0.4355
1001.90 0.4352
1002.00 0.4349
1002.10 0.4345
1002.20 0.4342
1002.30 0.4339
1002.40 0.4335
1002.50 0.4332
1002.60 0.4329
1002.70 0.4325
1002.80 0.4322
1002.90 0.4319
1003.00 0.4315
1003.10 0.4312
1003.20 0.4309
1003.30 0.4305
1003.40 0.4302
1003.50 0.4299
1003.60 0.4296
1003.70 0.4292
1003.80 0.4289
1003.90 0.4286
1004.00 0.4283
1004.10 0.4279
1004.20 0.4276
1004.30 0.4273
1004.40 0.427
1004.50 0.4266
1004.60 0.4263
1004.70 0.426
1004.80 0.4257
1004.90 0.4253
1005.00 0.4249
1005.10 0.4245
1005.20 0.4242
1005.30 0.4239
1005.40 0.4236
1005.50 0.4233
1005.60 0.423
1005.70 0.4227
1005.80 0.4223
1005.90 0.422
1006.00 0.4217
1006.10 0.4214
1006.20 0.4211
1006.30 0.4208
1006.40 0.4205
1006.50 0.4202
1006.60 0.4199
1006.70 0.4196
1006.80 0.4193
1006.90 0.419
1007.00 0.4187
1007.10 0.4184
1007.20 0.4181
1007.30 0.4178
1007.40 0.4175
1007.50 0.4172
1007.60 0.4169
1007.70 0.4166
1007.80 0.4163
1007.90 0.416
1008.00 0.4157
1008.10 0.4154
1008.20 0.4151
1008.30 0.4149
1008.40 0.4146
1008.50 0.4143
1008.60 0.414
1008.70 0.4137
1008.80 0.4134
1008.90 0.4131
1009.00 0.4128
1009.10 0.4126
1009.20 0.4123
1009.30 0.412
1009.40 0.4117
1009.50 0.4114
1009.60 0.4111
1009.70 0.4108
1009.80 0.4106
1009.90 0.4103
1010.00 0.41
1010.10 0.4098
1010.20 0.4095
1010.30 0.4092
1010.40 0.4089
1010.50 0.4087
1010.60 0.4084
1010.70 0.4081
1010.80 0.4078
1010.90 0.4076
1011.00 0.4073
1011.10 0.407
1011.20 0.4068
1011.30 0.4065
1011.40 0.4062
1011.50 0.4059
1011.60 0.4057
1011.70 0.4054
1011.80 0.4051
1011.90 0.4049
1012.00 0.4046
1012.10 0.4044
1012.20 0.4041
1012.30 0.4039
1012.40 0.4036
1012.50 0.4033
1012.60 0.4031
1012.70 0.4028
1012.80 0.4026
1012.90 0.4023
1013.00 0.4021
1013.10 0.4018
1013.20 0.4016
1013.30 0.4013
1013.40 0.401
1013.50 0.4008
1013.60 0.4005
1013.70 0.4003
1013.80 0.4
1013.90 0.3998
1014.00 0.3995
1014.10 0.3993
1014.20 0.3991
1014.30 0.3988
1014.40 0.3986
1014.50 0.3983
1014.60 0.3981
1014.70 0.3978
1014.80 0.3976
1014.90 0.3974
1015.00 0.3972
1015.10 0.397
1015.20 0.3968
1015.30 0.3966
1015.40 0.3964
1015.50 0.3961
1015.60 0.3959
1015.70 0.3957
1015.80 0.3955
1015.90 0.3953
1016.00 0.3951
1016.10 0.3949
1016.20 0.3946
1016.30 0.3944
1016.40 0.3942
1016.50 0.394
1016.60 0.3938
1016.70 0.3936
1016.80 0.3933
1016.90 0.3931
1017.00 0.3929
1017.10 0.3926
1017.20 0.3924
1017.30 0.3922
1017.40 0.392
1017.50 0.3917
1017.60 0.3915
1017.70 0.3913
1017.80 0.391
1017.90 0.3908
1018.00 0.3906
1018.10 0.3904
1018.20 0.3901
1018.30 0.3899
1018.40 0.3897
1018.50 0.3894
1018.60 0.3892
1018.70 0.389
1018.80 0.3888
1018.90 0.3885
1019.00 0.3883
1019.10 0.3881
1019.20 0.3879
1019.30 0.3877
1019.40 0.3874
1019.50 0.3872
1019.60 0.387
1019.70 0.3868
1019.80 0.3865
1019.90 0.3863
1020.00 0.3861
1020.10 0.3859
1020.20 0.3857
1020.30 0.3854
1020.40 0.3852
1020.50 0.385
1020.60 0.3848
1020.70 0.3846
1020.80 0.3843
1020.90 0.3841
1021.00 0.3839
1021.10 0.3837
1021.20 0.3835
1021.30 0.3833
1021.40 0.383
1021.50 0.3828
1021.60 0.3826
1021.70 0.3824
1021.80 0.3822
1021.90 0.382
1022.00 0.3817
1022.10 0.3815
1022.20 0.3813
1022.30 0.3811
1022.40 0.3809
1022.50 0.3807
1022.60 0.3805
1022.70 0.3803
1022.80 0.3801
1022.90 0.3799
1023.00 0.3796
1023.10 0.3794
1023.20 0.3792
1023.30 0.379
1023.40 0.3788
1023.50 0.3786
1023.60 0.3784
1023.70 0.3782
1023.80 0.378
1023.90 0.3778
1024.00 0.3776
1024.10 0.3773
1024.20 0.3771
1024.30 0.3769
1024.40 0.3767
1024.50 0.3765
1024.60 0.3763
1024.70 0.3761
1024.80 0.3759
1024.90 0.3757
1025.00 0.3755
1025.10 0.3753
1025.20 0.3751
1025.30 0.3749
1025.40 0.3747
1025.50 0.3745
1025.60 0.3743
1025.70 0.3741
1025.80 0.3739
1025.90 0.3737
1026.00 0.3735
1026.10 0.3733
1026.20 0.373
1026.30 0.3728
1026.40 0.3726
1026.50 0.3724
1026.60 0.3722
1026.70 0.372
1026.80 0.3718
1026.90 0.3716
1027.00 0.3714
1027.10 0.3712
1027.20 0.371
1027.30 0.3709
1027.40 0.3707
1027.50 0.3705
1027.60 0.3703
1027.70 0.3701
1027.80 0.3699
1027.90 0.3697
1028.00 0.3695
1028.10 0.3693
1028.20 0.3692
1028.30 0.369
1028.40 0.3688
1028.50 0.3686
1028.60 0.3684
1028.70 0.3682
1028.80 0.368
1028.90 0.3678
1029.00 0.3676
1029.10 0.3675
1029.20 0.3673
1029.30 0.3671
1029.40 0.3669
1029.50 0.3667
1029.60 0.3665
1029.70 0.3663
1029.80 0.3661
1029.90 0.366
1030.00 0.3658
1030.10 0.3656
1030.20 0.3654
1030.30 0.3652
1030.40 0.365
1030.50 0.3648
1030.60 0.3646
1030.70 0.3645
1030.80 0.3643
1030.90 0.3641
1031.00 0.3639
1031.10 0.3637
1031.20 0.3635
1031.30 0.3633
1031.40 0.3631
1031.50 0.363
1031.60 0.3628
1031.70 0.3626
1031.80 0.3624
1031.90 0.3622
1032.00 0.362
1032.10 0.3619
1032.20 0.3617
1032.30 0.3615
1032.40 0.3613
1032.50 0.3612
1032.60 0.361
1032.70 0.3608
1032.80 0.3606
1032.90 0.3605
1033.00 0.3603
1033.10 0.3601
1033.20 0.3599
1033.30 0.3598
1033.40 0.3596
1033.50 0.3594
1033.60 0.3593
1033.70 0.3591
1033.80 0.3589
1033.90 0.3587
1034.00 0.3586
1034.10 0.3584
1034.20 0.3582
1034.30 0.358
1034.40 0.3579
1034.50 0.3577
1034.60 0.3575
1034.70 0.3574
1034.80 0.3572
1034.90 0.357
1035.00 0.3568
1035.10 0.3567
1035.20 0.3565
1035.30 0.3563
1035.40 0.3562
1035.50 0.356
1035.60 0.3558
1035.70 0.3556
1035.80 0.3555
1035.90 0.3553
1036.00 0.3551
1036.10 0.355
1036.20 0.3548
1036.30 0.3546
1036.40 0.3544
1036.50 0.3543
1036.60 0.3541
1036.70 0.3539
1036.80 0.3538
1036.90 0.3536
1037.00 0.3534
1037.10 0.3533
1037.20 0.3531
1037.30 0.353
1037.40 0.3528
1037.50 0.3526
1037.60 0.3525
1037.70 0.3523
1037.80 0.3522
1037.90 0.352
1038.00 0.3519
1038.10 0.3517
1038.20 0.3516
1038.30 0.3514
1038.40 0.3512
1038.50 0.3511
1038.60 0.3509
1038.70 0.3508
1038.80 0.3506
1038.90 0.3505
1039.00 0.3503
1039.10 0.3502
1039.20 0.35
1039.30 0.3499
1039.40 0.3497
1039.50 0.3495
1039.60 0.3494
1039.70 0.3492
1039.80 0.3491
1039.90 0.3489
1040.00 0.3488
1040.10 0.3486
1040.20 0.3485
1040.30 0.3483
1040.40 0.3482
1040.50 0.348
1040.60 0.3479
1040.70 0.3477
1040.80 0.3475
1040.90 0.3474
1041.00 0.3472
1041.10 0.3471
1041.20 0.3469
1041.30 0.3468
1041.40 0.3466
1041.50 0.3465
1041.60 0.3463
1041.70 0.3462
1041.80 0.346
1041.90 0.3459
1042.00 0.3457
1042.10 0.3456
1042.20 0.3454
1042.30 0.3453
1042.40 0.3452
1042.50 0.345
1042.60 0.3449
1042.70 0.3447
1042.80 0.3446
1042.90 0.3445
1043.00 0.3443
1043.10 0.3442
1043.20 0.344
1043.30 0.3439
1043.40 0.3438
1043.50 0.3436
1043.60 0.3435
1043.70 0.3434
1043.80 0.3432
1043.90 0.3431
1044.00 0.3429
1044.10 0.3428
1044.20 0.3427
1044.30 0.3425
1044.40 0.3424
1044.50 0.3422
1044.60 0.3421
1044.70 0.342
1044.80 0.3418
1044.90 0.3417
1045.00 0.3416
1045.10 0.3414
1045.20 0.3413
1045.30 0.3411
1045.40 0.341
1045.50 0.3409
1045.60 0.3407
1045.70 0.3406
1045.80 0.3405
1045.90 0.3403
1046.00 0.3402
1046.10 0.3401
1046.20 0.3399
1046.30 0.3398
1046.40 0.3396
1046.50 0.3395
1046.60 0.3394
1046.70 0.3392
1046.80 0.3391
1046.90 0.339
1047.00 0.3388
1047.10 0.3387
1047.20 0.3386
1047.30 0.3385
1047.40 0.3383
1047.50 0.3382
1047.60 0.3381
1047.70 0.338
1047.80 0.3378
1047.90 0.3377
1048.00 0.3376
1048.10 0.3375
1048.20 0.3373
1048.30 0.3372
1048.40 0.3371
1048.50 0.337
1048.60 0.3369
1048.70 0.3367
1048.80 0.3366
1048.90 0.3365
1049.00 0.3364
1049.10 0.3362
1049.20 0.3361
1049.30 0.336
1049.40 0.3359
1049.50 0.3357
1049.60 0.3356
1049.70 0.3355
1049.80 0.3354
1049.90 0.3353
1050.00 0.3351
1050.10 0.335
1050.20 0.3349
1050.30 0.3348
1050.40 0.3347
1050.50 0.3345
1050.60 0.3344
1050.70 0.3343
1050.80 0.3342
1050.90 0.334
1051.00 0.3339
1051.10 0.3338
1051.20 0.3337
1051.30 0.3336
1051.40 0.3334
1051.50 0.3333
1051.60 0.3332
1051.70 0.3331
1051.80 0.3329
1051.90 0.3328
1052.00 0.3327
1052.10 0.3326
1052.20 0.3325
1052.30 0.3324
1052.40 0.3323
1052.50 0.3322
1052.60 0.3321
1052.70 0.332
1052.80 0.3318
1052.90 0.3317
1053.00 0.3316
1053.10 0.3315
1053.20 0.3314
1053.30 0.3313
1053.40 0.3312
1053.50 0.3311
1053.60 0.331
1053.70 0.3309
1053.80 0.3308
1053.90 0.3307
1054.00 0.3306
1054.10 0.3305
1054.20 0.3304
1054.30 0.3303
1054.40 0.3301
1054.50 0.33
1054.60 0.3299
1054.70 0.3298
1054.80 0.3297
1054.90 0.3296
1055.00 0.3295
1055.10 0.3294
1055.20 0.3293
1055.30 0.3292
1055.40 0.3291
1055.50 0.329
1055.60 0.3289
1055.70 0.3288
1055.80 0.3287
1055.90 0.3286
1056.00 0.3284
1056.10 0.3283
1056.20 0.3282
1056.30 0.3281
1056.40 0.328
1056.50 0.3279
1056.60 0.3278
1056.70 0.3277
1056.80 0.3276
1056.90 0.3275
1057.00 0.3274
1057.10 0.3273
1057.20 0.3272
1057.30 0.3271
1057.40 0.327
1057.50 0.3269
1057.60 0.3268
1057.70 0.3267
1057.80 0.3267
1057.90 0.3266
1058.00 0.3265
1058.10 0.3264
1058.20 0.3263
1058.30 0.3262
1058.40 0.3261
1058.50 0.326
1058.60 0.3259
1058.70 0.3258
1058.80 0.3257
1058.90 0.3256
1059.00 0.3256
1059.10 0.3255
1059.20 0.3254
1059.30 0.3253
1059.40 0.3252
1059.50 0.3251
1059.60 0.325
1059.70 0.3249
1059.80 0.3248
1059.90 0.3247
1060.00 0.3246
1060.10 0.3245
1060.20 0.3245
1060.30 0.3244
1060.40 0.3243
1060.50 0.3242
1060.60 0.3241
1060.70 0.324
1060.80 0.3239
1060.90 0.3238
1061.00 0.3237
1061.10 0.3236
1061.20 0.3235
1061.30 0.3235
1061.40 0.3234
1061.50 0.3233
1061.60 0.3232
1061.70 0.3231
1061.80 0.323
1061.90 0.3229
1062.00 0.3228
1062.10 0.3227
1062.20 0.3227
1062.30 0.3226
1062.40 0.3225
1062.50 0.3224
1062.60 0.3223
1062.70 0.3223
1062.80 0.3222
1062.90 0.3221
1063.00 0.322
1063.10 0.322
1063.20 0.3219
1063.30 0.3218
1063.40 0.3217
1063.50 0.3216
1063.60 0.3216
1063.70 0.3215
1063.80 0.3214
1063.90 0.3213
1064.00 0.3212
1064.10 0.3212
1064.20 0.3211
1064.30 0.321
1064.40 0.3209
1064.50 0.3209
1064.60 0.3208
1064.70 0.3207
1064.80 0.3206
1064.90 0.3205
1065.00 0.3205
1065.10 0.3204
1065.20 0.3203
1065.30 0.3202
1065.40 0.3202
1065.50 0.3201
1065.60 0.32
1065.70 0.3199
1065.80 0.3198
1065.90 0.3198
1066.00 0.3197
1066.10 0.3196
1066.20 0.3195
1066.30 0.3194
1066.40 0.3194
1066.50 0.3193
1066.60 0.3192
1066.70 0.3191
1066.80 0.3191
1066.90 0.319
1067.00 0.3189
1067.10 0.3188
1067.20 0.3188
1067.30 0.3187
1067.40 0.3186
1067.50 0.3186
1067.60 0.3185
1067.70 0.3185
1067.80 0.3184
1067.90 0.3183
1068.00 0.3183
1068.10 0.3182
1068.20 0.3181
1068.30 0.3181
1068.40 0.318
1068.50 0.3179
1068.60 0.3179
1068.70 0.3178
1068.80 0.3177
1068.90 0.3177
1069.00 0.3176
1069.10 0.3175
1069.20 0.3175
1069.30 0.3174
1069.40 0.3174
1069.50 0.3173
1069.60 0.3172
1069.70 0.3172
1069.80 0.3171
1069.90 0.317
1070.00 0.317
1070.10 0.3169
1070.20 0.3168
1070.30 0.3168
1070.40 0.3167
1070.50 0.3166
1070.60 0.3166
1070.70 0.3165
1070.80 0.3164
1070.90 0.3164
1071.00 0.3163
1071.10 0.3163
1071.20 0.3162
1071.30 0.3161
1071.40 0.3161
1071.50 0.316
1071.60 0.3159
1071.70 0.3159
1071.80 0.3158
1071.90 0.3157
1072.00 0.3157
1072.10 0.3156
1072.20 0.3156
1072.30 0.3155
1072.40 0.3154
1072.50 0.3154
1072.60 0.3153
1072.70 0.3153
1072.80 0.3152
1072.90 0.3152
1073.00 0.3151
1073.10 0.315
1073.20 0.315
1073.30 0.3149
1073.40 0.3149
1073.50 0.3148
1073.60 0.3148
1073.70 0.3147
1073.80 0.3146
1073.90 0.3146
1074.00 0.3145
1074.10 0.3145
1074.20 0.3144
1074.30 0.3144
1074.40 0.3143
1074.50 0.3143
1074.60 0.3142
1074.70 0.3142
1074.80 0.3141
1074.90 0.3141
1075.00 0.314
1075.10 0.3139
1075.20 0.3139
1075.30 0.3138
1075.40 0.3138
1075.50 0.3137
1075.60 0.3137
1075.70 0.3136
1075.80 0.3136
1075.90 0.3135
1076.00 0.3135
1076.10 0.3134
1076.20 0.3134
1076.30 0.3133
1076.40 0.3133
1076.50 0.3132
1076.60 0.3131
1076.70 0.3131
1076.80 0.313
1076.90 0.313
1077.00 0.3129
1077.10 0.3129
1077.20 0.3128
1077.30 0.3128
1077.40 0.3127
1077.50 0.3127
1077.60 0.3126
1077.70 0.3126
1077.80 0.3125
1077.90 0.3125
1078.00 0.3125
1078.10 0.3124
1078.20 0.3124
1078.30 0.3123
1078.40 0.3123
1078.50 0.3122
1078.60 0.3122
1078.70 0.3121
1078.80 0.3121
1078.90 0.312
1079.00 0.312
1079.10 0.3119
1079.20 0.3119
1079.30 0.3118
1079.40 0.3118
1079.50 0.3118
1079.60 0.3117
1079.70 0.3117
1079.80 0.3116
1079.90 0.3116
1080.00 0.3115
1080.10 0.3115
1080.20 0.3115
1080.30 0.3114
1080.40 0.3114
1080.50 0.3113
1080.60 0.3113
1080.70 0.3113
1080.80 0.3112
1080.90 0.3112
1081.00 0.3111
1081.10 0.3111
1081.20 0.3111
1081.30 0.311
1081.40 0.311
1081.50 0.3109
1081.60 0.3109
1081.70 0.3109
1081.80 0.3108
1081.90 0.3108
1082.00 0.3107
1082.10 0.3107
1082.20 0.3107
1082.30 0.3106
1082.40 0.3106
1082.50 0.3105
1082.60 0.3105
1082.70 0.3105
1082.80 0.3104
1082.90 0.3104
1083.00 0.3103
1083.10 0.3103
1083.20 0.3103
1083.30 0.3102
1083.40 0.3102
1083.50 0.3101
1083.60 0.3101
1083.70 0.3101
1083.80 0.31
1083.90 0.31
1084.00 0.31
1084.10 0.3099
1084.20 0.3099
1084.30 0.3099
1084.40 0.3098
1084.50 0.3098
1084.60 0.3097
1084.70 0.3097
1084.80 0.3097
1084.90 0.3096
1085.00 0.3096
1085.10 0.3096
1085.20 0.3095
1085.30 0.3095
1085.40 0.3095
1085.50 0.3094
1085.60 0.3094
1085.70 0.3094
1085.80 0.3093
1085.90 0.3093
1086.00 0.3093
1086.10 0.3092
1086.20 0.3092
1086.30 0.3092
1086.40 0.3091
1086.50 0.3091
1086.60 0.3091
1086.70 0.309
1086.80 0.309
1086.90 0.309
1087.00 0.3089
1087.10 0.3089
1087.20 0.3089
1087.30 0.3088
1087.40 0.3088
1087.50 0.3088
1087.60 0.3087
1087.70 0.3087
1087.80 0.3087
1087.90 0.3087
1088.00 0.3086
1088.10 0.3086
1088.20 0.3086
1088.30 0.3085
1088.40 0.3085
1088.50 0.3085
1088.60 0.3084
1088.70 0.3084
1088.80 0.3084
1088.90 0.3084
1089.00 0.3083
1089.10 0.3083
1089.20 0.3083
1089.30 0.3082
1089.40 0.3082
1089.50 0.3082
1089.60 0.3082
1089.70 0.3081
1089.80 0.3081
1089.90 0.3081
1090.00 0.3081
1090.10 0.308
1090.20 0.308
1090.30 0.308
1090.40 0.3079
1090.50 0.3079
1090.60 0.3079
1090.70 0.3079
1090.80 0.3078
1090.90 0.3078
1091.00 0.3078
1091.10 0.3078
1091.20 0.3077
1091.30 0.3077
1091.40 0.3077
1091.50 0.3077
1091.60 0.3076
1091.70 0.3076
1091.80 0.3076
1091.90 0.3076
1092.00 0.3075
1092.10 0.3075
1092.20 0.3075
1092.30 0.3075
1092.40 0.3074
1092.50 0.3074
1092.60 0.3074
1092.70 0.3074
1092.80 0.3074
1092.90 0.3074
1093.00 0.3074
1093.10 0.3074
1093.20 0.3073
1093.30 0.3073
1093.40 0.3073
1093.50 0.3073
1093.60 0.3073
1093.70 0.3072
1093.80 0.3072
1093.90 0.3072
1094.00 0.3072
1094.10 0.3071
1094.20 0.3071
1094.30 0.3071
1094.40 0.3071
1094.50 0.3071
1094.60 0.307
1094.70 0.307
1094.80 0.307
1094.90 0.307
1095.00 0.307
1095.10 0.3069
1095.20 0.3069
1095.30 0.3069
1095.40 0.3069
1095.50 0.3069
1095.60 0.3068
1095.70 0.3068
1095.80 0.3068
1095.90 0.3068
1096.00 0.3068
1096.10 0.3067
1096.20 0.3067
1096.30 0.3067
1096.40 0.3067
1096.50 0.3067
1096.60 0.3066
1096.70 0.3066
1096.80 0.3066
1096.90 0.3066
1097.00 0.3066
1097.10 0.3066
1097.20 0.3065
1097.30 0.3065
1097.40 0.3065
1097.50 0.3065
1097.60 0.3065
1097.70 0.3065
1097.80 0.3064
1097.90 0.3064
1098.00 0.3064
1098.10 0.3064
1098.20 0.3064
1098.30 0.3063
1098.40 0.3063
1098.50 0.3063
1098.60 0.3063
1098.70 0.3063
1098.80 0.3063
1098.90 0.3062
1099.00 0.3062
1099.10 0.3062
1099.20 0.3062
1099.30 0.3062
1099.40 0.3062
1099.50 0.3062
1099.60 0.3061
1099.70 0.3061
1099.80 0.3061
1099.90 0.3061
1100.00 0.3061
1100.10 0.3061
1100.20 0.306
1100.30 0.306
1100.40 0.306
1100.50 0.306
1100.60 0.306
1100.70 0.306
1100.80 0.306
1100.90 0.3059
1101.00 0.3059
1101.10 0.3059
1101.20 0.3059
1101.30 0.3059
1101.40 0.3059
1101.50 0.3059
1101.60 0.3058
1101.70 0.3058
1101.80 0.3058
1101.90 0.3058
1102.00 0.3058
1102.10 0.3058
1102.20 0.3058
1102.30 0.3057
1102.40 0.3057
1102.50 0.3057
1102.60 0.3057
1102.70 0.3057
1102.80 0.3057
1102.90 0.3057
1103.00 0.3057
1103.10 0.3057
1103.20 0.3056
1103.30 0.3056
1103.40 0.3056
1103.50 0.3056
1103.60 0.3056
1103.70 0.3056
1103.80 0.3056
1103.90 0.3056
1104.00 0.3056
1104.10 0.3056
1104.20 0.3056
1104.30 0.3055
1104.40 0.3055
1104.50 0.3055
1104.60 0.3055
1104.70 0.3055
1104.80 0.3055
1104.90 0.3055
1105.00 0.3055
1105.10 0.3055
1105.20 0.3055
1105.30 0.3055
1105.40 0.3055
1105.50 0.3055
1105.60 0.3054
1105.70 0.3054
1105.80 0.3054
1105.90 0.3054
1106.00 0.3054
1106.10 0.3054
1106.20 0.3054
1106.30 0.3054
1106.40 0.3054
1106.50 0.3054
1106.60 0.3053
1106.70 0.3053
1106.80 0.3053
1106.90 0.3053
1107.00 0.3053
1107.10 0.3053
1107.20 0.3053
1107.30 0.3053
1107.40 0.3053
1107.50 0.3053
1107.60 0.3053
1107.70 0.3052
1107.80 0.3052
1107.90 0.3052
1108.00 0.3052
1108.10 0.3052
1108.20 0.3052
1108.30 0.3052
1108.40 0.3052
1108.50 0.3052
1108.60 0.3052
1108.70 0.3052
1108.80 0.3052
1108.90 0.3052
1109.00 0.3051
1109.10 0.3051
1109.20 0.3051
1109.30 0.3051
1109.40 0.3051
1109.50 0.3051
1109.60 0.3051
1109.70 0.3051
1109.80 0.3051
1109.90 0.3051
1110.00 0.3051
1110.10 0.3051
1110.20 0.3051
1110.30 0.3051
1110.40 0.305
1110.50 0.305
1110.60 0.305
1110.70 0.305
1110.80 0.305
1110.90 0.305
1111.00 0.305
1111.10 0.305
1111.20 0.305
1111.30 0.305
1111.40 0.305
1111.50 0.305
1111.60 0.305
1111.70 0.305
1111.80 0.305
1111.90 0.3049
1112.00 0.3049
1112.10 0.3049
1112.20 0.3049
1112.30 0.3049
1112.40 0.3049
1112.50 0.3049
1112.60 0.3049
1112.70 0.3049
1112.80 0.3049
1112.90 0.3049
1113.00 0.3049
1113.10 0.3049
1113.20 0.3049
1113.30 0.3049
1113.40 0.3049
1113.50 0.3049
1113.60 0.3049
1113.70 0.3048
1113.80 0.3048
1113.90 0.3048
1114.00 0.3048
1114.10 0.3048
1114.20 0.3048
1114.30 0.3048
1114.40 0.3048
1114.50 0.3048
1114.60 0.3048
1114.70 0.3048
1114.80 0.3048
1114.90 0.3048
1115.00 0.3048
1115.10 0.3048
1115.20 0.3048
1115.30 0.3048
1115.40 0.3048
1115.50 0.3048
1115.60 0.3048
1115.70 0.3048
1115.80 0.3048
1115.90 0.3048
1116.00 0.3048
1116.10 0.3048
1116.20 0.3047
1116.30 0.3047
1116.40 0.3047
1116.50 0.3047
1116.60 0.3047
1116.70 0.3047
1116.80 0.3047
1116.90 0.3047
1117.00 0.3047
1117.10 0.3047
1117.20 0.3047
1117.30 0.3047
1117.40 0.3047
1117.50 0.3047
1117.60 0.3047
1117.70 0.3047
1117.80 0.3047
1117.90 0.3047
1118.00 0.3047
1118.10 0.3047
1118.20 0.3047
1118.30 0.3047
1118.40 0.3047
1118.50 0.3047
1118.60 0.3047
1118.70 0.3047
1118.80 0.3047
1118.90 0.3047
1119.00 0.3047
1119.10 0.3047
1119.20 0.3047
1119.30 0.3047
1119.40 0.3047
1119.50 0.3047
1119.60 0.3047
1119.70 0.3047
1119.80 0.3047
1119.90 0.3047
1120.00 0.3047
1120.10 0.3047
1120.20 0.3047
1120.30 0.3047
1120.40 0.3047
1120.50 0.3047
1120.60 0.3047
1120.70 0.3047
1120.80 0.3047
1120.90 0.3047
1121.00 0.3047
1121.10 0.3047
1121.20 0.3047
1121.30 0.3047
1121.40 0.3047
1121.50 0.3047
1121.60 0.3047
1121.70 0.3047
1121.80 0.3047
1121.90 0.3047
1122.00 0.3047
1122.10 0.3047
1122.20 0.3047
1122.30 0.3047
1122.40 0.3047
1122.50 0.3047
1122.60 0.3047
1122.70 0.3047
1122.80 0.3047
1122.90 0.3047
1123.00 0.3047
1123.10 0.3047
1123.20 0.3046
1123.30 0.3046
1123.40 0.3046
1123.50 0.3046
1123.60 0.3046
1123.70 0.3046
1123.80 0.3046
1123.90 0.3046
1124.00 0.3046
1124.10 0.3046
1124.20 0.3046
1124.30 0.3046
1124.40 0.3046
1124.50 0.3046
1124.60 0.3046
1124.70 0.3046
1124.80 0.3046
1124.90 0.3046
1125.00 0.3046
1125.10 0.3046
1125.20 0.3046
1125.30 0.3046
1125.40 0.3046
1125.50 0.3046
1125.60 0.3046
1125.70 0.3046
1125.80 0.3046
1125.90 0.3046
1126.00 0.3046
1126.10 0.3046
1126.20 0.3046
1126.30 0.3046
1126.40 0.3046
1126.50 0.3046
1126.60 0.3046
1126.70 0.3046
1126.80 0.3046
1126.90 0.3046
1127.00 0.3046
1127.10 0.3046
1127.20 0.3046
1127.30 0.3046
1127.40 0.3046
1127.50 0.3046
1127.60 0.3046
1127.70 0.3046
1127.80 0.3046
1127.90 0.3046
1128.00 0.3046
1128.10 0.3046
1128.20 0.3046
1128.30 0.3046
1128.40 0.3046
1128.50 0.3046
1128.60 0.3046
1128.70 0.3046
1128.80 0.3046
1128.90 0.3046
1129.00 0.3046
1129.10 0.3046
1129.20 0.3046
1129.30 0.3046
1129.40 0.3046
1129.50 0.3046
1129.60 0.3046
1129.70 0.3046
1129.80 0.3046
1129.90 0.3046
1130.00 0.3046
1130.10 0.3046
1130.20 0.3046
1130.30 0.3046
1130.40 0.3046
1130.50 0.3046
1130.60 0.3046
1130.70 0.3046
1130.80 0.3046
1130.90 0.3046
1131.00 0.3046
1131.10 0.3046
1131.20 0.3046
1131.30 0.3046
1131.40 0.3046
1131.50 0.3046
1131.60 0.3046
1131.70 0.3046
1131.80 0.3046
1131.90 0.3046
1132.00 0.3046
1132.10 0.3046
1132.20 0.3046
1132.30 0.3046
1132.40 0.3046
1132.50 0.3046
1132.60 0.3046
1132.70 0.3046
1132.80 0.3046
1132.90 0.3046
1133.00 0.3046
1133.10 0.3046
1133.20 0.3045
1133.30 0.3045
1133.40 0.3045
1133.50 0.3045
1133.60 0.3045
1133.70 0.3045
1133.80 0.3045
1133.90 0.3045
1134.00 0.3045
1134.10 0.3045
1134.20 0.3045
1134.30 0.3045
1134.40 0.3045
1134.50 0.3045
1134.60 0.3045
1134.70 0.3045
1134.80 0.3045
1134.90 0.3045
1135.00 0.3045
1135.10 0.3045
1135.20 0.3045
1135.30 0.3045
1135.40 0.3045
1135.50 0.3044
1135.60 0.3044
1135.70 0.3044
1135.80 0.3044
1135.90 0.3044
1136.00 0.3044
1136.10 0.3044
1136.20 0.3044
1136.30 0.3044
1136.40 0.3044
1136.50 0.3044
1136.60 0.3044
1136.70 0.3044
1136.80 0.3044
1136.90 0.3044
1137.00 0.3044
1137.10 0.3044
1137.20 0.3044
1137.30 0.3044
1137.40 0.3044
1137.50 0.3043
1137.60 0.3043
1137.70 0.3043
1137.80 0.3043
1137.90 0.3043
1138.00 0.3043
1138.10 0.3043
1138.20 0.3043
1138.30 0.3043
1138.40 0.3043
1138.50 0.3043
1138.60 0.3043
1138.70 0.3043
1138.80 0.3043
1138.90 0.3043
1139.00 0.3042
1139.10 0.3042
1139.20 0.3042
1139.30 0.3042
1139.40 0.3042
1139.50 0.3042
1139.60 0.3042
1139.70 0.3042
1139.80 0.3042
1139.90 0.3042
1140.00 0.3042
1140.10 0.3042
1140.20 0.3042
1140.30 0.3042
1140.40 0.3041
1140.50 0.3041
1140.60 0.3041
1140.70 0.3041
1140.80 0.3041
1140.90 0.3041
1141.00 0.3041
1141.10 0.3041
1141.20 0.3041
1141.30 0.3041
1141.40 0.3041
1141.50 0.3041
1141.60 0.3041
1141.70 0.3041
1141.80 0.3041
1141.90 0.304
1142.00 0.304
1142.10 0.304
1142.20 0.304
1142.30 0.304
1142.40 0.304
1142.50 0.304
1142.60 0.304
1142.70 0.304
1142.80 0.304
1142.90 0.304
1143.00 0.304
1143.10 0.3039
1143.20 0.3039
1143.30 0.3039
1143.40 0.3039
1143.50 0.3039
1143.60 0.3039
1143.70 0.3039
1143.80 0.3039
1143.90 0.3039
1144.00 0.3039
1144.10 0.3039
1144.20 0.3039
1144.30 0.3038
1144.40 0.3038
1144.50 0.3038
1144.60 0.3038
1144.70 0.3038
1144.80 0.3038
1144.90 0.3038
1145.00 0.3038
1145.10 0.3038
1145.20 0.3038
1145.30 0.3038
1145.40 0.3038
1145.50 0.3037
1145.60 0.3037
1145.70 0.3037
1145.80 0.3037
1145.90 0.3037
1146.00 0.3037
1146.10 0.3037
1146.20 0.3037
1146.30 0.3037
1146.40 0.3037
1146.50 0.3037
1146.60 0.3037
1146.70 0.3036
1146.80 0.3036
1146.90 0.3036
1147.00 0.3036
1147.10 0.3036
1147.20 0.3036
1147.30 0.3036
1147.40 0.3036
1147.50 0.3035
1147.60 0.3035
1147.70 0.3035
1147.80 0.3035
1147.90 0.3035
1148.00 0.3035
1148.10 0.3035
1148.20 0.3034
1148.30 0.3034
1148.40 0.3034
1148.50 0.3034
1148.60 0.3034
1148.70 0.3034
1148.80 0.3034
1148.90 0.3033
1149.00 0.3033
1149.10 0.3033
1149.20 0.3033
1149.30 0.3033
1149.40 0.3033
1149.50 0.3032
1149.60 0.3032
1149.70 0.3032
1149.80 0.3032
1149.90 0.3032
1150.00 0.3032
1150.10 0.3032
1150.20 0.3031
1150.30 0.3031
1150.40 0.3031
1150.50 0.3031
1150.60 0.3031
1150.70 0.3031
1150.80 0.303
1150.90 0.303
1151.00 0.303
1151.10 0.303
1151.20 0.303
1151.30 0.303
1151.40 0.303
1151.50 0.3029
1151.60 0.3029
1151.70 0.3029
1151.80 0.3029
1151.90 0.3029
1152.00 0.3029
1152.10 0.3029
1152.20 0.3028
1152.30 0.3028
1152.40 0.3028
1152.50 0.3028
1152.60 0.3028
1152.70 0.3027
1152.80 0.3027
1152.90 0.3027
1153.00 0.3027
1153.10 0.3027
1153.20 0.3027
1153.30 0.3026
1153.40 0.3026
1153.50 0.3026
1153.60 0.3026
1153.70 0.3026
1153.80 0.3025
1153.90 0.3025
1154.00 0.3025
1154.10 0.3025
1154.20 0.3025
1154.30 0.3025
1154.40 0.3024
1154.50 0.3024
1154.60 0.3024
1154.70 0.3024
1154.80 0.3024
1154.90 0.3024
1155.00 0.3023
1155.10 0.3023
1155.20 0.3023
1155.30 0.3023
1155.40 0.3023
1155.50 0.3022
1155.60 0.3022
1155.70 0.3022
1155.80 0.3022
1155.90 0.3022
1156.00 0.3022
1156.10 0.3021
1156.20 0.3021
1156.30 0.3021
1156.40 0.3021
1156.50 0.3021
1156.60 0.302
1156.70 0.302
1156.80 0.302
1156.90 0.302
1157.00 0.302
1157.10 0.302
1157.20 0.3019
1157.30 0.3019
1157.40 0.3019
1157.50 0.3018
1157.60 0.3018
1157.70 0.3018
1157.80 0.3018
1157.90 0.3017
1158.00 0.3017
1158.10 0.3017
1158.20 0.3017
1158.30 0.3016
1158.40 0.3016
1158.50 0.3016
1158.60 0.3016
1158.70 0.3015
1158.80 0.3015
1158.90 0.3015
1159.00 0.3015
1159.10 0.3014
1159.20 0.3014
1159.30 0.3014
1159.40 0.3014
1159.50 0.3013
1159.60 0.3013
1159.70 0.3013
1159.80 0.3013
1159.90 0.3012
1160.00 0.3012
1160.10 0.3012
1160.20 0.3012
1160.30 0.3011
1160.40 0.3011
1160.50 0.3011
1160.60 0.3011
1160.70 0.301
1160.80 0.301
1160.90 0.301
1161.00 0.301
1161.10 0.3009
1161.20 0.3009
1161.30 0.3009
1161.40 0.3009
1161.50 0.3008
1161.60 0.3008
1161.70 0.3008
1161.80 0.3008
1161.90 0.3007
1162.00 0.3007
1162.10 0.3007
1162.20 0.3006
1162.30 0.3006
1162.40 0.3006
1162.50 0.3005
1162.60 0.3005
1162.70 0.3005
1162.80 0.3004
1162.90 0.3004
1163.00 0.3004
1163.10 0.3004
1163.20 0.3003
1163.30 0.3003
1163.40 0.3003
1163.50 0.3002
1163.60 0.3002
1163.70 0.3002
1163.80 0.3001
1163.90 0.3001
1164.00 0.3001
1164.10 0.3
1164.20 0.3
1164.30 0.3
1164.40 0.2999
1164.50 0.2999
1164.60 0.2999
1164.70 0.2998
1164.80 0.2998
1164.90 0.2998
1165.00 0.2997
1165.10 0.2997
1165.20 0.2997
1165.30 0.2997
1165.40 0.2996
1165.50 0.2996
1165.60 0.2996
1165.70 0.2995
1165.80 0.2995
1165.90 0.2995
1166.00 0.2994
1166.10 0.2994
1166.20 0.2994
1166.30 0.2993
1166.40 0.2993
1166.50 0.2993
1166.60 0.2992
1166.70 0.2992
1166.80 0.2992
1166.90 0.2991
1167.00 0.2991
1167.10 0.2991
1167.20 0.299
1167.30 0.299
1167.40 0.299
1167.50 0.2989
1167.60 0.2989
1167.70 0.2989
1167.80 0.2988
1167.90 0.2988
1168.00 0.2987
1168.10 0.2987
1168.20 0.2987
1168.30 0.2986
1168.40 0.2986
1168.50 0.2986
1168.60 0.2985
1168.70 0.2985
1168.80 0.2984
1168.90 0.2984
1169.00 0.2984
1169.10 0.2983
1169.20 0.2983
1169.30 0.2983
1169.40 0.2982
1169.50 0.2982
1169.60 0.2981
1169.70 0.2981
1169.80 0.2981
1169.90 0.298
1170.00 0.298
1170.10 0.298
1170.20 0.2979
1170.30 0.2979
1170.40 0.2978
1170.50 0.2978
1170.60 0.2978
1170.70 0.2977
1170.80 0.2977
1170.90 0.2977
1171.00 0.2976
1171.10 0.2976
1171.20 0.2975
1171.30 0.2975
1171.40 0.2975
1171.50 0.2974
1171.60 0.2974
1171.70 0.2974
1171.80 0.2973
1171.90 0.2973
1172.00 0.2972
1172.10 0.2972
1172.20 0.2972
1172.30 0.2971
1172.40 0.2971
1172.50 0.297
1172.60 0.297
1172.70 0.2969
1172.80 0.2969
1172.90 0.2969
1173.00 0.2968
1173.10 0.2968
1173.20 0.2967
1173.30 0.2967
1173.40 0.2966
1173.50 0.2966
1173.60 0.2966
1173.70 0.2965
1173.80 0.2965
1173.90 0.2964
1174.00 0.2964
1174.10 0.2963
1174.20 0.2963
1174.30 0.2962
1174.40 0.2962
1174.50 0.2962
1174.60 0.2961
1174.70 0.2961
1174.80 0.296
1174.90 0.296
1175.00 0.2959
1175.10 0.2959
1175.20 0.2959
1175.30 0.2958
1175.40 0.2958
1175.50 0.2957
1175.60 0.2957
1175.70 0.2956
1175.80 0.2956
1175.90 0.2956
1176.00 0.2955
1176.10 0.2955
1176.20 0.2954
1176.30 0.2954
1176.40 0.2953
1176.50 0.2953
1176.60 0.2953
1176.70 0.2952
1176.80 0.2952
1176.90 0.2951
1177.00 0.2951
1177.10 0.295
1177.20 0.295
1177.30 0.2949
1177.40 0.2949
1177.50 0.2948
1177.60 0.2948
1177.70 0.2948
1177.80 0.2947
1177.90 0.2947
1178.00 0.2946
1178.10 0.2946
1178.20 0.2945
1178.30 0.2945
1178.40 0.2944
1178.50 0.2944
1178.60 0.2943
1178.70 0.2943
1178.80 0.2942
1178.90 0.2942
1179.00 0.2941
1179.10 0.2941
1179.20 0.294
1179.30 0.294
1179.40 0.2939
1179.50 0.2939
1179.60 0.2938
1179.70 0.2938
1179.80 0.2937
1179.90 0.2937
1180.00 0.2936
1180.10 0.2936
1180.20 0.2935
1180.30 0.2935
1180.40 0.2934
1180.50 0.2934
1180.60 0.2933
1180.70 0.2933
1180.80 0.2933
1180.90 0.2932
1181.00 0.2932
1181.10 0.2931
1181.20 0.2931
1181.30 0.293
1181.40 0.293
1181.50 0.2929
1181.60 0.2929
1181.70 0.2928
1181.80 0.2928
1181.90 0.2927
1182.00 0.2927
1182.10 0.2926
1182.20 0.2926
1182.30 0.2925
1182.40 0.2925
1182.50 0.2924
1182.60 0.2923
1182.70 0.2923
1182.80 0.2922
1182.90 0.2922
1183.00 0.2921
1183.10 0.2921
1183.20 0.292
1183.30 0.292
1183.40 0.2919
1183.50 0.2918
1183.60 0.2918
1183.70 0.2917
1183.80 0.2917
1183.90 0.2916
1184.00 0.2916
1184.10 0.2915
1184.20 0.2915
1184.30 0.2914
1184.40 0.2914
1184.50 0.2913
1184.60 0.2912
1184.70 0.2912
1184.80 0.2911
1184.90 0.2911
1185.00 0.291
1185.10 0.291
1185.20 0.2909
1185.30 0.2909
1185.40 0.2908
1185.50 0.2907
1185.60 0.2907
1185.70 0.2906
1185.80 0.2906
1185.90 0.2905
1186.00 0.2905
1186.10 0.2904
1186.20 0.2904
1186.30 0.2903
1186.40 0.2903
1186.50 0.2902
1186.60 0.2901
1186.70 0.2901
1186.80 0.29
1186.90 0.29
1187.00 0.2899
1187.10 0.2899
1187.20 0.2898
1187.30 0.2898
1187.40 0.2897
1187.50 0.2897
1187.60 0.2896
1187.70 0.2895
1187.80 0.2895
1187.90 0.2894
1188.00 0.2894
1188.10 0.2893
1188.20 0.2893
1188.30 0.2892
1188.40 0.2892
1188.50 0.2891
1188.60 0.289
1188.70 0.289
1188.80 0.2889
1188.90 0.2889
1189.00 0.2888
1189.10 0.2888
1189.20 0.2887
1189.30 0.2887
1189.40 0.2886
1189.50 0.2885
1189.60 0.2885
1189.70 0.2884
1189.80 0.2884
1189.90 0.2883
1190.00 0.2883
1190.10 0.2882
1190.20 0.2882
1190.30 0.2881
1190.40 0.288
1190.50 0.288
1190.60 0.2879
1190.70 0.2879
1190.80 0.2878
1190.90 0.2878
1191.00 0.2877
1191.10 0.2877
1191.20 0.2876
1191.30 0.2875
1191.40 0.2875
1191.50 0.2874
1191.60 0.2874
1191.70 0.2873
1191.80 0.2873
1191.90 0.2872
1192.00 0.2872
1192.10 0.2871
1192.20 0.287
1192.30 0.287
1192.40 0.2869
1192.50 0.2869
1192.60 0.2868
1192.70 0.2868
1192.80 0.2867
1192.90 0.2866
1193.00 0.2866
1193.10 0.2865
1193.20 0.2865
1193.30 0.2864
1193.40 0.2863
1193.50 0.2863
1193.60 0.2862
1193.70 0.2862
1193.80 0.2861
1193.90 0.2861
1194.00 0.286
1194.10 0.2859
1194.20 0.2859
1194.30 0.2858
1194.40 0.2858
1194.50 0.2857
1194.60 0.2857
1194.70 0.2856
1194.80 0.2855
1194.90 0.2855
1195.00 0.2854
1195.10 0.2854
1195.20 0.2853
1195.30 0.2852
1195.40 0.2852
1195.50 0.2851
1195.60 0.2851
1195.70 0.285
1195.80 0.285
1195.90 0.2849
1196.00 0.2848
1196.10 0.2848
1196.20 0.2847
1196.30 0.2847
1196.40 0.2846
1196.50 0.2846
1196.60 0.2845
1196.70 0.2844
1196.80 0.2844
1196.90 0.2843
1197.00 0.2843
1197.10 0.2842
1197.20 0.2841
1197.30 0.2841
1197.40 0.284
1197.50 0.284
1197.60 0.2839
1197.70 0.2838
1197.80 0.2838
1197.90 0.2837
1198.00 0.2836
1198.10 0.2836
1198.20 0.2835
1198.30 0.2835
1198.40 0.2834
1198.50 0.2833
1198.60 0.2833
1198.70 0.2832
1198.80 0.2831
1198.90 0.2831
1199.00 0.283
1199.10 0.283
1199.20 0.2829
1199.30 0.2828
1199.40 0.2828
1199.50 0.2827
1199.60 0.2826
1199.70 0.2826
1199.80 0.2825
1199.90 0.2825
1200.00 0
