# Version 2.1 - nm, norm@500 to 1, cut digits, bergeron_30000_85.dat_30000
# Wavelength(nm)  Flambda(ergs/cm^s/s/nm)
300.00 5.056
300.10 5.05
300.20 5.044
300.30 5.039
300.40 5.033
300.50 5.027
300.60 5.021
300.70 5.016
300.80 5.01
300.90 5.004
301.00 4.999
301.10 4.993
301.20 4.987
301.30 4.982
301.40 4.976
301.50 4.97
301.60 4.965
301.70 4.959
301.80 4.954
301.90 4.948
302.00 4.942
302.10 4.937
302.20 4.931
302.30 4.926
302.40 4.92
302.50 4.914
302.60 4.909
302.70 4.903
302.80 4.898
302.90 4.892
303.00 4.887
303.10 4.881
303.20 4.876
303.30 4.87
303.40 4.865
303.50 4.859
303.60 4.854
303.70 4.848
303.80 4.843
303.90 4.837
304.00 4.832
304.10 4.826
304.20 4.821
304.30 4.816
304.40 4.81
304.50 4.805
304.60 4.799
304.70 4.794
304.80 4.789
304.90 4.783
305.00 4.778
305.10 4.773
305.20 4.767
305.30 4.762
305.40 4.757
305.50 4.751
305.60 4.746
305.70 4.741
305.80 4.735
305.90 4.73
306.00 4.725
306.10 4.719
306.20 4.714
306.30 4.709
306.40 4.704
306.50 4.698
306.60 4.693
306.70 4.688
306.80 4.683
306.90 4.677
307.00 4.672
307.10 4.667
307.20 4.662
307.30 4.657
307.40 4.651
307.50 4.646
307.60 4.641
307.70 4.636
307.80 4.631
307.90 4.626
308.00 4.62
308.10 4.615
308.20 4.61
308.30 4.605
308.40 4.6
308.50 4.595
308.60 4.59
308.70 4.585
308.80 4.58
308.90 4.574
309.00 4.569
309.10 4.564
309.20 4.559
309.30 4.554
309.40 4.549
309.50 4.544
309.60 4.539
309.70 4.534
309.80 4.529
309.90 4.524
310.00 4.519
310.10 4.514
310.20 4.509
310.30 4.504
310.40 4.499
310.50 4.494
310.60 4.489
310.70 4.484
310.80 4.479
310.90 4.474
311.00 4.469
311.10 4.465
311.20 4.46
311.30 4.455
311.40 4.45
311.50 4.445
311.60 4.44
311.70 4.435
311.80 4.43
311.90 4.425
312.00 4.421
312.10 4.416
312.20 4.411
312.30 4.406
312.40 4.401
312.50 4.396
312.60 4.391
312.70 4.387
312.80 4.382
312.90 4.377
313.00 4.372
313.10 4.367
313.20 4.363
313.30 4.358
313.40 4.353
313.50 4.348
313.60 4.344
313.70 4.339
313.80 4.334
313.90 4.329
314.00 4.325
314.10 4.32
314.20 4.315
314.30 4.31
314.40 4.306
314.50 4.301
314.60 4.296
314.70 4.292
314.80 4.287
314.90 4.282
315.00 4.278
315.10 4.273
315.20 4.268
315.30 4.264
315.40 4.259
315.50 4.254
315.60 4.25
315.70 4.245
315.80 4.241
315.90 4.236
316.00 4.231
316.10 4.227
316.20 4.222
316.30 4.218
316.40 4.213
316.50 4.209
316.60 4.204
316.70 4.199
316.80 4.195
316.90 4.19
317.00 4.186
317.10 4.181
317.20 4.177
317.30 4.172
317.40 4.168
317.50 4.163
317.60 4.159
317.70 4.154
317.80 4.15
317.90 4.145
318.00 4.141
318.10 4.136
318.20 4.132
318.30 4.127
318.40 4.123
318.50 4.118
318.60 4.114
318.70 4.11
318.80 4.105
318.90 4.101
319.00 4.096
319.10 4.092
319.20 4.088
319.30 4.083
319.40 4.079
319.50 4.074
319.60 4.07
319.70 4.066
319.80 4.061
319.90 4.057
320.00 4.052
320.10 4.048
320.20 4.044
320.30 4.039
320.40 4.035
320.50 4.031
320.60 4.026
320.70 4.022
320.80 4.018
320.90 4.014
321.00 4.009
321.10 4.005
321.20 4.001
321.30 3.996
321.40 3.992
321.50 3.988
321.60 3.984
321.70 3.979
321.80 3.975
321.90 3.971
322.00 3.967
322.10 3.962
322.20 3.958
322.30 3.954
322.40 3.95
322.50 3.946
322.60 3.941
322.70 3.937
322.80 3.933
322.90 3.929
323.00 3.925
323.10 3.92
323.20 3.916
323.30 3.912
323.40 3.908
323.50 3.904
323.60 3.9
323.70 3.895
323.80 3.891
323.90 3.887
324.00 3.883
324.10 3.879
324.20 3.875
324.30 3.871
324.40 3.867
324.50 3.862
324.60 3.858
324.70 3.854
324.80 3.85
324.90 3.846
325.00 3.842
325.10 3.838
325.20 3.834
325.30 3.83
325.40 3.826
325.50 3.822
325.60 3.818
325.70 3.814
325.80 3.81
325.90 3.806
326.00 3.802
326.10 3.798
326.20 3.794
326.30 3.79
326.40 3.786
326.50 3.782
326.60 3.778
326.70 3.774
326.80 3.77
326.90 3.766
327.00 3.762
327.10 3.758
327.20 3.754
327.30 3.75
327.40 3.746
327.50 3.742
327.60 3.738
327.70 3.734
327.80 3.73
327.90 3.726
328.00 3.722
328.10 3.719
328.20 3.715
328.30 3.711
328.40 3.707
328.50 3.703
328.60 3.699
328.70 3.695
328.80 3.691
328.90 3.687
329.00 3.684
329.10 3.68
329.20 3.676
329.30 3.672
329.40 3.668
329.50 3.664
329.60 3.661
329.70 3.657
329.80 3.653
329.90 3.649
330.00 3.645
330.10 3.642
330.20 3.638
330.30 3.634
330.40 3.63
330.50 3.626
330.60 3.623
330.70 3.619
330.80 3.615
330.90 3.611
331.00 3.608
331.10 3.604
331.20 3.6
331.30 3.596
331.40 3.593
331.50 3.589
331.60 3.585
331.70 3.581
331.80 3.578
331.90 3.574
332.00 3.57
332.10 3.566
332.20 3.563
332.30 3.559
332.40 3.555
332.50 3.552
332.60 3.548
332.70 3.544
332.80 3.541
332.90 3.537
333.00 3.533
333.10 3.53
333.20 3.526
333.30 3.522
333.40 3.519
333.50 3.515
333.60 3.512
333.70 3.508
333.80 3.504
333.90 3.501
334.00 3.497
334.10 3.493
334.20 3.49
334.30 3.486
334.40 3.483
334.50 3.479
334.60 3.475
334.70 3.472
334.80 3.468
334.90 3.465
335.00 3.461
335.10 3.458
335.20 3.454
335.30 3.451
335.40 3.447
335.50 3.443
335.60 3.44
335.70 3.436
335.80 3.433
335.90 3.429
336.00 3.426
336.10 3.422
336.20 3.419
336.30 3.415
336.40 3.412
336.50 3.408
336.60 3.405
336.70 3.401
336.80 3.398
336.90 3.394
337.00 3.391
337.10 3.387
337.20 3.384
337.30 3.38
337.40 3.377
337.50 3.374
337.60 3.37
337.70 3.367
337.80 3.363
337.90 3.36
338.00 3.356
338.10 3.353
338.20 3.349
338.30 3.346
338.40 3.343
338.50 3.339
338.60 3.336
338.70 3.332
338.80 3.329
338.90 3.326
339.00 3.322
339.10 3.319
339.20 3.316
339.30 3.312
339.40 3.309
339.50 3.305
339.60 3.302
339.70 3.299
339.80 3.295
339.90 3.292
340.00 3.289
340.10 3.285
340.20 3.282
340.30 3.279
340.40 3.275
340.50 3.272
340.60 3.269
340.70 3.265
340.80 3.262
340.90 3.259
341.00 3.255
341.10 3.252
341.20 3.249
341.30 3.246
341.40 3.242
341.50 3.239
341.60 3.236
341.70 3.232
341.80 3.229
341.90 3.226
342.00 3.223
342.10 3.219
342.20 3.216
342.30 3.213
342.40 3.21
342.50 3.206
342.60 3.203
342.70 3.2
342.80 3.197
342.90 3.194
343.00 3.19
343.10 3.187
343.20 3.184
343.30 3.181
343.40 3.177
343.50 3.174
343.60 3.171
343.70 3.168
343.80 3.165
343.90 3.162
344.00 3.158
344.10 3.155
344.20 3.152
344.30 3.149
344.40 3.146
344.50 3.143
344.60 3.139
344.70 3.136
344.80 3.133
344.90 3.13
345.00 3.127
345.10 3.124
345.20 3.121
345.30 3.117
345.40 3.114
345.50 3.111
345.60 3.108
345.70 3.105
345.80 3.102
345.90 3.099
346.00 3.096
346.10 3.093
346.20 3.089
346.30 3.086
346.40 3.083
346.50 3.08
346.60 3.077
346.70 3.074
346.80 3.071
346.90 3.068
347.00 3.065
347.10 3.062
347.20 3.059
347.30 3.056
347.40 3.053
347.50 3.05
347.60 3.047
347.70 3.044
347.80 3.041
347.90 3.038
348.00 3.035
348.10 3.032
348.20 3.029
348.30 3.025
348.40 3.022
348.50 3.02
348.60 3.017
348.70 3.014
348.80 3.011
348.90 3.008
349.00 3.005
349.10 3.002
349.20 2.999
349.30 2.996
349.40 2.993
349.50 2.99
349.60 2.987
349.70 2.984
349.80 2.981
349.90 2.978
350.00 2.975
350.10 2.972
350.20 2.969
350.30 2.966
350.40 2.963
350.50 2.96
350.60 2.957
350.70 2.954
350.80 2.952
350.90 2.949
351.00 2.946
351.10 2.943
351.20 2.94
351.30 2.937
351.40 2.934
351.50 2.931
351.60 2.928
351.70 2.925
351.80 2.923
351.90 2.92
352.00 2.917
352.10 2.914
352.20 2.911
352.30 2.908
352.40 2.905
352.50 2.903
352.60 2.9
352.70 2.897
352.80 2.894
352.90 2.891
353.00 2.888
353.10 2.885
353.20 2.883
353.30 2.88
353.40 2.877
353.50 2.874
353.60 2.871
353.70 2.869
353.80 2.866
353.90 2.863
354.00 2.86
354.10 2.857
354.20 2.855
354.30 2.852
354.40 2.849
354.50 2.846
354.60 2.843
354.70 2.841
354.80 2.838
354.90 2.835
355.00 2.832
355.10 2.83
355.20 2.827
355.30 2.824
355.40 2.821
355.50 2.818
355.60 2.816
355.70 2.813
355.80 2.81
355.90 2.808
356.00 2.805
356.10 2.802
356.20 2.799
356.30 2.797
356.40 2.794
356.50 2.791
356.60 2.788
356.70 2.786
356.80 2.783
356.90 2.78
357.00 2.778
357.10 2.775
357.20 2.772
357.30 2.77
357.40 2.767
357.50 2.764
357.60 2.762
357.70 2.759
357.80 2.756
357.90 2.753
358.00 2.751
358.10 2.748
358.20 2.745
358.30 2.743
358.40 2.74
358.50 2.738
358.60 2.735
358.70 2.732
358.80 2.73
358.90 2.727
359.00 2.724
359.10 2.722
359.20 2.719
359.30 2.716
359.40 2.714
359.50 2.711
359.60 2.709
359.70 2.706
359.80 2.703
359.90 2.701
360.00 2.698
360.10 2.696
360.20 2.693
360.30 2.69
360.40 2.688
360.50 2.685
360.60 2.683
360.70 2.68
360.80 2.677
360.90 2.675
361.00 2.672
361.10 2.67
361.20 2.667
361.30 2.665
361.40 2.662
361.50 2.66
361.60 2.657
361.70 2.654
361.80 2.652
361.90 2.649
362.00 2.647
362.10 2.644
362.20 2.642
362.30 2.639
362.40 2.637
362.50 2.634
362.60 2.632
362.70 2.629
362.80 2.627
362.90 2.624
363.00 2.622
363.10 2.619
363.20 2.617
363.30 2.614
363.40 2.612
363.50 2.609
363.60 2.607
363.70 2.604
363.80 2.602
363.90 2.599
364.00 2.597
364.10 2.594
364.20 2.592
364.30 2.589
364.40 2.587
364.50 2.584
364.60 2.582
364.70 2.579
364.80 2.577
364.90 2.574
365.00 2.572
365.10 2.57
365.20 2.567
365.30 2.565
365.40 2.562
365.50 2.56
365.60 2.557
365.70 2.555
365.80 2.552
365.90 2.55
366.00 2.548
366.10 2.545
366.20 2.542
366.30 2.54
366.40 2.537
366.50 2.535
366.60 2.532
366.70 2.529
366.80 2.527
366.90 2.524
367.00 2.522
367.10 2.519
367.20 2.516
367.30 2.514
367.40 2.511
367.50 2.509
367.60 2.506
367.70 2.503
367.80 2.501
367.90 2.498
368.00 2.496
368.10 2.493
368.20 2.491
368.30 2.488
368.40 2.485
368.50 2.483
368.60 2.48
368.70 2.477
368.80 2.475
368.90 2.472
369.00 2.47
369.10 2.467
369.20 2.465
369.30 2.462
369.40 2.459
369.50 2.457
369.60 2.454
369.70 2.452
369.80 2.449
369.90 2.446
370.00 2.444
370.10 2.441
370.20 2.439
370.30 2.436
370.40 2.434
370.50 2.431
370.60 2.429
370.70 2.426
370.80 2.424
370.90 2.421
371.00 2.419
371.10 2.416
371.20 2.414
371.30 2.412
371.40 2.409
371.50 2.407
371.60 2.404
371.70 2.402
371.80 2.399
371.90 2.397
372.00 2.394
372.10 2.392
372.20 2.39
372.30 2.387
372.40 2.385
372.50 2.383
372.60 2.38
372.70 2.378
372.80 2.376
372.90 2.374
373.00 2.371
373.10 2.369
373.20 2.367
373.30 2.364
373.40 2.362
373.50 2.36
373.60 2.357
373.70 2.355
373.80 2.353
373.90 2.351
374.00 2.348
374.10 2.346
374.20 2.344
374.30 2.342
374.40 2.339
374.50 2.337
374.60 2.335
374.70 2.333
374.80 2.33
374.90 2.328
375.00 2.326
375.10 2.324
375.20 2.322
375.30 2.319
375.40 2.317
375.50 2.315
375.60 2.313
375.70 2.31
375.80 2.308
375.90 2.306
376.00 2.304
376.10 2.302
376.20 2.3
376.30 2.297
376.40 2.295
376.50 2.293
376.60 2.291
376.70 2.289
376.80 2.287
376.90 2.285
377.00 2.282
377.10 2.281
377.20 2.279
377.30 2.277
377.40 2.275
377.50 2.273
377.60 2.272
377.70 2.27
377.80 2.268
377.90 2.266
378.00 2.264
378.10 2.262
378.20 2.26
378.30 2.258
378.40 2.257
378.50 2.255
378.60 2.253
378.70 2.251
378.80 2.249
378.90 2.247
379.00 2.245
379.10 2.243
379.20 2.241
379.30 2.239
379.40 2.237
379.50 2.235
379.60 2.234
379.70 2.232
379.80 2.23
379.90 2.228
380.00 2.226
380.10 2.225
380.20 2.224
380.30 2.222
380.40 2.221
380.50 2.22
380.60 2.219
380.70 2.217
380.80 2.216
380.90 2.215
381.00 2.214
381.10 2.212
381.20 2.211
381.30 2.209
381.40 2.207
381.50 2.206
381.60 2.204
381.70 2.202
381.80 2.2
381.90 2.198
382.00 2.196
382.10 2.193
382.20 2.191
382.30 2.188
382.40 2.186
382.50 2.183
382.60 2.18
382.70 2.178
382.80 2.175
382.90 2.172
383.00 2.17
383.10 2.167
383.20 2.164
383.30 2.162
383.40 2.159
383.50 2.157
383.60 2.156
383.70 2.156
383.80 2.156
383.90 2.156
384.00 2.156
384.10 2.157
384.20 2.157
384.30 2.157
384.40 2.157
384.50 2.157
384.60 2.157
384.70 2.157
384.80 2.157
384.90 2.157
385.00 2.156
385.10 2.156
385.20 2.155
385.30 2.154
385.40 2.153
385.50 2.152
385.60 2.151
385.70 2.149
385.80 2.147
385.90 2.146
386.00 2.144
386.10 2.141
386.20 2.139
386.30 2.136
386.40 2.134
386.50 2.131
386.60 2.128
386.70 2.125
386.80 2.121
386.90 2.118
387.00 2.114
387.10 2.11
387.20 2.106
387.30 2.101
387.40 2.097
387.50 2.092
387.60 2.087
387.70 2.083
387.80 2.077
387.90 2.072
388.00 2.067
388.10 2.062
388.20 2.056
388.30 2.051
388.40 2.046
388.50 2.041
388.60 2.036
388.70 2.032
388.80 2.028
388.90 2.026
389.00 2.026
389.10 2.028
389.20 2.03
389.30 2.033
389.40 2.036
389.50 2.039
389.60 2.042
389.70 2.046
389.80 2.049
389.90 2.053
390.00 2.056
390.10 2.059
390.20 2.062
390.30 2.065
390.40 2.068
390.50 2.07
390.60 2.073
390.70 2.075
390.80 2.077
390.90 2.078
391.00 2.08
391.10 2.081
391.20 2.083
391.30 2.084
391.40 2.084
391.50 2.085
391.60 2.085
391.70 2.085
391.80 2.085
391.90 2.085
392.00 2.084
392.10 2.083
392.20 2.082
392.30 2.081
392.40 2.08
392.50 2.078
392.60 2.076
392.70 2.074
392.80 2.071
392.90 2.069
393.00 2.066
393.10 2.063
393.20 2.059
393.30 2.056
393.40 2.052
393.50 2.048
393.60 2.043
393.70 2.039
393.80 2.034
393.90 2.029
394.00 2.023
394.10 2.017
394.20 2.011
394.30 2.005
394.40 1.998
394.50 1.992
394.60 1.984
394.70 1.977
394.80 1.969
394.90 1.961
395.00 1.953
395.10 1.944
395.20 1.935
395.30 1.926
395.40 1.917
395.50 1.907
395.60 1.897
395.70 1.886
395.80 1.876
395.90 1.865
396.00 1.853
396.10 1.842
396.20 1.83
396.30 1.818
396.40 1.806
396.50 1.794
396.60 1.782
396.70 1.77
396.80 1.758
396.90 1.747
397.00 1.737
397.10 1.744
397.20 1.753
397.30 1.762
397.40 1.772
397.50 1.782
397.60 1.792
397.70 1.802
397.80 1.812
397.90 1.821
398.00 1.831
398.10 1.84
398.20 1.849
398.30 1.857
398.40 1.865
398.50 1.874
398.60 1.881
398.70 1.889
398.80 1.896
398.90 1.903
399.00 1.91
399.10 1.917
399.20 1.923
399.30 1.929
399.40 1.935
399.50 1.94
399.60 1.945
399.70 1.95
399.80 1.955
399.90 1.959
400.00 1.964
400.10 1.968
400.20 1.971
400.30 1.975
400.40 1.978
400.50 1.982
400.60 1.985
400.70 1.987
400.80 1.99
400.90 1.992
401.00 1.994
401.10 1.996
401.20 1.998
401.30 2
401.40 2.001
401.50 2.002
401.60 2.003
401.70 2.004
401.80 2.005
401.90 2.006
402.00 2.006
402.10 2.006
402.20 2.006
402.30 2.006
402.40 2.006
402.50 2.005
402.60 2.005
402.70 2.004
402.80 2.003
402.90 2.002
403.00 2.001
403.10 1.999
403.20 1.998
403.30 1.996
403.40 1.994
403.50 1.992
403.60 1.99
403.70 1.987
403.80 1.985
403.90 1.982
404.00 1.979
404.10 1.976
404.20 1.973
404.30 1.97
404.40 1.966
404.50 1.962
404.60 1.959
404.70 1.954
404.80 1.95
404.90 1.946
405.00 1.941
405.10 1.936
405.20 1.931
405.30 1.926
405.40 1.921
405.50 1.915
405.60 1.909
405.70 1.903
405.80 1.897
405.90 1.891
406.00 1.884
406.10 1.877
406.20 1.87
406.30 1.863
406.40 1.855
406.50 1.847
406.60 1.839
406.70 1.831
406.80 1.822
406.90 1.813
407.00 1.804
407.10 1.795
407.20 1.785
407.30 1.775
407.40 1.765
407.50 1.754
407.60 1.743
407.70 1.732
407.80 1.721
407.90 1.709
408.00 1.697
408.10 1.684
408.20 1.671
408.30 1.658
408.40 1.645
408.50 1.63
408.60 1.616
408.70 1.601
408.80 1.586
408.90 1.571
409.00 1.555
409.10 1.538
409.20 1.522
409.30 1.504
409.40 1.487
409.50 1.469
409.60 1.451
409.70 1.433
409.80 1.415
409.90 1.398
410.00 1.386
410.10 1.379
410.20 1.379
410.30 1.38
410.40 1.387
410.50 1.4
410.60 1.416
410.70 1.432
410.80 1.447
410.90 1.463
411.00 1.478
411.10 1.494
411.20 1.508
411.30 1.522
411.40 1.536
411.50 1.549
411.60 1.562
411.70 1.574
411.80 1.586
411.90 1.598
412.00 1.609
412.10 1.62
412.20 1.63
412.30 1.64
412.40 1.65
412.50 1.659
412.60 1.668
412.70 1.677
412.80 1.685
412.90 1.693
413.00 1.701
413.10 1.708
413.20 1.715
413.30 1.722
413.40 1.729
413.50 1.735
413.60 1.742
413.70 1.747
413.80 1.753
413.90 1.759
414.00 1.764
414.10 1.769
414.20 1.774
414.30 1.778
414.40 1.783
414.50 1.787
414.60 1.791
414.70 1.795
414.80 1.798
414.90 1.802
415.00 1.805
415.10 1.808
415.20 1.811
415.30 1.814
415.40 1.817
415.50 1.82
415.60 1.822
415.70 1.824
415.80 1.827
415.90 1.829
416.00 1.831
416.10 1.833
416.20 1.834
416.30 1.836
416.40 1.837
416.50 1.839
416.60 1.84
416.70 1.841
416.80 1.842
416.90 1.843
417.00 1.844
417.10 1.845
417.20 1.846
417.30 1.847
417.40 1.847
417.50 1.848
417.60 1.848
417.70 1.849
417.80 1.849
417.90 1.849
418.00 1.849
418.10 1.849
418.20 1.849
418.30 1.85
418.40 1.849
418.50 1.849
418.60 1.849
418.70 1.849
418.80 1.849
418.90 1.848
419.00 1.848
419.10 1.847
419.20 1.847
419.30 1.846
419.40 1.846
419.50 1.845
419.60 1.845
419.70 1.844
419.80 1.843
419.90 1.842
420.00 1.842
420.10 1.841
420.20 1.84
420.30 1.839
420.40 1.838
420.50 1.837
420.60 1.836
420.70 1.835
420.80 1.834
420.90 1.833
421.00 1.831
421.10 1.83
421.20 1.829
421.30 1.828
421.40 1.826
421.50 1.825
421.60 1.824
421.70 1.822
421.80 1.821
421.90 1.819
422.00 1.818
422.10 1.816
422.20 1.815
422.30 1.813
422.40 1.812
422.50 1.81
422.60 1.808
422.70 1.807
422.80 1.805
422.90 1.803
423.00 1.801
423.10 1.799
423.20 1.798
423.30 1.796
423.40 1.794
423.50 1.792
423.60 1.79
423.70 1.788
423.80 1.786
423.90 1.784
424.00 1.782
424.10 1.779
424.20 1.777
424.30 1.775
424.40 1.773
424.50 1.77
424.60 1.768
424.70 1.765
424.80 1.763
424.90 1.761
425.00 1.758
425.10 1.755
425.20 1.753
425.30 1.75
425.40 1.747
425.50 1.745
425.60 1.742
425.70 1.739
425.80 1.736
425.90 1.733
426.00 1.73
426.10 1.727
426.20 1.723
426.30 1.72
426.40 1.717
426.50 1.714
426.60 1.71
426.70 1.707
426.80 1.703
426.90 1.699
427.00 1.695
427.10 1.692
427.20 1.688
427.30 1.684
427.40 1.679
427.50 1.675
427.60 1.671
427.70 1.667
427.80 1.662
427.90 1.657
428.00 1.653
428.10 1.648
428.20 1.643
428.30 1.638
428.40 1.633
428.50 1.627
428.60 1.622
428.70 1.617
428.80 1.611
428.90 1.605
429.00 1.599
429.10 1.593
429.20 1.587
429.30 1.58
429.40 1.574
429.50 1.567
429.60 1.561
429.70 1.554
429.80 1.546
429.90 1.539
430.00 1.532
430.10 1.524
430.20 1.516
430.30 1.508
430.40 1.5
430.50 1.492
430.60 1.483
430.70 1.474
430.80 1.465
430.90 1.456
431.00 1.447
431.10 1.437
431.20 1.427
431.30 1.417
431.40 1.406
431.50 1.396
431.60 1.385
431.70 1.373
431.80 1.362
431.90 1.35
432.00 1.338
432.10 1.325
432.20 1.312
432.30 1.299
432.40 1.285
432.50 1.271
432.60 1.257
432.70 1.242
432.80 1.226
432.90 1.211
433.00 1.194
433.10 1.177
433.20 1.159
433.30 1.141
433.40 1.122
433.50 1.103
433.60 1.082
433.70 1.062
433.80 1.04
433.90 1.018
434.00 0.9867
434.10 0.9867
434.20 1.017
434.30 1.038
434.40 1.058
434.50 1.077
434.60 1.096
434.70 1.113
434.80 1.131
434.90 1.147
435.00 1.163
435.10 1.178
435.20 1.192
435.30 1.206
435.40 1.22
435.50 1.232
435.60 1.245
435.70 1.257
435.80 1.268
435.90 1.279
436.00 1.29
436.10 1.3
436.20 1.31
436.30 1.319
436.40 1.329
436.50 1.337
436.60 1.346
436.70 1.354
436.80 1.362
436.90 1.37
437.00 1.377
437.10 1.385
437.20 1.392
437.30 1.398
437.40 1.405
437.50 1.411
437.60 1.417
437.70 1.423
437.80 1.428
437.90 1.434
438.00 1.439
438.10 1.444
438.20 1.449
438.30 1.453
438.40 1.458
438.50 1.462
438.60 1.466
438.70 1.47
438.80 1.474
438.90 1.477
439.00 1.481
439.10 1.484
439.20 1.487
439.30 1.49
439.40 1.493
439.50 1.496
439.60 1.499
439.70 1.501
439.80 1.504
439.90 1.506
440.00 1.508
440.10 1.51
440.20 1.512
440.30 1.514
440.40 1.516
440.50 1.517
440.60 1.519
440.70 1.52
440.80 1.522
440.90 1.523
441.00 1.524
441.10 1.525
441.20 1.526
441.30 1.527
441.40 1.528
441.50 1.529
441.60 1.53
441.70 1.53
441.80 1.531
441.90 1.532
442.00 1.532
442.10 1.533
442.20 1.533
442.30 1.533
442.40 1.534
442.50 1.534
442.60 1.534
442.70 1.534
442.80 1.534
442.90 1.534
443.00 1.534
443.10 1.534
443.20 1.534
443.30 1.534
443.40 1.534
443.50 1.534
443.60 1.534
443.70 1.533
443.80 1.533
443.90 1.533
444.00 1.532
444.10 1.532
444.20 1.532
444.30 1.531
444.40 1.531
444.50 1.53
444.60 1.53
444.70 1.529
444.80 1.529
444.90 1.528
445.00 1.528
445.10 1.527
445.20 1.527
445.30 1.526
445.40 1.525
445.50 1.525
445.60 1.524
445.70 1.523
445.80 1.523
445.90 1.522
446.00 1.521
446.10 1.52
446.20 1.52
446.30 1.519
446.40 1.518
446.50 1.517
446.60 1.517
446.70 1.516
446.80 1.515
446.90 1.514
447.00 1.513
447.10 1.512
447.20 1.512
447.30 1.511
447.40 1.51
447.50 1.509
447.60 1.508
447.70 1.507
447.80 1.506
447.90 1.505
448.00 1.504
448.10 1.503
448.20 1.502
448.30 1.502
448.40 1.501
448.50 1.5
448.60 1.499
448.70 1.498
448.80 1.497
448.90 1.496
449.00 1.495
449.10 1.494
449.20 1.493
449.30 1.492
449.40 1.491
449.50 1.49
449.60 1.489
449.70 1.488
449.80 1.487
449.90 1.486
450.00 1.485
450.10 1.484
450.20 1.483
450.30 1.482
450.40 1.481
450.50 1.48
450.60 1.478
450.70 1.477
450.80 1.476
450.90 1.475
451.00 1.474
451.10 1.473
451.20 1.472
451.30 1.471
451.40 1.47
451.50 1.469
451.60 1.468
451.70 1.467
451.80 1.466
451.90 1.465
452.00 1.464
452.10 1.463
452.20 1.461
452.30 1.46
452.40 1.459
452.50 1.458
452.60 1.457
452.70 1.456
452.80 1.455
452.90 1.454
453.00 1.453
453.10 1.452
453.20 1.451
453.30 1.449
453.40 1.448
453.50 1.447
453.60 1.446
453.70 1.445
453.80 1.444
453.90 1.443
454.00 1.442
454.10 1.441
454.20 1.44
454.30 1.438
454.40 1.437
454.50 1.436
454.60 1.435
454.70 1.434
454.80 1.433
454.90 1.432
455.00 1.431
455.10 1.43
455.20 1.428
455.30 1.427
455.40 1.426
455.50 1.425
455.60 1.424
455.70 1.423
455.80 1.422
455.90 1.421
456.00 1.419
456.10 1.418
456.20 1.417
456.30 1.416
456.40 1.415
456.50 1.414
456.60 1.413
456.70 1.412
456.80 1.41
456.90 1.409
457.00 1.408
457.10 1.407
457.20 1.406
457.30 1.405
457.40 1.404
457.50 1.403
457.60 1.402
457.70 1.4
457.80 1.399
457.90 1.398
458.00 1.397
458.10 1.396
458.20 1.395
458.30 1.394
458.40 1.393
458.50 1.391
458.60 1.39
458.70 1.389
458.80 1.388
458.90 1.387
459.00 1.386
459.10 1.385
459.20 1.384
459.30 1.382
459.40 1.381
459.50 1.38
459.60 1.379
459.70 1.378
459.80 1.377
459.90 1.376
460.00 1.375
460.10 1.373
460.20 1.372
460.30 1.371
460.40 1.37
460.50 1.369
460.60 1.368
460.70 1.367
460.80 1.366
460.90 1.364
461.00 1.363
461.10 1.362
461.20 1.361
461.30 1.36
461.40 1.359
461.50 1.358
461.60 1.357
461.70 1.355
461.80 1.354
461.90 1.353
462.00 1.352
462.10 1.351
462.20 1.35
462.30 1.349
462.40 1.347
462.50 1.346
462.60 1.345
462.70 1.344
462.80 1.343
462.90 1.342
463.00 1.341
463.10 1.34
463.20 1.338
463.30 1.337
463.40 1.336
463.50 1.335
463.60 1.334
463.70 1.333
463.80 1.332
463.90 1.331
464.00 1.329
464.10 1.328
464.20 1.327
464.30 1.326
464.40 1.325
464.50 1.324
464.60 1.323
464.70 1.321
464.80 1.32
464.90 1.319
465.00 1.318
465.10 1.317
465.20 1.316
465.30 1.315
465.40 1.313
465.50 1.312
465.60 1.311
465.70 1.31
465.80 1.309
465.90 1.308
466.00 1.307
466.10 1.306
466.20 1.304
466.30 1.303
466.40 1.302
466.50 1.301
466.60 1.3
466.70 1.299
466.80 1.297
466.90 1.296
467.00 1.295
467.10 1.294
467.20 1.293
467.30 1.292
467.40 1.291
467.50 1.289
467.60 1.288
467.70 1.287
467.80 1.286
467.90 1.285
468.00 1.284
468.10 1.282
468.20 1.281
468.30 1.28
468.40 1.279
468.50 1.278
468.60 1.276
468.70 1.275
468.80 1.274
468.90 1.273
469.00 1.272
469.10 1.271
469.20 1.269
469.30 1.268
469.40 1.267
469.50 1.266
469.60 1.265
469.70 1.263
469.80 1.262
469.90 1.261
470.00 1.26
470.10 1.259
470.20 1.257
470.30 1.256
470.40 1.255
470.50 1.254
470.60 1.252
470.70 1.251
470.80 1.25
470.90 1.249
471.00 1.247
471.10 1.246
471.20 1.245
471.30 1.244
471.40 1.242
471.50 1.241
471.60 1.24
471.70 1.238
471.80 1.237
471.90 1.236
472.00 1.235
472.10 1.233
472.20 1.232
472.30 1.231
472.40 1.229
472.50 1.228
472.60 1.227
472.70 1.225
472.80 1.224
472.90 1.223
473.00 1.221
473.10 1.22
473.20 1.219
473.30 1.217
473.40 1.216
473.50 1.214
473.60 1.213
473.70 1.212
473.80 1.21
473.90 1.209
474.00 1.207
474.10 1.206
474.20 1.204
474.30 1.203
474.40 1.201
474.50 1.2
474.60 1.198
474.70 1.197
474.80 1.195
474.90 1.194
475.00 1.192
475.10 1.191
475.20 1.189
475.30 1.188
475.40 1.186
475.50 1.184
475.60 1.183
475.70 1.181
475.80 1.179
475.90 1.178
476.00 1.176
476.10 1.174
476.20 1.173
476.30 1.171
476.40 1.169
476.50 1.167
476.60 1.165
476.70 1.163
476.80 1.162
476.90 1.16
477.00 1.158
477.10 1.156
477.20 1.154
477.30 1.152
477.40 1.15
477.50 1.148
477.60 1.146
477.70 1.144
477.80 1.142
477.90 1.14
478.00 1.138
478.10 1.135
478.20 1.133
478.30 1.131
478.40 1.128
478.50 1.126
478.60 1.124
478.70 1.121
478.80 1.119
478.90 1.116
479.00 1.114
479.10 1.112
479.20 1.109
479.30 1.106
479.40 1.103
479.50 1.1
479.60 1.097
479.70 1.095
479.80 1.092
479.90 1.089
480.00 1.086
480.10 1.083
480.20 1.08
480.30 1.076
480.40 1.073
480.50 1.07
480.60 1.066
480.70 1.063
480.80 1.059
480.90 1.056
481.00 1.052
481.10 1.049
481.20 1.045
481.30 1.041
481.40 1.036
481.50 1.032
481.60 1.028
481.70 1.023
481.80 1.019
481.90 1.015
482.00 1.011
482.10 1.006
482.20 1.001
482.30 0.9961
482.40 0.9907
482.50 0.9853
482.60 0.98
482.70 0.9746
482.80 0.9693
482.90 0.9639
483.00 0.9586
483.10 0.9532
483.20 0.9468
483.30 0.9399
483.40 0.933
483.50 0.9261
483.60 0.9192
483.70 0.9123
483.80 0.9054
483.90 0.8985
484.00 0.8916
484.10 0.8847
484.20 0.8767
484.30 0.8681
484.40 0.8596
484.50 0.851
484.60 0.8424
484.70 0.8327
484.80 0.8225
484.90 0.8122
485.00 0.8019
485.10 0.7917
485.20 0.7803
485.30 0.7682
485.40 0.7553
485.50 0.742
485.60 0.7274
485.70 0.7123
485.80 0.6956
485.90 0.6781
486.00 0.6597
486.10 0.6483
486.20 0.6482
486.30 0.6648
486.40 0.6817
486.50 0.6983
486.60 0.7132
486.70 0.7274
486.80 0.7403
486.90 0.7525
487.00 0.7638
487.10 0.7746
487.20 0.7843
487.30 0.7933
487.40 0.8024
487.50 0.8114
487.60 0.8205
487.70 0.8283
487.80 0.8355
487.90 0.8427
488.00 0.8499
488.10 0.8571
488.20 0.8632
488.30 0.8686
488.40 0.874
488.50 0.8795
488.60 0.8849
488.70 0.8903
488.80 0.8958
488.90 0.9012
489.00 0.9066
489.10 0.912
489.20 0.9163
489.30 0.9201
489.40 0.9238
489.50 0.9276
489.60 0.9313
489.70 0.9351
489.80 0.9389
489.90 0.9426
490.00 0.9464
490.10 0.9501
490.20 0.953
490.30 0.9556
490.40 0.9582
490.50 0.9608
490.60 0.9633
490.70 0.9659
490.80 0.9685
490.90 0.971
491.00 0.9736
491.10 0.9762
491.20 0.9781
491.30 0.9798
491.40 0.9815
491.50 0.9832
491.60 0.9849
491.70 0.9866
491.80 0.9883
491.90 0.99
492.00 0.9917
492.10 0.9934
492.20 0.9946
492.30 0.9957
492.40 0.9967
492.50 0.9978
492.60 0.9989
492.70 0.9999
492.80 1.001
492.90 1.002
493.00 1.003
493.10 1.004
493.20 1.005
493.30 1.005
493.40 1.006
493.50 1.007
493.60 1.007
493.70 1.008
493.80 1.008
493.90 1.009
494.00 1.01
494.10 1.01
494.20 1.011
494.30 1.011
494.40 1.011
494.50 1.011
494.60 1.012
494.70 1.012
494.80 1.012
494.90 1.012
495.00 1.012
495.10 1.013
495.20 1.013
495.30 1.013
495.40 1.013
495.50 1.013
495.60 1.013
495.70 1.013
495.80 1.013
495.90 1.013
496.00 1.013
496.10 1.013
496.20 1.013
496.30 1.013
496.40 1.012
496.50 1.012
496.60 1.012
496.70 1.012
496.80 1.012
496.90 1.012
497.00 1.011
497.10 1.011
497.20 1.011
497.30 1.011
497.40 1.01
497.50 1.01
497.60 1.01
497.70 1.009
497.80 1.009
497.90 1.009
498.00 1.008
498.10 1.008
498.20 1.008
498.30 1.007
498.40 1.007
498.50 1.007
498.60 1.006
498.70 1.006
498.80 1.005
498.90 1.005
499.00 1.005
499.10 1.004
499.20 1.004
499.30 1.003
499.40 1.003
499.50 1.002
499.60 1.002
499.70 1.001
499.80 1.001
499.90 1
500.00 1
500.10 0.9995
500.20 0.999
500.30 0.9985
500.40 0.998
500.50 0.9975
500.60 0.9969
500.70 0.9964
500.80 0.9959
500.90 0.9954
501.00 0.9949
501.10 0.9943
501.20 0.9938
501.30 0.9932
501.40 0.9927
501.50 0.9921
501.60 0.9916
501.70 0.991
501.80 0.9904
501.90 0.9899
502.00 0.9893
502.10 0.9888
502.20 0.9882
502.30 0.9876
502.40 0.987
502.50 0.9864
502.60 0.9858
502.70 0.9852
502.80 0.9847
502.90 0.9841
503.00 0.9835
503.10 0.9829
503.20 0.9823
503.30 0.9817
503.40 0.9811
503.50 0.9805
503.60 0.9799
503.70 0.9793
503.80 0.9786
503.90 0.978
504.00 0.9774
504.10 0.9768
504.20 0.9762
504.30 0.9756
504.40 0.975
504.50 0.9743
504.60 0.9737
504.70 0.9731
504.80 0.9725
504.90 0.9718
505.00 0.9712
505.10 0.9706
505.20 0.97
505.30 0.9693
505.40 0.9687
505.50 0.9681
505.60 0.9674
505.70 0.9668
505.80 0.9662
505.90 0.9655
506.00 0.9649
506.10 0.9643
506.20 0.9636
506.30 0.963
506.40 0.9624
506.50 0.9617
506.60 0.9611
506.70 0.9604
506.80 0.9598
506.90 0.9592
507.00 0.9585
507.10 0.9579
507.20 0.9572
507.30 0.9566
507.40 0.9559
507.50 0.9553
507.60 0.9547
507.70 0.954
507.80 0.9534
507.90 0.9527
508.00 0.9521
508.10 0.9514
508.20 0.9508
508.30 0.9501
508.40 0.9495
508.50 0.9488
508.60 0.9482
508.70 0.9475
508.80 0.9469
508.90 0.9463
509.00 0.9456
509.10 0.945
509.20 0.9443
509.30 0.9437
509.40 0.943
509.50 0.9424
509.60 0.9417
509.70 0.9411
509.80 0.9404
509.90 0.9398
510.00 0.9391
510.10 0.9385
510.20 0.9378
510.30 0.9372
510.40 0.9365
510.50 0.9359
510.60 0.9352
510.70 0.9346
510.80 0.9339
510.90 0.9333
511.00 0.9326
511.10 0.932
511.20 0.9313
511.30 0.9307
511.40 0.93
511.50 0.9294
511.60 0.9287
511.70 0.9281
511.80 0.9274
511.90 0.9268
512.00 0.9262
512.10 0.9255
512.20 0.9249
512.30 0.9242
512.40 0.9236
512.50 0.9229
512.60 0.9223
512.70 0.9216
512.80 0.921
512.90 0.9203
513.00 0.9197
513.10 0.9191
513.20 0.9184
513.30 0.9178
513.40 0.9171
513.50 0.9165
513.60 0.9158
513.70 0.9152
513.80 0.9145
513.90 0.9139
514.00 0.9133
514.10 0.9126
514.20 0.912
514.30 0.9113
514.40 0.9107
514.50 0.9101
514.60 0.9094
514.70 0.9088
514.80 0.9081
514.90 0.9075
515.00 0.9069
515.10 0.9062
515.20 0.9056
515.30 0.9049
515.40 0.9043
515.50 0.9037
515.60 0.903
515.70 0.9024
515.80 0.9018
515.90 0.9011
516.00 0.9005
516.10 0.8998
516.20 0.8992
516.30 0.8986
516.40 0.8979
516.50 0.8973
516.60 0.8967
516.70 0.896
516.80 0.8954
516.90 0.8948
517.00 0.8941
517.10 0.8935
517.20 0.8929
517.30 0.8923
517.40 0.8916
517.50 0.891
517.60 0.8904
517.70 0.8897
517.80 0.8891
517.90 0.8885
518.00 0.8878
518.10 0.8872
518.20 0.8866
518.30 0.886
518.40 0.8853
518.50 0.8847
518.60 0.8841
518.70 0.8835
518.80 0.8828
518.90 0.8822
519.00 0.8816
519.10 0.881
519.20 0.8803
519.30 0.8797
519.40 0.8791
519.50 0.8785
519.60 0.8779
519.70 0.8772
519.80 0.8766
519.90 0.876
520.00 0.8754
520.10 0.8748
520.20 0.8741
520.30 0.8735
520.40 0.8729
520.50 0.8723
520.60 0.8717
520.70 0.8711
520.80 0.8704
520.90 0.8698
521.00 0.8692
521.10 0.8686
521.20 0.868
521.30 0.8674
521.40 0.8667
521.50 0.8661
521.60 0.8655
521.70 0.8649
521.80 0.8643
521.90 0.8637
522.00 0.8631
522.10 0.8625
522.20 0.8619
522.30 0.8612
522.40 0.8606
522.50 0.86
522.60 0.8594
522.70 0.8588
522.80 0.8582
522.90 0.8576
523.00 0.857
523.10 0.8564
523.20 0.8558
523.30 0.8552
523.40 0.8546
523.50 0.854
523.60 0.8534
523.70 0.8528
523.80 0.8522
523.90 0.8516
524.00 0.851
524.10 0.8504
524.20 0.8498
524.30 0.8492
524.40 0.8486
524.50 0.848
524.60 0.8474
524.70 0.8468
524.80 0.8462
524.90 0.8456
525.00 0.845
525.10 0.8444
525.20 0.8438
525.30 0.8432
525.40 0.8426
525.50 0.842
525.60 0.8414
525.70 0.8408
525.80 0.8402
525.90 0.8396
526.00 0.839
526.10 0.8384
526.20 0.8379
526.30 0.8373
526.40 0.8367
526.50 0.8361
526.60 0.8355
526.70 0.8349
526.80 0.8343
526.90 0.8337
527.00 0.8331
527.10 0.8326
527.20 0.832
527.30 0.8314
527.40 0.8308
527.50 0.8302
527.60 0.8296
527.70 0.829
527.80 0.8285
527.90 0.8279
528.00 0.8273
528.10 0.8267
528.20 0.8261
528.30 0.8256
528.40 0.825
528.50 0.8244
528.60 0.8238
528.70 0.8232
528.80 0.8227
528.90 0.8221
529.00 0.8215
529.10 0.8209
529.20 0.8203
529.30 0.8198
529.40 0.8192
529.50 0.8186
529.60 0.818
529.70 0.8175
529.80 0.8169
529.90 0.8163
530.00 0.8158
530.10 0.8152
530.20 0.8146
530.30 0.814
530.40 0.8135
530.50 0.8129
530.60 0.8123
530.70 0.8118
530.80 0.8112
530.90 0.8106
531.00 0.81
531.10 0.8095
531.20 0.8089
531.30 0.8083
531.40 0.8078
531.50 0.8072
531.60 0.8067
531.70 0.8061
531.80 0.8055
531.90 0.805
532.00 0.8044
532.10 0.8038
532.20 0.8033
532.30 0.8027
532.40 0.8021
532.50 0.8016
532.60 0.801
532.70 0.8005
532.80 0.7999
532.90 0.7993
533.00 0.7988
533.10 0.7982
533.20 0.7977
533.30 0.7971
533.40 0.7966
533.50 0.796
533.60 0.7954
533.70 0.7949
533.80 0.7943
533.90 0.7938
534.00 0.7932
534.10 0.7927
534.20 0.7921
534.30 0.7916
534.40 0.791
534.50 0.7905
534.60 0.7899
534.70 0.7894
534.80 0.7888
534.90 0.7883
535.00 0.7877
535.10 0.7872
535.20 0.7866
535.30 0.7861
535.40 0.7855
535.50 0.785
535.60 0.7844
535.70 0.7839
535.80 0.7833
535.90 0.7828
536.00 0.7822
536.10 0.7817
536.20 0.7811
536.30 0.7806
536.40 0.7801
536.50 0.7795
536.60 0.779
536.70 0.7784
536.80 0.7779
536.90 0.7774
537.00 0.7768
537.10 0.7763
537.20 0.7757
537.30 0.7752
537.40 0.7747
537.50 0.7741
537.60 0.7736
537.70 0.773
537.80 0.7725
537.90 0.772
538.00 0.7714
538.10 0.7709
538.20 0.7704
538.30 0.7698
538.40 0.7693
538.50 0.7688
538.60 0.7682
538.70 0.7677
538.80 0.7672
538.90 0.7666
539.00 0.7661
539.10 0.7656
539.20 0.765
539.30 0.7645
539.40 0.764
539.50 0.7635
539.60 0.7629
539.70 0.7624
539.80 0.7619
539.90 0.7613
540.00 0.7608
540.10 0.7603
540.20 0.7598
540.30 0.7592
540.40 0.7587
540.50 0.7582
540.60 0.7577
540.70 0.7571
540.80 0.7566
540.90 0.7561
541.00 0.7556
541.10 0.755
541.20 0.7545
541.30 0.754
541.40 0.7535
541.50 0.753
541.60 0.7524
541.70 0.7519
541.80 0.7514
541.90 0.7509
542.00 0.7504
542.10 0.7498
542.20 0.7493
542.30 0.7488
542.40 0.7483
542.50 0.7478
542.60 0.7473
542.70 0.7468
542.80 0.7462
542.90 0.7457
543.00 0.7452
543.10 0.7447
543.20 0.7442
543.30 0.7437
543.40 0.7432
543.50 0.7427
543.60 0.7421
543.70 0.7416
543.80 0.7411
543.90 0.7406
544.00 0.7401
544.10 0.7396
544.20 0.7391
544.30 0.7386
544.40 0.7381
544.50 0.7376
544.60 0.7371
544.70 0.7365
544.80 0.736
544.90 0.7355
545.00 0.735
545.10 0.7345
545.20 0.734
545.30 0.7335
545.40 0.733
545.50 0.7325
545.60 0.732
545.70 0.7315
545.80 0.731
545.90 0.7305
546.00 0.73
546.10 0.7295
546.20 0.729
546.30 0.7285
546.40 0.728
546.50 0.7275
546.60 0.727
546.70 0.7265
546.80 0.726
546.90 0.7255
547.00 0.725
547.10 0.7245
547.20 0.724
547.30 0.7235
547.40 0.723
547.50 0.7225
547.60 0.7221
547.70 0.7216
547.80 0.7211
547.90 0.7206
548.00 0.7201
548.10 0.7196
548.20 0.7191
548.30 0.7186
548.40 0.7181
548.50 0.7176
548.60 0.7171
548.70 0.7166
548.80 0.7162
548.90 0.7157
549.00 0.7152
549.10 0.7147
549.20 0.7142
549.30 0.7137
549.40 0.7132
549.50 0.7127
549.60 0.7123
549.70 0.7118
549.80 0.7113
549.90 0.7108
550.00 0.7103
550.10 0.7098
550.20 0.7094
550.30 0.7089
550.40 0.7084
550.50 0.7079
550.60 0.7074
550.70 0.7069
550.80 0.7065
550.90 0.706
551.00 0.7055
551.10 0.705
551.20 0.7045
551.30 0.7041
551.40 0.7036
551.50 0.7031
551.60 0.7026
551.70 0.7021
551.80 0.7017
551.90 0.7012
552.00 0.7007
552.10 0.7002
552.20 0.6998
552.30 0.6993
552.40 0.6988
552.50 0.6983
552.60 0.6979
552.70 0.6974
552.80 0.6969
552.90 0.6965
553.00 0.696
553.10 0.6955
553.20 0.695
553.30 0.6946
553.40 0.6941
553.50 0.6936
553.60 0.6932
553.70 0.6927
553.80 0.6922
553.90 0.6918
554.00 0.6913
554.10 0.6908
554.20 0.6903
554.30 0.6899
554.40 0.6894
554.50 0.6889
554.60 0.6885
554.70 0.688
554.80 0.6876
554.90 0.6871
555.00 0.6866
555.10 0.6862
555.20 0.6857
555.30 0.6852
555.40 0.6848
555.50 0.6843
555.60 0.6838
555.70 0.6834
555.80 0.6829
555.90 0.6825
556.00 0.682
556.10 0.6815
556.20 0.6811
556.30 0.6806
556.40 0.6802
556.50 0.6797
556.60 0.6792
556.70 0.6788
556.80 0.6783
556.90 0.6779
557.00 0.6774
557.10 0.677
557.20 0.6765
557.30 0.6761
557.40 0.6756
557.50 0.6751
557.60 0.6747
557.70 0.6742
557.80 0.6738
557.90 0.6733
558.00 0.6729
558.10 0.6724
558.20 0.672
558.30 0.6715
558.40 0.6711
558.50 0.6706
558.60 0.6702
558.70 0.6697
558.80 0.6693
558.90 0.6688
559.00 0.6684
559.10 0.6679
559.20 0.6675
559.30 0.667
559.40 0.6666
559.50 0.6661
559.60 0.6657
559.70 0.6652
559.80 0.6648
559.90 0.6643
560.00 0.6639
560.10 0.6635
560.20 0.663
560.30 0.6626
560.40 0.6621
560.50 0.6617
560.60 0.6612
560.70 0.6608
560.80 0.6604
560.90 0.6599
561.00 0.6595
561.10 0.659
561.20 0.6586
561.30 0.6581
561.40 0.6577
561.50 0.6573
561.60 0.6568
561.70 0.6564
561.80 0.656
561.90 0.6555
562.00 0.6551
562.10 0.6546
562.20 0.6542
562.30 0.6538
562.40 0.6533
562.50 0.6529
562.60 0.6525
562.70 0.652
562.80 0.6516
562.90 0.6511
563.00 0.6507
563.10 0.6503
563.20 0.6498
563.30 0.6494
563.40 0.649
563.50 0.6485
563.60 0.6481
563.70 0.6477
563.80 0.6473
563.90 0.6468
564.00 0.6464
564.10 0.646
564.20 0.6455
564.30 0.6451
564.40 0.6447
564.50 0.6442
564.60 0.6438
564.70 0.6434
564.80 0.643
564.90 0.6425
565.00 0.6421
565.10 0.6417
565.20 0.6413
565.30 0.6408
565.40 0.6404
565.50 0.64
565.60 0.6395
565.70 0.6391
565.80 0.6387
565.90 0.6383
566.00 0.6379
566.10 0.6374
566.20 0.637
566.30 0.6366
566.40 0.6362
566.50 0.6357
566.60 0.6353
566.70 0.6349
566.80 0.6345
566.90 0.6341
567.00 0.6336
567.10 0.6332
567.20 0.6328
567.30 0.6324
567.40 0.632
567.50 0.6315
567.60 0.6311
567.70 0.6307
567.80 0.6303
567.90 0.6299
568.00 0.6295
568.10 0.629
568.20 0.6286
568.30 0.6282
568.40 0.6278
568.50 0.6274
568.60 0.627
568.70 0.6265
568.80 0.6261
568.90 0.6257
569.00 0.6253
569.10 0.6249
569.20 0.6245
569.30 0.6241
569.40 0.6237
569.50 0.6232
569.60 0.6228
569.70 0.6224
569.80 0.622
569.90 0.6216
570.00 0.6212
570.10 0.6208
570.20 0.6204
570.30 0.62
570.40 0.6196
570.50 0.6191
570.60 0.6187
570.70 0.6183
570.80 0.6179
570.90 0.6175
571.00 0.6171
571.10 0.6167
571.20 0.6163
571.30 0.6159
571.40 0.6155
571.50 0.6151
571.60 0.6147
571.70 0.6143
571.80 0.6139
571.90 0.6135
572.00 0.6131
572.10 0.6127
572.20 0.6123
572.30 0.6119
572.40 0.6115
572.50 0.6111
572.60 0.6107
572.70 0.6103
572.80 0.6099
572.90 0.6095
573.00 0.6091
573.10 0.6087
573.20 0.6083
573.30 0.6079
573.40 0.6075
573.50 0.6071
573.60 0.6067
573.70 0.6063
573.80 0.6059
573.90 0.6055
574.00 0.6051
574.10 0.6047
574.20 0.6043
574.30 0.6039
574.40 0.6035
574.50 0.6031
574.60 0.6027
574.70 0.6023
574.80 0.6019
574.90 0.6015
575.00 0.6011
575.10 0.6007
575.20 0.6003
575.30 0.5999
575.40 0.5995
575.50 0.5992
575.60 0.5988
575.70 0.5984
575.80 0.598
575.90 0.5976
576.00 0.5972
576.10 0.5968
576.20 0.5964
576.30 0.596
576.40 0.5956
576.50 0.5953
576.60 0.5949
576.70 0.5945
576.80 0.5941
576.90 0.5937
577.00 0.5933
577.10 0.5929
577.20 0.5925
577.30 0.5922
577.40 0.5918
577.50 0.5914
577.60 0.591
577.70 0.5906
577.80 0.5902
577.90 0.5898
578.00 0.5895
578.10 0.5891
578.20 0.5887
578.30 0.5883
578.40 0.5879
578.50 0.5875
578.60 0.5872
578.70 0.5868
578.80 0.5864
578.90 0.586
579.00 0.5856
579.10 0.5853
579.20 0.5849
579.30 0.5845
579.40 0.5841
579.50 0.5837
579.60 0.5834
579.70 0.583
579.80 0.5826
579.90 0.5822
580.00 0.5818
580.10 0.5815
580.20 0.5811
580.30 0.5807
580.40 0.5803
580.50 0.58
580.60 0.5796
580.70 0.5792
580.80 0.5788
580.90 0.5785
581.00 0.5781
581.10 0.5777
581.20 0.5773
581.30 0.577
581.40 0.5766
581.50 0.5762
581.60 0.5758
581.70 0.5755
581.80 0.5751
581.90 0.5747
582.00 0.5743
582.10 0.574
582.20 0.5736
582.30 0.5732
582.40 0.5729
582.50 0.5725
582.60 0.5721
582.70 0.5718
582.80 0.5714
582.90 0.571
583.00 0.5706
583.10 0.5703
583.20 0.5699
583.30 0.5695
583.40 0.5692
583.50 0.5688
583.60 0.5684
583.70 0.5681
583.80 0.5677
583.90 0.5673
584.00 0.567
584.10 0.5666
584.20 0.5662
584.30 0.5659
584.40 0.5655
584.50 0.5651
584.60 0.5648
584.70 0.5644
584.80 0.5641
584.90 0.5637
585.00 0.5633
585.10 0.563
585.20 0.5626
585.30 0.5622
585.40 0.5619
585.50 0.5615
585.60 0.5612
585.70 0.5608
585.80 0.5604
585.90 0.5601
586.00 0.5597
586.10 0.5594
586.20 0.559
586.30 0.5586
586.40 0.5583
586.50 0.5579
586.60 0.5576
586.70 0.5572
586.80 0.5568
586.90 0.5565
587.00 0.5561
587.10 0.5558
587.20 0.5554
587.30 0.5551
587.40 0.5547
587.50 0.5543
587.60 0.554
587.70 0.5536
587.80 0.5533
587.90 0.5529
588.00 0.5526
588.10 0.5522
588.20 0.5519
588.30 0.5515
588.40 0.5512
588.50 0.5508
588.60 0.5504
588.70 0.5501
588.80 0.5497
588.90 0.5494
589.00 0.549
589.10 0.5487
589.20 0.5483
589.30 0.548
589.40 0.5476
589.50 0.5473
589.60 0.5469
589.70 0.5466
589.80 0.5462
589.90 0.5459
590.00 0.5455
590.10 0.5452
590.20 0.5448
590.30 0.5445
590.40 0.5441
590.50 0.5438
590.60 0.5435
590.70 0.5431
590.80 0.5428
590.90 0.5424
591.00 0.5421
591.10 0.5417
591.20 0.5414
591.30 0.541
591.40 0.5407
591.50 0.5403
591.60 0.54
591.70 0.5396
591.80 0.5393
591.90 0.539
592.00 0.5386
592.10 0.5383
592.20 0.5379
592.30 0.5376
592.40 0.5372
592.50 0.5369
592.60 0.5366
592.70 0.5362
592.80 0.5359
592.90 0.5355
593.00 0.5352
593.10 0.5349
593.20 0.5345
593.30 0.5342
593.40 0.5338
593.50 0.5335
593.60 0.5332
593.70 0.5328
593.80 0.5325
593.90 0.5321
594.00 0.5318
594.10 0.5315
594.20 0.5311
594.30 0.5308
594.40 0.5305
594.50 0.5301
594.60 0.5298
594.70 0.5294
594.80 0.5291
594.90 0.5288
595.00 0.5284
595.10 0.5281
595.20 0.5278
595.30 0.5274
595.40 0.5271
595.50 0.5268
595.60 0.5264
595.70 0.5261
595.80 0.5258
595.90 0.5254
596.00 0.5251
596.10 0.5248
596.20 0.5244
596.30 0.5241
596.40 0.5238
596.50 0.5234
596.60 0.5231
596.70 0.5228
596.80 0.5224
596.90 0.5221
597.00 0.5218
597.10 0.5214
597.20 0.5211
597.30 0.5208
597.40 0.5205
597.50 0.5201
597.60 0.5198
597.70 0.5195
597.80 0.5191
597.90 0.5188
598.00 0.5185
598.10 0.5182
598.20 0.5178
598.30 0.5175
598.40 0.5172
598.50 0.5169
598.60 0.5165
598.70 0.5162
598.80 0.5159
598.90 0.5155
599.00 0.5152
599.10 0.5149
599.20 0.5146
599.30 0.5142
599.40 0.5139
599.50 0.5136
599.60 0.5133
599.70 0.513
599.80 0.5126
599.90 0.5123
600.00 0.512
600.10 0.5117
600.20 0.5113
600.30 0.511
600.40 0.5107
600.50 0.5104
600.60 0.51
600.70 0.5097
600.80 0.5094
600.90 0.5091
601.00 0.5088
601.10 0.5084
601.20 0.5081
601.30 0.5078
601.40 0.5075
601.50 0.5072
601.60 0.5068
601.70 0.5065
601.80 0.5062
601.90 0.5059
602.00 0.5056
602.10 0.5053
602.20 0.5049
602.30 0.5046
602.40 0.5043
602.50 0.504
602.60 0.5037
602.70 0.5034
602.80 0.503
602.90 0.5027
603.00 0.5024
603.10 0.5021
603.20 0.5018
603.30 0.5015
603.40 0.5011
603.50 0.5008
603.60 0.5005
603.70 0.5002
603.80 0.4999
603.90 0.4996
604.00 0.4993
604.10 0.499
604.20 0.4986
604.30 0.4983
604.40 0.498
604.50 0.4977
604.60 0.4974
604.70 0.4971
604.80 0.4968
604.90 0.4965
605.00 0.4961
605.10 0.4958
605.20 0.4955
605.30 0.4952
605.40 0.4949
605.50 0.4946
605.60 0.4943
605.70 0.494
605.80 0.4937
605.90 0.4934
606.00 0.493
606.10 0.4927
606.20 0.4924
606.30 0.4921
606.40 0.4918
606.50 0.4915
606.60 0.4912
606.70 0.4909
606.80 0.4906
606.90 0.4903
607.00 0.49
607.10 0.4897
607.20 0.4894
607.30 0.4891
607.40 0.4888
607.50 0.4884
607.60 0.4881
607.70 0.4878
607.80 0.4875
607.90 0.4872
608.00 0.4869
608.10 0.4866
608.20 0.4863
608.30 0.486
608.40 0.4857
608.50 0.4854
608.60 0.4851
608.70 0.4848
608.80 0.4845
608.90 0.4842
609.00 0.4839
609.10 0.4836
609.20 0.4833
609.30 0.483
609.40 0.4827
609.50 0.4824
609.60 0.4821
609.70 0.4818
609.80 0.4815
609.90 0.4812
610.00 0.4809
610.10 0.4806
610.20 0.4803
610.30 0.48
610.40 0.4797
610.50 0.4794
610.60 0.4791
610.70 0.4788
610.80 0.4785
610.90 0.4782
611.00 0.4779
611.10 0.4776
611.20 0.4773
611.30 0.477
611.40 0.4767
611.50 0.4764
611.60 0.4761
611.70 0.4758
611.80 0.4755
611.90 0.4752
612.00 0.4749
612.10 0.4746
612.20 0.4743
612.30 0.4741
612.40 0.4738
612.50 0.4735
612.60 0.4732
612.70 0.4729
612.80 0.4726
612.90 0.4723
613.00 0.472
613.10 0.4717
613.20 0.4714
613.30 0.4711
613.40 0.4708
613.50 0.4705
613.60 0.4702
613.70 0.4699
613.80 0.4697
613.90 0.4694
614.00 0.4691
614.10 0.4688
614.20 0.4685
614.30 0.4682
614.40 0.4679
614.50 0.4676
614.60 0.4673
614.70 0.467
614.80 0.4668
614.90 0.4665
615.00 0.4662
615.10 0.4659
615.20 0.4656
615.30 0.4653
615.40 0.465
615.50 0.4647
615.60 0.4644
615.70 0.4642
615.80 0.4639
615.90 0.4636
616.00 0.4633
616.10 0.463
616.20 0.4627
616.30 0.4624
616.40 0.4621
616.50 0.4619
616.60 0.4616
616.70 0.4613
616.80 0.461
616.90 0.4607
617.00 0.4604
617.10 0.4601
617.20 0.4599
617.30 0.4596
617.40 0.4593
617.50 0.459
617.60 0.4587
617.70 0.4584
617.80 0.4582
617.90 0.4579
618.00 0.4576
618.10 0.4573
618.20 0.457
618.30 0.4567
618.40 0.4565
618.50 0.4562
618.60 0.4559
618.70 0.4556
618.80 0.4553
618.90 0.455
619.00 0.4548
619.10 0.4545
619.20 0.4542
619.30 0.4539
619.40 0.4536
619.50 0.4534
619.60 0.4531
619.70 0.4528
619.80 0.4525
619.90 0.4522
620.00 0.4519
620.10 0.4517
620.20 0.4514
620.30 0.4511
620.40 0.4508
620.50 0.4506
620.60 0.4503
620.70 0.45
620.80 0.4497
620.90 0.4494
621.00 0.4492
621.10 0.4489
621.20 0.4486
621.30 0.4483
621.40 0.448
621.50 0.4478
621.60 0.4475
621.70 0.4472
621.80 0.4469
621.90 0.4467
622.00 0.4464
622.10 0.4461
622.20 0.4458
622.30 0.4456
622.40 0.4453
622.50 0.445
622.60 0.4447
622.70 0.4444
622.80 0.4442
622.90 0.4439
623.00 0.4436
623.10 0.4433
623.20 0.4431
623.30 0.4428
623.40 0.4425
623.50 0.4422
623.60 0.442
623.70 0.4417
623.80 0.4414
623.90 0.4412
624.00 0.4409
624.10 0.4406
624.20 0.4403
624.30 0.4401
624.40 0.4398
624.50 0.4395
624.60 0.4392
624.70 0.439
624.80 0.4387
624.90 0.4384
625.00 0.4382
625.10 0.4379
625.20 0.4376
625.30 0.4373
625.40 0.4371
625.50 0.4368
625.60 0.4365
625.70 0.4362
625.80 0.436
625.90 0.4357
626.00 0.4354
626.10 0.4352
626.20 0.4349
626.30 0.4346
626.40 0.4344
626.50 0.4341
626.60 0.4338
626.70 0.4335
626.80 0.4333
626.90 0.433
627.00 0.4327
627.10 0.4325
627.20 0.4322
627.30 0.4319
627.40 0.4316
627.50 0.4314
627.60 0.4311
627.70 0.4308
627.80 0.4306
627.90 0.4303
628.00 0.43
628.10 0.4298
628.20 0.4295
628.30 0.4292
628.40 0.429
628.50 0.4287
628.60 0.4284
628.70 0.4282
628.80 0.4279
628.90 0.4276
629.00 0.4274
629.10 0.4271
629.20 0.4268
629.30 0.4265
629.40 0.4263
629.50 0.426
629.60 0.4257
629.70 0.4255
629.80 0.4252
629.90 0.4249
630.00 0.4247
630.10 0.4244
630.20 0.4241
630.30 0.4239
630.40 0.4236
630.50 0.4233
630.60 0.4231
630.70 0.4228
630.80 0.4225
630.90 0.4223
631.00 0.422
631.10 0.4217
631.20 0.4215
631.30 0.4212
631.40 0.4209
631.50 0.4207
631.60 0.4204
631.70 0.4201
631.80 0.4199
631.90 0.4196
632.00 0.4193
632.10 0.4191
632.20 0.4188
632.30 0.4185
632.40 0.4183
632.50 0.418
632.60 0.4177
632.70 0.4175
632.80 0.4172
632.90 0.4169
633.00 0.4167
633.10 0.4164
633.20 0.4161
633.30 0.4159
633.40 0.4156
633.50 0.4153
633.60 0.4151
633.70 0.4148
633.80 0.4145
633.90 0.4142
634.00 0.414
634.10 0.4137
634.20 0.4134
634.30 0.4132
634.40 0.4129
634.50 0.4126
634.60 0.4124
634.70 0.4121
634.80 0.4118
634.90 0.4116
635.00 0.4113
635.10 0.411
635.20 0.4108
635.30 0.4105
635.40 0.4102
635.50 0.4099
635.60 0.4097
635.70 0.4094
635.80 0.4091
635.90 0.4089
636.00 0.4086
636.10 0.4083
636.20 0.4081
636.30 0.4078
636.40 0.4075
636.50 0.4072
636.60 0.407
636.70 0.4067
636.80 0.4064
636.90 0.4061
637.00 0.4059
637.10 0.4056
637.20 0.4053
637.30 0.4051
637.40 0.4048
637.50 0.4045
637.60 0.4042
637.70 0.404
637.80 0.4037
637.90 0.4034
638.00 0.4031
638.10 0.4028
638.20 0.4026
638.30 0.4023
638.40 0.402
638.50 0.4017
638.60 0.4015
638.70 0.4012
638.80 0.4009
638.90 0.4006
639.00 0.4003
639.10 0.4001
639.20 0.3998
639.30 0.3995
639.40 0.3992
639.50 0.3989
639.60 0.3986
639.70 0.3983
639.80 0.3981
639.90 0.3978
640.00 0.3975
640.10 0.3972
640.20 0.3969
640.30 0.3966
640.40 0.3963
640.50 0.396
640.60 0.3957
640.70 0.3954
640.80 0.3952
640.90 0.3949
641.00 0.3946
641.10 0.3943
641.20 0.394
641.30 0.3937
641.40 0.3934
641.50 0.3931
641.60 0.3928
641.70 0.3925
641.80 0.3922
641.90 0.3919
642.00 0.3915
642.10 0.3912
642.20 0.3909
642.30 0.3906
642.40 0.3903
642.50 0.39
642.60 0.3897
642.70 0.3894
642.80 0.389
642.90 0.3887
643.00 0.3884
643.10 0.3881
643.20 0.3878
643.30 0.3874
643.40 0.3871
643.50 0.3868
643.60 0.3864
643.70 0.3861
643.80 0.3858
643.90 0.3854
644.00 0.3851
644.10 0.3847
644.20 0.3844
644.30 0.3841
644.40 0.3837
644.50 0.3833
644.60 0.383
644.70 0.3826
644.80 0.3823
644.90 0.3819
645.00 0.3815
645.10 0.3812
645.20 0.3808
645.30 0.3805
645.40 0.3801
645.50 0.3797
645.60 0.3793
645.70 0.3789
645.80 0.3785
645.90 0.3781
646.00 0.3777
646.10 0.3773
646.20 0.3769
646.30 0.3765
646.40 0.3761
646.50 0.3756
646.60 0.3752
646.70 0.3748
646.80 0.3743
646.90 0.3739
647.00 0.3735
647.10 0.373
647.20 0.3726
647.30 0.3721
647.40 0.3717
647.50 0.3712
647.60 0.3707
647.70 0.3702
647.80 0.3697
647.90 0.3692
648.00 0.3687
648.10 0.3682
648.20 0.3677
648.30 0.3672
648.40 0.3666
648.50 0.366
648.60 0.3655
648.70 0.3649
648.80 0.3643
648.90 0.3637
649.00 0.3632
649.10 0.3626
649.20 0.362
649.30 0.3614
649.40 0.3607
649.50 0.3601
649.60 0.3594
649.70 0.3587
649.80 0.358
649.90 0.3573
650.00 0.3566
650.10 0.356
650.20 0.3553
650.30 0.3546
650.40 0.3537
650.50 0.3529
650.60 0.3521
650.70 0.3512
650.80 0.3504
650.90 0.3496
651.00 0.3487
651.10 0.3479
651.20 0.3471
651.30 0.3462
651.40 0.3452
651.50 0.3441
651.60 0.3431
651.70 0.3421
651.80 0.341
651.90 0.34
652.00 0.3389
652.10 0.3379
652.20 0.3369
652.30 0.3358
652.40 0.3344
652.50 0.3331
652.60 0.3318
652.70 0.3304
652.80 0.3291
652.90 0.3278
653.00 0.3265
653.10 0.3251
653.20 0.3238
653.30 0.3224
653.40 0.3206
653.50 0.3189
653.60 0.3171
653.70 0.3153
653.80 0.3136
653.90 0.3118
654.00 0.3101
654.10 0.3083
654.20 0.3065
654.30 0.3047
654.40 0.3024
654.50 0.3002
654.60 0.2979
654.70 0.2957
654.80 0.2934
654.90 0.2906
655.00 0.2879
655.10 0.2851
655.20 0.2824
655.30 0.2796
655.40 0.2763
655.50 0.273
655.60 0.2694
655.70 0.2657
655.80 0.2616
655.90 0.2574
656.00 0.2525
656.10 0.2475
656.20 0.2396
656.30 0.231
656.40 0.243
656.50 0.2489
656.60 0.2535
656.70 0.258
656.80 0.2618
656.90 0.2655
657.00 0.2688
657.10 0.272
657.20 0.2749
657.30 0.2778
657.40 0.2802
657.50 0.2826
657.60 0.285
657.70 0.2874
657.80 0.2897
657.90 0.2916
658.00 0.2935
658.10 0.2954
658.20 0.2973
658.30 0.2991
658.40 0.3005
658.50 0.3019
658.60 0.3032
658.70 0.3046
658.80 0.306
658.90 0.3074
659.00 0.3088
659.10 0.3102
659.20 0.3115
659.30 0.3128
659.40 0.3138
659.50 0.3147
659.60 0.3156
659.70 0.3166
659.80 0.3175
659.90 0.3184
660.00 0.3194
660.10 0.3203
660.20 0.3212
660.30 0.3221
660.40 0.3227
660.50 0.3233
660.60 0.324
660.70 0.3246
660.80 0.3252
660.90 0.3258
661.00 0.3265
661.10 0.3271
661.20 0.3277
661.30 0.3283
661.40 0.3287
661.50 0.3291
661.60 0.3295
661.70 0.3299
661.80 0.3303
661.90 0.3307
662.00 0.3311
662.10 0.3315
662.20 0.3319
662.30 0.3323
662.40 0.3325
662.50 0.3328
662.60 0.333
662.70 0.3333
662.80 0.3335
662.90 0.3338
663.00 0.334
663.10 0.3343
663.20 0.3345
663.30 0.3348
663.40 0.3349
663.50 0.335
663.60 0.3352
663.70 0.3353
663.80 0.3354
663.90 0.3356
664.00 0.3357
664.10 0.3358
664.20 0.336
664.30 0.3361
664.40 0.3362
664.50 0.3362
664.60 0.3363
664.70 0.3363
664.80 0.3364
664.90 0.3364
665.00 0.3365
665.10 0.3366
665.20 0.3366
665.30 0.3367
665.40 0.3367
665.50 0.3367
665.60 0.3366
665.70 0.3366
665.80 0.3366
665.90 0.3366
666.00 0.3366
666.10 0.3366
666.20 0.3366
666.30 0.3366
666.40 0.3366
666.50 0.3365
666.60 0.3365
666.70 0.3364
666.80 0.3364
666.90 0.3363
667.00 0.3363
667.10 0.3363
667.20 0.3362
667.30 0.3362
667.40 0.3361
667.50 0.336
667.60 0.3359
667.70 0.3359
667.80 0.3358
667.90 0.3357
668.00 0.3356
668.10 0.3355
668.20 0.3355
668.30 0.3354
668.40 0.3353
668.50 0.3352
668.60 0.3351
668.70 0.335
668.80 0.3349
668.90 0.3348
669.00 0.3347
669.10 0.3346
669.20 0.3345
669.30 0.3344
669.40 0.3343
669.50 0.3341
669.60 0.334
669.70 0.3339
669.80 0.3338
669.90 0.3337
670.00 0.3336
670.10 0.3334
670.20 0.3333
670.30 0.3332
670.40 0.3331
670.50 0.3329
670.60 0.3328
670.70 0.3327
670.80 0.3325
670.90 0.3324
671.00 0.3323
671.10 0.3322
671.20 0.332
671.30 0.3319
671.40 0.3318
671.50 0.3316
671.60 0.3315
671.70 0.3313
671.80 0.3312
671.90 0.3311
672.00 0.3309
672.10 0.3308
672.20 0.3306
672.30 0.3305
672.40 0.3303
672.50 0.3302
672.60 0.33
672.70 0.3299
672.80 0.3297
672.90 0.3296
673.00 0.3295
673.10 0.3293
673.20 0.3292
673.30 0.329
673.40 0.3289
673.50 0.3287
673.60 0.3286
673.70 0.3284
673.80 0.3282
673.90 0.3281
674.00 0.3279
674.10 0.3278
674.20 0.3276
674.30 0.3275
674.40 0.3273
674.50 0.3272
674.60 0.327
674.70 0.3268
674.80 0.3267
674.90 0.3265
675.00 0.3264
675.10 0.3262
675.20 0.3261
675.30 0.3259
675.40 0.3257
675.50 0.3256
675.60 0.3254
675.70 0.3253
675.80 0.3251
675.90 0.3249
676.00 0.3248
676.10 0.3246
676.20 0.3245
676.30 0.3243
676.40 0.3241
676.50 0.324
676.60 0.3238
676.70 0.3237
676.80 0.3235
676.90 0.3233
677.00 0.3232
677.10 0.323
677.20 0.3228
677.30 0.3227
677.40 0.3225
677.50 0.3223
677.60 0.3222
677.70 0.322
677.80 0.3219
677.90 0.3217
678.00 0.3215
678.10 0.3214
678.20 0.3212
678.30 0.321
678.40 0.3209
678.50 0.3207
678.60 0.3205
678.70 0.3204
678.80 0.3202
678.90 0.32
679.00 0.3199
679.10 0.3197
679.20 0.3195
679.30 0.3194
679.40 0.3192
679.50 0.319
679.60 0.3189
679.70 0.3187
679.80 0.3186
679.90 0.3184
680.00 0.3182
680.10 0.3181
680.20 0.3179
680.30 0.3177
680.40 0.3176
680.50 0.3174
680.60 0.3172
680.70 0.3171
680.80 0.3169
680.90 0.3167
681.00 0.3166
681.10 0.3164
681.20 0.3162
681.30 0.3161
681.40 0.3159
681.50 0.3157
681.60 0.3156
681.70 0.3154
681.80 0.3152
681.90 0.3151
682.00 0.3149
682.10 0.3147
682.20 0.3146
682.30 0.3144
682.40 0.3142
682.50 0.3141
682.60 0.3139
682.70 0.3137
682.80 0.3136
682.90 0.3134
683.00 0.3132
683.10 0.3131
683.20 0.3129
683.30 0.3127
683.40 0.3126
683.50 0.3124
683.60 0.3122
683.70 0.3121
683.80 0.3119
683.90 0.3117
684.00 0.3116
684.10 0.3114
684.20 0.3112
684.30 0.3111
684.40 0.3109
684.50 0.3107
684.60 0.3106
684.70 0.3104
684.80 0.3102
684.90 0.3101
685.00 0.3099
685.10 0.3097
685.20 0.3096
685.30 0.3094
685.40 0.3092
685.50 0.3091
685.60 0.3089
685.70 0.3087
685.80 0.3086
685.90 0.3084
686.00 0.3082
686.10 0.3081
686.20 0.3079
686.30 0.3077
686.40 0.3076
686.50 0.3074
686.60 0.3073
686.70 0.3071
686.80 0.3069
686.90 0.3068
687.00 0.3066
687.10 0.3064
687.20 0.3063
687.30 0.3061
687.40 0.3059
687.50 0.3058
687.60 0.3056
687.70 0.3054
687.80 0.3053
687.90 0.3051
688.00 0.3049
688.10 0.3048
688.20 0.3046
688.30 0.3045
688.40 0.3043
688.50 0.3041
688.60 0.304
688.70 0.3038
688.80 0.3036
688.90 0.3035
689.00 0.3033
689.10 0.3031
689.20 0.303
689.30 0.3028
689.40 0.3027
689.50 0.3025
689.60 0.3023
689.70 0.3022
689.80 0.302
689.90 0.3018
690.00 0.3017
690.10 0.3015
690.20 0.3014
690.30 0.3012
690.40 0.301
690.50 0.3009
690.60 0.3007
690.70 0.3005
690.80 0.3004
690.90 0.3002
691.00 0.3001
691.10 0.2999
691.20 0.2997
691.30 0.2996
691.40 0.2994
691.50 0.2993
691.60 0.2991
691.70 0.2989
691.80 0.2988
691.90 0.2986
692.00 0.2984
692.10 0.2983
692.20 0.2981
692.30 0.298
692.40 0.2978
692.50 0.2976
692.60 0.2975
692.70 0.2973
692.80 0.2972
692.90 0.297
693.00 0.2968
693.10 0.2967
693.20 0.2965
693.30 0.2964
693.40 0.2962
693.50 0.296
693.60 0.2959
693.70 0.2957
693.80 0.2956
693.90 0.2954
694.00 0.2952
694.10 0.2951
694.20 0.2949
694.30 0.2948
694.40 0.2946
694.50 0.2944
694.60 0.2943
694.70 0.2941
694.80 0.294
694.90 0.2938
695.00 0.2937
695.10 0.2935
695.20 0.2933
695.30 0.2932
695.40 0.293
695.50 0.2929
695.60 0.2927
695.70 0.2925
695.80 0.2924
695.90 0.2922
696.00 0.2921
696.10 0.2919
696.20 0.2918
696.30 0.2916
696.40 0.2914
696.50 0.2913
696.60 0.2911
696.70 0.291
696.80 0.2908
696.90 0.2907
697.00 0.2905
697.10 0.2903
697.20 0.2902
697.30 0.29
697.40 0.2899
697.50 0.2897
697.60 0.2896
697.70 0.2894
697.80 0.2893
697.90 0.2891
698.00 0.2889
698.10 0.2888
698.20 0.2886
698.30 0.2885
698.40 0.2883
698.50 0.2882
698.60 0.288
698.70 0.2879
698.80 0.2877
698.90 0.2875
699.00 0.2874
699.10 0.2872
699.20 0.2871
699.30 0.2869
699.40 0.2868
699.50 0.2866
699.60 0.2865
699.70 0.2863
699.80 0.2862
699.90 0.286
700.00 0.2858
700.10 0.2857
700.20 0.2855
700.30 0.2854
700.40 0.2852
700.50 0.2851
700.60 0.2849
700.70 0.2848
700.80 0.2846
700.90 0.2845
701.00 0.2843
701.10 0.2842
701.20 0.284
701.30 0.2839
701.40 0.2837
701.50 0.2836
701.60 0.2834
701.70 0.2832
701.80 0.2831
701.90 0.2829
702.00 0.2828
702.10 0.2826
702.20 0.2825
702.30 0.2823
702.40 0.2822
702.50 0.282
702.60 0.2819
702.70 0.2817
702.80 0.2816
702.90 0.2814
703.00 0.2813
703.10 0.2811
703.20 0.281
703.30 0.2808
703.40 0.2807
703.50 0.2805
703.60 0.2804
703.70 0.2802
703.80 0.2801
703.90 0.2799
704.00 0.2798
704.10 0.2796
704.20 0.2795
704.30 0.2793
704.40 0.2792
704.50 0.279
704.60 0.2789
704.70 0.2787
704.80 0.2786
704.90 0.2784
705.00 0.2783
705.10 0.2781
705.20 0.278
705.30 0.2778
705.40 0.2777
705.50 0.2775
705.60 0.2774
705.70 0.2772
705.80 0.2771
705.90 0.2769
706.00 0.2768
706.10 0.2766
706.20 0.2765
706.30 0.2763
706.40 0.2762
706.50 0.2761
706.60 0.2759
706.70 0.2758
706.80 0.2756
706.90 0.2755
707.00 0.2753
707.10 0.2752
707.20 0.275
707.30 0.2749
707.40 0.2747
707.50 0.2746
707.60 0.2744
707.70 0.2743
707.80 0.2741
707.90 0.274
708.00 0.2738
708.10 0.2737
708.20 0.2736
708.30 0.2734
708.40 0.2733
708.50 0.2731
708.60 0.273
708.70 0.2728
708.80 0.2727
708.90 0.2725
709.00 0.2724
709.10 0.2722
709.20 0.2721
709.30 0.272
709.40 0.2718
709.50 0.2717
709.60 0.2715
709.70 0.2714
709.80 0.2712
709.90 0.2711
710.00 0.2709
710.10 0.2708
710.20 0.2706
710.30 0.2705
710.40 0.2704
710.50 0.2702
710.60 0.2701
710.70 0.2699
710.80 0.2698
710.90 0.2696
711.00 0.2695
711.10 0.2694
711.20 0.2692
711.30 0.2691
711.40 0.2689
711.50 0.2688
711.60 0.2686
711.70 0.2685
711.80 0.2684
711.90 0.2682
712.00 0.2681
712.10 0.2679
712.20 0.2678
712.30 0.2676
712.40 0.2675
712.50 0.2674
712.60 0.2672
712.70 0.2671
712.80 0.2669
712.90 0.2668
713.00 0.2667
713.10 0.2665
713.20 0.2664
713.30 0.2662
713.40 0.2661
713.50 0.2659
713.60 0.2658
713.70 0.2657
713.80 0.2655
713.90 0.2654
714.00 0.2652
714.10 0.2651
714.20 0.265
714.30 0.2648
714.40 0.2647
714.50 0.2645
714.60 0.2644
714.70 0.2643
714.80 0.2641
714.90 0.264
715.00 0.2638
715.10 0.2637
715.20 0.2636
715.30 0.2634
715.40 0.2633
715.50 0.2631
715.60 0.263
715.70 0.2629
715.80 0.2627
715.90 0.2626
716.00 0.2624
716.10 0.2623
716.20 0.2622
716.30 0.262
716.40 0.2619
716.50 0.2618
716.60 0.2616
716.70 0.2615
716.80 0.2613
716.90 0.2612
717.00 0.2611
717.10 0.2609
717.20 0.2608
717.30 0.2606
717.40 0.2605
717.50 0.2604
717.60 0.2602
717.70 0.2601
717.80 0.26
717.90 0.2598
718.00 0.2597
718.10 0.2595
718.20 0.2594
718.30 0.2593
718.40 0.2591
718.50 0.259
718.60 0.2589
718.70 0.2587
718.80 0.2586
718.90 0.2585
719.00 0.2583
719.10 0.2582
719.20 0.258
719.30 0.2579
719.40 0.2578
719.50 0.2576
719.60 0.2575
719.70 0.2574
719.80 0.2572
719.90 0.2571
720.00 0.257
720.10 0.2568
720.20 0.2567
720.30 0.2565
720.40 0.2564
720.50 0.2563
720.60 0.2561
720.70 0.256
720.80 0.2559
720.90 0.2557
721.00 0.2556
721.10 0.2555
721.20 0.2553
721.30 0.2552
721.40 0.2551
721.50 0.2549
721.60 0.2548
721.70 0.2547
721.80 0.2545
721.90 0.2544
722.00 0.2543
722.10 0.2541
722.20 0.254
722.30 0.2539
722.40 0.2537
722.50 0.2536
722.60 0.2535
722.70 0.2533
722.80 0.2532
722.90 0.2531
723.00 0.2529
723.10 0.2528
723.20 0.2527
723.30 0.2525
723.40 0.2524
723.50 0.2523
723.60 0.2521
723.70 0.252
723.80 0.2519
723.90 0.2517
724.00 0.2516
724.10 0.2515
724.20 0.2513
724.30 0.2512
724.40 0.2511
724.50 0.251
724.60 0.2508
724.70 0.2507
724.80 0.2506
724.90 0.2504
725.00 0.2503
725.10 0.2502
725.20 0.25
725.30 0.2499
725.40 0.2498
725.50 0.2496
725.60 0.2495
725.70 0.2494
725.80 0.2493
725.90 0.2491
726.00 0.249
726.10 0.2489
726.20 0.2487
726.30 0.2486
726.40 0.2485
726.50 0.2483
726.60 0.2482
726.70 0.2481
726.80 0.248
726.90 0.2478
727.00 0.2477
727.10 0.2476
727.20 0.2474
727.30 0.2473
727.40 0.2472
727.50 0.2471
727.60 0.2469
727.70 0.2468
727.80 0.2467
727.90 0.2465
728.00 0.2464
728.10 0.2463
728.20 0.2461
728.30 0.246
728.40 0.2459
728.50 0.2458
728.60 0.2456
728.70 0.2455
728.80 0.2454
728.90 0.2453
729.00 0.2451
729.10 0.245
729.20 0.2449
729.30 0.2447
729.40 0.2446
729.50 0.2445
729.60 0.2444
729.70 0.2442
729.80 0.2441
729.90 0.244
730.00 0.2438
730.10 0.2437
730.20 0.2436
730.30 0.2435
730.40 0.2433
730.50 0.2432
730.60 0.2431
730.70 0.243
730.80 0.2428
730.90 0.2427
731.00 0.2426
731.10 0.2425
731.20 0.2423
731.30 0.2422
731.40 0.2421
731.50 0.242
731.60 0.2418
731.70 0.2417
731.80 0.2416
731.90 0.2415
732.00 0.2413
732.10 0.2412
732.20 0.2411
732.30 0.241
732.40 0.2408
732.50 0.2407
732.60 0.2406
732.70 0.2405
732.80 0.2403
732.90 0.2402
733.00 0.2401
733.10 0.24
733.20 0.2399
733.30 0.2397
733.40 0.2396
733.50 0.2395
733.60 0.2394
733.70 0.2392
733.80 0.2391
733.90 0.239
734.00 0.2389
734.10 0.2387
734.20 0.2386
734.30 0.2385
734.40 0.2384
734.50 0.2382
734.60 0.2381
734.70 0.238
734.80 0.2379
734.90 0.2378
735.00 0.2376
735.10 0.2375
735.20 0.2374
735.30 0.2373
735.40 0.2371
735.50 0.237
735.60 0.2369
735.70 0.2368
735.80 0.2366
735.90 0.2365
736.00 0.2364
736.10 0.2363
736.20 0.2362
736.30 0.236
736.40 0.2359
736.50 0.2358
736.60 0.2357
736.70 0.2355
736.80 0.2354
736.90 0.2353
737.00 0.2352
737.10 0.2351
737.20 0.2349
737.30 0.2348
737.40 0.2347
737.50 0.2346
737.60 0.2345
737.70 0.2343
737.80 0.2342
737.90 0.2341
738.00 0.234
738.10 0.2338
738.20 0.2337
738.30 0.2336
738.40 0.2335
738.50 0.2334
738.60 0.2332
738.70 0.2331
738.80 0.233
738.90 0.2329
739.00 0.2328
739.10 0.2326
739.20 0.2325
739.30 0.2324
739.40 0.2323
739.50 0.2322
739.60 0.232
739.70 0.2319
739.80 0.2318
739.90 0.2317
740.00 0.2316
740.10 0.2314
740.20 0.2313
740.30 0.2312
740.40 0.2311
740.50 0.231
740.60 0.2309
740.70 0.2307
740.80 0.2306
740.90 0.2305
741.00 0.2304
741.10 0.2303
741.20 0.2301
741.30 0.23
741.40 0.2299
741.50 0.2298
741.60 0.2297
741.70 0.2296
741.80 0.2294
741.90 0.2293
742.00 0.2292
742.10 0.2291
742.20 0.229
742.30 0.2289
742.40 0.2287
742.50 0.2286
742.60 0.2285
742.70 0.2284
742.80 0.2283
742.90 0.2282
743.00 0.228
743.10 0.2279
743.20 0.2278
743.30 0.2277
743.40 0.2276
743.50 0.2275
743.60 0.2273
743.70 0.2272
743.80 0.2271
743.90 0.227
744.00 0.2269
744.10 0.2268
744.20 0.2267
744.30 0.2265
744.40 0.2264
744.50 0.2263
744.60 0.2262
744.70 0.2261
744.80 0.226
744.90 0.2258
745.00 0.2257
745.10 0.2256
745.20 0.2255
745.30 0.2254
745.40 0.2253
745.50 0.2252
745.60 0.225
745.70 0.2249
745.80 0.2248
745.90 0.2247
746.00 0.2246
746.10 0.2245
746.20 0.2243
746.30 0.2242
746.40 0.2241
746.50 0.224
746.60 0.2239
746.70 0.2238
746.80 0.2237
746.90 0.2235
747.00 0.2234
747.10 0.2233
747.20 0.2232
747.30 0.2231
747.40 0.223
747.50 0.2229
747.60 0.2228
747.70 0.2226
747.80 0.2225
747.90 0.2224
748.00 0.2223
748.10 0.2222
748.20 0.2221
748.30 0.222
748.40 0.2218
748.50 0.2217
748.60 0.2216
748.70 0.2215
748.80 0.2214
748.90 0.2213
749.00 0.2212
749.10 0.221
749.20 0.2209
749.30 0.2208
749.40 0.2207
749.50 0.2206
749.60 0.2205
749.70 0.2204
749.80 0.2203
749.90 0.2201
750.00 0.22
750.10 0.2199
750.20 0.2198
750.30 0.2197
750.40 0.2196
750.50 0.2195
750.60 0.2194
750.70 0.2193
750.80 0.2191
750.90 0.219
751.00 0.2189
751.10 0.2188
751.20 0.2187
751.30 0.2186
751.40 0.2185
751.50 0.2184
751.60 0.2183
751.70 0.2182
751.80 0.218
751.90 0.2179
752.00 0.2178
752.10 0.2177
752.20 0.2176
752.30 0.2175
752.40 0.2174
752.50 0.2173
752.60 0.2172
752.70 0.2171
752.80 0.217
752.90 0.2168
753.00 0.2167
753.10 0.2166
753.20 0.2165
753.30 0.2164
753.40 0.2163
753.50 0.2162
753.60 0.2161
753.70 0.216
753.80 0.2159
753.90 0.2158
754.00 0.2156
754.10 0.2155
754.20 0.2154
754.30 0.2153
754.40 0.2152
754.50 0.2151
754.60 0.215
754.70 0.2149
754.80 0.2148
754.90 0.2147
755.00 0.2146
755.10 0.2145
755.20 0.2143
755.30 0.2142
755.40 0.2141
755.50 0.214
755.60 0.2139
755.70 0.2138
755.80 0.2137
755.90 0.2136
756.00 0.2135
756.10 0.2134
756.20 0.2133
756.30 0.2132
756.40 0.2131
756.50 0.2129
756.60 0.2128
756.70 0.2127
756.80 0.2126
756.90 0.2125
757.00 0.2124
757.10 0.2123
757.20 0.2122
757.30 0.2121
757.40 0.212
757.50 0.2119
757.60 0.2118
757.70 0.2117
757.80 0.2116
757.90 0.2114
758.00 0.2113
758.10 0.2112
758.20 0.2111
758.30 0.211
758.40 0.2109
758.50 0.2108
758.60 0.2107
758.70 0.2106
758.80 0.2105
758.90 0.2104
759.00 0.2103
759.10 0.2102
759.20 0.2101
759.30 0.21
759.40 0.2098
759.50 0.2097
759.60 0.2096
759.70 0.2095
759.80 0.2094
759.90 0.2093
760.00 0.2092
760.10 0.2091
760.20 0.209
760.30 0.2089
760.40 0.2088
760.50 0.2087
760.60 0.2086
760.70 0.2085
760.80 0.2084
760.90 0.2083
761.00 0.2082
761.10 0.2081
761.20 0.208
761.30 0.2079
761.40 0.2078
761.50 0.2077
761.60 0.2076
761.70 0.2075
761.80 0.2073
761.90 0.2072
762.00 0.2071
762.10 0.207
762.20 0.2069
762.30 0.2068
762.40 0.2067
762.50 0.2066
762.60 0.2065
762.70 0.2064
762.80 0.2063
762.90 0.2062
763.00 0.2061
763.10 0.206
763.20 0.2059
763.30 0.2058
763.40 0.2057
763.50 0.2056
763.60 0.2055
763.70 0.2054
763.80 0.2053
763.90 0.2052
764.00 0.2051
764.10 0.205
764.20 0.2049
764.30 0.2048
764.40 0.2047
764.50 0.2046
764.60 0.2045
764.70 0.2044
764.80 0.2043
764.90 0.2042
765.00 0.2041
765.10 0.204
765.20 0.2039
765.30 0.2038
765.40 0.2037
765.50 0.2036
765.60 0.2035
765.70 0.2034
765.80 0.2033
765.90 0.2032
766.00 0.2031
766.10 0.203
766.20 0.2029
766.30 0.2028
766.40 0.2027
766.50 0.2026
766.60 0.2025
766.70 0.2024
766.80 0.2023
766.90 0.2022
767.00 0.202
767.10 0.2019
767.20 0.2018
767.30 0.2017
767.40 0.2016
767.50 0.2015
767.60 0.2014
767.70 0.2013
767.80 0.2012
767.90 0.2011
768.00 0.201
768.10 0.2009
768.20 0.2008
768.30 0.2007
768.40 0.2006
768.50 0.2005
768.60 0.2004
768.70 0.2003
768.80 0.2002
768.90 0.2001
769.00 0.2
769.10 0.1999
769.20 0.1998
769.30 0.1997
769.40 0.1996
769.50 0.1995
769.60 0.1994
769.70 0.1993
769.80 0.1992
769.90 0.1991
770.00 0.199
770.10 0.199
770.20 0.1989
770.30 0.1988
770.40 0.1987
770.50 0.1986
770.60 0.1985
770.70 0.1984
770.80 0.1983
770.90 0.1982
771.00 0.1981
771.10 0.198
771.20 0.1979
771.30 0.1978
771.40 0.1977
771.50 0.1976
771.60 0.1975
771.70 0.1974
771.80 0.1973
771.90 0.1972
772.00 0.1971
772.10 0.197
772.20 0.1969
772.30 0.1968
772.40 0.1967
772.50 0.1966
772.60 0.1965
772.70 0.1964
772.80 0.1963
772.90 0.1962
773.00 0.1961
773.10 0.196
773.20 0.1959
773.30 0.1958
773.40 0.1958
773.50 0.1957
773.60 0.1956
773.70 0.1955
773.80 0.1954
773.90 0.1953
774.00 0.1952
774.10 0.1951
774.20 0.195
774.30 0.1949
774.40 0.1948
774.50 0.1947
774.60 0.1946
774.70 0.1945
774.80 0.1944
774.90 0.1943
775.00 0.1942
775.10 0.1941
775.20 0.194
775.30 0.1939
775.40 0.1938
775.50 0.1937
775.60 0.1936
775.70 0.1936
775.80 0.1935
775.90 0.1934
776.00 0.1933
776.10 0.1932
776.20 0.1931
776.30 0.193
776.40 0.1929
776.50 0.1928
776.60 0.1927
776.70 0.1926
776.80 0.1925
776.90 0.1924
777.00 0.1923
777.10 0.1922
777.20 0.1921
777.30 0.192
777.40 0.1919
777.50 0.1918
777.60 0.1917
777.70 0.1917
777.80 0.1916
777.90 0.1915
778.00 0.1914
778.10 0.1913
778.20 0.1912
778.30 0.1911
778.40 0.191
778.50 0.1909
778.60 0.1908
778.70 0.1907
778.80 0.1906
778.90 0.1905
779.00 0.1904
779.10 0.1903
779.20 0.1902
779.30 0.1902
779.40 0.1901
779.50 0.19
779.60 0.1899
779.70 0.1898
779.80 0.1897
779.90 0.1896
780.00 0.1895
780.10 0.1894
780.20 0.1893
780.30 0.1892
780.40 0.1891
780.50 0.189
780.60 0.1889
780.70 0.1889
780.80 0.1888
780.90 0.1887
781.00 0.1886
781.10 0.1885
781.20 0.1884
781.30 0.1883
781.40 0.1882
781.50 0.1881
781.60 0.188
781.70 0.1879
781.80 0.1878
781.90 0.1878
782.00 0.1877
782.10 0.1876
782.20 0.1875
782.30 0.1874
782.40 0.1873
782.50 0.1872
782.60 0.1871
782.70 0.187
782.80 0.1869
782.90 0.1868
783.00 0.1868
783.10 0.1867
783.20 0.1866
783.30 0.1865
783.40 0.1864
783.50 0.1863
783.60 0.1862
783.70 0.1861
783.80 0.186
783.90 0.1859
784.00 0.1859
784.10 0.1858
784.20 0.1857
784.30 0.1856
784.40 0.1855
784.50 0.1854
784.60 0.1853
784.70 0.1852
784.80 0.1851
784.90 0.185
785.00 0.185
785.10 0.1849
785.20 0.1848
785.30 0.1847
785.40 0.1846
785.50 0.1845
785.60 0.1844
785.70 0.1843
785.80 0.1842
785.90 0.1841
786.00 0.1841
786.10 0.184
786.20 0.1839
786.30 0.1838
786.40 0.1837
786.50 0.1836
786.60 0.1835
786.70 0.1834
786.80 0.1833
786.90 0.1833
787.00 0.1832
787.10 0.1831
787.20 0.183
787.30 0.1829
787.40 0.1828
787.50 0.1827
787.60 0.1826
787.70 0.1825
787.80 0.1825
787.90 0.1824
788.00 0.1823
788.10 0.1822
788.20 0.1821
788.30 0.182
788.40 0.1819
788.50 0.1818
788.60 0.1817
788.70 0.1817
788.80 0.1816
788.90 0.1815
789.00 0.1814
789.10 0.1813
789.20 0.1812
789.30 0.1811
789.40 0.181
789.50 0.1809
789.60 0.1809
789.70 0.1808
789.80 0.1807
789.90 0.1806
790.00 0.1805
790.10 0.1804
790.20 0.1803
790.30 0.1802
790.40 0.1802
790.50 0.1801
790.60 0.18
790.70 0.1799
790.80 0.1798
790.90 0.1797
791.00 0.1796
791.10 0.1796
791.20 0.1795
791.30 0.1794
791.40 0.1793
791.50 0.1792
791.60 0.1791
791.70 0.179
791.80 0.179
791.90 0.1789
792.00 0.1788
792.10 0.1787
792.20 0.1786
792.30 0.1785
792.40 0.1784
792.50 0.1784
792.60 0.1783
792.70 0.1782
792.80 0.1781
792.90 0.178
793.00 0.1779
793.10 0.1778
793.20 0.1778
793.30 0.1777
793.40 0.1776
793.50 0.1775
793.60 0.1774
793.70 0.1773
793.80 0.1772
793.90 0.1772
794.00 0.1771
794.10 0.177
794.20 0.1769
794.30 0.1768
794.40 0.1767
794.50 0.1767
794.60 0.1766
794.70 0.1765
794.80 0.1764
794.90 0.1763
795.00 0.1762
795.10 0.1761
795.20 0.1761
795.30 0.176
795.40 0.1759
795.50 0.1758
795.60 0.1757
795.70 0.1756
795.80 0.1756
795.90 0.1755
796.00 0.1754
796.10 0.1753
796.20 0.1752
796.30 0.1751
796.40 0.1751
796.50 0.175
796.60 0.1749
796.70 0.1748
796.80 0.1747
796.90 0.1746
797.00 0.1745
797.10 0.1745
797.20 0.1744
797.30 0.1743
797.40 0.1742
797.50 0.1741
797.60 0.174
797.70 0.174
797.80 0.1739
797.90 0.1738
798.00 0.1737
798.10 0.1736
798.20 0.1735
798.30 0.1735
798.40 0.1734
798.50 0.1733
798.60 0.1732
798.70 0.1731
798.80 0.173
798.90 0.173
799.00 0.1729
799.10 0.1728
799.20 0.1727
799.30 0.1726
799.40 0.1725
799.50 0.1725
799.60 0.1724
799.70 0.1723
799.80 0.1722
799.90 0.1721
800.00 0.172
800.10 0.172
800.20 0.1719
800.30 0.1718
800.40 0.1717
800.50 0.1716
800.60 0.1716
800.70 0.1715
800.80 0.1714
800.90 0.1713
801.00 0.1712
801.10 0.1712
801.20 0.1711
801.30 0.171
801.40 0.1709
801.50 0.1708
801.60 0.1707
801.70 0.1707
801.80 0.1706
801.90 0.1705
802.00 0.1704
802.10 0.1703
802.20 0.1703
802.30 0.1702
802.40 0.1701
802.50 0.17
802.60 0.1699
802.70 0.1699
802.80 0.1698
802.90 0.1697
803.00 0.1696
803.10 0.1695
803.20 0.1695
803.30 0.1694
803.40 0.1693
803.50 0.1692
803.60 0.1691
803.70 0.1691
803.80 0.169
803.90 0.1689
804.00 0.1688
804.10 0.1687
804.20 0.1687
804.30 0.1686
804.40 0.1685
804.50 0.1684
804.60 0.1683
804.70 0.1683
804.80 0.1682
804.90 0.1681
805.00 0.168
805.10 0.1679
805.20 0.1679
805.30 0.1678
805.40 0.1677
805.50 0.1676
805.60 0.1675
805.70 0.1675
805.80 0.1674
805.90 0.1673
806.00 0.1672
806.10 0.1671
806.20 0.1671
806.30 0.167
806.40 0.1669
806.50 0.1668
806.60 0.1667
806.70 0.1667
806.80 0.1666
806.90 0.1665
807.00 0.1664
807.10 0.1664
807.20 0.1663
807.30 0.1662
807.40 0.1661
807.50 0.166
807.60 0.166
807.70 0.1659
807.80 0.1658
807.90 0.1657
808.00 0.1656
808.10 0.1656
808.20 0.1655
808.30 0.1654
808.40 0.1653
808.50 0.1652
808.60 0.1652
808.70 0.1651
808.80 0.165
808.90 0.1649
809.00 0.1649
809.10 0.1648
809.20 0.1647
809.30 0.1646
809.40 0.1645
809.50 0.1645
809.60 0.1644
809.70 0.1643
809.80 0.1642
809.90 0.1642
810.00 0.1641
810.10 0.164
810.20 0.1639
810.30 0.1638
810.40 0.1638
810.50 0.1637
810.60 0.1636
810.70 0.1635
810.80 0.1635
810.90 0.1634
811.00 0.1633
811.10 0.1632
811.20 0.1632
811.30 0.1631
811.40 0.163
811.50 0.1629
811.60 0.1629
811.70 0.1628
811.80 0.1627
811.90 0.1626
812.00 0.1625
812.10 0.1625
812.20 0.1624
812.30 0.1623
812.40 0.1622
812.50 0.1622
812.60 0.1621
812.70 0.162
812.80 0.1619
812.90 0.1619
813.00 0.1618
813.10 0.1617
813.20 0.1616
813.30 0.1616
813.40 0.1615
813.50 0.1614
813.60 0.1613
813.70 0.1613
813.80 0.1612
813.90 0.1611
814.00 0.161
814.10 0.161
814.20 0.1609
814.30 0.1608
814.40 0.1607
814.50 0.1607
814.60 0.1606
814.70 0.1605
814.80 0.1604
814.90 0.1604
815.00 0.1603
815.10 0.1602
815.20 0.1601
815.30 0.1601
815.40 0.16
815.50 0.1599
815.60 0.1598
815.70 0.1598
815.80 0.1597
815.90 0.1596
816.00 0.1595
816.10 0.1595
816.20 0.1594
816.30 0.1593
816.40 0.1592
816.50 0.1592
816.60 0.1591
816.70 0.159
816.80 0.1589
816.90 0.1589
817.00 0.1588
817.10 0.1587
817.20 0.1586
817.30 0.1586
817.40 0.1585
817.50 0.1584
817.60 0.1583
817.70 0.1583
817.80 0.1582
817.90 0.1581
818.00 0.158
818.10 0.158
818.20 0.1579
818.30 0.1578
818.40 0.1577
818.50 0.1577
818.60 0.1576
818.70 0.1575
818.80 0.1574
818.90 0.1574
819.00 0.1573
819.10 0.1572
819.20 0.1572
819.30 0.1571
819.40 0.157
819.50 0.1569
819.60 0.1569
819.70 0.1568
819.80 0.1567
819.90 0.1566
820.00 0.1566
820.10 0.1565
820.20 0.1564
820.30 0.1563
820.40 0.1563
820.50 0.1562
820.60 0.1561
820.70 0.1561
820.80 0.156
820.90 0.1559
821.00 0.1558
821.10 0.1558
821.20 0.1557
821.30 0.1556
821.40 0.1555
821.50 0.1555
821.60 0.1554
821.70 0.1553
821.80 0.1553
821.90 0.1552
822.00 0.1551
822.10 0.155
822.20 0.155
822.30 0.1549
822.40 0.1548
822.50 0.1548
822.60 0.1547
822.70 0.1546
822.80 0.1545
822.90 0.1545
823.00 0.1544
823.10 0.1543
823.20 0.1543
823.30 0.1542
823.40 0.1541
823.50 0.154
823.60 0.154
823.70 0.1539
823.80 0.1538
823.90 0.1538
824.00 0.1537
824.10 0.1536
824.20 0.1535
824.30 0.1535
824.40 0.1534
824.50 0.1533
824.60 0.1533
824.70 0.1532
824.80 0.1531
824.90 0.153
825.00 0.153
825.10 0.1529
825.20 0.1528
825.30 0.1528
825.40 0.1527
825.50 0.1526
825.60 0.1525
825.70 0.1525
825.80 0.1524
825.90 0.1523
826.00 0.1523
826.10 0.1522
826.20 0.1521
826.30 0.1521
826.40 0.152
826.50 0.1519
826.60 0.1518
826.70 0.1518
826.80 0.1517
826.90 0.1516
827.00 0.1516
827.10 0.1515
827.20 0.1514
827.30 0.1513
827.40 0.1513
827.50 0.1512
827.60 0.1511
827.70 0.1511
827.80 0.151
827.90 0.1509
828.00 0.1509
828.10 0.1508
828.20 0.1507
828.30 0.1507
828.40 0.1506
828.50 0.1505
828.60 0.1504
828.70 0.1504
828.80 0.1503
828.90 0.1502
829.00 0.1502
829.10 0.1501
829.20 0.15
829.30 0.15
829.40 0.1499
829.50 0.1498
829.60 0.1498
829.70 0.1497
829.80 0.1496
829.90 0.1495
830.00 0.1495
830.10 0.1494
830.20 0.1493
830.30 0.1493
830.40 0.1492
830.50 0.1491
830.60 0.1491
830.70 0.149
830.80 0.1489
830.90 0.1489
831.00 0.1488
831.10 0.1487
831.20 0.1486
831.30 0.1486
831.40 0.1485
831.50 0.1484
831.60 0.1484
831.70 0.1483
831.80 0.1482
831.90 0.1482
832.00 0.1481
832.10 0.148
832.20 0.148
832.30 0.1479
832.40 0.1478
832.50 0.1478
832.60 0.1477
832.70 0.1476
832.80 0.1476
832.90 0.1475
833.00 0.1474
833.10 0.1473
833.20 0.1473
833.30 0.1472
833.40 0.1471
833.50 0.1471
833.60 0.147
833.70 0.1469
833.80 0.1469
833.90 0.1468
834.00 0.1467
834.10 0.1467
834.20 0.1466
834.30 0.1465
834.40 0.1465
834.50 0.1464
834.60 0.1463
834.70 0.1463
834.80 0.1462
834.90 0.1461
835.00 0.146
835.10 0.146
835.20 0.1459
835.30 0.1458
835.40 0.1458
835.50 0.1457
835.60 0.1456
835.70 0.1456
835.80 0.1455
835.90 0.1454
836.00 0.1454
836.10 0.1453
836.20 0.1452
836.30 0.1452
836.40 0.1451
836.50 0.145
836.60 0.145
836.70 0.1449
836.80 0.1448
836.90 0.1448
837.00 0.1447
837.10 0.1446
837.20 0.1446
837.30 0.1445
837.40 0.1444
837.50 0.1444
837.60 0.1443
837.70 0.1442
837.80 0.1442
837.90 0.1441
838.00 0.144
838.10 0.144
838.20 0.1439
838.30 0.1438
838.40 0.1438
838.50 0.1437
838.60 0.1436
838.70 0.1436
838.80 0.1435
838.90 0.1434
839.00 0.1434
839.10 0.1433
839.20 0.1432
839.30 0.1432
839.40 0.1431
839.50 0.143
839.60 0.143
839.70 0.1429
839.80 0.1428
839.90 0.1428
840.00 0.1427
840.10 0.1426
840.20 0.1426
840.30 0.1425
840.40 0.1424
840.50 0.1424
840.60 0.1423
840.70 0.1422
840.80 0.1422
840.90 0.1421
841.00 0.142
841.10 0.142
841.20 0.1419
841.30 0.1418
841.40 0.1418
841.50 0.1417
841.60 0.1417
841.70 0.1416
841.80 0.1415
841.90 0.1415
842.00 0.1414
842.10 0.1413
842.20 0.1413
842.30 0.1412
842.40 0.1411
842.50 0.1411
842.60 0.141
842.70 0.1409
842.80 0.1409
842.90 0.1408
843.00 0.1407
843.10 0.1407
843.20 0.1406
843.30 0.1405
843.40 0.1405
843.50 0.1404
843.60 0.1404
843.70 0.1403
843.80 0.1402
843.90 0.1402
844.00 0.1401
844.10 0.14
844.20 0.14
844.30 0.1399
844.40 0.1398
844.50 0.1398
844.60 0.1397
844.70 0.1396
844.80 0.1396
844.90 0.1395
845.00 0.1394
845.10 0.1394
845.20 0.1393
845.30 0.1393
845.40 0.1392
845.50 0.1391
845.60 0.1391
845.70 0.139
845.80 0.1389
845.90 0.1389
846.00 0.1388
846.10 0.1387
846.20 0.1387
846.30 0.1386
846.40 0.1386
846.50 0.1385
846.60 0.1384
846.70 0.1384
846.80 0.1383
846.90 0.1382
847.00 0.1382
847.10 0.1381
847.20 0.138
847.30 0.138
847.40 0.1379
847.50 0.1379
847.60 0.1378
847.70 0.1377
847.80 0.1377
847.90 0.1376
848.00 0.1375
848.10 0.1375
848.20 0.1374
848.30 0.1374
848.40 0.1373
848.50 0.1372
848.60 0.1372
848.70 0.1371
848.80 0.137
848.90 0.137
849.00 0.1369
849.10 0.1369
849.20 0.1368
849.30 0.1367
849.40 0.1367
849.50 0.1366
849.60 0.1365
849.70 0.1365
849.80 0.1364
849.90 0.1364
850.00 0.1363
850.10 0.1362
850.20 0.1362
850.30 0.1361
850.40 0.136
850.50 0.136
850.60 0.1359
850.70 0.1359
850.80 0.1358
850.90 0.1357
851.00 0.1357
851.10 0.1356
851.20 0.1355
851.30 0.1355
851.40 0.1354
851.50 0.1354
851.60 0.1353
851.70 0.1352
851.80 0.1352
851.90 0.1351
852.00 0.135
852.10 0.135
852.20 0.1349
852.30 0.1349
852.40 0.1348
852.50 0.1347
852.60 0.1347
852.70 0.1346
852.80 0.1346
852.90 0.1345
853.00 0.1344
853.10 0.1344
853.20 0.1343
853.30 0.1343
853.40 0.1342
853.50 0.1341
853.60 0.1341
853.70 0.134
853.80 0.134
853.90 0.1339
854.00 0.1338
854.10 0.1338
854.20 0.1337
854.30 0.1336
854.40 0.1336
854.50 0.1335
854.60 0.1335
854.70 0.1334
854.80 0.1333
854.90 0.1333
855.00 0.1332
855.10 0.1332
855.20 0.1331
855.30 0.133
855.40 0.133
855.50 0.1329
855.60 0.1329
855.70 0.1328
855.80 0.1327
855.90 0.1327
856.00 0.1326
856.10 0.1326
856.20 0.1325
856.30 0.1324
856.40 0.1324
856.50 0.1323
856.60 0.1323
856.70 0.1322
856.80 0.1321
856.90 0.1321
857.00 0.132
857.10 0.132
857.20 0.1319
857.30 0.1318
857.40 0.1318
857.50 0.1317
857.60 0.1317
857.70 0.1316
857.80 0.1316
857.90 0.1315
858.00 0.1314
858.10 0.1314
858.20 0.1313
858.30 0.1313
858.40 0.1312
858.50 0.1311
858.60 0.1311
858.70 0.131
858.80 0.131
858.90 0.1309
859.00 0.1309
859.10 0.1308
859.20 0.1307
859.30 0.1307
859.40 0.1306
859.50 0.1306
859.60 0.1305
859.70 0.1304
859.80 0.1304
859.90 0.1303
860.00 0.1303
860.10 0.1302
860.20 0.1302
860.30 0.1301
860.40 0.13
860.50 0.13
860.60 0.1299
860.70 0.1299
860.80 0.1298
860.90 0.1298
861.00 0.1297
861.10 0.1296
861.20 0.1296
861.30 0.1295
861.40 0.1295
861.50 0.1294
861.60 0.1294
861.70 0.1293
861.80 0.1292
861.90 0.1292
862.00 0.1291
862.10 0.1291
862.20 0.129
862.30 0.1289
862.40 0.1289
862.50 0.1288
862.60 0.1288
862.70 0.1287
862.80 0.1287
862.90 0.1286
863.00 0.1285
863.10 0.1285
863.20 0.1284
863.30 0.1284
863.40 0.1283
863.50 0.1283
863.60 0.1282
863.70 0.1281
863.80 0.1281
863.90 0.128
864.00 0.128
864.10 0.1279
864.20 0.1279
864.30 0.1278
864.40 0.1277
864.50 0.1277
864.60 0.1276
864.70 0.1276
864.80 0.1275
864.90 0.1275
865.00 0.1274
865.10 0.1273
865.20 0.1273
865.30 0.1272
865.40 0.1272
865.50 0.1271
865.60 0.1271
865.70 0.127
865.80 0.1269
865.90 0.1269
866.00 0.1268
866.10 0.1268
866.20 0.1267
866.30 0.1267
866.40 0.1266
866.50 0.1265
866.60 0.1265
866.70 0.1264
866.80 0.1264
866.90 0.1263
867.00 0.1263
867.10 0.1262
867.20 0.1261
867.30 0.1261
867.40 0.126
867.50 0.126
867.60 0.1259
867.70 0.1259
867.80 0.1258
867.90 0.1258
868.00 0.1257
868.10 0.1256
868.20 0.1256
868.30 0.1255
868.40 0.1255
868.50 0.1254
868.60 0.1254
868.70 0.1253
868.80 0.1253
868.90 0.1252
869.00 0.1251
869.10 0.1251
869.20 0.125
869.30 0.125
869.40 0.1249
869.50 0.1249
869.60 0.1248
869.70 0.1248
869.80 0.1247
869.90 0.1247
870.00 0.1246
870.10 0.1245
870.20 0.1245
870.30 0.1244
870.40 0.1244
870.50 0.1243
870.60 0.1243
870.70 0.1242
870.80 0.1242
870.90 0.1241
871.00 0.124
871.10 0.124
871.20 0.1239
871.30 0.1239
871.40 0.1238
871.50 0.1238
871.60 0.1237
871.70 0.1237
871.80 0.1236
871.90 0.1236
872.00 0.1235
872.10 0.1234
872.20 0.1234
872.30 0.1233
872.40 0.1233
872.50 0.1232
872.60 0.1232
872.70 0.1231
872.80 0.1231
872.90 0.123
873.00 0.123
873.10 0.1229
873.20 0.1229
873.30 0.1228
873.40 0.1227
873.50 0.1227
873.60 0.1226
873.70 0.1226
873.80 0.1225
873.90 0.1225
874.00 0.1224
874.10 0.1224
874.20 0.1223
874.30 0.1223
874.40 0.1222
874.50 0.1222
874.60 0.1221
874.70 0.1221
874.80 0.122
874.90 0.1219
875.00 0.1219
875.10 0.1218
875.20 0.1218
875.30 0.1217
875.40 0.1217
875.50 0.1216
875.60 0.1216
875.70 0.1215
875.80 0.1215
875.90 0.1214
876.00 0.1214
876.10 0.1213
876.20 0.1212
876.30 0.1212
876.40 0.1211
876.50 0.1211
876.60 0.121
876.70 0.121
876.80 0.1209
876.90 0.1209
877.00 0.1208
877.10 0.1208
877.20 0.1207
877.30 0.1207
877.40 0.1206
877.50 0.1206
877.60 0.1205
877.70 0.1205
877.80 0.1204
877.90 0.1204
878.00 0.1203
878.10 0.1203
878.20 0.1202
878.30 0.1201
878.40 0.1201
878.50 0.12
878.60 0.12
878.70 0.1199
878.80 0.1199
878.90 0.1198
879.00 0.1198
879.10 0.1197
879.20 0.1197
879.30 0.1196
879.40 0.1196
879.50 0.1195
879.60 0.1195
879.70 0.1194
879.80 0.1194
879.90 0.1193
880.00 0.1193
880.10 0.1192
880.20 0.1192
880.30 0.1191
880.40 0.1191
880.50 0.119
880.60 0.119
880.70 0.1189
880.80 0.1189
880.90 0.1188
881.00 0.1188
881.10 0.1187
881.20 0.1187
881.30 0.1186
881.40 0.1185
881.50 0.1185
881.60 0.1184
881.70 0.1184
881.80 0.1183
881.90 0.1183
882.00 0.1182
882.10 0.1182
882.20 0.1181
882.30 0.1181
882.40 0.118
882.50 0.118
882.60 0.1179
882.70 0.1179
882.80 0.1178
882.90 0.1178
883.00 0.1177
883.10 0.1177
883.20 0.1176
883.30 0.1176
883.40 0.1175
883.50 0.1175
883.60 0.1174
883.70 0.1174
883.80 0.1173
883.90 0.1173
884.00 0.1172
884.10 0.1172
884.20 0.1171
884.30 0.1171
884.40 0.117
884.50 0.117
884.60 0.1169
884.70 0.1169
884.80 0.1168
884.90 0.1168
885.00 0.1167
885.10 0.1167
885.20 0.1166
885.30 0.1166
885.40 0.1165
885.50 0.1165
885.60 0.1164
885.70 0.1164
885.80 0.1163
885.90 0.1163
886.00 0.1162
886.10 0.1162
886.20 0.1161
886.30 0.1161
886.40 0.116
886.50 0.116
886.60 0.1159
886.70 0.1159
886.80 0.1158
886.90 0.1158
887.00 0.1157
887.10 0.1157
887.20 0.1156
887.30 0.1156
887.40 0.1155
887.50 0.1155
887.60 0.1154
887.70 0.1154
887.80 0.1153
887.90 0.1153
888.00 0.1152
888.10 0.1152
888.20 0.1151
888.30 0.1151
888.40 0.115
888.50 0.115
888.60 0.1149
888.70 0.1149
888.80 0.1149
888.90 0.1148
889.00 0.1148
889.10 0.1147
889.20 0.1147
889.30 0.1146
889.40 0.1146
889.50 0.1145
889.60 0.1145
889.70 0.1144
889.80 0.1144
889.90 0.1143
890.00 0.1143
890.10 0.1142
890.20 0.1142
890.30 0.1141
890.40 0.1141
890.50 0.114
890.60 0.114
890.70 0.1139
890.80 0.1139
890.90 0.1138
891.00 0.1138
891.10 0.1137
891.20 0.1137
891.30 0.1136
891.40 0.1136
891.50 0.1136
891.60 0.1135
891.70 0.1135
891.80 0.1134
891.90 0.1134
892.00 0.1133
892.10 0.1133
892.20 0.1132
892.30 0.1132
892.40 0.1131
892.50 0.1131
892.60 0.113
892.70 0.113
892.80 0.1129
892.90 0.1129
893.00 0.1128
893.10 0.1128
893.20 0.1127
893.30 0.1127
893.40 0.1126
893.50 0.1126
893.60 0.1125
893.70 0.1125
893.80 0.1124
893.90 0.1124
894.00 0.1124
894.10 0.1123
894.20 0.1123
894.30 0.1122
894.40 0.1122
894.50 0.1121
894.60 0.1121
894.70 0.112
894.80 0.112
894.90 0.1119
895.00 0.1119
895.10 0.1118
895.20 0.1118
895.30 0.1117
895.40 0.1117
895.50 0.1116
895.60 0.1116
895.70 0.1115
895.80 0.1115
895.90 0.1114
896.00 0.1114
896.10 0.1113
896.20 0.1113
896.30 0.1113
896.40 0.1112
896.50 0.1112
896.60 0.1111
896.70 0.1111
896.80 0.111
896.90 0.111
897.00 0.1109
897.10 0.1109
897.20 0.1108
897.30 0.1108
897.40 0.1107
897.50 0.1107
897.60 0.1106
897.70 0.1106
897.80 0.1105
897.90 0.1105
898.00 0.1104
898.10 0.1104
898.20 0.1104
898.30 0.1103
898.40 0.1103
898.50 0.1102
898.60 0.1102
898.70 0.1101
898.80 0.1101
898.90 0.11
899.00 0.11
899.10 0.1099
899.20 0.1099
899.30 0.1098
899.40 0.1098
899.50 0.1097
899.60 0.1097
899.70 0.1096
899.80 0.1096
899.90 0.1096
900.00 0.1095
900.10 0.1095
900.20 0.1094
900.30 0.1094
900.40 0.1093
900.50 0.1093
900.60 0.1092
900.70 0.1092
900.80 0.1091
900.90 0.1091
901.00 0.109
901.10 0.109
901.20 0.1089
901.30 0.1089
901.40 0.1089
901.50 0.1088
901.60 0.1088
901.70 0.1087
901.80 0.1087
901.90 0.1086
902.00 0.1086
902.10 0.1085
902.20 0.1085
902.30 0.1085
902.40 0.1084
902.50 0.1084
902.60 0.1083
902.70 0.1083
902.80 0.1082
902.90 0.1082
903.00 0.1082
903.10 0.1081
903.20 0.1081
903.30 0.108
903.40 0.108
903.50 0.1079
903.60 0.1079
903.70 0.1079
903.80 0.1078
903.90 0.1078
904.00 0.1077
904.10 0.1077
904.20 0.1076
904.30 0.1076
904.40 0.1076
904.50 0.1075
904.60 0.1075
904.70 0.1074
904.80 0.1074
904.90 0.1073
905.00 0.1073
905.10 0.1073
905.20 0.1072
905.30 0.1072
905.40 0.1071
905.50 0.1071
905.60 0.107
905.70 0.107
905.80 0.107
905.90 0.1069
906.00 0.1069
906.10 0.1068
906.20 0.1068
906.30 0.1068
906.40 0.1067
906.50 0.1067
906.60 0.1066
906.70 0.1066
906.80 0.1065
906.90 0.1065
907.00 0.1065
907.10 0.1064
907.20 0.1064
907.30 0.1063
907.40 0.1063
907.50 0.1062
907.60 0.1062
907.70 0.1062
907.80 0.1061
907.90 0.1061
908.00 0.106
908.10 0.106
908.20 0.1059
908.30 0.1059
908.40 0.1058
908.50 0.1058
908.60 0.1058
908.70 0.1057
908.80 0.1057
908.90 0.1056
909.00 0.1056
909.10 0.1055
909.20 0.1055
909.30 0.1055
909.40 0.1054
909.50 0.1054
909.60 0.1053
909.70 0.1053
909.80 0.1052
909.90 0.1052
910.00 0.1052
910.10 0.1051
910.20 0.1051
910.30 0.105
910.40 0.105
910.50 0.1049
910.60 0.1049
910.70 0.1049
910.80 0.1048
910.90 0.1048
911.00 0.1047
911.10 0.1047
911.20 0.1046
911.30 0.1046
911.40 0.1046
911.50 0.1045
911.60 0.1045
911.70 0.1044
911.80 0.1044
911.90 0.1043
912.00 0.1043
912.10 0.1042
912.20 0.1042
912.30 0.1042
912.40 0.1041
912.50 0.1041
912.60 0.104
912.70 0.104
912.80 0.1039
912.90 0.1039
913.00 0.1038
913.10 0.1038
913.20 0.1037
913.30 0.1037
913.40 0.1037
913.50 0.1036
913.60 0.1036
913.70 0.1035
913.80 0.1035
913.90 0.1034
914.00 0.1034
914.10 0.1033
914.20 0.1033
914.30 0.1032
914.40 0.1032
914.50 0.1032
914.60 0.1031
914.70 0.1031
914.80 0.103
914.90 0.103
915.00 0.1029
915.10 0.1029
915.20 0.1028
915.30 0.1028
915.40 0.1027
915.50 0.1027
915.60 0.1027
915.70 0.1026
915.80 0.1026
915.90 0.1025
916.00 0.1025
916.10 0.1024
916.20 0.1024
916.30 0.1023
916.40 0.1023
916.50 0.1023
916.60 0.1022
916.70 0.1022
916.80 0.1021
916.90 0.1021
917.00 0.102
917.10 0.102
917.20 0.1019
917.30 0.1019
917.40 0.1018
917.50 0.1018
917.60 0.1018
917.70 0.1017
917.80 0.1017
917.90 0.1016
918.00 0.1016
918.10 0.1015
918.20 0.1015
918.30 0.1014
918.40 0.1014
918.50 0.1013
918.60 0.1013
918.70 0.1012
918.80 0.1012
918.90 0.1012
919.00 0.1011
919.10 0.1011
919.20 0.101
919.30 0.101
919.40 0.1009
919.50 0.1009
919.60 0.1008
919.70 0.1008
919.80 0.1007
919.90 0.1007
920.00 0.1007
920.10 0.1006
920.20 0.1006
920.30 0.1005
920.40 0.1005
920.50 0.1004
920.60 0.1004
920.70 0.1003
920.80 0.1003
920.90 0.1002
921.00 0.1002
921.10 0.1001
921.20 0.1001
921.30 0.1001
921.40 0.1
921.50 0.09997
921.60 0.09992
921.70 0.09988
921.80 0.09983
921.90 0.09979
922.00 0.09974
922.10 0.0997
922.20 0.09967
922.30 0.09963
922.40 0.0996
922.50 0.09956
922.60 0.09953
922.70 0.09949
922.80 0.09945
922.90 0.09942
923.00 0.09938
923.10 0.09935
923.20 0.09931
923.30 0.09928
923.40 0.09924
923.50 0.0992
923.60 0.09917
923.70 0.09913
923.80 0.0991
923.90 0.09906
924.00 0.09903
924.10 0.09899
924.20 0.09896
924.30 0.09892
924.40 0.09889
924.50 0.09885
924.60 0.09881
924.70 0.09878
924.80 0.09874
924.90 0.09871
925.00 0.09867
925.10 0.09864
925.20 0.0986
925.30 0.09857
925.40 0.09853
925.50 0.0985
925.60 0.09846
925.70 0.09843
925.80 0.09839
925.90 0.09836
926.00 0.09832
926.10 0.09828
926.20 0.09825
926.30 0.09821
926.40 0.09818
926.50 0.09814
926.60 0.09811
926.70 0.09807
926.80 0.09804
926.90 0.098
927.00 0.09797
927.10 0.09793
927.20 0.0979
927.30 0.09787
927.40 0.09783
927.50 0.0978
927.60 0.09776
927.70 0.09773
927.80 0.0977
927.90 0.09766
928.00 0.09763
928.10 0.09759
928.20 0.09756
928.30 0.09753
928.40 0.09749
928.50 0.09746
928.60 0.09743
928.70 0.09739
928.80 0.09736
928.90 0.09732
929.00 0.09729
929.10 0.09726
929.20 0.09722
929.30 0.09719
929.40 0.09715
929.50 0.09712
929.60 0.09709
929.70 0.09705
929.80 0.09702
929.90 0.09699
930.00 0.09695
930.10 0.09692
930.20 0.09689
930.30 0.09685
930.40 0.09682
930.50 0.09678
930.60 0.09675
930.70 0.09672
930.80 0.09668
930.90 0.09665
931.00 0.09662
931.10 0.09658
931.20 0.09655
931.30 0.09652
931.40 0.09648
931.50 0.09645
931.60 0.09642
931.70 0.09638
931.80 0.09635
931.90 0.09631
932.00 0.09628
932.10 0.09625
932.20 0.09621
932.30 0.09617
932.40 0.09614
932.50 0.0961
932.60 0.09606
932.70 0.09603
932.80 0.09599
932.90 0.09596
933.00 0.09592
933.10 0.09588
933.20 0.09585
933.30 0.09581
933.40 0.09578
933.50 0.09574
933.60 0.0957
933.70 0.09567
933.80 0.09563
933.90 0.0956
934.00 0.09556
934.10 0.09552
934.20 0.09549
934.30 0.09545
934.40 0.09541
934.50 0.09538
934.60 0.09534
934.70 0.0953
934.80 0.09526
934.90 0.09522
935.00 0.09518
935.10 0.09515
935.20 0.09511
935.30 0.09507
935.40 0.09503
935.50 0.09499
935.60 0.09496
935.70 0.09492
935.80 0.09488
935.90 0.09484
936.00 0.0948
936.10 0.09477
936.20 0.09473
936.30 0.09469
936.40 0.09465
936.50 0.09461
936.60 0.09458
936.70 0.09454
936.80 0.0945
936.90 0.09446
937.00 0.09442
937.10 0.09438
937.20 0.09435
937.30 0.09431
937.40 0.09427
937.50 0.09423
937.60 0.09419
937.70 0.09415
937.80 0.09411
937.90 0.09407
938.00 0.09403
938.10 0.09399
938.20 0.09395
938.30 0.09391
938.40 0.09387
938.50 0.09383
938.60 0.09379
938.70 0.09374
938.80 0.0937
938.90 0.09366
939.00 0.09362
939.10 0.09358
939.20 0.09354
939.30 0.0935
939.40 0.09346
939.50 0.09342
939.60 0.09337
939.70 0.09333
939.80 0.09329
939.90 0.09325
940.00 0.09321
940.10 0.09317
940.20 0.09313
940.30 0.09309
940.40 0.09305
940.50 0.093
940.60 0.09296
940.70 0.09292
940.80 0.09287
940.90 0.09283
941.00 0.09279
941.10 0.09275
941.20 0.0927
941.30 0.09266
941.40 0.09262
941.50 0.09258
941.60 0.09253
941.70 0.09249
941.80 0.09245
941.90 0.0924
942.00 0.09236
942.10 0.09232
942.20 0.09227
942.30 0.09223
942.40 0.09219
942.50 0.09214
942.60 0.0921
942.70 0.09205
942.80 0.09201
942.90 0.09196
943.00 0.09192
943.10 0.09187
943.20 0.09183
943.30 0.09178
943.40 0.09174
943.50 0.09169
943.60 0.09165
943.70 0.0916
943.80 0.09156
943.90 0.09152
944.00 0.09147
944.10 0.09143
944.20 0.09138
944.30 0.09134
944.40 0.09129
944.50 0.09125
944.60 0.0912
944.70 0.09115
944.80 0.09111
944.90 0.09106
945.00 0.09101
945.10 0.09097
945.20 0.09092
945.30 0.09088
945.40 0.09083
945.50 0.09078
945.60 0.09073
945.70 0.09069
945.80 0.09064
945.90 0.09059
946.00 0.09054
946.10 0.0905
946.20 0.09045
946.30 0.0904
946.40 0.09035
946.50 0.09031
946.60 0.09026
946.70 0.09021
946.80 0.09016
946.90 0.09012
947.00 0.09007
947.10 0.09002
947.20 0.08997
947.30 0.08992
947.40 0.08987
947.50 0.08983
947.60 0.08978
947.70 0.08973
947.80 0.08968
947.90 0.08963
948.00 0.08958
948.10 0.08953
948.20 0.08948
948.30 0.08943
948.40 0.08938
948.50 0.08933
948.60 0.08928
948.70 0.08923
948.80 0.08918
948.90 0.08913
949.00 0.08908
949.10 0.08903
949.20 0.08899
949.30 0.08894
949.40 0.08889
949.50 0.08883
949.60 0.08878
949.70 0.08873
949.80 0.08868
949.90 0.08863
950.00 0.08858
950.10 0.08853
950.20 0.08848
950.30 0.08843
950.40 0.08838
950.50 0.08833
950.60 0.08828
950.70 0.08823
950.80 0.08818
950.90 0.08813
951.00 0.08807
951.10 0.08802
951.20 0.08797
951.30 0.08792
951.40 0.08787
951.50 0.08782
951.60 0.08777
951.70 0.08772
951.80 0.08767
951.90 0.08762
952.00 0.08757
952.10 0.08752
952.20 0.08747
952.30 0.08742
952.40 0.08737
952.50 0.08732
952.60 0.08727
952.70 0.08722
952.80 0.08717
952.90 0.08712
953.00 0.08707
953.10 0.08702
953.20 0.08697
953.30 0.08692
953.40 0.08687
953.50 0.08683
953.60 0.08678
953.70 0.08673
953.80 0.08669
953.90 0.08664
954.00 0.0866
954.10 0.08655
954.20 0.08651
954.30 0.08647
954.40 0.08643
954.50 0.08639
954.60 0.08636
954.70 0.08632
954.80 0.0863
954.90 0.08627
955.00 0.08625
955.10 0.08623
955.20 0.08621
955.30 0.08619
955.40 0.08617
955.50 0.08615
955.60 0.08613
955.70 0.08611
955.80 0.08609
955.90 0.08607
956.00 0.08606
956.10 0.08604
956.20 0.08602
956.30 0.08601
956.40 0.08599
956.50 0.08597
956.60 0.08596
956.70 0.08594
956.80 0.08593
956.90 0.08591
957.00 0.08589
957.10 0.08588
957.20 0.08586
957.30 0.08585
957.40 0.08583
957.50 0.08581
957.60 0.0858
957.70 0.08578
957.80 0.08577
957.90 0.08575
958.00 0.08574
958.10 0.08572
958.20 0.0857
958.30 0.08569
958.40 0.08567
958.50 0.08566
958.60 0.08564
958.70 0.08563
958.80 0.08561
958.90 0.08559
959.00 0.08558
959.10 0.08556
959.20 0.08555
959.30 0.08553
959.40 0.08551
959.50 0.0855
959.60 0.08548
959.70 0.08546
959.80 0.08545
959.90 0.08543
960.00 0.08541
960.10 0.08539
960.20 0.08538
960.30 0.08536
960.40 0.08534
960.50 0.08532
960.60 0.08531
960.70 0.08529
960.80 0.08527
960.90 0.08526
961.00 0.08524
961.10 0.08522
961.20 0.0852
961.30 0.08519
961.40 0.08517
961.50 0.08515
961.60 0.08513
961.70 0.08511
961.80 0.08509
961.90 0.08508
962.00 0.08506
962.10 0.08504
962.20 0.08502
962.30 0.085
962.40 0.08498
962.50 0.08496
962.60 0.08494
962.70 0.08492
962.80 0.0849
962.90 0.08488
963.00 0.08486
963.10 0.08484
963.20 0.08482
963.30 0.0848
963.40 0.08478
963.50 0.08476
963.60 0.08474
963.70 0.08472
963.80 0.0847
963.90 0.08468
964.00 0.08466
964.10 0.08464
964.20 0.08461
964.30 0.08459
964.40 0.08457
964.50 0.08455
964.60 0.08453
964.70 0.0845
964.80 0.08448
964.90 0.08446
965.00 0.08444
965.10 0.08441
965.20 0.08439
965.30 0.08437
965.40 0.08435
965.50 0.08432
965.60 0.0843
965.70 0.08428
965.80 0.08426
965.90 0.08423
966.00 0.08421
966.10 0.08419
966.20 0.08417
966.30 0.08414
966.40 0.08412
966.50 0.0841
966.60 0.08407
966.70 0.08405
966.80 0.08403
966.90 0.084
967.00 0.08398
967.10 0.08395
967.20 0.08393
967.30 0.0839
967.40 0.08388
967.50 0.08385
967.60 0.08383
967.70 0.08381
967.80 0.08378
967.90 0.08376
968.00 0.08373
968.10 0.08371
968.20 0.08368
968.30 0.08366
968.40 0.08363
968.50 0.08361
968.60 0.08358
968.70 0.08355
968.80 0.08353
968.90 0.0835
969.00 0.08347
969.10 0.08345
969.20 0.08342
969.30 0.0834
969.40 0.08337
969.50 0.08334
969.60 0.08332
969.70 0.08329
969.80 0.08327
969.90 0.08324
970.00 0.08321
970.10 0.08319
970.20 0.08316
970.30 0.08314
970.40 0.08311
970.50 0.08308
970.60 0.08305
970.70 0.08303
970.80 0.083
970.90 0.08297
971.00 0.08294
971.10 0.08292
971.20 0.08289
971.30 0.08286
971.40 0.08283
971.50 0.08281
971.60 0.08278
971.70 0.08275
971.80 0.08272
971.90 0.0827
972.00 0.08267
972.10 0.08264
972.20 0.08261
972.30 0.08258
972.40 0.08255
972.50 0.08252
972.60 0.08249
972.70 0.08246
972.80 0.08244
972.90 0.08241
973.00 0.08238
973.10 0.08235
973.20 0.08232
973.30 0.08229
973.40 0.08226
973.50 0.08223
973.60 0.0822
973.70 0.08218
973.80 0.08215
973.90 0.08212
974.00 0.08209
974.10 0.08206
974.20 0.08203
974.30 0.082
974.40 0.08197
974.50 0.08194
974.60 0.08191
974.70 0.08188
974.80 0.08185
974.90 0.08182
975.00 0.08179
975.10 0.08176
975.20 0.08173
975.30 0.08169
975.40 0.08166
975.50 0.08163
975.60 0.0816
975.70 0.08157
975.80 0.08154
975.90 0.08151
976.00 0.08148
976.10 0.08145
976.20 0.08142
976.30 0.08139
976.40 0.08136
976.50 0.08133
976.60 0.0813
976.70 0.08127
976.80 0.08124
976.90 0.08121
977.00 0.08118
977.10 0.08114
977.20 0.08111
977.30 0.08108
977.40 0.08104
977.50 0.08101
977.60 0.08098
977.70 0.08094
977.80 0.08091
977.90 0.08088
978.00 0.08084
978.10 0.08081
978.20 0.08078
978.30 0.08074
978.40 0.08071
978.50 0.08068
978.60 0.08064
978.70 0.08061
978.80 0.08058
978.90 0.08054
979.00 0.08051
979.10 0.08048
979.20 0.08044
979.30 0.08041
979.40 0.08038
979.50 0.08034
979.60 0.08031
979.70 0.08028
979.80 0.08025
979.90 0.08021
980.00 0.08018
980.10 0.08015
980.20 0.08011
980.30 0.08008
980.40 0.08005
980.50 0.08001
980.60 0.07998
980.70 0.07995
980.80 0.07992
980.90 0.07988
981.00 0.07985
981.10 0.07982
981.20 0.07978
981.30 0.07975
981.40 0.07972
981.50 0.07969
981.60 0.07965
981.70 0.07962
981.80 0.07959
981.90 0.07955
982.00 0.07952
982.10 0.07949
982.20 0.07945
982.30 0.07941
982.40 0.07938
982.50 0.07934
982.60 0.07931
982.70 0.07927
982.80 0.07923
982.90 0.0792
983.00 0.07916
983.10 0.07913
983.20 0.07909
983.30 0.07906
983.40 0.07902
983.50 0.07898
983.60 0.07895
983.70 0.07891
983.80 0.07888
983.90 0.07884
984.00 0.0788
984.10 0.07877
984.20 0.07873
984.30 0.0787
984.40 0.07866
984.50 0.07863
984.60 0.07859
984.70 0.07855
984.80 0.07852
984.90 0.07848
985.00 0.07844
985.10 0.0784
985.20 0.07836
985.30 0.07833
985.40 0.07829
985.50 0.07825
985.60 0.07821
985.70 0.07817
985.80 0.07814
985.90 0.0781
986.00 0.07806
986.10 0.07802
986.20 0.07798
986.30 0.07795
986.40 0.07791
986.50 0.07787
986.60 0.07783
986.70 0.0778
986.80 0.07776
986.90 0.07772
987.00 0.07768
987.10 0.07764
987.20 0.0776
987.30 0.07756
987.40 0.07752
987.50 0.07748
987.60 0.07744
987.70 0.0774
987.80 0.07736
987.90 0.07732
988.00 0.07728
988.10 0.07724
988.20 0.0772
988.30 0.07716
988.40 0.07712
988.50 0.07708
988.60 0.07704
988.70 0.077
988.80 0.07696
988.90 0.07692
989.00 0.07688
989.10 0.07683
989.20 0.07679
989.30 0.07675
989.40 0.07671
989.50 0.07667
989.60 0.07662
989.70 0.07658
989.80 0.07654
989.90 0.0765
990.00 0.07646
990.10 0.07641
990.20 0.07637
990.30 0.07633
990.40 0.07629
990.50 0.07625
990.60 0.0762
990.70 0.07616
990.80 0.07612
990.90 0.07607
991.00 0.07603
991.10 0.07598
991.20 0.07594
991.30 0.07589
991.40 0.07585
991.50 0.0758
991.60 0.07576
991.70 0.07572
991.80 0.07567
991.90 0.07563
992.00 0.07558
992.10 0.07554
992.20 0.07549
992.30 0.07544
992.40 0.0754
992.50 0.07535
992.60 0.07531
992.70 0.07526
992.80 0.07521
992.90 0.07516
993.00 0.07511
993.10 0.07507
993.20 0.07502
993.30 0.07497
993.40 0.07492
993.50 0.07487
993.60 0.07482
993.70 0.07478
993.80 0.07473
993.90 0.07468
994.00 0.07463
994.10 0.07458
994.20 0.07454
994.30 0.07449
994.40 0.07444
994.50 0.07439
994.60 0.07434
994.70 0.07429
994.80 0.07424
994.90 0.07419
995.00 0.07414
995.10 0.07409
995.20 0.07404
995.30 0.07399
995.40 0.07393
995.50 0.07388
995.60 0.07383
995.70 0.07378
995.80 0.07373
995.90 0.07367
996.00 0.07362
996.10 0.07356
996.20 0.07351
996.30 0.07346
996.40 0.0734
996.50 0.07335
996.60 0.0733
996.70 0.07324
996.80 0.07319
996.90 0.07313
997.00 0.07308
997.10 0.07303
997.20 0.07297
997.30 0.07291
997.40 0.07286
997.50 0.0728
997.60 0.07275
997.70 0.07269
997.80 0.07263
997.90 0.07257
998.00 0.07251
998.10 0.07245
998.20 0.07239
998.30 0.07233
998.40 0.07227
998.50 0.07221
998.60 0.07215
998.70 0.07209
998.80 0.07204
998.90 0.07198
999.00 0.07192
999.10 0.07186
999.20 0.0718
999.30 0.07174
999.40 0.07168
999.50 0.07162
999.60 0.07156
999.70 0.0715
999.80 0.07144
999.90 0.07137
1000.00 0.07131
1000.10 0.07125
1000.20 0.07118
1000.30 0.07112
1000.40 0.07106
1000.50 0.07099
1000.60 0.07093
1000.70 0.07087
1000.80 0.0708
1000.90 0.07074
1001.00 0.07068
1001.10 0.07062
1001.20 0.07055
1001.30 0.07049
1001.40 0.07043
1001.50 0.07036
1001.60 0.0703
1001.70 0.07024
1001.80 0.07017
1001.90 0.07011
1002.00 0.07005
1002.10 0.06998
1002.20 0.06992
1002.30 0.06986
1002.40 0.0698
1002.50 0.06974
1002.60 0.06968
1002.70 0.06961
1002.80 0.06955
1002.90 0.06949
1003.00 0.06943
1003.10 0.06937
1003.20 0.06931
1003.30 0.06926
1003.40 0.06921
1003.50 0.06915
1003.60 0.0691
1003.70 0.06905
1003.80 0.069
1003.90 0.06895
1004.00 0.06891
1004.10 0.06887
1004.20 0.06884
1004.30 0.06881
1004.40 0.06878
1004.50 0.06876
1004.60 0.06874
1004.70 0.06874
1004.80 0.06874
1004.90 0.06872
1005.00 0.0687
1005.10 0.06866
1005.20 0.06862
1005.30 0.06858
1005.40 0.06853
1005.50 0.06851
1005.60 0.0685
1005.70 0.06848
1005.80 0.06847
1005.90 0.06846
1006.00 0.06844
1006.10 0.06843
1006.20 0.06843
1006.30 0.06843
1006.40 0.06844
1006.50 0.06844
1006.60 0.06845
1006.70 0.06845
1006.80 0.06846
1006.90 0.06846
1007.00 0.06847
1007.10 0.06848
1007.20 0.06849
1007.30 0.0685
1007.40 0.06851
1007.50 0.06852
1007.60 0.06853
1007.70 0.06854
1007.80 0.06855
1007.90 0.06857
1008.00 0.06858
1008.10 0.06859
1008.20 0.0686
1008.30 0.06861
1008.40 0.06862
1008.50 0.06864
1008.60 0.06865
1008.70 0.06866
1008.80 0.06867
1008.90 0.06868
1009.00 0.06869
1009.10 0.0687
1009.20 0.06872
1009.30 0.06873
1009.40 0.06874
1009.50 0.06875
1009.60 0.06876
1009.70 0.06877
1009.80 0.06878
1009.90 0.06878
1010.00 0.06879
1010.10 0.0688
1010.20 0.06881
1010.30 0.06881
1010.40 0.06882
1010.50 0.06883
1010.60 0.06884
1010.70 0.06884
1010.80 0.06885
1010.90 0.06886
1011.00 0.06886
1011.10 0.06887
1011.20 0.06888
1011.30 0.06889
1011.40 0.06889
1011.50 0.0689
1011.60 0.06891
1011.70 0.06891
1011.80 0.06892
1011.90 0.06892
1012.00 0.06892
1012.10 0.06892
1012.20 0.06893
1012.30 0.06893
1012.40 0.06893
1012.50 0.06893
1012.60 0.06893
1012.70 0.06893
1012.80 0.06893
1012.90 0.06893
1013.00 0.06894
1013.10 0.06894
1013.20 0.06894
1013.30 0.06894
1013.40 0.06894
1013.50 0.06894
1013.60 0.06894
1013.70 0.06894
1013.80 0.06894
1013.90 0.06894
1014.00 0.06893
1014.10 0.06893
1014.20 0.06893
1014.30 0.06893
1014.40 0.06892
1014.50 0.06892
1014.60 0.06892
1014.70 0.06892
1014.80 0.06891
1014.90 0.0689
1015.00 0.0689
1015.10 0.06889
1015.20 0.06889
1015.30 0.06888
1015.40 0.06888
1015.50 0.06887
1015.60 0.06886
1015.70 0.06886
1015.80 0.06885
1015.90 0.06885
1016.00 0.06884
1016.10 0.06884
1016.20 0.06883
1016.30 0.06883
1016.40 0.06882
1016.50 0.06881
1016.60 0.06881
1016.70 0.0688
1016.80 0.06879
1016.90 0.06879
1017.00 0.06878
1017.10 0.06877
1017.20 0.06876
1017.30 0.06875
1017.40 0.06874
1017.50 0.06873
1017.60 0.06872
1017.70 0.06871
1017.80 0.0687
1017.90 0.06869
1018.00 0.06868
1018.10 0.06867
1018.20 0.06866
1018.30 0.06865
1018.40 0.06864
1018.50 0.06863
1018.60 0.06862
1018.70 0.06861
1018.80 0.0686
1018.90 0.06858
1019.00 0.06857
1019.10 0.06856
1019.20 0.06855
1019.30 0.06854
1019.40 0.06852
1019.50 0.06851
1019.60 0.0685
1019.70 0.06849
1019.80 0.06847
1019.90 0.06846
1020.00 0.06845
1020.10 0.06844
1020.20 0.06842
1020.30 0.06841
1020.40 0.0684
1020.50 0.06839
1020.60 0.06837
1020.70 0.06836
1020.80 0.06834
1020.90 0.06833
1021.00 0.06832
1021.10 0.0683
1021.20 0.06829
1021.30 0.06827
1021.40 0.06826
1021.50 0.06824
1021.60 0.06823
1021.70 0.06821
1021.80 0.0682
1021.90 0.06818
1022.00 0.06817
1022.10 0.06815
1022.20 0.06814
1022.30 0.06812
1022.40 0.0681
1022.50 0.06809
1022.60 0.06807
1022.70 0.06805
1022.80 0.06804
1022.90 0.06802
1023.00 0.068
1023.10 0.06799
1023.20 0.06797
1023.30 0.06795
1023.40 0.06794
1023.50 0.06792
1023.60 0.06791
1023.70 0.06789
1023.80 0.06787
1023.90 0.06786
1024.00 0.06784
1024.10 0.06782
1024.20 0.06781
1024.30 0.06779
1024.40 0.06777
1024.50 0.06776
1024.60 0.06774
1024.70 0.06772
1024.80 0.0677
1024.90 0.06769
1025.00 0.06767
1025.10 0.06765
1025.20 0.06763
1025.30 0.06761
1025.40 0.06759
1025.50 0.06757
1025.60 0.06756
1025.70 0.06754
1025.80 0.06752
1025.90 0.0675
1026.00 0.06748
1026.10 0.06746
1026.20 0.06745
1026.30 0.06743
1026.40 0.06741
1026.50 0.06739
1026.60 0.06737
1026.70 0.06735
1026.80 0.06733
1026.90 0.06732
1027.00 0.0673
1027.10 0.06728
1027.20 0.06726
1027.30 0.06724
1027.40 0.06722
1027.50 0.0672
1027.60 0.06717
1027.70 0.06715
1027.80 0.06713
1027.90 0.06711
1028.00 0.06709
1028.10 0.06707
1028.20 0.06705
1028.30 0.06703
1028.40 0.06701
1028.50 0.06699
1028.60 0.06697
1028.70 0.06695
1028.80 0.06693
1028.90 0.06691
1029.00 0.06689
1029.10 0.06687
1029.20 0.06685
1029.30 0.06683
1029.40 0.06681
1029.50 0.06679
1029.60 0.06677
1029.70 0.06675
1029.80 0.06673
1029.90 0.06671
1030.00 0.06669
1030.10 0.06667
1030.20 0.06665
1030.30 0.06662
1030.40 0.0666
1030.50 0.06658
1030.60 0.06656
1030.70 0.06654
1030.80 0.06652
1030.90 0.0665
1031.00 0.06648
1031.10 0.06646
1031.20 0.06644
1031.30 0.06642
1031.40 0.0664
1031.50 0.06638
1031.60 0.06636
1031.70 0.06634
1031.80 0.06632
1031.90 0.0663
1032.00 0.06628
1032.10 0.06626
1032.20 0.06624
1032.30 0.06621
1032.40 0.06619
1032.50 0.06617
1032.60 0.06615
1032.70 0.06613
1032.80 0.0661
1032.90 0.06608
1033.00 0.06606
1033.10 0.06604
1033.20 0.06602
1033.30 0.066
1033.40 0.06597
1033.50 0.06595
1033.60 0.06593
1033.70 0.06591
1033.80 0.06589
1033.90 0.06586
1034.00 0.06584
1034.10 0.06582
1034.20 0.0658
1034.30 0.06578
1034.40 0.06575
1034.50 0.06573
1034.60 0.06571
1034.70 0.06569
1034.80 0.06567
1034.90 0.06564
1035.00 0.06562
1035.10 0.0656
1035.20 0.06558
1035.30 0.06556
1035.40 0.06554
1035.50 0.06551
1035.60 0.06549
1035.70 0.06547
1035.80 0.06545
1035.90 0.06543
1036.00 0.06541
1036.10 0.06538
1036.20 0.06536
1036.30 0.06534
1036.40 0.06532
1036.50 0.0653
1036.60 0.06527
1036.70 0.06525
1036.80 0.06523
1036.90 0.06521
1037.00 0.06519
1037.10 0.06517
1037.20 0.06514
1037.30 0.06512
1037.40 0.0651
1037.50 0.06507
1037.60 0.06505
1037.70 0.06503
1037.80 0.06501
1037.90 0.06498
1038.00 0.06496
1038.10 0.06494
1038.20 0.06491
1038.30 0.06489
1038.40 0.06487
1038.50 0.06485
1038.60 0.06482
1038.70 0.0648
1038.80 0.06478
1038.90 0.06476
1039.00 0.06473
1039.10 0.06471
1039.20 0.06469
1039.30 0.06466
1039.40 0.06464
1039.50 0.06462
1039.60 0.0646
1039.70 0.06457
1039.80 0.06455
1039.90 0.06453
1040.00 0.06451
1040.10 0.06448
1040.20 0.06446
1040.30 0.06444
1040.40 0.06442
1040.50 0.06439
1040.60 0.06437
1040.70 0.06435
1040.80 0.06433
1040.90 0.0643
1041.00 0.06428
1041.10 0.06426
1041.20 0.06424
1041.30 0.06421
1041.40 0.06419
1041.50 0.06417
1041.60 0.06415
1041.70 0.06412
1041.80 0.0641
1041.90 0.06408
1042.00 0.06406
1042.10 0.06403
1042.20 0.06401
1042.30 0.06399
1042.40 0.06396
1042.50 0.06394
1042.60 0.06392
1042.70 0.06389
1042.80 0.06387
1042.90 0.06385
1043.00 0.06382
1043.10 0.0638
1043.20 0.06378
1043.30 0.06375
1043.40 0.06373
1043.50 0.06371
1043.60 0.06369
1043.70 0.06366
1043.80 0.06364
1043.90 0.06362
1044.00 0.06359
1044.10 0.06357
1044.20 0.06355
1044.30 0.06352
1044.40 0.0635
1044.50 0.06348
1044.60 0.06345
1044.70 0.06343
1044.80 0.06341
1044.90 0.06339
1045.00 0.06336
1045.10 0.06334
1045.20 0.06332
1045.30 0.06329
1045.40 0.06327
1045.50 0.06325
1045.60 0.06322
1045.70 0.0632
1045.80 0.06318
1045.90 0.06316
1046.00 0.06313
1046.10 0.06311
1046.20 0.06309
1046.30 0.06306
1046.40 0.06304
1046.50 0.06302
1046.60 0.063
1046.70 0.06297
1046.80 0.06295
1046.90 0.06293
1047.00 0.0629
1047.10 0.06288
1047.20 0.06286
1047.30 0.06283
1047.40 0.06281
1047.50 0.06279
1047.60 0.06276
1047.70 0.06274
1047.80 0.06272
1047.90 0.06269
1048.00 0.06267
1048.10 0.06265
1048.20 0.06262
1048.30 0.0626
1048.40 0.06258
1048.50 0.06255
1048.60 0.06253
1048.70 0.06251
1048.80 0.06248
1048.90 0.06246
1049.00 0.06244
1049.10 0.06241
1049.20 0.06239
1049.30 0.06237
1049.40 0.06234
1049.50 0.06232
1049.60 0.0623
1049.70 0.06227
1049.80 0.06225
1049.90 0.06223
1050.00 0.0622
1050.10 0.06218
1050.20 0.06216
1050.30 0.06213
1050.40 0.06211
1050.50 0.06209
1050.60 0.06206
1050.70 0.06204
1050.80 0.06202
1050.90 0.06199
1051.00 0.06197
1051.10 0.06195
1051.20 0.06192
1051.30 0.0619
1051.40 0.06188
1051.50 0.06185
1051.60 0.06183
1051.70 0.06181
1051.80 0.06179
1051.90 0.06176
1052.00 0.06174
1052.10 0.06172
1052.20 0.06169
1052.30 0.06167
1052.40 0.06164
1052.50 0.06162
1052.60 0.0616
1052.70 0.06157
1052.80 0.06155
1052.90 0.06153
1053.00 0.0615
1053.10 0.06148
1053.20 0.06145
1053.30 0.06143
1053.40 0.06141
1053.50 0.06138
1053.60 0.06136
1053.70 0.06134
1053.80 0.06131
1053.90 0.06129
1054.00 0.06127
1054.10 0.06124
1054.20 0.06122
1054.30 0.06119
1054.40 0.06117
1054.50 0.06115
1054.60 0.06112
1054.70 0.0611
1054.80 0.06108
1054.90 0.06105
1055.00 0.06103
1055.10 0.06101
1055.20 0.06098
1055.30 0.06096
1055.40 0.06094
1055.50 0.06091
1055.60 0.06089
1055.70 0.06086
1055.80 0.06084
1055.90 0.06082
1056.00 0.06079
1056.10 0.06077
1056.20 0.06075
1056.30 0.06072
1056.40 0.0607
1056.50 0.06068
1056.60 0.06065
1056.70 0.06063
1056.80 0.06061
1056.90 0.06058
1057.00 0.06056
1057.10 0.06054
1057.20 0.06051
1057.30 0.06049
1057.40 0.06046
1057.50 0.06044
1057.60 0.06041
1057.70 0.06039
1057.80 0.06037
1057.90 0.06034
1058.00 0.06032
1058.10 0.06029
1058.20 0.06027
1058.30 0.06025
1058.40 0.06022
1058.50 0.0602
1058.60 0.06017
1058.70 0.06015
1058.80 0.06012
1058.90 0.0601
1059.00 0.06008
1059.10 0.06005
1059.20 0.06003
1059.30 0.06
1059.40 0.05998
1059.50 0.05996
1059.60 0.05993
1059.70 0.05991
1059.80 0.05988
1059.90 0.05986
1060.00 0.05984
1060.10 0.05981
1060.20 0.05979
1060.30 0.05976
1060.40 0.05974
1060.50 0.05972
1060.60 0.05969
1060.70 0.05967
1060.80 0.05964
1060.90 0.05962
1061.00 0.0596
1061.10 0.05957
1061.20 0.05955
1061.30 0.05952
1061.40 0.0595
1061.50 0.05948
1061.60 0.05945
1061.70 0.05943
1061.80 0.0594
1061.90 0.05938
1062.00 0.05936
1062.10 0.05933
1062.20 0.05931
1062.30 0.05928
1062.40 0.05926
1062.50 0.05923
1062.60 0.05921
1062.70 0.05918
1062.80 0.05916
1062.90 0.05913
1063.00 0.0591
1063.10 0.05908
1063.20 0.05905
1063.30 0.05903
1063.40 0.059
1063.50 0.05898
1063.60 0.05895
1063.70 0.05893
1063.80 0.0589
1063.90 0.05888
1064.00 0.05885
1064.10 0.05883
1064.20 0.0588
1064.30 0.05878
1064.40 0.05875
1064.50 0.05873
1064.60 0.0587
1064.70 0.05868
1064.80 0.05865
1064.90 0.05863
1065.00 0.0586
1065.10 0.05858
1065.20 0.05855
1065.30 0.05853
1065.40 0.0585
1065.50 0.05848
1065.60 0.05845
1065.70 0.05843
1065.80 0.0584
1065.90 0.05838
1066.00 0.05835
1066.10 0.05833
1066.20 0.0583
1066.30 0.05828
1066.40 0.05826
1066.50 0.05823
1066.60 0.05821
1066.70 0.05818
1066.80 0.05816
1066.90 0.05813
1067.00 0.05811
1067.10 0.05808
1067.20 0.05805
1067.30 0.05802
1067.40 0.058
1067.50 0.05797
1067.60 0.05794
1067.70 0.05792
1067.80 0.05789
1067.90 0.05786
1068.00 0.05784
1068.10 0.05781
1068.20 0.05778
1068.30 0.05775
1068.40 0.05773
1068.50 0.0577
1068.60 0.05767
1068.70 0.05765
1068.80 0.05762
1068.90 0.05759
1069.00 0.05757
1069.10 0.05754
1069.20 0.05751
1069.30 0.05749
1069.40 0.05746
1069.50 0.05743
1069.60 0.05741
1069.70 0.05738
1069.80 0.05735
1069.90 0.05732
1070.00 0.0573
1070.10 0.05727
1070.20 0.05724
1070.30 0.05722
1070.40 0.05719
1070.50 0.05716
1070.60 0.05714
1070.70 0.05711
1070.80 0.05708
1070.90 0.05706
1071.00 0.05703
1071.10 0.057
1071.20 0.05698
1071.30 0.05695
1071.40 0.05692
1071.50 0.0569
1071.60 0.05687
1071.70 0.05684
1071.80 0.05682
1071.90 0.05679
1072.00 0.05676
1072.10 0.05673
1072.20 0.05671
1072.30 0.05668
1072.40 0.05665
1072.50 0.05662
1072.60 0.05659
1072.70 0.05656
1072.80 0.05653
1072.90 0.0565
1073.00 0.05648
1073.10 0.05645
1073.20 0.05642
1073.30 0.05639
1073.40 0.05636
1073.50 0.05633
1073.60 0.0563
1073.70 0.05627
1073.80 0.05624
1073.90 0.05621
1074.00 0.05618
1074.10 0.05615
1074.20 0.05611
1074.30 0.05608
1074.40 0.05605
1074.50 0.05602
1074.60 0.05599
1074.70 0.05596
1074.80 0.05593
1074.90 0.0559
1075.00 0.05587
1075.10 0.05584
1075.20 0.0558
1075.30 0.05577
1075.40 0.05574
1075.50 0.05571
1075.60 0.05568
1075.70 0.05565
1075.80 0.05562
1075.90 0.05559
1076.00 0.05556
1076.10 0.05553
1076.20 0.0555
1076.30 0.05547
1076.40 0.05543
1076.50 0.0554
1076.60 0.05537
1076.70 0.05534
1076.80 0.05531
1076.90 0.05528
1077.00 0.05525
1077.10 0.05522
1077.20 0.05518
1077.30 0.05515
1077.40 0.05512
1077.50 0.05508
1077.60 0.05505
1077.70 0.05501
1077.80 0.05498
1077.90 0.05494
1078.00 0.05491
1078.10 0.05487
1078.20 0.05484
1078.30 0.0548
1078.40 0.05477
1078.50 0.05473
1078.60 0.0547
1078.70 0.05467
1078.80 0.05463
1078.90 0.0546
1079.00 0.05456
1079.10 0.05453
1079.20 0.05449
1079.30 0.05446
1079.40 0.05442
1079.50 0.05439
1079.60 0.05435
1079.70 0.05431
1079.80 0.05427
1079.90 0.05423
1080.00 0.05419
1080.10 0.05416
1080.20 0.05412
1080.30 0.05408
1080.40 0.05404
1080.50 0.054
1080.60 0.05397
1080.70 0.05393
1080.80 0.05389
1080.90 0.05385
1081.00 0.05381
1081.10 0.05378
1081.20 0.05374
1081.30 0.0537
1081.40 0.05366
1081.50 0.05362
1081.60 0.05358
1081.70 0.05354
1081.80 0.0535
1081.90 0.05346
1082.00 0.05342
1082.10 0.05338
1082.20 0.05333
1082.30 0.05329
1082.40 0.05325
1082.50 0.0532
1082.60 0.05316
1082.70 0.05312
1082.80 0.05307
1082.90 0.05303
1083.00 0.05299
1083.10 0.05295
1083.20 0.0529
1083.30 0.05286
1083.40 0.05282
1083.50 0.05277
1083.60 0.05273
1083.70 0.05268
1083.80 0.05263
1083.90 0.05259
1084.00 0.05254
1084.10 0.0525
1084.20 0.05245
1084.30 0.0524
1084.40 0.05236
1084.50 0.05231
1084.60 0.05226
1084.70 0.05221
1084.80 0.05216
1084.90 0.05211
1085.00 0.05205
1085.10 0.052
1085.20 0.05195
1085.30 0.0519
1085.40 0.05185
1085.50 0.0518
1085.60 0.05175
1085.70 0.0517
1085.80 0.05165
1085.90 0.0516
1086.00 0.05155
1086.10 0.0515
1086.20 0.05145
1086.30 0.0514
1086.40 0.05135
1086.50 0.05129
1086.60 0.05124
1086.70 0.05118
1086.80 0.05113
1086.90 0.05107
1087.00 0.05102
1087.10 0.05096
1087.20 0.0509
1087.30 0.05084
1087.40 0.05078
1087.50 0.05072
1087.60 0.05067
1087.70 0.05061
1087.80 0.05055
1087.90 0.05049
1088.00 0.05043
1088.10 0.05037
1088.20 0.05031
1088.30 0.05026
1088.40 0.0502
1088.50 0.05014
1088.60 0.05007
1088.70 0.05001
1088.80 0.04994
1088.90 0.04987
1089.00 0.04981
1089.10 0.04974
1089.20 0.04968
1089.30 0.04961
1089.40 0.04955
1089.50 0.04948
1089.60 0.04942
1089.70 0.04935
1089.80 0.04929
1089.90 0.04922
1090.00 0.04916
1090.10 0.04909
1090.20 0.04903
1090.30 0.04896
1090.40 0.0489
1090.50 0.04883
1090.60 0.04876
1090.70 0.04868
1090.80 0.04861
1090.90 0.04854
1091.00 0.04847
1091.10 0.04839
1091.20 0.04832
1091.30 0.04825
1091.40 0.04818
1091.50 0.0481
1091.60 0.04803
1091.70 0.04796
1091.80 0.04789
1091.90 0.04781
1092.00 0.04774
1092.10 0.04766
1092.20 0.04758
1092.30 0.0475
1092.40 0.04742
1092.50 0.04734
1092.60 0.04725
1092.70 0.04717
1092.80 0.04708
1092.90 0.04698
1093.00 0.04689
1093.10 0.04679
1093.20 0.04669
1093.30 0.04658
1093.40 0.04646
1093.50 0.04634
1093.60 0.04622
1093.70 0.04613
1093.80 0.04609
1093.90 0.04608
1094.00 0.04617
1094.10 0.04625
1094.20 0.04634
1094.30 0.04641
1094.40 0.04648
1094.50 0.04655
1094.60 0.04662
1094.70 0.04668
1094.80 0.04675
1094.90 0.04682
1095.00 0.04688
1095.10 0.04692
1095.20 0.04697
1095.30 0.04701
1095.40 0.04705
1095.50 0.0471
1095.60 0.04714
1095.70 0.04719
1095.80 0.04723
1095.90 0.04728
1096.00 0.04732
1096.10 0.04737
1096.20 0.04741
1096.30 0.04745
1096.40 0.0475
1096.50 0.04754
1096.60 0.04758
1096.70 0.04761
1096.80 0.04765
1096.90 0.04769
1097.00 0.04773
1097.10 0.04776
1097.20 0.04779
1097.30 0.04783
1097.40 0.04786
1097.50 0.04789
1097.60 0.04792
1097.70 0.04796
1097.80 0.04799
1097.90 0.04802
1098.00 0.04805
1098.10 0.04809
1098.20 0.04812
1098.30 0.04815
1098.40 0.04818
1098.50 0.04821
1098.60 0.04824
1098.70 0.04826
1098.80 0.04829
1098.90 0.04831
1099.00 0.04834
1099.10 0.04836
1099.20 0.04839
1099.30 0.04841
1099.40 0.04844
1099.50 0.04846
1099.60 0.04849
1099.70 0.04851
1099.80 0.04854
1099.90 0.04856
1100.00 0.04859
1100.10 0.04861
1100.20 0.04864
1100.30 0.04866
1100.40 0.04869
1100.50 0.04871
1100.60 0.04873
1100.70 0.04874
1100.80 0.04876
1100.90 0.04878
1101.00 0.0488
1101.10 0.04881
1101.20 0.04883
1101.30 0.04885
1101.40 0.04887
1101.50 0.04888
1101.60 0.0489
1101.70 0.04892
1101.80 0.04894
1101.90 0.04895
1102.00 0.04897
1102.10 0.04898
1102.20 0.049
1102.30 0.04901
1102.40 0.04902
1102.50 0.04904
1102.60 0.04905
1102.70 0.04906
1102.80 0.04907
1102.90 0.04908
1103.00 0.04909
1103.10 0.0491
1103.20 0.04912
1103.30 0.04913
1103.40 0.04914
1103.50 0.04915
1103.60 0.04915
1103.70 0.04916
1103.80 0.04917
1103.90 0.04917
1104.00 0.04918
1104.10 0.04919
1104.20 0.04919
1104.30 0.0492
1104.40 0.04921
1104.50 0.04921
1104.60 0.04922
1104.70 0.04923
1104.80 0.04923
1104.90 0.04924
1105.00 0.04925
1105.10 0.04925
1105.20 0.04926
1105.30 0.04927
1105.40 0.04927
1105.50 0.04928
1105.60 0.04928
1105.70 0.04928
1105.80 0.04928
1105.90 0.04929
1106.00 0.04929
1106.10 0.04929
1106.20 0.04929
1106.30 0.04929
1106.40 0.0493
1106.50 0.0493
1106.60 0.0493
1106.70 0.0493
1106.80 0.0493
1106.90 0.04931
1107.00 0.04931
1107.10 0.04931
1107.20 0.04931
1107.30 0.04931
1107.40 0.04931
1107.50 0.04931
1107.60 0.04931
1107.70 0.0493
1107.80 0.0493
1107.90 0.0493
1108.00 0.0493
1108.10 0.04929
1108.20 0.04929
1108.30 0.04929
1108.40 0.04929
1108.50 0.04928
1108.60 0.04928
1108.70 0.04928
1108.80 0.04928
1108.90 0.04928
1109.00 0.04927
1109.10 0.04927
1109.20 0.04927
1109.30 0.04927
1109.40 0.04926
1109.50 0.04926
1109.60 0.04925
1109.70 0.04925
1109.80 0.04924
1109.90 0.04924
1110.00 0.04923
1110.10 0.04923
1110.20 0.04922
1110.30 0.04921
1110.40 0.04921
1110.50 0.0492
1110.60 0.0492
1110.70 0.04919
1110.80 0.04919
1110.90 0.04918
1111.00 0.04917
1111.10 0.04917
1111.20 0.04916
1111.30 0.04916
1111.40 0.04915
1111.50 0.04915
1111.60 0.04914
1111.70 0.04913
1111.80 0.04913
1111.90 0.04912
1112.00 0.04912
1112.10 0.04911
1112.20 0.0491
1112.30 0.04909
1112.40 0.04909
1112.50 0.04908
1112.60 0.04907
1112.70 0.04906
1112.80 0.04905
1112.90 0.04905
1113.00 0.04904
1113.10 0.04903
1113.20 0.04902
1113.30 0.04901
1113.40 0.04901
1113.50 0.049
1113.60 0.04899
1113.70 0.04898
1113.80 0.04897
1113.90 0.04896
1114.00 0.04895
1114.10 0.04894
1114.20 0.04893
1114.30 0.04892
1114.40 0.04891
1114.50 0.0489
1114.60 0.04889
1114.70 0.04888
1114.80 0.04887
1114.90 0.04886
1115.00 0.04885
1115.10 0.04883
1115.20 0.04882
1115.30 0.04881
1115.40 0.0488
1115.50 0.04879
1115.60 0.04878
1115.70 0.04877
1115.80 0.04876
1115.90 0.04875
1116.00 0.04874
1116.10 0.04873
1116.20 0.04872
1116.30 0.04871
1116.40 0.0487
1116.50 0.04869
1116.60 0.04868
1116.70 0.04867
1116.80 0.04866
1116.90 0.04865
1117.00 0.04864
1117.10 0.04863
1117.20 0.04862
1117.30 0.04861
1117.40 0.04859
1117.50 0.04858
1117.60 0.04857
1117.70 0.04856
1117.80 0.04854
1117.90 0.04853
1118.00 0.04852
1118.10 0.04851
1118.20 0.04849
1118.30 0.04848
1118.40 0.04847
1118.50 0.04846
1118.60 0.04844
1118.70 0.04843
1118.80 0.04842
1118.90 0.04841
1119.00 0.04839
1119.10 0.04838
1119.20 0.04837
1119.30 0.04836
1119.40 0.04835
1119.50 0.04833
1119.60 0.04832
1119.70 0.04831
1119.80 0.0483
1119.90 0.04828
1120.00 0.04827
1120.10 0.04826
1120.20 0.04825
1120.30 0.04823
1120.40 0.04822
1120.50 0.04821
1120.60 0.0482
1120.70 0.04818
1120.80 0.04817
1120.90 0.04816
1121.00 0.04815
1121.10 0.04814
1121.20 0.04812
1121.30 0.04811
1121.40 0.0481
1121.50 0.04809
1121.60 0.04807
1121.70 0.04806
1121.80 0.04805
1121.90 0.04804
1122.00 0.04802
1122.10 0.04801
1122.20 0.048
1122.30 0.04798
1122.40 0.04797
1122.50 0.04795
1122.60 0.04794
1122.70 0.04793
1122.80 0.04791
1122.90 0.0479
1123.00 0.04788
1123.10 0.04787
1123.20 0.04786
1123.30 0.04784
1123.40 0.04783
1123.50 0.04782
1123.60 0.0478
1123.70 0.04779
1123.80 0.04777
1123.90 0.04776
1124.00 0.04775
1124.10 0.04773
1124.20 0.04772
1124.30 0.0477
1124.40 0.04769
1124.50 0.04768
1124.60 0.04766
1124.70 0.04765
1124.80 0.04764
1124.90 0.04762
1125.00 0.04761
1125.10 0.04759
1125.20 0.04758
1125.30 0.04757
1125.40 0.04755
1125.50 0.04754
1125.60 0.04752
1125.70 0.04751
1125.80 0.0475
1125.90 0.04748
1126.00 0.04747
1126.10 0.04746
1126.20 0.04744
1126.30 0.04743
1126.40 0.04741
1126.50 0.0474
1126.60 0.04739
1126.70 0.04737
1126.80 0.04736
1126.90 0.04735
1127.00 0.04733
1127.10 0.04732
1127.20 0.0473
1127.30 0.04729
1127.40 0.04727
1127.50 0.04726
1127.60 0.04724
1127.70 0.04723
1127.80 0.04721
1127.90 0.0472
1128.00 0.04719
1128.10 0.04717
1128.20 0.04716
1128.30 0.04714
1128.40 0.04713
1128.50 0.04711
1128.60 0.0471
1128.70 0.04708
1128.80 0.04707
1128.90 0.04705
1129.00 0.04704
1129.10 0.04703
1129.20 0.04701
1129.30 0.047
1129.40 0.04698
1129.50 0.04697
1129.60 0.04695
1129.70 0.04694
1129.80 0.04692
1129.90 0.04691
1130.00 0.04689
1130.10 0.04688
1130.20 0.04687
1130.30 0.04685
1130.40 0.04684
1130.50 0.04682
1130.60 0.04681
1130.70 0.04679
1130.80 0.04678
1130.90 0.04676
1131.00 0.04675
1131.10 0.04673
1131.20 0.04672
1131.30 0.04671
1131.40 0.04669
1131.50 0.04668
1131.60 0.04666
1131.70 0.04665
1131.80 0.04663
1131.90 0.04662
1132.00 0.0466
1132.10 0.04659
1132.20 0.04658
1132.30 0.04656
1132.40 0.04655
1132.50 0.04653
1132.60 0.04652
1132.70 0.0465
1132.80 0.04649
1132.90 0.04647
1133.00 0.04646
1133.10 0.04644
1133.20 0.04643
1133.30 0.04641
1133.40 0.0464
1133.50 0.04638
1133.60 0.04637
1133.70 0.04635
1133.80 0.04634
1133.90 0.04632
1134.00 0.04631
1134.10 0.04629
1134.20 0.04628
1134.30 0.04626
1134.40 0.04625
1134.50 0.04623
1134.60 0.04622
1134.70 0.0462
1134.80 0.04619
1134.90 0.04617
1135.00 0.04616
1135.10 0.04614
1135.20 0.04613
1135.30 0.04611
1135.40 0.0461
1135.50 0.04609
1135.60 0.04607
1135.70 0.04606
1135.80 0.04604
1135.90 0.04603
1136.00 0.04601
1136.10 0.046
1136.20 0.04598
1136.30 0.04597
1136.40 0.04595
1136.50 0.04594
1136.60 0.04592
1136.70 0.04591
1136.80 0.04589
1136.90 0.04588
1137.00 0.04586
1137.10 0.04585
1137.20 0.04583
1137.30 0.04582
1137.40 0.0458
1137.50 0.04579
1137.60 0.04577
1137.70 0.04576
1137.80 0.04574
1137.90 0.04573
1138.00 0.04572
1138.10 0.0457
1138.20 0.04569
1138.30 0.04567
1138.40 0.04566
1138.50 0.04564
1138.60 0.04563
1138.70 0.04561
1138.80 0.0456
1138.90 0.04558
1139.00 0.04557
1139.10 0.04555
1139.20 0.04554
1139.30 0.04552
1139.40 0.04551
1139.50 0.04549
1139.60 0.04548
1139.70 0.04546
1139.80 0.04545
1139.90 0.04543
1140.00 0.04542
1140.10 0.0454
1140.20 0.04539
1140.30 0.04537
1140.40 0.04536
1140.50 0.04534
1140.60 0.04533
1140.70 0.04531
1140.80 0.0453
1140.90 0.04528
1141.00 0.04527
1141.10 0.04525
1141.20 0.04524
1141.30 0.04523
1141.40 0.04521
1141.50 0.0452
1141.60 0.04518
1141.70 0.04517
1141.80 0.04515
1141.90 0.04514
1142.00 0.04512
1142.10 0.04511
1142.20 0.04509
1142.30 0.04508
1142.40 0.04506
1142.50 0.04505
1142.60 0.04503
1142.70 0.04502
1142.80 0.045
1142.90 0.04499
1143.00 0.04497
1143.10 0.04496
1143.20 0.04494
1143.30 0.04493
1143.40 0.04491
1143.50 0.0449
1143.60 0.04488
1143.70 0.04487
1143.80 0.04486
1143.90 0.04484
1144.00 0.04483
1144.10 0.04481
1144.20 0.0448
1144.30 0.04478
1144.40 0.04477
1144.50 0.04475
1144.60 0.04474
1144.70 0.04472
1144.80 0.04471
1144.90 0.04469
1145.00 0.04468
1145.10 0.04466
1145.20 0.04465
1145.30 0.04463
1145.40 0.04462
1145.50 0.0446
1145.60 0.04459
1145.70 0.04457
1145.80 0.04456
1145.90 0.04455
1146.00 0.04453
1146.10 0.04452
1146.20 0.0445
1146.30 0.04449
1146.40 0.04447
1146.50 0.04446
1146.60 0.04444
1146.70 0.04443
1146.80 0.04441
1146.90 0.0444
1147.00 0.04438
1147.10 0.04437
1147.20 0.04435
1147.30 0.04434
1147.40 0.04433
1147.50 0.04431
1147.60 0.0443
1147.70 0.04428
1147.80 0.04427
1147.90 0.04425
1148.00 0.04424
1148.10 0.04422
1148.20 0.04421
1148.30 0.04419
1148.40 0.04418
1148.50 0.04416
1148.60 0.04415
1148.70 0.04413
1148.80 0.04412
1148.90 0.04411
1149.00 0.04409
1149.10 0.04408
1149.20 0.04406
1149.30 0.04405
1149.40 0.04403
1149.50 0.04402
1149.60 0.044
1149.70 0.04399
1149.80 0.04397
1149.90 0.04396
1150.00 0.04395
1150.10 0.04393
1150.20 0.04392
1150.30 0.0439
1150.40 0.04389
1150.50 0.04387
1150.60 0.04386
1150.70 0.04384
1150.80 0.04383
1150.90 0.04381
1151.00 0.0438
1151.10 0.04379
1151.20 0.04377
1151.30 0.04376
1151.40 0.04374
1151.50 0.04373
1151.60 0.04371
1151.70 0.0437
1151.80 0.04368
1151.90 0.04367
1152.00 0.04365
1152.10 0.04364
1152.20 0.04363
1152.30 0.04361
1152.40 0.0436
1152.50 0.04358
1152.60 0.04357
1152.70 0.04355
1152.80 0.04354
1152.90 0.04352
1153.00 0.04351
1153.10 0.0435
1153.20 0.04348
1153.30 0.04347
1153.40 0.04345
1153.50 0.04344
1153.60 0.04342
1153.70 0.04341
1153.80 0.04339
1153.90 0.04338
1154.00 0.04337
1154.10 0.04335
1154.20 0.04334
1154.30 0.04332
1154.40 0.04331
1154.50 0.04329
1154.60 0.04328
1154.70 0.04326
1154.80 0.04325
1154.90 0.04324
1155.00 0.04322
1155.10 0.04321
1155.20 0.04319
1155.30 0.04318
1155.40 0.04316
1155.50 0.04315
1155.60 0.04314
1155.70 0.04312
1155.80 0.04311
1155.90 0.04309
1156.00 0.04308
1156.10 0.04306
1156.20 0.04305
1156.30 0.04304
1156.40 0.04302
1156.50 0.04301
1156.60 0.04299
1156.70 0.04298
1156.80 0.04296
1156.90 0.04295
1157.00 0.04294
1157.10 0.04292
1157.20 0.04291
1157.30 0.04289
1157.40 0.04288
1157.50 0.04286
1157.60 0.04285
1157.70 0.04284
1157.80 0.04282
1157.90 0.04281
1158.00 0.04279
1158.10 0.04278
1158.20 0.04276
1158.30 0.04275
1158.40 0.04274
1158.50 0.04272
1158.60 0.04271
1158.70 0.04269
1158.80 0.04268
1158.90 0.04266
1159.00 0.04265
1159.10 0.04264
1159.20 0.04262
1159.30 0.04261
1159.40 0.04259
1159.50 0.04258
1159.60 0.04257
1159.70 0.04255
1159.80 0.04254
1159.90 0.04252
1160.00 0.04251
1160.10 0.0425
1160.20 0.04248
1160.30 0.04247
1160.40 0.04245
1160.50 0.04244
1160.60 0.04242
1160.70 0.04241
1160.80 0.0424
1160.90 0.04238
1161.00 0.04237
1161.10 0.04235
1161.20 0.04234
1161.30 0.04233
1161.40 0.04231
1161.50 0.0423
1161.60 0.04228
1161.70 0.04227
1161.80 0.04226
1161.90 0.04224
1162.00 0.04223
1162.10 0.04221
1162.20 0.0422
1162.30 0.04219
1162.40 0.04217
1162.50 0.04216
1162.60 0.04214
1162.70 0.04213
1162.80 0.04212
1162.90 0.0421
1163.00 0.04209
1163.10 0.04207
1163.20 0.04206
1163.30 0.04205
1163.40 0.04203
1163.50 0.04202
1163.60 0.042
1163.70 0.04199
1163.80 0.04198
1163.90 0.04196
1164.00 0.04195
1164.10 0.04193
1164.20 0.04192
1164.30 0.04191
1164.40 0.04189
1164.50 0.04188
1164.60 0.04186
1164.70 0.04185
1164.80 0.04184
1164.90 0.04182
1165.00 0.04181
1165.10 0.04179
1165.20 0.04178
1165.30 0.04177
1165.40 0.04175
1165.50 0.04174
1165.60 0.04173
1165.70 0.04171
1165.80 0.0417
1165.90 0.04168
1166.00 0.04167
1166.10 0.04166
1166.20 0.04164
1166.30 0.04163
1166.40 0.04161
1166.50 0.0416
1166.60 0.04159
1166.70 0.04157
1166.80 0.04156
1166.90 0.04155
1167.00 0.04153
1167.10 0.04152
1167.20 0.0415
1167.30 0.04149
1167.40 0.04148
1167.50 0.04146
1167.60 0.04145
1167.70 0.04144
1167.80 0.04142
1167.90 0.04141
1168.00 0.04139
1168.10 0.04138
1168.20 0.04137
1168.30 0.04135
1168.40 0.04134
1168.50 0.04133
1168.60 0.04131
1168.70 0.0413
1168.80 0.04128
1168.90 0.04127
1169.00 0.04126
1169.10 0.04124
1169.20 0.04123
1169.30 0.04122
1169.40 0.0412
1169.50 0.04119
1169.60 0.04118
1169.70 0.04116
1169.80 0.04115
1169.90 0.04113
1170.00 0.04112
1170.10 0.04111
1170.20 0.04109
1170.30 0.04108
1170.40 0.04107
1170.50 0.04105
1170.60 0.04104
1170.70 0.04103
1170.80 0.04101
1170.90 0.041
1171.00 0.04098
1171.10 0.04097
1171.20 0.04096
1171.30 0.04094
1171.40 0.04093
1171.50 0.04092
1171.60 0.0409
1171.70 0.04089
1171.80 0.04088
1171.90 0.04086
1172.00 0.04085
1172.10 0.04083
1172.20 0.04082
1172.30 0.04081
1172.40 0.04079
1172.50 0.04078
1172.60 0.04077
1172.70 0.04075
1172.80 0.04074
1172.90 0.04073
1173.00 0.04071
1173.10 0.0407
1173.20 0.04069
1173.30 0.04067
1173.40 0.04066
1173.50 0.04065
1173.60 0.04063
1173.70 0.04062
1173.80 0.04061
1173.90 0.04059
1174.00 0.04058
1174.10 0.04057
1174.20 0.04055
1174.30 0.04054
1174.40 0.04053
1174.50 0.04051
1174.60 0.0405
1174.70 0.04048
1174.80 0.04047
1174.90 0.04046
1175.00 0.04044
1175.10 0.04043
1175.20 0.04042
1175.30 0.0404
1175.40 0.04039
1175.50 0.04038
1175.60 0.04036
1175.70 0.04035
1175.80 0.04034
1175.90 0.04032
1176.00 0.04031
1176.10 0.0403
1176.20 0.04028
1176.30 0.04027
1176.40 0.04026
1176.50 0.04024
1176.60 0.04023
1176.70 0.04022
1176.80 0.0402
1176.90 0.04019
1177.00 0.04018
1177.10 0.04016
1177.20 0.04015
1177.30 0.04014
1177.40 0.04012
1177.50 0.04011
1177.60 0.0401
1177.70 0.04008
1177.80 0.04007
1177.90 0.04006
1178.00 0.04005
1178.10 0.04003
1178.20 0.04002
1178.30 0.04001
1178.40 0.03999
1178.50 0.03998
1178.60 0.03997
1178.70 0.03995
1178.80 0.03994
1178.90 0.03993
1179.00 0.03991
1179.10 0.0399
1179.20 0.03989
1179.30 0.03987
1179.40 0.03986
1179.50 0.03985
1179.60 0.03983
1179.70 0.03982
1179.80 0.03981
1179.90 0.03979
1180.00 0.03978
1180.10 0.03977
1180.20 0.03976
1180.30 0.03974
1180.40 0.03973
1180.50 0.03972
1180.60 0.0397
1180.70 0.03969
1180.80 0.03968
1180.90 0.03966
1181.00 0.03965
1181.10 0.03964
1181.20 0.03962
1181.30 0.03961
1181.40 0.0396
1181.50 0.03958
1181.60 0.03957
1181.70 0.03956
1181.80 0.03955
1181.90 0.03953
1182.00 0.03952
1182.10 0.03951
1182.20 0.03949
1182.30 0.03948
1182.40 0.03947
1182.50 0.03945
1182.60 0.03944
1182.70 0.03943
1182.80 0.03942
1182.90 0.0394
1183.00 0.03939
1183.10 0.03938
1183.20 0.03936
1183.30 0.03935
1183.40 0.03934
1183.50 0.03932
1183.60 0.03931
1183.70 0.0393
1183.80 0.03929
1183.90 0.03927
1184.00 0.03926
1184.10 0.03925
1184.20 0.03923
1184.30 0.03922
1184.40 0.03921
1184.50 0.03919
1184.60 0.03918
1184.70 0.03917
1184.80 0.03916
1184.90 0.03914
1185.00 0.03913
1185.10 0.03912
1185.20 0.0391
1185.30 0.03909
1185.40 0.03908
1185.50 0.03907
1185.60 0.03905
1185.70 0.03904
1185.80 0.03903
1185.90 0.03901
1186.00 0.039
1186.10 0.03899
1186.20 0.03898
1186.30 0.03896
1186.40 0.03895
1186.50 0.03894
1186.60 0.03892
1186.70 0.03891
1186.80 0.0389
1186.90 0.03889
1187.00 0.03887
1187.10 0.03886
1187.20 0.03885
1187.30 0.03883
1187.40 0.03882
1187.50 0.03881
1187.60 0.0388
1187.70 0.03878
1187.80 0.03877
1187.90 0.03876
1188.00 0.03875
1188.10 0.03873
1188.20 0.03872
1188.30 0.03871
1188.40 0.03869
1188.50 0.03868
1188.60 0.03867
1188.70 0.03866
1188.80 0.03864
1188.90 0.03863
1189.00 0.03862
1189.10 0.03861
1189.20 0.03859
1189.30 0.03858
1189.40 0.03857
1189.50 0.03855
1189.60 0.03854
1189.70 0.03853
1189.80 0.03852
1189.90 0.0385
1190.00 0.03849
1190.10 0.03848
1190.20 0.03847
1190.30 0.03845
1190.40 0.03844
1190.50 0.03843
1190.60 0.03842
1190.70 0.0384
1190.80 0.03839
1190.90 0.03838
1191.00 0.03837
1191.10 0.03835
1191.20 0.03834
1191.30 0.03833
1191.40 0.03831
1191.50 0.0383
1191.60 0.03829
1191.70 0.03828
1191.80 0.03826
1191.90 0.03825
1192.00 0.03824
1192.10 0.03823
1192.20 0.03821
1192.30 0.0382
1192.40 0.03819
1192.50 0.03818
1192.60 0.03816
1192.70 0.03815
1192.80 0.03814
1192.90 0.03813
1193.00 0.03811
1193.10 0.0381
1193.20 0.03809
1193.30 0.03808
1193.40 0.03806
1193.50 0.03805
1193.60 0.03804
1193.70 0.03803
1193.80 0.03801
1193.90 0.038
1194.00 0.03799
1194.10 0.03798
1194.20 0.03796
1194.30 0.03795
1194.40 0.03794
1194.50 0.03793
1194.60 0.03791
1194.70 0.0379
1194.80 0.03789
1194.90 0.03788
1195.00 0.03786
1195.10 0.03785
1195.20 0.03784
1195.30 0.03783
1195.40 0.03781
1195.50 0.0378
1195.60 0.03779
1195.70 0.03778
1195.80 0.03777
1195.90 0.03775
1196.00 0.03774
1196.10 0.03773
1196.20 0.03772
1196.30 0.0377
1196.40 0.03769
1196.50 0.03768
1196.60 0.03767
1196.70 0.03765
1196.80 0.03764
1196.90 0.03763
1197.00 0.03762
1197.10 0.0376
1197.20 0.03759
1197.30 0.03758
1197.40 0.03757
1197.50 0.03756
1197.60 0.03754
1197.70 0.03753
1197.80 0.03752
1197.90 0.03751
1198.00 0.03749
1198.10 0.03748
1198.20 0.03747
1198.30 0.03746
1198.40 0.03744
1198.50 0.03743
1198.60 0.03742
1198.70 0.03741
1198.80 0.0374
1198.90 0.03738
1199.00 0.03737
1199.10 0.03736
1199.20 0.03735
1199.30 0.03733
1199.40 0.03732
1199.50 0.03731
1199.60 0.0373
1199.70 0.03729
1199.80 0.03727
1199.90 0.03726
1200.00 0
