# Version 2.1 - nm, norm@500 to 1, cut digits, bergeron_20000_85.dat_20000
# Wavelength(nm)  Flambda(ergs/cm^s/s/nm)
300.00 3.37
300.10 3.367
300.20 3.364
300.30 3.36
300.40 3.357
300.50 3.354
300.60 3.351
300.70 3.347
300.80 3.344
300.90 3.341
301.00 3.338
301.10 3.335
301.20 3.331
301.30 3.328
301.40 3.325
301.50 3.322
301.60 3.319
301.70 3.315
301.80 3.312
301.90 3.309
302.00 3.306
302.10 3.303
302.20 3.299
302.30 3.296
302.40 3.293
302.50 3.29
302.60 3.287
302.70 3.284
302.80 3.281
302.90 3.277
303.00 3.274
303.10 3.271
303.20 3.268
303.30 3.265
303.40 3.262
303.50 3.259
303.60 3.256
303.70 3.252
303.80 3.249
303.90 3.246
304.00 3.243
304.10 3.24
304.20 3.237
304.30 3.234
304.40 3.231
304.50 3.228
304.60 3.225
304.70 3.222
304.80 3.218
304.90 3.215
305.00 3.212
305.10 3.209
305.20 3.206
305.30 3.203
305.40 3.2
305.50 3.197
305.60 3.194
305.70 3.191
305.80 3.188
305.90 3.185
306.00 3.182
306.10 3.179
306.20 3.176
306.30 3.173
306.40 3.17
306.50 3.167
306.60 3.164
306.70 3.161
306.80 3.158
306.90 3.155
307.00 3.152
307.10 3.149
307.20 3.146
307.30 3.143
307.40 3.14
307.50 3.137
307.60 3.134
307.70 3.131
307.80 3.128
307.90 3.125
308.00 3.122
308.10 3.119
308.20 3.116
308.30 3.113
308.40 3.111
308.50 3.108
308.60 3.105
308.70 3.102
308.80 3.099
308.90 3.096
309.00 3.093
309.10 3.09
309.20 3.087
309.30 3.084
309.40 3.081
309.50 3.079
309.60 3.076
309.70 3.073
309.80 3.07
309.90 3.067
310.00 3.064
310.10 3.061
310.20 3.058
310.30 3.055
310.40 3.053
310.50 3.05
310.60 3.047
310.70 3.044
310.80 3.041
310.90 3.038
311.00 3.036
311.10 3.033
311.20 3.03
311.30 3.027
311.40 3.024
311.50 3.021
311.60 3.019
311.70 3.016
311.80 3.013
311.90 3.01
312.00 3.007
312.10 3.004
312.20 3.002
312.30 2.999
312.40 2.996
312.50 2.993
312.60 2.991
312.70 2.988
312.80 2.985
312.90 2.982
313.00 2.979
313.10 2.977
313.20 2.974
313.30 2.971
313.40 2.968
313.50 2.966
313.60 2.963
313.70 2.96
313.80 2.957
313.90 2.955
314.00 2.952
314.10 2.949
314.20 2.946
314.30 2.944
314.40 2.941
314.50 2.938
314.60 2.935
314.70 2.933
314.80 2.93
314.90 2.927
315.00 2.925
315.10 2.922
315.20 2.919
315.30 2.917
315.40 2.914
315.50 2.911
315.60 2.908
315.70 2.906
315.80 2.903
315.90 2.9
316.00 2.898
316.10 2.895
316.20 2.892
316.30 2.89
316.40 2.887
316.50 2.884
316.60 2.882
316.70 2.879
316.80 2.876
316.90 2.874
317.00 2.871
317.10 2.869
317.20 2.866
317.30 2.863
317.40 2.861
317.50 2.858
317.60 2.855
317.70 2.853
317.80 2.85
317.90 2.848
318.00 2.845
318.10 2.842
318.20 2.84
318.30 2.837
318.40 2.835
318.50 2.832
318.60 2.829
318.70 2.827
318.80 2.824
318.90 2.822
319.00 2.819
319.10 2.816
319.20 2.814
319.30 2.811
319.40 2.809
319.50 2.806
319.60 2.804
319.70 2.801
319.80 2.798
319.90 2.796
320.00 2.793
320.10 2.791
320.20 2.788
320.30 2.786
320.40 2.783
320.50 2.781
320.60 2.778
320.70 2.776
320.80 2.773
320.90 2.771
321.00 2.768
321.10 2.765
321.20 2.763
321.30 2.76
321.40 2.758
321.50 2.755
321.60 2.753
321.70 2.75
321.80 2.748
321.90 2.745
322.00 2.743
322.10 2.74
322.20 2.738
322.30 2.736
322.40 2.733
322.50 2.731
322.60 2.728
322.70 2.726
322.80 2.723
322.90 2.721
323.00 2.718
323.10 2.716
323.20 2.713
323.30 2.711
323.40 2.708
323.50 2.706
323.60 2.704
323.70 2.701
323.80 2.699
323.90 2.696
324.00 2.694
324.10 2.691
324.20 2.689
324.30 2.687
324.40 2.684
324.50 2.682
324.60 2.679
324.70 2.677
324.80 2.674
324.90 2.672
325.00 2.67
325.10 2.667
325.20 2.665
325.30 2.662
325.40 2.66
325.50 2.658
325.60 2.655
325.70 2.653
325.80 2.65
325.90 2.648
326.00 2.646
326.10 2.643
326.20 2.641
326.30 2.639
326.40 2.636
326.50 2.634
326.60 2.632
326.70 2.629
326.80 2.627
326.90 2.624
327.00 2.622
327.10 2.62
327.20 2.617
327.30 2.615
327.40 2.613
327.50 2.61
327.60 2.608
327.70 2.606
327.80 2.603
327.90 2.601
328.00 2.599
328.10 2.596
328.20 2.594
328.30 2.592
328.40 2.59
328.50 2.587
328.60 2.585
328.70 2.583
328.80 2.58
328.90 2.578
329.00 2.576
329.10 2.573
329.20 2.571
329.30 2.569
329.40 2.567
329.50 2.564
329.60 2.562
329.70 2.56
329.80 2.557
329.90 2.555
330.00 2.553
330.10 2.551
330.20 2.548
330.30 2.546
330.40 2.544
330.50 2.542
330.60 2.539
330.70 2.537
330.80 2.535
330.90 2.533
331.00 2.53
331.10 2.528
331.20 2.526
331.30 2.524
331.40 2.521
331.50 2.519
331.60 2.517
331.70 2.515
331.80 2.513
331.90 2.51
332.00 2.508
332.10 2.506
332.20 2.504
332.30 2.502
332.40 2.499
332.50 2.497
332.60 2.495
332.70 2.493
332.80 2.491
332.90 2.488
333.00 2.486
333.10 2.484
333.20 2.482
333.30 2.48
333.40 2.477
333.50 2.475
333.60 2.473
333.70 2.471
333.80 2.469
333.90 2.466
334.00 2.464
334.10 2.462
334.20 2.46
334.30 2.458
334.40 2.456
334.50 2.454
334.60 2.451
334.70 2.449
334.80 2.447
334.90 2.445
335.00 2.443
335.10 2.441
335.20 2.439
335.30 2.436
335.40 2.434
335.50 2.432
335.60 2.43
335.70 2.428
335.80 2.426
335.90 2.424
336.00 2.422
336.10 2.419
336.20 2.417
336.30 2.415
336.40 2.413
336.50 2.411
336.60 2.409
336.70 2.407
336.80 2.405
336.90 2.403
337.00 2.4
337.10 2.398
337.20 2.396
337.30 2.394
337.40 2.392
337.50 2.39
337.60 2.388
337.70 2.386
337.80 2.384
337.90 2.382
338.00 2.38
338.10 2.378
338.20 2.376
338.30 2.373
338.40 2.371
338.50 2.369
338.60 2.367
338.70 2.365
338.80 2.363
338.90 2.361
339.00 2.359
339.10 2.357
339.20 2.355
339.30 2.353
339.40 2.351
339.50 2.349
339.60 2.347
339.70 2.345
339.80 2.343
339.90 2.341
340.00 2.339
340.10 2.337
340.20 2.335
340.30 2.333
340.40 2.331
340.50 2.329
340.60 2.327
340.70 2.325
340.80 2.323
340.90 2.321
341.00 2.319
341.10 2.317
341.20 2.315
341.30 2.313
341.40 2.311
341.50 2.309
341.60 2.307
341.70 2.305
341.80 2.303
341.90 2.301
342.00 2.299
342.10 2.297
342.20 2.295
342.30 2.293
342.40 2.291
342.50 2.289
342.60 2.287
342.70 2.285
342.80 2.283
342.90 2.281
343.00 2.279
343.10 2.277
343.20 2.275
343.30 2.273
343.40 2.271
343.50 2.269
343.60 2.267
343.70 2.265
343.80 2.263
343.90 2.262
344.00 2.26
344.10 2.258
344.20 2.256
344.30 2.254
344.40 2.252
344.50 2.25
344.60 2.248
344.70 2.246
344.80 2.244
344.90 2.242
345.00 2.24
345.10 2.238
345.20 2.237
345.30 2.235
345.40 2.233
345.50 2.231
345.60 2.229
345.70 2.227
345.80 2.225
345.90 2.223
346.00 2.221
346.10 2.219
346.20 2.218
346.30 2.216
346.40 2.214
346.50 2.212
346.60 2.21
346.70 2.208
346.80 2.206
346.90 2.204
347.00 2.202
347.10 2.201
347.20 2.199
347.30 2.197
347.40 2.195
347.50 2.193
347.60 2.191
347.70 2.189
347.80 2.188
347.90 2.186
348.00 2.184
348.10 2.182
348.20 2.18
348.30 2.178
348.40 2.176
348.50 2.175
348.60 2.173
348.70 2.171
348.80 2.169
348.90 2.167
349.00 2.165
349.10 2.164
349.20 2.162
349.30 2.16
349.40 2.158
349.50 2.156
349.60 2.154
349.70 2.153
349.80 2.151
349.90 2.149
350.00 2.147
350.10 2.145
350.20 2.144
350.30 2.142
350.40 2.14
350.50 2.138
350.60 2.136
350.70 2.135
350.80 2.133
350.90 2.131
351.00 2.129
351.10 2.127
351.20 2.126
351.30 2.124
351.40 2.122
351.50 2.12
351.60 2.118
351.70 2.117
351.80 2.115
351.90 2.113
352.00 2.111
352.10 2.11
352.20 2.108
352.30 2.106
352.40 2.104
352.50 2.103
352.60 2.101
352.70 2.099
352.80 2.097
352.90 2.096
353.00 2.094
353.10 2.092
353.20 2.09
353.30 2.089
353.40 2.087
353.50 2.085
353.60 2.083
353.70 2.082
353.80 2.08
353.90 2.078
354.00 2.076
354.10 2.075
354.20 2.073
354.30 2.071
354.40 2.069
354.50 2.068
354.60 2.066
354.70 2.064
354.80 2.062
354.90 2.061
355.00 2.059
355.10 2.057
355.20 2.056
355.30 2.054
355.40 2.052
355.50 2.05
355.60 2.049
355.70 2.047
355.80 2.045
355.90 2.044
356.00 2.042
356.10 2.04
356.20 2.039
356.30 2.037
356.40 2.035
356.50 2.034
356.60 2.032
356.70 2.03
356.80 2.028
356.90 2.027
357.00 2.025
357.10 2.023
357.20 2.022
357.30 2.02
357.40 2.018
357.50 2.017
357.60 2.015
357.70 2.013
357.80 2.012
357.90 2.01
358.00 2.008
358.10 2.007
358.20 2.005
358.30 2.003
358.40 2.002
358.50 2
358.60 1.998
358.70 1.997
358.80 1.995
358.90 1.994
359.00 1.992
359.10 1.99
359.20 1.989
359.30 1.987
359.40 1.985
359.50 1.984
359.60 1.982
359.70 1.98
359.80 1.979
359.90 1.977
360.00 1.976
360.10 1.974
360.20 1.972
360.30 1.971
360.40 1.969
360.50 1.967
360.60 1.966
360.70 1.964
360.80 1.963
360.90 1.961
361.00 1.959
361.10 1.958
361.20 1.956
361.30 1.955
361.40 1.953
361.50 1.951
361.60 1.95
361.70 1.948
361.80 1.947
361.90 1.945
362.00 1.943
362.10 1.942
362.20 1.94
362.30 1.939
362.40 1.937
362.50 1.935
362.60 1.934
362.70 1.932
362.80 1.931
362.90 1.929
363.00 1.927
363.10 1.926
363.20 1.924
363.30 1.923
363.40 1.921
363.50 1.92
363.60 1.918
363.70 1.916
363.80 1.915
363.90 1.913
364.00 1.912
364.10 1.91
364.20 1.909
364.30 1.907
364.40 1.906
364.50 1.904
364.60 1.902
364.70 1.901
364.80 1.899
364.90 1.898
365.00 1.896
365.10 1.895
365.20 1.893
365.30 1.892
365.40 1.89
365.50 1.889
365.60 1.887
365.70 1.886
365.80 1.884
365.90 1.882
366.00 1.881
366.10 1.879
366.20 1.877
366.30 1.875
366.40 1.874
366.50 1.872
366.60 1.87
366.70 1.868
366.80 1.866
366.90 1.865
367.00 1.863
367.10 1.861
367.20 1.859
367.30 1.857
367.40 1.856
367.50 1.854
367.60 1.852
367.70 1.85
367.80 1.848
367.90 1.847
368.00 1.845
368.10 1.843
368.20 1.841
368.30 1.839
368.40 1.838
368.50 1.836
368.60 1.834
368.70 1.832
368.80 1.83
368.90 1.829
369.00 1.827
369.10 1.825
369.20 1.823
369.30 1.822
369.40 1.82
369.50 1.818
369.60 1.816
369.70 1.814
369.80 1.813
369.90 1.811
370.00 1.809
370.10 1.808
370.20 1.806
370.30 1.804
370.40 1.802
370.50 1.801
370.60 1.799
370.70 1.797
370.80 1.796
370.90 1.794
371.00 1.792
371.10 1.791
371.20 1.789
371.30 1.787
371.40 1.786
371.50 1.784
371.60 1.782
371.70 1.781
371.80 1.779
371.90 1.777
372.00 1.776
372.10 1.774
372.20 1.773
372.30 1.771
372.40 1.77
372.50 1.768
372.60 1.767
372.70 1.765
372.80 1.764
372.90 1.762
373.00 1.761
373.10 1.759
373.20 1.758
373.30 1.757
373.40 1.755
373.50 1.754
373.60 1.752
373.70 1.751
373.80 1.749
373.90 1.748
374.00 1.746
374.10 1.745
374.20 1.744
374.30 1.743
374.40 1.741
374.50 1.74
374.60 1.739
374.70 1.737
374.80 1.736
374.90 1.735
375.00 1.734
375.10 1.732
375.20 1.731
375.30 1.73
375.40 1.729
375.50 1.727
375.60 1.726
375.70 1.725
375.80 1.724
375.90 1.722
376.00 1.721
376.10 1.72
376.20 1.718
376.30 1.717
376.40 1.715
376.50 1.714
376.60 1.712
376.70 1.711
376.80 1.709
376.90 1.708
377.00 1.707
377.10 1.706
377.20 1.706
377.30 1.705
377.40 1.705
377.50 1.705
377.60 1.704
377.70 1.704
377.80 1.703
377.90 1.703
378.00 1.703
378.10 1.702
378.20 1.7
378.30 1.699
378.40 1.698
378.50 1.697
378.60 1.695
378.70 1.694
378.80 1.693
378.90 1.692
379.00 1.69
379.10 1.689
379.20 1.688
379.30 1.686
379.40 1.685
379.50 1.684
379.60 1.682
379.70 1.681
379.80 1.679
379.90 1.678
380.00 1.677
380.10 1.677
380.20 1.678
380.30 1.679
380.40 1.68
380.50 1.68
380.60 1.681
380.70 1.682
380.80 1.683
380.90 1.683
381.00 1.684
381.10 1.683
381.20 1.683
381.30 1.682
381.40 1.681
381.50 1.681
381.60 1.679
381.70 1.678
381.80 1.676
381.90 1.674
382.00 1.671
382.10 1.669
382.20 1.666
382.30 1.662
382.40 1.657
382.50 1.653
382.60 1.649
382.70 1.645
382.80 1.641
382.90 1.637
383.00 1.633
383.10 1.628
383.20 1.624
383.30 1.62
383.40 1.615
383.50 1.611
383.60 1.612
383.70 1.616
383.80 1.62
383.90 1.625
384.00 1.629
384.10 1.634
384.20 1.638
384.30 1.642
384.40 1.646
384.50 1.65
384.60 1.654
384.70 1.657
384.80 1.66
384.90 1.662
385.00 1.665
385.10 1.667
385.20 1.668
385.30 1.67
385.40 1.67
385.50 1.671
385.60 1.671
385.70 1.671
385.80 1.67
385.90 1.669
386.00 1.667
386.10 1.666
386.20 1.663
386.30 1.66
386.40 1.657
386.50 1.654
386.60 1.65
386.70 1.645
386.80 1.64
386.90 1.635
387.00 1.629
387.10 1.623
387.20 1.616
387.30 1.609
387.40 1.601
387.50 1.593
387.60 1.584
387.70 1.576
387.80 1.567
387.90 1.557
388.00 1.547
388.10 1.537
388.20 1.527
388.30 1.516
388.40 1.506
388.50 1.496
388.60 1.485
388.70 1.476
388.80 1.468
388.90 1.462
389.00 1.467
389.10 1.474
389.20 1.483
389.30 1.493
389.40 1.504
389.50 1.514
389.60 1.524
389.70 1.534
389.80 1.545
389.90 1.554
390.00 1.564
390.10 1.574
390.20 1.583
390.30 1.591
390.40 1.6
390.50 1.608
390.60 1.616
390.70 1.623
390.80 1.63
390.90 1.636
391.00 1.643
391.10 1.648
391.20 1.654
391.30 1.659
391.40 1.663
391.50 1.667
391.60 1.671
391.70 1.674
391.80 1.676
391.90 1.679
392.00 1.681
392.10 1.682
392.20 1.683
392.30 1.683
392.40 1.683
392.50 1.683
392.60 1.682
392.70 1.681
392.80 1.679
392.90 1.677
393.00 1.674
393.10 1.671
393.20 1.667
393.30 1.663
393.40 1.658
393.50 1.653
393.60 1.647
393.70 1.641
393.80 1.635
393.90 1.628
394.00 1.62
394.10 1.612
394.20 1.603
394.30 1.594
394.40 1.584
394.50 1.574
394.60 1.564
394.70 1.552
394.80 1.541
394.90 1.529
395.00 1.516
395.10 1.503
395.20 1.49
395.30 1.475
395.40 1.461
395.50 1.446
395.60 1.431
395.70 1.415
395.80 1.399
395.90 1.382
396.00 1.365
396.10 1.348
396.20 1.33
396.30 1.312
396.40 1.294
396.50 1.275
396.60 1.256
396.70 1.236
396.80 1.216
396.90 1.195
397.00 1.174
397.10 1.192
397.20 1.211
397.30 1.23
397.40 1.248
397.50 1.267
397.60 1.284
397.70 1.301
397.80 1.318
397.90 1.335
398.00 1.351
398.10 1.367
398.20 1.383
398.30 1.398
398.40 1.413
398.50 1.428
398.60 1.442
398.70 1.456
398.80 1.47
398.90 1.483
399.00 1.496
399.10 1.509
399.20 1.52
399.30 1.532
399.40 1.544
399.50 1.555
399.60 1.565
399.70 1.575
399.80 1.585
399.90 1.595
400.00 1.604
400.10 1.613
400.20 1.621
400.30 1.629
400.40 1.637
400.50 1.644
400.60 1.652
400.70 1.658
400.80 1.665
400.90 1.671
401.00 1.677
401.10 1.682
401.20 1.687
401.30 1.692
401.40 1.696
401.50 1.701
401.60 1.705
401.70 1.708
401.80 1.711
401.90 1.714
402.00 1.717
402.10 1.72
402.20 1.722
402.30 1.723
402.40 1.725
402.50 1.726
402.60 1.727
402.70 1.728
402.80 1.728
402.90 1.728
403.00 1.728
403.10 1.728
403.20 1.727
403.30 1.726
403.40 1.725
403.50 1.723
403.60 1.722
403.70 1.719
403.80 1.717
403.90 1.715
404.00 1.712
404.10 1.708
404.20 1.705
404.30 1.701
404.40 1.697
404.50 1.693
404.60 1.688
404.70 1.683
404.80 1.678
404.90 1.672
405.00 1.666
405.10 1.66
405.20 1.654
405.30 1.647
405.40 1.64
405.50 1.633
405.60 1.625
405.70 1.617
405.80 1.609
405.90 1.6
406.00 1.592
406.10 1.582
406.20 1.573
406.30 1.563
406.40 1.553
406.50 1.542
406.60 1.531
406.70 1.52
406.80 1.509
406.90 1.497
407.00 1.485
407.10 1.472
407.20 1.459
407.30 1.446
407.40 1.433
407.50 1.419
407.60 1.405
407.70 1.39
407.80 1.376
407.90 1.361
408.00 1.345
408.10 1.33
408.20 1.313
408.30 1.297
408.40 1.28
408.50 1.263
408.60 1.246
408.70 1.228
408.80 1.21
408.90 1.192
409.00 1.173
409.10 1.154
409.20 1.135
409.30 1.115
409.40 1.095
409.50 1.074
409.60 1.053
409.70 1.031
409.80 1.008
409.90 0.9842
410.00 0.9591
410.10 0.9405
410.20 0.9286
410.30 0.9483
410.40 0.97
410.50 0.9937
410.60 1.016
410.70 1.037
410.80 1.057
410.90 1.077
411.00 1.096
411.10 1.114
411.20 1.132
411.30 1.15
411.40 1.167
411.50 1.184
411.60 1.2
411.70 1.217
411.80 1.232
411.90 1.248
412.00 1.263
412.10 1.278
412.20 1.292
412.30 1.306
412.40 1.32
412.50 1.333
412.60 1.347
412.70 1.359
412.80 1.372
412.90 1.384
413.00 1.396
413.10 1.408
413.20 1.419
413.30 1.43
413.40 1.441
413.50 1.451
413.60 1.461
413.70 1.471
413.80 1.481
413.90 1.49
414.00 1.499
414.10 1.508
414.20 1.517
414.30 1.525
414.40 1.533
414.50 1.541
414.60 1.548
414.70 1.556
414.80 1.563
414.90 1.569
415.00 1.576
415.10 1.582
415.20 1.589
415.30 1.595
415.40 1.6
415.50 1.606
415.60 1.611
415.70 1.616
415.80 1.621
415.90 1.626
416.00 1.631
416.10 1.635
416.20 1.639
416.30 1.643
416.40 1.647
416.50 1.651
416.60 1.655
416.70 1.658
416.80 1.662
416.90 1.665
417.00 1.668
417.10 1.671
417.20 1.673
417.30 1.676
417.40 1.679
417.50 1.681
417.60 1.683
417.70 1.685
417.80 1.687
417.90 1.689
418.00 1.691
418.10 1.693
418.20 1.694
418.30 1.696
418.40 1.697
418.50 1.698
418.60 1.7
418.70 1.701
418.80 1.702
418.90 1.703
419.00 1.703
419.10 1.704
419.20 1.705
419.30 1.705
419.40 1.706
419.50 1.706
419.60 1.707
419.70 1.707
419.80 1.707
419.90 1.707
420.00 1.707
420.10 1.707
420.20 1.707
420.30 1.707
420.40 1.707
420.50 1.707
420.60 1.706
420.70 1.706
420.80 1.706
420.90 1.705
421.00 1.705
421.10 1.704
421.20 1.703
421.30 1.702
421.40 1.702
421.50 1.701
421.60 1.7
421.70 1.699
421.80 1.698
421.90 1.697
422.00 1.696
422.10 1.694
422.20 1.693
422.30 1.692
422.40 1.69
422.50 1.689
422.60 1.688
422.70 1.686
422.80 1.684
422.90 1.683
423.00 1.681
423.10 1.679
423.20 1.677
423.30 1.675
423.40 1.674
423.50 1.672
423.60 1.669
423.70 1.667
423.80 1.665
423.90 1.663
424.00 1.66
424.10 1.658
424.20 1.656
424.30 1.653
424.40 1.65
424.50 1.648
424.60 1.645
424.70 1.642
424.80 1.639
424.90 1.636
425.00 1.633
425.10 1.63
425.20 1.627
425.30 1.624
425.40 1.62
425.50 1.617
425.60 1.613
425.70 1.609
425.80 1.606
425.90 1.602
426.00 1.598
426.10 1.594
426.20 1.589
426.30 1.585
426.40 1.581
426.50 1.576
426.60 1.572
426.70 1.567
426.80 1.562
426.90 1.557
427.00 1.552
427.10 1.547
427.20 1.541
427.30 1.536
427.40 1.53
427.50 1.524
427.60 1.518
427.70 1.512
427.80 1.506
427.90 1.5
428.00 1.493
428.10 1.486
428.20 1.48
428.30 1.473
428.40 1.466
428.50 1.458
428.60 1.451
428.70 1.443
428.80 1.435
428.90 1.427
429.00 1.419
429.10 1.411
429.20 1.403
429.30 1.394
429.40 1.385
429.50 1.376
429.60 1.367
429.70 1.358
429.80 1.349
429.90 1.339
430.00 1.329
430.10 1.319
430.20 1.309
430.30 1.299
430.40 1.288
430.50 1.278
430.60 1.267
430.70 1.256
430.80 1.245
430.90 1.233
431.00 1.222
431.10 1.21
431.20 1.198
431.30 1.185
431.40 1.173
431.50 1.16
431.60 1.148
431.70 1.135
431.80 1.121
431.90 1.108
432.00 1.094
432.10 1.08
432.20 1.066
432.30 1.051
432.40 1.037
432.50 1.022
432.60 1.007
432.70 0.9912
432.80 0.9754
432.90 0.9593
433.00 0.9429
433.10 0.926
433.20 0.9086
433.30 0.8908
433.40 0.872
433.50 0.8524
433.60 0.8319
433.70 0.8086
433.80 0.782
433.90 0.7522
434.00 0.7012
434.10 0.7017
434.20 0.7537
434.30 0.7821
434.40 0.8073
434.50 0.8295
434.60 0.8488
434.70 0.8672
434.80 0.8848
434.90 0.9014
435.00 0.9175
435.10 0.9332
435.20 0.9482
435.30 0.963
435.40 0.9774
435.50 0.9913
435.60 1.005
435.70 1.019
435.80 1.032
435.90 1.045
436.00 1.057
436.10 1.069
436.20 1.082
436.30 1.093
436.40 1.105
436.50 1.116
436.60 1.127
436.70 1.138
436.80 1.149
436.90 1.159
437.00 1.169
437.10 1.179
437.20 1.189
437.30 1.198
437.40 1.208
437.50 1.217
437.60 1.225
437.70 1.234
437.80 1.243
437.90 1.251
438.00 1.259
438.10 1.267
438.20 1.275
438.30 1.282
438.40 1.289
438.50 1.296
438.60 1.303
438.70 1.31
438.80 1.317
438.90 1.323
439.00 1.329
439.10 1.335
439.20 1.341
439.30 1.347
439.40 1.353
439.50 1.358
439.60 1.363
439.70 1.368
439.80 1.373
439.90 1.378
440.00 1.383
440.10 1.387
440.20 1.391
440.30 1.396
440.40 1.4
440.50 1.404
440.60 1.407
440.70 1.411
440.80 1.414
440.90 1.418
441.00 1.421
441.10 1.424
441.20 1.427
441.30 1.43
441.40 1.432
441.50 1.435
441.60 1.437
441.70 1.44
441.80 1.442
441.90 1.444
442.00 1.446
442.10 1.448
442.20 1.45
442.30 1.452
442.40 1.454
442.50 1.456
442.60 1.457
442.70 1.459
442.80 1.46
442.90 1.461
443.00 1.463
443.10 1.464
443.20 1.465
443.30 1.466
443.40 1.467
443.50 1.468
443.60 1.469
443.70 1.47
443.80 1.47
443.90 1.471
444.00 1.472
444.10 1.472
444.20 1.473
444.30 1.473
444.40 1.474
444.50 1.474
444.60 1.475
444.70 1.475
444.80 1.475
444.90 1.475
445.00 1.476
445.10 1.476
445.20 1.476
445.30 1.476
445.40 1.476
445.50 1.476
445.60 1.476
445.70 1.476
445.80 1.476
445.90 1.476
446.00 1.476
446.10 1.476
446.20 1.476
446.30 1.476
446.40 1.475
446.50 1.475
446.60 1.475
446.70 1.475
446.80 1.474
446.90 1.474
447.00 1.474
447.10 1.473
447.20 1.473
447.30 1.473
447.40 1.472
447.50 1.472
447.60 1.472
447.70 1.471
447.80 1.471
447.90 1.47
448.00 1.47
448.10 1.469
448.20 1.469
448.30 1.468
448.40 1.468
448.50 1.467
448.60 1.466
448.70 1.466
448.80 1.465
448.90 1.465
449.00 1.464
449.10 1.463
449.20 1.463
449.30 1.462
449.40 1.462
449.50 1.461
449.60 1.46
449.70 1.46
449.80 1.459
449.90 1.458
450.00 1.457
450.10 1.457
450.20 1.456
450.30 1.455
450.40 1.455
450.50 1.454
450.60 1.453
450.70 1.452
450.80 1.451
450.90 1.451
451.00 1.45
451.10 1.449
451.20 1.448
451.30 1.448
451.40 1.447
451.50 1.446
451.60 1.445
451.70 1.444
451.80 1.443
451.90 1.443
452.00 1.442
452.10 1.441
452.20 1.44
452.30 1.439
452.40 1.438
452.50 1.437
452.60 1.436
452.70 1.436
452.80 1.435
452.90 1.434
453.00 1.433
453.10 1.432
453.20 1.431
453.30 1.43
453.40 1.429
453.50 1.428
453.60 1.427
453.70 1.427
453.80 1.426
453.90 1.425
454.00 1.424
454.10 1.423
454.20 1.422
454.30 1.421
454.40 1.42
454.50 1.419
454.60 1.418
454.70 1.417
454.80 1.416
454.90 1.415
455.00 1.414
455.10 1.413
455.20 1.412
455.30 1.411
455.40 1.41
455.50 1.409
455.60 1.408
455.70 1.407
455.80 1.406
455.90 1.405
456.00 1.404
456.10 1.403
456.20 1.402
456.30 1.401
456.40 1.4
456.50 1.399
456.60 1.398
456.70 1.397
456.80 1.396
456.90 1.395
457.00 1.394
457.10 1.393
457.20 1.392
457.30 1.391
457.40 1.39
457.50 1.389
457.60 1.388
457.70 1.387
457.80 1.386
457.90 1.385
458.00 1.384
458.10 1.383
458.20 1.382
458.30 1.381
458.40 1.38
458.50 1.379
458.60 1.378
458.70 1.377
458.80 1.376
458.90 1.375
459.00 1.374
459.10 1.373
459.20 1.372
459.30 1.37
459.40 1.369
459.50 1.368
459.60 1.367
459.70 1.366
459.80 1.365
459.90 1.364
460.00 1.363
460.10 1.362
460.20 1.361
460.30 1.36
460.40 1.359
460.50 1.358
460.60 1.357
460.70 1.355
460.80 1.354
460.90 1.353
461.00 1.352
461.10 1.351
461.20 1.35
461.30 1.349
461.40 1.348
461.50 1.347
461.60 1.346
461.70 1.345
461.80 1.343
461.90 1.342
462.00 1.341
462.10 1.34
462.20 1.339
462.30 1.338
462.40 1.337
462.50 1.336
462.60 1.335
462.70 1.333
462.80 1.332
462.90 1.331
463.00 1.33
463.10 1.329
463.20 1.328
463.30 1.327
463.40 1.326
463.50 1.324
463.60 1.323
463.70 1.322
463.80 1.321
463.90 1.32
464.00 1.319
464.10 1.318
464.20 1.316
464.30 1.315
464.40 1.314
464.50 1.313
464.60 1.312
464.70 1.311
464.80 1.309
464.90 1.308
465.00 1.307
465.10 1.306
465.20 1.305
465.30 1.304
465.40 1.302
465.50 1.301
465.60 1.3
465.70 1.299
465.80 1.298
465.90 1.296
466.00 1.295
466.10 1.294
466.20 1.293
466.30 1.292
466.40 1.29
466.50 1.289
466.60 1.288
466.70 1.287
466.80 1.285
466.90 1.284
467.00 1.283
467.10 1.282
467.20 1.281
467.30 1.279
467.40 1.278
467.50 1.277
467.60 1.276
467.70 1.274
467.80 1.273
467.90 1.272
468.00 1.27
468.10 1.269
468.20 1.268
468.30 1.267
468.40 1.265
468.50 1.264
468.60 1.263
468.70 1.261
468.80 1.26
468.90 1.259
469.00 1.257
469.10 1.256
469.20 1.255
469.30 1.253
469.40 1.252
469.50 1.251
469.60 1.249
469.70 1.248
469.80 1.247
469.90 1.245
470.00 1.244
470.10 1.242
470.20 1.241
470.30 1.24
470.40 1.238
470.50 1.237
470.60 1.235
470.70 1.234
470.80 1.232
470.90 1.231
471.00 1.229
471.10 1.228
471.20 1.226
471.30 1.225
471.40 1.223
471.50 1.222
471.60 1.22
471.70 1.219
471.80 1.217
471.90 1.216
472.00 1.214
472.10 1.213
472.20 1.211
472.30 1.209
472.40 1.208
472.50 1.206
472.60 1.204
472.70 1.203
472.80 1.201
472.90 1.199
473.00 1.198
473.10 1.196
473.20 1.194
473.30 1.192
473.40 1.191
473.50 1.189
473.60 1.187
473.70 1.185
473.80 1.183
473.90 1.182
474.00 1.18
474.10 1.178
474.20 1.176
474.30 1.174
474.40 1.172
474.50 1.17
474.60 1.168
474.70 1.166
474.80 1.164
474.90 1.162
475.00 1.16
475.10 1.158
475.20 1.156
475.30 1.154
475.40 1.151
475.50 1.149
475.60 1.147
475.70 1.145
475.80 1.142
475.90 1.14
476.00 1.138
476.10 1.136
476.20 1.133
476.30 1.131
476.40 1.128
476.50 1.126
476.60 1.123
476.70 1.121
476.80 1.118
476.90 1.116
477.00 1.113
477.10 1.11
477.20 1.108
477.30 1.105
477.40 1.102
477.50 1.099
477.60 1.096
477.70 1.093
477.80 1.09
477.90 1.087
478.00 1.084
478.10 1.081
478.20 1.078
478.30 1.075
478.40 1.071
478.50 1.068
478.60 1.065
478.70 1.061
478.80 1.058
478.90 1.054
479.00 1.051
479.10 1.048
479.20 1.044
479.30 1.04
479.40 1.036
479.50 1.032
479.60 1.028
479.70 1.024
479.80 1.02
479.90 1.016
480.00 1.012
480.10 1.008
480.20 1.004
480.30 0.9988
480.40 0.9941
480.50 0.9894
480.60 0.9847
480.70 0.9801
480.80 0.9754
480.90 0.9707
481.00 0.966
481.10 0.9613
481.20 0.9561
481.30 0.9505
481.40 0.9449
481.50 0.9394
481.60 0.9338
481.70 0.9283
481.80 0.9228
481.90 0.9172
482.00 0.9117
482.10 0.9062
482.20 0.8999
482.30 0.8934
482.40 0.8868
482.50 0.8803
482.60 0.8738
482.70 0.8672
482.80 0.8607
482.90 0.8542
483.00 0.8477
483.10 0.8412
483.20 0.8338
483.30 0.8261
483.40 0.8184
483.50 0.8107
483.60 0.803
483.70 0.7954
483.80 0.7877
483.90 0.78
484.00 0.7723
484.10 0.7647
484.20 0.7563
484.30 0.7475
484.40 0.7388
484.50 0.7301
484.60 0.7214
484.70 0.7119
484.80 0.7022
484.90 0.6925
485.00 0.6828
485.10 0.673
485.20 0.6625
485.30 0.6516
485.40 0.6399
485.50 0.6277
485.60 0.614
485.70 0.5995
485.80 0.5804
485.90 0.5592
486.00 0.5285
486.10 0.4685
486.20 0.4931
486.30 0.5407
486.40 0.5646
486.50 0.5854
486.60 0.6015
486.70 0.6154
486.80 0.6276
486.90 0.6389
487.00 0.6494
487.10 0.6594
487.20 0.6687
487.30 0.6775
487.40 0.6864
487.50 0.6952
487.60 0.7041
487.70 0.7122
487.80 0.7199
487.90 0.7276
488.00 0.7353
488.10 0.7431
488.20 0.75
488.30 0.7565
488.40 0.7631
488.50 0.7696
488.60 0.7761
488.70 0.7826
488.80 0.7892
488.90 0.7957
489.00 0.8022
489.10 0.8087
489.20 0.8143
489.30 0.8195
489.40 0.8247
489.50 0.8299
489.60 0.8351
489.70 0.8403
489.80 0.8455
489.90 0.8507
490.00 0.8559
490.10 0.8611
490.20 0.8655
490.30 0.8696
490.40 0.8737
490.50 0.8778
490.60 0.8818
490.70 0.8859
490.80 0.89
490.90 0.8941
491.00 0.8981
491.10 0.9022
491.20 0.9056
491.30 0.9087
491.40 0.9118
491.50 0.9149
491.60 0.9181
491.70 0.9212
491.80 0.9243
491.90 0.9274
492.00 0.9305
492.10 0.9336
492.20 0.9361
492.30 0.9385
492.40 0.9408
492.50 0.9431
492.60 0.9454
492.70 0.9477
492.80 0.9501
492.90 0.9524
493.00 0.9547
493.10 0.957
493.20 0.9589
493.30 0.9606
493.40 0.9622
493.50 0.9639
493.60 0.9656
493.70 0.9673
493.80 0.9689
493.90 0.9706
494.00 0.9723
494.10 0.9739
494.20 0.9753
494.30 0.9764
494.40 0.9776
494.50 0.9788
494.60 0.9799
494.70 0.9811
494.80 0.9823
494.90 0.9834
495.00 0.9846
495.10 0.9858
495.20 0.9866
495.30 0.9874
495.40 0.9882
495.50 0.989
495.60 0.9897
495.70 0.9905
495.80 0.9913
495.90 0.992
496.00 0.9928
496.10 0.9936
496.20 0.9941
496.30 0.9946
496.40 0.995
496.50 0.9955
496.60 0.996
496.70 0.9964
496.80 0.9969
496.90 0.9973
497.00 0.9978
497.10 0.9982
497.20 0.9985
497.30 0.9988
497.40 0.999
497.50 0.9992
497.60 0.9994
497.70 0.9996
497.80 0.9999
497.90 1
498.00 1
498.10 1.001
498.20 1.001
498.30 1.001
498.40 1.001
498.50 1.001
498.60 1.001
498.70 1.001
498.80 1.001
498.90 1.001
499.00 1.001
499.10 1.001
499.20 1.001
499.30 1.001
499.40 1.001
499.50 1.001
499.60 1
499.70 1
499.80 1
499.90 1
500.00 1
500.10 0.9999
500.20 0.9997
500.30 0.9995
500.40 0.9993
500.50 0.9991
500.60 0.9988
500.70 0.9986
500.80 0.9984
500.90 0.9982
501.00 0.998
501.10 0.9977
501.20 0.9975
501.30 0.9972
501.40 0.9969
501.50 0.9965
501.60 0.9962
501.70 0.9959
501.80 0.9956
501.90 0.9953
502.00 0.995
502.10 0.9947
502.20 0.9944
502.30 0.994
502.40 0.9936
502.50 0.9932
502.60 0.9929
502.70 0.9925
502.80 0.9921
502.90 0.9918
503.00 0.9914
503.10 0.991
503.20 0.9906
503.30 0.9902
503.40 0.9898
503.50 0.9893
503.60 0.9889
503.70 0.9885
503.80 0.9881
503.90 0.9876
504.00 0.9872
504.10 0.9868
504.20 0.9864
504.30 0.9859
504.40 0.9854
504.50 0.985
504.60 0.9845
504.70 0.984
504.80 0.9836
504.90 0.9831
505.00 0.9826
505.10 0.9822
505.20 0.9817
505.30 0.9812
505.40 0.9807
505.50 0.9802
505.60 0.9797
505.70 0.9792
505.80 0.9787
505.90 0.9782
506.00 0.9777
506.10 0.9772
506.20 0.9767
506.30 0.9762
506.40 0.9757
506.50 0.9752
506.60 0.9746
506.70 0.9741
506.80 0.9736
506.90 0.9731
507.00 0.9726
507.10 0.972
507.20 0.9715
507.30 0.971
507.40 0.9704
507.50 0.9699
507.60 0.9693
507.70 0.9688
507.80 0.9683
507.90 0.9677
508.00 0.9672
508.10 0.9666
508.20 0.9661
508.30 0.9655
508.40 0.965
508.50 0.9644
508.60 0.9639
508.70 0.9633
508.80 0.9628
508.90 0.9622
509.00 0.9616
509.10 0.9611
509.20 0.9605
509.30 0.96
509.40 0.9594
509.50 0.9588
509.60 0.9583
509.70 0.9577
509.80 0.9571
509.90 0.9566
510.00 0.956
510.10 0.9554
510.20 0.9549
510.30 0.9543
510.40 0.9537
510.50 0.9531
510.60 0.9526
510.70 0.952
510.80 0.9514
510.90 0.9508
511.00 0.9503
511.10 0.9497
511.20 0.9491
511.30 0.9485
511.40 0.948
511.50 0.9474
511.60 0.9468
511.70 0.9462
511.80 0.9456
511.90 0.9451
512.00 0.9445
512.10 0.9439
512.20 0.9433
512.30 0.9427
512.40 0.9421
512.50 0.9415
512.60 0.941
512.70 0.9404
512.80 0.9398
512.90 0.9392
513.00 0.9386
513.10 0.938
513.20 0.9375
513.30 0.9369
513.40 0.9363
513.50 0.9357
513.60 0.9351
513.70 0.9345
513.80 0.9339
513.90 0.9333
514.00 0.9328
514.10 0.9322
514.20 0.9316
514.30 0.931
514.40 0.9304
514.50 0.9298
514.60 0.9292
514.70 0.9286
514.80 0.928
514.90 0.9274
515.00 0.9269
515.10 0.9263
515.20 0.9257
515.30 0.9251
515.40 0.9245
515.50 0.9239
515.60 0.9233
515.70 0.9227
515.80 0.9221
515.90 0.9215
516.00 0.921
516.10 0.9204
516.20 0.9198
516.30 0.9192
516.40 0.9186
516.50 0.918
516.60 0.9174
516.70 0.9168
516.80 0.9162
516.90 0.9156
517.00 0.915
517.10 0.9145
517.20 0.9139
517.30 0.9133
517.40 0.9127
517.50 0.9121
517.60 0.9115
517.70 0.9109
517.80 0.9103
517.90 0.9097
518.00 0.9091
518.10 0.9086
518.20 0.908
518.30 0.9074
518.40 0.9068
518.50 0.9062
518.60 0.9056
518.70 0.905
518.80 0.9044
518.90 0.9039
519.00 0.9033
519.10 0.9027
519.20 0.9021
519.30 0.9015
519.40 0.9009
519.50 0.9003
519.60 0.8997
519.70 0.8992
519.80 0.8986
519.90 0.898
520.00 0.8974
520.10 0.8968
520.20 0.8962
520.30 0.8956
520.40 0.8951
520.50 0.8945
520.60 0.8939
520.70 0.8933
520.80 0.8927
520.90 0.8921
521.00 0.8916
521.10 0.891
521.20 0.8904
521.30 0.8898
521.40 0.8892
521.50 0.8886
521.60 0.8881
521.70 0.8875
521.80 0.8869
521.90 0.8863
522.00 0.8857
522.10 0.8852
522.20 0.8846
522.30 0.884
522.40 0.8834
522.50 0.8828
522.60 0.8823
522.70 0.8817
522.80 0.8811
522.90 0.8805
523.00 0.8799
523.10 0.8794
523.20 0.8788
523.30 0.8782
523.40 0.8776
523.50 0.8771
523.60 0.8765
523.70 0.8759
523.80 0.8753
523.90 0.8748
524.00 0.8742
524.10 0.8736
524.20 0.873
524.30 0.8725
524.40 0.8719
524.50 0.8713
524.60 0.8707
524.70 0.8702
524.80 0.8696
524.90 0.869
525.00 0.8685
525.10 0.8679
525.20 0.8673
525.30 0.8667
525.40 0.8662
525.50 0.8656
525.60 0.865
525.70 0.8645
525.80 0.8639
525.90 0.8633
526.00 0.8628
526.10 0.8622
526.20 0.8616
526.30 0.8611
526.40 0.8605
526.50 0.8599
526.60 0.8594
526.70 0.8588
526.80 0.8582
526.90 0.8577
527.00 0.8571
527.10 0.8565
527.20 0.856
527.30 0.8554
527.40 0.8548
527.50 0.8543
527.60 0.8537
527.70 0.8532
527.80 0.8526
527.90 0.852
528.00 0.8515
528.10 0.8509
528.20 0.8504
528.30 0.8498
528.40 0.8492
528.50 0.8487
528.60 0.8481
528.70 0.8476
528.80 0.847
528.90 0.8465
529.00 0.8459
529.10 0.8453
529.20 0.8448
529.30 0.8442
529.40 0.8437
529.50 0.8431
529.60 0.8426
529.70 0.842
529.80 0.8414
529.90 0.8409
530.00 0.8403
530.10 0.8398
530.20 0.8392
530.30 0.8387
530.40 0.8381
530.50 0.8376
530.60 0.837
530.70 0.8365
530.80 0.8359
530.90 0.8354
531.00 0.8348
531.10 0.8343
531.20 0.8337
531.30 0.8332
531.40 0.8326
531.50 0.8321
531.60 0.8315
531.70 0.831
531.80 0.8305
531.90 0.8299
532.00 0.8294
532.10 0.8288
532.20 0.8283
532.30 0.8277
532.40 0.8272
532.50 0.8266
532.60 0.8261
532.70 0.8256
532.80 0.825
532.90 0.8245
533.00 0.8239
533.10 0.8234
533.20 0.8228
533.30 0.8223
533.40 0.8218
533.50 0.8212
533.60 0.8207
533.70 0.8201
533.80 0.8196
533.90 0.8191
534.00 0.8185
534.10 0.818
534.20 0.8175
534.30 0.8169
534.40 0.8164
534.50 0.8159
534.60 0.8153
534.70 0.8148
534.80 0.8142
534.90 0.8137
535.00 0.8132
535.10 0.8126
535.20 0.8121
535.30 0.8116
535.40 0.811
535.50 0.8105
535.60 0.81
535.70 0.8095
535.80 0.8089
535.90 0.8084
536.00 0.8079
536.10 0.8073
536.20 0.8068
536.30 0.8063
536.40 0.8057
536.50 0.8052
536.60 0.8047
536.70 0.8042
536.80 0.8036
536.90 0.8031
537.00 0.8026
537.10 0.8021
537.20 0.8015
537.30 0.801
537.40 0.8005
537.50 0.8
537.60 0.7994
537.70 0.7989
537.80 0.7984
537.90 0.7979
538.00 0.7973
538.10 0.7968
538.20 0.7963
538.30 0.7958
538.40 0.7953
538.50 0.7947
538.60 0.7942
538.70 0.7937
538.80 0.7932
538.90 0.7927
539.00 0.7922
539.10 0.7916
539.20 0.7911
539.30 0.7906
539.40 0.7901
539.50 0.7896
539.60 0.7891
539.70 0.7885
539.80 0.788
539.90 0.7875
540.00 0.787
540.10 0.7865
540.20 0.786
540.30 0.7855
540.40 0.7849
540.50 0.7844
540.60 0.7839
540.70 0.7834
540.80 0.7829
540.90 0.7824
541.00 0.7819
541.10 0.7814
541.20 0.7809
541.30 0.7804
541.40 0.7798
541.50 0.7793
541.60 0.7788
541.70 0.7783
541.80 0.7778
541.90 0.7773
542.00 0.7768
542.10 0.7763
542.20 0.7758
542.30 0.7753
542.40 0.7748
542.50 0.7743
542.60 0.7738
542.70 0.7733
542.80 0.7728
542.90 0.7723
543.00 0.7718
543.10 0.7713
543.20 0.7708
543.30 0.7703
543.40 0.7698
543.50 0.7693
543.60 0.7688
543.70 0.7683
543.80 0.7678
543.90 0.7673
544.00 0.7668
544.10 0.7663
544.20 0.7658
544.30 0.7653
544.40 0.7648
544.50 0.7643
544.60 0.7638
544.70 0.7633
544.80 0.7628
544.90 0.7623
545.00 0.7618
545.10 0.7613
545.20 0.7608
545.30 0.7603
545.40 0.7598
545.50 0.7593
545.60 0.7588
545.70 0.7584
545.80 0.7579
545.90 0.7574
546.00 0.7569
546.10 0.7564
546.20 0.7559
546.30 0.7554
546.40 0.7549
546.50 0.7544
546.60 0.7539
546.70 0.7535
546.80 0.753
546.90 0.7525
547.00 0.752
547.10 0.7515
547.20 0.751
547.30 0.7505
547.40 0.7501
547.50 0.7496
547.60 0.7491
547.70 0.7486
547.80 0.7481
547.90 0.7476
548.00 0.7471
548.10 0.7467
548.20 0.7462
548.30 0.7457
548.40 0.7452
548.50 0.7447
548.60 0.7443
548.70 0.7438
548.80 0.7433
548.90 0.7428
549.00 0.7423
549.10 0.7419
549.20 0.7414
549.30 0.7409
549.40 0.7404
549.50 0.7399
549.60 0.7395
549.70 0.739
549.80 0.7385
549.90 0.738
550.00 0.7376
550.10 0.7371
550.20 0.7366
550.30 0.7361
550.40 0.7357
550.50 0.7352
550.60 0.7347
550.70 0.7343
550.80 0.7338
550.90 0.7333
551.00 0.7328
551.10 0.7324
551.20 0.7319
551.30 0.7314
551.40 0.731
551.50 0.7305
551.60 0.73
551.70 0.7295
551.80 0.7291
551.90 0.7286
552.00 0.7281
552.10 0.7277
552.20 0.7272
552.30 0.7267
552.40 0.7263
552.50 0.7258
552.60 0.7253
552.70 0.7249
552.80 0.7244
552.90 0.7239
553.00 0.7235
553.10 0.723
553.20 0.7226
553.30 0.7221
553.40 0.7216
553.50 0.7212
553.60 0.7207
553.70 0.7202
553.80 0.7198
553.90 0.7193
554.00 0.7189
554.10 0.7184
554.20 0.7179
554.30 0.7175
554.40 0.717
554.50 0.7166
554.60 0.7161
554.70 0.7156
554.80 0.7152
554.90 0.7147
555.00 0.7143
555.10 0.7138
555.20 0.7133
555.30 0.7129
555.40 0.7124
555.50 0.712
555.60 0.7115
555.70 0.7111
555.80 0.7106
555.90 0.7102
556.00 0.7097
556.10 0.7093
556.20 0.7088
556.30 0.7084
556.40 0.7079
556.50 0.7075
556.60 0.707
556.70 0.7065
556.80 0.7061
556.90 0.7056
557.00 0.7052
557.10 0.7047
557.20 0.7043
557.30 0.7038
557.40 0.7034
557.50 0.703
557.60 0.7025
557.70 0.7021
557.80 0.7016
557.90 0.7012
558.00 0.7007
558.10 0.7003
558.20 0.6998
558.30 0.6994
558.40 0.6989
558.50 0.6985
558.60 0.698
558.70 0.6976
558.80 0.6972
558.90 0.6967
559.00 0.6963
559.10 0.6958
559.20 0.6954
559.30 0.6949
559.40 0.6945
559.50 0.6941
559.60 0.6936
559.70 0.6932
559.80 0.6927
559.90 0.6923
560.00 0.6919
560.10 0.6914
560.20 0.691
560.30 0.6905
560.40 0.6901
560.50 0.6897
560.60 0.6892
560.70 0.6888
560.80 0.6884
560.90 0.6879
561.00 0.6875
561.10 0.687
561.20 0.6866
561.30 0.6862
561.40 0.6857
561.50 0.6853
561.60 0.6849
561.70 0.6844
561.80 0.684
561.90 0.6836
562.00 0.6831
562.10 0.6827
562.20 0.6823
562.30 0.6818
562.40 0.6814
562.50 0.681
562.60 0.6805
562.70 0.6801
562.80 0.6797
562.90 0.6793
563.00 0.6788
563.10 0.6784
563.20 0.678
563.30 0.6775
563.40 0.6771
563.50 0.6767
563.60 0.6763
563.70 0.6758
563.80 0.6754
563.90 0.675
564.00 0.6746
564.10 0.6741
564.20 0.6737
564.30 0.6733
564.40 0.6728
564.50 0.6724
564.60 0.672
564.70 0.6716
564.80 0.6712
564.90 0.6707
565.00 0.6703
565.10 0.6699
565.20 0.6695
565.30 0.669
565.40 0.6686
565.50 0.6682
565.60 0.6678
565.70 0.6674
565.80 0.6669
565.90 0.6665
566.00 0.6661
566.10 0.6657
566.20 0.6653
566.30 0.6648
566.40 0.6644
566.50 0.664
566.60 0.6636
566.70 0.6632
566.80 0.6628
566.90 0.6623
567.00 0.6619
567.10 0.6615
567.20 0.6611
567.30 0.6607
567.40 0.6603
567.50 0.6598
567.60 0.6594
567.70 0.659
567.80 0.6586
567.90 0.6582
568.00 0.6578
568.10 0.6574
568.20 0.6569
568.30 0.6565
568.40 0.6561
568.50 0.6557
568.60 0.6553
568.70 0.6549
568.80 0.6545
568.90 0.6541
569.00 0.6537
569.10 0.6533
569.20 0.6528
569.30 0.6524
569.40 0.652
569.50 0.6516
569.60 0.6512
569.70 0.6508
569.80 0.6504
569.90 0.65
570.00 0.6496
570.10 0.6492
570.20 0.6488
570.30 0.6484
570.40 0.648
570.50 0.6475
570.60 0.6471
570.70 0.6467
570.80 0.6463
570.90 0.6459
571.00 0.6455
571.10 0.6451
571.20 0.6447
571.30 0.6443
571.40 0.6439
571.50 0.6435
571.60 0.6431
571.70 0.6427
571.80 0.6423
571.90 0.6419
572.00 0.6415
572.10 0.6411
572.20 0.6407
572.30 0.6403
572.40 0.6399
572.50 0.6395
572.60 0.6391
572.70 0.6387
572.80 0.6383
572.90 0.6379
573.00 0.6375
573.10 0.6371
573.20 0.6367
573.30 0.6363
573.40 0.6359
573.50 0.6355
573.60 0.6351
573.70 0.6347
573.80 0.6344
573.90 0.634
574.00 0.6336
574.10 0.6332
574.20 0.6328
574.30 0.6324
574.40 0.632
574.50 0.6316
574.60 0.6312
574.70 0.6308
574.80 0.6304
574.90 0.63
575.00 0.6296
575.10 0.6292
575.20 0.6289
575.30 0.6285
575.40 0.6281
575.50 0.6277
575.60 0.6273
575.70 0.6269
575.80 0.6265
575.90 0.6261
576.00 0.6257
576.10 0.6253
576.20 0.625
576.30 0.6246
576.40 0.6242
576.50 0.6238
576.60 0.6234
576.70 0.623
576.80 0.6226
576.90 0.6223
577.00 0.6219
577.10 0.6215
577.20 0.6211
577.30 0.6207
577.40 0.6203
577.50 0.6199
577.60 0.6196
577.70 0.6192
577.80 0.6188
577.90 0.6184
578.00 0.618
578.10 0.6176
578.20 0.6173
578.30 0.6169
578.40 0.6165
578.50 0.6161
578.60 0.6157
578.70 0.6154
578.80 0.615
578.90 0.6146
579.00 0.6142
579.10 0.6138
579.20 0.6135
579.30 0.6131
579.40 0.6127
579.50 0.6123
579.60 0.6119
579.70 0.6116
579.80 0.6112
579.90 0.6108
580.00 0.6104
580.10 0.6101
580.20 0.6097
580.30 0.6093
580.40 0.6089
580.50 0.6086
580.60 0.6082
580.70 0.6078
580.80 0.6074
580.90 0.6071
581.00 0.6067
581.10 0.6063
581.20 0.6059
581.30 0.6056
581.40 0.6052
581.50 0.6048
581.60 0.6044
581.70 0.6041
581.80 0.6037
581.90 0.6033
582.00 0.603
582.10 0.6026
582.20 0.6022
582.30 0.6018
582.40 0.6015
582.50 0.6011
582.60 0.6007
582.70 0.6004
582.80 0.6
582.90 0.5996
583.00 0.5993
583.10 0.5989
583.20 0.5985
583.30 0.5982
583.40 0.5978
583.50 0.5974
583.60 0.5971
583.70 0.5967
583.80 0.5963
583.90 0.596
584.00 0.5956
584.10 0.5952
584.20 0.5949
584.30 0.5945
584.40 0.5941
584.50 0.5938
584.60 0.5934
584.70 0.593
584.80 0.5927
584.90 0.5923
585.00 0.592
585.10 0.5916
585.20 0.5912
585.30 0.5909
585.40 0.5905
585.50 0.5901
585.60 0.5898
585.70 0.5894
585.80 0.5891
585.90 0.5887
586.00 0.5883
586.10 0.588
586.20 0.5876
586.30 0.5873
586.40 0.5869
586.50 0.5865
586.60 0.5862
586.70 0.5858
586.80 0.5855
586.90 0.5851
587.00 0.5847
587.10 0.5844
587.20 0.584
587.30 0.5837
587.40 0.5833
587.50 0.583
587.60 0.5826
587.70 0.5823
587.80 0.5819
587.90 0.5815
588.00 0.5812
588.10 0.5808
588.20 0.5805
588.30 0.5801
588.40 0.5798
588.50 0.5794
588.60 0.5791
588.70 0.5787
588.80 0.5784
588.90 0.578
589.00 0.5777
589.10 0.5773
589.20 0.5769
589.30 0.5766
589.40 0.5762
589.50 0.5759
589.60 0.5755
589.70 0.5752
589.80 0.5748
589.90 0.5745
590.00 0.5741
590.10 0.5738
590.20 0.5734
590.30 0.5731
590.40 0.5727
590.50 0.5724
590.60 0.5721
590.70 0.5717
590.80 0.5714
590.90 0.571
591.00 0.5707
591.10 0.5703
591.20 0.57
591.30 0.5696
591.40 0.5693
591.50 0.5689
591.60 0.5686
591.70 0.5682
591.80 0.5679
591.90 0.5675
592.00 0.5672
592.10 0.5669
592.20 0.5665
592.30 0.5662
592.40 0.5658
592.50 0.5655
592.60 0.5651
592.70 0.5648
592.80 0.5645
592.90 0.5641
593.00 0.5638
593.10 0.5634
593.20 0.5631
593.30 0.5627
593.40 0.5624
593.50 0.5621
593.60 0.5617
593.70 0.5614
593.80 0.561
593.90 0.5607
594.00 0.5604
594.10 0.56
594.20 0.5597
594.30 0.5593
594.40 0.559
594.50 0.5587
594.60 0.5583
594.70 0.558
594.80 0.5577
594.90 0.5573
595.00 0.557
595.10 0.5566
595.20 0.5563
595.30 0.556
595.40 0.5556
595.50 0.5553
595.60 0.555
595.70 0.5546
595.80 0.5543
595.90 0.554
596.00 0.5536
596.10 0.5533
596.20 0.5529
596.30 0.5526
596.40 0.5523
596.50 0.5519
596.60 0.5516
596.70 0.5513
596.80 0.5509
596.90 0.5506
597.00 0.5503
597.10 0.5499
597.20 0.5496
597.30 0.5493
597.40 0.549
597.50 0.5486
597.60 0.5483
597.70 0.548
597.80 0.5476
597.90 0.5473
598.00 0.547
598.10 0.5466
598.20 0.5463
598.30 0.546
598.40 0.5456
598.50 0.5453
598.60 0.545
598.70 0.5447
598.80 0.5443
598.90 0.544
599.00 0.5437
599.10 0.5434
599.20 0.543
599.30 0.5427
599.40 0.5424
599.50 0.542
599.60 0.5417
599.70 0.5414
599.80 0.5411
599.90 0.5407
600.00 0.5404
600.10 0.5401
600.20 0.5398
600.30 0.5394
600.40 0.5391
600.50 0.5388
600.60 0.5385
600.70 0.5381
600.80 0.5378
600.90 0.5375
601.00 0.5372
601.10 0.5368
601.20 0.5365
601.30 0.5362
601.40 0.5359
601.50 0.5356
601.60 0.5352
601.70 0.5349
601.80 0.5346
601.90 0.5343
602.00 0.534
602.10 0.5336
602.20 0.5333
602.30 0.533
602.40 0.5327
602.50 0.5323
602.60 0.532
602.70 0.5317
602.80 0.5314
602.90 0.5311
603.00 0.5307
603.10 0.5304
603.20 0.5301
603.30 0.5298
603.40 0.5295
603.50 0.5292
603.60 0.5288
603.70 0.5285
603.80 0.5282
603.90 0.5279
604.00 0.5276
604.10 0.5273
604.20 0.5269
604.30 0.5266
604.40 0.5263
604.50 0.526
604.60 0.5257
604.70 0.5254
604.80 0.525
604.90 0.5247
605.00 0.5244
605.10 0.5241
605.20 0.5238
605.30 0.5235
605.40 0.5232
605.50 0.5228
605.60 0.5225
605.70 0.5222
605.80 0.5219
605.90 0.5216
606.00 0.5213
606.10 0.521
606.20 0.5207
606.30 0.5203
606.40 0.52
606.50 0.5197
606.60 0.5194
606.70 0.5191
606.80 0.5188
606.90 0.5185
607.00 0.5182
607.10 0.5179
607.20 0.5175
607.30 0.5172
607.40 0.5169
607.50 0.5166
607.60 0.5163
607.70 0.516
607.80 0.5157
607.90 0.5154
608.00 0.5151
608.10 0.5148
608.20 0.5145
608.30 0.5141
608.40 0.5138
608.50 0.5135
608.60 0.5132
608.70 0.5129
608.80 0.5126
608.90 0.5123
609.00 0.512
609.10 0.5117
609.20 0.5114
609.30 0.5111
609.40 0.5108
609.50 0.5105
609.60 0.5102
609.70 0.5098
609.80 0.5095
609.90 0.5092
610.00 0.5089
610.10 0.5086
610.20 0.5083
610.30 0.508
610.40 0.5077
610.50 0.5074
610.60 0.5071
610.70 0.5068
610.80 0.5065
610.90 0.5062
611.00 0.5059
611.10 0.5056
611.20 0.5053
611.30 0.505
611.40 0.5047
611.50 0.5044
611.60 0.5041
611.70 0.5038
611.80 0.5035
611.90 0.5032
612.00 0.5029
612.10 0.5026
612.20 0.5023
612.30 0.502
612.40 0.5017
612.50 0.5014
612.60 0.5011
612.70 0.5008
612.80 0.5005
612.90 0.5002
613.00 0.4999
613.10 0.4996
613.20 0.4993
613.30 0.499
613.40 0.4987
613.50 0.4984
613.60 0.4981
613.70 0.4978
613.80 0.4975
613.90 0.4972
614.00 0.4969
614.10 0.4966
614.20 0.4963
614.30 0.496
614.40 0.4957
614.50 0.4954
614.60 0.4951
614.70 0.4948
614.80 0.4945
614.90 0.4942
615.00 0.4939
615.10 0.4936
615.20 0.4933
615.30 0.493
615.40 0.4927
615.50 0.4924
615.60 0.4921
615.70 0.4919
615.80 0.4916
615.90 0.4913
616.00 0.491
616.10 0.4907
616.20 0.4904
616.30 0.4901
616.40 0.4898
616.50 0.4895
616.60 0.4892
616.70 0.4889
616.80 0.4886
616.90 0.4883
617.00 0.488
617.10 0.4877
617.20 0.4874
617.30 0.4871
617.40 0.4869
617.50 0.4866
617.60 0.4863
617.70 0.486
617.80 0.4857
617.90 0.4854
618.00 0.4851
618.10 0.4848
618.20 0.4845
618.30 0.4842
618.40 0.4839
618.50 0.4836
618.60 0.4834
618.70 0.4831
618.80 0.4828
618.90 0.4825
619.00 0.4822
619.10 0.4819
619.20 0.4816
619.30 0.4813
619.40 0.481
619.50 0.4807
619.60 0.4804
619.70 0.4802
619.80 0.4799
619.90 0.4796
620.00 0.4793
620.10 0.479
620.20 0.4787
620.30 0.4784
620.40 0.4781
620.50 0.4778
620.60 0.4775
620.70 0.4773
620.80 0.477
620.90 0.4767
621.00 0.4764
621.10 0.4761
621.20 0.4758
621.30 0.4755
621.40 0.4752
621.50 0.475
621.60 0.4747
621.70 0.4744
621.80 0.4741
621.90 0.4738
622.00 0.4735
622.10 0.4732
622.20 0.4729
622.30 0.4727
622.40 0.4724
622.50 0.4721
622.60 0.4718
622.70 0.4715
622.80 0.4712
622.90 0.4709
623.00 0.4706
623.10 0.4704
623.20 0.4701
623.30 0.4698
623.40 0.4695
623.50 0.4692
623.60 0.4689
623.70 0.4686
623.80 0.4684
623.90 0.4681
624.00 0.4678
624.10 0.4675
624.20 0.4672
624.30 0.4669
624.40 0.4666
624.50 0.4663
624.60 0.4661
624.70 0.4658
624.80 0.4655
624.90 0.4652
625.00 0.4649
625.10 0.4646
625.20 0.4643
625.30 0.4641
625.40 0.4638
625.50 0.4635
625.60 0.4632
625.70 0.4629
625.80 0.4626
625.90 0.4623
626.00 0.4621
626.10 0.4618
626.20 0.4615
626.30 0.4612
626.40 0.4609
626.50 0.4606
626.60 0.4603
626.70 0.4601
626.80 0.4598
626.90 0.4595
627.00 0.4592
627.10 0.4589
627.20 0.4586
627.30 0.4583
627.40 0.4581
627.50 0.4578
627.60 0.4575
627.70 0.4572
627.80 0.4569
627.90 0.4566
628.00 0.4563
628.10 0.4561
628.20 0.4558
628.30 0.4555
628.40 0.4552
628.50 0.4549
628.60 0.4546
628.70 0.4543
628.80 0.454
628.90 0.4538
629.00 0.4535
629.10 0.4532
629.20 0.4529
629.30 0.4526
629.40 0.4523
629.50 0.452
629.60 0.4517
629.70 0.4514
629.80 0.4512
629.90 0.4509
630.00 0.4506
630.10 0.4503
630.20 0.45
630.30 0.4497
630.40 0.4494
630.50 0.4491
630.60 0.4488
630.70 0.4486
630.80 0.4483
630.90 0.448
631.00 0.4477
631.10 0.4474
631.20 0.4471
631.30 0.4468
631.40 0.4465
631.50 0.4462
631.60 0.4459
631.70 0.4456
631.80 0.4454
631.90 0.4451
632.00 0.4448
632.10 0.4445
632.20 0.4442
632.30 0.4439
632.40 0.4436
632.50 0.4433
632.60 0.443
632.70 0.4427
632.80 0.4424
632.90 0.4421
633.00 0.4418
633.10 0.4415
633.20 0.4412
633.30 0.4409
633.40 0.4406
633.50 0.4403
633.60 0.44
633.70 0.4397
633.80 0.4394
633.90 0.4391
634.00 0.4388
634.10 0.4385
634.20 0.4382
634.30 0.4379
634.40 0.4376
634.50 0.4373
634.60 0.437
634.70 0.4367
634.80 0.4364
634.90 0.4361
635.00 0.4358
635.10 0.4355
635.20 0.4352
635.30 0.4349
635.40 0.4346
635.50 0.4343
635.60 0.434
635.70 0.4337
635.80 0.4334
635.90 0.433
636.00 0.4327
636.10 0.4324
636.20 0.4321
636.30 0.4318
636.40 0.4315
636.50 0.4312
636.60 0.4308
636.70 0.4305
636.80 0.4302
636.90 0.4299
637.00 0.4296
637.10 0.4293
637.20 0.4289
637.30 0.4286
637.40 0.4283
637.50 0.428
637.60 0.4276
637.70 0.4273
637.80 0.427
637.90 0.4266
638.00 0.4263
638.10 0.426
638.20 0.4257
638.30 0.4253
638.40 0.425
638.50 0.4247
638.60 0.4243
638.70 0.424
638.80 0.4236
638.90 0.4233
639.00 0.423
639.10 0.4226
639.20 0.4223
639.30 0.4219
639.40 0.4216
639.50 0.4212
639.60 0.4209
639.70 0.4205
639.80 0.4202
639.90 0.4198
640.00 0.4195
640.10 0.4191
640.20 0.4188
640.30 0.4184
640.40 0.418
640.50 0.4176
640.60 0.4173
640.70 0.4169
640.80 0.4165
640.90 0.4162
641.00 0.4158
641.10 0.4154
641.20 0.415
641.30 0.4147
641.40 0.4143
641.50 0.4139
641.60 0.4135
641.70 0.4131
641.80 0.4127
641.90 0.4123
642.00 0.4119
642.10 0.4115
642.20 0.4111
642.30 0.4107
642.40 0.4103
642.50 0.4098
642.60 0.4094
642.70 0.409
642.80 0.4086
642.90 0.4081
643.00 0.4077
643.10 0.4073
643.20 0.4069
643.30 0.4064
643.40 0.406
643.50 0.4055
643.60 0.405
643.70 0.4046
643.80 0.4041
643.90 0.4037
644.00 0.4032
644.10 0.4027
644.20 0.4023
644.30 0.4018
644.40 0.4013
644.50 0.4008
644.60 0.4003
644.70 0.3998
644.80 0.3993
644.90 0.3988
645.00 0.3983
645.10 0.3978
645.20 0.3972
645.30 0.3967
645.40 0.3962
645.50 0.3956
645.60 0.395
645.70 0.3945
645.80 0.3939
645.90 0.3933
646.00 0.3928
646.10 0.3922
646.20 0.3916
646.30 0.3911
646.40 0.3904
646.50 0.3898
646.60 0.3892
646.70 0.3885
646.80 0.3879
646.90 0.3872
647.00 0.3866
647.10 0.386
647.20 0.3853
647.30 0.3847
647.40 0.384
647.50 0.3832
647.60 0.3825
647.70 0.3818
647.80 0.381
647.90 0.3803
648.00 0.3796
648.10 0.3789
648.20 0.3781
648.30 0.3774
648.40 0.3765
648.50 0.3757
648.60 0.3749
648.70 0.374
648.80 0.3732
648.90 0.3723
649.00 0.3715
649.10 0.3707
649.20 0.3698
649.30 0.3689
649.40 0.368
649.50 0.367
649.60 0.366
649.70 0.365
649.80 0.364
649.90 0.3631
650.00 0.3621
650.10 0.3611
650.20 0.3601
650.30 0.3591
650.40 0.3579
650.50 0.3568
650.60 0.3556
650.70 0.3545
650.80 0.3533
650.90 0.3522
651.00 0.351
651.10 0.3499
651.20 0.3487
651.30 0.3475
651.40 0.3462
651.50 0.3448
651.60 0.3434
651.70 0.3421
651.80 0.3407
651.90 0.3393
652.00 0.338
652.10 0.3366
652.20 0.3353
652.30 0.3338
652.40 0.3322
652.50 0.3306
652.60 0.329
652.70 0.3273
652.80 0.3257
652.90 0.3241
653.00 0.3225
653.10 0.3209
653.20 0.3193
653.30 0.3176
653.40 0.3156
653.50 0.3137
653.60 0.3117
653.70 0.3098
653.80 0.3078
653.90 0.3059
654.00 0.3039
654.10 0.302
654.20 0.3001
654.30 0.2981
654.40 0.2958
654.50 0.2935
654.60 0.2912
654.70 0.2889
654.80 0.2866
654.90 0.2839
655.00 0.2812
655.10 0.2786
655.20 0.2759
655.30 0.2731
655.40 0.27
655.50 0.2667
655.60 0.263
655.70 0.2591
655.80 0.2543
655.90 0.2489
656.00 0.2409
656.10 0.2321
656.20 0.2112
656.30 0.172
656.40 0.2213
656.50 0.2353
656.60 0.2432
656.70 0.2504
656.80 0.2549
656.90 0.2592
657.00 0.2627
657.10 0.266
657.20 0.2689
657.30 0.2717
657.40 0.2741
657.50 0.2764
657.60 0.2788
657.70 0.2812
657.80 0.2835
657.90 0.2855
658.00 0.2875
658.10 0.2894
658.20 0.2914
658.30 0.2933
658.40 0.2949
658.50 0.2965
658.60 0.2981
658.70 0.2997
658.80 0.3014
658.90 0.303
659.00 0.3046
659.10 0.3062
659.20 0.3078
659.30 0.3093
659.40 0.3106
659.50 0.3118
659.60 0.3131
659.70 0.3143
659.80 0.3156
659.90 0.3168
660.00 0.3181
660.10 0.3193
660.20 0.3206
660.30 0.3218
660.40 0.3227
660.50 0.3237
660.60 0.3247
660.70 0.3257
660.80 0.3266
660.90 0.3276
661.00 0.3286
661.10 0.3295
661.20 0.3305
661.30 0.3314
661.40 0.3322
661.50 0.3329
661.60 0.3336
661.70 0.3344
661.80 0.3351
661.90 0.3358
662.00 0.3366
662.10 0.3373
662.20 0.338
662.30 0.3387
662.40 0.3393
662.50 0.3399
662.60 0.3404
662.70 0.341
662.80 0.3415
662.90 0.3421
663.00 0.3426
663.10 0.3432
663.20 0.3437
663.30 0.3442
663.40 0.3446
663.50 0.345
663.60 0.3454
663.70 0.3458
663.80 0.3462
663.90 0.3466
664.00 0.347
664.10 0.3474
664.20 0.3478
664.30 0.3482
664.40 0.3485
664.50 0.3487
664.60 0.349
664.70 0.3493
664.80 0.3496
664.90 0.3499
665.00 0.3501
665.10 0.3504
665.20 0.3507
665.30 0.351
665.40 0.3511
665.50 0.3513
665.60 0.3515
665.70 0.3517
665.80 0.3519
665.90 0.3521
666.00 0.3522
666.10 0.3524
666.20 0.3526
666.30 0.3528
666.40 0.3529
666.50 0.353
666.60 0.3531
666.70 0.3532
666.80 0.3533
666.90 0.3534
667.00 0.3535
667.10 0.3536
667.20 0.3538
667.30 0.3539
667.40 0.3539
667.50 0.354
667.60 0.354
667.70 0.3541
667.80 0.3541
667.90 0.3542
668.00 0.3542
668.10 0.3543
668.20 0.3543
668.30 0.3544
668.40 0.3544
668.50 0.3544
668.60 0.3544
668.70 0.3544
668.80 0.3544
668.90 0.3544
669.00 0.3544
669.10 0.3544
669.20 0.3544
669.30 0.3544
669.40 0.3544
669.50 0.3543
669.60 0.3543
669.70 0.3543
669.80 0.3542
669.90 0.3542
670.00 0.3542
670.10 0.3541
670.20 0.3541
670.30 0.3541
670.40 0.354
670.50 0.354
670.60 0.3539
670.70 0.3538
670.80 0.3538
670.90 0.3537
671.00 0.3537
671.10 0.3536
671.20 0.3535
671.30 0.3535
671.40 0.3534
671.50 0.3533
671.60 0.3532
671.70 0.3532
671.80 0.3531
671.90 0.353
672.00 0.3529
672.10 0.3528
672.20 0.3528
672.30 0.3527
672.40 0.3526
672.50 0.3525
672.60 0.3524
672.70 0.3523
672.80 0.3522
672.90 0.3521
673.00 0.352
673.10 0.3519
673.20 0.3518
673.30 0.3517
673.40 0.3516
673.50 0.3515
673.60 0.3513
673.70 0.3512
673.80 0.3511
673.90 0.351
674.00 0.3509
674.10 0.3508
674.20 0.3507
674.30 0.3505
674.40 0.3504
674.50 0.3503
674.60 0.3502
674.70 0.35
674.80 0.3499
674.90 0.3498
675.00 0.3497
675.10 0.3496
675.20 0.3494
675.30 0.3493
675.40 0.3492
675.50 0.349
675.60 0.3489
675.70 0.3488
675.80 0.3486
675.90 0.3485
676.00 0.3484
676.10 0.3482
676.20 0.3481
676.30 0.348
676.40 0.3478
676.50 0.3477
676.60 0.3476
676.70 0.3474
676.80 0.3473
676.90 0.3471
677.00 0.347
677.10 0.3469
677.20 0.3467
677.30 0.3466
677.40 0.3464
677.50 0.3463
677.60 0.3461
677.70 0.346
677.80 0.3459
677.90 0.3457
678.00 0.3456
678.10 0.3454
678.20 0.3453
678.30 0.3451
678.40 0.345
678.50 0.3448
678.60 0.3447
678.70 0.3445
678.80 0.3444
678.90 0.3442
679.00 0.3441
679.10 0.3439
679.20 0.3438
679.30 0.3436
679.40 0.3435
679.50 0.3433
679.60 0.3432
679.70 0.343
679.80 0.3429
679.90 0.3427
680.00 0.3426
680.10 0.3424
680.20 0.3422
680.30 0.3421
680.40 0.3419
680.50 0.3418
680.60 0.3416
680.70 0.3415
680.80 0.3413
680.90 0.3412
681.00 0.341
681.10 0.3408
681.20 0.3407
681.30 0.3405
681.40 0.3404
681.50 0.3402
681.60 0.3401
681.70 0.3399
681.80 0.3397
681.90 0.3396
682.00 0.3394
682.10 0.3393
682.20 0.3391
682.30 0.339
682.40 0.3388
682.50 0.3386
682.60 0.3385
682.70 0.3383
682.80 0.3382
682.90 0.338
683.00 0.3378
683.10 0.3377
683.20 0.3375
683.30 0.3374
683.40 0.3372
683.50 0.337
683.60 0.3369
683.70 0.3367
683.80 0.3366
683.90 0.3364
684.00 0.3362
684.10 0.3361
684.20 0.3359
684.30 0.3357
684.40 0.3356
684.50 0.3354
684.60 0.3353
684.70 0.3351
684.80 0.3349
684.90 0.3348
685.00 0.3346
685.10 0.3345
685.20 0.3343
685.30 0.3341
685.40 0.334
685.50 0.3338
685.60 0.3336
685.70 0.3335
685.80 0.3333
685.90 0.3331
686.00 0.333
686.10 0.3328
686.20 0.3327
686.30 0.3325
686.40 0.3323
686.50 0.3322
686.60 0.332
686.70 0.3318
686.80 0.3317
686.90 0.3315
687.00 0.3314
687.10 0.3312
687.20 0.331
687.30 0.3309
687.40 0.3307
687.50 0.3305
687.60 0.3304
687.70 0.3302
687.80 0.3301
687.90 0.3299
688.00 0.3297
688.10 0.3296
688.20 0.3294
688.30 0.3292
688.40 0.3291
688.50 0.3289
688.60 0.3287
688.70 0.3286
688.80 0.3284
688.90 0.3283
689.00 0.3281
689.10 0.3279
689.20 0.3278
689.30 0.3276
689.40 0.3274
689.50 0.3273
689.60 0.3271
689.70 0.327
689.80 0.3268
689.90 0.3266
690.00 0.3265
690.10 0.3263
690.20 0.3261
690.30 0.326
690.40 0.3258
690.50 0.3256
690.60 0.3255
690.70 0.3253
690.80 0.3252
690.90 0.325
691.00 0.3248
691.10 0.3247
691.20 0.3245
691.30 0.3243
691.40 0.3242
691.50 0.324
691.60 0.3238
691.70 0.3237
691.80 0.3235
691.90 0.3234
692.00 0.3232
692.10 0.323
692.20 0.3229
692.30 0.3227
692.40 0.3225
692.50 0.3224
692.60 0.3222
692.70 0.3221
692.80 0.3219
692.90 0.3217
693.00 0.3216
693.10 0.3214
693.20 0.3213
693.30 0.3211
693.40 0.3209
693.50 0.3208
693.60 0.3206
693.70 0.3204
693.80 0.3203
693.90 0.3201
694.00 0.32
694.10 0.3198
694.20 0.3196
694.30 0.3195
694.40 0.3193
694.50 0.3192
694.60 0.319
694.70 0.3188
694.80 0.3187
694.90 0.3185
695.00 0.3184
695.10 0.3182
695.20 0.318
695.30 0.3179
695.40 0.3177
695.50 0.3176
695.60 0.3174
695.70 0.3172
695.80 0.3171
695.90 0.3169
696.00 0.3168
696.10 0.3166
696.20 0.3164
696.30 0.3163
696.40 0.3161
696.50 0.316
696.60 0.3158
696.70 0.3156
696.80 0.3155
696.90 0.3153
697.00 0.3152
697.10 0.315
697.20 0.3148
697.30 0.3147
697.40 0.3145
697.50 0.3144
697.60 0.3142
697.70 0.314
697.80 0.3139
697.90 0.3137
698.00 0.3136
698.10 0.3134
698.20 0.3132
698.30 0.3131
698.40 0.3129
698.50 0.3128
698.60 0.3126
698.70 0.3125
698.80 0.3123
698.90 0.3121
699.00 0.312
699.10 0.3118
699.20 0.3117
699.30 0.3115
699.40 0.3113
699.50 0.3112
699.60 0.311
699.70 0.3109
699.80 0.3107
699.90 0.3106
700.00 0.3104
700.10 0.3102
700.20 0.3101
700.30 0.3099
700.40 0.3098
700.50 0.3096
700.60 0.3095
700.70 0.3093
700.80 0.3091
700.90 0.309
701.00 0.3088
701.10 0.3087
701.20 0.3085
701.30 0.3084
701.40 0.3082
701.50 0.3081
701.60 0.3079
701.70 0.3077
701.80 0.3076
701.90 0.3074
702.00 0.3073
702.10 0.3071
702.20 0.307
702.30 0.3068
702.40 0.3066
702.50 0.3065
702.60 0.3063
702.70 0.3062
702.80 0.306
702.90 0.3059
703.00 0.3057
703.10 0.3056
703.20 0.3054
703.30 0.3053
703.40 0.3051
703.50 0.3049
703.60 0.3048
703.70 0.3046
703.80 0.3045
703.90 0.3043
704.00 0.3042
704.10 0.304
704.20 0.3039
704.30 0.3037
704.40 0.3036
704.50 0.3034
704.60 0.3032
704.70 0.3031
704.80 0.3029
704.90 0.3028
705.00 0.3026
705.10 0.3025
705.20 0.3023
705.30 0.3022
705.40 0.302
705.50 0.3019
705.60 0.3017
705.70 0.3016
705.80 0.3014
705.90 0.3013
706.00 0.3011
706.10 0.3009
706.20 0.3008
706.30 0.3006
706.40 0.3005
706.50 0.3003
706.60 0.3002
706.70 0.3
706.80 0.2999
706.90 0.2997
707.00 0.2996
707.10 0.2994
707.20 0.2993
707.30 0.2991
707.40 0.299
707.50 0.2988
707.60 0.2987
707.70 0.2985
707.80 0.2984
707.90 0.2982
708.00 0.2981
708.10 0.2979
708.20 0.2978
708.30 0.2976
708.40 0.2975
708.50 0.2973
708.60 0.2972
708.70 0.297
708.80 0.2969
708.90 0.2967
709.00 0.2966
709.10 0.2964
709.20 0.2963
709.30 0.2961
709.40 0.296
709.50 0.2958
709.60 0.2957
709.70 0.2955
709.80 0.2954
709.90 0.2952
710.00 0.2951
710.10 0.2949
710.20 0.2948
710.30 0.2946
710.40 0.2945
710.50 0.2943
710.60 0.2942
710.70 0.294
710.80 0.2939
710.90 0.2937
711.00 0.2936
711.10 0.2934
711.20 0.2933
711.30 0.2931
711.40 0.293
711.50 0.2928
711.60 0.2927
711.70 0.2925
711.80 0.2924
711.90 0.2923
712.00 0.2921
712.10 0.292
712.20 0.2918
712.30 0.2917
712.40 0.2915
712.50 0.2914
712.60 0.2912
712.70 0.2911
712.80 0.2909
712.90 0.2908
713.00 0.2906
713.10 0.2905
713.20 0.2903
713.30 0.2902
713.40 0.29
713.50 0.2899
713.60 0.2898
713.70 0.2896
713.80 0.2895
713.90 0.2893
714.00 0.2892
714.10 0.289
714.20 0.2889
714.30 0.2887
714.40 0.2886
714.50 0.2884
714.60 0.2883
714.70 0.2882
714.80 0.288
714.90 0.2879
715.00 0.2877
715.10 0.2876
715.20 0.2874
715.30 0.2873
715.40 0.2871
715.50 0.287
715.60 0.2868
715.70 0.2867
715.80 0.2866
715.90 0.2864
716.00 0.2863
716.10 0.2861
716.20 0.286
716.30 0.2858
716.40 0.2857
716.50 0.2856
716.60 0.2854
716.70 0.2853
716.80 0.2851
716.90 0.285
717.00 0.2848
717.10 0.2847
717.20 0.2846
717.30 0.2844
717.40 0.2843
717.50 0.2841
717.60 0.284
717.70 0.2838
717.80 0.2837
717.90 0.2836
718.00 0.2834
718.10 0.2833
718.20 0.2831
718.30 0.283
718.40 0.2828
718.50 0.2827
718.60 0.2826
718.70 0.2824
718.80 0.2823
718.90 0.2821
719.00 0.282
719.10 0.2819
719.20 0.2817
719.30 0.2816
719.40 0.2814
719.50 0.2813
719.60 0.2811
719.70 0.281
719.80 0.2809
719.90 0.2807
720.00 0.2806
720.10 0.2804
720.20 0.2803
720.30 0.2802
720.40 0.28
720.50 0.2799
720.60 0.2797
720.70 0.2796
720.80 0.2795
720.90 0.2793
721.00 0.2792
721.10 0.279
721.20 0.2789
721.30 0.2788
721.40 0.2786
721.50 0.2785
721.60 0.2783
721.70 0.2782
721.80 0.2781
721.90 0.2779
722.00 0.2778
722.10 0.2777
722.20 0.2775
722.30 0.2774
722.40 0.2772
722.50 0.2771
722.60 0.277
722.70 0.2768
722.80 0.2767
722.90 0.2765
723.00 0.2764
723.10 0.2763
723.20 0.2761
723.30 0.276
723.40 0.2759
723.50 0.2757
723.60 0.2756
723.70 0.2754
723.80 0.2753
723.90 0.2752
724.00 0.275
724.10 0.2749
724.20 0.2748
724.30 0.2746
724.40 0.2745
724.50 0.2743
724.60 0.2742
724.70 0.2741
724.80 0.2739
724.90 0.2738
725.00 0.2737
725.10 0.2735
725.20 0.2734
725.30 0.2732
725.40 0.2731
725.50 0.273
725.60 0.2728
725.70 0.2727
725.80 0.2726
725.90 0.2724
726.00 0.2723
726.10 0.2722
726.20 0.272
726.30 0.2719
726.40 0.2718
726.50 0.2716
726.60 0.2715
726.70 0.2714
726.80 0.2712
726.90 0.2711
727.00 0.2709
727.10 0.2708
727.20 0.2707
727.30 0.2705
727.40 0.2704
727.50 0.2703
727.60 0.2701
727.70 0.27
727.80 0.2699
727.90 0.2697
728.00 0.2696
728.10 0.2695
728.20 0.2693
728.30 0.2692
728.40 0.2691
728.50 0.2689
728.60 0.2688
728.70 0.2687
728.80 0.2685
728.90 0.2684
729.00 0.2683
729.10 0.2681
729.20 0.268
729.30 0.2679
729.40 0.2677
729.50 0.2676
729.60 0.2675
729.70 0.2673
729.80 0.2672
729.90 0.2671
730.00 0.2669
730.10 0.2668
730.20 0.2667
730.30 0.2665
730.40 0.2664
730.50 0.2663
730.60 0.2661
730.70 0.266
730.80 0.2659
730.90 0.2658
731.00 0.2656
731.10 0.2655
731.20 0.2654
731.30 0.2652
731.40 0.2651
731.50 0.265
731.60 0.2648
731.70 0.2647
731.80 0.2646
731.90 0.2645
732.00 0.2643
732.10 0.2642
732.20 0.2641
732.30 0.2639
732.40 0.2638
732.50 0.2637
732.60 0.2635
732.70 0.2634
732.80 0.2633
732.90 0.2632
733.00 0.263
733.10 0.2629
733.20 0.2628
733.30 0.2626
733.40 0.2625
733.50 0.2624
733.60 0.2622
733.70 0.2621
733.80 0.262
733.90 0.2619
734.00 0.2617
734.10 0.2616
734.20 0.2615
734.30 0.2613
734.40 0.2612
734.50 0.2611
734.60 0.261
734.70 0.2608
734.80 0.2607
734.90 0.2606
735.00 0.2604
735.10 0.2603
735.20 0.2602
735.30 0.2601
735.40 0.2599
735.50 0.2598
735.60 0.2597
735.70 0.2595
735.80 0.2594
735.90 0.2593
736.00 0.2592
736.10 0.259
736.20 0.2589
736.30 0.2588
736.40 0.2587
736.50 0.2585
736.60 0.2584
736.70 0.2583
736.80 0.2581
736.90 0.258
737.00 0.2579
737.10 0.2578
737.20 0.2576
737.30 0.2575
737.40 0.2574
737.50 0.2573
737.60 0.2571
737.70 0.257
737.80 0.2569
737.90 0.2567
738.00 0.2566
738.10 0.2565
738.20 0.2564
738.30 0.2562
738.40 0.2561
738.50 0.256
738.60 0.2559
738.70 0.2557
738.80 0.2556
738.90 0.2555
739.00 0.2554
739.10 0.2552
739.20 0.2551
739.30 0.255
739.40 0.2549
739.50 0.2547
739.60 0.2546
739.70 0.2545
739.80 0.2544
739.90 0.2542
740.00 0.2541
740.10 0.254
740.20 0.2539
740.30 0.2537
740.40 0.2536
740.50 0.2535
740.60 0.2534
740.70 0.2532
740.80 0.2531
740.90 0.253
741.00 0.2529
741.10 0.2527
741.20 0.2526
741.30 0.2525
741.40 0.2524
741.50 0.2523
741.60 0.2521
741.70 0.252
741.80 0.2519
741.90 0.2518
742.00 0.2516
742.10 0.2515
742.20 0.2514
742.30 0.2513
742.40 0.2512
742.50 0.251
742.60 0.2509
742.70 0.2508
742.80 0.2507
742.90 0.2505
743.00 0.2504
743.10 0.2503
743.20 0.2502
743.30 0.2501
743.40 0.2499
743.50 0.2498
743.60 0.2497
743.70 0.2496
743.80 0.2494
743.90 0.2493
744.00 0.2492
744.10 0.2491
744.20 0.249
744.30 0.2488
744.40 0.2487
744.50 0.2486
744.60 0.2485
744.70 0.2484
744.80 0.2482
744.90 0.2481
745.00 0.248
745.10 0.2479
745.20 0.2477
745.30 0.2476
745.40 0.2475
745.50 0.2474
745.60 0.2473
745.70 0.2471
745.80 0.247
745.90 0.2469
746.00 0.2468
746.10 0.2467
746.20 0.2465
746.30 0.2464
746.40 0.2463
746.50 0.2462
746.60 0.2461
746.70 0.2459
746.80 0.2458
746.90 0.2457
747.00 0.2456
747.10 0.2455
747.20 0.2453
747.30 0.2452
747.40 0.2451
747.50 0.245
747.60 0.2449
747.70 0.2447
747.80 0.2446
747.90 0.2445
748.00 0.2444
748.10 0.2443
748.20 0.2442
748.30 0.244
748.40 0.2439
748.50 0.2438
748.60 0.2437
748.70 0.2436
748.80 0.2434
748.90 0.2433
749.00 0.2432
749.10 0.2431
749.20 0.243
749.30 0.2428
749.40 0.2427
749.50 0.2426
749.60 0.2425
749.70 0.2424
749.80 0.2423
749.90 0.2421
750.00 0.242
750.10 0.2419
750.20 0.2418
750.30 0.2417
750.40 0.2416
750.50 0.2414
750.60 0.2413
750.70 0.2412
750.80 0.2411
750.90 0.241
751.00 0.2409
751.10 0.2407
751.20 0.2406
751.30 0.2405
751.40 0.2404
751.50 0.2403
751.60 0.2402
751.70 0.24
751.80 0.2399
751.90 0.2398
752.00 0.2397
752.10 0.2396
752.20 0.2395
752.30 0.2394
752.40 0.2392
752.50 0.2391
752.60 0.239
752.70 0.2389
752.80 0.2388
752.90 0.2387
753.00 0.2386
753.10 0.2384
753.20 0.2383
753.30 0.2382
753.40 0.2381
753.50 0.238
753.60 0.2379
753.70 0.2378
753.80 0.2376
753.90 0.2375
754.00 0.2374
754.10 0.2373
754.20 0.2372
754.30 0.2371
754.40 0.237
754.50 0.2368
754.60 0.2367
754.70 0.2366
754.80 0.2365
754.90 0.2364
755.00 0.2363
755.10 0.2362
755.20 0.236
755.30 0.2359
755.40 0.2358
755.50 0.2357
755.60 0.2356
755.70 0.2355
755.80 0.2354
755.90 0.2352
756.00 0.2351
756.10 0.235
756.20 0.2349
756.30 0.2348
756.40 0.2347
756.50 0.2346
756.60 0.2345
756.70 0.2343
756.80 0.2342
756.90 0.2341
757.00 0.234
757.10 0.2339
757.20 0.2338
757.30 0.2337
757.40 0.2336
757.50 0.2334
757.60 0.2333
757.70 0.2332
757.80 0.2331
757.90 0.233
758.00 0.2329
758.10 0.2328
758.20 0.2327
758.30 0.2325
758.40 0.2324
758.50 0.2323
758.60 0.2322
758.70 0.2321
758.80 0.232
758.90 0.2319
759.00 0.2318
759.10 0.2317
759.20 0.2315
759.30 0.2314
759.40 0.2313
759.50 0.2312
759.60 0.2311
759.70 0.231
759.80 0.2309
759.90 0.2308
760.00 0.2306
760.10 0.2305
760.20 0.2304
760.30 0.2303
760.40 0.2302
760.50 0.2301
760.60 0.23
760.70 0.2299
760.80 0.2298
760.90 0.2297
761.00 0.2296
761.10 0.2294
761.20 0.2293
761.30 0.2292
761.40 0.2291
761.50 0.229
761.60 0.2289
761.70 0.2288
761.80 0.2287
761.90 0.2286
762.00 0.2285
762.10 0.2284
762.20 0.2282
762.30 0.2281
762.40 0.228
762.50 0.2279
762.60 0.2278
762.70 0.2277
762.80 0.2276
762.90 0.2275
763.00 0.2274
763.10 0.2273
763.20 0.2272
763.30 0.2271
763.40 0.227
763.50 0.2268
763.60 0.2267
763.70 0.2266
763.80 0.2265
763.90 0.2264
764.00 0.2263
764.10 0.2262
764.20 0.2261
764.30 0.226
764.40 0.2259
764.50 0.2258
764.60 0.2257
764.70 0.2256
764.80 0.2254
764.90 0.2253
765.00 0.2252
765.10 0.2251
765.20 0.225
765.30 0.2249
765.40 0.2248
765.50 0.2247
765.60 0.2246
765.70 0.2245
765.80 0.2244
765.90 0.2243
766.00 0.2242
766.10 0.2241
766.20 0.224
766.30 0.2238
766.40 0.2237
766.50 0.2236
766.60 0.2235
766.70 0.2234
766.80 0.2233
766.90 0.2232
767.00 0.2231
767.10 0.223
767.20 0.2229
767.30 0.2228
767.40 0.2227
767.50 0.2226
767.60 0.2225
767.70 0.2224
767.80 0.2223
767.90 0.2221
768.00 0.222
768.10 0.2219
768.20 0.2218
768.30 0.2217
768.40 0.2216
768.50 0.2215
768.60 0.2214
768.70 0.2213
768.80 0.2212
768.90 0.2211
769.00 0.221
769.10 0.2209
769.20 0.2208
769.30 0.2207
769.40 0.2206
769.50 0.2205
769.60 0.2204
769.70 0.2203
769.80 0.2201
769.90 0.22
770.00 0.2199
770.10 0.2198
770.20 0.2197
770.30 0.2196
770.40 0.2195
770.50 0.2194
770.60 0.2193
770.70 0.2192
770.80 0.2191
770.90 0.219
771.00 0.2189
771.10 0.2188
771.20 0.2187
771.30 0.2186
771.40 0.2185
771.50 0.2184
771.60 0.2183
771.70 0.2182
771.80 0.2181
771.90 0.218
772.00 0.2179
772.10 0.2178
772.20 0.2177
772.30 0.2176
772.40 0.2175
772.50 0.2174
772.60 0.2173
772.70 0.2172
772.80 0.2171
772.90 0.217
773.00 0.2169
773.10 0.2168
773.20 0.2167
773.30 0.2166
773.40 0.2165
773.50 0.2164
773.60 0.2163
773.70 0.2161
773.80 0.216
773.90 0.2159
774.00 0.2158
774.10 0.2157
774.20 0.2156
774.30 0.2155
774.40 0.2154
774.50 0.2153
774.60 0.2152
774.70 0.2151
774.80 0.215
774.90 0.2149
775.00 0.2148
775.10 0.2147
775.20 0.2146
775.30 0.2145
775.40 0.2144
775.50 0.2143
775.60 0.2142
775.70 0.2141
775.80 0.214
775.90 0.2139
776.00 0.2138
776.10 0.2137
776.20 0.2136
776.30 0.2135
776.40 0.2134
776.50 0.2133
776.60 0.2132
776.70 0.2131
776.80 0.213
776.90 0.2129
777.00 0.2128
777.10 0.2127
777.20 0.2126
777.30 0.2125
777.40 0.2124
777.50 0.2123
777.60 0.2122
777.70 0.2121
777.80 0.212
777.90 0.2119
778.00 0.2118
778.10 0.2117
778.20 0.2116
778.30 0.2115
778.40 0.2114
778.50 0.2113
778.60 0.2112
778.70 0.2111
778.80 0.211
778.90 0.2109
779.00 0.2108
779.10 0.2107
779.20 0.2106
779.30 0.2105
779.40 0.2104
779.50 0.2103
779.60 0.2102
779.70 0.2101
779.80 0.21
779.90 0.2099
780.00 0.2098
780.10 0.2097
780.20 0.2096
780.30 0.2095
780.40 0.2095
780.50 0.2094
780.60 0.2093
780.70 0.2092
780.80 0.2091
780.90 0.209
781.00 0.2089
781.10 0.2088
781.20 0.2087
781.30 0.2086
781.40 0.2085
781.50 0.2084
781.60 0.2083
781.70 0.2082
781.80 0.2081
781.90 0.208
782.00 0.2079
782.10 0.2078
782.20 0.2077
782.30 0.2076
782.40 0.2075
782.50 0.2074
782.60 0.2073
782.70 0.2072
782.80 0.2071
782.90 0.207
783.00 0.2069
783.10 0.2068
783.20 0.2067
783.30 0.2067
783.40 0.2066
783.50 0.2065
783.60 0.2064
783.70 0.2063
783.80 0.2062
783.90 0.2061
784.00 0.206
784.10 0.2059
784.20 0.2058
784.30 0.2057
784.40 0.2056
784.50 0.2055
784.60 0.2054
784.70 0.2053
784.80 0.2052
784.90 0.2051
785.00 0.205
785.10 0.2049
785.20 0.2048
785.30 0.2047
785.40 0.2046
785.50 0.2046
785.60 0.2045
785.70 0.2044
785.80 0.2043
785.90 0.2042
786.00 0.2041
786.10 0.204
786.20 0.2039
786.30 0.2038
786.40 0.2037
786.50 0.2036
786.60 0.2035
786.70 0.2034
786.80 0.2033
786.90 0.2032
787.00 0.2031
787.10 0.203
787.20 0.2029
787.30 0.2028
787.40 0.2028
787.50 0.2027
787.60 0.2026
787.70 0.2025
787.80 0.2024
787.90 0.2023
788.00 0.2022
788.10 0.2021
788.20 0.202
788.30 0.2019
788.40 0.2018
788.50 0.2017
788.60 0.2016
788.70 0.2015
788.80 0.2014
788.90 0.2013
789.00 0.2013
789.10 0.2012
789.20 0.2011
789.30 0.201
789.40 0.2009
789.50 0.2008
789.60 0.2007
789.70 0.2006
789.80 0.2005
789.90 0.2004
790.00 0.2003
790.10 0.2002
790.20 0.2001
790.30 0.2
790.40 0.2
790.50 0.1999
790.60 0.1998
790.70 0.1997
790.80 0.1996
790.90 0.1995
791.00 0.1994
791.10 0.1993
791.20 0.1992
791.30 0.1991
791.40 0.199
791.50 0.1989
791.60 0.1989
791.70 0.1988
791.80 0.1987
791.90 0.1986
792.00 0.1985
792.10 0.1984
792.20 0.1983
792.30 0.1982
792.40 0.1981
792.50 0.198
792.60 0.1979
792.70 0.1979
792.80 0.1978
792.90 0.1977
793.00 0.1976
793.10 0.1975
793.20 0.1974
793.30 0.1973
793.40 0.1972
793.50 0.1971
793.60 0.197
793.70 0.1969
793.80 0.1969
793.90 0.1968
794.00 0.1967
794.10 0.1966
794.20 0.1965
794.30 0.1964
794.40 0.1963
794.50 0.1962
794.60 0.1961
794.70 0.196
794.80 0.196
794.90 0.1959
795.00 0.1958
795.10 0.1957
795.20 0.1956
795.30 0.1955
795.40 0.1954
795.50 0.1953
795.60 0.1952
795.70 0.1951
795.80 0.1951
795.90 0.195
796.00 0.1949
796.10 0.1948
796.20 0.1947
796.30 0.1946
796.40 0.1945
796.50 0.1944
796.60 0.1943
796.70 0.1943
796.80 0.1942
796.90 0.1941
797.00 0.194
797.10 0.1939
797.20 0.1938
797.30 0.1937
797.40 0.1936
797.50 0.1935
797.60 0.1935
797.70 0.1934
797.80 0.1933
797.90 0.1932
798.00 0.1931
798.10 0.193
798.20 0.1929
798.30 0.1928
798.40 0.1927
798.50 0.1927
798.60 0.1926
798.70 0.1925
798.80 0.1924
798.90 0.1923
799.00 0.1922
799.10 0.1921
799.20 0.192
799.30 0.192
799.40 0.1919
799.50 0.1918
799.60 0.1917
799.70 0.1916
799.80 0.1915
799.90 0.1914
800.00 0.1913
800.10 0.1912
800.20 0.1912
800.30 0.1911
800.40 0.191
800.50 0.1909
800.60 0.1908
800.70 0.1907
800.80 0.1906
800.90 0.1906
801.00 0.1905
801.10 0.1904
801.20 0.1903
801.30 0.1902
801.40 0.1901
801.50 0.19
801.60 0.19
801.70 0.1899
801.80 0.1898
801.90 0.1897
802.00 0.1896
802.10 0.1895
802.20 0.1894
802.30 0.1893
802.40 0.1893
802.50 0.1892
802.60 0.1891
802.70 0.189
802.80 0.1889
802.90 0.1888
803.00 0.1887
803.10 0.1887
803.20 0.1886
803.30 0.1885
803.40 0.1884
803.50 0.1883
803.60 0.1882
803.70 0.1882
803.80 0.1881
803.90 0.188
804.00 0.1879
804.10 0.1878
804.20 0.1877
804.30 0.1876
804.40 0.1876
804.50 0.1875
804.60 0.1874
804.70 0.1873
804.80 0.1872
804.90 0.1871
805.00 0.187
805.10 0.187
805.20 0.1869
805.30 0.1868
805.40 0.1867
805.50 0.1866
805.60 0.1865
805.70 0.1865
805.80 0.1864
805.90 0.1863
806.00 0.1862
806.10 0.1861
806.20 0.186
806.30 0.1859
806.40 0.1859
806.50 0.1858
806.60 0.1857
806.70 0.1856
806.80 0.1855
806.90 0.1854
807.00 0.1854
807.10 0.1853
807.20 0.1852
807.30 0.1851
807.40 0.185
807.50 0.1849
807.60 0.1849
807.70 0.1848
807.80 0.1847
807.90 0.1846
808.00 0.1845
808.10 0.1844
808.20 0.1843
808.30 0.1843
808.40 0.1842
808.50 0.1841
808.60 0.184
808.70 0.1839
808.80 0.1838
808.90 0.1838
809.00 0.1837
809.10 0.1836
809.20 0.1835
809.30 0.1834
809.40 0.1833
809.50 0.1833
809.60 0.1832
809.70 0.1831
809.80 0.183
809.90 0.1829
810.00 0.1828
810.10 0.1828
810.20 0.1827
810.30 0.1826
810.40 0.1825
810.50 0.1824
810.60 0.1824
810.70 0.1823
810.80 0.1822
810.90 0.1821
811.00 0.182
811.10 0.182
811.20 0.1819
811.30 0.1818
811.40 0.1817
811.50 0.1816
811.60 0.1815
811.70 0.1815
811.80 0.1814
811.90 0.1813
812.00 0.1812
812.10 0.1811
812.20 0.1811
812.30 0.181
812.40 0.1809
812.50 0.1808
812.60 0.1807
812.70 0.1807
812.80 0.1806
812.90 0.1805
813.00 0.1804
813.10 0.1803
813.20 0.1802
813.30 0.1802
813.40 0.1801
813.50 0.18
813.60 0.1799
813.70 0.1798
813.80 0.1798
813.90 0.1797
814.00 0.1796
814.10 0.1795
814.20 0.1794
814.30 0.1794
814.40 0.1793
814.50 0.1792
814.60 0.1791
814.70 0.179
814.80 0.179
814.90 0.1789
815.00 0.1788
815.10 0.1787
815.20 0.1786
815.30 0.1786
815.40 0.1785
815.50 0.1784
815.60 0.1783
815.70 0.1782
815.80 0.1782
815.90 0.1781
816.00 0.178
816.10 0.1779
816.20 0.1778
816.30 0.1778
816.40 0.1777
816.50 0.1776
816.60 0.1775
816.70 0.1774
816.80 0.1774
816.90 0.1773
817.00 0.1772
817.10 0.1771
817.20 0.177
817.30 0.177
817.40 0.1769
817.50 0.1768
817.60 0.1767
817.70 0.1766
817.80 0.1766
817.90 0.1765
818.00 0.1764
818.10 0.1763
818.20 0.1763
818.30 0.1762
818.40 0.1761
818.50 0.176
818.60 0.1759
818.70 0.1759
818.80 0.1758
818.90 0.1757
819.00 0.1756
819.10 0.1755
819.20 0.1755
819.30 0.1754
819.40 0.1753
819.50 0.1752
819.60 0.1751
819.70 0.1751
819.80 0.175
819.90 0.1749
820.00 0.1748
820.10 0.1748
820.20 0.1747
820.30 0.1746
820.40 0.1745
820.50 0.1744
820.60 0.1744
820.70 0.1743
820.80 0.1742
820.90 0.1741
821.00 0.1741
821.10 0.174
821.20 0.1739
821.30 0.1738
821.40 0.1737
821.50 0.1737
821.60 0.1736
821.70 0.1735
821.80 0.1734
821.90 0.1734
822.00 0.1733
822.10 0.1732
822.20 0.1731
822.30 0.1731
822.40 0.173
822.50 0.1729
822.60 0.1728
822.70 0.1727
822.80 0.1727
822.90 0.1726
823.00 0.1725
823.10 0.1724
823.20 0.1724
823.30 0.1723
823.40 0.1722
823.50 0.1721
823.60 0.1721
823.70 0.172
823.80 0.1719
823.90 0.1718
824.00 0.1718
824.10 0.1717
824.20 0.1716
824.30 0.1715
824.40 0.1714
824.50 0.1714
824.60 0.1713
824.70 0.1712
824.80 0.1711
824.90 0.1711
825.00 0.171
825.10 0.1709
825.20 0.1708
825.30 0.1708
825.40 0.1707
825.50 0.1706
825.60 0.1705
825.70 0.1705
825.80 0.1704
825.90 0.1703
826.00 0.1702
826.10 0.1702
826.20 0.1701
826.30 0.17
826.40 0.1699
826.50 0.1699
826.60 0.1698
826.70 0.1697
826.80 0.1696
826.90 0.1696
827.00 0.1695
827.10 0.1694
827.20 0.1693
827.30 0.1693
827.40 0.1692
827.50 0.1691
827.60 0.169
827.70 0.169
827.80 0.1689
827.90 0.1688
828.00 0.1687
828.10 0.1687
828.20 0.1686
828.30 0.1685
828.40 0.1684
828.50 0.1684
828.60 0.1683
828.70 0.1682
828.80 0.1681
828.90 0.1681
829.00 0.168
829.10 0.1679
829.20 0.1678
829.30 0.1678
829.40 0.1677
829.50 0.1676
829.60 0.1675
829.70 0.1675
829.80 0.1674
829.90 0.1673
830.00 0.1672
830.10 0.1672
830.20 0.1671
830.30 0.167
830.40 0.167
830.50 0.1669
830.60 0.1668
830.70 0.1667
830.80 0.1667
830.90 0.1666
831.00 0.1665
831.10 0.1664
831.20 0.1664
831.30 0.1663
831.40 0.1662
831.50 0.1661
831.60 0.1661
831.70 0.166
831.80 0.1659
831.90 0.1658
832.00 0.1658
832.10 0.1657
832.20 0.1656
832.30 0.1656
832.40 0.1655
832.50 0.1654
832.60 0.1653
832.70 0.1653
832.80 0.1652
832.90 0.1651
833.00 0.165
833.10 0.165
833.20 0.1649
833.30 0.1648
833.40 0.1647
833.50 0.1647
833.60 0.1646
833.70 0.1645
833.80 0.1644
833.90 0.1644
834.00 0.1643
834.10 0.1642
834.20 0.1641
834.30 0.1641
834.40 0.164
834.50 0.1639
834.60 0.1638
834.70 0.1638
834.80 0.1637
834.90 0.1636
835.00 0.1635
835.10 0.1635
835.20 0.1634
835.30 0.1633
835.40 0.1632
835.50 0.1632
835.60 0.1631
835.70 0.163
835.80 0.1629
835.90 0.1629
836.00 0.1628
836.10 0.1627
836.20 0.1626
836.30 0.1626
836.40 0.1625
836.50 0.1624
836.60 0.1624
836.70 0.1623
836.80 0.1622
836.90 0.1621
837.00 0.1621
837.10 0.162
837.20 0.1619
837.30 0.1618
837.40 0.1618
837.50 0.1617
837.60 0.1616
837.70 0.1616
837.80 0.1615
837.90 0.1614
838.00 0.1613
838.10 0.1613
838.20 0.1612
838.30 0.1611
838.40 0.161
838.50 0.161
838.60 0.1609
838.70 0.1608
838.80 0.1608
838.90 0.1607
839.00 0.1606
839.10 0.1605
839.20 0.1605
839.30 0.1604
839.40 0.1603
839.50 0.1603
839.60 0.1602
839.70 0.1601
839.80 0.16
839.90 0.16
840.00 0.1599
840.10 0.1598
840.20 0.1598
840.30 0.1597
840.40 0.1596
840.50 0.1595
840.60 0.1595
840.70 0.1594
840.80 0.1593
840.90 0.1593
841.00 0.1592
841.10 0.1591
841.20 0.159
841.30 0.159
841.40 0.1589
841.50 0.1588
841.60 0.1588
841.70 0.1587
841.80 0.1586
841.90 0.1585
842.00 0.1585
842.10 0.1584
842.20 0.1583
842.30 0.1583
842.40 0.1582
842.50 0.1581
842.60 0.158
842.70 0.158
842.80 0.1579
842.90 0.1578
843.00 0.1578
843.10 0.1577
843.20 0.1576
843.30 0.1576
843.40 0.1575
843.50 0.1574
843.60 0.1573
843.70 0.1573
843.80 0.1572
843.90 0.1571
844.00 0.1571
844.10 0.157
844.20 0.1569
844.30 0.1569
844.40 0.1568
844.50 0.1567
844.60 0.1566
844.70 0.1566
844.80 0.1565
844.90 0.1564
845.00 0.1564
845.10 0.1563
845.20 0.1562
845.30 0.1562
845.40 0.1561
845.50 0.156
845.60 0.1559
845.70 0.1559
845.80 0.1558
845.90 0.1557
846.00 0.1557
846.10 0.1556
846.20 0.1555
846.30 0.1555
846.40 0.1554
846.50 0.1553
846.60 0.1553
846.70 0.1552
846.80 0.1551
846.90 0.155
847.00 0.155
847.10 0.1549
847.20 0.1548
847.30 0.1548
847.40 0.1547
847.50 0.1546
847.60 0.1546
847.70 0.1545
847.80 0.1544
847.90 0.1544
848.00 0.1543
848.10 0.1542
848.20 0.1542
848.30 0.1541
848.40 0.154
848.50 0.154
848.60 0.1539
848.70 0.1538
848.80 0.1537
848.90 0.1537
849.00 0.1536
849.10 0.1535
849.20 0.1535
849.30 0.1534
849.40 0.1533
849.50 0.1533
849.60 0.1532
849.70 0.1531
849.80 0.1531
849.90 0.153
850.00 0.1529
850.10 0.1529
850.20 0.1528
850.30 0.1527
850.40 0.1527
850.50 0.1526
850.60 0.1525
850.70 0.1525
850.80 0.1524
850.90 0.1523
851.00 0.1523
851.10 0.1522
851.20 0.1521
851.30 0.1521
851.40 0.152
851.50 0.1519
851.60 0.1519
851.70 0.1518
851.80 0.1517
851.90 0.1517
852.00 0.1516
852.10 0.1515
852.20 0.1515
852.30 0.1514
852.40 0.1513
852.50 0.1513
852.60 0.1512
852.70 0.1511
852.80 0.1511
852.90 0.151
853.00 0.1509
853.10 0.1509
853.20 0.1508
853.30 0.1507
853.40 0.1507
853.50 0.1506
853.60 0.1505
853.70 0.1505
853.80 0.1504
853.90 0.1503
854.00 0.1503
854.10 0.1502
854.20 0.1501
854.30 0.1501
854.40 0.15
854.50 0.1499
854.60 0.1499
854.70 0.1498
854.80 0.1497
854.90 0.1497
855.00 0.1496
855.10 0.1495
855.20 0.1495
855.30 0.1494
855.40 0.1493
855.50 0.1493
855.60 0.1492
855.70 0.1491
855.80 0.1491
855.90 0.149
856.00 0.149
856.10 0.1489
856.20 0.1488
856.30 0.1488
856.40 0.1487
856.50 0.1486
856.60 0.1486
856.70 0.1485
856.80 0.1484
856.90 0.1484
857.00 0.1483
857.10 0.1482
857.20 0.1482
857.30 0.1481
857.40 0.1481
857.50 0.148
857.60 0.1479
857.70 0.1479
857.80 0.1478
857.90 0.1477
858.00 0.1477
858.10 0.1476
858.20 0.1475
858.30 0.1475
858.40 0.1474
858.50 0.1474
858.60 0.1473
858.70 0.1472
858.80 0.1472
858.90 0.1471
859.00 0.1471
859.10 0.147
859.20 0.1469
859.30 0.1469
859.40 0.1468
859.50 0.1467
859.60 0.1467
859.70 0.1466
859.80 0.1466
859.90 0.1465
860.00 0.1464
860.10 0.1464
860.20 0.1463
860.30 0.1462
860.40 0.1462
860.50 0.1461
860.60 0.1461
860.70 0.146
860.80 0.1459
860.90 0.1459
861.00 0.1458
861.10 0.1457
861.20 0.1457
861.30 0.1456
861.40 0.1456
861.50 0.1455
861.60 0.1454
861.70 0.1454
861.80 0.1453
861.90 0.1453
862.00 0.1452
862.10 0.1451
862.20 0.1451
862.30 0.145
862.40 0.1449
862.50 0.1449
862.60 0.1448
862.70 0.1448
862.80 0.1447
862.90 0.1446
863.00 0.1446
863.10 0.1445
863.20 0.1444
863.30 0.1444
863.40 0.1443
863.50 0.1443
863.60 0.1442
863.70 0.1441
863.80 0.1441
863.90 0.144
864.00 0.1439
864.10 0.1439
864.20 0.1438
864.30 0.1438
864.40 0.1437
864.50 0.1436
864.60 0.1436
864.70 0.1435
864.80 0.1434
864.90 0.1434
865.00 0.1433
865.10 0.1433
865.20 0.1432
865.30 0.1431
865.40 0.1431
865.50 0.143
865.60 0.1429
865.70 0.1429
865.80 0.1428
865.90 0.1428
866.00 0.1427
866.10 0.1426
866.20 0.1426
866.30 0.1425
866.40 0.1425
866.50 0.1424
866.60 0.1423
866.70 0.1423
866.80 0.1422
866.90 0.1421
867.00 0.1421
867.10 0.142
867.20 0.142
867.30 0.1419
867.40 0.1418
867.50 0.1418
867.60 0.1417
867.70 0.1417
867.80 0.1416
867.90 0.1416
868.00 0.1415
868.10 0.1414
868.20 0.1414
868.30 0.1413
868.40 0.1413
868.50 0.1412
868.60 0.1411
868.70 0.1411
868.80 0.141
868.90 0.141
869.00 0.1409
869.10 0.1408
869.20 0.1408
869.30 0.1407
869.40 0.1407
869.50 0.1406
869.60 0.1405
869.70 0.1405
869.80 0.1404
869.90 0.1404
870.00 0.1403
870.10 0.1402
870.20 0.1402
870.30 0.1401
870.40 0.1401
870.50 0.14
870.60 0.14
870.70 0.1399
870.80 0.1398
870.90 0.1398
871.00 0.1397
871.10 0.1397
871.20 0.1396
871.30 0.1395
871.40 0.1395
871.50 0.1394
871.60 0.1394
871.70 0.1393
871.80 0.1392
871.90 0.1392
872.00 0.1391
872.10 0.1391
872.20 0.139
872.30 0.139
872.40 0.1389
872.50 0.1388
872.60 0.1388
872.70 0.1387
872.80 0.1387
872.90 0.1386
873.00 0.1386
873.10 0.1385
873.20 0.1384
873.30 0.1384
873.40 0.1383
873.50 0.1383
873.60 0.1382
873.70 0.1382
873.80 0.1381
873.90 0.138
874.00 0.138
874.10 0.1379
874.20 0.1379
874.30 0.1378
874.40 0.1377
874.50 0.1377
874.60 0.1376
874.70 0.1376
874.80 0.1375
874.90 0.1375
875.00 0.1374
875.10 0.1373
875.20 0.1373
875.30 0.1372
875.40 0.1372
875.50 0.1371
875.60 0.1371
875.70 0.137
875.80 0.1369
875.90 0.1369
876.00 0.1368
876.10 0.1368
876.20 0.1367
876.30 0.1367
876.40 0.1366
876.50 0.1365
876.60 0.1365
876.70 0.1364
876.80 0.1364
876.90 0.1363
877.00 0.1363
877.10 0.1362
877.20 0.1362
877.30 0.1361
877.40 0.136
877.50 0.136
877.60 0.1359
877.70 0.1359
877.80 0.1358
877.90 0.1358
878.00 0.1357
878.10 0.1357
878.20 0.1356
878.30 0.1355
878.40 0.1355
878.50 0.1354
878.60 0.1354
878.70 0.1353
878.80 0.1353
878.90 0.1352
879.00 0.1352
879.10 0.1351
879.20 0.135
879.30 0.135
879.40 0.1349
879.50 0.1349
879.60 0.1348
879.70 0.1348
879.80 0.1347
879.90 0.1347
880.00 0.1346
880.10 0.1346
880.20 0.1345
880.30 0.1344
880.40 0.1344
880.50 0.1343
880.60 0.1343
880.70 0.1342
880.80 0.1342
880.90 0.1341
881.00 0.1341
881.10 0.134
881.20 0.134
881.30 0.1339
881.40 0.1338
881.50 0.1338
881.60 0.1337
881.70 0.1337
881.80 0.1336
881.90 0.1336
882.00 0.1335
882.10 0.1335
882.20 0.1334
882.30 0.1334
882.40 0.1333
882.50 0.1332
882.60 0.1332
882.70 0.1331
882.80 0.1331
882.90 0.133
883.00 0.133
883.10 0.1329
883.20 0.1329
883.30 0.1328
883.40 0.1328
883.50 0.1327
883.60 0.1326
883.70 0.1326
883.80 0.1325
883.90 0.1325
884.00 0.1324
884.10 0.1324
884.20 0.1323
884.30 0.1323
884.40 0.1322
884.50 0.1322
884.60 0.1321
884.70 0.132
884.80 0.132
884.90 0.1319
885.00 0.1319
885.10 0.1318
885.20 0.1318
885.30 0.1317
885.40 0.1317
885.50 0.1316
885.60 0.1316
885.70 0.1315
885.80 0.1314
885.90 0.1314
886.00 0.1313
886.10 0.1313
886.20 0.1312
886.30 0.1312
886.40 0.1311
886.50 0.1311
886.60 0.131
886.70 0.131
886.80 0.1309
886.90 0.1309
887.00 0.1308
887.10 0.1308
887.20 0.1307
887.30 0.1307
887.40 0.1306
887.50 0.1306
887.60 0.1305
887.70 0.1305
887.80 0.1304
887.90 0.1304
888.00 0.1303
888.10 0.1303
888.20 0.1302
888.30 0.1302
888.40 0.1301
888.50 0.1301
888.60 0.13
888.70 0.13
888.80 0.1299
888.90 0.1299
889.00 0.1298
889.10 0.1298
889.20 0.1297
889.30 0.1297
889.40 0.1296
889.50 0.1296
889.60 0.1295
889.70 0.1295
889.80 0.1294
889.90 0.1294
890.00 0.1293
890.10 0.1293
890.20 0.1292
890.30 0.1292
890.40 0.1291
890.50 0.1291
890.60 0.129
890.70 0.129
890.80 0.1289
890.90 0.1289
891.00 0.1288
891.10 0.1288
891.20 0.1287
891.30 0.1287
891.40 0.1286
891.50 0.1286
891.60 0.1285
891.70 0.1285
891.80 0.1284
891.90 0.1284
892.00 0.1283
892.10 0.1283
892.20 0.1282
892.30 0.1282
892.40 0.1281
892.50 0.1281
892.60 0.128
892.70 0.128
892.80 0.1279
892.90 0.1279
893.00 0.1278
893.10 0.1278
893.20 0.1277
893.30 0.1276
893.40 0.1276
893.50 0.1275
893.60 0.1275
893.70 0.1274
893.80 0.1274
893.90 0.1273
894.00 0.1273
894.10 0.1272
894.20 0.1272
894.30 0.1271
894.40 0.1271
894.50 0.127
894.60 0.127
894.70 0.1269
894.80 0.1269
894.90 0.1268
895.00 0.1268
895.10 0.1267
895.20 0.1266
895.30 0.1266
895.40 0.1265
895.50 0.1265
895.60 0.1264
895.70 0.1264
895.80 0.1263
895.90 0.1263
896.00 0.1262
896.10 0.1262
896.20 0.1261
896.30 0.1261
896.40 0.126
896.50 0.126
896.60 0.1259
896.70 0.1259
896.80 0.1258
896.90 0.1258
897.00 0.1257
897.10 0.1257
897.20 0.1256
897.30 0.1255
897.40 0.1255
897.50 0.1254
897.60 0.1254
897.70 0.1253
897.80 0.1253
897.90 0.1252
898.00 0.1252
898.10 0.1251
898.20 0.1251
898.30 0.125
898.40 0.125
898.50 0.1249
898.60 0.1249
898.70 0.1248
898.80 0.1247
898.90 0.1247
899.00 0.1246
899.10 0.1246
899.20 0.1245
899.30 0.1245
899.40 0.1244
899.50 0.1244
899.60 0.1243
899.70 0.1243
899.80 0.1242
899.90 0.1242
900.00 0.1241
900.10 0.1241
900.20 0.124
900.30 0.1239
900.40 0.1239
900.50 0.1238
900.60 0.1238
900.70 0.1237
900.80 0.1237
900.90 0.1236
901.00 0.1236
901.10 0.1235
901.20 0.1235
901.30 0.1234
901.40 0.1234
901.50 0.1233
901.60 0.1233
901.70 0.1232
901.80 0.1232
901.90 0.1231
902.00 0.1231
902.10 0.123
902.20 0.123
902.30 0.1229
902.40 0.1229
902.50 0.1229
902.60 0.1228
902.70 0.1228
902.80 0.1227
902.90 0.1227
903.00 0.1227
903.10 0.1226
903.20 0.1226
903.30 0.1225
903.40 0.1225
903.50 0.1225
903.60 0.1224
903.70 0.1224
903.80 0.1223
903.90 0.1223
904.00 0.1223
904.10 0.1222
904.20 0.1222
904.30 0.1221
904.40 0.1221
904.50 0.1221
904.60 0.122
904.70 0.122
904.80 0.1219
904.90 0.1219
905.00 0.1219
905.10 0.1218
905.20 0.1218
905.30 0.1217
905.40 0.1217
905.50 0.1217
905.60 0.1216
905.70 0.1216
905.80 0.1216
905.90 0.1215
906.00 0.1215
906.10 0.1214
906.20 0.1214
906.30 0.1214
906.40 0.1213
906.50 0.1213
906.60 0.1212
906.70 0.1212
906.80 0.1212
906.90 0.1211
907.00 0.1211
907.10 0.121
907.20 0.121
907.30 0.1209
907.40 0.1209
907.50 0.1209
907.60 0.1208
907.70 0.1208
907.80 0.1207
907.90 0.1207
908.00 0.1206
908.10 0.1206
908.20 0.1205
908.30 0.1205
908.40 0.1204
908.50 0.1204
908.60 0.1203
908.70 0.1203
908.80 0.1203
908.90 0.1202
909.00 0.1202
909.10 0.1201
909.20 0.1201
909.30 0.12
909.40 0.12
909.50 0.1199
909.60 0.1199
909.70 0.1198
909.80 0.1198
909.90 0.1198
910.00 0.1197
910.10 0.1197
910.20 0.1196
910.30 0.1196
910.40 0.1195
910.50 0.1195
910.60 0.1194
910.70 0.1194
910.80 0.1193
910.90 0.1193
911.00 0.1193
911.10 0.1192
911.20 0.1192
911.30 0.1191
911.40 0.1191
911.50 0.119
911.60 0.119
911.70 0.1189
911.80 0.1189
911.90 0.1188
912.00 0.1188
912.10 0.1187
912.20 0.1187
912.30 0.1186
912.40 0.1186
912.50 0.1185
912.60 0.1185
912.70 0.1184
912.80 0.1184
912.90 0.1183
913.00 0.1183
913.10 0.1182
913.20 0.1181
913.30 0.1181
913.40 0.118
913.50 0.118
913.60 0.1179
913.70 0.1179
913.80 0.1178
913.90 0.1178
914.00 0.1177
914.10 0.1177
914.20 0.1176
914.30 0.1175
914.40 0.1175
914.50 0.1174
914.60 0.1174
914.70 0.1173
914.80 0.1173
914.90 0.1172
915.00 0.1172
915.10 0.1171
915.20 0.1171
915.30 0.117
915.40 0.1169
915.50 0.1169
915.60 0.1168
915.70 0.1168
915.80 0.1167
915.90 0.1167
916.00 0.1166
916.10 0.1166
916.20 0.1165
916.30 0.1165
916.40 0.1164
916.50 0.1164
916.60 0.1163
916.70 0.1162
916.80 0.1162
916.90 0.1161
917.00 0.1161
917.10 0.116
917.20 0.116
917.30 0.1159
917.40 0.1158
917.50 0.1158
917.60 0.1157
917.70 0.1157
917.80 0.1156
917.90 0.1155
918.00 0.1155
918.10 0.1154
918.20 0.1154
918.30 0.1153
918.40 0.1152
918.50 0.1152
918.60 0.1151
918.70 0.1151
918.80 0.115
918.90 0.1149
919.00 0.1149
919.10 0.1148
919.20 0.1148
919.30 0.1147
919.40 0.1146
919.50 0.1146
919.60 0.1145
919.70 0.1145
919.80 0.1144
919.90 0.1143
920.00 0.1143
920.10 0.1142
920.20 0.1142
920.30 0.1141
920.40 0.114
920.50 0.114
920.60 0.1139
920.70 0.1139
920.80 0.1138
920.90 0.1137
921.00 0.1137
921.10 0.1136
921.20 0.1136
921.30 0.1135
921.40 0.1134
921.50 0.1134
921.60 0.1133
921.70 0.1133
921.80 0.1132
921.90 0.1131
922.00 0.1131
922.10 0.1131
922.20 0.113
922.30 0.113
922.40 0.113
922.50 0.1129
922.60 0.1129
922.70 0.1129
922.80 0.1129
922.90 0.1128
923.00 0.1128
923.10 0.1128
923.20 0.1127
923.30 0.1127
923.40 0.1127
923.50 0.1127
923.60 0.1126
923.70 0.1126
923.80 0.1126
923.90 0.1125
924.00 0.1125
924.10 0.1125
924.20 0.1125
924.30 0.1124
924.40 0.1124
924.50 0.1124
924.60 0.1123
924.70 0.1123
924.80 0.1123
924.90 0.1123
925.00 0.1122
925.10 0.1122
925.20 0.1122
925.30 0.1122
925.40 0.1121
925.50 0.1121
925.60 0.1121
925.70 0.112
925.80 0.112
925.90 0.112
926.00 0.112
926.10 0.1119
926.20 0.1119
926.30 0.1119
926.40 0.1118
926.50 0.1118
926.60 0.1118
926.70 0.1118
926.80 0.1117
926.90 0.1117
927.00 0.1117
927.10 0.1117
927.20 0.1116
927.30 0.1116
927.40 0.1116
927.50 0.1115
927.60 0.1115
927.70 0.1115
927.80 0.1115
927.90 0.1114
928.00 0.1114
928.10 0.1114
928.20 0.1114
928.30 0.1113
928.40 0.1113
928.50 0.1113
928.60 0.1113
928.70 0.1112
928.80 0.1112
928.90 0.1112
929.00 0.1112
929.10 0.1111
929.20 0.1111
929.30 0.1111
929.40 0.1111
929.50 0.111
929.60 0.111
929.70 0.111
929.80 0.1109
929.90 0.1109
930.00 0.1109
930.10 0.1109
930.20 0.1108
930.30 0.1108
930.40 0.1108
930.50 0.1108
930.60 0.1107
930.70 0.1107
930.80 0.1107
930.90 0.1107
931.00 0.1106
931.10 0.1106
931.20 0.1106
931.30 0.1106
931.40 0.1105
931.50 0.1105
931.60 0.1105
931.70 0.1105
931.80 0.1104
931.90 0.1104
932.00 0.1104
932.10 0.1103
932.20 0.1103
932.30 0.1103
932.40 0.1102
932.50 0.1102
932.60 0.1102
932.70 0.1101
932.80 0.1101
932.90 0.1101
933.00 0.11
933.10 0.11
933.20 0.11
933.30 0.1099
933.40 0.1099
933.50 0.1099
933.60 0.1098
933.70 0.1098
933.80 0.1098
933.90 0.1097
934.00 0.1097
934.10 0.1097
934.20 0.1096
934.30 0.1096
934.40 0.1096
934.50 0.1095
934.60 0.1095
934.70 0.1094
934.80 0.1094
934.90 0.1094
935.00 0.1093
935.10 0.1093
935.20 0.1092
935.30 0.1092
935.40 0.1092
935.50 0.1091
935.60 0.1091
935.70 0.109
935.80 0.109
935.90 0.109
936.00 0.1089
936.10 0.1089
936.20 0.1088
936.30 0.1088
936.40 0.1088
936.50 0.1087
936.60 0.1087
936.70 0.1086
936.80 0.1086
936.90 0.1086
937.00 0.1085
937.10 0.1085
937.20 0.1084
937.30 0.1084
937.40 0.1083
937.50 0.1083
937.60 0.1082
937.70 0.1082
937.80 0.1082
937.90 0.1081
938.00 0.1081
938.10 0.108
938.20 0.108
938.30 0.1079
938.40 0.1079
938.50 0.1078
938.60 0.1078
938.70 0.1077
938.80 0.1077
938.90 0.1076
939.00 0.1076
939.10 0.1075
939.20 0.1075
939.30 0.1074
939.40 0.1074
939.50 0.1073
939.60 0.1073
939.70 0.1072
939.80 0.1072
939.90 0.1071
940.00 0.1071
940.10 0.1071
940.20 0.107
940.30 0.107
940.40 0.1069
940.50 0.1068
940.60 0.1068
940.70 0.1067
940.80 0.1067
940.90 0.1066
941.00 0.1066
941.10 0.1065
941.20 0.1065
941.30 0.1064
941.40 0.1064
941.50 0.1063
941.60 0.1063
941.70 0.1062
941.80 0.1061
941.90 0.1061
942.00 0.106
942.10 0.106
942.20 0.1059
942.30 0.1059
942.40 0.1058
942.50 0.1057
942.60 0.1057
942.70 0.1056
942.80 0.1056
942.90 0.1055
943.00 0.1054
943.10 0.1054
943.20 0.1053
943.30 0.1053
943.40 0.1052
943.50 0.1051
943.60 0.1051
943.70 0.105
943.80 0.105
943.90 0.1049
944.00 0.1049
944.10 0.1048
944.20 0.1047
944.30 0.1047
944.40 0.1046
944.50 0.1045
944.60 0.1045
944.70 0.1044
944.80 0.1044
944.90 0.1043
945.00 0.1042
945.10 0.1042
945.20 0.1041
945.30 0.104
945.40 0.104
945.50 0.1039
945.60 0.1038
945.70 0.1038
945.80 0.1037
945.90 0.1036
946.00 0.1036
946.10 0.1035
946.20 0.1034
946.30 0.1034
946.40 0.1033
946.50 0.1032
946.60 0.1031
946.70 0.1031
946.80 0.103
946.90 0.1029
947.00 0.1029
947.10 0.1028
947.20 0.1027
947.30 0.1027
947.40 0.1026
947.50 0.1025
947.60 0.1024
947.70 0.1024
947.80 0.1023
947.90 0.1022
948.00 0.1021
948.10 0.1021
948.20 0.102
948.30 0.1019
948.40 0.1018
948.50 0.1018
948.60 0.1017
948.70 0.1016
948.80 0.1016
948.90 0.1015
949.00 0.1014
949.10 0.1013
949.20 0.1013
949.30 0.1012
949.40 0.1011
949.50 0.101
949.60 0.1009
949.70 0.1009
949.80 0.1008
949.90 0.1007
950.00 0.1006
950.10 0.1006
950.20 0.1005
950.30 0.1004
950.40 0.1003
950.50 0.1002
950.60 0.1002
950.70 0.1001
950.80 0.1
950.90 0.09992
951.00 0.09984
951.10 0.09976
951.20 0.09968
951.30 0.0996
951.40 0.09952
951.50 0.09944
951.60 0.09936
951.70 0.09927
951.80 0.09919
951.90 0.09911
952.00 0.09903
952.10 0.09895
952.20 0.09886
952.30 0.09878
952.40 0.0987
952.50 0.09861
952.60 0.09853
952.70 0.09845
952.80 0.09837
952.90 0.09828
953.00 0.0982
953.10 0.09812
953.20 0.09804
953.30 0.09796
953.40 0.09787
953.50 0.09779
953.60 0.09771
953.70 0.09763
953.80 0.09755
953.90 0.09747
954.00 0.0974
954.10 0.09732
954.20 0.09724
954.30 0.09717
954.40 0.09711
954.50 0.09705
954.60 0.09701
954.70 0.09698
954.80 0.09698
954.90 0.09698
955.00 0.09699
955.10 0.09699
955.20 0.097
955.30 0.09701
955.40 0.09702
955.50 0.09703
955.60 0.09704
955.70 0.09706
955.80 0.09707
955.90 0.09708
956.00 0.0971
956.10 0.09711
956.20 0.09712
956.30 0.09714
956.40 0.09715
956.50 0.09717
956.60 0.09718
956.70 0.09719
956.80 0.09721
956.90 0.09722
957.00 0.09724
957.10 0.09725
957.20 0.09726
957.30 0.09728
957.40 0.09729
957.50 0.0973
957.60 0.09731
957.70 0.09732
957.80 0.09733
957.90 0.09734
958.00 0.09735
958.10 0.09736
958.20 0.09737
958.30 0.09738
958.40 0.09739
958.50 0.0974
958.60 0.09741
958.70 0.09743
958.80 0.09744
958.90 0.09745
959.00 0.09746
959.10 0.09747
959.20 0.09748
959.30 0.09749
959.40 0.09749
959.50 0.0975
959.60 0.0975
959.70 0.09751
959.80 0.09751
959.90 0.09752
960.00 0.09752
960.10 0.09753
960.20 0.09753
960.30 0.09754
960.40 0.09754
960.50 0.09755
960.60 0.09755
960.70 0.09756
960.80 0.09756
960.90 0.09757
961.00 0.09757
961.10 0.09758
961.20 0.09758
961.30 0.09759
961.40 0.09759
961.50 0.09759
961.60 0.09759
961.70 0.09759
961.80 0.09759
961.90 0.09759
962.00 0.09759
962.10 0.09759
962.20 0.09759
962.30 0.09759
962.40 0.09759
962.50 0.09758
962.60 0.09758
962.70 0.09758
962.80 0.09758
962.90 0.09757
963.00 0.09757
963.10 0.09757
963.20 0.09757
963.30 0.09757
963.40 0.09756
963.50 0.09755
963.60 0.09755
963.70 0.09754
963.80 0.09754
963.90 0.09753
964.00 0.09753
964.10 0.09752
964.20 0.09751
964.30 0.09751
964.40 0.0975
964.50 0.09749
964.60 0.09748
964.70 0.09747
964.80 0.09746
964.90 0.09745
965.00 0.09744
965.10 0.09743
965.20 0.09742
965.30 0.09741
965.40 0.0974
965.50 0.09739
965.60 0.09738
965.70 0.09737
965.80 0.09736
965.90 0.09735
966.00 0.09734
966.10 0.09733
966.20 0.09732
966.30 0.09731
966.40 0.0973
966.50 0.09728
966.60 0.09727
966.70 0.09726
966.80 0.09724
966.90 0.09723
967.00 0.09722
967.10 0.0972
967.20 0.09719
967.30 0.09717
967.40 0.09715
967.50 0.09714
967.60 0.09712
967.70 0.09711
967.80 0.09709
967.90 0.09707
968.00 0.09706
968.10 0.09704
968.20 0.09703
968.30 0.09701
968.40 0.09699
968.50 0.09697
968.60 0.09695
968.70 0.09693
968.80 0.09691
968.90 0.09689
969.00 0.09687
969.10 0.09685
969.20 0.09683
969.30 0.09681
969.40 0.09679
969.50 0.09677
969.60 0.09675
969.70 0.09673
969.80 0.09671
969.90 0.09669
970.00 0.09667
970.10 0.09665
970.20 0.09663
970.30 0.09661
970.40 0.09659
970.50 0.09657
970.60 0.09654
970.70 0.09652
970.80 0.0965
970.90 0.09647
971.00 0.09645
971.10 0.09642
971.20 0.0964
971.30 0.09638
971.40 0.09635
971.50 0.09633
971.60 0.09631
971.70 0.09628
971.80 0.09626
971.90 0.09624
972.00 0.09621
972.10 0.09618
972.20 0.09616
972.30 0.09613
972.40 0.0961
972.50 0.09607
972.60 0.09605
972.70 0.09602
972.80 0.09599
972.90 0.09596
973.00 0.09594
973.10 0.09591
973.20 0.09588
973.30 0.09585
973.40 0.09583
973.50 0.0958
973.60 0.09577
973.70 0.09574
973.80 0.09572
973.90 0.09569
974.00 0.09566
974.10 0.09563
974.20 0.09561
974.30 0.09558
974.40 0.09555
974.50 0.09552
974.60 0.09548
974.70 0.09545
974.80 0.09542
974.90 0.09539
975.00 0.09536
975.10 0.09532
975.20 0.09529
975.30 0.09526
975.40 0.09523
975.50 0.0952
975.60 0.09517
975.70 0.09513
975.80 0.0951
975.90 0.09507
976.00 0.09504
976.10 0.09501
976.20 0.09497
976.30 0.09494
976.40 0.09491
976.50 0.09488
976.60 0.09485
976.70 0.09482
976.80 0.09478
976.90 0.09475
977.00 0.09472
977.10 0.09468
977.20 0.09464
977.30 0.0946
977.40 0.09457
977.50 0.09453
977.60 0.09449
977.70 0.09445
977.80 0.09441
977.90 0.09437
978.00 0.09433
978.10 0.0943
978.20 0.09426
978.30 0.09422
978.40 0.09418
978.50 0.09414
978.60 0.0941
978.70 0.09407
978.80 0.09403
978.90 0.09399
979.00 0.09395
979.10 0.09391
979.20 0.09387
979.30 0.09384
979.40 0.0938
979.50 0.09376
979.60 0.09372
979.70 0.09368
979.80 0.09364
979.90 0.09361
980.00 0.09357
980.10 0.09353
980.20 0.09349
980.30 0.09345
980.40 0.09341
980.50 0.09338
980.60 0.09334
980.70 0.0933
980.80 0.09326
980.90 0.09322
981.00 0.09319
981.10 0.09315
981.20 0.09311
981.30 0.09307
981.40 0.09303
981.50 0.093
981.60 0.09296
981.70 0.09292
981.80 0.09288
981.90 0.09284
982.00 0.09281
982.10 0.09276
982.20 0.09272
982.30 0.09267
982.40 0.09263
982.50 0.09258
982.60 0.09253
982.70 0.09249
982.80 0.09244
982.90 0.0924
983.00 0.09235
983.10 0.09231
983.20 0.09226
983.30 0.09222
983.40 0.09217
983.50 0.09213
983.60 0.09208
983.70 0.09204
983.80 0.09199
983.90 0.09195
984.00 0.0919
984.10 0.09186
984.20 0.09181
984.30 0.09177
984.40 0.09173
984.50 0.09168
984.60 0.09164
984.70 0.09159
984.80 0.09154
984.90 0.09149
985.00 0.09144
985.10 0.09139
985.20 0.09134
985.30 0.09129
985.40 0.09123
985.50 0.09118
985.60 0.09113
985.70 0.09108
985.80 0.09103
985.90 0.09098
986.00 0.09093
986.10 0.09088
986.20 0.09083
986.30 0.09078
986.40 0.09073
986.50 0.09068
986.60 0.09063
986.70 0.09058
986.80 0.09053
986.90 0.09048
987.00 0.09043
987.10 0.09038
987.20 0.09032
987.30 0.09027
987.40 0.09022
987.50 0.09016
987.60 0.09011
987.70 0.09005
987.80 0.09
987.90 0.08994
988.00 0.08989
988.10 0.08983
988.20 0.08978
988.30 0.08972
988.40 0.08967
988.50 0.08961
988.60 0.08956
988.70 0.0895
988.80 0.08944
988.90 0.08938
989.00 0.08932
989.10 0.08926
989.20 0.0892
989.30 0.08914
989.40 0.08908
989.50 0.08902
989.60 0.08896
989.70 0.0889
989.80 0.08884
989.90 0.08878
990.00 0.08873
990.10 0.08867
990.20 0.08861
990.30 0.08855
990.40 0.08849
990.50 0.08843
990.60 0.08837
990.70 0.0883
990.80 0.08824
990.90 0.08818
991.00 0.08811
991.10 0.08805
991.20 0.08798
991.30 0.08792
991.40 0.08785
991.50 0.08779
991.60 0.08772
991.70 0.08766
991.80 0.08759
991.90 0.08753
992.00 0.08746
992.10 0.0874
992.20 0.08733
992.30 0.08726
992.40 0.08719
992.50 0.08712
992.60 0.08706
992.70 0.08698
992.80 0.08691
992.90 0.08684
993.00 0.08676
993.10 0.08669
993.20 0.08662
993.30 0.08654
993.40 0.08647
993.50 0.0864
993.60 0.08633
993.70 0.08625
993.80 0.08618
993.90 0.08611
994.00 0.08603
994.10 0.08596
994.20 0.08589
994.30 0.08582
994.40 0.08574
994.50 0.08567
994.60 0.0856
994.70 0.08552
994.80 0.08544
994.90 0.08536
995.00 0.08528
995.10 0.0852
995.20 0.08512
995.30 0.08505
995.40 0.08497
995.50 0.08489
995.60 0.08481
995.70 0.08473
995.80 0.08464
995.90 0.08456
996.00 0.08447
996.10 0.08439
996.20 0.0843
996.30 0.08422
996.40 0.08414
996.50 0.08405
996.60 0.08397
996.70 0.08388
996.80 0.0838
996.90 0.08372
997.00 0.08363
997.10 0.08354
997.20 0.08345
997.30 0.08336
997.40 0.08327
997.50 0.08319
997.60 0.0831
997.70 0.083
997.80 0.08291
997.90 0.08281
998.00 0.08272
998.10 0.08262
998.20 0.08252
998.30 0.08243
998.40 0.08233
998.50 0.08224
998.60 0.08214
998.70 0.08205
998.80 0.08195
998.90 0.08186
999.00 0.08176
999.10 0.08166
999.20 0.08157
999.30 0.08147
999.40 0.08138
999.50 0.08128
999.60 0.08119
999.70 0.08109
999.80 0.08098
999.90 0.08087
1000.00 0.08077
1000.10 0.08066
1000.20 0.08056
1000.30 0.08045
1000.40 0.08035
1000.50 0.08024
1000.60 0.08014
1000.70 0.08003
1000.80 0.07993
1000.90 0.07982
1001.00 0.07972
1001.10 0.07961
1001.20 0.07951
1001.30 0.0794
1001.40 0.0793
1001.50 0.07919
1001.60 0.07909
1001.70 0.07898
1001.80 0.07887
1001.90 0.07876
1002.00 0.07865
1002.10 0.07853
1002.20 0.07842
1002.30 0.07831
1002.40 0.0782
1002.50 0.07809
1002.60 0.07798
1002.70 0.07787
1002.80 0.07776
1002.90 0.07765
1003.00 0.07754
1003.10 0.07742
1003.20 0.07732
1003.30 0.07721
1003.40 0.07711
1003.50 0.077
1003.60 0.0769
1003.70 0.07679
1003.80 0.07669
1003.90 0.07659
1004.00 0.0765
1004.10 0.07641
1004.20 0.07632
1004.30 0.07624
1004.40 0.07617
1004.50 0.0761
1004.60 0.07605
1004.70 0.07603
1004.80 0.07602
1004.90 0.07601
1005.00 0.07599
1005.10 0.07596
1005.20 0.07594
1005.30 0.07591
1005.40 0.07589
1005.50 0.07591
1005.60 0.07594
1005.70 0.07598
1005.80 0.07601
1005.90 0.07605
1006.00 0.07608
1006.10 0.07612
1006.20 0.07617
1006.30 0.07622
1006.40 0.07628
1006.50 0.07633
1006.60 0.07638
1006.70 0.07644
1006.80 0.07649
1006.90 0.07655
1007.00 0.0766
1007.10 0.07666
1007.20 0.07671
1007.30 0.07677
1007.40 0.07683
1007.50 0.07689
1007.60 0.07694
1007.70 0.077
1007.80 0.07705
1007.90 0.0771
1008.00 0.07715
1008.10 0.0772
1008.20 0.07726
1008.30 0.07731
1008.40 0.07736
1008.50 0.07741
1008.60 0.07747
1008.70 0.07752
1008.80 0.07757
1008.90 0.07762
1009.00 0.07767
1009.10 0.07773
1009.20 0.07778
1009.30 0.07783
1009.40 0.07788
1009.50 0.07793
1009.60 0.07798
1009.70 0.07803
1009.80 0.07807
1009.90 0.07811
1010.00 0.07815
1010.10 0.07819
1010.20 0.07823
1010.30 0.07827
1010.40 0.07831
1010.50 0.07835
1010.60 0.07839
1010.70 0.07843
1010.80 0.07847
1010.90 0.07852
1011.00 0.07856
1011.10 0.0786
1011.20 0.07864
1011.30 0.07868
1011.40 0.07872
1011.50 0.07876
1011.60 0.0788
1011.70 0.07883
1011.80 0.07887
1011.90 0.0789
1012.00 0.07893
1012.10 0.07896
1012.20 0.07899
1012.30 0.07902
1012.40 0.07905
1012.50 0.07907
1012.60 0.0791
1012.70 0.07913
1012.80 0.07916
1012.90 0.07919
1013.00 0.07921
1013.10 0.07924
1013.20 0.07927
1013.30 0.0793
1013.40 0.07933
1013.50 0.07935
1013.60 0.07938
1013.70 0.0794
1013.80 0.07943
1013.90 0.07945
1014.00 0.07947
1014.10 0.07949
1014.20 0.07951
1014.30 0.07953
1014.40 0.07955
1014.50 0.07957
1014.60 0.07959
1014.70 0.07961
1014.80 0.07963
1014.90 0.07964
1015.00 0.07965
1015.10 0.07967
1015.20 0.07968
1015.30 0.0797
1015.40 0.07971
1015.50 0.07973
1015.60 0.07974
1015.70 0.07975
1015.80 0.07977
1015.90 0.07978
1016.00 0.0798
1016.10 0.07981
1016.20 0.07983
1016.30 0.07984
1016.40 0.07985
1016.50 0.07987
1016.60 0.07988
1016.70 0.07989
1016.80 0.0799
1016.90 0.07991
1017.00 0.07992
1017.10 0.07993
1017.20 0.07993
1017.30 0.07994
1017.40 0.07994
1017.50 0.07995
1017.60 0.07996
1017.70 0.07996
1017.80 0.07997
1017.90 0.07997
1018.00 0.07998
1018.10 0.07998
1018.20 0.07999
1018.30 0.08
1018.40 0.08
1018.50 0.08001
1018.60 0.08001
1018.70 0.08001
1018.80 0.08001
1018.90 0.08001
1019.00 0.08001
1019.10 0.08001
1019.20 0.08001
1019.30 0.08001
1019.40 0.08001
1019.50 0.08001
1019.60 0.08001
1019.70 0.08001
1019.80 0.08001
1019.90 0.08001
1020.00 0.08001
1020.10 0.08001
1020.20 0.08001
1020.30 0.08001
1020.40 0.08001
1020.50 0.08001
1020.60 0.08001
1020.70 0.08001
1020.80 0.08
1020.90 0.08
1021.00 0.07999
1021.10 0.07999
1021.20 0.07998
1021.30 0.07998
1021.40 0.07997
1021.50 0.07997
1021.60 0.07996
1021.70 0.07996
1021.80 0.07996
1021.90 0.07995
1022.00 0.07995
1022.10 0.07994
1022.20 0.07993
1022.30 0.07992
1022.40 0.07991
1022.50 0.0799
1022.60 0.07989
1022.70 0.07988
1022.80 0.07987
1022.90 0.07986
1023.00 0.07985
1023.10 0.07984
1023.20 0.07984
1023.30 0.07983
1023.40 0.07982
1023.50 0.07981
1023.60 0.0798
1023.70 0.07979
1023.80 0.07978
1023.90 0.07977
1024.00 0.07976
1024.10 0.07975
1024.20 0.07974
1024.30 0.07973
1024.40 0.07973
1024.50 0.07972
1024.60 0.07971
1024.70 0.07969
1024.80 0.07968
1024.90 0.07967
1025.00 0.07965
1025.10 0.07964
1025.20 0.07963
1025.30 0.07961
1025.40 0.0796
1025.50 0.07959
1025.60 0.07957
1025.70 0.07956
1025.80 0.07955
1025.90 0.07953
1026.00 0.07952
1026.10 0.0795
1026.20 0.07949
1026.30 0.07948
1026.40 0.07946
1026.50 0.07945
1026.60 0.07944
1026.70 0.07942
1026.80 0.07941
1026.90 0.0794
1027.00 0.07938
1027.10 0.07936
1027.20 0.07935
1027.30 0.07933
1027.40 0.07931
1027.50 0.07929
1027.60 0.07927
1027.70 0.07925
1027.80 0.07924
1027.90 0.07922
1028.00 0.0792
1028.10 0.07918
1028.20 0.07916
1028.30 0.07915
1028.40 0.07913
1028.50 0.07911
1028.60 0.07909
1028.70 0.07907
1028.80 0.07905
1028.90 0.07904
1029.00 0.07902
1029.10 0.079
1029.20 0.07898
1029.30 0.07896
1029.40 0.07895
1029.50 0.07893
1029.60 0.07891
1029.70 0.07889
1029.80 0.07887
1029.90 0.07885
1030.00 0.07884
1030.10 0.07882
1030.20 0.0788
1030.30 0.07878
1030.40 0.07876
1030.50 0.07875
1030.60 0.07873
1030.70 0.07871
1030.80 0.07869
1030.90 0.07867
1031.00 0.07866
1031.10 0.07864
1031.20 0.07862
1031.30 0.0786
1031.40 0.07858
1031.50 0.07857
1031.60 0.07855
1031.70 0.07853
1031.80 0.07851
1031.90 0.07849
1032.00 0.07848
1032.10 0.07845
1032.20 0.07843
1032.30 0.07841
1032.40 0.07839
1032.50 0.07836
1032.60 0.07834
1032.70 0.07832
1032.80 0.0783
1032.90 0.07827
1033.00 0.07825
1033.10 0.07823
1033.20 0.07821
1033.30 0.07819
1033.40 0.07816
1033.50 0.07814
1033.60 0.07812
1033.70 0.0781
1033.80 0.07807
1033.90 0.07805
1034.00 0.07803
1034.10 0.07801
1034.20 0.07799
1034.30 0.07796
1034.40 0.07794
1034.50 0.07792
1034.60 0.0779
1034.70 0.07788
1034.80 0.07785
1034.90 0.07783
1035.00 0.07781
1035.10 0.07779
1035.20 0.07776
1035.30 0.07774
1035.40 0.07772
1035.50 0.0777
1035.60 0.07768
1035.70 0.07765
1035.80 0.07763
1035.90 0.07761
1036.00 0.07759
1036.10 0.07757
1036.20 0.07754
1036.30 0.07752
1036.40 0.0775
1036.50 0.07748
1036.60 0.07746
1036.70 0.07743
1036.80 0.07741
1036.90 0.07739
1037.00 0.07737
1037.10 0.07734
1037.20 0.07732
1037.30 0.07729
1037.40 0.07727
1037.50 0.07724
1037.60 0.07722
1037.70 0.0772
1037.80 0.07717
1037.90 0.07715
1038.00 0.07712
1038.10 0.0771
1038.20 0.07707
1038.30 0.07705
1038.40 0.07702
1038.50 0.077
1038.60 0.07697
1038.70 0.07695
1038.80 0.07692
1038.90 0.0769
1039.00 0.07688
1039.10 0.07685
1039.20 0.07683
1039.30 0.0768
1039.40 0.07678
1039.50 0.07675
1039.60 0.07673
1039.70 0.0767
1039.80 0.07668
1039.90 0.07666
1040.00 0.07663
1040.10 0.07661
1040.20 0.07658
1040.30 0.07656
1040.40 0.07653
1040.50 0.07651
1040.60 0.07648
1040.70 0.07646
1040.80 0.07644
1040.90 0.07641
1041.00 0.07639
1041.10 0.07636
1041.20 0.07634
1041.30 0.07631
1041.40 0.07629
1041.50 0.07626
1041.60 0.07624
1041.70 0.07622
1041.80 0.07619
1041.90 0.07617
1042.00 0.07614
1042.10 0.07612
1042.20 0.07609
1042.30 0.07606
1042.40 0.07604
1042.50 0.07601
1042.60 0.07599
1042.70 0.07596
1042.80 0.07593
1042.90 0.07591
1043.00 0.07588
1043.10 0.07586
1043.20 0.07583
1043.30 0.0758
1043.40 0.07578
1043.50 0.07575
1043.60 0.07572
1043.70 0.0757
1043.80 0.07567
1043.90 0.07565
1044.00 0.07562
1044.10 0.07559
1044.20 0.07557
1044.30 0.07554
1044.40 0.07552
1044.50 0.07549
1044.60 0.07546
1044.70 0.07544
1044.80 0.07541
1044.90 0.07539
1045.00 0.07536
1045.10 0.07533
1045.20 0.07531
1045.30 0.07528
1045.40 0.07526
1045.50 0.07523
1045.60 0.07521
1045.70 0.07518
1045.80 0.07515
1045.90 0.07513
1046.00 0.0751
1046.10 0.07508
1046.20 0.07505
1046.30 0.07502
1046.40 0.075
1046.50 0.07497
1046.60 0.07495
1046.70 0.07492
1046.80 0.07489
1046.90 0.07487
1047.00 0.07484
1047.10 0.07482
1047.20 0.07479
1047.30 0.07476
1047.40 0.07473
1047.50 0.07471
1047.60 0.07468
1047.70 0.07465
1047.80 0.07462
1047.90 0.0746
1048.00 0.07457
1048.10 0.07454
1048.20 0.07452
1048.30 0.07449
1048.40 0.07446
1048.50 0.07443
1048.60 0.07441
1048.70 0.07438
1048.80 0.07435
1048.90 0.07432
1049.00 0.0743
1049.10 0.07427
1049.20 0.07424
1049.30 0.07422
1049.40 0.07419
1049.50 0.07416
1049.60 0.07413
1049.70 0.07411
1049.80 0.07408
1049.90 0.07405
1050.00 0.07403
1050.10 0.074
1050.20 0.07397
1050.30 0.07394
1050.40 0.07392
1050.50 0.07389
1050.60 0.07386
1050.70 0.07384
1050.80 0.07381
1050.90 0.07378
1051.00 0.07376
1051.10 0.07373
1051.20 0.0737
1051.30 0.07367
1051.40 0.07365
1051.50 0.07362
1051.60 0.07359
1051.70 0.07357
1051.80 0.07354
1051.90 0.07351
1052.00 0.07349
1052.10 0.07346
1052.20 0.07343
1052.30 0.0734
1052.40 0.07337
1052.50 0.07334
1052.60 0.07331
1052.70 0.07329
1052.80 0.07326
1052.90 0.07323
1053.00 0.0732
1053.10 0.07317
1053.20 0.07314
1053.30 0.07312
1053.40 0.07309
1053.50 0.07306
1053.60 0.07303
1053.70 0.073
1053.80 0.07297
1053.90 0.07294
1054.00 0.07292
1054.10 0.07289
1054.20 0.07286
1054.30 0.07283
1054.40 0.0728
1054.50 0.07277
1054.60 0.07275
1054.70 0.07272
1054.80 0.07269
1054.90 0.07266
1055.00 0.07263
1055.10 0.0726
1055.20 0.07258
1055.30 0.07255
1055.40 0.07252
1055.50 0.07249
1055.60 0.07246
1055.70 0.07244
1055.80 0.07241
1055.90 0.07238
1056.00 0.07235
1056.10 0.07232
1056.20 0.07229
1056.30 0.07227
1056.40 0.07224
1056.50 0.07221
1056.60 0.07218
1056.70 0.07215
1056.80 0.07213
1056.90 0.0721
1057.00 0.07207
1057.10 0.07204
1057.20 0.07201
1057.30 0.07198
1057.40 0.07195
1057.50 0.07192
1057.60 0.07189
1057.70 0.07186
1057.80 0.07183
1057.90 0.0718
1058.00 0.07177
1058.10 0.07174
1058.20 0.07171
1058.30 0.07168
1058.40 0.07165
1058.50 0.07162
1058.60 0.07159
1058.70 0.07156
1058.80 0.07153
1058.90 0.0715
1059.00 0.07147
1059.10 0.07144
1059.20 0.07141
1059.30 0.07138
1059.40 0.07135
1059.50 0.07132
1059.60 0.07129
1059.70 0.07126
1059.80 0.07123
1059.90 0.0712
1060.00 0.07117
1060.10 0.07114
1060.20 0.07111
1060.30 0.07108
1060.40 0.07105
1060.50 0.07102
1060.60 0.07099
1060.70 0.07096
1060.80 0.07093
1060.90 0.0709
1061.00 0.07087
1061.10 0.07084
1061.20 0.07081
1061.30 0.07078
1061.40 0.07075
1061.50 0.07072
1061.60 0.07069
1061.70 0.07066
1061.80 0.07063
1061.90 0.07061
1062.00 0.07058
1062.10 0.07054
1062.20 0.07051
1062.30 0.07048
1062.40 0.07045
1062.50 0.07041
1062.60 0.07038
1062.70 0.07035
1062.80 0.07032
1062.90 0.07028
1063.00 0.07025
1063.10 0.07022
1063.20 0.07019
1063.30 0.07015
1063.40 0.07012
1063.50 0.07009
1063.60 0.07006
1063.70 0.07002
1063.80 0.06999
1063.90 0.06996
1064.00 0.06993
1064.10 0.06989
1064.20 0.06986
1064.30 0.06983
1064.40 0.0698
1064.50 0.06976
1064.60 0.06973
1064.70 0.0697
1064.80 0.06967
1064.90 0.06964
1065.00 0.0696
1065.10 0.06957
1065.20 0.06954
1065.30 0.06951
1065.40 0.06947
1065.50 0.06944
1065.60 0.06941
1065.70 0.06938
1065.80 0.06935
1065.90 0.06931
1066.00 0.06928
1066.10 0.06925
1066.20 0.06922
1066.30 0.06918
1066.40 0.06915
1066.50 0.06912
1066.60 0.06909
1066.70 0.06906
1066.80 0.06902
1066.90 0.06899
1067.00 0.06896
1067.10 0.06892
1067.20 0.06889
1067.30 0.06885
1067.40 0.06881
1067.50 0.06878
1067.60 0.06874
1067.70 0.0687
1067.80 0.06867
1067.90 0.06863
1068.00 0.06859
1068.10 0.06856
1068.20 0.06852
1068.30 0.06849
1068.40 0.06845
1068.50 0.06841
1068.60 0.06838
1068.70 0.06834
1068.80 0.0683
1068.90 0.06827
1069.00 0.06823
1069.10 0.06819
1069.20 0.06816
1069.30 0.06812
1069.40 0.06808
1069.50 0.06805
1069.60 0.06801
1069.70 0.06798
1069.80 0.06794
1069.90 0.0679
1070.00 0.06787
1070.10 0.06783
1070.20 0.06779
1070.30 0.06776
1070.40 0.06772
1070.50 0.06769
1070.60 0.06765
1070.70 0.06761
1070.80 0.06758
1070.90 0.06754
1071.00 0.06751
1071.10 0.06747
1071.20 0.06743
1071.30 0.0674
1071.40 0.06736
1071.50 0.06732
1071.60 0.06729
1071.70 0.06725
1071.80 0.06722
1071.90 0.06718
1072.00 0.06714
1072.10 0.0671
1072.20 0.06706
1072.30 0.06702
1072.40 0.06698
1072.50 0.06694
1072.60 0.0669
1072.70 0.06686
1072.80 0.06682
1072.90 0.06678
1073.00 0.06674
1073.10 0.0667
1073.20 0.06666
1073.30 0.06662
1073.40 0.06658
1073.50 0.06654
1073.60 0.0665
1073.70 0.06645
1073.80 0.06641
1073.90 0.06636
1074.00 0.06632
1074.10 0.06627
1074.20 0.06623
1074.30 0.06619
1074.40 0.06614
1074.50 0.0661
1074.60 0.06605
1074.70 0.06601
1074.80 0.06596
1074.90 0.06592
1075.00 0.06587
1075.10 0.06583
1075.20 0.06579
1075.30 0.06574
1075.40 0.0657
1075.50 0.06565
1075.60 0.06561
1075.70 0.06557
1075.80 0.06552
1075.90 0.06548
1076.00 0.06543
1076.10 0.06539
1076.20 0.06534
1076.30 0.0653
1076.40 0.06526
1076.50 0.06521
1076.60 0.06517
1076.70 0.06512
1076.80 0.06508
1076.90 0.06504
1077.00 0.06499
1077.10 0.06494
1077.20 0.0649
1077.30 0.06485
1077.40 0.0648
1077.50 0.06475
1077.60 0.0647
1077.70 0.06465
1077.80 0.0646
1077.90 0.06454
1078.00 0.06449
1078.10 0.06444
1078.20 0.06439
1078.30 0.06434
1078.40 0.06429
1078.50 0.06424
1078.60 0.06419
1078.70 0.06414
1078.80 0.06408
1078.90 0.06403
1079.00 0.06398
1079.10 0.06393
1079.20 0.06388
1079.30 0.06383
1079.40 0.06378
1079.50 0.06372
1079.60 0.06367
1079.70 0.06361
1079.80 0.06355
1079.90 0.0635
1080.00 0.06344
1080.10 0.06338
1080.20 0.06333
1080.30 0.06327
1080.40 0.06321
1080.50 0.06316
1080.60 0.0631
1080.70 0.06304
1080.80 0.06299
1080.90 0.06293
1081.00 0.06287
1081.10 0.06282
1081.20 0.06276
1081.30 0.0627
1081.40 0.06265
1081.50 0.06259
1081.60 0.06253
1081.70 0.06247
1081.80 0.06241
1081.90 0.06235
1082.00 0.06228
1082.10 0.06222
1082.20 0.06216
1082.30 0.06209
1082.40 0.06203
1082.50 0.06196
1082.60 0.0619
1082.70 0.06183
1082.80 0.06177
1082.90 0.0617
1083.00 0.06164
1083.10 0.06158
1083.20 0.06151
1083.30 0.06145
1083.40 0.06138
1083.50 0.06132
1083.60 0.06125
1083.70 0.06118
1083.80 0.06111
1083.90 0.06104
1084.00 0.06097
1084.10 0.0609
1084.20 0.06083
1084.30 0.06076
1084.40 0.0607
1084.50 0.06062
1084.60 0.06055
1084.70 0.06047
1084.80 0.0604
1084.90 0.06032
1085.00 0.06024
1085.10 0.06017
1085.20 0.06009
1085.30 0.06002
1085.40 0.05994
1085.50 0.05986
1085.60 0.05979
1085.70 0.05971
1085.80 0.05964
1085.90 0.05956
1086.00 0.05949
1086.10 0.05941
1086.20 0.05933
1086.30 0.05926
1086.40 0.05918
1086.50 0.05911
1086.60 0.05902
1086.70 0.05894
1086.80 0.05886
1086.90 0.05878
1087.00 0.0587
1087.10 0.05861
1087.20 0.05852
1087.30 0.05843
1087.40 0.05835
1087.50 0.05826
1087.60 0.05817
1087.70 0.05808
1087.80 0.058
1087.90 0.05791
1088.00 0.05782
1088.10 0.05773
1088.20 0.05765
1088.30 0.05756
1088.40 0.05747
1088.50 0.05738
1088.60 0.05728
1088.70 0.05719
1088.80 0.05709
1088.90 0.05699
1089.00 0.05689
1089.10 0.05679
1089.20 0.05669
1089.30 0.0566
1089.40 0.0565
1089.50 0.0564
1089.60 0.0563
1089.70 0.0562
1089.80 0.05611
1089.90 0.05601
1090.00 0.05591
1090.10 0.05581
1090.20 0.05571
1090.30 0.05562
1090.40 0.05552
1090.50 0.05541
1090.60 0.0553
1090.70 0.05519
1090.80 0.05507
1090.90 0.05496
1091.00 0.05485
1091.10 0.05473
1091.20 0.05462
1091.30 0.0545
1091.40 0.05439
1091.50 0.05428
1091.60 0.05416
1091.70 0.05405
1091.80 0.05394
1091.90 0.05382
1092.00 0.05371
1092.10 0.05357
1092.20 0.05344
1092.30 0.0533
1092.40 0.05317
1092.50 0.05304
1092.60 0.0529
1092.70 0.05276
1092.80 0.0526
1092.90 0.05244
1093.00 0.05229
1093.10 0.05212
1093.20 0.05194
1093.30 0.05175
1093.40 0.05154
1093.50 0.05132
1093.60 0.05105
1093.70 0.05087
1093.80 0.05075
1093.90 0.05074
1094.00 0.05095
1094.10 0.05116
1094.20 0.05138
1094.30 0.05156
1094.40 0.0517
1094.50 0.05183
1094.60 0.05197
1094.70 0.05211
1094.80 0.05224
1094.90 0.05238
1095.00 0.0525
1095.10 0.05259
1095.20 0.05268
1095.30 0.05277
1095.40 0.05286
1095.50 0.05295
1095.60 0.05304
1095.70 0.05313
1095.80 0.05322
1095.90 0.05331
1096.00 0.0534
1096.10 0.05348
1096.20 0.05357
1096.30 0.05366
1096.40 0.05375
1096.50 0.05384
1096.60 0.05391
1096.70 0.05398
1096.80 0.05406
1096.90 0.05413
1097.00 0.0542
1097.10 0.05427
1097.20 0.05433
1097.30 0.05439
1097.40 0.05446
1097.50 0.05452
1097.60 0.05458
1097.70 0.05465
1097.80 0.05471
1097.90 0.05478
1098.00 0.05484
1098.10 0.0549
1098.20 0.05497
1098.30 0.05503
1098.40 0.05509
1098.50 0.05515
1098.60 0.0552
1098.70 0.05525
1098.80 0.0553
1098.90 0.05536
1099.00 0.05541
1099.10 0.05546
1099.20 0.05551
1099.30 0.05556
1099.40 0.05561
1099.50 0.05566
1099.60 0.05571
1099.70 0.05576
1099.80 0.05581
1099.90 0.05586
1100.00 0.05591
1100.10 0.05596
1100.20 0.05601
1100.30 0.05606
1100.40 0.05611
1100.50 0.05616
1100.60 0.0562
1100.70 0.05624
1100.80 0.05628
1100.90 0.05632
1101.00 0.05636
1101.10 0.0564
1101.20 0.05644
1101.30 0.05648
1101.40 0.05652
1101.50 0.05656
1101.60 0.0566
1101.70 0.05664
1101.80 0.05668
1101.90 0.05672
1102.00 0.05675
1102.10 0.05679
1102.20 0.05682
1102.30 0.05686
1102.40 0.05689
1102.50 0.05692
1102.60 0.05695
1102.70 0.05698
1102.80 0.05701
1102.90 0.05704
1103.00 0.05707
1103.10 0.0571
1103.20 0.05714
1103.30 0.05717
1103.40 0.0572
1103.50 0.05722
1103.60 0.05725
1103.70 0.05727
1103.80 0.05729
1103.90 0.05732
1104.00 0.05734
1104.10 0.05736
1104.20 0.05739
1104.30 0.05741
1104.40 0.05743
1104.50 0.05746
1104.60 0.05748
1104.70 0.0575
1104.80 0.05753
1104.90 0.05755
1105.00 0.05757
1105.10 0.0576
1105.20 0.05762
1105.30 0.05764
1105.40 0.05767
1105.50 0.05769
1105.60 0.0577
1105.70 0.05772
1105.80 0.05774
1105.90 0.05775
1106.00 0.05777
1106.10 0.05779
1106.20 0.0578
1106.30 0.05782
1106.40 0.05783
1106.50 0.05785
1106.60 0.05787
1106.70 0.05788
1106.80 0.0579
1106.90 0.05792
1107.00 0.05793
1107.10 0.05794
1107.20 0.05796
1107.30 0.05797
1107.40 0.05798
1107.50 0.05799
1107.60 0.058
1107.70 0.05801
1107.80 0.05802
1107.90 0.05803
1108.00 0.05804
1108.10 0.05805
1108.20 0.05806
1108.30 0.05807
1108.40 0.05807
1108.50 0.05808
1108.60 0.05809
1108.70 0.0581
1108.80 0.05811
1108.90 0.05812
1109.00 0.05813
1109.10 0.05814
1109.20 0.05814
1109.30 0.05815
1109.40 0.05816
1109.50 0.05817
1109.60 0.05817
1109.70 0.05818
1109.80 0.05818
1109.90 0.05818
1110.00 0.05818
1110.10 0.05819
1110.20 0.05819
1110.30 0.05819
1110.40 0.0582
1110.50 0.0582
1110.60 0.0582
1110.70 0.0582
1110.80 0.05821
1110.90 0.05821
1111.00 0.05821
1111.10 0.05822
1111.20 0.05822
1111.30 0.05822
1111.40 0.05822
1111.50 0.05823
1111.60 0.05823
1111.70 0.05823
1111.80 0.05824
1111.90 0.05824
1112.00 0.05824
1112.10 0.05824
1112.20 0.05824
1112.30 0.05824
1112.40 0.05824
1112.50 0.05824
1112.60 0.05823
1112.70 0.05823
1112.80 0.05823
1112.90 0.05823
1113.00 0.05823
1113.10 0.05823
1113.20 0.05823
1113.30 0.05822
1113.40 0.05822
1113.50 0.05822
1113.60 0.05822
1113.70 0.05821
1113.80 0.0582
1113.90 0.0582
1114.00 0.05819
1114.10 0.05819
1114.20 0.05818
1114.30 0.05818
1114.40 0.05817
1114.50 0.05817
1114.60 0.05816
1114.70 0.05816
1114.80 0.05815
1114.90 0.05815
1115.00 0.05814
1115.10 0.05814
1115.20 0.05813
1115.30 0.05812
1115.40 0.05812
1115.50 0.05811
1115.60 0.05811
1115.70 0.0581
1115.80 0.0581
1115.90 0.05809
1116.00 0.05809
1116.10 0.05808
1116.20 0.05808
1116.30 0.05807
1116.40 0.05807
1116.50 0.05806
1116.60 0.05806
1116.70 0.05805
1116.80 0.05804
1116.90 0.05804
1117.00 0.05803
1117.10 0.05802
1117.20 0.05801
1117.30 0.058
1117.40 0.05799
1117.50 0.05798
1117.60 0.05797
1117.70 0.05796
1117.80 0.05795
1117.90 0.05794
1118.00 0.05793
1118.10 0.05792
1118.20 0.05791
1118.30 0.0579
1118.40 0.05789
1118.50 0.05788
1118.60 0.05787
1118.70 0.05786
1118.80 0.05785
1118.90 0.05784
1119.00 0.05783
1119.10 0.05782
1119.20 0.05781
1119.30 0.0578
1119.40 0.05779
1119.50 0.05778
1119.60 0.05777
1119.70 0.05776
1119.80 0.05775
1119.90 0.05774
1120.00 0.05773
1120.10 0.05772
1120.20 0.05771
1120.30 0.0577
1120.40 0.05769
1120.50 0.05768
1120.60 0.05767
1120.70 0.05766
1120.80 0.05765
1120.90 0.05764
1121.00 0.05763
1121.10 0.05762
1121.20 0.05761
1121.30 0.0576
1121.40 0.05759
1121.50 0.05758
1121.60 0.05757
1121.70 0.05756
1121.80 0.05755
1121.90 0.05754
1122.00 0.05753
1122.10 0.05751
1122.20 0.0575
1122.30 0.05749
1122.40 0.05747
1122.50 0.05746
1122.60 0.05745
1122.70 0.05743
1122.80 0.05742
1122.90 0.05741
1123.00 0.05739
1123.10 0.05738
1123.20 0.05737
1123.30 0.05735
1123.40 0.05734
1123.50 0.05733
1123.60 0.05731
1123.70 0.0573
1123.80 0.05729
1123.90 0.05727
1124.00 0.05726
1124.10 0.05724
1124.20 0.05723
1124.30 0.05722
1124.40 0.0572
1124.50 0.05719
1124.60 0.05718
1124.70 0.05716
1124.80 0.05715
1124.90 0.05714
1125.00 0.05712
1125.10 0.05711
1125.20 0.0571
1125.30 0.05708
1125.40 0.05707
1125.50 0.05706
1125.60 0.05704
1125.70 0.05703
1125.80 0.05702
1125.90 0.057
1126.00 0.05699
1126.10 0.05698
1126.20 0.05696
1126.30 0.05695
1126.40 0.05694
1126.50 0.05692
1126.60 0.05691
1126.70 0.0569
1126.80 0.05688
1126.90 0.05687
1127.00 0.05686
1127.10 0.05684
1127.20 0.05683
1127.30 0.05681
1127.40 0.05679
1127.50 0.05678
1127.60 0.05676
1127.70 0.05675
1127.80 0.05673
1127.90 0.05672
1128.00 0.0567
1128.10 0.05669
1128.20 0.05667
1128.30 0.05666
1128.40 0.05664
1128.50 0.05663
1128.60 0.05661
1128.70 0.0566
1128.80 0.05658
1128.90 0.05657
1129.00 0.05655
1129.10 0.05653
1129.20 0.05652
1129.30 0.0565
1129.40 0.05649
1129.50 0.05647
1129.60 0.05646
1129.70 0.05644
1129.80 0.05643
1129.90 0.05641
1130.00 0.0564
1130.10 0.05638
1130.20 0.05637
1130.30 0.05635
1130.40 0.05634
1130.50 0.05632
1130.60 0.05631
1130.70 0.05629
1130.80 0.05628
1130.90 0.05626
1131.00 0.05625
1131.10 0.05623
1131.20 0.05622
1131.30 0.0562
1131.40 0.05618
1131.50 0.05617
1131.60 0.05615
1131.70 0.05614
1131.80 0.05612
1131.90 0.05611
1132.00 0.05609
1132.10 0.05608
1132.20 0.05606
1132.30 0.05605
1132.40 0.05603
1132.50 0.05601
1132.60 0.056
1132.70 0.05598
1132.80 0.05596
1132.90 0.05595
1133.00 0.05593
1133.10 0.05591
1133.20 0.0559
1133.30 0.05588
1133.40 0.05587
1133.50 0.05585
1133.60 0.05583
1133.70 0.05582
1133.80 0.0558
1133.90 0.05578
1134.00 0.05577
1134.10 0.05575
1134.20 0.05574
1134.30 0.05572
1134.40 0.0557
1134.50 0.05569
1134.60 0.05567
1134.70 0.05566
1134.80 0.05564
1134.90 0.05562
1135.00 0.05561
1135.10 0.05559
1135.20 0.05557
1135.30 0.05556
1135.40 0.05554
1135.50 0.05553
1135.60 0.05551
1135.70 0.05549
1135.80 0.05548
1135.90 0.05546
1136.00 0.05545
1136.10 0.05543
1136.20 0.05541
1136.30 0.0554
1136.40 0.05538
1136.50 0.05536
1136.60 0.05535
1136.70 0.05533
1136.80 0.05532
1136.90 0.0553
1137.00 0.05528
1137.10 0.05527
1137.20 0.05525
1137.30 0.05523
1137.40 0.05522
1137.50 0.0552
1137.60 0.05518
1137.70 0.05517
1137.80 0.05515
1137.90 0.05513
1138.00 0.05512
1138.10 0.0551
1138.20 0.05508
1138.30 0.05507
1138.40 0.05505
1138.50 0.05503
1138.60 0.05502
1138.70 0.055
1138.80 0.05498
1138.90 0.05497
1139.00 0.05495
1139.10 0.05493
1139.20 0.05492
1139.30 0.0549
1139.40 0.05488
1139.50 0.05487
1139.60 0.05485
1139.70 0.05483
1139.80 0.05482
1139.90 0.0548
1140.00 0.05478
1140.10 0.05477
1140.20 0.05475
1140.30 0.05473
1140.40 0.05472
1140.50 0.0547
1140.60 0.05468
1140.70 0.05467
1140.80 0.05465
1140.90 0.05463
1141.00 0.05462
1141.10 0.0546
1141.20 0.05458
1141.30 0.05457
1141.40 0.05455
1141.50 0.05453
1141.60 0.05452
1141.70 0.0545
1141.80 0.05449
1141.90 0.05447
1142.00 0.05445
1142.10 0.05444
1142.20 0.05442
1142.30 0.0544
1142.40 0.05438
1142.50 0.05437
1142.60 0.05435
1142.70 0.05433
1142.80 0.05432
1142.90 0.0543
1143.00 0.05428
1143.10 0.05427
1143.20 0.05425
1143.30 0.05423
1143.40 0.05422
1143.50 0.0542
1143.60 0.05418
1143.70 0.05417
1143.80 0.05415
1143.90 0.05413
1144.00 0.05411
1144.10 0.0541
1144.20 0.05408
1144.30 0.05406
1144.40 0.05405
1144.50 0.05403
1144.60 0.05401
1144.70 0.054
1144.80 0.05398
1144.90 0.05396
1145.00 0.05395
1145.10 0.05393
1145.20 0.05391
1145.30 0.0539
1145.40 0.05388
1145.50 0.05386
1145.60 0.05385
1145.70 0.05383
1145.80 0.05381
1145.90 0.0538
1146.00 0.05378
1146.10 0.05376
1146.20 0.05375
1146.30 0.05373
1146.40 0.05371
1146.50 0.0537
1146.60 0.05368
1146.70 0.05366
1146.80 0.05365
1146.90 0.05363
1147.00 0.05361
1147.10 0.05359
1147.20 0.05358
1147.30 0.05356
1147.40 0.05354
1147.50 0.05353
1147.60 0.05351
1147.70 0.05349
1147.80 0.05348
1147.90 0.05346
1148.00 0.05344
1148.10 0.05343
1148.20 0.05341
1148.30 0.05339
1148.40 0.05338
1148.50 0.05336
1148.60 0.05334
1148.70 0.05332
1148.80 0.05331
1148.90 0.05329
1149.00 0.05327
1149.10 0.05326
1149.20 0.05324
1149.30 0.05322
1149.40 0.05321
1149.50 0.05319
1149.60 0.05317
1149.70 0.05316
1149.80 0.05314
1149.90 0.05312
1150.00 0.05311
1150.10 0.05309
1150.20 0.05307
1150.30 0.05306
1150.40 0.05304
1150.50 0.05302
1150.60 0.05301
1150.70 0.05299
1150.80 0.05297
1150.90 0.05296
1151.00 0.05294
1151.10 0.05292
1151.20 0.05291
1151.30 0.05289
1151.40 0.05287
1151.50 0.05286
1151.60 0.05284
1151.70 0.05282
1151.80 0.05281
1151.90 0.05279
1152.00 0.05277
1152.10 0.05276
1152.20 0.05274
1152.30 0.05272
1152.40 0.0527
1152.50 0.05269
1152.60 0.05267
1152.70 0.05265
1152.80 0.05264
1152.90 0.05262
1153.00 0.0526
1153.10 0.05259
1153.20 0.05257
1153.30 0.05255
1153.40 0.05254
1153.50 0.05252
1153.60 0.0525
1153.70 0.05249
1153.80 0.05247
1153.90 0.05245
1154.00 0.05244
1154.10 0.05242
1154.20 0.0524
1154.30 0.05239
1154.40 0.05237
1154.50 0.05235
1154.60 0.05234
1154.70 0.05232
1154.80 0.0523
1154.90 0.05229
1155.00 0.05227
1155.10 0.05225
1155.20 0.05224
1155.30 0.05222
1155.40 0.0522
1155.50 0.05219
1155.60 0.05217
1155.70 0.05215
1155.80 0.05214
1155.90 0.05212
1156.00 0.0521
1156.10 0.05209
1156.20 0.05207
1156.30 0.05205
1156.40 0.05204
1156.50 0.05202
1156.60 0.052
1156.70 0.05199
1156.80 0.05197
1156.90 0.05195
1157.00 0.05194
1157.10 0.05192
1157.20 0.0519
1157.30 0.05189
1157.40 0.05187
1157.50 0.05185
1157.60 0.05184
1157.70 0.05182
1157.80 0.05181
1157.90 0.05179
1158.00 0.05177
1158.10 0.05176
1158.20 0.05174
1158.30 0.05172
1158.40 0.05171
1158.50 0.05169
1158.60 0.05167
1158.70 0.05166
1158.80 0.05164
1158.90 0.05162
1159.00 0.05161
1159.10 0.05159
1159.20 0.05157
1159.30 0.05156
1159.40 0.05154
1159.50 0.05152
1159.60 0.05151
1159.70 0.05149
1159.80 0.05147
1159.90 0.05146
1160.00 0.05144
1160.10 0.05142
1160.20 0.05141
1160.30 0.05139
1160.40 0.05138
1160.50 0.05136
1160.60 0.05134
1160.70 0.05133
1160.80 0.05131
1160.90 0.05129
1161.00 0.05128
1161.10 0.05126
1161.20 0.05124
1161.30 0.05123
1161.40 0.05121
1161.50 0.05119
1161.60 0.05118
1161.70 0.05116
1161.80 0.05115
1161.90 0.05113
1162.00 0.05111
1162.10 0.0511
1162.20 0.05108
1162.30 0.05106
1162.40 0.05105
1162.50 0.05103
1162.60 0.05101
1162.70 0.051
1162.80 0.05098
1162.90 0.05097
1163.00 0.05095
1163.10 0.05093
1163.20 0.05092
1163.30 0.0509
1163.40 0.05088
1163.50 0.05087
1163.60 0.05085
1163.70 0.05083
1163.80 0.05082
1163.90 0.0508
1164.00 0.05079
1164.10 0.05077
1164.20 0.05075
1164.30 0.05074
1164.40 0.05072
1164.50 0.0507
1164.60 0.05069
1164.70 0.05067
1164.80 0.05066
1164.90 0.05064
1165.00 0.05062
1165.10 0.05061
1165.20 0.05059
1165.30 0.05057
1165.40 0.05056
1165.50 0.05054
1165.60 0.05053
1165.70 0.05051
1165.80 0.05049
1165.90 0.05048
1166.00 0.05046
1166.10 0.05044
1166.20 0.05043
1166.30 0.05041
1166.40 0.0504
1166.50 0.05038
1166.60 0.05036
1166.70 0.05035
1166.80 0.05033
1166.90 0.05032
1167.00 0.0503
1167.10 0.05028
1167.20 0.05027
1167.30 0.05025
1167.40 0.05023
1167.50 0.05022
1167.60 0.0502
1167.70 0.05019
1167.80 0.05017
1167.90 0.05015
1168.00 0.05014
1168.10 0.05012
1168.20 0.05011
1168.30 0.05009
1168.40 0.05007
1168.50 0.05006
1168.60 0.05004
1168.70 0.05002
1168.80 0.05001
1168.90 0.04999
1169.00 0.04998
1169.10 0.04996
1169.20 0.04994
1169.30 0.04993
1169.40 0.04991
1169.50 0.0499
1169.60 0.04988
1169.70 0.04986
1169.80 0.04985
1169.90 0.04983
1170.00 0.04982
1170.10 0.0498
1170.20 0.04978
1170.30 0.04977
1170.40 0.04975
1170.50 0.04974
1170.60 0.04972
1170.70 0.0497
1170.80 0.04969
1170.90 0.04967
1171.00 0.04966
1171.10 0.04964
1171.20 0.04962
1171.30 0.04961
1171.40 0.04959
1171.50 0.04958
1171.60 0.04956
1171.70 0.04954
1171.80 0.04953
1171.90 0.04951
1172.00 0.0495
1172.10 0.04948
1172.20 0.04946
1172.30 0.04945
1172.40 0.04943
1172.50 0.04942
1172.60 0.0494
1172.70 0.04938
1172.80 0.04937
1172.90 0.04935
1173.00 0.04934
1173.10 0.04932
1173.20 0.04931
1173.30 0.04929
1173.40 0.04927
1173.50 0.04926
1173.60 0.04924
1173.70 0.04923
1173.80 0.04921
1173.90 0.04919
1174.00 0.04918
1174.10 0.04916
1174.20 0.04915
1174.30 0.04913
1174.40 0.04912
1174.50 0.0491
1174.60 0.04908
1174.70 0.04907
1174.80 0.04905
1174.90 0.04904
1175.00 0.04902
1175.10 0.04901
1175.20 0.04899
1175.30 0.04897
1175.40 0.04896
1175.50 0.04894
1175.60 0.04893
1175.70 0.04891
1175.80 0.04889
1175.90 0.04888
1176.00 0.04886
1176.10 0.04885
1176.20 0.04883
1176.30 0.04882
1176.40 0.0488
1176.50 0.04878
1176.60 0.04877
1176.70 0.04875
1176.80 0.04874
1176.90 0.04872
1177.00 0.04871
1177.10 0.04869
1177.20 0.04868
1177.30 0.04866
1177.40 0.04864
1177.50 0.04863
1177.60 0.04861
1177.70 0.0486
1177.80 0.04858
1177.90 0.04857
1178.00 0.04855
1178.10 0.04853
1178.20 0.04852
1178.30 0.0485
1178.40 0.04849
1178.50 0.04847
1178.60 0.04846
1178.70 0.04844
1178.80 0.04843
1178.90 0.04841
1179.00 0.04839
1179.10 0.04838
1179.20 0.04836
1179.30 0.04835
1179.40 0.04833
1179.50 0.04832
1179.60 0.0483
1179.70 0.04829
1179.80 0.04827
1179.90 0.04825
1180.00 0.04824
1180.10 0.04822
1180.20 0.04821
1180.30 0.04819
1180.40 0.04818
1180.50 0.04816
1180.60 0.04815
1180.70 0.04813
1180.80 0.04811
1180.90 0.0481
1181.00 0.04808
1181.10 0.04807
1181.20 0.04805
1181.30 0.04804
1181.40 0.04802
1181.50 0.04801
1181.60 0.04799
1181.70 0.04798
1181.80 0.04796
1181.90 0.04794
1182.00 0.04793
1182.10 0.04791
1182.20 0.0479
1182.30 0.04788
1182.40 0.04787
1182.50 0.04785
1182.60 0.04784
1182.70 0.04782
1182.80 0.04781
1182.90 0.04779
1183.00 0.04778
1183.10 0.04776
1183.20 0.04774
1183.30 0.04773
1183.40 0.04771
1183.50 0.0477
1183.60 0.04768
1183.70 0.04767
1183.80 0.04765
1183.90 0.04764
1184.00 0.04762
1184.10 0.04761
1184.20 0.04759
1184.30 0.04758
1184.40 0.04756
1184.50 0.04755
1184.60 0.04753
1184.70 0.04751
1184.80 0.0475
1184.90 0.04748
1185.00 0.04747
1185.10 0.04745
1185.20 0.04744
1185.30 0.04742
1185.40 0.04741
1185.50 0.04739
1185.60 0.04738
1185.70 0.04736
1185.80 0.04735
1185.90 0.04733
1186.00 0.04732
1186.10 0.0473
1186.20 0.04729
1186.30 0.04727
1186.40 0.04726
1186.50 0.04724
1186.60 0.04723
1186.70 0.04721
1186.80 0.04719
1186.90 0.04718
1187.00 0.04716
1187.10 0.04715
1187.20 0.04713
1187.30 0.04712
1187.40 0.0471
1187.50 0.04709
1187.60 0.04707
1187.70 0.04706
1187.80 0.04704
1187.90 0.04703
1188.00 0.04701
1188.10 0.047
1188.20 0.04698
1188.30 0.04697
1188.40 0.04695
1188.50 0.04694
1188.60 0.04692
1188.70 0.04691
1188.80 0.04689
1188.90 0.04688
1189.00 0.04686
1189.10 0.04685
1189.20 0.04683
1189.30 0.04682
1189.40 0.0468
1189.50 0.04679
1189.60 0.04677
1189.70 0.04676
1189.80 0.04674
1189.90 0.04673
1190.00 0.04671
1190.10 0.0467
1190.20 0.04668
1190.30 0.04667
1190.40 0.04665
1190.50 0.04664
1190.60 0.04662
1190.70 0.04661
1190.80 0.04659
1190.90 0.04658
1191.00 0.04656
1191.10 0.04655
1191.20 0.04653
1191.30 0.04652
1191.40 0.0465
1191.50 0.04649
1191.60 0.04647
1191.70 0.04646
1191.80 0.04644
1191.90 0.04643
1192.00 0.04641
1192.10 0.0464
1192.20 0.04638
1192.30 0.04637
1192.40 0.04635
1192.50 0.04634
1192.60 0.04632
1192.70 0.04631
1192.80 0.04629
1192.90 0.04628
1193.00 0.04626
1193.10 0.04625
1193.20 0.04623
1193.30 0.04622
1193.40 0.0462
1193.50 0.04619
1193.60 0.04617
1193.70 0.04616
1193.80 0.04615
1193.90 0.04613
1194.00 0.04612
1194.10 0.0461
1194.20 0.04609
1194.30 0.04607
1194.40 0.04606
1194.50 0.04604
1194.60 0.04603
1194.70 0.04601
1194.80 0.046
1194.90 0.04598
1195.00 0.04597
1195.10 0.04595
1195.20 0.04594
1195.30 0.04592
1195.40 0.04591
1195.50 0.04589
1195.60 0.04588
1195.70 0.04586
1195.80 0.04585
1195.90 0.04583
1196.00 0.04582
1196.10 0.04581
1196.20 0.04579
1196.30 0.04578
1196.40 0.04576
1196.50 0.04575
1196.60 0.04573
1196.70 0.04572
1196.80 0.0457
1196.90 0.04569
1197.00 0.04567
1197.10 0.04566
1197.20 0.04564
1197.30 0.04563
1197.40 0.04561
1197.50 0.0456
1197.60 0.04558
1197.70 0.04557
1197.80 0.04556
1197.90 0.04554
1198.00 0.04553
1198.10 0.04551
1198.20 0.0455
1198.30 0.04548
1198.40 0.04547
1198.50 0.04545
1198.60 0.04544
1198.70 0.04542
1198.80 0.04541
1198.90 0.04539
1199.00 0.04538
1199.10 0.04537
1199.20 0.04535
1199.30 0.04534
1199.40 0.04532
1199.50 0.04531
1199.60 0.04529
1199.70 0.04528
1199.80 0.04526
1199.90 0.04525
1200.00 0
