# Version 2.1 - nm, norm@500 to 1, cut digits, bergeron_60000_85.dat_60000
# Wavelength(nm)  Flambda(ergs/cm^s/s/nm)
300.00 6.416
300.10 6.408
300.20 6.4
300.30 6.393
300.40 6.385
300.50 6.377
300.60 6.369
300.70 6.361
300.80 6.354
300.90 6.346
301.00 6.338
301.10 6.33
301.20 6.323
301.30 6.315
301.40 6.307
301.50 6.3
301.60 6.292
301.70 6.284
301.80 6.277
301.90 6.269
302.00 6.261
302.10 6.254
302.20 6.246
302.30 6.239
302.40 6.231
302.50 6.224
302.60 6.216
302.70 6.208
302.80 6.201
302.90 6.193
303.00 6.186
303.10 6.178
303.20 6.171
303.30 6.163
303.40 6.156
303.50 6.149
303.60 6.141
303.70 6.134
303.80 6.126
303.90 6.119
304.00 6.111
304.10 6.104
304.20 6.097
304.30 6.089
304.40 6.082
304.50 6.075
304.60 6.067
304.70 6.06
304.80 6.053
304.90 6.045
305.00 6.038
305.10 6.031
305.20 6.024
305.30 6.016
305.40 6.009
305.50 6.002
305.60 5.995
305.70 5.988
305.80 5.98
305.90 5.973
306.00 5.966
306.10 5.959
306.20 5.952
306.30 5.945
306.40 5.937
306.50 5.93
306.60 5.923
306.70 5.916
306.80 5.909
306.90 5.902
307.00 5.895
307.10 5.888
307.20 5.881
307.30 5.874
307.40 5.867
307.50 5.86
307.60 5.853
307.70 5.846
307.80 5.839
307.90 5.832
308.00 5.825
308.10 5.818
308.20 5.811
308.30 5.804
308.40 5.797
308.50 5.79
308.60 5.783
308.70 5.776
308.80 5.77
308.90 5.763
309.00 5.756
309.10 5.749
309.20 5.742
309.30 5.735
309.40 5.728
309.50 5.722
309.60 5.715
309.70 5.708
309.80 5.701
309.90 5.695
310.00 5.688
310.10 5.681
310.20 5.674
310.30 5.668
310.40 5.661
310.50 5.654
310.60 5.647
310.70 5.641
310.80 5.634
310.90 5.627
311.00 5.621
311.10 5.614
311.20 5.608
311.30 5.601
311.40 5.594
311.50 5.588
311.60 5.581
311.70 5.574
311.80 5.568
311.90 5.561
312.00 5.555
312.10 5.548
312.20 5.542
312.30 5.535
312.40 5.529
312.50 5.522
312.60 5.516
312.70 5.509
312.80 5.503
312.90 5.496
313.00 5.49
313.10 5.483
313.20 5.477
313.30 5.47
313.40 5.464
313.50 5.458
313.60 5.451
313.70 5.445
313.80 5.438
313.90 5.432
314.00 5.426
314.10 5.419
314.20 5.413
314.30 5.407
314.40 5.4
314.50 5.394
314.60 5.388
314.70 5.381
314.80 5.375
314.90 5.369
315.00 5.362
315.10 5.356
315.20 5.35
315.30 5.344
315.40 5.338
315.50 5.331
315.60 5.325
315.70 5.319
315.80 5.313
315.90 5.306
316.00 5.3
316.10 5.294
316.20 5.288
316.30 5.282
316.40 5.276
316.50 5.27
316.60 5.263
316.70 5.257
316.80 5.251
316.90 5.245
317.00 5.239
317.10 5.233
317.20 5.227
317.30 5.221
317.40 5.215
317.50 5.209
317.60 5.203
317.70 5.197
317.80 5.191
317.90 5.185
318.00 5.179
318.10 5.173
318.20 5.167
318.30 5.161
318.40 5.155
318.50 5.149
318.60 5.143
318.70 5.137
318.80 5.131
318.90 5.125
319.00 5.119
319.10 5.113
319.20 5.107
319.30 5.101
319.40 5.095
319.50 5.09
319.60 5.084
319.70 5.078
319.80 5.072
319.90 5.066
320.00 5.06
320.10 5.054
320.20 5.049
320.30 5.043
320.40 5.037
320.50 5.031
320.60 5.025
320.70 5.02
320.80 5.014
320.90 5.008
321.00 5.002
321.10 4.997
321.20 4.991
321.30 4.985
321.40 4.979
321.50 4.974
321.60 4.968
321.70 4.962
321.80 4.957
321.90 4.951
322.00 4.945
322.10 4.94
322.20 4.934
322.30 4.928
322.40 4.923
322.50 4.917
322.60 4.912
322.70 4.906
322.80 4.9
322.90 4.895
323.00 4.889
323.10 4.884
323.20 4.878
323.30 4.872
323.40 4.867
323.50 4.861
323.60 4.856
323.70 4.85
323.80 4.845
323.90 4.839
324.00 4.834
324.10 4.828
324.20 4.823
324.30 4.817
324.40 4.812
324.50 4.806
324.60 4.801
324.70 4.795
324.80 4.79
324.90 4.784
325.00 4.779
325.10 4.774
325.20 4.768
325.30 4.763
325.40 4.757
325.50 4.752
325.60 4.747
325.70 4.741
325.80 4.736
325.90 4.731
326.00 4.725
326.10 4.72
326.20 4.714
326.30 4.709
326.40 4.704
326.50 4.699
326.60 4.693
326.70 4.688
326.80 4.683
326.90 4.677
327.00 4.672
327.10 4.667
327.20 4.662
327.30 4.656
327.40 4.651
327.50 4.646
327.60 4.641
327.70 4.635
327.80 4.63
327.90 4.625
328.00 4.62
328.10 4.615
328.20 4.609
328.30 4.604
328.40 4.599
328.50 4.594
328.60 4.589
328.70 4.584
328.80 4.578
328.90 4.573
329.00 4.568
329.10 4.563
329.20 4.558
329.30 4.553
329.40 4.548
329.50 4.543
329.60 4.537
329.70 4.532
329.80 4.527
329.90 4.522
330.00 4.517
330.10 4.512
330.20 4.507
330.30 4.502
330.40 4.497
330.50 4.492
330.60 4.487
330.70 4.482
330.80 4.477
330.90 4.472
331.00 4.467
331.10 4.462
331.20 4.457
331.30 4.452
331.40 4.447
331.50 4.442
331.60 4.437
331.70 4.432
331.80 4.427
331.90 4.422
332.00 4.417
332.10 4.413
332.20 4.408
332.30 4.403
332.40 4.398
332.50 4.393
332.60 4.388
332.70 4.383
332.80 4.378
332.90 4.374
333.00 4.369
333.10 4.364
333.20 4.359
333.30 4.354
333.40 4.349
333.50 4.345
333.60 4.34
333.70 4.335
333.80 4.33
333.90 4.325
334.00 4.321
334.10 4.316
334.20 4.311
334.30 4.306
334.40 4.301
334.50 4.297
334.60 4.292
334.70 4.287
334.80 4.283
334.90 4.278
335.00 4.273
335.10 4.268
335.20 4.264
335.30 4.259
335.40 4.254
335.50 4.25
335.60 4.245
335.70 4.24
335.80 4.236
335.90 4.231
336.00 4.226
336.10 4.222
336.20 4.217
336.30 4.212
336.40 4.208
336.50 4.203
336.60 4.199
336.70 4.194
336.80 4.189
336.90 4.185
337.00 4.18
337.10 4.176
337.20 4.171
337.30 4.166
337.40 4.162
337.50 4.157
337.60 4.153
337.70 4.148
337.80 4.144
337.90 4.139
338.00 4.134
338.10 4.13
338.20 4.125
338.30 4.121
338.40 4.116
338.50 4.112
338.60 4.108
338.70 4.103
338.80 4.099
338.90 4.094
339.00 4.09
339.10 4.085
339.20 4.081
339.30 4.076
339.40 4.072
339.50 4.067
339.60 4.063
339.70 4.059
339.80 4.054
339.90 4.05
340.00 4.045
340.10 4.041
340.20 4.036
340.30 4.032
340.40 4.028
340.50 4.023
340.60 4.019
340.70 4.015
340.80 4.01
340.90 4.006
341.00 4.002
341.10 3.997
341.20 3.993
341.30 3.989
341.40 3.984
341.50 3.98
341.60 3.976
341.70 3.971
341.80 3.967
341.90 3.963
342.00 3.958
342.10 3.954
342.20 3.95
342.30 3.946
342.40 3.941
342.50 3.937
342.60 3.933
342.70 3.929
342.80 3.924
342.90 3.92
343.00 3.916
343.10 3.912
343.20 3.907
343.30 3.903
343.40 3.899
343.50 3.895
343.60 3.891
343.70 3.886
343.80 3.882
343.90 3.878
344.00 3.874
344.10 3.87
344.20 3.866
344.30 3.861
344.40 3.857
344.50 3.853
344.60 3.849
344.70 3.845
344.80 3.841
344.90 3.837
345.00 3.833
345.10 3.828
345.20 3.824
345.30 3.82
345.40 3.816
345.50 3.812
345.60 3.808
345.70 3.804
345.80 3.8
345.90 3.796
346.00 3.792
346.10 3.788
346.20 3.784
346.30 3.779
346.40 3.775
346.50 3.771
346.60 3.767
346.70 3.763
346.80 3.759
346.90 3.755
347.00 3.751
347.10 3.747
347.20 3.743
347.30 3.739
347.40 3.735
347.50 3.731
347.60 3.727
347.70 3.723
347.80 3.719
347.90 3.715
348.00 3.712
348.10 3.708
348.20 3.704
348.30 3.7
348.40 3.696
348.50 3.692
348.60 3.688
348.70 3.684
348.80 3.68
348.90 3.676
349.00 3.672
349.10 3.668
349.20 3.665
349.30 3.661
349.40 3.657
349.50 3.653
349.60 3.649
349.70 3.645
349.80 3.641
349.90 3.637
350.00 3.634
350.10 3.63
350.20 3.626
350.30 3.622
350.40 3.618
350.50 3.614
350.60 3.611
350.70 3.607
350.80 3.603
350.90 3.599
351.00 3.595
351.10 3.592
351.20 3.588
351.30 3.584
351.40 3.58
351.50 3.576
351.60 3.573
351.70 3.569
351.80 3.565
351.90 3.561
352.00 3.558
352.10 3.554
352.20 3.55
352.30 3.546
352.40 3.543
352.50 3.539
352.60 3.535
352.70 3.532
352.80 3.528
352.90 3.524
353.00 3.52
353.10 3.517
353.20 3.513
353.30 3.509
353.40 3.506
353.50 3.502
353.60 3.498
353.70 3.495
353.80 3.491
353.90 3.487
354.00 3.484
354.10 3.48
354.20 3.476
354.30 3.473
354.40 3.469
354.50 3.466
354.60 3.462
354.70 3.458
354.80 3.455
354.90 3.451
355.00 3.447
355.10 3.444
355.20 3.44
355.30 3.437
355.40 3.433
355.50 3.429
355.60 3.426
355.70 3.422
355.80 3.419
355.90 3.415
356.00 3.412
356.10 3.408
356.20 3.405
356.30 3.401
356.40 3.397
356.50 3.394
356.60 3.39
356.70 3.387
356.80 3.383
356.90 3.38
357.00 3.376
357.10 3.373
357.20 3.369
357.30 3.366
357.40 3.362
357.50 3.359
357.60 3.355
357.70 3.352
357.80 3.348
357.90 3.345
358.00 3.341
358.10 3.338
358.20 3.335
358.30 3.331
358.40 3.328
358.50 3.324
358.60 3.321
358.70 3.317
358.80 3.314
358.90 3.31
359.00 3.307
359.10 3.304
359.20 3.3
359.30 3.297
359.40 3.293
359.50 3.29
359.60 3.287
359.70 3.283
359.80 3.28
359.90 3.276
360.00 3.273
360.10 3.27
360.20 3.266
360.30 3.263
360.40 3.26
360.50 3.256
360.60 3.253
360.70 3.25
360.80 3.246
360.90 3.243
361.00 3.24
361.10 3.236
361.20 3.233
361.30 3.23
361.40 3.226
361.50 3.223
361.60 3.22
361.70 3.216
361.80 3.213
361.90 3.21
362.00 3.206
362.10 3.203
362.20 3.2
362.30 3.197
362.40 3.193
362.50 3.19
362.60 3.187
362.70 3.184
362.80 3.18
362.90 3.177
363.00 3.174
363.10 3.17
363.20 3.167
363.30 3.164
363.40 3.161
363.50 3.158
363.60 3.154
363.70 3.151
363.80 3.148
363.90 3.145
364.00 3.142
364.10 3.138
364.20 3.135
364.30 3.132
364.40 3.129
364.50 3.126
364.60 3.122
364.70 3.119
364.80 3.116
364.90 3.113
365.00 3.11
365.10 3.107
365.20 3.103
365.30 3.1
365.40 3.097
365.50 3.094
365.60 3.091
365.70 3.088
365.80 3.084
365.90 3.081
366.00 3.078
366.10 3.075
366.20 3.072
366.30 3.069
366.40 3.066
366.50 3.062
366.60 3.059
366.70 3.056
366.80 3.053
366.90 3.05
367.00 3.047
367.10 3.043
367.20 3.04
367.30 3.037
367.40 3.034
367.50 3.031
367.60 3.028
367.70 3.025
367.80 3.022
367.90 3.018
368.00 3.015
368.10 3.012
368.20 3.009
368.30 3.006
368.40 3.003
368.50 3
368.60 2.996
368.70 2.993
368.80 2.99
368.90 2.987
369.00 2.984
369.10 2.981
369.20 2.978
369.30 2.975
369.40 2.971
369.50 2.968
369.60 2.965
369.70 2.962
369.80 2.959
369.90 2.956
370.00 2.953
370.10 2.95
370.20 2.947
370.30 2.944
370.40 2.941
370.50 2.938
370.60 2.935
370.70 2.932
370.80 2.929
370.90 2.926
371.00 2.923
371.10 2.92
371.20 2.917
371.30 2.914
371.40 2.91
371.50 2.907
371.60 2.904
371.70 2.901
371.80 2.898
371.90 2.895
372.00 2.893
372.10 2.89
372.20 2.887
372.30 2.884
372.40 2.881
372.50 2.878
372.60 2.875
372.70 2.872
372.80 2.869
372.90 2.866
373.00 2.864
373.10 2.861
373.20 2.858
373.30 2.855
373.40 2.852
373.50 2.849
373.60 2.846
373.70 2.843
373.80 2.841
373.90 2.838
374.00 2.835
374.10 2.832
374.20 2.829
374.30 2.826
374.40 2.823
374.50 2.82
374.60 2.818
374.70 2.815
374.80 2.812
374.90 2.809
375.00 2.806
375.10 2.803
375.20 2.8
375.30 2.798
375.40 2.795
375.50 2.792
375.60 2.789
375.70 2.786
375.80 2.783
375.90 2.78
376.00 2.778
376.10 2.775
376.20 2.772
376.30 2.769
376.40 2.766
376.50 2.764
376.60 2.761
376.70 2.758
376.80 2.755
376.90 2.753
377.00 2.75
377.10 2.747
377.20 2.744
377.30 2.742
377.40 2.739
377.50 2.736
377.60 2.733
377.70 2.731
377.80 2.728
377.90 2.725
378.00 2.723
378.10 2.72
378.20 2.717
378.30 2.715
378.40 2.712
378.50 2.709
378.60 2.707
378.70 2.704
378.80 2.701
378.90 2.699
379.00 2.696
379.10 2.694
379.20 2.691
379.30 2.688
379.40 2.686
379.50 2.683
379.60 2.681
379.70 2.678
379.80 2.675
379.90 2.673
380.00 2.67
380.10 2.668
380.20 2.665
380.30 2.663
380.40 2.66
380.50 2.658
380.60 2.655
380.70 2.653
380.80 2.65
380.90 2.648
381.00 2.645
381.10 2.643
381.20 2.64
381.30 2.638
381.40 2.635
381.50 2.633
381.60 2.63
381.70 2.628
381.80 2.625
381.90 2.623
382.00 2.62
382.10 2.618
382.20 2.615
382.30 2.613
382.40 2.61
382.50 2.608
382.60 2.605
382.70 2.603
382.80 2.6
382.90 2.598
383.00 2.595
383.10 2.593
383.20 2.59
383.30 2.588
383.40 2.586
383.50 2.583
383.60 2.581
383.70 2.579
383.80 2.576
383.90 2.574
384.00 2.572
384.10 2.57
384.20 2.567
384.30 2.565
384.40 2.563
384.50 2.561
384.60 2.558
384.70 2.556
384.80 2.554
384.90 2.552
385.00 2.55
385.10 2.547
385.20 2.545
385.30 2.543
385.40 2.541
385.50 2.538
385.60 2.536
385.70 2.534
385.80 2.531
385.90 2.529
386.00 2.527
386.10 2.524
386.20 2.522
386.30 2.519
386.40 2.517
386.50 2.514
386.60 2.512
386.70 2.51
386.80 2.507
386.90 2.505
387.00 2.502
387.10 2.499
387.20 2.497
387.30 2.494
387.40 2.492
387.50 2.489
387.60 2.487
387.70 2.484
387.80 2.481
387.90 2.479
388.00 2.476
388.10 2.474
388.20 2.471
388.30 2.469
388.40 2.466
388.50 2.464
388.60 2.462
388.70 2.459
388.80 2.457
388.90 2.455
389.00 2.453
389.10 2.451
389.20 2.449
389.30 2.447
389.40 2.446
389.50 2.444
389.60 2.442
389.70 2.441
389.80 2.439
389.90 2.438
390.00 2.436
390.10 2.434
390.20 2.433
390.30 2.431
390.40 2.43
390.50 2.428
390.60 2.426
390.70 2.425
390.80 2.423
390.90 2.421
391.00 2.419
391.10 2.417
391.20 2.416
391.30 2.414
391.40 2.412
391.50 2.41
391.60 2.408
391.70 2.406
391.80 2.404
391.90 2.402
392.00 2.4
392.10 2.398
392.20 2.395
392.30 2.393
392.40 2.391
392.50 2.389
392.60 2.386
392.70 2.384
392.80 2.381
392.90 2.379
393.00 2.376
393.10 2.374
393.20 2.371
393.30 2.368
393.40 2.366
393.50 2.363
393.60 2.36
393.70 2.357
393.80 2.354
393.90 2.351
394.00 2.348
394.10 2.345
394.20 2.342
394.30 2.339
394.40 2.336
394.50 2.333
394.60 2.329
394.70 2.326
394.80 2.323
394.90 2.319
395.00 2.316
395.10 2.312
395.20 2.309
395.30 2.305
395.40 2.301
395.50 2.298
395.60 2.294
395.70 2.291
395.80 2.287
395.90 2.283
396.00 2.279
396.10 2.276
396.20 2.272
396.30 2.268
396.40 2.265
396.50 2.261
396.60 2.257
396.70 2.254
396.80 2.251
396.90 2.248
397.00 2.245
397.10 2.244
397.20 2.243
397.30 2.243
397.40 2.243
397.50 2.242
397.60 2.242
397.70 2.242
397.80 2.242
397.90 2.242
398.00 2.242
398.10 2.242
398.20 2.242
398.30 2.242
398.40 2.242
398.50 2.242
398.60 2.242
398.70 2.242
398.80 2.242
398.90 2.242
399.00 2.242
399.10 2.242
399.20 2.241
399.30 2.241
399.40 2.241
399.50 2.24
399.60 2.24
399.70 2.239
399.80 2.239
399.90 2.238
400.00 2.237
400.10 2.237
400.20 2.236
400.30 2.235
400.40 2.234
400.50 2.233
400.60 2.233
400.70 2.232
400.80 2.231
400.90 2.229
401.00 2.228
401.10 2.227
401.20 2.226
401.30 2.225
401.40 2.223
401.50 2.222
401.60 2.221
401.70 2.219
401.80 2.218
401.90 2.216
402.00 2.215
402.10 2.213
402.20 2.211
402.30 2.21
402.40 2.208
402.50 2.206
402.60 2.204
402.70 2.203
402.80 2.201
402.90 2.199
403.00 2.197
403.10 2.195
403.20 2.192
403.30 2.19
403.40 2.188
403.50 2.186
403.60 2.184
403.70 2.181
403.80 2.179
403.90 2.176
404.00 2.174
404.10 2.171
404.20 2.169
404.30 2.166
404.40 2.163
404.50 2.161
404.60 2.158
404.70 2.155
404.80 2.152
404.90 2.149
405.00 2.146
405.10 2.143
405.20 2.14
405.30 2.137
405.40 2.133
405.50 2.13
405.60 2.127
405.70 2.123
405.80 2.12
405.90 2.116
406.00 2.112
406.10 2.109
406.20 2.105
406.30 2.101
406.40 2.097
406.50 2.093
406.60 2.089
406.70 2.085
406.80 2.08
406.90 2.076
407.00 2.072
407.10 2.067
407.20 2.063
407.30 2.058
407.40 2.053
407.50 2.048
407.60 2.043
407.70 2.038
407.80 2.033
407.90 2.028
408.00 2.023
408.10 2.017
408.20 2.012
408.30 2.007
408.40 2.001
408.50 1.995
408.60 1.99
408.70 1.984
408.80 1.978
408.90 1.972
409.00 1.966
409.10 1.96
409.20 1.955
409.30 1.949
409.40 1.943
409.50 1.938
409.60 1.933
409.70 1.928
409.80 1.925
409.90 1.921
410.00 1.92
410.10 1.92
410.20 1.92
410.30 1.916
410.40 1.913
410.50 1.912
410.60 1.913
410.70 1.914
410.80 1.915
410.90 1.917
411.00 1.919
411.10 1.922
411.20 1.924
411.30 1.927
411.40 1.929
411.50 1.931
411.60 1.934
411.70 1.936
411.80 1.939
411.90 1.941
412.00 1.943
412.10 1.945
412.20 1.947
412.30 1.949
412.40 1.951
412.50 1.953
412.60 1.954
412.70 1.956
412.80 1.957
412.90 1.959
413.00 1.96
413.10 1.961
413.20 1.962
413.30 1.963
413.40 1.964
413.50 1.965
413.60 1.966
413.70 1.967
413.80 1.968
413.90 1.968
414.00 1.969
414.10 1.969
414.20 1.97
414.30 1.97
414.40 1.97
414.50 1.97
414.60 1.97
414.70 1.97
414.80 1.97
414.90 1.97
415.00 1.97
415.10 1.97
415.20 1.97
415.30 1.97
415.40 1.969
415.50 1.969
415.60 1.969
415.70 1.968
415.80 1.968
415.90 1.967
416.00 1.967
416.10 1.966
416.20 1.965
416.30 1.965
416.40 1.964
416.50 1.963
416.60 1.962
416.70 1.962
416.80 1.961
416.90 1.96
417.00 1.959
417.10 1.958
417.20 1.957
417.30 1.956
417.40 1.955
417.50 1.954
417.60 1.953
417.70 1.952
417.80 1.951
417.90 1.95
418.00 1.948
418.10 1.947
418.20 1.946
418.30 1.945
418.40 1.944
418.50 1.942
418.60 1.941
418.70 1.94
418.80 1.938
418.90 1.937
419.00 1.936
419.10 1.934
419.20 1.933
419.30 1.932
419.40 1.93
419.50 1.929
419.60 1.927
419.70 1.926
419.80 1.925
419.90 1.923
420.00 1.922
420.10 1.92
420.20 1.919
420.30 1.917
420.40 1.916
420.50 1.914
420.60 1.912
420.70 1.911
420.80 1.909
420.90 1.908
421.00 1.906
421.10 1.905
421.20 1.903
421.30 1.901
421.40 1.9
421.50 1.898
421.60 1.896
421.70 1.895
421.80 1.893
421.90 1.891
422.00 1.89
422.10 1.888
422.20 1.886
422.30 1.885
422.40 1.883
422.50 1.881
422.60 1.879
422.70 1.878
422.80 1.876
422.90 1.874
423.00 1.872
423.10 1.87
423.20 1.869
423.30 1.867
423.40 1.865
423.50 1.863
423.60 1.861
423.70 1.859
423.80 1.858
423.90 1.856
424.00 1.854
424.10 1.852
424.20 1.85
424.30 1.848
424.40 1.846
424.50 1.844
424.60 1.842
424.70 1.84
424.80 1.838
424.90 1.836
425.00 1.834
425.10 1.832
425.20 1.83
425.30 1.828
425.40 1.826
425.50 1.824
425.60 1.821
425.70 1.819
425.80 1.817
425.90 1.815
426.00 1.813
426.10 1.81
426.20 1.808
426.30 1.806
426.40 1.804
426.50 1.801
426.60 1.799
426.70 1.796
426.80 1.794
426.90 1.792
427.00 1.789
427.10 1.787
427.20 1.784
427.30 1.781
427.40 1.779
427.50 1.776
427.60 1.774
427.70 1.771
427.80 1.768
427.90 1.765
428.00 1.763
428.10 1.76
428.20 1.757
428.30 1.754
428.40 1.751
428.50 1.748
428.60 1.745
428.70 1.741
428.80 1.738
428.90 1.735
429.00 1.732
429.10 1.728
429.20 1.725
429.30 1.721
429.40 1.718
429.50 1.714
429.60 1.71
429.70 1.707
429.80 1.703
429.90 1.699
430.00 1.695
430.10 1.691
430.20 1.686
430.30 1.682
430.40 1.678
430.50 1.673
430.60 1.669
430.70 1.664
430.80 1.659
430.90 1.654
431.00 1.649
431.10 1.644
431.20 1.639
431.30 1.634
431.40 1.629
431.50 1.623
431.60 1.617
431.70 1.612
431.80 1.606
431.90 1.6
432.00 1.594
432.10 1.588
432.20 1.581
432.30 1.575
432.40 1.569
432.50 1.562
432.60 1.555
432.70 1.549
432.80 1.542
432.90 1.535
433.00 1.528
433.10 1.522
433.20 1.515
433.30 1.508
433.40 1.502
433.50 1.495
433.60 1.488
433.70 1.482
433.80 1.474
433.90 1.467
434.00 1.459
434.10 1.458
434.20 1.464
434.30 1.469
434.40 1.474
434.50 1.478
434.60 1.482
434.70 1.486
434.80 1.49
434.90 1.495
435.00 1.499
435.10 1.503
435.20 1.507
435.30 1.511
435.40 1.516
435.50 1.52
435.60 1.524
435.70 1.527
435.80 1.531
435.90 1.535
436.00 1.538
436.10 1.542
436.20 1.545
436.30 1.548
436.40 1.551
436.50 1.554
436.60 1.557
436.70 1.56
436.80 1.562
436.90 1.565
437.00 1.567
437.10 1.569
437.20 1.571
437.30 1.573
437.40 1.575
437.50 1.577
437.60 1.578
437.70 1.58
437.80 1.581
437.90 1.582
438.00 1.584
438.10 1.585
438.20 1.586
438.30 1.587
438.40 1.588
438.50 1.589
438.60 1.589
438.70 1.59
438.80 1.591
438.90 1.591
439.00 1.592
439.10 1.592
439.20 1.592
439.30 1.593
439.40 1.593
439.50 1.593
439.60 1.593
439.70 1.593
439.80 1.593
439.90 1.593
440.00 1.593
440.10 1.593
440.20 1.593
440.30 1.592
440.40 1.592
440.50 1.592
440.60 1.592
440.70 1.591
440.80 1.591
440.90 1.59
441.00 1.59
441.10 1.589
441.20 1.589
441.30 1.588
441.40 1.588
441.50 1.587
441.60 1.587
441.70 1.586
441.80 1.585
441.90 1.585
442.00 1.584
442.10 1.583
442.20 1.582
442.30 1.582
442.40 1.581
442.50 1.58
442.60 1.579
442.70 1.578
442.80 1.577
442.90 1.577
443.00 1.576
443.10 1.575
443.20 1.574
443.30 1.573
443.40 1.572
443.50 1.571
443.60 1.57
443.70 1.569
443.80 1.568
443.90 1.567
444.00 1.566
444.10 1.565
444.20 1.564
444.30 1.563
444.40 1.562
444.50 1.561
444.60 1.56
444.70 1.559
444.80 1.558
444.90 1.557
445.00 1.556
445.10 1.554
445.20 1.553
445.30 1.552
445.40 1.551
445.50 1.55
445.60 1.549
445.70 1.548
445.80 1.547
445.90 1.546
446.00 1.544
446.10 1.543
446.20 1.542
446.30 1.541
446.40 1.54
446.50 1.539
446.60 1.538
446.70 1.536
446.80 1.535
446.90 1.534
447.00 1.533
447.10 1.532
447.20 1.531
447.30 1.529
447.40 1.528
447.50 1.527
447.60 1.526
447.70 1.525
447.80 1.524
447.90 1.522
448.00 1.521
448.10 1.52
448.20 1.519
448.30 1.518
448.40 1.516
448.50 1.515
448.60 1.514
448.70 1.513
448.80 1.512
448.90 1.51
449.00 1.509
449.10 1.508
449.20 1.507
449.30 1.506
449.40 1.504
449.50 1.503
449.60 1.502
449.70 1.501
449.80 1.5
449.90 1.498
450.00 1.497
450.10 1.496
450.20 1.495
450.30 1.494
450.40 1.492
450.50 1.491
450.60 1.49
450.70 1.489
450.80 1.488
450.90 1.486
451.00 1.485
451.10 1.484
451.20 1.483
451.30 1.482
451.40 1.48
451.50 1.479
451.60 1.478
451.70 1.477
451.80 1.476
451.90 1.474
452.00 1.473
452.10 1.472
452.20 1.471
452.30 1.47
452.40 1.468
452.50 1.467
452.60 1.466
452.70 1.465
452.80 1.464
452.90 1.462
453.00 1.461
453.10 1.46
453.20 1.459
453.30 1.458
453.40 1.456
453.50 1.455
453.60 1.454
453.70 1.453
453.80 1.452
453.90 1.45
454.00 1.449
454.10 1.448
454.20 1.447
454.30 1.446
454.40 1.444
454.50 1.443
454.60 1.442
454.70 1.441
454.80 1.44
454.90 1.438
455.00 1.437
455.10 1.436
455.20 1.435
455.30 1.434
455.40 1.432
455.50 1.431
455.60 1.43
455.70 1.429
455.80 1.428
455.90 1.427
456.00 1.425
456.10 1.424
456.20 1.423
456.30 1.422
456.40 1.421
456.50 1.419
456.60 1.418
456.70 1.417
456.80 1.416
456.90 1.415
457.00 1.414
457.10 1.412
457.20 1.411
457.30 1.41
457.40 1.409
457.50 1.408
457.60 1.407
457.70 1.405
457.80 1.404
457.90 1.403
458.00 1.402
458.10 1.401
458.20 1.4
458.30 1.398
458.40 1.397
458.50 1.396
458.60 1.395
458.70 1.394
458.80 1.393
458.90 1.391
459.00 1.39
459.10 1.389
459.20 1.388
459.30 1.387
459.40 1.386
459.50 1.384
459.60 1.383
459.70 1.382
459.80 1.381
459.90 1.38
460.00 1.379
460.10 1.378
460.20 1.376
460.30 1.375
460.40 1.374
460.50 1.373
460.60 1.372
460.70 1.371
460.80 1.37
460.90 1.368
461.00 1.367
461.10 1.366
461.20 1.365
461.30 1.364
461.40 1.363
461.50 1.362
461.60 1.36
461.70 1.359
461.80 1.358
461.90 1.357
462.00 1.356
462.10 1.355
462.20 1.354
462.30 1.353
462.40 1.351
462.50 1.35
462.60 1.349
462.70 1.348
462.80 1.347
462.90 1.346
463.00 1.345
463.10 1.343
463.20 1.342
463.30 1.341
463.40 1.34
463.50 1.339
463.60 1.338
463.70 1.337
463.80 1.336
463.90 1.335
464.00 1.333
464.10 1.332
464.20 1.331
464.30 1.33
464.40 1.329
464.50 1.328
464.60 1.327
464.70 1.326
464.80 1.324
464.90 1.323
465.00 1.322
465.10 1.321
465.20 1.32
465.30 1.319
465.40 1.318
465.50 1.317
465.60 1.316
465.70 1.314
465.80 1.313
465.90 1.312
466.00 1.311
466.10 1.31
466.20 1.309
466.30 1.308
466.40 1.307
466.50 1.306
466.60 1.305
466.70 1.303
466.80 1.302
466.90 1.301
467.00 1.3
467.10 1.299
467.20 1.298
467.30 1.297
467.40 1.296
467.50 1.295
467.60 1.294
467.70 1.292
467.80 1.291
467.90 1.29
468.00 1.289
468.10 1.288
468.20 1.287
468.30 1.286
468.40 1.285
468.50 1.284
468.60 1.283
468.70 1.281
468.80 1.28
468.90 1.279
469.00 1.278
469.10 1.277
469.20 1.276
469.30 1.275
469.40 1.274
469.50 1.273
469.60 1.272
469.70 1.27
469.80 1.269
469.90 1.268
470.00 1.267
470.10 1.266
470.20 1.265
470.30 1.264
470.40 1.263
470.50 1.262
470.60 1.261
470.70 1.259
470.80 1.258
470.90 1.257
471.00 1.256
471.10 1.255
471.20 1.254
471.30 1.253
471.40 1.252
471.50 1.251
471.60 1.25
471.70 1.248
471.80 1.247
471.90 1.246
472.00 1.245
472.10 1.244
472.20 1.243
472.30 1.242
472.40 1.241
472.50 1.24
472.60 1.238
472.70 1.237
472.80 1.236
472.90 1.235
473.00 1.234
473.10 1.233
473.20 1.232
473.30 1.231
473.40 1.229
473.50 1.228
473.60 1.227
473.70 1.226
473.80 1.225
473.90 1.224
474.00 1.223
474.10 1.221
474.20 1.22
474.30 1.219
474.40 1.218
474.50 1.217
474.60 1.216
474.70 1.214
474.80 1.213
474.90 1.212
475.00 1.211
475.10 1.21
475.20 1.209
475.30 1.207
475.40 1.206
475.50 1.205
475.60 1.204
475.70 1.202
475.80 1.201
475.90 1.2
476.00 1.199
476.10 1.198
476.20 1.196
476.30 1.195
476.40 1.194
476.50 1.193
476.60 1.191
476.70 1.19
476.80 1.189
476.90 1.187
477.00 1.186
477.10 1.185
477.20 1.184
477.30 1.182
477.40 1.181
477.50 1.179
477.60 1.178
477.70 1.177
477.80 1.175
477.90 1.174
478.00 1.173
478.10 1.171
478.20 1.17
478.30 1.168
478.40 1.167
478.50 1.165
478.60 1.164
478.70 1.162
478.80 1.161
478.90 1.159
479.00 1.158
479.10 1.156
479.20 1.155
479.30 1.153
479.40 1.151
479.50 1.149
479.60 1.148
479.70 1.146
479.80 1.144
479.90 1.143
480.00 1.141
480.10 1.139
480.20 1.137
480.30 1.135
480.40 1.133
480.50 1.131
480.60 1.129
480.70 1.127
480.80 1.125
480.90 1.123
481.00 1.121
481.10 1.119
481.20 1.117
481.30 1.115
481.40 1.112
481.50 1.11
481.60 1.107
481.70 1.105
481.80 1.103
481.90 1.1
482.00 1.098
482.10 1.095
482.20 1.093
482.30 1.09
482.40 1.087
482.50 1.084
482.60 1.081
482.70 1.078
482.80 1.075
482.90 1.072
483.00 1.069
483.10 1.066
483.20 1.062
483.30 1.058
483.40 1.055
483.50 1.051
483.60 1.047
483.70 1.043
483.80 1.04
483.90 1.036
484.00 1.032
484.10 1.028
484.20 1.024
484.30 1.02
484.40 1.015
484.50 1.011
484.60 1.007
484.70 1.002
484.80 0.9972
484.90 0.9925
485.00 0.9877
485.10 0.9829
485.20 0.9781
485.30 0.9732
485.40 0.9684
485.50 0.9636
485.60 0.9591
485.70 0.9547
485.80 0.9516
485.90 0.949
486.00 0.9501
486.10 0.9622
486.20 0.9562
486.30 0.9463
486.40 0.9462
486.50 0.9473
486.60 0.9497
486.70 0.9526
486.80 0.9558
486.90 0.9591
487.00 0.9625
487.10 0.9659
487.20 0.9692
487.30 0.9724
487.40 0.9757
487.50 0.9789
487.60 0.9821
487.70 0.9851
487.80 0.9879
487.90 0.9907
488.00 0.9935
488.10 0.9963
488.20 0.9986
488.30 1.001
488.40 1.003
488.50 1.005
488.60 1.007
488.70 1.009
488.80 1.011
488.90 1.013
489.00 1.015
489.10 1.017
489.20 1.019
489.30 1.02
489.40 1.021
489.50 1.023
489.60 1.024
489.70 1.025
489.80 1.026
489.90 1.028
490.00 1.029
490.10 1.03
490.20 1.031
490.30 1.032
490.40 1.032
490.50 1.033
490.60 1.034
490.70 1.034
490.80 1.035
490.90 1.035
491.00 1.036
491.10 1.037
491.20 1.037
491.30 1.037
491.40 1.037
491.50 1.038
491.60 1.038
491.70 1.038
491.80 1.038
491.90 1.038
492.00 1.039
492.10 1.039
492.20 1.039
492.30 1.039
492.40 1.038
492.50 1.038
492.60 1.038
492.70 1.038
492.80 1.038
492.90 1.038
493.00 1.038
493.10 1.038
493.20 1.037
493.30 1.037
493.40 1.037
493.50 1.037
493.60 1.036
493.70 1.036
493.80 1.036
493.90 1.035
494.00 1.035
494.10 1.035
494.20 1.034
494.30 1.034
494.40 1.033
494.50 1.033
494.60 1.033
494.70 1.032
494.80 1.032
494.90 1.031
495.00 1.031
495.10 1.03
495.20 1.03
495.30 1.029
495.40 1.029
495.50 1.028
495.60 1.028
495.70 1.027
495.80 1.027
495.90 1.026
496.00 1.026
496.10 1.025
496.20 1.024
496.30 1.024
496.40 1.023
496.50 1.023
496.60 1.022
496.70 1.021
496.80 1.021
496.90 1.02
497.00 1.02
497.10 1.019
497.20 1.018
497.30 1.018
497.40 1.017
497.50 1.017
497.60 1.016
497.70 1.015
497.80 1.015
497.90 1.014
498.00 1.013
498.10 1.013
498.20 1.012
498.30 1.011
498.40 1.011
498.50 1.01
498.60 1.009
498.70 1.009
498.80 1.008
498.90 1.007
499.00 1.007
499.10 1.006
499.20 1.005
499.30 1.005
499.40 1.004
499.50 1.003
499.60 1.003
499.70 1.002
499.80 1.001
499.90 1.001
500.00 1
500.10 0.9993
500.20 0.9986
500.30 0.9979
500.40 0.9972
500.50 0.9965
500.60 0.9959
500.70 0.9952
500.80 0.9945
500.90 0.9938
501.00 0.9931
501.10 0.9924
501.20 0.9917
501.30 0.991
501.40 0.9903
501.50 0.9896
501.60 0.9889
501.70 0.9882
501.80 0.9875
501.90 0.9868
502.00 0.9861
502.10 0.9854
502.20 0.9847
502.30 0.984
502.40 0.9833
502.50 0.9826
502.60 0.9819
502.70 0.9812
502.80 0.9805
502.90 0.9798
503.00 0.979
503.10 0.9783
503.20 0.9776
503.30 0.9769
503.40 0.9762
503.50 0.9755
503.60 0.9748
503.70 0.9741
503.80 0.9734
503.90 0.9727
504.00 0.972
504.10 0.9713
504.20 0.9706
504.30 0.9699
504.40 0.9692
504.50 0.9685
504.60 0.9678
504.70 0.967
504.80 0.9663
504.90 0.9656
505.00 0.9649
505.10 0.9642
505.20 0.9635
505.30 0.9628
505.40 0.9621
505.50 0.9614
505.60 0.9607
505.70 0.96
505.80 0.9593
505.90 0.9586
506.00 0.9579
506.10 0.9572
506.20 0.9565
506.30 0.9558
506.40 0.9551
506.50 0.9544
506.60 0.9537
506.70 0.953
506.80 0.9523
506.90 0.9516
507.00 0.9509
507.10 0.9502
507.20 0.9495
507.30 0.9488
507.40 0.9481
507.50 0.9474
507.60 0.9467
507.70 0.946
507.80 0.9453
507.90 0.9446
508.00 0.9439
508.10 0.9432
508.20 0.9425
508.30 0.9418
508.40 0.9411
508.50 0.9404
508.60 0.9397
508.70 0.939
508.80 0.9383
508.90 0.9377
509.00 0.937
509.10 0.9363
509.20 0.9356
509.30 0.9349
509.40 0.9342
509.50 0.9335
509.60 0.9328
509.70 0.9321
509.80 0.9314
509.90 0.9308
510.00 0.9301
510.10 0.9294
510.20 0.9287
510.30 0.928
510.40 0.9273
510.50 0.9266
510.60 0.9259
510.70 0.9253
510.80 0.9246
510.90 0.9239
511.00 0.9232
511.10 0.9225
511.20 0.9218
511.30 0.9212
511.40 0.9205
511.50 0.9198
511.60 0.9191
511.70 0.9184
511.80 0.9178
511.90 0.9171
512.00 0.9164
512.10 0.9157
512.20 0.9151
512.30 0.9144
512.40 0.9137
512.50 0.913
512.60 0.9124
512.70 0.9117
512.80 0.911
512.90 0.9103
513.00 0.9097
513.10 0.909
513.20 0.9083
513.30 0.9076
513.40 0.907
513.50 0.9063
513.60 0.9056
513.70 0.905
513.80 0.9043
513.90 0.9036
514.00 0.903
514.10 0.9023
514.20 0.9016
514.30 0.901
514.40 0.9003
514.50 0.8996
514.60 0.899
514.70 0.8983
514.80 0.8976
514.90 0.897
515.00 0.8963
515.10 0.8957
515.20 0.895
515.30 0.8943
515.40 0.8937
515.50 0.893
515.60 0.8924
515.70 0.8917
515.80 0.891
515.90 0.8904
516.00 0.8897
516.10 0.8891
516.20 0.8884
516.30 0.8878
516.40 0.8871
516.50 0.8865
516.60 0.8858
516.70 0.8851
516.80 0.8845
516.90 0.8838
517.00 0.8832
517.10 0.8825
517.20 0.8819
517.30 0.8812
517.40 0.8806
517.50 0.8799
517.60 0.8793
517.70 0.8787
517.80 0.878
517.90 0.8774
518.00 0.8767
518.10 0.8761
518.20 0.8754
518.30 0.8748
518.40 0.8741
518.50 0.8735
518.60 0.8729
518.70 0.8722
518.80 0.8716
518.90 0.8709
519.00 0.8703
519.10 0.8697
519.20 0.869
519.30 0.8684
519.40 0.8677
519.50 0.8671
519.60 0.8665
519.70 0.8658
519.80 0.8652
519.90 0.8646
520.00 0.8639
520.10 0.8633
520.20 0.8627
520.30 0.862
520.40 0.8614
520.50 0.8608
520.60 0.8601
520.70 0.8595
520.80 0.8589
520.90 0.8582
521.00 0.8576
521.10 0.857
521.20 0.8563
521.30 0.8557
521.40 0.8551
521.50 0.8545
521.60 0.8538
521.70 0.8532
521.80 0.8526
521.90 0.852
522.00 0.8513
522.10 0.8507
522.20 0.8501
522.30 0.8495
522.40 0.8489
522.50 0.8482
522.60 0.8476
522.70 0.847
522.80 0.8464
522.90 0.8458
523.00 0.8451
523.10 0.8445
523.20 0.8439
523.30 0.8433
523.40 0.8427
523.50 0.8421
523.60 0.8414
523.70 0.8408
523.80 0.8402
523.90 0.8396
524.00 0.839
524.10 0.8384
524.20 0.8378
524.30 0.8372
524.40 0.8365
524.50 0.8359
524.60 0.8353
524.70 0.8347
524.80 0.8341
524.90 0.8335
525.00 0.8329
525.10 0.8323
525.20 0.8317
525.30 0.8311
525.40 0.8305
525.50 0.8299
525.60 0.8293
525.70 0.8287
525.80 0.8281
525.90 0.8275
526.00 0.8269
526.10 0.8263
526.20 0.8257
526.30 0.8251
526.40 0.8245
526.50 0.8239
526.60 0.8233
526.70 0.8227
526.80 0.8221
526.90 0.8215
527.00 0.8209
527.10 0.8203
527.20 0.8197
527.30 0.8191
527.40 0.8185
527.50 0.8179
527.60 0.8173
527.70 0.8167
527.80 0.8161
527.90 0.8155
528.00 0.8149
528.10 0.8143
528.20 0.8137
528.30 0.8132
528.40 0.8126
528.50 0.812
528.60 0.8114
528.70 0.8108
528.80 0.8102
528.90 0.8096
529.00 0.809
529.10 0.8085
529.20 0.8079
529.30 0.8073
529.40 0.8067
529.50 0.8061
529.60 0.8055
529.70 0.805
529.80 0.8044
529.90 0.8038
530.00 0.8032
530.10 0.8026
530.20 0.8021
530.30 0.8015
530.40 0.8009
530.50 0.8003
530.60 0.7997
530.70 0.7992
530.80 0.7986
530.90 0.798
531.00 0.7974
531.10 0.7969
531.20 0.7963
531.30 0.7957
531.40 0.7951
531.50 0.7946
531.60 0.794
531.70 0.7934
531.80 0.7928
531.90 0.7923
532.00 0.7917
532.10 0.7911
532.20 0.7906
532.30 0.79
532.40 0.7894
532.50 0.7889
532.60 0.7883
532.70 0.7877
532.80 0.7872
532.90 0.7866
533.00 0.786
533.10 0.7855
533.20 0.7849
533.30 0.7843
533.40 0.7838
533.50 0.7832
533.60 0.7826
533.70 0.7821
533.80 0.7815
533.90 0.781
534.00 0.7804
534.10 0.7798
534.20 0.7793
534.30 0.7787
534.40 0.7782
534.50 0.7776
534.60 0.777
534.70 0.7765
534.80 0.7759
534.90 0.7754
535.00 0.7748
535.10 0.7743
535.20 0.7737
535.30 0.7732
535.40 0.7726
535.50 0.7721
535.60 0.7715
535.70 0.7709
535.80 0.7704
535.90 0.7698
536.00 0.7693
536.10 0.7687
536.20 0.7682
536.30 0.7676
536.40 0.7671
536.50 0.7665
536.60 0.766
536.70 0.7655
536.80 0.7649
536.90 0.7644
537.00 0.7638
537.10 0.7633
537.20 0.7627
537.30 0.7622
537.40 0.7616
537.50 0.7611
537.60 0.7606
537.70 0.76
537.80 0.7595
537.90 0.7589
538.00 0.7584
538.10 0.7578
538.20 0.7573
538.30 0.7568
538.40 0.7562
538.50 0.7557
538.60 0.7551
538.70 0.7546
538.80 0.7541
538.90 0.7535
539.00 0.753
539.10 0.7525
539.20 0.7519
539.30 0.7514
539.40 0.7509
539.50 0.7503
539.60 0.7498
539.70 0.7493
539.80 0.7487
539.90 0.7482
540.00 0.7477
540.10 0.7471
540.20 0.7466
540.30 0.7461
540.40 0.7455
540.50 0.745
540.60 0.7445
540.70 0.744
540.80 0.7434
540.90 0.7429
541.00 0.7424
541.10 0.7418
541.20 0.7413
541.30 0.7408
541.40 0.7403
541.50 0.7397
541.60 0.7392
541.70 0.7387
541.80 0.7382
541.90 0.7377
542.00 0.7371
542.10 0.7366
542.20 0.7361
542.30 0.7356
542.40 0.735
542.50 0.7345
542.60 0.734
542.70 0.7335
542.80 0.733
542.90 0.7325
543.00 0.7319
543.10 0.7314
543.20 0.7309
543.30 0.7304
543.40 0.7299
543.50 0.7294
543.60 0.7288
543.70 0.7283
543.80 0.7278
543.90 0.7273
544.00 0.7268
544.10 0.7263
544.20 0.7258
544.30 0.7252
544.40 0.7247
544.50 0.7242
544.60 0.7237
544.70 0.7232
544.80 0.7227
544.90 0.7222
545.00 0.7217
545.10 0.7212
545.20 0.7207
545.30 0.7202
545.40 0.7197
545.50 0.7191
545.60 0.7186
545.70 0.7181
545.80 0.7176
545.90 0.7171
546.00 0.7166
546.10 0.7161
546.20 0.7156
546.30 0.7151
546.40 0.7146
546.50 0.7141
546.60 0.7136
546.70 0.7131
546.80 0.7126
546.90 0.7121
547.00 0.7116
547.10 0.7111
547.20 0.7106
547.30 0.7101
547.40 0.7096
547.50 0.7091
547.60 0.7086
547.70 0.7081
547.80 0.7076
547.90 0.7071
548.00 0.7066
548.10 0.7061
548.20 0.7056
548.30 0.7051
548.40 0.7047
548.50 0.7042
548.60 0.7037
548.70 0.7032
548.80 0.7027
548.90 0.7022
549.00 0.7017
549.10 0.7012
549.20 0.7007
549.30 0.7002
549.40 0.6997
549.50 0.6992
549.60 0.6988
549.70 0.6983
549.80 0.6978
549.90 0.6973
550.00 0.6968
550.10 0.6963
550.20 0.6958
550.30 0.6954
550.40 0.6949
550.50 0.6944
550.60 0.6939
550.70 0.6934
550.80 0.6929
550.90 0.6924
551.00 0.692
551.10 0.6915
551.20 0.691
551.30 0.6905
551.40 0.69
551.50 0.6896
551.60 0.6891
551.70 0.6886
551.80 0.6881
551.90 0.6876
552.00 0.6872
552.10 0.6867
552.20 0.6862
552.30 0.6857
552.40 0.6853
552.50 0.6848
552.60 0.6843
552.70 0.6838
552.80 0.6834
552.90 0.6829
553.00 0.6824
553.10 0.6819
553.20 0.6815
553.30 0.681
553.40 0.6805
553.50 0.68
553.60 0.6796
553.70 0.6791
553.80 0.6786
553.90 0.6782
554.00 0.6777
554.10 0.6772
554.20 0.6767
554.30 0.6763
554.40 0.6758
554.50 0.6753
554.60 0.6749
554.70 0.6744
554.80 0.6739
554.90 0.6735
555.00 0.673
555.10 0.6725
555.20 0.6721
555.30 0.6716
555.40 0.6711
555.50 0.6707
555.60 0.6702
555.70 0.6697
555.80 0.6693
555.90 0.6688
556.00 0.6684
556.10 0.6679
556.20 0.6674
556.30 0.667
556.40 0.6665
556.50 0.6661
556.60 0.6656
556.70 0.6651
556.80 0.6647
556.90 0.6642
557.00 0.6638
557.10 0.6633
557.20 0.6628
557.30 0.6624
557.40 0.6619
557.50 0.6615
557.60 0.661
557.70 0.6606
557.80 0.6601
557.90 0.6597
558.00 0.6592
558.10 0.6587
558.20 0.6583
558.30 0.6578
558.40 0.6574
558.50 0.6569
558.60 0.6565
558.70 0.656
558.80 0.6556
558.90 0.6551
559.00 0.6547
559.10 0.6542
559.20 0.6538
559.30 0.6533
559.40 0.6529
559.50 0.6524
559.60 0.652
559.70 0.6515
559.80 0.6511
559.90 0.6506
560.00 0.6502
560.10 0.6498
560.20 0.6493
560.30 0.6489
560.40 0.6484
560.50 0.648
560.60 0.6475
560.70 0.6471
560.80 0.6466
560.90 0.6462
561.00 0.6458
561.10 0.6453
561.20 0.6449
561.30 0.6444
561.40 0.644
561.50 0.6435
561.60 0.6431
561.70 0.6427
561.80 0.6422
561.90 0.6418
562.00 0.6413
562.10 0.6409
562.20 0.6405
562.30 0.64
562.40 0.6396
562.50 0.6392
562.60 0.6387
562.70 0.6383
562.80 0.6379
562.90 0.6374
563.00 0.637
563.10 0.6365
563.20 0.6361
563.30 0.6357
563.40 0.6352
563.50 0.6348
563.60 0.6344
563.70 0.6339
563.80 0.6335
563.90 0.6331
564.00 0.6326
564.10 0.6322
564.20 0.6318
564.30 0.6314
564.40 0.6309
564.50 0.6305
564.60 0.6301
564.70 0.6296
564.80 0.6292
564.90 0.6288
565.00 0.6284
565.10 0.6279
565.20 0.6275
565.30 0.6271
565.40 0.6266
565.50 0.6262
565.60 0.6258
565.70 0.6254
565.80 0.6249
565.90 0.6245
566.00 0.6241
566.10 0.6237
566.20 0.6232
566.30 0.6228
566.40 0.6224
566.50 0.622
566.60 0.6216
566.70 0.6211
566.80 0.6207
566.90 0.6203
567.00 0.6199
567.10 0.6195
567.20 0.619
567.30 0.6186
567.40 0.6182
567.50 0.6178
567.60 0.6174
567.70 0.6169
567.80 0.6165
567.90 0.6161
568.00 0.6157
568.10 0.6153
568.20 0.6149
568.30 0.6144
568.40 0.614
568.50 0.6136
568.60 0.6132
568.70 0.6128
568.80 0.6124
568.90 0.6119
569.00 0.6115
569.10 0.6111
569.20 0.6107
569.30 0.6103
569.40 0.6099
569.50 0.6095
569.60 0.6091
569.70 0.6086
569.80 0.6082
569.90 0.6078
570.00 0.6074
570.10 0.607
570.20 0.6066
570.30 0.6062
570.40 0.6058
570.50 0.6054
570.60 0.605
570.70 0.6046
570.80 0.6041
570.90 0.6037
571.00 0.6033
571.10 0.6029
571.20 0.6025
571.30 0.6021
571.40 0.6017
571.50 0.6013
571.60 0.6009
571.70 0.6005
571.80 0.6001
571.90 0.5997
572.00 0.5993
572.10 0.5989
572.20 0.5985
572.30 0.5981
572.40 0.5977
572.50 0.5973
572.60 0.5969
572.70 0.5965
572.80 0.5961
572.90 0.5957
573.00 0.5953
573.10 0.5949
573.20 0.5945
573.30 0.5941
573.40 0.5937
573.50 0.5933
573.60 0.5929
573.70 0.5925
573.80 0.5921
573.90 0.5917
574.00 0.5913
574.10 0.5909
574.20 0.5905
574.30 0.5901
574.40 0.5897
574.50 0.5893
574.60 0.5889
574.70 0.5885
574.80 0.5881
574.90 0.5877
575.00 0.5873
575.10 0.587
575.20 0.5866
575.30 0.5862
575.40 0.5858
575.50 0.5854
575.60 0.585
575.70 0.5846
575.80 0.5842
575.90 0.5838
576.00 0.5834
576.10 0.583
576.20 0.5827
576.30 0.5823
576.40 0.5819
576.50 0.5815
576.60 0.5811
576.70 0.5807
576.80 0.5803
576.90 0.5799
577.00 0.5795
577.10 0.5792
577.20 0.5788
577.30 0.5784
577.40 0.578
577.50 0.5776
577.60 0.5772
577.70 0.5769
577.80 0.5765
577.90 0.5761
578.00 0.5757
578.10 0.5753
578.20 0.5749
578.30 0.5746
578.40 0.5742
578.50 0.5738
578.60 0.5734
578.70 0.573
578.80 0.5726
578.90 0.5723
579.00 0.5719
579.10 0.5715
579.20 0.5711
579.30 0.5707
579.40 0.5704
579.50 0.57
579.60 0.5696
579.70 0.5692
579.80 0.5689
579.90 0.5685
580.00 0.5681
580.10 0.5677
580.20 0.5673
580.30 0.567
580.40 0.5666
580.50 0.5662
580.60 0.5658
580.70 0.5655
580.80 0.5651
580.90 0.5647
581.00 0.5643
581.10 0.564
581.20 0.5636
581.30 0.5632
581.40 0.5628
581.50 0.5625
581.60 0.5621
581.70 0.5617
581.80 0.5614
581.90 0.561
582.00 0.5606
582.10 0.5602
582.20 0.5599
582.30 0.5595
582.40 0.5591
582.50 0.5588
582.60 0.5584
582.70 0.558
582.80 0.5577
582.90 0.5573
583.00 0.5569
583.10 0.5566
583.20 0.5562
583.30 0.5558
583.40 0.5555
583.50 0.5551
583.60 0.5547
583.70 0.5544
583.80 0.554
583.90 0.5536
584.00 0.5533
584.10 0.5529
584.20 0.5525
584.30 0.5522
584.40 0.5518
584.50 0.5514
584.60 0.5511
584.70 0.5507
584.80 0.5504
584.90 0.55
585.00 0.5496
585.10 0.5493
585.20 0.5489
585.30 0.5485
585.40 0.5482
585.50 0.5478
585.60 0.5475
585.70 0.5471
585.80 0.5467
585.90 0.5464
586.00 0.546
586.10 0.5457
586.20 0.5453
586.30 0.5449
586.40 0.5446
586.50 0.5442
586.60 0.5439
586.70 0.5435
586.80 0.5432
586.90 0.5428
587.00 0.5425
587.10 0.5421
587.20 0.5417
587.30 0.5414
587.40 0.541
587.50 0.5407
587.60 0.5403
587.70 0.54
587.80 0.5396
587.90 0.5393
588.00 0.5389
588.10 0.5386
588.20 0.5382
588.30 0.5378
588.40 0.5375
588.50 0.5371
588.60 0.5368
588.70 0.5364
588.80 0.5361
588.90 0.5357
589.00 0.5354
589.10 0.535
589.20 0.5347
589.30 0.5343
589.40 0.534
589.50 0.5336
589.60 0.5333
589.70 0.5329
589.80 0.5326
589.90 0.5323
590.00 0.5319
590.10 0.5316
590.20 0.5312
590.30 0.5309
590.40 0.5305
590.50 0.5302
590.60 0.5298
590.70 0.5295
590.80 0.5291
590.90 0.5288
591.00 0.5284
591.10 0.5281
591.20 0.5278
591.30 0.5274
591.40 0.5271
591.50 0.5267
591.60 0.5264
591.70 0.526
591.80 0.5257
591.90 0.5254
592.00 0.525
592.10 0.5247
592.20 0.5243
592.30 0.524
592.40 0.5236
592.50 0.5233
592.60 0.523
592.70 0.5226
592.80 0.5223
592.90 0.5219
593.00 0.5216
593.10 0.5213
593.20 0.5209
593.30 0.5206
593.40 0.5203
593.50 0.5199
593.60 0.5196
593.70 0.5192
593.80 0.5189
593.90 0.5186
594.00 0.5182
594.10 0.5179
594.20 0.5176
594.30 0.5172
594.40 0.5169
594.50 0.5166
594.60 0.5162
594.70 0.5159
594.80 0.5156
594.90 0.5152
595.00 0.5149
595.10 0.5146
595.20 0.5142
595.30 0.5139
595.40 0.5136
595.50 0.5132
595.60 0.5129
595.70 0.5126
595.80 0.5122
595.90 0.5119
596.00 0.5116
596.10 0.5112
596.20 0.5109
596.30 0.5106
596.40 0.5102
596.50 0.5099
596.60 0.5096
596.70 0.5093
596.80 0.5089
596.90 0.5086
597.00 0.5083
597.10 0.5079
597.20 0.5076
597.30 0.5073
597.40 0.507
597.50 0.5066
597.60 0.5063
597.70 0.506
597.80 0.5056
597.90 0.5053
598.00 0.505
598.10 0.5047
598.20 0.5043
598.30 0.504
598.40 0.5037
598.50 0.5034
598.60 0.503
598.70 0.5027
598.80 0.5024
598.90 0.5021
599.00 0.5018
599.10 0.5014
599.20 0.5011
599.30 0.5008
599.40 0.5005
599.50 0.5001
599.60 0.4998
599.70 0.4995
599.80 0.4992
599.90 0.4989
600.00 0.4985
600.10 0.4982
600.20 0.4979
600.30 0.4976
600.40 0.4973
600.50 0.4969
600.60 0.4966
600.70 0.4963
600.80 0.496
600.90 0.4957
601.00 0.4953
601.10 0.495
601.20 0.4947
601.30 0.4944
601.40 0.4941
601.50 0.4938
601.60 0.4934
601.70 0.4931
601.80 0.4928
601.90 0.4925
602.00 0.4922
602.10 0.4919
602.20 0.4916
602.30 0.4912
602.40 0.4909
602.50 0.4906
602.60 0.4903
602.70 0.49
602.80 0.4897
602.90 0.4894
603.00 0.489
603.10 0.4887
603.20 0.4884
603.30 0.4881
603.40 0.4878
603.50 0.4875
603.60 0.4872
603.70 0.4869
603.80 0.4865
603.90 0.4862
604.00 0.4859
604.10 0.4856
604.20 0.4853
604.30 0.485
604.40 0.4847
604.50 0.4844
604.60 0.4841
604.70 0.4838
604.80 0.4834
604.90 0.4831
605.00 0.4828
605.10 0.4825
605.20 0.4822
605.30 0.4819
605.40 0.4816
605.50 0.4813
605.60 0.481
605.70 0.4807
605.80 0.4804
605.90 0.4801
606.00 0.4798
606.10 0.4795
606.20 0.4792
606.30 0.4788
606.40 0.4785
606.50 0.4782
606.60 0.4779
606.70 0.4776
606.80 0.4773
606.90 0.477
607.00 0.4767
607.10 0.4764
607.20 0.4761
607.30 0.4758
607.40 0.4755
607.50 0.4752
607.60 0.4749
607.70 0.4746
607.80 0.4743
607.90 0.474
608.00 0.4737
608.10 0.4734
608.20 0.4731
608.30 0.4728
608.40 0.4725
608.50 0.4722
608.60 0.4719
608.70 0.4716
608.80 0.4713
608.90 0.471
609.00 0.4707
609.10 0.4704
609.20 0.4701
609.30 0.4698
609.40 0.4695
609.50 0.4692
609.60 0.4689
609.70 0.4686
609.80 0.4683
609.90 0.468
610.00 0.4677
610.10 0.4674
610.20 0.4671
610.30 0.4668
610.40 0.4665
610.50 0.4663
610.60 0.466
610.70 0.4657
610.80 0.4654
610.90 0.4651
611.00 0.4648
611.10 0.4645
611.20 0.4642
611.30 0.4639
611.40 0.4636
611.50 0.4633
611.60 0.463
611.70 0.4627
611.80 0.4624
611.90 0.4621
612.00 0.4619
612.10 0.4616
612.20 0.4613
612.30 0.461
612.40 0.4607
612.50 0.4604
612.60 0.4601
612.70 0.4598
612.80 0.4595
612.90 0.4592
613.00 0.4589
613.10 0.4587
613.20 0.4584
613.30 0.4581
613.40 0.4578
613.50 0.4575
613.60 0.4572
613.70 0.4569
613.80 0.4566
613.90 0.4564
614.00 0.4561
614.10 0.4558
614.20 0.4555
614.30 0.4552
614.40 0.4549
614.50 0.4546
614.60 0.4543
614.70 0.4541
614.80 0.4538
614.90 0.4535
615.00 0.4532
615.10 0.4529
615.20 0.4526
615.30 0.4524
615.40 0.4521
615.50 0.4518
615.60 0.4515
615.70 0.4512
615.80 0.4509
615.90 0.4507
616.00 0.4504
616.10 0.4501
616.20 0.4498
616.30 0.4495
616.40 0.4492
616.50 0.449
616.60 0.4487
616.70 0.4484
616.80 0.4481
616.90 0.4478
617.00 0.4476
617.10 0.4473
617.20 0.447
617.30 0.4467
617.40 0.4464
617.50 0.4462
617.60 0.4459
617.70 0.4456
617.80 0.4453
617.90 0.445
618.00 0.4448
618.10 0.4445
618.20 0.4442
618.30 0.4439
618.40 0.4436
618.50 0.4434
618.60 0.4431
618.70 0.4428
618.80 0.4425
618.90 0.4423
619.00 0.442
619.10 0.4417
619.20 0.4414
619.30 0.4412
619.40 0.4409
619.50 0.4406
619.60 0.4403
619.70 0.44
619.80 0.4398
619.90 0.4395
620.00 0.4392
620.10 0.439
620.20 0.4387
620.30 0.4384
620.40 0.4381
620.50 0.4379
620.60 0.4376
620.70 0.4373
620.80 0.437
620.90 0.4368
621.00 0.4365
621.10 0.4362
621.20 0.4359
621.30 0.4357
621.40 0.4354
621.50 0.4351
621.60 0.4349
621.70 0.4346
621.80 0.4343
621.90 0.434
622.00 0.4338
622.10 0.4335
622.20 0.4332
622.30 0.433
622.40 0.4327
622.50 0.4324
622.60 0.4322
622.70 0.4319
622.80 0.4316
622.90 0.4313
623.00 0.4311
623.10 0.4308
623.20 0.4305
623.30 0.4303
623.40 0.43
623.50 0.4297
623.60 0.4295
623.70 0.4292
623.80 0.4289
623.90 0.4287
624.00 0.4284
624.10 0.4281
624.20 0.4279
624.30 0.4276
624.40 0.4273
624.50 0.4271
624.60 0.4268
624.70 0.4265
624.80 0.4263
624.90 0.426
625.00 0.4257
625.10 0.4255
625.20 0.4252
625.30 0.425
625.40 0.4247
625.50 0.4244
625.60 0.4242
625.70 0.4239
625.80 0.4236
625.90 0.4234
626.00 0.4231
626.10 0.4228
626.20 0.4226
626.30 0.4223
626.40 0.4221
626.50 0.4218
626.60 0.4215
626.70 0.4213
626.80 0.421
626.90 0.4207
627.00 0.4205
627.10 0.4202
627.20 0.42
627.30 0.4197
627.40 0.4194
627.50 0.4192
627.60 0.4189
627.70 0.4187
627.80 0.4184
627.90 0.4181
628.00 0.4179
628.10 0.4176
628.20 0.4174
628.30 0.4171
628.40 0.4168
628.50 0.4166
628.60 0.4163
628.70 0.4161
628.80 0.4158
628.90 0.4156
629.00 0.4153
629.10 0.415
629.20 0.4148
629.30 0.4145
629.40 0.4143
629.50 0.414
629.60 0.4138
629.70 0.4135
629.80 0.4132
629.90 0.413
630.00 0.4127
630.10 0.4125
630.20 0.4122
630.30 0.412
630.40 0.4117
630.50 0.4115
630.60 0.4112
630.70 0.4109
630.80 0.4107
630.90 0.4104
631.00 0.4102
631.10 0.4099
631.20 0.4097
631.30 0.4094
631.40 0.4092
631.50 0.4089
631.60 0.4086
631.70 0.4084
631.80 0.4081
631.90 0.4079
632.00 0.4076
632.10 0.4074
632.20 0.4071
632.30 0.4069
632.40 0.4066
632.50 0.4064
632.60 0.4061
632.70 0.4059
632.80 0.4056
632.90 0.4054
633.00 0.4051
633.10 0.4049
633.20 0.4046
633.30 0.4044
633.40 0.4041
633.50 0.4039
633.60 0.4036
633.70 0.4033
633.80 0.4031
633.90 0.4028
634.00 0.4026
634.10 0.4023
634.20 0.4021
634.30 0.4018
634.40 0.4016
634.50 0.4013
634.60 0.4011
634.70 0.4008
634.80 0.4006
634.90 0.4003
635.00 0.4001
635.10 0.3998
635.20 0.3996
635.30 0.3993
635.40 0.3991
635.50 0.3988
635.60 0.3986
635.70 0.3983
635.80 0.3981
635.90 0.3978
636.00 0.3976
636.10 0.3974
636.20 0.3971
636.30 0.3969
636.40 0.3966
636.50 0.3964
636.60 0.3961
636.70 0.3959
636.80 0.3956
636.90 0.3954
637.00 0.3951
637.10 0.3949
637.20 0.3946
637.30 0.3944
637.40 0.3941
637.50 0.3939
637.60 0.3936
637.70 0.3934
637.80 0.3931
637.90 0.3929
638.00 0.3926
638.10 0.3924
638.20 0.3921
638.30 0.3919
638.40 0.3916
638.50 0.3914
638.60 0.3911
638.70 0.3909
638.80 0.3906
638.90 0.3904
639.00 0.3902
639.10 0.3899
639.20 0.3897
639.30 0.3894
639.40 0.3892
639.50 0.3889
639.60 0.3887
639.70 0.3884
639.80 0.3882
639.90 0.3879
640.00 0.3877
640.10 0.3874
640.20 0.3872
640.30 0.3869
640.40 0.3867
640.50 0.3864
640.60 0.3862
640.70 0.3859
640.80 0.3857
640.90 0.3854
641.00 0.3852
641.10 0.3849
641.20 0.3847
641.30 0.3844
641.40 0.3842
641.50 0.3839
641.60 0.3837
641.70 0.3834
641.80 0.3832
641.90 0.3829
642.00 0.3827
642.10 0.3824
642.20 0.3822
642.30 0.3819
642.40 0.3817
642.50 0.3814
642.60 0.3811
642.70 0.3809
642.80 0.3806
642.90 0.3804
643.00 0.3801
643.10 0.3799
643.20 0.3796
643.30 0.3794
643.40 0.3791
643.50 0.3788
643.60 0.3786
643.70 0.3783
643.80 0.3781
643.90 0.3778
644.00 0.3776
644.10 0.3773
644.20 0.377
644.30 0.3768
644.40 0.3765
644.50 0.3762
644.60 0.376
644.70 0.3757
644.80 0.3754
644.90 0.3752
645.00 0.3749
645.10 0.3746
645.20 0.3744
645.30 0.3741
645.40 0.3738
645.50 0.3736
645.60 0.3733
645.70 0.373
645.80 0.3727
645.90 0.3725
646.00 0.3722
646.10 0.3719
646.20 0.3716
646.30 0.3714
646.40 0.3711
646.50 0.3708
646.60 0.3705
646.70 0.3702
646.80 0.3699
646.90 0.3696
647.00 0.3693
647.10 0.369
647.20 0.3688
647.30 0.3685
647.40 0.3681
647.50 0.3678
647.60 0.3675
647.70 0.3672
647.80 0.3669
647.90 0.3666
648.00 0.3663
648.10 0.366
648.20 0.3657
648.30 0.3653
648.40 0.365
648.50 0.3647
648.60 0.3643
648.70 0.364
648.80 0.3636
648.90 0.3633
649.00 0.363
649.10 0.3626
649.20 0.3623
649.30 0.3619
649.40 0.3615
649.50 0.3612
649.60 0.3608
649.70 0.3604
649.80 0.36
649.90 0.3596
650.00 0.3592
650.10 0.3588
650.20 0.3585
650.30 0.3581
650.40 0.3576
650.50 0.3572
650.60 0.3567
650.70 0.3562
650.80 0.3558
650.90 0.3553
651.00 0.3549
651.10 0.3544
651.20 0.354
651.30 0.3535
651.40 0.353
651.50 0.3524
651.60 0.3519
651.70 0.3513
651.80 0.3508
651.90 0.3502
652.00 0.3497
652.10 0.3491
652.20 0.3486
652.30 0.348
652.40 0.3473
652.50 0.3466
652.60 0.3459
652.70 0.3452
652.80 0.3445
652.90 0.3439
653.00 0.3432
653.10 0.3425
653.20 0.3418
653.30 0.3411
653.40 0.3402
653.50 0.3393
653.60 0.3384
653.70 0.3376
653.80 0.3367
653.90 0.3358
654.00 0.3349
654.10 0.3341
654.20 0.3332
654.30 0.3323
654.40 0.3312
654.50 0.3302
654.60 0.3292
654.70 0.3281
654.80 0.3271
654.90 0.326
655.00 0.3249
655.10 0.3238
655.20 0.3226
655.30 0.3215
655.40 0.3204
655.50 0.3193
655.60 0.3181
655.70 0.3171
655.80 0.3161
655.90 0.3152
656.00 0.3149
656.10 0.3149
656.20 0.323
656.30 0.3372
656.40 0.3175
656.50 0.314
656.60 0.3139
656.70 0.314
656.80 0.3146
656.90 0.3152
657.00 0.316
657.10 0.3167
657.20 0.3175
657.30 0.3183
657.40 0.319
657.50 0.3197
657.60 0.3205
657.70 0.3212
657.80 0.3219
657.90 0.3226
658.00 0.3232
658.10 0.3239
658.20 0.3245
658.30 0.3251
658.40 0.3256
658.50 0.3261
658.60 0.3266
658.70 0.327
658.80 0.3275
658.90 0.328
659.00 0.3285
659.10 0.3289
659.20 0.3294
659.30 0.3298
659.40 0.3301
659.50 0.3304
659.60 0.3307
659.70 0.331
659.80 0.3312
659.90 0.3315
660.00 0.3318
660.10 0.3321
660.20 0.3323
660.30 0.3326
660.40 0.3327
660.50 0.3329
660.60 0.333
660.70 0.3331
660.80 0.3333
660.90 0.3334
661.00 0.3335
661.10 0.3336
661.20 0.3338
661.30 0.3339
661.40 0.3339
661.50 0.3339
661.60 0.334
661.70 0.334
661.80 0.334
661.90 0.3341
662.00 0.3341
662.10 0.3341
662.20 0.3342
662.30 0.3342
662.40 0.3341
662.50 0.3341
662.60 0.3341
662.70 0.334
662.80 0.334
662.90 0.3339
663.00 0.3339
663.10 0.3339
663.20 0.3338
663.30 0.3338
663.40 0.3337
663.50 0.3336
663.60 0.3335
663.70 0.3335
663.80 0.3334
663.90 0.3333
664.00 0.3332
664.10 0.3331
664.20 0.333
664.30 0.333
664.40 0.3328
664.50 0.3327
664.60 0.3326
664.70 0.3325
664.80 0.3324
664.90 0.3323
665.00 0.3322
665.10 0.332
665.20 0.3319
665.30 0.3318
665.40 0.3317
665.50 0.3315
665.60 0.3314
665.70 0.3313
665.80 0.3311
665.90 0.331
666.00 0.3309
666.10 0.3307
666.20 0.3306
666.30 0.3305
666.40 0.3303
666.50 0.3302
666.60 0.33
666.70 0.3299
666.80 0.3297
666.90 0.3296
667.00 0.3294
667.10 0.3293
667.20 0.3292
667.30 0.329
667.40 0.3288
667.50 0.3287
667.60 0.3285
667.70 0.3284
667.80 0.3282
667.90 0.3281
668.00 0.3279
668.10 0.3277
668.20 0.3276
668.30 0.3274
668.40 0.3273
668.50 0.3271
668.60 0.3269
668.70 0.3268
668.80 0.3266
668.90 0.3265
669.00 0.3263
669.10 0.3261
669.20 0.326
669.30 0.3258
669.40 0.3256
669.50 0.3255
669.60 0.3253
669.70 0.3251
669.80 0.325
669.90 0.3248
670.00 0.3246
670.10 0.3245
670.20 0.3243
670.30 0.3241
670.40 0.324
670.50 0.3238
670.60 0.3236
670.70 0.3234
670.80 0.3233
670.90 0.3231
671.00 0.3229
671.10 0.3228
671.20 0.3226
671.30 0.3224
671.40 0.3223
671.50 0.3221
671.60 0.3219
671.70 0.3217
671.80 0.3216
671.90 0.3214
672.00 0.3212
672.10 0.321
672.20 0.3209
672.30 0.3207
672.40 0.3205
672.50 0.3204
672.60 0.3202
672.70 0.32
672.80 0.3198
672.90 0.3197
673.00 0.3195
673.10 0.3193
673.20 0.3191
673.30 0.319
673.40 0.3188
673.50 0.3186
673.60 0.3184
673.70 0.3183
673.80 0.3181
673.90 0.3179
674.00 0.3178
674.10 0.3176
674.20 0.3174
674.30 0.3172
674.40 0.3171
674.50 0.3169
674.60 0.3167
674.70 0.3165
674.80 0.3164
674.90 0.3162
675.00 0.316
675.10 0.3158
675.20 0.3157
675.30 0.3155
675.40 0.3153
675.50 0.3151
675.60 0.315
675.70 0.3148
675.80 0.3146
675.90 0.3144
676.00 0.3143
676.10 0.3141
676.20 0.3139
676.30 0.3138
676.40 0.3136
676.50 0.3134
676.60 0.3132
676.70 0.3131
676.80 0.3129
676.90 0.3127
677.00 0.3125
677.10 0.3124
677.20 0.3122
677.30 0.312
677.40 0.3118
677.50 0.3117
677.60 0.3115
677.70 0.3113
677.80 0.3111
677.90 0.311
678.00 0.3108
678.10 0.3106
678.20 0.3105
678.30 0.3103
678.40 0.3101
678.50 0.3099
678.60 0.3098
678.70 0.3096
678.80 0.3094
678.90 0.3092
679.00 0.3091
679.10 0.3089
679.20 0.3087
679.30 0.3086
679.40 0.3084
679.50 0.3082
679.60 0.308
679.70 0.3079
679.80 0.3077
679.90 0.3075
680.00 0.3073
680.10 0.3072
680.20 0.307
680.30 0.3068
680.40 0.3067
680.50 0.3065
680.60 0.3063
680.70 0.3061
680.80 0.306
680.90 0.3058
681.00 0.3056
681.10 0.3055
681.20 0.3053
681.30 0.3051
681.40 0.305
681.50 0.3048
681.60 0.3046
681.70 0.3044
681.80 0.3043
681.90 0.3041
682.00 0.3039
682.10 0.3038
682.20 0.3036
682.30 0.3034
682.40 0.3033
682.50 0.3031
682.60 0.3029
682.70 0.3027
682.80 0.3026
682.90 0.3024
683.00 0.3022
683.10 0.3021
683.20 0.3019
683.30 0.3017
683.40 0.3016
683.50 0.3014
683.60 0.3012
683.70 0.3011
683.80 0.3009
683.90 0.3007
684.00 0.3005
684.10 0.3004
684.20 0.3002
684.30 0.3
684.40 0.2999
684.50 0.2997
684.60 0.2995
684.70 0.2994
684.80 0.2992
684.90 0.299
685.00 0.2989
685.10 0.2987
685.20 0.2985
685.30 0.2984
685.40 0.2982
685.50 0.298
685.60 0.2979
685.70 0.2977
685.80 0.2975
685.90 0.2974
686.00 0.2972
686.10 0.297
686.20 0.2969
686.30 0.2967
686.40 0.2965
686.50 0.2964
686.60 0.2962
686.70 0.296
686.80 0.2959
686.90 0.2957
687.00 0.2955
687.10 0.2954
687.20 0.2952
687.30 0.2951
687.40 0.2949
687.50 0.2947
687.60 0.2946
687.70 0.2944
687.80 0.2942
687.90 0.2941
688.00 0.2939
688.10 0.2937
688.20 0.2936
688.30 0.2934
688.40 0.2932
688.50 0.2931
688.60 0.2929
688.70 0.2928
688.80 0.2926
688.90 0.2924
689.00 0.2923
689.10 0.2921
689.20 0.2919
689.30 0.2918
689.40 0.2916
689.50 0.2915
689.60 0.2913
689.70 0.2911
689.80 0.291
689.90 0.2908
690.00 0.2906
690.10 0.2905
690.20 0.2903
690.30 0.2902
690.40 0.29
690.50 0.2898
690.60 0.2897
690.70 0.2895
690.80 0.2894
690.90 0.2892
691.00 0.289
691.10 0.2889
691.20 0.2887
691.30 0.2886
691.40 0.2884
691.50 0.2882
691.60 0.2881
691.70 0.2879
691.80 0.2877
691.90 0.2876
692.00 0.2874
692.10 0.2873
692.20 0.2871
692.30 0.287
692.40 0.2868
692.50 0.2866
692.60 0.2865
692.70 0.2863
692.80 0.2862
692.90 0.286
693.00 0.2858
693.10 0.2857
693.20 0.2855
693.30 0.2854
693.40 0.2852
693.50 0.285
693.60 0.2849
693.70 0.2847
693.80 0.2846
693.90 0.2844
694.00 0.2842
694.10 0.2841
694.20 0.2839
694.30 0.2838
694.40 0.2836
694.50 0.2835
694.60 0.2833
694.70 0.2831
694.80 0.283
694.90 0.2828
695.00 0.2827
695.10 0.2825
695.20 0.2824
695.30 0.2822
695.40 0.282
695.50 0.2819
695.60 0.2817
695.70 0.2816
695.80 0.2814
695.90 0.2813
696.00 0.2811
696.10 0.281
696.20 0.2808
696.30 0.2806
696.40 0.2805
696.50 0.2803
696.60 0.2802
696.70 0.28
696.80 0.2799
696.90 0.2797
697.00 0.2796
697.10 0.2794
697.20 0.2793
697.30 0.2791
697.40 0.2789
697.50 0.2788
697.60 0.2786
697.70 0.2785
697.80 0.2783
697.90 0.2782
698.00 0.278
698.10 0.2779
698.20 0.2777
698.30 0.2776
698.40 0.2774
698.50 0.2772
698.60 0.2771
698.70 0.2769
698.80 0.2768
698.90 0.2766
699.00 0.2765
699.10 0.2763
699.20 0.2762
699.30 0.276
699.40 0.2759
699.50 0.2757
699.60 0.2756
699.70 0.2754
699.80 0.2753
699.90 0.2751
700.00 0.275
700.10 0.2748
700.20 0.2747
700.30 0.2745
700.40 0.2744
700.50 0.2742
700.60 0.2741
700.70 0.2739
700.80 0.2738
700.90 0.2736
701.00 0.2735
701.10 0.2733
701.20 0.2732
701.30 0.273
701.40 0.2729
701.50 0.2727
701.60 0.2726
701.70 0.2724
701.80 0.2723
701.90 0.2721
702.00 0.272
702.10 0.2718
702.20 0.2717
702.30 0.2715
702.40 0.2714
702.50 0.2712
702.60 0.2711
702.70 0.2709
702.80 0.2708
702.90 0.2706
703.00 0.2705
703.10 0.2703
703.20 0.2702
703.30 0.27
703.40 0.2699
703.50 0.2697
703.60 0.2696
703.70 0.2694
703.80 0.2693
703.90 0.2691
704.00 0.269
704.10 0.2688
704.20 0.2687
704.30 0.2685
704.40 0.2684
704.50 0.2682
704.60 0.2681
704.70 0.2679
704.80 0.2678
704.90 0.2676
705.00 0.2675
705.10 0.2674
705.20 0.2672
705.30 0.2671
705.40 0.2669
705.50 0.2668
705.60 0.2666
705.70 0.2665
705.80 0.2663
705.90 0.2662
706.00 0.266
706.10 0.2659
706.20 0.2658
706.30 0.2656
706.40 0.2655
706.50 0.2653
706.60 0.2652
706.70 0.265
706.80 0.2649
706.90 0.2647
707.00 0.2646
707.10 0.2645
707.20 0.2643
707.30 0.2642
707.40 0.264
707.50 0.2639
707.60 0.2637
707.70 0.2636
707.80 0.2634
707.90 0.2633
708.00 0.2632
708.10 0.263
708.20 0.2629
708.30 0.2627
708.40 0.2626
708.50 0.2624
708.60 0.2623
708.70 0.2622
708.80 0.262
708.90 0.2619
709.00 0.2617
709.10 0.2616
709.20 0.2614
709.30 0.2613
709.40 0.2611
709.50 0.261
709.60 0.2609
709.70 0.2607
709.80 0.2606
709.90 0.2604
710.00 0.2603
710.10 0.2602
710.20 0.26
710.30 0.2599
710.40 0.2597
710.50 0.2596
710.60 0.2594
710.70 0.2593
710.80 0.2592
710.90 0.259
711.00 0.2589
711.10 0.2587
711.20 0.2586
711.30 0.2585
711.40 0.2583
711.50 0.2582
711.60 0.258
711.70 0.2579
711.80 0.2578
711.90 0.2576
712.00 0.2575
712.10 0.2573
712.20 0.2572
712.30 0.2571
712.40 0.2569
712.50 0.2568
712.60 0.2566
712.70 0.2565
712.80 0.2564
712.90 0.2562
713.00 0.2561
713.10 0.256
713.20 0.2558
713.30 0.2557
713.40 0.2555
713.50 0.2554
713.60 0.2553
713.70 0.2551
713.80 0.255
713.90 0.2548
714.00 0.2547
714.10 0.2546
714.20 0.2544
714.30 0.2543
714.40 0.2542
714.50 0.254
714.60 0.2539
714.70 0.2537
714.80 0.2536
714.90 0.2535
715.00 0.2533
715.10 0.2532
715.20 0.2531
715.30 0.2529
715.40 0.2528
715.50 0.2526
715.60 0.2525
715.70 0.2524
715.80 0.2522
715.90 0.2521
716.00 0.252
716.10 0.2518
716.20 0.2517
716.30 0.2516
716.40 0.2514
716.50 0.2513
716.60 0.2512
716.70 0.251
716.80 0.2509
716.90 0.2507
717.00 0.2506
717.10 0.2505
717.20 0.2503
717.30 0.2502
717.40 0.2501
717.50 0.2499
717.60 0.2498
717.70 0.2497
717.80 0.2495
717.90 0.2494
718.00 0.2493
718.10 0.2491
718.20 0.249
718.30 0.2489
718.40 0.2487
718.50 0.2486
718.60 0.2485
718.70 0.2483
718.80 0.2482
718.90 0.2481
719.00 0.2479
719.10 0.2478
719.20 0.2477
719.30 0.2475
719.40 0.2474
719.50 0.2473
719.60 0.2471
719.70 0.247
719.80 0.2469
719.90 0.2467
720.00 0.2466
720.10 0.2465
720.20 0.2463
720.30 0.2462
720.40 0.2461
720.50 0.2459
720.60 0.2458
720.70 0.2457
720.80 0.2455
720.90 0.2454
721.00 0.2453
721.10 0.2451
721.20 0.245
721.30 0.2449
721.40 0.2447
721.50 0.2446
721.60 0.2445
721.70 0.2444
721.80 0.2442
721.90 0.2441
722.00 0.244
722.10 0.2438
722.20 0.2437
722.30 0.2436
722.40 0.2434
722.50 0.2433
722.60 0.2432
722.70 0.243
722.80 0.2429
722.90 0.2428
723.00 0.2427
723.10 0.2425
723.20 0.2424
723.30 0.2423
723.40 0.2421
723.50 0.242
723.60 0.2419
723.70 0.2418
723.80 0.2416
723.90 0.2415
724.00 0.2414
724.10 0.2412
724.20 0.2411
724.30 0.241
724.40 0.2408
724.50 0.2407
724.60 0.2406
724.70 0.2405
724.80 0.2403
724.90 0.2402
725.00 0.2401
725.10 0.2399
725.20 0.2398
725.30 0.2397
725.40 0.2396
725.50 0.2394
725.60 0.2393
725.70 0.2392
725.80 0.2391
725.90 0.2389
726.00 0.2388
726.10 0.2387
726.20 0.2385
726.30 0.2384
726.40 0.2383
726.50 0.2382
726.60 0.238
726.70 0.2379
726.80 0.2378
726.90 0.2377
727.00 0.2375
727.10 0.2374
727.20 0.2373
727.30 0.2372
727.40 0.237
727.50 0.2369
727.60 0.2368
727.70 0.2366
727.80 0.2365
727.90 0.2364
728.00 0.2363
728.10 0.2361
728.20 0.236
728.30 0.2359
728.40 0.2358
728.50 0.2356
728.60 0.2355
728.70 0.2354
728.80 0.2353
728.90 0.2351
729.00 0.235
729.10 0.2349
729.20 0.2348
729.30 0.2346
729.40 0.2345
729.50 0.2344
729.60 0.2343
729.70 0.2341
729.80 0.234
729.90 0.2339
730.00 0.2338
730.10 0.2336
730.20 0.2335
730.30 0.2334
730.40 0.2333
730.50 0.2332
730.60 0.233
730.70 0.2329
730.80 0.2328
730.90 0.2327
731.00 0.2325
731.10 0.2324
731.20 0.2323
731.30 0.2322
731.40 0.2321
731.50 0.2319
731.60 0.2318
731.70 0.2317
731.80 0.2316
731.90 0.2314
732.00 0.2313
732.10 0.2312
732.20 0.2311
732.30 0.231
732.40 0.2308
732.50 0.2307
732.60 0.2306
732.70 0.2305
732.80 0.2304
732.90 0.2302
733.00 0.2301
733.10 0.23
733.20 0.2299
733.30 0.2297
733.40 0.2296
733.50 0.2295
733.60 0.2294
733.70 0.2293
733.80 0.2291
733.90 0.229
734.00 0.2289
734.10 0.2288
734.20 0.2287
734.30 0.2285
734.40 0.2284
734.50 0.2283
734.60 0.2282
734.70 0.2281
734.80 0.2279
734.90 0.2278
735.00 0.2277
735.10 0.2276
735.20 0.2275
735.30 0.2273
735.40 0.2272
735.50 0.2271
735.60 0.227
735.70 0.2269
735.80 0.2267
735.90 0.2266
736.00 0.2265
736.10 0.2264
736.20 0.2263
736.30 0.2261
736.40 0.226
736.50 0.2259
736.60 0.2258
736.70 0.2257
736.80 0.2255
736.90 0.2254
737.00 0.2253
737.10 0.2252
737.20 0.2251
737.30 0.225
737.40 0.2248
737.50 0.2247
737.60 0.2246
737.70 0.2245
737.80 0.2244
737.90 0.2242
738.00 0.2241
738.10 0.224
738.20 0.2239
738.30 0.2238
738.40 0.2237
738.50 0.2235
738.60 0.2234
738.70 0.2233
738.80 0.2232
738.90 0.2231
739.00 0.2229
739.10 0.2228
739.20 0.2227
739.30 0.2226
739.40 0.2225
739.50 0.2224
739.60 0.2222
739.70 0.2221
739.80 0.222
739.90 0.2219
740.00 0.2218
740.10 0.2217
740.20 0.2215
740.30 0.2214
740.40 0.2213
740.50 0.2212
740.60 0.2211
740.70 0.221
740.80 0.2209
740.90 0.2207
741.00 0.2206
741.10 0.2205
741.20 0.2204
741.30 0.2203
741.40 0.2202
741.50 0.2201
741.60 0.2199
741.70 0.2198
741.80 0.2197
741.90 0.2196
742.00 0.2195
742.10 0.2194
742.20 0.2193
742.30 0.2191
742.40 0.219
742.50 0.2189
742.60 0.2188
742.70 0.2187
742.80 0.2186
742.90 0.2185
743.00 0.2183
743.10 0.2182
743.20 0.2181
743.30 0.218
743.40 0.2179
743.50 0.2178
743.60 0.2177
743.70 0.2176
743.80 0.2174
743.90 0.2173
744.00 0.2172
744.10 0.2171
744.20 0.217
744.30 0.2169
744.40 0.2168
744.50 0.2166
744.60 0.2165
744.70 0.2164
744.80 0.2163
744.90 0.2162
745.00 0.2161
745.10 0.216
745.20 0.2159
745.30 0.2158
745.40 0.2156
745.50 0.2155
745.60 0.2154
745.70 0.2153
745.80 0.2152
745.90 0.2151
746.00 0.215
746.10 0.2149
746.20 0.2147
746.30 0.2146
746.40 0.2145
746.50 0.2144
746.60 0.2143
746.70 0.2142
746.80 0.2141
746.90 0.214
747.00 0.2139
747.10 0.2137
747.20 0.2136
747.30 0.2135
747.40 0.2134
747.50 0.2133
747.60 0.2132
747.70 0.2131
747.80 0.213
747.90 0.2129
748.00 0.2127
748.10 0.2126
748.20 0.2125
748.30 0.2124
748.40 0.2123
748.50 0.2122
748.60 0.2121
748.70 0.212
748.80 0.2119
748.90 0.2117
749.00 0.2116
749.10 0.2115
749.20 0.2114
749.30 0.2113
749.40 0.2112
749.50 0.2111
749.60 0.211
749.70 0.2109
749.80 0.2108
749.90 0.2106
750.00 0.2105
750.10 0.2104
750.20 0.2103
750.30 0.2102
750.40 0.2101
750.50 0.21
750.60 0.2099
750.70 0.2098
750.80 0.2097
750.90 0.2096
751.00 0.2095
751.10 0.2094
751.20 0.2092
751.30 0.2091
751.40 0.209
751.50 0.2089
751.60 0.2088
751.70 0.2087
751.80 0.2086
751.90 0.2085
752.00 0.2084
752.10 0.2083
752.20 0.2082
752.30 0.2081
752.40 0.208
752.50 0.2079
752.60 0.2077
752.70 0.2076
752.80 0.2075
752.90 0.2074
753.00 0.2073
753.10 0.2072
753.20 0.2071
753.30 0.207
753.40 0.2069
753.50 0.2068
753.60 0.2067
753.70 0.2066
753.80 0.2065
753.90 0.2064
754.00 0.2063
754.10 0.2062
754.20 0.2061
754.30 0.2059
754.40 0.2058
754.50 0.2057
754.60 0.2056
754.70 0.2055
754.80 0.2054
754.90 0.2053
755.00 0.2052
755.10 0.2051
755.20 0.205
755.30 0.2049
755.40 0.2048
755.50 0.2047
755.60 0.2046
755.70 0.2045
755.80 0.2044
755.90 0.2043
756.00 0.2042
756.10 0.2041
756.20 0.2039
756.30 0.2038
756.40 0.2037
756.50 0.2036
756.60 0.2035
756.70 0.2034
756.80 0.2033
756.90 0.2032
757.00 0.2031
757.10 0.203
757.20 0.2029
757.30 0.2028
757.40 0.2027
757.50 0.2026
757.60 0.2025
757.70 0.2024
757.80 0.2023
757.90 0.2022
758.00 0.2021
758.10 0.202
758.20 0.2019
758.30 0.2018
758.40 0.2017
758.50 0.2015
758.60 0.2014
758.70 0.2013
758.80 0.2012
758.90 0.2011
759.00 0.201
759.10 0.2009
759.20 0.2008
759.30 0.2007
759.40 0.2006
759.50 0.2005
759.60 0.2004
759.70 0.2003
759.80 0.2002
759.90 0.2001
760.00 0.2
760.10 0.1999
760.20 0.1998
760.30 0.1997
760.40 0.1996
760.50 0.1995
760.60 0.1994
760.70 0.1993
760.80 0.1992
760.90 0.1991
761.00 0.199
761.10 0.1989
761.20 0.1988
761.30 0.1987
761.40 0.1986
761.50 0.1985
761.60 0.1984
761.70 0.1983
761.80 0.1982
761.90 0.1981
762.00 0.198
762.10 0.1979
762.20 0.1978
762.30 0.1977
762.40 0.1976
762.50 0.1975
762.60 0.1974
762.70 0.1973
762.80 0.1972
762.90 0.1971
763.00 0.197
763.10 0.1969
763.20 0.1968
763.30 0.1967
763.40 0.1966
763.50 0.1965
763.60 0.1964
763.70 0.1963
763.80 0.1962
763.90 0.1961
764.00 0.196
764.10 0.1959
764.20 0.1958
764.30 0.1957
764.40 0.1956
764.50 0.1955
764.60 0.1954
764.70 0.1953
764.80 0.1952
764.90 0.1951
765.00 0.195
765.10 0.1949
765.20 0.1948
765.30 0.1947
765.40 0.1946
765.50 0.1945
765.60 0.1944
765.70 0.1943
765.80 0.1942
765.90 0.1941
766.00 0.194
766.10 0.1939
766.20 0.1938
766.30 0.1937
766.40 0.1936
766.50 0.1935
766.60 0.1934
766.70 0.1933
766.80 0.1932
766.90 0.1931
767.00 0.193
767.10 0.1929
767.20 0.1928
767.30 0.1927
767.40 0.1926
767.50 0.1925
767.60 0.1924
767.70 0.1924
767.80 0.1923
767.90 0.1922
768.00 0.1921
768.10 0.192
768.20 0.1919
768.30 0.1918
768.40 0.1917
768.50 0.1916
768.60 0.1915
768.70 0.1914
768.80 0.1913
768.90 0.1912
769.00 0.1911
769.10 0.191
769.20 0.1909
769.30 0.1908
769.40 0.1907
769.50 0.1906
769.60 0.1905
769.70 0.1904
769.80 0.1903
769.90 0.1902
770.00 0.1901
770.10 0.19
770.20 0.1899
770.30 0.1898
770.40 0.1897
770.50 0.1896
770.60 0.1895
770.70 0.1895
770.80 0.1894
770.90 0.1893
771.00 0.1892
771.10 0.1891
771.20 0.189
771.30 0.1889
771.40 0.1888
771.50 0.1887
771.60 0.1886
771.70 0.1885
771.80 0.1884
771.90 0.1883
772.00 0.1882
772.10 0.1881
772.20 0.188
772.30 0.1879
772.40 0.1879
772.50 0.1878
772.60 0.1877
772.70 0.1876
772.80 0.1875
772.90 0.1874
773.00 0.1873
773.10 0.1872
773.20 0.1871
773.30 0.187
773.40 0.1869
773.50 0.1868
773.60 0.1867
773.70 0.1866
773.80 0.1865
773.90 0.1864
774.00 0.1864
774.10 0.1863
774.20 0.1862
774.30 0.1861
774.40 0.186
774.50 0.1859
774.60 0.1858
774.70 0.1857
774.80 0.1856
774.90 0.1855
775.00 0.1854
775.10 0.1853
775.20 0.1852
775.30 0.1851
775.40 0.1851
775.50 0.185
775.60 0.1849
775.70 0.1848
775.80 0.1847
775.90 0.1846
776.00 0.1845
776.10 0.1844
776.20 0.1843
776.30 0.1842
776.40 0.1841
776.50 0.184
776.60 0.1839
776.70 0.1839
776.80 0.1838
776.90 0.1837
777.00 0.1836
777.10 0.1835
777.20 0.1834
777.30 0.1833
777.40 0.1832
777.50 0.1831
777.60 0.183
777.70 0.1829
777.80 0.1828
777.90 0.1828
778.00 0.1827
778.10 0.1826
778.20 0.1825
778.30 0.1824
778.40 0.1823
778.50 0.1822
778.60 0.1821
778.70 0.182
778.80 0.1819
778.90 0.1818
779.00 0.1817
779.10 0.1817
779.20 0.1816
779.30 0.1815
779.40 0.1814
779.50 0.1813
779.60 0.1812
779.70 0.1811
779.80 0.181
779.90 0.1809
780.00 0.1808
780.10 0.1807
780.20 0.1807
780.30 0.1806
780.40 0.1805
780.50 0.1804
780.60 0.1803
780.70 0.1802
780.80 0.1801
780.90 0.18
781.00 0.1799
781.10 0.1799
781.20 0.1798
781.30 0.1797
781.40 0.1796
781.50 0.1795
781.60 0.1794
781.70 0.1793
781.80 0.1792
781.90 0.1792
782.00 0.1791
782.10 0.179
782.20 0.1789
782.30 0.1788
782.40 0.1787
782.50 0.1786
782.60 0.1785
782.70 0.1784
782.80 0.1784
782.90 0.1783
783.00 0.1782
783.10 0.1781
783.20 0.178
783.30 0.1779
783.40 0.1778
783.50 0.1777
783.60 0.1777
783.70 0.1776
783.80 0.1775
783.90 0.1774
784.00 0.1773
784.10 0.1772
784.20 0.1771
784.30 0.177
784.40 0.177
784.50 0.1769
784.60 0.1768
784.70 0.1767
784.80 0.1766
784.90 0.1765
785.00 0.1764
785.10 0.1763
785.20 0.1763
785.30 0.1762
785.40 0.1761
785.50 0.176
785.60 0.1759
785.70 0.1758
785.80 0.1757
785.90 0.1756
786.00 0.1756
786.10 0.1755
786.20 0.1754
786.30 0.1753
786.40 0.1752
786.50 0.1751
786.60 0.175
786.70 0.175
786.80 0.1749
786.90 0.1748
787.00 0.1747
787.10 0.1746
787.20 0.1745
787.30 0.1744
787.40 0.1743
787.50 0.1743
787.60 0.1742
787.70 0.1741
787.80 0.174
787.90 0.1739
788.00 0.1738
788.10 0.1737
788.20 0.1737
788.30 0.1736
788.40 0.1735
788.50 0.1734
788.60 0.1733
788.70 0.1732
788.80 0.1731
788.90 0.1731
789.00 0.173
789.10 0.1729
789.20 0.1728
789.30 0.1727
789.40 0.1726
789.50 0.1725
789.60 0.1725
789.70 0.1724
789.80 0.1723
789.90 0.1722
790.00 0.1721
790.10 0.172
790.20 0.172
790.30 0.1719
790.40 0.1718
790.50 0.1717
790.60 0.1716
790.70 0.1715
790.80 0.1715
790.90 0.1714
791.00 0.1713
791.10 0.1712
791.20 0.1711
791.30 0.171
791.40 0.1709
791.50 0.1709
791.60 0.1708
791.70 0.1707
791.80 0.1706
791.90 0.1705
792.00 0.1705
792.10 0.1704
792.20 0.1703
792.30 0.1702
792.40 0.1701
792.50 0.17
792.60 0.17
792.70 0.1699
792.80 0.1698
792.90 0.1697
793.00 0.1696
793.10 0.1695
793.20 0.1695
793.30 0.1694
793.40 0.1693
793.50 0.1692
793.60 0.1691
793.70 0.169
793.80 0.169
793.90 0.1689
794.00 0.1688
794.10 0.1687
794.20 0.1686
794.30 0.1685
794.40 0.1685
794.50 0.1684
794.60 0.1683
794.70 0.1682
794.80 0.1681
794.90 0.1681
795.00 0.168
795.10 0.1679
795.20 0.1678
795.30 0.1677
795.40 0.1676
795.50 0.1676
795.60 0.1675
795.70 0.1674
795.80 0.1673
795.90 0.1672
796.00 0.1672
796.10 0.1671
796.20 0.167
796.30 0.1669
796.40 0.1668
796.50 0.1667
796.60 0.1667
796.70 0.1666
796.80 0.1665
796.90 0.1664
797.00 0.1663
797.10 0.1663
797.20 0.1662
797.30 0.1661
797.40 0.166
797.50 0.1659
797.60 0.1659
797.70 0.1658
797.80 0.1657
797.90 0.1656
798.00 0.1655
798.10 0.1654
798.20 0.1654
798.30 0.1653
798.40 0.1652
798.50 0.1651
798.60 0.165
798.70 0.165
798.80 0.1649
798.90 0.1648
799.00 0.1647
799.10 0.1646
799.20 0.1646
799.30 0.1645
799.40 0.1644
799.50 0.1643
799.60 0.1642
799.70 0.1642
799.80 0.1641
799.90 0.164
800.00 0.1639
800.10 0.1638
800.20 0.1638
800.30 0.1637
800.40 0.1636
800.50 0.1635
800.60 0.1634
800.70 0.1634
800.80 0.1633
800.90 0.1632
801.00 0.1631
801.10 0.1631
801.20 0.163
801.30 0.1629
801.40 0.1628
801.50 0.1627
801.60 0.1627
801.70 0.1626
801.80 0.1625
801.90 0.1624
802.00 0.1623
802.10 0.1623
802.20 0.1622
802.30 0.1621
802.40 0.162
802.50 0.162
802.60 0.1619
802.70 0.1618
802.80 0.1617
802.90 0.1616
803.00 0.1616
803.10 0.1615
803.20 0.1614
803.30 0.1613
803.40 0.1613
803.50 0.1612
803.60 0.1611
803.70 0.161
803.80 0.1609
803.90 0.1609
804.00 0.1608
804.10 0.1607
804.20 0.1606
804.30 0.1606
804.40 0.1605
804.50 0.1604
804.60 0.1603
804.70 0.1603
804.80 0.1602
804.90 0.1601
805.00 0.16
805.10 0.1599
805.20 0.1599
805.30 0.1598
805.40 0.1597
805.50 0.1596
805.60 0.1596
805.70 0.1595
805.80 0.1594
805.90 0.1593
806.00 0.1592
806.10 0.1592
806.20 0.1591
806.30 0.159
806.40 0.1589
806.50 0.1589
806.60 0.1588
806.70 0.1587
806.80 0.1586
806.90 0.1586
807.00 0.1585
807.10 0.1584
807.20 0.1583
807.30 0.1583
807.40 0.1582
807.50 0.1581
807.60 0.158
807.70 0.1579
807.80 0.1579
807.90 0.1578
808.00 0.1577
808.10 0.1576
808.20 0.1576
808.30 0.1575
808.40 0.1574
808.50 0.1573
808.60 0.1573
808.70 0.1572
808.80 0.1571
808.90 0.157
809.00 0.157
809.10 0.1569
809.20 0.1568
809.30 0.1567
809.40 0.1567
809.50 0.1566
809.60 0.1565
809.70 0.1564
809.80 0.1564
809.90 0.1563
810.00 0.1562
810.10 0.1561
810.20 0.1561
810.30 0.156
810.40 0.1559
810.50 0.1558
810.60 0.1558
810.70 0.1557
810.80 0.1556
810.90 0.1555
811.00 0.1555
811.10 0.1554
811.20 0.1553
811.30 0.1552
811.40 0.1552
811.50 0.1551
811.60 0.155
811.70 0.1549
811.80 0.1549
811.90 0.1548
812.00 0.1547
812.10 0.1547
812.20 0.1546
812.30 0.1545
812.40 0.1544
812.50 0.1544
812.60 0.1543
812.70 0.1542
812.80 0.1541
812.90 0.1541
813.00 0.154
813.10 0.1539
813.20 0.1538
813.30 0.1538
813.40 0.1537
813.50 0.1536
813.60 0.1536
813.70 0.1535
813.80 0.1534
813.90 0.1533
814.00 0.1533
814.10 0.1532
814.20 0.1531
814.30 0.153
814.40 0.153
814.50 0.1529
814.60 0.1528
814.70 0.1527
814.80 0.1527
814.90 0.1526
815.00 0.1525
815.10 0.1525
815.20 0.1524
815.30 0.1523
815.40 0.1522
815.50 0.1522
815.60 0.1521
815.70 0.152
815.80 0.152
815.90 0.1519
816.00 0.1518
816.10 0.1517
816.20 0.1517
816.30 0.1516
816.40 0.1515
816.50 0.1514
816.60 0.1514
816.70 0.1513
816.80 0.1512
816.90 0.1512
817.00 0.1511
817.10 0.151
817.20 0.1509
817.30 0.1509
817.40 0.1508
817.50 0.1507
817.60 0.1507
817.70 0.1506
817.80 0.1505
817.90 0.1504
818.00 0.1504
818.10 0.1503
818.20 0.1502
818.30 0.1502
818.40 0.1501
818.50 0.15
818.60 0.1499
818.70 0.1499
818.80 0.1498
818.90 0.1497
819.00 0.1496
819.10 0.1496
819.20 0.1495
819.30 0.1494
819.40 0.1494
819.50 0.1493
819.60 0.1492
819.70 0.1492
819.80 0.1491
819.90 0.149
820.00 0.1489
820.10 0.1489
820.20 0.1488
820.30 0.1487
820.40 0.1487
820.50 0.1486
820.60 0.1485
820.70 0.1484
820.80 0.1484
820.90 0.1483
821.00 0.1482
821.10 0.1482
821.20 0.1481
821.30 0.148
821.40 0.148
821.50 0.1479
821.60 0.1478
821.70 0.1477
821.80 0.1477
821.90 0.1476
822.00 0.1475
822.10 0.1475
822.20 0.1474
822.30 0.1473
822.40 0.1473
822.50 0.1472
822.60 0.1471
822.70 0.147
822.80 0.147
822.90 0.1469
823.00 0.1468
823.10 0.1468
823.20 0.1467
823.30 0.1466
823.40 0.1466
823.50 0.1465
823.60 0.1464
823.70 0.1464
823.80 0.1463
823.90 0.1462
824.00 0.1462
824.10 0.1461
824.20 0.146
824.30 0.1459
824.40 0.1459
824.50 0.1458
824.60 0.1457
824.70 0.1457
824.80 0.1456
824.90 0.1455
825.00 0.1455
825.10 0.1454
825.20 0.1453
825.30 0.1453
825.40 0.1452
825.50 0.1451
825.60 0.1451
825.70 0.145
825.80 0.1449
825.90 0.1448
826.00 0.1448
826.10 0.1447
826.20 0.1446
826.30 0.1446
826.40 0.1445
826.50 0.1444
826.60 0.1444
826.70 0.1443
826.80 0.1442
826.90 0.1442
827.00 0.1441
827.10 0.144
827.20 0.144
827.30 0.1439
827.40 0.1438
827.50 0.1438
827.60 0.1437
827.70 0.1436
827.80 0.1436
827.90 0.1435
828.00 0.1434
828.10 0.1434
828.20 0.1433
828.30 0.1432
828.40 0.1432
828.50 0.1431
828.60 0.143
828.70 0.143
828.80 0.1429
828.90 0.1428
829.00 0.1428
829.10 0.1427
829.20 0.1426
829.30 0.1426
829.40 0.1425
829.50 0.1424
829.60 0.1424
829.70 0.1423
829.80 0.1422
829.90 0.1422
830.00 0.1421
830.10 0.142
830.20 0.142
830.30 0.1419
830.40 0.1418
830.50 0.1418
830.60 0.1417
830.70 0.1416
830.80 0.1416
830.90 0.1415
831.00 0.1414
831.10 0.1414
831.20 0.1413
831.30 0.1412
831.40 0.1412
831.50 0.1411
831.60 0.141
831.70 0.141
831.80 0.1409
831.90 0.1408
832.00 0.1408
832.10 0.1407
832.20 0.1406
832.30 0.1406
832.40 0.1405
832.50 0.1404
832.60 0.1404
832.70 0.1403
832.80 0.1402
832.90 0.1402
833.00 0.1401
833.10 0.14
833.20 0.14
833.30 0.1399
833.40 0.1398
833.50 0.1398
833.60 0.1397
833.70 0.1397
833.80 0.1396
833.90 0.1395
834.00 0.1395
834.10 0.1394
834.20 0.1393
834.30 0.1393
834.40 0.1392
834.50 0.1391
834.60 0.1391
834.70 0.139
834.80 0.1389
834.90 0.1389
835.00 0.1388
835.10 0.1387
835.20 0.1387
835.30 0.1386
835.40 0.1386
835.50 0.1385
835.60 0.1384
835.70 0.1384
835.80 0.1383
835.90 0.1382
836.00 0.1382
836.10 0.1381
836.20 0.138
836.30 0.138
836.40 0.1379
836.50 0.1378
836.60 0.1378
836.70 0.1377
836.80 0.1376
836.90 0.1376
837.00 0.1375
837.10 0.1375
837.20 0.1374
837.30 0.1373
837.40 0.1373
837.50 0.1372
837.60 0.1371
837.70 0.1371
837.80 0.137
837.90 0.1369
838.00 0.1369
838.10 0.1368
838.20 0.1368
838.30 0.1367
838.40 0.1366
838.50 0.1366
838.60 0.1365
838.70 0.1364
838.80 0.1364
838.90 0.1363
839.00 0.1362
839.10 0.1362
839.20 0.1361
839.30 0.1361
839.40 0.136
839.50 0.1359
839.60 0.1359
839.70 0.1358
839.80 0.1357
839.90 0.1357
840.00 0.1356
840.10 0.1356
840.20 0.1355
840.30 0.1354
840.40 0.1354
840.50 0.1353
840.60 0.1352
840.70 0.1352
840.80 0.1351
840.90 0.1351
841.00 0.135
841.10 0.1349
841.20 0.1349
841.30 0.1348
841.40 0.1347
841.50 0.1347
841.60 0.1346
841.70 0.1346
841.80 0.1345
841.90 0.1344
842.00 0.1344
842.10 0.1343
842.20 0.1342
842.30 0.1342
842.40 0.1341
842.50 0.1341
842.60 0.134
842.70 0.1339
842.80 0.1339
842.90 0.1338
843.00 0.1337
843.10 0.1337
843.20 0.1336
843.30 0.1336
843.40 0.1335
843.50 0.1334
843.60 0.1334
843.70 0.1333
843.80 0.1333
843.90 0.1332
844.00 0.1331
844.10 0.1331
844.20 0.133
844.30 0.1329
844.40 0.1329
844.50 0.1328
844.60 0.1328
844.70 0.1327
844.80 0.1326
844.90 0.1326
845.00 0.1325
845.10 0.1325
845.20 0.1324
845.30 0.1323
845.40 0.1323
845.50 0.1322
845.60 0.1321
845.70 0.1321
845.80 0.132
845.90 0.132
846.00 0.1319
846.10 0.1318
846.20 0.1318
846.30 0.1317
846.40 0.1317
846.50 0.1316
846.60 0.1315
846.70 0.1315
846.80 0.1314
846.90 0.1314
847.00 0.1313
847.10 0.1312
847.20 0.1312
847.30 0.1311
847.40 0.1311
847.50 0.131
847.60 0.1309
847.70 0.1309
847.80 0.1308
847.90 0.1308
848.00 0.1307
848.10 0.1306
848.20 0.1306
848.30 0.1305
848.40 0.1305
848.50 0.1304
848.60 0.1303
848.70 0.1303
848.80 0.1302
848.90 0.1302
849.00 0.1301
849.10 0.13
849.20 0.13
849.30 0.1299
849.40 0.1299
849.50 0.1298
849.60 0.1297
849.70 0.1297
849.80 0.1296
849.90 0.1296
850.00 0.1295
850.10 0.1294
850.20 0.1294
850.30 0.1293
850.40 0.1293
850.50 0.1292
850.60 0.1291
850.70 0.1291
850.80 0.129
850.90 0.129
851.00 0.1289
851.10 0.1288
851.20 0.1288
851.30 0.1287
851.40 0.1287
851.50 0.1286
851.60 0.1286
851.70 0.1285
851.80 0.1284
851.90 0.1284
852.00 0.1283
852.10 0.1283
852.20 0.1282
852.30 0.1281
852.40 0.1281
852.50 0.128
852.60 0.128
852.70 0.1279
852.80 0.1278
852.90 0.1278
853.00 0.1277
853.10 0.1277
853.20 0.1276
853.30 0.1276
853.40 0.1275
853.50 0.1274
853.60 0.1274
853.70 0.1273
853.80 0.1273
853.90 0.1272
854.00 0.1271
854.10 0.1271
854.20 0.127
854.30 0.127
854.40 0.1269
854.50 0.1269
854.60 0.1268
854.70 0.1267
854.80 0.1267
854.90 0.1266
855.00 0.1266
855.10 0.1265
855.20 0.1265
855.30 0.1264
855.40 0.1263
855.50 0.1263
855.60 0.1262
855.70 0.1262
855.80 0.1261
855.90 0.1261
856.00 0.126
856.10 0.1259
856.20 0.1259
856.30 0.1258
856.40 0.1258
856.50 0.1257
856.60 0.1256
856.70 0.1256
856.80 0.1255
856.90 0.1255
857.00 0.1254
857.10 0.1254
857.20 0.1253
857.30 0.1252
857.40 0.1252
857.50 0.1251
857.60 0.1251
857.70 0.125
857.80 0.125
857.90 0.1249
858.00 0.1249
858.10 0.1248
858.20 0.1247
858.30 0.1247
858.40 0.1246
858.50 0.1246
858.60 0.1245
858.70 0.1245
858.80 0.1244
858.90 0.1243
859.00 0.1243
859.10 0.1242
859.20 0.1242
859.30 0.1241
859.40 0.1241
859.50 0.124
859.60 0.124
859.70 0.1239
859.80 0.1238
859.90 0.1238
860.00 0.1237
860.10 0.1237
860.20 0.1236
860.30 0.1236
860.40 0.1235
860.50 0.1235
860.60 0.1234
860.70 0.1233
860.80 0.1233
860.90 0.1232
861.00 0.1232
861.10 0.1231
861.20 0.1231
861.30 0.123
861.40 0.123
861.50 0.1229
861.60 0.1228
861.70 0.1228
861.80 0.1227
861.90 0.1227
862.00 0.1226
862.10 0.1226
862.20 0.1225
862.30 0.1225
862.40 0.1224
862.50 0.1223
862.60 0.1223
862.70 0.1222
862.80 0.1222
862.90 0.1221
863.00 0.1221
863.10 0.122
863.20 0.122
863.30 0.1219
863.40 0.1218
863.50 0.1218
863.60 0.1217
863.70 0.1217
863.80 0.1216
863.90 0.1216
864.00 0.1215
864.10 0.1215
864.20 0.1214
864.30 0.1214
864.40 0.1213
864.50 0.1212
864.60 0.1212
864.70 0.1211
864.80 0.1211
864.90 0.121
865.00 0.121
865.10 0.1209
865.20 0.1209
865.30 0.1208
865.40 0.1208
865.50 0.1207
865.60 0.1206
865.70 0.1206
865.80 0.1205
865.90 0.1205
866.00 0.1204
866.10 0.1204
866.20 0.1203
866.30 0.1203
866.40 0.1202
866.50 0.1202
866.60 0.1201
866.70 0.12
866.80 0.12
866.90 0.1199
867.00 0.1199
867.10 0.1198
867.20 0.1198
867.30 0.1197
867.40 0.1197
867.50 0.1196
867.60 0.1196
867.70 0.1195
867.80 0.1195
867.90 0.1194
868.00 0.1193
868.10 0.1193
868.20 0.1192
868.30 0.1192
868.40 0.1191
868.50 0.1191
868.60 0.119
868.70 0.119
868.80 0.1189
868.90 0.1189
869.00 0.1188
869.10 0.1188
869.20 0.1187
869.30 0.1187
869.40 0.1186
869.50 0.1185
869.60 0.1185
869.70 0.1184
869.80 0.1184
869.90 0.1183
870.00 0.1183
870.10 0.1182
870.20 0.1182
870.30 0.1181
870.40 0.1181
870.50 0.118
870.60 0.118
870.70 0.1179
870.80 0.1179
870.90 0.1178
871.00 0.1178
871.10 0.1177
871.20 0.1176
871.30 0.1176
871.40 0.1175
871.50 0.1175
871.60 0.1174
871.70 0.1174
871.80 0.1173
871.90 0.1173
872.00 0.1172
872.10 0.1172
872.20 0.1171
872.30 0.1171
872.40 0.117
872.50 0.117
872.60 0.1169
872.70 0.1169
872.80 0.1168
872.90 0.1168
873.00 0.1167
873.10 0.1167
873.20 0.1166
873.30 0.1166
873.40 0.1165
873.50 0.1164
873.60 0.1164
873.70 0.1163
873.80 0.1163
873.90 0.1162
874.00 0.1162
874.10 0.1161
874.20 0.1161
874.30 0.116
874.40 0.116
874.50 0.1159
874.60 0.1159
874.70 0.1158
874.80 0.1158
874.90 0.1157
875.00 0.1157
875.10 0.1156
875.20 0.1156
875.30 0.1155
875.40 0.1155
875.50 0.1154
875.60 0.1154
875.70 0.1153
875.80 0.1153
875.90 0.1152
876.00 0.1152
876.10 0.1151
876.20 0.1151
876.30 0.115
876.40 0.115
876.50 0.1149
876.60 0.1148
876.70 0.1148
876.80 0.1147
876.90 0.1147
877.00 0.1146
877.10 0.1146
877.20 0.1145
877.30 0.1145
877.40 0.1144
877.50 0.1144
877.60 0.1143
877.70 0.1143
877.80 0.1142
877.90 0.1142
878.00 0.1141
878.10 0.1141
878.20 0.114
878.30 0.114
878.40 0.1139
878.50 0.1139
878.60 0.1138
878.70 0.1138
878.80 0.1137
878.90 0.1137
879.00 0.1136
879.10 0.1136
879.20 0.1135
879.30 0.1135
879.40 0.1134
879.50 0.1134
879.60 0.1133
879.70 0.1133
879.80 0.1132
879.90 0.1132
880.00 0.1131
880.10 0.1131
880.20 0.113
880.30 0.113
880.40 0.1129
880.50 0.1129
880.60 0.1128
880.70 0.1128
880.80 0.1127
880.90 0.1127
881.00 0.1126
881.10 0.1126
881.20 0.1125
881.30 0.1125
881.40 0.1124
881.50 0.1124
881.60 0.1123
881.70 0.1123
881.80 0.1122
881.90 0.1122
882.00 0.1121
882.10 0.1121
882.20 0.112
882.30 0.112
882.40 0.1119
882.50 0.1119
882.60 0.1118
882.70 0.1118
882.80 0.1117
882.90 0.1117
883.00 0.1116
883.10 0.1116
883.20 0.1115
883.30 0.1115
883.40 0.1114
883.50 0.1114
883.60 0.1114
883.70 0.1113
883.80 0.1113
883.90 0.1112
884.00 0.1112
884.10 0.1111
884.20 0.1111
884.30 0.111
884.40 0.111
884.50 0.1109
884.60 0.1109
884.70 0.1108
884.80 0.1108
884.90 0.1107
885.00 0.1107
885.10 0.1106
885.20 0.1106
885.30 0.1105
885.40 0.1105
885.50 0.1104
885.60 0.1104
885.70 0.1103
885.80 0.1103
885.90 0.1102
886.00 0.1102
886.10 0.1101
886.20 0.1101
886.30 0.11
886.40 0.11
886.50 0.1099
886.60 0.1099
886.70 0.1098
886.80 0.1098
886.90 0.1097
887.00 0.1097
887.10 0.1096
887.20 0.1096
887.30 0.1096
887.40 0.1095
887.50 0.1095
887.60 0.1094
887.70 0.1094
887.80 0.1093
887.90 0.1093
888.00 0.1092
888.10 0.1092
888.20 0.1091
888.30 0.1091
888.40 0.109
888.50 0.109
888.60 0.1089
888.70 0.1089
888.80 0.1088
888.90 0.1088
889.00 0.1087
889.10 0.1087
889.20 0.1086
889.30 0.1086
889.40 0.1086
889.50 0.1085
889.60 0.1085
889.70 0.1084
889.80 0.1084
889.90 0.1083
890.00 0.1083
890.10 0.1082
890.20 0.1082
890.30 0.1081
890.40 0.1081
890.50 0.108
890.60 0.108
890.70 0.1079
890.80 0.1079
890.90 0.1078
891.00 0.1078
891.10 0.1077
891.20 0.1077
891.30 0.1077
891.40 0.1076
891.50 0.1076
891.60 0.1075
891.70 0.1075
891.80 0.1074
891.90 0.1074
892.00 0.1073
892.10 0.1073
892.20 0.1072
892.30 0.1072
892.40 0.1071
892.50 0.1071
892.60 0.107
892.70 0.107
892.80 0.107
892.90 0.1069
893.00 0.1069
893.10 0.1068
893.20 0.1068
893.30 0.1067
893.40 0.1067
893.50 0.1066
893.60 0.1066
893.70 0.1065
893.80 0.1065
893.90 0.1064
894.00 0.1064
894.10 0.1064
894.20 0.1063
894.30 0.1063
894.40 0.1062
894.50 0.1062
894.60 0.1061
894.70 0.1061
894.80 0.106
894.90 0.106
895.00 0.1059
895.10 0.1059
895.20 0.1058
895.30 0.1058
895.40 0.1058
895.50 0.1057
895.60 0.1057
895.70 0.1056
895.80 0.1056
895.90 0.1055
896.00 0.1055
896.10 0.1054
896.20 0.1054
896.30 0.1053
896.40 0.1053
896.50 0.1052
896.60 0.1052
896.70 0.1052
896.80 0.1051
896.90 0.1051
897.00 0.105
897.10 0.105
897.20 0.1049
897.30 0.1049
897.40 0.1048
897.50 0.1048
897.60 0.1048
897.70 0.1047
897.80 0.1047
897.90 0.1046
898.00 0.1046
898.10 0.1045
898.20 0.1045
898.30 0.1044
898.40 0.1044
898.50 0.1043
898.60 0.1043
898.70 0.1043
898.80 0.1042
898.90 0.1042
899.00 0.1041
899.10 0.1041
899.20 0.104
899.30 0.104
899.40 0.1039
899.50 0.1039
899.60 0.1039
899.70 0.1038
899.80 0.1038
899.90 0.1037
900.00 0.1037
900.10 0.1036
900.20 0.1036
900.30 0.1035
900.40 0.1035
900.50 0.1035
900.60 0.1034
900.70 0.1034
900.80 0.1033
900.90 0.1033
901.00 0.1032
901.10 0.1032
901.20 0.1031
901.30 0.1031
901.40 0.1031
901.50 0.103
901.60 0.103
901.70 0.1029
901.80 0.1029
901.90 0.1028
902.00 0.1028
902.10 0.1027
902.20 0.1027
902.30 0.1027
902.40 0.1026
902.50 0.1026
902.60 0.1025
902.70 0.1025
902.80 0.1024
902.90 0.1024
903.00 0.1023
903.10 0.1023
903.20 0.1023
903.30 0.1022
903.40 0.1022
903.50 0.1021
903.60 0.1021
903.70 0.102
903.80 0.102
903.90 0.102
904.00 0.1019
904.10 0.1019
904.20 0.1018
904.30 0.1018
904.40 0.1017
904.50 0.1017
904.60 0.1016
904.70 0.1016
904.80 0.1016
904.90 0.1015
905.00 0.1015
905.10 0.1014
905.20 0.1014
905.30 0.1013
905.40 0.1013
905.50 0.1013
905.60 0.1012
905.70 0.1012
905.80 0.1011
905.90 0.1011
906.00 0.101
906.10 0.101
906.20 0.1009
906.30 0.1009
906.40 0.1009
906.50 0.1008
906.60 0.1008
906.70 0.1007
906.80 0.1007
906.90 0.1006
907.00 0.1006
907.10 0.1006
907.20 0.1005
907.30 0.1005
907.40 0.1004
907.50 0.1004
907.60 0.1003
907.70 0.1003
907.80 0.1003
907.90 0.1002
908.00 0.1002
908.10 0.1001
908.20 0.1001
908.30 0.1
908.40 0.1
908.50 0.09996
908.60 0.09992
908.70 0.09988
908.80 0.09983
908.90 0.09979
909.00 0.09975
909.10 0.09971
909.20 0.09966
909.30 0.09962
909.40 0.09958
909.50 0.09954
909.60 0.09949
909.70 0.09945
909.80 0.09941
909.90 0.09937
910.00 0.09933
910.10 0.09928
910.20 0.09924
910.30 0.0992
910.40 0.09916
910.50 0.09911
910.60 0.09907
910.70 0.09903
910.80 0.09899
910.90 0.09894
911.00 0.0989
911.10 0.09886
911.20 0.09882
911.30 0.09878
911.40 0.09873
911.50 0.09869
911.60 0.09865
911.70 0.09861
911.80 0.09857
911.90 0.09852
912.00 0.09848
912.10 0.09844
912.20 0.0984
912.30 0.09836
912.40 0.09831
912.50 0.09827
912.60 0.09823
912.70 0.09819
912.80 0.09815
912.90 0.09811
913.00 0.09806
913.10 0.09802
913.20 0.09798
913.30 0.09794
913.40 0.0979
913.50 0.09786
913.60 0.09782
913.70 0.09777
913.80 0.09773
913.90 0.09769
914.00 0.09765
914.10 0.09761
914.20 0.09757
914.30 0.09752
914.40 0.09748
914.50 0.09744
914.60 0.0974
914.70 0.09736
914.80 0.09732
914.90 0.09728
915.00 0.09724
915.10 0.09719
915.20 0.09715
915.30 0.09711
915.40 0.09707
915.50 0.09703
915.60 0.09699
915.70 0.09695
915.80 0.09691
915.90 0.09686
916.00 0.09682
916.10 0.09678
916.20 0.09674
916.30 0.0967
916.40 0.09666
916.50 0.09662
916.60 0.09658
916.70 0.09654
916.80 0.09649
916.90 0.09645
917.00 0.09641
917.10 0.09637
917.20 0.09633
917.30 0.09629
917.40 0.09625
917.50 0.09621
917.60 0.09617
917.70 0.09613
917.80 0.09609
917.90 0.09605
918.00 0.09601
918.10 0.09597
918.20 0.09593
918.30 0.09589
918.40 0.09585
918.50 0.09581
918.60 0.09577
918.70 0.09573
918.80 0.09569
918.90 0.09565
919.00 0.09561
919.10 0.09557
919.20 0.09553
919.30 0.09549
919.40 0.09545
919.50 0.09541
919.60 0.09537
919.70 0.09533
919.80 0.09529
919.90 0.09525
920.00 0.09521
920.10 0.09517
920.20 0.09513
920.30 0.09509
920.40 0.09505
920.50 0.09501
920.60 0.09497
920.70 0.09493
920.80 0.09489
920.90 0.09485
921.00 0.09481
921.10 0.09477
921.20 0.09473
921.30 0.09469
921.40 0.09465
921.50 0.09461
921.60 0.09457
921.70 0.09453
921.80 0.09449
921.90 0.09445
922.00 0.09441
922.10 0.09437
922.20 0.09433
922.30 0.09429
922.40 0.09425
922.50 0.09421
922.60 0.09417
922.70 0.09413
922.80 0.09409
922.90 0.09405
923.00 0.09402
923.10 0.09398
923.20 0.09394
923.30 0.0939
923.40 0.09386
923.50 0.09382
923.60 0.09378
923.70 0.09374
923.80 0.0937
923.90 0.09366
924.00 0.09362
924.10 0.09358
924.20 0.09355
924.30 0.09351
924.40 0.09347
924.50 0.09343
924.60 0.09339
924.70 0.09335
924.80 0.09331
924.90 0.09327
925.00 0.09323
925.10 0.09319
925.20 0.09315
925.30 0.09312
925.40 0.09308
925.50 0.09304
925.60 0.093
925.70 0.09296
925.80 0.09292
925.90 0.09288
926.00 0.09284
926.10 0.0928
926.20 0.09277
926.30 0.09273
926.40 0.09269
926.50 0.09265
926.60 0.09261
926.70 0.09257
926.80 0.09253
926.90 0.09249
927.00 0.09246
927.10 0.09242
927.20 0.09238
927.30 0.09234
927.40 0.0923
927.50 0.09226
927.60 0.09223
927.70 0.09219
927.80 0.09215
927.90 0.09211
928.00 0.09207
928.10 0.09204
928.20 0.092
928.30 0.09196
928.40 0.09192
928.50 0.09188
928.60 0.09185
928.70 0.09181
928.80 0.09177
928.90 0.09173
929.00 0.09169
929.10 0.09166
929.20 0.09162
929.30 0.09158
929.40 0.09154
929.50 0.0915
929.60 0.09147
929.70 0.09143
929.80 0.09139
929.90 0.09135
930.00 0.09131
930.10 0.09128
930.20 0.09124
930.30 0.0912
930.40 0.09116
930.50 0.09113
930.60 0.09109
930.70 0.09105
930.80 0.09101
930.90 0.09097
931.00 0.09094
931.10 0.0909
931.20 0.09086
931.30 0.09082
931.40 0.09079
931.50 0.09075
931.60 0.09071
931.70 0.09067
931.80 0.09064
931.90 0.0906
932.00 0.09056
932.10 0.09052
932.20 0.09049
932.30 0.09045
932.40 0.09041
932.50 0.09037
932.60 0.09034
932.70 0.0903
932.80 0.09026
932.90 0.09022
933.00 0.09019
933.10 0.09015
933.20 0.09011
933.30 0.09007
933.40 0.09004
933.50 0.09
933.60 0.08996
933.70 0.08992
933.80 0.08989
933.90 0.08985
934.00 0.08981
934.10 0.08978
934.20 0.08974
934.30 0.0897
934.40 0.08966
934.50 0.08963
934.60 0.08959
934.70 0.08955
934.80 0.08952
934.90 0.08948
935.00 0.08944
935.10 0.0894
935.20 0.08937
935.30 0.08933
935.40 0.08929
935.50 0.08926
935.60 0.08922
935.70 0.08918
935.80 0.08914
935.90 0.08911
936.00 0.08907
936.10 0.08903
936.20 0.089
936.30 0.08896
936.40 0.08892
936.50 0.08889
936.60 0.08885
936.70 0.08881
936.80 0.08877
936.90 0.08874
937.00 0.0887
937.10 0.08866
937.20 0.08863
937.30 0.08859
937.40 0.08855
937.50 0.08852
937.60 0.08848
937.70 0.08844
937.80 0.08841
937.90 0.08837
938.00 0.08833
938.10 0.08829
938.20 0.08826
938.30 0.08822
938.40 0.08818
938.50 0.08815
938.60 0.08811
938.70 0.08807
938.80 0.08804
938.90 0.088
939.00 0.08796
939.10 0.08793
939.20 0.08789
939.30 0.08785
939.40 0.08782
939.50 0.08778
939.60 0.08774
939.70 0.08771
939.80 0.08767
939.90 0.08763
940.00 0.0876
940.10 0.08756
940.20 0.08752
940.30 0.08749
940.40 0.08745
940.50 0.08741
940.60 0.08738
940.70 0.08734
940.80 0.0873
940.90 0.08727
941.00 0.08723
941.10 0.08719
941.20 0.08716
941.30 0.08712
941.40 0.08709
941.50 0.08705
941.60 0.08701
941.70 0.08698
941.80 0.08694
941.90 0.0869
942.00 0.08687
942.10 0.08683
942.20 0.08679
942.30 0.08676
942.40 0.08672
942.50 0.08668
942.60 0.08665
942.70 0.08661
942.80 0.08658
942.90 0.08654
943.00 0.0865
943.10 0.08647
943.20 0.08643
943.30 0.08639
943.40 0.08636
943.50 0.08632
943.60 0.08628
943.70 0.08625
943.80 0.08621
943.90 0.08618
944.00 0.08614
944.10 0.0861
944.20 0.08607
944.30 0.08603
944.40 0.08599
944.50 0.08596
944.60 0.08592
944.70 0.08589
944.80 0.08585
944.90 0.08581
945.00 0.08578
945.10 0.08574
945.20 0.08571
945.30 0.08567
945.40 0.08563
945.50 0.0856
945.60 0.08556
945.70 0.08553
945.80 0.08549
945.90 0.08545
946.00 0.08542
946.10 0.08538
946.20 0.08535
946.30 0.08531
946.40 0.08527
946.50 0.08524
946.60 0.0852
946.70 0.08517
946.80 0.08513
946.90 0.08509
947.00 0.08506
947.10 0.08502
947.20 0.08499
947.30 0.08495
947.40 0.08492
947.50 0.08488
947.60 0.08484
947.70 0.08481
947.80 0.08477
947.90 0.08474
948.00 0.0847
948.10 0.08467
948.20 0.08463
948.30 0.08459
948.40 0.08456
948.50 0.08452
948.60 0.08449
948.70 0.08445
948.80 0.08442
948.90 0.08438
949.00 0.08435
949.10 0.08431
949.20 0.08427
949.30 0.08424
949.40 0.0842
949.50 0.08417
949.60 0.08413
949.70 0.0841
949.80 0.08406
949.90 0.08403
950.00 0.08399
950.10 0.08396
950.20 0.08392
950.30 0.08389
950.40 0.08385
950.50 0.08382
950.60 0.08378
950.70 0.08375
950.80 0.08371
950.90 0.08368
951.00 0.08364
951.10 0.08361
951.20 0.08357
951.30 0.08354
951.40 0.0835
951.50 0.08347
951.60 0.08344
951.70 0.0834
951.80 0.08337
951.90 0.08333
952.00 0.0833
952.10 0.08326
952.20 0.08323
952.30 0.0832
952.40 0.08316
952.50 0.08313
952.60 0.08309
952.70 0.08306
952.80 0.08303
952.90 0.08299
953.00 0.08296
953.10 0.08293
953.20 0.08289
953.30 0.08286
953.40 0.08282
953.50 0.08279
953.60 0.08276
953.70 0.08273
953.80 0.08269
953.90 0.08266
954.00 0.08263
954.10 0.08259
954.20 0.08256
954.30 0.08253
954.40 0.0825
954.50 0.08247
954.60 0.08243
954.70 0.0824
954.80 0.08237
954.90 0.08233
955.00 0.0823
955.10 0.08226
955.20 0.08223
955.30 0.0822
955.40 0.08216
955.50 0.08213
955.60 0.08209
955.70 0.08206
955.80 0.08203
955.90 0.08199
956.00 0.08196
956.10 0.08193
956.20 0.0819
956.30 0.08186
956.40 0.08183
956.50 0.0818
956.60 0.08177
956.70 0.08173
956.80 0.0817
956.90 0.08167
957.00 0.08164
957.10 0.0816
957.20 0.08157
957.30 0.08154
957.40 0.08151
957.50 0.08148
957.60 0.08144
957.70 0.08141
957.80 0.08138
957.90 0.08135
958.00 0.08132
958.10 0.08128
958.20 0.08125
958.30 0.08122
958.40 0.08119
958.50 0.08116
958.60 0.08113
958.70 0.08109
958.80 0.08106
958.90 0.08103
959.00 0.081
959.10 0.08097
959.20 0.08094
959.30 0.08091
959.40 0.08087
959.50 0.08084
959.60 0.08081
959.70 0.08078
959.80 0.08075
959.90 0.08072
960.00 0.08069
960.10 0.08066
960.20 0.08062
960.30 0.08059
960.40 0.08056
960.50 0.08053
960.60 0.0805
960.70 0.08047
960.80 0.08044
960.90 0.08041
961.00 0.08038
961.10 0.08034
961.20 0.08031
961.30 0.08028
961.40 0.08025
961.50 0.08022
961.60 0.08019
961.70 0.08016
961.80 0.08013
961.90 0.0801
962.00 0.08007
962.10 0.08003
962.20 0.08
962.30 0.07997
962.40 0.07994
962.50 0.07991
962.60 0.07988
962.70 0.07985
962.80 0.07982
962.90 0.07979
963.00 0.07976
963.10 0.07973
963.20 0.0797
963.30 0.07967
963.40 0.07963
963.50 0.0796
963.60 0.07957
963.70 0.07954
963.80 0.07951
963.90 0.07948
964.00 0.07945
964.10 0.07942
964.20 0.07939
964.30 0.07936
964.40 0.07933
964.50 0.0793
964.60 0.07927
964.70 0.07924
964.80 0.0792
964.90 0.07917
965.00 0.07914
965.10 0.07911
965.20 0.07908
965.30 0.07905
965.40 0.07902
965.50 0.07899
965.60 0.07896
965.70 0.07893
965.80 0.0789
965.90 0.07887
966.00 0.07884
966.10 0.07881
966.20 0.07878
966.30 0.07875
966.40 0.07872
966.50 0.07869
966.60 0.07865
966.70 0.07862
966.80 0.07859
966.90 0.07856
967.00 0.07853
967.10 0.0785
967.20 0.07847
967.30 0.07844
967.40 0.07841
967.50 0.07838
967.60 0.07835
967.70 0.07832
967.80 0.07829
967.90 0.07826
968.00 0.07823
968.10 0.0782
968.20 0.07817
968.30 0.07814
968.40 0.07811
968.50 0.07807
968.60 0.07804
968.70 0.07801
968.80 0.07798
968.90 0.07795
969.00 0.07792
969.10 0.07789
969.20 0.07786
969.30 0.07783
969.40 0.0778
969.50 0.07777
969.60 0.07774
969.70 0.07771
969.80 0.07768
969.90 0.07765
970.00 0.07762
970.10 0.07759
970.20 0.07756
970.30 0.07753
970.40 0.0775
970.50 0.07747
970.60 0.07744
970.70 0.07741
970.80 0.07738
970.90 0.07735
971.00 0.07731
971.10 0.07728
971.20 0.07725
971.30 0.07722
971.40 0.07719
971.50 0.07716
971.60 0.07713
971.70 0.0771
971.80 0.07707
971.90 0.07704
972.00 0.07701
972.10 0.07698
972.20 0.07695
972.30 0.07692
972.40 0.07689
972.50 0.07686
972.60 0.07683
972.70 0.0768
972.80 0.07677
972.90 0.07674
973.00 0.07671
973.10 0.07668
973.20 0.07665
973.30 0.07662
973.40 0.07659
973.50 0.07656
973.60 0.07653
973.70 0.0765
973.80 0.07647
973.90 0.07644
974.00 0.07641
974.10 0.07638
974.20 0.07634
974.30 0.07631
974.40 0.07628
974.50 0.07625
974.60 0.07622
974.70 0.07619
974.80 0.07616
974.90 0.07613
975.00 0.0761
975.10 0.07607
975.20 0.07604
975.30 0.07601
975.40 0.07598
975.50 0.07595
975.60 0.07592
975.70 0.07589
975.80 0.07586
975.90 0.07583
976.00 0.0758
976.10 0.07577
976.20 0.07574
976.30 0.07571
976.40 0.07568
976.50 0.07565
976.60 0.07562
976.70 0.07559
976.80 0.07556
976.90 0.07553
977.00 0.0755
977.10 0.07547
977.20 0.07544
977.30 0.07541
977.40 0.07538
977.50 0.07535
977.60 0.07532
977.70 0.07529
977.80 0.07526
977.90 0.07522
978.00 0.07519
978.10 0.07516
978.20 0.07513
978.30 0.0751
978.40 0.07507
978.50 0.07504
978.60 0.07501
978.70 0.07498
978.80 0.07495
978.90 0.07492
979.00 0.07489
979.10 0.07486
979.20 0.07483
979.30 0.0748
979.40 0.07477
979.50 0.07474
979.60 0.07471
979.70 0.07468
979.80 0.07465
979.90 0.07462
980.00 0.07459
980.10 0.07456
980.20 0.07453
980.30 0.0745
980.40 0.07447
980.50 0.07444
980.60 0.07441
980.70 0.07438
980.80 0.07435
980.90 0.07432
981.00 0.07429
981.10 0.07426
981.20 0.07423
981.30 0.0742
981.40 0.07417
981.50 0.07414
981.60 0.07411
981.70 0.07408
981.80 0.07405
981.90 0.07402
982.00 0.07399
982.10 0.07396
982.20 0.07393
982.30 0.0739
982.40 0.07387
982.50 0.07384
982.60 0.07381
982.70 0.07378
982.80 0.07375
982.90 0.07372
983.00 0.07369
983.10 0.07366
983.20 0.07363
983.30 0.0736
983.40 0.07357
983.50 0.07354
983.60 0.07351
983.70 0.07348
983.80 0.07345
983.90 0.07342
984.00 0.07339
984.10 0.07336
984.20 0.07333
984.30 0.0733
984.40 0.07327
984.50 0.07323
984.60 0.0732
984.70 0.07317
984.80 0.07314
984.90 0.07311
985.00 0.07308
985.10 0.07305
985.20 0.07302
985.30 0.07299
985.40 0.07296
985.50 0.07293
985.60 0.0729
985.70 0.07287
985.80 0.07284
985.90 0.07281
986.00 0.07278
986.10 0.07275
986.20 0.07272
986.30 0.07269
986.40 0.07266
986.50 0.07263
986.60 0.0726
986.70 0.07257
986.80 0.07254
986.90 0.07251
987.00 0.07248
987.10 0.07245
987.20 0.07242
987.30 0.07239
987.40 0.07236
987.50 0.07233
987.60 0.0723
987.70 0.07227
987.80 0.07224
987.90 0.07221
988.00 0.07218
988.10 0.07215
988.20 0.07212
988.30 0.07209
988.40 0.07206
988.50 0.07203
988.60 0.072
988.70 0.07196
988.80 0.07193
988.90 0.0719
989.00 0.07187
989.10 0.07184
989.20 0.07181
989.30 0.07178
989.40 0.07175
989.50 0.07172
989.60 0.07169
989.70 0.07166
989.80 0.07163
989.90 0.0716
990.00 0.07157
990.10 0.07154
990.20 0.07151
990.30 0.07148
990.40 0.07145
990.50 0.07142
990.60 0.07139
990.70 0.07136
990.80 0.07133
990.90 0.0713
991.00 0.07127
991.10 0.07123
991.20 0.0712
991.30 0.07117
991.40 0.07114
991.50 0.07111
991.60 0.07108
991.70 0.07105
991.80 0.07102
991.90 0.07099
992.00 0.07096
992.10 0.07093
992.20 0.0709
992.30 0.07087
992.40 0.07084
992.50 0.07081
992.60 0.07078
992.70 0.07075
992.80 0.07072
992.90 0.07069
993.00 0.07065
993.10 0.07062
993.20 0.07059
993.30 0.07056
993.40 0.07053
993.50 0.0705
993.60 0.07047
993.70 0.07044
993.80 0.07041
993.90 0.07038
994.00 0.07035
994.10 0.07032
994.20 0.07029
994.30 0.07026
994.40 0.07023
994.50 0.07019
994.60 0.07016
994.70 0.07013
994.80 0.0701
994.90 0.07007
995.00 0.07004
995.10 0.07001
995.20 0.06998
995.30 0.06995
995.40 0.06992
995.50 0.06989
995.60 0.06986
995.70 0.06983
995.80 0.0698
995.90 0.06976
996.00 0.06973
996.10 0.0697
996.20 0.06967
996.30 0.06964
996.40 0.06961
996.50 0.06958
996.60 0.06955
996.70 0.06952
996.80 0.06949
996.90 0.06946
997.00 0.06943
997.10 0.0694
997.20 0.06937
997.30 0.06933
997.40 0.0693
997.50 0.06927
997.60 0.06924
997.70 0.06921
997.80 0.06918
997.90 0.06915
998.00 0.06912
998.10 0.06909
998.20 0.06906
998.30 0.06903
998.40 0.069
998.50 0.06897
998.60 0.06894
998.70 0.06891
998.80 0.06888
998.90 0.06884
999.00 0.06881
999.10 0.06878
999.20 0.06875
999.30 0.06872
999.40 0.06869
999.50 0.06866
999.60 0.06863
999.70 0.0686
999.80 0.06857
999.90 0.06854
1000.00 0.06851
1000.10 0.06848
1000.20 0.06844
1000.30 0.06841
1000.40 0.06838
1000.50 0.06835
1000.60 0.06832
1000.70 0.06829
1000.80 0.06826
1000.90 0.06823
1001.00 0.0682
1001.10 0.06817
1001.20 0.06813
1001.30 0.0681
1001.40 0.06807
1001.50 0.06804
1001.60 0.06801
1001.70 0.06798
1001.80 0.06795
1001.90 0.06792
1002.00 0.0679
1002.10 0.06787
1002.20 0.06784
1002.30 0.06782
1002.40 0.06779
1002.50 0.06776
1002.60 0.06773
1002.70 0.06771
1002.80 0.06768
1002.90 0.06765
1003.00 0.06763
1003.10 0.0676
1003.20 0.06757
1003.30 0.06755
1003.40 0.06753
1003.50 0.0675
1003.60 0.06748
1003.70 0.06745
1003.80 0.06743
1003.90 0.06741
1004.00 0.06739
1004.10 0.06736
1004.20 0.06734
1004.30 0.06732
1004.40 0.0673
1004.50 0.06728
1004.60 0.06726
1004.70 0.06724
1004.80 0.06721
1004.90 0.06719
1005.00 0.06716
1005.10 0.06713
1005.20 0.0671
1005.30 0.06708
1005.40 0.06705
1005.50 0.06702
1005.60 0.06699
1005.70 0.06696
1005.80 0.06693
1005.90 0.0669
1006.00 0.06687
1006.10 0.06684
1006.20 0.06681
1006.30 0.06678
1006.40 0.06676
1006.50 0.06673
1006.60 0.0667
1006.70 0.06668
1006.80 0.06665
1006.90 0.06662
1007.00 0.0666
1007.10 0.06657
1007.20 0.06655
1007.30 0.06652
1007.40 0.0665
1007.50 0.06647
1007.60 0.06645
1007.70 0.06643
1007.80 0.0664
1007.90 0.06638
1008.00 0.06636
1008.10 0.06634
1008.20 0.06631
1008.30 0.06629
1008.40 0.06627
1008.50 0.06625
1008.60 0.06622
1008.70 0.0662
1008.80 0.06618
1008.90 0.06616
1009.00 0.06613
1009.10 0.06611
1009.20 0.06609
1009.30 0.06607
1009.40 0.06604
1009.50 0.06602
1009.60 0.066
1009.70 0.06598
1009.80 0.06596
1009.90 0.06593
1010.00 0.06591
1010.10 0.06589
1010.20 0.06587
1010.30 0.06585
1010.40 0.06583
1010.50 0.06581
1010.60 0.06578
1010.70 0.06576
1010.80 0.06574
1010.90 0.06572
1011.00 0.0657
1011.10 0.06568
1011.20 0.06565
1011.30 0.06563
1011.40 0.06561
1011.50 0.06559
1011.60 0.06557
1011.70 0.06555
1011.80 0.06553
1011.90 0.06551
1012.00 0.06548
1012.10 0.06546
1012.20 0.06544
1012.30 0.06542
1012.40 0.0654
1012.50 0.06538
1012.60 0.06536
1012.70 0.06533
1012.80 0.06531
1012.90 0.06529
1013.00 0.06527
1013.10 0.06525
1013.20 0.06523
1013.30 0.06521
1013.40 0.06518
1013.50 0.06516
1013.60 0.06514
1013.70 0.06512
1013.80 0.0651
1013.90 0.06508
1014.00 0.06506
1014.10 0.06504
1014.20 0.06501
1014.30 0.06499
1014.40 0.06497
1014.50 0.06495
1014.60 0.06493
1014.70 0.06491
1014.80 0.06488
1014.90 0.06486
1015.00 0.06484
1015.10 0.06482
1015.20 0.0648
1015.30 0.06478
1015.40 0.06475
1015.50 0.06473
1015.60 0.06471
1015.70 0.06469
1015.80 0.06467
1015.90 0.06465
1016.00 0.06463
1016.10 0.0646
1016.20 0.06458
1016.30 0.06456
1016.40 0.06454
1016.50 0.06452
1016.60 0.0645
1016.70 0.06447
1016.80 0.06445
1016.90 0.06443
1017.00 0.06441
1017.10 0.06439
1017.20 0.06437
1017.30 0.06434
1017.40 0.06432
1017.50 0.0643
1017.60 0.06428
1017.70 0.06426
1017.80 0.06423
1017.90 0.06421
1018.00 0.06419
1018.10 0.06417
1018.20 0.06415
1018.30 0.06412
1018.40 0.0641
1018.50 0.06408
1018.60 0.06406
1018.70 0.06404
1018.80 0.06402
1018.90 0.06399
1019.00 0.06397
1019.10 0.06395
1019.20 0.06393
1019.30 0.0639
1019.40 0.06388
1019.50 0.06386
1019.60 0.06384
1019.70 0.06382
1019.80 0.06379
1019.90 0.06377
1020.00 0.06375
1020.10 0.06373
1020.20 0.06371
1020.30 0.06368
1020.40 0.06366
1020.50 0.06364
1020.60 0.06362
1020.70 0.0636
1020.80 0.06357
1020.90 0.06355
1021.00 0.06353
1021.10 0.06351
1021.20 0.06349
1021.30 0.06346
1021.40 0.06344
1021.50 0.06342
1021.60 0.0634
1021.70 0.06337
1021.80 0.06335
1021.90 0.06333
1022.00 0.06331
1022.10 0.06329
1022.20 0.06326
1022.30 0.06324
1022.40 0.06322
1022.50 0.0632
1022.60 0.06317
1022.70 0.06315
1022.80 0.06313
1022.90 0.06311
1023.00 0.06308
1023.10 0.06306
1023.20 0.06304
1023.30 0.06302
1023.40 0.063
1023.50 0.06297
1023.60 0.06295
1023.70 0.06293
1023.80 0.06291
1023.90 0.06288
1024.00 0.06286
1024.10 0.06284
1024.20 0.06282
1024.30 0.06279
1024.40 0.06277
1024.50 0.06275
1024.60 0.06273
1024.70 0.06271
1024.80 0.06268
1024.90 0.06266
1025.00 0.06264
1025.10 0.06262
1025.20 0.06259
1025.30 0.06257
1025.40 0.06255
1025.50 0.06253
1025.60 0.0625
1025.70 0.06248
1025.80 0.06246
1025.90 0.06244
1026.00 0.06241
1026.10 0.06239
1026.20 0.06237
1026.30 0.06235
1026.40 0.06233
1026.50 0.0623
1026.60 0.06228
1026.70 0.06226
1026.80 0.06224
1026.90 0.06221
1027.00 0.06219
1027.10 0.06217
1027.20 0.06215
1027.30 0.06212
1027.40 0.0621
1027.50 0.06208
1027.60 0.06206
1027.70 0.06203
1027.80 0.06201
1027.90 0.06199
1028.00 0.06197
1028.10 0.06194
1028.20 0.06192
1028.30 0.0619
1028.40 0.06188
1028.50 0.06185
1028.60 0.06183
1028.70 0.06181
1028.80 0.06179
1028.90 0.06176
1029.00 0.06174
1029.10 0.06172
1029.20 0.0617
1029.30 0.06167
1029.40 0.06165
1029.50 0.06163
1029.60 0.06161
1029.70 0.06158
1029.80 0.06156
1029.90 0.06154
1030.00 0.06152
1030.10 0.0615
1030.20 0.06147
1030.30 0.06145
1030.40 0.06143
1030.50 0.06141
1030.60 0.06138
1030.70 0.06136
1030.80 0.06134
1030.90 0.06132
1031.00 0.06129
1031.10 0.06127
1031.20 0.06125
1031.30 0.06123
1031.40 0.06121
1031.50 0.06118
1031.60 0.06116
1031.70 0.06114
1031.80 0.06112
1031.90 0.06109
1032.00 0.06107
1032.10 0.06105
1032.20 0.06103
1032.30 0.061
1032.40 0.06098
1032.50 0.06096
1032.60 0.06094
1032.70 0.06091
1032.80 0.06089
1032.90 0.06087
1033.00 0.06085
1033.10 0.06083
1033.20 0.0608
1033.30 0.06078
1033.40 0.06076
1033.50 0.06074
1033.60 0.06071
1033.70 0.06069
1033.80 0.06067
1033.90 0.06065
1034.00 0.06062
1034.10 0.0606
1034.20 0.06058
1034.30 0.06056
1034.40 0.06054
1034.50 0.06051
1034.60 0.06049
1034.70 0.06047
1034.80 0.06045
1034.90 0.06042
1035.00 0.0604
1035.10 0.06038
1035.20 0.06036
1035.30 0.06034
1035.40 0.06031
1035.50 0.06029
1035.60 0.06027
1035.70 0.06025
1035.80 0.06022
1035.90 0.0602
1036.00 0.06018
1036.10 0.06016
1036.20 0.06014
1036.30 0.06011
1036.40 0.06009
1036.50 0.06007
1036.60 0.06005
1036.70 0.06003
1036.80 0.06
1036.90 0.05998
1037.00 0.05996
1037.10 0.05994
1037.20 0.05991
1037.30 0.05989
1037.40 0.05987
1037.50 0.05985
1037.60 0.05983
1037.70 0.0598
1037.80 0.05978
1037.90 0.05976
1038.00 0.05974
1038.10 0.05972
1038.20 0.05969
1038.30 0.05967
1038.40 0.05965
1038.50 0.05963
1038.60 0.05961
1038.70 0.05958
1038.80 0.05956
1038.90 0.05954
1039.00 0.05952
1039.10 0.05949
1039.20 0.05947
1039.30 0.05945
1039.40 0.05943
1039.50 0.05941
1039.60 0.05938
1039.70 0.05936
1039.80 0.05934
1039.90 0.05932
1040.00 0.0593
1040.10 0.05927
1040.20 0.05925
1040.30 0.05923
1040.40 0.05921
1040.50 0.05919
1040.60 0.05917
1040.70 0.05914
1040.80 0.05912
1040.90 0.0591
1041.00 0.05908
1041.10 0.05906
1041.20 0.05903
1041.30 0.05901
1041.40 0.05899
1041.50 0.05897
1041.60 0.05895
1041.70 0.05892
1041.80 0.0589
1041.90 0.05888
1042.00 0.05886
1042.10 0.05884
1042.20 0.05882
1042.30 0.05879
1042.40 0.05877
1042.50 0.05875
1042.60 0.05873
1042.70 0.05871
1042.80 0.05868
1042.90 0.05866
1043.00 0.05864
1043.10 0.05862
1043.20 0.0586
1043.30 0.05857
1043.40 0.05855
1043.50 0.05853
1043.60 0.05851
1043.70 0.05849
1043.80 0.05847
1043.90 0.05844
1044.00 0.05842
1044.10 0.0584
1044.20 0.05838
1044.30 0.05836
1044.40 0.05834
1044.50 0.05831
1044.60 0.05829
1044.70 0.05827
1044.80 0.05825
1044.90 0.05823
1045.00 0.05821
1045.10 0.05818
1045.20 0.05816
1045.30 0.05814
1045.40 0.05812
1045.50 0.0581
1045.60 0.05808
1045.70 0.05805
1045.80 0.05803
1045.90 0.05801
1046.00 0.05799
1046.10 0.05797
1046.20 0.05795
1046.30 0.05792
1046.40 0.0579
1046.50 0.05788
1046.60 0.05786
1046.70 0.05784
1046.80 0.05782
1046.90 0.0578
1047.00 0.05777
1047.10 0.05775
1047.20 0.05773
1047.30 0.05771
1047.40 0.05769
1047.50 0.05767
1047.60 0.05764
1047.70 0.05762
1047.80 0.0576
1047.90 0.05758
1048.00 0.05756
1048.10 0.05754
1048.20 0.05752
1048.30 0.05749
1048.40 0.05747
1048.50 0.05745
1048.60 0.05743
1048.70 0.05741
1048.80 0.05739
1048.90 0.05737
1049.00 0.05734
1049.10 0.05732
1049.20 0.0573
1049.30 0.05728
1049.40 0.05726
1049.50 0.05724
1049.60 0.05722
1049.70 0.05719
1049.80 0.05717
1049.90 0.05715
1050.00 0.05713
1050.10 0.05711
1050.20 0.05709
1050.30 0.05707
1050.40 0.05704
1050.50 0.05702
1050.60 0.057
1050.70 0.05698
1050.80 0.05696
1050.90 0.05694
1051.00 0.05692
1051.10 0.0569
1051.20 0.05687
1051.30 0.05685
1051.40 0.05683
1051.50 0.05681
1051.60 0.05679
1051.70 0.05677
1051.80 0.05675
1051.90 0.05673
1052.00 0.0567
1052.10 0.05668
1052.20 0.05666
1052.30 0.05664
1052.40 0.05662
1052.50 0.0566
1052.60 0.05658
1052.70 0.05656
1052.80 0.05653
1052.90 0.05651
1053.00 0.05649
1053.10 0.05647
1053.20 0.05645
1053.30 0.05643
1053.40 0.05641
1053.50 0.05639
1053.60 0.05637
1053.70 0.05634
1053.80 0.05632
1053.90 0.0563
1054.00 0.05628
1054.10 0.05626
1054.20 0.05624
1054.30 0.05622
1054.40 0.0562
1054.50 0.05618
1054.60 0.05615
1054.70 0.05613
1054.80 0.05611
1054.90 0.05609
1055.00 0.05607
1055.10 0.05605
1055.20 0.05603
1055.30 0.05601
1055.40 0.05599
1055.50 0.05597
1055.60 0.05594
1055.70 0.05592
1055.80 0.0559
1055.90 0.05588
1056.00 0.05586
1056.10 0.05584
1056.20 0.05582
1056.30 0.0558
1056.40 0.05578
1056.50 0.05576
1056.60 0.05573
1056.70 0.05571
1056.80 0.05569
1056.90 0.05567
1057.00 0.05565
1057.10 0.05563
1057.20 0.05561
1057.30 0.05559
1057.40 0.05557
1057.50 0.05555
1057.60 0.05552
1057.70 0.0555
1057.80 0.05548
1057.90 0.05546
1058.00 0.05544
1058.10 0.05542
1058.20 0.0554
1058.30 0.05538
1058.40 0.05536
1058.50 0.05534
1058.60 0.05532
1058.70 0.05529
1058.80 0.05527
1058.90 0.05525
1059.00 0.05523
1059.10 0.05521
1059.20 0.05519
1059.30 0.05517
1059.40 0.05515
1059.50 0.05513
1059.60 0.05511
1059.70 0.05509
1059.80 0.05506
1059.90 0.05504
1060.00 0.05502
1060.10 0.055
1060.20 0.05498
1060.30 0.05496
1060.40 0.05494
1060.50 0.05492
1060.60 0.0549
1060.70 0.05488
1060.80 0.05486
1060.90 0.05484
1061.00 0.05482
1061.10 0.05479
1061.20 0.05477
1061.30 0.05475
1061.40 0.05473
1061.50 0.05471
1061.60 0.05469
1061.70 0.05467
1061.80 0.05465
1061.90 0.05463
1062.00 0.05461
1062.10 0.05459
1062.20 0.05457
1062.30 0.05455
1062.40 0.05452
1062.50 0.0545
1062.60 0.05448
1062.70 0.05446
1062.80 0.05444
1062.90 0.05442
1063.00 0.0544
1063.10 0.05438
1063.20 0.05436
1063.30 0.05434
1063.40 0.05432
1063.50 0.0543
1063.60 0.05428
1063.70 0.05425
1063.80 0.05423
1063.90 0.05421
1064.00 0.05419
1064.10 0.05417
1064.20 0.05415
1064.30 0.05413
1064.40 0.05411
1064.50 0.05409
1064.60 0.05407
1064.70 0.05405
1064.80 0.05403
1064.90 0.05401
1065.00 0.05398
1065.10 0.05396
1065.20 0.05394
1065.30 0.05392
1065.40 0.0539
1065.50 0.05388
1065.60 0.05386
1065.70 0.05384
1065.80 0.05382
1065.90 0.0538
1066.00 0.05378
1066.10 0.05376
1066.20 0.05374
1066.30 0.05372
1066.40 0.0537
1066.50 0.05368
1066.60 0.05365
1066.70 0.05363
1066.80 0.05361
1066.90 0.05359
1067.00 0.05357
1067.10 0.05355
1067.20 0.05353
1067.30 0.05351
1067.40 0.05349
1067.50 0.05347
1067.60 0.05345
1067.70 0.05343
1067.80 0.0534
1067.90 0.05338
1068.00 0.05336
1068.10 0.05334
1068.20 0.05332
1068.30 0.0533
1068.40 0.05328
1068.50 0.05326
1068.60 0.05324
1068.70 0.05322
1068.80 0.0532
1068.90 0.05318
1069.00 0.05315
1069.10 0.05313
1069.20 0.05311
1069.30 0.05309
1069.40 0.05307
1069.50 0.05305
1069.60 0.05303
1069.70 0.05301
1069.80 0.05299
1069.90 0.05297
1070.00 0.05295
1070.10 0.05293
1070.20 0.05291
1070.30 0.05288
1070.40 0.05286
1070.50 0.05284
1070.60 0.05282
1070.70 0.0528
1070.80 0.05278
1070.90 0.05276
1071.00 0.05274
1071.10 0.05272
1071.20 0.0527
1071.30 0.05268
1071.40 0.05266
1071.50 0.05264
1071.60 0.05262
1071.70 0.05259
1071.80 0.05257
1071.90 0.05255
1072.00 0.05253
1072.10 0.05251
1072.20 0.05249
1072.30 0.05247
1072.40 0.05245
1072.50 0.05243
1072.60 0.05241
1072.70 0.05239
1072.80 0.05237
1072.90 0.05234
1073.00 0.05232
1073.10 0.0523
1073.20 0.05228
1073.30 0.05226
1073.40 0.05224
1073.50 0.05222
1073.60 0.0522
1073.70 0.05218
1073.80 0.05215
1073.90 0.05213
1074.00 0.05211
1074.10 0.05209
1074.20 0.05207
1074.30 0.05205
1074.40 0.05203
1074.50 0.052
1074.60 0.05198
1074.70 0.05196
1074.80 0.05194
1074.90 0.05192
1075.00 0.0519
1075.10 0.05188
1075.20 0.05186
1075.30 0.05183
1075.40 0.05181
1075.50 0.05179
1075.60 0.05177
1075.70 0.05175
1075.80 0.05173
1075.90 0.05171
1076.00 0.05169
1076.10 0.05166
1076.20 0.05164
1076.30 0.05162
1076.40 0.0516
1076.50 0.05158
1076.60 0.05156
1076.70 0.05154
1076.80 0.05152
1076.90 0.0515
1077.00 0.05147
1077.10 0.05145
1077.20 0.05143
1077.30 0.05141
1077.40 0.05139
1077.50 0.05137
1077.60 0.05134
1077.70 0.05132
1077.80 0.0513
1077.90 0.05128
1078.00 0.05126
1078.10 0.05124
1078.20 0.05121
1078.30 0.05119
1078.40 0.05117
1078.50 0.05115
1078.60 0.05113
1078.70 0.0511
1078.80 0.05108
1078.90 0.05106
1079.00 0.05104
1079.10 0.05102
1079.20 0.051
1079.30 0.05097
1079.40 0.05095
1079.50 0.05093
1079.60 0.05091
1079.70 0.05089
1079.80 0.05086
1079.90 0.05084
1080.00 0.05082
1080.10 0.0508
1080.20 0.05077
1080.30 0.05075
1080.40 0.05073
1080.50 0.05071
1080.60 0.05069
1080.70 0.05066
1080.80 0.05064
1080.90 0.05062
1081.00 0.0506
1081.10 0.05057
1081.20 0.05055
1081.30 0.05053
1081.40 0.05051
1081.50 0.05049
1081.60 0.05046
1081.70 0.05044
1081.80 0.05042
1081.90 0.0504
1082.00 0.05037
1082.10 0.05035
1082.20 0.05033
1082.30 0.0503
1082.40 0.05028
1082.50 0.05026
1082.60 0.05024
1082.70 0.05021
1082.80 0.05019
1082.90 0.05017
1083.00 0.05014
1083.10 0.05012
1083.20 0.0501
1083.30 0.05008
1083.40 0.05005
1083.50 0.05003
1083.60 0.05001
1083.70 0.04998
1083.80 0.04996
1083.90 0.04994
1084.00 0.04991
1084.10 0.04989
1084.20 0.04987
1084.30 0.04985
1084.40 0.04982
1084.50 0.0498
1084.60 0.04978
1084.70 0.04975
1084.80 0.04973
1084.90 0.0497
1085.00 0.04968
1085.10 0.04966
1085.20 0.04963
1085.30 0.04961
1085.40 0.04959
1085.50 0.04956
1085.60 0.04954
1085.70 0.04952
1085.80 0.04949
1085.90 0.04947
1086.00 0.04945
1086.10 0.04942
1086.20 0.0494
1086.30 0.04938
1086.40 0.04935
1086.50 0.04933
1086.60 0.04931
1086.70 0.04928
1086.80 0.04926
1086.90 0.04923
1087.00 0.04921
1087.10 0.04919
1087.20 0.04916
1087.30 0.04914
1087.40 0.04912
1087.50 0.04909
1087.60 0.04907
1087.70 0.04905
1087.80 0.04902
1087.90 0.049
1088.00 0.04897
1088.10 0.04895
1088.20 0.04893
1088.30 0.0489
1088.40 0.04888
1088.50 0.04886
1088.60 0.04883
1088.70 0.04881
1088.80 0.04879
1088.90 0.04876
1089.00 0.04874
1089.10 0.04872
1089.20 0.04869
1089.30 0.04867
1089.40 0.04865
1089.50 0.04862
1089.60 0.0486
1089.70 0.04858
1089.80 0.04855
1089.90 0.04853
1090.00 0.04851
1090.10 0.04848
1090.20 0.04846
1090.30 0.04844
1090.40 0.04841
1090.50 0.04839
1090.60 0.04837
1090.70 0.04834
1090.80 0.04832
1090.90 0.0483
1091.00 0.04828
1091.10 0.04825
1091.20 0.04823
1091.30 0.04821
1091.40 0.04819
1091.50 0.04816
1091.60 0.04814
1091.70 0.04812
1091.80 0.0481
1091.90 0.04807
1092.00 0.04805
1092.10 0.04803
1092.20 0.048
1092.30 0.04798
1092.40 0.04796
1092.50 0.04794
1092.60 0.04791
1092.70 0.04789
1092.80 0.04787
1092.90 0.04785
1093.00 0.04782
1093.10 0.0478
1093.20 0.04778
1093.30 0.04776
1093.40 0.04774
1093.50 0.04773
1093.60 0.04772
1093.70 0.04772
1093.80 0.04771
1093.90 0.04769
1094.00 0.04767
1094.10 0.04764
1094.20 0.04762
1094.30 0.0476
1094.40 0.04759
1094.50 0.04757
1094.60 0.04756
1094.70 0.04755
1094.80 0.04754
1094.90 0.04753
1095.00 0.04751
1095.10 0.0475
1095.20 0.04749
1095.30 0.04748
1095.40 0.04747
1095.50 0.04746
1095.60 0.04745
1095.70 0.04744
1095.80 0.04743
1095.90 0.04742
1096.00 0.0474
1096.10 0.04739
1096.20 0.04738
1096.30 0.04737
1096.40 0.04736
1096.50 0.04735
1096.60 0.04734
1096.70 0.04733
1096.80 0.04732
1096.90 0.04731
1097.00 0.04729
1097.10 0.04728
1097.20 0.04727
1097.30 0.04726
1097.40 0.04725
1097.50 0.04724
1097.60 0.04723
1097.70 0.04722
1097.80 0.04721
1097.90 0.0472
1098.00 0.04719
1098.10 0.04718
1098.20 0.04717
1098.30 0.04715
1098.40 0.04714
1098.50 0.04713
1098.60 0.04712
1098.70 0.04711
1098.80 0.0471
1098.90 0.04709
1099.00 0.04708
1099.10 0.04707
1099.20 0.04706
1099.30 0.04705
1099.40 0.04704
1099.50 0.04703
1099.60 0.04702
1099.70 0.04701
1099.80 0.047
1099.90 0.04699
1100.00 0.04697
1100.10 0.04696
1100.20 0.04695
1100.30 0.04694
1100.40 0.04693
1100.50 0.04692
1100.60 0.04691
1100.70 0.0469
1100.80 0.04689
1100.90 0.04688
1101.00 0.04687
1101.10 0.04686
1101.20 0.04685
1101.30 0.04684
1101.40 0.04682
1101.50 0.04681
1101.60 0.0468
1101.70 0.04679
1101.80 0.04678
1101.90 0.04677
1102.00 0.04676
1102.10 0.04675
1102.20 0.04674
1102.30 0.04673
1102.40 0.04672
1102.50 0.0467
1102.60 0.04669
1102.70 0.04668
1102.80 0.04667
1102.90 0.04666
1103.00 0.04665
1103.10 0.04664
1103.20 0.04663
1103.30 0.04661
1103.40 0.0466
1103.50 0.04659
1103.60 0.04658
1103.70 0.04657
1103.80 0.04656
1103.90 0.04654
1104.00 0.04653
1104.10 0.04652
1104.20 0.04651
1104.30 0.0465
1104.40 0.04648
1104.50 0.04647
1104.60 0.04646
1104.70 0.04645
1104.80 0.04644
1104.90 0.04643
1105.00 0.04641
1105.10 0.0464
1105.20 0.04639
1105.30 0.04638
1105.40 0.04637
1105.50 0.04635
1105.60 0.04634
1105.70 0.04633
1105.80 0.04632
1105.90 0.0463
1106.00 0.04629
1106.10 0.04628
1106.20 0.04627
1106.30 0.04626
1106.40 0.04624
1106.50 0.04623
1106.60 0.04622
1106.70 0.04621
1106.80 0.04619
1106.90 0.04618
1107.00 0.04617
1107.10 0.04616
1107.20 0.04614
1107.30 0.04613
1107.40 0.04612
1107.50 0.0461
1107.60 0.04609
1107.70 0.04608
1107.80 0.04607
1107.90 0.04605
1108.00 0.04604
1108.10 0.04603
1108.20 0.04601
1108.30 0.046
1108.40 0.04599
1108.50 0.04597
1108.60 0.04596
1108.70 0.04595
1108.80 0.04594
1108.90 0.04592
1109.00 0.04591
1109.10 0.0459
1109.20 0.04588
1109.30 0.04587
1109.40 0.04586
1109.50 0.04584
1109.60 0.04583
1109.70 0.04582
1109.80 0.0458
1109.90 0.04579
1110.00 0.04578
1110.10 0.04576
1110.20 0.04575
1110.30 0.04574
1110.40 0.04572
1110.50 0.04571
1110.60 0.04569
1110.70 0.04568
1110.80 0.04567
1110.90 0.04565
1111.00 0.04564
1111.10 0.04563
1111.20 0.04561
1111.30 0.0456
1111.40 0.04559
1111.50 0.04557
1111.60 0.04556
1111.70 0.04555
1111.80 0.04553
1111.90 0.04552
1112.00 0.0455
1112.10 0.04549
1112.20 0.04548
1112.30 0.04546
1112.40 0.04545
1112.50 0.04543
1112.60 0.04542
1112.70 0.04541
1112.80 0.04539
1112.90 0.04538
1113.00 0.04537
1113.10 0.04535
1113.20 0.04534
1113.30 0.04532
1113.40 0.04531
1113.50 0.0453
1113.60 0.04528
1113.70 0.04527
1113.80 0.04525
1113.90 0.04524
1114.00 0.04522
1114.10 0.04521
1114.20 0.0452
1114.30 0.04518
1114.40 0.04517
1114.50 0.04515
1114.60 0.04514
1114.70 0.04512
1114.80 0.04511
1114.90 0.0451
1115.00 0.04508
1115.10 0.04507
1115.20 0.04505
1115.30 0.04504
1115.40 0.04502
1115.50 0.04501
1115.60 0.045
1115.70 0.04498
1115.80 0.04497
1115.90 0.04495
1116.00 0.04494
1116.10 0.04493
1116.20 0.04491
1116.30 0.0449
1116.40 0.04488
1116.50 0.04487
1116.60 0.04485
1116.70 0.04484
1116.80 0.04483
1116.90 0.04481
1117.00 0.0448
1117.10 0.04478
1117.20 0.04477
1117.30 0.04475
1117.40 0.04474
1117.50 0.04472
1117.60 0.04471
1117.70 0.0447
1117.80 0.04468
1117.90 0.04467
1118.00 0.04465
1118.10 0.04464
1118.20 0.04462
1118.30 0.04461
1118.40 0.04459
1118.50 0.04458
1118.60 0.04456
1118.70 0.04455
1118.80 0.04453
1118.90 0.04452
1119.00 0.04451
1119.10 0.04449
1119.20 0.04448
1119.30 0.04446
1119.40 0.04445
1119.50 0.04443
1119.60 0.04442
1119.70 0.0444
1119.80 0.04439
1119.90 0.04438
1120.00 0.04436
1120.10 0.04435
1120.20 0.04433
1120.30 0.04432
1120.40 0.0443
1120.50 0.04429
1120.60 0.04427
1120.70 0.04426
1120.80 0.04424
1120.90 0.04423
1121.00 0.04422
1121.10 0.0442
1121.20 0.04419
1121.30 0.04417
1121.40 0.04416
1121.50 0.04414
1121.60 0.04413
1121.70 0.04412
1121.80 0.0441
1121.90 0.04409
1122.00 0.04407
1122.10 0.04406
1122.20 0.04404
1122.30 0.04403
1122.40 0.04401
1122.50 0.044
1122.60 0.04398
1122.70 0.04397
1122.80 0.04395
1122.90 0.04394
1123.00 0.04393
1123.10 0.04391
1123.20 0.0439
1123.30 0.04388
1123.40 0.04387
1123.50 0.04385
1123.60 0.04384
1123.70 0.04382
1123.80 0.04381
1123.90 0.04379
1124.00 0.04378
1124.10 0.04376
1124.20 0.04375
1124.30 0.04373
1124.40 0.04372
1124.50 0.04371
1124.60 0.04369
1124.70 0.04368
1124.80 0.04366
1124.90 0.04365
1125.00 0.04363
1125.10 0.04362
1125.20 0.0436
1125.30 0.04359
1125.40 0.04357
1125.50 0.04356
1125.60 0.04355
1125.70 0.04353
1125.80 0.04352
1125.90 0.0435
1126.00 0.04349
1126.10 0.04347
1126.20 0.04346
1126.30 0.04344
1126.40 0.04343
1126.50 0.04341
1126.60 0.0434
1126.70 0.04339
1126.80 0.04337
1126.90 0.04336
1127.00 0.04334
1127.10 0.04333
1127.20 0.04331
1127.30 0.0433
1127.40 0.04328
1127.50 0.04327
1127.60 0.04325
1127.70 0.04324
1127.80 0.04323
1127.90 0.04321
1128.00 0.0432
1128.10 0.04318
1128.20 0.04317
1128.30 0.04315
1128.40 0.04314
1128.50 0.04312
1128.60 0.04311
1128.70 0.04309
1128.80 0.04308
1128.90 0.04307
1129.00 0.04305
1129.10 0.04304
1129.20 0.04302
1129.30 0.04301
1129.40 0.04299
1129.50 0.04298
1129.60 0.04296
1129.70 0.04295
1129.80 0.04293
1129.90 0.04292
1130.00 0.04291
1130.10 0.04289
1130.20 0.04288
1130.30 0.04286
1130.40 0.04285
1130.50 0.04283
1130.60 0.04282
1130.70 0.0428
1130.80 0.04279
1130.90 0.04278
1131.00 0.04276
1131.10 0.04275
1131.20 0.04273
1131.30 0.04272
1131.40 0.0427
1131.50 0.04269
1131.60 0.04267
1131.70 0.04266
1131.80 0.04265
1131.90 0.04263
1132.00 0.04262
1132.10 0.0426
1132.20 0.04259
1132.30 0.04257
1132.40 0.04256
1132.50 0.04255
1132.60 0.04253
1132.70 0.04252
1132.80 0.0425
1132.90 0.04249
1133.00 0.04247
1133.10 0.04246
1133.20 0.04244
1133.30 0.04243
1133.40 0.04242
1133.50 0.0424
1133.60 0.04239
1133.70 0.04237
1133.80 0.04236
1133.90 0.04234
1134.00 0.04233
1134.10 0.04231
1134.20 0.0423
1134.30 0.04229
1134.40 0.04227
1134.50 0.04226
1134.60 0.04224
1134.70 0.04223
1134.80 0.04221
1134.90 0.0422
1135.00 0.04219
1135.10 0.04217
1135.20 0.04216
1135.30 0.04214
1135.40 0.04213
1135.50 0.04211
1135.60 0.0421
1135.70 0.04209
1135.80 0.04207
1135.90 0.04206
1136.00 0.04204
1136.10 0.04203
1136.20 0.04201
1136.30 0.042
1136.40 0.04199
1136.50 0.04197
1136.60 0.04196
1136.70 0.04194
1136.80 0.04193
1136.90 0.04192
1137.00 0.0419
1137.10 0.04189
1137.20 0.04187
1137.30 0.04186
1137.40 0.04184
1137.50 0.04183
1137.60 0.04182
1137.70 0.0418
1137.80 0.04179
1137.90 0.04177
1138.00 0.04176
1138.10 0.04174
1138.20 0.04173
1138.30 0.04172
1138.40 0.0417
1138.50 0.04169
1138.60 0.04167
1138.70 0.04166
1138.80 0.04165
1138.90 0.04163
1139.00 0.04162
1139.10 0.0416
1139.20 0.04159
1139.30 0.04157
1139.40 0.04156
1139.50 0.04155
1139.60 0.04153
1139.70 0.04152
1139.80 0.0415
1139.90 0.04149
1140.00 0.04148
1140.10 0.04146
1140.20 0.04145
1140.30 0.04143
1140.40 0.04142
1140.50 0.04141
1140.60 0.04139
1140.70 0.04138
1140.80 0.04136
1140.90 0.04135
1141.00 0.04134
1141.10 0.04132
1141.20 0.04131
1141.30 0.04129
1141.40 0.04128
1141.50 0.04127
1141.60 0.04125
1141.70 0.04124
1141.80 0.04122
1141.90 0.04121
1142.00 0.0412
1142.10 0.04118
1142.20 0.04117
1142.30 0.04115
1142.40 0.04114
1142.50 0.04113
1142.60 0.04111
1142.70 0.0411
1142.80 0.04108
1142.90 0.04107
1143.00 0.04106
1143.10 0.04104
1143.20 0.04103
1143.30 0.04101
1143.40 0.041
1143.50 0.04099
1143.60 0.04097
1143.70 0.04096
1143.80 0.04094
1143.90 0.04093
1144.00 0.04092
1144.10 0.0409
1144.20 0.04089
1144.30 0.04088
1144.40 0.04086
1144.50 0.04085
1144.60 0.04083
1144.70 0.04082
1144.80 0.04081
1144.90 0.04079
1145.00 0.04078
1145.10 0.04076
1145.20 0.04075
1145.30 0.04074
1145.40 0.04072
1145.50 0.04071
1145.60 0.0407
1145.70 0.04068
1145.80 0.04067
1145.90 0.04065
1146.00 0.04064
1146.10 0.04063
1146.20 0.04061
1146.30 0.0406
1146.40 0.04059
1146.50 0.04057
1146.60 0.04056
1146.70 0.04054
1146.80 0.04053
1146.90 0.04052
1147.00 0.0405
1147.10 0.04049
1147.20 0.04048
1147.30 0.04046
1147.40 0.04045
1147.50 0.04043
1147.60 0.04042
1147.70 0.04041
1147.80 0.04039
1147.90 0.04038
1148.00 0.04037
1148.10 0.04035
1148.20 0.04034
1148.30 0.04032
1148.40 0.04031
1148.50 0.0403
1148.60 0.04028
1148.70 0.04027
1148.80 0.04026
1148.90 0.04024
1149.00 0.04023
1149.10 0.04022
1149.20 0.0402
1149.30 0.04019
1149.40 0.04017
1149.50 0.04016
1149.60 0.04015
1149.70 0.04013
1149.80 0.04012
1149.90 0.04011
1150.00 0.04009
1150.10 0.04008
1150.20 0.04007
1150.30 0.04005
1150.40 0.04004
1150.50 0.04003
1150.60 0.04001
1150.70 0.04
1150.80 0.03998
1150.90 0.03997
1151.00 0.03996
1151.10 0.03994
1151.20 0.03993
1151.30 0.03992
1151.40 0.0399
1151.50 0.03989
1151.60 0.03988
1151.70 0.03986
1151.80 0.03985
1151.90 0.03984
1152.00 0.03982
1152.10 0.03981
1152.20 0.0398
1152.30 0.03978
1152.40 0.03977
1152.50 0.03976
1152.60 0.03974
1152.70 0.03973
1152.80 0.03972
1152.90 0.0397
1153.00 0.03969
1153.10 0.03968
1153.20 0.03966
1153.30 0.03965
1153.40 0.03963
1153.50 0.03962
1153.60 0.03961
1153.70 0.03959
1153.80 0.03958
1153.90 0.03957
1154.00 0.03955
1154.10 0.03954
1154.20 0.03953
1154.30 0.03951
1154.40 0.0395
1154.50 0.03949
1154.60 0.03947
1154.70 0.03946
1154.80 0.03945
1154.90 0.03943
1155.00 0.03942
1155.10 0.03941
1155.20 0.03939
1155.30 0.03938
1155.40 0.03937
1155.50 0.03935
1155.60 0.03934
1155.70 0.03933
1155.80 0.03931
1155.90 0.0393
1156.00 0.03929
1156.10 0.03928
1156.20 0.03926
1156.30 0.03925
1156.40 0.03924
1156.50 0.03922
1156.60 0.03921
1156.70 0.0392
1156.80 0.03918
1156.90 0.03917
1157.00 0.03916
1157.10 0.03914
1157.20 0.03913
1157.30 0.03912
1157.40 0.0391
1157.50 0.03909
1157.60 0.03908
1157.70 0.03906
1157.80 0.03905
1157.90 0.03904
1158.00 0.03902
1158.10 0.03901
1158.20 0.039
1158.30 0.03898
1158.40 0.03897
1158.50 0.03896
1158.60 0.03895
1158.70 0.03893
1158.80 0.03892
1158.90 0.03891
1159.00 0.03889
1159.10 0.03888
1159.20 0.03887
1159.30 0.03885
1159.40 0.03884
1159.50 0.03883
1159.60 0.03881
1159.70 0.0388
1159.80 0.03879
1159.90 0.03878
1160.00 0.03876
1160.10 0.03875
1160.20 0.03874
1160.30 0.03872
1160.40 0.03871
1160.50 0.0387
1160.60 0.03868
1160.70 0.03867
1160.80 0.03866
1160.90 0.03864
1161.00 0.03863
1161.10 0.03862
1161.20 0.03861
1161.30 0.03859
1161.40 0.03858
1161.50 0.03857
1161.60 0.03855
1161.70 0.03854
1161.80 0.03853
1161.90 0.03851
1162.00 0.0385
1162.10 0.03849
1162.20 0.03848
1162.30 0.03846
1162.40 0.03845
1162.50 0.03844
1162.60 0.03842
1162.70 0.03841
1162.80 0.0384
1162.90 0.03839
1163.00 0.03837
1163.10 0.03836
1163.20 0.03835
1163.30 0.03833
1163.40 0.03832
1163.50 0.03831
1163.60 0.0383
1163.70 0.03828
1163.80 0.03827
1163.90 0.03826
1164.00 0.03824
1164.10 0.03823
1164.20 0.03822
1164.30 0.03821
1164.40 0.03819
1164.50 0.03818
1164.60 0.03817
1164.70 0.03815
1164.80 0.03814
1164.90 0.03813
1165.00 0.03812
1165.10 0.0381
1165.20 0.03809
1165.30 0.03808
1165.40 0.03807
1165.50 0.03805
1165.60 0.03804
1165.70 0.03803
1165.80 0.03801
1165.90 0.038
1166.00 0.03799
1166.10 0.03798
1166.20 0.03796
1166.30 0.03795
1166.40 0.03794
1166.50 0.03793
1166.60 0.03791
1166.70 0.0379
1166.80 0.03789
1166.90 0.03787
1167.00 0.03786
1167.10 0.03785
1167.20 0.03784
1167.30 0.03782
1167.40 0.03781
1167.50 0.0378
1167.60 0.03779
1167.70 0.03777
1167.80 0.03776
1167.90 0.03775
1168.00 0.03774
1168.10 0.03772
1168.20 0.03771
1168.30 0.0377
1168.40 0.03768
1168.50 0.03767
1168.60 0.03766
1168.70 0.03765
1168.80 0.03763
1168.90 0.03762
1169.00 0.03761
1169.10 0.0376
1169.20 0.03758
1169.30 0.03757
1169.40 0.03756
1169.50 0.03755
1169.60 0.03753
1169.70 0.03752
1169.80 0.03751
1169.90 0.0375
1170.00 0.03748
1170.10 0.03747
1170.20 0.03746
1170.30 0.03745
1170.40 0.03743
1170.50 0.03742
1170.60 0.03741
1170.70 0.0374
1170.80 0.03738
1170.90 0.03737
1171.00 0.03736
1171.10 0.03735
1171.20 0.03733
1171.30 0.03732
1171.40 0.03731
1171.50 0.0373
1171.60 0.03728
1171.70 0.03727
1171.80 0.03726
1171.90 0.03725
1172.00 0.03723
1172.10 0.03722
1172.20 0.03721
1172.30 0.0372
1172.40 0.03718
1172.50 0.03717
1172.60 0.03716
1172.70 0.03715
1172.80 0.03713
1172.90 0.03712
1173.00 0.03711
1173.10 0.0371
1173.20 0.03709
1173.30 0.03707
1173.40 0.03706
1173.50 0.03705
1173.60 0.03704
1173.70 0.03702
1173.80 0.03701
1173.90 0.037
1174.00 0.03699
1174.10 0.03697
1174.20 0.03696
1174.30 0.03695
1174.40 0.03694
1174.50 0.03692
1174.60 0.03691
1174.70 0.0369
1174.80 0.03689
1174.90 0.03688
1175.00 0.03686
1175.10 0.03685
1175.20 0.03684
1175.30 0.03683
1175.40 0.03681
1175.50 0.0368
1175.60 0.03679
1175.70 0.03678
1175.80 0.03677
1175.90 0.03675
1176.00 0.03674
1176.10 0.03673
1176.20 0.03672
1176.30 0.0367
1176.40 0.03669
1176.50 0.03668
1176.60 0.03667
1176.70 0.03666
1176.80 0.03664
1176.90 0.03663
1177.00 0.03662
1177.10 0.03661
1177.20 0.03659
1177.30 0.03658
1177.40 0.03657
1177.50 0.03656
1177.60 0.03655
1177.70 0.03653
1177.80 0.03652
1177.90 0.03651
1178.00 0.0365
1178.10 0.03649
1178.20 0.03647
1178.30 0.03646
1178.40 0.03645
1178.50 0.03644
1178.60 0.03642
1178.70 0.03641
1178.80 0.0364
1178.90 0.03639
1179.00 0.03638
1179.10 0.03636
1179.20 0.03635
1179.30 0.03634
1179.40 0.03633
1179.50 0.03632
1179.60 0.0363
1179.70 0.03629
1179.80 0.03628
1179.90 0.03627
1180.00 0.03626
1180.10 0.03624
1180.20 0.03623
1180.30 0.03622
1180.40 0.03621
1180.50 0.0362
1180.60 0.03618
1180.70 0.03617
1180.80 0.03616
1180.90 0.03615
1181.00 0.03614
1181.10 0.03612
1181.20 0.03611
1181.30 0.0361
1181.40 0.03609
1181.50 0.03608
1181.60 0.03606
1181.70 0.03605
1181.80 0.03604
1181.90 0.03603
1182.00 0.03602
1182.10 0.036
1182.20 0.03599
1182.30 0.03598
1182.40 0.03597
1182.50 0.03596
1182.60 0.03594
1182.70 0.03593
1182.80 0.03592
1182.90 0.03591
1183.00 0.0359
1183.10 0.03588
1183.20 0.03587
1183.30 0.03586
1183.40 0.03585
1183.50 0.03584
1183.60 0.03583
1183.70 0.03581
1183.80 0.0358
1183.90 0.03579
1184.00 0.03578
1184.10 0.03577
1184.20 0.03575
1184.30 0.03574
1184.40 0.03573
1184.50 0.03572
1184.60 0.03571
1184.70 0.0357
1184.80 0.03568
1184.90 0.03567
1185.00 0.03566
1185.10 0.03565
1185.20 0.03564
1185.30 0.03562
1185.40 0.03561
1185.50 0.0356
1185.60 0.03559
1185.70 0.03558
1185.80 0.03557
1185.90 0.03555
1186.00 0.03554
1186.10 0.03553
1186.20 0.03552
1186.30 0.03551
1186.40 0.0355
1186.50 0.03548
1186.60 0.03547
1186.70 0.03546
1186.80 0.03545
1186.90 0.03544
1187.00 0.03543
1187.10 0.03541
1187.20 0.0354
1187.30 0.03539
1187.40 0.03538
1187.50 0.03537
1187.60 0.03536
1187.70 0.03534
1187.80 0.03533
1187.90 0.03532
1188.00 0.03531
1188.10 0.0353
1188.20 0.03529
1188.30 0.03527
1188.40 0.03526
1188.50 0.03525
1188.60 0.03524
1188.70 0.03523
1188.80 0.03522
1188.90 0.0352
1189.00 0.03519
1189.10 0.03518
1189.20 0.03517
1189.30 0.03516
1189.40 0.03515
1189.50 0.03513
1189.60 0.03512
1189.70 0.03511
1189.80 0.0351
1189.90 0.03509
1190.00 0.03508
1190.10 0.03507
1190.20 0.03505
1190.30 0.03504
1190.40 0.03503
1190.50 0.03502
1190.60 0.03501
1190.70 0.035
1190.80 0.03498
1190.90 0.03497
1191.00 0.03496
1191.10 0.03495
1191.20 0.03494
1191.30 0.03493
1191.40 0.03492
1191.50 0.0349
1191.60 0.03489
1191.70 0.03488
1191.80 0.03487
1191.90 0.03486
1192.00 0.03485
1192.10 0.03483
1192.20 0.03482
1192.30 0.03481
1192.40 0.0348
1192.50 0.03479
1192.60 0.03478
1192.70 0.03477
1192.80 0.03475
1192.90 0.03474
1193.00 0.03473
1193.10 0.03472
1193.20 0.03471
1193.30 0.0347
1193.40 0.03469
1193.50 0.03467
1193.60 0.03466
1193.70 0.03465
1193.80 0.03464
1193.90 0.03463
1194.00 0.03462
1194.10 0.03461
1194.20 0.0346
1194.30 0.03458
1194.40 0.03457
1194.50 0.03456
1194.60 0.03455
1194.70 0.03454
1194.80 0.03453
1194.90 0.03452
1195.00 0.0345
1195.10 0.03449
1195.20 0.03448
1195.30 0.03447
1195.40 0.03446
1195.50 0.03445
1195.60 0.03444
1195.70 0.03443
1195.80 0.03441
1195.90 0.0344
1196.00 0.03439
1196.10 0.03438
1196.20 0.03437
1196.30 0.03436
1196.40 0.03435
1196.50 0.03434
1196.60 0.03432
1196.70 0.03431
1196.80 0.0343
1196.90 0.03429
1197.00 0.03428
1197.10 0.03427
1197.20 0.03426
1197.30 0.03425
1197.40 0.03423
1197.50 0.03422
1197.60 0.03421
1197.70 0.0342
1197.80 0.03419
1197.90 0.03418
1198.00 0.03417
1198.10 0.03416
1198.20 0.03414
1198.30 0.03413
1198.40 0.03412
1198.50 0.03411
1198.60 0.0341
1198.70 0.03409
1198.80 0.03408
1198.90 0.03407
1199.00 0.03406
1199.10 0.03404
1199.20 0.03403
1199.30 0.03402
1199.40 0.03401
1199.50 0.034
1199.60 0.03399
1199.70 0.03398
1199.80 0.03397
1199.90 0.03396
1200.00 0
