# Version 2.1 - nm, norm@500 to 1, cut digits, bergeron_14500_80.dat_14500
# Wavelength(nm)  Flambda(ergs/cm^s/s/nm)
300.00 2.192
300.10 2.19
300.20 2.188
300.30 2.187
300.40 2.185
300.50 2.183
300.60 2.182
300.70 2.18
300.80 2.178
300.90 2.177
301.00 2.175
301.10 2.173
301.20 2.172
301.30 2.17
301.40 2.169
301.50 2.167
301.60 2.165
301.70 2.164
301.80 2.162
301.90 2.16
302.00 2.159
302.10 2.157
302.20 2.155
302.30 2.154
302.40 2.152
302.50 2.15
302.60 2.149
302.70 2.147
302.80 2.146
302.90 2.144
303.00 2.142
303.10 2.141
303.20 2.139
303.30 2.137
303.40 2.136
303.50 2.134
303.60 2.133
303.70 2.131
303.80 2.129
303.90 2.128
304.00 2.126
304.10 2.124
304.20 2.123
304.30 2.121
304.40 2.12
304.50 2.118
304.60 2.116
304.70 2.115
304.80 2.113
304.90 2.112
305.00 2.11
305.10 2.108
305.20 2.107
305.30 2.105
305.40 2.104
305.50 2.102
305.60 2.101
305.70 2.099
305.80 2.097
305.90 2.096
306.00 2.094
306.10 2.093
306.20 2.091
306.30 2.089
306.40 2.088
306.50 2.086
306.60 2.085
306.70 2.083
306.80 2.082
306.90 2.08
307.00 2.078
307.10 2.077
307.20 2.075
307.30 2.074
307.40 2.072
307.50 2.071
307.60 2.069
307.70 2.068
307.80 2.066
307.90 2.064
308.00 2.063
308.10 2.061
308.20 2.06
308.30 2.058
308.40 2.057
308.50 2.055
308.60 2.054
308.70 2.052
308.80 2.051
308.90 2.049
309.00 2.048
309.10 2.046
309.20 2.044
309.30 2.043
309.40 2.041
309.50 2.04
309.60 2.038
309.70 2.037
309.80 2.035
309.90 2.034
310.00 2.032
310.10 2.031
310.20 2.029
310.30 2.028
310.40 2.026
310.50 2.025
310.60 2.023
310.70 2.022
310.80 2.02
310.90 2.019
311.00 2.017
311.10 2.016
311.20 2.014
311.30 2.013
311.40 2.011
311.50 2.01
311.60 2.008
311.70 2.007
311.80 2.005
311.90 2.004
312.00 2.002
312.10 2.001
312.20 1.999
312.30 1.998
312.40 1.996
312.50 1.995
312.60 1.993
312.70 1.992
312.80 1.99
312.90 1.989
313.00 1.988
313.10 1.986
313.20 1.985
313.30 1.983
313.40 1.982
313.50 1.98
313.60 1.979
313.70 1.977
313.80 1.976
313.90 1.974
314.00 1.973
314.10 1.971
314.20 1.97
314.30 1.969
314.40 1.967
314.50 1.966
314.60 1.964
314.70 1.963
314.80 1.961
314.90 1.96
315.00 1.958
315.10 1.957
315.20 1.956
315.30 1.954
315.40 1.953
315.50 1.951
315.60 1.95
315.70 1.948
315.80 1.947
315.90 1.946
316.00 1.944
316.10 1.943
316.20 1.941
316.30 1.94
316.40 1.938
316.50 1.937
316.60 1.936
316.70 1.934
316.80 1.933
316.90 1.931
317.00 1.93
317.10 1.928
317.20 1.927
317.30 1.926
317.40 1.924
317.50 1.923
317.60 1.921
317.70 1.92
317.80 1.919
317.90 1.917
318.00 1.916
318.10 1.914
318.20 1.913
318.30 1.912
318.40 1.91
318.50 1.909
318.60 1.907
318.70 1.906
318.80 1.905
318.90 1.903
319.00 1.902
319.10 1.901
319.20 1.899
319.30 1.898
319.40 1.896
319.50 1.895
319.60 1.894
319.70 1.892
319.80 1.891
319.90 1.889
320.00 1.888
320.10 1.887
320.20 1.885
320.30 1.884
320.40 1.883
320.50 1.881
320.60 1.88
320.70 1.879
320.80 1.877
320.90 1.876
321.00 1.874
321.10 1.873
321.20 1.872
321.30 1.87
321.40 1.869
321.50 1.868
321.60 1.866
321.70 1.865
321.80 1.864
321.90 1.862
322.00 1.861
322.10 1.86
322.20 1.858
322.30 1.857
322.40 1.856
322.50 1.854
322.60 1.853
322.70 1.852
322.80 1.85
322.90 1.849
323.00 1.848
323.10 1.846
323.20 1.845
323.30 1.844
323.40 1.842
323.50 1.841
323.60 1.84
323.70 1.838
323.80 1.837
323.90 1.836
324.00 1.834
324.10 1.833
324.20 1.832
324.30 1.83
324.40 1.829
324.50 1.828
324.60 1.826
324.70 1.825
324.80 1.824
324.90 1.822
325.00 1.821
325.10 1.82
325.20 1.819
325.30 1.817
325.40 1.816
325.50 1.815
325.60 1.813
325.70 1.812
325.80 1.811
325.90 1.809
326.00 1.808
326.10 1.807
326.20 1.806
326.30 1.804
326.40 1.803
326.50 1.802
326.60 1.8
326.70 1.799
326.80 1.798
326.90 1.797
327.00 1.795
327.10 1.794
327.20 1.793
327.30 1.791
327.40 1.79
327.50 1.789
327.60 1.788
327.70 1.786
327.80 1.785
327.90 1.784
328.00 1.783
328.10 1.781
328.20 1.78
328.30 1.779
328.40 1.777
328.50 1.776
328.60 1.775
328.70 1.774
328.80 1.772
328.90 1.771
329.00 1.77
329.10 1.769
329.20 1.767
329.30 1.766
329.40 1.765
329.50 1.764
329.60 1.762
329.70 1.761
329.80 1.76
329.90 1.759
330.00 1.757
330.10 1.756
330.20 1.755
330.30 1.754
330.40 1.752
330.50 1.751
330.60 1.75
330.70 1.749
330.80 1.747
330.90 1.746
331.00 1.745
331.10 1.744
331.20 1.742
331.30 1.741
331.40 1.74
331.50 1.739
331.60 1.738
331.70 1.736
331.80 1.735
331.90 1.734
332.00 1.733
332.10 1.731
332.20 1.73
332.30 1.729
332.40 1.728
332.50 1.727
332.60 1.725
332.70 1.724
332.80 1.723
332.90 1.722
333.00 1.72
333.10 1.719
333.20 1.718
333.30 1.717
333.40 1.716
333.50 1.714
333.60 1.713
333.70 1.712
333.80 1.711
333.90 1.71
334.00 1.708
334.10 1.707
334.20 1.706
334.30 1.705
334.40 1.704
334.50 1.702
334.60 1.701
334.70 1.7
334.80 1.699
334.90 1.698
335.00 1.696
335.10 1.695
335.20 1.694
335.30 1.693
335.40 1.692
335.50 1.691
335.60 1.689
335.70 1.688
335.80 1.687
335.90 1.686
336.00 1.685
336.10 1.683
336.20 1.682
336.30 1.681
336.40 1.68
336.50 1.679
336.60 1.678
336.70 1.676
336.80 1.675
336.90 1.674
337.00 1.673
337.10 1.672
337.20 1.671
337.30 1.669
337.40 1.668
337.50 1.667
337.60 1.666
337.70 1.665
337.80 1.664
337.90 1.662
338.00 1.661
338.10 1.66
338.20 1.659
338.30 1.658
338.40 1.657
338.50 1.656
338.60 1.654
338.70 1.653
338.80 1.652
338.90 1.651
339.00 1.65
339.10 1.649
339.20 1.647
339.30 1.646
339.40 1.645
339.50 1.644
339.60 1.643
339.70 1.642
339.80 1.641
339.90 1.639
340.00 1.638
340.10 1.637
340.20 1.636
340.30 1.635
340.40 1.634
340.50 1.633
340.60 1.632
340.70 1.63
340.80 1.629
340.90 1.628
341.00 1.627
341.10 1.626
341.20 1.625
341.30 1.624
341.40 1.623
341.50 1.621
341.60 1.62
341.70 1.619
341.80 1.618
341.90 1.617
342.00 1.616
342.10 1.615
342.20 1.614
342.30 1.612
342.40 1.611
342.50 1.61
342.60 1.609
342.70 1.608
342.80 1.607
342.90 1.606
343.00 1.605
343.10 1.604
343.20 1.603
343.30 1.601
343.40 1.6
343.50 1.599
343.60 1.598
343.70 1.597
343.80 1.596
343.90 1.595
344.00 1.594
344.10 1.593
344.20 1.592
344.30 1.59
344.40 1.589
344.50 1.588
344.60 1.587
344.70 1.586
344.80 1.585
344.90 1.584
345.00 1.583
345.10 1.582
345.20 1.581
345.30 1.58
345.40 1.579
345.50 1.577
345.60 1.576
345.70 1.575
345.80 1.574
345.90 1.573
346.00 1.572
346.10 1.571
346.20 1.57
346.30 1.569
346.40 1.568
346.50 1.567
346.60 1.566
346.70 1.565
346.80 1.563
346.90 1.562
347.00 1.561
347.10 1.56
347.20 1.559
347.30 1.558
347.40 1.557
347.50 1.556
347.60 1.555
347.70 1.554
347.80 1.553
347.90 1.552
348.00 1.551
348.10 1.55
348.20 1.549
348.30 1.548
348.40 1.547
348.50 1.545
348.60 1.544
348.70 1.543
348.80 1.542
348.90 1.541
349.00 1.54
349.10 1.539
349.20 1.538
349.30 1.537
349.40 1.536
349.50 1.535
349.60 1.534
349.70 1.533
349.80 1.532
349.90 1.531
350.00 1.53
350.10 1.529
350.20 1.528
350.30 1.527
350.40 1.526
350.50 1.525
350.60 1.524
350.70 1.523
350.80 1.522
350.90 1.52
351.00 1.519
351.10 1.518
351.20 1.517
351.30 1.516
351.40 1.515
351.50 1.514
351.60 1.513
351.70 1.512
351.80 1.511
351.90 1.51
352.00 1.509
352.10 1.508
352.20 1.507
352.30 1.506
352.40 1.505
352.50 1.504
352.60 1.503
352.70 1.502
352.80 1.501
352.90 1.5
353.00 1.499
353.10 1.498
353.20 1.497
353.30 1.496
353.40 1.495
353.50 1.494
353.60 1.493
353.70 1.492
353.80 1.491
353.90 1.49
354.00 1.489
354.10 1.488
354.20 1.487
354.30 1.486
354.40 1.485
354.50 1.484
354.60 1.483
354.70 1.482
354.80 1.481
354.90 1.48
355.00 1.479
355.10 1.478
355.20 1.477
355.30 1.476
355.40 1.475
355.50 1.474
355.60 1.473
355.70 1.472
355.80 1.471
355.90 1.47
356.00 1.469
356.10 1.468
356.20 1.467
356.30 1.466
356.40 1.465
356.50 1.464
356.60 1.463
356.70 1.462
356.80 1.461
356.90 1.46
357.00 1.459
357.10 1.458
357.20 1.457
357.30 1.456
357.40 1.455
357.50 1.455
357.60 1.454
357.70 1.453
357.80 1.452
357.90 1.451
358.00 1.45
358.10 1.449
358.20 1.448
358.30 1.447
358.40 1.446
358.50 1.445
358.60 1.444
358.70 1.443
358.80 1.442
358.90 1.441
359.00 1.44
359.10 1.439
359.20 1.438
359.30 1.437
359.40 1.436
359.50 1.435
359.60 1.434
359.70 1.433
359.80 1.432
359.90 1.431
360.00 1.431
360.10 1.43
360.20 1.429
360.30 1.428
360.40 1.427
360.50 1.426
360.60 1.425
360.70 1.424
360.80 1.423
360.90 1.422
361.00 1.421
361.10 1.42
361.20 1.419
361.30 1.418
361.40 1.417
361.50 1.416
361.60 1.415
361.70 1.414
361.80 1.414
361.90 1.413
362.00 1.412
362.10 1.411
362.20 1.41
362.30 1.409
362.40 1.408
362.50 1.407
362.60 1.406
362.70 1.405
362.80 1.404
362.90 1.403
363.00 1.402
363.10 1.401
363.20 1.4
363.30 1.399
363.40 1.398
363.50 1.397
363.60 1.396
363.70 1.395
363.80 1.394
363.90 1.393
364.00 1.392
364.10 1.391
364.20 1.39
364.30 1.389
364.40 1.388
364.50 1.387
364.60 1.386
364.70 1.385
364.80 1.384
364.90 1.383
365.00 1.382
365.10 1.381
365.20 1.38
365.30 1.379
365.40 1.378
365.50 1.377
365.60 1.376
365.70 1.375
365.80 1.374
365.90 1.373
366.00 1.372
366.10 1.371
366.20 1.37
366.30 1.369
366.40 1.368
366.50 1.367
366.60 1.366
366.70 1.365
366.80 1.364
366.90 1.363
367.00 1.362
367.10 1.361
367.20 1.361
367.30 1.36
367.40 1.359
367.50 1.358
367.60 1.357
367.70 1.356
367.80 1.355
367.90 1.354
368.00 1.353
368.10 1.352
368.20 1.352
368.30 1.351
368.40 1.35
368.50 1.349
368.60 1.348
368.70 1.348
368.80 1.347
368.90 1.346
369.00 1.345
369.10 1.345
369.20 1.344
369.30 1.343
369.40 1.342
369.50 1.341
369.60 1.341
369.70 1.34
369.80 1.339
369.90 1.338
370.00 1.338
370.10 1.337
370.20 1.337
370.30 1.337
370.40 1.336
370.50 1.336
370.60 1.336
370.70 1.336
370.80 1.335
370.90 1.335
371.00 1.335
371.10 1.334
371.20 1.334
371.30 1.334
371.40 1.334
371.50 1.333
371.60 1.333
371.70 1.333
371.80 1.332
371.90 1.332
372.00 1.332
372.10 1.332
372.20 1.333
372.30 1.333
372.40 1.334
372.50 1.334
372.60 1.335
372.70 1.335
372.80 1.335
372.90 1.336
373.00 1.336
373.10 1.337
373.20 1.337
373.30 1.338
373.40 1.338
373.50 1.339
373.60 1.339
373.70 1.339
373.80 1.34
373.90 1.34
374.00 1.341
374.10 1.342
374.20 1.343
374.30 1.343
374.40 1.344
374.50 1.345
374.60 1.346
374.70 1.347
374.80 1.348
374.90 1.349
375.00 1.35
375.10 1.35
375.20 1.351
375.30 1.352
375.40 1.353
375.50 1.354
375.60 1.355
375.70 1.356
375.80 1.357
375.90 1.357
376.00 1.358
376.10 1.359
376.20 1.359
376.30 1.36
376.40 1.36
376.50 1.36
376.60 1.361
376.70 1.361
376.80 1.362
376.90 1.362
377.00 1.362
377.10 1.361
377.20 1.36
377.30 1.359
377.40 1.358
377.50 1.357
377.60 1.356
377.70 1.355
377.80 1.354
377.90 1.353
378.00 1.352
378.10 1.347
378.20 1.341
378.30 1.336
378.40 1.331
378.50 1.325
378.60 1.32
378.70 1.314
378.80 1.309
378.90 1.304
379.00 1.298
379.10 1.295
379.20 1.291
379.30 1.287
379.40 1.283
379.50 1.279
379.60 1.276
379.70 1.272
379.80 1.268
379.90 1.264
380.00 1.26
380.10 1.266
380.20 1.272
380.30 1.277
380.40 1.283
380.50 1.289
380.60 1.294
380.70 1.3
380.80 1.305
380.90 1.311
381.00 1.316
381.10 1.318
381.20 1.32
381.30 1.322
381.40 1.323
381.50 1.325
381.60 1.324
381.70 1.322
381.80 1.32
381.90 1.316
382.00 1.311
382.10 1.306
382.20 1.299
382.30 1.286
382.40 1.273
382.50 1.26
382.60 1.247
382.70 1.234
382.80 1.221
382.90 1.208
383.00 1.195
383.10 1.182
383.20 1.17
383.30 1.16
383.40 1.149
383.50 1.137
383.60 1.14
383.70 1.152
383.80 1.163
383.90 1.173
384.00 1.186
384.10 1.201
384.20 1.218
384.30 1.235
384.40 1.251
384.50 1.266
384.60 1.279
384.70 1.291
384.80 1.302
384.90 1.311
385.00 1.319
385.10 1.325
385.20 1.331
385.30 1.336
385.40 1.339
385.50 1.342
385.60 1.344
385.70 1.345
385.80 1.346
385.90 1.346
386.00 1.345
386.10 1.343
386.20 1.341
386.30 1.338
386.40 1.334
386.50 1.329
386.60 1.324
386.70 1.318
386.80 1.311
386.90 1.304
387.00 1.296
387.10 1.287
387.20 1.277
387.30 1.266
387.40 1.255
387.50 1.242
387.60 1.228
387.70 1.213
387.80 1.196
387.90 1.177
388.00 1.157
388.10 1.134
388.20 1.109
388.30 1.083
388.40 1.056
388.50 1.031
388.60 1.008
388.70 0.9907
388.80 0.9749
388.90 0.9609
389.00 0.9734
389.10 0.9884
389.20 1.006
389.30 1.028
389.40 1.053
389.50 1.08
389.60 1.107
389.70 1.132
389.80 1.156
389.90 1.177
390.00 1.197
390.10 1.215
390.20 1.232
390.30 1.247
390.40 1.262
390.50 1.275
390.60 1.288
390.70 1.301
390.80 1.312
390.90 1.323
391.00 1.333
391.10 1.343
391.20 1.352
391.30 1.361
391.40 1.369
391.50 1.377
391.60 1.384
391.70 1.391
391.80 1.396
391.90 1.402
392.00 1.406
392.10 1.41
392.20 1.414
392.30 1.416
392.40 1.418
392.50 1.42
392.60 1.421
392.70 1.421
392.80 1.42
392.90 1.418
393.00 1.416
393.10 1.414
393.20 1.41
393.30 1.406
393.40 1.401
393.50 1.395
393.60 1.389
393.70 1.382
393.80 1.374
393.90 1.366
394.00 1.357
394.10 1.347
394.20 1.336
394.30 1.325
394.40 1.313
394.50 1.301
394.60 1.288
394.70 1.275
394.80 1.261
394.90 1.246
395.00 1.231
395.10 1.216
395.20 1.2
395.30 1.184
395.40 1.167
395.50 1.149
395.60 1.131
395.70 1.112
395.80 1.092
395.90 1.072
396.00 1.05
396.10 1.028
396.20 1.003
396.30 0.9766
396.40 0.948
396.50 0.9153
396.60 0.8828
396.70 0.8504
396.80 0.8236
396.90 0.7949
397.00 0.7642
397.10 0.7921
397.20 0.8188
397.30 0.8444
397.40 0.8758
397.50 0.9075
397.60 0.9395
397.70 0.9678
397.80 0.9941
397.90 1.018
398.00 1.04
398.10 1.061
398.20 1.081
398.30 1.1
398.40 1.119
398.50 1.137
398.60 1.154
398.70 1.171
398.80 1.187
398.90 1.203
399.00 1.219
399.10 1.234
399.20 1.249
399.30 1.264
399.40 1.279
399.50 1.293
399.60 1.307
399.70 1.321
399.80 1.334
399.90 1.346
400.00 1.359
400.10 1.371
400.20 1.383
400.30 1.394
400.40 1.404
400.50 1.415
400.60 1.425
400.70 1.435
400.80 1.444
400.90 1.453
401.00 1.461
401.10 1.469
401.20 1.477
401.30 1.484
401.40 1.491
401.50 1.497
401.60 1.503
401.70 1.509
401.80 1.514
401.90 1.519
402.00 1.524
402.10 1.528
402.20 1.532
402.30 1.536
402.40 1.539
402.50 1.542
402.60 1.544
402.70 1.546
402.80 1.548
402.90 1.549
403.00 1.55
403.10 1.551
403.20 1.551
403.30 1.551
403.40 1.55
403.50 1.55
403.60 1.549
403.70 1.547
403.80 1.545
403.90 1.543
404.00 1.54
404.10 1.537
404.20 1.534
404.30 1.53
404.40 1.526
404.50 1.522
404.60 1.517
404.70 1.512
404.80 1.506
404.90 1.5
405.00 1.494
405.10 1.488
405.20 1.481
405.30 1.473
405.40 1.466
405.50 1.457
405.60 1.449
405.70 1.44
405.80 1.431
405.90 1.421
406.00 1.411
406.10 1.401
406.20 1.39
406.30 1.379
406.40 1.368
406.50 1.356
406.60 1.344
406.70 1.331
406.80 1.318
406.90 1.305
407.00 1.292
407.10 1.278
407.20 1.263
407.30 1.249
407.40 1.233
407.50 1.218
407.60 1.202
407.70 1.186
407.80 1.17
407.90 1.153
408.00 1.137
408.10 1.12
408.20 1.102
408.30 1.085
408.40 1.067
408.50 1.049
408.60 1.031
408.70 1.013
408.80 0.9943
408.90 0.9755
409.00 0.9564
409.10 0.9369
409.20 0.917
409.30 0.8966
409.40 0.8742
409.50 0.8502
409.60 0.8246
409.70 0.7952
409.80 0.7647
409.90 0.7331
410.00 0.6996
410.10 0.6692
410.20 0.6418
410.30 0.6815
410.40 0.717
410.50 0.7483
410.60 0.7787
410.70 0.8076
410.80 0.8348
410.90 0.8583
411.00 0.8803
411.10 0.9008
411.20 0.9198
411.30 0.9384
411.40 0.9567
411.50 0.9745
411.60 0.992
411.70 1.009
411.80 1.026
411.90 1.043
412.00 1.06
412.10 1.076
412.20 1.092
412.30 1.108
412.40 1.124
412.50 1.139
412.60 1.154
412.70 1.169
412.80 1.184
412.90 1.198
413.00 1.212
413.10 1.226
413.20 1.239
413.30 1.252
413.40 1.265
413.50 1.278
413.60 1.29
413.70 1.302
413.80 1.313
413.90 1.324
414.00 1.335
414.10 1.346
414.20 1.356
414.30 1.367
414.40 1.376
414.50 1.386
414.60 1.395
414.70 1.405
414.80 1.413
414.90 1.422
415.00 1.43
415.10 1.438
415.20 1.446
415.30 1.454
415.40 1.461
415.50 1.468
415.60 1.475
415.70 1.482
415.80 1.488
415.90 1.494
416.00 1.5
416.10 1.506
416.20 1.512
416.30 1.517
416.40 1.523
416.50 1.528
416.60 1.533
416.70 1.537
416.80 1.542
416.90 1.546
417.00 1.55
417.10 1.554
417.20 1.558
417.30 1.562
417.40 1.566
417.50 1.569
417.60 1.572
417.70 1.575
417.80 1.578
417.90 1.581
418.00 1.584
418.10 1.586
418.20 1.589
418.30 1.591
418.40 1.593
418.50 1.595
418.60 1.597
418.70 1.599
418.80 1.6
418.90 1.602
419.00 1.604
419.10 1.605
419.20 1.606
419.30 1.607
419.40 1.608
419.50 1.609
419.60 1.61
419.70 1.611
419.80 1.612
419.90 1.612
420.00 1.613
420.10 1.613
420.20 1.613
420.30 1.614
420.40 1.614
420.50 1.614
420.60 1.614
420.70 1.614
420.80 1.614
420.90 1.614
421.00 1.613
421.10 1.613
421.20 1.612
421.30 1.612
421.40 1.611
421.50 1.611
421.60 1.61
421.70 1.609
421.80 1.608
421.90 1.607
422.00 1.606
422.10 1.605
422.20 1.604
422.30 1.602
422.40 1.601
422.50 1.6
422.60 1.598
422.70 1.596
422.80 1.595
422.90 1.593
423.00 1.591
423.10 1.589
423.20 1.588
423.30 1.586
423.40 1.583
423.50 1.581
423.60 1.579
423.70 1.577
423.80 1.574
423.90 1.572
424.00 1.569
424.10 1.567
424.20 1.564
424.30 1.561
424.40 1.558
424.50 1.555
424.60 1.552
424.70 1.549
424.80 1.546
424.90 1.543
425.00 1.539
425.10 1.536
425.20 1.532
425.30 1.529
425.40 1.525
425.50 1.521
425.60 1.517
425.70 1.513
425.80 1.509
425.90 1.505
426.00 1.5
426.10 1.496
426.20 1.49
426.30 1.485
426.40 1.48
426.50 1.475
426.60 1.47
426.70 1.465
426.80 1.46
426.90 1.454
427.00 1.449
427.10 1.443
427.20 1.437
427.30 1.431
427.40 1.425
427.50 1.419
427.60 1.413
427.70 1.406
427.80 1.399
427.90 1.393
428.00 1.386
428.10 1.378
428.20 1.371
428.30 1.364
428.40 1.356
428.50 1.348
428.60 1.34
428.70 1.332
428.80 1.324
428.90 1.316
429.00 1.307
429.10 1.298
429.20 1.289
429.30 1.28
429.40 1.271
429.50 1.261
429.60 1.251
429.70 1.242
429.80 1.231
429.90 1.221
430.00 1.211
430.10 1.2
430.20 1.189
430.30 1.178
430.40 1.167
430.50 1.156
430.60 1.144
430.70 1.132
430.80 1.12
430.90 1.108
431.00 1.096
431.10 1.083
431.20 1.071
431.30 1.058
431.40 1.045
431.50 1.032
431.60 1.018
431.70 1.005
431.80 0.991
431.90 0.9769
432.00 0.9626
432.10 0.9481
432.20 0.9331
432.30 0.9178
432.40 0.9022
432.50 0.8858
432.60 0.869
432.70 0.8518
432.80 0.8342
432.90 0.8167
433.00 0.7993
433.10 0.7826
433.20 0.7658
433.30 0.749
433.40 0.7304
433.50 0.7102
433.60 0.6885
433.70 0.6616
433.80 0.6314
433.90 0.5979
434.00 0.5387
434.10 0.5396
434.20 0.6004
434.30 0.6328
434.40 0.6619
434.50 0.6879
434.60 0.7087
434.70 0.728
434.80 0.7456
434.90 0.7617
435.00 0.7776
435.10 0.7935
435.20 0.8099
435.30 0.8265
435.40 0.843
435.50 0.8591
435.60 0.8748
435.70 0.89
435.80 0.9044
435.90 0.9184
436.00 0.9321
436.10 0.9453
436.20 0.9583
436.30 0.9711
436.40 0.9834
436.50 0.9956
436.60 1.008
436.70 1.019
436.80 1.031
436.90 1.042
437.00 1.053
437.10 1.064
437.20 1.075
437.30 1.085
437.40 1.096
437.50 1.106
437.60 1.115
437.70 1.125
437.80 1.135
437.90 1.144
438.00 1.153
438.10 1.162
438.20 1.17
438.30 1.179
438.40 1.187
438.50 1.195
438.60 1.203
438.70 1.211
438.80 1.218
438.90 1.225
439.00 1.232
439.10 1.239
439.20 1.246
439.30 1.252
439.40 1.259
439.50 1.265
439.60 1.271
439.70 1.277
439.80 1.282
439.90 1.288
440.00 1.293
440.10 1.298
440.20 1.303
440.30 1.308
440.40 1.313
440.50 1.317
440.60 1.322
440.70 1.326
440.80 1.33
440.90 1.334
441.00 1.338
441.10 1.342
441.20 1.346
441.30 1.349
441.40 1.353
441.50 1.356
441.60 1.359
441.70 1.362
441.80 1.365
441.90 1.368
442.00 1.371
442.10 1.374
442.20 1.376
442.30 1.379
442.40 1.381
442.50 1.383
442.60 1.386
442.70 1.388
442.80 1.39
442.90 1.392
443.00 1.393
443.10 1.395
443.20 1.397
443.30 1.399
443.40 1.4
443.50 1.402
443.60 1.403
443.70 1.405
443.80 1.406
443.90 1.407
444.00 1.409
444.10 1.41
444.20 1.411
444.30 1.412
444.40 1.413
444.50 1.414
444.60 1.415
444.70 1.416
444.80 1.417
444.90 1.417
445.00 1.418
445.10 1.419
445.20 1.419
445.30 1.42
445.40 1.421
445.50 1.421
445.60 1.422
445.70 1.422
445.80 1.422
445.90 1.423
446.00 1.423
446.10 1.424
446.20 1.424
446.30 1.424
446.40 1.424
446.50 1.424
446.60 1.425
446.70 1.425
446.80 1.425
446.90 1.425
447.00 1.425
447.10 1.425
447.20 1.425
447.30 1.425
447.40 1.425
447.50 1.425
447.60 1.425
447.70 1.425
447.80 1.424
447.90 1.424
448.00 1.424
448.10 1.424
448.20 1.424
448.30 1.423
448.40 1.423
448.50 1.423
448.60 1.423
448.70 1.422
448.80 1.422
448.90 1.422
449.00 1.422
449.10 1.421
449.20 1.421
449.30 1.421
449.40 1.42
449.50 1.42
449.60 1.419
449.70 1.419
449.80 1.418
449.90 1.418
450.00 1.417
450.10 1.417
450.20 1.416
450.30 1.416
450.40 1.415
450.50 1.415
450.60 1.414
450.70 1.414
450.80 1.413
450.90 1.413
451.00 1.412
451.10 1.411
451.20 1.411
451.30 1.41
451.40 1.41
451.50 1.409
451.60 1.408
451.70 1.408
451.80 1.407
451.90 1.406
452.00 1.406
452.10 1.405
452.20 1.404
452.30 1.404
452.40 1.403
452.50 1.402
452.60 1.401
452.70 1.401
452.80 1.4
452.90 1.399
453.00 1.399
453.10 1.398
453.20 1.397
453.30 1.396
453.40 1.396
453.50 1.395
453.60 1.394
453.70 1.393
453.80 1.392
453.90 1.392
454.00 1.391
454.10 1.39
454.20 1.389
454.30 1.389
454.40 1.388
454.50 1.387
454.60 1.386
454.70 1.385
454.80 1.384
454.90 1.384
455.00 1.383
455.10 1.382
455.20 1.381
455.30 1.38
455.40 1.379
455.50 1.379
455.60 1.378
455.70 1.377
455.80 1.376
455.90 1.375
456.00 1.374
456.10 1.373
456.20 1.373
456.30 1.372
456.40 1.371
456.50 1.37
456.60 1.369
456.70 1.368
456.80 1.367
456.90 1.367
457.00 1.366
457.10 1.365
457.20 1.364
457.30 1.363
457.40 1.362
457.50 1.361
457.60 1.361
457.70 1.36
457.80 1.359
457.90 1.358
458.00 1.357
458.10 1.356
458.20 1.355
458.30 1.354
458.40 1.353
458.50 1.352
458.60 1.351
458.70 1.35
458.80 1.349
458.90 1.348
459.00 1.347
459.10 1.346
459.20 1.346
459.30 1.345
459.40 1.344
459.50 1.343
459.60 1.342
459.70 1.341
459.80 1.34
459.90 1.339
460.00 1.338
460.10 1.337
460.20 1.336
460.30 1.335
460.40 1.334
460.50 1.333
460.60 1.332
460.70 1.331
460.80 1.33
460.90 1.329
461.00 1.328
461.10 1.327
461.20 1.326
461.30 1.325
461.40 1.324
461.50 1.323
461.60 1.322
461.70 1.321
461.80 1.32
461.90 1.319
462.00 1.318
462.10 1.317
462.20 1.316
462.30 1.315
462.40 1.314
462.50 1.313
462.60 1.312
462.70 1.311
462.80 1.31
462.90 1.308
463.00 1.307
463.10 1.306
463.20 1.305
463.30 1.304
463.40 1.303
463.50 1.302
463.60 1.301
463.70 1.3
463.80 1.299
463.90 1.298
464.00 1.297
464.10 1.296
464.20 1.295
464.30 1.294
464.40 1.292
464.50 1.291
464.60 1.29
464.70 1.289
464.80 1.288
464.90 1.287
465.00 1.286
465.10 1.285
465.20 1.284
465.30 1.282
465.40 1.281
465.50 1.28
465.60 1.279
465.70 1.278
465.80 1.277
465.90 1.276
466.00 1.275
466.10 1.273
466.20 1.272
466.30 1.271
466.40 1.27
466.50 1.269
466.60 1.267
466.70 1.266
466.80 1.265
466.90 1.264
467.00 1.263
467.10 1.261
467.20 1.26
467.30 1.259
467.40 1.258
467.50 1.257
467.60 1.255
467.70 1.254
467.80 1.253
467.90 1.252
468.00 1.25
468.10 1.249
468.20 1.248
468.30 1.247
468.40 1.245
468.50 1.244
468.60 1.243
468.70 1.241
468.80 1.24
468.90 1.239
469.00 1.238
469.10 1.236
469.20 1.235
469.30 1.234
469.40 1.232
469.50 1.231
469.60 1.229
469.70 1.228
469.80 1.227
469.90 1.225
470.00 1.224
470.10 1.223
470.20 1.221
470.30 1.22
470.40 1.218
470.50 1.217
470.60 1.215
470.70 1.214
470.80 1.213
470.90 1.211
471.00 1.21
471.10 1.208
471.20 1.207
471.30 1.205
471.40 1.204
471.50 1.202
471.60 1.2
471.70 1.199
471.80 1.197
471.90 1.196
472.00 1.194
472.10 1.193
472.20 1.191
472.30 1.189
472.40 1.187
472.50 1.186
472.60 1.184
472.70 1.182
472.80 1.18
472.90 1.179
473.00 1.177
473.10 1.175
473.20 1.173
473.30 1.171
473.40 1.17
473.50 1.168
473.60 1.166
473.70 1.164
473.80 1.162
473.90 1.16
474.00 1.158
474.10 1.156
474.20 1.154
474.30 1.152
474.40 1.15
474.50 1.148
474.60 1.145
474.70 1.143
474.80 1.141
474.90 1.139
475.00 1.137
475.10 1.135
475.20 1.132
475.30 1.13
475.40 1.127
475.50 1.125
475.60 1.123
475.70 1.12
475.80 1.118
475.90 1.115
476.00 1.113
476.10 1.11
476.20 1.108
476.30 1.105
476.40 1.102
476.50 1.099
476.60 1.096
476.70 1.094
476.80 1.091
476.90 1.088
477.00 1.085
477.10 1.082
477.20 1.079
477.30 1.076
477.40 1.073
477.50 1.07
477.60 1.066
477.70 1.063
477.80 1.06
477.90 1.057
478.00 1.053
478.10 1.05
478.20 1.047
478.30 1.043
478.40 1.039
478.50 1.035
478.60 1.031
478.70 1.027
478.80 1.024
478.90 1.02
479.00 1.016
479.10 1.012
479.20 1.008
479.30 1.004
479.40 0.9992
479.50 0.9948
479.60 0.9903
479.70 0.9859
479.80 0.9815
479.90 0.977
480.00 0.9726
480.10 0.9682
480.20 0.9632
480.30 0.958
480.40 0.9528
480.50 0.9476
480.60 0.9424
480.70 0.9372
480.80 0.932
480.90 0.9269
481.00 0.9217
481.10 0.9165
481.20 0.9107
481.30 0.9046
481.40 0.8985
481.50 0.8924
481.60 0.8863
481.70 0.8802
481.80 0.8741
481.90 0.868
482.00 0.8619
482.10 0.8558
482.20 0.849
482.30 0.8418
482.40 0.8346
482.50 0.8275
482.60 0.8203
482.70 0.8132
482.80 0.8061
482.90 0.7989
483.00 0.7918
483.10 0.7847
483.20 0.7766
483.30 0.7681
483.40 0.7595
483.50 0.751
483.60 0.7425
483.70 0.734
483.80 0.7255
483.90 0.717
484.00 0.7085
484.10 0.7001
484.20 0.6907
484.30 0.6811
484.40 0.6714
484.50 0.6617
484.60 0.652
484.70 0.6418
484.80 0.6314
484.90 0.621
485.00 0.6106
485.10 0.6002
485.20 0.5896
485.30 0.5789
485.40 0.5677
485.50 0.5563
485.60 0.5436
485.70 0.5304
485.80 0.513
485.90 0.4937
486.00 0.4651
486.10 0.3958
486.20 0.4261
486.30 0.4767
486.40 0.4989
486.50 0.5181
486.60 0.5328
486.70 0.5456
486.80 0.557
486.90 0.5679
487.00 0.5782
487.10 0.5883
487.20 0.5982
487.30 0.6079
487.40 0.6176
487.50 0.6273
487.60 0.637
487.70 0.6462
487.80 0.6551
487.90 0.6639
488.00 0.6728
488.10 0.6817
488.20 0.6896
488.30 0.6972
488.40 0.7048
488.50 0.7123
488.60 0.7198
488.70 0.7274
488.80 0.7349
488.90 0.7424
489.00 0.75
489.10 0.7575
489.20 0.764
489.30 0.77
489.40 0.776
489.50 0.782
489.60 0.788
489.70 0.794
489.80 0.8
489.90 0.806
490.00 0.812
490.10 0.8179
490.20 0.8231
490.30 0.8279
490.40 0.8327
490.50 0.8375
490.60 0.8423
490.70 0.8471
490.80 0.8519
490.90 0.8567
491.00 0.8615
491.10 0.8663
491.20 0.8704
491.30 0.8742
491.40 0.8779
491.50 0.8817
491.60 0.8855
491.70 0.8892
491.80 0.893
491.90 0.8967
492.00 0.9005
492.10 0.9042
492.20 0.9074
492.30 0.9103
492.40 0.9132
492.50 0.9161
492.60 0.9191
492.70 0.922
492.80 0.9249
492.90 0.9278
493.00 0.9307
493.10 0.9336
493.20 0.936
493.30 0.9383
493.40 0.9405
493.50 0.9428
493.60 0.945
493.70 0.9472
493.80 0.9494
493.90 0.9517
494.00 0.9539
494.10 0.9561
494.20 0.9579
494.30 0.9595
494.40 0.9612
494.50 0.9628
494.60 0.9644
494.70 0.966
494.80 0.9676
494.90 0.9692
495.00 0.9708
495.10 0.9724
495.20 0.9737
495.30 0.9748
495.40 0.976
495.50 0.9771
495.60 0.9783
495.70 0.9794
495.80 0.9805
495.90 0.9817
496.00 0.9828
496.10 0.984
496.20 0.9849
496.30 0.9856
496.40 0.9864
496.50 0.9872
496.60 0.988
496.70 0.9887
496.80 0.9895
496.90 0.9903
497.00 0.991
497.10 0.9918
497.20 0.9924
497.30 0.9929
497.40 0.9934
497.50 0.9938
497.60 0.9943
497.70 0.9948
497.80 0.9953
497.90 0.9958
498.00 0.9962
498.10 0.9967
498.20 0.997
498.30 0.9973
498.40 0.9975
498.50 0.9978
498.60 0.998
498.70 0.9983
498.80 0.9985
498.90 0.9988
499.00 0.999
499.10 0.9993
499.20 0.9994
499.30 0.9995
499.40 0.9996
499.50 0.9996
499.60 0.9997
499.70 0.9998
499.80 0.9999
499.90 0.9999
500.00 1
500.10 1
500.20 1
500.30 1
500.40 0.9999
500.50 0.9999
500.60 0.9998
500.70 0.9998
500.80 0.9997
500.90 0.9997
501.00 0.9996
501.10 0.9996
501.20 0.9994
501.30 0.9993
501.40 0.9991
501.50 0.9989
501.60 0.9987
501.70 0.9986
501.80 0.9984
501.90 0.9982
502.00 0.9981
502.10 0.9979
502.20 0.9977
502.30 0.9974
502.40 0.9972
502.50 0.9969
502.60 0.9966
502.70 0.9964
502.80 0.9961
502.90 0.9959
503.00 0.9956
503.10 0.9954
503.20 0.9951
503.30 0.9948
503.40 0.9945
503.50 0.9941
503.60 0.9938
503.70 0.9935
503.80 0.9932
503.90 0.9929
504.00 0.9926
504.10 0.9923
504.20 0.9919
504.30 0.9915
504.40 0.9912
504.50 0.9908
504.60 0.9904
504.70 0.9901
504.80 0.9897
504.90 0.9894
505.00 0.989
505.10 0.9886
505.20 0.9882
505.30 0.9878
505.40 0.9874
505.50 0.987
505.60 0.9866
505.70 0.9862
505.80 0.9858
505.90 0.9854
506.00 0.985
506.10 0.9846
506.20 0.9841
506.30 0.9837
506.40 0.9832
506.50 0.9828
506.60 0.9824
506.70 0.9819
506.80 0.9815
506.90 0.981
507.00 0.9806
507.10 0.9802
507.20 0.9797
507.30 0.9792
507.40 0.9787
507.50 0.9783
507.60 0.9778
507.70 0.9773
507.80 0.9769
507.90 0.9764
508.00 0.9759
508.10 0.9754
508.20 0.9749
508.30 0.9745
508.40 0.974
508.50 0.9735
508.60 0.973
508.70 0.9725
508.80 0.972
508.90 0.9715
509.00 0.971
509.10 0.9706
509.20 0.9701
509.30 0.9696
509.40 0.9691
509.50 0.9685
509.60 0.968
509.70 0.9675
509.80 0.967
509.90 0.9665
510.00 0.966
510.10 0.9655
510.20 0.965
510.30 0.9645
510.40 0.964
510.50 0.9634
510.60 0.9629
510.70 0.9624
510.80 0.9619
510.90 0.9613
511.00 0.9608
511.10 0.9603
511.20 0.9598
511.30 0.9592
511.40 0.9587
511.50 0.9582
511.60 0.9577
511.70 0.9572
511.80 0.9566
511.90 0.9561
512.00 0.9556
512.10 0.9551
512.20 0.9545
512.30 0.954
512.40 0.9535
512.50 0.9529
512.60 0.9524
512.70 0.9519
512.80 0.9513
512.90 0.9508
513.00 0.9503
513.10 0.9497
513.20 0.9492
513.30 0.9486
513.40 0.9481
513.50 0.9476
513.60 0.947
513.70 0.9465
513.80 0.9459
513.90 0.9454
514.00 0.9448
514.10 0.9443
514.20 0.9438
514.30 0.9432
514.40 0.9427
514.50 0.9421
514.60 0.9416
514.70 0.941
514.80 0.9405
514.90 0.9399
515.00 0.9394
515.10 0.9388
515.20 0.9383
515.30 0.9377
515.40 0.9372
515.50 0.9366
515.60 0.9361
515.70 0.9355
515.80 0.935
515.90 0.9344
516.00 0.9339
516.10 0.9333
516.20 0.9328
516.30 0.9322
516.40 0.9317
516.50 0.9311
516.60 0.9306
516.70 0.93
516.80 0.9295
516.90 0.929
517.00 0.9284
517.10 0.9279
517.20 0.9273
517.30 0.9268
517.40 0.9262
517.50 0.9257
517.60 0.9251
517.70 0.9246
517.80 0.924
517.90 0.9235
518.00 0.923
518.10 0.9224
518.20 0.9219
518.30 0.9213
518.40 0.9208
518.50 0.9202
518.60 0.9197
518.70 0.9191
518.80 0.9186
518.90 0.918
519.00 0.9175
519.10 0.9169
519.20 0.9164
519.30 0.9158
519.40 0.9153
519.50 0.9147
519.60 0.9142
519.70 0.9136
519.80 0.9131
519.90 0.9125
520.00 0.9119
520.10 0.9114
520.20 0.9108
520.30 0.9103
520.40 0.9098
520.50 0.9092
520.60 0.9087
520.70 0.9081
520.80 0.9076
520.90 0.9071
521.00 0.9065
521.10 0.906
521.20 0.9054
521.30 0.9049
521.40 0.9043
521.50 0.9038
521.60 0.9032
521.70 0.9027
521.80 0.9021
521.90 0.9016
522.00 0.901
522.10 0.9005
522.20 0.9
522.30 0.8994
522.40 0.8989
522.50 0.8983
522.60 0.8978
522.70 0.8972
522.80 0.8967
522.90 0.8962
523.00 0.8956
523.10 0.8951
523.20 0.8945
523.30 0.894
523.40 0.8934
523.50 0.8929
523.60 0.8923
523.70 0.8918
523.80 0.8912
523.90 0.8907
524.00 0.8901
524.10 0.8896
524.20 0.8891
524.30 0.8885
524.40 0.888
524.50 0.8874
524.60 0.8869
524.70 0.8864
524.80 0.8858
524.90 0.8853
525.00 0.8848
525.10 0.8842
525.20 0.8837
525.30 0.8831
525.40 0.8826
525.50 0.8821
525.60 0.8815
525.70 0.881
525.80 0.8804
525.90 0.8799
526.00 0.8794
526.10 0.8788
526.20 0.8783
526.30 0.8777
526.40 0.8772
526.50 0.8767
526.60 0.8761
526.70 0.8756
526.80 0.875
526.90 0.8745
527.00 0.874
527.10 0.8734
527.20 0.8729
527.30 0.8724
527.40 0.8718
527.50 0.8713
527.60 0.8708
527.70 0.8702
527.80 0.8697
527.90 0.8692
528.00 0.8686
528.10 0.8681
528.20 0.8676
528.30 0.867
528.40 0.8665
528.50 0.866
528.60 0.8655
528.70 0.865
528.80 0.8644
528.90 0.8639
529.00 0.8634
529.10 0.8629
529.20 0.8623
529.30 0.8618
529.40 0.8613
529.50 0.8608
529.60 0.8602
529.70 0.8597
529.80 0.8592
529.90 0.8586
530.00 0.8581
530.10 0.8576
530.20 0.8571
530.30 0.8565
530.40 0.856
530.50 0.8555
530.60 0.855
530.70 0.8544
530.80 0.8539
530.90 0.8534
531.00 0.8529
531.10 0.8523
531.20 0.8518
531.30 0.8513
531.40 0.8508
531.50 0.8503
531.60 0.8497
531.70 0.8492
531.80 0.8487
531.90 0.8482
532.00 0.8477
532.10 0.8471
532.20 0.8466
532.30 0.8461
532.40 0.8456
532.50 0.8451
532.60 0.8445
532.70 0.844
532.80 0.8435
532.90 0.843
533.00 0.8425
533.10 0.842
533.20 0.8415
533.30 0.8409
533.40 0.8404
533.50 0.8399
533.60 0.8394
533.70 0.8389
533.80 0.8384
533.90 0.8378
534.00 0.8373
534.10 0.8368
534.20 0.8363
534.30 0.8358
534.40 0.8353
534.50 0.8348
534.60 0.8343
534.70 0.8338
534.80 0.8332
534.90 0.8327
535.00 0.8322
535.10 0.8317
535.20 0.8312
535.30 0.8307
535.40 0.8302
535.50 0.8297
535.60 0.8292
535.70 0.8287
535.80 0.8282
535.90 0.8276
536.00 0.8271
536.10 0.8266
536.20 0.8261
536.30 0.8256
536.40 0.8251
536.50 0.8246
536.60 0.8241
536.70 0.8236
536.80 0.8231
536.90 0.8226
537.00 0.8221
537.10 0.8216
537.20 0.8211
537.30 0.8206
537.40 0.8201
537.50 0.8196
537.60 0.8191
537.70 0.8186
537.80 0.8181
537.90 0.8176
538.00 0.8171
538.10 0.8166
538.20 0.8161
538.30 0.8156
538.40 0.8151
538.50 0.8146
538.60 0.8141
538.70 0.8136
538.80 0.8131
538.90 0.8126
539.00 0.8121
539.10 0.8116
539.20 0.8111
539.30 0.8106
539.40 0.8101
539.50 0.8096
539.60 0.8091
539.70 0.8086
539.80 0.8081
539.90 0.8076
540.00 0.8071
540.10 0.8066
540.20 0.8061
540.30 0.8057
540.40 0.8052
540.50 0.8047
540.60 0.8042
540.70 0.8037
540.80 0.8032
540.90 0.8027
541.00 0.8022
541.10 0.8017
541.20 0.8012
541.30 0.8008
541.40 0.8003
541.50 0.7998
541.60 0.7993
541.70 0.7988
541.80 0.7983
541.90 0.7979
542.00 0.7974
542.10 0.7969
542.20 0.7964
542.30 0.7959
542.40 0.7954
542.50 0.795
542.60 0.7945
542.70 0.794
542.80 0.7935
542.90 0.793
543.00 0.7925
543.10 0.7921
543.20 0.7916
543.30 0.7911
543.40 0.7906
543.50 0.7901
543.60 0.7896
543.70 0.7892
543.80 0.7887
543.90 0.7882
544.00 0.7877
544.10 0.7872
544.20 0.7867
544.30 0.7863
544.40 0.7858
544.50 0.7853
544.60 0.7849
544.70 0.7844
544.80 0.7839
544.90 0.7834
545.00 0.783
545.10 0.7825
545.20 0.782
545.30 0.7815
545.40 0.7811
545.50 0.7806
545.60 0.7801
545.70 0.7796
545.80 0.7792
545.90 0.7787
546.00 0.7782
546.10 0.7777
546.20 0.7773
546.30 0.7769
546.40 0.7765
546.50 0.7761
546.60 0.7756
546.70 0.7752
546.80 0.7748
546.90 0.7744
547.00 0.774
547.10 0.7736
547.20 0.7731
547.30 0.7727
547.40 0.7722
547.50 0.7717
547.60 0.7713
547.70 0.7708
547.80 0.7703
547.90 0.7699
548.00 0.7694
548.10 0.769
548.20 0.7685
548.30 0.768
548.40 0.7676
548.50 0.7671
548.60 0.7666
548.70 0.7661
548.80 0.7657
548.90 0.7652
549.00 0.7647
549.10 0.7643
549.20 0.7638
549.30 0.7634
549.40 0.7629
549.50 0.7624
549.60 0.762
549.70 0.7615
549.80 0.7611
549.90 0.7606
550.00 0.7602
550.10 0.7597
550.20 0.7592
550.30 0.7588
550.40 0.7583
550.50 0.7578
550.60 0.7574
550.70 0.7569
550.80 0.7565
550.90 0.756
551.00 0.7555
551.10 0.7551
551.20 0.7546
551.30 0.7542
551.40 0.7537
551.50 0.7533
551.60 0.7528
551.70 0.7524
551.80 0.7519
551.90 0.7514
552.00 0.751
552.10 0.7505
552.20 0.7501
552.30 0.7496
552.40 0.7492
552.50 0.7487
552.60 0.7483
552.70 0.7478
552.80 0.7473
552.90 0.7469
553.00 0.7464
553.10 0.746
553.20 0.7455
553.30 0.7451
553.40 0.7446
553.50 0.7442
553.60 0.7437
553.70 0.7433
553.80 0.7428
553.90 0.7424
554.00 0.742
554.10 0.7415
554.20 0.7411
554.30 0.7406
554.40 0.7402
554.50 0.7397
554.60 0.7393
554.70 0.7388
554.80 0.7384
554.90 0.738
555.00 0.7375
555.10 0.7371
555.20 0.7366
555.30 0.7362
555.40 0.7357
555.50 0.7353
555.60 0.7349
555.70 0.7344
555.80 0.734
555.90 0.7335
556.00 0.7331
556.10 0.7326
556.20 0.7322
556.30 0.7318
556.40 0.7313
556.50 0.7309
556.60 0.7305
556.70 0.73
556.80 0.7296
556.90 0.7291
557.00 0.7287
557.10 0.7283
557.20 0.7278
557.30 0.7274
557.40 0.727
557.50 0.7265
557.60 0.7261
557.70 0.7256
557.80 0.7252
557.90 0.7248
558.00 0.7243
558.10 0.7239
558.20 0.7235
558.30 0.723
558.40 0.7226
558.50 0.7222
558.60 0.7217
558.70 0.7213
558.80 0.7209
558.90 0.7205
559.00 0.72
559.10 0.7196
559.20 0.7192
559.30 0.7187
559.40 0.7183
559.50 0.7179
559.60 0.7174
559.70 0.717
559.80 0.7166
559.90 0.7162
560.00 0.7157
560.10 0.7153
560.20 0.7149
560.30 0.7145
560.40 0.714
560.50 0.7136
560.60 0.7132
560.70 0.7128
560.80 0.7123
560.90 0.7119
561.00 0.7115
561.10 0.7111
561.20 0.7106
561.30 0.7102
561.40 0.7098
561.50 0.7094
561.60 0.7089
561.70 0.7085
561.80 0.7081
561.90 0.7077
562.00 0.7073
562.10 0.7068
562.20 0.7064
562.30 0.706
562.40 0.7056
562.50 0.7052
562.60 0.7047
562.70 0.7043
562.80 0.7039
562.90 0.7035
563.00 0.7031
563.10 0.7026
563.20 0.7022
563.30 0.7018
563.40 0.7014
563.50 0.701
563.60 0.7006
563.70 0.7001
563.80 0.6997
563.90 0.6993
564.00 0.6989
564.10 0.6985
564.20 0.6981
564.30 0.6977
564.40 0.6972
564.50 0.6968
564.60 0.6964
564.70 0.696
564.80 0.6956
564.90 0.6952
565.00 0.6948
565.10 0.6944
565.20 0.6939
565.30 0.6935
565.40 0.6931
565.50 0.6927
565.60 0.6923
565.70 0.6919
565.80 0.6915
565.90 0.6911
566.00 0.6907
566.10 0.6903
566.20 0.6898
566.30 0.6894
566.40 0.689
566.50 0.6886
566.60 0.6882
566.70 0.6878
566.80 0.6874
566.90 0.687
567.00 0.6866
567.10 0.6862
567.20 0.6858
567.30 0.6854
567.40 0.685
567.50 0.6846
567.60 0.6842
567.70 0.6838
567.80 0.6834
567.90 0.683
568.00 0.6826
568.10 0.6822
568.20 0.6818
568.30 0.6814
568.40 0.681
568.50 0.6805
568.60 0.6801
568.70 0.6797
568.80 0.6793
568.90 0.6789
569.00 0.6785
569.10 0.6781
569.20 0.6777
569.30 0.6773
569.40 0.6769
569.50 0.6766
569.60 0.6762
569.70 0.6758
569.80 0.6754
569.90 0.675
570.00 0.6746
570.10 0.6742
570.20 0.6738
570.30 0.6734
570.40 0.673
570.50 0.6726
570.60 0.6722
570.70 0.6718
570.80 0.6714
570.90 0.671
571.00 0.6706
571.10 0.6702
571.20 0.6698
571.30 0.6694
571.40 0.669
571.50 0.6686
571.60 0.6683
571.70 0.6679
571.80 0.6675
571.90 0.6671
572.00 0.6667
572.10 0.6663
572.20 0.6659
572.30 0.6655
572.40 0.6651
572.50 0.6647
572.60 0.6644
572.70 0.664
572.80 0.6636
572.90 0.6632
573.00 0.6628
573.10 0.6624
573.20 0.662
573.30 0.6616
573.40 0.6612
573.50 0.6609
573.60 0.6605
573.70 0.6601
573.80 0.6597
573.90 0.6593
574.00 0.6589
574.10 0.6585
574.20 0.6582
574.30 0.6578
574.40 0.6574
574.50 0.657
574.60 0.6566
574.70 0.6562
574.80 0.6559
574.90 0.6555
575.00 0.6551
575.10 0.6547
575.20 0.6543
575.30 0.6539
575.40 0.6536
575.50 0.6532
575.60 0.6528
575.70 0.6524
575.80 0.652
575.90 0.6517
576.00 0.6513
576.10 0.6509
576.20 0.6505
576.30 0.6501
576.40 0.6498
576.50 0.6494
576.60 0.649
576.70 0.6486
576.80 0.6483
576.90 0.6479
577.00 0.6475
577.10 0.6471
577.20 0.6468
577.30 0.6464
577.40 0.646
577.50 0.6456
577.60 0.6452
577.70 0.6449
577.80 0.6445
577.90 0.6441
578.00 0.6437
578.10 0.6434
578.20 0.643
578.30 0.6426
578.40 0.6423
578.50 0.6419
578.60 0.6415
578.70 0.6411
578.80 0.6408
578.90 0.6404
579.00 0.64
579.10 0.6397
579.20 0.6393
579.30 0.6389
579.40 0.6385
579.50 0.6382
579.60 0.6378
579.70 0.6374
579.80 0.6371
579.90 0.6367
580.00 0.6363
580.10 0.636
580.20 0.6356
580.30 0.6352
580.40 0.6349
580.50 0.6345
580.60 0.6341
580.70 0.6338
580.80 0.6334
580.90 0.633
581.00 0.6327
581.10 0.6323
581.20 0.6319
581.30 0.6316
581.40 0.6312
581.50 0.6308
581.60 0.6305
581.70 0.6301
581.80 0.6297
581.90 0.6294
582.00 0.629
582.10 0.6286
582.20 0.6283
582.30 0.6279
582.40 0.6276
582.50 0.6272
582.60 0.6268
582.70 0.6265
582.80 0.6261
582.90 0.6258
583.00 0.6254
583.10 0.625
583.20 0.6247
583.30 0.6243
583.40 0.624
583.50 0.6236
583.60 0.6232
583.70 0.6229
583.80 0.6225
583.90 0.6222
584.00 0.6218
584.10 0.6214
584.20 0.6211
584.30 0.6207
584.40 0.6204
584.50 0.62
584.60 0.6197
584.70 0.6193
584.80 0.6189
584.90 0.6186
585.00 0.6182
585.10 0.6179
585.20 0.6175
585.30 0.6172
585.40 0.6168
585.50 0.6165
585.60 0.6161
585.70 0.6158
585.80 0.6154
585.90 0.615
586.00 0.6147
586.10 0.6143
586.20 0.614
586.30 0.6136
586.40 0.6133
586.50 0.6129
586.60 0.6126
586.70 0.6122
586.80 0.6119
586.90 0.6115
587.00 0.6112
587.10 0.6108
587.20 0.6105
587.30 0.6101
587.40 0.6098
587.50 0.6094
587.60 0.6091
587.70 0.6087
587.80 0.6084
587.90 0.608
588.00 0.6077
588.10 0.6073
588.20 0.607
588.30 0.6066
588.40 0.6063
588.50 0.606
588.60 0.6056
588.70 0.6053
588.80 0.6049
588.90 0.6046
589.00 0.6042
589.10 0.6039
589.20 0.6035
589.30 0.6032
589.40 0.6028
589.50 0.6025
589.60 0.6022
589.70 0.6018
589.80 0.6015
589.90 0.6011
590.00 0.6008
590.10 0.6004
590.20 0.6001
590.30 0.5998
590.40 0.5994
590.50 0.5991
590.60 0.5987
590.70 0.5984
590.80 0.598
590.90 0.5977
591.00 0.5974
591.10 0.597
591.20 0.5967
591.30 0.5963
591.40 0.596
591.50 0.5957
591.60 0.5953
591.70 0.595
591.80 0.5947
591.90 0.5943
592.00 0.594
592.10 0.5936
592.20 0.5933
592.30 0.593
592.40 0.5926
592.50 0.5923
592.60 0.592
592.70 0.5916
592.80 0.5913
592.90 0.5909
593.00 0.5906
593.10 0.5903
593.20 0.5899
593.30 0.5896
593.40 0.5893
593.50 0.5889
593.60 0.5886
593.70 0.5883
593.80 0.5879
593.90 0.5876
594.00 0.5873
594.10 0.5869
594.20 0.5866
594.30 0.5863
594.40 0.5859
594.50 0.5856
594.60 0.5853
594.70 0.5849
594.80 0.5846
594.90 0.5843
595.00 0.5839
595.10 0.5836
595.20 0.5833
595.30 0.583
595.40 0.5826
595.50 0.5823
595.60 0.582
595.70 0.5816
595.80 0.5813
595.90 0.581
596.00 0.5807
596.10 0.5803
596.20 0.5799
596.30 0.5795
596.40 0.579
596.50 0.5786
596.60 0.5782
596.70 0.5777
596.80 0.5773
596.90 0.5769
597.00 0.5764
597.10 0.576
597.20 0.5756
597.30 0.5753
597.40 0.575
597.50 0.5746
597.60 0.5743
597.70 0.574
597.80 0.5736
597.90 0.5733
598.00 0.573
598.10 0.5727
598.20 0.5723
598.30 0.572
598.40 0.5717
598.50 0.5714
598.60 0.571
598.70 0.5707
598.80 0.5704
598.90 0.5701
599.00 0.5697
599.10 0.5694
599.20 0.5691
599.30 0.5688
599.40 0.5684
599.50 0.5681
599.60 0.5678
599.70 0.5675
599.80 0.5671
599.90 0.5668
600.00 0.5665
600.10 0.5662
600.20 0.5658
600.30 0.5655
600.40 0.5652
600.50 0.5649
600.60 0.5646
600.70 0.5642
600.80 0.5639
600.90 0.5636
601.00 0.5633
601.10 0.563
601.20 0.5626
601.30 0.5623
601.40 0.562
601.50 0.5617
601.60 0.5614
601.70 0.561
601.80 0.5607
601.90 0.5604
602.00 0.5601
602.10 0.5598
602.20 0.5594
602.30 0.5591
602.40 0.5588
602.50 0.5585
602.60 0.5582
602.70 0.5579
602.80 0.5575
602.90 0.5572
603.00 0.5569
603.10 0.5566
603.20 0.5563
603.30 0.556
603.40 0.5556
603.50 0.5553
603.60 0.555
603.70 0.5547
603.80 0.5544
603.90 0.5541
604.00 0.5537
604.10 0.5534
604.20 0.5531
604.30 0.5528
604.40 0.5525
604.50 0.5522
604.60 0.5519
604.70 0.5515
604.80 0.5512
604.90 0.5509
605.00 0.5506
605.10 0.5503
605.20 0.55
605.30 0.5497
605.40 0.5494
605.50 0.549
605.60 0.5487
605.70 0.5484
605.80 0.5481
605.90 0.5478
606.00 0.5475
606.10 0.5472
606.20 0.5469
606.30 0.5466
606.40 0.5462
606.50 0.5459
606.60 0.5456
606.70 0.5453
606.80 0.545
606.90 0.5447
607.00 0.5444
607.10 0.5441
607.20 0.5438
607.30 0.5435
607.40 0.5431
607.50 0.5428
607.60 0.5425
607.70 0.5422
607.80 0.5419
607.90 0.5416
608.00 0.5413
608.10 0.541
608.20 0.5407
608.30 0.5404
608.40 0.5401
608.50 0.5398
608.60 0.5395
608.70 0.5392
608.80 0.5388
608.90 0.5385
609.00 0.5382
609.10 0.5379
609.20 0.5376
609.30 0.5373
609.40 0.537
609.50 0.5367
609.60 0.5364
609.70 0.5361
609.80 0.5358
609.90 0.5355
610.00 0.5352
610.10 0.5349
610.20 0.5346
610.30 0.5343
610.40 0.534
610.50 0.5337
610.60 0.5334
610.70 0.5331
610.80 0.5328
610.90 0.5325
611.00 0.5321
611.10 0.5318
611.20 0.5315
611.30 0.5312
611.40 0.5309
611.50 0.5306
611.60 0.5303
611.70 0.53
611.80 0.5297
611.90 0.5294
612.00 0.5291
612.10 0.5288
612.20 0.5285
612.30 0.5282
612.40 0.5279
612.50 0.5276
612.60 0.5273
612.70 0.527
612.80 0.5267
612.90 0.5264
613.00 0.5261
613.10 0.5258
613.20 0.5255
613.30 0.5252
613.40 0.5249
613.50 0.5246
613.60 0.5243
613.70 0.524
613.80 0.5237
613.90 0.5234
614.00 0.5231
614.10 0.5228
614.20 0.5225
614.30 0.5222
614.40 0.5219
614.50 0.5216
614.60 0.5213
614.70 0.5211
614.80 0.5208
614.90 0.5205
615.00 0.5202
615.10 0.5199
615.20 0.5196
615.30 0.5193
615.40 0.519
615.50 0.5187
615.60 0.5184
615.70 0.5181
615.80 0.5178
615.90 0.5175
616.00 0.5172
616.10 0.5169
616.20 0.5166
616.30 0.5163
616.40 0.516
616.50 0.5157
616.60 0.5154
616.70 0.5151
616.80 0.5148
616.90 0.5145
617.00 0.5142
617.10 0.5139
617.20 0.5137
617.30 0.5134
617.40 0.5131
617.50 0.5128
617.60 0.5125
617.70 0.5122
617.80 0.5119
617.90 0.5116
618.00 0.5113
618.10 0.511
618.20 0.5107
618.30 0.5104
618.40 0.5101
618.50 0.5098
618.60 0.5095
618.70 0.5092
618.80 0.5089
618.90 0.5087
619.00 0.5084
619.10 0.5081
619.20 0.5078
619.30 0.5075
619.40 0.5072
619.50 0.5069
619.60 0.5066
619.70 0.5063
619.80 0.506
619.90 0.5057
620.00 0.5054
620.10 0.5051
620.20 0.5048
620.30 0.5045
620.40 0.5043
620.50 0.504
620.60 0.5037
620.70 0.5034
620.80 0.5031
620.90 0.5028
621.00 0.5025
621.10 0.5022
621.20 0.5019
621.30 0.5016
621.40 0.5013
621.50 0.501
621.60 0.5007
621.70 0.5005
621.80 0.5002
621.90 0.4999
622.00 0.4996
622.10 0.4993
622.20 0.499
622.30 0.4987
622.40 0.4984
622.50 0.4981
622.60 0.4978
622.70 0.4975
622.80 0.4972
622.90 0.497
623.00 0.4967
623.10 0.4964
623.20 0.4961
623.30 0.4958
623.40 0.4955
623.50 0.4952
623.60 0.4949
623.70 0.4946
623.80 0.4943
623.90 0.494
624.00 0.4937
624.10 0.4935
624.20 0.4932
624.30 0.4929
624.40 0.4926
624.50 0.4923
624.60 0.492
624.70 0.4917
624.80 0.4914
624.90 0.4911
625.00 0.4908
625.10 0.4905
625.20 0.4902
625.30 0.49
625.40 0.4897
625.50 0.4894
625.60 0.4891
625.70 0.4888
625.80 0.4885
625.90 0.4882
626.00 0.4879
626.10 0.4876
626.20 0.4873
626.30 0.487
626.40 0.4867
626.50 0.4864
626.60 0.4862
626.70 0.4859
626.80 0.4856
626.90 0.4853
627.00 0.485
627.10 0.4847
627.20 0.4844
627.30 0.4841
627.40 0.4838
627.50 0.4835
627.60 0.4832
627.70 0.4829
627.80 0.4826
627.90 0.4823
628.00 0.4821
628.10 0.4818
628.20 0.4815
628.30 0.4812
628.40 0.4809
628.50 0.4806
628.60 0.4803
628.70 0.48
628.80 0.4797
628.90 0.4794
629.00 0.4791
629.10 0.4788
629.20 0.4785
629.30 0.4782
629.40 0.4779
629.50 0.4776
629.60 0.4773
629.70 0.477
629.80 0.4767
629.90 0.4764
630.00 0.4761
630.10 0.4758
630.20 0.4755
630.30 0.4752
630.40 0.4749
630.50 0.4746
630.60 0.4743
630.70 0.474
630.80 0.4737
630.90 0.4734
631.00 0.4731
631.10 0.4728
631.20 0.4725
631.30 0.4722
631.40 0.4719
631.50 0.4716
631.60 0.4713
631.70 0.471
631.80 0.4707
631.90 0.4704
632.00 0.4701
632.10 0.4698
632.20 0.4695
632.30 0.4692
632.40 0.4689
632.50 0.4686
632.60 0.4683
632.70 0.468
632.80 0.4676
632.90 0.4673
633.00 0.467
633.10 0.4667
633.20 0.4664
633.30 0.4661
633.40 0.4658
633.50 0.4655
633.60 0.4652
633.70 0.4648
633.80 0.4645
633.90 0.4642
634.00 0.4639
634.10 0.4636
634.20 0.4633
634.30 0.4629
634.40 0.4626
634.50 0.4623
634.60 0.462
634.70 0.4617
634.80 0.4613
634.90 0.461
635.00 0.4607
635.10 0.4604
635.20 0.46
635.30 0.4597
635.40 0.4594
635.50 0.4591
635.60 0.4587
635.70 0.4584
635.80 0.4581
635.90 0.4577
636.00 0.4574
636.10 0.4571
636.20 0.4567
636.30 0.4564
636.40 0.4561
636.50 0.4557
636.60 0.4554
636.70 0.455
636.80 0.4547
636.90 0.4543
637.00 0.454
637.10 0.4537
637.20 0.4533
637.30 0.453
637.40 0.4526
637.50 0.4523
637.60 0.4519
637.70 0.4515
637.80 0.4512
637.90 0.4508
638.00 0.4505
638.10 0.4501
638.20 0.4498
638.30 0.4494
638.40 0.449
638.50 0.4487
638.60 0.4483
638.70 0.4479
638.80 0.4475
638.90 0.4472
639.00 0.4468
639.10 0.4464
639.20 0.446
639.30 0.4457
639.40 0.4453
639.50 0.4449
639.60 0.4445
639.70 0.4441
639.80 0.4437
639.90 0.4433
640.00 0.4429
640.10 0.4425
640.20 0.4421
640.30 0.4417
640.40 0.4413
640.50 0.4409
640.60 0.4405
640.70 0.4401
640.80 0.4397
640.90 0.4392
641.00 0.4388
641.10 0.4384
641.20 0.438
641.30 0.4376
641.40 0.4371
641.50 0.4367
641.60 0.4362
641.70 0.4358
641.80 0.4353
641.90 0.4349
642.00 0.4344
642.10 0.434
642.20 0.4335
642.30 0.4331
642.40 0.4326
642.50 0.4321
642.60 0.4316
642.70 0.4312
642.80 0.4307
642.90 0.4302
643.00 0.4297
643.10 0.4292
643.20 0.4287
643.30 0.4283
643.40 0.4277
643.50 0.4272
643.60 0.4267
643.70 0.4261
643.80 0.4256
643.90 0.4251
644.00 0.4245
644.10 0.424
644.20 0.4235
644.30 0.423
644.40 0.4224
644.50 0.4218
644.60 0.4212
644.70 0.4206
644.80 0.42
644.90 0.4194
645.00 0.4188
645.10 0.4183
645.20 0.4177
645.30 0.4171
645.40 0.4164
645.50 0.4158
645.60 0.4151
645.70 0.4145
645.80 0.4138
645.90 0.4132
646.00 0.4125
646.10 0.4119
646.20 0.4112
646.30 0.4105
646.40 0.4098
646.50 0.4091
646.60 0.4083
646.70 0.4076
646.80 0.4068
646.90 0.4061
647.00 0.4054
647.10 0.4046
647.20 0.4039
647.30 0.4031
647.40 0.4023
647.50 0.4014
647.60 0.4006
647.70 0.3998
647.80 0.3989
647.90 0.3981
648.00 0.3972
648.10 0.3964
648.20 0.3955
648.30 0.3947
648.40 0.3937
648.50 0.3927
648.60 0.3917
648.70 0.3907
648.80 0.3897
648.90 0.3887
649.00 0.3877
649.10 0.3868
649.20 0.3858
649.30 0.3848
649.40 0.3836
649.50 0.3825
649.60 0.3813
649.70 0.3802
649.80 0.379
649.90 0.3779
650.00 0.3767
650.10 0.3756
650.20 0.3745
650.30 0.3733
650.40 0.3719
650.50 0.3706
650.60 0.3692
650.70 0.3679
650.80 0.3665
650.90 0.3652
651.00 0.3639
651.10 0.3625
651.20 0.3612
651.30 0.3598
651.40 0.3582
651.50 0.3566
651.60 0.355
651.70 0.3534
651.80 0.3518
651.90 0.3503
652.00 0.3487
652.10 0.3471
652.20 0.3455
652.30 0.3439
652.40 0.342
652.50 0.3401
652.60 0.3383
652.70 0.3364
652.80 0.3345
652.90 0.3326
653.00 0.3308
653.10 0.3289
653.20 0.327
653.30 0.3251
653.40 0.3228
653.50 0.3206
653.60 0.3183
653.70 0.3161
653.80 0.3138
653.90 0.3116
654.00 0.3093
654.10 0.3071
654.20 0.3048
654.30 0.3025
654.40 0.2999
654.50 0.2974
654.60 0.2948
654.70 0.2923
654.80 0.2896
654.90 0.2867
655.00 0.2838
655.10 0.2809
655.20 0.278
655.30 0.275
655.40 0.2717
655.50 0.2684
655.60 0.2647
655.70 0.2608
655.80 0.2563
655.90 0.2511
656.00 0.2435
656.10 0.235
656.20 0.2111
656.30 0.1881
656.40 0.2242
656.50 0.2383
656.60 0.2458
656.70 0.2526
656.80 0.257
656.90 0.2611
657.00 0.2646
657.10 0.268
657.20 0.271
657.30 0.2739
657.40 0.2765
657.50 0.2792
657.60 0.2819
657.70 0.2845
657.80 0.2871
657.90 0.2894
658.00 0.2916
658.10 0.2939
658.20 0.2962
658.30 0.2984
658.40 0.3003
658.50 0.3023
658.60 0.3042
658.70 0.3061
658.80 0.3081
658.90 0.31
659.00 0.3119
659.10 0.3139
659.20 0.3158
659.30 0.3176
659.40 0.3191
659.50 0.3207
659.60 0.3222
659.70 0.3237
659.80 0.3252
659.90 0.3267
660.00 0.3283
660.10 0.3298
660.20 0.3313
660.30 0.3327
660.40 0.3339
660.50 0.3351
660.60 0.3363
660.70 0.3375
660.80 0.3387
660.90 0.3399
661.00 0.3411
661.10 0.3423
661.20 0.3435
661.30 0.3446
661.40 0.3456
661.50 0.3465
661.60 0.3475
661.70 0.3484
661.80 0.3493
661.90 0.3503
662.00 0.3512
662.10 0.3521
662.20 0.3531
662.30 0.354
662.40 0.3547
662.50 0.3554
662.60 0.3561
662.70 0.3568
662.80 0.3575
662.90 0.3582
663.00 0.359
663.10 0.3597
663.20 0.3604
663.30 0.3611
663.40 0.3616
663.50 0.3621
663.60 0.3627
663.70 0.3632
663.80 0.3638
663.90 0.3643
664.00 0.3649
664.10 0.3654
664.20 0.3659
664.30 0.3665
664.40 0.3668
664.50 0.3672
664.60 0.3676
664.70 0.368
664.80 0.3684
664.90 0.3688
665.00 0.3692
665.10 0.3696
665.20 0.37
665.30 0.3704
665.40 0.3706
665.50 0.3709
665.60 0.3712
665.70 0.3715
665.80 0.3718
665.90 0.372
666.00 0.3723
666.10 0.3726
666.20 0.3729
666.30 0.3731
666.40 0.3733
666.50 0.3735
666.60 0.3737
666.70 0.3739
666.80 0.3741
666.90 0.3743
667.00 0.3745
667.10 0.3747
667.20 0.3748
667.30 0.375
667.40 0.3751
667.50 0.3753
667.60 0.3754
667.70 0.3755
667.80 0.3756
667.90 0.3757
668.00 0.3759
668.10 0.376
668.20 0.3761
668.30 0.3762
668.40 0.3763
668.50 0.3763
668.60 0.3764
668.70 0.3765
668.80 0.3765
668.90 0.3766
669.00 0.3767
669.10 0.3767
669.20 0.3768
669.30 0.3768
669.40 0.3769
669.50 0.3769
669.60 0.3769
669.70 0.3769
669.80 0.3769
669.90 0.3769
670.00 0.377
670.10 0.377
670.20 0.377
670.30 0.377
670.40 0.377
670.50 0.377
670.60 0.377
670.70 0.3769
670.80 0.3769
670.90 0.3769
671.00 0.3769
671.10 0.3769
671.20 0.3768
671.30 0.3768
671.40 0.3768
671.50 0.3767
671.60 0.3767
671.70 0.3766
671.80 0.3766
671.90 0.3765
672.00 0.3765
672.10 0.3764
672.20 0.3764
672.30 0.3763
672.40 0.3763
672.50 0.3762
672.60 0.3761
672.70 0.3761
672.80 0.376
672.90 0.3759
673.00 0.3758
673.10 0.3758
673.20 0.3757
673.30 0.3756
673.40 0.3755
673.50 0.3755
673.60 0.3754
673.70 0.3753
673.80 0.3752
673.90 0.3751
674.00 0.375
674.10 0.3749
674.20 0.3748
674.30 0.3747
674.40 0.3746
674.50 0.3745
674.60 0.3744
674.70 0.3743
674.80 0.3742
674.90 0.3741
675.00 0.374
675.10 0.3739
675.20 0.3738
675.30 0.3737
675.40 0.3736
675.50 0.3735
675.60 0.3733
675.70 0.3732
675.80 0.3731
675.90 0.373
676.00 0.3729
676.10 0.3728
676.20 0.3726
676.30 0.3725
676.40 0.3724
676.50 0.3723
676.60 0.3721
676.70 0.372
676.80 0.3719
676.90 0.3718
677.00 0.3716
677.10 0.3715
677.20 0.3714
677.30 0.3712
677.40 0.3711
677.50 0.371
677.60 0.3708
677.70 0.3707
677.80 0.3706
677.90 0.3704
678.00 0.3703
678.10 0.3702
678.20 0.37
678.30 0.3699
678.40 0.3698
678.50 0.3696
678.60 0.3695
678.70 0.3693
678.80 0.3692
678.90 0.369
679.00 0.3689
679.10 0.3688
679.20 0.3686
679.30 0.3685
679.40 0.3683
679.50 0.3682
679.60 0.368
679.70 0.3679
679.80 0.3677
679.90 0.3676
680.00 0.3675
680.10 0.3673
680.20 0.3672
680.30 0.367
680.40 0.3669
680.50 0.3667
680.60 0.3666
680.70 0.3664
680.80 0.3663
680.90 0.3661
681.00 0.366
681.10 0.3658
681.20 0.3657
681.30 0.3655
681.40 0.3653
681.50 0.3652
681.60 0.365
681.70 0.3649
681.80 0.3647
681.90 0.3646
682.00 0.3644
682.10 0.3643
682.20 0.3641
682.30 0.364
682.40 0.3638
682.50 0.3636
682.60 0.3635
682.70 0.3633
682.80 0.3632
682.90 0.363
683.00 0.3629
683.10 0.3627
683.20 0.3625
683.30 0.3624
683.40 0.3622
683.50 0.3621
683.60 0.3619
683.70 0.3618
683.80 0.3616
683.90 0.3614
684.00 0.3613
684.10 0.3611
684.20 0.361
684.30 0.3608
684.40 0.3606
684.50 0.3605
684.60 0.3603
684.70 0.3602
684.80 0.36
684.90 0.3598
685.00 0.3597
685.10 0.3595
685.20 0.3594
685.30 0.3592
685.40 0.359
685.50 0.3589
685.60 0.3587
685.70 0.3586
685.80 0.3584
685.90 0.3582
686.00 0.3581
686.10 0.3579
686.20 0.3577
686.30 0.3576
686.40 0.3574
686.50 0.3573
686.60 0.3571
686.70 0.3569
686.80 0.3568
686.90 0.3566
687.00 0.3564
687.10 0.3563
687.20 0.3561
687.30 0.356
687.40 0.3558
687.50 0.3556
687.60 0.3555
687.70 0.3553
687.80 0.3551
687.90 0.355
688.00 0.3548
688.10 0.3547
688.20 0.3545
688.30 0.3543
688.40 0.3542
688.50 0.354
688.60 0.3538
688.70 0.3537
688.80 0.3535
688.90 0.3534
689.00 0.3532
689.10 0.353
689.20 0.3529
689.30 0.3527
689.40 0.3525
689.50 0.3524
689.60 0.3522
689.70 0.352
689.80 0.3519
689.90 0.3517
690.00 0.3515
690.10 0.3514
690.20 0.3512
690.30 0.351
690.40 0.3509
690.50 0.3507
690.60 0.3505
690.70 0.3504
690.80 0.3502
690.90 0.35
691.00 0.3499
691.10 0.3497
691.20 0.3495
691.30 0.3494
691.40 0.3492
691.50 0.349
691.60 0.3489
691.70 0.3487
691.80 0.3485
691.90 0.3484
692.00 0.3482
692.10 0.3481
692.20 0.3479
692.30 0.3477
692.40 0.3476
692.50 0.3474
692.60 0.3472
692.70 0.3471
692.80 0.3469
692.90 0.3467
693.00 0.3466
693.10 0.3464
693.20 0.3462
693.30 0.3461
693.40 0.3459
693.50 0.3458
693.60 0.3456
693.70 0.3454
693.80 0.3453
693.90 0.3451
694.00 0.3449
694.10 0.3448
694.20 0.3446
694.30 0.3444
694.40 0.3443
694.50 0.3441
694.60 0.344
694.70 0.3438
694.80 0.3436
694.90 0.3435
695.00 0.3433
695.10 0.3431
695.20 0.343
695.30 0.3428
695.40 0.3427
695.50 0.3425
695.60 0.3423
695.70 0.3422
695.80 0.342
695.90 0.3419
696.00 0.3417
696.10 0.3415
696.20 0.3414
696.30 0.3412
696.40 0.341
696.50 0.3409
696.60 0.3407
696.70 0.3406
696.80 0.3404
696.90 0.3402
697.00 0.3401
697.10 0.3399
697.20 0.3398
697.30 0.3396
697.40 0.3394
697.50 0.3393
697.60 0.3391
697.70 0.339
697.80 0.3388
697.90 0.3386
698.00 0.3385
698.10 0.3383
698.20 0.3382
698.30 0.338
698.40 0.3378
698.50 0.3377
698.60 0.3375
698.70 0.3374
698.80 0.3372
698.90 0.337
699.00 0.3369
699.10 0.3367
699.20 0.3366
699.30 0.3364
699.40 0.3362
699.50 0.3361
699.60 0.3359
699.70 0.3358
699.80 0.3356
699.90 0.3354
700.00 0.3353
700.10 0.3351
700.20 0.335
700.30 0.3348
700.40 0.3347
700.50 0.3345
700.60 0.3344
700.70 0.3342
700.80 0.3341
700.90 0.3339
701.00 0.3338
701.10 0.3336
701.20 0.3335
701.30 0.3333
701.40 0.3332
701.50 0.333
701.60 0.3329
701.70 0.3327
701.80 0.3326
701.90 0.3324
702.00 0.3323
702.10 0.3321
702.20 0.332
702.30 0.3318
702.40 0.3317
702.50 0.3315
702.60 0.3314
702.70 0.3313
702.80 0.3311
702.90 0.331
703.00 0.3308
703.10 0.3307
703.20 0.3305
703.30 0.3304
703.40 0.3302
703.50 0.3301
703.60 0.3299
703.70 0.3298
703.80 0.3296
703.90 0.3295
704.00 0.3293
704.10 0.3292
704.20 0.329
704.30 0.3289
704.40 0.3287
704.50 0.3286
704.60 0.3284
704.70 0.3283
704.80 0.3281
704.90 0.328
705.00 0.3279
705.10 0.3277
705.20 0.3275
705.30 0.3274
705.40 0.3272
705.50 0.3271
705.60 0.3269
705.70 0.3268
705.80 0.3266
705.90 0.3264
706.00 0.3263
706.10 0.3261
706.20 0.326
706.30 0.3258
706.40 0.3257
706.50 0.3255
706.60 0.3253
706.70 0.3252
706.80 0.325
706.90 0.3249
707.00 0.3247
707.10 0.3246
707.20 0.3244
707.30 0.3243
707.40 0.3241
707.50 0.3239
707.60 0.3238
707.70 0.3236
707.80 0.3235
707.90 0.3233
708.00 0.3232
708.10 0.323
708.20 0.3229
708.30 0.3227
708.40 0.3225
708.50 0.3224
708.60 0.3222
708.70 0.3221
708.80 0.3219
708.90 0.3218
709.00 0.3216
709.10 0.3215
709.20 0.3213
709.30 0.3212
709.40 0.321
709.50 0.3209
709.60 0.3207
709.70 0.3205
709.80 0.3204
709.90 0.3202
710.00 0.3201
710.10 0.3199
710.20 0.3198
710.30 0.3196
710.40 0.3195
710.50 0.3193
710.60 0.3192
710.70 0.319
710.80 0.3189
710.90 0.3187
711.00 0.3186
711.10 0.3184
711.20 0.3182
711.30 0.3181
711.40 0.3179
711.50 0.3178
711.60 0.3176
711.70 0.3175
711.80 0.3173
711.90 0.3172
712.00 0.317
712.10 0.3169
712.20 0.3167
712.30 0.3166
712.40 0.3164
712.50 0.3163
712.60 0.3161
712.70 0.316
712.80 0.3158
712.90 0.3157
713.00 0.3155
713.10 0.3154
713.20 0.3152
713.30 0.3151
713.40 0.3149
713.50 0.3148
713.60 0.3146
713.70 0.3145
713.80 0.3143
713.90 0.3142
714.00 0.314
714.10 0.3139
714.20 0.3137
714.30 0.3136
714.40 0.3134
714.50 0.3133
714.60 0.3131
714.70 0.313
714.80 0.3128
714.90 0.3127
715.00 0.3125
715.10 0.3124
715.20 0.3122
715.30 0.3121
715.40 0.3119
715.50 0.3118
715.60 0.3116
715.70 0.3115
715.80 0.3114
715.90 0.3112
716.00 0.3111
716.10 0.3109
716.20 0.3108
716.30 0.3106
716.40 0.3105
716.50 0.3103
716.60 0.3102
716.70 0.3101
716.80 0.3099
716.90 0.3098
717.00 0.3096
717.10 0.3095
717.20 0.3093
717.30 0.3092
717.40 0.3091
717.50 0.3089
717.60 0.3088
717.70 0.3086
717.80 0.3085
717.90 0.3083
718.00 0.3082
718.10 0.3081
718.20 0.3079
718.30 0.3078
718.40 0.3076
718.50 0.3075
718.60 0.3073
718.70 0.3072
718.80 0.3071
718.90 0.3069
719.00 0.3068
719.10 0.3066
719.20 0.3065
719.30 0.3063
719.40 0.3062
719.50 0.3061
719.60 0.3059
719.70 0.3058
719.80 0.3056
719.90 0.3055
720.00 0.3054
720.10 0.3052
720.20 0.3051
720.30 0.3049
720.40 0.3048
720.50 0.3046
720.60 0.3045
720.70 0.3043
720.80 0.3042
720.90 0.304
721.00 0.3039
721.10 0.3038
721.20 0.3036
721.30 0.3035
721.40 0.3033
721.50 0.3032
721.60 0.303
721.70 0.3029
721.80 0.3027
721.90 0.3026
722.00 0.3025
722.10 0.3023
722.20 0.3022
722.30 0.302
722.40 0.3019
722.50 0.3017
722.60 0.3016
722.70 0.3014
722.80 0.3013
722.90 0.3012
723.00 0.301
723.10 0.3009
723.20 0.3007
723.30 0.3006
723.40 0.3004
723.50 0.3003
723.60 0.3001
723.70 0.3
723.80 0.2999
723.90 0.2997
724.00 0.2996
724.10 0.2994
724.20 0.2993
724.30 0.2991
724.40 0.299
724.50 0.2989
724.60 0.2987
724.70 0.2986
724.80 0.2984
724.90 0.2983
725.00 0.2981
725.10 0.298
725.20 0.2979
725.30 0.2977
725.40 0.2976
725.50 0.2974
725.60 0.2973
725.70 0.2972
725.80 0.297
725.90 0.2969
726.00 0.2967
726.10 0.2966
726.20 0.2965
726.30 0.2963
726.40 0.2962
726.50 0.296
726.60 0.2959
726.70 0.2958
726.80 0.2956
726.90 0.2955
727.00 0.2953
727.10 0.2952
727.20 0.2951
727.30 0.2949
727.40 0.2948
727.50 0.2946
727.60 0.2945
727.70 0.2944
727.80 0.2942
727.90 0.2941
728.00 0.2939
728.10 0.2938
728.20 0.2937
728.30 0.2935
728.40 0.2934
728.50 0.2932
728.60 0.2931
728.70 0.293
728.80 0.2928
728.90 0.2927
729.00 0.2925
729.10 0.2924
729.20 0.2923
729.30 0.2921
729.40 0.292
729.50 0.2918
729.60 0.2917
729.70 0.2916
729.80 0.2914
729.90 0.2913
730.00 0.2912
730.10 0.291
730.20 0.2909
730.30 0.2907
730.40 0.2906
730.50 0.2905
730.60 0.2903
730.70 0.2902
730.80 0.2901
730.90 0.2899
731.00 0.2898
731.10 0.2897
731.20 0.2895
731.30 0.2894
731.40 0.2892
731.50 0.2891
731.60 0.289
731.70 0.2888
731.80 0.2887
731.90 0.2886
732.00 0.2884
732.10 0.2883
732.20 0.2882
732.30 0.288
732.40 0.2879
732.50 0.2878
732.60 0.2876
732.70 0.2875
732.80 0.2874
732.90 0.2872
733.00 0.2871
733.10 0.2869
733.20 0.2868
733.30 0.2867
733.40 0.2865
733.50 0.2864
733.60 0.2863
733.70 0.2861
733.80 0.286
733.90 0.2859
734.00 0.2857
734.10 0.2856
734.20 0.2855
734.30 0.2853
734.40 0.2852
734.50 0.2851
734.60 0.2849
734.70 0.2848
734.80 0.2847
734.90 0.2845
735.00 0.2844
735.10 0.2843
735.20 0.2841
735.30 0.284
735.40 0.2839
735.50 0.2837
735.60 0.2836
735.70 0.2835
735.80 0.2833
735.90 0.2832
736.00 0.2831
736.10 0.2829
736.20 0.2828
736.30 0.2827
736.40 0.2825
736.50 0.2824
736.60 0.2823
736.70 0.2821
736.80 0.282
736.90 0.2819
737.00 0.2817
737.10 0.2816
737.20 0.2815
737.30 0.2813
737.40 0.2812
737.50 0.2811
737.60 0.2809
737.70 0.2808
737.80 0.2807
737.90 0.2805
738.00 0.2804
738.10 0.2803
738.20 0.2801
738.30 0.28
738.40 0.2799
738.50 0.2798
738.60 0.2796
738.70 0.2795
738.80 0.2794
738.90 0.2792
739.00 0.2791
739.10 0.279
739.20 0.2788
739.30 0.2787
739.40 0.2786
739.50 0.2784
739.60 0.2783
739.70 0.2782
739.80 0.278
739.90 0.2779
740.00 0.2778
740.10 0.2777
740.20 0.2775
740.30 0.2774
740.40 0.2773
740.50 0.2771
740.60 0.277
740.70 0.2769
740.80 0.2768
740.90 0.2766
741.00 0.2765
741.10 0.2764
741.20 0.2762
741.30 0.2761
741.40 0.276
741.50 0.2759
741.60 0.2757
741.70 0.2756
741.80 0.2755
741.90 0.2753
742.00 0.2752
742.10 0.2751
742.20 0.275
742.30 0.2748
742.40 0.2747
742.50 0.2746
742.60 0.2745
742.70 0.2743
742.80 0.2742
742.90 0.2741
743.00 0.2739
743.10 0.2738
743.20 0.2737
743.30 0.2736
743.40 0.2734
743.50 0.2733
743.60 0.2732
743.70 0.2731
743.80 0.2729
743.90 0.2728
744.00 0.2727
744.10 0.2725
744.20 0.2724
744.30 0.2723
744.40 0.2722
744.50 0.272
744.60 0.2719
744.70 0.2718
744.80 0.2717
744.90 0.2715
745.00 0.2714
745.10 0.2713
745.20 0.2712
745.30 0.271
745.40 0.2709
745.50 0.2708
745.60 0.2707
745.70 0.2705
745.80 0.2704
745.90 0.2703
746.00 0.2702
746.10 0.27
746.20 0.2699
746.30 0.2698
746.40 0.2696
746.50 0.2695
746.60 0.2694
746.70 0.2693
746.80 0.2691
746.90 0.269
747.00 0.2689
747.10 0.2688
747.20 0.2686
747.30 0.2685
747.40 0.2684
747.50 0.2683
747.60 0.2681
747.70 0.268
747.80 0.2679
747.90 0.2678
748.00 0.2677
748.10 0.2675
748.20 0.2674
748.30 0.2673
748.40 0.2672
748.50 0.267
748.60 0.2669
748.70 0.2668
748.80 0.2667
748.90 0.2665
749.00 0.2664
749.10 0.2663
749.20 0.2662
749.30 0.266
749.40 0.2659
749.50 0.2658
749.60 0.2657
749.70 0.2655
749.80 0.2654
749.90 0.2653
750.00 0.2652
750.10 0.2651
750.20 0.2649
750.30 0.2648
750.40 0.2647
750.50 0.2646
750.60 0.2644
750.70 0.2643
750.80 0.2642
750.90 0.2641
751.00 0.264
751.10 0.2638
751.20 0.2637
751.30 0.2636
751.40 0.2635
751.50 0.2634
751.60 0.2632
751.70 0.2631
751.80 0.263
751.90 0.2629
752.00 0.2628
752.10 0.2626
752.20 0.2625
752.30 0.2624
752.40 0.2623
752.50 0.2621
752.60 0.262
752.70 0.2619
752.80 0.2618
752.90 0.2617
753.00 0.2615
753.10 0.2614
753.20 0.2613
753.30 0.2612
753.40 0.2611
753.50 0.2609
753.60 0.2608
753.70 0.2607
753.80 0.2606
753.90 0.2605
754.00 0.2604
754.10 0.2602
754.20 0.2601
754.30 0.26
754.40 0.2599
754.50 0.2598
754.60 0.2596
754.70 0.2595
754.80 0.2594
754.90 0.2593
755.00 0.2592
755.10 0.259
755.20 0.2589
755.30 0.2588
755.40 0.2587
755.50 0.2586
755.60 0.2584
755.70 0.2583
755.80 0.2582
755.90 0.2581
756.00 0.258
756.10 0.2579
756.20 0.2577
756.30 0.2576
756.40 0.2575
756.50 0.2574
756.60 0.2573
756.70 0.2571
756.80 0.257
756.90 0.2569
757.00 0.2568
757.10 0.2567
757.20 0.2566
757.30 0.2564
757.40 0.2563
757.50 0.2562
757.60 0.2561
757.70 0.256
757.80 0.2558
757.90 0.2557
758.00 0.2556
758.10 0.2555
758.20 0.2554
758.30 0.2553
758.40 0.2551
758.50 0.255
758.60 0.2549
758.70 0.2548
758.80 0.2547
758.90 0.2546
759.00 0.2544
759.10 0.2543
759.20 0.2542
759.30 0.2541
759.40 0.254
759.50 0.2539
759.60 0.2537
759.70 0.2536
759.80 0.2535
759.90 0.2534
760.00 0.2533
760.10 0.2532
760.20 0.253
760.30 0.2529
760.40 0.2528
760.50 0.2527
760.60 0.2526
760.70 0.2525
760.80 0.2524
760.90 0.2522
761.00 0.2521
761.10 0.252
761.20 0.2519
761.30 0.2518
761.40 0.2517
761.50 0.2516
761.60 0.2514
761.70 0.2513
761.80 0.2512
761.90 0.2511
762.00 0.251
762.10 0.2509
762.20 0.2508
762.30 0.2506
762.40 0.2505
762.50 0.2504
762.60 0.2503
762.70 0.2502
762.80 0.2501
762.90 0.25
763.00 0.2499
763.10 0.2497
763.20 0.2496
763.30 0.2495
763.40 0.2494
763.50 0.2493
763.60 0.2492
763.70 0.2491
763.80 0.2489
763.90 0.2488
764.00 0.2487
764.10 0.2486
764.20 0.2485
764.30 0.2484
764.40 0.2483
764.50 0.2482
764.60 0.248
764.70 0.2479
764.80 0.2478
764.90 0.2477
765.00 0.2476
765.10 0.2475
765.20 0.2474
765.30 0.2473
765.40 0.2471
765.50 0.247
765.60 0.2469
765.70 0.2468
765.80 0.2467
765.90 0.2466
766.00 0.2465
766.10 0.2464
766.20 0.2463
766.30 0.2461
766.40 0.246
766.50 0.2459
766.60 0.2458
766.70 0.2457
766.80 0.2456
766.90 0.2455
767.00 0.2454
767.10 0.2452
767.20 0.2451
767.30 0.245
767.40 0.2449
767.50 0.2448
767.60 0.2447
767.70 0.2446
767.80 0.2445
767.90 0.2444
768.00 0.2442
768.10 0.2441
768.20 0.244
768.30 0.2439
768.40 0.2438
768.50 0.2437
768.60 0.2436
768.70 0.2435
768.80 0.2434
768.90 0.2433
769.00 0.2431
769.10 0.243
769.20 0.2429
769.30 0.2428
769.40 0.2427
769.50 0.2426
769.60 0.2425
769.70 0.2424
769.80 0.2423
769.90 0.2422
770.00 0.242
770.10 0.2419
770.20 0.2418
770.30 0.2417
770.40 0.2416
770.50 0.2415
770.60 0.2414
770.70 0.2413
770.80 0.2412
770.90 0.2411
771.00 0.241
771.10 0.2409
771.20 0.2407
771.30 0.2406
771.40 0.2405
771.50 0.2404
771.60 0.2403
771.70 0.2402
771.80 0.2401
771.90 0.24
772.00 0.2399
772.10 0.2398
772.20 0.2397
772.30 0.2396
772.40 0.2395
772.50 0.2393
772.60 0.2392
772.70 0.2391
772.80 0.239
772.90 0.2389
773.00 0.2388
773.10 0.2387
773.20 0.2386
773.30 0.2385
773.40 0.2384
773.50 0.2383
773.60 0.2382
773.70 0.2381
773.80 0.238
773.90 0.2378
774.00 0.2377
774.10 0.2376
774.20 0.2375
774.30 0.2374
774.40 0.2373
774.50 0.2372
774.60 0.2371
774.70 0.237
774.80 0.2369
774.90 0.2368
775.00 0.2367
775.10 0.2366
775.20 0.2365
775.30 0.2364
775.40 0.2363
775.50 0.2361
775.60 0.236
775.70 0.2359
775.80 0.2358
775.90 0.2357
776.00 0.2356
776.10 0.2355
776.20 0.2354
776.30 0.2353
776.40 0.2352
776.50 0.2351
776.60 0.235
776.70 0.2349
776.80 0.2348
776.90 0.2347
777.00 0.2346
777.10 0.2345
777.20 0.2344
777.30 0.2342
777.40 0.2341
777.50 0.234
777.60 0.2339
777.70 0.2338
777.80 0.2337
777.90 0.2336
778.00 0.2335
778.10 0.2334
778.20 0.2333
778.30 0.2332
778.40 0.2331
778.50 0.233
778.60 0.2329
778.70 0.2328
778.80 0.2327
778.90 0.2326
779.00 0.2325
779.10 0.2324
779.20 0.2323
779.30 0.2322
779.40 0.232
779.50 0.2319
779.60 0.2318
779.70 0.2317
779.80 0.2316
779.90 0.2315
780.00 0.2314
780.10 0.2313
780.20 0.2312
780.30 0.2311
780.40 0.231
780.50 0.2309
780.60 0.2308
780.70 0.2307
780.80 0.2306
780.90 0.2305
781.00 0.2304
781.10 0.2303
781.20 0.2302
781.30 0.2301
781.40 0.23
781.50 0.2299
781.60 0.2298
781.70 0.2297
781.80 0.2296
781.90 0.2295
782.00 0.2294
782.10 0.2293
782.20 0.2292
782.30 0.2291
782.40 0.229
782.50 0.2289
782.60 0.2288
782.70 0.2287
782.80 0.2286
782.90 0.2285
783.00 0.2284
783.10 0.2283
783.20 0.2282
783.30 0.2281
783.40 0.228
783.50 0.2279
783.60 0.2278
783.70 0.2277
783.80 0.2276
783.90 0.2275
784.00 0.2274
784.10 0.2273
784.20 0.2272
784.30 0.2271
784.40 0.227
784.50 0.2269
784.60 0.2268
784.70 0.2267
784.80 0.2266
784.90 0.2265
785.00 0.2264
785.10 0.2263
785.20 0.2262
785.30 0.2261
785.40 0.226
785.50 0.2258
785.60 0.2257
785.70 0.2256
785.80 0.2255
785.90 0.2254
786.00 0.2253
786.10 0.2252
786.20 0.2252
786.30 0.2251
786.40 0.225
786.50 0.2249
786.60 0.2248
786.70 0.2247
786.80 0.2246
786.90 0.2245
787.00 0.2244
787.10 0.2243
787.20 0.2242
787.30 0.2241
787.40 0.224
787.50 0.2239
787.60 0.2238
787.70 0.2237
787.80 0.2236
787.90 0.2235
788.00 0.2234
788.10 0.2233
788.20 0.2232
788.30 0.2231
788.40 0.223
788.50 0.2229
788.60 0.2228
788.70 0.2227
788.80 0.2226
788.90 0.2225
789.00 0.2224
789.10 0.2223
789.20 0.2222
789.30 0.2221
789.40 0.222
789.50 0.2219
789.60 0.2218
789.70 0.2217
789.80 0.2216
789.90 0.2215
790.00 0.2214
790.10 0.2213
790.20 0.2212
790.30 0.2211
790.40 0.221
790.50 0.2209
790.60 0.2208
790.70 0.2207
790.80 0.2206
790.90 0.2205
791.00 0.2204
791.10 0.2203
791.20 0.2202
791.30 0.2201
791.40 0.22
791.50 0.2199
791.60 0.2198
791.70 0.2197
791.80 0.2196
791.90 0.2196
792.00 0.2195
792.10 0.2194
792.20 0.2193
792.30 0.2192
792.40 0.2191
792.50 0.219
792.60 0.2189
792.70 0.2188
792.80 0.2187
792.90 0.2186
793.00 0.2185
793.10 0.2184
793.20 0.2183
793.30 0.2182
793.40 0.2181
793.50 0.218
793.60 0.2179
793.70 0.2178
793.80 0.2177
793.90 0.2176
794.00 0.2175
794.10 0.2174
794.20 0.2174
794.30 0.2173
794.40 0.2172
794.50 0.2171
794.60 0.217
794.70 0.2169
794.80 0.2168
794.90 0.2167
795.00 0.2166
795.10 0.2165
795.20 0.2164
795.30 0.2163
795.40 0.2162
795.50 0.2161
795.60 0.216
795.70 0.2159
795.80 0.2158
795.90 0.2157
796.00 0.2156
796.10 0.2155
796.20 0.2155
796.30 0.2154
796.40 0.2153
796.50 0.2152
796.60 0.2151
796.70 0.215
796.80 0.2149
796.90 0.2148
797.00 0.2147
797.10 0.2146
797.20 0.2145
797.30 0.2144
797.40 0.2143
797.50 0.2142
797.60 0.2141
797.70 0.214
797.80 0.2139
797.90 0.2139
798.00 0.2138
798.10 0.2137
798.20 0.2136
798.30 0.2135
798.40 0.2134
798.50 0.2133
798.60 0.2132
798.70 0.2131
798.80 0.213
798.90 0.2129
799.00 0.2128
799.10 0.2127
799.20 0.2126
799.30 0.2125
799.40 0.2125
799.50 0.2124
799.60 0.2123
799.70 0.2122
799.80 0.2121
799.90 0.212
800.00 0.2119
800.10 0.2118
800.20 0.2117
800.30 0.2116
800.40 0.2115
800.50 0.2114
800.60 0.2113
800.70 0.2113
800.80 0.2112
800.90 0.2111
801.00 0.211
801.10 0.2109
801.20 0.2108
801.30 0.2107
801.40 0.2106
801.50 0.2105
801.60 0.2104
801.70 0.2103
801.80 0.2102
801.90 0.2102
802.00 0.2101
802.10 0.21
802.20 0.2099
802.30 0.2098
802.40 0.2097
802.50 0.2096
802.60 0.2095
802.70 0.2094
802.80 0.2093
802.90 0.2092
803.00 0.2092
803.10 0.2091
803.20 0.209
803.30 0.2089
803.40 0.2088
803.50 0.2087
803.60 0.2086
803.70 0.2085
803.80 0.2084
803.90 0.2083
804.00 0.2083
804.10 0.2082
804.20 0.2081
804.30 0.208
804.40 0.2079
804.50 0.2078
804.60 0.2077
804.70 0.2076
804.80 0.2075
804.90 0.2074
805.00 0.2074
805.10 0.2073
805.20 0.2072
805.30 0.2071
805.40 0.207
805.50 0.2069
805.60 0.2068
805.70 0.2067
805.80 0.2066
805.90 0.2065
806.00 0.2065
806.10 0.2064
806.20 0.2063
806.30 0.2062
806.40 0.2061
806.50 0.206
806.60 0.2059
806.70 0.2058
806.80 0.2057
806.90 0.2056
807.00 0.2056
807.10 0.2055
807.20 0.2054
807.30 0.2053
807.40 0.2052
807.50 0.2051
807.60 0.205
807.70 0.2049
807.80 0.2048
807.90 0.2048
808.00 0.2047
808.10 0.2046
808.20 0.2045
808.30 0.2044
808.40 0.2043
808.50 0.2042
808.60 0.2041
808.70 0.2041
808.80 0.204
808.90 0.2039
809.00 0.2038
809.10 0.2037
809.20 0.2036
809.30 0.2035
809.40 0.2034
809.50 0.2033
809.60 0.2033
809.70 0.2032
809.80 0.2031
809.90 0.203
810.00 0.2029
810.10 0.2028
810.20 0.2027
810.30 0.2026
810.40 0.2026
810.50 0.2025
810.60 0.2024
810.70 0.2023
810.80 0.2022
810.90 0.2021
811.00 0.202
811.10 0.2019
811.20 0.2019
811.30 0.2018
811.40 0.2017
811.50 0.2016
811.60 0.2015
811.70 0.2014
811.80 0.2013
811.90 0.2013
812.00 0.2012
812.10 0.2011
812.20 0.201
812.30 0.2009
812.40 0.2008
812.50 0.2007
812.60 0.2007
812.70 0.2006
812.80 0.2005
812.90 0.2004
813.00 0.2003
813.10 0.2002
813.20 0.2001
813.30 0.2001
813.40 0.2
813.50 0.1999
813.60 0.1998
813.70 0.1997
813.80 0.1996
813.90 0.1995
814.00 0.1995
814.10 0.1994
814.20 0.1993
814.30 0.1992
814.40 0.1991
814.50 0.199
814.60 0.1989
814.70 0.1989
814.80 0.1988
814.90 0.1987
815.00 0.1986
815.10 0.1985
815.20 0.1984
815.30 0.1983
815.40 0.1983
815.50 0.1982
815.60 0.1981
815.70 0.198
815.80 0.1979
815.90 0.1978
816.00 0.1978
816.10 0.1977
816.20 0.1976
816.30 0.1975
816.40 0.1974
816.50 0.1973
816.60 0.1972
816.70 0.1972
816.80 0.1971
816.90 0.197
817.00 0.1969
817.10 0.1968
817.20 0.1967
817.30 0.1967
817.40 0.1966
817.50 0.1965
817.60 0.1964
817.70 0.1963
817.80 0.1962
817.90 0.1961
818.00 0.1961
818.10 0.196
818.20 0.1959
818.30 0.1958
818.40 0.1957
818.50 0.1956
818.60 0.1956
818.70 0.1955
818.80 0.1954
818.90 0.1953
819.00 0.1952
819.10 0.1951
819.20 0.1951
819.30 0.195
819.40 0.1949
819.50 0.1948
819.60 0.1947
819.70 0.1946
819.80 0.1946
819.90 0.1945
820.00 0.1944
820.10 0.1943
820.20 0.1942
820.30 0.1941
820.40 0.1941
820.50 0.194
820.60 0.1939
820.70 0.1938
820.80 0.1937
820.90 0.1937
821.00 0.1936
821.10 0.1935
821.20 0.1934
821.30 0.1933
821.40 0.1932
821.50 0.1932
821.60 0.1931
821.70 0.193
821.80 0.1929
821.90 0.1928
822.00 0.1927
822.10 0.1927
822.20 0.1926
822.30 0.1925
822.40 0.1924
822.50 0.1923
822.60 0.1923
822.70 0.1922
822.80 0.1921
822.90 0.192
823.00 0.1919
823.10 0.1919
823.20 0.1918
823.30 0.1917
823.40 0.1916
823.50 0.1915
823.60 0.1914
823.70 0.1914
823.80 0.1913
823.90 0.1912
824.00 0.1911
824.10 0.191
824.20 0.191
824.30 0.1909
824.40 0.1908
824.50 0.1907
824.60 0.1906
824.70 0.1906
824.80 0.1905
824.90 0.1904
825.00 0.1903
825.10 0.1902
825.20 0.1901
825.30 0.1901
825.40 0.19
825.50 0.1899
825.60 0.1898
825.70 0.1897
825.80 0.1897
825.90 0.1896
826.00 0.1895
826.10 0.1894
826.20 0.1893
826.30 0.1893
826.40 0.1892
826.50 0.1891
826.60 0.189
826.70 0.1889
826.80 0.1889
826.90 0.1888
827.00 0.1887
827.10 0.1886
827.20 0.1885
827.30 0.1885
827.40 0.1884
827.50 0.1883
827.60 0.1882
827.70 0.1881
827.80 0.1881
827.90 0.188
828.00 0.1879
828.10 0.1878
828.20 0.1877
828.30 0.1877
828.40 0.1876
828.50 0.1875
828.60 0.1874
828.70 0.1874
828.80 0.1873
828.90 0.1872
829.00 0.1871
829.10 0.187
829.20 0.187
829.30 0.1869
829.40 0.1868
829.50 0.1867
829.60 0.1866
829.70 0.1866
829.80 0.1865
829.90 0.1864
830.00 0.1863
830.10 0.1863
830.20 0.1862
830.30 0.1861
830.40 0.186
830.50 0.1859
830.60 0.1859
830.70 0.1858
830.80 0.1857
830.90 0.1856
831.00 0.1855
831.10 0.1855
831.20 0.1854
831.30 0.1853
831.40 0.1852
831.50 0.1852
831.60 0.1851
831.70 0.185
831.80 0.1849
831.90 0.1848
832.00 0.1848
832.10 0.1847
832.20 0.1846
832.30 0.1845
832.40 0.1845
832.50 0.1844
832.60 0.1843
832.70 0.1842
832.80 0.1841
832.90 0.1841
833.00 0.184
833.10 0.1839
833.20 0.1838
833.30 0.1838
833.40 0.1837
833.50 0.1836
833.60 0.1835
833.70 0.1834
833.80 0.1834
833.90 0.1833
834.00 0.1832
834.10 0.1831
834.20 0.1831
834.30 0.183
834.40 0.1829
834.50 0.1828
834.60 0.1828
834.70 0.1827
834.80 0.1826
834.90 0.1825
835.00 0.1825
835.10 0.1824
835.20 0.1823
835.30 0.1822
835.40 0.1821
835.50 0.1821
835.60 0.182
835.70 0.1819
835.80 0.1818
835.90 0.1818
836.00 0.1817
836.10 0.1816
836.20 0.1815
836.30 0.1815
836.40 0.1814
836.50 0.1813
836.60 0.1812
836.70 0.1812
836.80 0.1811
836.90 0.181
837.00 0.1809
837.10 0.1809
837.20 0.1808
837.30 0.1807
837.40 0.1806
837.50 0.1805
837.60 0.1805
837.70 0.1804
837.80 0.1803
837.90 0.1802
838.00 0.1802
838.10 0.1801
838.20 0.18
838.30 0.1799
838.40 0.1799
838.50 0.1798
838.60 0.1797
838.70 0.1796
838.80 0.1796
838.90 0.1795
839.00 0.1794
839.10 0.1793
839.20 0.1793
839.30 0.1792
839.40 0.1791
839.50 0.179
839.60 0.179
839.70 0.1789
839.80 0.1788
839.90 0.1787
840.00 0.1787
840.10 0.1786
840.20 0.1785
840.30 0.1784
840.40 0.1784
840.50 0.1783
840.60 0.1782
840.70 0.1782
840.80 0.1781
840.90 0.178
841.00 0.1779
841.10 0.1779
841.20 0.1778
841.30 0.1777
841.40 0.1776
841.50 0.1776
841.60 0.1775
841.70 0.1774
841.80 0.1773
841.90 0.1773
842.00 0.1772
842.10 0.1771
842.20 0.177
842.30 0.177
842.40 0.1769
842.50 0.1768
842.60 0.1767
842.70 0.1767
842.80 0.1766
842.90 0.1765
843.00 0.1765
843.10 0.1764
843.20 0.1763
843.30 0.1762
843.40 0.1762
843.50 0.1761
843.60 0.176
843.70 0.1759
843.80 0.1759
843.90 0.1758
844.00 0.1757
844.10 0.1756
844.20 0.1756
844.30 0.1755
844.40 0.1754
844.50 0.1754
844.60 0.1753
844.70 0.1752
844.80 0.1751
844.90 0.1751
845.00 0.175
845.10 0.1749
845.20 0.1748
845.30 0.1748
845.40 0.1747
845.50 0.1746
845.60 0.1746
845.70 0.1745
845.80 0.1744
845.90 0.1743
846.00 0.1743
846.10 0.1742
846.20 0.1741
846.30 0.1741
846.40 0.174
846.50 0.1739
846.60 0.1738
846.70 0.1738
846.80 0.1737
846.90 0.1736
847.00 0.1735
847.10 0.1735
847.20 0.1734
847.30 0.1733
847.40 0.1733
847.50 0.1732
847.60 0.1731
847.70 0.1731
847.80 0.173
847.90 0.1729
848.00 0.1729
848.10 0.1728
848.20 0.1727
848.30 0.1727
848.40 0.1726
848.50 0.1725
848.60 0.1725
848.70 0.1724
848.80 0.1723
848.90 0.1723
849.00 0.1722
849.10 0.1721
849.20 0.1721
849.30 0.172
849.40 0.172
849.50 0.1719
849.60 0.1718
849.70 0.1718
849.80 0.1717
849.90 0.1716
850.00 0.1716
850.10 0.1715
850.20 0.1714
850.30 0.1714
850.40 0.1713
850.50 0.1712
850.60 0.1712
850.70 0.1711
850.80 0.171
850.90 0.171
851.00 0.1709
851.10 0.1708
851.20 0.1708
851.30 0.1707
851.40 0.1706
851.50 0.1706
851.60 0.1705
851.70 0.1704
851.80 0.1704
851.90 0.1703
852.00 0.1702
852.10 0.1702
852.20 0.1701
852.30 0.17
852.40 0.17
852.50 0.1699
852.60 0.1698
852.70 0.1698
852.80 0.1697
852.90 0.1697
853.00 0.1696
853.10 0.1695
853.20 0.1695
853.30 0.1694
853.40 0.1693
853.50 0.1693
853.60 0.1692
853.70 0.1691
853.80 0.1691
853.90 0.169
854.00 0.1689
854.10 0.1689
854.20 0.1688
854.30 0.1688
854.40 0.1687
854.50 0.1686
854.60 0.1686
854.70 0.1685
854.80 0.1684
854.90 0.1684
855.00 0.1683
855.10 0.1682
855.20 0.1682
855.30 0.1681
855.40 0.168
855.50 0.168
855.60 0.1679
855.70 0.1679
855.80 0.1678
855.90 0.1677
856.00 0.1677
856.10 0.1676
856.20 0.1675
856.30 0.1675
856.40 0.1674
856.50 0.1673
856.60 0.1673
856.70 0.1672
856.80 0.1672
856.90 0.1671
857.00 0.167
857.10 0.167
857.20 0.1669
857.30 0.1668
857.40 0.1668
857.50 0.1667
857.60 0.1667
857.70 0.1666
857.80 0.1665
857.90 0.1665
858.00 0.1664
858.10 0.1664
858.20 0.1663
858.30 0.1662
858.40 0.1662
858.50 0.1661
858.60 0.1661
858.70 0.166
858.80 0.1659
858.90 0.1659
859.00 0.1658
859.10 0.1658
859.20 0.1657
859.30 0.1656
859.40 0.1656
859.50 0.1655
859.60 0.1655
859.70 0.1654
859.80 0.1653
859.90 0.1653
860.00 0.1652
860.10 0.1652
860.20 0.1651
860.30 0.165
860.40 0.165
860.50 0.1649
860.60 0.1649
860.70 0.1648
860.80 0.1647
860.90 0.1647
861.00 0.1646
861.10 0.1646
861.20 0.1645
861.30 0.1644
861.40 0.1644
861.50 0.1643
861.60 0.1643
861.70 0.1642
861.80 0.1641
861.90 0.1641
862.00 0.164
862.10 0.164
862.20 0.1639
862.30 0.1638
862.40 0.1638
862.50 0.1637
862.60 0.1637
862.70 0.1636
862.80 0.1635
862.90 0.1635
863.00 0.1634
863.10 0.1634
863.20 0.1633
863.30 0.1632
863.40 0.1632
863.50 0.1631
863.60 0.1631
863.70 0.163
863.80 0.1629
863.90 0.1629
864.00 0.1628
864.10 0.1628
864.20 0.1627
864.30 0.1627
864.40 0.1626
864.50 0.1625
864.60 0.1625
864.70 0.1624
864.80 0.1624
864.90 0.1623
865.00 0.1622
865.10 0.1622
865.20 0.1621
865.30 0.1621
865.40 0.162
865.50 0.1619
865.60 0.1619
865.70 0.1618
865.80 0.1618
865.90 0.1617
866.00 0.1616
866.10 0.1616
866.20 0.1615
866.30 0.1615
866.40 0.1614
866.50 0.1613
866.60 0.1613
866.70 0.1612
866.80 0.1612
866.90 0.1611
867.00 0.1611
867.10 0.161
867.20 0.161
867.30 0.1609
867.40 0.1609
867.50 0.1608
867.60 0.1608
867.70 0.1607
867.80 0.1607
867.90 0.1606
868.00 0.1606
868.10 0.1605
868.20 0.1605
868.30 0.1604
868.40 0.1604
868.50 0.1603
868.60 0.1603
868.70 0.1602
868.80 0.1602
868.90 0.1601
869.00 0.1601
869.10 0.16
869.20 0.16
869.30 0.1599
869.40 0.1599
869.50 0.1599
869.60 0.1598
869.70 0.1598
869.80 0.1597
869.90 0.1597
870.00 0.1596
870.10 0.1596
870.20 0.1595
870.30 0.1595
870.40 0.1594
870.50 0.1594
870.60 0.1593
870.70 0.1593
870.80 0.1592
870.90 0.1592
871.00 0.1591
871.10 0.1591
871.20 0.159
871.30 0.159
871.40 0.1589
871.50 0.1589
871.60 0.1589
871.70 0.1588
871.80 0.1588
871.90 0.1587
872.00 0.1587
872.10 0.1586
872.20 0.1586
872.30 0.1585
872.40 0.1584
872.50 0.1584
872.60 0.1583
872.70 0.1583
872.80 0.1582
872.90 0.1582
873.00 0.1581
873.10 0.1581
873.20 0.158
873.30 0.1579
873.40 0.1579
873.50 0.1578
873.60 0.1578
873.70 0.1577
873.80 0.1577
873.90 0.1576
874.00 0.1576
874.10 0.1575
874.20 0.1574
874.30 0.1574
874.40 0.1573
874.50 0.1573
874.60 0.1572
874.70 0.1572
874.80 0.1571
874.90 0.1571
875.00 0.157
875.10 0.1569
875.20 0.1569
875.30 0.1568
875.40 0.1568
875.50 0.1567
875.60 0.1567
875.70 0.1566
875.80 0.1566
875.90 0.1565
876.00 0.1565
876.10 0.1564
876.20 0.1563
876.30 0.1563
876.40 0.1562
876.50 0.1562
876.60 0.1561
876.70 0.1561
876.80 0.156
876.90 0.156
877.00 0.1559
877.10 0.1559
877.20 0.1558
877.30 0.1558
877.40 0.1557
877.50 0.1557
877.60 0.1557
877.70 0.1556
877.80 0.1556
877.90 0.1555
878.00 0.1555
878.10 0.1555
878.20 0.1554
878.30 0.1554
878.40 0.1553
878.50 0.1553
878.60 0.1553
878.70 0.1552
878.80 0.1552
878.90 0.1551
879.00 0.1551
879.10 0.1551
879.20 0.155
879.30 0.155
879.40 0.1549
879.50 0.1549
879.60 0.1549
879.70 0.1548
879.80 0.1548
879.90 0.1547
880.00 0.1547
880.10 0.1547
880.20 0.1546
880.30 0.1546
880.40 0.1545
880.50 0.1545
880.60 0.1545
880.70 0.1544
880.80 0.1544
880.90 0.1543
881.00 0.1543
881.10 0.1543
881.20 0.1542
881.30 0.1542
881.40 0.1541
881.50 0.1541
881.60 0.1541
881.70 0.154
881.80 0.154
881.90 0.1539
882.00 0.1539
882.10 0.1538
882.20 0.1537
882.30 0.1536
882.40 0.1536
882.50 0.1535
882.60 0.1534
882.70 0.1533
882.80 0.1532
882.90 0.1531
883.00 0.1531
883.10 0.153
883.20 0.1529
883.30 0.1528
883.40 0.1527
883.50 0.1526
883.60 0.1525
883.70 0.1525
883.80 0.1524
883.90 0.1523
884.00 0.1522
884.10 0.1521
884.20 0.152
884.30 0.1519
884.40 0.1519
884.50 0.1518
884.60 0.1517
884.70 0.1516
884.80 0.1515
884.90 0.1514
885.00 0.1513
885.10 0.1513
885.20 0.1512
885.30 0.1511
885.40 0.151
885.50 0.1509
885.60 0.1508
885.70 0.1508
885.80 0.1507
885.90 0.1506
886.00 0.1505
886.10 0.1504
886.20 0.1503
886.30 0.1502
886.40 0.1502
886.50 0.1501
886.60 0.15
886.70 0.1499
886.80 0.1498
886.90 0.1497
887.00 0.1497
887.10 0.1497
887.20 0.1497
887.30 0.1497
887.40 0.1496
887.50 0.1496
887.60 0.1496
887.70 0.1496
887.80 0.1496
887.90 0.1496
888.00 0.1496
888.10 0.1496
888.20 0.1496
888.30 0.1496
888.40 0.1496
888.50 0.1496
888.60 0.1496
888.70 0.1496
888.80 0.1496
888.90 0.1496
889.00 0.1496
889.10 0.1496
889.20 0.1496
889.30 0.1496
889.40 0.1496
889.50 0.1496
889.60 0.1496
889.70 0.1496
889.80 0.1496
889.90 0.1496
890.00 0.1496
890.10 0.1496
890.20 0.1496
890.30 0.1496
890.40 0.1496
890.50 0.1496
890.60 0.1496
890.70 0.1496
890.80 0.1496
890.90 0.1496
891.00 0.1496
891.10 0.1495
891.20 0.1495
891.30 0.1495
891.40 0.1495
891.50 0.1495
891.60 0.1495
891.70 0.1495
891.80 0.1495
891.90 0.1495
892.00 0.1495
892.10 0.1495
892.20 0.1494
892.30 0.1494
892.40 0.1493
892.50 0.1493
892.60 0.1492
892.70 0.1492
892.80 0.1491
892.90 0.1491
893.00 0.149
893.10 0.149
893.20 0.1489
893.30 0.1489
893.40 0.1488
893.50 0.1488
893.60 0.1487
893.70 0.1487
893.80 0.1486
893.90 0.1486
894.00 0.1485
894.10 0.1485
894.20 0.1484
894.30 0.1484
894.40 0.1483
894.50 0.1483
894.60 0.1482
894.70 0.1482
894.80 0.1481
894.90 0.1481
895.00 0.148
895.10 0.148
895.20 0.1479
895.30 0.1479
895.40 0.1478
895.50 0.1478
895.60 0.1477
895.70 0.1477
895.80 0.1476
895.90 0.1476
896.00 0.1475
896.10 0.1475
896.20 0.1474
896.30 0.1474
896.40 0.1473
896.50 0.1473
896.60 0.1472
896.70 0.1472
896.80 0.1471
896.90 0.1471
897.00 0.147
897.10 0.1468
897.20 0.1467
897.30 0.1465
897.40 0.1463
897.50 0.1461
897.60 0.146
897.70 0.1458
897.80 0.1456
897.90 0.1454
898.00 0.1453
898.10 0.1451
898.20 0.1449
898.30 0.1447
898.40 0.1446
898.50 0.1444
898.60 0.1442
898.70 0.144
898.80 0.1439
898.90 0.1437
899.00 0.1435
899.10 0.1434
899.20 0.1432
899.30 0.143
899.40 0.1428
899.50 0.1427
899.60 0.1425
899.70 0.1423
899.80 0.1421
899.90 0.142
900.00 0.1418
900.10 0.1416
900.20 0.1414
900.30 0.1413
900.40 0.1411
900.50 0.1409
900.60 0.1408
900.70 0.1406
900.80 0.1404
900.90 0.1402
901.00 0.1401
901.10 0.1399
901.20 0.1397
901.30 0.1395
901.40 0.1394
901.50 0.1392
901.60 0.139
901.70 0.1389
901.80 0.1387
901.90 0.1385
902.00 0.1383
902.10 0.1384
902.20 0.1384
902.30 0.1385
902.40 0.1385
902.50 0.1386
902.60 0.1386
902.70 0.1387
902.80 0.1388
902.90 0.1388
903.00 0.1389
903.10 0.1389
903.20 0.139
903.30 0.139
903.40 0.1391
903.50 0.1391
903.60 0.1392
903.70 0.1392
903.80 0.1393
903.90 0.1393
904.00 0.1394
904.10 0.1394
904.20 0.1395
904.30 0.1395
904.40 0.1396
904.50 0.1396
904.60 0.1397
904.70 0.1397
904.80 0.1398
904.90 0.1398
905.00 0.1399
905.10 0.1399
905.20 0.14
905.30 0.14
905.40 0.1401
905.50 0.1401
905.60 0.1402
905.70 0.1402
905.80 0.1403
905.90 0.1403
906.00 0.1404
906.10 0.1404
906.20 0.1405
906.30 0.1405
906.40 0.1406
906.50 0.1406
906.60 0.1407
906.70 0.1407
906.80 0.1408
906.90 0.1408
907.00 0.1409
907.10 0.1409
907.20 0.1408
907.30 0.1408
907.40 0.1408
907.50 0.1408
907.60 0.1408
907.70 0.1408
907.80 0.1408
907.90 0.1408
908.00 0.1408
908.10 0.1407
908.20 0.1407
908.30 0.1407
908.40 0.1407
908.50 0.1407
908.60 0.1407
908.70 0.1407
908.80 0.1407
908.90 0.1407
909.00 0.1406
909.10 0.1406
909.20 0.1406
909.30 0.1406
909.40 0.1406
909.50 0.1406
909.60 0.1406
909.70 0.1406
909.80 0.1406
909.90 0.1405
910.00 0.1405
910.10 0.1405
910.20 0.1405
910.30 0.1405
910.40 0.1405
910.50 0.1405
910.60 0.1405
910.70 0.1405
910.80 0.1404
910.90 0.1404
911.00 0.1404
911.10 0.1404
911.20 0.1404
911.30 0.1404
911.40 0.1404
911.50 0.1404
911.60 0.1404
911.70 0.1403
911.80 0.1403
911.90 0.1403
912.00 0.1403
912.10 0.1402
912.20 0.1401
912.30 0.14
912.40 0.1399
912.50 0.1398
912.60 0.1397
912.70 0.1396
912.80 0.1395
912.90 0.1394
913.00 0.1393
913.10 0.1392
913.20 0.1391
913.30 0.139
913.40 0.1389
913.50 0.1388
913.60 0.1387
913.70 0.1386
913.80 0.1385
913.90 0.1385
914.00 0.1384
914.10 0.1383
914.20 0.1382
914.30 0.1381
914.40 0.138
914.50 0.1379
914.60 0.1378
914.70 0.1377
914.80 0.1376
914.90 0.1375
915.00 0.1374
915.10 0.1373
915.20 0.1372
915.30 0.1371
915.40 0.137
915.50 0.1369
915.60 0.1368
915.70 0.1367
915.80 0.1366
915.90 0.1365
916.00 0.1364
916.10 0.1363
916.20 0.1362
916.30 0.1361
916.40 0.136
916.50 0.1359
916.60 0.1358
916.70 0.1357
916.80 0.1356
916.90 0.1355
917.00 0.1355
917.10 0.1352
917.20 0.135
917.30 0.1348
917.40 0.1346
917.50 0.1344
917.60 0.1342
917.70 0.134
917.80 0.1338
917.90 0.1336
918.00 0.1334
918.10 0.1332
918.20 0.133
918.30 0.1328
918.40 0.1325
918.50 0.1323
918.60 0.1321
918.70 0.1319
918.80 0.1317
918.90 0.1315
919.00 0.1313
919.10 0.1311
919.20 0.1309
919.30 0.1307
919.40 0.1305
919.50 0.1303
919.60 0.1301
919.70 0.1299
919.80 0.1297
919.90 0.1295
920.00 0.1292
920.10 0.129
920.20 0.1288
920.30 0.1286
920.40 0.1284
920.50 0.1282
920.60 0.128
920.70 0.1278
920.80 0.1276
920.90 0.1274
921.00 0.1272
921.10 0.127
921.20 0.1268
921.30 0.1266
921.40 0.1264
921.50 0.1262
921.60 0.126
921.70 0.1258
921.80 0.1256
921.90 0.1254
922.00 0.1252
922.10 0.1251
922.20 0.1251
922.30 0.1251
922.40 0.125
922.50 0.125
922.60 0.125
922.70 0.1249
922.80 0.1249
922.90 0.1249
923.00 0.1248
923.10 0.1248
923.20 0.1248
923.30 0.1248
923.40 0.1247
923.50 0.1247
923.60 0.1247
923.70 0.1246
923.80 0.1246
923.90 0.1246
924.00 0.1245
924.10 0.1245
924.20 0.1245
924.30 0.1244
924.40 0.1244
924.50 0.1244
924.60 0.1244
924.70 0.1243
924.80 0.1243
924.90 0.1243
925.00 0.1242
925.10 0.1242
925.20 0.1242
925.30 0.1241
925.40 0.1241
925.50 0.1241
925.60 0.124
925.70 0.124
925.80 0.124
925.90 0.124
926.00 0.1239
926.10 0.1239
926.20 0.1239
926.30 0.1238
926.40 0.1238
926.50 0.1238
926.60 0.1237
926.70 0.1237
926.80 0.1237
926.90 0.1236
927.00 0.1236
927.10 0.1237
927.20 0.1238
927.30 0.1239
927.40 0.124
927.50 0.1241
927.60 0.1242
927.70 0.1243
927.80 0.1244
927.90 0.1245
928.00 0.1246
928.10 0.1247
928.20 0.1248
928.30 0.1249
928.40 0.125
928.50 0.1251
928.60 0.1252
928.70 0.1253
928.80 0.1254
928.90 0.1255
929.00 0.1256
929.10 0.1257
929.20 0.1258
929.30 0.1259
929.40 0.126
929.50 0.1261
929.60 0.1262
929.70 0.1263
929.80 0.1264
929.90 0.1265
930.00 0.1266
930.10 0.1267
930.20 0.1268
930.30 0.1269
930.40 0.127
930.50 0.1271
930.60 0.1272
930.70 0.1273
930.80 0.1274
930.90 0.1275
931.00 0.1276
931.10 0.1277
931.20 0.1278
931.30 0.1279
931.40 0.128
931.50 0.1281
931.60 0.1282
931.70 0.1283
931.80 0.1284
931.90 0.1285
932.00 0.1286
932.10 0.1287
932.20 0.1287
932.30 0.1287
932.40 0.1287
932.50 0.1287
932.60 0.1288
932.70 0.1288
932.80 0.1288
932.90 0.1288
933.00 0.1289
933.10 0.1289
933.20 0.1289
933.30 0.1289
933.40 0.1289
933.50 0.129
933.60 0.129
933.70 0.129
933.80 0.129
933.90 0.1291
934.00 0.1291
934.10 0.1291
934.20 0.1291
934.30 0.1291
934.40 0.1291
934.50 0.1291
934.60 0.1291
934.70 0.1291
934.80 0.1291
934.90 0.1291
935.00 0.129
935.10 0.129
935.20 0.129
935.30 0.129
935.40 0.129
935.50 0.129
935.60 0.129
935.70 0.129
935.80 0.1289
935.90 0.1289
936.00 0.1289
936.10 0.1289
936.20 0.1289
936.30 0.1289
936.40 0.1289
936.50 0.1288
936.60 0.1288
936.70 0.1288
936.80 0.1288
936.90 0.1288
937.00 0.1288
937.10 0.1287
937.20 0.1287
937.30 0.1287
937.40 0.1286
937.50 0.1286
937.60 0.1286
937.70 0.1285
937.80 0.1285
937.90 0.1285
938.00 0.1284
938.10 0.1284
938.20 0.1283
938.30 0.1283
938.40 0.1283
938.50 0.1282
938.60 0.1281
938.70 0.1281
938.80 0.128
938.90 0.128
939.00 0.1279
939.10 0.1279
939.20 0.1278
939.30 0.1278
939.40 0.1277
939.50 0.1277
939.60 0.1276
939.70 0.1275
939.80 0.1275
939.90 0.1274
940.00 0.1274
940.10 0.1273
940.20 0.1273
940.30 0.1272
940.40 0.1271
940.50 0.1271
940.60 0.127
940.70 0.1269
940.80 0.1268
940.90 0.1268
941.00 0.1267
941.10 0.1266
941.20 0.1265
941.30 0.1264
941.40 0.1264
941.50 0.1263
941.60 0.1262
941.70 0.1261
941.80 0.1261
941.90 0.126
942.00 0.1259
942.10 0.1258
942.20 0.1257
942.30 0.1256
942.40 0.1255
942.50 0.1254
942.60 0.1253
942.70 0.1251
942.80 0.125
942.90 0.1249
943.00 0.1248
943.10 0.1247
943.20 0.1246
943.30 0.1244
943.40 0.1243
943.50 0.1242
943.60 0.1241
943.70 0.124
943.80 0.1239
943.90 0.1237
944.00 0.1236
944.10 0.1235
944.20 0.1234
944.30 0.1233
944.40 0.1231
944.50 0.123
944.60 0.1228
944.70 0.1227
944.80 0.1225
944.90 0.1224
945.00 0.1222
945.10 0.122
945.20 0.1219
945.30 0.1217
945.40 0.1215
945.50 0.1213
945.60 0.1211
945.70 0.1209
945.80 0.1207
945.90 0.1205
946.00 0.1203
946.10 0.1201
946.20 0.1199
946.30 0.1198
946.40 0.1196
946.50 0.1194
946.60 0.1192
946.70 0.119
946.80 0.1188
946.90 0.1186
947.00 0.1184
947.10 0.1181
947.20 0.1179
947.30 0.1177
947.40 0.1174
947.50 0.1171
947.60 0.1168
947.70 0.1166
947.80 0.1163
947.90 0.116
948.00 0.1157
948.10 0.1155
948.20 0.1152
948.30 0.1149
948.40 0.1147
948.50 0.1144
948.60 0.1141
948.70 0.1138
948.80 0.1136
948.90 0.1133
949.00 0.113
949.10 0.1128
949.20 0.1125
949.30 0.1122
949.40 0.1119
949.50 0.1116
949.60 0.1113
949.70 0.111
949.80 0.1107
949.90 0.1103
950.00 0.11
950.10 0.1097
950.20 0.1094
950.30 0.1091
950.40 0.1088
950.50 0.1085
950.60 0.1082
950.70 0.1078
950.80 0.1075
950.90 0.1072
951.00 0.1069
951.10 0.1066
951.20 0.1063
951.30 0.106
951.40 0.1057
951.50 0.1054
951.60 0.1051
951.70 0.1048
951.80 0.1045
951.90 0.1042
952.00 0.1039
952.10 0.1037
952.20 0.1035
952.30 0.1032
952.40 0.103
952.50 0.1027
952.60 0.1025
952.70 0.1022
952.80 0.102
952.90 0.1019
953.00 0.1018
953.10 0.1017
953.20 0.1015
953.30 0.1014
953.40 0.1013
953.50 0.1012
953.60 0.1015
953.70 0.1018
953.80 0.102
953.90 0.1023
954.00 0.1032
954.10 0.104
954.20 0.1051
954.30 0.1042
954.40 0.102
954.50 0.101
954.60 0.1003
954.70 0.09959
954.80 0.0993
954.90 0.099
955.00 0.09871
955.10 0.09841
955.20 0.09842
955.30 0.09844
955.40 0.09845
955.50 0.09846
955.60 0.09847
955.70 0.09848
955.80 0.09849
955.90 0.09864
956.00 0.09879
956.10 0.09894
956.20 0.09908
956.30 0.09923
956.40 0.09938
956.50 0.09952
956.60 0.09967
956.70 0.09982
956.80 0.09996
956.90 0.1001
957.00 0.1003
957.10 0.1004
957.20 0.1006
957.30 0.1008
957.40 0.1009
957.50 0.1011
957.60 0.1013
957.70 0.1015
957.80 0.1016
957.90 0.1018
958.00 0.102
958.10 0.1022
958.20 0.1023
958.30 0.1025
958.40 0.1027
958.50 0.1028
958.60 0.103
958.70 0.1032
958.80 0.1033
958.90 0.1035
959.00 0.1037
959.10 0.1039
959.20 0.104
959.30 0.1042
959.40 0.1043
959.50 0.1045
959.60 0.1046
959.70 0.1048
959.80 0.1049
959.90 0.1051
960.00 0.1052
960.10 0.1053
960.20 0.1055
960.30 0.1056
960.40 0.1058
960.50 0.1059
960.60 0.1061
960.70 0.1062
960.80 0.1063
960.90 0.1065
961.00 0.1066
961.10 0.1068
961.20 0.1069
961.30 0.1071
961.40 0.1072
961.50 0.1073
961.60 0.1074
961.70 0.1075
961.80 0.1076
961.90 0.1078
962.00 0.1079
962.10 0.108
962.20 0.1081
962.30 0.1082
962.40 0.1083
962.50 0.1084
962.60 0.1085
962.70 0.1086
962.80 0.1087
962.90 0.1088
963.00 0.1089
963.10 0.109
963.20 0.1091
963.30 0.1092
963.40 0.1093
963.50 0.1094
963.60 0.1094
963.70 0.1095
963.80 0.1096
963.90 0.1097
964.00 0.1098
964.10 0.1098
964.20 0.1099
964.30 0.11
964.40 0.1101
964.50 0.1101
964.60 0.1102
964.70 0.1103
964.80 0.1103
964.90 0.1104
965.00 0.1104
965.10 0.1105
965.20 0.1106
965.30 0.1106
965.40 0.1107
965.50 0.1107
965.60 0.1108
965.70 0.1109
965.80 0.1109
965.90 0.111
966.00 0.111
966.10 0.1111
966.20 0.1112
966.30 0.1112
966.40 0.1113
966.50 0.1113
966.60 0.1113
966.70 0.1114
966.80 0.1114
966.90 0.1115
967.00 0.1115
967.10 0.1116
967.20 0.1116
967.30 0.1116
967.40 0.1117
967.50 0.1117
967.60 0.1117
967.70 0.1117
967.80 0.1118
967.90 0.1118
968.00 0.1118
968.10 0.1119
968.20 0.1119
968.30 0.1119
968.40 0.112
968.50 0.112
968.60 0.112
968.70 0.112
968.80 0.112
968.90 0.112
969.00 0.1121
969.10 0.1121
969.20 0.1121
969.30 0.1121
969.40 0.1121
969.50 0.1121
969.60 0.1122
969.70 0.1122
969.80 0.1122
969.90 0.1122
970.00 0.1122
970.10 0.1122
970.20 0.1123
970.30 0.1123
970.40 0.1123
970.50 0.1123
970.60 0.1123
970.70 0.1123
970.80 0.1123
970.90 0.1123
971.00 0.1123
971.10 0.1123
971.20 0.1123
971.30 0.1123
971.40 0.1123
971.50 0.1123
971.60 0.1123
971.70 0.1123
971.80 0.1123
971.90 0.1123
972.00 0.1123
972.10 0.1123
972.20 0.1123
972.30 0.1123
972.40 0.1122
972.50 0.1122
972.60 0.1122
972.70 0.1122
972.80 0.1122
972.90 0.1122
973.00 0.1122
973.10 0.1122
973.20 0.1122
973.30 0.1121
973.40 0.1121
973.50 0.1121
973.60 0.1121
973.70 0.1121
973.80 0.1121
973.90 0.1121
974.00 0.1121
974.10 0.112
974.20 0.112
974.30 0.112
974.40 0.112
974.50 0.112
974.60 0.112
974.70 0.1119
974.80 0.1119
974.90 0.1119
975.00 0.1118
975.10 0.1118
975.20 0.1118
975.30 0.1118
975.40 0.1117
975.50 0.1117
975.60 0.1117
975.70 0.1117
975.80 0.1116
975.90 0.1116
976.00 0.1116
976.10 0.1116
976.20 0.1115
976.30 0.1115
976.40 0.1115
976.50 0.1115
976.60 0.1114
976.70 0.1114
976.80 0.1114
976.90 0.1114
977.00 0.1113
977.10 0.1113
977.20 0.1113
977.30 0.1112
977.40 0.1112
977.50 0.1111
977.60 0.1111
977.70 0.111
977.80 0.111
977.90 0.1109
978.00 0.1109
978.10 0.1109
978.20 0.1108
978.30 0.1108
978.40 0.1107
978.50 0.1107
978.60 0.1106
978.70 0.1106
978.80 0.1105
978.90 0.1105
979.00 0.1105
979.10 0.1104
979.20 0.1104
979.30 0.1103
979.40 0.1103
979.50 0.1102
979.60 0.1102
979.70 0.1102
979.80 0.1101
979.90 0.1101
980.00 0.11
980.10 0.11
980.20 0.1099
980.30 0.1099
980.40 0.1098
980.50 0.1098
980.60 0.1098
980.70 0.1097
980.80 0.1097
980.90 0.1096
981.00 0.1096
981.10 0.1095
981.20 0.1095
981.30 0.1094
981.40 0.1094
981.50 0.1094
981.60 0.1093
981.70 0.1093
981.80 0.1092
981.90 0.1092
982.00 0.1091
982.10 0.1091
982.20 0.109
982.30 0.109
982.40 0.1089
982.50 0.1088
982.60 0.1088
982.70 0.1087
982.80 0.1086
982.90 0.1086
983.00 0.1085
983.10 0.1085
983.20 0.1084
983.30 0.1083
983.40 0.1083
983.50 0.1082
983.60 0.1081
983.70 0.1081
983.80 0.108
983.90 0.108
984.00 0.1079
984.10 0.1078
984.20 0.1078
984.30 0.1077
984.40 0.1076
984.50 0.1076
984.60 0.1075
984.70 0.1074
984.80 0.1074
984.90 0.1073
985.00 0.1072
985.10 0.1071
985.20 0.1071
985.30 0.107
985.40 0.1069
985.50 0.1068
985.60 0.1068
985.70 0.1067
985.80 0.1066
985.90 0.1065
986.00 0.1064
986.10 0.1064
986.20 0.1063
986.30 0.1062
986.40 0.1061
986.50 0.1061
986.60 0.106
986.70 0.1059
986.80 0.1058
986.90 0.1058
987.00 0.1057
987.10 0.1056
987.20 0.1055
987.30 0.1054
987.40 0.1053
987.50 0.1052
987.60 0.1051
987.70 0.105
987.80 0.105
987.90 0.1049
988.00 0.1048
988.10 0.1047
988.20 0.1046
988.30 0.1045
988.40 0.1044
988.50 0.1043
988.60 0.1042
988.70 0.1041
988.80 0.104
988.90 0.1039
989.00 0.1038
989.10 0.1037
989.20 0.1036
989.30 0.1035
989.40 0.1034
989.50 0.1033
989.60 0.1032
989.70 0.1031
989.80 0.103
989.90 0.1029
990.00 0.1028
990.10 0.1027
990.20 0.1026
990.30 0.1025
990.40 0.1024
990.50 0.1023
990.60 0.1022
990.70 0.102
990.80 0.1019
990.90 0.1018
991.00 0.1017
991.10 0.1016
991.20 0.1014
991.30 0.1013
991.40 0.1012
991.50 0.1011
991.60 0.101
991.70 0.1008
991.80 0.1007
991.90 0.1006
992.00 0.1005
992.10 0.1003
992.20 0.1002
992.30 0.1001
992.40 0.09996
992.50 0.09983
992.60 0.0997
992.70 0.09956
992.80 0.09941
992.90 0.09927
993.00 0.09912
993.10 0.09898
993.20 0.09883
993.30 0.09869
993.40 0.09855
993.50 0.0984
993.60 0.09826
993.70 0.09811
993.80 0.09797
993.90 0.09783
994.00 0.09768
994.10 0.09754
994.20 0.09739
994.30 0.09725
994.40 0.09711
994.50 0.09696
994.60 0.09682
994.70 0.09666
994.80 0.0965
994.90 0.09634
995.00 0.09617
995.10 0.09601
995.20 0.09585
995.30 0.09569
995.40 0.09552
995.50 0.09536
995.60 0.0952
995.70 0.09503
995.80 0.09485
995.90 0.09467
996.00 0.09449
996.10 0.09431
996.20 0.09413
996.30 0.09395
996.40 0.09377
996.50 0.09359
996.60 0.09342
996.70 0.09324
996.80 0.09306
996.90 0.09288
997.00 0.0927
997.10 0.09251
997.20 0.09232
997.30 0.09212
997.40 0.09193
997.50 0.09174
997.60 0.09154
997.70 0.09133
997.80 0.09112
997.90 0.09091
998.00 0.09069
998.10 0.09048
998.20 0.09027
998.30 0.09005
998.40 0.08984
998.50 0.08963
998.60 0.08941
998.70 0.0892
998.80 0.08899
998.90 0.08877
999.00 0.08856
999.10 0.08835
999.20 0.08813
999.30 0.08792
999.40 0.08771
999.50 0.0875
999.60 0.08728
999.70 0.08705
999.80 0.08681
999.90 0.08656
1000.00 0.08632
1000.10 0.08608
1000.20 0.08584
1000.30 0.0856
1000.40 0.08535
1000.50 0.08511
1000.60 0.08487
1000.70 0.08463
1000.80 0.08439
1000.90 0.08415
1001.00 0.0839
1001.10 0.08366
1001.20 0.08342
1001.30 0.08318
1001.40 0.08294
1001.50 0.0827
1001.60 0.08246
1001.70 0.08221
1001.80 0.08196
1001.90 0.0817
1002.00 0.08145
1002.10 0.0812
1002.20 0.08095
1002.30 0.0807
1002.40 0.08045
1002.50 0.0802
1002.60 0.07995
1002.70 0.0797
1002.80 0.07945
1002.90 0.07921
1003.00 0.07896
1003.10 0.07871
1003.20 0.07848
1003.30 0.07826
1003.40 0.07805
1003.50 0.07783
1003.60 0.07761
1003.70 0.0774
1003.80 0.07718
1003.90 0.07705
1004.00 0.07695
1004.10 0.07685
1004.20 0.07675
1004.30 0.07691
1004.40 0.07715
1004.50 0.07767
1004.60 0.0785
1004.70 0.07805
1004.80 0.0772
1004.90 0.0769
1005.00 0.07661
1005.10 0.07658
1005.20 0.07663
1005.30 0.07668
1005.40 0.07673
1005.50 0.07687
1005.60 0.07703
1005.70 0.0772
1005.80 0.07737
1005.90 0.07753
1006.00 0.0777
1006.10 0.07786
1006.20 0.07805
1006.30 0.07824
1006.40 0.07844
1006.50 0.07863
1006.60 0.07883
1006.70 0.07902
1006.80 0.07921
1006.90 0.07941
1007.00 0.0796
1007.10 0.07979
1007.20 0.07999
1007.30 0.08018
1007.40 0.08038
1007.50 0.08057
1007.60 0.08077
1007.70 0.08095
1007.80 0.08113
1007.90 0.08131
1008.00 0.08149
1008.10 0.08167
1008.20 0.08185
1008.30 0.08203
1008.40 0.08221
1008.50 0.08239
1008.60 0.08257
1008.70 0.08275
1008.80 0.08292
1008.90 0.0831
1009.00 0.08328
1009.10 0.08346
1009.20 0.08364
1009.30 0.08382
1009.40 0.084
1009.50 0.08418
1009.60 0.08435
1009.70 0.08451
1009.80 0.08465
1009.90 0.0848
1010.00 0.08495
1010.10 0.08509
1010.20 0.08524
1010.30 0.08538
1010.40 0.08553
1010.50 0.08567
1010.60 0.08582
1010.70 0.08596
1010.80 0.08611
1010.90 0.08625
1011.00 0.0864
1011.10 0.08655
1011.20 0.08669
1011.30 0.08684
1011.40 0.08698
1011.50 0.08713
1011.60 0.08727
1011.70 0.0874
1011.80 0.08753
1011.90 0.08765
1012.00 0.08778
1012.10 0.08788
1012.20 0.08799
1012.30 0.0881
1012.40 0.08821
1012.50 0.08832
1012.60 0.08843
1012.70 0.08854
1012.80 0.08865
1012.90 0.08876
1013.00 0.08886
1013.10 0.08897
1013.20 0.08908
1013.30 0.08919
1013.40 0.0893
1013.50 0.08941
1013.60 0.08952
1013.70 0.08961
1013.80 0.0897
1013.90 0.08979
1014.00 0.08988
1014.10 0.08997
1014.20 0.09006
1014.30 0.09015
1014.40 0.09024
1014.50 0.09033
1014.60 0.09041
1014.70 0.09049
1014.80 0.09056
1014.90 0.09063
1015.00 0.0907
1015.10 0.09077
1015.20 0.09084
1015.30 0.09091
1015.40 0.09098
1015.50 0.09105
1015.60 0.09112
1015.70 0.09119
1015.80 0.09126
1015.90 0.09133
1016.00 0.0914
1016.10 0.09147
1016.20 0.09154
1016.30 0.09161
1016.40 0.09168
1016.50 0.09175
1016.60 0.09182
1016.70 0.09188
1016.80 0.09194
1016.90 0.09199
1017.00 0.09205
1017.10 0.0921
1017.20 0.09215
1017.30 0.09219
1017.40 0.09224
1017.50 0.09229
1017.60 0.09233
1017.70 0.09238
1017.80 0.09243
1017.90 0.09247
1018.00 0.09252
1018.10 0.09257
1018.20 0.09261
1018.30 0.09266
1018.40 0.09271
1018.50 0.09275
1018.60 0.0928
1018.70 0.09284
1018.80 0.09287
1018.90 0.0929
1019.00 0.09293
1019.10 0.09296
1019.20 0.093
1019.30 0.09303
1019.40 0.09306
1019.50 0.09309
1019.60 0.09312
1019.70 0.09316
1019.80 0.09319
1019.90 0.09322
1020.00 0.09325
1020.10 0.09328
1020.20 0.09332
1020.30 0.09335
1020.40 0.09338
1020.50 0.09341
1020.60 0.09344
1020.70 0.09347
1020.80 0.09349
1020.90 0.0935
1021.00 0.09352
1021.10 0.09354
1021.20 0.09356
1021.30 0.09358
1021.40 0.0936
1021.50 0.09362
1021.60 0.09364
1021.70 0.09366
1021.80 0.09368
1021.90 0.0937
1022.00 0.09372
1022.10 0.09373
1022.20 0.09373
1022.30 0.09374
1022.40 0.09375
1022.50 0.09376
1022.60 0.09377
1022.70 0.09378
1022.80 0.09379
1022.90 0.09379
1023.00 0.0938
1023.10 0.09381
1023.20 0.09382
1023.30 0.09383
1023.40 0.09384
1023.50 0.09385
1023.60 0.09385
1023.70 0.09386
1023.80 0.09387
1023.90 0.09388
1024.00 0.09389
1024.10 0.0939
1024.20 0.09391
1024.30 0.09391
1024.40 0.09392
1024.50 0.09393
1024.60 0.09394
1024.70 0.09394
1024.80 0.09394
1024.90 0.09394
1025.00 0.09393
1025.10 0.09393
1025.20 0.09393
1025.30 0.09393
1025.40 0.09393
1025.50 0.09392
1025.60 0.09392
1025.70 0.09392
1025.80 0.09392
1025.90 0.09392
1026.00 0.09391
1026.10 0.09391
1026.20 0.09391
1026.30 0.09391
1026.40 0.09391
1026.50 0.0939
1026.60 0.0939
1026.70 0.0939
1026.80 0.0939
1026.90 0.0939
1027.00 0.09389
1027.10 0.09388
1027.20 0.09387
1027.30 0.09386
1027.40 0.09384
1027.50 0.09383
1027.60 0.09382
1027.70 0.0938
1027.80 0.09379
1027.90 0.09378
1028.00 0.09377
1028.10 0.09375
1028.20 0.09374
1028.30 0.09373
1028.40 0.09371
1028.50 0.0937
1028.60 0.09369
1028.70 0.09368
1028.80 0.09366
1028.90 0.09365
1029.00 0.09364
1029.10 0.09362
1029.20 0.09361
1029.30 0.0936
1029.40 0.09359
1029.50 0.09357
1029.60 0.09356
1029.70 0.09355
1029.80 0.09354
1029.90 0.09352
1030.00 0.09351
1030.10 0.0935
1030.20 0.09348
1030.30 0.09347
1030.40 0.09346
1030.50 0.09345
1030.60 0.09343
1030.70 0.09342
1030.80 0.09341
1030.90 0.09339
1031.00 0.09338
1031.10 0.09337
1031.20 0.09336
1031.30 0.09334
1031.40 0.09333
1031.50 0.09332
1031.60 0.09331
1031.70 0.09329
1031.80 0.09328
1031.90 0.09327
1032.00 0.09326
1032.10 0.09323
1032.20 0.09321
1032.30 0.09319
1032.40 0.09317
1032.50 0.09315
1032.60 0.09313
1032.70 0.0931
1032.80 0.09308
1032.90 0.09306
1033.00 0.09304
1033.10 0.09302
1033.20 0.093
1033.30 0.09298
1033.40 0.09295
1033.50 0.09293
1033.60 0.09291
1033.70 0.09289
1033.80 0.09287
1033.90 0.09285
1034.00 0.09283
1034.10 0.0928
1034.20 0.09278
1034.30 0.09276
1034.40 0.09274
1034.50 0.09272
1034.60 0.0927
1034.70 0.09268
1034.80 0.09265
1034.90 0.09263
1035.00 0.09261
1035.10 0.09259
1035.20 0.09257
1035.30 0.09255
1035.40 0.09253
1035.50 0.09251
1035.60 0.09248
1035.70 0.09246
1035.80 0.09244
1035.90 0.09242
1036.00 0.0924
1036.10 0.09238
1036.20 0.09236
1036.30 0.09234
1036.40 0.09231
1036.50 0.09229
1036.60 0.09227
1036.70 0.09225
1036.80 0.09223
1036.90 0.09221
1037.00 0.09219
1037.10 0.09216
1037.20 0.09213
1037.30 0.09211
1037.40 0.09208
1037.50 0.09206
1037.60 0.09203
1037.70 0.092
1037.80 0.09198
1037.90 0.09195
1038.00 0.09192
1038.10 0.0919
1038.20 0.09187
1038.30 0.09185
1038.40 0.09182
1038.50 0.09179
1038.60 0.09177
1038.70 0.09174
1038.80 0.09171
1038.90 0.09169
1039.00 0.09166
1039.10 0.09164
1039.20 0.09161
1039.30 0.09158
1039.40 0.09156
1039.50 0.09153
1039.60 0.09151
1039.70 0.09148
1039.80 0.09145
1039.90 0.09143
1040.00 0.0914
1040.10 0.09137
1040.20 0.09135
1040.30 0.09132
1040.40 0.0913
1040.50 0.09127
1040.60 0.09124
1040.70 0.09122
1040.80 0.09119
1040.90 0.09117
1041.00 0.09114
1041.10 0.09111
1041.20 0.09109
1041.30 0.09106
1041.40 0.09104
1041.50 0.09101
1041.60 0.09098
1041.70 0.09096
1041.80 0.09093
1041.90 0.09091
1042.00 0.09088
1042.10 0.09085
1042.20 0.09082
1042.30 0.09079
1042.40 0.09076
1042.50 0.09074
1042.60 0.09071
1042.70 0.09068
1042.80 0.09065
1042.90 0.09062
1043.00 0.09059
1043.10 0.09056
1043.20 0.09053
1043.30 0.0905
1043.40 0.09047
1043.50 0.09044
1043.60 0.09042
1043.70 0.09039
1043.80 0.09036
1043.90 0.09033
1044.00 0.0903
1044.10 0.09027
1044.20 0.09024
1044.30 0.09021
1044.40 0.09018
1044.50 0.09015
1044.60 0.09013
1044.70 0.0901
1044.80 0.09007
1044.90 0.09004
1045.00 0.09001
1045.10 0.08998
1045.20 0.08995
1045.30 0.08992
1045.40 0.08989
1045.50 0.08987
1045.60 0.08984
1045.70 0.08981
1045.80 0.08978
1045.90 0.08975
1046.00 0.08972
1046.10 0.08969
1046.20 0.08966
1046.30 0.08964
1046.40 0.08961
1046.50 0.08958
1046.60 0.08955
1046.70 0.08952
1046.80 0.08949
1046.90 0.08946
1047.00 0.08943
1047.10 0.0894
1047.20 0.08937
1047.30 0.08934
1047.40 0.08931
1047.50 0.08928
1047.60 0.08925
1047.70 0.08922
1047.80 0.08919
1047.90 0.08915
1048.00 0.08912
1048.10 0.08909
1048.20 0.08906
1048.30 0.08903
1048.40 0.089
1048.50 0.08897
1048.60 0.08894
1048.70 0.08891
1048.80 0.08888
1048.90 0.08885
1049.00 0.08881
1049.10 0.08878
1049.20 0.08875
1049.30 0.08872
1049.40 0.08869
1049.50 0.08866
1049.60 0.08863
1049.70 0.0886
1049.80 0.08857
1049.90 0.08854
1050.00 0.08851
1050.10 0.08848
1050.20 0.08844
1050.30 0.08841
1050.40 0.08838
1050.50 0.08835
1050.60 0.08832
1050.70 0.08829
1050.80 0.08826
1050.90 0.08823
1051.00 0.0882
1051.10 0.08817
1051.20 0.08814
1051.30 0.08811
1051.40 0.08808
1051.50 0.08804
1051.60 0.08801
1051.70 0.08798
1051.80 0.08795
1051.90 0.08792
1052.00 0.08789
1052.10 0.08786
1052.20 0.08783
1052.30 0.08779
1052.40 0.08776
1052.50 0.08773
1052.60 0.08769
1052.70 0.08766
1052.80 0.08763
1052.90 0.08759
1053.00 0.08756
1053.10 0.08753
1053.20 0.08749
1053.30 0.08746
1053.40 0.08743
1053.50 0.0874
1053.60 0.08736
1053.70 0.08733
1053.80 0.0873
1053.90 0.08726
1054.00 0.08723
1054.10 0.0872
1054.20 0.08717
1054.30 0.08713
1054.40 0.0871
1054.50 0.08707
1054.60 0.08703
1054.70 0.087
1054.80 0.08697
1054.90 0.08694
1055.00 0.0869
1055.10 0.08687
1055.20 0.08684
1055.30 0.0868
1055.40 0.08677
1055.50 0.08674
1055.60 0.08671
1055.70 0.08667
1055.80 0.08664
1055.90 0.08661
1056.00 0.08657
1056.10 0.08654
1056.20 0.08651
1056.30 0.08648
1056.40 0.08644
1056.50 0.08641
1056.60 0.08638
1056.70 0.08635
1056.80 0.08631
1056.90 0.08628
1057.00 0.08625
1057.10 0.08621
1057.20 0.08618
1057.30 0.08614
1057.40 0.0861
1057.50 0.08607
1057.60 0.08603
1057.70 0.086
1057.80 0.08596
1057.90 0.08593
1058.00 0.08589
1058.10 0.08585
1058.20 0.08582
1058.30 0.08578
1058.40 0.08575
1058.50 0.08571
1058.60 0.08568
1058.70 0.08564
1058.80 0.0856
1058.90 0.08557
1059.00 0.08553
1059.10 0.0855
1059.20 0.08546
1059.30 0.08543
1059.40 0.08539
1059.50 0.08535
1059.60 0.08532
1059.70 0.08528
1059.80 0.08525
1059.90 0.08521
1060.00 0.08518
1060.10 0.08514
1060.20 0.08511
1060.30 0.08507
1060.40 0.08503
1060.50 0.085
1060.60 0.08496
1060.70 0.08493
1060.80 0.08489
1060.90 0.08486
1061.00 0.08482
1061.10 0.08479
1061.20 0.08475
1061.30 0.08472
1061.40 0.08468
1061.50 0.08465
1061.60 0.08461
1061.70 0.08457
1061.80 0.08454
1061.90 0.0845
1062.00 0.08447
1062.10 0.08443
1062.20 0.08439
1062.30 0.08435
1062.40 0.08431
1062.50 0.08427
1062.60 0.08423
1062.70 0.08419
1062.80 0.08415
1062.90 0.08411
1063.00 0.08407
1063.10 0.08403
1063.20 0.08399
1063.30 0.08395
1063.40 0.08391
1063.50 0.08387
1063.60 0.08383
1063.70 0.08379
1063.80 0.08376
1063.90 0.08372
1064.00 0.08368
1064.10 0.08364
1064.20 0.0836
1064.30 0.08356
1064.40 0.08352
1064.50 0.08348
1064.60 0.08344
1064.70 0.0834
1064.80 0.08336
1064.90 0.08332
1065.00 0.08328
1065.10 0.08324
1065.20 0.0832
1065.30 0.08316
1065.40 0.08313
1065.50 0.08309
1065.60 0.08305
1065.70 0.08301
1065.80 0.08297
1065.90 0.08293
1066.00 0.08289
1066.10 0.08285
1066.20 0.08281
1066.30 0.08277
1066.40 0.08273
1066.50 0.08269
1066.60 0.08265
1066.70 0.08262
1066.80 0.08258
1066.90 0.08254
1067.00 0.0825
1067.10 0.08245
1067.20 0.0824
1067.30 0.08235
1067.40 0.08231
1067.50 0.08226
1067.60 0.08221
1067.70 0.08216
1067.80 0.08211
1067.90 0.08207
1068.00 0.08202
1068.10 0.08197
1068.20 0.08192
1068.30 0.08187
1068.40 0.08183
1068.50 0.08178
1068.60 0.08173
1068.70 0.08168
1068.80 0.08163
1068.90 0.08159
1069.00 0.08154
1069.10 0.08149
1069.20 0.08144
1069.30 0.08139
1069.40 0.08135
1069.50 0.0813
1069.60 0.08125
1069.70 0.0812
1069.80 0.08116
1069.90 0.08111
1070.00 0.08106
1070.10 0.08101
1070.20 0.08097
1070.30 0.08092
1070.40 0.08087
1070.50 0.08082
1070.60 0.08077
1070.70 0.08073
1070.80 0.08068
1070.90 0.08063
1071.00 0.08058
1071.10 0.08054
1071.20 0.08049
1071.30 0.08044
1071.40 0.08039
1071.50 0.08035
1071.60 0.0803
1071.70 0.08025
1071.80 0.0802
1071.90 0.08016
1072.00 0.08011
1072.10 0.08006
1072.20 0.08
1072.30 0.07995
1072.40 0.07989
1072.50 0.07984
1072.60 0.07978
1072.70 0.07973
1072.80 0.07968
1072.90 0.07962
1073.00 0.07957
1073.10 0.07951
1073.20 0.07946
1073.30 0.0794
1073.40 0.07935
1073.50 0.07929
1073.60 0.07923
1073.70 0.07917
1073.80 0.0791
1073.90 0.07904
1074.00 0.07898
1074.10 0.07891
1074.20 0.07885
1074.30 0.07879
1074.40 0.07872
1074.50 0.07866
1074.60 0.0786
1074.70 0.07853
1074.80 0.07847
1074.90 0.07841
1075.00 0.07834
1075.10 0.07828
1075.20 0.07822
1075.30 0.07816
1075.40 0.07809
1075.50 0.07803
1075.60 0.07797
1075.70 0.0779
1075.80 0.07784
1075.90 0.07778
1076.00 0.07772
1076.10 0.07765
1076.20 0.07759
1076.30 0.07753
1076.40 0.07746
1076.50 0.0774
1076.60 0.07734
1076.70 0.07728
1076.80 0.07721
1076.90 0.07715
1077.00 0.07709
1077.10 0.07701
1077.20 0.07694
1077.30 0.07687
1077.40 0.07679
1077.50 0.07672
1077.60 0.07664
1077.70 0.07656
1077.80 0.07648
1077.90 0.07641
1078.00 0.07633
1078.10 0.07625
1078.20 0.07617
1078.30 0.0761
1078.40 0.07602
1078.50 0.07594
1078.60 0.07586
1078.70 0.07579
1078.80 0.07571
1078.90 0.07563
1079.00 0.07555
1079.10 0.07548
1079.20 0.0754
1079.30 0.07532
1079.40 0.07525
1079.50 0.07516
1079.60 0.07507
1079.70 0.07499
1079.80 0.0749
1079.90 0.07481
1080.00 0.07472
1080.10 0.07463
1080.20 0.07454
1080.30 0.07445
1080.40 0.07436
1080.50 0.07427
1080.60 0.07418
1080.70 0.07409
1080.80 0.07401
1080.90 0.07392
1081.00 0.07383
1081.10 0.07374
1081.20 0.07365
1081.30 0.07356
1081.40 0.07347
1081.50 0.07338
1081.60 0.07328
1081.70 0.07319
1081.80 0.07309
1081.90 0.07299
1082.00 0.0729
1082.10 0.07279
1082.20 0.07268
1082.30 0.07258
1082.40 0.07247
1082.50 0.07237
1082.60 0.07226
1082.70 0.07215
1082.80 0.07205
1082.90 0.07194
1083.00 0.07184
1083.10 0.07173
1083.20 0.07162
1083.30 0.07152
1083.40 0.07141
1083.50 0.0713
1083.60 0.07119
1083.70 0.07107
1083.80 0.07095
1083.90 0.07084
1084.00 0.07072
1084.10 0.0706
1084.20 0.07049
1084.30 0.07037
1084.40 0.07026
1084.50 0.07013
1084.60 0.07
1084.70 0.06987
1084.80 0.06974
1084.90 0.0696
1085.00 0.06947
1085.10 0.06934
1085.20 0.06921
1085.30 0.06908
1085.40 0.06894
1085.50 0.06881
1085.60 0.06868
1085.70 0.06855
1085.80 0.06842
1085.90 0.06829
1086.00 0.06815
1086.10 0.06802
1086.20 0.06789
1086.30 0.06776
1086.40 0.06763
1086.50 0.06749
1086.60 0.06735
1086.70 0.0672
1086.80 0.06706
1086.90 0.06691
1087.00 0.06677
1087.10 0.06661
1087.20 0.06645
1087.30 0.06629
1087.40 0.06613
1087.50 0.06598
1087.60 0.06582
1087.70 0.06566
1087.80 0.0655
1087.90 0.06534
1088.00 0.06519
1088.10 0.06503
1088.20 0.06487
1088.30 0.06471
1088.40 0.06456
1088.50 0.06439
1088.60 0.06421
1088.70 0.06403
1088.80 0.06385
1088.90 0.06367
1089.00 0.06349
1089.10 0.06331
1089.20 0.06313
1089.30 0.06295
1089.40 0.06277
1089.50 0.0626
1089.60 0.06242
1089.70 0.06224
1089.80 0.06206
1089.90 0.06188
1090.00 0.0617
1090.10 0.06152
1090.20 0.06134
1090.30 0.06116
1090.40 0.06098
1090.50 0.0608
1090.60 0.06059
1090.70 0.06039
1090.80 0.06018
1090.90 0.05998
1091.00 0.05978
1091.10 0.05957
1091.20 0.05937
1091.30 0.05916
1091.40 0.05896
1091.50 0.05876
1091.60 0.05855
1091.70 0.05835
1091.80 0.05815
1091.90 0.05794
1092.00 0.05773
1092.10 0.0575
1092.20 0.05727
1092.30 0.05703
1092.40 0.0568
1092.50 0.05656
1092.60 0.05633
1092.70 0.05609
1092.80 0.05584
1092.90 0.05559
1093.00 0.05534
1093.10 0.05512
1093.20 0.05496
1093.30 0.05482
1093.40 0.05505
1093.50 0.05525
1093.60 0.0548
1093.70 0.05483
1093.80 0.05496
1093.90 0.05511
1094.00 0.05533
1094.10 0.05554
1094.20 0.05576
1094.30 0.05597
1094.40 0.05617
1094.50 0.05636
1094.60 0.05656
1094.70 0.05676
1094.80 0.05695
1094.90 0.05715
1095.00 0.05734
1095.10 0.0575
1095.20 0.05767
1095.30 0.05783
1095.40 0.058
1095.50 0.05816
1095.60 0.05833
1095.70 0.05849
1095.80 0.05866
1095.90 0.05882
1096.00 0.05899
1096.10 0.05915
1096.20 0.05932
1096.30 0.05948
1096.40 0.05965
1096.50 0.0598
1096.60 0.05995
1096.70 0.0601
1096.80 0.06025
1096.90 0.06039
1097.00 0.06054
1097.10 0.06067
1097.20 0.0608
1097.30 0.06094
1097.40 0.06107
1097.50 0.0612
1097.60 0.06133
1097.70 0.06146
1097.80 0.0616
1097.90 0.06173
1098.00 0.06186
1098.10 0.06199
1098.20 0.06212
1098.30 0.06225
1098.40 0.06239
1098.50 0.06251
1098.60 0.06262
1098.70 0.06273
1098.80 0.06283
1098.90 0.06294
1099.00 0.06305
1099.10 0.06316
1099.20 0.06326
1099.30 0.06337
1099.40 0.06348
1099.50 0.06359
1099.60 0.06369
1099.70 0.0638
1099.80 0.06391
1099.90 0.06402
1100.00 0.06412
1100.10 0.06423
1100.20 0.06434
1100.30 0.06445
1100.40 0.06455
1100.50 0.06465
1100.60 0.06474
1100.70 0.06482
1100.80 0.06491
1100.90 0.06499
1101.00 0.06508
1101.10 0.06516
1101.20 0.06525
1101.30 0.06533
1101.40 0.06542
1101.50 0.0655
1101.60 0.06559
1101.70 0.06567
1101.80 0.06576
1101.90 0.06584
1102.00 0.06593
1102.10 0.066
1102.20 0.06607
1102.30 0.06615
1102.40 0.06622
1102.50 0.06629
1102.60 0.06636
1102.70 0.06642
1102.80 0.06649
1102.90 0.06655
1103.00 0.06662
1103.10 0.06669
1103.20 0.06675
1103.30 0.06682
1103.40 0.06688
1103.50 0.06694
1103.60 0.06699
1103.70 0.06705
1103.80 0.0671
1103.90 0.06715
1104.00 0.0672
1104.10 0.06725
1104.20 0.0673
1104.30 0.06736
1104.40 0.06741
1104.50 0.06746
1104.60 0.06751
1104.70 0.06756
1104.80 0.06761
1104.90 0.06766
1105.00 0.06772
1105.10 0.06777
1105.20 0.06782
1105.30 0.06787
1105.40 0.06792
1105.50 0.06797
1105.60 0.06801
1105.70 0.06804
1105.80 0.06808
1105.90 0.06812
1106.00 0.06816
1106.10 0.0682
1106.20 0.06823
1106.30 0.06827
1106.40 0.06831
1106.50 0.06835
1106.60 0.06839
1106.70 0.06842
1106.80 0.06846
1106.90 0.0685
1107.00 0.06854
1107.10 0.06857
1107.20 0.0686
1107.30 0.06863
1107.40 0.06866
1107.50 0.06869
1107.60 0.06871
1107.70 0.06874
1107.80 0.06876
1107.90 0.06878
1108.00 0.06881
1108.10 0.06883
1108.20 0.06886
1108.30 0.06888
1108.40 0.0689
1108.50 0.06893
1108.60 0.06895
1108.70 0.06898
1108.80 0.069
1108.90 0.06902
1109.00 0.06905
1109.10 0.06907
1109.20 0.0691
1109.30 0.06912
1109.40 0.06914
1109.50 0.06916
1109.60 0.06918
1109.70 0.06919
1109.80 0.0692
1109.90 0.06922
1110.00 0.06923
1110.10 0.06924
1110.20 0.06926
1110.30 0.06927
1110.40 0.06928
1110.50 0.0693
1110.60 0.06931
1110.70 0.06932
1110.80 0.06934
1110.90 0.06935
1111.00 0.06936
1111.10 0.06938
1111.20 0.06939
1111.30 0.0694
1111.40 0.06941
1111.50 0.06943
1111.60 0.06944
1111.70 0.06945
1111.80 0.06947
1111.90 0.06948
1112.00 0.06949
1112.10 0.0695
1112.20 0.06951
1112.30 0.06951
1112.40 0.06952
1112.50 0.06952
1112.60 0.06953
1112.70 0.06954
1112.80 0.06954
1112.90 0.06955
1113.00 0.06956
1113.10 0.06956
1113.20 0.06957
1113.30 0.06957
1113.40 0.06958
1113.50 0.06958
1113.60 0.06958
1113.70 0.06958
1113.80 0.06958
1113.90 0.06958
1114.00 0.06958
1114.10 0.06958
1114.20 0.06958
1114.30 0.06957
1114.40 0.06957
1114.50 0.06957
1114.60 0.06957
1114.70 0.06957
1114.80 0.06957
1114.90 0.06957
1115.00 0.06957
1115.10 0.06956
1115.20 0.06956
1115.30 0.06956
1115.40 0.06956
1115.50 0.06956
1115.60 0.06956
1115.70 0.06956
1115.80 0.06955
1115.90 0.06955
1116.00 0.06955
1116.10 0.06955
1116.20 0.06955
1116.30 0.06955
1116.40 0.06955
1116.50 0.06955
1116.60 0.06954
1116.70 0.06954
1116.80 0.06954
1116.90 0.06954
1117.00 0.06954
1117.10 0.06953
1117.20 0.06952
1117.30 0.06951
1117.40 0.0695
1117.50 0.06949
1117.60 0.06948
1117.70 0.06947
1117.80 0.06946
1117.90 0.06945
1118.00 0.06945
1118.10 0.06944
1118.20 0.06943
1118.30 0.06942
1118.40 0.06941
1118.50 0.0694
1118.60 0.06939
1118.70 0.06938
1118.80 0.06937
1118.90 0.06936
1119.00 0.06935
1119.10 0.06934
1119.20 0.06933
1119.30 0.06932
1119.40 0.06931
1119.50 0.0693
1119.60 0.06929
1119.70 0.06929
1119.80 0.06928
1119.90 0.06927
1120.00 0.06926
1120.10 0.06925
1120.20 0.06924
1120.30 0.06923
1120.40 0.06922
1120.50 0.06921
1120.60 0.0692
1120.70 0.06919
1120.80 0.06918
1120.90 0.06917
1121.00 0.06916
1121.10 0.06915
1121.20 0.06915
1121.30 0.06914
1121.40 0.06913
1121.50 0.06912
1121.60 0.06911
1121.70 0.0691
1121.80 0.06909
1121.90 0.06908
1122.00 0.06907
1122.10 0.06906
1122.20 0.06904
1122.30 0.06903
1122.40 0.06901
1122.50 0.069
1122.60 0.06898
1122.70 0.06897
1122.80 0.06895
1122.90 0.06894
1123.00 0.06892
1123.10 0.06891
1123.20 0.06889
1123.30 0.06888
1123.40 0.06886
1123.50 0.06885
1123.60 0.06884
1123.70 0.06882
1123.80 0.06881
1123.90 0.06879
1124.00 0.06878
1124.10 0.06876
1124.20 0.06875
1124.30 0.06873
1124.40 0.06872
1124.50 0.0687
1124.60 0.06869
1124.70 0.06867
1124.80 0.06866
1124.90 0.06864
1125.00 0.06863
1125.10 0.06861
1125.20 0.0686
1125.30 0.06859
1125.40 0.06857
1125.50 0.06856
1125.60 0.06854
1125.70 0.06853
1125.80 0.06851
1125.90 0.0685
1126.00 0.06848
1126.10 0.06847
1126.20 0.06845
1126.30 0.06844
1126.40 0.06842
1126.50 0.06841
1126.60 0.0684
1126.70 0.06838
1126.80 0.06837
1126.90 0.06835
1127.00 0.06834
1127.10 0.06832
1127.20 0.0683
1127.30 0.06828
1127.40 0.06827
1127.50 0.06825
1127.60 0.06823
1127.70 0.06821
1127.80 0.0682
1127.90 0.06818
1128.00 0.06816
1128.10 0.06814
1128.20 0.06812
1128.30 0.06811
1128.40 0.06809
1128.50 0.06807
1128.60 0.06805
1128.70 0.06804
1128.80 0.06802
1128.90 0.068
1129.00 0.06798
1129.10 0.06797
1129.20 0.06795
1129.30 0.06793
1129.40 0.06791
1129.50 0.06789
1129.60 0.06788
1129.70 0.06786
1129.80 0.06784
1129.90 0.06782
1130.00 0.06781
1130.10 0.06779
1130.20 0.06777
1130.30 0.06775
1130.40 0.06774
1130.50 0.06772
1130.60 0.0677
1130.70 0.06768
1130.80 0.06767
1130.90 0.06765
1131.00 0.06763
1131.10 0.06761
1131.20 0.0676
1131.30 0.06758
1131.40 0.06756
1131.50 0.06754
1131.60 0.06752
1131.70 0.06751
1131.80 0.06749
1131.90 0.06747
1132.00 0.06745
1132.10 0.06744
1132.20 0.06742
1132.30 0.0674
1132.40 0.06738
1132.50 0.06736
1132.60 0.06734
1132.70 0.06732
1132.80 0.0673
1132.90 0.06728
1133.00 0.06727
1133.10 0.06725
1133.20 0.06723
1133.30 0.06721
1133.40 0.06719
1133.50 0.06717
1133.60 0.06715
1133.70 0.06713
1133.80 0.06711
1133.90 0.0671
1134.00 0.06708
1134.10 0.06706
1134.20 0.06704
1134.30 0.06702
1134.40 0.067
1134.50 0.06698
1134.60 0.06696
1134.70 0.06695
1134.80 0.06693
1134.90 0.06691
1135.00 0.06689
1135.10 0.06687
1135.20 0.06685
1135.30 0.06683
1135.40 0.06681
1135.50 0.0668
1135.60 0.06678
1135.70 0.06676
1135.80 0.06674
1135.90 0.06672
1136.00 0.0667
1136.10 0.06668
1136.20 0.06666
1136.30 0.06665
1136.40 0.06663
1136.50 0.06661
1136.60 0.06659
1136.70 0.06657
1136.80 0.06655
1136.90 0.06653
1137.00 0.06651
1137.10 0.06649
1137.20 0.06648
1137.30 0.06646
1137.40 0.06644
1137.50 0.06642
1137.60 0.0664
1137.70 0.06638
1137.80 0.06636
1137.90 0.06634
1138.00 0.06632
1138.10 0.0663
1138.20 0.06628
1138.30 0.06626
1138.40 0.06624
1138.50 0.06622
1138.60 0.0662
1138.70 0.06618
1138.80 0.06616
1138.90 0.06614
1139.00 0.06612
1139.10 0.0661
1139.20 0.06608
1139.30 0.06606
1139.40 0.06604
1139.50 0.06602
1139.60 0.066
1139.70 0.06599
1139.80 0.06597
1139.90 0.06595
1140.00 0.06593
1140.10 0.06591
1140.20 0.06589
1140.30 0.06587
1140.40 0.06585
1140.50 0.06583
1140.60 0.06581
1140.70 0.06579
1140.80 0.06577
1140.90 0.06575
1141.00 0.06573
1141.10 0.06571
1141.20 0.06569
1141.30 0.06567
1141.40 0.06565
1141.50 0.06563
1141.60 0.06562
1141.70 0.0656
1141.80 0.06558
1141.90 0.06556
1142.00 0.06554
1142.10 0.06552
1142.20 0.0655
1142.30 0.06548
1142.40 0.06546
1142.50 0.06544
1142.60 0.06542
1142.70 0.0654
1142.80 0.06538
1142.90 0.06536
1143.00 0.06534
1143.10 0.06532
1143.20 0.0653
1143.30 0.06528
1143.40 0.06526
1143.50 0.06524
1143.60 0.06522
1143.70 0.0652
1143.80 0.06518
1143.90 0.06516
1144.00 0.06514
1144.10 0.06512
1144.20 0.0651
1144.30 0.06508
1144.40 0.06506
1144.50 0.06504
1144.60 0.06502
1144.70 0.065
1144.80 0.06498
1144.90 0.06496
1145.00 0.06494
1145.10 0.06493
1145.20 0.06491
1145.30 0.06489
1145.40 0.06487
1145.50 0.06485
1145.60 0.06483
1145.70 0.06481
1145.80 0.06479
1145.90 0.06477
1146.00 0.06475
1146.10 0.06473
1146.20 0.06471
1146.30 0.06469
1146.40 0.06467
1146.50 0.06465
1146.60 0.06463
1146.70 0.06461
1146.80 0.06459
1146.90 0.06457
1147.00 0.06455
1147.10 0.06453
1147.20 0.06451
1147.30 0.06449
1147.40 0.06447
1147.50 0.06445
1147.60 0.06443
1147.70 0.06441
1147.80 0.06439
1147.90 0.06437
1148.00 0.06435
1148.10 0.06433
1148.20 0.06431
1148.30 0.06429
1148.40 0.06427
1148.50 0.06425
1148.60 0.06424
1148.70 0.06422
1148.80 0.0642
1148.90 0.06418
1149.00 0.06416
1149.10 0.06414
1149.20 0.06412
1149.30 0.0641
1149.40 0.06408
1149.50 0.06406
1149.60 0.06404
1149.70 0.06402
1149.80 0.064
1149.90 0.06398
1150.00 0.06396
1150.10 0.06394
1150.20 0.06392
1150.30 0.0639
1150.40 0.06388
1150.50 0.06386
1150.60 0.06384
1150.70 0.06382
1150.80 0.0638
1150.90 0.06378
1151.00 0.06376
1151.10 0.06374
1151.20 0.06372
1151.30 0.0637
1151.40 0.06368
1151.50 0.06366
1151.60 0.06364
1151.70 0.06362
1151.80 0.0636
1151.90 0.06358
1152.00 0.06357
1152.10 0.06355
1152.20 0.06353
1152.30 0.06351
1152.40 0.06349
1152.50 0.06347
1152.60 0.06345
1152.70 0.06343
1152.80 0.06341
1152.90 0.06339
1153.00 0.06337
1153.10 0.06335
1153.20 0.06333
1153.30 0.06331
1153.40 0.06329
1153.50 0.06327
1153.60 0.06325
1153.70 0.06323
1153.80 0.06321
1153.90 0.06319
1154.00 0.06317
1154.10 0.06315
1154.20 0.06313
1154.30 0.06311
1154.40 0.06309
1154.50 0.06307
1154.60 0.06305
1154.70 0.06303
1154.80 0.06301
1154.90 0.063
1155.00 0.06298
1155.10 0.06296
1155.20 0.06294
1155.30 0.06292
1155.40 0.0629
1155.50 0.06288
1155.60 0.06286
1155.70 0.06284
1155.80 0.06282
1155.90 0.0628
1156.00 0.06278
1156.10 0.06276
1156.20 0.06274
1156.30 0.06272
1156.40 0.0627
1156.50 0.06268
1156.60 0.06266
1156.70 0.06264
1156.80 0.06262
1156.90 0.06261
1157.00 0.06259
1157.10 0.06257
1157.20 0.06255
1157.30 0.06253
1157.40 0.06251
1157.50 0.06249
1157.60 0.06247
1157.70 0.06245
1157.80 0.06243
1157.90 0.06241
1158.00 0.06239
1158.10 0.06237
1158.20 0.06235
1158.30 0.06233
1158.40 0.06231
1158.50 0.06229
1158.60 0.06227
1158.70 0.06225
1158.80 0.06224
1158.90 0.06222
1159.00 0.0622
1159.10 0.06218
1159.20 0.06216
1159.30 0.06214
1159.40 0.06212
1159.50 0.0621
1159.60 0.06208
1159.70 0.06206
1159.80 0.06204
1159.90 0.06202
1160.00 0.062
1160.10 0.06198
1160.20 0.06196
1160.30 0.06194
1160.40 0.06193
1160.50 0.06191
1160.60 0.06189
1160.70 0.06187
1160.80 0.06185
1160.90 0.06183
1161.00 0.06181
1161.10 0.06179
1161.20 0.06177
1161.30 0.06175
1161.40 0.06173
1161.50 0.06171
1161.60 0.06169
1161.70 0.06167
1161.80 0.06166
1161.90 0.06164
1162.00 0.06162
1162.10 0.0616
1162.20 0.06158
1162.30 0.06156
1162.40 0.06154
1162.50 0.06152
1162.60 0.0615
1162.70 0.06148
1162.80 0.06146
1162.90 0.06144
1163.00 0.06142
1163.10 0.06141
1163.20 0.06139
1163.30 0.06137
1163.40 0.06135
1163.50 0.06133
1163.60 0.06131
1163.70 0.06129
1163.80 0.06127
1163.90 0.06125
1164.00 0.06123
1164.10 0.06121
1164.20 0.06119
1164.30 0.06118
1164.40 0.06116
1164.50 0.06114
1164.60 0.06112
1164.70 0.0611
1164.80 0.06108
1164.90 0.06106
1165.00 0.06104
1165.10 0.06102
1165.20 0.061
1165.30 0.06098
1165.40 0.06097
1165.50 0.06095
1165.60 0.06093
1165.70 0.06091
1165.80 0.06089
1165.90 0.06087
1166.00 0.06085
1166.10 0.06083
1166.20 0.06081
1166.30 0.06079
1166.40 0.06078
1166.50 0.06076
1166.60 0.06074
1166.70 0.06072
1166.80 0.0607
1166.90 0.06068
1167.00 0.06066
1167.10 0.06064
1167.20 0.06062
1167.30 0.0606
1167.40 0.06059
1167.50 0.06057
1167.60 0.06055
1167.70 0.06053
1167.80 0.06051
1167.90 0.06049
1168.00 0.06047
1168.10 0.06045
1168.20 0.06043
1168.30 0.06041
1168.40 0.0604
1168.50 0.06038
1168.60 0.06036
1168.70 0.06034
1168.80 0.06032
1168.90 0.0603
1169.00 0.06028
1169.10 0.06026
1169.20 0.06024
1169.30 0.06023
1169.40 0.06021
1169.50 0.06019
1169.60 0.06017
1169.70 0.06015
1169.80 0.06013
1169.90 0.06011
1170.00 0.06009
1170.10 0.06007
1170.20 0.06006
1170.30 0.06004
1170.40 0.06002
1170.50 0.06
1170.60 0.05998
1170.70 0.05996
1170.80 0.05994
1170.90 0.05992
1171.00 0.05991
1171.10 0.05989
1171.20 0.05987
1171.30 0.05985
1171.40 0.05983
1171.50 0.05981
1171.60 0.05979
1171.70 0.05977
1171.80 0.05976
1171.90 0.05974
1172.00 0.05972
1172.10 0.0597
1172.20 0.05968
1172.30 0.05966
1172.40 0.05964
1172.50 0.05962
1172.60 0.05961
1172.70 0.05959
1172.80 0.05957
1172.90 0.05955
1173.00 0.05953
1173.10 0.05951
1173.20 0.05949
1173.30 0.05948
1173.40 0.05946
1173.50 0.05944
1173.60 0.05942
1173.70 0.0594
1173.80 0.05938
1173.90 0.05936
1174.00 0.05934
1174.10 0.05933
1174.20 0.05931
1174.30 0.05929
1174.40 0.05927
1174.50 0.05925
1174.60 0.05923
1174.70 0.05921
1174.80 0.0592
1174.90 0.05918
1175.00 0.05916
1175.10 0.05914
1175.20 0.05912
1175.30 0.0591
1175.40 0.05909
1175.50 0.05907
1175.60 0.05905
1175.70 0.05903
1175.80 0.05901
1175.90 0.05899
1176.00 0.05897
1176.10 0.05896
1176.20 0.05894
1176.30 0.05892
1176.40 0.0589
1176.50 0.05888
1176.60 0.05886
1176.70 0.05884
1176.80 0.05883
1176.90 0.05881
1177.00 0.05879
1177.10 0.05877
1177.20 0.05875
1177.30 0.05873
1177.40 0.05872
1177.50 0.0587
1177.60 0.05868
1177.70 0.05866
1177.80 0.05864
1177.90 0.05862
1178.00 0.05861
1178.10 0.05859
1178.20 0.05857
1178.30 0.05855
1178.40 0.05853
1178.50 0.05851
1178.60 0.0585
1178.70 0.05848
1178.80 0.05846
1178.90 0.05844
1179.00 0.05842
1179.10 0.0584
1179.20 0.05839
1179.30 0.05837
1179.40 0.05835
1179.50 0.05833
1179.60 0.05831
1179.70 0.05829
1179.80 0.05828
1179.90 0.05826
1180.00 0.05824
1180.10 0.05822
1180.20 0.0582
1180.30 0.05819
1180.40 0.05817
1180.50 0.05815
1180.60 0.05813
1180.70 0.05811
1180.80 0.05809
1180.90 0.05808
1181.00 0.05806
1181.10 0.05804
1181.20 0.05802
1181.30 0.058
1181.40 0.05799
1181.50 0.05797
1181.60 0.05795
1181.70 0.05793
1181.80 0.05791
1181.90 0.05789
1182.00 0.05788
1182.10 0.05786
1182.20 0.05784
1182.30 0.05782
1182.40 0.0578
1182.50 0.05779
1182.60 0.05777
1182.70 0.05775
1182.80 0.05773
1182.90 0.05771
1183.00 0.0577
1183.10 0.05768
1183.20 0.05766
1183.30 0.05764
1183.40 0.05762
1183.50 0.05761
1183.60 0.05759
1183.70 0.05757
1183.80 0.05755
1183.90 0.05753
1184.00 0.05752
1184.10 0.0575
1184.20 0.05748
1184.30 0.05746
1184.40 0.05744
1184.50 0.05743
1184.60 0.05741
1184.70 0.05739
1184.80 0.05737
1184.90 0.05735
1185.00 0.05734
1185.10 0.05732
1185.20 0.0573
1185.30 0.05728
1185.40 0.05726
1185.50 0.05725
1185.60 0.05723
1185.70 0.05721
1185.80 0.05719
1185.90 0.05717
1186.00 0.05716
1186.10 0.05714
1186.20 0.05712
1186.30 0.0571
1186.40 0.05709
1186.50 0.05707
1186.60 0.05705
1186.70 0.05703
1186.80 0.05701
1186.90 0.057
1187.00 0.05698
1187.10 0.05696
1187.20 0.05694
1187.30 0.05693
1187.40 0.05691
1187.50 0.05689
1187.60 0.05687
1187.70 0.05685
1187.80 0.05684
1187.90 0.05682
1188.00 0.0568
1188.10 0.05678
1188.20 0.05676
1188.30 0.05675
1188.40 0.05673
1188.50 0.05671
1188.60 0.05669
1188.70 0.05668
1188.80 0.05666
1188.90 0.05664
1189.00 0.05662
1189.10 0.05661
1189.20 0.05659
1189.30 0.05657
1189.40 0.05655
1189.50 0.05653
1189.60 0.05652
1189.70 0.0565
1189.80 0.05648
1189.90 0.05646
1190.00 0.05645
1190.10 0.05643
1190.20 0.05641
1190.30 0.05639
1190.40 0.05638
1190.50 0.05636
1190.60 0.05634
1190.70 0.05632
1190.80 0.0563
1190.90 0.05629
1191.00 0.05627
1191.10 0.05625
1191.20 0.05623
1191.30 0.05622
1191.40 0.0562
1191.50 0.05618
1191.60 0.05616
1191.70 0.05615
1191.80 0.05613
1191.90 0.05611
1192.00 0.05609
1192.10 0.05608
1192.20 0.05606
1192.30 0.05604
1192.40 0.05602
1192.50 0.05601
1192.60 0.05599
1192.70 0.05597
1192.80 0.05595
1192.90 0.05594
1193.00 0.05592
1193.10 0.0559
1193.20 0.05588
1193.30 0.05587
1193.40 0.05585
1193.50 0.05583
1193.60 0.05581
1193.70 0.0558
1193.80 0.05578
1193.90 0.05576
1194.00 0.05574
1194.10 0.05573
1194.20 0.05571
1194.30 0.05569
1194.40 0.05567
1194.50 0.05566
1194.60 0.05564
1194.70 0.05562
1194.80 0.0556
1194.90 0.05559
1195.00 0.05557
1195.10 0.05555
1195.20 0.05553
1195.30 0.05552
1195.40 0.0555
1195.50 0.05548
1195.60 0.05547
1195.70 0.05545
1195.80 0.05543
1195.90 0.05541
1196.00 0.0554
1196.10 0.05538
1196.20 0.05536
1196.30 0.05534
1196.40 0.05533
1196.50 0.05531
1196.60 0.05529
1196.70 0.05527
1196.80 0.05526
1196.90 0.05524
1197.00 0.05522
1197.10 0.05521
1197.20 0.05519
1197.30 0.05517
1197.40 0.05515
1197.50 0.05514
1197.60 0.05512
1197.70 0.0551
1197.80 0.05508
1197.90 0.05507
1198.00 0.05505
1198.10 0.05503
1198.20 0.05502
1198.30 0.055
1198.40 0.05498
1198.50 0.05496
1198.60 0.05495
1198.70 0.05493
1198.80 0.05491
1198.90 0.0549
1199.00 0.05488
1199.10 0.05486
1199.20 0.05484
1199.30 0.05483
1199.40 0.05481
1199.50 0.05479
1199.60 0.05477
1199.70 0.05476
1199.80 0.05474
1199.90 0.05472
1200.00 0
