# Version 2.1 - nm, norm@500 to 1, cut digits, bergeron_75000_80.dat_75000
# Wavelength(nm)  Flambda(ergs/cm^s/s/nm)
300.00 6.613
300.10 6.605
300.20 6.597
300.30 6.589
300.40 6.581
300.50 6.572
300.60 6.564
300.70 6.556
300.80 6.548
300.90 6.54
301.00 6.532
301.10 6.524
301.20 6.516
301.30 6.508
301.40 6.5
301.50 6.492
301.60 6.484
301.70 6.476
301.80 6.468
301.90 6.46
302.00 6.452
302.10 6.444
302.20 6.436
302.30 6.428
302.40 6.42
302.50 6.412
302.60 6.405
302.70 6.397
302.80 6.389
302.90 6.381
303.00 6.373
303.10 6.365
303.20 6.358
303.30 6.35
303.40 6.342
303.50 6.334
303.60 6.326
303.70 6.319
303.80 6.311
303.90 6.303
304.00 6.296
304.10 6.288
304.20 6.28
304.30 6.273
304.40 6.265
304.50 6.257
304.60 6.25
304.70 6.242
304.80 6.234
304.90 6.227
305.00 6.219
305.10 6.212
305.20 6.204
305.30 6.197
305.40 6.189
305.50 6.181
305.60 6.174
305.70 6.166
305.80 6.159
305.90 6.151
306.00 6.144
306.10 6.137
306.20 6.129
306.30 6.122
306.40 6.114
306.50 6.107
306.60 6.099
306.70 6.092
306.80 6.085
306.90 6.077
307.00 6.07
307.10 6.062
307.20 6.055
307.30 6.048
307.40 6.041
307.50 6.033
307.60 6.026
307.70 6.019
307.80 6.011
307.90 6.004
308.00 5.997
308.10 5.99
308.20 5.982
308.30 5.975
308.40 5.968
308.50 5.961
308.60 5.954
308.70 5.946
308.80 5.939
308.90 5.932
309.00 5.925
309.10 5.918
309.20 5.911
309.30 5.904
309.40 5.896
309.50 5.889
309.60 5.882
309.70 5.875
309.80 5.868
309.90 5.861
310.00 5.854
310.10 5.847
310.20 5.84
310.30 5.833
310.40 5.826
310.50 5.819
310.60 5.812
310.70 5.805
310.80 5.798
310.90 5.791
311.00 5.784
311.10 5.777
311.20 5.771
311.30 5.764
311.40 5.757
311.50 5.75
311.60 5.743
311.70 5.736
311.80 5.729
311.90 5.722
312.00 5.716
312.10 5.709
312.20 5.702
312.30 5.695
312.40 5.688
312.50 5.682
312.60 5.675
312.70 5.668
312.80 5.661
312.90 5.655
313.00 5.648
313.10 5.641
313.20 5.634
313.30 5.628
313.40 5.621
313.50 5.614
313.60 5.608
313.70 5.601
313.80 5.594
313.90 5.588
314.00 5.581
314.10 5.575
314.20 5.568
314.30 5.561
314.40 5.555
314.50 5.548
314.60 5.542
314.70 5.535
314.80 5.529
314.90 5.522
315.00 5.515
315.10 5.509
315.20 5.502
315.30 5.496
315.40 5.489
315.50 5.483
315.60 5.477
315.70 5.47
315.80 5.464
315.90 5.457
316.00 5.451
316.10 5.444
316.20 5.438
316.30 5.432
316.40 5.425
316.50 5.419
316.60 5.412
316.70 5.406
316.80 5.4
316.90 5.393
317.00 5.387
317.10 5.381
317.20 5.374
317.30 5.368
317.40 5.362
317.50 5.355
317.60 5.349
317.70 5.343
317.80 5.337
317.90 5.33
318.00 5.324
318.10 5.318
318.20 5.312
318.30 5.305
318.40 5.299
318.50 5.293
318.60 5.287
318.70 5.281
318.80 5.274
318.90 5.268
319.00 5.262
319.10 5.256
319.20 5.25
319.30 5.244
319.40 5.238
319.50 5.232
319.60 5.225
319.70 5.219
319.80 5.213
319.90 5.207
320.00 5.201
320.10 5.195
320.20 5.189
320.30 5.183
320.40 5.177
320.50 5.171
320.60 5.165
320.70 5.159
320.80 5.153
320.90 5.147
321.00 5.141
321.10 5.135
321.20 5.129
321.30 5.123
321.40 5.117
321.50 5.111
321.60 5.105
321.70 5.099
321.80 5.093
321.90 5.088
322.00 5.082
322.10 5.076
322.20 5.07
322.30 5.064
322.40 5.058
322.50 5.052
322.60 5.047
322.70 5.041
322.80 5.035
322.90 5.029
323.00 5.023
323.10 5.017
323.20 5.012
323.30 5.006
323.40 5
323.50 4.994
323.60 4.989
323.70 4.983
323.80 4.977
323.90 4.971
324.00 4.966
324.10 4.96
324.20 4.954
324.30 4.949
324.40 4.943
324.50 4.937
324.60 4.931
324.70 4.926
324.80 4.92
324.90 4.915
325.00 4.909
325.10 4.903
325.20 4.898
325.30 4.892
325.40 4.886
325.50 4.881
325.60 4.875
325.70 4.87
325.80 4.864
325.90 4.858
326.00 4.853
326.10 4.847
326.20 4.842
326.30 4.836
326.40 4.831
326.50 4.825
326.60 4.82
326.70 4.814
326.80 4.809
326.90 4.803
327.00 4.798
327.10 4.792
327.20 4.787
327.30 4.781
327.40 4.776
327.50 4.77
327.60 4.765
327.70 4.76
327.80 4.754
327.90 4.749
328.00 4.743
328.10 4.738
328.20 4.733
328.30 4.727
328.40 4.722
328.50 4.716
328.60 4.711
328.70 4.706
328.80 4.7
328.90 4.695
329.00 4.69
329.10 4.684
329.20 4.679
329.30 4.674
329.40 4.669
329.50 4.663
329.60 4.658
329.70 4.653
329.80 4.647
329.90 4.642
330.00 4.637
330.10 4.632
330.20 4.627
330.30 4.621
330.40 4.616
330.50 4.611
330.60 4.606
330.70 4.6
330.80 4.595
330.90 4.59
331.00 4.585
331.10 4.58
331.20 4.575
331.30 4.569
331.40 4.564
331.50 4.559
331.60 4.554
331.70 4.549
331.80 4.544
331.90 4.539
332.00 4.533
332.10 4.528
332.20 4.523
332.30 4.518
332.40 4.513
332.50 4.508
332.60 4.503
332.70 4.498
332.80 4.493
332.90 4.488
333.00 4.483
333.10 4.478
333.20 4.473
333.30 4.468
333.40 4.463
333.50 4.458
333.60 4.453
333.70 4.448
333.80 4.443
333.90 4.438
334.00 4.433
334.10 4.428
334.20 4.423
334.30 4.418
334.40 4.413
334.50 4.408
334.60 4.403
334.70 4.398
334.80 4.394
334.90 4.389
335.00 4.384
335.10 4.379
335.20 4.374
335.30 4.369
335.40 4.364
335.50 4.359
335.60 4.354
335.70 4.35
335.80 4.345
335.90 4.34
336.00 4.335
336.10 4.33
336.20 4.325
336.30 4.321
336.40 4.316
336.50 4.311
336.60 4.306
336.70 4.302
336.80 4.297
336.90 4.292
337.00 4.287
337.10 4.283
337.20 4.278
337.30 4.273
337.40 4.268
337.50 4.264
337.60 4.259
337.70 4.254
337.80 4.249
337.90 4.245
338.00 4.24
338.10 4.235
338.20 4.231
338.30 4.226
338.40 4.221
338.50 4.217
338.60 4.212
338.70 4.207
338.80 4.203
338.90 4.198
339.00 4.193
339.10 4.189
339.20 4.184
339.30 4.18
339.40 4.175
339.50 4.17
339.60 4.166
339.70 4.161
339.80 4.157
339.90 4.152
340.00 4.147
340.10 4.143
340.20 4.138
340.30 4.134
340.40 4.129
340.50 4.125
340.60 4.12
340.70 4.116
340.80 4.111
340.90 4.107
341.00 4.102
341.10 4.098
341.20 4.093
341.30 4.089
341.40 4.084
341.50 4.08
341.60 4.075
341.70 4.071
341.80 4.066
341.90 4.062
342.00 4.057
342.10 4.053
342.20 4.049
342.30 4.044
342.40 4.04
342.50 4.035
342.60 4.031
342.70 4.027
342.80 4.022
342.90 4.018
343.00 4.013
343.10 4.009
343.20 4.005
343.30 4
343.40 3.996
343.50 3.992
343.60 3.987
343.70 3.983
343.80 3.979
343.90 3.974
344.00 3.97
344.10 3.966
344.20 3.961
344.30 3.957
344.40 3.953
344.50 3.948
344.60 3.944
344.70 3.94
344.80 3.936
344.90 3.931
345.00 3.927
345.10 3.923
345.20 3.919
345.30 3.914
345.40 3.91
345.50 3.906
345.60 3.902
345.70 3.897
345.80 3.893
345.90 3.889
346.00 3.885
346.10 3.88
346.20 3.876
346.30 3.872
346.40 3.868
346.50 3.864
346.60 3.86
346.70 3.855
346.80 3.851
346.90 3.847
347.00 3.843
347.10 3.839
347.20 3.835
347.30 3.831
347.40 3.826
347.50 3.822
347.60 3.818
347.70 3.814
347.80 3.81
347.90 3.806
348.00 3.802
348.10 3.798
348.20 3.794
348.30 3.79
348.40 3.785
348.50 3.781
348.60 3.777
348.70 3.773
348.80 3.769
348.90 3.765
349.00 3.761
349.10 3.757
349.20 3.753
349.30 3.749
349.40 3.745
349.50 3.741
349.60 3.737
349.70 3.733
349.80 3.729
349.90 3.725
350.00 3.721
350.10 3.717
350.20 3.713
350.30 3.709
350.40 3.705
350.50 3.701
350.60 3.697
350.70 3.693
350.80 3.689
350.90 3.685
351.00 3.682
351.10 3.678
351.20 3.674
351.30 3.67
351.40 3.666
351.50 3.662
351.60 3.658
351.70 3.654
351.80 3.65
351.90 3.646
352.00 3.642
352.10 3.639
352.20 3.635
352.30 3.631
352.40 3.627
352.50 3.623
352.60 3.619
352.70 3.616
352.80 3.612
352.90 3.608
353.00 3.604
353.10 3.6
353.20 3.596
353.30 3.593
353.40 3.589
353.50 3.585
353.60 3.581
353.70 3.577
353.80 3.574
353.90 3.57
354.00 3.566
354.10 3.562
354.20 3.558
354.30 3.555
354.40 3.551
354.50 3.547
354.60 3.543
354.70 3.54
354.80 3.536
354.90 3.532
355.00 3.529
355.10 3.525
355.20 3.521
355.30 3.517
355.40 3.514
355.50 3.51
355.60 3.506
355.70 3.503
355.80 3.499
355.90 3.495
356.00 3.491
356.10 3.488
356.20 3.484
356.30 3.48
356.40 3.477
356.50 3.473
356.60 3.47
356.70 3.466
356.80 3.462
356.90 3.459
357.00 3.455
357.10 3.451
357.20 3.448
357.30 3.444
357.40 3.441
357.50 3.437
357.60 3.433
357.70 3.43
357.80 3.426
357.90 3.422
358.00 3.419
358.10 3.415
358.20 3.412
358.30 3.408
358.40 3.405
358.50 3.401
358.60 3.398
358.70 3.394
358.80 3.39
358.90 3.387
359.00 3.383
359.10 3.38
359.20 3.376
359.30 3.373
359.40 3.369
359.50 3.366
359.60 3.362
359.70 3.359
359.80 3.355
359.90 3.352
360.00 3.348
360.10 3.345
360.20 3.341
360.30 3.338
360.40 3.334
360.50 3.331
360.60 3.327
360.70 3.324
360.80 3.321
360.90 3.317
361.00 3.314
361.10 3.31
361.20 3.307
361.30 3.303
361.40 3.3
361.50 3.296
361.60 3.293
361.70 3.29
361.80 3.286
361.90 3.283
362.00 3.279
362.10 3.276
362.20 3.273
362.30 3.269
362.40 3.266
362.50 3.262
362.60 3.259
362.70 3.256
362.80 3.252
362.90 3.249
363.00 3.246
363.10 3.242
363.20 3.239
363.30 3.236
363.40 3.232
363.50 3.229
363.60 3.226
363.70 3.222
363.80 3.219
363.90 3.216
364.00 3.212
364.10 3.209
364.20 3.206
364.30 3.202
364.40 3.199
364.50 3.196
364.60 3.192
364.70 3.189
364.80 3.186
364.90 3.183
365.00 3.179
365.10 3.176
365.20 3.173
365.30 3.17
365.40 3.166
365.50 3.163
365.60 3.16
365.70 3.157
365.80 3.153
365.90 3.15
366.00 3.147
366.10 3.144
366.20 3.14
366.30 3.137
366.40 3.134
366.50 3.131
366.60 3.127
366.70 3.124
366.80 3.121
366.90 3.118
367.00 3.114
367.10 3.111
367.20 3.108
367.30 3.105
367.40 3.101
367.50 3.098
367.60 3.095
367.70 3.092
367.80 3.088
367.90 3.085
368.00 3.082
368.10 3.079
368.20 3.076
368.30 3.072
368.40 3.069
368.50 3.066
368.60 3.063
368.70 3.06
368.80 3.056
368.90 3.053
369.00 3.05
369.10 3.047
369.20 3.044
369.30 3.04
369.40 3.037
369.50 3.034
369.60 3.031
369.70 3.028
369.80 3.025
369.90 3.021
370.00 3.018
370.10 3.015
370.20 3.012
370.30 3.009
370.40 3.006
370.50 3.003
370.60 3
370.70 2.997
370.80 2.993
370.90 2.99
371.00 2.987
371.10 2.984
371.20 2.981
371.30 2.978
371.40 2.975
371.50 2.972
371.60 2.969
371.70 2.966
371.80 2.963
371.90 2.96
372.00 2.956
372.10 2.953
372.20 2.95
372.30 2.947
372.40 2.944
372.50 2.941
372.60 2.938
372.70 2.935
372.80 2.932
372.90 2.93
373.00 2.927
373.10 2.924
373.20 2.921
373.30 2.918
373.40 2.915
373.50 2.912
373.60 2.909
373.70 2.906
373.80 2.903
373.90 2.9
374.00 2.897
374.10 2.894
374.20 2.891
374.30 2.888
374.40 2.885
374.50 2.882
374.60 2.879
374.70 2.876
374.80 2.873
374.90 2.87
375.00 2.868
375.10 2.865
375.20 2.862
375.30 2.859
375.40 2.856
375.50 2.853
375.60 2.85
375.70 2.847
375.80 2.844
375.90 2.841
376.00 2.838
376.10 2.836
376.20 2.833
376.30 2.83
376.40 2.827
376.50 2.824
376.60 2.821
376.70 2.819
376.80 2.816
376.90 2.813
377.00 2.81
377.10 2.807
377.20 2.805
377.30 2.802
377.40 2.799
377.50 2.796
377.60 2.794
377.70 2.791
377.80 2.788
377.90 2.785
378.00 2.783
378.10 2.78
378.20 2.777
378.30 2.774
378.40 2.772
378.50 2.769
378.60 2.766
378.70 2.764
378.80 2.761
378.90 2.758
379.00 2.755
379.10 2.753
379.20 2.75
379.30 2.747
379.40 2.745
379.50 2.742
379.60 2.74
379.70 2.737
379.80 2.734
379.90 2.732
380.00 2.729
380.10 2.726
380.20 2.724
380.30 2.721
380.40 2.719
380.50 2.716
380.60 2.714
380.70 2.711
380.80 2.709
380.90 2.706
381.00 2.703
381.10 2.701
381.20 2.698
381.30 2.696
381.40 2.693
381.50 2.691
381.60 2.688
381.70 2.686
381.80 2.683
381.90 2.68
382.00 2.678
382.10 2.675
382.20 2.672
382.30 2.67
382.40 2.667
382.50 2.665
382.60 2.662
382.70 2.659
382.80 2.657
382.90 2.654
383.00 2.652
383.10 2.649
383.20 2.646
383.30 2.644
383.40 2.641
383.50 2.639
383.60 2.637
383.70 2.634
383.80 2.632
383.90 2.63
384.00 2.628
384.10 2.625
384.20 2.623
384.30 2.621
384.40 2.619
384.50 2.617
384.60 2.614
384.70 2.612
384.80 2.61
384.90 2.608
385.00 2.605
385.10 2.603
385.20 2.601
385.30 2.599
385.40 2.596
385.50 2.594
385.60 2.591
385.70 2.589
385.80 2.587
385.90 2.584
386.00 2.582
386.10 2.579
386.20 2.576
386.30 2.574
386.40 2.571
386.50 2.568
386.60 2.566
386.70 2.563
386.80 2.56
386.90 2.557
387.00 2.555
387.10 2.552
387.20 2.549
387.30 2.546
387.40 2.543
387.50 2.54
387.60 2.537
387.70 2.534
387.80 2.531
387.90 2.528
388.00 2.525
388.10 2.522
388.20 2.519
388.30 2.517
388.40 2.514
388.50 2.511
388.60 2.508
388.70 2.506
388.80 2.504
388.90 2.502
389.00 2.499
389.10 2.497
389.20 2.496
389.30 2.494
389.40 2.492
389.50 2.491
389.60 2.489
389.70 2.488
389.80 2.487
389.90 2.485
390.00 2.484
390.10 2.483
390.20 2.481
390.30 2.48
390.40 2.479
390.50 2.477
390.60 2.476
390.70 2.474
390.80 2.473
390.90 2.471
391.00 2.469
391.10 2.468
391.20 2.466
391.30 2.464
391.40 2.463
391.50 2.461
391.60 2.459
391.70 2.457
391.80 2.455
391.90 2.453
392.00 2.451
392.10 2.449
392.20 2.446
392.30 2.444
392.40 2.442
392.50 2.44
392.60 2.437
392.70 2.435
392.80 2.432
392.90 2.429
393.00 2.427
393.10 2.424
393.20 2.421
393.30 2.418
393.40 2.416
393.50 2.413
393.60 2.41
393.70 2.406
393.80 2.403
393.90 2.4
394.00 2.397
394.10 2.393
394.20 2.39
394.30 2.386
394.40 2.383
394.50 2.379
394.60 2.375
394.70 2.372
394.80 2.368
394.90 2.364
395.00 2.36
395.10 2.356
395.20 2.352
395.30 2.348
395.40 2.343
395.50 2.339
395.60 2.335
395.70 2.33
395.80 2.326
395.90 2.321
396.00 2.317
396.10 2.312
396.20 2.308
396.30 2.303
396.40 2.299
396.50 2.295
396.60 2.29
396.70 2.286
396.80 2.282
396.90 2.278
397.00 2.275
397.10 2.274
397.20 2.274
397.30 2.274
397.40 2.274
397.50 2.275
397.60 2.275
397.70 2.276
397.80 2.276
397.90 2.277
398.00 2.277
398.10 2.278
398.20 2.278
398.30 2.279
398.40 2.279
398.50 2.279
398.60 2.28
398.70 2.28
398.80 2.28
398.90 2.28
399.00 2.281
399.10 2.281
399.20 2.281
399.30 2.28
399.40 2.28
399.50 2.28
399.60 2.28
399.70 2.28
399.80 2.279
399.90 2.279
400.00 2.278
400.10 2.278
400.20 2.277
400.30 2.276
400.40 2.275
400.50 2.275
400.60 2.274
400.70 2.273
400.80 2.272
400.90 2.271
401.00 2.27
401.10 2.268
401.20 2.267
401.30 2.266
401.40 2.265
401.50 2.263
401.60 2.262
401.70 2.261
401.80 2.259
401.90 2.258
402.00 2.256
402.10 2.254
402.20 2.253
402.30 2.251
402.40 2.249
402.50 2.248
402.60 2.246
402.70 2.244
402.80 2.242
402.90 2.24
403.00 2.238
403.10 2.236
403.20 2.234
403.30 2.232
403.40 2.23
403.50 2.228
403.60 2.226
403.70 2.223
403.80 2.221
403.90 2.219
404.00 2.216
404.10 2.214
404.20 2.211
404.30 2.209
404.40 2.206
404.50 2.204
404.60 2.201
404.70 2.198
404.80 2.196
404.90 2.193
405.00 2.19
405.10 2.187
405.20 2.184
405.30 2.181
405.40 2.178
405.50 2.175
405.60 2.172
405.70 2.168
405.80 2.165
405.90 2.162
406.00 2.158
406.10 2.155
406.20 2.151
406.30 2.147
406.40 2.143
406.50 2.139
406.60 2.136
406.70 2.131
406.80 2.127
406.90 2.123
407.00 2.119
407.10 2.114
407.20 2.11
407.30 2.105
407.40 2.1
407.50 2.096
407.60 2.091
407.70 2.086
407.80 2.08
407.90 2.075
408.00 2.07
408.10 2.064
408.20 2.058
408.30 2.053
408.40 2.047
408.50 2.041
408.60 2.034
408.70 2.028
408.80 2.022
408.90 2.015
409.00 2.009
409.10 2.002
409.20 1.995
409.30 1.989
409.40 1.982
409.50 1.976
409.60 1.969
409.70 1.963
409.80 1.958
409.90 1.954
410.00 1.952
410.10 1.952
410.20 1.953
410.30 1.948
410.40 1.945
410.50 1.945
410.60 1.946
410.70 1.948
410.80 1.951
410.90 1.954
411.00 1.957
411.10 1.96
411.20 1.963
411.30 1.966
411.40 1.97
411.50 1.972
411.60 1.975
411.70 1.978
411.80 1.98
411.90 1.983
412.00 1.985
412.10 1.987
412.20 1.989
412.30 1.991
412.40 1.993
412.50 1.995
412.60 1.996
412.70 1.998
412.80 1.999
412.90 2
413.00 2.001
413.10 2.002
413.20 2.003
413.30 2.004
413.40 2.004
413.50 2.005
413.60 2.005
413.70 2.006
413.80 2.006
413.90 2.006
414.00 2.006
414.10 2.006
414.20 2.006
414.30 2.006
414.40 2.006
414.50 2.006
414.60 2.005
414.70 2.005
414.80 2.005
414.90 2.004
415.00 2.004
415.10 2.003
415.20 2.002
415.30 2.002
415.40 2.001
415.50 2
415.60 1.999
415.70 1.998
415.80 1.997
415.90 1.996
416.00 1.995
416.10 1.994
416.20 1.993
416.30 1.992
416.40 1.991
416.50 1.99
416.60 1.989
416.70 1.988
416.80 1.987
416.90 1.985
417.00 1.984
417.10 1.983
417.20 1.981
417.30 1.98
417.40 1.979
417.50 1.978
417.60 1.976
417.70 1.975
417.80 1.973
417.90 1.972
418.00 1.971
418.10 1.969
418.20 1.968
418.30 1.966
418.40 1.965
418.50 1.963
418.60 1.962
418.70 1.96
418.80 1.959
418.90 1.957
419.00 1.956
419.10 1.954
419.20 1.953
419.30 1.951
419.40 1.949
419.50 1.948
419.60 1.946
419.70 1.945
419.80 1.943
419.90 1.941
420.00 1.94
420.10 1.938
420.20 1.937
420.30 1.935
420.40 1.933
420.50 1.932
420.60 1.93
420.70 1.928
420.80 1.927
420.90 1.925
421.00 1.923
421.10 1.922
421.20 1.92
421.30 1.918
421.40 1.917
421.50 1.915
421.60 1.913
421.70 1.912
421.80 1.91
421.90 1.908
422.00 1.906
422.10 1.905
422.20 1.903
422.30 1.901
422.40 1.899
422.50 1.898
422.60 1.896
422.70 1.894
422.80 1.893
422.90 1.891
423.00 1.889
423.10 1.887
423.20 1.885
423.30 1.884
423.40 1.882
423.50 1.88
423.60 1.878
423.70 1.877
423.80 1.875
423.90 1.873
424.00 1.871
424.10 1.869
424.20 1.868
424.30 1.866
424.40 1.864
424.50 1.862
424.60 1.86
424.70 1.858
424.80 1.857
424.90 1.855
425.00 1.853
425.10 1.851
425.20 1.849
425.30 1.847
425.40 1.845
425.50 1.843
425.60 1.841
425.70 1.839
425.80 1.838
425.90 1.836
426.00 1.834
426.10 1.832
426.20 1.83
426.30 1.828
426.40 1.826
426.50 1.824
426.60 1.821
426.70 1.819
426.80 1.817
426.90 1.815
427.00 1.813
427.10 1.811
427.20 1.809
427.30 1.807
427.40 1.804
427.50 1.802
427.60 1.8
427.70 1.798
427.80 1.795
427.90 1.793
428.00 1.791
428.10 1.788
428.20 1.786
428.30 1.783
428.40 1.781
428.50 1.778
428.60 1.776
428.70 1.773
428.80 1.771
428.90 1.768
429.00 1.765
429.10 1.762
429.20 1.759
429.30 1.757
429.40 1.754
429.50 1.751
429.60 1.748
429.70 1.744
429.80 1.741
429.90 1.738
430.00 1.734
430.10 1.731
430.20 1.727
430.30 1.724
430.40 1.72
430.50 1.716
430.60 1.712
430.70 1.708
430.80 1.704
430.90 1.7
431.00 1.696
431.10 1.691
431.20 1.687
431.30 1.682
431.40 1.677
431.50 1.672
431.60 1.667
431.70 1.661
431.80 1.656
431.90 1.65
432.00 1.645
432.10 1.639
432.20 1.633
432.30 1.626
432.40 1.62
432.50 1.614
432.60 1.607
432.70 1.6
432.80 1.593
432.90 1.586
433.00 1.579
433.10 1.572
433.20 1.565
433.30 1.558
433.40 1.551
433.50 1.544
433.60 1.537
433.70 1.531
433.80 1.525
433.90 1.518
434.00 1.513
434.10 1.512
434.20 1.515
434.30 1.519
434.40 1.522
434.50 1.526
434.60 1.53
434.70 1.535
434.80 1.539
434.90 1.543
435.00 1.548
435.10 1.552
435.20 1.557
435.30 1.561
435.40 1.565
435.50 1.569
435.60 1.573
435.70 1.576
435.80 1.58
435.90 1.583
436.00 1.586
436.10 1.589
436.20 1.592
436.30 1.595
436.40 1.597
436.50 1.6
436.60 1.602
436.70 1.604
436.80 1.606
436.90 1.608
437.00 1.609
437.10 1.611
437.20 1.612
437.30 1.613
437.40 1.614
437.50 1.615
437.60 1.616
437.70 1.617
437.80 1.618
437.90 1.618
438.00 1.619
438.10 1.619
438.20 1.619
438.30 1.62
438.40 1.62
438.50 1.62
438.60 1.62
438.70 1.62
438.80 1.62
438.90 1.62
439.00 1.619
439.10 1.619
439.20 1.619
439.30 1.618
439.40 1.618
439.50 1.617
439.60 1.617
439.70 1.616
439.80 1.616
439.90 1.615
440.00 1.615
440.10 1.614
440.20 1.613
440.30 1.612
440.40 1.612
440.50 1.611
440.60 1.61
440.70 1.609
440.80 1.608
440.90 1.607
441.00 1.607
441.10 1.606
441.20 1.605
441.30 1.604
441.40 1.603
441.50 1.602
441.60 1.601
441.70 1.6
441.80 1.599
441.90 1.598
442.00 1.597
442.10 1.596
442.20 1.594
442.30 1.593
442.40 1.592
442.50 1.591
442.60 1.59
442.70 1.589
442.80 1.588
442.90 1.587
443.00 1.586
443.10 1.584
443.20 1.583
443.30 1.582
443.40 1.581
443.50 1.58
443.60 1.579
443.70 1.577
443.80 1.576
443.90 1.575
444.00 1.574
444.10 1.573
444.20 1.571
444.30 1.57
444.40 1.569
444.50 1.568
444.60 1.566
444.70 1.565
444.80 1.564
444.90 1.563
445.00 1.562
445.10 1.56
445.20 1.559
445.30 1.558
445.40 1.557
445.50 1.555
445.60 1.554
445.70 1.553
445.80 1.552
445.90 1.55
446.00 1.549
446.10 1.548
446.20 1.547
446.30 1.545
446.40 1.544
446.50 1.543
446.60 1.542
446.70 1.54
446.80 1.539
446.90 1.538
447.00 1.537
447.10 1.535
447.20 1.534
447.30 1.533
447.40 1.532
447.50 1.53
447.60 1.529
447.70 1.528
447.80 1.527
447.90 1.525
448.00 1.524
448.10 1.523
448.20 1.522
448.30 1.52
448.40 1.519
448.50 1.518
448.60 1.517
448.70 1.515
448.80 1.514
448.90 1.513
449.00 1.512
449.10 1.51
449.20 1.509
449.30 1.508
449.40 1.506
449.50 1.505
449.60 1.504
449.70 1.503
449.80 1.501
449.90 1.5
450.00 1.499
450.10 1.498
450.20 1.496
450.30 1.495
450.40 1.494
450.50 1.493
450.60 1.491
450.70 1.49
450.80 1.489
450.90 1.488
451.00 1.487
451.10 1.485
451.20 1.484
451.30 1.483
451.40 1.482
451.50 1.48
451.60 1.479
451.70 1.478
451.80 1.477
451.90 1.475
452.00 1.474
452.10 1.473
452.20 1.472
452.30 1.47
452.40 1.469
452.50 1.468
452.60 1.467
452.70 1.466
452.80 1.464
452.90 1.463
453.00 1.462
453.10 1.461
453.20 1.459
453.30 1.458
453.40 1.457
453.50 1.456
453.60 1.455
453.70 1.453
453.80 1.452
453.90 1.451
454.00 1.45
454.10 1.448
454.20 1.447
454.30 1.446
454.40 1.445
454.50 1.444
454.60 1.442
454.70 1.441
454.80 1.44
454.90 1.439
455.00 1.438
455.10 1.436
455.20 1.435
455.30 1.434
455.40 1.433
455.50 1.432
455.60 1.43
455.70 1.429
455.80 1.428
455.90 1.427
456.00 1.426
456.10 1.424
456.20 1.423
456.30 1.422
456.40 1.421
456.50 1.42
456.60 1.418
456.70 1.417
456.80 1.416
456.90 1.415
457.00 1.414
457.10 1.413
457.20 1.411
457.30 1.41
457.40 1.409
457.50 1.408
457.60 1.407
457.70 1.405
457.80 1.404
457.90 1.403
458.00 1.402
458.10 1.401
458.20 1.4
458.30 1.398
458.40 1.397
458.50 1.396
458.60 1.395
458.70 1.394
458.80 1.393
458.90 1.391
459.00 1.39
459.10 1.389
459.20 1.388
459.30 1.387
459.40 1.386
459.50 1.384
459.60 1.383
459.70 1.382
459.80 1.381
459.90 1.38
460.00 1.379
460.10 1.378
460.20 1.376
460.30 1.375
460.40 1.374
460.50 1.373
460.60 1.372
460.70 1.371
460.80 1.37
460.90 1.368
461.00 1.367
461.10 1.366
461.20 1.365
461.30 1.364
461.40 1.363
461.50 1.362
461.60 1.36
461.70 1.359
461.80 1.358
461.90 1.357
462.00 1.356
462.10 1.355
462.20 1.354
462.30 1.352
462.40 1.351
462.50 1.35
462.60 1.349
462.70 1.348
462.80 1.347
462.90 1.346
463.00 1.345
463.10 1.343
463.20 1.342
463.30 1.341
463.40 1.34
463.50 1.339
463.60 1.338
463.70 1.337
463.80 1.336
463.90 1.335
464.00 1.333
464.10 1.332
464.20 1.331
464.30 1.33
464.40 1.329
464.50 1.328
464.60 1.327
464.70 1.326
464.80 1.325
464.90 1.323
465.00 1.322
465.10 1.321
465.20 1.32
465.30 1.319
465.40 1.318
465.50 1.317
465.60 1.316
465.70 1.315
465.80 1.314
465.90 1.313
466.00 1.311
466.10 1.31
466.20 1.309
466.30 1.308
466.40 1.307
466.50 1.306
466.60 1.305
466.70 1.304
466.80 1.303
466.90 1.302
467.00 1.301
467.10 1.299
467.20 1.298
467.30 1.297
467.40 1.296
467.50 1.295
467.60 1.294
467.70 1.293
467.80 1.292
467.90 1.291
468.00 1.29
468.10 1.289
468.20 1.288
468.30 1.287
468.40 1.285
468.50 1.284
468.60 1.283
468.70 1.282
468.80 1.281
468.90 1.28
469.00 1.279
469.10 1.278
469.20 1.277
469.30 1.276
469.40 1.275
469.50 1.274
469.60 1.273
469.70 1.272
469.80 1.27
469.90 1.269
470.00 1.268
470.10 1.267
470.20 1.266
470.30 1.265
470.40 1.264
470.50 1.263
470.60 1.262
470.70 1.261
470.80 1.26
470.90 1.259
471.00 1.258
471.10 1.257
471.20 1.256
471.30 1.255
471.40 1.253
471.50 1.252
471.60 1.251
471.70 1.25
471.80 1.249
471.90 1.248
472.00 1.247
472.10 1.246
472.20 1.245
472.30 1.244
472.40 1.243
472.50 1.242
472.60 1.241
472.70 1.24
472.80 1.239
472.90 1.238
473.00 1.237
473.10 1.235
473.20 1.234
473.30 1.233
473.40 1.232
473.50 1.231
473.60 1.23
473.70 1.229
473.80 1.228
473.90 1.227
474.00 1.226
474.10 1.225
474.20 1.224
474.30 1.223
474.40 1.222
474.50 1.221
474.60 1.219
474.70 1.218
474.80 1.217
474.90 1.216
475.00 1.215
475.10 1.214
475.20 1.213
475.30 1.212
475.40 1.211
475.50 1.21
475.60 1.209
475.70 1.208
475.80 1.206
475.90 1.205
476.00 1.204
476.10 1.203
476.20 1.202
476.30 1.201
476.40 1.2
476.50 1.199
476.60 1.198
476.70 1.197
476.80 1.195
476.90 1.194
477.00 1.193
477.10 1.192
477.20 1.191
477.30 1.19
477.40 1.189
477.50 1.187
477.60 1.186
477.70 1.185
477.80 1.184
477.90 1.183
478.00 1.182
478.10 1.18
478.20 1.179
478.30 1.178
478.40 1.177
478.50 1.176
478.60 1.174
478.70 1.173
478.80 1.172
478.90 1.171
479.00 1.169
479.10 1.168
479.20 1.167
479.30 1.165
479.40 1.164
479.50 1.163
479.60 1.161
479.70 1.16
479.80 1.159
479.90 1.157
480.00 1.156
480.10 1.155
480.20 1.153
480.30 1.151
480.40 1.15
480.50 1.148
480.60 1.147
480.70 1.145
480.80 1.144
480.90 1.142
481.00 1.14
481.10 1.139
481.20 1.137
481.30 1.135
481.40 1.133
481.50 1.131
481.60 1.13
481.70 1.128
481.80 1.126
481.90 1.124
482.00 1.122
482.10 1.12
482.20 1.118
482.30 1.115
482.40 1.113
482.50 1.11
482.60 1.108
482.70 1.106
482.80 1.103
482.90 1.101
483.00 1.098
483.10 1.096
483.20 1.093
483.30 1.089
483.40 1.086
483.50 1.083
483.60 1.08
483.70 1.076
483.80 1.073
483.90 1.07
484.00 1.066
484.10 1.063
484.20 1.059
484.30 1.055
484.40 1.051
484.50 1.047
484.60 1.043
484.70 1.039
484.80 1.034
484.90 1.03
485.00 1.025
485.10 1.02
485.20 1.016
485.30 1.011
485.40 1.006
485.50 1.001
485.60 0.9968
485.70 0.9924
485.80 0.9888
485.90 0.9856
486.00 0.9857
486.10 0.9974
486.20 0.9912
486.30 0.9822
486.40 0.9828
486.50 0.9844
486.60 0.9869
486.70 0.9899
486.80 0.993
486.90 0.9962
487.00 0.9994
487.10 1.003
487.20 1.006
487.30 1.009
487.40 1.012
487.50 1.015
487.60 1.018
487.70 1.02
487.80 1.023
487.90 1.025
488.00 1.027
488.10 1.03
488.20 1.032
488.30 1.033
488.40 1.035
488.50 1.036
488.60 1.038
488.70 1.039
488.80 1.041
488.90 1.042
489.00 1.044
489.10 1.045
489.20 1.046
489.30 1.047
489.40 1.048
489.50 1.048
489.60 1.049
489.70 1.05
489.80 1.05
489.90 1.051
490.00 1.052
490.10 1.052
490.20 1.053
490.30 1.053
490.40 1.053
490.50 1.053
490.60 1.053
490.70 1.053
490.80 1.053
490.90 1.053
491.00 1.053
491.10 1.054
491.20 1.053
491.30 1.053
491.40 1.053
491.50 1.053
491.60 1.052
491.70 1.052
491.80 1.052
491.90 1.052
492.00 1.051
492.10 1.051
492.20 1.051
492.30 1.05
492.40 1.05
492.50 1.05
492.60 1.049
492.70 1.049
492.80 1.048
492.90 1.048
493.00 1.047
493.10 1.047
493.20 1.046
493.30 1.046
493.40 1.045
493.50 1.045
493.60 1.044
493.70 1.044
493.80 1.043
493.90 1.042
494.00 1.042
494.10 1.041
494.20 1.041
494.30 1.04
494.40 1.039
494.50 1.039
494.60 1.038
494.70 1.037
494.80 1.037
494.90 1.036
495.00 1.036
495.10 1.035
495.20 1.034
495.30 1.034
495.40 1.033
495.50 1.032
495.60 1.032
495.70 1.031
495.80 1.03
495.90 1.03
496.00 1.029
496.10 1.028
496.20 1.027
496.30 1.027
496.40 1.026
496.50 1.025
496.60 1.025
496.70 1.024
496.80 1.023
496.90 1.023
497.00 1.022
497.10 1.021
497.20 1.02
497.30 1.02
497.40 1.019
497.50 1.018
497.60 1.018
497.70 1.017
497.80 1.016
497.90 1.015
498.00 1.015
498.10 1.014
498.20 1.013
498.30 1.012
498.40 1.012
498.50 1.011
498.60 1.01
498.70 1.01
498.80 1.009
498.90 1.008
499.00 1.007
499.10 1.007
499.20 1.006
499.30 1.005
499.40 1.004
499.50 1.004
499.60 1.003
499.70 1.002
499.80 1.001
499.90 1.001
500.00 1
500.10 0.9993
500.20 0.9985
500.30 0.9978
500.40 0.9971
500.50 0.9963
500.60 0.9956
500.70 0.9949
500.80 0.9941
500.90 0.9934
501.00 0.9927
501.10 0.9919
501.20 0.9912
501.30 0.9904
501.40 0.9897
501.50 0.989
501.60 0.9882
501.70 0.9875
501.80 0.9868
501.90 0.986
502.00 0.9853
502.10 0.9846
502.20 0.9838
502.30 0.9831
502.40 0.9824
502.50 0.9816
502.60 0.9809
502.70 0.9802
502.80 0.9794
502.90 0.9787
503.00 0.978
503.10 0.9773
503.20 0.9765
503.30 0.9758
503.40 0.9751
503.50 0.9743
503.60 0.9736
503.70 0.9729
503.80 0.9721
503.90 0.9714
504.00 0.9707
504.10 0.97
504.20 0.9692
504.30 0.9685
504.40 0.9678
504.50 0.9671
504.60 0.9663
504.70 0.9656
504.80 0.9649
504.90 0.9642
505.00 0.9634
505.10 0.9627
505.20 0.962
505.30 0.9613
505.40 0.9606
505.50 0.9598
505.60 0.9591
505.70 0.9584
505.80 0.9577
505.90 0.957
506.00 0.9562
506.10 0.9555
506.20 0.9548
506.30 0.9541
506.40 0.9534
506.50 0.9527
506.60 0.9519
506.70 0.9512
506.80 0.9505
506.90 0.9498
507.00 0.9491
507.10 0.9484
507.20 0.9477
507.30 0.947
507.40 0.9463
507.50 0.9455
507.60 0.9448
507.70 0.9441
507.80 0.9434
507.90 0.9427
508.00 0.942
508.10 0.9413
508.20 0.9406
508.30 0.9399
508.40 0.9392
508.50 0.9385
508.60 0.9378
508.70 0.9371
508.80 0.9364
508.90 0.9357
509.00 0.935
509.10 0.9343
509.20 0.9336
509.30 0.9329
509.40 0.9322
509.50 0.9315
509.60 0.9308
509.70 0.9301
509.80 0.9294
509.90 0.9287
510.00 0.928
510.10 0.9273
510.20 0.9266
510.30 0.9259
510.40 0.9252
510.50 0.9245
510.60 0.9238
510.70 0.9231
510.80 0.9224
510.90 0.9217
511.00 0.921
511.10 0.9204
511.20 0.9197
511.30 0.919
511.40 0.9183
511.50 0.9176
511.60 0.9169
511.70 0.9162
511.80 0.9156
511.90 0.9149
512.00 0.9142
512.10 0.9135
512.20 0.9128
512.30 0.9121
512.40 0.9115
512.50 0.9108
512.60 0.9101
512.70 0.9094
512.80 0.9087
512.90 0.9081
513.00 0.9074
513.10 0.9067
513.20 0.906
513.30 0.9054
513.40 0.9047
513.50 0.904
513.60 0.9033
513.70 0.9027
513.80 0.902
513.90 0.9013
514.00 0.9006
514.10 0.9
514.20 0.8993
514.30 0.8986
514.40 0.898
514.50 0.8973
514.60 0.8966
514.70 0.896
514.80 0.8953
514.90 0.8946
515.00 0.894
515.10 0.8933
515.20 0.8926
515.30 0.892
515.40 0.8913
515.50 0.8906
515.60 0.89
515.70 0.8893
515.80 0.8886
515.90 0.888
516.00 0.8873
516.10 0.8867
516.20 0.886
516.30 0.8853
516.40 0.8847
516.50 0.884
516.60 0.8834
516.70 0.8827
516.80 0.8821
516.90 0.8814
517.00 0.8808
517.10 0.8801
517.20 0.8795
517.30 0.8788
517.40 0.8781
517.50 0.8775
517.60 0.8768
517.70 0.8762
517.80 0.8755
517.90 0.8749
518.00 0.8743
518.10 0.8736
518.20 0.873
518.30 0.8723
518.40 0.8717
518.50 0.871
518.60 0.8704
518.70 0.8697
518.80 0.8691
518.90 0.8684
519.00 0.8678
519.10 0.8672
519.20 0.8665
519.30 0.8659
519.40 0.8652
519.50 0.8646
519.60 0.864
519.70 0.8633
519.80 0.8627
519.90 0.862
520.00 0.8614
520.10 0.8608
520.20 0.8601
520.30 0.8595
520.40 0.8589
520.50 0.8582
520.60 0.8576
520.70 0.857
520.80 0.8563
520.90 0.8557
521.00 0.8551
521.10 0.8544
521.20 0.8538
521.30 0.8532
521.40 0.8526
521.50 0.8519
521.60 0.8513
521.70 0.8507
521.80 0.85
521.90 0.8494
522.00 0.8488
522.10 0.8482
522.20 0.8475
522.30 0.8469
522.40 0.8463
522.50 0.8457
522.60 0.8451
522.70 0.8444
522.80 0.8438
522.90 0.8432
523.00 0.8426
523.10 0.842
523.20 0.8413
523.30 0.8407
523.40 0.8401
523.50 0.8395
523.60 0.8389
523.70 0.8383
523.80 0.8376
523.90 0.837
524.00 0.8364
524.10 0.8358
524.20 0.8352
524.30 0.8346
524.40 0.834
524.50 0.8333
524.60 0.8327
524.70 0.8321
524.80 0.8315
524.90 0.8309
525.00 0.8303
525.10 0.8297
525.20 0.8291
525.30 0.8285
525.40 0.8279
525.50 0.8273
525.60 0.8267
525.70 0.8261
525.80 0.8255
525.90 0.8249
526.00 0.8242
526.10 0.8236
526.20 0.823
526.30 0.8224
526.40 0.8218
526.50 0.8212
526.60 0.8206
526.70 0.82
526.80 0.8194
526.90 0.8188
527.00 0.8182
527.10 0.8177
527.20 0.8171
527.30 0.8165
527.40 0.8159
527.50 0.8153
527.60 0.8147
527.70 0.8141
527.80 0.8135
527.90 0.8129
528.00 0.8123
528.10 0.8117
528.20 0.8111
528.30 0.8105
528.40 0.8099
528.50 0.8094
528.60 0.8088
528.70 0.8082
528.80 0.8076
528.90 0.807
529.00 0.8064
529.10 0.8058
529.20 0.8052
529.30 0.8047
529.40 0.8041
529.50 0.8035
529.60 0.8029
529.70 0.8023
529.80 0.8017
529.90 0.8012
530.00 0.8006
530.10 0.8
530.20 0.7994
530.30 0.7988
530.40 0.7983
530.50 0.7977
530.60 0.7971
530.70 0.7965
530.80 0.7959
530.90 0.7954
531.00 0.7948
531.10 0.7942
531.20 0.7936
531.30 0.7931
531.40 0.7925
531.50 0.7919
531.60 0.7913
531.70 0.7908
531.80 0.7902
531.90 0.7896
532.00 0.7891
532.10 0.7885
532.20 0.7879
532.30 0.7873
532.40 0.7868
532.50 0.7862
532.60 0.7856
532.70 0.7851
532.80 0.7845
532.90 0.7839
533.00 0.7834
533.10 0.7828
533.20 0.7822
533.30 0.7817
533.40 0.7811
533.50 0.7806
533.60 0.78
533.70 0.7794
533.80 0.7789
533.90 0.7783
534.00 0.7777
534.10 0.7772
534.20 0.7766
534.30 0.7761
534.40 0.7755
534.50 0.7749
534.60 0.7744
534.70 0.7738
534.80 0.7733
534.90 0.7727
535.00 0.7722
535.10 0.7716
535.20 0.771
535.30 0.7705
535.40 0.7699
535.50 0.7694
535.60 0.7688
535.70 0.7683
535.80 0.7677
535.90 0.7672
536.00 0.7666
536.10 0.7661
536.20 0.7655
536.30 0.765
536.40 0.7644
536.50 0.7639
536.60 0.7633
536.70 0.7628
536.80 0.7622
536.90 0.7617
537.00 0.7611
537.10 0.7606
537.20 0.7601
537.30 0.7595
537.40 0.759
537.50 0.7584
537.60 0.7579
537.70 0.7573
537.80 0.7568
537.90 0.7563
538.00 0.7557
538.10 0.7552
538.20 0.7546
538.30 0.7541
538.40 0.7536
538.50 0.753
538.60 0.7525
538.70 0.7519
538.80 0.7514
538.90 0.7509
539.00 0.7503
539.10 0.7498
539.20 0.7493
539.30 0.7487
539.40 0.7482
539.50 0.7477
539.60 0.7471
539.70 0.7466
539.80 0.7461
539.90 0.7455
540.00 0.745
540.10 0.7445
540.20 0.7439
540.30 0.7434
540.40 0.7429
540.50 0.7423
540.60 0.7418
540.70 0.7413
540.80 0.7408
540.90 0.7402
541.00 0.7397
541.10 0.7392
541.20 0.7386
541.30 0.7381
541.40 0.7376
541.50 0.7371
541.60 0.7366
541.70 0.736
541.80 0.7355
541.90 0.735
542.00 0.7345
542.10 0.7339
542.20 0.7334
542.30 0.7329
542.40 0.7324
542.50 0.7319
542.60 0.7313
542.70 0.7308
542.80 0.7303
542.90 0.7298
543.00 0.7293
543.10 0.7287
543.20 0.7282
543.30 0.7277
543.40 0.7272
543.50 0.7267
543.60 0.7262
543.70 0.7257
543.80 0.7251
543.90 0.7246
544.00 0.7241
544.10 0.7236
544.20 0.7231
544.30 0.7226
544.40 0.7221
544.50 0.7216
544.60 0.721
544.70 0.7205
544.80 0.72
544.90 0.7195
545.00 0.719
545.10 0.7185
545.20 0.718
545.30 0.7175
545.40 0.717
545.50 0.7165
545.60 0.716
545.70 0.7155
545.80 0.715
545.90 0.7144
546.00 0.7139
546.10 0.7134
546.20 0.7129
546.30 0.7124
546.40 0.7119
546.50 0.7114
546.60 0.7109
546.70 0.7104
546.80 0.7099
546.90 0.7094
547.00 0.7089
547.10 0.7084
547.20 0.7079
547.30 0.7074
547.40 0.7069
547.50 0.7064
547.60 0.7059
547.70 0.7054
547.80 0.7049
547.90 0.7045
548.00 0.704
548.10 0.7035
548.20 0.703
548.30 0.7025
548.40 0.702
548.50 0.7015
548.60 0.701
548.70 0.7005
548.80 0.7
548.90 0.6995
549.00 0.699
549.10 0.6985
549.20 0.698
549.30 0.6976
549.40 0.6971
549.50 0.6966
549.60 0.6961
549.70 0.6956
549.80 0.6951
549.90 0.6946
550.00 0.6941
550.10 0.6937
550.20 0.6932
550.30 0.6927
550.40 0.6922
550.50 0.6917
550.60 0.6912
550.70 0.6908
550.80 0.6903
550.90 0.6898
551.00 0.6893
551.10 0.6888
551.20 0.6883
551.30 0.6879
551.40 0.6874
551.50 0.6869
551.60 0.6864
551.70 0.6859
551.80 0.6855
551.90 0.685
552.00 0.6845
552.10 0.684
552.20 0.6835
552.30 0.6831
552.40 0.6826
552.50 0.6821
552.60 0.6816
552.70 0.6812
552.80 0.6807
552.90 0.6802
553.00 0.6797
553.10 0.6793
553.20 0.6788
553.30 0.6783
553.40 0.6779
553.50 0.6774
553.60 0.6769
553.70 0.6764
553.80 0.676
553.90 0.6755
554.00 0.675
554.10 0.6746
554.20 0.6741
554.30 0.6736
554.40 0.6732
554.50 0.6727
554.60 0.6722
554.70 0.6717
554.80 0.6713
554.90 0.6708
555.00 0.6703
555.10 0.6699
555.20 0.6694
555.30 0.669
555.40 0.6685
555.50 0.668
555.60 0.6676
555.70 0.6671
555.80 0.6666
555.90 0.6662
556.00 0.6657
556.10 0.6653
556.20 0.6648
556.30 0.6643
556.40 0.6639
556.50 0.6634
556.60 0.663
556.70 0.6625
556.80 0.662
556.90 0.6616
557.00 0.6611
557.10 0.6607
557.20 0.6602
557.30 0.6597
557.40 0.6593
557.50 0.6588
557.60 0.6584
557.70 0.6579
557.80 0.6575
557.90 0.657
558.00 0.6566
558.10 0.6561
558.20 0.6557
558.30 0.6552
558.40 0.6548
558.50 0.6543
558.60 0.6538
558.70 0.6534
558.80 0.6529
558.90 0.6525
559.00 0.652
559.10 0.6516
559.20 0.6511
559.30 0.6507
559.40 0.6503
559.50 0.6498
559.60 0.6494
559.70 0.6489
559.80 0.6485
559.90 0.648
560.00 0.6476
560.10 0.6471
560.20 0.6467
560.30 0.6462
560.40 0.6458
560.50 0.6453
560.60 0.6449
560.70 0.6445
560.80 0.644
560.90 0.6436
561.00 0.6431
561.10 0.6427
561.20 0.6422
561.30 0.6418
561.40 0.6414
561.50 0.6409
561.60 0.6405
561.70 0.64
561.80 0.6396
561.90 0.6392
562.00 0.6387
562.10 0.6383
562.20 0.6378
562.30 0.6374
562.40 0.637
562.50 0.6365
562.60 0.6361
562.70 0.6357
562.80 0.6352
562.90 0.6348
563.00 0.6344
563.10 0.6339
563.20 0.6335
563.30 0.6331
563.40 0.6326
563.50 0.6322
563.60 0.6318
563.70 0.6313
563.80 0.6309
563.90 0.6305
564.00 0.63
564.10 0.6296
564.20 0.6292
564.30 0.6287
564.40 0.6283
564.50 0.6279
564.60 0.6275
564.70 0.627
564.80 0.6266
564.90 0.6262
565.00 0.6257
565.10 0.6253
565.20 0.6249
565.30 0.6245
565.40 0.624
565.50 0.6236
565.60 0.6232
565.70 0.6228
565.80 0.6223
565.90 0.6219
566.00 0.6215
566.10 0.6211
566.20 0.6206
566.30 0.6202
566.40 0.6198
566.50 0.6194
566.60 0.619
566.70 0.6185
566.80 0.6181
566.90 0.6177
567.00 0.6173
567.10 0.6169
567.20 0.6164
567.30 0.616
567.40 0.6156
567.50 0.6152
567.60 0.6148
567.70 0.6143
567.80 0.6139
567.90 0.6135
568.00 0.6131
568.10 0.6127
568.20 0.6123
568.30 0.6118
568.40 0.6114
568.50 0.611
568.60 0.6106
568.70 0.6102
568.80 0.6098
568.90 0.6094
569.00 0.6089
569.10 0.6085
569.20 0.6081
569.30 0.6077
569.40 0.6073
569.50 0.6069
569.60 0.6065
569.70 0.6061
569.80 0.6057
569.90 0.6052
570.00 0.6048
570.10 0.6044
570.20 0.604
570.30 0.6036
570.40 0.6032
570.50 0.6028
570.60 0.6024
570.70 0.602
570.80 0.6016
570.90 0.6012
571.00 0.6008
571.10 0.6004
571.20 0.5999
571.30 0.5995
571.40 0.5991
571.50 0.5987
571.60 0.5983
571.70 0.5979
571.80 0.5975
571.90 0.5971
572.00 0.5967
572.10 0.5963
572.20 0.5959
572.30 0.5955
572.40 0.5951
572.50 0.5947
572.60 0.5943
572.70 0.5939
572.80 0.5935
572.90 0.5931
573.00 0.5927
573.10 0.5923
573.20 0.5919
573.30 0.5915
573.40 0.5911
573.50 0.5907
573.60 0.5903
573.70 0.5899
573.80 0.5895
573.90 0.5891
574.00 0.5887
574.10 0.5883
574.20 0.5879
574.30 0.5876
574.40 0.5872
574.50 0.5868
574.60 0.5864
574.70 0.586
574.80 0.5856
574.90 0.5852
575.00 0.5848
575.10 0.5844
575.20 0.584
575.30 0.5836
575.40 0.5832
575.50 0.5828
575.60 0.5824
575.70 0.5821
575.80 0.5817
575.90 0.5813
576.00 0.5809
576.10 0.5805
576.20 0.5801
576.30 0.5797
576.40 0.5793
576.50 0.5789
576.60 0.5786
576.70 0.5782
576.80 0.5778
576.90 0.5774
577.00 0.577
577.10 0.5766
577.20 0.5762
577.30 0.5759
577.40 0.5755
577.50 0.5751
577.60 0.5747
577.70 0.5743
577.80 0.5739
577.90 0.5736
578.00 0.5732
578.10 0.5728
578.20 0.5724
578.30 0.572
578.40 0.5716
578.50 0.5713
578.60 0.5709
578.70 0.5705
578.80 0.5701
578.90 0.5697
579.00 0.5694
579.10 0.569
579.20 0.5686
579.30 0.5682
579.40 0.5678
579.50 0.5675
579.60 0.5671
579.70 0.5667
579.80 0.5663
579.90 0.566
580.00 0.5656
580.10 0.5652
580.20 0.5648
580.30 0.5644
580.40 0.5641
580.50 0.5637
580.60 0.5633
580.70 0.563
580.80 0.5626
580.90 0.5622
581.00 0.5618
581.10 0.5615
581.20 0.5611
581.30 0.5607
581.40 0.5603
581.50 0.56
581.60 0.5596
581.70 0.5592
581.80 0.5589
581.90 0.5585
582.00 0.5581
582.10 0.5577
582.20 0.5574
582.30 0.557
582.40 0.5566
582.50 0.5563
582.60 0.5559
582.70 0.5555
582.80 0.5552
582.90 0.5548
583.00 0.5544
583.10 0.5541
583.20 0.5537
583.30 0.5533
583.40 0.553
583.50 0.5526
583.60 0.5522
583.70 0.5519
583.80 0.5515
583.90 0.5511
584.00 0.5508
584.10 0.5504
584.20 0.55
584.30 0.5497
584.40 0.5493
584.50 0.549
584.60 0.5486
584.70 0.5482
584.80 0.5479
584.90 0.5475
585.00 0.5471
585.10 0.5468
585.20 0.5464
585.30 0.5461
585.40 0.5457
585.50 0.5453
585.60 0.545
585.70 0.5446
585.80 0.5443
585.90 0.5439
586.00 0.5435
586.10 0.5432
586.20 0.5428
586.30 0.5425
586.40 0.5421
586.50 0.5418
586.60 0.5414
586.70 0.541
586.80 0.5407
586.90 0.5403
587.00 0.54
587.10 0.5396
587.20 0.5393
587.30 0.5389
587.40 0.5386
587.50 0.5382
587.60 0.5379
587.70 0.5375
587.80 0.5371
587.90 0.5368
588.00 0.5364
588.10 0.5361
588.20 0.5357
588.30 0.5354
588.40 0.535
588.50 0.5347
588.60 0.5343
588.70 0.534
588.80 0.5336
588.90 0.5333
589.00 0.5329
589.10 0.5326
589.20 0.5322
589.30 0.5319
589.40 0.5315
589.50 0.5312
589.60 0.5308
589.70 0.5305
589.80 0.5301
589.90 0.5298
590.00 0.5295
590.10 0.5291
590.20 0.5288
590.30 0.5284
590.40 0.5281
590.50 0.5277
590.60 0.5274
590.70 0.527
590.80 0.5267
590.90 0.5263
591.00 0.526
591.10 0.5257
591.20 0.5253
591.30 0.525
591.40 0.5246
591.50 0.5243
591.60 0.5239
591.70 0.5236
591.80 0.5233
591.90 0.5229
592.00 0.5226
592.10 0.5222
592.20 0.5219
592.30 0.5216
592.40 0.5212
592.50 0.5209
592.60 0.5205
592.70 0.5202
592.80 0.5199
592.90 0.5195
593.00 0.5192
593.10 0.5188
593.20 0.5185
593.30 0.5182
593.40 0.5178
593.50 0.5175
593.60 0.5172
593.70 0.5168
593.80 0.5165
593.90 0.5162
594.00 0.5158
594.10 0.5155
594.20 0.5151
594.30 0.5148
594.40 0.5145
594.50 0.5141
594.60 0.5138
594.70 0.5135
594.80 0.5131
594.90 0.5128
595.00 0.5125
595.10 0.5121
595.20 0.5118
595.30 0.5115
595.40 0.5111
595.50 0.5108
595.60 0.5105
595.70 0.5102
595.80 0.5098
595.90 0.5095
596.00 0.5092
596.10 0.5088
596.20 0.5085
596.30 0.5082
596.40 0.5078
596.50 0.5075
596.60 0.5072
596.70 0.5069
596.80 0.5065
596.90 0.5062
597.00 0.5059
597.10 0.5055
597.20 0.5052
597.30 0.5049
597.40 0.5046
597.50 0.5042
597.60 0.5039
597.70 0.5036
597.80 0.5033
597.90 0.5029
598.00 0.5026
598.10 0.5023
598.20 0.502
598.30 0.5016
598.40 0.5013
598.50 0.501
598.60 0.5007
598.70 0.5003
598.80 0.5
598.90 0.4997
599.00 0.4994
599.10 0.4991
599.20 0.4987
599.30 0.4984
599.40 0.4981
599.50 0.4978
599.60 0.4975
599.70 0.4971
599.80 0.4968
599.90 0.4965
600.00 0.4962
600.10 0.4959
600.20 0.4955
600.30 0.4952
600.40 0.4949
600.50 0.4946
600.60 0.4943
600.70 0.4939
600.80 0.4936
600.90 0.4933
601.00 0.493
601.10 0.4927
601.20 0.4924
601.30 0.492
601.40 0.4917
601.50 0.4914
601.60 0.4911
601.70 0.4908
601.80 0.4905
601.90 0.4901
602.00 0.4898
602.10 0.4895
602.20 0.4892
602.30 0.4889
602.40 0.4886
602.50 0.4883
602.60 0.488
602.70 0.4876
602.80 0.4873
602.90 0.487
603.00 0.4867
603.10 0.4864
603.20 0.4861
603.30 0.4858
603.40 0.4855
603.50 0.4851
603.60 0.4848
603.70 0.4845
603.80 0.4842
603.90 0.4839
604.00 0.4836
604.10 0.4833
604.20 0.483
604.30 0.4827
604.40 0.4824
604.50 0.482
604.60 0.4817
604.70 0.4814
604.80 0.4811
604.90 0.4808
605.00 0.4805
605.10 0.4802
605.20 0.4799
605.30 0.4796
605.40 0.4793
605.50 0.479
605.60 0.4787
605.70 0.4784
605.80 0.4781
605.90 0.4778
606.00 0.4775
606.10 0.4771
606.20 0.4768
606.30 0.4765
606.40 0.4762
606.50 0.4759
606.60 0.4756
606.70 0.4753
606.80 0.475
606.90 0.4747
607.00 0.4744
607.10 0.4741
607.20 0.4738
607.30 0.4735
607.40 0.4732
607.50 0.4729
607.60 0.4726
607.70 0.4723
607.80 0.472
607.90 0.4717
608.00 0.4714
608.10 0.4711
608.20 0.4708
608.30 0.4705
608.40 0.4702
608.50 0.4699
608.60 0.4696
608.70 0.4693
608.80 0.469
608.90 0.4687
609.00 0.4684
609.10 0.4681
609.20 0.4678
609.30 0.4675
609.40 0.4672
609.50 0.4669
609.60 0.4666
609.70 0.4663
609.80 0.4661
609.90 0.4658
610.00 0.4655
610.10 0.4652
610.20 0.4649
610.30 0.4646
610.40 0.4643
610.50 0.464
610.60 0.4637
610.70 0.4634
610.80 0.4631
610.90 0.4628
611.00 0.4625
611.10 0.4622
611.20 0.4619
611.30 0.4616
611.40 0.4614
611.50 0.4611
611.60 0.4608
611.70 0.4605
611.80 0.4602
611.90 0.4599
612.00 0.4596
612.10 0.4593
612.20 0.459
612.30 0.4587
612.40 0.4584
612.50 0.4582
612.60 0.4579
612.70 0.4576
612.80 0.4573
612.90 0.457
613.00 0.4567
613.10 0.4564
613.20 0.4561
613.30 0.4558
613.40 0.4556
613.50 0.4553
613.60 0.455
613.70 0.4547
613.80 0.4544
613.90 0.4541
614.00 0.4538
614.10 0.4536
614.20 0.4533
614.30 0.453
614.40 0.4527
614.50 0.4524
614.60 0.4521
614.70 0.4518
614.80 0.4516
614.90 0.4513
615.00 0.451
615.10 0.4507
615.20 0.4504
615.30 0.4501
615.40 0.4499
615.50 0.4496
615.60 0.4493
615.70 0.449
615.80 0.4487
615.90 0.4484
616.00 0.4482
616.10 0.4479
616.20 0.4476
616.30 0.4473
616.40 0.447
616.50 0.4468
616.60 0.4465
616.70 0.4462
616.80 0.4459
616.90 0.4456
617.00 0.4454
617.10 0.4451
617.20 0.4448
617.30 0.4445
617.40 0.4442
617.50 0.444
617.60 0.4437
617.70 0.4434
617.80 0.4431
617.90 0.4429
618.00 0.4426
618.10 0.4423
618.20 0.442
618.30 0.4417
618.40 0.4415
618.50 0.4412
618.60 0.4409
618.70 0.4406
618.80 0.4404
618.90 0.4401
619.00 0.4398
619.10 0.4395
619.20 0.4393
619.30 0.439
619.40 0.4387
619.50 0.4384
619.60 0.4382
619.70 0.4379
619.80 0.4376
619.90 0.4373
620.00 0.4371
620.10 0.4368
620.20 0.4365
620.30 0.4363
620.40 0.436
620.50 0.4357
620.60 0.4354
620.70 0.4352
620.80 0.4349
620.90 0.4346
621.00 0.4344
621.10 0.4341
621.20 0.4338
621.30 0.4335
621.40 0.4333
621.50 0.433
621.60 0.4327
621.70 0.4325
621.80 0.4322
621.90 0.4319
622.00 0.4317
622.10 0.4314
622.20 0.4311
622.30 0.4309
622.40 0.4306
622.50 0.4303
622.60 0.43
622.70 0.4298
622.80 0.4295
622.90 0.4292
623.00 0.429
623.10 0.4287
623.20 0.4284
623.30 0.4282
623.40 0.4279
623.50 0.4276
623.60 0.4274
623.70 0.4271
623.80 0.4268
623.90 0.4266
624.00 0.4263
624.10 0.4261
624.20 0.4258
624.30 0.4255
624.40 0.4253
624.50 0.425
624.60 0.4247
624.70 0.4245
624.80 0.4242
624.90 0.4239
625.00 0.4237
625.10 0.4234
625.20 0.4232
625.30 0.4229
625.40 0.4226
625.50 0.4224
625.60 0.4221
625.70 0.4218
625.80 0.4216
625.90 0.4213
626.00 0.4211
626.10 0.4208
626.20 0.4205
626.30 0.4203
626.40 0.42
626.50 0.4198
626.60 0.4195
626.70 0.4192
626.80 0.419
626.90 0.4187
627.00 0.4185
627.10 0.4182
627.20 0.4179
627.30 0.4177
627.40 0.4174
627.50 0.4172
627.60 0.4169
627.70 0.4167
627.80 0.4164
627.90 0.4161
628.00 0.4159
628.10 0.4156
628.20 0.4154
628.30 0.4151
628.40 0.4149
628.50 0.4146
628.60 0.4143
628.70 0.4141
628.80 0.4138
628.90 0.4136
629.00 0.4133
629.10 0.4131
629.20 0.4128
629.30 0.4126
629.40 0.4123
629.50 0.412
629.60 0.4118
629.70 0.4115
629.80 0.4113
629.90 0.411
630.00 0.4108
630.10 0.4105
630.20 0.4103
630.30 0.41
630.40 0.4098
630.50 0.4095
630.60 0.4093
630.70 0.409
630.80 0.4088
630.90 0.4085
631.00 0.4082
631.10 0.408
631.20 0.4077
631.30 0.4075
631.40 0.4072
631.50 0.407
631.60 0.4067
631.70 0.4065
631.80 0.4062
631.90 0.406
632.00 0.4057
632.10 0.4055
632.20 0.4052
632.30 0.405
632.40 0.4047
632.50 0.4045
632.60 0.4042
632.70 0.404
632.80 0.4037
632.90 0.4035
633.00 0.4032
633.10 0.403
633.20 0.4027
633.30 0.4025
633.40 0.4023
633.50 0.402
633.60 0.4018
633.70 0.4015
633.80 0.4013
633.90 0.401
634.00 0.4008
634.10 0.4005
634.20 0.4003
634.30 0.4
634.40 0.3998
634.50 0.3995
634.60 0.3993
634.70 0.399
634.80 0.3988
634.90 0.3986
635.00 0.3983
635.10 0.3981
635.20 0.3978
635.30 0.3976
635.40 0.3973
635.50 0.3971
635.60 0.3968
635.70 0.3966
635.80 0.3963
635.90 0.3961
636.00 0.3959
636.10 0.3956
636.20 0.3954
636.30 0.3951
636.40 0.3949
636.50 0.3946
636.60 0.3944
636.70 0.3942
636.80 0.3939
636.90 0.3937
637.00 0.3934
637.10 0.3932
637.20 0.3929
637.30 0.3927
637.40 0.3925
637.50 0.3922
637.60 0.392
637.70 0.3917
637.80 0.3915
637.90 0.3913
638.00 0.391
638.10 0.3908
638.20 0.3905
638.30 0.3903
638.40 0.39
638.50 0.3898
638.60 0.3896
638.70 0.3893
638.80 0.3891
638.90 0.3888
639.00 0.3886
639.10 0.3884
639.20 0.3881
639.30 0.3879
639.40 0.3876
639.50 0.3874
639.60 0.3872
639.70 0.3869
639.80 0.3867
639.90 0.3864
640.00 0.3862
640.10 0.386
640.20 0.3857
640.30 0.3855
640.40 0.3852
640.50 0.385
640.60 0.3848
640.70 0.3845
640.80 0.3843
640.90 0.384
641.00 0.3838
641.10 0.3836
641.20 0.3833
641.30 0.3831
641.40 0.3828
641.50 0.3826
641.60 0.3824
641.70 0.3821
641.80 0.3819
641.90 0.3817
642.00 0.3814
642.10 0.3812
642.20 0.3809
642.30 0.3807
642.40 0.3805
642.50 0.3802
642.60 0.38
642.70 0.3797
642.80 0.3795
642.90 0.3793
643.00 0.379
643.10 0.3788
643.20 0.3785
643.30 0.3783
643.40 0.3781
643.50 0.3778
643.60 0.3776
643.70 0.3773
643.80 0.3771
643.90 0.3769
644.00 0.3766
644.10 0.3764
644.20 0.3761
644.30 0.3759
644.40 0.3756
644.50 0.3754
644.60 0.3752
644.70 0.3749
644.80 0.3747
644.90 0.3744
645.00 0.3742
645.10 0.3739
645.20 0.3737
645.30 0.3735
645.40 0.3732
645.50 0.373
645.60 0.3727
645.70 0.3725
645.80 0.3722
645.90 0.372
646.00 0.3717
646.10 0.3715
646.20 0.3712
646.30 0.371
646.40 0.3707
646.50 0.3705
646.60 0.3702
646.70 0.37
646.80 0.3697
646.90 0.3695
647.00 0.3692
647.10 0.369
647.20 0.3687
647.30 0.3685
647.40 0.3682
647.50 0.3679
647.60 0.3677
647.70 0.3674
647.80 0.3671
647.90 0.3669
648.00 0.3666
648.10 0.3664
648.20 0.3661
648.30 0.3658
648.40 0.3655
648.50 0.3653
648.60 0.365
648.70 0.3647
648.80 0.3644
648.90 0.3641
649.00 0.3639
649.10 0.3636
649.20 0.3633
649.30 0.363
649.40 0.3627
649.50 0.3624
649.60 0.3621
649.70 0.3618
649.80 0.3615
649.90 0.3612
650.00 0.3609
650.10 0.3606
650.20 0.3603
650.30 0.3599
650.40 0.3596
650.50 0.3592
650.60 0.3589
650.70 0.3585
650.80 0.3582
650.90 0.3578
651.00 0.3575
651.10 0.3571
651.20 0.3568
651.30 0.3564
651.40 0.356
651.50 0.3556
651.60 0.3551
651.70 0.3547
651.80 0.3543
651.90 0.3539
652.00 0.3534
652.10 0.353
652.20 0.3526
652.30 0.3521
652.40 0.3516
652.50 0.351
652.60 0.3505
652.70 0.3499
652.80 0.3494
652.90 0.3488
653.00 0.3483
653.10 0.3477
653.20 0.3472
653.30 0.3466
653.40 0.3458
653.50 0.3451
653.60 0.3443
653.70 0.3436
653.80 0.3428
653.90 0.3421
654.00 0.3413
654.10 0.3406
654.20 0.3398
654.30 0.339
654.40 0.3381
654.50 0.3371
654.60 0.3362
654.70 0.3352
654.80 0.3343
654.90 0.3332
655.00 0.3321
655.10 0.331
655.20 0.3299
655.30 0.3288
655.40 0.3277
655.50 0.3265
655.60 0.3253
655.70 0.3241
655.80 0.3228
655.90 0.3216
656.00 0.3206
656.10 0.3199
656.20 0.3278
656.30 0.3417
656.40 0.3221
656.50 0.3192
656.60 0.3198
656.70 0.3205
656.80 0.3214
656.90 0.3223
657.00 0.3231
657.10 0.3239
657.20 0.3247
657.30 0.3254
657.40 0.3261
657.50 0.3268
657.60 0.3275
657.70 0.3282
657.80 0.3289
657.90 0.3294
658.00 0.33
658.10 0.3305
658.20 0.3311
658.30 0.3316
658.40 0.3319
658.50 0.3323
658.60 0.3326
658.70 0.333
658.80 0.3333
658.90 0.3336
659.00 0.334
659.10 0.3343
659.20 0.3347
659.30 0.335
659.40 0.3351
659.50 0.3352
659.60 0.3354
659.70 0.3355
659.80 0.3356
659.90 0.3358
660.00 0.3359
660.10 0.336
660.20 0.3362
660.30 0.3363
660.40 0.3363
660.50 0.3363
660.60 0.3363
660.70 0.3363
660.80 0.3363
660.90 0.3363
661.00 0.3363
661.10 0.3363
661.20 0.3363
661.30 0.3363
661.40 0.3363
661.50 0.3362
661.60 0.3361
661.70 0.3361
661.80 0.336
661.90 0.3359
662.00 0.3358
662.10 0.3358
662.20 0.3357
662.30 0.3356
662.40 0.3355
662.50 0.3354
662.60 0.3353
662.70 0.3352
662.80 0.3351
662.90 0.3349
663.00 0.3348
663.10 0.3347
663.20 0.3346
663.30 0.3345
663.40 0.3343
663.50 0.3342
663.60 0.3341
663.70 0.3339
663.80 0.3338
663.90 0.3336
664.00 0.3335
664.10 0.3334
664.20 0.3332
664.30 0.3331
664.40 0.3329
664.50 0.3328
664.60 0.3326
664.70 0.3325
664.80 0.3323
664.90 0.3322
665.00 0.332
665.10 0.3318
665.20 0.3317
665.30 0.3315
665.40 0.3314
665.50 0.3312
665.60 0.331
665.70 0.3309
665.80 0.3307
665.90 0.3305
666.00 0.3304
666.10 0.3302
666.20 0.33
666.30 0.3299
666.40 0.3297
666.50 0.3295
666.60 0.3294
666.70 0.3292
666.80 0.329
666.90 0.3288
667.00 0.3287
667.10 0.3285
667.20 0.3283
667.30 0.3282
667.40 0.328
667.50 0.3278
667.60 0.3276
667.70 0.3275
667.80 0.3273
667.90 0.3271
668.00 0.3269
668.10 0.3268
668.20 0.3266
668.30 0.3264
668.40 0.3262
668.50 0.326
668.60 0.3259
668.70 0.3257
668.80 0.3255
668.90 0.3253
669.00 0.3252
669.10 0.325
669.20 0.3248
669.30 0.3246
669.40 0.3245
669.50 0.3243
669.60 0.3241
669.70 0.3239
669.80 0.3237
669.90 0.3236
670.00 0.3234
670.10 0.3232
670.20 0.323
670.30 0.3228
670.40 0.3227
670.50 0.3225
670.60 0.3223
670.70 0.3221
670.80 0.3219
670.90 0.3218
671.00 0.3216
671.10 0.3214
671.20 0.3212
671.30 0.3211
671.40 0.3209
671.50 0.3207
671.60 0.3205
671.70 0.3203
671.80 0.3202
671.90 0.32
672.00 0.3198
672.10 0.3196
672.20 0.3194
672.30 0.3193
672.40 0.3191
672.50 0.3189
672.60 0.3187
672.70 0.3185
672.80 0.3184
672.90 0.3182
673.00 0.318
673.10 0.3178
673.20 0.3177
673.30 0.3175
673.40 0.3173
673.50 0.3171
673.60 0.3169
673.70 0.3168
673.80 0.3166
673.90 0.3164
674.00 0.3162
674.10 0.316
674.20 0.3159
674.30 0.3157
674.40 0.3155
674.50 0.3153
674.60 0.3152
674.70 0.315
674.80 0.3148
674.90 0.3146
675.00 0.3144
675.10 0.3143
675.20 0.3141
675.30 0.3139
675.40 0.3137
675.50 0.3136
675.60 0.3134
675.70 0.3132
675.80 0.313
675.90 0.3128
676.00 0.3127
676.10 0.3125
676.20 0.3123
676.30 0.3121
676.40 0.312
676.50 0.3118
676.60 0.3116
676.70 0.3114
676.80 0.3113
676.90 0.3111
677.00 0.3109
677.10 0.3107
677.20 0.3106
677.30 0.3104
677.40 0.3102
677.50 0.31
677.60 0.3099
677.70 0.3097
677.80 0.3095
677.90 0.3093
678.00 0.3092
678.10 0.309
678.20 0.3088
678.30 0.3086
678.40 0.3085
678.50 0.3083
678.60 0.3081
678.70 0.3079
678.80 0.3078
678.90 0.3076
679.00 0.3074
679.10 0.3072
679.20 0.3071
679.30 0.3069
679.40 0.3067
679.50 0.3065
679.60 0.3064
679.70 0.3062
679.80 0.306
679.90 0.3058
680.00 0.3057
680.10 0.3055
680.20 0.3053
680.30 0.3052
680.40 0.305
680.50 0.3048
680.60 0.3046
680.70 0.3045
680.80 0.3043
680.90 0.3041
681.00 0.304
681.10 0.3038
681.20 0.3036
681.30 0.3034
681.40 0.3033
681.50 0.3031
681.60 0.3029
681.70 0.3028
681.80 0.3026
681.90 0.3024
682.00 0.3022
682.10 0.3021
682.20 0.3019
682.30 0.3017
682.40 0.3016
682.50 0.3014
682.60 0.3012
682.70 0.301
682.80 0.3009
682.90 0.3007
683.00 0.3005
683.10 0.3004
683.20 0.3002
683.30 0.3
683.40 0.2999
683.50 0.2997
683.60 0.2995
683.70 0.2993
683.80 0.2992
683.90 0.299
684.00 0.2988
684.10 0.2987
684.20 0.2985
684.30 0.2983
684.40 0.2982
684.50 0.298
684.60 0.2978
684.70 0.2977
684.80 0.2975
684.90 0.2973
685.00 0.2972
685.10 0.297
685.20 0.2968
685.30 0.2967
685.40 0.2965
685.50 0.2963
685.60 0.2962
685.70 0.296
685.80 0.2958
685.90 0.2957
686.00 0.2955
686.10 0.2953
686.20 0.2952
686.30 0.295
686.40 0.2948
686.50 0.2947
686.60 0.2945
686.70 0.2943
686.80 0.2942
686.90 0.294
687.00 0.2938
687.10 0.2937
687.20 0.2935
687.30 0.2933
687.40 0.2932
687.50 0.293
687.60 0.2928
687.70 0.2927
687.80 0.2925
687.90 0.2924
688.00 0.2922
688.10 0.292
688.20 0.2919
688.30 0.2917
688.40 0.2915
688.50 0.2914
688.60 0.2912
688.70 0.291
688.80 0.2909
688.90 0.2907
689.00 0.2906
689.10 0.2904
689.20 0.2902
689.30 0.2901
689.40 0.2899
689.50 0.2897
689.60 0.2896
689.70 0.2894
689.80 0.2893
689.90 0.2891
690.00 0.2889
690.10 0.2888
690.20 0.2886
690.30 0.2885
690.40 0.2883
690.50 0.2881
690.60 0.288
690.70 0.2878
690.80 0.2876
690.90 0.2875
691.00 0.2873
691.10 0.2872
691.20 0.287
691.30 0.2868
691.40 0.2867
691.50 0.2865
691.60 0.2864
691.70 0.2862
691.80 0.286
691.90 0.2859
692.00 0.2857
692.10 0.2856
692.20 0.2854
692.30 0.2852
692.40 0.2851
692.50 0.2849
692.60 0.2848
692.70 0.2846
692.80 0.2844
692.90 0.2843
693.00 0.2841
693.10 0.284
693.20 0.2838
693.30 0.2837
693.40 0.2835
693.50 0.2833
693.60 0.2832
693.70 0.283
693.80 0.2829
693.90 0.2827
694.00 0.2825
694.10 0.2824
694.20 0.2822
694.30 0.2821
694.40 0.2819
694.50 0.2818
694.60 0.2816
694.70 0.2814
694.80 0.2813
694.90 0.2811
695.00 0.281
695.10 0.2808
695.20 0.2807
695.30 0.2805
695.40 0.2803
695.50 0.2802
695.60 0.28
695.70 0.2799
695.80 0.2797
695.90 0.2796
696.00 0.2794
696.10 0.2793
696.20 0.2791
696.30 0.279
696.40 0.2788
696.50 0.2786
696.60 0.2785
696.70 0.2783
696.80 0.2782
696.90 0.278
697.00 0.2779
697.10 0.2777
697.20 0.2776
697.30 0.2774
697.40 0.2773
697.50 0.2771
697.60 0.2769
697.70 0.2768
697.80 0.2766
697.90 0.2765
698.00 0.2763
698.10 0.2762
698.20 0.276
698.30 0.2759
698.40 0.2757
698.50 0.2756
698.60 0.2754
698.70 0.2753
698.80 0.2751
698.90 0.275
699.00 0.2748
699.10 0.2747
699.20 0.2745
699.30 0.2743
699.40 0.2742
699.50 0.274
699.60 0.2739
699.70 0.2737
699.80 0.2736
699.90 0.2734
700.00 0.2733
700.10 0.2731
700.20 0.273
700.30 0.2728
700.40 0.2727
700.50 0.2725
700.60 0.2724
700.70 0.2722
700.80 0.2721
700.90 0.2719
701.00 0.2718
701.10 0.2716
701.20 0.2715
701.30 0.2713
701.40 0.2712
701.50 0.271
701.60 0.2709
701.70 0.2707
701.80 0.2706
701.90 0.2704
702.00 0.2703
702.10 0.2701
702.20 0.27
702.30 0.2698
702.40 0.2697
702.50 0.2695
702.60 0.2694
702.70 0.2692
702.80 0.2691
702.90 0.2689
703.00 0.2688
703.10 0.2687
703.20 0.2685
703.30 0.2684
703.40 0.2682
703.50 0.2681
703.60 0.2679
703.70 0.2678
703.80 0.2676
703.90 0.2675
704.00 0.2673
704.10 0.2672
704.20 0.267
704.30 0.2669
704.40 0.2667
704.50 0.2666
704.60 0.2664
704.70 0.2663
704.80 0.2661
704.90 0.266
705.00 0.2658
705.10 0.2657
705.20 0.2656
705.30 0.2654
705.40 0.2653
705.50 0.2651
705.60 0.265
705.70 0.2648
705.80 0.2647
705.90 0.2645
706.00 0.2644
706.10 0.2643
706.20 0.2641
706.30 0.264
706.40 0.2638
706.50 0.2637
706.60 0.2635
706.70 0.2634
706.80 0.2632
706.90 0.2631
707.00 0.263
707.10 0.2628
707.20 0.2627
707.30 0.2625
707.40 0.2624
707.50 0.2622
707.60 0.2621
707.70 0.2619
707.80 0.2618
707.90 0.2617
708.00 0.2615
708.10 0.2614
708.20 0.2612
708.30 0.2611
708.40 0.2609
708.50 0.2608
708.60 0.2607
708.70 0.2605
708.80 0.2604
708.90 0.2602
709.00 0.2601
709.10 0.2599
709.20 0.2598
709.30 0.2597
709.40 0.2595
709.50 0.2594
709.60 0.2592
709.70 0.2591
709.80 0.259
709.90 0.2588
710.00 0.2587
710.10 0.2585
710.20 0.2584
710.30 0.2582
710.40 0.2581
710.50 0.258
710.60 0.2578
710.70 0.2577
710.80 0.2575
710.90 0.2574
711.00 0.2573
711.10 0.2571
711.20 0.257
711.30 0.2568
711.40 0.2567
711.50 0.2566
711.60 0.2564
711.70 0.2563
711.80 0.2561
711.90 0.256
712.00 0.2559
712.10 0.2557
712.20 0.2556
712.30 0.2555
712.40 0.2553
712.50 0.2552
712.60 0.255
712.70 0.2549
712.80 0.2548
712.90 0.2546
713.00 0.2545
713.10 0.2543
713.20 0.2542
713.30 0.2541
713.40 0.2539
713.50 0.2538
713.60 0.2537
713.70 0.2535
713.80 0.2534
713.90 0.2532
714.00 0.2531
714.10 0.253
714.20 0.2528
714.30 0.2527
714.40 0.2526
714.50 0.2524
714.60 0.2523
714.70 0.2521
714.80 0.252
714.90 0.2519
715.00 0.2517
715.10 0.2516
715.20 0.2515
715.30 0.2513
715.40 0.2512
715.50 0.251
715.60 0.2509
715.70 0.2508
715.80 0.2506
715.90 0.2505
716.00 0.2504
716.10 0.2502
716.20 0.2501
716.30 0.25
716.40 0.2498
716.50 0.2497
716.60 0.2496
716.70 0.2494
716.80 0.2493
716.90 0.2492
717.00 0.249
717.10 0.2489
717.20 0.2488
717.30 0.2486
717.40 0.2485
717.50 0.2484
717.60 0.2482
717.70 0.2481
717.80 0.2479
717.90 0.2478
718.00 0.2477
718.10 0.2475
718.20 0.2474
718.30 0.2473
718.40 0.2471
718.50 0.247
718.60 0.2469
718.70 0.2467
718.80 0.2466
718.90 0.2465
719.00 0.2463
719.10 0.2462
719.20 0.2461
719.30 0.2459
719.40 0.2458
719.50 0.2457
719.60 0.2455
719.70 0.2454
719.80 0.2453
719.90 0.2451
720.00 0.245
720.10 0.2449
720.20 0.2448
720.30 0.2446
720.40 0.2445
720.50 0.2444
720.60 0.2442
720.70 0.2441
720.80 0.244
720.90 0.2438
721.00 0.2437
721.10 0.2436
721.20 0.2434
721.30 0.2433
721.40 0.2432
721.50 0.2431
721.60 0.2429
721.70 0.2428
721.80 0.2427
721.90 0.2425
722.00 0.2424
722.10 0.2423
722.20 0.2421
722.30 0.242
722.40 0.2419
722.50 0.2418
722.60 0.2416
722.70 0.2415
722.80 0.2414
722.90 0.2412
723.00 0.2411
723.10 0.241
723.20 0.2408
723.30 0.2407
723.40 0.2406
723.50 0.2405
723.60 0.2403
723.70 0.2402
723.80 0.2401
723.90 0.2399
724.00 0.2398
724.10 0.2397
724.20 0.2396
724.30 0.2394
724.40 0.2393
724.50 0.2392
724.60 0.239
724.70 0.2389
724.80 0.2388
724.90 0.2387
725.00 0.2385
725.10 0.2384
725.20 0.2383
725.30 0.2381
725.40 0.238
725.50 0.2379
725.60 0.2378
725.70 0.2376
725.80 0.2375
725.90 0.2374
726.00 0.2373
726.10 0.2371
726.20 0.237
726.30 0.2369
726.40 0.2368
726.50 0.2366
726.60 0.2365
726.70 0.2364
726.80 0.2363
726.90 0.2361
727.00 0.236
727.10 0.2359
727.20 0.2358
727.30 0.2356
727.40 0.2355
727.50 0.2354
727.60 0.2352
727.70 0.2351
727.80 0.235
727.90 0.2349
728.00 0.2347
728.10 0.2346
728.20 0.2345
728.30 0.2344
728.40 0.2342
728.50 0.2341
728.60 0.234
728.70 0.2339
728.80 0.2337
728.90 0.2336
729.00 0.2335
729.10 0.2334
729.20 0.2332
729.30 0.2331
729.40 0.233
729.50 0.2329
729.60 0.2328
729.70 0.2326
729.80 0.2325
729.90 0.2324
730.00 0.2323
730.10 0.2321
730.20 0.232
730.30 0.2319
730.40 0.2318
730.50 0.2316
730.60 0.2315
730.70 0.2314
730.80 0.2313
730.90 0.2312
731.00 0.231
731.10 0.2309
731.20 0.2308
731.30 0.2307
731.40 0.2306
731.50 0.2304
731.60 0.2303
731.70 0.2302
731.80 0.2301
731.90 0.2299
732.00 0.2298
732.10 0.2297
732.20 0.2296
732.30 0.2295
732.40 0.2293
732.50 0.2292
732.60 0.2291
732.70 0.229
732.80 0.2289
732.90 0.2287
733.00 0.2286
733.10 0.2285
733.20 0.2284
733.30 0.2283
733.40 0.2281
733.50 0.228
733.60 0.2279
733.70 0.2278
733.80 0.2277
733.90 0.2275
734.00 0.2274
734.10 0.2273
734.20 0.2272
734.30 0.2271
734.40 0.2269
734.50 0.2268
734.60 0.2267
734.70 0.2266
734.80 0.2265
734.90 0.2263
735.00 0.2262
735.10 0.2261
735.20 0.226
735.30 0.2259
735.40 0.2257
735.50 0.2256
735.60 0.2255
735.70 0.2254
735.80 0.2253
735.90 0.2251
736.00 0.225
736.10 0.2249
736.20 0.2248
736.30 0.2247
736.40 0.2245
736.50 0.2244
736.60 0.2243
736.70 0.2242
736.80 0.2241
736.90 0.224
737.00 0.2238
737.10 0.2237
737.20 0.2236
737.30 0.2235
737.40 0.2234
737.50 0.2232
737.60 0.2231
737.70 0.223
737.80 0.2229
737.90 0.2228
738.00 0.2227
738.10 0.2225
738.20 0.2224
738.30 0.2223
738.40 0.2222
738.50 0.2221
738.60 0.222
738.70 0.2218
738.80 0.2217
738.90 0.2216
739.00 0.2215
739.10 0.2214
739.20 0.2213
739.30 0.2211
739.40 0.221
739.50 0.2209
739.60 0.2208
739.70 0.2207
739.80 0.2205
739.90 0.2204
740.00 0.2203
740.10 0.2202
740.20 0.2201
740.30 0.22
740.40 0.2199
740.50 0.2197
740.60 0.2196
740.70 0.2195
740.80 0.2194
740.90 0.2193
741.00 0.2192
741.10 0.2191
741.20 0.2189
741.30 0.2188
741.40 0.2187
741.50 0.2186
741.60 0.2185
741.70 0.2184
741.80 0.2183
741.90 0.2182
742.00 0.218
742.10 0.2179
742.20 0.2178
742.30 0.2177
742.40 0.2176
742.50 0.2175
742.60 0.2174
742.70 0.2172
742.80 0.2171
742.90 0.217
743.00 0.2169
743.10 0.2168
743.20 0.2167
743.30 0.2166
743.40 0.2165
743.50 0.2163
743.60 0.2162
743.70 0.2161
743.80 0.216
743.90 0.2159
744.00 0.2158
744.10 0.2157
744.20 0.2156
744.30 0.2154
744.40 0.2153
744.50 0.2152
744.60 0.2151
744.70 0.215
744.80 0.2149
744.90 0.2148
745.00 0.2147
745.10 0.2145
745.20 0.2144
745.30 0.2143
745.40 0.2142
745.50 0.2141
745.60 0.214
745.70 0.2139
745.80 0.2138
745.90 0.2137
746.00 0.2135
746.10 0.2134
746.20 0.2133
746.30 0.2132
746.40 0.2131
746.50 0.213
746.60 0.2129
746.70 0.2128
746.80 0.2127
746.90 0.2125
747.00 0.2124
747.10 0.2123
747.20 0.2122
747.30 0.2121
747.40 0.212
747.50 0.2119
747.60 0.2118
747.70 0.2117
747.80 0.2115
747.90 0.2114
748.00 0.2113
748.10 0.2112
748.20 0.2111
748.30 0.211
748.40 0.2109
748.50 0.2108
748.60 0.2107
748.70 0.2106
748.80 0.2104
748.90 0.2103
749.00 0.2102
749.10 0.2101
749.20 0.21
749.30 0.2099
749.40 0.2098
749.50 0.2097
749.60 0.2096
749.70 0.2095
749.80 0.2094
749.90 0.2092
750.00 0.2091
750.10 0.209
750.20 0.2089
750.30 0.2088
750.40 0.2087
750.50 0.2086
750.60 0.2085
750.70 0.2084
750.80 0.2083
750.90 0.2082
751.00 0.2081
751.10 0.208
751.20 0.2079
751.30 0.2077
751.40 0.2076
751.50 0.2075
751.60 0.2074
751.70 0.2073
751.80 0.2072
751.90 0.2071
752.00 0.207
752.10 0.2069
752.20 0.2068
752.30 0.2067
752.40 0.2066
752.50 0.2065
752.60 0.2064
752.70 0.2063
752.80 0.2062
752.90 0.206
753.00 0.2059
753.10 0.2058
753.20 0.2057
753.30 0.2056
753.40 0.2055
753.50 0.2054
753.60 0.2053
753.70 0.2052
753.80 0.2051
753.90 0.205
754.00 0.2049
754.10 0.2048
754.20 0.2047
754.30 0.2046
754.40 0.2045
754.50 0.2044
754.60 0.2043
754.70 0.2041
754.80 0.204
754.90 0.2039
755.00 0.2038
755.10 0.2037
755.20 0.2036
755.30 0.2035
755.40 0.2034
755.50 0.2033
755.60 0.2032
755.70 0.2031
755.80 0.203
755.90 0.2029
756.00 0.2028
756.10 0.2027
756.20 0.2026
756.30 0.2025
756.40 0.2024
756.50 0.2023
756.60 0.2022
756.70 0.2021
756.80 0.202
756.90 0.2019
757.00 0.2017
757.10 0.2016
757.20 0.2015
757.30 0.2014
757.40 0.2013
757.50 0.2012
757.60 0.2011
757.70 0.201
757.80 0.2009
757.90 0.2008
758.00 0.2007
758.10 0.2006
758.20 0.2005
758.30 0.2004
758.40 0.2003
758.50 0.2002
758.60 0.2001
758.70 0.2
758.80 0.1999
758.90 0.1998
759.00 0.1997
759.10 0.1996
759.20 0.1995
759.30 0.1994
759.40 0.1993
759.50 0.1992
759.60 0.1991
759.70 0.199
759.80 0.1989
759.90 0.1988
760.00 0.1987
760.10 0.1986
760.20 0.1985
760.30 0.1984
760.40 0.1983
760.50 0.1982
760.60 0.1981
760.70 0.198
760.80 0.1979
760.90 0.1978
761.00 0.1977
761.10 0.1976
761.20 0.1975
761.30 0.1974
761.40 0.1973
761.50 0.1972
761.60 0.1971
761.70 0.197
761.80 0.1969
761.90 0.1968
762.00 0.1967
762.10 0.1966
762.20 0.1965
762.30 0.1964
762.40 0.1963
762.50 0.1962
762.60 0.1961
762.70 0.196
762.80 0.1959
762.90 0.1958
763.00 0.1957
763.10 0.1956
763.20 0.1955
763.30 0.1954
763.40 0.1953
763.50 0.1952
763.60 0.1951
763.70 0.195
763.80 0.1949
763.90 0.1948
764.00 0.1947
764.10 0.1946
764.20 0.1945
764.30 0.1944
764.40 0.1943
764.50 0.1942
764.60 0.1941
764.70 0.194
764.80 0.1939
764.90 0.1938
765.00 0.1937
765.10 0.1936
765.20 0.1935
765.30 0.1934
765.40 0.1933
765.50 0.1932
765.60 0.1931
765.70 0.193
765.80 0.1929
765.90 0.1928
766.00 0.1927
766.10 0.1926
766.20 0.1925
766.30 0.1924
766.40 0.1923
766.50 0.1922
766.60 0.1921
766.70 0.192
766.80 0.1919
766.90 0.1918
767.00 0.1917
767.10 0.1916
767.20 0.1915
767.30 0.1914
767.40 0.1913
767.50 0.1912
767.60 0.1911
767.70 0.191
767.80 0.1909
767.90 0.1909
768.00 0.1908
768.10 0.1907
768.20 0.1906
768.30 0.1905
768.40 0.1904
768.50 0.1903
768.60 0.1902
768.70 0.1901
768.80 0.19
768.90 0.1899
769.00 0.1898
769.10 0.1897
769.20 0.1896
769.30 0.1895
769.40 0.1894
769.50 0.1893
769.60 0.1892
769.70 0.1891
769.80 0.189
769.90 0.1889
770.00 0.1888
770.10 0.1887
770.20 0.1886
770.30 0.1885
770.40 0.1884
770.50 0.1884
770.60 0.1883
770.70 0.1882
770.80 0.1881
770.90 0.188
771.00 0.1879
771.10 0.1878
771.20 0.1877
771.30 0.1876
771.40 0.1875
771.50 0.1874
771.60 0.1873
771.70 0.1872
771.80 0.1871
771.90 0.187
772.00 0.1869
772.10 0.1869
772.20 0.1868
772.30 0.1867
772.40 0.1866
772.50 0.1865
772.60 0.1864
772.70 0.1863
772.80 0.1862
772.90 0.1861
773.00 0.186
773.10 0.1859
773.20 0.1858
773.30 0.1857
773.40 0.1856
773.50 0.1855
773.60 0.1855
773.70 0.1854
773.80 0.1853
773.90 0.1852
774.00 0.1851
774.10 0.185
774.20 0.1849
774.30 0.1848
774.40 0.1847
774.50 0.1846
774.60 0.1845
774.70 0.1844
774.80 0.1843
774.90 0.1842
775.00 0.1842
775.10 0.1841
775.20 0.184
775.30 0.1839
775.40 0.1838
775.50 0.1837
775.60 0.1836
775.70 0.1835
775.80 0.1834
775.90 0.1833
776.00 0.1832
776.10 0.1831
776.20 0.1831
776.30 0.183
776.40 0.1829
776.50 0.1828
776.60 0.1827
776.70 0.1826
776.80 0.1825
776.90 0.1824
777.00 0.1823
777.10 0.1822
777.20 0.1821
777.30 0.182
777.40 0.182
777.50 0.1819
777.60 0.1818
777.70 0.1817
777.80 0.1816
777.90 0.1815
778.00 0.1814
778.10 0.1813
778.20 0.1812
778.30 0.1811
778.40 0.181
778.50 0.181
778.60 0.1809
778.70 0.1808
778.80 0.1807
778.90 0.1806
779.00 0.1805
779.10 0.1804
779.20 0.1803
779.30 0.1802
779.40 0.1801
779.50 0.18
779.60 0.18
779.70 0.1799
779.80 0.1798
779.90 0.1797
780.00 0.1796
780.10 0.1795
780.20 0.1794
780.30 0.1793
780.40 0.1792
780.50 0.1792
780.60 0.1791
780.70 0.179
780.80 0.1789
780.90 0.1788
781.00 0.1787
781.10 0.1786
781.20 0.1785
781.30 0.1784
781.40 0.1784
781.50 0.1783
781.60 0.1782
781.70 0.1781
781.80 0.178
781.90 0.1779
782.00 0.1778
782.10 0.1777
782.20 0.1777
782.30 0.1776
782.40 0.1775
782.50 0.1774
782.60 0.1773
782.70 0.1772
782.80 0.1771
782.90 0.177
783.00 0.177
783.10 0.1769
783.20 0.1768
783.30 0.1767
783.40 0.1766
783.50 0.1765
783.60 0.1764
783.70 0.1763
783.80 0.1763
783.90 0.1762
784.00 0.1761
784.10 0.176
784.20 0.1759
784.30 0.1758
784.40 0.1757
784.50 0.1756
784.60 0.1756
784.70 0.1755
784.80 0.1754
784.90 0.1753
785.00 0.1752
785.10 0.1751
785.20 0.175
785.30 0.175
785.40 0.1749
785.50 0.1748
785.60 0.1747
785.70 0.1746
785.80 0.1745
785.90 0.1744
786.00 0.1743
786.10 0.1743
786.20 0.1742
786.30 0.1741
786.40 0.174
786.50 0.1739
786.60 0.1738
786.70 0.1737
786.80 0.1737
786.90 0.1736
787.00 0.1735
787.10 0.1734
787.20 0.1733
787.30 0.1732
787.40 0.1731
787.50 0.1731
787.60 0.173
787.70 0.1729
787.80 0.1728
787.90 0.1727
788.00 0.1726
788.10 0.1725
788.20 0.1725
788.30 0.1724
788.40 0.1723
788.50 0.1722
788.60 0.1721
788.70 0.172
788.80 0.1719
788.90 0.1719
789.00 0.1718
789.10 0.1717
789.20 0.1716
789.30 0.1715
789.40 0.1714
789.50 0.1713
789.60 0.1713
789.70 0.1712
789.80 0.1711
789.90 0.171
790.00 0.1709
790.10 0.1708
790.20 0.1708
790.30 0.1707
790.40 0.1706
790.50 0.1705
790.60 0.1704
790.70 0.1703
790.80 0.1703
790.90 0.1702
791.00 0.1701
791.10 0.17
791.20 0.1699
791.30 0.1698
791.40 0.1698
791.50 0.1697
791.60 0.1696
791.70 0.1695
791.80 0.1694
791.90 0.1693
792.00 0.1693
792.10 0.1692
792.20 0.1691
792.30 0.169
792.40 0.1689
792.50 0.1689
792.60 0.1688
792.70 0.1687
792.80 0.1686
792.90 0.1685
793.00 0.1684
793.10 0.1684
793.20 0.1683
793.30 0.1682
793.40 0.1681
793.50 0.168
793.60 0.1679
793.70 0.1679
793.80 0.1678
793.90 0.1677
794.00 0.1676
794.10 0.1675
794.20 0.1675
794.30 0.1674
794.40 0.1673
794.50 0.1672
794.60 0.1671
794.70 0.167
794.80 0.167
794.90 0.1669
795.00 0.1668
795.10 0.1667
795.20 0.1666
795.30 0.1666
795.40 0.1665
795.50 0.1664
795.60 0.1663
795.70 0.1662
795.80 0.1662
795.90 0.1661
796.00 0.166
796.10 0.1659
796.20 0.1658
796.30 0.1657
796.40 0.1657
796.50 0.1656
796.60 0.1655
796.70 0.1654
796.80 0.1653
796.90 0.1653
797.00 0.1652
797.10 0.1651
797.20 0.165
797.30 0.1649
797.40 0.1649
797.50 0.1648
797.60 0.1647
797.70 0.1646
797.80 0.1645
797.90 0.1645
798.00 0.1644
798.10 0.1643
798.20 0.1642
798.30 0.1641
798.40 0.1641
798.50 0.164
798.60 0.1639
798.70 0.1638
798.80 0.1637
798.90 0.1637
799.00 0.1636
799.10 0.1635
799.20 0.1634
799.30 0.1633
799.40 0.1632
799.50 0.1632
799.60 0.1631
799.70 0.163
799.80 0.1629
799.90 0.1629
800.00 0.1628
800.10 0.1627
800.20 0.1626
800.30 0.1625
800.40 0.1625
800.50 0.1624
800.60 0.1623
800.70 0.1622
800.80 0.1621
800.90 0.1621
801.00 0.162
801.10 0.1619
801.20 0.1618
801.30 0.1618
801.40 0.1617
801.50 0.1616
801.60 0.1615
801.70 0.1614
801.80 0.1614
801.90 0.1613
802.00 0.1612
802.10 0.1611
802.20 0.1611
802.30 0.161
802.40 0.1609
802.50 0.1608
802.60 0.1607
802.70 0.1607
802.80 0.1606
802.90 0.1605
803.00 0.1604
803.10 0.1604
803.20 0.1603
803.30 0.1602
803.40 0.1601
803.50 0.16
803.60 0.16
803.70 0.1599
803.80 0.1598
803.90 0.1597
804.00 0.1597
804.10 0.1596
804.20 0.1595
804.30 0.1594
804.40 0.1594
804.50 0.1593
804.60 0.1592
804.70 0.1591
804.80 0.159
804.90 0.159
805.00 0.1589
805.10 0.1588
805.20 0.1587
805.30 0.1587
805.40 0.1586
805.50 0.1585
805.60 0.1584
805.70 0.1584
805.80 0.1583
805.90 0.1582
806.00 0.1581
806.10 0.1581
806.20 0.158
806.30 0.1579
806.40 0.1578
806.50 0.1577
806.60 0.1577
806.70 0.1576
806.80 0.1575
806.90 0.1574
807.00 0.1574
807.10 0.1573
807.20 0.1572
807.30 0.1571
807.40 0.1571
807.50 0.157
807.60 0.1569
807.70 0.1568
807.80 0.1568
807.90 0.1567
808.00 0.1566
808.10 0.1565
808.20 0.1565
808.30 0.1564
808.40 0.1563
808.50 0.1562
808.60 0.1562
808.70 0.1561
808.80 0.156
808.90 0.1559
809.00 0.1559
809.10 0.1558
809.20 0.1557
809.30 0.1556
809.40 0.1555
809.50 0.1555
809.60 0.1554
809.70 0.1553
809.80 0.1552
809.90 0.1552
810.00 0.1551
810.10 0.155
810.20 0.155
810.30 0.1549
810.40 0.1548
810.50 0.1547
810.60 0.1547
810.70 0.1546
810.80 0.1545
810.90 0.1544
811.00 0.1544
811.10 0.1543
811.20 0.1542
811.30 0.1541
811.40 0.1541
811.50 0.154
811.60 0.1539
811.70 0.1538
811.80 0.1538
811.90 0.1537
812.00 0.1536
812.10 0.1536
812.20 0.1535
812.30 0.1534
812.40 0.1533
812.50 0.1533
812.60 0.1532
812.70 0.1531
812.80 0.153
812.90 0.153
813.00 0.1529
813.10 0.1528
813.20 0.1528
813.30 0.1527
813.40 0.1526
813.50 0.1525
813.60 0.1525
813.70 0.1524
813.80 0.1523
813.90 0.1522
814.00 0.1522
814.10 0.1521
814.20 0.152
814.30 0.152
814.40 0.1519
814.50 0.1518
814.60 0.1517
814.70 0.1517
814.80 0.1516
814.90 0.1515
815.00 0.1514
815.10 0.1514
815.20 0.1513
815.30 0.1512
815.40 0.1512
815.50 0.1511
815.60 0.151
815.70 0.1509
815.80 0.1509
815.90 0.1508
816.00 0.1507
816.10 0.1507
816.20 0.1506
816.30 0.1505
816.40 0.1504
816.50 0.1504
816.60 0.1503
816.70 0.1502
816.80 0.1502
816.90 0.1501
817.00 0.15
817.10 0.1499
817.20 0.1499
817.30 0.1498
817.40 0.1497
817.50 0.1497
817.60 0.1496
817.70 0.1495
817.80 0.1494
817.90 0.1494
818.00 0.1493
818.10 0.1492
818.20 0.1492
818.30 0.1491
818.40 0.149
818.50 0.1489
818.60 0.1489
818.70 0.1488
818.80 0.1487
818.90 0.1487
819.00 0.1486
819.10 0.1485
819.20 0.1484
819.30 0.1484
819.40 0.1483
819.50 0.1482
819.60 0.1482
819.70 0.1481
819.80 0.148
819.90 0.1479
820.00 0.1479
820.10 0.1478
820.20 0.1477
820.30 0.1477
820.40 0.1476
820.50 0.1475
820.60 0.1475
820.70 0.1474
820.80 0.1473
820.90 0.1472
821.00 0.1472
821.10 0.1471
821.20 0.147
821.30 0.147
821.40 0.1469
821.50 0.1468
821.60 0.1468
821.70 0.1467
821.80 0.1466
821.90 0.1466
822.00 0.1465
822.10 0.1464
822.20 0.1463
822.30 0.1463
822.40 0.1462
822.50 0.1461
822.60 0.1461
822.70 0.146
822.80 0.1459
822.90 0.1459
823.00 0.1458
823.10 0.1457
823.20 0.1457
823.30 0.1456
823.40 0.1455
823.50 0.1454
823.60 0.1454
823.70 0.1453
823.80 0.1452
823.90 0.1452
824.00 0.1451
824.10 0.145
824.20 0.145
824.30 0.1449
824.40 0.1448
824.50 0.1448
824.60 0.1447
824.70 0.1446
824.80 0.1446
824.90 0.1445
825.00 0.1444
825.10 0.1444
825.20 0.1443
825.30 0.1442
825.40 0.1442
825.50 0.1441
825.60 0.144
825.70 0.1439
825.80 0.1439
825.90 0.1438
826.00 0.1437
826.10 0.1437
826.20 0.1436
826.30 0.1435
826.40 0.1435
826.50 0.1434
826.60 0.1433
826.70 0.1433
826.80 0.1432
826.90 0.1431
827.00 0.1431
827.10 0.143
827.20 0.1429
827.30 0.1429
827.40 0.1428
827.50 0.1427
827.60 0.1427
827.70 0.1426
827.80 0.1425
827.90 0.1425
828.00 0.1424
828.10 0.1423
828.20 0.1423
828.30 0.1422
828.40 0.1421
828.50 0.1421
828.60 0.142
828.70 0.1419
828.80 0.1419
828.90 0.1418
829.00 0.1417
829.10 0.1417
829.20 0.1416
829.30 0.1415
829.40 0.1415
829.50 0.1414
829.60 0.1413
829.70 0.1413
829.80 0.1412
829.90 0.1411
830.00 0.1411
830.10 0.141
830.20 0.1409
830.30 0.1409
830.40 0.1408
830.50 0.1407
830.60 0.1407
830.70 0.1406
830.80 0.1405
830.90 0.1405
831.00 0.1404
831.10 0.1403
831.20 0.1403
831.30 0.1402
831.40 0.1401
831.50 0.1401
831.60 0.14
831.70 0.14
831.80 0.1399
831.90 0.1398
832.00 0.1398
832.10 0.1397
832.20 0.1396
832.30 0.1396
832.40 0.1395
832.50 0.1394
832.60 0.1394
832.70 0.1393
832.80 0.1392
832.90 0.1392
833.00 0.1391
833.10 0.139
833.20 0.139
833.30 0.1389
833.40 0.1388
833.50 0.1388
833.60 0.1387
833.70 0.1386
833.80 0.1386
833.90 0.1385
834.00 0.1385
834.10 0.1384
834.20 0.1383
834.30 0.1383
834.40 0.1382
834.50 0.1381
834.60 0.1381
834.70 0.138
834.80 0.1379
834.90 0.1379
835.00 0.1378
835.10 0.1377
835.20 0.1377
835.30 0.1376
835.40 0.1376
835.50 0.1375
835.60 0.1374
835.70 0.1374
835.80 0.1373
835.90 0.1372
836.00 0.1372
836.10 0.1371
836.20 0.137
836.30 0.137
836.40 0.1369
836.50 0.1368
836.60 0.1368
836.70 0.1367
836.80 0.1367
836.90 0.1366
837.00 0.1365
837.10 0.1365
837.20 0.1364
837.30 0.1363
837.40 0.1363
837.50 0.1362
837.60 0.1361
837.70 0.1361
837.80 0.136
837.90 0.136
838.00 0.1359
838.10 0.1358
838.20 0.1358
838.30 0.1357
838.40 0.1356
838.50 0.1356
838.60 0.1355
838.70 0.1355
838.80 0.1354
838.90 0.1353
839.00 0.1353
839.10 0.1352
839.20 0.1351
839.30 0.1351
839.40 0.135
839.50 0.135
839.60 0.1349
839.70 0.1348
839.80 0.1348
839.90 0.1347
840.00 0.1346
840.10 0.1346
840.20 0.1345
840.30 0.1345
840.40 0.1344
840.50 0.1343
840.60 0.1343
840.70 0.1342
840.80 0.1341
840.90 0.1341
841.00 0.134
841.10 0.134
841.20 0.1339
841.30 0.1338
841.40 0.1338
841.50 0.1337
841.60 0.1336
841.70 0.1336
841.80 0.1335
841.90 0.1335
842.00 0.1334
842.10 0.1333
842.20 0.1333
842.30 0.1332
842.40 0.1331
842.50 0.1331
842.60 0.133
842.70 0.133
842.80 0.1329
842.90 0.1328
843.00 0.1328
843.10 0.1327
843.20 0.1327
843.30 0.1326
843.40 0.1325
843.50 0.1325
843.60 0.1324
843.70 0.1324
843.80 0.1323
843.90 0.1322
844.00 0.1322
844.10 0.1321
844.20 0.132
844.30 0.132
844.40 0.1319
844.50 0.1319
844.60 0.1318
844.70 0.1317
844.80 0.1317
844.90 0.1316
845.00 0.1316
845.10 0.1315
845.20 0.1314
845.30 0.1314
845.40 0.1313
845.50 0.1313
845.60 0.1312
845.70 0.1311
845.80 0.1311
845.90 0.131
846.00 0.131
846.10 0.1309
846.20 0.1308
846.30 0.1308
846.40 0.1307
846.50 0.1307
846.60 0.1306
846.70 0.1305
846.80 0.1305
846.90 0.1304
847.00 0.1304
847.10 0.1303
847.20 0.1302
847.30 0.1302
847.40 0.1301
847.50 0.1301
847.60 0.13
847.70 0.1299
847.80 0.1299
847.90 0.1298
848.00 0.1298
848.10 0.1297
848.20 0.1296
848.30 0.1296
848.40 0.1295
848.50 0.1295
848.60 0.1294
848.70 0.1293
848.80 0.1293
848.90 0.1292
849.00 0.1292
849.10 0.1291
849.20 0.129
849.30 0.129
849.40 0.1289
849.50 0.1289
849.60 0.1288
849.70 0.1287
849.80 0.1287
849.90 0.1286
850.00 0.1286
850.10 0.1285
850.20 0.1285
850.30 0.1284
850.40 0.1283
850.50 0.1283
850.60 0.1282
850.70 0.1282
850.80 0.1281
850.90 0.128
851.00 0.128
851.10 0.1279
851.20 0.1279
851.30 0.1278
851.40 0.1277
851.50 0.1277
851.60 0.1276
851.70 0.1276
851.80 0.1275
851.90 0.1275
852.00 0.1274
852.10 0.1273
852.20 0.1273
852.30 0.1272
852.40 0.1272
852.50 0.1271
852.60 0.127
852.70 0.127
852.80 0.1269
852.90 0.1269
853.00 0.1268
853.10 0.1268
853.20 0.1267
853.30 0.1266
853.40 0.1266
853.50 0.1265
853.60 0.1265
853.70 0.1264
853.80 0.1264
853.90 0.1263
854.00 0.1262
854.10 0.1262
854.20 0.1261
854.30 0.1261
854.40 0.126
854.50 0.1259
854.60 0.1259
854.70 0.1258
854.80 0.1258
854.90 0.1257
855.00 0.1257
855.10 0.1256
855.20 0.1255
855.30 0.1255
855.40 0.1254
855.50 0.1254
855.60 0.1253
855.70 0.1253
855.80 0.1252
855.90 0.1251
856.00 0.1251
856.10 0.125
856.20 0.125
856.30 0.1249
856.40 0.1249
856.50 0.1248
856.60 0.1247
856.70 0.1247
856.80 0.1246
856.90 0.1246
857.00 0.1245
857.10 0.1245
857.20 0.1244
857.30 0.1244
857.40 0.1243
857.50 0.1242
857.60 0.1242
857.70 0.1241
857.80 0.1241
857.90 0.124
858.00 0.124
858.10 0.1239
858.20 0.1238
858.30 0.1238
858.40 0.1237
858.50 0.1237
858.60 0.1236
858.70 0.1236
858.80 0.1235
858.90 0.1235
859.00 0.1234
859.10 0.1233
859.20 0.1233
859.30 0.1232
859.40 0.1232
859.50 0.1231
859.60 0.1231
859.70 0.123
859.80 0.123
859.90 0.1229
860.00 0.1228
860.10 0.1228
860.20 0.1227
860.30 0.1227
860.40 0.1226
860.50 0.1226
860.60 0.1225
860.70 0.1225
860.80 0.1224
860.90 0.1223
861.00 0.1223
861.10 0.1222
861.20 0.1222
861.30 0.1221
861.40 0.1221
861.50 0.122
861.60 0.122
861.70 0.1219
861.80 0.1218
861.90 0.1218
862.00 0.1217
862.10 0.1217
862.20 0.1216
862.30 0.1216
862.40 0.1215
862.50 0.1215
862.60 0.1214
862.70 0.1214
862.80 0.1213
862.90 0.1212
863.00 0.1212
863.10 0.1211
863.20 0.1211
863.30 0.121
863.40 0.121
863.50 0.1209
863.60 0.1209
863.70 0.1208
863.80 0.1208
863.90 0.1207
864.00 0.1206
864.10 0.1206
864.20 0.1205
864.30 0.1205
864.40 0.1204
864.50 0.1204
864.60 0.1203
864.70 0.1203
864.80 0.1202
864.90 0.1202
865.00 0.1201
865.10 0.12
865.20 0.12
865.30 0.1199
865.40 0.1199
865.50 0.1198
865.60 0.1198
865.70 0.1197
865.80 0.1197
865.90 0.1196
866.00 0.1196
866.10 0.1195
866.20 0.1194
866.30 0.1194
866.40 0.1193
866.50 0.1193
866.60 0.1192
866.70 0.1192
866.80 0.1191
866.90 0.1191
867.00 0.119
867.10 0.119
867.20 0.1189
867.30 0.1189
867.40 0.1188
867.50 0.1188
867.60 0.1187
867.70 0.1186
867.80 0.1186
867.90 0.1185
868.00 0.1185
868.10 0.1184
868.20 0.1184
868.30 0.1183
868.40 0.1183
868.50 0.1182
868.60 0.1182
868.70 0.1181
868.80 0.1181
868.90 0.118
869.00 0.118
869.10 0.1179
869.20 0.1179
869.30 0.1178
869.40 0.1177
869.50 0.1177
869.60 0.1176
869.70 0.1176
869.80 0.1175
869.90 0.1175
870.00 0.1174
870.10 0.1174
870.20 0.1173
870.30 0.1173
870.40 0.1172
870.50 0.1172
870.60 0.1171
870.70 0.1171
870.80 0.117
870.90 0.117
871.00 0.1169
871.10 0.1169
871.20 0.1168
871.30 0.1167
871.40 0.1167
871.50 0.1166
871.60 0.1166
871.70 0.1165
871.80 0.1165
871.90 0.1164
872.00 0.1164
872.10 0.1163
872.20 0.1163
872.30 0.1162
872.40 0.1162
872.50 0.1161
872.60 0.1161
872.70 0.116
872.80 0.116
872.90 0.1159
873.00 0.1159
873.10 0.1158
873.20 0.1158
873.30 0.1157
873.40 0.1157
873.50 0.1156
873.60 0.1156
873.70 0.1155
873.80 0.1155
873.90 0.1154
874.00 0.1154
874.10 0.1153
874.20 0.1152
874.30 0.1152
874.40 0.1151
874.50 0.1151
874.60 0.115
874.70 0.115
874.80 0.1149
874.90 0.1149
875.00 0.1148
875.10 0.1148
875.20 0.1147
875.30 0.1147
875.40 0.1146
875.50 0.1146
875.60 0.1145
875.70 0.1145
875.80 0.1144
875.90 0.1144
876.00 0.1143
876.10 0.1143
876.20 0.1142
876.30 0.1142
876.40 0.1141
876.50 0.1141
876.60 0.114
876.70 0.114
876.80 0.1139
876.90 0.1139
877.00 0.1138
877.10 0.1138
877.20 0.1137
877.30 0.1137
877.40 0.1136
877.50 0.1136
877.60 0.1135
877.70 0.1135
877.80 0.1134
877.90 0.1134
878.00 0.1133
878.10 0.1133
878.20 0.1132
878.30 0.1132
878.40 0.1131
878.50 0.1131
878.60 0.113
878.70 0.113
878.80 0.1129
878.90 0.1129
879.00 0.1128
879.10 0.1128
879.20 0.1127
879.30 0.1127
879.40 0.1126
879.50 0.1126
879.60 0.1125
879.70 0.1125
879.80 0.1124
879.90 0.1124
880.00 0.1123
880.10 0.1123
880.20 0.1122
880.30 0.1122
880.40 0.1121
880.50 0.1121
880.60 0.112
880.70 0.112
880.80 0.1119
880.90 0.1119
881.00 0.1118
881.10 0.1118
881.20 0.1117
881.30 0.1117
881.40 0.1116
881.50 0.1116
881.60 0.1115
881.70 0.1115
881.80 0.1114
881.90 0.1114
882.00 0.1113
882.10 0.1113
882.20 0.1112
882.30 0.1112
882.40 0.1111
882.50 0.1111
882.60 0.111
882.70 0.111
882.80 0.1109
882.90 0.1109
883.00 0.1108
883.10 0.1108
883.20 0.1107
883.30 0.1107
883.40 0.1106
883.50 0.1106
883.60 0.1106
883.70 0.1105
883.80 0.1105
883.90 0.1104
884.00 0.1104
884.10 0.1103
884.20 0.1103
884.30 0.1102
884.40 0.1102
884.50 0.1101
884.60 0.1101
884.70 0.11
884.80 0.11
884.90 0.1099
885.00 0.1099
885.10 0.1098
885.20 0.1098
885.30 0.1097
885.40 0.1097
885.50 0.1096
885.60 0.1096
885.70 0.1095
885.80 0.1095
885.90 0.1094
886.00 0.1094
886.10 0.1093
886.20 0.1093
886.30 0.1092
886.40 0.1092
886.50 0.1092
886.60 0.1091
886.70 0.1091
886.80 0.109
886.90 0.109
887.00 0.1089
887.10 0.1089
887.20 0.1088
887.30 0.1088
887.40 0.1087
887.50 0.1087
887.60 0.1086
887.70 0.1086
887.80 0.1085
887.90 0.1085
888.00 0.1084
888.10 0.1084
888.20 0.1083
888.30 0.1083
888.40 0.1082
888.50 0.1082
888.60 0.1082
888.70 0.1081
888.80 0.1081
888.90 0.108
889.00 0.108
889.10 0.1079
889.20 0.1079
889.30 0.1078
889.40 0.1078
889.50 0.1077
889.60 0.1077
889.70 0.1076
889.80 0.1076
889.90 0.1075
890.00 0.1075
890.10 0.1074
890.20 0.1074
890.30 0.1074
890.40 0.1073
890.50 0.1073
890.60 0.1072
890.70 0.1072
890.80 0.1071
890.90 0.1071
891.00 0.107
891.10 0.107
891.20 0.1069
891.30 0.1069
891.40 0.1068
891.50 0.1068
891.60 0.1067
891.70 0.1067
891.80 0.1066
891.90 0.1066
892.00 0.1066
892.10 0.1065
892.20 0.1065
892.30 0.1064
892.40 0.1064
892.50 0.1063
892.60 0.1063
892.70 0.1062
892.80 0.1062
892.90 0.1061
893.00 0.1061
893.10 0.106
893.20 0.106
893.30 0.106
893.40 0.1059
893.50 0.1059
893.60 0.1058
893.70 0.1058
893.80 0.1057
893.90 0.1057
894.00 0.1056
894.10 0.1056
894.20 0.1055
894.30 0.1055
894.40 0.1054
894.50 0.1054
894.60 0.1054
894.70 0.1053
894.80 0.1053
894.90 0.1052
895.00 0.1052
895.10 0.1051
895.20 0.1051
895.30 0.105
895.40 0.105
895.50 0.1049
895.60 0.1049
895.70 0.1049
895.80 0.1048
895.90 0.1048
896.00 0.1047
896.10 0.1047
896.20 0.1046
896.30 0.1046
896.40 0.1045
896.50 0.1045
896.60 0.1044
896.70 0.1044
896.80 0.1044
896.90 0.1043
897.00 0.1043
897.10 0.1042
897.20 0.1042
897.30 0.1041
897.40 0.1041
897.50 0.104
897.60 0.104
897.70 0.104
897.80 0.1039
897.90 0.1039
898.00 0.1038
898.10 0.1038
898.20 0.1037
898.30 0.1037
898.40 0.1036
898.50 0.1036
898.60 0.1036
898.70 0.1035
898.80 0.1035
898.90 0.1034
899.00 0.1034
899.10 0.1033
899.20 0.1033
899.30 0.1032
899.40 0.1032
899.50 0.1032
899.60 0.1031
899.70 0.1031
899.80 0.103
899.90 0.103
900.00 0.1029
900.10 0.1029
900.20 0.1028
900.30 0.1028
900.40 0.1028
900.50 0.1027
900.60 0.1027
900.70 0.1026
900.80 0.1026
900.90 0.1025
901.00 0.1025
901.10 0.1024
901.20 0.1024
901.30 0.1024
901.40 0.1023
901.50 0.1023
901.60 0.1022
901.70 0.1022
901.80 0.1021
901.90 0.1021
902.00 0.1021
902.10 0.102
902.20 0.102
902.30 0.1019
902.40 0.1019
902.50 0.1018
902.60 0.1018
902.70 0.1017
902.80 0.1017
902.90 0.1017
903.00 0.1016
903.10 0.1016
903.20 0.1015
903.30 0.1015
903.40 0.1014
903.50 0.1014
903.60 0.1014
903.70 0.1013
903.80 0.1013
903.90 0.1012
904.00 0.1012
904.10 0.1011
904.20 0.1011
904.30 0.101
904.40 0.101
904.50 0.101
904.60 0.1009
904.70 0.1009
904.80 0.1008
904.90 0.1008
905.00 0.1007
905.10 0.1007
905.20 0.1007
905.30 0.1006
905.40 0.1006
905.50 0.1005
905.60 0.1005
905.70 0.1004
905.80 0.1004
905.90 0.1004
906.00 0.1003
906.10 0.1003
906.20 0.1002
906.30 0.1002
906.40 0.1001
906.50 0.1001
906.60 0.1
906.70 0.1
906.80 0.09996
906.90 0.09992
907.00 0.09988
907.10 0.09983
907.20 0.09979
907.30 0.09975
907.40 0.0997
907.50 0.09966
907.60 0.09962
907.70 0.09958
907.80 0.09953
907.90 0.09949
908.00 0.09945
908.10 0.09941
908.20 0.09936
908.30 0.09932
908.40 0.09928
908.50 0.09924
908.60 0.09919
908.70 0.09915
908.80 0.09911
908.90 0.09907
909.00 0.09903
909.10 0.09898
909.20 0.09894
909.30 0.0989
909.40 0.09886
909.50 0.09881
909.60 0.09877
909.70 0.09873
909.80 0.09869
909.90 0.09864
910.00 0.0986
910.10 0.09856
910.20 0.09852
910.30 0.09848
910.40 0.09843
910.50 0.09839
910.60 0.09835
910.70 0.09831
910.80 0.09827
910.90 0.09822
911.00 0.09818
911.10 0.09814
911.20 0.0981
911.30 0.09806
911.40 0.09801
911.50 0.09797
911.60 0.09793
911.70 0.09789
911.80 0.09785
911.90 0.0978
912.00 0.09776
912.10 0.09772
912.20 0.09768
912.30 0.09764
912.40 0.0976
912.50 0.09755
912.60 0.09751
912.70 0.09747
912.80 0.09743
912.90 0.09739
913.00 0.09735
913.10 0.09731
913.20 0.09726
913.30 0.09722
913.40 0.09718
913.50 0.09714
913.60 0.0971
913.70 0.09706
913.80 0.09702
913.90 0.09697
914.00 0.09693
914.10 0.09689
914.20 0.09685
914.30 0.09681
914.40 0.09677
914.50 0.09673
914.60 0.09669
914.70 0.09664
914.80 0.0966
914.90 0.09656
915.00 0.09652
915.10 0.09648
915.20 0.09644
915.30 0.0964
915.40 0.09636
915.50 0.09632
915.60 0.09627
915.70 0.09623
915.80 0.09619
915.90 0.09615
916.00 0.09611
916.10 0.09607
916.20 0.09603
916.30 0.09599
916.40 0.09595
916.50 0.09591
916.60 0.09586
916.70 0.09582
916.80 0.09578
916.90 0.09574
917.00 0.0957
917.10 0.09566
917.20 0.09562
917.30 0.09558
917.40 0.09554
917.50 0.0955
917.60 0.09546
917.70 0.09542
917.80 0.09538
917.90 0.09534
918.00 0.0953
918.10 0.09526
918.20 0.09522
918.30 0.09518
918.40 0.09514
918.50 0.0951
918.60 0.09506
918.70 0.09502
918.80 0.09498
918.90 0.09494
919.00 0.0949
919.10 0.09486
919.20 0.09482
919.30 0.09478
919.40 0.09474
919.50 0.0947
919.60 0.09466
919.70 0.09462
919.80 0.09458
919.90 0.09455
920.00 0.09451
920.10 0.09447
920.20 0.09443
920.30 0.09439
920.40 0.09435
920.50 0.09431
920.60 0.09427
920.70 0.09423
920.80 0.09419
920.90 0.09415
921.00 0.09411
921.10 0.09407
921.20 0.09403
921.30 0.09399
921.40 0.09395
921.50 0.09391
921.60 0.09387
921.70 0.09383
921.80 0.09379
921.90 0.09376
922.00 0.09372
922.10 0.09368
922.20 0.09364
922.30 0.0936
922.40 0.09356
922.50 0.09352
922.60 0.09348
922.70 0.09344
922.80 0.0934
922.90 0.09336
923.00 0.09332
923.10 0.09328
923.20 0.09324
923.30 0.09321
923.40 0.09317
923.50 0.09313
923.60 0.09309
923.70 0.09305
923.80 0.09301
923.90 0.09297
924.00 0.09293
924.10 0.09289
924.20 0.09285
924.30 0.09281
924.40 0.09278
924.50 0.09274
924.60 0.0927
924.70 0.09266
924.80 0.09262
924.90 0.09258
925.00 0.09254
925.10 0.0925
925.20 0.09246
925.30 0.09242
925.40 0.09239
925.50 0.09235
925.60 0.09231
925.70 0.09227
925.80 0.09223
925.90 0.09219
926.00 0.09215
926.10 0.09211
926.20 0.09208
926.30 0.09204
926.40 0.092
926.50 0.09196
926.60 0.09192
926.70 0.09188
926.80 0.09184
926.90 0.0918
927.00 0.09177
927.10 0.09173
927.20 0.09169
927.30 0.09165
927.40 0.09161
927.50 0.09158
927.60 0.09154
927.70 0.0915
927.80 0.09146
927.90 0.09142
928.00 0.09139
928.10 0.09135
928.20 0.09131
928.30 0.09127
928.40 0.09124
928.50 0.0912
928.60 0.09116
928.70 0.09112
928.80 0.09108
928.90 0.09105
929.00 0.09101
929.10 0.09097
929.20 0.09093
929.30 0.0909
929.40 0.09086
929.50 0.09082
929.60 0.09078
929.70 0.09074
929.80 0.09071
929.90 0.09067
930.00 0.09063
930.10 0.09059
930.20 0.09056
930.30 0.09052
930.40 0.09048
930.50 0.09044
930.60 0.09041
930.70 0.09037
930.80 0.09033
930.90 0.09029
931.00 0.09026
931.10 0.09022
931.20 0.09018
931.30 0.09015
931.40 0.09011
931.50 0.09007
931.60 0.09003
931.70 0.09
931.80 0.08996
931.90 0.08992
932.00 0.08988
932.10 0.08985
932.20 0.08981
932.30 0.08977
932.40 0.08973
932.50 0.0897
932.60 0.08966
932.70 0.08962
932.80 0.08959
932.90 0.08955
933.00 0.08951
933.10 0.08947
933.20 0.08944
933.30 0.0894
933.40 0.08936
933.50 0.08933
933.60 0.08929
933.70 0.08925
933.80 0.08922
933.90 0.08918
934.00 0.08914
934.10 0.0891
934.20 0.08907
934.30 0.08903
934.40 0.08899
934.50 0.08896
934.60 0.08892
934.70 0.08888
934.80 0.08885
934.90 0.08881
935.00 0.08877
935.10 0.08874
935.20 0.0887
935.30 0.08866
935.40 0.08862
935.50 0.08859
935.60 0.08855
935.70 0.08851
935.80 0.08848
935.90 0.08844
936.00 0.0884
936.10 0.08837
936.20 0.08833
936.30 0.08829
936.40 0.08826
936.50 0.08822
936.60 0.08818
936.70 0.08815
936.80 0.08811
936.90 0.08807
937.00 0.08804
937.10 0.088
937.20 0.08796
937.30 0.08793
937.40 0.08789
937.50 0.08785
937.60 0.08782
937.70 0.08778
937.80 0.08774
937.90 0.08771
938.00 0.08767
938.10 0.08763
938.20 0.0876
938.30 0.08756
938.40 0.08752
938.50 0.08749
938.60 0.08745
938.70 0.08741
938.80 0.08738
938.90 0.08734
939.00 0.0873
939.10 0.08727
939.20 0.08723
939.30 0.08719
939.40 0.08716
939.50 0.08712
939.60 0.08708
939.70 0.08705
939.80 0.08701
939.90 0.08697
940.00 0.08694
940.10 0.0869
940.20 0.08686
940.30 0.08683
940.40 0.08679
940.50 0.08675
940.60 0.08672
940.70 0.08668
940.80 0.08664
940.90 0.08661
941.00 0.08657
941.10 0.08654
941.20 0.0865
941.30 0.08646
941.40 0.08643
941.50 0.08639
941.60 0.08635
941.70 0.08632
941.80 0.08628
941.90 0.08624
942.00 0.08621
942.10 0.08617
942.20 0.08614
942.30 0.0861
942.40 0.08606
942.50 0.08603
942.60 0.08599
942.70 0.08595
942.80 0.08592
942.90 0.08588
943.00 0.08584
943.10 0.08581
943.20 0.08577
943.30 0.08574
943.40 0.0857
943.50 0.08566
943.60 0.08563
943.70 0.08559
943.80 0.08555
943.90 0.08552
944.00 0.08548
944.10 0.08545
944.20 0.08541
944.30 0.08537
944.40 0.08534
944.50 0.0853
944.60 0.08526
944.70 0.08523
944.80 0.08519
944.90 0.08516
945.00 0.08512
945.10 0.08508
945.20 0.08505
945.30 0.08501
945.40 0.08498
945.50 0.08494
945.60 0.0849
945.70 0.08487
945.80 0.08483
945.90 0.08479
946.00 0.08476
946.10 0.08472
946.20 0.08469
946.30 0.08465
946.40 0.08461
946.50 0.08458
946.60 0.08454
946.70 0.08451
946.80 0.08447
946.90 0.08444
947.00 0.0844
947.10 0.08436
947.20 0.08433
947.30 0.08429
947.40 0.08426
947.50 0.08422
947.60 0.08418
947.70 0.08415
947.80 0.08411
947.90 0.08408
948.00 0.08404
948.10 0.08401
948.20 0.08397
948.30 0.08393
948.40 0.0839
948.50 0.08386
948.60 0.08383
948.70 0.08379
948.80 0.08376
948.90 0.08372
949.00 0.08369
949.10 0.08365
949.20 0.08361
949.30 0.08358
949.40 0.08354
949.50 0.08351
949.60 0.08347
949.70 0.08344
949.80 0.0834
949.90 0.08337
950.00 0.08333
950.10 0.0833
950.20 0.08326
950.30 0.08323
950.40 0.08319
950.50 0.08316
950.60 0.08312
950.70 0.08309
950.80 0.08305
950.90 0.08302
951.00 0.08298
951.10 0.08295
951.20 0.08291
951.30 0.08288
951.40 0.08285
951.50 0.08281
951.60 0.08278
951.70 0.08274
951.80 0.08271
951.90 0.08267
952.00 0.08264
952.10 0.08261
952.20 0.08257
952.30 0.08254
952.40 0.08251
952.50 0.08247
952.60 0.08244
952.70 0.08241
952.80 0.08237
952.90 0.08234
953.00 0.08231
953.10 0.08227
953.20 0.08224
953.30 0.08221
953.40 0.08218
953.50 0.08214
953.60 0.08211
953.70 0.08208
953.80 0.08205
953.90 0.08202
954.00 0.08199
954.10 0.08195
954.20 0.08192
954.30 0.08189
954.40 0.08186
954.50 0.08183
954.60 0.0818
954.70 0.08177
954.80 0.08173
954.90 0.0817
955.00 0.08166
955.10 0.08162
955.20 0.08159
955.30 0.08155
955.40 0.08152
955.50 0.08148
955.60 0.08145
955.70 0.08142
955.80 0.08138
955.90 0.08135
956.00 0.08132
956.10 0.08128
956.20 0.08125
956.30 0.08122
956.40 0.08118
956.50 0.08115
956.60 0.08112
956.70 0.08108
956.80 0.08105
956.90 0.08102
957.00 0.08098
957.10 0.08095
957.20 0.08092
957.30 0.08089
957.40 0.08086
957.50 0.08082
957.60 0.08079
957.70 0.08076
957.80 0.08073
957.90 0.0807
958.00 0.08067
958.10 0.08063
958.20 0.0806
958.30 0.08057
958.40 0.08054
958.50 0.08051
958.60 0.08048
958.70 0.08044
958.80 0.08041
958.90 0.08038
959.00 0.08035
959.10 0.08032
959.20 0.08029
959.30 0.08026
959.40 0.08022
959.50 0.08019
959.60 0.08016
959.70 0.08013
959.80 0.0801
959.90 0.08007
960.00 0.08004
960.10 0.08001
960.20 0.07998
960.30 0.07995
960.40 0.07992
960.50 0.07989
960.60 0.07985
960.70 0.07982
960.80 0.07979
960.90 0.07976
961.00 0.07973
961.10 0.0797
961.20 0.07967
961.30 0.07964
961.40 0.07961
961.50 0.07958
961.60 0.07955
961.70 0.07952
961.80 0.07949
961.90 0.07946
962.00 0.07942
962.10 0.07939
962.20 0.07936
962.30 0.07933
962.40 0.0793
962.50 0.07927
962.60 0.07924
962.70 0.07921
962.80 0.07918
962.90 0.07915
963.00 0.07912
963.10 0.07909
963.20 0.07906
963.30 0.07903
963.40 0.079
963.50 0.07897
963.60 0.07894
963.70 0.07891
963.80 0.07888
963.90 0.07885
964.00 0.07881
964.10 0.07878
964.20 0.07875
964.30 0.07872
964.40 0.07869
964.50 0.07866
964.60 0.07863
964.70 0.0786
964.80 0.07857
964.90 0.07854
965.00 0.07851
965.10 0.07848
965.20 0.07845
965.30 0.07842
965.40 0.07839
965.50 0.07836
965.60 0.07833
965.70 0.0783
965.80 0.07827
965.90 0.07824
966.00 0.07821
966.10 0.07818
966.20 0.07815
966.30 0.07812
966.40 0.07809
966.50 0.07806
966.60 0.07803
966.70 0.078
966.80 0.07797
966.90 0.07794
967.00 0.07791
967.10 0.07788
967.20 0.07785
967.30 0.07781
967.40 0.07778
967.50 0.07775
967.60 0.07772
967.70 0.07769
967.80 0.07766
967.90 0.07763
968.00 0.0776
968.10 0.07757
968.20 0.07754
968.30 0.07751
968.40 0.07748
968.50 0.07745
968.60 0.07742
968.70 0.07739
968.80 0.07736
968.90 0.07733
969.00 0.0773
969.10 0.07727
969.20 0.07724
969.30 0.07721
969.40 0.07718
969.50 0.07715
969.60 0.07712
969.70 0.07709
969.80 0.07706
969.90 0.07703
970.00 0.077
970.10 0.07697
970.20 0.07694
970.30 0.07691
970.40 0.07688
970.50 0.07685
970.60 0.07682
970.70 0.07679
970.80 0.07676
970.90 0.07673
971.00 0.0767
971.10 0.07667
971.20 0.07664
971.30 0.07661
971.40 0.07658
971.50 0.07655
971.60 0.07652
971.70 0.07649
971.80 0.07646
971.90 0.07643
972.00 0.0764
972.10 0.07637
972.20 0.07634
972.30 0.07631
972.40 0.07628
972.50 0.07625
972.60 0.07622
972.70 0.07619
972.80 0.07616
972.90 0.07613
973.00 0.0761
973.10 0.07607
973.20 0.07604
973.30 0.07601
973.40 0.07598
973.50 0.07595
973.60 0.07592
973.70 0.07589
973.80 0.07586
973.90 0.07583
974.00 0.0758
974.10 0.07577
974.20 0.07574
974.30 0.07571
974.40 0.07568
974.50 0.07565
974.60 0.07562
974.70 0.07559
974.80 0.07556
974.90 0.07553
975.00 0.0755
975.10 0.07547
975.20 0.07544
975.30 0.07541
975.40 0.07538
975.50 0.07535
975.60 0.07532
975.70 0.07529
975.80 0.07526
975.90 0.07523
976.00 0.0752
976.10 0.07517
976.20 0.07514
976.30 0.07511
976.40 0.07508
976.50 0.07505
976.60 0.07502
976.70 0.07499
976.80 0.07496
976.90 0.07493
977.00 0.0749
977.10 0.07487
977.20 0.07484
977.30 0.07481
977.40 0.07478
977.50 0.07475
977.60 0.07472
977.70 0.07469
977.80 0.07466
977.90 0.07463
978.00 0.0746
978.10 0.07457
978.20 0.07454
978.30 0.07451
978.40 0.07448
978.50 0.07445
978.60 0.07442
978.70 0.07439
978.80 0.07436
978.90 0.07433
979.00 0.0743
979.10 0.07427
979.20 0.07424
979.30 0.07421
979.40 0.07418
979.50 0.07415
979.60 0.07412
979.70 0.07409
979.80 0.07406
979.90 0.07404
980.00 0.07401
980.10 0.07398
980.20 0.07395
980.30 0.07392
980.40 0.07389
980.50 0.07386
980.60 0.07383
980.70 0.0738
980.80 0.07377
980.90 0.07374
981.00 0.07371
981.10 0.07368
981.20 0.07365
981.30 0.07362
981.40 0.07359
981.50 0.07356
981.60 0.07353
981.70 0.0735
981.80 0.07347
981.90 0.07344
982.00 0.07341
982.10 0.07338
982.20 0.07335
982.30 0.07332
982.40 0.07329
982.50 0.07327
982.60 0.07324
982.70 0.07321
982.80 0.07318
982.90 0.07315
983.00 0.07312
983.10 0.07309
983.20 0.07306
983.30 0.07303
983.40 0.073
983.50 0.07297
983.60 0.07294
983.70 0.07291
983.80 0.07288
983.90 0.07285
984.00 0.07282
984.10 0.07279
984.20 0.07276
984.30 0.07273
984.40 0.0727
984.50 0.07267
984.60 0.07264
984.70 0.07261
984.80 0.07258
984.90 0.07255
985.00 0.07252
985.10 0.07249
985.20 0.07247
985.30 0.07244
985.40 0.07241
985.50 0.07238
985.60 0.07235
985.70 0.07232
985.80 0.07229
985.90 0.07226
986.00 0.07223
986.10 0.0722
986.20 0.07217
986.30 0.07214
986.40 0.07211
986.50 0.07208
986.60 0.07205
986.70 0.07202
986.80 0.07199
986.90 0.07196
987.00 0.07193
987.10 0.0719
987.20 0.07187
987.30 0.07184
987.40 0.07181
987.50 0.07178
987.60 0.07175
987.70 0.07172
987.80 0.07169
987.90 0.07167
988.00 0.07164
988.10 0.07161
988.20 0.07158
988.30 0.07155
988.40 0.07152
988.50 0.07149
988.60 0.07146
988.70 0.07143
988.80 0.0714
988.90 0.07137
989.00 0.07134
989.10 0.07131
989.20 0.07128
989.30 0.07125
989.40 0.07122
989.50 0.07119
989.60 0.07116
989.70 0.07113
989.80 0.0711
989.90 0.07107
990.00 0.07104
990.10 0.07101
990.20 0.07098
990.30 0.07095
990.40 0.07092
990.50 0.07089
990.60 0.07086
990.70 0.07083
990.80 0.0708
990.90 0.07077
991.00 0.07074
991.10 0.07071
991.20 0.07068
991.30 0.07065
991.40 0.07062
991.50 0.07059
991.60 0.07056
991.70 0.07053
991.80 0.0705
991.90 0.07047
992.00 0.07044
992.10 0.07041
992.20 0.07038
992.30 0.07035
992.40 0.07032
992.50 0.07029
992.60 0.07026
992.70 0.07023
992.80 0.0702
992.90 0.07017
993.00 0.07014
993.10 0.07011
993.20 0.07008
993.30 0.07005
993.40 0.07002
993.50 0.06999
993.60 0.06996
993.70 0.06993
993.80 0.0699
993.90 0.06987
994.00 0.06984
994.10 0.06981
994.20 0.06978
994.30 0.06975
994.40 0.06972
994.50 0.06969
994.60 0.06966
994.70 0.06963
994.80 0.0696
994.90 0.06957
995.00 0.06954
995.10 0.06951
995.20 0.06948
995.30 0.06945
995.40 0.06942
995.50 0.06939
995.60 0.06936
995.70 0.06933
995.80 0.0693
995.90 0.06927
996.00 0.06924
996.10 0.06921
996.20 0.06918
996.30 0.06915
996.40 0.06912
996.50 0.06909
996.60 0.06906
996.70 0.06903
996.80 0.069
996.90 0.06896
997.00 0.06893
997.10 0.0689
997.20 0.06887
997.30 0.06884
997.40 0.06881
997.50 0.06878
997.60 0.06875
997.70 0.06872
997.80 0.06869
997.90 0.06866
998.00 0.06863
998.10 0.0686
998.20 0.06857
998.30 0.06854
998.40 0.06851
998.50 0.06848
998.60 0.06845
998.70 0.06842
998.80 0.06839
998.90 0.06836
999.00 0.06833
999.10 0.06829
999.20 0.06826
999.30 0.06823
999.40 0.0682
999.50 0.06817
999.60 0.06814
999.70 0.06811
999.80 0.06808
999.90 0.06805
1000.00 0.06802
1000.10 0.06799
1000.20 0.06796
1000.30 0.06793
1000.40 0.06789
1000.50 0.06786
1000.60 0.06783
1000.70 0.0678
1000.80 0.06777
1000.90 0.06774
1001.00 0.06771
1001.10 0.06768
1001.20 0.06765
1001.30 0.06762
1001.40 0.06758
1001.50 0.06755
1001.60 0.06752
1001.70 0.06749
1001.80 0.06747
1001.90 0.06744
1002.00 0.06741
1002.10 0.06738
1002.20 0.06736
1002.30 0.06733
1002.40 0.0673
1002.50 0.06728
1002.60 0.06725
1002.70 0.06722
1002.80 0.0672
1002.90 0.06717
1003.00 0.06714
1003.10 0.06712
1003.20 0.06709
1003.30 0.06707
1003.40 0.06705
1003.50 0.06703
1003.60 0.067
1003.70 0.06698
1003.80 0.06696
1003.90 0.06694
1004.00 0.06692
1004.10 0.0669
1004.20 0.06688
1004.30 0.06687
1004.40 0.06685
1004.50 0.06684
1004.60 0.06682
1004.70 0.0668
1004.80 0.06678
1004.90 0.06675
1005.00 0.06672
1005.10 0.06669
1005.20 0.06666
1005.30 0.06663
1005.40 0.0666
1005.50 0.06657
1005.60 0.06653
1005.70 0.0665
1005.80 0.06647
1005.90 0.06643
1006.00 0.0664
1006.10 0.06637
1006.20 0.06634
1006.30 0.06631
1006.40 0.06628
1006.50 0.06625
1006.60 0.06623
1006.70 0.0662
1006.80 0.06617
1006.90 0.06614
1007.00 0.06612
1007.10 0.06609
1007.20 0.06607
1007.30 0.06604
1007.40 0.06602
1007.50 0.06599
1007.60 0.06597
1007.70 0.06594
1007.80 0.06592
1007.90 0.0659
1008.00 0.06588
1008.10 0.06585
1008.20 0.06583
1008.30 0.06581
1008.40 0.06579
1008.50 0.06576
1008.60 0.06574
1008.70 0.06572
1008.80 0.0657
1008.90 0.06567
1009.00 0.06565
1009.10 0.06563
1009.20 0.06561
1009.30 0.06558
1009.40 0.06556
1009.50 0.06554
1009.60 0.06552
1009.70 0.0655
1009.80 0.06547
1009.90 0.06545
1010.00 0.06543
1010.10 0.06541
1010.20 0.06539
1010.30 0.06537
1010.40 0.06534
1010.50 0.06532
1010.60 0.0653
1010.70 0.06528
1010.80 0.06526
1010.90 0.06524
1011.00 0.06522
1011.10 0.06519
1011.20 0.06517
1011.30 0.06515
1011.40 0.06513
1011.50 0.06511
1011.60 0.06509
1011.70 0.06507
1011.80 0.06504
1011.90 0.06502
1012.00 0.065
1012.10 0.06498
1012.20 0.06496
1012.30 0.06494
1012.40 0.06492
1012.50 0.06489
1012.60 0.06487
1012.70 0.06485
1012.80 0.06483
1012.90 0.06481
1013.00 0.06479
1013.10 0.06476
1013.20 0.06474
1013.30 0.06472
1013.40 0.0647
1013.50 0.06468
1013.60 0.06466
1013.70 0.06464
1013.80 0.06461
1013.90 0.06459
1014.00 0.06457
1014.10 0.06455
1014.20 0.06453
1014.30 0.0645
1014.40 0.06448
1014.50 0.06446
1014.60 0.06444
1014.70 0.06442
1014.80 0.0644
1014.90 0.06437
1015.00 0.06435
1015.10 0.06433
1015.20 0.06431
1015.30 0.06429
1015.40 0.06426
1015.50 0.06424
1015.60 0.06422
1015.70 0.0642
1015.80 0.06418
1015.90 0.06415
1016.00 0.06413
1016.10 0.06411
1016.20 0.06409
1016.30 0.06407
1016.40 0.06404
1016.50 0.06402
1016.60 0.064
1016.70 0.06398
1016.80 0.06396
1016.90 0.06393
1017.00 0.06391
1017.10 0.06389
1017.20 0.06387
1017.30 0.06384
1017.40 0.06382
1017.50 0.0638
1017.60 0.06378
1017.70 0.06375
1017.80 0.06373
1017.90 0.06371
1018.00 0.06369
1018.10 0.06367
1018.20 0.06364
1018.30 0.06362
1018.40 0.0636
1018.50 0.06358
1018.60 0.06355
1018.70 0.06353
1018.80 0.06351
1018.90 0.06349
1019.00 0.06346
1019.10 0.06344
1019.20 0.06342
1019.30 0.0634
1019.40 0.06337
1019.50 0.06335
1019.60 0.06333
1019.70 0.06331
1019.80 0.06328
1019.90 0.06326
1020.00 0.06324
1020.10 0.06322
1020.20 0.06319
1020.30 0.06317
1020.40 0.06315
1020.50 0.06313
1020.60 0.0631
1020.70 0.06308
1020.80 0.06306
1020.90 0.06304
1021.00 0.06301
1021.10 0.06299
1021.20 0.06297
1021.30 0.06295
1021.40 0.06292
1021.50 0.0629
1021.60 0.06288
1021.70 0.06286
1021.80 0.06283
1021.90 0.06281
1022.00 0.06279
1022.10 0.06276
1022.20 0.06274
1022.30 0.06272
1022.40 0.0627
1022.50 0.06267
1022.60 0.06265
1022.70 0.06263
1022.80 0.06261
1022.90 0.06258
1023.00 0.06256
1023.10 0.06254
1023.20 0.06251
1023.30 0.06249
1023.40 0.06247
1023.50 0.06245
1023.60 0.06242
1023.70 0.0624
1023.80 0.06238
1023.90 0.06236
1024.00 0.06233
1024.10 0.06231
1024.20 0.06229
1024.30 0.06227
1024.40 0.06224
1024.50 0.06222
1024.60 0.0622
1024.70 0.06217
1024.80 0.06215
1024.90 0.06213
1025.00 0.06211
1025.10 0.06208
1025.20 0.06206
1025.30 0.06204
1025.40 0.06202
1025.50 0.06199
1025.60 0.06197
1025.70 0.06195
1025.80 0.06192
1025.90 0.0619
1026.00 0.06188
1026.10 0.06186
1026.20 0.06183
1026.30 0.06181
1026.40 0.06179
1026.50 0.06177
1026.60 0.06174
1026.70 0.06172
1026.80 0.0617
1026.90 0.06167
1027.00 0.06165
1027.10 0.06163
1027.20 0.06161
1027.30 0.06158
1027.40 0.06156
1027.50 0.06154
1027.60 0.06152
1027.70 0.06149
1027.80 0.06147
1027.90 0.06145
1028.00 0.06142
1028.10 0.0614
1028.20 0.06138
1028.30 0.06136
1028.40 0.06133
1028.50 0.06131
1028.60 0.06129
1028.70 0.06127
1028.80 0.06124
1028.90 0.06122
1029.00 0.0612
1029.10 0.06118
1029.20 0.06115
1029.30 0.06113
1029.40 0.06111
1029.50 0.06108
1029.60 0.06106
1029.70 0.06104
1029.80 0.06102
1029.90 0.06099
1030.00 0.06097
1030.10 0.06095
1030.20 0.06093
1030.30 0.0609
1030.40 0.06088
1030.50 0.06086
1030.60 0.06084
1030.70 0.06081
1030.80 0.06079
1030.90 0.06077
1031.00 0.06075
1031.10 0.06072
1031.20 0.0607
1031.30 0.06068
1031.40 0.06066
1031.50 0.06063
1031.60 0.06061
1031.70 0.06059
1031.80 0.06057
1031.90 0.06054
1032.00 0.06052
1032.10 0.0605
1032.20 0.06048
1032.30 0.06045
1032.40 0.06043
1032.50 0.06041
1032.60 0.06039
1032.70 0.06036
1032.80 0.06034
1032.90 0.06032
1033.00 0.0603
1033.10 0.06028
1033.20 0.06025
1033.30 0.06023
1033.40 0.06021
1033.50 0.06019
1033.60 0.06016
1033.70 0.06014
1033.80 0.06012
1033.90 0.0601
1034.00 0.06007
1034.10 0.06005
1034.20 0.06003
1034.30 0.06001
1034.40 0.05998
1034.50 0.05996
1034.60 0.05994
1034.70 0.05992
1034.80 0.0599
1034.90 0.05987
1035.00 0.05985
1035.10 0.05983
1035.20 0.05981
1035.30 0.05978
1035.40 0.05976
1035.50 0.05974
1035.60 0.05972
1035.70 0.05969
1035.80 0.05967
1035.90 0.05965
1036.00 0.05963
1036.10 0.05961
1036.20 0.05958
1036.30 0.05956
1036.40 0.05954
1036.50 0.05952
1036.60 0.05949
1036.70 0.05947
1036.80 0.05945
1036.90 0.05943
1037.00 0.05941
1037.10 0.05938
1037.20 0.05936
1037.30 0.05934
1037.40 0.05932
1037.50 0.0593
1037.60 0.05927
1037.70 0.05925
1037.80 0.05923
1037.90 0.05921
1038.00 0.05919
1038.10 0.05916
1038.20 0.05914
1038.30 0.05912
1038.40 0.0591
1038.50 0.05908
1038.60 0.05905
1038.70 0.05903
1038.80 0.05901
1038.90 0.05899
1039.00 0.05896
1039.10 0.05894
1039.20 0.05892
1039.30 0.0589
1039.40 0.05888
1039.50 0.05886
1039.60 0.05883
1039.70 0.05881
1039.80 0.05879
1039.90 0.05877
1040.00 0.05875
1040.10 0.05872
1040.20 0.0587
1040.30 0.05868
1040.40 0.05866
1040.50 0.05864
1040.60 0.05861
1040.70 0.05859
1040.80 0.05857
1040.90 0.05855
1041.00 0.05853
1041.10 0.0585
1041.20 0.05848
1041.30 0.05846
1041.40 0.05844
1041.50 0.05842
1041.60 0.0584
1041.70 0.05837
1041.80 0.05835
1041.90 0.05833
1042.00 0.05831
1042.10 0.05829
1042.20 0.05827
1042.30 0.05824
1042.40 0.05822
1042.50 0.0582
1042.60 0.05818
1042.70 0.05816
1042.80 0.05814
1042.90 0.05811
1043.00 0.05809
1043.10 0.05807
1043.20 0.05805
1043.30 0.05803
1043.40 0.05801
1043.50 0.05798
1043.60 0.05796
1043.70 0.05794
1043.80 0.05792
1043.90 0.0579
1044.00 0.05788
1044.10 0.05785
1044.20 0.05783
1044.30 0.05781
1044.40 0.05779
1044.50 0.05777
1044.60 0.05775
1044.70 0.05772
1044.80 0.0577
1044.90 0.05768
1045.00 0.05766
1045.10 0.05764
1045.20 0.05762
1045.30 0.0576
1045.40 0.05757
1045.50 0.05755
1045.60 0.05753
1045.70 0.05751
1045.80 0.05749
1045.90 0.05747
1046.00 0.05745
1046.10 0.05742
1046.20 0.0574
1046.30 0.05738
1046.40 0.05736
1046.50 0.05734
1046.60 0.05732
1046.70 0.0573
1046.80 0.05727
1046.90 0.05725
1047.00 0.05723
1047.10 0.05721
1047.20 0.05719
1047.30 0.05717
1047.40 0.05715
1047.50 0.05712
1047.60 0.0571
1047.70 0.05708
1047.80 0.05706
1047.90 0.05704
1048.00 0.05702
1048.10 0.057
1048.20 0.05698
1048.30 0.05695
1048.40 0.05693
1048.50 0.05691
1048.60 0.05689
1048.70 0.05687
1048.80 0.05685
1048.90 0.05683
1049.00 0.05681
1049.10 0.05679
1049.20 0.05676
1049.30 0.05674
1049.40 0.05672
1049.50 0.0567
1049.60 0.05668
1049.70 0.05666
1049.80 0.05664
1049.90 0.05662
1050.00 0.0566
1050.10 0.05657
1050.20 0.05655
1050.30 0.05653
1050.40 0.05651
1050.50 0.05649
1050.60 0.05647
1050.70 0.05645
1050.80 0.05643
1050.90 0.05641
1051.00 0.05638
1051.10 0.05636
1051.20 0.05634
1051.30 0.05632
1051.40 0.0563
1051.50 0.05628
1051.60 0.05626
1051.70 0.05624
1051.80 0.05622
1051.90 0.0562
1052.00 0.05618
1052.10 0.05615
1052.20 0.05613
1052.30 0.05611
1052.40 0.05609
1052.50 0.05607
1052.60 0.05605
1052.70 0.05603
1052.80 0.05601
1052.90 0.05599
1053.00 0.05597
1053.10 0.05595
1053.20 0.05592
1053.30 0.0559
1053.40 0.05588
1053.50 0.05586
1053.60 0.05584
1053.70 0.05582
1053.80 0.0558
1053.90 0.05578
1054.00 0.05576
1054.10 0.05574
1054.20 0.05572
1054.30 0.0557
1054.40 0.05568
1054.50 0.05565
1054.60 0.05563
1054.70 0.05561
1054.80 0.05559
1054.90 0.05557
1055.00 0.05555
1055.10 0.05553
1055.20 0.05551
1055.30 0.05549
1055.40 0.05547
1055.50 0.05545
1055.60 0.05543
1055.70 0.05541
1055.80 0.05539
1055.90 0.05537
1056.00 0.05534
1056.10 0.05532
1056.20 0.0553
1056.30 0.05528
1056.40 0.05526
1056.50 0.05524
1056.60 0.05522
1056.70 0.0552
1056.80 0.05518
1056.90 0.05516
1057.00 0.05514
1057.10 0.05512
1057.20 0.0551
1057.30 0.05508
1057.40 0.05506
1057.50 0.05504
1057.60 0.05502
1057.70 0.055
1057.80 0.05497
1057.90 0.05495
1058.00 0.05493
1058.10 0.05491
1058.20 0.05489
1058.30 0.05487
1058.40 0.05485
1058.50 0.05483
1058.60 0.05481
1058.70 0.05479
1058.80 0.05477
1058.90 0.05475
1059.00 0.05473
1059.10 0.05471
1059.20 0.05469
1059.30 0.05467
1059.40 0.05465
1059.50 0.05463
1059.60 0.05461
1059.70 0.05459
1059.80 0.05457
1059.90 0.05455
1060.00 0.05453
1060.10 0.05451
1060.20 0.05449
1060.30 0.05447
1060.40 0.05444
1060.50 0.05442
1060.60 0.0544
1060.70 0.05438
1060.80 0.05436
1060.90 0.05434
1061.00 0.05432
1061.10 0.0543
1061.20 0.05428
1061.30 0.05426
1061.40 0.05424
1061.50 0.05422
1061.60 0.0542
1061.70 0.05418
1061.80 0.05416
1061.90 0.05414
1062.00 0.05412
1062.10 0.0541
1062.20 0.05408
1062.30 0.05406
1062.40 0.05404
1062.50 0.05402
1062.60 0.054
1062.70 0.05398
1062.80 0.05396
1062.90 0.05394
1063.00 0.05392
1063.10 0.0539
1063.20 0.05388
1063.30 0.05386
1063.40 0.05384
1063.50 0.05382
1063.60 0.0538
1063.70 0.05378
1063.80 0.05376
1063.90 0.05374
1064.00 0.05372
1064.10 0.0537
1064.20 0.05368
1064.30 0.05366
1064.40 0.05364
1064.50 0.05362
1064.60 0.0536
1064.70 0.05358
1064.80 0.05356
1064.90 0.05354
1065.00 0.05352
1065.10 0.0535
1065.20 0.05348
1065.30 0.05346
1065.40 0.05344
1065.50 0.05342
1065.60 0.0534
1065.70 0.05338
1065.80 0.05336
1065.90 0.05334
1066.00 0.05332
1066.10 0.0533
1066.20 0.05328
1066.30 0.05326
1066.40 0.05324
1066.50 0.05322
1066.60 0.0532
1066.70 0.05318
1066.80 0.05316
1066.90 0.05314
1067.00 0.05312
1067.10 0.0531
1067.20 0.05308
1067.30 0.05306
1067.40 0.05304
1067.50 0.05302
1067.60 0.053
1067.70 0.05298
1067.80 0.05296
1067.90 0.05294
1068.00 0.05292
1068.10 0.0529
1068.20 0.05288
1068.30 0.05286
1068.40 0.05284
1068.50 0.05282
1068.60 0.0528
1068.70 0.05278
1068.80 0.05276
1068.90 0.05274
1069.00 0.05272
1069.10 0.0527
1069.20 0.05268
1069.30 0.05266
1069.40 0.05264
1069.50 0.05262
1069.60 0.0526
1069.70 0.05258
1069.80 0.05256
1069.90 0.05254
1070.00 0.05252
1070.10 0.0525
1070.20 0.05248
1070.30 0.05246
1070.40 0.05244
1070.50 0.05242
1070.60 0.0524
1070.70 0.05238
1070.80 0.05236
1070.90 0.05234
1071.00 0.05232
1071.10 0.0523
1071.20 0.05228
1071.30 0.05226
1071.40 0.05224
1071.50 0.05222
1071.60 0.0522
1071.70 0.05218
1071.80 0.05216
1071.90 0.05214
1072.00 0.05212
1072.10 0.0521
1072.20 0.05208
1072.30 0.05206
1072.40 0.05204
1072.50 0.05202
1072.60 0.052
1072.70 0.05198
1072.80 0.05196
1072.90 0.05194
1073.00 0.05192
1073.10 0.0519
1073.20 0.05188
1073.30 0.05186
1073.40 0.05184
1073.50 0.05182
1073.60 0.0518
1073.70 0.05178
1073.80 0.05176
1073.90 0.05174
1074.00 0.05172
1074.10 0.0517
1074.20 0.05168
1074.30 0.05166
1074.40 0.05164
1074.50 0.05162
1074.60 0.0516
1074.70 0.05158
1074.80 0.05156
1074.90 0.05154
1075.00 0.05152
1075.10 0.0515
1075.20 0.05148
1075.30 0.05146
1075.40 0.05144
1075.50 0.05142
1075.60 0.0514
1075.70 0.05138
1075.80 0.05136
1075.90 0.05134
1076.00 0.05132
1076.10 0.0513
1076.20 0.05128
1076.30 0.05126
1076.40 0.05124
1076.50 0.05122
1076.60 0.0512
1076.70 0.05118
1076.80 0.05116
1076.90 0.05114
1077.00 0.05112
1077.10 0.0511
1077.20 0.05108
1077.30 0.05106
1077.40 0.05104
1077.50 0.05102
1077.60 0.051
1077.70 0.05098
1077.80 0.05096
1077.90 0.05094
1078.00 0.05092
1078.10 0.0509
1078.20 0.05088
1078.30 0.05086
1078.40 0.05084
1078.50 0.05082
1078.60 0.0508
1078.70 0.05078
1078.80 0.05075
1078.90 0.05073
1079.00 0.05071
1079.10 0.05069
1079.20 0.05067
1079.30 0.05065
1079.40 0.05063
1079.50 0.05061
1079.60 0.05059
1079.70 0.05057
1079.80 0.05055
1079.90 0.05053
1080.00 0.05051
1080.10 0.05049
1080.20 0.05047
1080.30 0.05045
1080.40 0.05042
1080.50 0.0504
1080.60 0.05038
1080.70 0.05036
1080.80 0.05034
1080.90 0.05032
1081.00 0.0503
1081.10 0.05028
1081.20 0.05026
1081.30 0.05024
1081.40 0.05022
1081.50 0.0502
1081.60 0.05017
1081.70 0.05015
1081.80 0.05013
1081.90 0.05011
1082.00 0.05009
1082.10 0.05007
1082.20 0.05005
1082.30 0.05003
1082.40 0.05
1082.50 0.04998
1082.60 0.04996
1082.70 0.04994
1082.80 0.04992
1082.90 0.0499
1083.00 0.04988
1083.10 0.04985
1083.20 0.04983
1083.30 0.04981
1083.40 0.04979
1083.50 0.04977
1083.60 0.04975
1083.70 0.04973
1083.80 0.0497
1083.90 0.04968
1084.00 0.04966
1084.10 0.04964
1084.20 0.04962
1084.30 0.04959
1084.40 0.04957
1084.50 0.04955
1084.60 0.04953
1084.70 0.04951
1084.80 0.04948
1084.90 0.04946
1085.00 0.04944
1085.10 0.04942
1085.20 0.04939
1085.30 0.04937
1085.40 0.04935
1085.50 0.04933
1085.60 0.04931
1085.70 0.04928
1085.80 0.04926
1085.90 0.04924
1086.00 0.04922
1086.10 0.04919
1086.20 0.04917
1086.30 0.04915
1086.40 0.04913
1086.50 0.04911
1086.60 0.04908
1086.70 0.04906
1086.80 0.04904
1086.90 0.04901
1087.00 0.04899
1087.10 0.04897
1087.20 0.04895
1087.30 0.04892
1087.40 0.0489
1087.50 0.04888
1087.60 0.04886
1087.70 0.04883
1087.80 0.04881
1087.90 0.04879
1088.00 0.04877
1088.10 0.04874
1088.20 0.04872
1088.30 0.0487
1088.40 0.04867
1088.50 0.04865
1088.60 0.04863
1088.70 0.04861
1088.80 0.04859
1088.90 0.04856
1089.00 0.04854
1089.10 0.04852
1089.20 0.0485
1089.30 0.04848
1089.40 0.04845
1089.50 0.04843
1089.60 0.04841
1089.70 0.04839
1089.80 0.04837
1089.90 0.04834
1090.00 0.04832
1090.10 0.0483
1090.20 0.04828
1090.30 0.04826
1090.40 0.04823
1090.50 0.04821
1090.60 0.04819
1090.70 0.04817
1090.80 0.04815
1090.90 0.04813
1091.00 0.04812
1091.10 0.0481
1091.20 0.04808
1091.30 0.04806
1091.40 0.04804
1091.50 0.04802
1091.60 0.048
1091.70 0.04798
1091.80 0.04796
1091.90 0.04794
1092.00 0.04792
1092.10 0.0479
1092.20 0.04789
1092.30 0.04787
1092.40 0.04786
1092.50 0.04784
1092.60 0.04782
1092.70 0.04781
1092.80 0.04779
1092.90 0.04778
1093.00 0.04776
1093.10 0.04775
1093.20 0.04774
1093.30 0.04773
1093.40 0.04772
1093.50 0.04772
1093.60 0.04774
1093.70 0.04775
1093.80 0.04775
1093.90 0.04773
1094.00 0.04769
1094.10 0.04764
1094.20 0.0476
1094.30 0.04756
1094.40 0.04754
1094.50 0.04752
1094.60 0.0475
1094.70 0.04748
1094.80 0.04746
1094.90 0.04744
1095.00 0.04742
1095.10 0.0474
1095.20 0.04739
1095.30 0.04737
1095.40 0.04736
1095.50 0.04734
1095.60 0.04732
1095.70 0.04731
1095.80 0.04729
1095.90 0.04728
1096.00 0.04726
1096.10 0.04724
1096.20 0.04723
1096.30 0.04721
1096.40 0.0472
1096.50 0.04718
1096.60 0.04717
1096.70 0.04715
1096.80 0.04714
1096.90 0.04713
1097.00 0.04711
1097.10 0.0471
1097.20 0.04709
1097.30 0.04708
1097.40 0.04707
1097.50 0.04705
1097.60 0.04704
1097.70 0.04703
1097.80 0.04702
1097.90 0.047
1098.00 0.04699
1098.10 0.04698
1098.20 0.04697
1098.30 0.04696
1098.40 0.04694
1098.50 0.04693
1098.60 0.04692
1098.70 0.04691
1098.80 0.0469
1098.90 0.04689
1099.00 0.04687
1099.10 0.04686
1099.20 0.04685
1099.30 0.04684
1099.40 0.04683
1099.50 0.04682
1099.60 0.0468
1099.70 0.04679
1099.80 0.04678
1099.90 0.04677
1100.00 0.04676
1100.10 0.04675
1100.20 0.04674
1100.30 0.04672
1100.40 0.04671
1100.50 0.0467
1100.60 0.04669
1100.70 0.04668
1100.80 0.04667
1100.90 0.04665
1101.00 0.04664
1101.10 0.04663
1101.20 0.04662
1101.30 0.04661
1101.40 0.04659
1101.50 0.04658
1101.60 0.04657
1101.70 0.04656
1101.80 0.04655
1101.90 0.04654
1102.00 0.04652
1102.10 0.04651
1102.20 0.0465
1102.30 0.04649
1102.40 0.04647
1102.50 0.04646
1102.60 0.04645
1102.70 0.04644
1102.80 0.04643
1102.90 0.04641
1103.00 0.0464
1103.10 0.04639
1103.20 0.04638
1103.30 0.04636
1103.40 0.04635
1103.50 0.04634
1103.60 0.04632
1103.70 0.04631
1103.80 0.0463
1103.90 0.04629
1104.00 0.04627
1104.10 0.04626
1104.20 0.04625
1104.30 0.04623
1104.40 0.04622
1104.50 0.04621
1104.60 0.04619
1104.70 0.04618
1104.80 0.04617
1104.90 0.04616
1105.00 0.04614
1105.10 0.04613
1105.20 0.04612
1105.30 0.0461
1105.40 0.04609
1105.50 0.04608
1105.60 0.04606
1105.70 0.04605
1105.80 0.04604
1105.90 0.04602
1106.00 0.04601
1106.10 0.046
1106.20 0.04598
1106.30 0.04597
1106.40 0.04595
1106.50 0.04594
1106.60 0.04593
1106.70 0.04591
1106.80 0.0459
1106.90 0.04589
1107.00 0.04587
1107.10 0.04586
1107.20 0.04585
1107.30 0.04583
1107.40 0.04582
1107.50 0.0458
1107.60 0.04579
1107.70 0.04577
1107.80 0.04576
1107.90 0.04575
1108.00 0.04573
1108.10 0.04572
1108.20 0.0457
1108.30 0.04569
1108.40 0.04568
1108.50 0.04566
1108.60 0.04565
1108.70 0.04563
1108.80 0.04562
1108.90 0.0456
1109.00 0.04559
1109.10 0.04558
1109.20 0.04556
1109.30 0.04555
1109.40 0.04553
1109.50 0.04552
1109.60 0.04551
1109.70 0.04549
1109.80 0.04548
1109.90 0.04546
1110.00 0.04545
1110.10 0.04543
1110.20 0.04542
1110.30 0.0454
1110.40 0.04539
1110.50 0.04537
1110.60 0.04536
1110.70 0.04534
1110.80 0.04533
1110.90 0.04532
1111.00 0.0453
1111.10 0.04529
1111.20 0.04527
1111.30 0.04526
1111.40 0.04524
1111.50 0.04523
1111.60 0.04521
1111.70 0.0452
1111.80 0.04519
1111.90 0.04517
1112.00 0.04516
1112.10 0.04514
1112.20 0.04513
1112.30 0.04511
1112.40 0.0451
1112.50 0.04508
1112.60 0.04507
1112.70 0.04505
1112.80 0.04504
1112.90 0.04502
1113.00 0.04501
1113.10 0.04499
1113.20 0.04498
1113.30 0.04496
1113.40 0.04495
1113.50 0.04493
1113.60 0.04492
1113.70 0.0449
1113.80 0.04489
1113.90 0.04488
1114.00 0.04486
1114.10 0.04485
1114.20 0.04483
1114.30 0.04482
1114.40 0.0448
1114.50 0.04479
1114.60 0.04477
1114.70 0.04476
1114.80 0.04474
1114.90 0.04473
1115.00 0.04471
1115.10 0.0447
1115.20 0.04468
1115.30 0.04467
1115.40 0.04465
1115.50 0.04464
1115.60 0.04462
1115.70 0.04461
1115.80 0.04459
1115.90 0.04458
1116.00 0.04456
1116.10 0.04455
1116.20 0.04453
1116.30 0.04452
1116.40 0.0445
1116.50 0.04449
1116.60 0.04447
1116.70 0.04446
1116.80 0.04444
1116.90 0.04443
1117.00 0.04441
1117.10 0.0444
1117.20 0.04438
1117.30 0.04437
1117.40 0.04435
1117.50 0.04434
1117.60 0.04432
1117.70 0.04431
1117.80 0.04429
1117.90 0.04428
1118.00 0.04426
1118.10 0.04425
1118.20 0.04423
1118.30 0.04422
1118.40 0.0442
1118.50 0.04419
1118.60 0.04417
1118.70 0.04416
1118.80 0.04414
1118.90 0.04413
1119.00 0.04411
1119.10 0.0441
1119.20 0.04408
1119.30 0.04407
1119.40 0.04405
1119.50 0.04404
1119.60 0.04402
1119.70 0.04401
1119.80 0.04399
1119.90 0.04398
1120.00 0.04396
1120.10 0.04395
1120.20 0.04393
1120.30 0.04392
1120.40 0.04391
1120.50 0.04389
1120.60 0.04388
1120.70 0.04386
1120.80 0.04385
1120.90 0.04383
1121.00 0.04382
1121.10 0.0438
1121.20 0.04379
1121.30 0.04377
1121.40 0.04376
1121.50 0.04374
1121.60 0.04373
1121.70 0.04371
1121.80 0.0437
1121.90 0.04368
1122.00 0.04367
1122.10 0.04365
1122.20 0.04364
1122.30 0.04362
1122.40 0.04361
1122.50 0.04359
1122.60 0.04358
1122.70 0.04356
1122.80 0.04355
1122.90 0.04353
1123.00 0.04352
1123.10 0.0435
1123.20 0.04349
1123.30 0.04347
1123.40 0.04346
1123.50 0.04344
1123.60 0.04343
1123.70 0.04341
1123.80 0.0434
1123.90 0.04339
1124.00 0.04337
1124.10 0.04336
1124.20 0.04334
1124.30 0.04333
1124.40 0.04331
1124.50 0.0433
1124.60 0.04328
1124.70 0.04327
1124.80 0.04325
1124.90 0.04324
1125.00 0.04322
1125.10 0.04321
1125.20 0.04319
1125.30 0.04318
1125.40 0.04316
1125.50 0.04315
1125.60 0.04313
1125.70 0.04312
1125.80 0.0431
1125.90 0.04309
1126.00 0.04307
1126.10 0.04306
1126.20 0.04305
1126.30 0.04303
1126.40 0.04302
1126.50 0.043
1126.60 0.04299
1126.70 0.04297
1126.80 0.04296
1126.90 0.04294
1127.00 0.04293
1127.10 0.04291
1127.20 0.0429
1127.30 0.04288
1127.40 0.04287
1127.50 0.04285
1127.60 0.04284
1127.70 0.04282
1127.80 0.04281
1127.90 0.0428
1128.00 0.04278
1128.10 0.04277
1128.20 0.04275
1128.30 0.04274
1128.40 0.04272
1128.50 0.04271
1128.60 0.04269
1128.70 0.04268
1128.80 0.04266
1128.90 0.04265
1129.00 0.04263
1129.10 0.04262
1129.20 0.04261
1129.30 0.04259
1129.40 0.04258
1129.50 0.04256
1129.60 0.04255
1129.70 0.04253
1129.80 0.04252
1129.90 0.0425
1130.00 0.04249
1130.10 0.04247
1130.20 0.04246
1130.30 0.04244
1130.40 0.04243
1130.50 0.04242
1130.60 0.0424
1130.70 0.04239
1130.80 0.04237
1130.90 0.04236
1131.00 0.04234
1131.10 0.04233
1131.20 0.04231
1131.30 0.0423
1131.40 0.04229
1131.50 0.04227
1131.60 0.04226
1131.70 0.04224
1131.80 0.04223
1131.90 0.04221
1132.00 0.0422
1132.10 0.04218
1132.20 0.04217
1132.30 0.04216
1132.40 0.04214
1132.50 0.04213
1132.60 0.04211
1132.70 0.0421
1132.80 0.04208
1132.90 0.04207
1133.00 0.04205
1133.10 0.04204
1133.20 0.04203
1133.30 0.04201
1133.40 0.042
1133.50 0.04198
1133.60 0.04197
1133.70 0.04195
1133.80 0.04194
1133.90 0.04192
1134.00 0.04191
1134.10 0.0419
1134.20 0.04188
1134.30 0.04187
1134.40 0.04185
1134.50 0.04184
1134.60 0.04182
1134.70 0.04181
1134.80 0.0418
1134.90 0.04178
1135.00 0.04177
1135.10 0.04175
1135.20 0.04174
1135.30 0.04172
1135.40 0.04171
1135.50 0.0417
1135.60 0.04168
1135.70 0.04167
1135.80 0.04165
1135.90 0.04164
1136.00 0.04162
1136.10 0.04161
1136.20 0.0416
1136.30 0.04158
1136.40 0.04157
1136.50 0.04155
1136.60 0.04154
1136.70 0.04152
1136.80 0.04151
1136.90 0.0415
1137.00 0.04148
1137.10 0.04147
1137.20 0.04145
1137.30 0.04144
1137.40 0.04143
1137.50 0.04141
1137.60 0.0414
1137.70 0.04138
1137.80 0.04137
1137.90 0.04135
1138.00 0.04134
1138.10 0.04133
1138.20 0.04131
1138.30 0.0413
1138.40 0.04128
1138.50 0.04127
1138.60 0.04126
1138.70 0.04124
1138.80 0.04123
1138.90 0.04121
1139.00 0.0412
1139.10 0.04119
1139.20 0.04117
1139.30 0.04116
1139.40 0.04114
1139.50 0.04113
1139.60 0.04111
1139.70 0.0411
1139.80 0.04109
1139.90 0.04107
1140.00 0.04106
1140.10 0.04104
1140.20 0.04103
1140.30 0.04102
1140.40 0.041
1140.50 0.04099
1140.60 0.04097
1140.70 0.04096
1140.80 0.04095
1140.90 0.04093
1141.00 0.04092
1141.10 0.0409
1141.20 0.04089
1141.30 0.04088
1141.40 0.04086
1141.50 0.04085
1141.60 0.04083
1141.70 0.04082
1141.80 0.04081
1141.90 0.04079
1142.00 0.04078
1142.10 0.04076
1142.20 0.04075
1142.30 0.04074
1142.40 0.04072
1142.50 0.04071
1142.60 0.0407
1142.70 0.04068
1142.80 0.04067
1142.90 0.04065
1143.00 0.04064
1143.10 0.04063
1143.20 0.04061
1143.30 0.0406
1143.40 0.04058
1143.50 0.04057
1143.60 0.04056
1143.70 0.04054
1143.80 0.04053
1143.90 0.04052
1144.00 0.0405
1144.10 0.04049
1144.20 0.04047
1144.30 0.04046
1144.40 0.04045
1144.50 0.04043
1144.60 0.04042
1144.70 0.04041
1144.80 0.04039
1144.90 0.04038
1145.00 0.04036
1145.10 0.04035
1145.20 0.04034
1145.30 0.04032
1145.40 0.04031
1145.50 0.0403
1145.60 0.04028
1145.70 0.04027
1145.80 0.04025
1145.90 0.04024
1146.00 0.04023
1146.10 0.04021
1146.20 0.0402
1146.30 0.04019
1146.40 0.04017
1146.50 0.04016
1146.60 0.04014
1146.70 0.04013
1146.80 0.04012
1146.90 0.0401
1147.00 0.04009
1147.10 0.04008
1147.20 0.04006
1147.30 0.04005
1147.40 0.04004
1147.50 0.04002
1147.60 0.04001
1147.70 0.03999
1147.80 0.03998
1147.90 0.03997
1148.00 0.03995
1148.10 0.03994
1148.20 0.03993
1148.30 0.03991
1148.40 0.0399
1148.50 0.03989
1148.60 0.03987
1148.70 0.03986
1148.80 0.03985
1148.90 0.03983
1149.00 0.03982
1149.10 0.03981
1149.20 0.03979
1149.30 0.03978
1149.40 0.03976
1149.50 0.03975
1149.60 0.03974
1149.70 0.03972
1149.80 0.03971
1149.90 0.0397
1150.00 0.03968
1150.10 0.03967
1150.20 0.03966
1150.30 0.03964
1150.40 0.03963
1150.50 0.03962
1150.60 0.0396
1150.70 0.03959
1150.80 0.03958
1150.90 0.03956
1151.00 0.03955
1151.10 0.03954
1151.20 0.03952
1151.30 0.03951
1151.40 0.0395
1151.50 0.03948
1151.60 0.03947
1151.70 0.03946
1151.80 0.03944
1151.90 0.03943
1152.00 0.03942
1152.10 0.0394
1152.20 0.03939
1152.30 0.03938
1152.40 0.03936
1152.50 0.03935
1152.60 0.03934
1152.70 0.03932
1152.80 0.03931
1152.90 0.0393
1153.00 0.03928
1153.10 0.03927
1153.20 0.03926
1153.30 0.03924
1153.40 0.03923
1153.50 0.03922
1153.60 0.0392
1153.70 0.03919
1153.80 0.03918
1153.90 0.03916
1154.00 0.03915
1154.10 0.03914
1154.20 0.03912
1154.30 0.03911
1154.40 0.0391
1154.50 0.03908
1154.60 0.03907
1154.70 0.03906
1154.80 0.03904
1154.90 0.03903
1155.00 0.03902
1155.10 0.039
1155.20 0.03899
1155.30 0.03898
1155.40 0.03896
1155.50 0.03895
1155.60 0.03894
1155.70 0.03892
1155.80 0.03891
1155.90 0.0389
1156.00 0.03889
1156.10 0.03887
1156.20 0.03886
1156.30 0.03885
1156.40 0.03883
1156.50 0.03882
1156.60 0.03881
1156.70 0.03879
1156.80 0.03878
1156.90 0.03877
1157.00 0.03875
1157.10 0.03874
1157.20 0.03873
1157.30 0.03871
1157.40 0.0387
1157.50 0.03869
1157.60 0.03868
1157.70 0.03866
1157.80 0.03865
1157.90 0.03864
1158.00 0.03862
1158.10 0.03861
1158.20 0.0386
1158.30 0.03858
1158.40 0.03857
1158.50 0.03856
1158.60 0.03855
1158.70 0.03853
1158.80 0.03852
1158.90 0.03851
1159.00 0.03849
1159.10 0.03848
1159.20 0.03847
1159.30 0.03845
1159.40 0.03844
1159.50 0.03843
1159.60 0.03842
1159.70 0.0384
1159.80 0.03839
1159.90 0.03838
1160.00 0.03836
1160.10 0.03835
1160.20 0.03834
1160.30 0.03833
1160.40 0.03831
1160.50 0.0383
1160.60 0.03829
1160.70 0.03827
1160.80 0.03826
1160.90 0.03825
1161.00 0.03823
1161.10 0.03822
1161.20 0.03821
1161.30 0.0382
1161.40 0.03818
1161.50 0.03817
1161.60 0.03816
1161.70 0.03814
1161.80 0.03813
1161.90 0.03812
1162.00 0.03811
1162.10 0.03809
1162.20 0.03808
1162.30 0.03807
1162.40 0.03805
1162.50 0.03804
1162.60 0.03803
1162.70 0.03802
1162.80 0.038
1162.90 0.03799
1163.00 0.03798
1163.10 0.03797
1163.20 0.03795
1163.30 0.03794
1163.40 0.03793
1163.50 0.03791
1163.60 0.0379
1163.70 0.03789
1163.80 0.03788
1163.90 0.03786
1164.00 0.03785
1164.10 0.03784
1164.20 0.03783
1164.30 0.03781
1164.40 0.0378
1164.50 0.03779
1164.60 0.03778
1164.70 0.03776
1164.80 0.03775
1164.90 0.03774
1165.00 0.03772
1165.10 0.03771
1165.20 0.0377
1165.30 0.03769
1165.40 0.03767
1165.50 0.03766
1165.60 0.03765
1165.70 0.03764
1165.80 0.03762
1165.90 0.03761
1166.00 0.0376
1166.10 0.03759
1166.20 0.03757
1166.30 0.03756
1166.40 0.03755
1166.50 0.03753
1166.60 0.03752
1166.70 0.03751
1166.80 0.0375
1166.90 0.03748
1167.00 0.03747
1167.10 0.03746
1167.20 0.03745
1167.30 0.03743
1167.40 0.03742
1167.50 0.03741
1167.60 0.0374
1167.70 0.03738
1167.80 0.03737
1167.90 0.03736
1168.00 0.03735
1168.10 0.03733
1168.20 0.03732
1168.30 0.03731
1168.40 0.0373
1168.50 0.03728
1168.60 0.03727
1168.70 0.03726
1168.80 0.03725
1168.90 0.03723
1169.00 0.03722
1169.10 0.03721
1169.20 0.0372
1169.30 0.03718
1169.40 0.03717
1169.50 0.03716
1169.60 0.03715
1169.70 0.03714
1169.80 0.03712
1169.90 0.03711
1170.00 0.0371
1170.10 0.03709
1170.20 0.03707
1170.30 0.03706
1170.40 0.03705
1170.50 0.03704
1170.60 0.03702
1170.70 0.03701
1170.80 0.037
1170.90 0.03699
1171.00 0.03697
1171.10 0.03696
1171.20 0.03695
1171.30 0.03694
1171.40 0.03692
1171.50 0.03691
1171.60 0.0369
1171.70 0.03689
1171.80 0.03688
1171.90 0.03686
1172.00 0.03685
1172.10 0.03684
1172.20 0.03683
1172.30 0.03681
1172.40 0.0368
1172.50 0.03679
1172.60 0.03678
1172.70 0.03676
1172.80 0.03675
1172.90 0.03674
1173.00 0.03673
1173.10 0.03672
1173.20 0.0367
1173.30 0.03669
1173.40 0.03668
1173.50 0.03667
1173.60 0.03665
1173.70 0.03664
1173.80 0.03663
1173.90 0.03662
1174.00 0.03661
1174.10 0.03659
1174.20 0.03658
1174.30 0.03657
1174.40 0.03656
1174.50 0.03655
1174.60 0.03653
1174.70 0.03652
1174.80 0.03651
1174.90 0.0365
1175.00 0.03648
1175.10 0.03647
1175.20 0.03646
1175.30 0.03645
1175.40 0.03644
1175.50 0.03642
1175.60 0.03641
1175.70 0.0364
1175.80 0.03639
1175.90 0.03638
1176.00 0.03636
1176.10 0.03635
1176.20 0.03634
1176.30 0.03633
1176.40 0.03631
1176.50 0.0363
1176.60 0.03629
1176.70 0.03628
1176.80 0.03627
1176.90 0.03625
1177.00 0.03624
1177.10 0.03623
1177.20 0.03622
1177.30 0.03621
1177.40 0.03619
1177.50 0.03618
1177.60 0.03617
1177.70 0.03616
1177.80 0.03615
1177.90 0.03613
1178.00 0.03612
1178.10 0.03611
1178.20 0.0361
1178.30 0.03609
1178.40 0.03607
1178.50 0.03606
1178.60 0.03605
1178.70 0.03604
1178.80 0.03603
1178.90 0.03601
1179.00 0.036
1179.10 0.03599
1179.20 0.03598
1179.30 0.03597
1179.40 0.03595
1179.50 0.03594
1179.60 0.03593
1179.70 0.03592
1179.80 0.03591
1179.90 0.0359
1180.00 0.03588
1180.10 0.03587
1180.20 0.03586
1180.30 0.03585
1180.40 0.03584
1180.50 0.03582
1180.60 0.03581
1180.70 0.0358
1180.80 0.03579
1180.90 0.03578
1181.00 0.03576
1181.10 0.03575
1181.20 0.03574
1181.30 0.03573
1181.40 0.03572
1181.50 0.03571
1181.60 0.03569
1181.70 0.03568
1181.80 0.03567
1181.90 0.03566
1182.00 0.03565
1182.10 0.03563
1182.20 0.03562
1182.30 0.03561
1182.40 0.0356
1182.50 0.03559
1182.60 0.03558
1182.70 0.03556
1182.80 0.03555
1182.90 0.03554
1183.00 0.03553
1183.10 0.03552
1183.20 0.0355
1183.30 0.03549
1183.40 0.03548
1183.50 0.03547
1183.60 0.03546
1183.70 0.03545
1183.80 0.03543
1183.90 0.03542
1184.00 0.03541
1184.10 0.0354
1184.20 0.03539
1184.30 0.03538
1184.40 0.03536
1184.50 0.03535
1184.60 0.03534
1184.70 0.03533
1184.80 0.03532
1184.90 0.03531
1185.00 0.03529
1185.10 0.03528
1185.20 0.03527
1185.30 0.03526
1185.40 0.03525
1185.50 0.03524
1185.60 0.03522
1185.70 0.03521
1185.80 0.0352
1185.90 0.03519
1186.00 0.03518
1186.10 0.03517
1186.20 0.03515
1186.30 0.03514
1186.40 0.03513
1186.50 0.03512
1186.60 0.03511
1186.70 0.0351
1186.80 0.03508
1186.90 0.03507
1187.00 0.03506
1187.10 0.03505
1187.20 0.03504
1187.30 0.03503
1187.40 0.03502
1187.50 0.035
1187.60 0.03499
1187.70 0.03498
1187.80 0.03497
1187.90 0.03496
1188.00 0.03495
1188.10 0.03494
1188.20 0.03492
1188.30 0.03491
1188.40 0.0349
1188.50 0.03489
1188.60 0.03488
1188.70 0.03487
1188.80 0.03485
1188.90 0.03484
1189.00 0.03483
1189.10 0.03482
1189.20 0.03481
1189.30 0.0348
1189.40 0.03479
1189.50 0.03477
1189.60 0.03476
1189.70 0.03475
1189.80 0.03474
1189.90 0.03473
1190.00 0.03472
1190.10 0.03471
1190.20 0.03469
1190.30 0.03468
1190.40 0.03467
1190.50 0.03466
1190.60 0.03465
1190.70 0.03464
1190.80 0.03463
1190.90 0.03461
1191.00 0.0346
1191.10 0.03459
1191.20 0.03458
1191.30 0.03457
1191.40 0.03456
1191.50 0.03455
1191.60 0.03453
1191.70 0.03452
1191.80 0.03451
1191.90 0.0345
1192.00 0.03449
1192.10 0.03448
1192.20 0.03447
1192.30 0.03446
1192.40 0.03444
1192.50 0.03443
1192.60 0.03442
1192.70 0.03441
1192.80 0.0344
1192.90 0.03439
1193.00 0.03438
1193.10 0.03437
1193.20 0.03435
1193.30 0.03434
1193.40 0.03433
1193.50 0.03432
1193.60 0.03431
1193.70 0.0343
1193.80 0.03429
1193.90 0.03428
1194.00 0.03426
1194.10 0.03425
1194.20 0.03424
1194.30 0.03423
1194.40 0.03422
1194.50 0.03421
1194.60 0.0342
1194.70 0.03419
1194.80 0.03417
1194.90 0.03416
1195.00 0.03415
1195.10 0.03414
1195.20 0.03413
1195.30 0.03412
1195.40 0.03411
1195.50 0.0341
1195.60 0.03409
1195.70 0.03407
1195.80 0.03406
1195.90 0.03405
1196.00 0.03404
1196.10 0.03403
1196.20 0.03402
1196.30 0.03401
1196.40 0.034
1196.50 0.03398
1196.60 0.03397
1196.70 0.03396
1196.80 0.03395
1196.90 0.03394
1197.00 0.03393
1197.10 0.03392
1197.20 0.03391
1197.30 0.0339
1197.40 0.03388
1197.50 0.03387
1197.60 0.03386
1197.70 0.03385
1197.80 0.03384
1197.90 0.03383
1198.00 0.03382
1198.10 0.03381
1198.20 0.0338
1198.30 0.03379
1198.40 0.03377
1198.50 0.03376
1198.60 0.03375
1198.70 0.03374
1198.80 0.03373
1198.90 0.03372
1199.00 0.03371
1199.10 0.0337
1199.20 0.03369
1199.30 0.03368
1199.40 0.03366
1199.50 0.03365
1199.60 0.03364
1199.70 0.03363
1199.80 0.03362
1199.90 0.03361
1200.00 0
