# Version 2.1 - nm, norm@500 to 1, cut digits, bergeron_35000_90.dat_35000
# Wavelength(nm)  Flambda(ergs/cm^s/s/nm)
300.00 5.633
300.10 5.627
300.20 5.62
300.30 5.614
300.40 5.607
300.50 5.6
300.60 5.594
300.70 5.587
300.80 5.581
300.90 5.574
301.00 5.568
301.10 5.561
301.20 5.555
301.30 5.548
301.40 5.542
301.50 5.536
301.60 5.529
301.70 5.523
301.80 5.516
301.90 5.51
302.00 5.503
302.10 5.497
302.20 5.491
302.30 5.484
302.40 5.478
302.50 5.472
302.60 5.465
302.70 5.459
302.80 5.453
302.90 5.446
303.00 5.44
303.10 5.434
303.20 5.427
303.30 5.421
303.40 5.415
303.50 5.409
303.60 5.402
303.70 5.396
303.80 5.39
303.90 5.384
304.00 5.377
304.10 5.371
304.20 5.365
304.30 5.359
304.40 5.353
304.50 5.346
304.60 5.34
304.70 5.334
304.80 5.328
304.90 5.322
305.00 5.316
305.10 5.31
305.20 5.303
305.30 5.297
305.40 5.291
305.50 5.285
305.60 5.279
305.70 5.273
305.80 5.267
305.90 5.261
306.00 5.255
306.10 5.249
306.20 5.243
306.30 5.237
306.40 5.231
306.50 5.225
306.60 5.219
306.70 5.213
306.80 5.207
306.90 5.201
307.00 5.195
307.10 5.189
307.20 5.183
307.30 5.177
307.40 5.171
307.50 5.165
307.60 5.159
307.70 5.154
307.80 5.148
307.90 5.142
308.00 5.136
308.10 5.13
308.20 5.124
308.30 5.118
308.40 5.113
308.50 5.107
308.60 5.101
308.70 5.095
308.80 5.089
308.90 5.084
309.00 5.078
309.10 5.072
309.20 5.066
309.30 5.06
309.40 5.055
309.50 5.049
309.60 5.043
309.70 5.037
309.80 5.032
309.90 5.026
310.00 5.02
310.10 5.015
310.20 5.009
310.30 5.003
310.40 4.998
310.50 4.992
310.60 4.986
310.70 4.981
310.80 4.975
310.90 4.969
311.00 4.964
311.10 4.958
311.20 4.953
311.30 4.947
311.40 4.941
311.50 4.936
311.60 4.93
311.70 4.925
311.80 4.919
311.90 4.914
312.00 4.908
312.10 4.902
312.20 4.897
312.30 4.891
312.40 4.886
312.50 4.88
312.60 4.875
312.70 4.869
312.80 4.864
312.90 4.858
313.00 4.853
313.10 4.848
313.20 4.842
313.30 4.837
313.40 4.831
313.50 4.826
313.60 4.82
313.70 4.815
313.80 4.81
313.90 4.804
314.00 4.799
314.10 4.793
314.20 4.788
314.30 4.783
314.40 4.777
314.50 4.772
314.60 4.767
314.70 4.761
314.80 4.756
314.90 4.751
315.00 4.745
315.10 4.74
315.20 4.735
315.30 4.729
315.40 4.724
315.50 4.719
315.60 4.714
315.70 4.708
315.80 4.703
315.90 4.698
316.00 4.693
316.10 4.687
316.20 4.682
316.30 4.677
316.40 4.672
316.50 4.667
316.60 4.661
316.70 4.656
316.80 4.651
316.90 4.646
317.00 4.641
317.10 4.636
317.20 4.63
317.30 4.625
317.40 4.62
317.50 4.615
317.60 4.61
317.70 4.605
317.80 4.6
317.90 4.595
318.00 4.589
318.10 4.584
318.20 4.579
318.30 4.574
318.40 4.569
318.50 4.564
318.60 4.559
318.70 4.554
318.80 4.549
318.90 4.544
319.00 4.539
319.10 4.534
319.20 4.529
319.30 4.524
319.40 4.519
319.50 4.514
319.60 4.509
319.70 4.504
319.80 4.499
319.90 4.494
320.00 4.489
320.10 4.484
320.20 4.479
320.30 4.474
320.40 4.469
320.50 4.464
320.60 4.459
320.70 4.455
320.80 4.45
320.90 4.445
321.00 4.44
321.10 4.435
321.20 4.43
321.30 4.425
321.40 4.42
321.50 4.416
321.60 4.411
321.70 4.406
321.80 4.401
321.90 4.396
322.00 4.391
322.10 4.387
322.20 4.382
322.30 4.377
322.40 4.372
322.50 4.367
322.60 4.363
322.70 4.358
322.80 4.353
322.90 4.348
323.00 4.344
323.10 4.339
323.20 4.334
323.30 4.329
323.40 4.325
323.50 4.32
323.60 4.315
323.70 4.311
323.80 4.306
323.90 4.301
324.00 4.296
324.10 4.292
324.20 4.287
324.30 4.282
324.40 4.278
324.50 4.273
324.60 4.268
324.70 4.264
324.80 4.259
324.90 4.255
325.00 4.25
325.10 4.245
325.20 4.241
325.30 4.236
325.40 4.231
325.50 4.227
325.60 4.222
325.70 4.218
325.80 4.213
325.90 4.209
326.00 4.204
326.10 4.199
326.20 4.195
326.30 4.19
326.40 4.186
326.50 4.181
326.60 4.177
326.70 4.172
326.80 4.168
326.90 4.163
327.00 4.159
327.10 4.154
327.20 4.15
327.30 4.145
327.40 4.141
327.50 4.136
327.60 4.132
327.70 4.127
327.80 4.123
327.90 4.119
328.00 4.114
328.10 4.11
328.20 4.105
328.30 4.101
328.40 4.096
328.50 4.092
328.60 4.088
328.70 4.083
328.80 4.079
328.90 4.074
329.00 4.07
329.10 4.066
329.20 4.061
329.30 4.057
329.40 4.053
329.50 4.048
329.60 4.044
329.70 4.04
329.80 4.035
329.90 4.031
330.00 4.027
330.10 4.022
330.20 4.018
330.30 4.014
330.40 4.009
330.50 4.005
330.60 4.001
330.70 3.997
330.80 3.992
330.90 3.988
331.00 3.984
331.10 3.98
331.20 3.975
331.30 3.971
331.40 3.967
331.50 3.963
331.60 3.958
331.70 3.954
331.80 3.95
331.90 3.946
332.00 3.941
332.10 3.937
332.20 3.933
332.30 3.929
332.40 3.925
332.50 3.921
332.60 3.916
332.70 3.912
332.80 3.908
332.90 3.904
333.00 3.9
333.10 3.896
333.20 3.891
333.30 3.887
333.40 3.883
333.50 3.879
333.60 3.875
333.70 3.871
333.80 3.867
333.90 3.863
334.00 3.859
334.10 3.854
334.20 3.85
334.30 3.846
334.40 3.842
334.50 3.838
334.60 3.834
334.70 3.83
334.80 3.826
334.90 3.822
335.00 3.818
335.10 3.814
335.20 3.81
335.30 3.806
335.40 3.802
335.50 3.798
335.60 3.794
335.70 3.79
335.80 3.786
335.90 3.782
336.00 3.778
336.10 3.774
336.20 3.77
336.30 3.766
336.40 3.762
336.50 3.758
336.60 3.754
336.70 3.75
336.80 3.746
336.90 3.742
337.00 3.738
337.10 3.734
337.20 3.73
337.30 3.726
337.40 3.723
337.50 3.719
337.60 3.715
337.70 3.711
337.80 3.707
337.90 3.703
338.00 3.699
338.10 3.695
338.20 3.691
338.30 3.688
338.40 3.684
338.50 3.68
338.60 3.676
338.70 3.672
338.80 3.668
338.90 3.664
339.00 3.661
339.10 3.657
339.20 3.653
339.30 3.649
339.40 3.645
339.50 3.642
339.60 3.638
339.70 3.634
339.80 3.63
339.90 3.626
340.00 3.623
340.10 3.619
340.20 3.615
340.30 3.611
340.40 3.608
340.50 3.604
340.60 3.6
340.70 3.596
340.80 3.593
340.90 3.589
341.00 3.585
341.10 3.581
341.20 3.578
341.30 3.574
341.40 3.57
341.50 3.566
341.60 3.563
341.70 3.559
341.80 3.555
341.90 3.552
342.00 3.548
342.10 3.544
342.20 3.541
342.30 3.537
342.40 3.533
342.50 3.53
342.60 3.526
342.70 3.522
342.80 3.519
342.90 3.515
343.00 3.511
343.10 3.508
343.20 3.504
343.30 3.501
343.40 3.497
343.50 3.493
343.60 3.49
343.70 3.486
343.80 3.482
343.90 3.479
344.00 3.475
344.10 3.472
344.20 3.468
344.30 3.465
344.40 3.461
344.50 3.457
344.60 3.454
344.70 3.45
344.80 3.447
344.90 3.443
345.00 3.44
345.10 3.436
345.20 3.433
345.30 3.429
345.40 3.426
345.50 3.422
345.60 3.419
345.70 3.415
345.80 3.411
345.90 3.408
346.00 3.404
346.10 3.401
346.20 3.398
346.30 3.394
346.40 3.391
346.50 3.387
346.60 3.384
346.70 3.38
346.80 3.377
346.90 3.373
347.00 3.37
347.10 3.366
347.20 3.363
347.30 3.359
347.40 3.356
347.50 3.353
347.60 3.349
347.70 3.346
347.80 3.342
347.90 3.339
348.00 3.335
348.10 3.332
348.20 3.329
348.30 3.325
348.40 3.322
348.50 3.319
348.60 3.315
348.70 3.312
348.80 3.308
348.90 3.305
349.00 3.302
349.10 3.298
349.20 3.295
349.30 3.292
349.40 3.288
349.50 3.285
349.60 3.282
349.70 3.278
349.80 3.275
349.90 3.272
350.00 3.268
350.10 3.265
350.20 3.262
350.30 3.258
350.40 3.255
350.50 3.252
350.60 3.248
350.70 3.245
350.80 3.242
350.90 3.239
351.00 3.235
351.10 3.232
351.20 3.229
351.30 3.225
351.40 3.222
351.50 3.219
351.60 3.216
351.70 3.212
351.80 3.209
351.90 3.206
352.00 3.203
352.10 3.199
352.20 3.196
352.30 3.193
352.40 3.19
352.50 3.187
352.60 3.183
352.70 3.18
352.80 3.177
352.90 3.174
353.00 3.171
353.10 3.167
353.20 3.164
353.30 3.161
353.40 3.158
353.50 3.155
353.60 3.151
353.70 3.148
353.80 3.145
353.90 3.142
354.00 3.139
354.10 3.136
354.20 3.132
354.30 3.129
354.40 3.126
354.50 3.123
354.60 3.12
354.70 3.117
354.80 3.114
354.90 3.111
355.00 3.107
355.10 3.104
355.20 3.101
355.30 3.098
355.40 3.095
355.50 3.092
355.60 3.089
355.70 3.086
355.80 3.083
355.90 3.079
356.00 3.076
356.10 3.073
356.20 3.07
356.30 3.067
356.40 3.064
356.50 3.061
356.60 3.058
356.70 3.055
356.80 3.052
356.90 3.049
357.00 3.046
357.10 3.043
357.20 3.04
357.30 3.037
357.40 3.034
357.50 3.031
357.60 3.028
357.70 3.025
357.80 3.022
357.90 3.019
358.00 3.016
358.10 3.013
358.20 3.01
358.30 3.007
358.40 3.004
358.50 3.001
358.60 2.998
358.70 2.995
358.80 2.992
358.90 2.989
359.00 2.986
359.10 2.983
359.20 2.98
359.30 2.977
359.40 2.974
359.50 2.971
359.60 2.968
359.70 2.965
359.80 2.962
359.90 2.959
360.00 2.956
360.10 2.953
360.20 2.951
360.30 2.948
360.40 2.945
360.50 2.942
360.60 2.939
360.70 2.936
360.80 2.933
360.90 2.93
361.00 2.927
361.10 2.924
361.20 2.922
361.30 2.919
361.40 2.916
361.50 2.913
361.60 2.91
361.70 2.907
361.80 2.904
361.90 2.901
362.00 2.899
362.10 2.896
362.20 2.893
362.30 2.89
362.40 2.887
362.50 2.884
362.60 2.881
362.70 2.879
362.80 2.876
362.90 2.873
363.00 2.87
363.10 2.867
363.20 2.865
363.30 2.862
363.40 2.859
363.50 2.856
363.60 2.853
363.70 2.851
363.80 2.848
363.90 2.845
364.00 2.842
364.10 2.839
364.20 2.837
364.30 2.834
364.40 2.831
364.50 2.828
364.60 2.826
364.70 2.823
364.80 2.82
364.90 2.817
365.00 2.814
365.10 2.812
365.20 2.809
365.30 2.806
365.40 2.804
365.50 2.801
365.60 2.798
365.70 2.795
365.80 2.793
365.90 2.79
366.00 2.787
366.10 2.784
366.20 2.782
366.30 2.779
366.40 2.776
366.50 2.773
366.60 2.77
366.70 2.768
366.80 2.765
366.90 2.762
367.00 2.759
367.10 2.756
367.20 2.754
367.30 2.751
367.40 2.748
367.50 2.745
367.60 2.742
367.70 2.74
367.80 2.737
367.90 2.734
368.00 2.731
368.10 2.729
368.20 2.726
368.30 2.723
368.40 2.72
368.50 2.717
368.60 2.714
368.70 2.711
368.80 2.709
368.90 2.706
369.00 2.703
369.10 2.7
369.20 2.697
369.30 2.694
369.40 2.692
369.50 2.689
369.60 2.686
369.70 2.683
369.80 2.68
369.90 2.677
370.00 2.675
370.10 2.672
370.20 2.669
370.30 2.666
370.40 2.664
370.50 2.661
370.60 2.658
370.70 2.655
370.80 2.653
370.90 2.65
371.00 2.647
371.10 2.645
371.20 2.642
371.30 2.639
371.40 2.636
371.50 2.634
371.60 2.631
371.70 2.628
371.80 2.626
371.90 2.623
372.00 2.62
372.10 2.618
372.20 2.615
372.30 2.613
372.40 2.61
372.50 2.607
372.60 2.605
372.70 2.602
372.80 2.6
372.90 2.597
373.00 2.595
373.10 2.592
373.20 2.59
373.30 2.587
373.40 2.585
373.50 2.582
373.60 2.58
373.70 2.577
373.80 2.575
373.90 2.572
374.00 2.57
374.10 2.567
374.20 2.565
374.30 2.562
374.40 2.56
374.50 2.557
374.60 2.554
374.70 2.552
374.80 2.549
374.90 2.547
375.00 2.544
375.10 2.541
375.20 2.539
375.30 2.536
375.40 2.534
375.50 2.531
375.60 2.529
375.70 2.526
375.80 2.523
375.90 2.521
376.00 2.518
376.10 2.516
376.20 2.513
376.30 2.511
376.40 2.508
376.50 2.506
376.60 2.503
376.70 2.501
376.80 2.498
376.90 2.496
377.00 2.493
377.10 2.491
377.20 2.489
377.30 2.486
377.40 2.484
377.50 2.482
377.60 2.479
377.70 2.477
377.80 2.474
377.90 2.472
378.00 2.47
378.10 2.467
378.20 2.465
378.30 2.463
378.40 2.46
378.50 2.458
378.60 2.456
378.70 2.454
378.80 2.451
378.90 2.449
379.00 2.447
379.10 2.444
379.20 2.442
379.30 2.44
379.40 2.437
379.50 2.435
379.60 2.433
379.70 2.431
379.80 2.428
379.90 2.426
380.00 2.424
380.10 2.422
380.20 2.42
380.30 2.418
380.40 2.415
380.50 2.413
380.60 2.411
380.70 2.409
380.80 2.407
380.90 2.405
381.00 2.403
381.10 2.401
381.20 2.399
381.30 2.396
381.40 2.394
381.50 2.392
381.60 2.39
381.70 2.388
381.80 2.386
381.90 2.384
382.00 2.381
382.10 2.379
382.20 2.377
382.30 2.375
382.40 2.373
382.50 2.371
382.60 2.368
382.70 2.366
382.80 2.364
382.90 2.362
383.00 2.36
383.10 2.358
383.20 2.355
383.30 2.353
383.40 2.351
383.50 2.349
383.60 2.347
383.70 2.346
383.80 2.344
383.90 2.342
384.00 2.34
384.10 2.339
384.20 2.337
384.30 2.335
384.40 2.334
384.50 2.332
384.60 2.33
384.70 2.329
384.80 2.327
384.90 2.325
385.00 2.324
385.10 2.322
385.20 2.32
385.30 2.318
385.40 2.316
385.50 2.315
385.60 2.313
385.70 2.311
385.80 2.309
385.90 2.307
386.00 2.305
386.10 2.303
386.20 2.301
386.30 2.299
386.40 2.296
386.50 2.294
386.60 2.292
386.70 2.29
386.80 2.288
386.90 2.285
387.00 2.283
387.10 2.281
387.20 2.278
387.30 2.276
387.40 2.273
387.50 2.271
387.60 2.269
387.70 2.266
387.80 2.264
387.90 2.261
388.00 2.259
388.10 2.256
388.20 2.254
388.30 2.251
388.40 2.249
388.50 2.247
388.60 2.245
388.70 2.243
388.80 2.241
388.90 2.239
389.00 2.238
389.10 2.236
389.20 2.235
389.30 2.234
389.40 2.233
389.50 2.233
389.60 2.232
389.70 2.231
389.80 2.23
389.90 2.23
390.00 2.229
390.10 2.228
390.20 2.227
390.30 2.227
390.40 2.226
390.50 2.225
390.60 2.224
390.70 2.223
390.80 2.222
390.90 2.221
391.00 2.22
391.10 2.219
391.20 2.218
391.30 2.216
391.40 2.215
391.50 2.214
391.60 2.212
391.70 2.211
391.80 2.209
391.90 2.208
392.00 2.206
392.10 2.204
392.20 2.202
392.30 2.2
392.40 2.198
392.50 2.196
392.60 2.194
392.70 2.192
392.80 2.19
392.90 2.187
393.00 2.185
393.10 2.183
393.20 2.18
393.30 2.177
393.40 2.175
393.50 2.172
393.60 2.169
393.70 2.166
393.80 2.163
393.90 2.16
394.00 2.157
394.10 2.153
394.20 2.15
394.30 2.146
394.40 2.143
394.50 2.139
394.60 2.136
394.70 2.132
394.80 2.128
394.90 2.124
395.00 2.12
395.10 2.116
395.20 2.112
395.30 2.108
395.40 2.103
395.50 2.099
395.60 2.095
395.70 2.09
395.80 2.086
395.90 2.081
396.00 2.077
396.10 2.072
396.20 2.067
396.30 2.063
396.40 2.058
396.50 2.054
396.60 2.049
396.70 2.045
396.80 2.041
396.90 2.037
397.00 2.033
397.10 2.034
397.20 2.035
397.30 2.037
397.40 2.038
397.50 2.04
397.60 2.042
397.70 2.044
397.80 2.045
397.90 2.047
398.00 2.049
398.10 2.051
398.20 2.053
398.30 2.055
398.40 2.056
398.50 2.058
398.60 2.06
398.70 2.061
398.80 2.063
398.90 2.064
399.00 2.066
399.10 2.067
399.20 2.068
399.30 2.069
399.40 2.07
399.50 2.071
399.60 2.072
399.70 2.073
399.80 2.074
399.90 2.074
400.00 2.075
400.10 2.075
400.20 2.076
400.30 2.076
400.40 2.076
400.50 2.076
400.60 2.077
400.70 2.076
400.80 2.076
400.90 2.076
401.00 2.076
401.10 2.076
401.20 2.075
401.30 2.075
401.40 2.074
401.50 2.074
401.60 2.073
401.70 2.072
401.80 2.071
401.90 2.07
402.00 2.069
402.10 2.068
402.20 2.067
402.30 2.065
402.40 2.064
402.50 2.062
402.60 2.061
402.70 2.059
402.80 2.058
402.90 2.056
403.00 2.054
403.10 2.052
403.20 2.05
403.30 2.048
403.40 2.046
403.50 2.043
403.60 2.041
403.70 2.038
403.80 2.036
403.90 2.033
404.00 2.031
404.10 2.028
404.20 2.025
404.30 2.022
404.40 2.019
404.50 2.016
404.60 2.012
404.70 2.009
404.80 2.005
404.90 2.002
405.00 1.998
405.10 1.994
405.20 1.991
405.30 1.987
405.40 1.983
405.50 1.978
405.60 1.974
405.70 1.97
405.80 1.965
405.90 1.961
406.00 1.956
406.10 1.951
406.20 1.946
406.30 1.941
406.40 1.936
406.50 1.93
406.60 1.925
406.70 1.919
406.80 1.914
406.90 1.908
407.00 1.902
407.10 1.896
407.20 1.89
407.30 1.883
407.40 1.877
407.50 1.871
407.60 1.864
407.70 1.857
407.80 1.85
407.90 1.843
408.00 1.836
408.10 1.828
408.20 1.821
408.30 1.813
408.40 1.805
408.50 1.798
408.60 1.79
408.70 1.782
408.80 1.774
408.90 1.765
409.00 1.757
409.10 1.749
409.20 1.741
409.30 1.733
409.40 1.725
409.50 1.717
409.60 1.71
409.70 1.703
409.80 1.697
409.90 1.692
410.00 1.69
410.10 1.689
410.20 1.689
410.30 1.686
410.40 1.686
410.50 1.686
410.60 1.69
410.70 1.693
410.80 1.698
410.90 1.703
411.00 1.708
411.10 1.713
411.20 1.719
411.30 1.724
411.40 1.73
411.50 1.735
411.60 1.741
411.70 1.746
411.80 1.751
411.90 1.756
412.00 1.761
412.10 1.766
412.20 1.771
412.30 1.776
412.40 1.78
412.50 1.784
412.60 1.789
412.70 1.793
412.80 1.797
412.90 1.801
413.00 1.804
413.10 1.808
413.20 1.811
413.30 1.815
413.40 1.818
413.50 1.821
413.60 1.824
413.70 1.827
413.80 1.83
413.90 1.832
414.00 1.835
414.10 1.837
414.20 1.84
414.30 1.842
414.40 1.844
414.50 1.846
414.60 1.848
414.70 1.85
414.80 1.851
414.90 1.853
415.00 1.855
415.10 1.856
415.20 1.858
415.30 1.859
415.40 1.86
415.50 1.861
415.60 1.862
415.70 1.863
415.80 1.864
415.90 1.865
416.00 1.866
416.10 1.867
416.20 1.867
416.30 1.868
416.40 1.868
416.50 1.869
416.60 1.869
416.70 1.869
416.80 1.87
416.90 1.87
417.00 1.87
417.10 1.87
417.20 1.87
417.30 1.87
417.40 1.87
417.50 1.87
417.60 1.87
417.70 1.87
417.80 1.87
417.90 1.869
418.00 1.869
418.10 1.869
418.20 1.868
418.30 1.868
418.40 1.867
418.50 1.867
418.60 1.866
418.70 1.866
418.80 1.865
418.90 1.864
419.00 1.864
419.10 1.863
419.20 1.862
419.30 1.861
419.40 1.86
419.50 1.859
419.60 1.859
419.70 1.858
419.80 1.857
419.90 1.856
420.00 1.855
420.10 1.853
420.20 1.852
420.30 1.851
420.40 1.85
420.50 1.849
420.60 1.848
420.70 1.846
420.80 1.845
420.90 1.844
421.00 1.842
421.10 1.841
421.20 1.84
421.30 1.838
421.40 1.837
421.50 1.835
421.60 1.834
421.70 1.832
421.80 1.831
421.90 1.829
422.00 1.828
422.10 1.826
422.20 1.824
422.30 1.823
422.40 1.821
422.50 1.819
422.60 1.817
422.70 1.816
422.80 1.814
422.90 1.812
423.00 1.81
423.10 1.808
423.20 1.806
423.30 1.804
423.40 1.802
423.50 1.8
423.60 1.798
423.70 1.796
423.80 1.794
423.90 1.792
424.00 1.79
424.10 1.787
424.20 1.785
424.30 1.783
424.40 1.78
424.50 1.778
424.60 1.776
424.70 1.773
424.80 1.771
424.90 1.768
425.00 1.766
425.10 1.763
425.20 1.761
425.30 1.758
425.40 1.755
425.50 1.753
425.60 1.75
425.70 1.747
425.80 1.744
425.90 1.741
426.00 1.738
426.10 1.735
426.20 1.732
426.30 1.729
426.40 1.726
426.50 1.723
426.60 1.72
426.70 1.716
426.80 1.713
426.90 1.709
427.00 1.706
427.10 1.702
427.20 1.699
427.30 1.695
427.40 1.691
427.50 1.688
427.60 1.684
427.70 1.68
427.80 1.676
427.90 1.672
428.00 1.668
428.10 1.664
428.20 1.659
428.30 1.655
428.40 1.651
428.50 1.646
428.60 1.641
428.70 1.637
428.80 1.632
428.90 1.627
429.00 1.622
429.10 1.617
429.20 1.612
429.30 1.607
429.40 1.602
429.50 1.596
429.60 1.591
429.70 1.585
429.80 1.579
429.90 1.573
430.00 1.568
430.10 1.561
430.20 1.555
430.30 1.549
430.40 1.543
430.50 1.536
430.60 1.529
430.70 1.523
430.80 1.516
430.90 1.509
431.00 1.501
431.10 1.494
431.20 1.487
431.30 1.479
431.40 1.471
431.50 1.463
431.60 1.455
431.70 1.447
431.80 1.439
431.90 1.43
432.00 1.421
432.10 1.413
432.20 1.404
432.30 1.394
432.40 1.385
432.50 1.376
432.60 1.366
432.70 1.356
432.80 1.346
432.90 1.336
433.00 1.326
433.10 1.316
433.20 1.305
433.30 1.295
433.40 1.284
433.50 1.273
433.60 1.263
433.70 1.251
433.80 1.238
433.90 1.224
434.00 1.207
434.10 1.207
434.20 1.222
434.30 1.234
434.40 1.245
434.50 1.255
434.60 1.264
434.70 1.273
434.80 1.281
434.90 1.29
435.00 1.298
435.10 1.306
435.20 1.314
435.30 1.322
435.40 1.33
435.50 1.338
435.60 1.345
435.70 1.352
435.80 1.359
435.90 1.366
436.00 1.373
436.10 1.379
436.20 1.386
436.30 1.392
436.40 1.398
436.50 1.403
436.60 1.409
436.70 1.414
436.80 1.42
436.90 1.425
437.00 1.43
437.10 1.435
437.20 1.439
437.30 1.444
437.40 1.448
437.50 1.452
437.60 1.456
437.70 1.46
437.80 1.464
437.90 1.468
438.00 1.471
438.10 1.475
438.20 1.478
438.30 1.481
438.40 1.484
438.50 1.487
438.60 1.49
438.70 1.493
438.80 1.495
438.90 1.498
439.00 1.5
439.10 1.503
439.20 1.505
439.30 1.507
439.40 1.509
439.50 1.511
439.60 1.513
439.70 1.515
439.80 1.516
439.90 1.518
440.00 1.52
440.10 1.521
440.20 1.523
440.30 1.524
440.40 1.525
440.50 1.526
440.60 1.527
440.70 1.529
440.80 1.53
440.90 1.53
441.00 1.531
441.10 1.532
441.20 1.533
441.30 1.534
441.40 1.534
441.50 1.535
441.60 1.535
441.70 1.536
441.80 1.536
441.90 1.537
442.00 1.537
442.10 1.537
442.20 1.538
442.30 1.538
442.40 1.538
442.50 1.538
442.60 1.538
442.70 1.539
442.80 1.539
442.90 1.539
443.00 1.539
443.10 1.538
443.20 1.538
443.30 1.538
443.40 1.538
443.50 1.538
443.60 1.538
443.70 1.537
443.80 1.537
443.90 1.537
444.00 1.537
444.10 1.536
444.20 1.536
444.30 1.535
444.40 1.535
444.50 1.535
444.60 1.534
444.70 1.534
444.80 1.533
444.90 1.533
445.00 1.532
445.10 1.532
445.20 1.531
445.30 1.53
445.40 1.53
445.50 1.529
445.60 1.529
445.70 1.528
445.80 1.527
445.90 1.527
446.00 1.526
446.10 1.525
446.20 1.524
446.30 1.524
446.40 1.523
446.50 1.522
446.60 1.521
446.70 1.521
446.80 1.52
446.90 1.519
447.00 1.518
447.10 1.517
447.20 1.517
447.30 1.516
447.40 1.515
447.50 1.514
447.60 1.513
447.70 1.512
447.80 1.511
447.90 1.511
448.00 1.51
448.10 1.509
448.20 1.508
448.30 1.507
448.40 1.506
448.50 1.505
448.60 1.504
448.70 1.503
448.80 1.502
448.90 1.501
449.00 1.5
449.10 1.499
449.20 1.498
449.30 1.497
449.40 1.496
449.50 1.495
449.60 1.494
449.70 1.493
449.80 1.492
449.90 1.491
450.00 1.49
450.10 1.489
450.20 1.488
450.30 1.487
450.40 1.486
450.50 1.485
450.60 1.484
450.70 1.483
450.80 1.482
450.90 1.481
451.00 1.48
451.10 1.479
451.20 1.478
451.30 1.477
451.40 1.476
451.50 1.475
451.60 1.474
451.70 1.473
451.80 1.472
451.90 1.47
452.00 1.469
452.10 1.468
452.20 1.467
452.30 1.466
452.40 1.465
452.50 1.464
452.60 1.463
452.70 1.462
452.80 1.461
452.90 1.46
453.00 1.458
453.10 1.457
453.20 1.456
453.30 1.455
453.40 1.454
453.50 1.453
453.60 1.452
453.70 1.451
453.80 1.45
453.90 1.449
454.00 1.447
454.10 1.446
454.20 1.445
454.30 1.444
454.40 1.443
454.50 1.442
454.60 1.441
454.70 1.44
454.80 1.439
454.90 1.437
455.00 1.436
455.10 1.435
455.20 1.434
455.30 1.433
455.40 1.432
455.50 1.431
455.60 1.43
455.70 1.428
455.80 1.427
455.90 1.426
456.00 1.425
456.10 1.424
456.20 1.423
456.30 1.422
456.40 1.421
456.50 1.419
456.60 1.418
456.70 1.417
456.80 1.416
456.90 1.415
457.00 1.414
457.10 1.413
457.20 1.411
457.30 1.41
457.40 1.409
457.50 1.408
457.60 1.407
457.70 1.406
457.80 1.405
457.90 1.404
458.00 1.402
458.10 1.401
458.20 1.4
458.30 1.399
458.40 1.398
458.50 1.397
458.60 1.396
458.70 1.394
458.80 1.393
458.90 1.392
459.00 1.391
459.10 1.39
459.20 1.389
459.30 1.388
459.40 1.386
459.50 1.385
459.60 1.384
459.70 1.383
459.80 1.382
459.90 1.381
460.00 1.38
460.10 1.378
460.20 1.377
460.30 1.376
460.40 1.375
460.50 1.374
460.60 1.373
460.70 1.372
460.80 1.37
460.90 1.369
461.00 1.368
461.10 1.367
461.20 1.366
461.30 1.365
461.40 1.364
461.50 1.362
461.60 1.361
461.70 1.36
461.80 1.359
461.90 1.358
462.00 1.357
462.10 1.356
462.20 1.354
462.30 1.353
462.40 1.352
462.50 1.351
462.60 1.35
462.70 1.349
462.80 1.348
462.90 1.346
463.00 1.345
463.10 1.344
463.20 1.343
463.30 1.342
463.40 1.341
463.50 1.339
463.60 1.338
463.70 1.337
463.80 1.336
463.90 1.335
464.00 1.334
464.10 1.333
464.20 1.331
464.30 1.33
464.40 1.329
464.50 1.328
464.60 1.327
464.70 1.326
464.80 1.324
464.90 1.323
465.00 1.322
465.10 1.321
465.20 1.32
465.30 1.319
465.40 1.317
465.50 1.316
465.60 1.315
465.70 1.314
465.80 1.313
465.90 1.312
466.00 1.31
466.10 1.309
466.20 1.308
466.30 1.307
466.40 1.306
466.50 1.305
466.60 1.303
466.70 1.302
466.80 1.301
466.90 1.3
467.00 1.299
467.10 1.297
467.20 1.296
467.30 1.295
467.40 1.294
467.50 1.293
467.60 1.292
467.70 1.29
467.80 1.289
467.90 1.288
468.00 1.287
468.10 1.286
468.20 1.284
468.30 1.283
468.40 1.282
468.50 1.281
468.60 1.279
468.70 1.278
468.80 1.277
468.90 1.276
469.00 1.275
469.10 1.273
469.20 1.272
469.30 1.271
469.40 1.27
469.50 1.268
469.60 1.267
469.70 1.266
469.80 1.265
469.90 1.264
470.00 1.262
470.10 1.261
470.20 1.26
470.30 1.259
470.40 1.257
470.50 1.256
470.60 1.255
470.70 1.253
470.80 1.252
470.90 1.251
471.00 1.25
471.10 1.248
471.20 1.247
471.30 1.246
471.40 1.244
471.50 1.243
471.60 1.242
471.70 1.241
471.80 1.239
471.90 1.238
472.00 1.237
472.10 1.235
472.20 1.234
472.30 1.233
472.40 1.231
472.50 1.23
472.60 1.228
472.70 1.227
472.80 1.226
472.90 1.224
473.00 1.223
473.10 1.222
473.20 1.22
473.30 1.219
473.40 1.217
473.50 1.216
473.60 1.214
473.70 1.213
473.80 1.211
473.90 1.21
474.00 1.209
474.10 1.207
474.20 1.206
474.30 1.204
474.40 1.203
474.50 1.201
474.60 1.2
474.70 1.198
474.80 1.196
474.90 1.195
475.00 1.193
475.10 1.192
475.20 1.19
475.30 1.189
475.40 1.187
475.50 1.185
475.60 1.184
475.70 1.182
475.80 1.18
475.90 1.179
476.00 1.177
476.10 1.175
476.20 1.173
476.30 1.172
476.40 1.17
476.50 1.168
476.60 1.166
476.70 1.164
476.80 1.163
476.90 1.161
477.00 1.159
477.10 1.157
477.20 1.155
477.30 1.153
477.40 1.151
477.50 1.149
477.60 1.147
477.70 1.145
477.80 1.143
477.90 1.141
478.00 1.139
478.10 1.137
478.20 1.135
478.30 1.132
478.40 1.13
478.50 1.128
478.60 1.125
478.70 1.123
478.80 1.121
478.90 1.119
479.00 1.116
479.10 1.114
479.20 1.111
479.30 1.109
479.40 1.106
479.50 1.103
479.60 1.101
479.70 1.098
479.80 1.095
479.90 1.093
480.00 1.09
480.10 1.088
480.20 1.085
480.30 1.081
480.40 1.078
480.50 1.075
480.60 1.072
480.70 1.069
480.80 1.066
480.90 1.063
481.00 1.06
481.10 1.057
481.20 1.053
481.30 1.049
481.40 1.046
481.50 1.042
481.60 1.038
481.70 1.034
481.80 1.031
481.90 1.027
482.00 1.023
482.10 1.02
482.20 1.015
482.30 1.011
482.40 1.006
482.50 1.002
482.60 0.9973
482.70 0.9928
482.80 0.9884
482.90 0.9839
483.00 0.9794
483.10 0.9749
483.20 0.9697
483.30 0.9642
483.40 0.9586
483.50 0.9531
483.60 0.9476
483.70 0.942
483.80 0.9365
483.90 0.931
484.00 0.9255
484.10 0.92
484.20 0.9138
484.30 0.9072
484.40 0.9007
484.50 0.8942
484.60 0.8877
484.70 0.8806
484.80 0.8732
484.90 0.8659
485.00 0.8586
485.10 0.8512
485.20 0.8434
485.30 0.8354
485.40 0.8271
485.50 0.8188
485.60 0.8102
485.70 0.8015
485.80 0.7932
485.90 0.785
486.00 0.7794
486.10 0.7909
486.20 0.7823
486.30 0.7788
486.40 0.7851
486.50 0.792
486.60 0.7994
486.70 0.807
486.80 0.8143
486.90 0.8215
487.00 0.8284
487.10 0.8351
487.20 0.8414
487.30 0.8475
487.40 0.8535
487.50 0.8596
487.60 0.8656
487.70 0.871
487.80 0.8762
487.90 0.8813
488.00 0.8864
488.10 0.8916
488.20 0.896
488.30 0.9
488.40 0.9041
488.50 0.9081
488.60 0.9121
488.70 0.9162
488.80 0.9202
488.90 0.9242
489.00 0.9282
489.10 0.9323
489.20 0.9355
489.30 0.9384
489.40 0.9413
489.50 0.9442
489.60 0.9471
489.70 0.95
489.80 0.9529
489.90 0.9558
490.00 0.9587
490.10 0.9615
490.20 0.9638
490.30 0.9659
490.40 0.9679
490.50 0.97
490.60 0.972
490.70 0.974
490.80 0.9761
490.90 0.9781
491.00 0.9801
491.10 0.9821
491.20 0.9837
491.30 0.9851
491.40 0.9865
491.50 0.9879
491.60 0.9892
491.70 0.9906
491.80 0.992
491.90 0.9934
492.00 0.9947
492.10 0.9961
492.20 0.9971
492.30 0.998
492.40 0.9989
492.50 0.9998
492.60 1.001
492.70 1.002
492.80 1.002
492.90 1.003
493.00 1.004
493.10 1.005
493.20 1.006
493.30 1.006
493.40 1.007
493.50 1.007
493.60 1.008
493.70 1.008
493.80 1.009
493.90 1.009
494.00 1.01
494.10 1.01
494.20 1.01
494.30 1.011
494.40 1.011
494.50 1.011
494.60 1.011
494.70 1.011
494.80 1.012
494.90 1.012
495.00 1.012
495.10 1.012
495.20 1.012
495.30 1.012
495.40 1.012
495.50 1.012
495.60 1.012
495.70 1.012
495.80 1.012
495.90 1.012
496.00 1.012
496.10 1.012
496.20 1.012
496.30 1.012
496.40 1.012
496.50 1.012
496.60 1.012
496.70 1.011
496.80 1.011
496.90 1.011
497.00 1.011
497.10 1.011
497.20 1.01
497.30 1.01
497.40 1.01
497.50 1.01
497.60 1.009
497.70 1.009
497.80 1.009
497.90 1.008
498.00 1.008
498.10 1.008
498.20 1.008
498.30 1.007
498.40 1.007
498.50 1.006
498.60 1.006
498.70 1.006
498.80 1.005
498.90 1.005
499.00 1.004
499.10 1.004
499.20 1.004
499.30 1.003
499.40 1.003
499.50 1.002
499.60 1.002
499.70 1.001
499.80 1.001
499.90 1
500.00 1
500.10 0.9995
500.20 0.9991
500.30 0.9986
500.40 0.998
500.50 0.9975
500.60 0.997
500.70 0.9965
500.80 0.996
500.90 0.9955
501.00 0.995
501.10 0.9945
501.20 0.994
501.30 0.9934
501.40 0.9929
501.50 0.9923
501.60 0.9918
501.70 0.9912
501.80 0.9907
501.90 0.9901
502.00 0.9896
502.10 0.9891
502.20 0.9885
502.30 0.9879
502.40 0.9873
502.50 0.9868
502.60 0.9862
502.70 0.9856
502.80 0.985
502.90 0.9844
503.00 0.9839
503.10 0.9833
503.20 0.9827
503.30 0.9821
503.40 0.9815
503.50 0.9809
503.60 0.9803
503.70 0.9797
503.80 0.9791
503.90 0.9785
504.00 0.9779
504.10 0.9773
504.20 0.9767
504.30 0.9761
504.40 0.9755
504.50 0.9749
504.60 0.9742
504.70 0.9736
504.80 0.973
504.90 0.9724
505.00 0.9718
505.10 0.9712
505.20 0.9705
505.30 0.9699
505.40 0.9693
505.50 0.9687
505.60 0.968
505.70 0.9674
505.80 0.9668
505.90 0.9661
506.00 0.9655
506.10 0.9649
506.20 0.9643
506.30 0.9636
506.40 0.963
506.50 0.9623
506.60 0.9617
506.70 0.9611
506.80 0.9604
506.90 0.9598
507.00 0.9592
507.10 0.9585
507.20 0.9579
507.30 0.9572
507.40 0.9566
507.50 0.956
507.60 0.9553
507.70 0.9547
507.80 0.954
507.90 0.9534
508.00 0.9527
508.10 0.9521
508.20 0.9515
508.30 0.9508
508.40 0.9502
508.50 0.9495
508.60 0.9489
508.70 0.9482
508.80 0.9476
508.90 0.9469
509.00 0.9463
509.10 0.9456
509.20 0.945
509.30 0.9443
509.40 0.9437
509.50 0.943
509.60 0.9424
509.70 0.9417
509.80 0.9411
509.90 0.9404
510.00 0.9398
510.10 0.9392
510.20 0.9385
510.30 0.9379
510.40 0.9372
510.50 0.9366
510.60 0.9359
510.70 0.9353
510.80 0.9346
510.90 0.934
511.00 0.9333
511.10 0.9327
511.20 0.932
511.30 0.9314
511.40 0.9307
511.50 0.9301
511.60 0.9294
511.70 0.9288
511.80 0.9281
511.90 0.9275
512.00 0.9268
512.10 0.9262
512.20 0.9255
512.30 0.9249
512.40 0.9242
512.50 0.9236
512.60 0.9229
512.70 0.9223
512.80 0.9216
512.90 0.921
513.00 0.9203
513.10 0.9197
513.20 0.9191
513.30 0.9184
513.40 0.9178
513.50 0.9171
513.60 0.9165
513.70 0.9158
513.80 0.9152
513.90 0.9145
514.00 0.9139
514.10 0.9132
514.20 0.9126
514.30 0.912
514.40 0.9113
514.50 0.9107
514.60 0.91
514.70 0.9094
514.80 0.9087
514.90 0.9081
515.00 0.9075
515.10 0.9068
515.20 0.9062
515.30 0.9055
515.40 0.9049
515.50 0.9042
515.60 0.9036
515.70 0.903
515.80 0.9023
515.90 0.9017
516.00 0.901
516.10 0.9004
516.20 0.8998
516.30 0.8991
516.40 0.8985
516.50 0.8979
516.60 0.8972
516.70 0.8966
516.80 0.8959
516.90 0.8953
517.00 0.8947
517.10 0.894
517.20 0.8934
517.30 0.8928
517.40 0.8921
517.50 0.8915
517.60 0.8909
517.70 0.8902
517.80 0.8896
517.90 0.889
518.00 0.8883
518.10 0.8877
518.20 0.8871
518.30 0.8865
518.40 0.8858
518.50 0.8852
518.60 0.8846
518.70 0.8839
518.80 0.8833
518.90 0.8827
519.00 0.882
519.10 0.8814
519.20 0.8808
519.30 0.8802
519.40 0.8795
519.50 0.8789
519.60 0.8783
519.70 0.8777
519.80 0.877
519.90 0.8764
520.00 0.8758
520.10 0.8752
520.20 0.8745
520.30 0.8739
520.40 0.8733
520.50 0.8727
520.60 0.8721
520.70 0.8714
520.80 0.8708
520.90 0.8702
521.00 0.8696
521.10 0.869
521.20 0.8683
521.30 0.8677
521.40 0.8671
521.50 0.8665
521.60 0.8659
521.70 0.8653
521.80 0.8646
521.90 0.864
522.00 0.8634
522.10 0.8628
522.20 0.8622
522.30 0.8616
522.40 0.861
522.50 0.8603
522.60 0.8597
522.70 0.8591
522.80 0.8585
522.90 0.8579
523.00 0.8573
523.10 0.8567
523.20 0.8561
523.30 0.8555
523.40 0.8549
523.50 0.8542
523.60 0.8536
523.70 0.853
523.80 0.8524
523.90 0.8518
524.00 0.8512
524.10 0.8506
524.20 0.85
524.30 0.8494
524.40 0.8488
524.50 0.8482
524.60 0.8476
524.70 0.847
524.80 0.8464
524.90 0.8458
525.00 0.8452
525.10 0.8446
525.20 0.844
525.30 0.8434
525.40 0.8428
525.50 0.8422
525.60 0.8416
525.70 0.841
525.80 0.8404
525.90 0.8398
526.00 0.8392
526.10 0.8386
526.20 0.838
526.30 0.8374
526.40 0.8368
526.50 0.8362
526.60 0.8356
526.70 0.835
526.80 0.8344
526.90 0.8338
527.00 0.8333
527.10 0.8327
527.20 0.8321
527.30 0.8315
527.40 0.8309
527.50 0.8303
527.60 0.8297
527.70 0.8291
527.80 0.8285
527.90 0.828
528.00 0.8274
528.10 0.8268
528.20 0.8262
528.30 0.8256
528.40 0.825
528.50 0.8244
528.60 0.8239
528.70 0.8233
528.80 0.8227
528.90 0.8221
529.00 0.8215
529.10 0.8209
529.20 0.8204
529.30 0.8198
529.40 0.8192
529.50 0.8186
529.60 0.818
529.70 0.8175
529.80 0.8169
529.90 0.8163
530.00 0.8157
530.10 0.8152
530.20 0.8146
530.30 0.814
530.40 0.8134
530.50 0.8128
530.60 0.8123
530.70 0.8117
530.80 0.8111
530.90 0.8106
531.00 0.81
531.10 0.8094
531.20 0.8088
531.30 0.8083
531.40 0.8077
531.50 0.8071
531.60 0.8066
531.70 0.806
531.80 0.8054
531.90 0.8048
532.00 0.8043
532.10 0.8037
532.20 0.8031
532.30 0.8026
532.40 0.802
532.50 0.8014
532.60 0.8009
532.70 0.8003
532.80 0.7998
532.90 0.7992
533.00 0.7986
533.10 0.7981
533.20 0.7975
533.30 0.7969
533.40 0.7964
533.50 0.7958
533.60 0.7953
533.70 0.7947
533.80 0.7941
533.90 0.7936
534.00 0.793
534.10 0.7925
534.20 0.7919
534.30 0.7913
534.40 0.7908
534.50 0.7902
534.60 0.7897
534.70 0.7891
534.80 0.7886
534.90 0.788
535.00 0.7875
535.10 0.7869
535.20 0.7864
535.30 0.7858
535.40 0.7852
535.50 0.7847
535.60 0.7841
535.70 0.7836
535.80 0.783
535.90 0.7825
536.00 0.7819
536.10 0.7814
536.20 0.7808
536.30 0.7803
536.40 0.7798
536.50 0.7792
536.60 0.7787
536.70 0.7781
536.80 0.7776
536.90 0.777
537.00 0.7765
537.10 0.7759
537.20 0.7754
537.30 0.7748
537.40 0.7743
537.50 0.7738
537.60 0.7732
537.70 0.7727
537.80 0.7721
537.90 0.7716
538.00 0.7711
538.10 0.7705
538.20 0.77
538.30 0.7694
538.40 0.7689
538.50 0.7684
538.60 0.7678
538.70 0.7673
538.80 0.7668
538.90 0.7662
539.00 0.7657
539.10 0.7651
539.20 0.7646
539.30 0.7641
539.40 0.7635
539.50 0.763
539.60 0.7625
539.70 0.7619
539.80 0.7614
539.90 0.7609
540.00 0.7604
540.10 0.7598
540.20 0.7593
540.30 0.7588
540.40 0.7582
540.50 0.7577
540.60 0.7572
540.70 0.7566
540.80 0.7561
540.90 0.7556
541.00 0.7551
541.10 0.7545
541.20 0.754
541.30 0.7535
541.40 0.753
541.50 0.7524
541.60 0.7519
541.70 0.7514
541.80 0.7509
541.90 0.7503
542.00 0.7498
542.10 0.7493
542.20 0.7488
542.30 0.7483
542.40 0.7477
542.50 0.7472
542.60 0.7467
542.70 0.7462
542.80 0.7457
542.90 0.7451
543.00 0.7446
543.10 0.7441
543.20 0.7436
543.30 0.7431
543.40 0.7426
543.50 0.742
543.60 0.7415
543.70 0.741
543.80 0.7405
543.90 0.74
544.00 0.7395
544.10 0.739
544.20 0.7385
544.30 0.7379
544.40 0.7374
544.50 0.7369
544.60 0.7364
544.70 0.7359
544.80 0.7354
544.90 0.7349
545.00 0.7344
545.10 0.7339
545.20 0.7333
545.30 0.7328
545.40 0.7323
545.50 0.7318
545.60 0.7313
545.70 0.7308
545.80 0.7303
545.90 0.7298
546.00 0.7293
546.10 0.7288
546.20 0.7283
546.30 0.7278
546.40 0.7273
546.50 0.7268
546.60 0.7263
546.70 0.7258
546.80 0.7253
546.90 0.7248
547.00 0.7243
547.10 0.7238
547.20 0.7233
547.30 0.7228
547.40 0.7223
547.50 0.7218
547.60 0.7213
547.70 0.7208
547.80 0.7203
547.90 0.7198
548.00 0.7193
548.10 0.7188
548.20 0.7183
548.30 0.7178
548.40 0.7173
548.50 0.7168
548.60 0.7163
548.70 0.7158
548.80 0.7153
548.90 0.7149
549.00 0.7144
549.10 0.7139
549.20 0.7134
549.30 0.7129
549.40 0.7124
549.50 0.7119
549.60 0.7114
549.70 0.7109
549.80 0.7104
549.90 0.7099
550.00 0.7095
550.10 0.709
550.20 0.7085
550.30 0.708
550.40 0.7075
550.50 0.707
550.60 0.7065
550.70 0.7061
550.80 0.7056
550.90 0.7051
551.00 0.7046
551.10 0.7041
551.20 0.7036
551.30 0.7032
551.40 0.7027
551.50 0.7022
551.60 0.7017
551.70 0.7012
551.80 0.7008
551.90 0.7003
552.00 0.6998
552.10 0.6993
552.20 0.6988
552.30 0.6984
552.40 0.6979
552.50 0.6974
552.60 0.6969
552.70 0.6964
552.80 0.696
552.90 0.6955
553.00 0.695
553.10 0.6945
553.20 0.6941
553.30 0.6936
553.40 0.6931
553.50 0.6926
553.60 0.6922
553.70 0.6917
553.80 0.6912
553.90 0.6908
554.00 0.6903
554.10 0.6898
554.20 0.6893
554.30 0.6889
554.40 0.6884
554.50 0.6879
554.60 0.6875
554.70 0.687
554.80 0.6865
554.90 0.6861
555.00 0.6856
555.10 0.6851
555.20 0.6847
555.30 0.6842
555.40 0.6837
555.50 0.6833
555.60 0.6828
555.70 0.6823
555.80 0.6819
555.90 0.6814
556.00 0.6809
556.10 0.6805
556.20 0.68
556.30 0.6795
556.40 0.6791
556.50 0.6786
556.60 0.6782
556.70 0.6777
556.80 0.6772
556.90 0.6768
557.00 0.6763
557.10 0.6759
557.20 0.6754
557.30 0.6749
557.40 0.6745
557.50 0.674
557.60 0.6736
557.70 0.6731
557.80 0.6727
557.90 0.6722
558.00 0.6717
558.10 0.6713
558.20 0.6708
558.30 0.6704
558.40 0.6699
558.50 0.6695
558.60 0.669
558.70 0.6686
558.80 0.6681
558.90 0.6677
559.00 0.6672
559.10 0.6668
559.20 0.6663
559.30 0.6658
559.40 0.6654
559.50 0.6649
559.60 0.6645
559.70 0.664
559.80 0.6636
559.90 0.6632
560.00 0.6627
560.10 0.6623
560.20 0.6618
560.30 0.6614
560.40 0.6609
560.50 0.6605
560.60 0.66
560.70 0.6596
560.80 0.6591
560.90 0.6587
561.00 0.6582
561.10 0.6578
561.20 0.6574
561.30 0.6569
561.40 0.6565
561.50 0.656
561.60 0.6556
561.70 0.6551
561.80 0.6547
561.90 0.6543
562.00 0.6538
562.10 0.6534
562.20 0.6529
562.30 0.6525
562.40 0.6521
562.50 0.6516
562.60 0.6512
562.70 0.6507
562.80 0.6503
562.90 0.6499
563.00 0.6494
563.10 0.649
563.20 0.6485
563.30 0.6481
563.40 0.6477
563.50 0.6472
563.60 0.6468
563.70 0.6464
563.80 0.6459
563.90 0.6455
564.00 0.6451
564.10 0.6446
564.20 0.6442
564.30 0.6438
564.40 0.6433
564.50 0.6429
564.60 0.6425
564.70 0.642
564.80 0.6416
564.90 0.6412
565.00 0.6408
565.10 0.6403
565.20 0.6399
565.30 0.6395
565.40 0.639
565.50 0.6386
565.60 0.6382
565.70 0.6378
565.80 0.6373
565.90 0.6369
566.00 0.6365
566.10 0.636
566.20 0.6356
566.30 0.6352
566.40 0.6348
566.50 0.6343
566.60 0.6339
566.70 0.6335
566.80 0.6331
566.90 0.6326
567.00 0.6322
567.10 0.6318
567.20 0.6314
567.30 0.631
567.40 0.6305
567.50 0.6301
567.60 0.6297
567.70 0.6293
567.80 0.6289
567.90 0.6284
568.00 0.628
568.10 0.6276
568.20 0.6272
568.30 0.6268
568.40 0.6263
568.50 0.6259
568.60 0.6255
568.70 0.6251
568.80 0.6247
568.90 0.6243
569.00 0.6238
569.10 0.6234
569.20 0.623
569.30 0.6226
569.40 0.6222
569.50 0.6218
569.60 0.6214
569.70 0.6209
569.80 0.6205
569.90 0.6201
570.00 0.6197
570.10 0.6193
570.20 0.6189
570.30 0.6185
570.40 0.6181
570.50 0.6176
570.60 0.6172
570.70 0.6168
570.80 0.6164
570.90 0.616
571.00 0.6156
571.10 0.6152
571.20 0.6148
571.30 0.6144
571.40 0.614
571.50 0.6136
571.60 0.6131
571.70 0.6127
571.80 0.6123
571.90 0.6119
572.00 0.6115
572.10 0.6111
572.20 0.6107
572.30 0.6103
572.40 0.6099
572.50 0.6095
572.60 0.6091
572.70 0.6087
572.80 0.6083
572.90 0.6079
573.00 0.6075
573.10 0.6071
573.20 0.6067
573.30 0.6063
573.40 0.6059
573.50 0.6055
573.60 0.6051
573.70 0.6047
573.80 0.6043
573.90 0.6039
574.00 0.6035
574.10 0.6031
574.20 0.6027
574.30 0.6023
574.40 0.6019
574.50 0.6015
574.60 0.6011
574.70 0.6007
574.80 0.6003
574.90 0.5999
575.00 0.5995
575.10 0.5991
575.20 0.5987
575.30 0.5983
575.40 0.5979
575.50 0.5975
575.60 0.5971
575.70 0.5967
575.80 0.5963
575.90 0.5959
576.00 0.5956
576.10 0.5952
576.20 0.5948
576.30 0.5944
576.40 0.594
576.50 0.5936
576.60 0.5932
576.70 0.5928
576.80 0.5924
576.90 0.592
577.00 0.5916
577.10 0.5913
577.20 0.5909
577.30 0.5905
577.40 0.5901
577.50 0.5897
577.60 0.5893
577.70 0.5889
577.80 0.5885
577.90 0.5881
578.00 0.5878
578.10 0.5874
578.20 0.587
578.30 0.5866
578.40 0.5862
578.50 0.5858
578.60 0.5854
578.70 0.5851
578.80 0.5847
578.90 0.5843
579.00 0.5839
579.10 0.5835
579.20 0.5831
579.30 0.5828
579.40 0.5824
579.50 0.582
579.60 0.5816
579.70 0.5812
579.80 0.5809
579.90 0.5805
580.00 0.5801
580.10 0.5797
580.20 0.5793
580.30 0.579
580.40 0.5786
580.50 0.5782
580.60 0.5778
580.70 0.5774
580.80 0.5771
580.90 0.5767
581.00 0.5763
581.10 0.5759
581.20 0.5756
581.30 0.5752
581.40 0.5748
581.50 0.5744
581.60 0.5741
581.70 0.5737
581.80 0.5733
581.90 0.5729
582.00 0.5726
582.10 0.5722
582.20 0.5718
582.30 0.5714
582.40 0.5711
582.50 0.5707
582.60 0.5703
582.70 0.5699
582.80 0.5696
582.90 0.5692
583.00 0.5688
583.10 0.5685
583.20 0.5681
583.30 0.5677
583.40 0.5674
583.50 0.567
583.60 0.5666
583.70 0.5662
583.80 0.5659
583.90 0.5655
584.00 0.5651
584.10 0.5648
584.20 0.5644
584.30 0.564
584.40 0.5637
584.50 0.5633
584.60 0.5629
584.70 0.5626
584.80 0.5622
584.90 0.5618
585.00 0.5615
585.10 0.5611
585.20 0.5607
585.30 0.5604
585.40 0.56
585.50 0.5597
585.60 0.5593
585.70 0.5589
585.80 0.5586
585.90 0.5582
586.00 0.5578
586.10 0.5575
586.20 0.5571
586.30 0.5568
586.40 0.5564
586.50 0.556
586.60 0.5557
586.70 0.5553
586.80 0.5549
586.90 0.5546
587.00 0.5542
587.10 0.5539
587.20 0.5535
587.30 0.5532
587.40 0.5528
587.50 0.5524
587.60 0.5521
587.70 0.5517
587.80 0.5514
587.90 0.551
588.00 0.5507
588.10 0.5503
588.20 0.5499
588.30 0.5496
588.40 0.5492
588.50 0.5489
588.60 0.5485
588.70 0.5482
588.80 0.5478
588.90 0.5475
589.00 0.5471
589.10 0.5467
589.20 0.5464
589.30 0.546
589.40 0.5457
589.50 0.5453
589.60 0.545
589.70 0.5446
589.80 0.5443
589.90 0.5439
590.00 0.5436
590.10 0.5432
590.20 0.5429
590.30 0.5425
590.40 0.5422
590.50 0.5418
590.60 0.5415
590.70 0.5411
590.80 0.5408
590.90 0.5404
591.00 0.5401
591.10 0.5397
591.20 0.5394
591.30 0.539
591.40 0.5387
591.50 0.5383
591.60 0.538
591.70 0.5377
591.80 0.5373
591.90 0.537
592.00 0.5366
592.10 0.5363
592.20 0.5359
592.30 0.5356
592.40 0.5352
592.50 0.5349
592.60 0.5346
592.70 0.5342
592.80 0.5339
592.90 0.5335
593.00 0.5332
593.10 0.5328
593.20 0.5325
593.30 0.5322
593.40 0.5318
593.50 0.5315
593.60 0.5311
593.70 0.5308
593.80 0.5304
593.90 0.5301
594.00 0.5298
594.10 0.5294
594.20 0.5291
594.30 0.5287
594.40 0.5284
594.50 0.5281
594.60 0.5277
594.70 0.5274
594.80 0.5271
594.90 0.5267
595.00 0.5264
595.10 0.526
595.20 0.5257
595.30 0.5254
595.40 0.525
595.50 0.5247
595.60 0.5244
595.70 0.524
595.80 0.5237
595.90 0.5234
596.00 0.523
596.10 0.5227
596.20 0.5224
596.30 0.522
596.40 0.5217
596.50 0.5214
596.60 0.521
596.70 0.5207
596.80 0.5204
596.90 0.52
597.00 0.5197
597.10 0.5194
597.20 0.519
597.30 0.5187
597.40 0.5184
597.50 0.518
597.60 0.5177
597.70 0.5174
597.80 0.517
597.90 0.5167
598.00 0.5164
598.10 0.516
598.20 0.5157
598.30 0.5154
598.40 0.5151
598.50 0.5147
598.60 0.5144
598.70 0.5141
598.80 0.5137
598.90 0.5134
599.00 0.5131
599.10 0.5128
599.20 0.5124
599.30 0.5121
599.40 0.5118
599.50 0.5115
599.60 0.5111
599.70 0.5108
599.80 0.5105
599.90 0.5102
600.00 0.5098
600.10 0.5095
600.20 0.5092
600.30 0.5089
600.40 0.5085
600.50 0.5082
600.60 0.5079
600.70 0.5076
600.80 0.5073
600.90 0.5069
601.00 0.5066
601.10 0.5063
601.20 0.506
601.30 0.5056
601.40 0.5053
601.50 0.505
601.60 0.5047
601.70 0.5044
601.80 0.504
601.90 0.5037
602.00 0.5034
602.10 0.5031
602.20 0.5028
602.30 0.5024
602.40 0.5021
602.50 0.5018
602.60 0.5015
602.70 0.5012
602.80 0.5009
602.90 0.5005
603.00 0.5002
603.10 0.4999
603.20 0.4996
603.30 0.4993
603.40 0.4989
603.50 0.4986
603.60 0.4983
603.70 0.498
603.80 0.4977
603.90 0.4974
604.00 0.4971
604.10 0.4967
604.20 0.4964
604.30 0.4961
604.40 0.4958
604.50 0.4955
604.60 0.4952
604.70 0.4949
604.80 0.4945
604.90 0.4942
605.00 0.4939
605.10 0.4936
605.20 0.4933
605.30 0.493
605.40 0.4927
605.50 0.4924
605.60 0.492
605.70 0.4917
605.80 0.4914
605.90 0.4911
606.00 0.4908
606.10 0.4905
606.20 0.4902
606.30 0.4899
606.40 0.4896
606.50 0.4893
606.60 0.489
606.70 0.4886
606.80 0.4883
606.90 0.488
607.00 0.4877
607.10 0.4874
607.20 0.4871
607.30 0.4868
607.40 0.4865
607.50 0.4862
607.60 0.4859
607.70 0.4856
607.80 0.4853
607.90 0.485
608.00 0.4846
608.10 0.4843
608.20 0.484
608.30 0.4837
608.40 0.4834
608.50 0.4831
608.60 0.4828
608.70 0.4825
608.80 0.4822
608.90 0.4819
609.00 0.4816
609.10 0.4813
609.20 0.481
609.30 0.4807
609.40 0.4804
609.50 0.4801
609.60 0.4798
609.70 0.4795
609.80 0.4792
609.90 0.4789
610.00 0.4786
610.10 0.4783
610.20 0.478
610.30 0.4777
610.40 0.4774
610.50 0.4771
610.60 0.4768
610.70 0.4765
610.80 0.4762
610.90 0.4759
611.00 0.4756
611.10 0.4753
611.20 0.475
611.30 0.4747
611.40 0.4744
611.50 0.4741
611.60 0.4738
611.70 0.4735
611.80 0.4732
611.90 0.4729
612.00 0.4726
612.10 0.4723
612.20 0.472
612.30 0.4717
612.40 0.4714
612.50 0.4711
612.60 0.4708
612.70 0.4705
612.80 0.4702
612.90 0.4699
613.00 0.4696
613.10 0.4694
613.20 0.4691
613.30 0.4688
613.40 0.4685
613.50 0.4682
613.60 0.4679
613.70 0.4676
613.80 0.4673
613.90 0.467
614.00 0.4667
614.10 0.4664
614.20 0.4661
614.30 0.4658
614.40 0.4655
614.50 0.4652
614.60 0.465
614.70 0.4647
614.80 0.4644
614.90 0.4641
615.00 0.4638
615.10 0.4635
615.20 0.4632
615.30 0.4629
615.40 0.4626
615.50 0.4623
615.60 0.462
615.70 0.4618
615.80 0.4615
615.90 0.4612
616.00 0.4609
616.10 0.4606
616.20 0.4603
616.30 0.46
616.40 0.4597
616.50 0.4594
616.60 0.4592
616.70 0.4589
616.80 0.4586
616.90 0.4583
617.00 0.458
617.10 0.4577
617.20 0.4574
617.30 0.4572
617.40 0.4569
617.50 0.4566
617.60 0.4563
617.70 0.456
617.80 0.4557
617.90 0.4554
618.00 0.4552
618.10 0.4549
618.20 0.4546
618.30 0.4543
618.40 0.454
618.50 0.4537
618.60 0.4534
618.70 0.4532
618.80 0.4529
618.90 0.4526
619.00 0.4523
619.10 0.452
619.20 0.4517
619.30 0.4515
619.40 0.4512
619.50 0.4509
619.60 0.4506
619.70 0.4503
619.80 0.45
619.90 0.4498
620.00 0.4495
620.10 0.4492
620.20 0.4489
620.30 0.4486
620.40 0.4484
620.50 0.4481
620.60 0.4478
620.70 0.4475
620.80 0.4472
620.90 0.447
621.00 0.4467
621.10 0.4464
621.20 0.4461
621.30 0.4458
621.40 0.4456
621.50 0.4453
621.60 0.445
621.70 0.4447
621.80 0.4444
621.90 0.4442
622.00 0.4439
622.10 0.4436
622.20 0.4433
622.30 0.4431
622.40 0.4428
622.50 0.4425
622.60 0.4422
622.70 0.4419
622.80 0.4417
622.90 0.4414
623.00 0.4411
623.10 0.4408
623.20 0.4406
623.30 0.4403
623.40 0.44
623.50 0.4397
623.60 0.4395
623.70 0.4392
623.80 0.4389
623.90 0.4386
624.00 0.4383
624.10 0.4381
624.20 0.4378
624.30 0.4375
624.40 0.4372
624.50 0.437
624.60 0.4367
624.70 0.4364
624.80 0.4362
624.90 0.4359
625.00 0.4356
625.10 0.4353
625.20 0.4351
625.30 0.4348
625.40 0.4345
625.50 0.4342
625.60 0.434
625.70 0.4337
625.80 0.4334
625.90 0.4331
626.00 0.4329
626.10 0.4326
626.20 0.4323
626.30 0.432
626.40 0.4318
626.50 0.4315
626.60 0.4312
626.70 0.431
626.80 0.4307
626.90 0.4304
627.00 0.4301
627.10 0.4299
627.20 0.4296
627.30 0.4293
627.40 0.4291
627.50 0.4288
627.60 0.4285
627.70 0.4282
627.80 0.428
627.90 0.4277
628.00 0.4274
628.10 0.4272
628.20 0.4269
628.30 0.4266
628.40 0.4263
628.50 0.4261
628.60 0.4258
628.70 0.4255
628.80 0.4253
628.90 0.425
629.00 0.4247
629.10 0.4245
629.20 0.4242
629.30 0.4239
629.40 0.4236
629.50 0.4234
629.60 0.4231
629.70 0.4228
629.80 0.4226
629.90 0.4223
630.00 0.422
630.10 0.4218
630.20 0.4215
630.30 0.4212
630.40 0.4209
630.50 0.4207
630.60 0.4204
630.70 0.4201
630.80 0.4199
630.90 0.4196
631.00 0.4193
631.10 0.4191
631.20 0.4188
631.30 0.4185
631.40 0.4182
631.50 0.418
631.60 0.4177
631.70 0.4174
631.80 0.4172
631.90 0.4169
632.00 0.4166
632.10 0.4164
632.20 0.4161
632.30 0.4158
632.40 0.4156
632.50 0.4153
632.60 0.415
632.70 0.4147
632.80 0.4145
632.90 0.4142
633.00 0.4139
633.10 0.4137
633.20 0.4134
633.30 0.4131
633.40 0.4129
633.50 0.4126
633.60 0.4123
633.70 0.412
633.80 0.4118
633.90 0.4115
634.00 0.4112
634.10 0.411
634.20 0.4107
634.30 0.4104
634.40 0.4101
634.50 0.4099
634.60 0.4096
634.70 0.4093
634.80 0.4091
634.90 0.4088
635.00 0.4085
635.10 0.4082
635.20 0.408
635.30 0.4077
635.40 0.4074
635.50 0.4071
635.60 0.4069
635.70 0.4066
635.80 0.4063
635.90 0.4061
636.00 0.4058
636.10 0.4055
636.20 0.4052
636.30 0.405
636.40 0.4047
636.50 0.4044
636.60 0.4041
636.70 0.4039
636.80 0.4036
636.90 0.4033
637.00 0.403
637.10 0.4028
637.20 0.4025
637.30 0.4022
637.40 0.4019
637.50 0.4016
637.60 0.4014
637.70 0.4011
637.80 0.4008
637.90 0.4005
638.00 0.4002
638.10 0.4
638.20 0.3997
638.30 0.3994
638.40 0.3991
638.50 0.3988
638.60 0.3985
638.70 0.3983
638.80 0.398
638.90 0.3977
639.00 0.3974
639.10 0.3971
639.20 0.3968
639.30 0.3966
639.40 0.3963
639.50 0.396
639.60 0.3957
639.70 0.3954
639.80 0.3951
639.90 0.3948
640.00 0.3945
640.10 0.3942
640.20 0.3939
640.30 0.3936
640.40 0.3933
640.50 0.393
640.60 0.3927
640.70 0.3924
640.80 0.3921
640.90 0.3919
641.00 0.3916
641.10 0.3913
641.20 0.391
641.30 0.3907
641.40 0.3903
641.50 0.39
641.60 0.3897
641.70 0.3894
641.80 0.3891
641.90 0.3888
642.00 0.3885
642.10 0.3882
642.20 0.3879
642.30 0.3876
642.40 0.3872
642.50 0.3869
642.60 0.3866
642.70 0.3863
642.80 0.3859
642.90 0.3856
643.00 0.3853
643.10 0.385
643.20 0.3847
643.30 0.3843
643.40 0.384
643.50 0.3836
643.60 0.3833
643.70 0.383
643.80 0.3826
643.90 0.3823
644.00 0.3819
644.10 0.3816
644.20 0.3813
644.30 0.3809
644.40 0.3806
644.50 0.3802
644.60 0.3798
644.70 0.3795
644.80 0.3791
644.90 0.3787
645.00 0.3784
645.10 0.378
645.20 0.3776
645.30 0.3773
645.40 0.3769
645.50 0.3765
645.60 0.3761
645.70 0.3757
645.80 0.3753
645.90 0.3749
646.00 0.3745
646.10 0.3741
646.20 0.3737
646.30 0.3733
646.40 0.3729
646.50 0.3725
646.60 0.372
646.70 0.3716
646.80 0.3712
646.90 0.3707
647.00 0.3703
647.10 0.3699
647.20 0.3694
647.30 0.369
647.40 0.3685
647.50 0.368
647.60 0.3676
647.70 0.3671
647.80 0.3666
647.90 0.3661
648.00 0.3656
648.10 0.3651
648.20 0.3647
648.30 0.3642
648.40 0.3636
648.50 0.3631
648.60 0.3625
648.70 0.362
648.80 0.3614
648.90 0.3609
649.00 0.3603
649.10 0.3598
649.20 0.3592
649.30 0.3586
649.40 0.358
649.50 0.3574
649.60 0.3567
649.70 0.3561
649.80 0.3554
649.90 0.3548
650.00 0.3542
650.10 0.3535
650.20 0.3529
650.30 0.3522
650.40 0.3515
650.50 0.3507
650.60 0.3499
650.70 0.3492
650.80 0.3484
650.90 0.3477
651.00 0.3469
651.10 0.3462
651.20 0.3454
651.30 0.3446
651.40 0.3437
651.50 0.3428
651.60 0.3419
651.70 0.341
651.80 0.3401
651.90 0.3391
652.00 0.3382
652.10 0.3373
652.20 0.3364
652.30 0.3355
652.40 0.3343
652.50 0.3332
652.60 0.3321
652.70 0.331
652.80 0.3298
652.90 0.3287
653.00 0.3276
653.10 0.3265
653.20 0.3254
653.30 0.3242
653.40 0.3228
653.50 0.3214
653.60 0.32
653.70 0.3186
653.80 0.3172
653.90 0.3158
654.00 0.3144
654.10 0.313
654.20 0.3116
654.30 0.3102
654.40 0.3085
654.50 0.3069
654.60 0.3052
654.70 0.3036
654.80 0.3019
654.90 0.3
655.00 0.2981
655.10 0.2962
655.20 0.2944
655.30 0.2925
655.40 0.2904
655.50 0.2883
655.60 0.2862
655.70 0.284
655.80 0.2818
655.90 0.2795
656.00 0.2772
656.10 0.2748
656.20 0.2735
656.30 0.279
656.40 0.2732
656.50 0.2751
656.60 0.2771
656.70 0.2791
656.80 0.2811
656.90 0.283
657.00 0.2848
657.10 0.2866
657.20 0.2883
657.30 0.29
657.40 0.2916
657.50 0.2931
657.60 0.2946
657.70 0.2962
657.80 0.2976
657.90 0.299
658.00 0.3003
658.10 0.3016
658.20 0.3029
658.30 0.3041
658.40 0.3051
658.50 0.3062
658.60 0.3072
658.70 0.3082
658.80 0.3092
658.90 0.3102
659.00 0.3112
659.10 0.3123
659.20 0.3133
659.30 0.3142
659.40 0.315
659.50 0.3157
659.60 0.3164
659.70 0.3171
659.80 0.3179
659.90 0.3186
660.00 0.3193
660.10 0.32
660.20 0.3208
660.30 0.3214
660.40 0.322
660.50 0.3225
660.60 0.323
660.70 0.3235
660.80 0.324
660.90 0.3245
661.00 0.325
661.10 0.3255
661.20 0.326
661.30 0.3264
661.40 0.3268
661.50 0.3271
661.60 0.3275
661.70 0.3278
661.80 0.3281
661.90 0.3285
662.00 0.3288
662.10 0.3291
662.20 0.3295
662.30 0.3298
662.40 0.33
662.50 0.3302
662.60 0.3304
662.70 0.3306
662.80 0.3308
662.90 0.331
663.00 0.3313
663.10 0.3315
663.20 0.3317
663.30 0.3319
663.40 0.332
663.50 0.3321
663.60 0.3322
663.70 0.3323
663.80 0.3325
663.90 0.3326
664.00 0.3327
664.10 0.3328
664.20 0.3329
664.30 0.333
664.40 0.3331
664.50 0.3331
664.60 0.3332
664.70 0.3332
664.80 0.3333
664.90 0.3333
665.00 0.3334
665.10 0.3334
665.20 0.3335
665.30 0.3335
665.40 0.3335
665.50 0.3335
665.60 0.3335
665.70 0.3335
665.80 0.3335
665.90 0.3335
666.00 0.3335
666.10 0.3335
666.20 0.3335
666.30 0.3335
666.40 0.3334
666.50 0.3334
666.60 0.3333
666.70 0.3333
666.80 0.3332
666.90 0.3332
667.00 0.3332
667.10 0.3331
667.20 0.3331
667.30 0.333
667.40 0.3329
667.50 0.3329
667.60 0.3328
667.70 0.3327
667.80 0.3327
667.90 0.3326
668.00 0.3325
668.10 0.3324
668.20 0.3324
668.30 0.3323
668.40 0.3322
668.50 0.3321
668.60 0.332
668.70 0.3319
668.80 0.3318
668.90 0.3317
669.00 0.3316
669.10 0.3315
669.20 0.3314
669.30 0.3313
669.40 0.3312
669.50 0.3311
669.60 0.331
669.70 0.3309
669.80 0.3307
669.90 0.3306
670.00 0.3305
670.10 0.3304
670.20 0.3303
670.30 0.3302
670.40 0.3301
670.50 0.3299
670.60 0.3298
670.70 0.3297
670.80 0.3295
670.90 0.3294
671.00 0.3293
671.10 0.3292
671.20 0.329
671.30 0.3289
671.40 0.3288
671.50 0.3286
671.60 0.3285
671.70 0.3284
671.80 0.3282
671.90 0.3281
672.00 0.328
672.10 0.3278
672.20 0.3277
672.30 0.3275
672.40 0.3274
672.50 0.3273
672.60 0.3271
672.70 0.327
672.80 0.3268
672.90 0.3267
673.00 0.3265
673.10 0.3264
673.20 0.3262
673.30 0.3261
673.40 0.326
673.50 0.3258
673.60 0.3257
673.70 0.3255
673.80 0.3254
673.90 0.3252
674.00 0.3251
674.10 0.3249
674.20 0.3248
674.30 0.3246
674.40 0.3244
674.50 0.3243
674.60 0.3241
674.70 0.324
674.80 0.3238
674.90 0.3237
675.00 0.3235
675.10 0.3234
675.20 0.3232
675.30 0.3231
675.40 0.3229
675.50 0.3227
675.60 0.3226
675.70 0.3224
675.80 0.3223
675.90 0.3221
676.00 0.3219
676.10 0.3218
676.20 0.3216
676.30 0.3215
676.40 0.3213
676.50 0.3212
676.60 0.321
676.70 0.3208
676.80 0.3207
676.90 0.3205
677.00 0.3204
677.10 0.3202
677.20 0.32
677.30 0.3199
677.40 0.3197
677.50 0.3195
677.60 0.3194
677.70 0.3192
677.80 0.3191
677.90 0.3189
678.00 0.3187
678.10 0.3186
678.20 0.3184
678.30 0.3182
678.40 0.3181
678.50 0.3179
678.60 0.3178
678.70 0.3176
678.80 0.3174
678.90 0.3173
679.00 0.3171
679.10 0.3169
679.20 0.3168
679.30 0.3166
679.40 0.3164
679.50 0.3163
679.60 0.3161
679.70 0.316
679.80 0.3158
679.90 0.3156
680.00 0.3155
680.10 0.3153
680.20 0.3151
680.30 0.315
680.40 0.3148
680.50 0.3146
680.60 0.3145
680.70 0.3143
680.80 0.3141
680.90 0.314
681.00 0.3138
681.10 0.3136
681.20 0.3135
681.30 0.3133
681.40 0.3131
681.50 0.313
681.60 0.3128
681.70 0.3127
681.80 0.3125
681.90 0.3123
682.00 0.3122
682.10 0.312
682.20 0.3118
682.30 0.3117
682.40 0.3115
682.50 0.3113
682.60 0.3112
682.70 0.311
682.80 0.3108
682.90 0.3107
683.00 0.3105
683.10 0.3103
683.20 0.3102
683.30 0.31
683.40 0.3098
683.50 0.3097
683.60 0.3095
683.70 0.3093
683.80 0.3092
683.90 0.309
684.00 0.3088
684.10 0.3087
684.20 0.3085
684.30 0.3084
684.40 0.3082
684.50 0.308
684.60 0.3079
684.70 0.3077
684.80 0.3075
684.90 0.3074
685.00 0.3072
685.10 0.307
685.20 0.3069
685.30 0.3067
685.40 0.3065
685.50 0.3064
685.60 0.3062
685.70 0.306
685.80 0.3059
685.90 0.3057
686.00 0.3055
686.10 0.3054
686.20 0.3052
686.30 0.3051
686.40 0.3049
686.50 0.3047
686.60 0.3046
686.70 0.3044
686.80 0.3042
686.90 0.3041
687.00 0.3039
687.10 0.3037
687.20 0.3036
687.30 0.3034
687.40 0.3032
687.50 0.3031
687.60 0.3029
687.70 0.3028
687.80 0.3026
687.90 0.3024
688.00 0.3023
688.10 0.3021
688.20 0.3019
688.30 0.3018
688.40 0.3016
688.50 0.3014
688.60 0.3013
688.70 0.3011
688.80 0.301
688.90 0.3008
689.00 0.3006
689.10 0.3005
689.20 0.3003
689.30 0.3001
689.40 0.3
689.50 0.2998
689.60 0.2997
689.70 0.2995
689.80 0.2993
689.90 0.2992
690.00 0.299
690.10 0.2988
690.20 0.2987
690.30 0.2985
690.40 0.2984
690.50 0.2982
690.60 0.298
690.70 0.2979
690.80 0.2977
690.90 0.2976
691.00 0.2974
691.10 0.2972
691.20 0.2971
691.30 0.2969
691.40 0.2967
691.50 0.2966
691.60 0.2964
691.70 0.2963
691.80 0.2961
691.90 0.2959
692.00 0.2958
692.10 0.2956
692.20 0.2955
692.30 0.2953
692.40 0.2951
692.50 0.295
692.60 0.2948
692.70 0.2947
692.80 0.2945
692.90 0.2943
693.00 0.2942
693.10 0.294
693.20 0.2939
693.30 0.2937
693.40 0.2935
693.50 0.2934
693.60 0.2932
693.70 0.2931
693.80 0.2929
693.90 0.2927
694.00 0.2926
694.10 0.2924
694.20 0.2923
694.30 0.2921
694.40 0.292
694.50 0.2918
694.60 0.2916
694.70 0.2915
694.80 0.2913
694.90 0.2912
695.00 0.291
695.10 0.2908
695.20 0.2907
695.30 0.2905
695.40 0.2904
695.50 0.2902
695.60 0.2901
695.70 0.2899
695.80 0.2897
695.90 0.2896
696.00 0.2894
696.10 0.2893
696.20 0.2891
696.30 0.289
696.40 0.2888
696.50 0.2886
696.60 0.2885
696.70 0.2883
696.80 0.2882
696.90 0.288
697.00 0.2879
697.10 0.2877
697.20 0.2875
697.30 0.2874
697.40 0.2872
697.50 0.2871
697.60 0.2869
697.70 0.2868
697.80 0.2866
697.90 0.2865
698.00 0.2863
698.10 0.2861
698.20 0.286
698.30 0.2858
698.40 0.2857
698.50 0.2855
698.60 0.2854
698.70 0.2852
698.80 0.2851
698.90 0.2849
699.00 0.2848
699.10 0.2846
699.20 0.2844
699.30 0.2843
699.40 0.2841
699.50 0.284
699.60 0.2838
699.70 0.2837
699.80 0.2835
699.90 0.2834
700.00 0.2832
700.10 0.2831
700.20 0.2829
700.30 0.2828
700.40 0.2826
700.50 0.2824
700.60 0.2823
700.70 0.2821
700.80 0.282
700.90 0.2818
701.00 0.2817
701.10 0.2815
701.20 0.2814
701.30 0.2812
701.40 0.2811
701.50 0.2809
701.60 0.2808
701.70 0.2806
701.80 0.2805
701.90 0.2803
702.00 0.2802
702.10 0.28
702.20 0.2799
702.30 0.2797
702.40 0.2796
702.50 0.2794
702.60 0.2793
702.70 0.2791
702.80 0.279
702.90 0.2788
703.00 0.2787
703.10 0.2785
703.20 0.2784
703.30 0.2782
703.40 0.2781
703.50 0.2779
703.60 0.2778
703.70 0.2776
703.80 0.2775
703.90 0.2773
704.00 0.2772
704.10 0.277
704.20 0.2769
704.30 0.2767
704.40 0.2766
704.50 0.2764
704.60 0.2763
704.70 0.2761
704.80 0.276
704.90 0.2758
705.00 0.2757
705.10 0.2755
705.20 0.2754
705.30 0.2752
705.40 0.2751
705.50 0.2749
705.60 0.2748
705.70 0.2746
705.80 0.2745
705.90 0.2743
706.00 0.2742
706.10 0.274
706.20 0.2739
706.30 0.2737
706.40 0.2736
706.50 0.2734
706.60 0.2733
706.70 0.2731
706.80 0.273
706.90 0.2729
707.00 0.2727
707.10 0.2726
707.20 0.2724
707.30 0.2723
707.40 0.2721
707.50 0.272
707.60 0.2718
707.70 0.2717
707.80 0.2715
707.90 0.2714
708.00 0.2712
708.10 0.2711
708.20 0.2709
708.30 0.2708
708.40 0.2707
708.50 0.2705
708.60 0.2704
708.70 0.2702
708.80 0.2701
708.90 0.2699
709.00 0.2698
709.10 0.2696
709.20 0.2695
709.30 0.2693
709.40 0.2692
709.50 0.2691
709.60 0.2689
709.70 0.2688
709.80 0.2686
709.90 0.2685
710.00 0.2683
710.10 0.2682
710.20 0.268
710.30 0.2679
710.40 0.2678
710.50 0.2676
710.60 0.2675
710.70 0.2673
710.80 0.2672
710.90 0.267
711.00 0.2669
711.10 0.2668
711.20 0.2666
711.30 0.2665
711.40 0.2663
711.50 0.2662
711.60 0.266
711.70 0.2659
711.80 0.2658
711.90 0.2656
712.00 0.2655
712.10 0.2653
712.20 0.2652
712.30 0.265
712.40 0.2649
712.50 0.2648
712.60 0.2646
712.70 0.2645
712.80 0.2643
712.90 0.2642
713.00 0.2641
713.10 0.2639
713.20 0.2638
713.30 0.2636
713.40 0.2635
713.50 0.2633
713.60 0.2632
713.70 0.2631
713.80 0.2629
713.90 0.2628
714.00 0.2626
714.10 0.2625
714.20 0.2624
714.30 0.2622
714.40 0.2621
714.50 0.2619
714.60 0.2618
714.70 0.2617
714.80 0.2615
714.90 0.2614
715.00 0.2612
715.10 0.2611
715.20 0.261
715.30 0.2608
715.40 0.2607
715.50 0.2605
715.60 0.2604
715.70 0.2603
715.80 0.2601
715.90 0.26
716.00 0.2599
716.10 0.2597
716.20 0.2596
716.30 0.2594
716.40 0.2593
716.50 0.2592
716.60 0.259
716.70 0.2589
716.80 0.2587
716.90 0.2586
717.00 0.2585
717.10 0.2583
717.20 0.2582
717.30 0.2581
717.40 0.2579
717.50 0.2578
717.60 0.2576
717.70 0.2575
717.80 0.2574
717.90 0.2572
718.00 0.2571
718.10 0.257
718.20 0.2568
718.30 0.2567
718.40 0.2566
718.50 0.2564
718.60 0.2563
718.70 0.2561
718.80 0.256
718.90 0.2559
719.00 0.2557
719.10 0.2556
719.20 0.2555
719.30 0.2553
719.40 0.2552
719.50 0.2551
719.60 0.2549
719.70 0.2548
719.80 0.2546
719.90 0.2545
720.00 0.2544
720.10 0.2542
720.20 0.2541
720.30 0.254
720.40 0.2538
720.50 0.2537
720.60 0.2536
720.70 0.2534
720.80 0.2533
720.90 0.2532
721.00 0.253
721.10 0.2529
721.20 0.2528
721.30 0.2526
721.40 0.2525
721.50 0.2524
721.60 0.2522
721.70 0.2521
721.80 0.252
721.90 0.2518
722.00 0.2517
722.10 0.2516
722.20 0.2514
722.30 0.2513
722.40 0.2512
722.50 0.251
722.60 0.2509
722.70 0.2508
722.80 0.2506
722.90 0.2505
723.00 0.2504
723.10 0.2502
723.20 0.2501
723.30 0.25
723.40 0.2498
723.50 0.2497
723.60 0.2496
723.70 0.2494
723.80 0.2493
723.90 0.2492
724.00 0.249
724.10 0.2489
724.20 0.2488
724.30 0.2487
724.40 0.2485
724.50 0.2484
724.60 0.2483
724.70 0.2481
724.80 0.248
724.90 0.2479
725.00 0.2477
725.10 0.2476
725.20 0.2475
725.30 0.2473
725.40 0.2472
725.50 0.2471
725.60 0.247
725.70 0.2468
725.80 0.2467
725.90 0.2466
726.00 0.2464
726.10 0.2463
726.20 0.2462
726.30 0.246
726.40 0.2459
726.50 0.2458
726.60 0.2457
726.70 0.2455
726.80 0.2454
726.90 0.2453
727.00 0.2451
727.10 0.245
727.20 0.2449
727.30 0.2448
727.40 0.2446
727.50 0.2445
727.60 0.2444
727.70 0.2442
727.80 0.2441
727.90 0.244
728.00 0.2439
728.10 0.2437
728.20 0.2436
728.30 0.2435
728.40 0.2433
728.50 0.2432
728.60 0.2431
728.70 0.243
728.80 0.2428
728.90 0.2427
729.00 0.2426
729.10 0.2424
729.20 0.2423
729.30 0.2422
729.40 0.2421
729.50 0.2419
729.60 0.2418
729.70 0.2417
729.80 0.2416
729.90 0.2414
730.00 0.2413
730.10 0.2412
730.20 0.241
730.30 0.2409
730.40 0.2408
730.50 0.2407
730.60 0.2405
730.70 0.2404
730.80 0.2403
730.90 0.2402
731.00 0.24
731.10 0.2399
731.20 0.2398
731.30 0.2397
731.40 0.2395
731.50 0.2394
731.60 0.2393
731.70 0.2392
731.80 0.239
731.90 0.2389
732.00 0.2388
732.10 0.2387
732.20 0.2386
732.30 0.2384
732.40 0.2383
732.50 0.2382
732.60 0.2381
732.70 0.2379
732.80 0.2378
732.90 0.2377
733.00 0.2376
733.10 0.2374
733.20 0.2373
733.30 0.2372
733.40 0.2371
733.50 0.2369
733.60 0.2368
733.70 0.2367
733.80 0.2366
733.90 0.2365
734.00 0.2363
734.10 0.2362
734.20 0.2361
734.30 0.236
734.40 0.2358
734.50 0.2357
734.60 0.2356
734.70 0.2355
734.80 0.2353
734.90 0.2352
735.00 0.2351
735.10 0.235
735.20 0.2349
735.30 0.2347
735.40 0.2346
735.50 0.2345
735.60 0.2344
735.70 0.2342
735.80 0.2341
735.90 0.234
736.00 0.2339
736.10 0.2338
736.20 0.2336
736.30 0.2335
736.40 0.2334
736.50 0.2333
736.60 0.2331
736.70 0.233
736.80 0.2329
736.90 0.2328
737.00 0.2327
737.10 0.2325
737.20 0.2324
737.30 0.2323
737.40 0.2322
737.50 0.2321
737.60 0.2319
737.70 0.2318
737.80 0.2317
737.90 0.2316
738.00 0.2314
738.10 0.2313
738.20 0.2312
738.30 0.2311
738.40 0.231
738.50 0.2308
738.60 0.2307
738.70 0.2306
738.80 0.2305
738.90 0.2304
739.00 0.2302
739.10 0.2301
739.20 0.23
739.30 0.2299
739.40 0.2298
739.50 0.2296
739.60 0.2295
739.70 0.2294
739.80 0.2293
739.90 0.2292
740.00 0.229
740.10 0.2289
740.20 0.2288
740.30 0.2287
740.40 0.2286
740.50 0.2285
740.60 0.2283
740.70 0.2282
740.80 0.2281
740.90 0.228
741.00 0.2279
741.10 0.2278
741.20 0.2276
741.30 0.2275
741.40 0.2274
741.50 0.2273
741.60 0.2272
741.70 0.2271
741.80 0.2269
741.90 0.2268
742.00 0.2267
742.10 0.2266
742.20 0.2265
742.30 0.2264
742.40 0.2262
742.50 0.2261
742.60 0.226
742.70 0.2259
742.80 0.2258
742.90 0.2257
743.00 0.2255
743.10 0.2254
743.20 0.2253
743.30 0.2252
743.40 0.2251
743.50 0.225
743.60 0.2248
743.70 0.2247
743.80 0.2246
743.90 0.2245
744.00 0.2244
744.10 0.2243
744.20 0.2242
744.30 0.224
744.40 0.2239
744.50 0.2238
744.60 0.2237
744.70 0.2236
744.80 0.2235
744.90 0.2233
745.00 0.2232
745.10 0.2231
745.20 0.223
745.30 0.2229
745.40 0.2228
745.50 0.2227
745.60 0.2225
745.70 0.2224
745.80 0.2223
745.90 0.2222
746.00 0.2221
746.10 0.222
746.20 0.2219
746.30 0.2217
746.40 0.2216
746.50 0.2215
746.60 0.2214
746.70 0.2213
746.80 0.2212
746.90 0.2211
747.00 0.2209
747.10 0.2208
747.20 0.2207
747.30 0.2206
747.40 0.2205
747.50 0.2204
747.60 0.2203
747.70 0.2201
747.80 0.22
747.90 0.2199
748.00 0.2198
748.10 0.2197
748.20 0.2196
748.30 0.2195
748.40 0.2194
748.50 0.2192
748.60 0.2191
748.70 0.219
748.80 0.2189
748.90 0.2188
749.00 0.2187
749.10 0.2186
749.20 0.2185
749.30 0.2183
749.40 0.2182
749.50 0.2181
749.60 0.218
749.70 0.2179
749.80 0.2178
749.90 0.2177
750.00 0.2176
750.10 0.2174
750.20 0.2173
750.30 0.2172
750.40 0.2171
750.50 0.217
750.60 0.2169
750.70 0.2168
750.80 0.2167
750.90 0.2166
751.00 0.2165
751.10 0.2163
751.20 0.2162
751.30 0.2161
751.40 0.216
751.50 0.2159
751.60 0.2158
751.70 0.2157
751.80 0.2156
751.90 0.2155
752.00 0.2154
752.10 0.2152
752.20 0.2151
752.30 0.215
752.40 0.2149
752.50 0.2148
752.60 0.2147
752.70 0.2146
752.80 0.2145
752.90 0.2144
753.00 0.2143
753.10 0.2142
753.20 0.214
753.30 0.2139
753.40 0.2138
753.50 0.2137
753.60 0.2136
753.70 0.2135
753.80 0.2134
753.90 0.2133
754.00 0.2132
754.10 0.2131
754.20 0.213
754.30 0.2129
754.40 0.2127
754.50 0.2126
754.60 0.2125
754.70 0.2124
754.80 0.2123
754.90 0.2122
755.00 0.2121
755.10 0.212
755.20 0.2119
755.30 0.2118
755.40 0.2117
755.50 0.2116
755.60 0.2115
755.70 0.2113
755.80 0.2112
755.90 0.2111
756.00 0.211
756.10 0.2109
756.20 0.2108
756.30 0.2107
756.40 0.2106
756.50 0.2105
756.60 0.2104
756.70 0.2103
756.80 0.2102
756.90 0.2101
757.00 0.21
757.10 0.2098
757.20 0.2097
757.30 0.2096
757.40 0.2095
757.50 0.2094
757.60 0.2093
757.70 0.2092
757.80 0.2091
757.90 0.209
758.00 0.2089
758.10 0.2088
758.20 0.2087
758.30 0.2086
758.40 0.2085
758.50 0.2084
758.60 0.2082
758.70 0.2081
758.80 0.208
758.90 0.2079
759.00 0.2078
759.10 0.2077
759.20 0.2076
759.30 0.2075
759.40 0.2074
759.50 0.2073
759.60 0.2072
759.70 0.2071
759.80 0.207
759.90 0.2069
760.00 0.2068
760.10 0.2067
760.20 0.2066
760.30 0.2065
760.40 0.2064
760.50 0.2063
760.60 0.2061
760.70 0.206
760.80 0.2059
760.90 0.2058
761.00 0.2057
761.10 0.2056
761.20 0.2055
761.30 0.2054
761.40 0.2053
761.50 0.2052
761.60 0.2051
761.70 0.205
761.80 0.2049
761.90 0.2048
762.00 0.2047
762.10 0.2046
762.20 0.2045
762.30 0.2044
762.40 0.2043
762.50 0.2042
762.60 0.2041
762.70 0.204
762.80 0.2039
762.90 0.2038
763.00 0.2037
763.10 0.2036
763.20 0.2035
763.30 0.2034
763.40 0.2033
763.50 0.2032
763.60 0.2031
763.70 0.203
763.80 0.2029
763.90 0.2028
764.00 0.2027
764.10 0.2026
764.20 0.2025
764.30 0.2024
764.40 0.2023
764.50 0.2022
764.60 0.2021
764.70 0.202
764.80 0.2019
764.90 0.2018
765.00 0.2017
765.10 0.2015
765.20 0.2014
765.30 0.2013
765.40 0.2012
765.50 0.2011
765.60 0.201
765.70 0.2009
765.80 0.2008
765.90 0.2007
766.00 0.2006
766.10 0.2005
766.20 0.2004
766.30 0.2003
766.40 0.2002
766.50 0.2001
766.60 0.2
766.70 0.1999
766.80 0.1998
766.90 0.1997
767.00 0.1996
767.10 0.1995
767.20 0.1994
767.30 0.1993
767.40 0.1992
767.50 0.1991
767.60 0.199
767.70 0.1989
767.80 0.1988
767.90 0.1987
768.00 0.1986
768.10 0.1985
768.20 0.1984
768.30 0.1983
768.40 0.1982
768.50 0.1981
768.60 0.198
768.70 0.1979
768.80 0.1978
768.90 0.1977
769.00 0.1976
769.10 0.1975
769.20 0.1974
769.30 0.1973
769.40 0.1972
769.50 0.1971
769.60 0.197
769.70 0.1969
769.80 0.1968
769.90 0.1967
770.00 0.1966
770.10 0.1965
770.20 0.1965
770.30 0.1964
770.40 0.1963
770.50 0.1962
770.60 0.1961
770.70 0.196
770.80 0.1959
770.90 0.1958
771.00 0.1957
771.10 0.1956
771.20 0.1955
771.30 0.1954
771.40 0.1953
771.50 0.1952
771.60 0.1951
771.70 0.195
771.80 0.1949
771.90 0.1948
772.00 0.1947
772.10 0.1946
772.20 0.1945
772.30 0.1944
772.40 0.1943
772.50 0.1942
772.60 0.1941
772.70 0.194
772.80 0.1939
772.90 0.1938
773.00 0.1937
773.10 0.1937
773.20 0.1936
773.30 0.1935
773.40 0.1934
773.50 0.1933
773.60 0.1932
773.70 0.1931
773.80 0.193
773.90 0.1929
774.00 0.1928
774.10 0.1927
774.20 0.1926
774.30 0.1925
774.40 0.1924
774.50 0.1923
774.60 0.1922
774.70 0.1921
774.80 0.192
774.90 0.1919
775.00 0.1918
775.10 0.1917
775.20 0.1916
775.30 0.1916
775.40 0.1915
775.50 0.1914
775.60 0.1913
775.70 0.1912
775.80 0.1911
775.90 0.191
776.00 0.1909
776.10 0.1908
776.20 0.1907
776.30 0.1906
776.40 0.1905
776.50 0.1904
776.60 0.1903
776.70 0.1902
776.80 0.1901
776.90 0.19
777.00 0.1899
777.10 0.1898
777.20 0.1898
777.30 0.1897
777.40 0.1896
777.50 0.1895
777.60 0.1894
777.70 0.1893
777.80 0.1892
777.90 0.1891
778.00 0.189
778.10 0.1889
778.20 0.1888
778.30 0.1887
778.40 0.1886
778.50 0.1885
778.60 0.1884
778.70 0.1883
778.80 0.1883
778.90 0.1882
779.00 0.1881
779.10 0.188
779.20 0.1879
779.30 0.1878
779.40 0.1877
779.50 0.1876
779.60 0.1875
779.70 0.1874
779.80 0.1873
779.90 0.1872
780.00 0.1871
780.10 0.187
780.20 0.187
780.30 0.1869
780.40 0.1868
780.50 0.1867
780.60 0.1866
780.70 0.1865
780.80 0.1864
780.90 0.1863
781.00 0.1862
781.10 0.1861
781.20 0.186
781.30 0.1859
781.40 0.1859
781.50 0.1858
781.60 0.1857
781.70 0.1856
781.80 0.1855
781.90 0.1854
782.00 0.1853
782.10 0.1852
782.20 0.1851
782.30 0.185
782.40 0.185
782.50 0.1849
782.60 0.1848
782.70 0.1847
782.80 0.1846
782.90 0.1845
783.00 0.1844
783.10 0.1843
783.20 0.1842
783.30 0.1841
783.40 0.184
783.50 0.184
783.60 0.1839
783.70 0.1838
783.80 0.1837
783.90 0.1836
784.00 0.1835
784.10 0.1834
784.20 0.1833
784.30 0.1832
784.40 0.1832
784.50 0.1831
784.60 0.183
784.70 0.1829
784.80 0.1828
784.90 0.1827
785.00 0.1826
785.10 0.1825
785.20 0.1824
785.30 0.1823
785.40 0.1823
785.50 0.1822
785.60 0.1821
785.70 0.182
785.80 0.1819
785.90 0.1818
786.00 0.1817
786.10 0.1816
786.20 0.1815
786.30 0.1815
786.40 0.1814
786.50 0.1813
786.60 0.1812
786.70 0.1811
786.80 0.181
786.90 0.1809
787.00 0.1808
787.10 0.1807
787.20 0.1807
787.30 0.1806
787.40 0.1805
787.50 0.1804
787.60 0.1803
787.70 0.1802
787.80 0.1801
787.90 0.18
788.00 0.1799
788.10 0.1799
788.20 0.1798
788.30 0.1797
788.40 0.1796
788.50 0.1795
788.60 0.1794
788.70 0.1793
788.80 0.1792
788.90 0.1792
789.00 0.1791
789.10 0.179
789.20 0.1789
789.30 0.1788
789.40 0.1787
789.50 0.1786
789.60 0.1785
789.70 0.1785
789.80 0.1784
789.90 0.1783
790.00 0.1782
790.10 0.1781
790.20 0.178
790.30 0.1779
790.40 0.1778
790.50 0.1778
790.60 0.1777
790.70 0.1776
790.80 0.1775
790.90 0.1774
791.00 0.1773
791.10 0.1772
791.20 0.1772
791.30 0.1771
791.40 0.177
791.50 0.1769
791.60 0.1768
791.70 0.1767
791.80 0.1766
791.90 0.1766
792.00 0.1765
792.10 0.1764
792.20 0.1763
792.30 0.1762
792.40 0.1761
792.50 0.1761
792.60 0.176
792.70 0.1759
792.80 0.1758
792.90 0.1757
793.00 0.1756
793.10 0.1755
793.20 0.1755
793.30 0.1754
793.40 0.1753
793.50 0.1752
793.60 0.1751
793.70 0.175
793.80 0.1749
793.90 0.1749
794.00 0.1748
794.10 0.1747
794.20 0.1746
794.30 0.1745
794.40 0.1744
794.50 0.1744
794.60 0.1743
794.70 0.1742
794.80 0.1741
794.90 0.174
795.00 0.1739
795.10 0.1739
795.20 0.1738
795.30 0.1737
795.40 0.1736
795.50 0.1735
795.60 0.1734
795.70 0.1733
795.80 0.1733
795.90 0.1732
796.00 0.1731
796.10 0.173
796.20 0.1729
796.30 0.1728
796.40 0.1728
796.50 0.1727
796.60 0.1726
796.70 0.1725
796.80 0.1724
796.90 0.1723
797.00 0.1723
797.10 0.1722
797.20 0.1721
797.30 0.172
797.40 0.1719
797.50 0.1718
797.60 0.1718
797.70 0.1717
797.80 0.1716
797.90 0.1715
798.00 0.1714
798.10 0.1713
798.20 0.1713
798.30 0.1712
798.40 0.1711
798.50 0.171
798.60 0.1709
798.70 0.1708
798.80 0.1708
798.90 0.1707
799.00 0.1706
799.10 0.1705
799.20 0.1704
799.30 0.1704
799.40 0.1703
799.50 0.1702
799.60 0.1701
799.70 0.17
799.80 0.1699
799.90 0.1699
800.00 0.1698
800.10 0.1697
800.20 0.1696
800.30 0.1695
800.40 0.1695
800.50 0.1694
800.60 0.1693
800.70 0.1692
800.80 0.1691
800.90 0.169
801.00 0.169
801.10 0.1689
801.20 0.1688
801.30 0.1687
801.40 0.1686
801.50 0.1686
801.60 0.1685
801.70 0.1684
801.80 0.1683
801.90 0.1682
802.00 0.1682
802.10 0.1681
802.20 0.168
802.30 0.1679
802.40 0.1678
802.50 0.1678
802.60 0.1677
802.70 0.1676
802.80 0.1675
802.90 0.1674
803.00 0.1674
803.10 0.1673
803.20 0.1672
803.30 0.1671
803.40 0.167
803.50 0.167
803.60 0.1669
803.70 0.1668
803.80 0.1667
803.90 0.1666
804.00 0.1666
804.10 0.1665
804.20 0.1664
804.30 0.1663
804.40 0.1662
804.50 0.1662
804.60 0.1661
804.70 0.166
804.80 0.1659
804.90 0.1658
805.00 0.1658
805.10 0.1657
805.20 0.1656
805.30 0.1655
805.40 0.1655
805.50 0.1654
805.60 0.1653
805.70 0.1652
805.80 0.1651
805.90 0.1651
806.00 0.165
806.10 0.1649
806.20 0.1648
806.30 0.1647
806.40 0.1647
806.50 0.1646
806.60 0.1645
806.70 0.1644
806.80 0.1643
806.90 0.1643
807.00 0.1642
807.10 0.1641
807.20 0.164
807.30 0.164
807.40 0.1639
807.50 0.1638
807.60 0.1637
807.70 0.1636
807.80 0.1636
807.90 0.1635
808.00 0.1634
808.10 0.1633
808.20 0.1632
808.30 0.1632
808.40 0.1631
808.50 0.163
808.60 0.1629
808.70 0.1629
808.80 0.1628
808.90 0.1627
809.00 0.1626
809.10 0.1625
809.20 0.1625
809.30 0.1624
809.40 0.1623
809.50 0.1622
809.60 0.1622
809.70 0.1621
809.80 0.162
809.90 0.1619
810.00 0.1618
810.10 0.1618
810.20 0.1617
810.30 0.1616
810.40 0.1615
810.50 0.1615
810.60 0.1614
810.70 0.1613
810.80 0.1612
810.90 0.1612
811.00 0.1611
811.10 0.161
811.20 0.1609
811.30 0.1609
811.40 0.1608
811.50 0.1607
811.60 0.1606
811.70 0.1606
811.80 0.1605
811.90 0.1604
812.00 0.1603
812.10 0.1603
812.20 0.1602
812.30 0.1601
812.40 0.16
812.50 0.16
812.60 0.1599
812.70 0.1598
812.80 0.1597
812.90 0.1597
813.00 0.1596
813.10 0.1595
813.20 0.1594
813.30 0.1593
813.40 0.1593
813.50 0.1592
813.60 0.1591
813.70 0.159
813.80 0.159
813.90 0.1589
814.00 0.1588
814.10 0.1587
814.20 0.1587
814.30 0.1586
814.40 0.1585
814.50 0.1584
814.60 0.1584
814.70 0.1583
814.80 0.1582
814.90 0.1582
815.00 0.1581
815.10 0.158
815.20 0.1579
815.30 0.1579
815.40 0.1578
815.50 0.1577
815.60 0.1576
815.70 0.1576
815.80 0.1575
815.90 0.1574
816.00 0.1573
816.10 0.1573
816.20 0.1572
816.30 0.1571
816.40 0.157
816.50 0.157
816.60 0.1569
816.70 0.1568
816.80 0.1567
816.90 0.1567
817.00 0.1566
817.10 0.1565
817.20 0.1564
817.30 0.1564
817.40 0.1563
817.50 0.1562
817.60 0.1561
817.70 0.1561
817.80 0.156
817.90 0.1559
818.00 0.1559
818.10 0.1558
818.20 0.1557
818.30 0.1556
818.40 0.1556
818.50 0.1555
818.60 0.1554
818.70 0.1553
818.80 0.1553
818.90 0.1552
819.00 0.1551
819.10 0.155
819.20 0.155
819.30 0.1549
819.40 0.1548
819.50 0.1547
819.60 0.1547
819.70 0.1546
819.80 0.1545
819.90 0.1545
820.00 0.1544
820.10 0.1543
820.20 0.1542
820.30 0.1542
820.40 0.1541
820.50 0.154
820.60 0.1539
820.70 0.1539
820.80 0.1538
820.90 0.1537
821.00 0.1537
821.10 0.1536
821.20 0.1535
821.30 0.1534
821.40 0.1534
821.50 0.1533
821.60 0.1532
821.70 0.1532
821.80 0.1531
821.90 0.153
822.00 0.1529
822.10 0.1529
822.20 0.1528
822.30 0.1527
822.40 0.1527
822.50 0.1526
822.60 0.1525
822.70 0.1524
822.80 0.1524
822.90 0.1523
823.00 0.1522
823.10 0.1522
823.20 0.1521
823.30 0.152
823.40 0.1519
823.50 0.1519
823.60 0.1518
823.70 0.1517
823.80 0.1517
823.90 0.1516
824.00 0.1515
824.10 0.1514
824.20 0.1514
824.30 0.1513
824.40 0.1512
824.50 0.1512
824.60 0.1511
824.70 0.151
824.80 0.151
824.90 0.1509
825.00 0.1508
825.10 0.1507
825.20 0.1507
825.30 0.1506
825.40 0.1505
825.50 0.1505
825.60 0.1504
825.70 0.1503
825.80 0.1502
825.90 0.1502
826.00 0.1501
826.10 0.15
826.20 0.15
826.30 0.1499
826.40 0.1498
826.50 0.1498
826.60 0.1497
826.70 0.1496
826.80 0.1495
826.90 0.1495
827.00 0.1494
827.10 0.1493
827.20 0.1493
827.30 0.1492
827.40 0.1491
827.50 0.1491
827.60 0.149
827.70 0.1489
827.80 0.1489
827.90 0.1488
828.00 0.1487
828.10 0.1486
828.20 0.1486
828.30 0.1485
828.40 0.1484
828.50 0.1484
828.60 0.1483
828.70 0.1482
828.80 0.1482
828.90 0.1481
829.00 0.148
829.10 0.148
829.20 0.1479
829.30 0.1478
829.40 0.1478
829.50 0.1477
829.60 0.1476
829.70 0.1475
829.80 0.1475
829.90 0.1474
830.00 0.1473
830.10 0.1473
830.20 0.1472
830.30 0.1471
830.40 0.1471
830.50 0.147
830.60 0.1469
830.70 0.1469
830.80 0.1468
830.90 0.1467
831.00 0.1467
831.10 0.1466
831.20 0.1465
831.30 0.1465
831.40 0.1464
831.50 0.1463
831.60 0.1462
831.70 0.1462
831.80 0.1461
831.90 0.146
832.00 0.146
832.10 0.1459
832.20 0.1458
832.30 0.1458
832.40 0.1457
832.50 0.1456
832.60 0.1456
832.70 0.1455
832.80 0.1454
832.90 0.1454
833.00 0.1453
833.10 0.1452
833.20 0.1452
833.30 0.1451
833.40 0.145
833.50 0.145
833.60 0.1449
833.70 0.1448
833.80 0.1448
833.90 0.1447
834.00 0.1446
834.10 0.1446
834.20 0.1445
834.30 0.1444
834.40 0.1444
834.50 0.1443
834.60 0.1442
834.70 0.1442
834.80 0.1441
834.90 0.144
835.00 0.144
835.10 0.1439
835.20 0.1438
835.30 0.1438
835.40 0.1437
835.50 0.1436
835.60 0.1436
835.70 0.1435
835.80 0.1434
835.90 0.1434
836.00 0.1433
836.10 0.1432
836.20 0.1432
836.30 0.1431
836.40 0.143
836.50 0.143
836.60 0.1429
836.70 0.1428
836.80 0.1428
836.90 0.1427
837.00 0.1426
837.10 0.1426
837.20 0.1425
837.30 0.1424
837.40 0.1424
837.50 0.1423
837.60 0.1422
837.70 0.1422
837.80 0.1421
837.90 0.142
838.00 0.142
838.10 0.1419
838.20 0.1418
838.30 0.1418
838.40 0.1417
838.50 0.1416
838.60 0.1416
838.70 0.1415
838.80 0.1414
838.90 0.1414
839.00 0.1413
839.10 0.1412
839.20 0.1412
839.30 0.1411
839.40 0.141
839.50 0.141
839.60 0.1409
839.70 0.1409
839.80 0.1408
839.90 0.1407
840.00 0.1407
840.10 0.1406
840.20 0.1405
840.30 0.1405
840.40 0.1404
840.50 0.1403
840.60 0.1403
840.70 0.1402
840.80 0.1401
840.90 0.1401
841.00 0.14
841.10 0.1399
841.20 0.1399
841.30 0.1398
841.40 0.1397
841.50 0.1397
841.60 0.1396
841.70 0.1396
841.80 0.1395
841.90 0.1394
842.00 0.1394
842.10 0.1393
842.20 0.1392
842.30 0.1392
842.40 0.1391
842.50 0.139
842.60 0.139
842.70 0.1389
842.80 0.1388
842.90 0.1388
843.00 0.1387
843.10 0.1387
843.20 0.1386
843.30 0.1385
843.40 0.1385
843.50 0.1384
843.60 0.1383
843.70 0.1383
843.80 0.1382
843.90 0.1381
844.00 0.1381
844.10 0.138
844.20 0.138
844.30 0.1379
844.40 0.1378
844.50 0.1378
844.60 0.1377
844.70 0.1376
844.80 0.1376
844.90 0.1375
845.00 0.1374
845.10 0.1374
845.20 0.1373
845.30 0.1373
845.40 0.1372
845.50 0.1371
845.60 0.1371
845.70 0.137
845.80 0.1369
845.90 0.1369
846.00 0.1368
846.10 0.1367
846.20 0.1367
846.30 0.1366
846.40 0.1366
846.50 0.1365
846.60 0.1364
846.70 0.1364
846.80 0.1363
846.90 0.1362
847.00 0.1362
847.10 0.1361
847.20 0.1361
847.30 0.136
847.40 0.1359
847.50 0.1359
847.60 0.1358
847.70 0.1357
847.80 0.1357
847.90 0.1356
848.00 0.1356
848.10 0.1355
848.20 0.1354
848.30 0.1354
848.40 0.1353
848.50 0.1352
848.60 0.1352
848.70 0.1351
848.80 0.1351
848.90 0.135
849.00 0.1349
849.10 0.1349
849.20 0.1348
849.30 0.1347
849.40 0.1347
849.50 0.1346
849.60 0.1346
849.70 0.1345
849.80 0.1344
849.90 0.1344
850.00 0.1343
850.10 0.1343
850.20 0.1342
850.30 0.1341
850.40 0.1341
850.50 0.134
850.60 0.1339
850.70 0.1339
850.80 0.1338
850.90 0.1338
851.00 0.1337
851.10 0.1336
851.20 0.1336
851.30 0.1335
851.40 0.1335
851.50 0.1334
851.60 0.1333
851.70 0.1333
851.80 0.1332
851.90 0.1331
852.00 0.1331
852.10 0.133
852.20 0.133
852.30 0.1329
852.40 0.1328
852.50 0.1328
852.60 0.1327
852.70 0.1327
852.80 0.1326
852.90 0.1325
853.00 0.1325
853.10 0.1324
853.20 0.1324
853.30 0.1323
853.40 0.1322
853.50 0.1322
853.60 0.1321
853.70 0.1321
853.80 0.132
853.90 0.1319
854.00 0.1319
854.10 0.1318
854.20 0.1318
854.30 0.1317
854.40 0.1316
854.50 0.1316
854.60 0.1315
854.70 0.1315
854.80 0.1314
854.90 0.1313
855.00 0.1313
855.10 0.1312
855.20 0.1312
855.30 0.1311
855.40 0.131
855.50 0.131
855.60 0.1309
855.70 0.1309
855.80 0.1308
855.90 0.1307
856.00 0.1307
856.10 0.1306
856.20 0.1306
856.30 0.1305
856.40 0.1304
856.50 0.1304
856.60 0.1303
856.70 0.1303
856.80 0.1302
856.90 0.1301
857.00 0.1301
857.10 0.13
857.20 0.13
857.30 0.1299
857.40 0.1299
857.50 0.1298
857.60 0.1297
857.70 0.1297
857.80 0.1296
857.90 0.1296
858.00 0.1295
858.10 0.1295
858.20 0.1294
858.30 0.1293
858.40 0.1293
858.50 0.1292
858.60 0.1292
858.70 0.1291
858.80 0.1291
858.90 0.129
859.00 0.1289
859.10 0.1289
859.20 0.1288
859.30 0.1288
859.40 0.1287
859.50 0.1286
859.60 0.1286
859.70 0.1285
859.80 0.1285
859.90 0.1284
860.00 0.1284
860.10 0.1283
860.20 0.1282
860.30 0.1282
860.40 0.1281
860.50 0.1281
860.60 0.128
860.70 0.128
860.80 0.1279
860.90 0.1279
861.00 0.1278
861.10 0.1277
861.20 0.1277
861.30 0.1276
861.40 0.1276
861.50 0.1275
861.60 0.1275
861.70 0.1274
861.80 0.1273
861.90 0.1273
862.00 0.1272
862.10 0.1272
862.20 0.1271
862.30 0.1271
862.40 0.127
862.50 0.1269
862.60 0.1269
862.70 0.1268
862.80 0.1268
862.90 0.1267
863.00 0.1267
863.10 0.1266
863.20 0.1265
863.30 0.1265
863.40 0.1264
863.50 0.1264
863.60 0.1263
863.70 0.1263
863.80 0.1262
863.90 0.1261
864.00 0.1261
864.10 0.126
864.20 0.126
864.30 0.1259
864.40 0.1259
864.50 0.1258
864.60 0.1257
864.70 0.1257
864.80 0.1256
864.90 0.1256
865.00 0.1255
865.10 0.1255
865.20 0.1254
865.30 0.1253
865.40 0.1253
865.50 0.1252
865.60 0.1252
865.70 0.1251
865.80 0.1251
865.90 0.125
866.00 0.1249
866.10 0.1249
866.20 0.1248
866.30 0.1248
866.40 0.1247
866.50 0.1247
866.60 0.1246
866.70 0.1245
866.80 0.1245
866.90 0.1244
867.00 0.1244
867.10 0.1243
867.20 0.1243
867.30 0.1242
867.40 0.1242
867.50 0.1241
867.60 0.124
867.70 0.124
867.80 0.1239
867.90 0.1239
868.00 0.1238
868.10 0.1238
868.20 0.1237
868.30 0.1237
868.40 0.1236
868.50 0.1236
868.60 0.1235
868.70 0.1234
868.80 0.1234
868.90 0.1233
869.00 0.1233
869.10 0.1232
869.20 0.1232
869.30 0.1231
869.40 0.1231
869.50 0.123
869.60 0.1229
869.70 0.1229
869.80 0.1228
869.90 0.1228
870.00 0.1227
870.10 0.1227
870.20 0.1226
870.30 0.1226
870.40 0.1225
870.50 0.1225
870.60 0.1224
870.70 0.1223
870.80 0.1223
870.90 0.1222
871.00 0.1222
871.10 0.1221
871.20 0.1221
871.30 0.122
871.40 0.122
871.50 0.1219
871.60 0.1219
871.70 0.1218
871.80 0.1217
871.90 0.1217
872.00 0.1216
872.10 0.1216
872.20 0.1215
872.30 0.1215
872.40 0.1214
872.50 0.1214
872.60 0.1213
872.70 0.1213
872.80 0.1212
872.90 0.1212
873.00 0.1211
873.10 0.121
873.20 0.121
873.30 0.1209
873.40 0.1209
873.50 0.1208
873.60 0.1208
873.70 0.1207
873.80 0.1207
873.90 0.1206
874.00 0.1206
874.10 0.1205
874.20 0.1205
874.30 0.1204
874.40 0.1203
874.50 0.1203
874.60 0.1202
874.70 0.1202
874.80 0.1201
874.90 0.1201
875.00 0.12
875.10 0.12
875.20 0.1199
875.30 0.1199
875.40 0.1198
875.50 0.1198
875.60 0.1197
875.70 0.1197
875.80 0.1196
875.90 0.1195
876.00 0.1195
876.10 0.1194
876.20 0.1194
876.30 0.1193
876.40 0.1193
876.50 0.1192
876.60 0.1192
876.70 0.1191
876.80 0.1191
876.90 0.119
877.00 0.119
877.10 0.1189
877.20 0.1189
877.30 0.1188
877.40 0.1188
877.50 0.1187
877.60 0.1186
877.70 0.1186
877.80 0.1185
877.90 0.1185
878.00 0.1184
878.10 0.1184
878.20 0.1183
878.30 0.1183
878.40 0.1182
878.50 0.1182
878.60 0.1181
878.70 0.1181
878.80 0.118
878.90 0.118
879.00 0.1179
879.10 0.1179
879.20 0.1178
879.30 0.1178
879.40 0.1177
879.50 0.1177
879.60 0.1176
879.70 0.1176
879.80 0.1175
879.90 0.1175
880.00 0.1174
880.10 0.1174
880.20 0.1173
880.30 0.1172
880.40 0.1172
880.50 0.1171
880.60 0.1171
880.70 0.117
880.80 0.117
880.90 0.1169
881.00 0.1169
881.10 0.1168
881.20 0.1168
881.30 0.1167
881.40 0.1167
881.50 0.1166
881.60 0.1166
881.70 0.1165
881.80 0.1165
881.90 0.1164
882.00 0.1164
882.10 0.1163
882.20 0.1163
882.30 0.1162
882.40 0.1162
882.50 0.1161
882.60 0.1161
882.70 0.116
882.80 0.116
882.90 0.1159
883.00 0.1159
883.10 0.1158
883.20 0.1158
883.30 0.1157
883.40 0.1157
883.50 0.1156
883.60 0.1156
883.70 0.1155
883.80 0.1155
883.90 0.1154
884.00 0.1154
884.10 0.1153
884.20 0.1153
884.30 0.1152
884.40 0.1152
884.50 0.1151
884.60 0.1151
884.70 0.115
884.80 0.115
884.90 0.1149
885.00 0.1149
885.10 0.1148
885.20 0.1148
885.30 0.1147
885.40 0.1147
885.50 0.1146
885.60 0.1146
885.70 0.1145
885.80 0.1145
885.90 0.1144
886.00 0.1144
886.10 0.1143
886.20 0.1143
886.30 0.1142
886.40 0.1142
886.50 0.1141
886.60 0.1141
886.70 0.114
886.80 0.114
886.90 0.1139
887.00 0.1139
887.10 0.1138
887.20 0.1138
887.30 0.1137
887.40 0.1137
887.50 0.1136
887.60 0.1136
887.70 0.1135
887.80 0.1135
887.90 0.1134
888.00 0.1134
888.10 0.1133
888.20 0.1133
888.30 0.1132
888.40 0.1132
888.50 0.1131
888.60 0.1131
888.70 0.113
888.80 0.113
888.90 0.1129
889.00 0.1129
889.10 0.1128
889.20 0.1128
889.30 0.1127
889.40 0.1127
889.50 0.1126
889.60 0.1126
889.70 0.1125
889.80 0.1125
889.90 0.1124
890.00 0.1124
890.10 0.1123
890.20 0.1123
890.30 0.1122
890.40 0.1122
890.50 0.1121
890.60 0.1121
890.70 0.112
890.80 0.112
890.90 0.1119
891.00 0.1119
891.10 0.1119
891.20 0.1118
891.30 0.1118
891.40 0.1117
891.50 0.1117
891.60 0.1116
891.70 0.1116
891.80 0.1115
891.90 0.1115
892.00 0.1114
892.10 0.1114
892.20 0.1113
892.30 0.1113
892.40 0.1112
892.50 0.1112
892.60 0.1111
892.70 0.1111
892.80 0.111
892.90 0.111
893.00 0.1109
893.10 0.1109
893.20 0.1108
893.30 0.1108
893.40 0.1107
893.50 0.1107
893.60 0.1106
893.70 0.1106
893.80 0.1106
893.90 0.1105
894.00 0.1105
894.10 0.1104
894.20 0.1104
894.30 0.1103
894.40 0.1103
894.50 0.1102
894.60 0.1102
894.70 0.1101
894.80 0.1101
894.90 0.11
895.00 0.11
895.10 0.1099
895.20 0.1099
895.30 0.1098
895.40 0.1098
895.50 0.1097
895.60 0.1097
895.70 0.1097
895.80 0.1096
895.90 0.1096
896.00 0.1095
896.10 0.1095
896.20 0.1094
896.30 0.1094
896.40 0.1093
896.50 0.1093
896.60 0.1092
896.70 0.1092
896.80 0.1091
896.90 0.1091
897.00 0.109
897.10 0.109
897.20 0.1089
897.30 0.1089
897.40 0.1089
897.50 0.1088
897.60 0.1088
897.70 0.1087
897.80 0.1087
897.90 0.1086
898.00 0.1086
898.10 0.1085
898.20 0.1085
898.30 0.1084
898.40 0.1084
898.50 0.1083
898.60 0.1083
898.70 0.1083
898.80 0.1082
898.90 0.1082
899.00 0.1081
899.10 0.1081
899.20 0.108
899.30 0.108
899.40 0.1079
899.50 0.1079
899.60 0.1078
899.70 0.1078
899.80 0.1077
899.90 0.1077
900.00 0.1077
900.10 0.1076
900.20 0.1076
900.30 0.1075
900.40 0.1075
900.50 0.1074
900.60 0.1074
900.70 0.1073
900.80 0.1073
900.90 0.1072
901.00 0.1072
901.10 0.1071
901.20 0.1071
901.30 0.1071
901.40 0.107
901.50 0.107
901.60 0.1069
901.70 0.1069
901.80 0.1068
901.90 0.1068
902.00 0.1067
902.10 0.1067
902.20 0.1066
902.30 0.1066
902.40 0.1066
902.50 0.1065
902.60 0.1065
902.70 0.1064
902.80 0.1064
902.90 0.1063
903.00 0.1063
903.10 0.1062
903.20 0.1062
903.30 0.1062
903.40 0.1061
903.50 0.1061
903.60 0.106
903.70 0.106
903.80 0.1059
903.90 0.1059
904.00 0.1058
904.10 0.1058
904.20 0.1057
904.30 0.1057
904.40 0.1057
904.50 0.1056
904.60 0.1056
904.70 0.1055
904.80 0.1055
904.90 0.1054
905.00 0.1054
905.10 0.1053
905.20 0.1053
905.30 0.1053
905.40 0.1052
905.50 0.1052
905.60 0.1051
905.70 0.1051
905.80 0.105
905.90 0.105
906.00 0.105
906.10 0.1049
906.20 0.1049
906.30 0.1048
906.40 0.1048
906.50 0.1047
906.60 0.1047
906.70 0.1046
906.80 0.1046
906.90 0.1046
907.00 0.1045
907.10 0.1045
907.20 0.1044
907.30 0.1044
907.40 0.1043
907.50 0.1043
907.60 0.1042
907.70 0.1042
907.80 0.1042
907.90 0.1041
908.00 0.1041
908.10 0.104
908.20 0.104
908.30 0.1039
908.40 0.1039
908.50 0.1039
908.60 0.1038
908.70 0.1038
908.80 0.1037
908.90 0.1037
909.00 0.1036
909.10 0.1036
909.20 0.1035
909.30 0.1035
909.40 0.1035
909.50 0.1034
909.60 0.1034
909.70 0.1033
909.80 0.1033
909.90 0.1032
910.00 0.1032
910.10 0.1032
910.20 0.1031
910.30 0.1031
910.40 0.103
910.50 0.103
910.60 0.1029
910.70 0.1029
910.80 0.1029
910.90 0.1028
911.00 0.1028
911.10 0.1027
911.20 0.1027
911.30 0.1026
911.40 0.1026
911.50 0.1025
911.60 0.1025
911.70 0.1025
911.80 0.1024
911.90 0.1024
912.00 0.1023
912.10 0.1023
912.20 0.1022
912.30 0.1022
912.40 0.1022
912.50 0.1021
912.60 0.1021
912.70 0.102
912.80 0.102
912.90 0.1019
913.00 0.1019
913.10 0.1019
913.20 0.1018
913.30 0.1018
913.40 0.1017
913.50 0.1017
913.60 0.1016
913.70 0.1016
913.80 0.1016
913.90 0.1015
914.00 0.1015
914.10 0.1014
914.20 0.1014
914.30 0.1013
914.40 0.1013
914.50 0.1013
914.60 0.1012
914.70 0.1012
914.80 0.1011
914.90 0.1011
915.00 0.101
915.10 0.101
915.20 0.101
915.30 0.1009
915.40 0.1009
915.50 0.1008
915.60 0.1008
915.70 0.1007
915.80 0.1007
915.90 0.1007
916.00 0.1006
916.10 0.1006
916.20 0.1005
916.30 0.1005
916.40 0.1005
916.50 0.1004
916.60 0.1004
916.70 0.1003
916.80 0.1003
916.90 0.1002
917.00 0.1002
917.10 0.1002
917.20 0.1001
917.30 0.1001
917.40 0.1
917.50 0.09999
917.60 0.09995
917.70 0.0999
917.80 0.09986
917.90 0.09982
918.00 0.09978
918.10 0.09974
918.20 0.09969
918.30 0.09965
918.40 0.09961
918.50 0.09957
918.60 0.09953
918.70 0.09949
918.80 0.09944
918.90 0.0994
919.00 0.09936
919.10 0.09932
919.20 0.09928
919.30 0.09924
919.40 0.09919
919.50 0.09915
919.60 0.09911
919.70 0.09907
919.80 0.09903
919.90 0.09899
920.00 0.09894
920.10 0.0989
920.20 0.09886
920.30 0.09882
920.40 0.09878
920.50 0.09874
920.60 0.0987
920.70 0.09865
920.80 0.09861
920.90 0.09857
921.00 0.09853
921.10 0.09849
921.20 0.09845
921.30 0.09841
921.40 0.09837
921.50 0.09832
921.60 0.09828
921.70 0.09824
921.80 0.0982
921.90 0.09816
922.00 0.09812
922.10 0.09808
922.20 0.09804
922.30 0.098
922.40 0.09796
922.50 0.09792
922.60 0.09788
922.70 0.09784
922.80 0.0978
922.90 0.09776
923.00 0.09772
923.10 0.09768
923.20 0.09764
923.30 0.0976
923.40 0.09756
923.50 0.09752
923.60 0.09748
923.70 0.09744
923.80 0.0974
923.90 0.09737
924.00 0.09733
924.10 0.09729
924.20 0.09725
924.30 0.09721
924.40 0.09717
924.50 0.09713
924.60 0.09709
924.70 0.09705
924.80 0.09701
924.90 0.09697
925.00 0.09693
925.10 0.09689
925.20 0.09685
925.30 0.09681
925.40 0.09678
925.50 0.09674
925.60 0.0967
925.70 0.09666
925.80 0.09662
925.90 0.09658
926.00 0.09654
926.10 0.0965
926.20 0.09646
926.30 0.09642
926.40 0.09638
926.50 0.09634
926.60 0.09631
926.70 0.09627
926.80 0.09623
926.90 0.09619
927.00 0.09615
927.10 0.09611
927.20 0.09607
927.30 0.09603
927.40 0.096
927.50 0.09596
927.60 0.09592
927.70 0.09588
927.80 0.09584
927.90 0.0958
928.00 0.09576
928.10 0.09573
928.20 0.09569
928.30 0.09565
928.40 0.09561
928.50 0.09557
928.60 0.09553
928.70 0.0955
928.80 0.09546
928.90 0.09542
929.00 0.09538
929.10 0.09534
929.20 0.09531
929.30 0.09527
929.40 0.09523
929.50 0.09519
929.60 0.09515
929.70 0.09511
929.80 0.09508
929.90 0.09504
930.00 0.095
930.10 0.09496
930.20 0.09492
930.30 0.09489
930.40 0.09485
930.50 0.09481
930.60 0.09477
930.70 0.09473
930.80 0.0947
930.90 0.09466
931.00 0.09462
931.10 0.09458
931.20 0.09454
931.30 0.09451
931.40 0.09447
931.50 0.09443
931.60 0.09439
931.70 0.09435
931.80 0.09432
931.90 0.09428
932.00 0.09424
932.10 0.0942
932.20 0.09416
932.30 0.09413
932.40 0.09409
932.50 0.09405
932.60 0.09401
932.70 0.09397
932.80 0.09394
932.90 0.0939
933.00 0.09386
933.10 0.09382
933.20 0.09378
933.30 0.09375
933.40 0.09371
933.50 0.09367
933.60 0.09363
933.70 0.09359
933.80 0.09356
933.90 0.09352
934.00 0.09348
934.10 0.09344
934.20 0.0934
934.30 0.09337
934.40 0.09333
934.50 0.09329
934.60 0.09325
934.70 0.09321
934.80 0.09317
934.90 0.09314
935.00 0.0931
935.10 0.09306
935.20 0.09302
935.30 0.09298
935.40 0.09295
935.50 0.09291
935.60 0.09287
935.70 0.09283
935.80 0.09279
935.90 0.09276
936.00 0.09272
936.10 0.09268
936.20 0.09264
936.30 0.0926
936.40 0.09257
936.50 0.09253
936.60 0.09249
936.70 0.09245
936.80 0.09241
936.90 0.09238
937.00 0.09234
937.10 0.0923
937.20 0.09226
937.30 0.09222
937.40 0.09219
937.50 0.09215
937.60 0.09211
937.70 0.09207
937.80 0.09203
937.90 0.092
938.00 0.09196
938.10 0.09192
938.20 0.09188
938.30 0.09184
938.40 0.0918
938.50 0.09177
938.60 0.09173
938.70 0.09169
938.80 0.09165
938.90 0.09161
939.00 0.09158
939.10 0.09154
939.20 0.0915
939.30 0.09146
939.40 0.09142
939.50 0.09138
939.60 0.09135
939.70 0.09131
939.80 0.09127
939.90 0.09123
940.00 0.09119
940.10 0.09116
940.20 0.09112
940.30 0.09108
940.40 0.09104
940.50 0.091
940.60 0.09096
940.70 0.09093
940.80 0.09089
940.90 0.09085
941.00 0.09081
941.10 0.09077
941.20 0.09073
941.30 0.0907
941.40 0.09066
941.50 0.09062
941.60 0.09058
941.70 0.09054
941.80 0.09051
941.90 0.09047
942.00 0.09043
942.10 0.09039
942.20 0.09035
942.30 0.09031
942.40 0.09028
942.50 0.09024
942.60 0.0902
942.70 0.09016
942.80 0.09012
942.90 0.09008
943.00 0.09005
943.10 0.09001
943.20 0.08997
943.30 0.08993
943.40 0.08989
943.50 0.08985
943.60 0.08982
943.70 0.08978
943.80 0.08974
943.90 0.0897
944.00 0.08966
944.10 0.08962
944.20 0.08959
944.30 0.08955
944.40 0.08951
944.50 0.08947
944.60 0.08943
944.70 0.08939
944.80 0.08936
944.90 0.08932
945.00 0.08928
945.10 0.08924
945.20 0.0892
945.30 0.08916
945.40 0.08913
945.50 0.08909
945.60 0.08905
945.70 0.08901
945.80 0.08897
945.90 0.08893
946.00 0.0889
946.10 0.08886
946.20 0.08882
946.30 0.08878
946.40 0.08874
946.50 0.0887
946.60 0.08867
946.70 0.08863
946.80 0.08859
946.90 0.08855
947.00 0.08851
947.10 0.08847
947.20 0.08844
947.30 0.0884
947.40 0.08836
947.50 0.08832
947.60 0.08828
947.70 0.08824
947.80 0.08821
947.90 0.08817
948.00 0.08813
948.10 0.08809
948.20 0.08805
948.30 0.08801
948.40 0.08798
948.50 0.08794
948.60 0.0879
948.70 0.08786
948.80 0.08782
948.90 0.08779
949.00 0.08775
949.10 0.08771
949.20 0.08767
949.30 0.08763
949.40 0.0876
949.50 0.08756
949.60 0.08752
949.70 0.08748
949.80 0.08744
949.90 0.08741
950.00 0.08737
950.10 0.08733
950.20 0.08729
950.30 0.08725
950.40 0.08722
950.50 0.08718
950.60 0.08714
950.70 0.0871
950.80 0.08706
950.90 0.08703
951.00 0.08699
951.10 0.08695
951.20 0.08691
951.30 0.08688
951.40 0.08684
951.50 0.0868
951.60 0.08676
951.70 0.08673
951.80 0.08669
951.90 0.08665
952.00 0.08661
952.10 0.08658
952.20 0.08654
952.30 0.0865
952.40 0.08647
952.50 0.08643
952.60 0.08639
952.70 0.08635
952.80 0.08632
952.90 0.08628
953.00 0.08624
953.10 0.08621
953.20 0.08617
953.30 0.08614
953.40 0.0861
953.50 0.08606
953.60 0.08603
953.70 0.08599
953.80 0.08596
953.90 0.08592
954.00 0.08589
954.10 0.08585
954.20 0.08582
954.30 0.08578
954.40 0.08575
954.50 0.08571
954.60 0.08568
954.70 0.08565
954.80 0.08561
954.90 0.08558
955.00 0.08555
955.10 0.08552
955.20 0.08548
955.30 0.08545
955.40 0.08542
955.50 0.08539
955.60 0.08536
955.70 0.08533
955.80 0.08529
955.90 0.08526
956.00 0.08523
956.10 0.0852
956.20 0.08517
956.30 0.08514
956.40 0.08511
956.50 0.08508
956.60 0.08505
956.70 0.08502
956.80 0.08499
956.90 0.08496
957.00 0.08493
957.10 0.0849
957.20 0.08487
957.30 0.08484
957.40 0.08481
957.50 0.08478
957.60 0.08475
957.70 0.08472
957.80 0.08469
957.90 0.08466
958.00 0.08463
958.10 0.0846
958.20 0.08457
958.30 0.08454
958.40 0.08451
958.50 0.08448
958.60 0.08445
958.70 0.08442
958.80 0.08439
958.90 0.08436
959.00 0.08433
959.10 0.0843
959.20 0.08427
959.30 0.08424
959.40 0.08421
959.50 0.08418
959.60 0.08415
959.70 0.08412
959.80 0.08409
959.90 0.08406
960.00 0.08403
960.10 0.084
960.20 0.08397
960.30 0.08394
960.40 0.08392
960.50 0.08389
960.60 0.08386
960.70 0.08383
960.80 0.0838
960.90 0.08377
961.00 0.08374
961.10 0.08371
961.20 0.08368
961.30 0.08365
961.40 0.08362
961.50 0.08359
961.60 0.08356
961.70 0.08353
961.80 0.0835
961.90 0.08347
962.00 0.08344
962.10 0.08341
962.20 0.08338
962.30 0.08335
962.40 0.08333
962.50 0.0833
962.60 0.08327
962.70 0.08324
962.80 0.08321
962.90 0.08318
963.00 0.08315
963.10 0.08312
963.20 0.08309
963.30 0.08306
963.40 0.08303
963.50 0.083
963.60 0.08297
963.70 0.08294
963.80 0.08291
963.90 0.08288
964.00 0.08285
964.10 0.08282
964.20 0.08279
964.30 0.08276
964.40 0.08273
964.50 0.0827
964.60 0.08267
964.70 0.08264
964.80 0.08261
964.90 0.08258
965.00 0.08255
965.10 0.08252
965.20 0.08249
965.30 0.08246
965.40 0.08243
965.50 0.0824
965.60 0.08237
965.70 0.08234
965.80 0.08231
965.90 0.08228
966.00 0.08225
966.10 0.08223
966.20 0.0822
966.30 0.08217
966.40 0.08214
966.50 0.08211
966.60 0.08208
966.70 0.08205
966.80 0.08202
966.90 0.08199
967.00 0.08196
967.10 0.08193
967.20 0.0819
967.30 0.08187
967.40 0.08183
967.50 0.0818
967.60 0.08177
967.70 0.08174
967.80 0.08171
967.90 0.08168
968.00 0.08165
968.10 0.08162
968.20 0.08159
968.30 0.08156
968.40 0.08153
968.50 0.0815
968.60 0.08147
968.70 0.08144
968.80 0.08141
968.90 0.08138
969.00 0.08135
969.10 0.08132
969.20 0.08129
969.30 0.08126
969.40 0.08123
969.50 0.0812
969.60 0.08117
969.70 0.08114
969.80 0.08111
969.90 0.08108
970.00 0.08105
970.10 0.08102
970.20 0.08099
970.30 0.08096
970.40 0.08092
970.50 0.08089
970.60 0.08086
970.70 0.08083
970.80 0.0808
970.90 0.08077
971.00 0.08074
971.10 0.08071
971.20 0.08068
971.30 0.08065
971.40 0.08062
971.50 0.08059
971.60 0.08056
971.70 0.08053
971.80 0.0805
971.90 0.08046
972.00 0.08043
972.10 0.0804
972.20 0.08037
972.30 0.08034
972.40 0.08031
972.50 0.08028
972.60 0.08025
972.70 0.08022
972.80 0.08019
972.90 0.08015
973.00 0.08012
973.10 0.08009
973.20 0.08006
973.30 0.08003
973.40 0.08
973.50 0.07997
973.60 0.07994
973.70 0.07991
973.80 0.07988
973.90 0.07985
974.00 0.07981
974.10 0.07978
974.20 0.07975
974.30 0.07972
974.40 0.07969
974.50 0.07966
974.60 0.07963
974.70 0.0796
974.80 0.07956
974.90 0.07953
975.00 0.0795
975.10 0.07947
975.20 0.07944
975.30 0.07941
975.40 0.07938
975.50 0.07934
975.60 0.07931
975.70 0.07928
975.80 0.07925
975.90 0.07922
976.00 0.07919
976.10 0.07916
976.20 0.07913
976.30 0.07909
976.40 0.07906
976.50 0.07903
976.60 0.079
976.70 0.07897
976.80 0.07894
976.90 0.07891
977.00 0.07888
977.10 0.07884
977.20 0.07881
977.30 0.07878
977.40 0.07875
977.50 0.07871
977.60 0.07868
977.70 0.07865
977.80 0.07862
977.90 0.07858
978.00 0.07855
978.10 0.07852
978.20 0.07849
978.30 0.07846
978.40 0.07842
978.50 0.07839
978.60 0.07836
978.70 0.07833
978.80 0.07829
978.90 0.07826
979.00 0.07823
979.10 0.0782
979.20 0.07817
979.30 0.07813
979.40 0.0781
979.50 0.07807
979.60 0.07804
979.70 0.07801
979.80 0.07797
979.90 0.07794
980.00 0.07791
980.10 0.07788
980.20 0.07785
980.30 0.07781
980.40 0.07778
980.50 0.07775
980.60 0.07772
980.70 0.07769
980.80 0.07765
980.90 0.07762
981.00 0.07759
981.10 0.07756
981.20 0.07753
981.30 0.07749
981.40 0.07746
981.50 0.07743
981.60 0.0774
981.70 0.07737
981.80 0.07734
981.90 0.0773
982.00 0.07727
982.10 0.07724
982.20 0.07721
982.30 0.07717
982.40 0.07714
982.50 0.07711
982.60 0.07707
982.70 0.07704
982.80 0.07701
982.90 0.07697
983.00 0.07694
983.10 0.07691
983.20 0.07688
983.30 0.07684
983.40 0.07681
983.50 0.07678
983.60 0.07674
983.70 0.07671
983.80 0.07668
983.90 0.07665
984.00 0.07661
984.10 0.07658
984.20 0.07655
984.30 0.07652
984.40 0.07648
984.50 0.07645
984.60 0.07642
984.70 0.07638
984.80 0.07635
984.90 0.07632
985.00 0.07628
985.10 0.07625
985.20 0.07622
985.30 0.07618
985.40 0.07615
985.50 0.07611
985.60 0.07608
985.70 0.07605
985.80 0.07601
985.90 0.07598
986.00 0.07595
986.10 0.07591
986.20 0.07588
986.30 0.07585
986.40 0.07581
986.50 0.07578
986.60 0.07575
986.70 0.07571
986.80 0.07568
986.90 0.07565
987.00 0.07561
987.10 0.07558
987.20 0.07555
987.30 0.07551
987.40 0.07548
987.50 0.07544
987.60 0.07541
987.70 0.07538
987.80 0.07534
987.90 0.07531
988.00 0.07527
988.10 0.07524
988.20 0.07521
988.30 0.07517
988.40 0.07514
988.50 0.0751
988.60 0.07507
988.70 0.07503
988.80 0.075
988.90 0.07497
989.00 0.07493
989.10 0.0749
989.20 0.07486
989.30 0.07483
989.40 0.07479
989.50 0.07476
989.60 0.07472
989.70 0.07469
989.80 0.07465
989.90 0.07462
990.00 0.07458
990.10 0.07455
990.20 0.07452
990.30 0.07448
990.40 0.07445
990.50 0.07441
990.60 0.07438
990.70 0.07434
990.80 0.07431
990.90 0.07427
991.00 0.07424
991.10 0.0742
991.20 0.07417
991.30 0.07413
991.40 0.0741
991.50 0.07406
991.60 0.07403
991.70 0.07399
991.80 0.07396
991.90 0.07392
992.00 0.07389
992.10 0.07385
992.20 0.07382
992.30 0.07378
992.40 0.07374
992.50 0.07371
992.60 0.07367
992.70 0.07364
992.80 0.0736
992.90 0.07357
993.00 0.07353
993.10 0.07349
993.20 0.07346
993.30 0.07342
993.40 0.07339
993.50 0.07335
993.60 0.07331
993.70 0.07328
993.80 0.07324
993.90 0.07321
994.00 0.07317
994.10 0.07313
994.20 0.0731
994.30 0.07306
994.40 0.07303
994.50 0.07299
994.60 0.07296
994.70 0.07292
994.80 0.07288
994.90 0.07285
995.00 0.07281
995.10 0.07277
995.20 0.07274
995.30 0.0727
995.40 0.07266
995.50 0.07263
995.60 0.07259
995.70 0.07256
995.80 0.07252
995.90 0.07248
996.00 0.07244
996.10 0.07241
996.20 0.07237
996.30 0.07233
996.40 0.0723
996.50 0.07226
996.60 0.07222
996.70 0.07219
996.80 0.07215
996.90 0.07211
997.00 0.07208
997.10 0.07204
997.20 0.072
997.30 0.07197
997.40 0.07193
997.50 0.07189
997.60 0.07186
997.70 0.07182
997.80 0.07178
997.90 0.07175
998.00 0.07171
998.10 0.07167
998.20 0.07163
998.30 0.0716
998.40 0.07156
998.50 0.07152
998.60 0.07149
998.70 0.07145
998.80 0.07141
998.90 0.07138
999.00 0.07134
999.10 0.0713
999.20 0.07127
999.30 0.07123
999.40 0.07119
999.50 0.07116
999.60 0.07112
999.70 0.07108
999.80 0.07104
999.90 0.07101
1000.00 0.07097
1000.10 0.07093
1000.20 0.0709
1000.30 0.07086
1000.40 0.07082
1000.50 0.07079
1000.60 0.07075
1000.70 0.07072
1000.80 0.07068
1000.90 0.07064
1001.00 0.07061
1001.10 0.07057
1001.20 0.07053
1001.30 0.0705
1001.40 0.07046
1001.50 0.07042
1001.60 0.07039
1001.70 0.07035
1001.80 0.07032
1001.90 0.07028
1002.00 0.07025
1002.10 0.07022
1002.20 0.07018
1002.30 0.07015
1002.40 0.07012
1002.50 0.07008
1002.60 0.07005
1002.70 0.07002
1002.80 0.06999
1002.90 0.06995
1003.00 0.06992
1003.10 0.06989
1003.20 0.06986
1003.30 0.06983
1003.40 0.0698
1003.50 0.06977
1003.60 0.06974
1003.70 0.06971
1003.80 0.06969
1003.90 0.06966
1004.00 0.06963
1004.10 0.06961
1004.20 0.06958
1004.30 0.06956
1004.40 0.06954
1004.50 0.06952
1004.60 0.0695
1004.70 0.06948
1004.80 0.06946
1004.90 0.06943
1005.00 0.06941
1005.10 0.06938
1005.20 0.06935
1005.30 0.06931
1005.40 0.06928
1005.50 0.06925
1005.60 0.06923
1005.70 0.0692
1005.80 0.06917
1005.90 0.06915
1006.00 0.06912
1006.10 0.06909
1006.20 0.06907
1006.30 0.06905
1006.40 0.06902
1006.50 0.069
1006.60 0.06898
1006.70 0.06896
1006.80 0.06894
1006.90 0.06891
1007.00 0.06889
1007.10 0.06887
1007.20 0.06885
1007.30 0.06883
1007.40 0.06881
1007.50 0.0688
1007.60 0.06878
1007.70 0.06876
1007.80 0.06874
1007.90 0.06873
1008.00 0.06871
1008.10 0.06869
1008.20 0.06867
1008.30 0.06866
1008.40 0.06864
1008.50 0.06862
1008.60 0.06861
1008.70 0.06859
1008.80 0.06857
1008.90 0.06856
1009.00 0.06854
1009.10 0.06852
1009.20 0.06851
1009.30 0.06849
1009.40 0.06847
1009.50 0.06846
1009.60 0.06844
1009.70 0.06842
1009.80 0.06841
1009.90 0.06839
1010.00 0.06837
1010.10 0.06836
1010.20 0.06834
1010.30 0.06833
1010.40 0.06831
1010.50 0.0683
1010.60 0.06828
1010.70 0.06826
1010.80 0.06825
1010.90 0.06823
1011.00 0.06822
1011.10 0.0682
1011.20 0.06818
1011.30 0.06817
1011.40 0.06815
1011.50 0.06814
1011.60 0.06812
1011.70 0.06811
1011.80 0.06809
1011.90 0.06807
1012.00 0.06806
1012.10 0.06804
1012.20 0.06803
1012.30 0.06801
1012.40 0.06799
1012.50 0.06798
1012.60 0.06796
1012.70 0.06794
1012.80 0.06793
1012.90 0.06791
1013.00 0.0679
1013.10 0.06788
1013.20 0.06786
1013.30 0.06785
1013.40 0.06783
1013.50 0.06781
1013.60 0.0678
1013.70 0.06778
1013.80 0.06776
1013.90 0.06775
1014.00 0.06773
1014.10 0.06771
1014.20 0.0677
1014.30 0.06768
1014.40 0.06766
1014.50 0.06765
1014.60 0.06763
1014.70 0.06761
1014.80 0.0676
1014.90 0.06758
1015.00 0.06756
1015.10 0.06754
1015.20 0.06753
1015.30 0.06751
1015.40 0.06749
1015.50 0.06747
1015.60 0.06746
1015.70 0.06744
1015.80 0.06742
1015.90 0.06741
1016.00 0.06739
1016.10 0.06737
1016.20 0.06735
1016.30 0.06734
1016.40 0.06732
1016.50 0.0673
1016.60 0.06728
1016.70 0.06727
1016.80 0.06725
1016.90 0.06723
1017.00 0.06721
1017.10 0.06719
1017.20 0.06718
1017.30 0.06716
1017.40 0.06714
1017.50 0.06712
1017.60 0.0671
1017.70 0.06708
1017.80 0.06707
1017.90 0.06705
1018.00 0.06703
1018.10 0.06701
1018.20 0.06699
1018.30 0.06698
1018.40 0.06696
1018.50 0.06694
1018.60 0.06692
1018.70 0.0669
1018.80 0.06688
1018.90 0.06686
1019.00 0.06684
1019.10 0.06683
1019.20 0.06681
1019.30 0.06679
1019.40 0.06677
1019.50 0.06675
1019.60 0.06673
1019.70 0.06671
1019.80 0.06669
1019.90 0.06667
1020.00 0.06665
1020.10 0.06663
1020.20 0.06662
1020.30 0.0666
1020.40 0.06658
1020.50 0.06656
1020.60 0.06654
1020.70 0.06652
1020.80 0.0665
1020.90 0.06648
1021.00 0.06646
1021.10 0.06644
1021.20 0.06642
1021.30 0.0664
1021.40 0.06638
1021.50 0.06636
1021.60 0.06634
1021.70 0.06632
1021.80 0.0663
1021.90 0.06628
1022.00 0.06627
1022.10 0.06624
1022.20 0.06622
1022.30 0.0662
1022.40 0.06618
1022.50 0.06616
1022.60 0.06614
1022.70 0.06612
1022.80 0.0661
1022.90 0.06608
1023.00 0.06606
1023.10 0.06604
1023.20 0.06602
1023.30 0.066
1023.40 0.06598
1023.50 0.06596
1023.60 0.06594
1023.70 0.06592
1023.80 0.0659
1023.90 0.06588
1024.00 0.06586
1024.10 0.06584
1024.20 0.06582
1024.30 0.0658
1024.40 0.06578
1024.50 0.06576
1024.60 0.06574
1024.70 0.06572
1024.80 0.0657
1024.90 0.06568
1025.00 0.06566
1025.10 0.06563
1025.20 0.06561
1025.30 0.06559
1025.40 0.06557
1025.50 0.06555
1025.60 0.06553
1025.70 0.06551
1025.80 0.06549
1025.90 0.06547
1026.00 0.06545
1026.10 0.06543
1026.20 0.06541
1026.30 0.06538
1026.40 0.06536
1026.50 0.06534
1026.60 0.06532
1026.70 0.0653
1026.80 0.06528
1026.90 0.06526
1027.00 0.06524
1027.10 0.06522
1027.20 0.0652
1027.30 0.06517
1027.40 0.06515
1027.50 0.06513
1027.60 0.06511
1027.70 0.06509
1027.80 0.06507
1027.90 0.06504
1028.00 0.06502
1028.10 0.065
1028.20 0.06498
1028.30 0.06496
1028.40 0.06494
1028.50 0.06491
1028.60 0.06489
1028.70 0.06487
1028.80 0.06485
1028.90 0.06483
1029.00 0.06481
1029.10 0.06478
1029.20 0.06476
1029.30 0.06474
1029.40 0.06472
1029.50 0.0647
1029.60 0.06468
1029.70 0.06466
1029.80 0.06463
1029.90 0.06461
1030.00 0.06459
1030.10 0.06457
1030.20 0.06455
1030.30 0.06453
1030.40 0.0645
1030.50 0.06448
1030.60 0.06446
1030.70 0.06444
1030.80 0.06442
1030.90 0.0644
1031.00 0.06438
1031.10 0.06435
1031.20 0.06433
1031.30 0.06431
1031.40 0.06429
1031.50 0.06427
1031.60 0.06425
1031.70 0.06423
1031.80 0.0642
1031.90 0.06418
1032.00 0.06416
1032.10 0.06414
1032.20 0.06412
1032.30 0.0641
1032.40 0.06407
1032.50 0.06405
1032.60 0.06403
1032.70 0.06401
1032.80 0.06398
1032.90 0.06396
1033.00 0.06394
1033.10 0.06392
1033.20 0.06389
1033.30 0.06387
1033.40 0.06385
1033.50 0.06383
1033.60 0.06381
1033.70 0.06378
1033.80 0.06376
1033.90 0.06374
1034.00 0.06372
1034.10 0.0637
1034.20 0.06367
1034.30 0.06365
1034.40 0.06363
1034.50 0.06361
1034.60 0.06358
1034.70 0.06356
1034.80 0.06354
1034.90 0.06352
1035.00 0.0635
1035.10 0.06347
1035.20 0.06345
1035.30 0.06343
1035.40 0.06341
1035.50 0.06339
1035.60 0.06336
1035.70 0.06334
1035.80 0.06332
1035.90 0.0633
1036.00 0.06328
1036.10 0.06325
1036.20 0.06323
1036.30 0.06321
1036.40 0.06319
1036.50 0.06317
1036.60 0.06314
1036.70 0.06312
1036.80 0.0631
1036.90 0.06308
1037.00 0.06306
1037.10 0.06303
1037.20 0.06301
1037.30 0.06299
1037.40 0.06297
1037.50 0.06294
1037.60 0.06292
1037.70 0.0629
1037.80 0.06288
1037.90 0.06285
1038.00 0.06283
1038.10 0.06281
1038.20 0.06278
1038.30 0.06276
1038.40 0.06274
1038.50 0.06272
1038.60 0.06269
1038.70 0.06267
1038.80 0.06265
1038.90 0.06263
1039.00 0.06261
1039.10 0.06258
1039.20 0.06256
1039.30 0.06254
1039.40 0.06252
1039.50 0.06249
1039.60 0.06247
1039.70 0.06245
1039.80 0.06243
1039.90 0.0624
1040.00 0.06238
1040.10 0.06236
1040.20 0.06234
1040.30 0.06231
1040.40 0.06229
1040.50 0.06227
1040.60 0.06225
1040.70 0.06222
1040.80 0.0622
1040.90 0.06218
1041.00 0.06216
1041.10 0.06213
1041.20 0.06211
1041.30 0.06209
1041.40 0.06207
1041.50 0.06205
1041.60 0.06202
1041.70 0.062
1041.80 0.06198
1041.90 0.06196
1042.00 0.06193
1042.10 0.06191
1042.20 0.06189
1042.30 0.06187
1042.40 0.06184
1042.50 0.06182
1042.60 0.0618
1042.70 0.06177
1042.80 0.06175
1042.90 0.06173
1043.00 0.06171
1043.10 0.06168
1043.20 0.06166
1043.30 0.06164
1043.40 0.06162
1043.50 0.06159
1043.60 0.06157
1043.70 0.06155
1043.80 0.06153
1043.90 0.0615
1044.00 0.06148
1044.10 0.06146
1044.20 0.06143
1044.30 0.06141
1044.40 0.06139
1044.50 0.06137
1044.60 0.06134
1044.70 0.06132
1044.80 0.0613
1044.90 0.06128
1045.00 0.06125
1045.10 0.06123
1045.20 0.06121
1045.30 0.06119
1045.40 0.06116
1045.50 0.06114
1045.60 0.06112
1045.70 0.0611
1045.80 0.06107
1045.90 0.06105
1046.00 0.06103
1046.10 0.06101
1046.20 0.06098
1046.30 0.06096
1046.40 0.06094
1046.50 0.06092
1046.60 0.06089
1046.70 0.06087
1046.80 0.06085
1046.90 0.06083
1047.00 0.0608
1047.10 0.06078
1047.20 0.06076
1047.30 0.06074
1047.40 0.06071
1047.50 0.06069
1047.60 0.06067
1047.70 0.06064
1047.80 0.06062
1047.90 0.0606
1048.00 0.06058
1048.10 0.06055
1048.20 0.06053
1048.30 0.06051
1048.40 0.06048
1048.50 0.06046
1048.60 0.06044
1048.70 0.06042
1048.80 0.06039
1048.90 0.06037
1049.00 0.06035
1049.10 0.06032
1049.20 0.0603
1049.30 0.06028
1049.40 0.06026
1049.50 0.06023
1049.60 0.06021
1049.70 0.06019
1049.80 0.06017
1049.90 0.06014
1050.00 0.06012
1050.10 0.0601
1050.20 0.06007
1050.30 0.06005
1050.40 0.06003
1050.50 0.06001
1050.60 0.05998
1050.70 0.05996
1050.80 0.05994
1050.90 0.05992
1051.00 0.05989
1051.10 0.05987
1051.20 0.05985
1051.30 0.05983
1051.40 0.0598
1051.50 0.05978
1051.60 0.05976
1051.70 0.05974
1051.80 0.05971
1051.90 0.05969
1052.00 0.05967
1052.10 0.05964
1052.20 0.05962
1052.30 0.0596
1052.40 0.05958
1052.50 0.05955
1052.60 0.05953
1052.70 0.05951
1052.80 0.05948
1052.90 0.05946
1053.00 0.05944
1053.10 0.05941
1053.20 0.05939
1053.30 0.05937
1053.40 0.05935
1053.50 0.05932
1053.60 0.0593
1053.70 0.05928
1053.80 0.05925
1053.90 0.05923
1054.00 0.05921
1054.10 0.05919
1054.20 0.05916
1054.30 0.05914
1054.40 0.05912
1054.50 0.05909
1054.60 0.05907
1054.70 0.05905
1054.80 0.05902
1054.90 0.059
1055.00 0.05898
1055.10 0.05896
1055.20 0.05893
1055.30 0.05891
1055.40 0.05889
1055.50 0.05887
1055.60 0.05884
1055.70 0.05882
1055.80 0.0588
1055.90 0.05877
1056.00 0.05875
1056.10 0.05873
1056.20 0.05871
1056.30 0.05868
1056.40 0.05866
1056.50 0.05864
1056.60 0.05861
1056.70 0.05859
1056.80 0.05857
1056.90 0.05855
1057.00 0.05852
1057.10 0.0585
1057.20 0.05848
1057.30 0.05845
1057.40 0.05843
1057.50 0.05841
1057.60 0.05838
1057.70 0.05836
1057.80 0.05834
1057.90 0.05831
1058.00 0.05829
1058.10 0.05827
1058.20 0.05824
1058.30 0.05822
1058.40 0.0582
1058.50 0.05817
1058.60 0.05815
1058.70 0.05813
1058.80 0.0581
1058.90 0.05808
1059.00 0.05806
1059.10 0.05803
1059.20 0.05801
1059.30 0.05799
1059.40 0.05796
1059.50 0.05794
1059.60 0.05792
1059.70 0.0579
1059.80 0.05787
1059.90 0.05785
1060.00 0.05783
1060.10 0.0578
1060.20 0.05778
1060.30 0.05776
1060.40 0.05773
1060.50 0.05771
1060.60 0.05769
1060.70 0.05766
1060.80 0.05764
1060.90 0.05762
1061.00 0.05759
1061.10 0.05757
1061.20 0.05755
1061.30 0.05753
1061.40 0.0575
1061.50 0.05748
1061.60 0.05746
1061.70 0.05743
1061.80 0.05741
1061.90 0.05739
1062.00 0.05736
1062.10 0.05734
1062.20 0.05732
1062.30 0.05729
1062.40 0.05727
1062.50 0.05724
1062.60 0.05722
1062.70 0.0572
1062.80 0.05717
1062.90 0.05715
1063.00 0.05713
1063.10 0.0571
1063.20 0.05708
1063.30 0.05705
1063.40 0.05703
1063.50 0.05701
1063.60 0.05698
1063.70 0.05696
1063.80 0.05693
1063.90 0.05691
1064.00 0.05689
1064.10 0.05686
1064.20 0.05684
1064.30 0.05682
1064.40 0.05679
1064.50 0.05677
1064.60 0.05674
1064.70 0.05672
1064.80 0.0567
1064.90 0.05667
1065.00 0.05665
1065.10 0.05663
1065.20 0.0566
1065.30 0.05658
1065.40 0.05655
1065.50 0.05653
1065.60 0.05651
1065.70 0.05648
1065.80 0.05646
1065.90 0.05644
1066.00 0.05641
1066.10 0.05639
1066.20 0.05636
1066.30 0.05634
1066.40 0.05632
1066.50 0.05629
1066.60 0.05627
1066.70 0.05625
1066.80 0.05622
1066.90 0.0562
1067.00 0.05618
1067.10 0.05615
1067.20 0.05613
1067.30 0.0561
1067.40 0.05608
1067.50 0.05605
1067.60 0.05603
1067.70 0.056
1067.80 0.05598
1067.90 0.05595
1068.00 0.05593
1068.10 0.0559
1068.20 0.05588
1068.30 0.05585
1068.40 0.05583
1068.50 0.0558
1068.60 0.05578
1068.70 0.05575
1068.80 0.05573
1068.90 0.0557
1069.00 0.05568
1069.10 0.05565
1069.20 0.05563
1069.30 0.0556
1069.40 0.05558
1069.50 0.05555
1069.60 0.05553
1069.70 0.0555
1069.80 0.05548
1069.90 0.05545
1070.00 0.05543
1070.10 0.05541
1070.20 0.05538
1070.30 0.05536
1070.40 0.05533
1070.50 0.05531
1070.60 0.05528
1070.70 0.05526
1070.80 0.05523
1070.90 0.05521
1071.00 0.05518
1071.10 0.05516
1071.20 0.05513
1071.30 0.05511
1071.40 0.05508
1071.50 0.05506
1071.60 0.05503
1071.70 0.05501
1071.80 0.05499
1071.90 0.05496
1072.00 0.05494
1072.10 0.05491
1072.20 0.05488
1072.30 0.05486
1072.40 0.05483
1072.50 0.05481
1072.60 0.05478
1072.70 0.05476
1072.80 0.05473
1072.90 0.0547
1073.00 0.05468
1073.10 0.05465
1073.20 0.05463
1073.30 0.0546
1073.40 0.05458
1073.50 0.05455
1073.60 0.05452
1073.70 0.0545
1073.80 0.05447
1073.90 0.05444
1074.00 0.05441
1074.10 0.05439
1074.20 0.05436
1074.30 0.05433
1074.40 0.05431
1074.50 0.05428
1074.60 0.05425
1074.70 0.05423
1074.80 0.0542
1074.90 0.05417
1075.00 0.05415
1075.10 0.05412
1075.20 0.05409
1075.30 0.05407
1075.40 0.05404
1075.50 0.05401
1075.60 0.05399
1075.70 0.05396
1075.80 0.05393
1075.90 0.05391
1076.00 0.05388
1076.10 0.05385
1076.20 0.05383
1076.30 0.0538
1076.40 0.05377
1076.50 0.05375
1076.60 0.05372
1076.70 0.05369
1076.80 0.05367
1076.90 0.05364
1077.00 0.05361
1077.10 0.05358
1077.20 0.05356
1077.30 0.05353
1077.40 0.0535
1077.50 0.05347
1077.60 0.05345
1077.70 0.05342
1077.80 0.05339
1077.90 0.05336
1078.00 0.05333
1078.10 0.0533
1078.20 0.05327
1078.30 0.05325
1078.40 0.05322
1078.50 0.05319
1078.60 0.05316
1078.70 0.05313
1078.80 0.0531
1078.90 0.05308
1079.00 0.05305
1079.10 0.05302
1079.20 0.05299
1079.30 0.05296
1079.40 0.05293
1079.50 0.05291
1079.60 0.05288
1079.70 0.05285
1079.80 0.05282
1079.90 0.05279
1080.00 0.05276
1080.10 0.05273
1080.20 0.0527
1080.30 0.05267
1080.40 0.05264
1080.50 0.05261
1080.60 0.05258
1080.70 0.05255
1080.80 0.05252
1080.90 0.05249
1081.00 0.05246
1081.10 0.05243
1081.20 0.0524
1081.30 0.05237
1081.40 0.05234
1081.50 0.05231
1081.60 0.05228
1081.70 0.05225
1081.80 0.05222
1081.90 0.05219
1082.00 0.05216
1082.10 0.05213
1082.20 0.0521
1082.30 0.05207
1082.40 0.05204
1082.50 0.052
1082.60 0.05197
1082.70 0.05194
1082.80 0.05191
1082.90 0.05188
1083.00 0.05185
1083.10 0.05182
1083.20 0.05179
1083.30 0.05176
1083.40 0.05172
1083.50 0.05169
1083.60 0.05166
1083.70 0.05163
1083.80 0.0516
1083.90 0.05156
1084.00 0.05153
1084.10 0.0515
1084.20 0.05147
1084.30 0.05144
1084.40 0.0514
1084.50 0.05137
1084.60 0.05134
1084.70 0.05131
1084.80 0.05127
1084.90 0.05124
1085.00 0.05121
1085.10 0.05117
1085.20 0.05114
1085.30 0.05111
1085.40 0.05107
1085.50 0.05104
1085.60 0.05101
1085.70 0.05097
1085.80 0.05094
1085.90 0.05091
1086.00 0.05088
1086.10 0.05084
1086.20 0.05081
1086.30 0.05078
1086.40 0.05074
1086.50 0.05071
1086.60 0.05068
1086.70 0.05064
1086.80 0.05061
1086.90 0.05057
1087.00 0.05054
1087.10 0.05051
1087.20 0.05047
1087.30 0.05044
1087.40 0.0504
1087.50 0.05037
1087.60 0.05033
1087.70 0.0503
1087.80 0.05026
1087.90 0.05023
1088.00 0.05019
1088.10 0.05016
1088.20 0.05012
1088.30 0.05009
1088.40 0.05005
1088.50 0.05002
1088.60 0.04998
1088.70 0.04995
1088.80 0.04991
1088.90 0.04987
1089.00 0.04984
1089.10 0.0498
1089.20 0.04977
1089.30 0.04973
1089.40 0.04969
1089.50 0.04966
1089.60 0.04962
1089.70 0.04959
1089.80 0.04955
1089.90 0.04951
1090.00 0.04948
1090.10 0.04944
1090.20 0.04941
1090.30 0.04937
1090.40 0.04933
1090.50 0.0493
1090.60 0.04926
1090.70 0.04922
1090.80 0.04918
1090.90 0.04914
1091.00 0.0491
1091.10 0.04906
1091.20 0.04902
1091.30 0.04899
1091.40 0.04895
1091.50 0.04891
1091.60 0.04887
1091.70 0.04883
1091.80 0.04879
1091.90 0.04875
1092.00 0.04871
1092.10 0.04867
1092.20 0.04863
1092.30 0.04858
1092.40 0.04854
1092.50 0.0485
1092.60 0.04845
1092.70 0.04841
1092.80 0.04836
1092.90 0.04832
1093.00 0.04827
1093.10 0.04822
1093.20 0.04817
1093.30 0.04813
1093.40 0.04808
1093.50 0.04803
1093.60 0.04799
1093.70 0.04796
1093.80 0.04794
1093.90 0.04793
1094.00 0.04794
1094.10 0.04795
1094.20 0.04796
1094.30 0.04797
1094.40 0.04799
1094.50 0.048
1094.60 0.04801
1094.70 0.04803
1094.80 0.04804
1094.90 0.04806
1095.00 0.04807
1095.10 0.04808
1095.20 0.04809
1095.30 0.04809
1095.40 0.0481
1095.50 0.04811
1095.60 0.04812
1095.70 0.04812
1095.80 0.04813
1095.90 0.04814
1096.00 0.04815
1096.10 0.04816
1096.20 0.04816
1096.30 0.04817
1096.40 0.04818
1096.50 0.04819
1096.60 0.04819
1096.70 0.04819
1096.80 0.0482
1096.90 0.0482
1097.00 0.04821
1097.10 0.04821
1097.20 0.04821
1097.30 0.04821
1097.40 0.04822
1097.50 0.04822
1097.60 0.04822
1097.70 0.04822
1097.80 0.04823
1097.90 0.04823
1098.00 0.04823
1098.10 0.04823
1098.20 0.04823
1098.30 0.04824
1098.40 0.04824
1098.50 0.04824
1098.60 0.04824
1098.70 0.04824
1098.80 0.04824
1098.90 0.04824
1099.00 0.04824
1099.10 0.04824
1099.20 0.04824
1099.30 0.04824
1099.40 0.04824
1099.50 0.04824
1099.60 0.04824
1099.70 0.04824
1099.80 0.04824
1099.90 0.04824
1100.00 0.04824
1100.10 0.04824
1100.20 0.04824
1100.30 0.04825
1100.40 0.04825
1100.50 0.04825
1100.60 0.04824
1100.70 0.04824
1100.80 0.04824
1100.90 0.04824
1101.00 0.04824
1101.10 0.04824
1101.20 0.04824
1101.30 0.04823
1101.40 0.04823
1101.50 0.04823
1101.60 0.04823
1101.70 0.04823
1101.80 0.04823
1101.90 0.04822
1102.00 0.04822
1102.10 0.04822
1102.20 0.04822
1102.30 0.04822
1102.40 0.04821
1102.50 0.04821
1102.60 0.04821
1102.70 0.0482
1102.80 0.0482
1102.90 0.0482
1103.00 0.0482
1103.10 0.04819
1103.20 0.04819
1103.30 0.04819
1103.40 0.04818
1103.50 0.04818
1103.60 0.04818
1103.70 0.04817
1103.80 0.04817
1103.90 0.04816
1104.00 0.04816
1104.10 0.04815
1104.20 0.04815
1104.30 0.04814
1104.40 0.04814
1104.50 0.04813
1104.60 0.04813
1104.70 0.04813
1104.80 0.04812
1104.90 0.04812
1105.00 0.04811
1105.10 0.04811
1105.20 0.0481
1105.30 0.0481
1105.40 0.04809
1105.50 0.04809
1105.60 0.04808
1105.70 0.04808
1105.80 0.04807
1105.90 0.04807
1106.00 0.04806
1106.10 0.04805
1106.20 0.04805
1106.30 0.04804
1106.40 0.04804
1106.50 0.04803
1106.60 0.04802
1106.70 0.04802
1106.80 0.04801
1106.90 0.04801
1107.00 0.048
1107.10 0.04799
1107.20 0.04799
1107.30 0.04798
1107.40 0.04797
1107.50 0.04797
1107.60 0.04796
1107.70 0.04795
1107.80 0.04794
1107.90 0.04793
1108.00 0.04793
1108.10 0.04792
1108.20 0.04791
1108.30 0.0479
1108.40 0.0479
1108.50 0.04789
1108.60 0.04788
1108.70 0.04787
1108.80 0.04787
1108.90 0.04786
1109.00 0.04785
1109.10 0.04784
1109.20 0.04783
1109.30 0.04783
1109.40 0.04782
1109.50 0.04781
1109.60 0.0478
1109.70 0.04779
1109.80 0.04778
1109.90 0.04777
1110.00 0.04776
1110.10 0.04776
1110.20 0.04775
1110.30 0.04774
1110.40 0.04773
1110.50 0.04772
1110.60 0.04771
1110.70 0.0477
1110.80 0.04769
1110.90 0.04768
1111.00 0.04767
1111.10 0.04766
1111.20 0.04765
1111.30 0.04765
1111.40 0.04764
1111.50 0.04763
1111.60 0.04762
1111.70 0.04761
1111.80 0.0476
1111.90 0.04759
1112.00 0.04758
1112.10 0.04757
1112.20 0.04756
1112.30 0.04755
1112.40 0.04754
1112.50 0.04753
1112.60 0.04752
1112.70 0.04751
1112.80 0.0475
1112.90 0.04749
1113.00 0.04748
1113.10 0.04747
1113.20 0.04746
1113.30 0.04745
1113.40 0.04744
1113.50 0.04743
1113.60 0.04741
1113.70 0.0474
1113.80 0.04739
1113.90 0.04738
1114.00 0.04737
1114.10 0.04736
1114.20 0.04735
1114.30 0.04734
1114.40 0.04732
1114.50 0.04731
1114.60 0.0473
1114.70 0.04729
1114.80 0.04728
1114.90 0.04727
1115.00 0.04726
1115.10 0.04724
1115.20 0.04723
1115.30 0.04722
1115.40 0.04721
1115.50 0.0472
1115.60 0.04719
1115.70 0.04718
1115.80 0.04716
1115.90 0.04715
1116.00 0.04714
1116.10 0.04713
1116.20 0.04712
1116.30 0.04711
1116.40 0.0471
1116.50 0.04709
1116.60 0.04707
1116.70 0.04706
1116.80 0.04705
1116.90 0.04704
1117.00 0.04703
1117.10 0.04702
1117.20 0.047
1117.30 0.04699
1117.40 0.04698
1117.50 0.04696
1117.60 0.04695
1117.70 0.04694
1117.80 0.04693
1117.90 0.04691
1118.00 0.0469
1118.10 0.04689
1118.20 0.04688
1118.30 0.04686
1118.40 0.04685
1118.50 0.04684
1118.60 0.04682
1118.70 0.04681
1118.80 0.0468
1118.90 0.04679
1119.00 0.04677
1119.10 0.04676
1119.20 0.04675
1119.30 0.04674
1119.40 0.04672
1119.50 0.04671
1119.60 0.0467
1119.70 0.04668
1119.80 0.04667
1119.90 0.04666
1120.00 0.04665
1120.10 0.04663
1120.20 0.04662
1120.30 0.04661
1120.40 0.0466
1120.50 0.04658
1120.60 0.04657
1120.70 0.04656
1120.80 0.04655
1120.90 0.04653
1121.00 0.04652
1121.10 0.04651
1121.20 0.04649
1121.30 0.04648
1121.40 0.04647
1121.50 0.04646
1121.60 0.04644
1121.70 0.04643
1121.80 0.04642
1121.90 0.04641
1122.00 0.04639
1122.10 0.04638
1122.20 0.04637
1122.30 0.04635
1122.40 0.04634
1122.50 0.04633
1122.60 0.04631
1122.70 0.0463
1122.80 0.04628
1122.90 0.04627
1123.00 0.04626
1123.10 0.04624
1123.20 0.04623
1123.30 0.04622
1123.40 0.0462
1123.50 0.04619
1123.60 0.04617
1123.70 0.04616
1123.80 0.04615
1123.90 0.04613
1124.00 0.04612
1124.10 0.04611
1124.20 0.04609
1124.30 0.04608
1124.40 0.04607
1124.50 0.04605
1124.60 0.04604
1124.70 0.04602
1124.80 0.04601
1124.90 0.046
1125.00 0.04598
1125.10 0.04597
1125.20 0.04596
1125.30 0.04594
1125.40 0.04593
1125.50 0.04592
1125.60 0.0459
1125.70 0.04589
1125.80 0.04587
1125.90 0.04586
1126.00 0.04585
1126.10 0.04583
1126.20 0.04582
1126.30 0.04581
1126.40 0.04579
1126.50 0.04578
1126.60 0.04577
1126.70 0.04575
1126.80 0.04574
1126.90 0.04573
1127.00 0.04571
1127.10 0.0457
1127.20 0.04568
1127.30 0.04567
1127.40 0.04566
1127.50 0.04564
1127.60 0.04563
1127.70 0.04561
1127.80 0.0456
1127.90 0.04558
1128.00 0.04557
1128.10 0.04556
1128.20 0.04554
1128.30 0.04553
1128.40 0.04551
1128.50 0.0455
1128.60 0.04549
1128.70 0.04547
1128.80 0.04546
1128.90 0.04544
1129.00 0.04543
1129.10 0.04541
1129.20 0.0454
1129.30 0.04539
1129.40 0.04537
1129.50 0.04536
1129.60 0.04534
1129.70 0.04533
1129.80 0.04532
1129.90 0.0453
1130.00 0.04529
1130.10 0.04527
1130.20 0.04526
1130.30 0.04525
1130.40 0.04523
1130.50 0.04522
1130.60 0.0452
1130.70 0.04519
1130.80 0.04517
1130.90 0.04516
1131.00 0.04515
1131.10 0.04513
1131.20 0.04512
1131.30 0.0451
1131.40 0.04509
1131.50 0.04508
1131.60 0.04506
1131.70 0.04505
1131.80 0.04503
1131.90 0.04502
1132.00 0.04501
1132.10 0.04499
1132.20 0.04498
1132.30 0.04496
1132.40 0.04495
1132.50 0.04493
1132.60 0.04492
1132.70 0.04491
1132.80 0.04489
1132.90 0.04488
1133.00 0.04486
1133.10 0.04485
1133.20 0.04483
1133.30 0.04482
1133.40 0.04481
1133.50 0.04479
1133.60 0.04478
1133.70 0.04476
1133.80 0.04475
1133.90 0.04473
1134.00 0.04472
1134.10 0.0447
1134.20 0.04469
1134.30 0.04468
1134.40 0.04466
1134.50 0.04465
1134.60 0.04463
1134.70 0.04462
1134.80 0.0446
1134.90 0.04459
1135.00 0.04458
1135.10 0.04456
1135.20 0.04455
1135.30 0.04453
1135.40 0.04452
1135.50 0.0445
1135.60 0.04449
1135.70 0.04448
1135.80 0.04446
1135.90 0.04445
1136.00 0.04443
1136.10 0.04442
1136.20 0.0444
1136.30 0.04439
1136.40 0.04438
1136.50 0.04436
1136.60 0.04435
1136.70 0.04433
1136.80 0.04432
1136.90 0.04431
1137.00 0.04429
1137.10 0.04428
1137.20 0.04426
1137.30 0.04425
1137.40 0.04423
1137.50 0.04422
1137.60 0.0442
1137.70 0.04419
1137.80 0.04418
1137.90 0.04416
1138.00 0.04415
1138.10 0.04413
1138.20 0.04412
1138.30 0.0441
1138.40 0.04409
1138.50 0.04407
1138.60 0.04406
1138.70 0.04405
1138.80 0.04403
1138.90 0.04402
1139.00 0.044
1139.10 0.04399
1139.20 0.04397
1139.30 0.04396
1139.40 0.04395
1139.50 0.04393
1139.60 0.04392
1139.70 0.0439
1139.80 0.04389
1139.90 0.04387
1140.00 0.04386
1140.10 0.04385
1140.20 0.04383
1140.30 0.04382
1140.40 0.0438
1140.50 0.04379
1140.60 0.04377
1140.70 0.04376
1140.80 0.04375
1140.90 0.04373
1141.00 0.04372
1141.10 0.0437
1141.20 0.04369
1141.30 0.04367
1141.40 0.04366
1141.50 0.04365
1141.60 0.04363
1141.70 0.04362
1141.80 0.0436
1141.90 0.04359
1142.00 0.04357
1142.10 0.04356
1142.20 0.04355
1142.30 0.04353
1142.40 0.04352
1142.50 0.0435
1142.60 0.04349
1142.70 0.04347
1142.80 0.04346
1142.90 0.04345
1143.00 0.04343
1143.10 0.04342
1143.20 0.0434
1143.30 0.04339
1143.40 0.04337
1143.50 0.04336
1143.60 0.04335
1143.70 0.04333
1143.80 0.04332
1143.90 0.0433
1144.00 0.04329
1144.10 0.04327
1144.20 0.04326
1144.30 0.04325
1144.40 0.04323
1144.50 0.04322
1144.60 0.0432
1144.70 0.04319
1144.80 0.04317
1144.90 0.04316
1145.00 0.04315
1145.10 0.04313
1145.20 0.04312
1145.30 0.0431
1145.40 0.04309
1145.50 0.04307
1145.60 0.04306
1145.70 0.04305
1145.80 0.04303
1145.90 0.04302
1146.00 0.043
1146.10 0.04299
1146.20 0.04298
1146.30 0.04296
1146.40 0.04295
1146.50 0.04293
1146.60 0.04292
1146.70 0.0429
1146.80 0.04289
1146.90 0.04288
1147.00 0.04286
1147.10 0.04285
1147.20 0.04283
1147.30 0.04282
1147.40 0.04281
1147.50 0.04279
1147.60 0.04278
1147.70 0.04276
1147.80 0.04275
1147.90 0.04273
1148.00 0.04272
1148.10 0.04271
1148.20 0.04269
1148.30 0.04268
1148.40 0.04266
1148.50 0.04265
1148.60 0.04264
1148.70 0.04262
1148.80 0.04261
1148.90 0.04259
1149.00 0.04258
1149.10 0.04256
1149.20 0.04255
1149.30 0.04254
1149.40 0.04252
1149.50 0.04251
1149.60 0.04249
1149.70 0.04248
1149.80 0.04247
1149.90 0.04245
1150.00 0.04244
1150.10 0.04242
1150.20 0.04241
1150.30 0.0424
1150.40 0.04238
1150.50 0.04237
1150.60 0.04235
1150.70 0.04234
1150.80 0.04233
1150.90 0.04231
1151.00 0.0423
1151.10 0.04228
1151.20 0.04227
1151.30 0.04225
1151.40 0.04224
1151.50 0.04223
1151.60 0.04221
1151.70 0.0422
1151.80 0.04218
1151.90 0.04217
1152.00 0.04216
1152.10 0.04214
1152.20 0.04213
1152.30 0.04211
1152.40 0.0421
1152.50 0.04209
1152.60 0.04207
1152.70 0.04206
1152.80 0.04204
1152.90 0.04203
1153.00 0.04202
1153.10 0.042
1153.20 0.04199
1153.30 0.04198
1153.40 0.04196
1153.50 0.04195
1153.60 0.04193
1153.70 0.04192
1153.80 0.04191
1153.90 0.04189
1154.00 0.04188
1154.10 0.04186
1154.20 0.04185
1154.30 0.04184
1154.40 0.04182
1154.50 0.04181
1154.60 0.04179
1154.70 0.04178
1154.80 0.04177
1154.90 0.04175
1155.00 0.04174
1155.10 0.04172
1155.20 0.04171
1155.30 0.0417
1155.40 0.04168
1155.50 0.04167
1155.60 0.04166
1155.70 0.04164
1155.80 0.04163
1155.90 0.04161
1156.00 0.0416
1156.10 0.04159
1156.20 0.04157
1156.30 0.04156
1156.40 0.04154
1156.50 0.04153
1156.60 0.04152
1156.70 0.0415
1156.80 0.04149
1156.90 0.04148
1157.00 0.04146
1157.10 0.04145
1157.20 0.04143
1157.30 0.04142
1157.40 0.04141
1157.50 0.04139
1157.60 0.04138
1157.70 0.04136
1157.80 0.04135
1157.90 0.04134
1158.00 0.04132
1158.10 0.04131
1158.20 0.0413
1158.30 0.04128
1158.40 0.04127
1158.50 0.04125
1158.60 0.04124
1158.70 0.04123
1158.80 0.04121
1158.90 0.0412
1159.00 0.04119
1159.10 0.04117
1159.20 0.04116
1159.30 0.04114
1159.40 0.04113
1159.50 0.04112
1159.60 0.0411
1159.70 0.04109
1159.80 0.04108
1159.90 0.04106
1160.00 0.04105
1160.10 0.04104
1160.20 0.04102
1160.30 0.04101
1160.40 0.04099
1160.50 0.04098
1160.60 0.04097
1160.70 0.04095
1160.80 0.04094
1160.90 0.04093
1161.00 0.04091
1161.10 0.0409
1161.20 0.04089
1161.30 0.04087
1161.40 0.04086
1161.50 0.04084
1161.60 0.04083
1161.70 0.04082
1161.80 0.0408
1161.90 0.04079
1162.00 0.04078
1162.10 0.04076
1162.20 0.04075
1162.30 0.04074
1162.40 0.04072
1162.50 0.04071
1162.60 0.04069
1162.70 0.04068
1162.80 0.04067
1162.90 0.04065
1163.00 0.04064
1163.10 0.04063
1163.20 0.04061
1163.30 0.0406
1163.40 0.04059
1163.50 0.04057
1163.60 0.04056
1163.70 0.04055
1163.80 0.04053
1163.90 0.04052
1164.00 0.04051
1164.10 0.04049
1164.20 0.04048
1164.30 0.04047
1164.40 0.04045
1164.50 0.04044
1164.60 0.04042
1164.70 0.04041
1164.80 0.0404
1164.90 0.04038
1165.00 0.04037
1165.10 0.04036
1165.20 0.04034
1165.30 0.04033
1165.40 0.04032
1165.50 0.0403
1165.60 0.04029
1165.70 0.04028
1165.80 0.04026
1165.90 0.04025
1166.00 0.04024
1166.10 0.04022
1166.20 0.04021
1166.30 0.0402
1166.40 0.04018
1166.50 0.04017
1166.60 0.04016
1166.70 0.04014
1166.80 0.04013
1166.90 0.04012
1167.00 0.0401
1167.10 0.04009
1167.20 0.04008
1167.30 0.04006
1167.40 0.04005
1167.50 0.04004
1167.60 0.04002
1167.70 0.04001
1167.80 0.04
1167.90 0.03998
1168.00 0.03997
1168.10 0.03996
1168.20 0.03994
1168.30 0.03993
1168.40 0.03992
1168.50 0.0399
1168.60 0.03989
1168.70 0.03988
1168.80 0.03986
1168.90 0.03985
1169.00 0.03984
1169.10 0.03982
1169.20 0.03981
1169.30 0.0398
1169.40 0.03978
1169.50 0.03977
1169.60 0.03976
1169.70 0.03974
1169.80 0.03973
1169.90 0.03972
1170.00 0.0397
1170.10 0.03969
1170.20 0.03968
1170.30 0.03967
1170.40 0.03965
1170.50 0.03964
1170.60 0.03963
1170.70 0.03961
1170.80 0.0396
1170.90 0.03959
1171.00 0.03957
1171.10 0.03956
1171.20 0.03955
1171.30 0.03953
1171.40 0.03952
1171.50 0.03951
1171.60 0.03949
1171.70 0.03948
1171.80 0.03947
1171.90 0.03945
1172.00 0.03944
1172.10 0.03943
1172.20 0.03942
1172.30 0.0394
1172.40 0.03939
1172.50 0.03938
1172.60 0.03936
1172.70 0.03935
1172.80 0.03934
1172.90 0.03932
1173.00 0.03931
1173.10 0.0393
1173.20 0.03928
1173.30 0.03927
1173.40 0.03926
1173.50 0.03925
1173.60 0.03923
1173.70 0.03922
1173.80 0.03921
1173.90 0.03919
1174.00 0.03918
1174.10 0.03917
1174.20 0.03915
1174.30 0.03914
1174.40 0.03913
1174.50 0.03912
1174.60 0.0391
1174.70 0.03909
1174.80 0.03908
1174.90 0.03906
1175.00 0.03905
1175.10 0.03904
1175.20 0.03902
1175.30 0.03901
1175.40 0.039
1175.50 0.03899
1175.60 0.03897
1175.70 0.03896
1175.80 0.03895
1175.90 0.03893
1176.00 0.03892
1176.10 0.03891
1176.20 0.03889
1176.30 0.03888
1176.40 0.03887
1176.50 0.03886
1176.60 0.03884
1176.70 0.03883
1176.80 0.03882
1176.90 0.0388
1177.00 0.03879
1177.10 0.03878
1177.20 0.03877
1177.30 0.03875
1177.40 0.03874
1177.50 0.03873
1177.60 0.03871
1177.70 0.0387
1177.80 0.03869
1177.90 0.03868
1178.00 0.03866
1178.10 0.03865
1178.20 0.03864
1178.30 0.03862
1178.40 0.03861
1178.50 0.0386
1178.60 0.03859
1178.70 0.03857
1178.80 0.03856
1178.90 0.03855
1179.00 0.03854
1179.10 0.03852
1179.20 0.03851
1179.30 0.0385
1179.40 0.03848
1179.50 0.03847
1179.60 0.03846
1179.70 0.03845
1179.80 0.03843
1179.90 0.03842
1180.00 0.03841
1180.10 0.0384
1180.20 0.03838
1180.30 0.03837
1180.40 0.03836
1180.50 0.03834
1180.60 0.03833
1180.70 0.03832
1180.80 0.03831
1180.90 0.03829
1181.00 0.03828
1181.10 0.03827
1181.20 0.03826
1181.30 0.03824
1181.40 0.03823
1181.50 0.03822
1181.60 0.0382
1181.70 0.03819
1181.80 0.03818
1181.90 0.03817
1182.00 0.03815
1182.10 0.03814
1182.20 0.03813
1182.30 0.03812
1182.40 0.0381
1182.50 0.03809
1182.60 0.03808
1182.70 0.03807
1182.80 0.03805
1182.90 0.03804
1183.00 0.03803
1183.10 0.03802
1183.20 0.038
1183.30 0.03799
1183.40 0.03798
1183.50 0.03797
1183.60 0.03795
1183.70 0.03794
1183.80 0.03793
1183.90 0.03791
1184.00 0.0379
1184.10 0.03789
1184.20 0.03788
1184.30 0.03786
1184.40 0.03785
1184.50 0.03784
1184.60 0.03783
1184.70 0.03781
1184.80 0.0378
1184.90 0.03779
1185.00 0.03778
1185.10 0.03776
1185.20 0.03775
1185.30 0.03774
1185.40 0.03773
1185.50 0.03771
1185.60 0.0377
1185.70 0.03769
1185.80 0.03768
1185.90 0.03766
1186.00 0.03765
1186.10 0.03764
1186.20 0.03763
1186.30 0.03761
1186.40 0.0376
1186.50 0.03759
1186.60 0.03758
1186.70 0.03756
1186.80 0.03755
1186.90 0.03754
1187.00 0.03753
1187.10 0.03752
1187.20 0.0375
1187.30 0.03749
1187.40 0.03748
1187.50 0.03747
1187.60 0.03745
1187.70 0.03744
1187.80 0.03743
1187.90 0.03742
1188.00 0.0374
1188.10 0.03739
1188.20 0.03738
1188.30 0.03737
1188.40 0.03735
1188.50 0.03734
1188.60 0.03733
1188.70 0.03732
1188.80 0.03731
1188.90 0.03729
1189.00 0.03728
1189.10 0.03727
1189.20 0.03726
1189.30 0.03724
1189.40 0.03723
1189.50 0.03722
1189.60 0.03721
1189.70 0.03719
1189.80 0.03718
1189.90 0.03717
1190.00 0.03716
1190.10 0.03715
1190.20 0.03713
1190.30 0.03712
1190.40 0.03711
1190.50 0.0371
1190.60 0.03708
1190.70 0.03707
1190.80 0.03706
1190.90 0.03705
1191.00 0.03704
1191.10 0.03702
1191.20 0.03701
1191.30 0.037
1191.40 0.03699
1191.50 0.03697
1191.60 0.03696
1191.70 0.03695
1191.80 0.03694
1191.90 0.03693
1192.00 0.03691
1192.10 0.0369
1192.20 0.03689
1192.30 0.03688
1192.40 0.03686
1192.50 0.03685
1192.60 0.03684
1192.70 0.03683
1192.80 0.03682
1192.90 0.0368
1193.00 0.03679
1193.10 0.03678
1193.20 0.03677
1193.30 0.03676
1193.40 0.03674
1193.50 0.03673
1193.60 0.03672
1193.70 0.03671
1193.80 0.03669
1193.90 0.03668
1194.00 0.03667
1194.10 0.03666
1194.20 0.03665
1194.30 0.03663
1194.40 0.03662
1194.50 0.03661
1194.60 0.0366
1194.70 0.03659
1194.80 0.03657
1194.90 0.03656
1195.00 0.03655
1195.10 0.03654
1195.20 0.03653
1195.30 0.03651
1195.40 0.0365
1195.50 0.03649
1195.60 0.03648
1195.70 0.03647
1195.80 0.03645
1195.90 0.03644
1196.00 0.03643
1196.10 0.03642
1196.20 0.03641
1196.30 0.03639
1196.40 0.03638
1196.50 0.03637
1196.60 0.03636
1196.70 0.03635
1196.80 0.03633
1196.90 0.03632
1197.00 0.03631
1197.10 0.0363
1197.20 0.03629
1197.30 0.03627
1197.40 0.03626
1197.50 0.03625
1197.60 0.03624
1197.70 0.03623
1197.80 0.03621
1197.90 0.0362
1198.00 0.03619
1198.10 0.03618
1198.20 0.03617
1198.30 0.03615
1198.40 0.03614
1198.50 0.03613
1198.60 0.03612
1198.70 0.03611
1198.80 0.03609
1198.90 0.03608
1199.00 0.03607
1199.10 0.03606
1199.20 0.03605
1199.30 0.03604
1199.40 0.03602
1199.50 0.03601
1199.60 0.036
1199.70 0.03599
1199.80 0.03598
1199.90 0.03596
1200.00 0
