# Version 2.1 - nm, norm@500 to 1, cut digits, bergeron_100000_75.dat_100000
# Wavelength(nm)  Flambda(ergs/cm^s/s/nm)
300.00 6.831
300.10 6.822
300.20 6.814
300.30 6.805
300.40 6.797
300.50 6.788
300.60 6.78
300.70 6.771
300.80 6.763
300.90 6.754
301.00 6.746
301.10 6.737
301.20 6.729
301.30 6.721
301.40 6.712
301.50 6.704
301.60 6.695
301.70 6.687
301.80 6.679
301.90 6.67
302.00 6.662
302.10 6.654
302.20 6.645
302.30 6.637
302.40 6.629
302.50 6.621
302.60 6.612
302.70 6.604
302.80 6.596
302.90 6.588
303.00 6.58
303.10 6.571
303.20 6.563
303.30 6.555
303.40 6.547
303.50 6.539
303.60 6.531
303.70 6.523
303.80 6.515
303.90 6.506
304.00 6.498
304.10 6.49
304.20 6.482
304.30 6.474
304.40 6.466
304.50 6.458
304.60 6.45
304.70 6.442
304.80 6.434
304.90 6.426
305.00 6.418
305.10 6.411
305.20 6.403
305.30 6.395
305.40 6.387
305.50 6.379
305.60 6.371
305.70 6.363
305.80 6.355
305.90 6.348
306.00 6.34
306.10 6.332
306.20 6.324
306.30 6.316
306.40 6.309
306.50 6.301
306.60 6.293
306.70 6.285
306.80 6.278
306.90 6.27
307.00 6.262
307.10 6.255
307.20 6.247
307.30 6.239
307.40 6.232
307.50 6.224
307.60 6.216
307.70 6.209
307.80 6.201
307.90 6.194
308.00 6.186
308.10 6.178
308.20 6.171
308.30 6.163
308.40 6.156
308.50 6.148
308.60 6.141
308.70 6.133
308.80 6.126
308.90 6.118
309.00 6.111
309.10 6.103
309.20 6.096
309.30 6.089
309.40 6.081
309.50 6.074
309.60 6.066
309.70 6.059
309.80 6.052
309.90 6.044
310.00 6.037
310.10 6.03
310.20 6.022
310.30 6.015
310.40 6.008
310.50 6
310.60 5.993
310.70 5.986
310.80 5.978
310.90 5.971
311.00 5.964
311.10 5.957
311.20 5.95
311.30 5.942
311.40 5.935
311.50 5.928
311.60 5.921
311.70 5.914
311.80 5.906
311.90 5.899
312.00 5.892
312.10 5.885
312.20 5.878
312.30 5.871
312.40 5.864
312.50 5.857
312.60 5.85
312.70 5.843
312.80 5.836
312.90 5.828
313.00 5.821
313.10 5.814
313.20 5.807
313.30 5.8
313.40 5.793
313.50 5.787
313.60 5.78
313.70 5.773
313.80 5.766
313.90 5.759
314.00 5.752
314.10 5.745
314.20 5.738
314.30 5.731
314.40 5.724
314.50 5.717
314.60 5.711
314.70 5.704
314.80 5.697
314.90 5.69
315.00 5.683
315.10 5.676
315.20 5.67
315.30 5.663
315.40 5.656
315.50 5.649
315.60 5.643
315.70 5.636
315.80 5.629
315.90 5.622
316.00 5.616
316.10 5.609
316.20 5.602
316.30 5.596
316.40 5.589
316.50 5.582
316.60 5.576
316.70 5.569
316.80 5.562
316.90 5.556
317.00 5.549
317.10 5.542
317.20 5.536
317.30 5.529
317.40 5.523
317.50 5.516
317.60 5.51
317.70 5.503
317.80 5.497
317.90 5.49
318.00 5.483
318.10 5.477
318.20 5.47
318.30 5.464
318.40 5.458
318.50 5.451
318.60 5.445
318.70 5.438
318.80 5.432
318.90 5.425
319.00 5.419
319.10 5.412
319.20 5.406
319.30 5.4
319.40 5.393
319.50 5.387
319.60 5.381
319.70 5.374
319.80 5.368
319.90 5.362
320.00 5.355
320.10 5.349
320.20 5.343
320.30 5.336
320.40 5.33
320.50 5.324
320.60 5.317
320.70 5.311
320.80 5.305
320.90 5.299
321.00 5.292
321.10 5.286
321.20 5.28
321.30 5.274
321.40 5.268
321.50 5.261
321.60 5.255
321.70 5.249
321.80 5.243
321.90 5.237
322.00 5.231
322.10 5.225
322.20 5.218
322.30 5.212
322.40 5.206
322.50 5.2
322.60 5.194
322.70 5.188
322.80 5.182
322.90 5.176
323.00 5.17
323.10 5.164
323.20 5.158
323.30 5.152
323.40 5.146
323.50 5.14
323.60 5.134
323.70 5.128
323.80 5.122
323.90 5.116
324.00 5.11
324.10 5.104
324.20 5.098
324.30 5.092
324.40 5.086
324.50 5.08
324.60 5.074
324.70 5.068
324.80 5.062
324.90 5.056
325.00 5.051
325.10 5.045
325.20 5.039
325.30 5.033
325.40 5.027
325.50 5.021
325.60 5.016
325.70 5.01
325.80 5.004
325.90 4.998
326.00 4.992
326.10 4.987
326.20 4.981
326.30 4.975
326.40 4.969
326.50 4.963
326.60 4.958
326.70 4.952
326.80 4.946
326.90 4.941
327.00 4.935
327.10 4.929
327.20 4.923
327.30 4.918
327.40 4.912
327.50 4.906
327.60 4.901
327.70 4.895
327.80 4.889
327.90 4.884
328.00 4.878
328.10 4.873
328.20 4.867
328.30 4.861
328.40 4.856
328.50 4.85
328.60 4.845
328.70 4.839
328.80 4.834
328.90 4.828
329.00 4.822
329.10 4.817
329.20 4.811
329.30 4.806
329.40 4.8
329.50 4.795
329.60 4.789
329.70 4.784
329.80 4.778
329.90 4.773
330.00 4.767
330.10 4.762
330.20 4.757
330.30 4.751
330.40 4.746
330.50 4.74
330.60 4.735
330.70 4.729
330.80 4.724
330.90 4.719
331.00 4.713
331.10 4.708
331.20 4.703
331.30 4.697
331.40 4.692
331.50 4.686
331.60 4.681
331.70 4.676
331.80 4.67
331.90 4.665
332.00 4.66
332.10 4.654
332.20 4.649
332.30 4.644
332.40 4.639
332.50 4.633
332.60 4.628
332.70 4.623
332.80 4.618
332.90 4.612
333.00 4.607
333.10 4.602
333.20 4.597
333.30 4.591
333.40 4.586
333.50 4.581
333.60 4.576
333.70 4.571
333.80 4.565
333.90 4.56
334.00 4.555
334.10 4.55
334.20 4.545
334.30 4.54
334.40 4.535
334.50 4.529
334.60 4.524
334.70 4.519
334.80 4.514
334.90 4.509
335.00 4.504
335.10 4.499
335.20 4.494
335.30 4.489
335.40 4.484
335.50 4.479
335.60 4.473
335.70 4.468
335.80 4.463
335.90 4.458
336.00 4.453
336.10 4.448
336.20 4.443
336.30 4.438
336.40 4.433
336.50 4.428
336.60 4.423
336.70 4.418
336.80 4.414
336.90 4.409
337.00 4.404
337.10 4.399
337.20 4.394
337.30 4.389
337.40 4.384
337.50 4.379
337.60 4.374
337.70 4.369
337.80 4.364
337.90 4.359
338.00 4.354
338.10 4.35
338.20 4.345
338.30 4.34
338.40 4.335
338.50 4.33
338.60 4.325
338.70 4.321
338.80 4.316
338.90 4.311
339.00 4.306
339.10 4.301
339.20 4.296
339.30 4.292
339.40 4.287
339.50 4.282
339.60 4.277
339.70 4.273
339.80 4.268
339.90 4.263
340.00 4.258
340.10 4.254
340.20 4.249
340.30 4.244
340.40 4.239
340.50 4.235
340.60 4.23
340.70 4.225
340.80 4.221
340.90 4.216
341.00 4.211
341.10 4.207
341.20 4.202
341.30 4.197
341.40 4.193
341.50 4.188
341.60 4.183
341.70 4.179
341.80 4.174
341.90 4.169
342.00 4.165
342.10 4.16
342.20 4.156
342.30 4.151
342.40 4.146
342.50 4.142
342.60 4.137
342.70 4.133
342.80 4.128
342.90 4.124
343.00 4.119
343.10 4.115
343.20 4.11
343.30 4.105
343.40 4.101
343.50 4.096
343.60 4.092
343.70 4.087
343.80 4.083
343.90 4.078
344.00 4.074
344.10 4.069
344.20 4.065
344.30 4.06
344.40 4.056
344.50 4.052
344.60 4.047
344.70 4.043
344.80 4.038
344.90 4.034
345.00 4.029
345.10 4.025
345.20 4.021
345.30 4.016
345.40 4.012
345.50 4.007
345.60 4.003
345.70 3.998
345.80 3.994
345.90 3.99
346.00 3.985
346.10 3.981
346.20 3.977
346.30 3.972
346.40 3.968
346.50 3.964
346.60 3.959
346.70 3.955
346.80 3.951
346.90 3.946
347.00 3.942
347.10 3.938
347.20 3.933
347.30 3.929
347.40 3.925
347.50 3.921
347.60 3.916
347.70 3.912
347.80 3.908
347.90 3.904
348.00 3.899
348.10 3.895
348.20 3.891
348.30 3.887
348.40 3.882
348.50 3.878
348.60 3.874
348.70 3.87
348.80 3.866
348.90 3.861
349.00 3.857
349.10 3.853
349.20 3.849
349.30 3.845
349.40 3.84
349.50 3.836
349.60 3.832
349.70 3.828
349.80 3.824
349.90 3.82
350.00 3.815
350.10 3.811
350.20 3.807
350.30 3.803
350.40 3.799
350.50 3.795
350.60 3.791
350.70 3.787
350.80 3.783
350.90 3.779
351.00 3.775
351.10 3.77
351.20 3.766
351.30 3.762
351.40 3.758
351.50 3.754
351.60 3.75
351.70 3.746
351.80 3.742
351.90 3.738
352.00 3.734
352.10 3.73
352.20 3.726
352.30 3.722
352.40 3.718
352.50 3.714
352.60 3.71
352.70 3.706
352.80 3.702
352.90 3.698
353.00 3.694
353.10 3.69
353.20 3.686
353.30 3.682
353.40 3.678
353.50 3.674
353.60 3.67
353.70 3.666
353.80 3.663
353.90 3.659
354.00 3.655
354.10 3.651
354.20 3.647
354.30 3.643
354.40 3.639
354.50 3.635
354.60 3.631
354.70 3.627
354.80 3.624
354.90 3.62
355.00 3.616
355.10 3.612
355.20 3.608
355.30 3.604
355.40 3.6
355.50 3.597
355.60 3.593
355.70 3.589
355.80 3.585
355.90 3.581
356.00 3.577
356.10 3.574
356.20 3.57
356.30 3.566
356.40 3.562
356.50 3.558
356.60 3.555
356.70 3.551
356.80 3.547
356.90 3.543
357.00 3.54
357.10 3.536
357.20 3.532
357.30 3.528
357.40 3.525
357.50 3.521
357.60 3.517
357.70 3.513
357.80 3.51
357.90 3.506
358.00 3.502
358.10 3.498
358.20 3.495
358.30 3.491
358.40 3.487
358.50 3.484
358.60 3.48
358.70 3.476
358.80 3.473
358.90 3.469
359.00 3.465
359.10 3.462
359.20 3.458
359.30 3.454
359.40 3.451
359.50 3.447
359.60 3.443
359.70 3.44
359.80 3.436
359.90 3.433
360.00 3.429
360.10 3.425
360.20 3.422
360.30 3.418
360.40 3.415
360.50 3.411
360.60 3.407
360.70 3.404
360.80 3.4
360.90 3.397
361.00 3.393
361.10 3.39
361.20 3.386
361.30 3.382
361.40 3.379
361.50 3.375
361.60 3.372
361.70 3.368
361.80 3.365
361.90 3.361
362.00 3.358
362.10 3.354
362.20 3.351
362.30 3.347
362.40 3.344
362.50 3.34
362.60 3.337
362.70 3.333
362.80 3.33
362.90 3.326
363.00 3.323
363.10 3.319
363.20 3.316
363.30 3.312
363.40 3.309
363.50 3.305
363.60 3.302
363.70 3.298
363.80 3.295
363.90 3.292
364.00 3.288
364.10 3.285
364.20 3.281
364.30 3.278
364.40 3.274
364.50 3.271
364.60 3.268
364.70 3.264
364.80 3.261
364.90 3.257
365.00 3.254
365.10 3.251
365.20 3.247
365.30 3.244
365.40 3.241
365.50 3.237
365.60 3.234
365.70 3.231
365.80 3.227
365.90 3.224
366.00 3.22
366.10 3.217
366.20 3.214
366.30 3.21
366.40 3.207
366.50 3.204
366.60 3.2
366.70 3.197
366.80 3.194
366.90 3.19
367.00 3.187
367.10 3.184
367.20 3.18
367.30 3.177
367.40 3.174
367.50 3.17
367.60 3.167
367.70 3.164
367.80 3.16
367.90 3.157
368.00 3.154
368.10 3.15
368.20 3.147
368.30 3.144
368.40 3.14
368.50 3.137
368.60 3.134
368.70 3.131
368.80 3.127
368.90 3.124
369.00 3.121
369.10 3.118
369.20 3.114
369.30 3.111
369.40 3.108
369.50 3.104
369.60 3.101
369.70 3.098
369.80 3.095
369.90 3.092
370.00 3.088
370.10 3.085
370.20 3.082
370.30 3.079
370.40 3.075
370.50 3.072
370.60 3.069
370.70 3.066
370.80 3.063
370.90 3.06
371.00 3.056
371.10 3.053
371.20 3.05
371.30 3.047
371.40 3.044
371.50 3.041
371.60 3.037
371.70 3.034
371.80 3.031
371.90 3.028
372.00 3.025
372.10 3.022
372.20 3.019
372.30 3.015
372.40 3.012
372.50 3.009
372.60 3.006
372.70 3.003
372.80 3
372.90 2.997
373.00 2.994
373.10 2.991
373.20 2.988
373.30 2.985
373.40 2.982
373.50 2.979
373.60 2.975
373.70 2.972
373.80 2.969
373.90 2.966
374.00 2.963
374.10 2.96
374.20 2.957
374.30 2.954
374.40 2.951
374.50 2.948
374.60 2.945
374.70 2.942
374.80 2.939
374.90 2.936
375.00 2.933
375.10 2.93
375.20 2.927
375.30 2.924
375.40 2.921
375.50 2.918
375.60 2.915
375.70 2.912
375.80 2.909
375.90 2.906
376.00 2.903
376.10 2.901
376.20 2.898
376.30 2.895
376.40 2.892
376.50 2.889
376.60 2.886
376.70 2.883
376.80 2.88
376.90 2.877
377.00 2.874
377.10 2.872
377.20 2.869
377.30 2.866
377.40 2.863
377.50 2.86
377.60 2.857
377.70 2.855
377.80 2.852
377.90 2.849
378.00 2.846
378.10 2.843
378.20 2.841
378.30 2.838
378.40 2.835
378.50 2.832
378.60 2.829
378.70 2.826
378.80 2.824
378.90 2.821
379.00 2.818
379.10 2.815
379.20 2.813
379.30 2.81
379.40 2.807
379.50 2.804
379.60 2.802
379.70 2.799
379.80 2.796
379.90 2.793
380.00 2.791
380.10 2.788
380.20 2.785
380.30 2.783
380.40 2.78
380.50 2.778
380.60 2.775
380.70 2.772
380.80 2.77
380.90 2.767
381.00 2.765
381.10 2.762
381.20 2.759
381.30 2.757
381.40 2.754
381.50 2.751
381.60 2.749
381.70 2.746
381.80 2.743
381.90 2.74
382.00 2.738
382.10 2.735
382.20 2.732
382.30 2.729
382.40 2.726
382.50 2.724
382.60 2.721
382.70 2.718
382.80 2.715
382.90 2.712
383.00 2.709
383.10 2.706
383.20 2.704
383.30 2.701
383.40 2.698
383.50 2.696
383.60 2.693
383.70 2.691
383.80 2.689
383.90 2.686
384.00 2.684
384.10 2.682
384.20 2.68
384.30 2.678
384.40 2.676
384.50 2.674
384.60 2.671
384.70 2.669
384.80 2.667
384.90 2.665
385.00 2.662
385.10 2.66
385.20 2.658
385.30 2.655
385.40 2.653
385.50 2.651
385.60 2.648
385.70 2.646
385.80 2.643
385.90 2.64
386.00 2.638
386.10 2.635
386.20 2.632
386.30 2.629
386.40 2.627
386.50 2.624
386.60 2.621
386.70 2.618
386.80 2.615
386.90 2.612
387.00 2.609
387.10 2.605
387.20 2.602
387.30 2.599
387.40 2.596
387.50 2.592
387.60 2.589
387.70 2.586
387.80 2.582
387.90 2.579
388.00 2.575
388.10 2.572
388.20 2.568
388.30 2.565
388.40 2.562
388.50 2.558
388.60 2.555
388.70 2.552
388.80 2.55
388.90 2.548
389.00 2.545
389.10 2.543
389.20 2.541
389.30 2.54
389.40 2.539
389.50 2.538
389.60 2.536
389.70 2.535
389.80 2.534
389.90 2.533
390.00 2.532
390.10 2.531
390.20 2.53
390.30 2.528
390.40 2.527
390.50 2.526
390.60 2.525
390.70 2.523
390.80 2.522
390.90 2.52
391.00 2.519
391.10 2.517
391.20 2.516
391.30 2.514
391.40 2.512
391.50 2.51
391.60 2.508
391.70 2.507
391.80 2.505
391.90 2.503
392.00 2.5
392.10 2.498
392.20 2.496
392.30 2.494
392.40 2.492
392.50 2.489
392.60 2.487
392.70 2.484
392.80 2.482
392.90 2.479
393.00 2.477
393.10 2.474
393.20 2.471
393.30 2.468
393.40 2.466
393.50 2.463
393.60 2.46
393.70 2.457
393.80 2.453
393.90 2.45
394.00 2.447
394.10 2.443
394.20 2.44
394.30 2.436
394.40 2.433
394.50 2.429
394.60 2.425
394.70 2.421
394.80 2.417
394.90 2.413
395.00 2.409
395.10 2.405
395.20 2.401
395.30 2.396
395.40 2.392
395.50 2.387
395.60 2.383
395.70 2.378
395.80 2.373
395.90 2.368
396.00 2.363
396.10 2.358
396.20 2.353
396.30 2.348
396.40 2.343
396.50 2.338
396.60 2.332
396.70 2.327
396.80 2.322
396.90 2.318
397.00 2.313
397.10 2.313
397.20 2.314
397.30 2.314
397.40 2.315
397.50 2.316
397.60 2.317
397.70 2.318
397.80 2.319
397.90 2.319
398.00 2.32
398.10 2.321
398.20 2.322
398.30 2.322
398.40 2.323
398.50 2.323
398.60 2.323
398.70 2.324
398.80 2.324
398.90 2.324
399.00 2.324
399.10 2.324
399.20 2.323
399.30 2.323
399.40 2.323
399.50 2.322
399.60 2.322
399.70 2.321
399.80 2.32
399.90 2.32
400.00 2.319
400.10 2.318
400.20 2.317
400.30 2.316
400.40 2.315
400.50 2.314
400.60 2.313
400.70 2.311
400.80 2.31
400.90 2.309
401.00 2.307
401.10 2.306
401.20 2.305
401.30 2.303
401.40 2.302
401.50 2.3
401.60 2.298
401.70 2.297
401.80 2.295
401.90 2.293
402.00 2.292
402.10 2.29
402.20 2.288
402.30 2.286
402.40 2.284
402.50 2.282
402.60 2.28
402.70 2.278
402.80 2.276
402.90 2.274
403.00 2.272
403.10 2.27
403.20 2.268
403.30 2.266
403.40 2.264
403.50 2.262
403.60 2.26
403.70 2.258
403.80 2.255
403.90 2.253
404.00 2.251
404.10 2.249
404.20 2.246
404.30 2.244
404.40 2.241
404.50 2.239
404.60 2.237
404.70 2.234
404.80 2.232
404.90 2.229
405.00 2.227
405.10 2.224
405.20 2.221
405.30 2.219
405.40 2.216
405.50 2.213
405.60 2.21
405.70 2.207
405.80 2.205
405.90 2.202
406.00 2.199
406.10 2.195
406.20 2.192
406.30 2.189
406.40 2.186
406.50 2.183
406.60 2.179
406.70 2.176
406.80 2.172
406.90 2.168
407.00 2.165
407.10 2.161
407.20 2.157
407.30 2.153
407.40 2.149
407.50 2.144
407.60 2.14
407.70 2.136
407.80 2.131
407.90 2.126
408.00 2.121
408.10 2.116
408.20 2.111
408.30 2.105
408.40 2.1
408.50 2.094
408.60 2.088
408.70 2.082
408.80 2.076
408.90 2.07
409.00 2.063
409.10 2.056
409.20 2.05
409.30 2.043
409.40 2.035
409.50 2.028
409.60 2.021
409.70 2.014
409.80 2.007
409.90 2
410.00 1.997
410.10 1.996
410.20 1.997
410.30 1.992
410.40 1.99
410.50 1.992
410.60 1.995
410.70 1.998
410.80 2.002
410.90 2.006
411.00 2.009
411.10 2.012
411.20 2.016
411.30 2.019
411.40 2.022
411.50 2.024
411.60 2.027
411.70 2.029
411.80 2.031
411.90 2.033
412.00 2.035
412.10 2.036
412.20 2.038
412.30 2.039
412.40 2.04
412.50 2.041
412.60 2.042
412.70 2.042
412.80 2.043
412.90 2.043
413.00 2.044
413.10 2.044
413.20 2.044
413.30 2.044
413.40 2.044
413.50 2.043
413.60 2.043
413.70 2.043
413.80 2.042
413.90 2.041
414.00 2.041
414.10 2.04
414.20 2.039
414.30 2.039
414.40 2.038
414.50 2.037
414.60 2.036
414.70 2.035
414.80 2.034
414.90 2.033
415.00 2.031
415.10 2.03
415.20 2.029
415.30 2.028
415.40 2.027
415.50 2.025
415.60 2.024
415.70 2.023
415.80 2.021
415.90 2.02
416.00 2.018
416.10 2.017
416.20 2.015
416.30 2.014
416.40 2.012
416.50 2.011
416.60 2.009
416.70 2.008
416.80 2.006
416.90 2.005
417.00 2.003
417.10 2.002
417.20 2
417.30 1.998
417.40 1.997
417.50 1.995
417.60 1.994
417.70 1.992
417.80 1.99
417.90 1.989
418.00 1.987
418.10 1.985
418.20 1.984
418.30 1.982
418.40 1.98
418.50 1.979
418.60 1.977
418.70 1.975
418.80 1.973
418.90 1.972
419.00 1.97
419.10 1.968
419.20 1.967
419.30 1.965
419.40 1.963
419.50 1.962
419.60 1.96
419.70 1.958
419.80 1.956
419.90 1.955
420.00 1.953
420.10 1.951
420.20 1.949
420.30 1.948
420.40 1.946
420.50 1.944
420.60 1.943
420.70 1.941
420.80 1.939
420.90 1.937
421.00 1.936
421.10 1.934
421.20 1.932
421.30 1.93
421.40 1.929
421.50 1.927
421.60 1.925
421.70 1.923
421.80 1.922
421.90 1.92
422.00 1.918
422.10 1.917
422.20 1.915
422.30 1.913
422.40 1.911
422.50 1.91
422.60 1.908
422.70 1.906
422.80 1.904
422.90 1.903
423.00 1.901
423.10 1.899
423.20 1.897
423.30 1.896
423.40 1.894
423.50 1.892
423.60 1.89
423.70 1.889
423.80 1.887
423.90 1.885
424.00 1.883
424.10 1.882
424.20 1.88
424.30 1.878
424.40 1.876
424.50 1.874
424.60 1.873
424.70 1.871
424.80 1.869
424.90 1.867
425.00 1.866
425.10 1.864
425.20 1.862
425.30 1.86
425.40 1.859
425.50 1.857
425.60 1.855
425.70 1.853
425.80 1.851
425.90 1.85
426.00 1.848
426.10 1.846
426.20 1.844
426.30 1.842
426.40 1.841
426.50 1.839
426.60 1.837
426.70 1.835
426.80 1.833
426.90 1.831
427.00 1.829
427.10 1.828
427.20 1.826
427.30 1.824
427.40 1.822
427.50 1.82
427.60 1.818
427.70 1.816
427.80 1.814
427.90 1.812
428.00 1.81
428.10 1.808
428.20 1.806
428.30 1.804
428.40 1.802
428.50 1.8
428.60 1.798
428.70 1.796
428.80 1.794
428.90 1.792
429.00 1.789
429.10 1.787
429.20 1.785
429.30 1.783
429.40 1.78
429.50 1.778
429.60 1.776
429.70 1.773
429.80 1.771
429.90 1.768
430.00 1.766
430.10 1.763
430.20 1.76
430.30 1.757
430.40 1.755
430.50 1.752
430.60 1.749
430.70 1.745
430.80 1.742
430.90 1.739
431.00 1.736
431.10 1.732
431.20 1.728
431.30 1.725
431.40 1.721
431.50 1.717
431.60 1.713
431.70 1.708
431.80 1.704
431.90 1.699
432.00 1.694
432.10 1.689
432.20 1.684
432.30 1.678
432.40 1.673
432.50 1.667
432.60 1.661
432.70 1.655
432.80 1.648
432.90 1.641
433.00 1.634
433.10 1.627
433.20 1.62
433.30 1.613
433.40 1.605
433.50 1.598
433.60 1.59
433.70 1.582
433.80 1.575
433.90 1.567
434.00 1.561
434.10 1.56
434.20 1.564
434.30 1.569
434.40 1.573
434.50 1.578
434.60 1.583
434.70 1.588
434.80 1.593
434.90 1.597
435.00 1.602
435.10 1.606
435.20 1.61
435.30 1.614
435.40 1.617
435.50 1.621
435.60 1.624
435.70 1.627
435.80 1.629
435.90 1.632
436.00 1.634
436.10 1.636
436.20 1.638
436.30 1.639
436.40 1.641
436.50 1.642
436.60 1.643
436.70 1.644
436.80 1.645
436.90 1.646
437.00 1.646
437.10 1.646
437.20 1.647
437.30 1.647
437.40 1.647
437.50 1.647
437.60 1.647
437.70 1.647
437.80 1.647
437.90 1.646
438.00 1.646
438.10 1.645
438.20 1.645
438.30 1.644
438.40 1.644
438.50 1.643
438.60 1.642
438.70 1.642
438.80 1.641
438.90 1.64
439.00 1.639
439.10 1.638
439.20 1.637
439.30 1.636
439.40 1.635
439.50 1.634
439.60 1.633
439.70 1.632
439.80 1.631
439.90 1.63
440.00 1.629
440.10 1.628
440.20 1.627
440.30 1.626
440.40 1.625
440.50 1.624
440.60 1.622
440.70 1.621
440.80 1.62
440.90 1.619
441.00 1.618
441.10 1.616
441.20 1.615
441.30 1.614
441.40 1.613
441.50 1.611
441.60 1.61
441.70 1.609
441.80 1.608
441.90 1.606
442.00 1.605
442.10 1.604
442.20 1.603
442.30 1.601
442.40 1.6
442.50 1.599
442.60 1.598
442.70 1.596
442.80 1.595
442.90 1.594
443.00 1.592
443.10 1.591
443.20 1.59
443.30 1.588
443.40 1.587
443.50 1.586
443.60 1.585
443.70 1.583
443.80 1.582
443.90 1.581
444.00 1.579
444.10 1.578
444.20 1.577
444.30 1.575
444.40 1.574
444.50 1.573
444.60 1.571
444.70 1.57
444.80 1.569
444.90 1.568
445.00 1.566
445.10 1.565
445.20 1.564
445.30 1.562
445.40 1.561
445.50 1.56
445.60 1.558
445.70 1.557
445.80 1.556
445.90 1.554
446.00 1.553
446.10 1.552
446.20 1.55
446.30 1.549
446.40 1.548
446.50 1.547
446.60 1.545
446.70 1.544
446.80 1.543
446.90 1.541
447.00 1.54
447.10 1.539
447.20 1.537
447.30 1.536
447.40 1.535
447.50 1.534
447.60 1.532
447.70 1.531
447.80 1.53
447.90 1.528
448.00 1.527
448.10 1.526
448.20 1.524
448.30 1.523
448.40 1.522
448.50 1.521
448.60 1.519
448.70 1.518
448.80 1.517
448.90 1.515
449.00 1.514
449.10 1.513
449.20 1.512
449.30 1.51
449.40 1.509
449.50 1.508
449.60 1.506
449.70 1.505
449.80 1.504
449.90 1.503
450.00 1.501
450.10 1.5
450.20 1.499
450.30 1.497
450.40 1.496
450.50 1.495
450.60 1.494
450.70 1.492
450.80 1.491
450.90 1.49
451.00 1.489
451.10 1.487
451.20 1.486
451.30 1.485
451.40 1.484
451.50 1.482
451.60 1.481
451.70 1.48
451.80 1.479
451.90 1.477
452.00 1.476
452.10 1.475
452.20 1.474
452.30 1.472
452.40 1.471
452.50 1.47
452.60 1.469
452.70 1.467
452.80 1.466
452.90 1.465
453.00 1.464
453.10 1.462
453.20 1.461
453.30 1.46
453.40 1.459
453.50 1.457
453.60 1.456
453.70 1.455
453.80 1.454
453.90 1.452
454.00 1.451
454.10 1.45
454.20 1.449
454.30 1.448
454.40 1.446
454.50 1.445
454.60 1.444
454.70 1.443
454.80 1.441
454.90 1.44
455.00 1.439
455.10 1.438
455.20 1.437
455.30 1.435
455.40 1.434
455.50 1.433
455.60 1.432
455.70 1.431
455.80 1.429
455.90 1.428
456.00 1.427
456.10 1.426
456.20 1.425
456.30 1.423
456.40 1.422
456.50 1.421
456.60 1.42
456.70 1.419
456.80 1.417
456.90 1.416
457.00 1.415
457.10 1.414
457.20 1.413
457.30 1.411
457.40 1.41
457.50 1.409
457.60 1.408
457.70 1.407
457.80 1.405
457.90 1.404
458.00 1.403
458.10 1.402
458.20 1.401
458.30 1.4
458.40 1.398
458.50 1.397
458.60 1.396
458.70 1.395
458.80 1.394
458.90 1.393
459.00 1.391
459.10 1.39
459.20 1.389
459.30 1.388
459.40 1.387
459.50 1.386
459.60 1.384
459.70 1.383
459.80 1.382
459.90 1.381
460.00 1.38
460.10 1.379
460.20 1.377
460.30 1.376
460.40 1.375
460.50 1.374
460.60 1.373
460.70 1.372
460.80 1.371
460.90 1.369
461.00 1.368
461.10 1.367
461.20 1.366
461.30 1.365
461.40 1.364
461.50 1.363
461.60 1.361
461.70 1.36
461.80 1.359
461.90 1.358
462.00 1.357
462.10 1.356
462.20 1.355
462.30 1.353
462.40 1.352
462.50 1.351
462.60 1.35
462.70 1.349
462.80 1.348
462.90 1.347
463.00 1.346
463.10 1.344
463.20 1.343
463.30 1.342
463.40 1.341
463.50 1.34
463.60 1.339
463.70 1.338
463.80 1.337
463.90 1.336
464.00 1.334
464.10 1.333
464.20 1.332
464.30 1.331
464.40 1.33
464.50 1.329
464.60 1.328
464.70 1.327
464.80 1.326
464.90 1.324
465.00 1.323
465.10 1.322
465.20 1.321
465.30 1.32
465.40 1.319
465.50 1.318
465.60 1.317
465.70 1.316
465.80 1.315
465.90 1.313
466.00 1.312
466.10 1.311
466.20 1.31
466.30 1.309
466.40 1.308
466.50 1.307
466.60 1.306
466.70 1.305
466.80 1.304
466.90 1.303
467.00 1.302
467.10 1.3
467.20 1.299
467.30 1.298
467.40 1.297
467.50 1.296
467.60 1.295
467.70 1.294
467.80 1.293
467.90 1.292
468.00 1.291
468.10 1.29
468.20 1.289
468.30 1.288
468.40 1.287
468.50 1.285
468.60 1.284
468.70 1.283
468.80 1.282
468.90 1.281
469.00 1.28
469.10 1.279
469.20 1.278
469.30 1.277
469.40 1.276
469.50 1.275
469.60 1.274
469.70 1.273
469.80 1.272
469.90 1.271
470.00 1.27
470.10 1.269
470.20 1.267
470.30 1.266
470.40 1.265
470.50 1.264
470.60 1.263
470.70 1.262
470.80 1.261
470.90 1.26
471.00 1.259
471.10 1.258
471.20 1.257
471.30 1.256
471.40 1.255
471.50 1.254
471.60 1.253
471.70 1.252
471.80 1.251
471.90 1.25
472.00 1.249
472.10 1.248
472.20 1.247
472.30 1.246
472.40 1.245
472.50 1.244
472.60 1.242
472.70 1.241
472.80 1.24
472.90 1.239
473.00 1.238
473.10 1.237
473.20 1.236
473.30 1.235
473.40 1.234
473.50 1.233
473.60 1.232
473.70 1.231
473.80 1.23
473.90 1.229
474.00 1.228
474.10 1.227
474.20 1.226
474.30 1.225
474.40 1.224
474.50 1.223
474.60 1.222
474.70 1.221
474.80 1.22
474.90 1.219
475.00 1.218
475.10 1.217
475.20 1.216
475.30 1.215
475.40 1.214
475.50 1.213
475.60 1.212
475.70 1.211
475.80 1.21
475.90 1.209
476.00 1.208
476.10 1.207
476.20 1.206
476.30 1.204
476.40 1.203
476.50 1.202
476.60 1.201
476.70 1.2
476.80 1.199
476.90 1.198
477.00 1.197
477.10 1.196
477.20 1.195
477.30 1.194
477.40 1.193
477.50 1.192
477.60 1.191
477.70 1.19
477.80 1.189
477.90 1.188
478.00 1.187
478.10 1.186
478.20 1.185
478.30 1.184
478.40 1.183
478.50 1.181
478.60 1.18
478.70 1.179
478.80 1.178
478.90 1.177
479.00 1.176
479.10 1.175
479.20 1.174
479.30 1.173
479.40 1.172
479.50 1.171
479.60 1.169
479.70 1.168
479.80 1.167
479.90 1.166
480.00 1.165
480.10 1.164
480.20 1.163
480.30 1.161
480.40 1.16
480.50 1.159
480.60 1.158
480.70 1.156
480.80 1.155
480.90 1.154
481.00 1.153
481.10 1.152
481.20 1.15
481.30 1.149
481.40 1.147
481.50 1.146
481.60 1.144
481.70 1.143
481.80 1.142
481.90 1.14
482.00 1.139
482.10 1.137
482.20 1.136
482.30 1.134
482.40 1.132
482.50 1.13
482.60 1.128
482.70 1.126
482.80 1.125
482.90 1.123
483.00 1.121
483.10 1.119
483.20 1.117
483.30 1.114
483.40 1.112
483.50 1.109
483.60 1.106
483.70 1.104
483.80 1.101
483.90 1.099
484.00 1.096
484.10 1.094
484.20 1.09
484.30 1.087
484.40 1.083
484.50 1.08
484.60 1.076
484.70 1.072
484.80 1.068
484.90 1.064
485.00 1.06
485.10 1.055
485.20 1.051
485.30 1.046
485.40 1.041
485.50 1.036
485.60 1.03
485.70 1.024
485.80 1.018
485.90 1.012
486.00 1.006
486.10 1.015
486.20 1.009
486.30 1.005
486.40 1.01
486.50 1.015
486.60 1.019
486.70 1.023
486.80 1.027
486.90 1.03
487.00 1.034
487.10 1.037
487.20 1.04
487.30 1.042
487.40 1.045
487.50 1.047
487.60 1.05
487.70 1.052
487.80 1.054
487.90 1.055
488.00 1.057
488.10 1.059
488.20 1.06
488.30 1.061
488.40 1.062
488.50 1.062
488.60 1.063
488.70 1.064
488.80 1.065
488.90 1.066
489.00 1.066
489.10 1.067
489.20 1.068
489.30 1.068
489.40 1.068
489.50 1.068
489.60 1.068
489.70 1.068
489.80 1.068
489.90 1.068
490.00 1.068
490.10 1.068
490.20 1.068
490.30 1.067
490.40 1.067
490.50 1.066
490.60 1.066
490.70 1.066
490.80 1.065
490.90 1.065
491.00 1.065
491.10 1.064
491.20 1.064
491.30 1.063
491.40 1.063
491.50 1.062
491.60 1.061
491.70 1.061
491.80 1.06
491.90 1.06
492.00 1.059
492.10 1.059
492.20 1.058
492.30 1.057
492.40 1.057
492.50 1.056
492.60 1.055
492.70 1.055
492.80 1.054
492.90 1.053
493.00 1.053
493.10 1.052
493.20 1.051
493.30 1.051
493.40 1.05
493.50 1.049
493.60 1.048
493.70 1.048
493.80 1.047
493.90 1.046
494.00 1.046
494.10 1.045
494.20 1.044
494.30 1.043
494.40 1.043
494.50 1.042
494.60 1.041
494.70 1.04
494.80 1.04
494.90 1.039
495.00 1.038
495.10 1.037
495.20 1.037
495.30 1.036
495.40 1.035
495.50 1.034
495.60 1.034
495.70 1.033
495.80 1.032
495.90 1.031
496.00 1.031
496.10 1.03
496.20 1.029
496.30 1.028
496.40 1.027
496.50 1.027
496.60 1.026
496.70 1.025
496.80 1.024
496.90 1.024
497.00 1.023
497.10 1.022
497.20 1.021
497.30 1.021
497.40 1.02
497.50 1.019
497.60 1.018
497.70 1.018
497.80 1.017
497.90 1.016
498.00 1.015
498.10 1.014
498.20 1.014
498.30 1.013
498.40 1.012
498.50 1.011
498.60 1.011
498.70 1.01
498.80 1.009
498.90 1.008
499.00 1.008
499.10 1.007
499.20 1.006
499.30 1.005
499.40 1.005
499.50 1.004
499.60 1.003
499.70 1.002
499.80 1.002
499.90 1.001
500.00 1
500.10 0.9992
500.20 0.9985
500.30 0.9977
500.40 0.997
500.50 0.9962
500.60 0.9955
500.70 0.9947
500.80 0.9939
500.90 0.9932
501.00 0.9924
501.10 0.9917
501.20 0.9909
501.30 0.9902
501.40 0.9894
501.50 0.9887
501.60 0.9879
501.70 0.9872
501.80 0.9864
501.90 0.9857
502.00 0.9849
502.10 0.9842
502.20 0.9834
502.30 0.9827
502.40 0.9819
502.50 0.9812
502.60 0.9804
502.70 0.9797
502.80 0.9789
502.90 0.9782
503.00 0.9774
503.10 0.9767
503.20 0.976
503.30 0.9752
503.40 0.9745
503.50 0.9737
503.60 0.973
503.70 0.9722
503.80 0.9715
503.90 0.9708
504.00 0.97
504.10 0.9693
504.20 0.9686
504.30 0.9678
504.40 0.9671
504.50 0.9663
504.60 0.9656
504.70 0.9649
504.80 0.9641
504.90 0.9634
505.00 0.9627
505.10 0.9619
505.20 0.9612
505.30 0.9605
505.40 0.9598
505.50 0.959
505.60 0.9583
505.70 0.9576
505.80 0.9568
505.90 0.9561
506.00 0.9554
506.10 0.9547
506.20 0.9539
506.30 0.9532
506.40 0.9525
506.50 0.9518
506.60 0.9511
506.70 0.9503
506.80 0.9496
506.90 0.9489
507.00 0.9482
507.10 0.9474
507.20 0.9467
507.30 0.946
507.40 0.9453
507.50 0.9446
507.60 0.9439
507.70 0.9431
507.80 0.9424
507.90 0.9417
508.00 0.941
508.10 0.9403
508.20 0.9396
508.30 0.9389
508.40 0.9382
508.50 0.9375
508.60 0.9367
508.70 0.936
508.80 0.9353
508.90 0.9346
509.00 0.9339
509.10 0.9332
509.20 0.9325
509.30 0.9318
509.40 0.9311
509.50 0.9304
509.60 0.9297
509.70 0.929
509.80 0.9283
509.90 0.9276
510.00 0.9269
510.10 0.9262
510.20 0.9255
510.30 0.9248
510.40 0.9241
510.50 0.9234
510.60 0.9227
510.70 0.922
510.80 0.9213
510.90 0.9206
511.00 0.9199
511.10 0.9192
511.20 0.9185
511.30 0.9178
511.40 0.9171
511.50 0.9164
511.60 0.9158
511.70 0.9151
511.80 0.9144
511.90 0.9137
512.00 0.913
512.10 0.9123
512.20 0.9116
512.30 0.9109
512.40 0.9103
512.50 0.9096
512.60 0.9089
512.70 0.9082
512.80 0.9075
512.90 0.9068
513.00 0.9062
513.10 0.9055
513.20 0.9048
513.30 0.9041
513.40 0.9034
513.50 0.9028
513.60 0.9021
513.70 0.9014
513.80 0.9007
513.90 0.9001
514.00 0.8994
514.10 0.8987
514.20 0.898
514.30 0.8974
514.40 0.8967
514.50 0.896
514.60 0.8953
514.70 0.8947
514.80 0.894
514.90 0.8933
515.00 0.8927
515.10 0.892
515.20 0.8913
515.30 0.8907
515.40 0.89
515.50 0.8893
515.60 0.8887
515.70 0.888
515.80 0.8873
515.90 0.8867
516.00 0.886
516.10 0.8853
516.20 0.8847
516.30 0.884
516.40 0.8834
516.50 0.8827
516.60 0.882
516.70 0.8814
516.80 0.8807
516.90 0.8801
517.00 0.8794
517.10 0.8787
517.20 0.8781
517.30 0.8774
517.40 0.8768
517.50 0.8761
517.60 0.8755
517.70 0.8748
517.80 0.8742
517.90 0.8735
518.00 0.8729
518.10 0.8722
518.20 0.8716
518.30 0.8709
518.40 0.8703
518.50 0.8696
518.60 0.869
518.70 0.8683
518.80 0.8677
518.90 0.8671
519.00 0.8664
519.10 0.8658
519.20 0.8651
519.30 0.8645
519.40 0.8638
519.50 0.8632
519.60 0.8625
519.70 0.8619
519.80 0.8613
519.90 0.8606
520.00 0.86
520.10 0.8593
520.20 0.8587
520.30 0.8581
520.40 0.8574
520.50 0.8568
520.60 0.8562
520.70 0.8555
520.80 0.8549
520.90 0.8543
521.00 0.8536
521.10 0.853
521.20 0.8524
521.30 0.8517
521.40 0.8511
521.50 0.8505
521.60 0.8498
521.70 0.8492
521.80 0.8486
521.90 0.848
522.00 0.8473
522.10 0.8467
522.20 0.8461
522.30 0.8455
522.40 0.8448
522.50 0.8442
522.60 0.8436
522.70 0.843
522.80 0.8423
522.90 0.8417
523.00 0.8411
523.10 0.8405
523.20 0.8399
523.30 0.8392
523.40 0.8386
523.50 0.838
523.60 0.8374
523.70 0.8368
523.80 0.8362
523.90 0.8355
524.00 0.8349
524.10 0.8343
524.20 0.8337
524.30 0.8331
524.40 0.8325
524.50 0.8318
524.60 0.8312
524.70 0.8306
524.80 0.83
524.90 0.8294
525.00 0.8288
525.10 0.8282
525.20 0.8276
525.30 0.827
525.40 0.8264
525.50 0.8257
525.60 0.8251
525.70 0.8245
525.80 0.8239
525.90 0.8233
526.00 0.8227
526.10 0.8221
526.20 0.8215
526.30 0.8209
526.40 0.8203
526.50 0.8197
526.60 0.8191
526.70 0.8185
526.80 0.8179
526.90 0.8173
527.00 0.8167
527.10 0.8161
527.20 0.8155
527.30 0.8149
527.40 0.8143
527.50 0.8137
527.60 0.8131
527.70 0.8125
527.80 0.8119
527.90 0.8113
528.00 0.8107
528.10 0.8102
528.20 0.8096
528.30 0.809
528.40 0.8084
528.50 0.8078
528.60 0.8072
528.70 0.8066
528.80 0.806
528.90 0.8054
529.00 0.8048
529.10 0.8043
529.20 0.8037
529.30 0.8031
529.40 0.8025
529.50 0.8019
529.60 0.8013
529.70 0.8007
529.80 0.8002
529.90 0.7996
530.00 0.799
530.10 0.7984
530.20 0.7978
530.30 0.7973
530.40 0.7967
530.50 0.7961
530.60 0.7955
530.70 0.7949
530.80 0.7944
530.90 0.7938
531.00 0.7932
531.10 0.7926
531.20 0.792
531.30 0.7915
531.40 0.7909
531.50 0.7903
531.60 0.7897
531.70 0.7892
531.80 0.7886
531.90 0.788
532.00 0.7875
532.10 0.7869
532.20 0.7863
532.30 0.7857
532.40 0.7852
532.50 0.7846
532.60 0.784
532.70 0.7835
532.80 0.7829
532.90 0.7823
533.00 0.7818
533.10 0.7812
533.20 0.7806
533.30 0.7801
533.40 0.7795
533.50 0.7789
533.60 0.7784
533.70 0.7778
533.80 0.7772
533.90 0.7767
534.00 0.7761
534.10 0.7756
534.20 0.775
534.30 0.7744
534.40 0.7739
534.50 0.7733
534.60 0.7728
534.70 0.7722
534.80 0.7716
534.90 0.7711
535.00 0.7705
535.10 0.77
535.20 0.7694
535.30 0.7689
535.40 0.7683
535.50 0.7678
535.60 0.7672
535.70 0.7666
535.80 0.7661
535.90 0.7655
536.00 0.765
536.10 0.7644
536.20 0.7639
536.30 0.7633
536.40 0.7628
536.50 0.7622
536.60 0.7617
536.70 0.7611
536.80 0.7606
536.90 0.76
537.00 0.7595
537.10 0.7589
537.20 0.7584
537.30 0.7579
537.40 0.7573
537.50 0.7568
537.60 0.7562
537.70 0.7557
537.80 0.7551
537.90 0.7546
538.00 0.754
538.10 0.7535
538.20 0.753
538.30 0.7524
538.40 0.7519
538.50 0.7513
538.60 0.7508
538.70 0.7503
538.80 0.7497
538.90 0.7492
539.00 0.7487
539.10 0.7481
539.20 0.7476
539.30 0.747
539.40 0.7465
539.50 0.746
539.60 0.7454
539.70 0.7449
539.80 0.7444
539.90 0.7438
540.00 0.7433
540.10 0.7428
540.20 0.7422
540.30 0.7417
540.40 0.7412
540.50 0.7407
540.60 0.7401
540.70 0.7396
540.80 0.7391
540.90 0.7385
541.00 0.738
541.10 0.7375
541.20 0.737
541.30 0.7364
541.40 0.7359
541.50 0.7354
541.60 0.7349
541.70 0.7343
541.80 0.7338
541.90 0.7333
542.00 0.7328
542.10 0.7322
542.20 0.7317
542.30 0.7312
542.40 0.7307
542.50 0.7302
542.60 0.7296
542.70 0.7291
542.80 0.7286
542.90 0.7281
543.00 0.7276
543.10 0.727
543.20 0.7265
543.30 0.726
543.40 0.7255
543.50 0.725
543.60 0.7245
543.70 0.7239
543.80 0.7234
543.90 0.7229
544.00 0.7224
544.10 0.7219
544.20 0.7214
544.30 0.7209
544.40 0.7204
544.50 0.7198
544.60 0.7193
544.70 0.7188
544.80 0.7183
544.90 0.7178
545.00 0.7173
545.10 0.7168
545.20 0.7163
545.30 0.7158
545.40 0.7153
545.50 0.7148
545.60 0.7143
545.70 0.7137
545.80 0.7132
545.90 0.7127
546.00 0.7122
546.10 0.7117
546.20 0.7112
546.30 0.7107
546.40 0.7102
546.50 0.7097
546.60 0.7092
546.70 0.7087
546.80 0.7082
546.90 0.7077
547.00 0.7072
547.10 0.7067
547.20 0.7062
547.30 0.7057
547.40 0.7052
547.50 0.7047
547.60 0.7042
547.70 0.7037
547.80 0.7032
547.90 0.7027
548.00 0.7022
548.10 0.7017
548.20 0.7012
548.30 0.7008
548.40 0.7003
548.50 0.6998
548.60 0.6993
548.70 0.6988
548.80 0.6983
548.90 0.6978
549.00 0.6973
549.10 0.6968
549.20 0.6963
549.30 0.6958
549.40 0.6953
549.50 0.6948
549.60 0.6944
549.70 0.6939
549.80 0.6934
549.90 0.6929
550.00 0.6924
550.10 0.6919
550.20 0.6914
550.30 0.6909
550.40 0.6905
550.50 0.69
550.60 0.6895
550.70 0.689
550.80 0.6885
550.90 0.688
551.00 0.6876
551.10 0.6871
551.20 0.6866
551.30 0.6861
551.40 0.6856
551.50 0.6852
551.60 0.6847
551.70 0.6842
551.80 0.6837
551.90 0.6832
552.00 0.6828
552.10 0.6823
552.20 0.6818
552.30 0.6813
552.40 0.6808
552.50 0.6804
552.60 0.6799
552.70 0.6794
552.80 0.6789
552.90 0.6785
553.00 0.678
553.10 0.6775
553.20 0.677
553.30 0.6766
553.40 0.6761
553.50 0.6756
553.60 0.6752
553.70 0.6747
553.80 0.6742
553.90 0.6737
554.00 0.6733
554.10 0.6728
554.20 0.6723
554.30 0.6719
554.40 0.6714
554.50 0.6709
554.60 0.6705
554.70 0.67
554.80 0.6695
554.90 0.6691
555.00 0.6686
555.10 0.6681
555.20 0.6677
555.30 0.6672
555.40 0.6667
555.50 0.6663
555.60 0.6658
555.70 0.6653
555.80 0.6649
555.90 0.6644
556.00 0.664
556.10 0.6635
556.20 0.663
556.30 0.6626
556.40 0.6621
556.50 0.6617
556.60 0.6612
556.70 0.6607
556.80 0.6603
556.90 0.6598
557.00 0.6594
557.10 0.6589
557.20 0.6584
557.30 0.658
557.40 0.6575
557.50 0.6571
557.60 0.6566
557.70 0.6562
557.80 0.6557
557.90 0.6553
558.00 0.6548
558.10 0.6543
558.20 0.6539
558.30 0.6534
558.40 0.653
558.50 0.6525
558.60 0.6521
558.70 0.6516
558.80 0.6512
558.90 0.6507
559.00 0.6503
559.10 0.6498
559.20 0.6494
559.30 0.6489
559.40 0.6485
559.50 0.648
559.60 0.6476
559.70 0.6471
559.80 0.6467
559.90 0.6462
560.00 0.6458
560.10 0.6453
560.20 0.6449
560.30 0.6445
560.40 0.644
560.50 0.6436
560.60 0.6431
560.70 0.6427
560.80 0.6422
560.90 0.6418
561.00 0.6413
561.10 0.6409
561.20 0.6405
561.30 0.64
561.40 0.6396
561.50 0.6391
561.60 0.6387
561.70 0.6383
561.80 0.6378
561.90 0.6374
562.00 0.6369
562.10 0.6365
562.20 0.6361
562.30 0.6356
562.40 0.6352
562.50 0.6348
562.60 0.6343
562.70 0.6339
562.80 0.6335
562.90 0.633
563.00 0.6326
563.10 0.6321
563.20 0.6317
563.30 0.6313
563.40 0.6308
563.50 0.6304
563.60 0.63
563.70 0.6295
563.80 0.6291
563.90 0.6287
564.00 0.6283
564.10 0.6278
564.20 0.6274
564.30 0.627
564.40 0.6265
564.50 0.6261
564.60 0.6257
564.70 0.6252
564.80 0.6248
564.90 0.6244
565.00 0.624
565.10 0.6235
565.20 0.6231
565.30 0.6227
565.40 0.6223
565.50 0.6218
565.60 0.6214
565.70 0.621
565.80 0.6206
565.90 0.6201
566.00 0.6197
566.10 0.6193
566.20 0.6189
566.30 0.6184
566.40 0.618
566.50 0.6176
566.60 0.6172
566.70 0.6168
566.80 0.6163
566.90 0.6159
567.00 0.6155
567.10 0.6151
567.20 0.6146
567.30 0.6142
567.40 0.6138
567.50 0.6134
567.60 0.613
567.70 0.6126
567.80 0.6121
567.90 0.6117
568.00 0.6113
568.10 0.6109
568.20 0.6105
568.30 0.6101
568.40 0.6096
568.50 0.6092
568.60 0.6088
568.70 0.6084
568.80 0.608
568.90 0.6076
569.00 0.6072
569.10 0.6067
569.20 0.6063
569.30 0.6059
569.40 0.6055
569.50 0.6051
569.60 0.6047
569.70 0.6043
569.80 0.6039
569.90 0.6035
570.00 0.603
570.10 0.6026
570.20 0.6022
570.30 0.6018
570.40 0.6014
570.50 0.601
570.60 0.6006
570.70 0.6002
570.80 0.5998
570.90 0.5994
571.00 0.599
571.10 0.5986
571.20 0.5982
571.30 0.5978
571.40 0.5973
571.50 0.5969
571.60 0.5965
571.70 0.5961
571.80 0.5957
571.90 0.5953
572.00 0.5949
572.10 0.5945
572.20 0.5941
572.30 0.5937
572.40 0.5933
572.50 0.5929
572.60 0.5925
572.70 0.5921
572.80 0.5917
572.90 0.5913
573.00 0.5909
573.10 0.5905
573.20 0.5901
573.30 0.5897
573.40 0.5893
573.50 0.5889
573.60 0.5885
573.70 0.5881
573.80 0.5877
573.90 0.5873
574.00 0.5869
574.10 0.5865
574.20 0.5862
574.30 0.5858
574.40 0.5854
574.50 0.585
574.60 0.5846
574.70 0.5842
574.80 0.5838
574.90 0.5834
575.00 0.583
575.10 0.5826
575.20 0.5822
575.30 0.5818
575.40 0.5814
575.50 0.581
575.60 0.5807
575.70 0.5803
575.80 0.5799
575.90 0.5795
576.00 0.5791
576.10 0.5787
576.20 0.5783
576.30 0.5779
576.40 0.5775
576.50 0.5772
576.60 0.5768
576.70 0.5764
576.80 0.576
576.90 0.5756
577.00 0.5752
577.10 0.5748
577.20 0.5744
577.30 0.5741
577.40 0.5737
577.50 0.5733
577.60 0.5729
577.70 0.5725
577.80 0.5721
577.90 0.5718
578.00 0.5714
578.10 0.571
578.20 0.5706
578.30 0.5702
578.40 0.5698
578.50 0.5695
578.60 0.5691
578.70 0.5687
578.80 0.5683
578.90 0.5679
579.00 0.5676
579.10 0.5672
579.20 0.5668
579.30 0.5664
579.40 0.566
579.50 0.5657
579.60 0.5653
579.70 0.5649
579.80 0.5645
579.90 0.5642
580.00 0.5638
580.10 0.5634
580.20 0.563
580.30 0.5627
580.40 0.5623
580.50 0.5619
580.60 0.5615
580.70 0.5612
580.80 0.5608
580.90 0.5604
581.00 0.56
581.10 0.5597
581.20 0.5593
581.30 0.5589
581.40 0.5585
581.50 0.5582
581.60 0.5578
581.70 0.5574
581.80 0.5571
581.90 0.5567
582.00 0.5563
582.10 0.556
582.20 0.5556
582.30 0.5552
582.40 0.5548
582.50 0.5545
582.60 0.5541
582.70 0.5537
582.80 0.5534
582.90 0.553
583.00 0.5526
583.10 0.5523
583.20 0.5519
583.30 0.5515
583.40 0.5512
583.50 0.5508
583.60 0.5504
583.70 0.5501
583.80 0.5497
583.90 0.5493
584.00 0.549
584.10 0.5486
584.20 0.5483
584.30 0.5479
584.40 0.5475
584.50 0.5472
584.60 0.5468
584.70 0.5464
584.80 0.5461
584.90 0.5457
585.00 0.5454
585.10 0.545
585.20 0.5446
585.30 0.5443
585.40 0.5439
585.50 0.5436
585.60 0.5432
585.70 0.5428
585.80 0.5425
585.90 0.5421
586.00 0.5418
586.10 0.5414
586.20 0.541
586.30 0.5407
586.40 0.5403
586.50 0.54
586.60 0.5396
586.70 0.5393
586.80 0.5389
586.90 0.5386
587.00 0.5382
587.10 0.5378
587.20 0.5375
587.30 0.5371
587.40 0.5368
587.50 0.5364
587.60 0.5361
587.70 0.5357
587.80 0.5354
587.90 0.535
588.00 0.5347
588.10 0.5343
588.20 0.534
588.30 0.5336
588.40 0.5333
588.50 0.5329
588.60 0.5326
588.70 0.5322
588.80 0.5319
588.90 0.5315
589.00 0.5312
589.10 0.5308
589.20 0.5305
589.30 0.5301
589.40 0.5298
589.50 0.5294
589.60 0.5291
589.70 0.5287
589.80 0.5284
589.90 0.528
590.00 0.5277
590.10 0.5273
590.20 0.527
590.30 0.5266
590.40 0.5263
590.50 0.5259
590.60 0.5256
590.70 0.5253
590.80 0.5249
590.90 0.5246
591.00 0.5242
591.10 0.5239
591.20 0.5235
591.30 0.5232
591.40 0.5229
591.50 0.5225
591.60 0.5222
591.70 0.5218
591.80 0.5215
591.90 0.5211
592.00 0.5208
592.10 0.5205
592.20 0.5201
592.30 0.5198
592.40 0.5194
592.50 0.5191
592.60 0.5188
592.70 0.5184
592.80 0.5181
592.90 0.5177
593.00 0.5174
593.10 0.5171
593.20 0.5167
593.30 0.5164
593.40 0.5161
593.50 0.5157
593.60 0.5154
593.70 0.5151
593.80 0.5147
593.90 0.5144
594.00 0.514
594.10 0.5137
594.20 0.5134
594.30 0.513
594.40 0.5127
594.50 0.5124
594.60 0.512
594.70 0.5117
594.80 0.5114
594.90 0.511
595.00 0.5107
595.10 0.5104
595.20 0.51
595.30 0.5097
595.40 0.5094
595.50 0.509
595.60 0.5087
595.70 0.5084
595.80 0.5081
595.90 0.5077
596.00 0.5074
596.10 0.5071
596.20 0.5067
596.30 0.5064
596.40 0.5061
596.50 0.5058
596.60 0.5054
596.70 0.5051
596.80 0.5048
596.90 0.5044
597.00 0.5041
597.10 0.5038
597.20 0.5035
597.30 0.5031
597.40 0.5028
597.50 0.5025
597.60 0.5022
597.70 0.5018
597.80 0.5015
597.90 0.5012
598.00 0.5009
598.10 0.5005
598.20 0.5002
598.30 0.4999
598.40 0.4996
598.50 0.4992
598.60 0.4989
598.70 0.4986
598.80 0.4983
598.90 0.4979
599.00 0.4976
599.10 0.4973
599.20 0.497
599.30 0.4967
599.40 0.4963
599.50 0.496
599.60 0.4957
599.70 0.4954
599.80 0.4951
599.90 0.4947
600.00 0.4944
600.10 0.4941
600.20 0.4938
600.30 0.4935
600.40 0.4931
600.50 0.4928
600.60 0.4925
600.70 0.4922
600.80 0.4919
600.90 0.4916
601.00 0.4912
601.10 0.4909
601.20 0.4906
601.30 0.4903
601.40 0.49
601.50 0.4897
601.60 0.4893
601.70 0.489
601.80 0.4887
601.90 0.4884
602.00 0.4881
602.10 0.4878
602.20 0.4875
602.30 0.4871
602.40 0.4868
602.50 0.4865
602.60 0.4862
602.70 0.4859
602.80 0.4856
602.90 0.4853
603.00 0.485
603.10 0.4846
603.20 0.4843
603.30 0.484
603.40 0.4837
603.50 0.4834
603.60 0.4831
603.70 0.4828
603.80 0.4825
603.90 0.4822
604.00 0.4818
604.10 0.4815
604.20 0.4812
604.30 0.4809
604.40 0.4806
604.50 0.4803
604.60 0.48
604.70 0.4797
604.80 0.4794
604.90 0.4791
605.00 0.4788
605.10 0.4785
605.20 0.4782
605.30 0.4779
605.40 0.4775
605.50 0.4772
605.60 0.4769
605.70 0.4766
605.80 0.4763
605.90 0.476
606.00 0.4757
606.10 0.4754
606.20 0.4751
606.30 0.4748
606.40 0.4745
606.50 0.4742
606.60 0.4739
606.70 0.4736
606.80 0.4733
606.90 0.473
607.00 0.4727
607.10 0.4724
607.20 0.4721
607.30 0.4718
607.40 0.4715
607.50 0.4712
607.60 0.4709
607.70 0.4706
607.80 0.4703
607.90 0.47
608.00 0.4697
608.10 0.4694
608.20 0.4691
608.30 0.4688
608.40 0.4685
608.50 0.4682
608.60 0.4679
608.70 0.4676
608.80 0.4673
608.90 0.467
609.00 0.4667
609.10 0.4664
609.20 0.4661
609.30 0.4658
609.40 0.4655
609.50 0.4652
609.60 0.4649
609.70 0.4646
609.80 0.4643
609.90 0.464
610.00 0.4637
610.10 0.4634
610.20 0.4632
610.30 0.4629
610.40 0.4626
610.50 0.4623
610.60 0.462
610.70 0.4617
610.80 0.4614
610.90 0.4611
611.00 0.4608
611.10 0.4605
611.20 0.4602
611.30 0.4599
611.40 0.4596
611.50 0.4593
611.60 0.4591
611.70 0.4588
611.80 0.4585
611.90 0.4582
612.00 0.4579
612.10 0.4576
612.20 0.4573
612.30 0.457
612.40 0.4567
612.50 0.4564
612.60 0.4562
612.70 0.4559
612.80 0.4556
612.90 0.4553
613.00 0.455
613.10 0.4547
613.20 0.4544
613.30 0.4541
613.40 0.4539
613.50 0.4536
613.60 0.4533
613.70 0.453
613.80 0.4527
613.90 0.4524
614.00 0.4521
614.10 0.4519
614.20 0.4516
614.30 0.4513
614.40 0.451
614.50 0.4507
614.60 0.4504
614.70 0.4501
614.80 0.4499
614.90 0.4496
615.00 0.4493
615.10 0.449
615.20 0.4487
615.30 0.4484
615.40 0.4482
615.50 0.4479
615.60 0.4476
615.70 0.4473
615.80 0.447
615.90 0.4468
616.00 0.4465
616.10 0.4462
616.20 0.4459
616.30 0.4456
616.40 0.4454
616.50 0.4451
616.60 0.4448
616.70 0.4445
616.80 0.4442
616.90 0.444
617.00 0.4437
617.10 0.4434
617.20 0.4431
617.30 0.4428
617.40 0.4426
617.50 0.4423
617.60 0.442
617.70 0.4417
617.80 0.4414
617.90 0.4412
618.00 0.4409
618.10 0.4406
618.20 0.4403
618.30 0.4401
618.40 0.4398
618.50 0.4395
618.60 0.4392
618.70 0.439
618.80 0.4387
618.90 0.4384
619.00 0.4381
619.10 0.4379
619.20 0.4376
619.30 0.4373
619.40 0.437
619.50 0.4368
619.60 0.4365
619.70 0.4362
619.80 0.436
619.90 0.4357
620.00 0.4354
620.10 0.4351
620.20 0.4349
620.30 0.4346
620.40 0.4343
620.50 0.434
620.60 0.4338
620.70 0.4335
620.80 0.4332
620.90 0.433
621.00 0.4327
621.10 0.4324
621.20 0.4322
621.30 0.4319
621.40 0.4316
621.50 0.4313
621.60 0.4311
621.70 0.4308
621.80 0.4305
621.90 0.4303
622.00 0.43
622.10 0.4297
622.20 0.4295
622.30 0.4292
622.40 0.4289
622.50 0.4287
622.60 0.4284
622.70 0.4281
622.80 0.4279
622.90 0.4276
623.00 0.4273
623.10 0.4271
623.20 0.4268
623.30 0.4265
623.40 0.4263
623.50 0.426
623.60 0.4257
623.70 0.4255
623.80 0.4252
623.90 0.4249
624.00 0.4247
624.10 0.4244
624.20 0.4241
624.30 0.4239
624.40 0.4236
624.50 0.4234
624.60 0.4231
624.70 0.4228
624.80 0.4226
624.90 0.4223
625.00 0.422
625.10 0.4218
625.20 0.4215
625.30 0.4213
625.40 0.421
625.50 0.4207
625.60 0.4205
625.70 0.4202
625.80 0.42
625.90 0.4197
626.00 0.4194
626.10 0.4192
626.20 0.4189
626.30 0.4187
626.40 0.4184
626.50 0.4181
626.60 0.4179
626.70 0.4176
626.80 0.4174
626.90 0.4171
627.00 0.4168
627.10 0.4166
627.20 0.4163
627.30 0.4161
627.40 0.4158
627.50 0.4156
627.60 0.4153
627.70 0.415
627.80 0.4148
627.90 0.4145
628.00 0.4143
628.10 0.414
628.20 0.4138
628.30 0.4135
628.40 0.4132
628.50 0.413
628.60 0.4127
628.70 0.4125
628.80 0.4122
628.90 0.412
629.00 0.4117
629.10 0.4115
629.20 0.4112
629.30 0.411
629.40 0.4107
629.50 0.4105
629.60 0.4102
629.70 0.4099
629.80 0.4097
629.90 0.4094
630.00 0.4092
630.10 0.4089
630.20 0.4087
630.30 0.4084
630.40 0.4082
630.50 0.4079
630.60 0.4077
630.70 0.4074
630.80 0.4072
630.90 0.4069
631.00 0.4067
631.10 0.4064
631.20 0.4062
631.30 0.4059
631.40 0.4057
631.50 0.4054
631.60 0.4052
631.70 0.4049
631.80 0.4047
631.90 0.4044
632.00 0.4042
632.10 0.4039
632.20 0.4037
632.30 0.4034
632.40 0.4032
632.50 0.4029
632.60 0.4027
632.70 0.4024
632.80 0.4022
632.90 0.4019
633.00 0.4017
633.10 0.4015
633.20 0.4012
633.30 0.401
633.40 0.4007
633.50 0.4005
633.60 0.4002
633.70 0.4
633.80 0.3997
633.90 0.3995
634.00 0.3992
634.10 0.399
634.20 0.3988
634.30 0.3985
634.40 0.3983
634.50 0.398
634.60 0.3978
634.70 0.3975
634.80 0.3973
634.90 0.397
635.00 0.3968
635.10 0.3966
635.20 0.3963
635.30 0.3961
635.40 0.3958
635.50 0.3956
635.60 0.3953
635.70 0.3951
635.80 0.3949
635.90 0.3946
636.00 0.3944
636.10 0.3941
636.20 0.3939
636.30 0.3936
636.40 0.3934
636.50 0.3932
636.60 0.3929
636.70 0.3927
636.80 0.3924
636.90 0.3922
637.00 0.392
637.10 0.3917
637.20 0.3915
637.30 0.3912
637.40 0.391
637.50 0.3908
637.60 0.3905
637.70 0.3903
637.80 0.3901
637.90 0.3898
638.00 0.3896
638.10 0.3893
638.20 0.3891
638.30 0.3889
638.40 0.3886
638.50 0.3884
638.60 0.3881
638.70 0.3879
638.80 0.3877
638.90 0.3874
639.00 0.3872
639.10 0.387
639.20 0.3867
639.30 0.3865
639.40 0.3863
639.50 0.386
639.60 0.3858
639.70 0.3855
639.80 0.3853
639.90 0.3851
640.00 0.3848
640.10 0.3846
640.20 0.3844
640.30 0.3841
640.40 0.3839
640.50 0.3837
640.60 0.3834
640.70 0.3832
640.80 0.383
640.90 0.3827
641.00 0.3825
641.10 0.3823
641.20 0.382
641.30 0.3818
641.40 0.3815
641.50 0.3813
641.60 0.3811
641.70 0.3808
641.80 0.3806
641.90 0.3804
642.00 0.3801
642.10 0.3799
642.20 0.3797
642.30 0.3794
642.40 0.3792
642.50 0.379
642.60 0.3787
642.70 0.3785
642.80 0.3783
642.90 0.3781
643.00 0.3778
643.10 0.3776
643.20 0.3774
643.30 0.3771
643.40 0.3769
643.50 0.3767
643.60 0.3764
643.70 0.3762
643.80 0.376
643.90 0.3757
644.00 0.3755
644.10 0.3753
644.20 0.375
644.30 0.3748
644.40 0.3746
644.50 0.3743
644.60 0.3741
644.70 0.3739
644.80 0.3736
644.90 0.3734
645.00 0.3732
645.10 0.3729
645.20 0.3727
645.30 0.3725
645.40 0.3723
645.50 0.372
645.60 0.3718
645.70 0.3716
645.80 0.3713
645.90 0.3711
646.00 0.3709
646.10 0.3706
646.20 0.3704
646.30 0.3702
646.40 0.3699
646.50 0.3697
646.60 0.3695
646.70 0.3692
646.80 0.369
646.90 0.3688
647.00 0.3685
647.10 0.3683
647.20 0.368
647.30 0.3678
647.40 0.3676
647.50 0.3673
647.60 0.3671
647.70 0.3669
647.80 0.3666
647.90 0.3664
648.00 0.3661
648.10 0.3659
648.20 0.3657
648.30 0.3654
648.40 0.3652
648.50 0.3649
648.60 0.3647
648.70 0.3645
648.80 0.3642
648.90 0.364
649.00 0.3637
649.10 0.3635
649.20 0.3632
649.30 0.363
649.40 0.3627
649.50 0.3625
649.60 0.3622
649.70 0.362
649.80 0.3617
649.90 0.3614
650.00 0.3612
650.10 0.3609
650.20 0.3607
650.30 0.3604
650.40 0.3601
650.50 0.3599
650.60 0.3596
650.70 0.3593
650.80 0.359
650.90 0.3587
651.00 0.3585
651.10 0.3582
651.20 0.3579
651.30 0.3576
651.40 0.3573
651.50 0.357
651.60 0.3566
651.70 0.3563
651.80 0.356
651.90 0.3557
652.00 0.3553
652.10 0.355
652.20 0.3547
652.30 0.3543
652.40 0.3539
652.50 0.3535
652.60 0.3531
652.70 0.3527
652.80 0.3522
652.90 0.3518
653.00 0.3514
653.10 0.351
653.20 0.3506
653.30 0.3501
653.40 0.3495
653.50 0.3489
653.60 0.3483
653.70 0.3477
653.80 0.3471
653.90 0.3465
654.00 0.3459
654.10 0.3453
654.20 0.3447
654.30 0.344
654.40 0.3431
654.50 0.3423
654.60 0.3414
654.70 0.3406
654.80 0.3397
654.90 0.3385
655.00 0.3374
655.10 0.3363
655.20 0.3352
655.30 0.334
655.40 0.3326
655.50 0.3312
655.60 0.3295
655.70 0.3278
655.80 0.3256
655.90 0.3231
656.00 0.3198
656.10 0.3164
656.20 0.3216
656.30 0.3336
656.40 0.3166
656.50 0.3168
656.60 0.3198
656.70 0.3226
656.80 0.3244
656.90 0.3261
657.00 0.3274
657.10 0.3286
657.20 0.3296
657.30 0.3305
657.40 0.3313
657.50 0.332
657.60 0.3327
657.70 0.3334
657.80 0.3341
657.90 0.3345
658.00 0.335
658.10 0.3354
658.20 0.3359
658.30 0.3363
658.40 0.3365
658.50 0.3367
658.60 0.3369
658.70 0.3371
658.80 0.3373
658.90 0.3375
659.00 0.3376
659.10 0.3378
659.20 0.338
659.30 0.3382
659.40 0.3382
659.50 0.3382
659.60 0.3382
659.70 0.3382
659.80 0.3382
659.90 0.3382
660.00 0.3382
660.10 0.3382
660.20 0.3382
660.30 0.3382
660.40 0.3381
660.50 0.338
660.60 0.3379
660.70 0.3378
660.80 0.3377
660.90 0.3376
661.00 0.3375
661.10 0.3374
661.20 0.3373
661.30 0.3372
661.40 0.3371
661.50 0.337
661.60 0.3368
661.70 0.3367
661.80 0.3365
661.90 0.3364
662.00 0.3363
662.10 0.3361
662.20 0.336
662.30 0.3359
662.40 0.3357
662.50 0.3355
662.60 0.3354
662.70 0.3352
662.80 0.3351
662.90 0.3349
663.00 0.3347
663.10 0.3346
663.20 0.3344
663.30 0.3343
663.40 0.3341
663.50 0.3339
663.60 0.3337
663.70 0.3336
663.80 0.3334
663.90 0.3332
664.00 0.333
664.10 0.3329
664.20 0.3327
664.30 0.3325
664.40 0.3324
664.50 0.3322
664.60 0.332
664.70 0.3318
664.80 0.3316
664.90 0.3315
665.00 0.3313
665.10 0.3311
665.20 0.3309
665.30 0.3308
665.40 0.3306
665.50 0.3304
665.60 0.3302
665.70 0.33
665.80 0.3298
665.90 0.3297
666.00 0.3295
666.10 0.3293
666.20 0.3291
666.30 0.3289
666.40 0.3288
666.50 0.3286
666.60 0.3284
666.70 0.3282
666.80 0.328
666.90 0.3278
667.00 0.3277
667.10 0.3275
667.20 0.3273
667.30 0.3271
667.40 0.3269
667.50 0.3267
667.60 0.3266
667.70 0.3264
667.80 0.3262
667.90 0.326
668.00 0.3258
668.10 0.3256
668.20 0.3255
668.30 0.3253
668.40 0.3251
668.50 0.3249
668.60 0.3247
668.70 0.3245
668.80 0.3243
668.90 0.3242
669.00 0.324
669.10 0.3238
669.20 0.3236
669.30 0.3234
669.40 0.3232
669.50 0.3231
669.60 0.3229
669.70 0.3227
669.80 0.3225
669.90 0.3223
670.00 0.3221
670.10 0.322
670.20 0.3218
670.30 0.3216
670.40 0.3214
670.50 0.3212
670.60 0.321
670.70 0.3209
670.80 0.3207
670.90 0.3205
671.00 0.3203
671.10 0.3201
671.20 0.3199
671.30 0.3198
671.40 0.3196
671.50 0.3194
671.60 0.3192
671.70 0.319
671.80 0.3188
671.90 0.3187
672.00 0.3185
672.10 0.3183
672.20 0.3181
672.30 0.3179
672.40 0.3178
672.50 0.3176
672.60 0.3174
672.70 0.3172
672.80 0.317
672.90 0.3169
673.00 0.3167
673.10 0.3165
673.20 0.3163
673.30 0.3161
673.40 0.3159
673.50 0.3158
673.60 0.3156
673.70 0.3154
673.80 0.3152
673.90 0.315
674.00 0.3149
674.10 0.3147
674.20 0.3145
674.30 0.3143
674.40 0.3141
674.50 0.314
674.60 0.3138
674.70 0.3136
674.80 0.3134
674.90 0.3132
675.00 0.3131
675.10 0.3129
675.20 0.3127
675.30 0.3125
675.40 0.3124
675.50 0.3122
675.60 0.312
675.70 0.3118
675.80 0.3116
675.90 0.3115
676.00 0.3113
676.10 0.3111
676.20 0.3109
676.30 0.3108
676.40 0.3106
676.50 0.3104
676.60 0.3102
676.70 0.31
676.80 0.3099
676.90 0.3097
677.00 0.3095
677.10 0.3093
677.20 0.3092
677.30 0.309
677.40 0.3088
677.50 0.3086
677.60 0.3085
677.70 0.3083
677.80 0.3081
677.90 0.3079
678.00 0.3077
678.10 0.3076
678.20 0.3074
678.30 0.3072
678.40 0.307
678.50 0.3069
678.60 0.3067
678.70 0.3065
678.80 0.3063
678.90 0.3062
679.00 0.306
679.10 0.3058
679.20 0.3057
679.30 0.3055
679.40 0.3053
679.50 0.3051
679.60 0.305
679.70 0.3048
679.80 0.3046
679.90 0.3044
680.00 0.3043
680.10 0.3041
680.20 0.3039
680.30 0.3037
680.40 0.3036
680.50 0.3034
680.60 0.3032
680.70 0.3031
680.80 0.3029
680.90 0.3027
681.00 0.3025
681.10 0.3024
681.20 0.3022
681.30 0.302
681.40 0.3018
681.50 0.3017
681.60 0.3015
681.70 0.3013
681.80 0.3012
681.90 0.301
682.00 0.3008
682.10 0.3006
682.20 0.3005
682.30 0.3003
682.40 0.3001
682.50 0.3
682.60 0.2998
682.70 0.2996
682.80 0.2995
682.90 0.2993
683.00 0.2991
683.10 0.2989
683.20 0.2988
683.30 0.2986
683.40 0.2984
683.50 0.2983
683.60 0.2981
683.70 0.2979
683.80 0.2978
683.90 0.2976
684.00 0.2974
684.10 0.2973
684.20 0.2971
684.30 0.2969
684.40 0.2968
684.50 0.2966
684.60 0.2964
684.70 0.2962
684.80 0.2961
684.90 0.2959
685.00 0.2957
685.10 0.2956
685.20 0.2954
685.30 0.2952
685.40 0.2951
685.50 0.2949
685.60 0.2947
685.70 0.2946
685.80 0.2944
685.90 0.2942
686.00 0.2941
686.10 0.2939
686.20 0.2937
686.30 0.2936
686.40 0.2934
686.50 0.2932
686.60 0.2931
686.70 0.2929
686.80 0.2928
686.90 0.2926
687.00 0.2924
687.10 0.2923
687.20 0.2921
687.30 0.2919
687.40 0.2918
687.50 0.2916
687.60 0.2914
687.70 0.2913
687.80 0.2911
687.90 0.2909
688.00 0.2908
688.10 0.2906
688.20 0.2904
688.30 0.2903
688.40 0.2901
688.50 0.29
688.60 0.2898
688.70 0.2896
688.80 0.2895
688.90 0.2893
689.00 0.2891
689.10 0.289
689.20 0.2888
689.30 0.2887
689.40 0.2885
689.50 0.2883
689.60 0.2882
689.70 0.288
689.80 0.2878
689.90 0.2877
690.00 0.2875
690.10 0.2874
690.20 0.2872
690.30 0.287
690.40 0.2869
690.50 0.2867
690.60 0.2866
690.70 0.2864
690.80 0.2862
690.90 0.2861
691.00 0.2859
691.10 0.2858
691.20 0.2856
691.30 0.2854
691.40 0.2853
691.50 0.2851
691.60 0.285
691.70 0.2848
691.80 0.2846
691.90 0.2845
692.00 0.2843
692.10 0.2842
692.20 0.284
692.30 0.2838
692.40 0.2837
692.50 0.2835
692.60 0.2834
692.70 0.2832
692.80 0.283
692.90 0.2829
693.00 0.2827
693.10 0.2826
693.20 0.2824
693.30 0.2823
693.40 0.2821
693.50 0.2819
693.60 0.2818
693.70 0.2816
693.80 0.2815
693.90 0.2813
694.00 0.2811
694.10 0.281
694.20 0.2808
694.30 0.2807
694.40 0.2805
694.50 0.2804
694.60 0.2802
694.70 0.28
694.80 0.2799
694.90 0.2797
695.00 0.2796
695.10 0.2794
695.20 0.2793
695.30 0.2791
695.40 0.279
695.50 0.2788
695.60 0.2786
695.70 0.2785
695.80 0.2783
695.90 0.2782
696.00 0.278
696.10 0.2779
696.20 0.2777
696.30 0.2776
696.40 0.2774
696.50 0.2773
696.60 0.2771
696.70 0.2769
696.80 0.2768
696.90 0.2766
697.00 0.2765
697.10 0.2763
697.20 0.2762
697.30 0.276
697.40 0.2759
697.50 0.2757
697.60 0.2756
697.70 0.2754
697.80 0.2753
697.90 0.2751
698.00 0.2749
698.10 0.2748
698.20 0.2746
698.30 0.2745
698.40 0.2743
698.50 0.2742
698.60 0.274
698.70 0.2739
698.80 0.2737
698.90 0.2736
699.00 0.2734
699.10 0.2733
699.20 0.2731
699.30 0.273
699.40 0.2728
699.50 0.2727
699.60 0.2725
699.70 0.2724
699.80 0.2722
699.90 0.2721
700.00 0.2719
700.10 0.2718
700.20 0.2716
700.30 0.2715
700.40 0.2713
700.50 0.2712
700.60 0.271
700.70 0.2709
700.80 0.2707
700.90 0.2706
701.00 0.2704
701.10 0.2703
701.20 0.2701
701.30 0.27
701.40 0.2698
701.50 0.2697
701.60 0.2695
701.70 0.2694
701.80 0.2692
701.90 0.2691
702.00 0.2689
702.10 0.2688
702.20 0.2686
702.30 0.2685
702.40 0.2683
702.50 0.2682
702.60 0.268
702.70 0.2679
702.80 0.2677
702.90 0.2676
703.00 0.2674
703.10 0.2673
703.20 0.2671
703.30 0.267
703.40 0.2668
703.50 0.2667
703.60 0.2665
703.70 0.2664
703.80 0.2663
703.90 0.2661
704.00 0.266
704.10 0.2658
704.20 0.2657
704.30 0.2655
704.40 0.2654
704.50 0.2652
704.60 0.2651
704.70 0.2649
704.80 0.2648
704.90 0.2646
705.00 0.2645
705.10 0.2643
705.20 0.2642
705.30 0.2641
705.40 0.2639
705.50 0.2638
705.60 0.2636
705.70 0.2635
705.80 0.2633
705.90 0.2632
706.00 0.263
706.10 0.2629
706.20 0.2628
706.30 0.2626
706.40 0.2625
706.50 0.2623
706.60 0.2622
706.70 0.262
706.80 0.2619
706.90 0.2617
707.00 0.2616
707.10 0.2615
707.20 0.2613
707.30 0.2612
707.40 0.261
707.50 0.2609
707.60 0.2607
707.70 0.2606
707.80 0.2605
707.90 0.2603
708.00 0.2602
708.10 0.26
708.20 0.2599
708.30 0.2597
708.40 0.2596
708.50 0.2595
708.60 0.2593
708.70 0.2592
708.80 0.259
708.90 0.2589
709.00 0.2587
709.10 0.2586
709.20 0.2585
709.30 0.2583
709.40 0.2582
709.50 0.258
709.60 0.2579
709.70 0.2578
709.80 0.2576
709.90 0.2575
710.00 0.2573
710.10 0.2572
710.20 0.257
710.30 0.2569
710.40 0.2568
710.50 0.2566
710.60 0.2565
710.70 0.2563
710.80 0.2562
710.90 0.2561
711.00 0.2559
711.10 0.2558
711.20 0.2557
711.30 0.2555
711.40 0.2554
711.50 0.2552
711.60 0.2551
711.70 0.255
711.80 0.2548
711.90 0.2547
712.00 0.2545
712.10 0.2544
712.20 0.2543
712.30 0.2541
712.40 0.254
712.50 0.2538
712.60 0.2537
712.70 0.2536
712.80 0.2534
712.90 0.2533
713.00 0.2532
713.10 0.253
713.20 0.2529
713.30 0.2527
713.40 0.2526
713.50 0.2525
713.60 0.2523
713.70 0.2522
713.80 0.2521
713.90 0.2519
714.00 0.2518
714.10 0.2516
714.20 0.2515
714.30 0.2514
714.40 0.2512
714.50 0.2511
714.60 0.251
714.70 0.2508
714.80 0.2507
714.90 0.2505
715.00 0.2504
715.10 0.2503
715.20 0.2501
715.30 0.25
715.40 0.2499
715.50 0.2497
715.60 0.2496
715.70 0.2495
715.80 0.2493
715.90 0.2492
716.00 0.2491
716.10 0.2489
716.20 0.2488
716.30 0.2487
716.40 0.2485
716.50 0.2484
716.60 0.2482
716.70 0.2481
716.80 0.248
716.90 0.2478
717.00 0.2477
717.10 0.2476
717.20 0.2474
717.30 0.2473
717.40 0.2472
717.50 0.247
717.60 0.2469
717.70 0.2468
717.80 0.2466
717.90 0.2465
718.00 0.2464
718.10 0.2462
718.20 0.2461
718.30 0.246
718.40 0.2458
718.50 0.2457
718.60 0.2456
718.70 0.2454
718.80 0.2453
718.90 0.2452
719.00 0.245
719.10 0.2449
719.20 0.2448
719.30 0.2446
719.40 0.2445
719.50 0.2444
719.60 0.2442
719.70 0.2441
719.80 0.244
719.90 0.2439
720.00 0.2437
720.10 0.2436
720.20 0.2435
720.30 0.2433
720.40 0.2432
720.50 0.2431
720.60 0.2429
720.70 0.2428
720.80 0.2427
720.90 0.2425
721.00 0.2424
721.10 0.2423
721.20 0.2422
721.30 0.242
721.40 0.2419
721.50 0.2418
721.60 0.2416
721.70 0.2415
721.80 0.2414
721.90 0.2412
722.00 0.2411
722.10 0.241
722.20 0.2409
722.30 0.2407
722.40 0.2406
722.50 0.2405
722.60 0.2403
722.70 0.2402
722.80 0.2401
722.90 0.2399
723.00 0.2398
723.10 0.2397
723.20 0.2396
723.30 0.2394
723.40 0.2393
723.50 0.2392
723.60 0.239
723.70 0.2389
723.80 0.2388
723.90 0.2387
724.00 0.2385
724.10 0.2384
724.20 0.2383
724.30 0.2381
724.40 0.238
724.50 0.2379
724.60 0.2378
724.70 0.2376
724.80 0.2375
724.90 0.2374
725.00 0.2373
725.10 0.2371
725.20 0.237
725.30 0.2369
725.40 0.2367
725.50 0.2366
725.60 0.2365
725.70 0.2364
725.80 0.2362
725.90 0.2361
726.00 0.236
726.10 0.2359
726.20 0.2357
726.30 0.2356
726.40 0.2355
726.50 0.2354
726.60 0.2352
726.70 0.2351
726.80 0.235
726.90 0.2349
727.00 0.2347
727.10 0.2346
727.20 0.2345
727.30 0.2344
727.40 0.2342
727.50 0.2341
727.60 0.234
727.70 0.2339
727.80 0.2337
727.90 0.2336
728.00 0.2335
728.10 0.2334
728.20 0.2332
728.30 0.2331
728.40 0.233
728.50 0.2329
728.60 0.2327
728.70 0.2326
728.80 0.2325
728.90 0.2324
729.00 0.2322
729.10 0.2321
729.20 0.232
729.30 0.2319
729.40 0.2317
729.50 0.2316
729.60 0.2315
729.70 0.2314
729.80 0.2312
729.90 0.2311
730.00 0.231
730.10 0.2309
730.20 0.2308
730.30 0.2306
730.40 0.2305
730.50 0.2304
730.60 0.2303
730.70 0.2301
730.80 0.23
730.90 0.2299
731.00 0.2298
731.10 0.2297
731.20 0.2295
731.30 0.2294
731.40 0.2293
731.50 0.2292
731.60 0.2291
731.70 0.2289
731.80 0.2288
731.90 0.2287
732.00 0.2286
732.10 0.2285
732.20 0.2283
732.30 0.2282
732.40 0.2281
732.50 0.228
732.60 0.2279
732.70 0.2277
732.80 0.2276
732.90 0.2275
733.00 0.2274
733.10 0.2272
733.20 0.2271
733.30 0.227
733.40 0.2269
733.50 0.2268
733.60 0.2266
733.70 0.2265
733.80 0.2264
733.90 0.2263
734.00 0.2262
734.10 0.2261
734.20 0.2259
734.30 0.2258
734.40 0.2257
734.50 0.2256
734.60 0.2255
734.70 0.2253
734.80 0.2252
734.90 0.2251
735.00 0.225
735.10 0.2249
735.20 0.2247
735.30 0.2246
735.40 0.2245
735.50 0.2244
735.60 0.2243
735.70 0.2241
735.80 0.224
735.90 0.2239
736.00 0.2238
736.10 0.2237
736.20 0.2236
736.30 0.2234
736.40 0.2233
736.50 0.2232
736.60 0.2231
736.70 0.223
736.80 0.2228
736.90 0.2227
737.00 0.2226
737.10 0.2225
737.20 0.2224
737.30 0.2223
737.40 0.2221
737.50 0.222
737.60 0.2219
737.70 0.2218
737.80 0.2217
737.90 0.2216
738.00 0.2214
738.10 0.2213
738.20 0.2212
738.30 0.2211
738.40 0.221
738.50 0.2208
738.60 0.2207
738.70 0.2206
738.80 0.2205
738.90 0.2204
739.00 0.2203
739.10 0.2201
739.20 0.22
739.30 0.2199
739.40 0.2198
739.50 0.2197
739.60 0.2196
739.70 0.2194
739.80 0.2193
739.90 0.2192
740.00 0.2191
740.10 0.219
740.20 0.2189
740.30 0.2188
740.40 0.2186
740.50 0.2185
740.60 0.2184
740.70 0.2183
740.80 0.2182
740.90 0.2181
741.00 0.218
741.10 0.2178
741.20 0.2177
741.30 0.2176
741.40 0.2175
741.50 0.2174
741.60 0.2173
741.70 0.2172
741.80 0.2171
741.90 0.2169
742.00 0.2168
742.10 0.2167
742.20 0.2166
742.30 0.2165
742.40 0.2164
742.50 0.2163
742.60 0.2162
742.70 0.216
742.80 0.2159
742.90 0.2158
743.00 0.2157
743.10 0.2156
743.20 0.2155
743.30 0.2154
743.40 0.2153
743.50 0.2151
743.60 0.215
743.70 0.2149
743.80 0.2148
743.90 0.2147
744.00 0.2146
744.10 0.2145
744.20 0.2144
744.30 0.2142
744.40 0.2141
744.50 0.214
744.60 0.2139
744.70 0.2138
744.80 0.2137
744.90 0.2136
745.00 0.2135
745.10 0.2134
745.20 0.2132
745.30 0.2131
745.40 0.213
745.50 0.2129
745.60 0.2128
745.70 0.2127
745.80 0.2126
745.90 0.2125
746.00 0.2124
746.10 0.2122
746.20 0.2121
746.30 0.212
746.40 0.2119
746.50 0.2118
746.60 0.2117
746.70 0.2116
746.80 0.2115
746.90 0.2114
747.00 0.2112
747.10 0.2111
747.20 0.211
747.30 0.2109
747.40 0.2108
747.50 0.2107
747.60 0.2106
747.70 0.2105
747.80 0.2104
747.90 0.2103
748.00 0.2101
748.10 0.21
748.20 0.2099
748.30 0.2098
748.40 0.2097
748.50 0.2096
748.60 0.2095
748.70 0.2094
748.80 0.2093
748.90 0.2092
749.00 0.2091
749.10 0.2089
749.20 0.2088
749.30 0.2087
749.40 0.2086
749.50 0.2085
749.60 0.2084
749.70 0.2083
749.80 0.2082
749.90 0.2081
750.00 0.208
750.10 0.2079
750.20 0.2077
750.30 0.2076
750.40 0.2075
750.50 0.2074
750.60 0.2073
750.70 0.2072
750.80 0.2071
750.90 0.207
751.00 0.2069
751.10 0.2068
751.20 0.2067
751.30 0.2066
751.40 0.2065
751.50 0.2064
751.60 0.2063
751.70 0.2062
751.80 0.206
751.90 0.2059
752.00 0.2058
752.10 0.2057
752.20 0.2056
752.30 0.2055
752.40 0.2054
752.50 0.2053
752.60 0.2052
752.70 0.2051
752.80 0.205
752.90 0.2049
753.00 0.2048
753.10 0.2047
753.20 0.2046
753.30 0.2045
753.40 0.2044
753.50 0.2043
753.60 0.2041
753.70 0.204
753.80 0.2039
753.90 0.2038
754.00 0.2037
754.10 0.2036
754.20 0.2035
754.30 0.2034
754.40 0.2033
754.50 0.2032
754.60 0.2031
754.70 0.203
754.80 0.2029
754.90 0.2028
755.00 0.2027
755.10 0.2026
755.20 0.2025
755.30 0.2024
755.40 0.2023
755.50 0.2022
755.60 0.2021
755.70 0.2019
755.80 0.2018
755.90 0.2017
756.00 0.2016
756.10 0.2015
756.20 0.2014
756.30 0.2013
756.40 0.2012
756.50 0.2011
756.60 0.201
756.70 0.2009
756.80 0.2008
756.90 0.2007
757.00 0.2006
757.10 0.2005
757.20 0.2004
757.30 0.2003
757.40 0.2002
757.50 0.2001
757.60 0.2
757.70 0.1999
757.80 0.1998
757.90 0.1997
758.00 0.1996
758.10 0.1995
758.20 0.1994
758.30 0.1993
758.40 0.1992
758.50 0.1991
758.60 0.199
758.70 0.1988
758.80 0.1987
758.90 0.1986
759.00 0.1985
759.10 0.1984
759.20 0.1983
759.30 0.1982
759.40 0.1981
759.50 0.198
759.60 0.1979
759.70 0.1978
759.80 0.1977
759.90 0.1976
760.00 0.1975
760.10 0.1974
760.20 0.1973
760.30 0.1972
760.40 0.1971
760.50 0.197
760.60 0.1969
760.70 0.1968
760.80 0.1967
760.90 0.1966
761.00 0.1965
761.10 0.1964
761.20 0.1963
761.30 0.1962
761.40 0.1961
761.50 0.196
761.60 0.1959
761.70 0.1958
761.80 0.1957
761.90 0.1956
762.00 0.1955
762.10 0.1954
762.20 0.1953
762.30 0.1952
762.40 0.1951
762.50 0.195
762.60 0.1949
762.70 0.1948
762.80 0.1947
762.90 0.1946
763.00 0.1945
763.10 0.1944
763.20 0.1943
763.30 0.1942
763.40 0.1941
763.50 0.194
763.60 0.1939
763.70 0.1938
763.80 0.1937
763.90 0.1936
764.00 0.1935
764.10 0.1935
764.20 0.1934
764.30 0.1933
764.40 0.1932
764.50 0.1931
764.60 0.193
764.70 0.1929
764.80 0.1928
764.90 0.1927
765.00 0.1926
765.10 0.1925
765.20 0.1924
765.30 0.1923
765.40 0.1922
765.50 0.1921
765.60 0.192
765.70 0.1919
765.80 0.1918
765.90 0.1917
766.00 0.1916
766.10 0.1915
766.20 0.1914
766.30 0.1913
766.40 0.1912
766.50 0.1911
766.60 0.191
766.70 0.1909
766.80 0.1908
766.90 0.1907
767.00 0.1906
767.10 0.1905
767.20 0.1904
767.30 0.1903
767.40 0.1902
767.50 0.1901
767.60 0.19
767.70 0.1899
767.80 0.1898
767.90 0.1897
768.00 0.1897
768.10 0.1896
768.20 0.1895
768.30 0.1894
768.40 0.1893
768.50 0.1892
768.60 0.1891
768.70 0.189
768.80 0.1889
768.90 0.1888
769.00 0.1887
769.10 0.1886
769.20 0.1885
769.30 0.1884
769.40 0.1883
769.50 0.1882
769.60 0.1881
769.70 0.188
769.80 0.1879
769.90 0.1878
770.00 0.1877
770.10 0.1876
770.20 0.1875
770.30 0.1874
770.40 0.1874
770.50 0.1873
770.60 0.1872
770.70 0.1871
770.80 0.187
770.90 0.1869
771.00 0.1868
771.10 0.1867
771.20 0.1866
771.30 0.1865
771.40 0.1864
771.50 0.1863
771.60 0.1862
771.70 0.1861
771.80 0.186
771.90 0.1859
772.00 0.1859
772.10 0.1858
772.20 0.1857
772.30 0.1856
772.40 0.1855
772.50 0.1854
772.60 0.1853
772.70 0.1852
772.80 0.1851
772.90 0.185
773.00 0.1849
773.10 0.1848
773.20 0.1847
773.30 0.1846
773.40 0.1846
773.50 0.1845
773.60 0.1844
773.70 0.1843
773.80 0.1842
773.90 0.1841
774.00 0.184
774.10 0.1839
774.20 0.1838
774.30 0.1837
774.40 0.1836
774.50 0.1835
774.60 0.1834
774.70 0.1834
774.80 0.1833
774.90 0.1832
775.00 0.1831
775.10 0.183
775.20 0.1829
775.30 0.1828
775.40 0.1827
775.50 0.1826
775.60 0.1825
775.70 0.1824
775.80 0.1823
775.90 0.1823
776.00 0.1822
776.10 0.1821
776.20 0.182
776.30 0.1819
776.40 0.1818
776.50 0.1817
776.60 0.1816
776.70 0.1815
776.80 0.1814
776.90 0.1813
777.00 0.1813
777.10 0.1812
777.20 0.1811
777.30 0.181
777.40 0.1809
777.50 0.1808
777.60 0.1807
777.70 0.1806
777.80 0.1805
777.90 0.1804
778.00 0.1803
778.10 0.1803
778.20 0.1802
778.30 0.1801
778.40 0.18
778.50 0.1799
778.60 0.1798
778.70 0.1797
778.80 0.1796
778.90 0.1795
779.00 0.1794
779.10 0.1793
779.20 0.1793
779.30 0.1792
779.40 0.1791
779.50 0.179
779.60 0.1789
779.70 0.1788
779.80 0.1787
779.90 0.1786
780.00 0.1785
780.10 0.1784
780.20 0.1784
780.30 0.1783
780.40 0.1782
780.50 0.1781
780.60 0.178
780.70 0.1779
780.80 0.1778
780.90 0.1777
781.00 0.1777
781.10 0.1776
781.20 0.1775
781.30 0.1774
781.40 0.1773
781.50 0.1772
781.60 0.1771
781.70 0.177
781.80 0.177
781.90 0.1769
782.00 0.1768
782.10 0.1767
782.20 0.1766
782.30 0.1765
782.40 0.1764
782.50 0.1763
782.60 0.1763
782.70 0.1762
782.80 0.1761
782.90 0.176
783.00 0.1759
783.10 0.1758
783.20 0.1757
783.30 0.1756
783.40 0.1756
783.50 0.1755
783.60 0.1754
783.70 0.1753
783.80 0.1752
783.90 0.1751
784.00 0.175
784.10 0.175
784.20 0.1749
784.30 0.1748
784.40 0.1747
784.50 0.1746
784.60 0.1745
784.70 0.1744
784.80 0.1743
784.90 0.1743
785.00 0.1742
785.10 0.1741
785.20 0.174
785.30 0.1739
785.40 0.1738
785.50 0.1737
785.60 0.1737
785.70 0.1736
785.80 0.1735
785.90 0.1734
786.00 0.1733
786.10 0.1732
786.20 0.1731
786.30 0.1731
786.40 0.173
786.50 0.1729
786.60 0.1728
786.70 0.1727
786.80 0.1726
786.90 0.1725
787.00 0.1725
787.10 0.1724
787.20 0.1723
787.30 0.1722
787.40 0.1721
787.50 0.172
787.60 0.1719
787.70 0.1719
787.80 0.1718
787.90 0.1717
788.00 0.1716
788.10 0.1715
788.20 0.1714
788.30 0.1713
788.40 0.1713
788.50 0.1712
788.60 0.1711
788.70 0.171
788.80 0.1709
788.90 0.1708
789.00 0.1707
789.10 0.1707
789.20 0.1706
789.30 0.1705
789.40 0.1704
789.50 0.1703
789.60 0.1702
789.70 0.1702
789.80 0.1701
789.90 0.17
790.00 0.1699
790.10 0.1698
790.20 0.1697
790.30 0.1697
790.40 0.1696
790.50 0.1695
790.60 0.1694
790.70 0.1693
790.80 0.1692
790.90 0.1692
791.00 0.1691
791.10 0.169
791.20 0.1689
791.30 0.1688
791.40 0.1687
791.50 0.1687
791.60 0.1686
791.70 0.1685
791.80 0.1684
791.90 0.1683
792.00 0.1683
792.10 0.1682
792.20 0.1681
792.30 0.168
792.40 0.1679
792.50 0.1678
792.60 0.1678
792.70 0.1677
792.80 0.1676
792.90 0.1675
793.00 0.1674
793.10 0.1673
793.20 0.1673
793.30 0.1672
793.40 0.1671
793.50 0.167
793.60 0.1669
793.70 0.1669
793.80 0.1668
793.90 0.1667
794.00 0.1666
794.10 0.1665
794.20 0.1665
794.30 0.1664
794.40 0.1663
794.50 0.1662
794.60 0.1661
794.70 0.166
794.80 0.166
794.90 0.1659
795.00 0.1658
795.10 0.1657
795.20 0.1656
795.30 0.1656
795.40 0.1655
795.50 0.1654
795.60 0.1653
795.70 0.1652
795.80 0.1652
795.90 0.1651
796.00 0.165
796.10 0.1649
796.20 0.1648
796.30 0.1647
796.40 0.1647
796.50 0.1646
796.60 0.1645
796.70 0.1644
796.80 0.1643
796.90 0.1643
797.00 0.1642
797.10 0.1641
797.20 0.164
797.30 0.1639
797.40 0.1639
797.50 0.1638
797.60 0.1637
797.70 0.1636
797.80 0.1635
797.90 0.1635
798.00 0.1634
798.10 0.1633
798.20 0.1632
798.30 0.1631
798.40 0.1631
798.50 0.163
798.60 0.1629
798.70 0.1628
798.80 0.1627
798.90 0.1627
799.00 0.1626
799.10 0.1625
799.20 0.1624
799.30 0.1623
799.40 0.1623
799.50 0.1622
799.60 0.1621
799.70 0.162
799.80 0.1619
799.90 0.1619
800.00 0.1618
800.10 0.1617
800.20 0.1616
800.30 0.1616
800.40 0.1615
800.50 0.1614
800.60 0.1613
800.70 0.1612
800.80 0.1612
800.90 0.1611
801.00 0.161
801.10 0.1609
801.20 0.1609
801.30 0.1608
801.40 0.1607
801.50 0.1606
801.60 0.1605
801.70 0.1605
801.80 0.1604
801.90 0.1603
802.00 0.1602
802.10 0.1602
802.20 0.1601
802.30 0.16
802.40 0.1599
802.50 0.1598
802.60 0.1598
802.70 0.1597
802.80 0.1596
802.90 0.1595
803.00 0.1595
803.10 0.1594
803.20 0.1593
803.30 0.1592
803.40 0.1592
803.50 0.1591
803.60 0.159
803.70 0.1589
803.80 0.1588
803.90 0.1588
804.00 0.1587
804.10 0.1586
804.20 0.1585
804.30 0.1585
804.40 0.1584
804.50 0.1583
804.60 0.1582
804.70 0.1582
804.80 0.1581
804.90 0.158
805.00 0.1579
805.10 0.1579
805.20 0.1578
805.30 0.1577
805.40 0.1576
805.50 0.1575
805.60 0.1575
805.70 0.1574
805.80 0.1573
805.90 0.1572
806.00 0.1572
806.10 0.1571
806.20 0.157
806.30 0.1569
806.40 0.1569
806.50 0.1568
806.60 0.1567
806.70 0.1566
806.80 0.1566
806.90 0.1565
807.00 0.1564
807.10 0.1563
807.20 0.1563
807.30 0.1562
807.40 0.1561
807.50 0.156
807.60 0.156
807.70 0.1559
807.80 0.1558
807.90 0.1557
808.00 0.1557
808.10 0.1556
808.20 0.1555
808.30 0.1554
808.40 0.1553
808.50 0.1553
808.60 0.1552
808.70 0.1551
808.80 0.155
808.90 0.155
809.00 0.1549
809.10 0.1548
809.20 0.1547
809.30 0.1547
809.40 0.1546
809.50 0.1545
809.60 0.1544
809.70 0.1544
809.80 0.1543
809.90 0.1542
810.00 0.1541
810.10 0.1541
810.20 0.154
810.30 0.1539
810.40 0.1539
810.50 0.1538
810.60 0.1537
810.70 0.1536
810.80 0.1536
810.90 0.1535
811.00 0.1534
811.10 0.1533
811.20 0.1533
811.30 0.1532
811.40 0.1531
811.50 0.1531
811.60 0.153
811.70 0.1529
811.80 0.1528
811.90 0.1528
812.00 0.1527
812.10 0.1526
812.20 0.1525
812.30 0.1525
812.40 0.1524
812.50 0.1523
812.60 0.1523
812.70 0.1522
812.80 0.1521
812.90 0.152
813.00 0.152
813.10 0.1519
813.20 0.1518
813.30 0.1517
813.40 0.1517
813.50 0.1516
813.60 0.1515
813.70 0.1515
813.80 0.1514
813.90 0.1513
814.00 0.1512
814.10 0.1512
814.20 0.1511
814.30 0.151
814.40 0.1509
814.50 0.1509
814.60 0.1508
814.70 0.1507
814.80 0.1507
814.90 0.1506
815.00 0.1505
815.10 0.1504
815.20 0.1504
815.30 0.1503
815.40 0.1502
815.50 0.1502
815.60 0.1501
815.70 0.15
815.80 0.1499
815.90 0.1499
816.00 0.1498
816.10 0.1497
816.20 0.1497
816.30 0.1496
816.40 0.1495
816.50 0.1494
816.60 0.1494
816.70 0.1493
816.80 0.1492
816.90 0.1492
817.00 0.1491
817.10 0.149
817.20 0.1489
817.30 0.1489
817.40 0.1488
817.50 0.1487
817.60 0.1487
817.70 0.1486
817.80 0.1485
817.90 0.1484
818.00 0.1484
818.10 0.1483
818.20 0.1482
818.30 0.1482
818.40 0.1481
818.50 0.148
818.60 0.1479
818.70 0.1479
818.80 0.1478
818.90 0.1477
819.00 0.1477
819.10 0.1476
819.20 0.1475
819.30 0.1475
819.40 0.1474
819.50 0.1473
819.60 0.1472
819.70 0.1472
819.80 0.1471
819.90 0.147
820.00 0.147
820.10 0.1469
820.20 0.1468
820.30 0.1468
820.40 0.1467
820.50 0.1466
820.60 0.1465
820.70 0.1465
820.80 0.1464
820.90 0.1463
821.00 0.1463
821.10 0.1462
821.20 0.1461
821.30 0.1461
821.40 0.146
821.50 0.1459
821.60 0.1458
821.70 0.1458
821.80 0.1457
821.90 0.1456
822.00 0.1456
822.10 0.1455
822.20 0.1454
822.30 0.1454
822.40 0.1453
822.50 0.1452
822.60 0.1452
822.70 0.1451
822.80 0.145
822.90 0.145
823.00 0.1449
823.10 0.1448
823.20 0.1448
823.30 0.1447
823.40 0.1446
823.50 0.1445
823.60 0.1445
823.70 0.1444
823.80 0.1443
823.90 0.1443
824.00 0.1442
824.10 0.1441
824.20 0.1441
824.30 0.144
824.40 0.1439
824.50 0.1439
824.60 0.1438
824.70 0.1437
824.80 0.1437
824.90 0.1436
825.00 0.1435
825.10 0.1435
825.20 0.1434
825.30 0.1433
825.40 0.1433
825.50 0.1432
825.60 0.1431
825.70 0.1431
825.80 0.143
825.90 0.1429
826.00 0.1428
826.10 0.1428
826.20 0.1427
826.30 0.1426
826.40 0.1426
826.50 0.1425
826.60 0.1424
826.70 0.1424
826.80 0.1423
826.90 0.1422
827.00 0.1422
827.10 0.1421
827.20 0.142
827.30 0.142
827.40 0.1419
827.50 0.1418
827.60 0.1418
827.70 0.1417
827.80 0.1416
827.90 0.1416
828.00 0.1415
828.10 0.1414
828.20 0.1414
828.30 0.1413
828.40 0.1412
828.50 0.1412
828.60 0.1411
828.70 0.141
828.80 0.141
828.90 0.1409
829.00 0.1408
829.10 0.1408
829.20 0.1407
829.30 0.1406
829.40 0.1406
829.50 0.1405
829.60 0.1405
829.70 0.1404
829.80 0.1403
829.90 0.1403
830.00 0.1402
830.10 0.1401
830.20 0.1401
830.30 0.14
830.40 0.1399
830.50 0.1399
830.60 0.1398
830.70 0.1397
830.80 0.1397
830.90 0.1396
831.00 0.1395
831.10 0.1395
831.20 0.1394
831.30 0.1393
831.40 0.1393
831.50 0.1392
831.60 0.1391
831.70 0.1391
831.80 0.139
831.90 0.1389
832.00 0.1389
832.10 0.1388
832.20 0.1387
832.30 0.1387
832.40 0.1386
832.50 0.1386
832.60 0.1385
832.70 0.1384
832.80 0.1384
832.90 0.1383
833.00 0.1382
833.10 0.1382
833.20 0.1381
833.30 0.138
833.40 0.138
833.50 0.1379
833.60 0.1378
833.70 0.1378
833.80 0.1377
833.90 0.1376
834.00 0.1376
834.10 0.1375
834.20 0.1375
834.30 0.1374
834.40 0.1373
834.50 0.1373
834.60 0.1372
834.70 0.1371
834.80 0.1371
834.90 0.137
835.00 0.1369
835.10 0.1369
835.20 0.1368
835.30 0.1368
835.40 0.1367
835.50 0.1366
835.60 0.1366
835.70 0.1365
835.80 0.1364
835.90 0.1364
836.00 0.1363
836.10 0.1362
836.20 0.1362
836.30 0.1361
836.40 0.1361
836.50 0.136
836.60 0.1359
836.70 0.1359
836.80 0.1358
836.90 0.1357
837.00 0.1357
837.10 0.1356
837.20 0.1355
837.30 0.1355
837.40 0.1354
837.50 0.1354
837.60 0.1353
837.70 0.1352
837.80 0.1352
837.90 0.1351
838.00 0.135
838.10 0.135
838.20 0.1349
838.30 0.1349
838.40 0.1348
838.50 0.1347
838.60 0.1347
838.70 0.1346
838.80 0.1345
838.90 0.1345
839.00 0.1344
839.10 0.1344
839.20 0.1343
839.30 0.1342
839.40 0.1342
839.50 0.1341
839.60 0.134
839.70 0.134
839.80 0.1339
839.90 0.1339
840.00 0.1338
840.10 0.1337
840.20 0.1337
840.30 0.1336
840.40 0.1335
840.50 0.1335
840.60 0.1334
840.70 0.1334
840.80 0.1333
840.90 0.1332
841.00 0.1332
841.10 0.1331
841.20 0.133
841.30 0.133
841.40 0.1329
841.50 0.1329
841.60 0.1328
841.70 0.1327
841.80 0.1327
841.90 0.1326
842.00 0.1326
842.10 0.1325
842.20 0.1324
842.30 0.1324
842.40 0.1323
842.50 0.1323
842.60 0.1322
842.70 0.1321
842.80 0.1321
842.90 0.132
843.00 0.1319
843.10 0.1319
843.20 0.1318
843.30 0.1318
843.40 0.1317
843.50 0.1316
843.60 0.1316
843.70 0.1315
843.80 0.1315
843.90 0.1314
844.00 0.1313
844.10 0.1313
844.20 0.1312
844.30 0.1312
844.40 0.1311
844.50 0.131
844.60 0.131
844.70 0.1309
844.80 0.1309
844.90 0.1308
845.00 0.1307
845.10 0.1307
845.20 0.1306
845.30 0.1306
845.40 0.1305
845.50 0.1304
845.60 0.1304
845.70 0.1303
845.80 0.1303
845.90 0.1302
846.00 0.1301
846.10 0.1301
846.20 0.13
846.30 0.13
846.40 0.1299
846.50 0.1298
846.60 0.1298
846.70 0.1297
846.80 0.1297
846.90 0.1296
847.00 0.1295
847.10 0.1295
847.20 0.1294
847.30 0.1294
847.40 0.1293
847.50 0.1292
847.60 0.1292
847.70 0.1291
847.80 0.1291
847.90 0.129
848.00 0.1289
848.10 0.1289
848.20 0.1288
848.30 0.1288
848.40 0.1287
848.50 0.1286
848.60 0.1286
848.70 0.1285
848.80 0.1285
848.90 0.1284
849.00 0.1283
849.10 0.1283
849.20 0.1282
849.30 0.1282
849.40 0.1281
849.50 0.1281
849.60 0.128
849.70 0.1279
849.80 0.1279
849.90 0.1278
850.00 0.1278
850.10 0.1277
850.20 0.1276
850.30 0.1276
850.40 0.1275
850.50 0.1275
850.60 0.1274
850.70 0.1273
850.80 0.1273
850.90 0.1272
851.00 0.1272
851.10 0.1271
851.20 0.1271
851.30 0.127
851.40 0.1269
851.50 0.1269
851.60 0.1268
851.70 0.1268
851.80 0.1267
851.90 0.1266
852.00 0.1266
852.10 0.1265
852.20 0.1265
852.30 0.1264
852.40 0.1264
852.50 0.1263
852.60 0.1262
852.70 0.1262
852.80 0.1261
852.90 0.1261
853.00 0.126
853.10 0.126
853.20 0.1259
853.30 0.1258
853.40 0.1258
853.50 0.1257
853.60 0.1257
853.70 0.1256
853.80 0.1256
853.90 0.1255
854.00 0.1254
854.10 0.1254
854.20 0.1253
854.30 0.1253
854.40 0.1252
854.50 0.1252
854.60 0.1251
854.70 0.125
854.80 0.125
854.90 0.1249
855.00 0.1249
855.10 0.1248
855.20 0.1248
855.30 0.1247
855.40 0.1246
855.50 0.1246
855.60 0.1245
855.70 0.1245
855.80 0.1244
855.90 0.1244
856.00 0.1243
856.10 0.1242
856.20 0.1242
856.30 0.1241
856.40 0.1241
856.50 0.124
856.60 0.124
856.70 0.1239
856.80 0.1238
856.90 0.1238
857.00 0.1237
857.10 0.1237
857.20 0.1236
857.30 0.1236
857.40 0.1235
857.50 0.1235
857.60 0.1234
857.70 0.1233
857.80 0.1233
857.90 0.1232
858.00 0.1232
858.10 0.1231
858.20 0.1231
858.30 0.123
858.40 0.123
858.50 0.1229
858.60 0.1228
858.70 0.1228
858.80 0.1227
858.90 0.1227
859.00 0.1226
859.10 0.1226
859.20 0.1225
859.30 0.1225
859.40 0.1224
859.50 0.1223
859.60 0.1223
859.70 0.1222
859.80 0.1222
859.90 0.1221
860.00 0.1221
860.10 0.122
860.20 0.122
860.30 0.1219
860.40 0.1218
860.50 0.1218
860.60 0.1217
860.70 0.1217
860.80 0.1216
860.90 0.1216
861.00 0.1215
861.10 0.1215
861.20 0.1214
861.30 0.1213
861.40 0.1213
861.50 0.1212
861.60 0.1212
861.70 0.1211
861.80 0.1211
861.90 0.121
862.00 0.121
862.10 0.1209
862.20 0.1209
862.30 0.1208
862.40 0.1207
862.50 0.1207
862.60 0.1206
862.70 0.1206
862.80 0.1205
862.90 0.1205
863.00 0.1204
863.10 0.1204
863.20 0.1203
863.30 0.1203
863.40 0.1202
863.50 0.1201
863.60 0.1201
863.70 0.12
863.80 0.12
863.90 0.1199
864.00 0.1199
864.10 0.1198
864.20 0.1198
864.30 0.1197
864.40 0.1197
864.50 0.1196
864.60 0.1196
864.70 0.1195
864.80 0.1194
864.90 0.1194
865.00 0.1193
865.10 0.1193
865.20 0.1192
865.30 0.1192
865.40 0.1191
865.50 0.1191
865.60 0.119
865.70 0.119
865.80 0.1189
865.90 0.1189
866.00 0.1188
866.10 0.1187
866.20 0.1187
866.30 0.1186
866.40 0.1186
866.50 0.1185
866.60 0.1185
866.70 0.1184
866.80 0.1184
866.90 0.1183
867.00 0.1183
867.10 0.1182
867.20 0.1182
867.30 0.1181
867.40 0.1181
867.50 0.118
867.60 0.1179
867.70 0.1179
867.80 0.1178
867.90 0.1178
868.00 0.1177
868.10 0.1177
868.20 0.1176
868.30 0.1176
868.40 0.1175
868.50 0.1175
868.60 0.1174
868.70 0.1174
868.80 0.1173
868.90 0.1173
869.00 0.1172
869.10 0.1172
869.20 0.1171
869.30 0.1171
869.40 0.117
869.50 0.1169
869.60 0.1169
869.70 0.1168
869.80 0.1168
869.90 0.1167
870.00 0.1167
870.10 0.1166
870.20 0.1166
870.30 0.1165
870.40 0.1165
870.50 0.1164
870.60 0.1164
870.70 0.1163
870.80 0.1163
870.90 0.1162
871.00 0.1162
871.10 0.1161
871.20 0.1161
871.30 0.116
871.40 0.116
871.50 0.1159
871.60 0.1158
871.70 0.1158
871.80 0.1157
871.90 0.1157
872.00 0.1156
872.10 0.1156
872.20 0.1155
872.30 0.1155
872.40 0.1154
872.50 0.1154
872.60 0.1153
872.70 0.1153
872.80 0.1152
872.90 0.1152
873.00 0.1151
873.10 0.1151
873.20 0.115
873.30 0.115
873.40 0.1149
873.50 0.1149
873.60 0.1148
873.70 0.1148
873.80 0.1147
873.90 0.1147
874.00 0.1146
874.10 0.1146
874.20 0.1145
874.30 0.1145
874.40 0.1144
874.50 0.1144
874.60 0.1143
874.70 0.1143
874.80 0.1142
874.90 0.1142
875.00 0.1141
875.10 0.1141
875.20 0.114
875.30 0.114
875.40 0.1139
875.50 0.1139
875.60 0.1138
875.70 0.1138
875.80 0.1137
875.90 0.1137
876.00 0.1136
876.10 0.1135
876.20 0.1135
876.30 0.1134
876.40 0.1134
876.50 0.1133
876.60 0.1133
876.70 0.1132
876.80 0.1132
876.90 0.1131
877.00 0.1131
877.10 0.113
877.20 0.113
877.30 0.1129
877.40 0.1129
877.50 0.1128
877.60 0.1128
877.70 0.1127
877.80 0.1127
877.90 0.1126
878.00 0.1126
878.10 0.1125
878.20 0.1125
878.30 0.1124
878.40 0.1124
878.50 0.1123
878.60 0.1123
878.70 0.1122
878.80 0.1122
878.90 0.1121
879.00 0.1121
879.10 0.112
879.20 0.112
879.30 0.1119
879.40 0.1119
879.50 0.1118
879.60 0.1118
879.70 0.1118
879.80 0.1117
879.90 0.1117
880.00 0.1116
880.10 0.1116
880.20 0.1115
880.30 0.1115
880.40 0.1114
880.50 0.1114
880.60 0.1113
880.70 0.1113
880.80 0.1112
880.90 0.1112
881.00 0.1111
881.10 0.1111
881.20 0.111
881.30 0.111
881.40 0.1109
881.50 0.1109
881.60 0.1108
881.70 0.1108
881.80 0.1107
881.90 0.1107
882.00 0.1106
882.10 0.1106
882.20 0.1105
882.30 0.1105
882.40 0.1104
882.50 0.1104
882.60 0.1103
882.70 0.1103
882.80 0.1102
882.90 0.1102
883.00 0.1101
883.10 0.1101
883.20 0.11
883.30 0.11
883.40 0.1099
883.50 0.1099
883.60 0.1098
883.70 0.1098
883.80 0.1097
883.90 0.1097
884.00 0.1097
884.10 0.1096
884.20 0.1096
884.30 0.1095
884.40 0.1095
884.50 0.1094
884.60 0.1094
884.70 0.1093
884.80 0.1093
884.90 0.1092
885.00 0.1092
885.10 0.1091
885.20 0.1091
885.30 0.109
885.40 0.109
885.50 0.1089
885.60 0.1089
885.70 0.1088
885.80 0.1088
885.90 0.1087
886.00 0.1087
886.10 0.1086
886.20 0.1086
886.30 0.1086
886.40 0.1085
886.50 0.1085
886.60 0.1084
886.70 0.1084
886.80 0.1083
886.90 0.1083
887.00 0.1082
887.10 0.1082
887.20 0.1081
887.30 0.1081
887.40 0.108
887.50 0.108
887.60 0.1079
887.70 0.1079
887.80 0.1078
887.90 0.1078
888.00 0.1077
888.10 0.1077
888.20 0.1076
888.30 0.1076
888.40 0.1076
888.50 0.1075
888.60 0.1075
888.70 0.1074
888.80 0.1074
888.90 0.1073
889.00 0.1073
889.10 0.1072
889.20 0.1072
889.30 0.1071
889.40 0.1071
889.50 0.107
889.60 0.107
889.70 0.1069
889.80 0.1069
889.90 0.1068
890.00 0.1068
890.10 0.1068
890.20 0.1067
890.30 0.1067
890.40 0.1066
890.50 0.1066
890.60 0.1065
890.70 0.1065
890.80 0.1064
890.90 0.1064
891.00 0.1063
891.10 0.1063
891.20 0.1062
891.30 0.1062
891.40 0.1061
891.50 0.1061
891.60 0.1061
891.70 0.106
891.80 0.106
891.90 0.1059
892.00 0.1059
892.10 0.1058
892.20 0.1058
892.30 0.1057
892.40 0.1057
892.50 0.1056
892.60 0.1056
892.70 0.1055
892.80 0.1055
892.90 0.1055
893.00 0.1054
893.10 0.1054
893.20 0.1053
893.30 0.1053
893.40 0.1052
893.50 0.1052
893.60 0.1051
893.70 0.1051
893.80 0.105
893.90 0.105
894.00 0.1049
894.10 0.1049
894.20 0.1049
894.30 0.1048
894.40 0.1048
894.50 0.1047
894.60 0.1047
894.70 0.1046
894.80 0.1046
894.90 0.1045
895.00 0.1045
895.10 0.1044
895.20 0.1044
895.30 0.1044
895.40 0.1043
895.50 0.1043
895.60 0.1042
895.70 0.1042
895.80 0.1041
895.90 0.1041
896.00 0.104
896.10 0.104
896.20 0.1039
896.30 0.1039
896.40 0.1039
896.50 0.1038
896.60 0.1038
896.70 0.1037
896.80 0.1037
896.90 0.1036
897.00 0.1036
897.10 0.1035
897.20 0.1035
897.30 0.1035
897.40 0.1034
897.50 0.1034
897.60 0.1033
897.70 0.1033
897.80 0.1032
897.90 0.1032
898.00 0.1031
898.10 0.1031
898.20 0.1031
898.30 0.103
898.40 0.103
898.50 0.1029
898.60 0.1029
898.70 0.1028
898.80 0.1028
898.90 0.1027
899.00 0.1027
899.10 0.1027
899.20 0.1026
899.30 0.1026
899.40 0.1025
899.50 0.1025
899.60 0.1024
899.70 0.1024
899.80 0.1024
899.90 0.1023
900.00 0.1023
900.10 0.1022
900.20 0.1022
900.30 0.1021
900.40 0.1021
900.50 0.102
900.60 0.102
900.70 0.102
900.80 0.1019
900.90 0.1019
901.00 0.1018
901.10 0.1018
901.20 0.1017
901.30 0.1017
901.40 0.1017
901.50 0.1016
901.60 0.1016
901.70 0.1015
901.80 0.1015
901.90 0.1014
902.00 0.1014
902.10 0.1013
902.20 0.1013
902.30 0.1013
902.40 0.1012
902.50 0.1012
902.60 0.1011
902.70 0.1011
902.80 0.101
902.90 0.101
903.00 0.101
903.10 0.1009
903.20 0.1009
903.30 0.1008
903.40 0.1008
903.50 0.1007
903.60 0.1007
903.70 0.1006
903.80 0.1006
903.90 0.1006
904.00 0.1005
904.10 0.1005
904.20 0.1004
904.30 0.1004
904.40 0.1003
904.50 0.1003
904.60 0.1003
904.70 0.1002
904.80 0.1002
904.90 0.1001
905.00 0.1001
905.10 0.1
905.20 0.09999
905.30 0.09995
905.40 0.09991
905.50 0.09986
905.60 0.09982
905.70 0.09978
905.80 0.09973
905.90 0.09969
906.00 0.09965
906.10 0.0996
906.20 0.09956
906.30 0.09952
906.40 0.09947
906.50 0.09943
906.60 0.09939
906.70 0.09934
906.80 0.0993
906.90 0.09926
907.00 0.09921
907.10 0.09917
907.20 0.09913
907.30 0.09909
907.40 0.09904
907.50 0.099
907.60 0.09896
907.70 0.09892
907.80 0.09888
907.90 0.09883
908.00 0.09879
908.10 0.09875
908.20 0.09871
908.30 0.09866
908.40 0.09862
908.50 0.09858
908.60 0.09854
908.70 0.09849
908.80 0.09845
908.90 0.09841
909.00 0.09837
909.10 0.09833
909.20 0.09828
909.30 0.09824
909.40 0.0982
909.50 0.09816
909.60 0.09812
909.70 0.09807
909.80 0.09803
909.90 0.09799
910.00 0.09795
910.10 0.0979
910.20 0.09786
910.30 0.09782
910.40 0.09778
910.50 0.09774
910.60 0.0977
910.70 0.09765
910.80 0.09761
910.90 0.09757
911.00 0.09753
911.10 0.09749
911.20 0.09744
911.30 0.0974
911.40 0.09736
911.50 0.09732
911.60 0.09728
911.70 0.09724
911.80 0.09719
911.90 0.09715
912.00 0.09711
912.10 0.09707
912.20 0.09703
912.30 0.09699
912.40 0.09694
912.50 0.0969
912.60 0.09686
912.70 0.09682
912.80 0.09678
912.90 0.09674
913.00 0.0967
913.10 0.09665
913.20 0.09661
913.30 0.09657
913.40 0.09653
913.50 0.09649
913.60 0.09645
913.70 0.09641
913.80 0.09637
913.90 0.09632
914.00 0.09628
914.10 0.09624
914.20 0.0962
914.30 0.09616
914.40 0.09612
914.50 0.09608
914.60 0.09604
914.70 0.09599
914.80 0.09595
914.90 0.09591
915.00 0.09587
915.10 0.09583
915.20 0.09579
915.30 0.09575
915.40 0.09571
915.50 0.09567
915.60 0.09563
915.70 0.09558
915.80 0.09554
915.90 0.0955
916.00 0.09546
916.10 0.09542
916.20 0.09538
916.30 0.09534
916.40 0.0953
916.50 0.09526
916.60 0.09522
916.70 0.09518
916.80 0.09514
916.90 0.09509
917.00 0.09505
917.10 0.09501
917.20 0.09497
917.30 0.09493
917.40 0.0949
917.50 0.09486
917.60 0.09482
917.70 0.09478
917.80 0.09474
917.90 0.0947
918.00 0.09466
918.10 0.09462
918.20 0.09458
918.30 0.09454
918.40 0.0945
918.50 0.09446
918.60 0.09442
918.70 0.09438
918.80 0.09434
918.90 0.0943
919.00 0.09426
919.10 0.09422
919.20 0.09418
919.30 0.09414
919.40 0.0941
919.50 0.09407
919.60 0.09403
919.70 0.09399
919.80 0.09395
919.90 0.09391
920.00 0.09387
920.10 0.09383
920.20 0.09379
920.30 0.09375
920.40 0.09371
920.50 0.09367
920.60 0.09363
920.70 0.09359
920.80 0.09356
920.90 0.09352
921.00 0.09348
921.10 0.09344
921.20 0.0934
921.30 0.09336
921.40 0.09332
921.50 0.09328
921.60 0.09324
921.70 0.0932
921.80 0.09316
921.90 0.09313
922.00 0.09309
922.10 0.09305
922.20 0.09301
922.30 0.09297
922.40 0.09293
922.50 0.09289
922.60 0.09285
922.70 0.09281
922.80 0.09277
922.90 0.09273
923.00 0.09269
923.10 0.09265
923.20 0.09261
923.30 0.09257
923.40 0.09254
923.50 0.0925
923.60 0.09246
923.70 0.09242
923.80 0.09238
923.90 0.09234
924.00 0.0923
924.10 0.09226
924.20 0.09222
924.30 0.09218
924.40 0.09214
924.50 0.0921
924.60 0.09207
924.70 0.09203
924.80 0.09199
924.90 0.09195
925.00 0.09191
925.10 0.09187
925.20 0.09183
925.30 0.09179
925.40 0.09175
925.50 0.09171
925.60 0.09168
925.70 0.09164
925.80 0.0916
925.90 0.09156
926.00 0.09152
926.10 0.09148
926.20 0.09144
926.30 0.0914
926.40 0.09136
926.50 0.09133
926.60 0.09129
926.70 0.09125
926.80 0.09121
926.90 0.09117
927.00 0.09113
927.10 0.09109
927.20 0.09106
927.30 0.09102
927.40 0.09098
927.50 0.09094
927.60 0.09091
927.70 0.09087
927.80 0.09083
927.90 0.09079
928.00 0.09075
928.10 0.09072
928.20 0.09068
928.30 0.09064
928.40 0.0906
928.50 0.09057
928.60 0.09053
928.70 0.09049
928.80 0.09045
928.90 0.09042
929.00 0.09038
929.10 0.09034
929.20 0.0903
929.30 0.09027
929.40 0.09023
929.50 0.09019
929.60 0.09015
929.70 0.09012
929.80 0.09008
929.90 0.09004
930.00 0.09
930.10 0.08997
930.20 0.08993
930.30 0.08989
930.40 0.08985
930.50 0.08982
930.60 0.08978
930.70 0.08974
930.80 0.08971
930.90 0.08967
931.00 0.08963
931.10 0.08959
931.20 0.08956
931.30 0.08952
931.40 0.08948
931.50 0.08945
931.60 0.08941
931.70 0.08937
931.80 0.08933
931.90 0.0893
932.00 0.08926
932.10 0.08922
932.20 0.08919
932.30 0.08915
932.40 0.08911
932.50 0.08907
932.60 0.08904
932.70 0.089
932.80 0.08896
932.90 0.08893
933.00 0.08889
933.10 0.08885
933.20 0.08882
933.30 0.08878
933.40 0.08874
933.50 0.08871
933.60 0.08867
933.70 0.08863
933.80 0.0886
933.90 0.08856
934.00 0.08852
934.10 0.08849
934.20 0.08845
934.30 0.08841
934.40 0.08838
934.50 0.08834
934.60 0.0883
934.70 0.08827
934.80 0.08823
934.90 0.08819
935.00 0.08816
935.10 0.08812
935.20 0.08808
935.30 0.08805
935.40 0.08801
935.50 0.08797
935.60 0.08794
935.70 0.0879
935.80 0.08786
935.90 0.08783
936.00 0.08779
936.10 0.08775
936.20 0.08772
936.30 0.08768
936.40 0.08764
936.50 0.08761
936.60 0.08757
936.70 0.08753
936.80 0.0875
936.90 0.08746
937.00 0.08743
937.10 0.08739
937.20 0.08735
937.30 0.08732
937.40 0.08728
937.50 0.08724
937.60 0.08721
937.70 0.08717
937.80 0.08713
937.90 0.0871
938.00 0.08706
938.10 0.08702
938.20 0.08699
938.30 0.08695
938.40 0.08692
938.50 0.08688
938.60 0.08684
938.70 0.08681
938.80 0.08677
938.90 0.08673
939.00 0.0867
939.10 0.08666
939.20 0.08662
939.30 0.08659
939.40 0.08655
939.50 0.08652
939.60 0.08648
939.70 0.08644
939.80 0.08641
939.90 0.08637
940.00 0.08634
940.10 0.0863
940.20 0.08626
940.30 0.08623
940.40 0.08619
940.50 0.08615
940.60 0.08612
940.70 0.08608
940.80 0.08605
940.90 0.08601
941.00 0.08597
941.10 0.08594
941.20 0.0859
941.30 0.08586
941.40 0.08583
941.50 0.08579
941.60 0.08576
941.70 0.08572
941.80 0.08568
941.90 0.08565
942.00 0.08561
942.10 0.08558
942.20 0.08554
942.30 0.0855
942.40 0.08547
942.50 0.08543
942.60 0.0854
942.70 0.08536
942.80 0.08532
942.90 0.08529
943.00 0.08525
943.10 0.08522
943.20 0.08518
943.30 0.08514
943.40 0.08511
943.50 0.08507
943.60 0.08504
943.70 0.085
943.80 0.08496
943.90 0.08493
944.00 0.08489
944.10 0.08486
944.20 0.08482
944.30 0.08479
944.40 0.08475
944.50 0.08471
944.60 0.08468
944.70 0.08464
944.80 0.08461
944.90 0.08457
945.00 0.08453
945.10 0.0845
945.20 0.08446
945.30 0.08443
945.40 0.08439
945.50 0.08436
945.60 0.08432
945.70 0.08428
945.80 0.08425
945.90 0.08421
946.00 0.08418
946.10 0.08414
946.20 0.0841
946.30 0.08407
946.40 0.08403
946.50 0.084
946.60 0.08396
946.70 0.08393
946.80 0.08389
946.90 0.08386
947.00 0.08382
947.10 0.08378
947.20 0.08375
947.30 0.08371
947.40 0.08368
947.50 0.08364
947.60 0.08361
947.70 0.08357
947.80 0.08354
947.90 0.0835
948.00 0.08346
948.10 0.08343
948.20 0.08339
948.30 0.08336
948.40 0.08332
948.50 0.08329
948.60 0.08325
948.70 0.08322
948.80 0.08318
948.90 0.08315
949.00 0.08311
949.10 0.08308
949.20 0.08304
949.30 0.08301
949.40 0.08297
949.50 0.08294
949.60 0.0829
949.70 0.08287
949.80 0.08283
949.90 0.0828
950.00 0.08276
950.10 0.08273
950.20 0.08269
950.30 0.08266
950.40 0.08262
950.50 0.08259
950.60 0.08255
950.70 0.08252
950.80 0.08248
950.90 0.08245
951.00 0.08241
951.10 0.08238
951.20 0.08235
951.30 0.08231
951.40 0.08228
951.50 0.08224
951.60 0.08221
951.70 0.08218
951.80 0.08214
951.90 0.08211
952.00 0.08207
952.10 0.08204
952.20 0.08201
952.30 0.08198
952.40 0.08194
952.50 0.08191
952.60 0.08188
952.70 0.08184
952.80 0.08181
952.90 0.08178
953.00 0.08175
953.10 0.08172
953.20 0.08169
953.30 0.08165
953.40 0.08162
953.50 0.08159
953.60 0.08156
953.70 0.08153
953.80 0.0815
953.90 0.08147
954.00 0.08144
954.10 0.08141
954.20 0.08138
954.30 0.08136
954.40 0.08133
954.50 0.0813
954.60 0.08127
954.70 0.08123
954.80 0.0812
954.90 0.08116
955.00 0.08112
955.10 0.08108
955.20 0.08104
955.30 0.08101
955.40 0.08097
955.50 0.08094
955.60 0.0809
955.70 0.08086
955.80 0.08083
955.90 0.08079
956.00 0.08076
956.10 0.08073
956.20 0.08069
956.30 0.08066
956.40 0.08063
956.50 0.08059
956.60 0.08056
956.70 0.08052
956.80 0.08049
956.90 0.08046
957.00 0.08042
957.10 0.08039
957.20 0.08036
957.30 0.08032
957.40 0.08029
957.50 0.08026
957.60 0.08023
957.70 0.0802
957.80 0.08016
957.90 0.08013
958.00 0.0801
958.10 0.08007
958.20 0.08004
958.30 0.08001
958.40 0.07997
958.50 0.07994
958.60 0.07991
958.70 0.07988
958.80 0.07985
958.90 0.07982
959.00 0.07978
959.10 0.07975
959.20 0.07972
959.30 0.07969
959.40 0.07966
959.50 0.07963
959.60 0.0796
959.70 0.07956
959.80 0.07953
959.90 0.0795
960.00 0.07947
960.10 0.07944
960.20 0.07941
960.30 0.07938
960.40 0.07935
960.50 0.07932
960.60 0.07929
960.70 0.07925
960.80 0.07922
960.90 0.07919
961.00 0.07916
961.10 0.07913
961.20 0.0791
961.30 0.07907
961.40 0.07904
961.50 0.07901
961.60 0.07898
961.70 0.07895
961.80 0.07892
961.90 0.07888
962.00 0.07885
962.10 0.07882
962.20 0.07879
962.30 0.07876
962.40 0.07873
962.50 0.0787
962.60 0.07867
962.70 0.07864
962.80 0.07861
962.90 0.07858
963.00 0.07855
963.10 0.07852
963.20 0.07849
963.30 0.07846
963.40 0.07843
963.50 0.0784
963.60 0.07836
963.70 0.07833
963.80 0.0783
963.90 0.07827
964.00 0.07824
964.10 0.07821
964.20 0.07818
964.30 0.07815
964.40 0.07812
964.50 0.07809
964.60 0.07806
964.70 0.07803
964.80 0.078
964.90 0.07797
965.00 0.07794
965.10 0.07791
965.20 0.07788
965.30 0.07785
965.40 0.07782
965.50 0.07779
965.60 0.07775
965.70 0.07772
965.80 0.07769
965.90 0.07766
966.00 0.07763
966.10 0.0776
966.20 0.07757
966.30 0.07754
966.40 0.07751
966.50 0.07748
966.60 0.07745
966.70 0.07742
966.80 0.07739
966.90 0.07736
967.00 0.07733
967.10 0.0773
967.20 0.07727
967.30 0.07724
967.40 0.07721
967.50 0.07718
967.60 0.07715
967.70 0.07712
967.80 0.07709
967.90 0.07706
968.00 0.07703
968.10 0.077
968.20 0.07697
968.30 0.07693
968.40 0.0769
968.50 0.07687
968.60 0.07684
968.70 0.07681
968.80 0.07678
968.90 0.07675
969.00 0.07672
969.10 0.07669
969.20 0.07666
969.30 0.07663
969.40 0.0766
969.50 0.07657
969.60 0.07654
969.70 0.07651
969.80 0.07648
969.90 0.07645
970.00 0.07642
970.10 0.07639
970.20 0.07636
970.30 0.07633
970.40 0.0763
970.50 0.07627
970.60 0.07624
970.70 0.07621
970.80 0.07618
970.90 0.07615
971.00 0.07612
971.10 0.07609
971.20 0.07606
971.30 0.07603
971.40 0.076
971.50 0.07597
971.60 0.07594
971.70 0.07591
971.80 0.07588
971.90 0.07585
972.00 0.07582
972.10 0.07579
972.20 0.07576
972.30 0.07573
972.40 0.0757
972.50 0.07567
972.60 0.07564
972.70 0.07561
972.80 0.07558
972.90 0.07555
973.00 0.07552
973.10 0.07549
973.20 0.07546
973.30 0.07543
973.40 0.0754
973.50 0.07537
973.60 0.07534
973.70 0.07531
973.80 0.07528
973.90 0.07525
974.00 0.07522
974.10 0.07519
974.20 0.07516
974.30 0.07513
974.40 0.0751
974.50 0.07507
974.60 0.07504
974.70 0.07501
974.80 0.07498
974.90 0.07495
975.00 0.07492
975.10 0.07489
975.20 0.07486
975.30 0.07483
975.40 0.0748
975.50 0.07477
975.60 0.07474
975.70 0.07471
975.80 0.07468
975.90 0.07465
976.00 0.07462
976.10 0.07459
976.20 0.07456
976.30 0.07453
976.40 0.0745
976.50 0.07448
976.60 0.07445
976.70 0.07442
976.80 0.07439
976.90 0.07436
977.00 0.07433
977.10 0.0743
977.20 0.07427
977.30 0.07424
977.40 0.07421
977.50 0.07418
977.60 0.07415
977.70 0.07412
977.80 0.07409
977.90 0.07406
978.00 0.07403
978.10 0.074
978.20 0.07397
978.30 0.07394
978.40 0.07391
978.50 0.07388
978.60 0.07385
978.70 0.07382
978.80 0.0738
978.90 0.07377
979.00 0.07374
979.10 0.07371
979.20 0.07368
979.30 0.07365
979.40 0.07362
979.50 0.07359
979.60 0.07356
979.70 0.07353
979.80 0.0735
979.90 0.07347
980.00 0.07344
980.10 0.07341
980.20 0.07338
980.30 0.07335
980.40 0.07333
980.50 0.0733
980.60 0.07327
980.70 0.07324
980.80 0.07321
980.90 0.07318
981.00 0.07315
981.10 0.07312
981.20 0.07309
981.30 0.07306
981.40 0.07303
981.50 0.073
981.60 0.07297
981.70 0.07295
981.80 0.07292
981.90 0.07289
982.00 0.07286
982.10 0.07283
982.20 0.0728
982.30 0.07277
982.40 0.07274
982.50 0.07271
982.60 0.07268
982.70 0.07265
982.80 0.07262
982.90 0.0726
983.00 0.07257
983.10 0.07254
983.20 0.07251
983.30 0.07248
983.40 0.07245
983.50 0.07242
983.60 0.07239
983.70 0.07236
983.80 0.07233
983.90 0.07231
984.00 0.07228
984.10 0.07225
984.20 0.07222
984.30 0.07219
984.40 0.07216
984.50 0.07213
984.60 0.0721
984.70 0.07207
984.80 0.07204
984.90 0.07202
985.00 0.07199
985.10 0.07196
985.20 0.07193
985.30 0.0719
985.40 0.07187
985.50 0.07184
985.60 0.07181
985.70 0.07178
985.80 0.07175
985.90 0.07173
986.00 0.0717
986.10 0.07167
986.20 0.07164
986.30 0.07161
986.40 0.07158
986.50 0.07155
986.60 0.07152
986.70 0.0715
986.80 0.07147
986.90 0.07144
987.00 0.07141
987.10 0.07138
987.20 0.07135
987.30 0.07132
987.40 0.07129
987.50 0.07126
987.60 0.07124
987.70 0.07121
987.80 0.07118
987.90 0.07115
988.00 0.07112
988.10 0.07109
988.20 0.07106
988.30 0.07103
988.40 0.07101
988.50 0.07098
988.60 0.07095
988.70 0.07092
988.80 0.07089
988.90 0.07086
989.00 0.07083
989.10 0.0708
989.20 0.07077
989.30 0.07075
989.40 0.07072
989.50 0.07069
989.60 0.07066
989.70 0.07063
989.80 0.0706
989.90 0.07057
990.00 0.07054
990.10 0.07052
990.20 0.07049
990.30 0.07046
990.40 0.07043
990.50 0.0704
990.60 0.07037
990.70 0.07034
990.80 0.07031
990.90 0.07028
991.00 0.07026
991.10 0.07023
991.20 0.0702
991.30 0.07017
991.40 0.07014
991.50 0.07011
991.60 0.07008
991.70 0.07005
991.80 0.07003
991.90 0.07
992.00 0.06997
992.10 0.06994
992.20 0.06991
992.30 0.06988
992.40 0.06985
992.50 0.06982
992.60 0.06979
992.70 0.06977
992.80 0.06974
992.90 0.06971
993.00 0.06968
993.10 0.06965
993.20 0.06962
993.30 0.06959
993.40 0.06956
993.50 0.06953
993.60 0.06951
993.70 0.06948
993.80 0.06945
993.90 0.06942
994.00 0.06939
994.10 0.06936
994.20 0.06933
994.30 0.0693
994.40 0.06927
994.50 0.06924
994.60 0.06922
994.70 0.06919
994.80 0.06916
994.90 0.06913
995.00 0.0691
995.10 0.06907
995.20 0.06904
995.30 0.06901
995.40 0.06898
995.50 0.06895
995.60 0.06893
995.70 0.0689
995.80 0.06887
995.90 0.06884
996.00 0.06881
996.10 0.06878
996.20 0.06875
996.30 0.06872
996.40 0.06869
996.50 0.06866
996.60 0.06863
996.70 0.0686
996.80 0.06857
996.90 0.06855
997.00 0.06852
997.10 0.06849
997.20 0.06846
997.30 0.06843
997.40 0.0684
997.50 0.06837
997.60 0.06834
997.70 0.06831
997.80 0.06828
997.90 0.06825
998.00 0.06822
998.10 0.06819
998.20 0.06816
998.30 0.06813
998.40 0.0681
998.50 0.06808
998.60 0.06805
998.70 0.06802
998.80 0.06799
998.90 0.06796
999.00 0.06793
999.10 0.0679
999.20 0.06787
999.30 0.06784
999.40 0.06781
999.50 0.06778
999.60 0.06775
999.70 0.06772
999.80 0.06769
999.90 0.06766
1000.00 0.06763
1000.10 0.0676
1000.20 0.06757
1000.30 0.06754
1000.40 0.06751
1000.50 0.06748
1000.60 0.06745
1000.70 0.06742
1000.80 0.06739
1000.90 0.06736
1001.00 0.06733
1001.10 0.06731
1001.20 0.06728
1001.30 0.06725
1001.40 0.06722
1001.50 0.06719
1001.60 0.06716
1001.70 0.06713
1001.80 0.0671
1001.90 0.06707
1002.00 0.06705
1002.10 0.06702
1002.20 0.06699
1002.30 0.06697
1002.40 0.06694
1002.50 0.06692
1002.60 0.06689
1002.70 0.06686
1002.80 0.06684
1002.90 0.06681
1003.00 0.06679
1003.10 0.06676
1003.20 0.06674
1003.30 0.06672
1003.40 0.0667
1003.50 0.06667
1003.60 0.06665
1003.70 0.06663
1003.80 0.06661
1003.90 0.06659
1004.00 0.06658
1004.10 0.06656
1004.20 0.06655
1004.30 0.06654
1004.40 0.06652
1004.50 0.06651
1004.60 0.0665
1004.70 0.06649
1004.80 0.06647
1004.90 0.06644
1005.00 0.06641
1005.10 0.06638
1005.20 0.06635
1005.30 0.06631
1005.40 0.06628
1005.50 0.06624
1005.60 0.0662
1005.70 0.06617
1005.80 0.06613
1005.90 0.06609
1006.00 0.06606
1006.10 0.06602
1006.20 0.06599
1006.30 0.06596
1006.40 0.06593
1006.50 0.0659
1006.60 0.06587
1006.70 0.06584
1006.80 0.06581
1006.90 0.06579
1007.00 0.06576
1007.10 0.06573
1007.20 0.06571
1007.30 0.06568
1007.40 0.06566
1007.50 0.06563
1007.60 0.06561
1007.70 0.06558
1007.80 0.06556
1007.90 0.06554
1008.00 0.06551
1008.10 0.06549
1008.20 0.06547
1008.30 0.06544
1008.40 0.06542
1008.50 0.0654
1008.60 0.06537
1008.70 0.06535
1008.80 0.06533
1008.90 0.06531
1009.00 0.06528
1009.10 0.06526
1009.20 0.06524
1009.30 0.06521
1009.40 0.06519
1009.50 0.06517
1009.60 0.06514
1009.70 0.06512
1009.80 0.0651
1009.90 0.06508
1010.00 0.06505
1010.10 0.06503
1010.20 0.06501
1010.30 0.06499
1010.40 0.06497
1010.50 0.06494
1010.60 0.06492
1010.70 0.0649
1010.80 0.06488
1010.90 0.06485
1011.00 0.06483
1011.10 0.06481
1011.20 0.06479
1011.30 0.06476
1011.40 0.06474
1011.50 0.06472
1011.60 0.0647
1011.70 0.06468
1011.80 0.06465
1011.90 0.06463
1012.00 0.06461
1012.10 0.06459
1012.20 0.06456
1012.30 0.06454
1012.40 0.06452
1012.50 0.0645
1012.60 0.06447
1012.70 0.06445
1012.80 0.06443
1012.90 0.06441
1013.00 0.06438
1013.10 0.06436
1013.20 0.06434
1013.30 0.06432
1013.40 0.06429
1013.50 0.06427
1013.60 0.06425
1013.70 0.06422
1013.80 0.0642
1013.90 0.06418
1014.00 0.06416
1014.10 0.06413
1014.20 0.06411
1014.30 0.06409
1014.40 0.06407
1014.50 0.06404
1014.60 0.06402
1014.70 0.064
1014.80 0.06397
1014.90 0.06395
1015.00 0.06393
1015.10 0.06391
1015.20 0.06388
1015.30 0.06386
1015.40 0.06384
1015.50 0.06381
1015.60 0.06379
1015.70 0.06377
1015.80 0.06374
1015.90 0.06372
1016.00 0.0637
1016.10 0.06368
1016.20 0.06365
1016.30 0.06363
1016.40 0.06361
1016.50 0.06358
1016.60 0.06356
1016.70 0.06354
1016.80 0.06352
1016.90 0.06349
1017.00 0.06347
1017.10 0.06345
1017.20 0.06342
1017.30 0.0634
1017.40 0.06338
1017.50 0.06335
1017.60 0.06333
1017.70 0.06331
1017.80 0.06328
1017.90 0.06326
1018.00 0.06324
1018.10 0.06321
1018.20 0.06319
1018.30 0.06317
1018.40 0.06315
1018.50 0.06312
1018.60 0.0631
1018.70 0.06308
1018.80 0.06305
1018.90 0.06303
1019.00 0.06301
1019.10 0.06298
1019.20 0.06296
1019.30 0.06294
1019.40 0.06291
1019.50 0.06289
1019.60 0.06287
1019.70 0.06284
1019.80 0.06282
1019.90 0.0628
1020.00 0.06277
1020.10 0.06275
1020.20 0.06273
1020.30 0.0627
1020.40 0.06268
1020.50 0.06266
1020.60 0.06264
1020.70 0.06261
1020.80 0.06259
1020.90 0.06257
1021.00 0.06254
1021.10 0.06252
1021.20 0.0625
1021.30 0.06247
1021.40 0.06245
1021.50 0.06243
1021.60 0.0624
1021.70 0.06238
1021.80 0.06236
1021.90 0.06233
1022.00 0.06231
1022.10 0.06229
1022.20 0.06226
1022.30 0.06224
1022.40 0.06222
1022.50 0.06219
1022.60 0.06217
1022.70 0.06215
1022.80 0.06212
1022.90 0.0621
1023.00 0.06208
1023.10 0.06206
1023.20 0.06203
1023.30 0.06201
1023.40 0.06199
1023.50 0.06196
1023.60 0.06194
1023.70 0.06192
1023.80 0.06189
1023.90 0.06187
1024.00 0.06185
1024.10 0.06182
1024.20 0.0618
1024.30 0.06178
1024.40 0.06175
1024.50 0.06173
1024.60 0.06171
1024.70 0.06169
1024.80 0.06166
1024.90 0.06164
1025.00 0.06162
1025.10 0.06159
1025.20 0.06157
1025.30 0.06155
1025.40 0.06152
1025.50 0.0615
1025.60 0.06148
1025.70 0.06145
1025.80 0.06143
1025.90 0.06141
1026.00 0.06139
1026.10 0.06136
1026.20 0.06134
1026.30 0.06132
1026.40 0.06129
1026.50 0.06127
1026.60 0.06125
1026.70 0.06122
1026.80 0.0612
1026.90 0.06118
1027.00 0.06116
1027.10 0.06113
1027.20 0.06111
1027.30 0.06109
1027.40 0.06106
1027.50 0.06104
1027.60 0.06102
1027.70 0.06099
1027.80 0.06097
1027.90 0.06095
1028.00 0.06093
1028.10 0.0609
1028.20 0.06088
1028.30 0.06086
1028.40 0.06083
1028.50 0.06081
1028.60 0.06079
1028.70 0.06077
1028.80 0.06074
1028.90 0.06072
1029.00 0.0607
1029.10 0.06068
1029.20 0.06065
1029.30 0.06063
1029.40 0.06061
1029.50 0.06058
1029.60 0.06056
1029.70 0.06054
1029.80 0.06052
1029.90 0.06049
1030.00 0.06047
1030.10 0.06045
1030.20 0.06042
1030.30 0.0604
1030.40 0.06038
1030.50 0.06036
1030.60 0.06033
1030.70 0.06031
1030.80 0.06029
1030.90 0.06027
1031.00 0.06024
1031.10 0.06022
1031.20 0.0602
1031.30 0.06018
1031.40 0.06015
1031.50 0.06013
1031.60 0.06011
1031.70 0.06008
1031.80 0.06006
1031.90 0.06004
1032.00 0.06002
1032.10 0.05999
1032.20 0.05997
1032.30 0.05995
1032.40 0.05993
1032.50 0.0599
1032.60 0.05988
1032.70 0.05986
1032.80 0.05984
1032.90 0.05981
1033.00 0.05979
1033.10 0.05977
1033.20 0.05975
1033.30 0.05973
1033.40 0.0597
1033.50 0.05968
1033.60 0.05966
1033.70 0.05964
1033.80 0.05961
1033.90 0.05959
1034.00 0.05957
1034.10 0.05955
1034.20 0.05952
1034.30 0.0595
1034.40 0.05948
1034.50 0.05946
1034.60 0.05943
1034.70 0.05941
1034.80 0.05939
1034.90 0.05937
1035.00 0.05934
1035.10 0.05932
1035.20 0.0593
1035.30 0.05928
1035.40 0.05926
1035.50 0.05923
1035.60 0.05921
1035.70 0.05919
1035.80 0.05917
1035.90 0.05914
1036.00 0.05912
1036.10 0.0591
1036.20 0.05908
1036.30 0.05906
1036.40 0.05903
1036.50 0.05901
1036.60 0.05899
1036.70 0.05897
1036.80 0.05894
1036.90 0.05892
1037.00 0.0589
1037.10 0.05888
1037.20 0.05886
1037.30 0.05883
1037.40 0.05881
1037.50 0.05879
1037.60 0.05877
1037.70 0.05875
1037.80 0.05872
1037.90 0.0587
1038.00 0.05868
1038.10 0.05866
1038.20 0.05864
1038.30 0.05861
1038.40 0.05859
1038.50 0.05857
1038.60 0.05855
1038.70 0.05853
1038.80 0.0585
1038.90 0.05848
1039.00 0.05846
1039.10 0.05844
1039.20 0.05842
1039.30 0.0584
1039.40 0.05837
1039.50 0.05835
1039.60 0.05833
1039.70 0.05831
1039.80 0.05829
1039.90 0.05826
1040.00 0.05824
1040.10 0.05822
1040.20 0.0582
1040.30 0.05818
1040.40 0.05815
1040.50 0.05813
1040.60 0.05811
1040.70 0.05809
1040.80 0.05807
1040.90 0.05805
1041.00 0.05802
1041.10 0.058
1041.20 0.05798
1041.30 0.05796
1041.40 0.05794
1041.50 0.05792
1041.60 0.05789
1041.70 0.05787
1041.80 0.05785
1041.90 0.05783
1042.00 0.05781
1042.10 0.05779
1042.20 0.05776
1042.30 0.05774
1042.40 0.05772
1042.50 0.0577
1042.60 0.05768
1042.70 0.05766
1042.80 0.05763
1042.90 0.05761
1043.00 0.05759
1043.10 0.05757
1043.20 0.05755
1043.30 0.05753
1043.40 0.05751
1043.50 0.05748
1043.60 0.05746
1043.70 0.05744
1043.80 0.05742
1043.90 0.0574
1044.00 0.05738
1044.10 0.05736
1044.20 0.05733
1044.30 0.05731
1044.40 0.05729
1044.50 0.05727
1044.60 0.05725
1044.70 0.05723
1044.80 0.05721
1044.90 0.05718
1045.00 0.05716
1045.10 0.05714
1045.20 0.05712
1045.30 0.0571
1045.40 0.05708
1045.50 0.05706
1045.60 0.05703
1045.70 0.05701
1045.80 0.05699
1045.90 0.05697
1046.00 0.05695
1046.10 0.05693
1046.20 0.05691
1046.30 0.05689
1046.40 0.05686
1046.50 0.05684
1046.60 0.05682
1046.70 0.0568
1046.80 0.05678
1046.90 0.05676
1047.00 0.05674
1047.10 0.05672
1047.20 0.05669
1047.30 0.05667
1047.40 0.05665
1047.50 0.05663
1047.60 0.05661
1047.70 0.05659
1047.80 0.05657
1047.90 0.05655
1048.00 0.05653
1048.10 0.05651
1048.20 0.05648
1048.30 0.05646
1048.40 0.05644
1048.50 0.05642
1048.60 0.0564
1048.70 0.05638
1048.80 0.05636
1048.90 0.05634
1049.00 0.05632
1049.10 0.0563
1049.20 0.05627
1049.30 0.05625
1049.40 0.05623
1049.50 0.05621
1049.60 0.05619
1049.70 0.05617
1049.80 0.05615
1049.90 0.05613
1050.00 0.05611
1050.10 0.05609
1050.20 0.05607
1050.30 0.05604
1050.40 0.05602
1050.50 0.056
1050.60 0.05598
1050.70 0.05596
1050.80 0.05594
1050.90 0.05592
1051.00 0.0559
1051.10 0.05588
1051.20 0.05586
1051.30 0.05584
1051.40 0.05582
1051.50 0.05579
1051.60 0.05577
1051.70 0.05575
1051.80 0.05573
1051.90 0.05571
1052.00 0.05569
1052.10 0.05567
1052.20 0.05565
1052.30 0.05563
1052.40 0.05561
1052.50 0.05559
1052.60 0.05557
1052.70 0.05555
1052.80 0.05553
1052.90 0.05551
1053.00 0.05548
1053.10 0.05546
1053.20 0.05544
1053.30 0.05542
1053.40 0.0554
1053.50 0.05538
1053.60 0.05536
1053.70 0.05534
1053.80 0.05532
1053.90 0.0553
1054.00 0.05528
1054.10 0.05526
1054.20 0.05524
1054.30 0.05522
1054.40 0.0552
1054.50 0.05518
1054.60 0.05516
1054.70 0.05514
1054.80 0.05512
1054.90 0.05509
1055.00 0.05507
1055.10 0.05505
1055.20 0.05503
1055.30 0.05501
1055.40 0.05499
1055.50 0.05497
1055.60 0.05495
1055.70 0.05493
1055.80 0.05491
1055.90 0.05489
1056.00 0.05487
1056.10 0.05485
1056.20 0.05483
1056.30 0.05481
1056.40 0.05479
1056.50 0.05477
1056.60 0.05475
1056.70 0.05473
1056.80 0.05471
1056.90 0.05469
1057.00 0.05467
1057.10 0.05465
1057.20 0.05463
1057.30 0.05461
1057.40 0.05459
1057.50 0.05457
1057.60 0.05455
1057.70 0.05453
1057.80 0.05451
1057.90 0.05449
1058.00 0.05447
1058.10 0.05445
1058.20 0.05443
1058.30 0.05441
1058.40 0.05438
1058.50 0.05436
1058.60 0.05434
1058.70 0.05432
1058.80 0.0543
1058.90 0.05428
1059.00 0.05426
1059.10 0.05424
1059.20 0.05422
1059.30 0.0542
1059.40 0.05418
1059.50 0.05416
1059.60 0.05414
1059.70 0.05412
1059.80 0.0541
1059.90 0.05408
1060.00 0.05406
1060.10 0.05404
1060.20 0.05402
1060.30 0.054
1060.40 0.05398
1060.50 0.05396
1060.60 0.05394
1060.70 0.05392
1060.80 0.0539
1060.90 0.05388
1061.00 0.05386
1061.10 0.05384
1061.20 0.05382
1061.30 0.0538
1061.40 0.05378
1061.50 0.05376
1061.60 0.05374
1061.70 0.05372
1061.80 0.05371
1061.90 0.05369
1062.00 0.05367
1062.10 0.05365
1062.20 0.05363
1062.30 0.05361
1062.40 0.05359
1062.50 0.05357
1062.60 0.05355
1062.70 0.05353
1062.80 0.05351
1062.90 0.05349
1063.00 0.05347
1063.10 0.05345
1063.20 0.05343
1063.30 0.05341
1063.40 0.05339
1063.50 0.05337
1063.60 0.05335
1063.70 0.05333
1063.80 0.05331
1063.90 0.05329
1064.00 0.05327
1064.10 0.05325
1064.20 0.05323
1064.30 0.05321
1064.40 0.05319
1064.50 0.05317
1064.60 0.05315
1064.70 0.05313
1064.80 0.05311
1064.90 0.05309
1065.00 0.05307
1065.10 0.05305
1065.20 0.05304
1065.30 0.05302
1065.40 0.053
1065.50 0.05298
1065.60 0.05296
1065.70 0.05294
1065.80 0.05292
1065.90 0.0529
1066.00 0.05288
1066.10 0.05286
1066.20 0.05284
1066.30 0.05282
1066.40 0.0528
1066.50 0.05278
1066.60 0.05276
1066.70 0.05274
1066.80 0.05272
1066.90 0.0527
1067.00 0.05268
1067.10 0.05266
1067.20 0.05264
1067.30 0.05263
1067.40 0.05261
1067.50 0.05259
1067.60 0.05257
1067.70 0.05255
1067.80 0.05253
1067.90 0.05251
1068.00 0.05249
1068.10 0.05247
1068.20 0.05245
1068.30 0.05243
1068.40 0.05241
1068.50 0.05239
1068.60 0.05237
1068.70 0.05235
1068.80 0.05233
1068.90 0.05232
1069.00 0.0523
1069.10 0.05228
1069.20 0.05226
1069.30 0.05224
1069.40 0.05222
1069.50 0.0522
1069.60 0.05218
1069.70 0.05216
1069.80 0.05214
1069.90 0.05212
1070.00 0.0521
1070.10 0.05208
1070.20 0.05206
1070.30 0.05204
1070.40 0.05203
1070.50 0.05201
1070.60 0.05199
1070.70 0.05197
1070.80 0.05195
1070.90 0.05193
1071.00 0.05191
1071.10 0.05189
1071.20 0.05187
1071.30 0.05185
1071.40 0.05183
1071.50 0.05181
1071.60 0.0518
1071.70 0.05178
1071.80 0.05176
1071.90 0.05174
1072.00 0.05172
1072.10 0.0517
1072.20 0.05168
1072.30 0.05166
1072.40 0.05164
1072.50 0.05162
1072.60 0.0516
1072.70 0.05158
1072.80 0.05157
1072.90 0.05155
1073.00 0.05153
1073.10 0.05151
1073.20 0.05149
1073.30 0.05147
1073.40 0.05145
1073.50 0.05143
1073.60 0.05141
1073.70 0.05139
1073.80 0.05137
1073.90 0.05135
1074.00 0.05134
1074.10 0.05132
1074.20 0.0513
1074.30 0.05128
1074.40 0.05126
1074.50 0.05124
1074.60 0.05122
1074.70 0.0512
1074.80 0.05118
1074.90 0.05116
1075.00 0.05114
1075.10 0.05113
1075.20 0.05111
1075.30 0.05109
1075.40 0.05107
1075.50 0.05105
1075.60 0.05103
1075.70 0.05101
1075.80 0.05099
1075.90 0.05097
1076.00 0.05095
1076.10 0.05093
1076.20 0.05092
1076.30 0.0509
1076.40 0.05088
1076.50 0.05086
1076.60 0.05084
1076.70 0.05082
1076.80 0.0508
1076.90 0.05078
1077.00 0.05076
1077.10 0.05074
1077.20 0.05073
1077.30 0.05071
1077.40 0.05069
1077.50 0.05067
1077.60 0.05065
1077.70 0.05063
1077.80 0.05061
1077.90 0.05059
1078.00 0.05057
1078.10 0.05055
1078.20 0.05053
1078.30 0.05051
1078.40 0.0505
1078.50 0.05048
1078.60 0.05046
1078.70 0.05044
1078.80 0.05042
1078.90 0.0504
1079.00 0.05038
1079.10 0.05036
1079.20 0.05034
1079.30 0.05032
1079.40 0.0503
1079.50 0.05029
1079.60 0.05027
1079.70 0.05025
1079.80 0.05023
1079.90 0.05021
1080.00 0.05019
1080.10 0.05017
1080.20 0.05015
1080.30 0.05013
1080.40 0.05011
1080.50 0.05009
1080.60 0.05007
1080.70 0.05005
1080.80 0.05003
1080.90 0.05001
1081.00 0.05
1081.10 0.04998
1081.20 0.04996
1081.30 0.04994
1081.40 0.04992
1081.50 0.0499
1081.60 0.04988
1081.70 0.04986
1081.80 0.04984
1081.90 0.04982
1082.00 0.0498
1082.10 0.04978
1082.20 0.04976
1082.30 0.04974
1082.40 0.04972
1082.50 0.0497
1082.60 0.04968
1082.70 0.04966
1082.80 0.04964
1082.90 0.04962
1083.00 0.04961
1083.10 0.04959
1083.20 0.04957
1083.30 0.04955
1083.40 0.04953
1083.50 0.04951
1083.60 0.04949
1083.70 0.04947
1083.80 0.04945
1083.90 0.04943
1084.00 0.04941
1084.10 0.04939
1084.20 0.04937
1084.30 0.04935
1084.40 0.04933
1084.50 0.04931
1084.60 0.04929
1084.70 0.04927
1084.80 0.04925
1084.90 0.04923
1085.00 0.04921
1085.10 0.04918
1085.20 0.04916
1085.30 0.04914
1085.40 0.04912
1085.50 0.0491
1085.60 0.04908
1085.70 0.04906
1085.80 0.04904
1085.90 0.04902
1086.00 0.049
1086.10 0.04898
1086.20 0.04896
1086.30 0.04894
1086.40 0.04892
1086.50 0.0489
1086.60 0.04888
1086.70 0.04886
1086.80 0.04884
1086.90 0.04882
1087.00 0.0488
1087.10 0.04877
1087.20 0.04875
1087.30 0.04873
1087.40 0.04871
1087.50 0.04869
1087.60 0.04867
1087.70 0.04865
1087.80 0.04863
1087.90 0.04861
1088.00 0.04858
1088.10 0.04856
1088.20 0.04854
1088.30 0.04852
1088.40 0.0485
1088.50 0.04848
1088.60 0.04846
1088.70 0.04844
1088.80 0.04842
1088.90 0.0484
1089.00 0.04837
1089.10 0.04835
1089.20 0.04833
1089.30 0.04831
1089.40 0.04829
1089.50 0.04827
1089.60 0.04825
1089.70 0.04823
1089.80 0.04821
1089.90 0.04819
1090.00 0.04817
1090.10 0.04815
1090.20 0.04813
1090.30 0.0481
1090.40 0.04808
1090.50 0.04806
1090.60 0.04805
1090.70 0.04803
1090.80 0.04801
1090.90 0.04799
1091.00 0.04798
1091.10 0.04796
1091.20 0.04794
1091.30 0.04792
1091.40 0.04791
1091.50 0.04789
1091.60 0.04787
1091.70 0.04785
1091.80 0.04784
1091.90 0.04782
1092.00 0.0478
1092.10 0.04779
1092.20 0.04778
1092.30 0.04777
1092.40 0.04776
1092.50 0.04775
1092.60 0.04774
1092.70 0.04773
1092.80 0.04772
1092.90 0.04772
1093.00 0.04771
1093.10 0.04771
1093.20 0.0477
1093.30 0.0477
1093.40 0.04771
1093.50 0.04772
1093.60 0.04776
1093.70 0.04778
1093.80 0.04779
1093.90 0.04778
1094.00 0.04771
1094.10 0.04765
1094.20 0.04759
1094.30 0.04754
1094.40 0.04751
1094.50 0.04748
1094.60 0.04745
1094.70 0.04742
1094.80 0.04739
1094.90 0.04736
1095.00 0.04733
1095.10 0.04731
1095.20 0.04729
1095.30 0.04727
1095.40 0.04725
1095.50 0.04723
1095.60 0.04721
1095.70 0.04719
1095.80 0.04717
1095.90 0.04715
1096.00 0.04713
1096.10 0.04712
1096.20 0.0471
1096.30 0.04708
1096.40 0.04706
1096.50 0.04704
1096.60 0.04702
1096.70 0.04701
1096.80 0.04699
1096.90 0.04698
1097.00 0.04696
1097.10 0.04695
1097.20 0.04694
1097.30 0.04692
1097.40 0.04691
1097.50 0.0469
1097.60 0.04688
1097.70 0.04687
1097.80 0.04686
1097.90 0.04684
1098.00 0.04683
1098.10 0.04682
1098.20 0.0468
1098.30 0.04679
1098.40 0.04678
1098.50 0.04676
1098.60 0.04675
1098.70 0.04674
1098.80 0.04672
1098.90 0.04671
1099.00 0.0467
1099.10 0.04669
1099.20 0.04667
1099.30 0.04666
1099.40 0.04665
1099.50 0.04663
1099.60 0.04662
1099.70 0.04661
1099.80 0.04659
1099.90 0.04658
1100.00 0.04657
1100.10 0.04656
1100.20 0.04654
1100.30 0.04653
1100.40 0.04652
1100.50 0.0465
1100.60 0.04649
1100.70 0.04648
1100.80 0.04646
1100.90 0.04645
1101.00 0.04644
1101.10 0.04642
1101.20 0.04641
1101.30 0.0464
1101.40 0.04638
1101.50 0.04637
1101.60 0.04636
1101.70 0.04634
1101.80 0.04633
1101.90 0.04632
1102.00 0.0463
1102.10 0.04629
1102.20 0.04627
1102.30 0.04626
1102.40 0.04625
1102.50 0.04623
1102.60 0.04622
1102.70 0.0462
1102.80 0.04619
1102.90 0.04618
1103.00 0.04616
1103.10 0.04615
1103.20 0.04613
1103.30 0.04612
1103.40 0.04611
1103.50 0.04609
1103.60 0.04608
1103.70 0.04606
1103.80 0.04605
1103.90 0.04603
1104.00 0.04602
1104.10 0.046
1104.20 0.04599
1104.30 0.04597
1104.40 0.04596
1104.50 0.04595
1104.60 0.04593
1104.70 0.04592
1104.80 0.0459
1104.90 0.04589
1105.00 0.04587
1105.10 0.04586
1105.20 0.04584
1105.30 0.04583
1105.40 0.04581
1105.50 0.0458
1105.60 0.04578
1105.70 0.04577
1105.80 0.04575
1105.90 0.04574
1106.00 0.04572
1106.10 0.04571
1106.20 0.0457
1106.30 0.04568
1106.40 0.04567
1106.50 0.04565
1106.60 0.04564
1106.70 0.04562
1106.80 0.04561
1106.90 0.04559
1107.00 0.04558
1107.10 0.04556
1107.20 0.04555
1107.30 0.04553
1107.40 0.04552
1107.50 0.0455
1107.60 0.04549
1107.70 0.04547
1107.80 0.04545
1107.90 0.04544
1108.00 0.04542
1108.10 0.04541
1108.20 0.04539
1108.30 0.04538
1108.40 0.04536
1108.50 0.04535
1108.60 0.04533
1108.70 0.04532
1108.80 0.0453
1108.90 0.04529
1109.00 0.04527
1109.10 0.04526
1109.20 0.04524
1109.30 0.04523
1109.40 0.04521
1109.50 0.0452
1109.60 0.04518
1109.70 0.04517
1109.80 0.04515
1109.90 0.04514
1110.00 0.04512
1110.10 0.04511
1110.20 0.04509
1110.30 0.04507
1110.40 0.04506
1110.50 0.04504
1110.60 0.04503
1110.70 0.04501
1110.80 0.045
1110.90 0.04498
1111.00 0.04497
1111.10 0.04495
1111.20 0.04494
1111.30 0.04492
1111.40 0.04491
1111.50 0.04489
1111.60 0.04488
1111.70 0.04486
1111.80 0.04485
1111.90 0.04483
1112.00 0.04481
1112.10 0.0448
1112.20 0.04478
1112.30 0.04477
1112.40 0.04475
1112.50 0.04474
1112.60 0.04472
1112.70 0.04471
1112.80 0.04469
1112.90 0.04468
1113.00 0.04466
1113.10 0.04465
1113.20 0.04463
1113.30 0.04462
1113.40 0.0446
1113.50 0.04459
1113.60 0.04457
1113.70 0.04455
1113.80 0.04454
1113.90 0.04452
1114.00 0.04451
1114.10 0.04449
1114.20 0.04448
1114.30 0.04446
1114.40 0.04445
1114.50 0.04443
1114.60 0.04442
1114.70 0.0444
1114.80 0.04439
1114.90 0.04437
1115.00 0.04436
1115.10 0.04434
1115.20 0.04432
1115.30 0.04431
1115.40 0.04429
1115.50 0.04428
1115.60 0.04426
1115.70 0.04425
1115.80 0.04423
1115.90 0.04422
1116.00 0.0442
1116.10 0.04419
1116.20 0.04417
1116.30 0.04416
1116.40 0.04414
1116.50 0.04413
1116.60 0.04411
1116.70 0.0441
1116.80 0.04408
1116.90 0.04407
1117.00 0.04405
1117.10 0.04404
1117.20 0.04402
1117.30 0.04401
1117.40 0.04399
1117.50 0.04397
1117.60 0.04396
1117.70 0.04394
1117.80 0.04393
1117.90 0.04391
1118.00 0.0439
1118.10 0.04388
1118.20 0.04387
1118.30 0.04385
1118.40 0.04384
1118.50 0.04382
1118.60 0.04381
1118.70 0.04379
1118.80 0.04378
1118.90 0.04376
1119.00 0.04375
1119.10 0.04373
1119.20 0.04372
1119.30 0.0437
1119.40 0.04369
1119.50 0.04367
1119.60 0.04366
1119.70 0.04364
1119.80 0.04363
1119.90 0.04361
1120.00 0.0436
1120.10 0.04358
1120.20 0.04357
1120.30 0.04355
1120.40 0.04354
1120.50 0.04352
1120.60 0.04351
1120.70 0.04349
1120.80 0.04348
1120.90 0.04346
1121.00 0.04345
1121.10 0.04343
1121.20 0.04342
1121.30 0.0434
1121.40 0.04339
1121.50 0.04337
1121.60 0.04336
1121.70 0.04334
1121.80 0.04333
1121.90 0.04331
1122.00 0.0433
1122.10 0.04328
1122.20 0.04327
1122.30 0.04325
1122.40 0.04324
1122.50 0.04322
1122.60 0.04321
1122.70 0.04319
1122.80 0.04318
1122.90 0.04316
1123.00 0.04315
1123.10 0.04313
1123.20 0.04312
1123.30 0.0431
1123.40 0.04309
1123.50 0.04307
1123.60 0.04306
1123.70 0.04304
1123.80 0.04303
1123.90 0.04301
1124.00 0.043
1124.10 0.04298
1124.20 0.04297
1124.30 0.04295
1124.40 0.04294
1124.50 0.04292
1124.60 0.04291
1124.70 0.04289
1124.80 0.04288
1124.90 0.04286
1125.00 0.04285
1125.10 0.04283
1125.20 0.04282
1125.30 0.0428
1125.40 0.04279
1125.50 0.04277
1125.60 0.04276
1125.70 0.04275
1125.80 0.04273
1125.90 0.04272
1126.00 0.0427
1126.10 0.04269
1126.20 0.04267
1126.30 0.04266
1126.40 0.04264
1126.50 0.04263
1126.60 0.04261
1126.70 0.0426
1126.80 0.04258
1126.90 0.04257
1127.00 0.04255
1127.10 0.04254
1127.20 0.04252
1127.30 0.04251
1127.40 0.04249
1127.50 0.04248
1127.60 0.04247
1127.70 0.04245
1127.80 0.04244
1127.90 0.04242
1128.00 0.04241
1128.10 0.04239
1128.20 0.04238
1128.30 0.04236
1128.40 0.04235
1128.50 0.04233
1128.60 0.04232
1128.70 0.0423
1128.80 0.04229
1128.90 0.04228
1129.00 0.04226
1129.10 0.04225
1129.20 0.04223
1129.30 0.04222
1129.40 0.0422
1129.50 0.04219
1129.60 0.04217
1129.70 0.04216
1129.80 0.04214
1129.90 0.04213
1130.00 0.04212
1130.10 0.0421
1130.20 0.04209
1130.30 0.04207
1130.40 0.04206
1130.50 0.04204
1130.60 0.04203
1130.70 0.04201
1130.80 0.042
1130.90 0.04198
1131.00 0.04197
1131.10 0.04196
1131.20 0.04194
1131.30 0.04193
1131.40 0.04191
1131.50 0.0419
1131.60 0.04188
1131.70 0.04187
1131.80 0.04185
1131.90 0.04184
1132.00 0.04183
1132.10 0.04181
1132.20 0.0418
1132.30 0.04178
1132.40 0.04177
1132.50 0.04175
1132.60 0.04174
1132.70 0.04173
1132.80 0.04171
1132.90 0.0417
1133.00 0.04168
1133.10 0.04167
1133.20 0.04165
1133.30 0.04164
1133.40 0.04162
1133.50 0.04161
1133.60 0.0416
1133.70 0.04158
1133.80 0.04157
1133.90 0.04155
1134.00 0.04154
1134.10 0.04152
1134.20 0.04151
1134.30 0.0415
1134.40 0.04148
1134.50 0.04147
1134.60 0.04145
1134.70 0.04144
1134.80 0.04142
1134.90 0.04141
1135.00 0.0414
1135.10 0.04138
1135.20 0.04137
1135.30 0.04135
1135.40 0.04134
1135.50 0.04133
1135.60 0.04131
1135.70 0.0413
1135.80 0.04128
1135.90 0.04127
1136.00 0.04125
1136.10 0.04124
1136.20 0.04123
1136.30 0.04121
1136.40 0.0412
1136.50 0.04118
1136.60 0.04117
1136.70 0.04115
1136.80 0.04114
1136.90 0.04113
1137.00 0.04111
1137.10 0.0411
1137.20 0.04108
1137.30 0.04107
1137.40 0.04106
1137.50 0.04104
1137.60 0.04103
1137.70 0.04101
1137.80 0.041
1137.90 0.04099
1138.00 0.04097
1138.10 0.04096
1138.20 0.04094
1138.30 0.04093
1138.40 0.04092
1138.50 0.0409
1138.60 0.04089
1138.70 0.04087
1138.80 0.04086
1138.90 0.04085
1139.00 0.04083
1139.10 0.04082
1139.20 0.0408
1139.30 0.04079
1139.40 0.04078
1139.50 0.04076
1139.60 0.04075
1139.70 0.04073
1139.80 0.04072
1139.90 0.04071
1140.00 0.04069
1140.10 0.04068
1140.20 0.04066
1140.30 0.04065
1140.40 0.04064
1140.50 0.04062
1140.60 0.04061
1140.70 0.04059
1140.80 0.04058
1140.90 0.04057
1141.00 0.04055
1141.10 0.04054
1141.20 0.04052
1141.30 0.04051
1141.40 0.0405
1141.50 0.04048
1141.60 0.04047
1141.70 0.04046
1141.80 0.04044
1141.90 0.04043
1142.00 0.04041
1142.10 0.0404
1142.20 0.04039
1142.30 0.04037
1142.40 0.04036
1142.50 0.04035
1142.60 0.04033
1142.70 0.04032
1142.80 0.0403
1142.90 0.04029
1143.00 0.04028
1143.10 0.04026
1143.20 0.04025
1143.30 0.04024
1143.40 0.04022
1143.50 0.04021
1143.60 0.04019
1143.70 0.04018
1143.80 0.04017
1143.90 0.04015
1144.00 0.04014
1144.10 0.04013
1144.20 0.04011
1144.30 0.0401
1144.40 0.04008
1144.50 0.04007
1144.60 0.04006
1144.70 0.04004
1144.80 0.04003
1144.90 0.04002
1145.00 0.04
1145.10 0.03999
1145.20 0.03998
1145.30 0.03996
1145.40 0.03995
1145.50 0.03993
1145.60 0.03992
1145.70 0.03991
1145.80 0.03989
1145.90 0.03988
1146.00 0.03987
1146.10 0.03985
1146.20 0.03984
1146.30 0.03983
1146.40 0.03981
1146.50 0.0398
1146.60 0.03978
1146.70 0.03977
1146.80 0.03976
1146.90 0.03974
1147.00 0.03973
1147.10 0.03972
1147.20 0.0397
1147.30 0.03969
1147.40 0.03968
1147.50 0.03966
1147.60 0.03965
1147.70 0.03964
1147.80 0.03962
1147.90 0.03961
1148.00 0.0396
1148.10 0.03958
1148.20 0.03957
1148.30 0.03956
1148.40 0.03954
1148.50 0.03953
1148.60 0.03951
1148.70 0.0395
1148.80 0.03949
1148.90 0.03947
1149.00 0.03946
1149.10 0.03945
1149.20 0.03943
1149.30 0.03942
1149.40 0.03941
1149.50 0.03939
1149.60 0.03938
1149.70 0.03937
1149.80 0.03935
1149.90 0.03934
1150.00 0.03933
1150.10 0.03931
1150.20 0.0393
1150.30 0.03929
1150.40 0.03927
1150.50 0.03926
1150.60 0.03925
1150.70 0.03923
1150.80 0.03922
1150.90 0.03921
1151.00 0.03919
1151.10 0.03918
1151.20 0.03917
1151.30 0.03915
1151.40 0.03914
1151.50 0.03913
1151.60 0.03911
1151.70 0.0391
1151.80 0.03909
1151.90 0.03907
1152.00 0.03906
1152.10 0.03905
1152.20 0.03903
1152.30 0.03902
1152.40 0.03901
1152.50 0.03899
1152.60 0.03898
1152.70 0.03897
1152.80 0.03896
1152.90 0.03894
1153.00 0.03893
1153.10 0.03892
1153.20 0.0389
1153.30 0.03889
1153.40 0.03888
1153.50 0.03886
1153.60 0.03885
1153.70 0.03884
1153.80 0.03882
1153.90 0.03881
1154.00 0.0388
1154.10 0.03878
1154.20 0.03877
1154.30 0.03876
1154.40 0.03874
1154.50 0.03873
1154.60 0.03872
1154.70 0.03871
1154.80 0.03869
1154.90 0.03868
1155.00 0.03867
1155.10 0.03865
1155.20 0.03864
1155.30 0.03863
1155.40 0.03861
1155.50 0.0386
1155.60 0.03859
1155.70 0.03857
1155.80 0.03856
1155.90 0.03855
1156.00 0.03854
1156.10 0.03852
1156.20 0.03851
1156.30 0.0385
1156.40 0.03848
1156.50 0.03847
1156.60 0.03846
1156.70 0.03844
1156.80 0.03843
1156.90 0.03842
1157.00 0.0384
1157.10 0.03839
1157.20 0.03838
1157.30 0.03837
1157.40 0.03835
1157.50 0.03834
1157.60 0.03833
1157.70 0.03831
1157.80 0.0383
1157.90 0.03829
1158.00 0.03828
1158.10 0.03826
1158.20 0.03825
1158.30 0.03824
1158.40 0.03822
1158.50 0.03821
1158.60 0.0382
1158.70 0.03819
1158.80 0.03817
1158.90 0.03816
1159.00 0.03815
1159.10 0.03813
1159.20 0.03812
1159.30 0.03811
1159.40 0.0381
1159.50 0.03808
1159.60 0.03807
1159.70 0.03806
1159.80 0.03804
1159.90 0.03803
1160.00 0.03802
1160.10 0.03801
1160.20 0.03799
1160.30 0.03798
1160.40 0.03797
1160.50 0.03795
1160.60 0.03794
1160.70 0.03793
1160.80 0.03792
1160.90 0.0379
1161.00 0.03789
1161.10 0.03788
1161.20 0.03786
1161.30 0.03785
1161.40 0.03784
1161.50 0.03783
1161.60 0.03781
1161.70 0.0378
1161.80 0.03779
1161.90 0.03778
1162.00 0.03776
1162.10 0.03775
1162.20 0.03774
1162.30 0.03772
1162.40 0.03771
1162.50 0.0377
1162.60 0.03769
1162.70 0.03767
1162.80 0.03766
1162.90 0.03765
1163.00 0.03764
1163.10 0.03762
1163.20 0.03761
1163.30 0.0376
1163.40 0.03759
1163.50 0.03757
1163.60 0.03756
1163.70 0.03755
1163.80 0.03754
1163.90 0.03752
1164.00 0.03751
1164.10 0.0375
1164.20 0.03749
1164.30 0.03747
1164.40 0.03746
1164.50 0.03745
1164.60 0.03743
1164.70 0.03742
1164.80 0.03741
1164.90 0.0374
1165.00 0.03738
1165.10 0.03737
1165.20 0.03736
1165.30 0.03735
1165.40 0.03733
1165.50 0.03732
1165.60 0.03731
1165.70 0.0373
1165.80 0.03728
1165.90 0.03727
1166.00 0.03726
1166.10 0.03725
1166.20 0.03723
1166.30 0.03722
1166.40 0.03721
1166.50 0.0372
1166.60 0.03718
1166.70 0.03717
1166.80 0.03716
1166.90 0.03715
1167.00 0.03713
1167.10 0.03712
1167.20 0.03711
1167.30 0.0371
1167.40 0.03708
1167.50 0.03707
1167.60 0.03706
1167.70 0.03705
1167.80 0.03704
1167.90 0.03702
1168.00 0.03701
1168.10 0.037
1168.20 0.03699
1168.30 0.03697
1168.40 0.03696
1168.50 0.03695
1168.60 0.03694
1168.70 0.03692
1168.80 0.03691
1168.90 0.0369
1169.00 0.03689
1169.10 0.03687
1169.20 0.03686
1169.30 0.03685
1169.40 0.03684
1169.50 0.03683
1169.60 0.03681
1169.70 0.0368
1169.80 0.03679
1169.90 0.03678
1170.00 0.03676
1170.10 0.03675
1170.20 0.03674
1170.30 0.03673
1170.40 0.03671
1170.50 0.0367
1170.60 0.03669
1170.70 0.03668
1170.80 0.03667
1170.90 0.03665
1171.00 0.03664
1171.10 0.03663
1171.20 0.03662
1171.30 0.0366
1171.40 0.03659
1171.50 0.03658
1171.60 0.03657
1171.70 0.03656
1171.80 0.03654
1171.90 0.03653
1172.00 0.03652
1172.10 0.03651
1172.20 0.03649
1172.30 0.03648
1172.40 0.03647
1172.50 0.03646
1172.60 0.03645
1172.70 0.03643
1172.80 0.03642
1172.90 0.03641
1173.00 0.0364
1173.10 0.03639
1173.20 0.03637
1173.30 0.03636
1173.40 0.03635
1173.50 0.03634
1173.60 0.03632
1173.70 0.03631
1173.80 0.0363
1173.90 0.03629
1174.00 0.03628
1174.10 0.03626
1174.20 0.03625
1174.30 0.03624
1174.40 0.03623
1174.50 0.03622
1174.60 0.0362
1174.70 0.03619
1174.80 0.03618
1174.90 0.03617
1175.00 0.03616
1175.10 0.03614
1175.20 0.03613
1175.30 0.03612
1175.40 0.03611
1175.50 0.0361
1175.60 0.03608
1175.70 0.03607
1175.80 0.03606
1175.90 0.03605
1176.00 0.03604
1176.10 0.03602
1176.20 0.03601
1176.30 0.036
1176.40 0.03599
1176.50 0.03598
1176.60 0.03596
1176.70 0.03595
1176.80 0.03594
1176.90 0.03593
1177.00 0.03592
1177.10 0.0359
1177.20 0.03589
1177.30 0.03588
1177.40 0.03587
1177.50 0.03586
1177.60 0.03584
1177.70 0.03583
1177.80 0.03582
1177.90 0.03581
1178.00 0.0358
1178.10 0.03579
1178.20 0.03577
1178.30 0.03576
1178.40 0.03575
1178.50 0.03574
1178.60 0.03573
1178.70 0.03571
1178.80 0.0357
1178.90 0.03569
1179.00 0.03568
1179.10 0.03567
1179.20 0.03565
1179.30 0.03564
1179.40 0.03563
1179.50 0.03562
1179.60 0.03561
1179.70 0.0356
1179.80 0.03558
1179.90 0.03557
1180.00 0.03556
1180.10 0.03555
1180.20 0.03554
1180.30 0.03553
1180.40 0.03551
1180.50 0.0355
1180.60 0.03549
1180.70 0.03548
1180.80 0.03547
1180.90 0.03545
1181.00 0.03544
1181.10 0.03543
1181.20 0.03542
1181.30 0.03541
1181.40 0.0354
1181.50 0.03538
1181.60 0.03537
1181.70 0.03536
1181.80 0.03535
1181.90 0.03534
1182.00 0.03533
1182.10 0.03531
1182.20 0.0353
1182.30 0.03529
1182.40 0.03528
1182.50 0.03527
1182.60 0.03526
1182.70 0.03524
1182.80 0.03523
1182.90 0.03522
1183.00 0.03521
1183.10 0.0352
1183.20 0.03519
1183.30 0.03517
1183.40 0.03516
1183.50 0.03515
1183.60 0.03514
1183.70 0.03513
1183.80 0.03512
1183.90 0.0351
1184.00 0.03509
1184.10 0.03508
1184.20 0.03507
1184.30 0.03506
1184.40 0.03505
1184.50 0.03504
1184.60 0.03502
1184.70 0.03501
1184.80 0.035
1184.90 0.03499
1185.00 0.03498
1185.10 0.03497
1185.20 0.03495
1185.30 0.03494
1185.40 0.03493
1185.50 0.03492
1185.60 0.03491
1185.70 0.0349
1185.80 0.03488
1185.90 0.03487
1186.00 0.03486
1186.10 0.03485
1186.20 0.03484
1186.30 0.03483
1186.40 0.03482
1186.50 0.0348
1186.60 0.03479
1186.70 0.03478
1186.80 0.03477
1186.90 0.03476
1187.00 0.03475
1187.10 0.03474
1187.20 0.03472
1187.30 0.03471
1187.40 0.0347
1187.50 0.03469
1187.60 0.03468
1187.70 0.03467
1187.80 0.03466
1187.90 0.03464
1188.00 0.03463
1188.10 0.03462
1188.20 0.03461
1188.30 0.0346
1188.40 0.03459
1188.50 0.03458
1188.60 0.03456
1188.70 0.03455
1188.80 0.03454
1188.90 0.03453
1189.00 0.03452
1189.10 0.03451
1189.20 0.0345
1189.30 0.03449
1189.40 0.03447
1189.50 0.03446
1189.60 0.03445
1189.70 0.03444
1189.80 0.03443
1189.90 0.03442
1190.00 0.03441
1190.10 0.03439
1190.20 0.03438
1190.30 0.03437
1190.40 0.03436
1190.50 0.03435
1190.60 0.03434
1190.70 0.03433
1190.80 0.03432
1190.90 0.0343
1191.00 0.03429
1191.10 0.03428
1191.20 0.03427
1191.30 0.03426
1191.40 0.03425
1191.50 0.03424
1191.60 0.03423
1191.70 0.03421
1191.80 0.0342
1191.90 0.03419
1192.00 0.03418
1192.10 0.03417
1192.20 0.03416
1192.30 0.03415
1192.40 0.03414
1192.50 0.03412
1192.60 0.03411
1192.70 0.0341
1192.80 0.03409
1192.90 0.03408
1193.00 0.03407
1193.10 0.03406
1193.20 0.03405
1193.30 0.03404
1193.40 0.03402
1193.50 0.03401
1193.60 0.034
1193.70 0.03399
1193.80 0.03398
1193.90 0.03397
1194.00 0.03396
1194.10 0.03395
1194.20 0.03394
1194.30 0.03392
1194.40 0.03391
1194.50 0.0339
1194.60 0.03389
1194.70 0.03388
1194.80 0.03387
1194.90 0.03386
1195.00 0.03385
1195.10 0.03384
1195.20 0.03382
1195.30 0.03381
1195.40 0.0338
1195.50 0.03379
1195.60 0.03378
1195.70 0.03377
1195.80 0.03376
1195.90 0.03375
1196.00 0.03374
1196.10 0.03372
1196.20 0.03371
1196.30 0.0337
1196.40 0.03369
1196.50 0.03368
1196.60 0.03367
1196.70 0.03366
1196.80 0.03365
1196.90 0.03364
1197.00 0.03363
1197.10 0.03361
1197.20 0.0336
1197.30 0.03359
1197.40 0.03358
1197.50 0.03357
1197.60 0.03356
1197.70 0.03355
1197.80 0.03354
1197.90 0.03353
1198.00 0.03352
1198.10 0.0335
1198.20 0.03349
1198.30 0.03348
1198.40 0.03347
1198.50 0.03346
1198.60 0.03345
1198.70 0.03344
1198.80 0.03343
1198.90 0.03342
1199.00 0.03341
1199.10 0.0334
1199.20 0.03338
1199.30 0.03337
1199.40 0.03336
1199.50 0.03335
1199.60 0.03334
1199.70 0.03333
1199.80 0.03332
1199.90 0.03331
1200.00 0
