# Version 2.1 - nm, norm@500 to 1, cut digits, bergeron_3500_75.dat_3500
# Wavelength(nm)  Flambda(ergs/cm^s/s/nm)
300.00 0.1193
300.10 0.1195
300.20 0.1198
300.30 0.1201
300.40 0.1203
300.50 0.1206
300.60 0.1209
300.70 0.1212
300.80 0.1214
300.90 0.1217
301.00 0.122
301.10 0.1222
301.20 0.1225
301.30 0.1228
301.40 0.1231
301.50 0.1233
301.60 0.1236
301.70 0.1239
301.80 0.1241
301.90 0.1244
302.00 0.1247
302.10 0.1249
302.20 0.1252
302.30 0.1255
302.40 0.1258
302.50 0.1261
302.60 0.1263
302.70 0.1266
302.80 0.1269
302.90 0.1272
303.00 0.1275
303.10 0.1277
303.20 0.128
303.30 0.1283
303.40 0.1286
303.50 0.1288
303.60 0.1291
303.70 0.1294
303.80 0.1297
303.90 0.1299
304.00 0.1302
304.10 0.1305
304.20 0.1308
304.30 0.1311
304.40 0.1314
304.50 0.1317
304.60 0.1319
304.70 0.1322
304.80 0.1325
304.90 0.1328
305.00 0.1331
305.10 0.1334
305.20 0.1337
305.30 0.1339
305.40 0.1342
305.50 0.1345
305.60 0.1348
305.70 0.1351
305.80 0.1354
305.90 0.1356
306.00 0.1359
306.10 0.1362
306.20 0.1365
306.30 0.1368
306.40 0.1371
306.50 0.1374
306.60 0.1377
306.70 0.138
306.80 0.1383
306.90 0.1386
307.00 0.1388
307.10 0.1391
307.20 0.1394
307.30 0.1397
307.40 0.14
307.50 0.1403
307.60 0.1406
307.70 0.1409
307.80 0.1412
307.90 0.1415
308.00 0.1418
308.10 0.142
308.20 0.1423
308.30 0.1426
308.40 0.1429
308.50 0.1432
308.60 0.1435
308.70 0.1438
308.80 0.1441
308.90 0.1444
309.00 0.1447
309.10 0.145
309.20 0.1453
309.30 0.1456
309.40 0.1459
309.50 0.1462
309.60 0.1465
309.70 0.1468
309.80 0.1471
309.90 0.1474
310.00 0.1477
310.10 0.148
310.20 0.1483
310.30 0.1486
310.40 0.1489
310.50 0.1493
310.60 0.1496
310.70 0.1499
310.80 0.1502
310.90 0.1505
311.00 0.1508
311.10 0.1511
311.20 0.1514
311.30 0.1517
311.40 0.152
311.50 0.1523
311.60 0.1526
311.70 0.1529
311.80 0.1532
311.90 0.1535
312.00 0.1538
312.10 0.1541
312.20 0.1544
312.30 0.1547
312.40 0.1551
312.50 0.1554
312.60 0.1557
312.70 0.156
312.80 0.1563
312.90 0.1566
313.00 0.1569
313.10 0.1572
313.20 0.1576
313.30 0.1579
313.40 0.1582
313.50 0.1585
313.60 0.1588
313.70 0.1591
313.80 0.1594
313.90 0.1597
314.00 0.16
314.10 0.1604
314.20 0.1607
314.30 0.161
314.40 0.1613
314.50 0.1616
314.60 0.162
314.70 0.1623
314.80 0.1626
314.90 0.1629
315.00 0.1632
315.10 0.1636
315.20 0.1639
315.30 0.1642
315.40 0.1645
315.50 0.1648
315.60 0.1651
315.70 0.1655
315.80 0.1658
315.90 0.1661
316.00 0.1664
316.10 0.1667
316.20 0.1671
316.30 0.1674
316.40 0.1677
316.50 0.168
316.60 0.1684
316.70 0.1687
316.80 0.169
316.90 0.1693
317.00 0.1697
317.10 0.17
317.20 0.1703
317.30 0.1706
317.40 0.171
317.50 0.1713
317.60 0.1716
317.70 0.1719
317.80 0.1722
317.90 0.1726
318.00 0.1729
318.10 0.1732
318.20 0.1736
318.30 0.1739
318.40 0.1742
318.50 0.1746
318.60 0.1749
318.70 0.1752
318.80 0.1756
318.90 0.1759
319.00 0.1762
319.10 0.1766
319.20 0.1769
319.30 0.1772
319.40 0.1775
319.50 0.1779
319.60 0.1782
319.70 0.1785
319.80 0.1789
319.90 0.1792
320.00 0.1795
320.10 0.1799
320.20 0.1802
320.30 0.1805
320.40 0.1809
320.50 0.1812
320.60 0.1816
320.70 0.1819
320.80 0.1822
320.90 0.1826
321.00 0.1829
321.10 0.1832
321.20 0.1836
321.30 0.1839
321.40 0.1843
321.50 0.1846
321.60 0.1849
321.70 0.1853
321.80 0.1856
321.90 0.1859
322.00 0.1863
322.10 0.1866
322.20 0.187
322.30 0.1873
322.40 0.1876
322.50 0.188
322.60 0.1883
322.70 0.1887
322.80 0.189
322.90 0.1894
323.00 0.1897
323.10 0.1901
323.20 0.1904
323.30 0.1907
323.40 0.1911
323.50 0.1914
323.60 0.1918
323.70 0.1921
323.80 0.1925
323.90 0.1928
324.00 0.1931
324.10 0.1935
324.20 0.1938
324.30 0.1942
324.40 0.1945
324.50 0.1949
324.60 0.1953
324.70 0.1956
324.80 0.196
324.90 0.1963
325.00 0.1967
325.10 0.197
325.20 0.1974
325.30 0.1977
325.40 0.1981
325.50 0.1984
325.60 0.1987
325.70 0.1991
325.80 0.1994
325.90 0.1998
326.00 0.2001
326.10 0.2005
326.20 0.2009
326.30 0.2012
326.40 0.2016
326.50 0.2019
326.60 0.2023
326.70 0.2026
326.80 0.203
326.90 0.2034
327.00 0.2037
327.10 0.2041
327.20 0.2044
327.30 0.2048
327.40 0.2051
327.50 0.2055
327.60 0.2058
327.70 0.2062
327.80 0.2066
327.90 0.2069
328.00 0.2073
328.10 0.2076
328.20 0.208
328.30 0.2084
328.40 0.2087
328.50 0.2091
328.60 0.2094
328.70 0.2098
328.80 0.2102
328.90 0.2105
329.00 0.2109
329.10 0.2113
329.20 0.2116
329.30 0.212
329.40 0.2123
329.50 0.2127
329.60 0.2131
329.70 0.2134
329.80 0.2138
329.90 0.2141
330.00 0.2145
330.10 0.2149
330.20 0.2152
330.30 0.2156
330.40 0.216
330.50 0.2164
330.60 0.2167
330.70 0.2171
330.80 0.2175
330.90 0.2178
331.00 0.2182
331.10 0.2186
331.20 0.2189
331.30 0.2193
331.40 0.2197
331.50 0.22
331.60 0.2204
331.70 0.2208
331.80 0.2211
331.90 0.2215
332.00 0.2219
332.10 0.2222
332.20 0.2226
332.30 0.223
332.40 0.2234
332.50 0.2237
332.60 0.2241
332.70 0.2245
332.80 0.2249
332.90 0.2252
333.00 0.2256
333.10 0.226
333.20 0.2264
333.30 0.2267
333.40 0.2271
333.50 0.2275
333.60 0.2279
333.70 0.2282
333.80 0.2286
333.90 0.229
334.00 0.2293
334.10 0.2297
334.20 0.2301
334.30 0.2305
334.40 0.2309
334.50 0.2312
334.60 0.2316
334.70 0.232
334.80 0.2324
334.90 0.2328
335.00 0.2332
335.10 0.2335
335.20 0.2339
335.30 0.2343
335.40 0.2347
335.50 0.235
335.60 0.2354
335.70 0.2358
335.80 0.2362
335.90 0.2365
336.00 0.2369
336.10 0.2373
336.20 0.2377
336.30 0.2381
336.40 0.2385
336.50 0.2389
336.60 0.2393
336.70 0.2396
336.80 0.24
336.90 0.2404
337.00 0.2408
337.10 0.2412
337.20 0.2416
337.30 0.242
337.40 0.2423
337.50 0.2427
337.60 0.2431
337.70 0.2435
337.80 0.2439
337.90 0.2442
338.00 0.2446
338.10 0.245
338.20 0.2454
338.30 0.2458
338.40 0.2462
338.50 0.2466
338.60 0.247
338.70 0.2474
338.80 0.2478
338.90 0.2482
339.00 0.2486
339.10 0.2489
339.20 0.2493
339.30 0.2497
339.40 0.2501
339.50 0.2505
339.60 0.2509
339.70 0.2513
339.80 0.2517
339.90 0.2521
340.00 0.2524
340.10 0.2528
340.20 0.2532
340.30 0.2536
340.40 0.254
340.50 0.2544
340.60 0.2548
340.70 0.2552
340.80 0.2556
340.90 0.256
341.00 0.2564
341.10 0.2568
341.20 0.2572
341.30 0.2576
341.40 0.258
341.50 0.2584
341.60 0.2588
341.70 0.2592
341.80 0.2596
341.90 0.26
342.00 0.2604
342.10 0.2608
342.20 0.2612
342.30 0.2616
342.40 0.262
342.50 0.2624
342.60 0.2628
342.70 0.2632
342.80 0.2636
342.90 0.264
343.00 0.2644
343.10 0.2648
343.20 0.2652
343.30 0.2656
343.40 0.266
343.50 0.2664
343.60 0.2668
343.70 0.2672
343.80 0.2676
343.90 0.268
344.00 0.2684
344.10 0.2688
344.20 0.2692
344.30 0.2696
344.40 0.27
344.50 0.2704
344.60 0.2708
344.70 0.2713
344.80 0.2717
344.90 0.2721
345.00 0.2725
345.10 0.2729
345.20 0.2733
345.30 0.2737
345.40 0.2741
345.50 0.2745
345.60 0.2749
345.70 0.2753
345.80 0.2757
345.90 0.2761
346.00 0.2765
346.10 0.2769
346.20 0.2773
346.30 0.2778
346.40 0.2782
346.50 0.2786
346.60 0.279
346.70 0.2794
346.80 0.2798
346.90 0.2802
347.00 0.2807
347.10 0.2811
347.20 0.2815
347.30 0.2819
347.40 0.2823
347.50 0.2827
347.60 0.2831
347.70 0.2835
347.80 0.2839
347.90 0.2843
348.00 0.2847
348.10 0.2852
348.20 0.2856
348.30 0.286
348.40 0.2864
348.50 0.2868
348.60 0.2873
348.70 0.2877
348.80 0.2881
348.90 0.2885
349.00 0.2889
349.10 0.2893
349.20 0.2898
349.30 0.2902
349.40 0.2906
349.50 0.291
349.60 0.2914
349.70 0.2918
349.80 0.2922
349.90 0.2927
350.00 0.2931
350.10 0.2935
350.20 0.2939
350.30 0.2943
350.40 0.2948
350.50 0.2952
350.60 0.2956
350.70 0.296
350.80 0.2965
350.90 0.2969
351.00 0.2973
351.10 0.2977
351.20 0.2981
351.30 0.2986
351.40 0.299
351.50 0.2994
351.60 0.2998
351.70 0.3002
351.80 0.3007
351.90 0.3011
352.00 0.3015
352.10 0.3019
352.20 0.3023
352.30 0.3028
352.40 0.3032
352.50 0.3036
352.60 0.3041
352.70 0.3045
352.80 0.3049
352.90 0.3053
353.00 0.3058
353.10 0.3062
353.20 0.3066
353.30 0.307
353.40 0.3075
353.50 0.3079
353.60 0.3083
353.70 0.3087
353.80 0.3092
353.90 0.3096
354.00 0.31
354.10 0.3104
354.20 0.3109
354.30 0.3113
354.40 0.3117
354.50 0.3122
354.60 0.3126
354.70 0.313
354.80 0.3135
354.90 0.3139
355.00 0.3143
355.10 0.3148
355.20 0.3152
355.30 0.3156
355.40 0.316
355.50 0.3165
355.60 0.3169
355.70 0.3173
355.80 0.3178
355.90 0.3182
356.00 0.3186
356.10 0.319
356.20 0.3195
356.30 0.3199
356.40 0.3204
356.50 0.3208
356.60 0.3212
356.70 0.3217
356.80 0.3221
356.90 0.3225
357.00 0.323
357.10 0.3234
357.20 0.3238
357.30 0.3243
357.40 0.3247
357.50 0.3251
357.60 0.3256
357.70 0.326
357.80 0.3264
357.90 0.3269
358.00 0.3273
358.10 0.3277
358.20 0.3282
358.30 0.3286
358.40 0.3291
358.50 0.3295
358.60 0.3299
358.70 0.3304
358.80 0.3308
358.90 0.3313
359.00 0.3317
359.10 0.3321
359.20 0.3326
359.30 0.333
359.40 0.3335
359.50 0.3339
359.60 0.3343
359.70 0.3348
359.80 0.3352
359.90 0.3356
360.00 0.3361
360.10 0.3365
360.20 0.337
360.30 0.3374
360.40 0.3379
360.50 0.3383
360.60 0.3387
360.70 0.3392
360.80 0.3396
360.90 0.3401
361.00 0.3405
361.10 0.341
361.20 0.3414
361.30 0.3418
361.40 0.3423
361.50 0.3427
361.60 0.3432
361.70 0.3436
361.80 0.344
361.90 0.3445
362.00 0.3449
362.10 0.3454
362.20 0.3458
362.30 0.3463
362.40 0.3467
362.50 0.3472
362.60 0.3476
362.70 0.3481
362.80 0.3485
362.90 0.3489
363.00 0.3494
363.10 0.3498
363.20 0.3503
363.30 0.3507
363.40 0.3512
363.50 0.3516
363.60 0.3521
363.70 0.3525
363.80 0.353
363.90 0.3534
364.00 0.3539
364.10 0.3543
364.20 0.3548
364.30 0.3552
364.40 0.3557
364.50 0.3561
364.60 0.3566
364.70 0.357
364.80 0.3575
364.90 0.3579
365.00 0.3584
365.10 0.3588
365.20 0.3593
365.30 0.3597
365.40 0.3602
365.50 0.3606
365.60 0.3611
365.70 0.3615
365.80 0.362
365.90 0.3624
366.00 0.3629
366.10 0.3633
366.20 0.3638
366.30 0.3643
366.40 0.3647
366.50 0.3652
366.60 0.3656
366.70 0.3661
366.80 0.3665
366.90 0.367
367.00 0.3674
367.10 0.3679
367.20 0.3684
367.30 0.3688
367.40 0.3693
367.50 0.3697
367.60 0.3702
367.70 0.3706
367.80 0.3711
367.90 0.3715
368.00 0.372
368.10 0.3724
368.20 0.3729
368.30 0.3733
368.40 0.3738
368.50 0.3743
368.60 0.3747
368.70 0.3752
368.80 0.3756
368.90 0.3761
369.00 0.3766
369.10 0.377
369.20 0.3775
369.30 0.3779
369.40 0.3784
369.50 0.3788
369.60 0.3793
369.70 0.3797
369.80 0.3802
369.90 0.3807
370.00 0.3811
370.10 0.3816
370.20 0.382
370.30 0.3825
370.40 0.383
370.50 0.3834
370.60 0.3839
370.70 0.3844
370.80 0.3848
370.90 0.3853
371.00 0.3858
371.10 0.3862
371.20 0.3867
371.30 0.3871
371.40 0.3876
371.50 0.3881
371.60 0.3885
371.70 0.389
371.80 0.3894
371.90 0.3899
372.00 0.3903
372.10 0.3908
372.20 0.3913
372.30 0.3917
372.40 0.3922
372.50 0.3927
372.60 0.3931
372.70 0.3936
372.80 0.3941
372.90 0.3945
373.00 0.395
373.10 0.3955
373.20 0.3959
373.30 0.3964
373.40 0.3969
373.50 0.3973
373.60 0.3978
373.70 0.3982
373.80 0.3987
373.90 0.3992
374.00 0.3996
374.10 0.4001
374.20 0.4006
374.30 0.401
374.40 0.4015
374.50 0.402
374.60 0.4024
374.70 0.4029
374.80 0.4034
374.90 0.4038
375.00 0.4043
375.10 0.4048
375.20 0.4053
375.30 0.4057
375.40 0.4062
375.50 0.4067
375.60 0.4071
375.70 0.4076
375.80 0.408
375.90 0.4085
376.00 0.409
376.10 0.4094
376.20 0.4099
376.30 0.4104
376.40 0.4109
376.50 0.4113
376.60 0.4118
376.70 0.4123
376.80 0.4127
376.90 0.4132
377.00 0.4137
377.10 0.4142
377.20 0.4146
377.30 0.4151
377.40 0.4156
377.50 0.416
377.60 0.4165
377.70 0.417
377.80 0.4174
377.90 0.4179
378.00 0.4184
378.10 0.4189
378.20 0.4193
378.30 0.4198
378.40 0.4203
378.50 0.4208
378.60 0.4212
378.70 0.4217
378.80 0.4222
378.90 0.4227
379.00 0.4231
379.10 0.4236
379.20 0.4241
379.30 0.4245
379.40 0.425
379.50 0.4255
379.60 0.426
379.70 0.4264
379.80 0.4269
379.90 0.4274
380.00 0.4278
380.10 0.4283
380.20 0.4288
380.30 0.4293
380.40 0.4298
380.50 0.4302
380.60 0.4307
380.70 0.4312
380.80 0.4317
380.90 0.4321
381.00 0.4326
381.10 0.4331
381.20 0.4336
381.30 0.434
381.40 0.4345
381.50 0.435
381.60 0.4355
381.70 0.4359
381.80 0.4364
381.90 0.4369
382.00 0.4374
382.10 0.4378
382.20 0.4383
382.30 0.4388
382.40 0.4393
382.50 0.4398
382.60 0.4403
382.70 0.4407
382.80 0.4412
382.90 0.4417
383.00 0.4422
383.10 0.4426
383.20 0.4431
383.30 0.4436
383.40 0.4441
383.50 0.4446
383.60 0.445
383.70 0.4455
383.80 0.446
383.90 0.4464
384.00 0.4469
384.10 0.4474
384.20 0.4479
384.30 0.4484
384.40 0.4489
384.50 0.4493
384.60 0.4498
384.70 0.4503
384.80 0.4508
384.90 0.4513
385.00 0.4518
385.10 0.4522
385.20 0.4527
385.30 0.4532
385.40 0.4537
385.50 0.4541
385.60 0.4546
385.70 0.4551
385.80 0.4556
385.90 0.4561
386.00 0.4565
386.10 0.457
386.20 0.4575
386.30 0.458
386.40 0.4585
386.50 0.459
386.60 0.4594
386.70 0.4599
386.80 0.4604
386.90 0.4609
387.00 0.4614
387.10 0.4619
387.20 0.4623
387.30 0.4628
387.40 0.4633
387.50 0.4638
387.60 0.4643
387.70 0.4648
387.80 0.4653
387.90 0.4657
388.00 0.4662
388.10 0.4667
388.20 0.4672
388.30 0.4677
388.40 0.4682
388.50 0.4686
388.60 0.4691
388.70 0.4696
388.80 0.4701
388.90 0.4706
389.00 0.4711
389.10 0.4715
389.20 0.472
389.30 0.4725
389.40 0.473
389.50 0.4735
389.60 0.474
389.70 0.4745
389.80 0.475
389.90 0.4754
390.00 0.4759
390.10 0.4764
390.20 0.4769
390.30 0.4774
390.40 0.4779
390.50 0.4783
390.60 0.4788
390.70 0.4793
390.80 0.4798
390.90 0.4803
391.00 0.4808
391.10 0.4813
391.20 0.4818
391.30 0.4823
391.40 0.4827
391.50 0.4832
391.60 0.4837
391.70 0.4842
391.80 0.4847
391.90 0.4852
392.00 0.4857
392.10 0.4861
392.20 0.4866
392.30 0.4871
392.40 0.4876
392.50 0.4881
392.60 0.4886
392.70 0.4891
392.80 0.4896
392.90 0.4901
393.00 0.4905
393.10 0.491
393.20 0.4915
393.30 0.492
393.40 0.4925
393.50 0.493
393.60 0.4935
393.70 0.494
393.80 0.4945
393.90 0.4949
394.00 0.4954
394.10 0.4959
394.20 0.4964
394.30 0.4969
394.40 0.4974
394.50 0.4979
394.60 0.4984
394.70 0.4989
394.80 0.4993
394.90 0.4998
395.00 0.5003
395.10 0.5008
395.20 0.5013
395.30 0.5018
395.40 0.5023
395.50 0.5028
395.60 0.5033
395.70 0.5038
395.80 0.5043
395.90 0.5048
396.00 0.5052
396.10 0.5057
396.20 0.5062
396.30 0.5067
396.40 0.5072
396.50 0.5077
396.60 0.5082
396.70 0.5087
396.80 0.5092
396.90 0.5097
397.00 0.5102
397.10 0.5106
397.20 0.5111
397.30 0.5116
397.40 0.5121
397.50 0.5126
397.60 0.5131
397.70 0.5136
397.80 0.5141
397.90 0.5146
398.00 0.5151
398.10 0.5156
398.20 0.5161
398.30 0.5166
398.40 0.5171
398.50 0.5175
398.60 0.518
398.70 0.5185
398.80 0.519
398.90 0.5195
399.00 0.52
399.10 0.5205
399.20 0.521
399.30 0.5215
399.40 0.522
399.50 0.5225
399.60 0.523
399.70 0.5235
399.80 0.524
399.90 0.5245
400.00 0.5249
400.10 0.5254
400.20 0.5259
400.30 0.5264
400.40 0.5269
400.50 0.5274
400.60 0.5279
400.70 0.5284
400.80 0.5289
400.90 0.5294
401.00 0.5299
401.10 0.5304
401.20 0.5309
401.30 0.5314
401.40 0.5319
401.50 0.5323
401.60 0.5329
401.70 0.5334
401.80 0.5339
401.90 0.5343
402.00 0.5348
402.10 0.5353
402.20 0.5358
402.30 0.5363
402.40 0.5368
402.50 0.5373
402.60 0.5378
402.70 0.5383
402.80 0.5388
402.90 0.5393
403.00 0.5398
403.10 0.5403
403.20 0.5408
403.30 0.5413
403.40 0.5418
403.50 0.5423
403.60 0.5428
403.70 0.5433
403.80 0.5438
403.90 0.5442
404.00 0.5448
404.10 0.5453
404.20 0.5457
404.30 0.5462
404.40 0.5467
404.50 0.5472
404.60 0.5477
404.70 0.5482
404.80 0.5487
404.90 0.5492
405.00 0.5497
405.10 0.5502
405.20 0.5507
405.30 0.5512
405.40 0.5517
405.50 0.5522
405.60 0.5527
405.70 0.5532
405.80 0.5537
405.90 0.5542
406.00 0.5547
406.10 0.5552
406.20 0.5557
406.30 0.5562
406.40 0.5567
406.50 0.5572
406.60 0.5577
406.70 0.5582
406.80 0.5587
406.90 0.5591
407.00 0.5597
407.10 0.5602
407.20 0.5607
407.30 0.5611
407.40 0.5616
407.50 0.5621
407.60 0.5626
407.70 0.5631
407.80 0.5636
407.90 0.5641
408.00 0.5646
408.10 0.5651
408.20 0.5656
408.30 0.5661
408.40 0.5666
408.50 0.5671
408.60 0.5676
408.70 0.5681
408.80 0.5686
408.90 0.5691
409.00 0.5696
409.10 0.5701
409.20 0.5706
409.30 0.5711
409.40 0.5716
409.50 0.5721
409.60 0.5726
409.70 0.5731
409.80 0.5736
409.90 0.5741
410.00 0.5746
410.10 0.5751
410.20 0.5756
410.30 0.5761
410.40 0.5766
410.50 0.5771
410.60 0.5776
410.70 0.5781
410.80 0.5786
410.90 0.5791
411.00 0.5796
411.10 0.5801
411.20 0.5806
411.30 0.5811
411.40 0.5816
411.50 0.5821
411.60 0.5826
411.70 0.5831
411.80 0.5836
411.90 0.5841
412.00 0.5846
412.10 0.5851
412.20 0.5856
412.30 0.5861
412.40 0.5866
412.50 0.5871
412.60 0.5876
412.70 0.588
412.80 0.5885
412.90 0.589
413.00 0.5895
413.10 0.59
413.20 0.5906
413.30 0.5911
413.40 0.5916
413.50 0.5921
413.60 0.5925
413.70 0.593
413.80 0.5935
413.90 0.594
414.00 0.5946
414.10 0.595
414.20 0.5955
414.30 0.596
414.40 0.5965
414.50 0.597
414.60 0.5975
414.70 0.598
414.80 0.5985
414.90 0.599
415.00 0.5995
415.10 0.6
415.20 0.6005
415.30 0.601
415.40 0.6015
415.50 0.602
415.60 0.6025
415.70 0.603
415.80 0.6035
415.90 0.604
416.00 0.6045
416.10 0.605
416.20 0.6055
416.30 0.606
416.40 0.6065
416.50 0.607
416.60 0.6075
416.70 0.608
416.80 0.6085
416.90 0.609
417.00 0.6095
417.10 0.61
417.20 0.6105
417.30 0.611
417.40 0.6115
417.50 0.612
417.60 0.6125
417.70 0.613
417.80 0.6135
417.90 0.614
418.00 0.6145
418.10 0.615
418.20 0.6155
418.30 0.616
418.40 0.6165
418.50 0.617
418.60 0.6175
418.70 0.618
418.80 0.6185
418.90 0.619
419.00 0.6195
419.10 0.62
419.20 0.6205
419.30 0.621
419.40 0.6215
419.50 0.622
419.60 0.6225
419.70 0.623
419.80 0.6235
419.90 0.624
420.00 0.6245
420.10 0.625
420.20 0.6255
420.30 0.626
420.40 0.6265
420.50 0.627
420.60 0.6275
420.70 0.628
420.80 0.6285
420.90 0.629
421.00 0.6295
421.10 0.63
421.20 0.6305
421.30 0.631
421.40 0.6315
421.50 0.632
421.60 0.6325
421.70 0.633
421.80 0.6335
421.90 0.634
422.00 0.6345
422.10 0.635
422.20 0.6355
422.30 0.636
422.40 0.6365
422.50 0.637
422.60 0.6375
422.70 0.638
422.80 0.6385
422.90 0.639
423.00 0.6395
423.10 0.64
423.20 0.6405
423.30 0.641
423.40 0.6415
423.50 0.642
423.60 0.6425
423.70 0.643
423.80 0.6435
423.90 0.644
424.00 0.6445
424.10 0.645
424.20 0.6455
424.30 0.646
424.40 0.6465
424.50 0.647
424.60 0.6475
424.70 0.648
424.80 0.6485
424.90 0.649
425.00 0.6495
425.10 0.65
425.20 0.6505
425.30 0.651
425.40 0.6515
425.50 0.652
425.60 0.6525
425.70 0.6529
425.80 0.6535
425.90 0.654
426.00 0.6545
426.10 0.655
426.20 0.6555
426.30 0.656
426.40 0.6565
426.50 0.657
426.60 0.6575
426.70 0.658
426.80 0.6584
426.90 0.6589
427.00 0.6594
427.10 0.6599
427.20 0.6604
427.30 0.6609
427.40 0.6614
427.50 0.6619
427.60 0.6624
427.70 0.6629
427.80 0.6634
427.90 0.6639
428.00 0.6644
428.10 0.6649
428.20 0.6654
428.30 0.6659
428.40 0.6664
428.50 0.6669
428.60 0.6674
428.70 0.6679
428.80 0.6684
428.90 0.6689
429.00 0.6694
429.10 0.6699
429.20 0.6704
429.30 0.6709
429.40 0.6714
429.50 0.6719
429.60 0.6724
429.70 0.6729
429.80 0.6734
429.90 0.6739
430.00 0.6744
430.10 0.6749
430.20 0.6754
430.30 0.6759
430.40 0.6764
430.50 0.6769
430.60 0.6774
430.70 0.6779
430.80 0.6784
430.90 0.6789
431.00 0.6794
431.10 0.6798
431.20 0.6803
431.30 0.6808
431.40 0.6813
431.50 0.6818
431.60 0.6823
431.70 0.6828
431.80 0.6833
431.90 0.6838
432.00 0.6843
432.10 0.6848
432.20 0.6853
432.30 0.6858
432.40 0.6863
432.50 0.6868
432.60 0.6873
432.70 0.6878
432.80 0.6883
432.90 0.6888
433.00 0.6893
433.10 0.6898
433.20 0.6903
433.30 0.6908
433.40 0.6913
433.50 0.6918
433.60 0.6923
433.70 0.6928
433.80 0.6933
433.90 0.6937
434.00 0.6942
434.10 0.6947
434.20 0.6952
434.30 0.6957
434.40 0.6962
434.50 0.6967
434.60 0.6972
434.70 0.6977
434.80 0.6982
434.90 0.6987
435.00 0.6992
435.10 0.6997
435.20 0.7002
435.30 0.7007
435.40 0.7012
435.50 0.7017
435.60 0.7022
435.70 0.7027
435.80 0.7032
435.90 0.7037
436.00 0.7041
436.10 0.7046
436.20 0.7051
436.30 0.7056
436.40 0.7061
436.50 0.7066
436.60 0.7071
436.70 0.7076
436.80 0.7081
436.90 0.7086
437.00 0.7091
437.10 0.7096
437.20 0.7101
437.30 0.7106
437.40 0.7111
437.50 0.7116
437.60 0.7121
437.70 0.7125
437.80 0.713
437.90 0.7135
438.00 0.714
438.10 0.7145
438.20 0.715
438.30 0.7155
438.40 0.716
438.50 0.7165
438.60 0.717
438.70 0.7175
438.80 0.718
438.90 0.7185
439.00 0.719
439.10 0.7195
439.20 0.72
439.30 0.7204
439.40 0.7209
439.50 0.7214
439.60 0.7219
439.70 0.7224
439.80 0.7229
439.90 0.7234
440.00 0.7239
440.10 0.7244
440.20 0.7249
440.30 0.7254
440.40 0.7259
440.50 0.7264
440.60 0.7269
440.70 0.7273
440.80 0.7278
440.90 0.7283
441.00 0.7288
441.10 0.7293
441.20 0.7298
441.30 0.7303
441.40 0.7308
441.50 0.7313
441.60 0.7318
441.70 0.7323
441.80 0.7328
441.90 0.7332
442.00 0.7337
442.10 0.7342
442.20 0.7347
442.30 0.7352
442.40 0.7357
442.50 0.7362
442.60 0.7367
442.70 0.7372
442.80 0.7377
442.90 0.7382
443.00 0.7387
443.10 0.7391
443.20 0.7396
443.30 0.7401
443.40 0.7406
443.50 0.7411
443.60 0.7416
443.70 0.7421
443.80 0.7426
443.90 0.7431
444.00 0.7436
444.10 0.7441
444.20 0.7445
444.30 0.745
444.40 0.7455
444.50 0.746
444.60 0.7465
444.70 0.747
444.80 0.7475
444.90 0.748
445.00 0.7485
445.10 0.7489
445.20 0.7494
445.30 0.7499
445.40 0.7504
445.50 0.7509
445.60 0.7514
445.70 0.7519
445.80 0.7524
445.90 0.7528
446.00 0.7533
446.10 0.7538
446.20 0.7543
446.30 0.7548
446.40 0.7553
446.50 0.7558
446.60 0.7563
446.70 0.7568
446.80 0.7572
446.90 0.7577
447.00 0.7582
447.10 0.7587
447.20 0.7592
447.30 0.7597
447.40 0.7602
447.50 0.7607
447.60 0.7611
447.70 0.7616
447.80 0.7621
447.90 0.7626
448.00 0.7631
448.10 0.7636
448.20 0.7641
448.30 0.7645
448.40 0.765
448.50 0.7655
448.60 0.766
448.70 0.7665
448.80 0.767
448.90 0.7675
449.00 0.768
449.10 0.7684
449.20 0.7689
449.30 0.7694
449.40 0.7699
449.50 0.7704
449.60 0.7709
449.70 0.7714
449.80 0.7718
449.90 0.7723
450.00 0.7728
450.10 0.7733
450.20 0.7738
450.30 0.7743
450.40 0.7747
450.50 0.7752
450.60 0.7757
450.70 0.7762
450.80 0.7767
450.90 0.7772
451.00 0.7776
451.10 0.7781
451.20 0.7786
451.30 0.7791
451.40 0.7796
451.50 0.7801
451.60 0.7806
451.70 0.781
451.80 0.7815
451.90 0.782
452.00 0.7825
452.10 0.783
452.20 0.7834
452.30 0.7839
452.40 0.7844
452.50 0.7849
452.60 0.7854
452.70 0.7859
452.80 0.7864
452.90 0.7868
453.00 0.7873
453.10 0.7878
453.20 0.7883
453.30 0.7888
453.40 0.7893
453.50 0.7897
453.60 0.7902
453.70 0.7907
453.80 0.7912
453.90 0.7917
454.00 0.7921
454.10 0.7926
454.20 0.7931
454.30 0.7936
454.40 0.7941
454.50 0.7945
454.60 0.795
454.70 0.7955
454.80 0.796
454.90 0.7965
455.00 0.7969
455.10 0.7974
455.20 0.7979
455.30 0.7984
455.40 0.7989
455.50 0.7994
455.60 0.7998
455.70 0.8003
455.80 0.8008
455.90 0.8013
456.00 0.8018
456.10 0.8022
456.20 0.8027
456.30 0.8032
456.40 0.8037
456.50 0.8041
456.60 0.8046
456.70 0.8051
456.80 0.8056
456.90 0.8061
457.00 0.8065
457.10 0.807
457.20 0.8075
457.30 0.808
457.40 0.8084
457.50 0.8089
457.60 0.8094
457.70 0.8099
457.80 0.8104
457.90 0.8108
458.00 0.8113
458.10 0.8118
458.20 0.8123
458.30 0.8127
458.40 0.8132
458.50 0.8137
458.60 0.8142
458.70 0.8147
458.80 0.8151
458.90 0.8156
459.00 0.8161
459.10 0.8166
459.20 0.817
459.30 0.8175
459.40 0.818
459.50 0.8185
459.60 0.8189
459.70 0.8194
459.80 0.8199
459.90 0.8203
460.00 0.8208
460.10 0.8213
460.20 0.8218
460.30 0.8223
460.40 0.8227
460.50 0.8232
460.60 0.8237
460.70 0.8242
460.80 0.8246
460.90 0.8251
461.00 0.8256
461.10 0.8261
461.20 0.8265
461.30 0.827
461.40 0.8275
461.50 0.8279
461.60 0.8284
461.70 0.8289
461.80 0.8294
461.90 0.8298
462.00 0.8303
462.10 0.8308
462.20 0.8312
462.30 0.8317
462.40 0.8322
462.50 0.8327
462.60 0.8331
462.70 0.8336
462.80 0.8341
462.90 0.8346
463.00 0.835
463.10 0.8355
463.20 0.836
463.30 0.8365
463.40 0.8369
463.50 0.8374
463.60 0.8379
463.70 0.8383
463.80 0.8388
463.90 0.8393
464.00 0.8397
464.10 0.8402
464.20 0.8407
464.30 0.8412
464.40 0.8416
464.50 0.8421
464.60 0.8426
464.70 0.843
464.80 0.8435
464.90 0.844
465.00 0.8444
465.10 0.8449
465.20 0.8454
465.30 0.8459
465.40 0.8463
465.50 0.8468
465.60 0.8473
465.70 0.8477
465.80 0.8482
465.90 0.8487
466.00 0.8491
466.10 0.8496
466.20 0.8501
466.30 0.8505
466.40 0.851
466.50 0.8515
466.60 0.8519
466.70 0.8524
466.80 0.8529
466.90 0.8533
467.00 0.8538
467.10 0.8543
467.20 0.8547
467.30 0.8552
467.40 0.8557
467.50 0.8561
467.60 0.8566
467.70 0.8571
467.80 0.8575
467.90 0.858
468.00 0.8585
468.10 0.8589
468.20 0.8594
468.30 0.8599
468.40 0.8603
468.50 0.8608
468.60 0.8613
468.70 0.8617
468.80 0.8622
468.90 0.8626
469.00 0.8631
469.10 0.8636
469.20 0.864
469.30 0.8645
469.40 0.865
469.50 0.8654
469.60 0.8659
469.70 0.8664
469.80 0.8668
469.90 0.8673
470.00 0.8677
470.10 0.8682
470.20 0.8687
470.30 0.8691
470.40 0.8696
470.50 0.8701
470.60 0.8705
470.70 0.871
470.80 0.8714
470.90 0.8719
471.00 0.8724
471.10 0.8728
471.20 0.8733
471.30 0.8738
471.40 0.8742
471.50 0.8747
471.60 0.8751
471.70 0.8756
471.80 0.8761
471.90 0.8765
472.00 0.877
472.10 0.8774
472.20 0.8779
472.30 0.8784
472.40 0.8788
472.50 0.8793
472.60 0.8797
472.70 0.8802
472.80 0.8807
472.90 0.8811
473.00 0.8816
473.10 0.882
473.20 0.8825
473.30 0.883
473.40 0.8834
473.50 0.8839
473.60 0.8843
473.70 0.8848
473.80 0.8852
473.90 0.8857
474.00 0.8862
474.10 0.8866
474.20 0.8871
474.30 0.8875
474.40 0.888
474.50 0.8884
474.60 0.8889
474.70 0.8894
474.80 0.8898
474.90 0.8903
475.00 0.8907
475.10 0.8912
475.20 0.8916
475.30 0.8921
475.40 0.8926
475.50 0.893
475.60 0.8935
475.70 0.8939
475.80 0.8944
475.90 0.8948
476.00 0.8953
476.10 0.8957
476.20 0.8962
476.30 0.8967
476.40 0.8971
476.50 0.8976
476.60 0.898
476.70 0.8985
476.80 0.8989
476.90 0.8994
477.00 0.8998
477.10 0.9003
477.20 0.9007
477.30 0.9012
477.40 0.9016
477.50 0.9021
477.60 0.9025
477.70 0.903
477.80 0.9035
477.90 0.9039
478.00 0.9044
478.10 0.9048
478.20 0.9053
478.30 0.9057
478.40 0.9062
478.50 0.9066
478.60 0.9071
478.70 0.9075
478.80 0.908
478.90 0.9084
479.00 0.9089
479.10 0.9093
479.20 0.9098
479.30 0.9102
479.40 0.9107
479.50 0.9111
479.60 0.9116
479.70 0.912
479.80 0.9125
479.90 0.9129
480.00 0.9134
480.10 0.9138
480.20 0.9143
480.30 0.9147
480.40 0.9152
480.50 0.9156
480.60 0.9161
480.70 0.9165
480.80 0.917
480.90 0.9174
481.00 0.9178
481.10 0.9183
481.20 0.9187
481.30 0.9192
481.40 0.9196
481.50 0.9201
481.60 0.9205
481.70 0.921
481.80 0.9214
481.90 0.9219
482.00 0.9223
482.10 0.9228
482.20 0.9232
482.30 0.9236
482.40 0.9241
482.50 0.9245
482.60 0.925
482.70 0.9254
482.80 0.9259
482.90 0.9263
483.00 0.9268
483.10 0.9272
483.20 0.9277
483.30 0.9281
483.40 0.9285
483.50 0.929
483.60 0.9294
483.70 0.9299
483.80 0.9303
483.90 0.9308
484.00 0.9312
484.10 0.9316
484.20 0.9321
484.30 0.9325
484.40 0.933
484.50 0.9334
484.60 0.9339
484.70 0.9343
484.80 0.9347
484.90 0.9352
485.00 0.9356
485.10 0.9361
485.20 0.9365
485.30 0.9369
485.40 0.9374
485.50 0.9378
485.60 0.9383
485.70 0.9387
485.80 0.9391
485.90 0.9396
486.00 0.94
486.10 0.9405
486.20 0.9409
486.30 0.9413
486.40 0.9418
486.50 0.9422
486.60 0.9427
486.70 0.9431
486.80 0.9435
486.90 0.944
487.00 0.9444
487.10 0.9448
487.20 0.9453
487.30 0.9457
487.40 0.9462
487.50 0.9466
487.60 0.947
487.70 0.9475
487.80 0.9479
487.90 0.9484
488.00 0.9488
488.10 0.9492
488.20 0.9497
488.30 0.9501
488.40 0.9505
488.50 0.951
488.60 0.9514
488.70 0.9518
488.80 0.9523
488.90 0.9527
489.00 0.9531
489.10 0.9536
489.20 0.954
489.30 0.9544
489.40 0.9549
489.50 0.9553
489.60 0.9558
489.70 0.9562
489.80 0.9566
489.90 0.9571
490.00 0.9575
490.10 0.9579
490.20 0.9584
490.30 0.9588
490.40 0.9592
490.50 0.9597
490.60 0.9601
490.70 0.9605
490.80 0.961
490.90 0.9614
491.00 0.9618
491.10 0.9623
491.20 0.9627
491.30 0.9631
491.40 0.9636
491.50 0.964
491.60 0.9644
491.70 0.9648
491.80 0.9653
491.90 0.9657
492.00 0.9661
492.10 0.9666
492.20 0.967
492.30 0.9674
492.40 0.9679
492.50 0.9683
492.60 0.9687
492.70 0.9691
492.80 0.9696
492.90 0.97
493.00 0.9704
493.10 0.9708
493.20 0.9713
493.30 0.9717
493.40 0.9721
493.50 0.9726
493.60 0.973
493.70 0.9734
493.80 0.9738
493.90 0.9743
494.00 0.9747
494.10 0.9751
494.20 0.9756
494.30 0.976
494.40 0.9764
494.50 0.9768
494.60 0.9773
494.70 0.9777
494.80 0.9781
494.90 0.9785
495.00 0.979
495.10 0.9794
495.20 0.9798
495.30 0.9802
495.40 0.9807
495.50 0.9811
495.60 0.9815
495.70 0.9819
495.80 0.9824
495.90 0.9828
496.00 0.9832
496.10 0.9836
496.20 0.984
496.30 0.9845
496.40 0.9849
496.50 0.9853
496.60 0.9857
496.70 0.9862
496.80 0.9866
496.90 0.987
497.00 0.9874
497.10 0.9878
497.20 0.9883
497.30 0.9887
497.40 0.9891
497.50 0.9895
497.60 0.9899
497.70 0.9904
497.80 0.9908
497.90 0.9912
498.00 0.9916
498.10 0.992
498.20 0.9925
498.30 0.9929
498.40 0.9933
498.50 0.9937
498.60 0.9941
498.70 0.9946
498.80 0.995
498.90 0.9954
499.00 0.9958
499.10 0.9962
499.20 0.9967
499.30 0.9971
499.40 0.9975
499.50 0.9979
499.60 0.9983
499.70 0.9988
499.80 0.9992
499.90 0.9996
500.00 1
500.10 1
500.20 1.001
500.30 1.001
500.40 1.002
500.50 1.002
500.60 1.002
500.70 1.003
500.80 1.003
500.90 1.004
501.00 1.004
501.10 1.005
501.20 1.005
501.30 1.005
501.40 1.006
501.50 1.006
501.60 1.007
501.70 1.007
501.80 1.007
501.90 1.008
502.00 1.008
502.10 1.009
502.20 1.009
502.30 1.01
502.40 1.01
502.50 1.01
502.60 1.011
502.70 1.011
502.80 1.012
502.90 1.012
503.00 1.012
503.10 1.013
503.20 1.013
503.30 1.014
503.40 1.014
503.50 1.014
503.60 1.015
503.70 1.015
503.80 1.016
503.90 1.016
504.00 1.017
504.10 1.017
504.20 1.017
504.30 1.018
504.40 1.018
504.50 1.019
504.60 1.019
504.70 1.019
504.80 1.02
504.90 1.02
505.00 1.021
505.10 1.021
505.20 1.021
505.30 1.022
505.40 1.022
505.50 1.023
505.60 1.023
505.70 1.023
505.80 1.024
505.90 1.024
506.00 1.025
506.10 1.025
506.20 1.025
506.30 1.026
506.40 1.026
506.50 1.027
506.60 1.027
506.70 1.027
506.80 1.028
506.90 1.028
507.00 1.029
507.10 1.029
507.20 1.03
507.30 1.03
507.40 1.03
507.50 1.031
507.60 1.031
507.70 1.032
507.80 1.032
507.90 1.032
508.00 1.033
508.10 1.033
508.20 1.034
508.30 1.034
508.40 1.034
508.50 1.035
508.60 1.035
508.70 1.036
508.80 1.036
508.90 1.036
509.00 1.037
509.10 1.037
509.20 1.038
509.30 1.038
509.40 1.038
509.50 1.039
509.60 1.039
509.70 1.04
509.80 1.04
509.90 1.04
510.00 1.041
510.10 1.041
510.20 1.042
510.30 1.042
510.40 1.042
510.50 1.043
510.60 1.043
510.70 1.044
510.80 1.044
510.90 1.044
511.00 1.045
511.10 1.045
511.20 1.045
511.30 1.046
511.40 1.046
511.50 1.047
511.60 1.047
511.70 1.047
511.80 1.048
511.90 1.048
512.00 1.049
512.10 1.049
512.20 1.049
512.30 1.05
512.40 1.05
512.50 1.051
512.60 1.051
512.70 1.051
512.80 1.052
512.90 1.052
513.00 1.053
513.10 1.053
513.20 1.053
513.30 1.054
513.40 1.054
513.50 1.055
513.60 1.055
513.70 1.055
513.80 1.056
513.90 1.056
514.00 1.057
514.10 1.057
514.20 1.057
514.30 1.058
514.40 1.058
514.50 1.058
514.60 1.059
514.70 1.059
514.80 1.06
514.90 1.06
515.00 1.06
515.10 1.061
515.20 1.061
515.30 1.062
515.40 1.062
515.50 1.062
515.60 1.063
515.70 1.063
515.80 1.064
515.90 1.064
516.00 1.064
516.10 1.065
516.20 1.065
516.30 1.065
516.40 1.066
516.50 1.066
516.60 1.067
516.70 1.067
516.80 1.067
516.90 1.068
517.00 1.068
517.10 1.069
517.20 1.069
517.30 1.069
517.40 1.07
517.50 1.07
517.60 1.07
517.70 1.071
517.80 1.071
517.90 1.072
518.00 1.072
518.10 1.072
518.20 1.073
518.30 1.073
518.40 1.074
518.50 1.074
518.60 1.074
518.70 1.075
518.80 1.075
518.90 1.075
519.00 1.076
519.10 1.076
519.20 1.077
519.30 1.077
519.40 1.077
519.50 1.078
519.60 1.078
519.70 1.078
519.80 1.079
519.90 1.079
520.00 1.08
520.10 1.08
520.20 1.08
520.30 1.081
520.40 1.081
520.50 1.081
520.60 1.082
520.70 1.082
520.80 1.083
520.90 1.083
521.00 1.083
521.10 1.084
521.20 1.084
521.30 1.085
521.40 1.085
521.50 1.085
521.60 1.086
521.70 1.086
521.80 1.086
521.90 1.087
522.00 1.087
522.10 1.088
522.20 1.088
522.30 1.088
522.40 1.089
522.50 1.089
522.60 1.089
522.70 1.09
522.80 1.09
522.90 1.091
523.00 1.091
523.10 1.091
523.20 1.092
523.30 1.092
523.40 1.092
523.50 1.093
523.60 1.093
523.70 1.094
523.80 1.094
523.90 1.094
524.00 1.095
524.10 1.095
524.20 1.095
524.30 1.096
524.40 1.096
524.50 1.096
524.60 1.097
524.70 1.097
524.80 1.098
524.90 1.098
525.00 1.098
525.10 1.099
525.20 1.099
525.30 1.099
525.40 1.1
525.50 1.1
525.60 1.101
525.70 1.101
525.80 1.101
525.90 1.102
526.00 1.102
526.10 1.102
526.20 1.103
526.30 1.103
526.40 1.103
526.50 1.104
526.60 1.104
526.70 1.105
526.80 1.105
526.90 1.105
527.00 1.106
527.10 1.106
527.20 1.106
527.30 1.107
527.40 1.107
527.50 1.107
527.60 1.108
527.70 1.108
527.80 1.109
527.90 1.109
528.00 1.109
528.10 1.11
528.20 1.11
528.30 1.11
528.40 1.111
528.50 1.111
528.60 1.111
528.70 1.112
528.80 1.112
528.90 1.113
529.00 1.113
529.10 1.113
529.20 1.114
529.30 1.114
529.40 1.114
529.50 1.115
529.60 1.115
529.70 1.115
529.80 1.116
529.90 1.116
530.00 1.117
530.10 1.117
530.20 1.117
530.30 1.118
530.40 1.118
530.50 1.118
530.60 1.119
530.70 1.119
530.80 1.119
530.90 1.12
531.00 1.12
531.10 1.12
531.20 1.121
531.30 1.121
531.40 1.122
531.50 1.122
531.60 1.122
531.70 1.123
531.80 1.123
531.90 1.123
532.00 1.124
532.10 1.124
532.20 1.124
532.30 1.125
532.40 1.125
532.50 1.125
532.60 1.126
532.70 1.126
532.80 1.127
532.90 1.127
533.00 1.127
533.10 1.128
533.20 1.128
533.30 1.128
533.40 1.129
533.50 1.129
533.60 1.129
533.70 1.13
533.80 1.13
533.90 1.13
534.00 1.131
534.10 1.131
534.20 1.131
534.30 1.132
534.40 1.132
534.50 1.132
534.60 1.133
534.70 1.133
534.80 1.134
534.90 1.134
535.00 1.134
535.10 1.135
535.20 1.135
535.30 1.135
535.40 1.136
535.50 1.136
535.60 1.136
535.70 1.137
535.80 1.137
535.90 1.137
536.00 1.138
536.10 1.138
536.20 1.138
536.30 1.139
536.40 1.139
536.50 1.139
536.60 1.14
536.70 1.14
536.80 1.14
536.90 1.141
537.00 1.141
537.10 1.142
537.20 1.142
537.30 1.142
537.40 1.143
537.50 1.143
537.60 1.143
537.70 1.144
537.80 1.144
537.90 1.144
538.00 1.145
538.10 1.145
538.20 1.145
538.30 1.146
538.40 1.146
538.50 1.146
538.60 1.147
538.70 1.147
538.80 1.147
538.90 1.148
539.00 1.148
539.10 1.148
539.20 1.149
539.30 1.149
539.40 1.149
539.50 1.15
539.60 1.15
539.70 1.15
539.80 1.151
539.90 1.151
540.00 1.151
540.10 1.152
540.20 1.152
540.30 1.152
540.40 1.153
540.50 1.153
540.60 1.153
540.70 1.154
540.80 1.154
540.90 1.154
541.00 1.155
541.10 1.155
541.20 1.155
541.30 1.156
541.40 1.156
541.50 1.157
541.60 1.157
541.70 1.157
541.80 1.158
541.90 1.158
542.00 1.158
542.10 1.159
542.20 1.159
542.30 1.159
542.40 1.16
542.50 1.16
542.60 1.16
542.70 1.161
542.80 1.161
542.90 1.161
543.00 1.162
543.10 1.162
543.20 1.162
543.30 1.163
543.40 1.163
543.50 1.163
543.60 1.164
543.70 1.164
543.80 1.164
543.90 1.165
544.00 1.165
544.10 1.165
544.20 1.165
544.30 1.166
544.40 1.166
544.50 1.166
544.60 1.167
544.70 1.167
544.80 1.167
544.90 1.168
545.00 1.168
545.10 1.168
545.20 1.169
545.30 1.169
545.40 1.169
545.50 1.17
545.60 1.17
545.70 1.17
545.80 1.171
545.90 1.171
546.00 1.171
546.10 1.172
546.20 1.172
546.30 1.172
546.40 1.173
546.50 1.173
546.60 1.173
546.70 1.174
546.80 1.174
546.90 1.174
547.00 1.175
547.10 1.175
547.20 1.175
547.30 1.176
547.40 1.176
547.50 1.176
547.60 1.177
547.70 1.177
547.80 1.177
547.90 1.178
548.00 1.178
548.10 1.178
548.20 1.179
548.30 1.179
548.40 1.179
548.50 1.179
548.60 1.18
548.70 1.18
548.80 1.18
548.90 1.181
549.00 1.181
549.10 1.181
549.20 1.182
549.30 1.182
549.40 1.182
549.50 1.183
549.60 1.183
549.70 1.183
549.80 1.184
549.90 1.184
550.00 1.184
550.10 1.185
550.20 1.185
550.30 1.185
550.40 1.186
550.50 1.186
550.60 1.186
550.70 1.187
550.80 1.187
550.90 1.187
551.00 1.187
551.10 1.188
551.20 1.188
551.30 1.188
551.40 1.189
551.50 1.189
551.60 1.189
551.70 1.19
551.80 1.19
551.90 1.19
552.00 1.191
552.10 1.191
552.20 1.191
552.30 1.192
552.40 1.192
552.50 1.192
552.60 1.193
552.70 1.193
552.80 1.193
552.90 1.193
553.00 1.194
553.10 1.194
553.20 1.194
553.30 1.195
553.40 1.195
553.50 1.195
553.60 1.196
553.70 1.196
553.80 1.196
553.90 1.197
554.00 1.197
554.10 1.197
554.20 1.197
554.30 1.198
554.40 1.198
554.50 1.198
554.60 1.199
554.70 1.199
554.80 1.199
554.90 1.2
555.00 1.2
555.10 1.2
555.20 1.201
555.30 1.201
555.40 1.201
555.50 1.201
555.60 1.202
555.70 1.202
555.80 1.202
555.90 1.203
556.00 1.203
556.10 1.203
556.20 1.204
556.30 1.204
556.40 1.204
556.50 1.205
556.60 1.205
556.70 1.205
556.80 1.205
556.90 1.206
557.00 1.206
557.10 1.206
557.20 1.207
557.30 1.207
557.40 1.207
557.50 1.208
557.60 1.208
557.70 1.208
557.80 1.208
557.90 1.209
558.00 1.209
558.10 1.209
558.20 1.21
558.30 1.21
558.40 1.21
558.50 1.211
558.60 1.211
558.70 1.211
558.80 1.211
558.90 1.212
559.00 1.212
559.10 1.212
559.20 1.213
559.30 1.213
559.40 1.213
559.50 1.214
559.60 1.214
559.70 1.214
559.80 1.214
559.90 1.215
560.00 1.215
560.10 1.215
560.20 1.216
560.30 1.216
560.40 1.216
560.50 1.217
560.60 1.217
560.70 1.217
560.80 1.217
560.90 1.218
561.00 1.218
561.10 1.218
561.20 1.219
561.30 1.219
561.40 1.219
561.50 1.219
561.60 1.22
561.70 1.22
561.80 1.22
561.90 1.221
562.00 1.221
562.10 1.221
562.20 1.222
562.30 1.222
562.40 1.222
562.50 1.222
562.60 1.223
562.70 1.223
562.80 1.223
562.90 1.224
563.00 1.224
563.10 1.224
563.20 1.224
563.30 1.225
563.40 1.225
563.50 1.225
563.60 1.226
563.70 1.226
563.80 1.226
563.90 1.226
564.00 1.227
564.10 1.227
564.20 1.227
564.30 1.228
564.40 1.228
564.50 1.228
564.60 1.229
564.70 1.229
564.80 1.229
564.90 1.229
565.00 1.23
565.10 1.23
565.20 1.23
565.30 1.231
565.40 1.231
565.50 1.231
565.60 1.231
565.70 1.232
565.80 1.232
565.90 1.232
566.00 1.233
566.10 1.233
566.20 1.233
566.30 1.233
566.40 1.234
566.50 1.234
566.60 1.234
566.70 1.234
566.80 1.235
566.90 1.235
567.00 1.235
567.10 1.236
567.20 1.236
567.30 1.236
567.40 1.236
567.50 1.237
567.60 1.237
567.70 1.237
567.80 1.238
567.90 1.238
568.00 1.238
568.10 1.238
568.20 1.239
568.30 1.239
568.40 1.239
568.50 1.24
568.60 1.24
568.70 1.24
568.80 1.24
568.90 1.241
569.00 1.241
569.10 1.241
569.20 1.241
569.30 1.242
569.40 1.242
569.50 1.242
569.60 1.243
569.70 1.243
569.80 1.243
569.90 1.243
570.00 1.244
570.10 1.244
570.20 1.244
570.30 1.245
570.40 1.245
570.50 1.245
570.60 1.245
570.70 1.246
570.80 1.246
570.90 1.246
571.00 1.246
571.10 1.247
571.20 1.247
571.30 1.247
571.40 1.248
571.50 1.248
571.60 1.248
571.70 1.248
571.80 1.249
571.90 1.249
572.00 1.249
572.10 1.249
572.20 1.25
572.30 1.25
572.40 1.25
572.50 1.251
572.60 1.251
572.70 1.251
572.80 1.251
572.90 1.252
573.00 1.252
573.10 1.252
573.20 1.252
573.30 1.253
573.40 1.253
573.50 1.253
573.60 1.254
573.70 1.254
573.80 1.254
573.90 1.254
574.00 1.255
574.10 1.255
574.20 1.255
574.30 1.255
574.40 1.256
574.50 1.256
574.60 1.256
574.70 1.256
574.80 1.257
574.90 1.257
575.00 1.257
575.10 1.258
575.20 1.258
575.30 1.258
575.40 1.258
575.50 1.259
575.60 1.259
575.70 1.259
575.80 1.259
575.90 1.26
576.00 1.26
576.10 1.26
576.20 1.26
576.30 1.261
576.40 1.261
576.50 1.261
576.60 1.261
576.70 1.262
576.80 1.262
576.90 1.262
577.00 1.263
577.10 1.263
577.20 1.263
577.30 1.263
577.40 1.264
577.50 1.264
577.60 1.264
577.70 1.264
577.80 1.265
577.90 1.265
578.00 1.265
578.10 1.265
578.20 1.266
578.30 1.266
578.40 1.266
578.50 1.266
578.60 1.267
578.70 1.267
578.80 1.267
578.90 1.267
579.00 1.268
579.10 1.268
579.20 1.268
579.30 1.268
579.40 1.269
579.50 1.269
579.60 1.269
579.70 1.269
579.80 1.27
579.90 1.27
580.00 1.27
580.10 1.27
580.20 1.271
580.30 1.271
580.40 1.271
580.50 1.272
580.60 1.272
580.70 1.272
580.80 1.272
580.90 1.273
581.00 1.273
581.10 1.273
581.20 1.273
581.30 1.274
581.40 1.274
581.50 1.274
581.60 1.274
581.70 1.275
581.80 1.275
581.90 1.275
582.00 1.275
582.10 1.276
582.20 1.276
582.30 1.276
582.40 1.276
582.50 1.277
582.60 1.277
582.70 1.277
582.80 1.277
582.90 1.278
583.00 1.278
583.10 1.278
583.20 1.278
583.30 1.279
583.40 1.279
583.50 1.279
583.60 1.279
583.70 1.28
583.80 1.28
583.90 1.28
584.00 1.28
584.10 1.281
584.20 1.281
584.30 1.281
584.40 1.281
584.50 1.282
584.60 1.282
584.70 1.282
584.80 1.282
584.90 1.282
585.00 1.283
585.10 1.283
585.20 1.283
585.30 1.283
585.40 1.284
585.50 1.284
585.60 1.284
585.70 1.284
585.80 1.285
585.90 1.285
586.00 1.285
586.10 1.285
586.20 1.286
586.30 1.286
586.40 1.286
586.50 1.286
586.60 1.287
586.70 1.287
586.80 1.287
586.90 1.287
587.00 1.288
587.10 1.288
587.20 1.288
587.30 1.288
587.40 1.289
587.50 1.289
587.60 1.289
587.70 1.289
587.80 1.289
587.90 1.29
588.00 1.29
588.10 1.29
588.20 1.29
588.30 1.291
588.40 1.291
588.50 1.291
588.60 1.291
588.70 1.292
588.80 1.292
588.90 1.292
589.00 1.292
589.10 1.293
589.20 1.293
589.30 1.293
589.40 1.293
589.50 1.293
589.60 1.294
589.70 1.294
589.80 1.294
589.90 1.294
590.00 1.295
590.10 1.295
590.20 1.295
590.30 1.295
590.40 1.296
590.50 1.296
590.60 1.296
590.70 1.296
590.80 1.297
590.90 1.297
591.00 1.297
591.10 1.297
591.20 1.297
591.30 1.298
591.40 1.298
591.50 1.298
591.60 1.298
591.70 1.299
591.80 1.299
591.90 1.299
592.00 1.299
592.10 1.3
592.20 1.3
592.30 1.3
592.40 1.3
592.50 1.3
592.60 1.301
592.70 1.301
592.80 1.301
592.90 1.301
593.00 1.302
593.10 1.302
593.20 1.302
593.30 1.302
593.40 1.302
593.50 1.303
593.60 1.303
593.70 1.303
593.80 1.303
593.90 1.304
594.00 1.304
594.10 1.304
594.20 1.304
594.30 1.305
594.40 1.305
594.50 1.305
594.60 1.305
594.70 1.305
594.80 1.306
594.90 1.306
595.00 1.306
595.10 1.306
595.20 1.307
595.30 1.307
595.40 1.307
595.50 1.307
595.60 1.307
595.70 1.308
595.80 1.308
595.90 1.308
596.00 1.308
596.10 1.309
596.20 1.309
596.30 1.309
596.40 1.309
596.50 1.309
596.60 1.31
596.70 1.31
596.80 1.31
596.90 1.31
597.00 1.311
597.10 1.311
597.20 1.311
597.30 1.311
597.40 1.311
597.50 1.312
597.60 1.312
597.70 1.312
597.80 1.312
597.90 1.312
598.00 1.313
598.10 1.313
598.20 1.313
598.30 1.313
598.40 1.314
598.50 1.314
598.60 1.314
598.70 1.314
598.80 1.314
598.90 1.315
599.00 1.315
599.10 1.315
599.20 1.315
599.30 1.315
599.40 1.316
599.50 1.316
599.60 1.316
599.70 1.316
599.80 1.317
599.90 1.317
600.00 1.317
600.10 1.317
600.20 1.317
600.30 1.318
600.40 1.318
600.50 1.318
600.60 1.318
600.70 1.318
600.80 1.319
600.90 1.319
601.00 1.319
601.10 1.319
601.20 1.32
601.30 1.32
601.40 1.32
601.50 1.32
601.60 1.32
601.70 1.321
601.80 1.321
601.90 1.321
602.00 1.321
602.10 1.321
602.20 1.322
602.30 1.322
602.40 1.322
602.50 1.322
602.60 1.322
602.70 1.323
602.80 1.323
602.90 1.323
603.00 1.323
603.10 1.323
603.20 1.324
603.30 1.324
603.40 1.324
603.50 1.324
603.60 1.325
603.70 1.325
603.80 1.325
603.90 1.325
604.00 1.325
604.10 1.326
604.20 1.326
604.30 1.326
604.40 1.326
604.50 1.326
604.60 1.327
604.70 1.327
604.80 1.327
604.90 1.327
605.00 1.327
605.10 1.328
605.20 1.328
605.30 1.328
605.40 1.328
605.50 1.328
605.60 1.329
605.70 1.329
605.80 1.329
605.90 1.329
606.00 1.329
606.10 1.33
606.20 1.33
606.30 1.33
606.40 1.33
606.50 1.33
606.60 1.331
606.70 1.331
606.80 1.331
606.90 1.331
607.00 1.331
607.10 1.332
607.20 1.332
607.30 1.332
607.40 1.332
607.50 1.332
607.60 1.333
607.70 1.333
607.80 1.333
607.90 1.333
608.00 1.333
608.10 1.334
608.20 1.334
608.30 1.334
608.40 1.334
608.50 1.334
608.60 1.335
608.70 1.335
608.80 1.335
608.90 1.335
609.00 1.335
609.10 1.336
609.20 1.336
609.30 1.336
609.40 1.336
609.50 1.336
609.60 1.336
609.70 1.337
609.80 1.337
609.90 1.337
610.00 1.337
610.10 1.337
610.20 1.338
610.30 1.338
610.40 1.338
610.50 1.338
610.60 1.338
610.70 1.339
610.80 1.339
610.90 1.339
611.00 1.339
611.10 1.339
611.20 1.34
611.30 1.34
611.40 1.34
611.50 1.34
611.60 1.34
611.70 1.34
611.80 1.341
611.90 1.341
612.00 1.341
612.10 1.341
612.20 1.341
612.30 1.342
612.40 1.342
612.50 1.342
612.60 1.342
612.70 1.342
612.80 1.342
612.90 1.343
613.00 1.343
613.10 1.343
613.20 1.343
613.30 1.343
613.40 1.344
613.50 1.344
613.60 1.344
613.70 1.344
613.80 1.344
613.90 1.345
614.00 1.345
614.10 1.345
614.20 1.345
614.30 1.345
614.40 1.345
614.50 1.346
614.60 1.346
614.70 1.346
614.80 1.346
614.90 1.346
615.00 1.347
615.10 1.347
615.20 1.347
615.30 1.347
615.40 1.347
615.50 1.347
615.60 1.348
615.70 1.348
615.80 1.348
615.90 1.348
616.00 1.348
616.10 1.349
616.20 1.349
616.30 1.349
616.40 1.349
616.50 1.349
616.60 1.349
616.70 1.35
616.80 1.35
616.90 1.35
617.00 1.35
617.10 1.35
617.20 1.351
617.30 1.351
617.40 1.351
617.50 1.351
617.60 1.351
617.70 1.351
617.80 1.352
617.90 1.352
618.00 1.352
618.10 1.352
618.20 1.352
618.30 1.352
618.40 1.353
618.50 1.353
618.60 1.353
618.70 1.353
618.80 1.353
618.90 1.354
619.00 1.354
619.10 1.354
619.20 1.354
619.30 1.354
619.40 1.354
619.50 1.355
619.60 1.355
619.70 1.355
619.80 1.355
619.90 1.355
620.00 1.355
620.10 1.356
620.20 1.356
620.30 1.356
620.40 1.356
620.50 1.356
620.60 1.356
620.70 1.357
620.80 1.357
620.90 1.357
621.00 1.357
621.10 1.357
621.20 1.357
621.30 1.358
621.40 1.358
621.50 1.358
621.60 1.358
621.70 1.358
621.80 1.358
621.90 1.359
622.00 1.359
622.10 1.359
622.20 1.359
622.30 1.359
622.40 1.359
622.50 1.36
622.60 1.36
622.70 1.36
622.80 1.36
622.90 1.36
623.00 1.36
623.10 1.361
623.20 1.361
623.30 1.361
623.40 1.361
623.50 1.361
623.60 1.361
623.70 1.362
623.80 1.362
623.90 1.362
624.00 1.362
624.10 1.362
624.20 1.362
624.30 1.363
624.40 1.363
624.50 1.363
624.60 1.363
624.70 1.363
624.80 1.363
624.90 1.364
625.00 1.364
625.10 1.364
625.20 1.364
625.30 1.364
625.40 1.364
625.50 1.364
625.60 1.365
625.70 1.365
625.80 1.365
625.90 1.365
626.00 1.365
626.10 1.365
626.20 1.366
626.30 1.366
626.40 1.366
626.50 1.366
626.60 1.366
626.70 1.366
626.80 1.367
626.90 1.367
627.00 1.367
627.10 1.367
627.20 1.367
627.30 1.367
627.40 1.368
627.50 1.368
627.60 1.368
627.70 1.368
627.80 1.368
627.90 1.368
628.00 1.368
628.10 1.369
628.20 1.369
628.30 1.369
628.40 1.369
628.50 1.369
628.60 1.369
628.70 1.369
628.80 1.37
628.90 1.37
629.00 1.37
629.10 1.37
629.20 1.37
629.30 1.37
629.40 1.371
629.50 1.371
629.60 1.371
629.70 1.371
629.80 1.371
629.90 1.371
630.00 1.372
630.10 1.372
630.20 1.372
630.30 1.372
630.40 1.372
630.50 1.372
630.60 1.372
630.70 1.373
630.80 1.373
630.90 1.373
631.00 1.373
631.10 1.373
631.20 1.373
631.30 1.373
631.40 1.374
631.50 1.374
631.60 1.374
631.70 1.374
631.80 1.374
631.90 1.374
632.00 1.374
632.10 1.375
632.20 1.375
632.30 1.375
632.40 1.375
632.50 1.375
632.60 1.375
632.70 1.376
632.80 1.376
632.90 1.376
633.00 1.376
633.10 1.376
633.20 1.376
633.30 1.376
633.40 1.376
633.50 1.377
633.60 1.377
633.70 1.377
633.80 1.377
633.90 1.377
634.00 1.377
634.10 1.377
634.20 1.378
634.30 1.378
634.40 1.378
634.50 1.378
634.60 1.378
634.70 1.378
634.80 1.378
634.90 1.379
635.00 1.379
635.10 1.379
635.20 1.379
635.30 1.379
635.40 1.379
635.50 1.379
635.60 1.38
635.70 1.38
635.80 1.38
635.90 1.38
636.00 1.38
636.10 1.38
636.20 1.38
636.30 1.381
636.40 1.381
636.50 1.381
636.60 1.381
636.70 1.381
636.80 1.381
636.90 1.381
637.00 1.382
637.10 1.382
637.20 1.382
637.30 1.382
637.40 1.382
637.50 1.382
637.60 1.382
637.70 1.383
637.80 1.383
637.90 1.383
638.00 1.383
638.10 1.383
638.20 1.383
638.30 1.383
638.40 1.383
638.50 1.384
638.60 1.384
638.70 1.384
638.80 1.384
638.90 1.384
639.00 1.384
639.10 1.384
639.20 1.384
639.30 1.385
639.40 1.385
639.50 1.385
639.60 1.385
639.70 1.385
639.80 1.385
639.90 1.385
640.00 1.386
640.10 1.386
640.20 1.386
640.30 1.386
640.40 1.386
640.50 1.386
640.60 1.386
640.70 1.386
640.80 1.387
640.90 1.387
641.00 1.387
641.10 1.387
641.20 1.387
641.30 1.387
641.40 1.387
641.50 1.387
641.60 1.388
641.70 1.388
641.80 1.388
641.90 1.388
642.00 1.388
642.10 1.388
642.20 1.388
642.30 1.388
642.40 1.389
642.50 1.389
642.60 1.389
642.70 1.389
642.80 1.389
642.90 1.389
643.00 1.389
643.10 1.389
643.20 1.39
643.30 1.39
643.40 1.39
643.50 1.39
643.60 1.39
643.70 1.39
643.80 1.39
643.90 1.39
644.00 1.391
644.10 1.391
644.20 1.391
644.30 1.391
644.40 1.391
644.50 1.391
644.60 1.391
644.70 1.391
644.80 1.392
644.90 1.392
645.00 1.392
645.10 1.392
645.20 1.392
645.30 1.392
645.40 1.392
645.50 1.392
645.60 1.392
645.70 1.393
645.80 1.393
645.90 1.393
646.00 1.393
646.10 1.393
646.20 1.393
646.30 1.393
646.40 1.393
646.50 1.394
646.60 1.394
646.70 1.394
646.80 1.394
646.90 1.394
647.00 1.394
647.10 1.394
647.20 1.394
647.30 1.395
647.40 1.395
647.50 1.395
647.60 1.395
647.70 1.395
647.80 1.395
647.90 1.395
648.00 1.395
648.10 1.395
648.20 1.396
648.30 1.396
648.40 1.396
648.50 1.396
648.60 1.396
648.70 1.396
648.80 1.396
648.90 1.396
649.00 1.396
649.10 1.397
649.20 1.397
649.30 1.397
649.40 1.397
649.50 1.397
649.60 1.397
649.70 1.397
649.80 1.397
649.90 1.397
650.00 1.398
650.10 1.398
650.20 1.398
650.30 1.398
650.40 1.398
650.50 1.398
650.60 1.398
650.70 1.398
650.80 1.398
650.90 1.399
651.00 1.399
651.10 1.399
651.20 1.399
651.30 1.399
651.40 1.399
651.50 1.399
651.60 1.399
651.70 1.399
651.80 1.4
651.90 1.4
652.00 1.4
652.10 1.4
652.20 1.4
652.30 1.4
652.40 1.4
652.50 1.4
652.60 1.4
652.70 1.4
652.80 1.4
652.90 1.401
653.00 1.401
653.10 1.401
653.20 1.401
653.30 1.401
653.40 1.401
653.50 1.401
653.60 1.401
653.70 1.401
653.80 1.402
653.90 1.402
654.00 1.402
654.10 1.402
654.20 1.402
654.30 1.402
654.40 1.402
654.50 1.402
654.60 1.402
654.70 1.402
654.80 1.403
654.90 1.403
655.00 1.403
655.10 1.403
655.20 1.403
655.30 1.403
655.40 1.403
655.50 1.403
655.60 1.403
655.70 1.403
655.80 1.403
655.90 1.404
656.00 1.404
656.10 1.404
656.20 1.404
656.30 1.404
656.40 1.404
656.50 1.404
656.60 1.404
656.70 1.404
656.80 1.404
656.90 1.405
657.00 1.405
657.10 1.405
657.20 1.405
657.30 1.405
657.40 1.405
657.50 1.405
657.60 1.405
657.70 1.405
657.80 1.405
657.90 1.405
658.00 1.406
658.10 1.406
658.20 1.406
658.30 1.406
658.40 1.406
658.50 1.406
658.60 1.406
658.70 1.406
658.80 1.406
658.90 1.406
659.00 1.407
659.10 1.407
659.20 1.407
659.30 1.407
659.40 1.407
659.50 1.407
659.60 1.407
659.70 1.407
659.80 1.407
659.90 1.407
660.00 1.407
660.10 1.408
660.20 1.408
660.30 1.408
660.40 1.408
660.50 1.408
660.60 1.408
660.70 1.408
660.80 1.408
660.90 1.408
661.00 1.408
661.10 1.408
661.20 1.408
661.30 1.409
661.40 1.409
661.50 1.409
661.60 1.409
661.70 1.409
661.80 1.409
661.90 1.409
662.00 1.409
662.10 1.409
662.20 1.409
662.30 1.409
662.40 1.41
662.50 1.41
662.60 1.41
662.70 1.41
662.80 1.41
662.90 1.41
663.00 1.41
663.10 1.41
663.20 1.41
663.30 1.41
663.40 1.41
663.50 1.41
663.60 1.411
663.70 1.411
663.80 1.411
663.90 1.411
664.00 1.411
664.10 1.411
664.20 1.411
664.30 1.411
664.40 1.411
664.50 1.411
664.60 1.411
664.70 1.411
664.80 1.411
664.90 1.412
665.00 1.412
665.10 1.412
665.20 1.412
665.30 1.412
665.40 1.412
665.50 1.412
665.60 1.412
665.70 1.412
665.80 1.412
665.90 1.412
666.00 1.412
666.10 1.412
666.20 1.413
666.30 1.413
666.40 1.413
666.50 1.413
666.60 1.413
666.70 1.413
666.80 1.413
666.90 1.413
667.00 1.413
667.10 1.413
667.20 1.413
667.30 1.413
667.40 1.413
667.50 1.413
667.60 1.414
667.70 1.414
667.80 1.414
667.90 1.414
668.00 1.414
668.10 1.414
668.20 1.414
668.30 1.414
668.40 1.414
668.50 1.414
668.60 1.414
668.70 1.414
668.80 1.414
668.90 1.414
669.00 1.415
669.10 1.415
669.20 1.415
669.30 1.415
669.40 1.415
669.50 1.415
669.60 1.415
669.70 1.415
669.80 1.415
669.90 1.415
670.00 1.415
670.10 1.415
670.20 1.415
670.30 1.415
670.40 1.415
670.50 1.416
670.60 1.416
670.70 1.416
670.80 1.416
670.90 1.416
671.00 1.416
671.10 1.416
671.20 1.416
671.30 1.416
671.40 1.416
671.50 1.416
671.60 1.416
671.70 1.416
671.80 1.416
671.90 1.416
672.00 1.416
672.10 1.417
672.20 1.417
672.30 1.417
672.40 1.417
672.50 1.417
672.60 1.417
672.70 1.417
672.80 1.417
672.90 1.417
673.00 1.417
673.10 1.417
673.20 1.417
673.30 1.417
673.40 1.417
673.50 1.417
673.60 1.417
673.70 1.418
673.80 1.418
673.90 1.418
674.00 1.418
674.10 1.418
674.20 1.418
674.30 1.418
674.40 1.418
674.50 1.418
674.60 1.418
674.70 1.418
674.80 1.418
674.90 1.418
675.00 1.418
675.10 1.418
675.20 1.418
675.30 1.418
675.40 1.419
675.50 1.419
675.60 1.419
675.70 1.419
675.80 1.419
675.90 1.419
676.00 1.419
676.10 1.419
676.20 1.419
676.30 1.419
676.40 1.419
676.50 1.419
676.60 1.419
676.70 1.419
676.80 1.419
676.90 1.419
677.00 1.419
677.10 1.419
677.20 1.419
677.30 1.419
677.40 1.42
677.50 1.42
677.60 1.42
677.70 1.42
677.80 1.42
677.90 1.42
678.00 1.42
678.10 1.42
678.20 1.42
678.30 1.42
678.40 1.42
678.50 1.42
678.60 1.42
678.70 1.42
678.80 1.42
678.90 1.42
679.00 1.42
679.10 1.42
679.20 1.42
679.30 1.42
679.40 1.42
679.50 1.42
679.60 1.421
679.70 1.421
679.80 1.421
679.90 1.421
680.00 1.421
680.10 1.421
680.20 1.421
680.30 1.421
680.40 1.421
680.50 1.421
680.60 1.421
680.70 1.421
680.80 1.421
680.90 1.421
681.00 1.421
681.10 1.421
681.20 1.421
681.30 1.421
681.40 1.421
681.50 1.421
681.60 1.421
681.70 1.421
681.80 1.421
681.90 1.421
682.00 1.422
682.10 1.422
682.20 1.422
682.30 1.422
682.40 1.422
682.50 1.422
682.60 1.422
682.70 1.422
682.80 1.422
682.90 1.422
683.00 1.422
683.10 1.422
683.20 1.422
683.30 1.422
683.40 1.422
683.50 1.422
683.60 1.422
683.70 1.422
683.80 1.422
683.90 1.422
684.00 1.422
684.10 1.422
684.20 1.422
684.30 1.422
684.40 1.422
684.50 1.422
684.60 1.422
684.70 1.422
684.80 1.423
684.90 1.423
685.00 1.423
685.10 1.423
685.20 1.423
685.30 1.423
685.40 1.423
685.50 1.423
685.60 1.423
685.70 1.423
685.80 1.423
685.90 1.423
686.00 1.423
686.10 1.423
686.20 1.423
686.30 1.423
686.40 1.423
686.50 1.423
686.60 1.423
686.70 1.423
686.80 1.423
686.90 1.423
687.00 1.423
687.10 1.423
687.20 1.423
687.30 1.423
687.40 1.423
687.50 1.423
687.60 1.423
687.70 1.423
687.80 1.423
687.90 1.423
688.00 1.423
688.10 1.423
688.20 1.423
688.30 1.423
688.40 1.423
688.50 1.423
688.60 1.423
688.70 1.423
688.80 1.424
688.90 1.424
689.00 1.424
689.10 1.424
689.20 1.424
689.30 1.424
689.40 1.424
689.50 1.424
689.60 1.424
689.70 1.424
689.80 1.424
689.90 1.424
690.00 1.424
690.10 1.424
690.20 1.424
690.30 1.424
690.40 1.424
690.50 1.424
690.60 1.424
690.70 1.424
690.80 1.424
690.90 1.424
691.00 1.424
691.10 1.424
691.20 1.424
691.30 1.424
691.40 1.424
691.50 1.424
691.60 1.424
691.70 1.424
691.80 1.424
691.90 1.424
692.00 1.424
692.10 1.424
692.20 1.424
692.30 1.424
692.40 1.424
692.50 1.424
692.60 1.424
692.70 1.424
692.80 1.424
692.90 1.424
693.00 1.424
693.10 1.424
693.20 1.424
693.30 1.424
693.40 1.424
693.50 1.424
693.60 1.424
693.70 1.424
693.80 1.424
693.90 1.424
694.00 1.424
694.10 1.424
694.20 1.424
694.30 1.424
694.40 1.424
694.50 1.424
694.60 1.424
694.70 1.424
694.80 1.424
694.90 1.424
695.00 1.424
695.10 1.424
695.20 1.424
695.30 1.424
695.40 1.424
695.50 1.424
695.60 1.424
695.70 1.424
695.80 1.424
695.90 1.424
696.00 1.424
696.10 1.424
696.20 1.424
696.30 1.424
696.40 1.424
696.50 1.424
696.60 1.424
696.70 1.424
696.80 1.424
696.90 1.424
697.00 1.424
697.10 1.424
697.20 1.424
697.30 1.424
697.40 1.424
697.50 1.424
697.60 1.424
697.70 1.424
697.80 1.424
697.90 1.424
698.00 1.424
698.10 1.424
698.20 1.424
698.30 1.424
698.40 1.424
698.50 1.424
698.60 1.424
698.70 1.424
698.80 1.424
698.90 1.424
699.00 1.424
699.10 1.424
699.20 1.424
699.30 1.424
699.40 1.424
699.50 1.424
699.60 1.424
699.70 1.424
699.80 1.424
699.90 1.424
700.00 1.424
700.10 1.424
700.20 1.424
700.30 1.424
700.40 1.424
700.50 1.424
700.60 1.424
700.70 1.424
700.80 1.424
700.90 1.424
701.00 1.424
701.10 1.424
701.20 1.424
701.30 1.424
701.40 1.424
701.50 1.424
701.60 1.424
701.70 1.424
701.80 1.424
701.90 1.424
702.00 1.424
702.10 1.424
702.20 1.424
702.30 1.424
702.40 1.424
702.50 1.424
702.60 1.423
702.70 1.423
702.80 1.423
702.90 1.423
703.00 1.423
703.10 1.423
703.20 1.423
703.30 1.423
703.40 1.423
703.50 1.423
703.60 1.423
703.70 1.423
703.80 1.423
703.90 1.423
704.00 1.423
704.10 1.423
704.20 1.423
704.30 1.423
704.40 1.423
704.50 1.423
704.60 1.423
704.70 1.423
704.80 1.423
704.90 1.423
705.00 1.423
705.10 1.423
705.20 1.423
705.30 1.423
705.40 1.423
705.50 1.423
705.60 1.423
705.70 1.423
705.80 1.423
705.90 1.423
706.00 1.423
706.10 1.423
706.20 1.423
706.30 1.423
706.40 1.423
706.50 1.423
706.60 1.423
706.70 1.422
706.80 1.422
706.90 1.422
707.00 1.422
707.10 1.422
707.20 1.422
707.30 1.422
707.40 1.422
707.50 1.422
707.60 1.422
707.70 1.422
707.80 1.422
707.90 1.422
708.00 1.422
708.10 1.422
708.20 1.422
708.30 1.422
708.40 1.422
708.50 1.422
708.60 1.422
708.70 1.422
708.80 1.422
708.90 1.422
709.00 1.422
709.10 1.422
709.20 1.422
709.30 1.422
709.40 1.422
709.50 1.422
709.60 1.422
709.70 1.422
709.80 1.421
709.90 1.421
710.00 1.421
710.10 1.421
710.20 1.421
710.30 1.421
710.40 1.421
710.50 1.421
710.60 1.421
710.70 1.421
710.80 1.421
710.90 1.421
711.00 1.421
711.10 1.421
711.20 1.421
711.30 1.421
711.40 1.421
711.50 1.421
711.60 1.421
711.70 1.421
711.80 1.421
711.90 1.421
712.00 1.42
712.10 1.42
712.20 1.42
712.30 1.42
712.40 1.42
712.50 1.42
712.60 1.42
712.70 1.42
712.80 1.42
712.90 1.42
713.00 1.42
713.10 1.42
713.20 1.42
713.30 1.42
713.40 1.42
713.50 1.42
713.60 1.42
713.70 1.42
713.80 1.42
713.90 1.42
714.00 1.42
714.10 1.42
714.20 1.419
714.30 1.419
714.40 1.419
714.50 1.419
714.60 1.419
714.70 1.419
714.80 1.419
714.90 1.419
715.00 1.419
715.10 1.419
715.20 1.419
715.30 1.419
715.40 1.419
715.50 1.419
715.60 1.419
715.70 1.419
715.80 1.419
715.90 1.419
716.00 1.419
716.10 1.418
716.20 1.418
716.30 1.418
716.40 1.418
716.50 1.418
716.60 1.418
716.70 1.418
716.80 1.418
716.90 1.418
717.00 1.418
717.10 1.418
717.20 1.418
717.30 1.418
717.40 1.418
717.50 1.418
717.60 1.418
717.70 1.418
717.80 1.417
717.90 1.417
718.00 1.417
718.10 1.417
718.20 1.417
718.30 1.417
718.40 1.417
718.50 1.417
718.60 1.417
718.70 1.417
718.80 1.417
718.90 1.417
719.00 1.417
719.10 1.417
719.20 1.417
719.30 1.417
719.40 1.417
719.50 1.416
719.60 1.416
719.70 1.416
719.80 1.416
719.90 1.416
720.00 1.416
720.10 1.416
720.20 1.416
720.30 1.416
720.40 1.416
720.50 1.416
720.60 1.416
720.70 1.416
720.80 1.416
720.90 1.416
721.00 1.415
721.10 1.415
721.20 1.415
721.30 1.415
721.40 1.415
721.50 1.415
721.60 1.415
721.70 1.415
721.80 1.415
721.90 1.415
722.00 1.415
722.10 1.415
722.20 1.415
722.30 1.415
722.40 1.415
722.50 1.414
722.60 1.414
722.70 1.414
722.80 1.414
722.90 1.414
723.00 1.414
723.10 1.414
723.20 1.414
723.30 1.414
723.40 1.414
723.50 1.414
723.60 1.414
723.70 1.414
723.80 1.414
723.90 1.413
724.00 1.413
724.10 1.413
724.20 1.413
724.30 1.413
724.40 1.413
724.50 1.413
724.60 1.413
724.70 1.413
724.80 1.413
724.90 1.413
725.00 1.413
725.10 1.413
725.20 1.413
725.30 1.412
725.40 1.412
725.50 1.412
725.60 1.412
725.70 1.412
725.80 1.412
725.90 1.412
726.00 1.412
726.10 1.412
726.20 1.412
726.30 1.412
726.40 1.412
726.50 1.412
726.60 1.411
726.70 1.411
726.80 1.411
726.90 1.411
727.00 1.411
727.10 1.411
727.20 1.411
727.30 1.411
727.40 1.411
727.50 1.411
727.60 1.411
727.70 1.411
727.80 1.411
727.90 1.41
728.00 1.41
728.10 1.41
728.20 1.41
728.30 1.41
728.40 1.41
728.50 1.41
728.60 1.41
728.70 1.41
728.80 1.41
728.90 1.41
729.00 1.41
729.10 1.41
729.20 1.409
729.30 1.409
729.40 1.409
729.50 1.409
729.60 1.409
729.70 1.409
729.80 1.409
729.90 1.409
730.00 1.409
730.10 1.409
730.20 1.409
730.30 1.409
730.40 1.409
730.50 1.408
730.60 1.408
730.70 1.408
730.80 1.408
730.90 1.408
731.00 1.408
731.10 1.408
731.20 1.408
731.30 1.408
731.40 1.408
731.50 1.408
731.60 1.408
731.70 1.407
731.80 1.407
731.90 1.407
732.00 1.407
732.10 1.407
732.20 1.407
732.30 1.407
732.40 1.407
732.50 1.407
732.60 1.407
732.70 1.407
732.80 1.407
732.90 1.407
733.00 1.406
733.10 1.406
733.20 1.406
733.30 1.406
733.40 1.406
733.50 1.406
733.60 1.406
733.70 1.406
733.80 1.406
733.90 1.406
734.00 1.406
734.10 1.406
734.20 1.405
734.30 1.405
734.40 1.405
734.50 1.405
734.60 1.405
734.70 1.405
734.80 1.405
734.90 1.405
735.00 1.405
735.10 1.405
735.20 1.405
735.30 1.405
735.40 1.404
735.50 1.404
735.60 1.404
735.70 1.404
735.80 1.404
735.90 1.404
736.00 1.404
736.10 1.404
736.20 1.404
736.30 1.404
736.40 1.404
736.50 1.404
736.60 1.404
736.70 1.403
736.80 1.403
736.90 1.403
737.00 1.403
737.10 1.403
737.20 1.403
737.30 1.403
737.40 1.403
737.50 1.403
737.60 1.403
737.70 1.403
737.80 1.403
737.90 1.402
738.00 1.402
738.10 1.402
738.20 1.402
738.30 1.402
738.40 1.402
738.50 1.402
738.60 1.402
738.70 1.402
738.80 1.402
738.90 1.402
739.00 1.402
739.10 1.402
739.20 1.401
739.30 1.401
739.40 1.401
739.50 1.401
739.60 1.401
739.70 1.401
739.80 1.401
739.90 1.401
740.00 1.401
740.10 1.401
740.20 1.401
740.30 1.401
740.40 1.4
740.50 1.4
740.60 1.4
740.70 1.4
740.80 1.4
740.90 1.4
741.00 1.4
741.10 1.4
741.20 1.4
741.30 1.4
741.40 1.4
741.50 1.4
741.60 1.399
741.70 1.399
741.80 1.399
741.90 1.399
742.00 1.399
742.10 1.399
742.20 1.399
742.30 1.399
742.40 1.399
742.50 1.399
742.60 1.399
742.70 1.399
742.80 1.398
742.90 1.398
743.00 1.398
743.10 1.398
743.20 1.398
743.30 1.398
743.40 1.398
743.50 1.398
743.60 1.398
743.70 1.398
743.80 1.398
743.90 1.398
744.00 1.398
744.10 1.397
744.20 1.397
744.30 1.397
744.40 1.397
744.50 1.397
744.60 1.397
744.70 1.397
744.80 1.397
744.90 1.397
745.00 1.397
745.10 1.397
745.20 1.397
745.30 1.396
745.40 1.396
745.50 1.396
745.60 1.396
745.70 1.396
745.80 1.396
745.90 1.396
746.00 1.396
746.10 1.396
746.20 1.396
746.30 1.396
746.40 1.396
746.50 1.395
746.60 1.395
746.70 1.395
746.80 1.395
746.90 1.395
747.00 1.395
747.10 1.395
747.20 1.395
747.30 1.395
747.40 1.395
747.50 1.395
747.60 1.395
747.70 1.394
747.80 1.394
747.90 1.394
748.00 1.394
748.10 1.394
748.20 1.394
748.30 1.394
748.40 1.394
748.50 1.394
748.60 1.394
748.70 1.394
748.80 1.394
748.90 1.394
749.00 1.393
749.10 1.393
749.20 1.393
749.30 1.393
749.40 1.393
749.50 1.393
749.60 1.393
749.70 1.393
749.80 1.393
749.90 1.393
750.00 1.393
750.10 1.393
750.20 1.392
750.30 1.392
750.40 1.392
750.50 1.392
750.60 1.392
750.70 1.392
750.80 1.392
750.90 1.392
751.00 1.392
751.10 1.392
751.20 1.392
751.30 1.392
751.40 1.391
751.50 1.391
751.60 1.391
751.70 1.391
751.80 1.391
751.90 1.391
752.00 1.391
752.10 1.391
752.20 1.391
752.30 1.391
752.40 1.391
752.50 1.391
752.60 1.391
752.70 1.39
752.80 1.39
752.90 1.39
753.00 1.39
753.10 1.39
753.20 1.39
753.30 1.39
753.40 1.39
753.50 1.39
753.60 1.39
753.70 1.39
753.80 1.39
753.90 1.389
754.00 1.389
754.10 1.389
754.20 1.389
754.30 1.389
754.40 1.389
754.50 1.389
754.60 1.389
754.70 1.389
754.80 1.389
754.90 1.389
755.00 1.389
755.10 1.388
755.20 1.388
755.30 1.388
755.40 1.388
755.50 1.388
755.60 1.388
755.70 1.388
755.80 1.388
755.90 1.388
756.00 1.388
756.10 1.388
756.20 1.388
756.30 1.388
756.40 1.387
756.50 1.387
756.60 1.387
756.70 1.387
756.80 1.387
756.90 1.387
757.00 1.387
757.10 1.387
757.20 1.387
757.30 1.387
757.40 1.387
757.50 1.387
757.60 1.386
757.70 1.386
757.80 1.386
757.90 1.386
758.00 1.386
758.10 1.386
758.20 1.386
758.30 1.386
758.40 1.386
758.50 1.386
758.60 1.386
758.70 1.386
758.80 1.385
758.90 1.385
759.00 1.385
759.10 1.385
759.20 1.385
759.30 1.385
759.40 1.385
759.50 1.385
759.60 1.385
759.70 1.385
759.80 1.385
759.90 1.385
760.00 1.385
760.10 1.384
760.20 1.384
760.30 1.384
760.40 1.384
760.50 1.384
760.60 1.384
760.70 1.384
760.80 1.384
760.90 1.384
761.00 1.384
761.10 1.384
761.20 1.383
761.30 1.383
761.40 1.383
761.50 1.383
761.60 1.383
761.70 1.383
761.80 1.383
761.90 1.383
762.00 1.383
762.10 1.383
762.20 1.383
762.30 1.383
762.40 1.382
762.50 1.382
762.60 1.382
762.70 1.382
762.80 1.382
762.90 1.382
763.00 1.382
763.10 1.382
763.20 1.382
763.30 1.382
763.40 1.382
763.50 1.382
763.60 1.381
763.70 1.381
763.80 1.381
763.90 1.381
764.00 1.381
764.10 1.381
764.20 1.381
764.30 1.381
764.40 1.381
764.50 1.381
764.60 1.381
764.70 1.381
764.80 1.38
764.90 1.38
765.00 1.38
765.10 1.38
765.20 1.38
765.30 1.38
765.40 1.38
765.50 1.38
765.60 1.38
765.70 1.38
765.80 1.38
765.90 1.38
766.00 1.379
766.10 1.379
766.20 1.379
766.30 1.379
766.40 1.379
766.50 1.379
766.60 1.379
766.70 1.379
766.80 1.379
766.90 1.379
767.00 1.379
767.10 1.379
767.20 1.378
767.30 1.378
767.40 1.378
767.50 1.378
767.60 1.378
767.70 1.378
767.80 1.378
767.90 1.378
768.00 1.378
768.10 1.378
768.20 1.378
768.30 1.378
768.40 1.377
768.50 1.377
768.60 1.377
768.70 1.377
768.80 1.377
768.90 1.377
769.00 1.377
769.10 1.377
769.20 1.377
769.30 1.377
769.40 1.377
769.50 1.377
769.60 1.376
769.70 1.376
769.80 1.376
769.90 1.376
770.00 1.376
770.10 1.376
770.20 1.376
770.30 1.376
770.40 1.376
770.50 1.376
770.60 1.376
770.70 1.376
770.80 1.375
770.90 1.375
771.00 1.375
771.10 1.375
771.20 1.375
771.30 1.375
771.40 1.375
771.50 1.375
771.60 1.375
771.70 1.375
771.80 1.375
771.90 1.375
772.00 1.374
772.10 1.374
772.20 1.374
772.30 1.374
772.40 1.374
772.50 1.374
772.60 1.374
772.70 1.374
772.80 1.374
772.90 1.374
773.00 1.374
773.10 1.374
773.20 1.373
773.30 1.373
773.40 1.373
773.50 1.373
773.60 1.373
773.70 1.373
773.80 1.373
773.90 1.373
774.00 1.373
774.10 1.373
774.20 1.373
774.30 1.373
774.40 1.372
774.50 1.372
774.60 1.372
774.70 1.372
774.80 1.372
774.90 1.372
775.00 1.372
775.10 1.372
775.20 1.372
775.30 1.372
775.40 1.372
775.50 1.372
775.60 1.371
775.70 1.371
775.80 1.371
775.90 1.371
776.00 1.371
776.10 1.371
776.20 1.371
776.30 1.371
776.40 1.371
776.50 1.371
776.60 1.371
776.70 1.371
776.80 1.371
776.90 1.37
777.00 1.37
777.10 1.37
777.20 1.37
777.30 1.37
777.40 1.37
777.50 1.37
777.60 1.37
777.70 1.37
777.80 1.37
777.90 1.37
778.00 1.37
778.10 1.369
778.20 1.369
778.30 1.369
778.40 1.369
778.50 1.369
778.60 1.369
778.70 1.369
778.80 1.369
778.90 1.369
779.00 1.369
779.10 1.369
779.20 1.369
779.30 1.368
779.40 1.368
779.50 1.368
779.60 1.368
779.70 1.368
779.80 1.368
779.90 1.368
780.00 1.368
780.10 1.368
780.20 1.368
780.30 1.368
780.40 1.368
780.50 1.367
780.60 1.367
780.70 1.367
780.80 1.367
780.90 1.367
781.00 1.367
781.10 1.367
781.20 1.367
781.30 1.367
781.40 1.367
781.50 1.367
781.60 1.367
781.70 1.367
781.80 1.366
781.90 1.366
782.00 1.366
782.10 1.366
782.20 1.366
782.30 1.366
782.40 1.366
782.50 1.366
782.60 1.366
782.70 1.366
782.80 1.366
782.90 1.366
783.00 1.366
783.10 1.365
783.20 1.365
783.30 1.365
783.40 1.365
783.50 1.365
783.60 1.365
783.70 1.365
783.80 1.365
783.90 1.365
784.00 1.365
784.10 1.365
784.20 1.365
784.30 1.365
784.40 1.364
784.50 1.364
784.60 1.364
784.70 1.364
784.80 1.364
784.90 1.364
785.00 1.364
785.10 1.364
785.20 1.364
785.30 1.364
785.40 1.364
785.50 1.364
785.60 1.363
785.70 1.363
785.80 1.363
785.90 1.363
786.00 1.363
786.10 1.363
786.20 1.363
786.30 1.363
786.40 1.363
786.50 1.363
786.60 1.363
786.70 1.363
786.80 1.363
786.90 1.362
787.00 1.362
787.10 1.362
787.20 1.362
787.30 1.362
787.40 1.362
787.50 1.362
787.60 1.362
787.70 1.362
787.80 1.362
787.90 1.362
788.00 1.362
788.10 1.362
788.20 1.361
788.30 1.361
788.40 1.361
788.50 1.361
788.60 1.361
788.70 1.361
788.80 1.361
788.90 1.361
789.00 1.361
789.10 1.361
789.20 1.361
789.30 1.361
789.40 1.361
789.50 1.36
789.60 1.36
789.70 1.36
789.80 1.36
789.90 1.36
790.00 1.36
790.10 1.36
790.20 1.36
790.30 1.36
790.40 1.36
790.50 1.36
790.60 1.36
790.70 1.359
790.80 1.359
790.90 1.359
791.00 1.359
791.10 1.359
791.20 1.359
791.30 1.359
791.40 1.359
791.50 1.359
791.60 1.359
791.70 1.359
791.80 1.359
791.90 1.358
792.00 1.358
792.10 1.358
792.20 1.358
792.30 1.358
792.40 1.358
792.50 1.358
792.60 1.358
792.70 1.358
792.80 1.358
792.90 1.358
793.00 1.358
793.10 1.357
793.20 1.357
793.30 1.357
793.40 1.357
793.50 1.357
793.60 1.357
793.70 1.357
793.80 1.357
793.90 1.357
794.00 1.357
794.10 1.357
794.20 1.357
794.30 1.356
794.40 1.356
794.50 1.356
794.60 1.356
794.70 1.356
794.80 1.356
794.90 1.356
795.00 1.356
795.10 1.356
795.20 1.356
795.30 1.356
795.40 1.356
795.50 1.355
795.60 1.355
795.70 1.355
795.80 1.355
795.90 1.355
796.00 1.355
796.10 1.355
796.20 1.355
796.30 1.355
796.40 1.355
796.50 1.355
796.60 1.354
796.70 1.354
796.80 1.354
796.90 1.354
797.00 1.354
797.10 1.354
797.20 1.354
797.30 1.354
797.40 1.354
797.50 1.354
797.60 1.354
797.70 1.354
797.80 1.353
797.90 1.353
798.00 1.353
798.10 1.353
798.20 1.353
798.30 1.353
798.40 1.353
798.50 1.353
798.60 1.353
798.70 1.353
798.80 1.353
798.90 1.353
799.00 1.352
799.10 1.352
799.20 1.352
799.30 1.352
799.40 1.352
799.50 1.352
799.60 1.352
799.70 1.352
799.80 1.352
799.90 1.352
800.00 1.352
800.10 1.352
800.20 1.351
800.30 1.351
800.40 1.351
800.50 1.351
800.60 1.351
800.70 1.351
800.80 1.351
800.90 1.351
801.00 1.351
801.10 1.351
801.20 1.35
801.30 1.35
801.40 1.35
801.50 1.35
801.60 1.35
801.70 1.35
801.80 1.35
801.90 1.35
802.00 1.35
802.10 1.35
802.20 1.349
802.30 1.349
802.40 1.349
802.50 1.349
802.60 1.349
802.70 1.349
802.80 1.349
802.90 1.349
803.00 1.349
803.10 1.349
803.20 1.348
803.30 1.348
803.40 1.348
803.50 1.348
803.60 1.348
803.70 1.348
803.80 1.348
803.90 1.348
804.00 1.348
804.10 1.347
804.20 1.347
804.30 1.347
804.40 1.347
804.50 1.347
804.60 1.347
804.70 1.347
804.80 1.347
804.90 1.347
805.00 1.347
805.10 1.346
805.20 1.346
805.30 1.346
805.40 1.346
805.50 1.346
805.60 1.346
805.70 1.346
805.80 1.346
805.90 1.346
806.00 1.346
806.10 1.345
806.20 1.345
806.30 1.345
806.40 1.345
806.50 1.345
806.60 1.345
806.70 1.345
806.80 1.345
806.90 1.345
807.00 1.345
807.10 1.344
807.20 1.344
807.30 1.344
807.40 1.344
807.50 1.344
807.60 1.344
807.70 1.344
807.80 1.344
807.90 1.344
808.00 1.344
808.10 1.343
808.20 1.343
808.30 1.343
808.40 1.343
808.50 1.343
808.60 1.343
808.70 1.343
808.80 1.343
808.90 1.343
809.00 1.343
809.10 1.342
809.20 1.342
809.30 1.342
809.40 1.342
809.50 1.342
809.60 1.342
809.70 1.342
809.80 1.342
809.90 1.342
810.00 1.342
810.10 1.341
810.20 1.341
810.30 1.341
810.40 1.341
810.50 1.341
810.60 1.341
810.70 1.341
810.80 1.341
810.90 1.34
811.00 1.34
811.10 1.34
811.20 1.34
811.30 1.34
811.40 1.34
811.50 1.34
811.60 1.34
811.70 1.34
811.80 1.339
811.90 1.339
812.00 1.339
812.10 1.339
812.20 1.339
812.30 1.339
812.40 1.339
812.50 1.339
812.60 1.338
812.70 1.338
812.80 1.338
812.90 1.338
813.00 1.338
813.10 1.338
813.20 1.338
813.30 1.338
813.40 1.337
813.50 1.337
813.60 1.337
813.70 1.337
813.80 1.337
813.90 1.337
814.00 1.337
814.10 1.337
814.20 1.336
814.30 1.336
814.40 1.336
814.50 1.336
814.60 1.336
814.70 1.336
814.80 1.336
814.90 1.336
815.00 1.335
815.10 1.335
815.20 1.335
815.30 1.335
815.40 1.335
815.50 1.335
815.60 1.335
815.70 1.335
815.80 1.335
815.90 1.334
816.00 1.334
816.10 1.334
816.20 1.334
816.30 1.334
816.40 1.334
816.50 1.334
816.60 1.334
816.70 1.333
816.80 1.333
816.90 1.333
817.00 1.333
817.10 1.333
817.20 1.333
817.30 1.333
817.40 1.333
817.50 1.332
817.60 1.332
817.70 1.332
817.80 1.332
817.90 1.332
818.00 1.332
818.10 1.332
818.20 1.332
818.30 1.332
818.40 1.331
818.50 1.331
818.60 1.331
818.70 1.331
818.80 1.331
818.90 1.331
819.00 1.331
819.10 1.331
819.20 1.33
819.30 1.33
819.40 1.33
819.50 1.33
819.60 1.33
819.70 1.33
819.80 1.33
819.90 1.33
820.00 1.329
820.10 1.329
820.20 1.329
820.30 1.329
820.40 1.329
820.50 1.329
820.60 1.329
820.70 1.329
820.80 1.328
820.90 1.328
821.00 1.328
821.10 1.328
821.20 1.328
821.30 1.328
821.40 1.328
821.50 1.328
821.60 1.327
821.70 1.327
821.80 1.327
821.90 1.327
822.00 1.327
822.10 1.327
822.20 1.327
822.30 1.326
822.40 1.326
822.50 1.326
822.60 1.326
822.70 1.326
822.80 1.326
822.90 1.326
823.00 1.325
823.10 1.325
823.20 1.325
823.30 1.325
823.40 1.325
823.50 1.325
823.60 1.325
823.70 1.325
823.80 1.324
823.90 1.324
824.00 1.324
824.10 1.324
824.20 1.324
824.30 1.324
824.40 1.324
824.50 1.323
824.60 1.323
824.70 1.323
824.80 1.323
824.90 1.323
825.00 1.323
825.10 1.323
825.20 1.322
825.30 1.322
825.40 1.322
825.50 1.322
825.60 1.322
825.70 1.322
825.80 1.322
825.90 1.321
826.00 1.321
826.10 1.321
826.20 1.321
826.30 1.321
826.40 1.321
826.50 1.321
826.60 1.321
826.70 1.32
826.80 1.32
826.90 1.32
827.00 1.32
827.10 1.32
827.20 1.32
827.30 1.32
827.40 1.319
827.50 1.319
827.60 1.319
827.70 1.319
827.80 1.319
827.90 1.319
828.00 1.319
828.10 1.318
828.20 1.318
828.30 1.318
828.40 1.318
828.50 1.318
828.60 1.318
828.70 1.318
828.80 1.317
828.90 1.317
829.00 1.317
829.10 1.317
829.20 1.317
829.30 1.317
829.40 1.316
829.50 1.316
829.60 1.316
829.70 1.316
829.80 1.316
829.90 1.316
830.00 1.316
830.10 1.315
830.20 1.315
830.30 1.315
830.40 1.315
830.50 1.315
830.60 1.315
830.70 1.315
830.80 1.314
830.90 1.314
831.00 1.314
831.10 1.314
831.20 1.314
831.30 1.314
831.40 1.314
831.50 1.313
831.60 1.313
831.70 1.313
831.80 1.313
831.90 1.313
832.00 1.313
832.10 1.313
832.20 1.312
832.30 1.312
832.40 1.312
832.50 1.312
832.60 1.312
832.70 1.312
832.80 1.312
832.90 1.311
833.00 1.311
833.10 1.311
833.20 1.311
833.30 1.311
833.40 1.311
833.50 1.31
833.60 1.31
833.70 1.31
833.80 1.31
833.90 1.31
834.00 1.31
834.10 1.31
834.20 1.309
834.30 1.309
834.40 1.309
834.50 1.309
834.60 1.309
834.70 1.309
834.80 1.308
834.90 1.308
835.00 1.308
835.10 1.308
835.20 1.308
835.30 1.308
835.40 1.308
835.50 1.307
835.60 1.307
835.70 1.307
835.80 1.307
835.90 1.307
836.00 1.307
836.10 1.307
836.20 1.306
836.30 1.306
836.40 1.306
836.50 1.306
836.60 1.306
836.70 1.306
836.80 1.305
836.90 1.305
837.00 1.305
837.10 1.305
837.20 1.305
837.30 1.305
837.40 1.305
837.50 1.304
837.60 1.304
837.70 1.304
837.80 1.304
837.90 1.304
838.00 1.304
838.10 1.303
838.20 1.303
838.30 1.303
838.40 1.303
838.50 1.303
838.60 1.303
838.70 1.302
838.80 1.302
838.90 1.302
839.00 1.302
839.10 1.302
839.20 1.302
839.30 1.301
839.40 1.301
839.50 1.301
839.60 1.301
839.70 1.301
839.80 1.301
839.90 1.301
840.00 1.3
840.10 1.3
840.20 1.3
840.30 1.3
840.40 1.3
840.50 1.3
840.60 1.299
840.70 1.299
840.80 1.299
840.90 1.299
841.00 1.299
841.10 1.299
841.20 1.298
841.30 1.298
841.40 1.298
841.50 1.298
841.60 1.298
841.70 1.298
841.80 1.298
841.90 1.297
842.00 1.297
842.10 1.297
842.20 1.297
842.30 1.297
842.40 1.297
842.50 1.296
842.60 1.296
842.70 1.296
842.80 1.296
842.90 1.296
843.00 1.296
843.10 1.295
843.20 1.295
843.30 1.295
843.40 1.295
843.50 1.295
843.60 1.295
843.70 1.294
843.80 1.294
843.90 1.294
844.00 1.294
844.10 1.294
844.20 1.294
844.30 1.293
844.40 1.293
844.50 1.293
844.60 1.293
844.70 1.293
844.80 1.293
844.90 1.292
845.00 1.292
845.10 1.292
845.20 1.292
845.30 1.292
845.40 1.292
845.50 1.291
845.60 1.291
845.70 1.291
845.80 1.291
845.90 1.291
846.00 1.291
846.10 1.29
846.20 1.29
846.30 1.29
846.40 1.29
846.50 1.29
846.60 1.29
846.70 1.289
846.80 1.289
846.90 1.289
847.00 1.289
847.10 1.289
847.20 1.289
847.30 1.288
847.40 1.288
847.50 1.288
847.60 1.288
847.70 1.288
847.80 1.288
847.90 1.287
848.00 1.287
848.10 1.287
848.20 1.287
848.30 1.287
848.40 1.287
848.50 1.286
848.60 1.286
848.70 1.286
848.80 1.286
848.90 1.286
849.00 1.286
849.10 1.285
849.20 1.285
849.30 1.285
849.40 1.285
849.50 1.285
849.60 1.285
849.70 1.284
849.80 1.284
849.90 1.284
850.00 1.284
850.10 1.284
850.20 1.283
850.30 1.283
850.40 1.283
850.50 1.283
850.60 1.283
850.70 1.283
850.80 1.282
850.90 1.282
851.00 1.282
851.10 1.282
851.20 1.282
851.30 1.282
851.40 1.281
851.50 1.281
851.60 1.281
851.70 1.281
851.80 1.281
851.90 1.281
852.00 1.28
852.10 1.28
852.20 1.28
852.30 1.28
852.40 1.28
852.50 1.28
852.60 1.279
852.70 1.279
852.80 1.279
852.90 1.279
853.00 1.279
853.10 1.278
853.20 1.278
853.30 1.278
853.40 1.278
853.50 1.278
853.60 1.278
853.70 1.277
853.80 1.277
853.90 1.277
854.00 1.277
854.10 1.277
854.20 1.277
854.30 1.276
854.40 1.276
854.50 1.276
854.60 1.276
854.70 1.276
854.80 1.275
854.90 1.275
855.00 1.275
855.10 1.275
855.20 1.275
855.30 1.275
855.40 1.274
855.50 1.274
855.60 1.274
855.70 1.274
855.80 1.274
855.90 1.274
856.00 1.273
856.10 1.273
856.20 1.273
856.30 1.273
856.40 1.273
856.50 1.272
856.60 1.272
856.70 1.272
856.80 1.272
856.90 1.272
857.00 1.272
857.10 1.271
857.20 1.271
857.30 1.271
857.40 1.271
857.50 1.271
857.60 1.27
857.70 1.27
857.80 1.27
857.90 1.27
858.00 1.27
858.10 1.27
858.20 1.269
858.30 1.269
858.40 1.269
858.50 1.269
858.60 1.269
858.70 1.268
858.80 1.268
858.90 1.268
859.00 1.268
859.10 1.268
859.20 1.268
859.30 1.267
859.40 1.267
859.50 1.267
859.60 1.267
859.70 1.267
859.80 1.266
859.90 1.266
860.00 1.266
860.10 1.266
860.20 1.266
860.30 1.265
860.40 1.265
860.50 1.265
860.60 1.265
860.70 1.265
860.80 1.265
860.90 1.264
861.00 1.264
861.10 1.264
861.20 1.264
861.30 1.264
861.40 1.263
861.50 1.263
861.60 1.263
861.70 1.263
861.80 1.263
861.90 1.263
862.00 1.262
862.10 1.262
862.20 1.262
862.30 1.262
862.40 1.262
862.50 1.261
862.60 1.261
862.70 1.261
862.80 1.261
862.90 1.261
863.00 1.26
863.10 1.26
863.20 1.26
863.30 1.26
863.40 1.26
863.50 1.259
863.60 1.259
863.70 1.259
863.80 1.259
863.90 1.259
864.00 1.259
864.10 1.258
864.20 1.258
864.30 1.258
864.40 1.258
864.50 1.258
864.60 1.257
864.70 1.257
864.80 1.257
864.90 1.257
865.00 1.257
865.10 1.256
865.20 1.256
865.30 1.256
865.40 1.256
865.50 1.256
865.60 1.255
865.70 1.255
865.80 1.255
865.90 1.255
866.00 1.255
866.10 1.254
866.20 1.254
866.30 1.254
866.40 1.254
866.50 1.254
866.60 1.254
866.70 1.253
866.80 1.253
866.90 1.253
867.00 1.253
867.10 1.253
867.20 1.252
867.30 1.252
867.40 1.252
867.50 1.252
867.60 1.252
867.70 1.251
867.80 1.251
867.90 1.251
868.00 1.251
868.10 1.251
868.20 1.25
868.30 1.25
868.40 1.25
868.50 1.25
868.60 1.25
868.70 1.249
868.80 1.249
868.90 1.249
869.00 1.249
869.10 1.249
869.20 1.248
869.30 1.248
869.40 1.248
869.50 1.248
869.60 1.248
869.70 1.247
869.80 1.247
869.90 1.247
870.00 1.247
870.10 1.247
870.20 1.246
870.30 1.246
870.40 1.246
870.50 1.246
870.60 1.246
870.70 1.245
870.80 1.245
870.90 1.245
871.00 1.245
871.10 1.245
871.20 1.244
871.30 1.244
871.40 1.244
871.50 1.244
871.60 1.244
871.70 1.243
871.80 1.243
871.90 1.243
872.00 1.243
872.10 1.242
872.20 1.242
872.30 1.242
872.40 1.242
872.50 1.242
872.60 1.241
872.70 1.241
872.80 1.241
872.90 1.241
873.00 1.241
873.10 1.24
873.20 1.24
873.30 1.24
873.40 1.24
873.50 1.24
873.60 1.239
873.70 1.239
873.80 1.239
873.90 1.239
874.00 1.238
874.10 1.238
874.20 1.238
874.30 1.238
874.40 1.238
874.50 1.237
874.60 1.237
874.70 1.237
874.80 1.237
874.90 1.237
875.00 1.236
875.10 1.236
875.20 1.236
875.30 1.236
875.40 1.236
875.50 1.235
875.60 1.235
875.70 1.235
875.80 1.235
875.90 1.234
876.00 1.234
876.10 1.234
876.20 1.234
876.30 1.234
876.40 1.233
876.50 1.233
876.60 1.233
876.70 1.233
876.80 1.233
876.90 1.232
877.00 1.232
877.10 1.232
877.20 1.232
877.30 1.232
877.40 1.231
877.50 1.231
877.60 1.231
877.70 1.231
877.80 1.23
877.90 1.23
878.00 1.23
878.10 1.23
878.20 1.23
878.30 1.229
878.40 1.229
878.50 1.229
878.60 1.229
878.70 1.228
878.80 1.228
878.90 1.228
879.00 1.228
879.10 1.228
879.20 1.227
879.30 1.227
879.40 1.227
879.50 1.227
879.60 1.226
879.70 1.226
879.80 1.226
879.90 1.226
880.00 1.226
880.10 1.225
880.20 1.225
880.30 1.225
880.40 1.225
880.50 1.224
880.60 1.224
880.70 1.224
880.80 1.224
880.90 1.224
881.00 1.223
881.10 1.223
881.20 1.223
881.30 1.223
881.40 1.222
881.50 1.222
881.60 1.222
881.70 1.222
881.80 1.222
881.90 1.221
882.00 1.221
882.10 1.221
882.20 1.221
882.30 1.22
882.40 1.22
882.50 1.22
882.60 1.22
882.70 1.219
882.80 1.219
882.90 1.219
883.00 1.219
883.10 1.218
883.20 1.218
883.30 1.218
883.40 1.218
883.50 1.218
883.60 1.217
883.70 1.217
883.80 1.217
883.90 1.217
884.00 1.216
884.10 1.216
884.20 1.216
884.30 1.216
884.40 1.215
884.50 1.215
884.60 1.215
884.70 1.215
884.80 1.214
884.90 1.214
885.00 1.214
885.10 1.214
885.20 1.214
885.30 1.213
885.40 1.213
885.50 1.213
885.60 1.213
885.70 1.212
885.80 1.212
885.90 1.212
886.00 1.212
886.10 1.211
886.20 1.211
886.30 1.211
886.40 1.211
886.50 1.21
886.60 1.21
886.70 1.21
886.80 1.21
886.90 1.21
887.00 1.209
887.10 1.209
887.20 1.209
887.30 1.209
887.40 1.208
887.50 1.208
887.60 1.208
887.70 1.208
887.80 1.207
887.90 1.207
888.00 1.207
888.10 1.207
888.20 1.206
888.30 1.206
888.40 1.206
888.50 1.206
888.60 1.205
888.70 1.205
888.80 1.205
888.90 1.205
889.00 1.204
889.10 1.204
889.20 1.204
889.30 1.204
889.40 1.203
889.50 1.203
889.60 1.203
889.70 1.203
889.80 1.202
889.90 1.202
890.00 1.202
890.10 1.202
890.20 1.201
890.30 1.201
890.40 1.201
890.50 1.201
890.60 1.2
890.70 1.2
890.80 1.2
890.90 1.2
891.00 1.199
891.10 1.199
891.20 1.199
891.30 1.199
891.40 1.198
891.50 1.198
891.60 1.198
891.70 1.198
891.80 1.197
891.90 1.197
892.00 1.197
892.10 1.197
892.20 1.196
892.30 1.196
892.40 1.196
892.50 1.196
892.60 1.195
892.70 1.195
892.80 1.195
892.90 1.195
893.00 1.194
893.10 1.194
893.20 1.194
893.30 1.194
893.40 1.193
893.50 1.193
893.60 1.193
893.70 1.193
893.80 1.192
893.90 1.192
894.00 1.192
894.10 1.192
894.20 1.192
894.30 1.191
894.40 1.191
894.50 1.191
894.60 1.191
894.70 1.19
894.80 1.19
894.90 1.19
895.00 1.19
895.10 1.189
895.20 1.189
895.30 1.189
895.40 1.189
895.50 1.188
895.60 1.188
895.70 1.188
895.80 1.188
895.90 1.187
896.00 1.187
896.10 1.187
896.20 1.187
896.30 1.186
896.40 1.186
896.50 1.186
896.60 1.186
896.70 1.186
896.80 1.185
896.90 1.185
897.00 1.185
897.10 1.185
897.20 1.184
897.30 1.184
897.40 1.184
897.50 1.183
897.60 1.183
897.70 1.183
897.80 1.182
897.90 1.182
898.00 1.182
898.10 1.182
898.20 1.181
898.30 1.181
898.40 1.181
898.50 1.18
898.60 1.18
898.70 1.18
898.80 1.18
898.90 1.179
899.00 1.179
899.10 1.179
899.20 1.178
899.30 1.178
899.40 1.178
899.50 1.178
899.60 1.177
899.70 1.177
899.80 1.177
899.90 1.177
900.00 1.176
900.10 1.176
900.20 1.176
900.30 1.175
900.40 1.175
900.50 1.175
900.60 1.175
900.70 1.174
900.80 1.174
900.90 1.174
901.00 1.173
901.10 1.173
901.20 1.173
901.30 1.173
901.40 1.172
901.50 1.172
901.60 1.172
901.70 1.171
901.80 1.171
901.90 1.171
902.00 1.171
902.10 1.17
902.20 1.17
902.30 1.169
902.40 1.169
902.50 1.169
902.60 1.168
902.70 1.168
902.80 1.168
902.90 1.167
903.00 1.167
903.10 1.167
903.20 1.166
903.30 1.166
903.40 1.165
903.50 1.165
903.60 1.165
903.70 1.164
903.80 1.164
903.90 1.164
904.00 1.163
904.10 1.163
904.20 1.163
904.30 1.162
904.40 1.162
904.50 1.162
904.60 1.161
904.70 1.161
904.80 1.16
904.90 1.16
905.00 1.16
905.10 1.159
905.20 1.159
905.30 1.159
905.40 1.158
905.50 1.158
905.60 1.158
905.70 1.157
905.80 1.157
905.90 1.156
906.00 1.156
906.10 1.156
906.20 1.155
906.30 1.155
906.40 1.155
906.50 1.154
906.60 1.154
906.70 1.154
906.80 1.153
906.90 1.153
907.00 1.153
907.10 1.152
907.20 1.152
907.30 1.152
907.40 1.151
907.50 1.151
907.60 1.151
907.70 1.15
907.80 1.15
907.90 1.15
908.00 1.149
908.10 1.149
908.20 1.149
908.30 1.148
908.40 1.148
908.50 1.148
908.60 1.147
908.70 1.147
908.80 1.147
908.90 1.146
909.00 1.146
909.10 1.146
909.20 1.145
909.30 1.145
909.40 1.145
909.50 1.144
909.60 1.144
909.70 1.144
909.80 1.143
909.90 1.143
910.00 1.143
910.10 1.142
910.20 1.142
910.30 1.142
910.40 1.141
910.50 1.141
910.60 1.141
910.70 1.14
910.80 1.14
910.90 1.14
911.00 1.139
911.10 1.139
911.20 1.139
911.30 1.138
911.40 1.138
911.50 1.138
911.60 1.137
911.70 1.137
911.80 1.137
911.90 1.136
912.00 1.136
912.10 1.136
912.20 1.136
912.30 1.135
912.40 1.135
912.50 1.135
912.60 1.134
912.70 1.134
912.80 1.134
912.90 1.133
913.00 1.133
913.10 1.133
913.20 1.132
913.30 1.132
913.40 1.132
913.50 1.132
913.60 1.131
913.70 1.131
913.80 1.131
913.90 1.13
914.00 1.13
914.10 1.13
914.20 1.129
914.30 1.129
914.40 1.129
914.50 1.129
914.60 1.128
914.70 1.128
914.80 1.128
914.90 1.127
915.00 1.127
915.10 1.127
915.20 1.126
915.30 1.126
915.40 1.126
915.50 1.125
915.60 1.125
915.70 1.125
915.80 1.125
915.90 1.124
916.00 1.124
916.10 1.124
916.20 1.123
916.30 1.123
916.40 1.123
916.50 1.122
916.60 1.122
916.70 1.122
916.80 1.122
916.90 1.121
917.00 1.121
917.10 1.121
917.20 1.12
917.30 1.12
917.40 1.12
917.50 1.119
917.60 1.119
917.70 1.119
917.80 1.118
917.90 1.118
918.00 1.118
918.10 1.117
918.20 1.117
918.30 1.117
918.40 1.116
918.50 1.116
918.60 1.116
918.70 1.115
918.80 1.115
918.90 1.114
919.00 1.114
919.10 1.114
919.20 1.113
919.30 1.113
919.40 1.113
919.50 1.112
919.60 1.112
919.70 1.112
919.80 1.111
919.90 1.111
920.00 1.111
920.10 1.11
920.20 1.11
920.30 1.11
920.40 1.109
920.50 1.109
920.60 1.109
920.70 1.108
920.80 1.108
920.90 1.108
921.00 1.107
921.10 1.107
921.20 1.107
921.30 1.106
921.40 1.106
921.50 1.106
921.60 1.105
921.70 1.105
921.80 1.105
921.90 1.104
922.00 1.104
922.10 1.104
922.20 1.103
922.30 1.103
922.40 1.103
922.50 1.102
922.60 1.102
922.70 1.102
922.80 1.101
922.90 1.101
923.00 1.101
923.10 1.1
923.20 1.1
923.30 1.1
923.40 1.099
923.50 1.099
923.60 1.098
923.70 1.098
923.80 1.098
923.90 1.097
924.00 1.097
924.10 1.097
924.20 1.096
924.30 1.096
924.40 1.096
924.50 1.095
924.60 1.095
924.70 1.095
924.80 1.094
924.90 1.094
925.00 1.094
925.10 1.093
925.20 1.093
925.30 1.093
925.40 1.092
925.50 1.092
925.60 1.091
925.70 1.091
925.80 1.091
925.90 1.09
926.00 1.09
926.10 1.09
926.20 1.089
926.30 1.089
926.40 1.089
926.50 1.088
926.60 1.088
926.70 1.088
926.80 1.087
926.90 1.087
927.00 1.087
927.10 1.086
927.20 1.086
927.30 1.086
927.40 1.085
927.50 1.085
927.60 1.084
927.70 1.084
927.80 1.084
927.90 1.083
928.00 1.083
928.10 1.083
928.20 1.082
928.30 1.082
928.40 1.082
928.50 1.081
928.60 1.081
928.70 1.08
928.80 1.08
928.90 1.08
929.00 1.079
929.10 1.079
929.20 1.079
929.30 1.078
929.40 1.078
929.50 1.078
929.60 1.077
929.70 1.077
929.80 1.076
929.90 1.076
930.00 1.076
930.10 1.075
930.20 1.075
930.30 1.075
930.40 1.074
930.50 1.074
930.60 1.074
930.70 1.073
930.80 1.073
930.90 1.073
931.00 1.072
931.10 1.072
931.20 1.071
931.30 1.071
931.40 1.071
931.50 1.07
931.60 1.07
931.70 1.07
931.80 1.069
931.90 1.069
932.00 1.069
932.10 1.068
932.20 1.068
932.30 1.067
932.40 1.067
932.50 1.067
932.60 1.066
932.70 1.066
932.80 1.066
932.90 1.065
933.00 1.065
933.10 1.065
933.20 1.064
933.30 1.064
933.40 1.063
933.50 1.063
933.60 1.063
933.70 1.062
933.80 1.062
933.90 1.062
934.00 1.061
934.10 1.061
934.20 1.06
934.30 1.06
934.40 1.06
934.50 1.059
934.60 1.059
934.70 1.059
934.80 1.058
934.90 1.058
935.00 1.057
935.10 1.057
935.20 1.057
935.30 1.056
935.40 1.056
935.50 1.056
935.60 1.055
935.70 1.055
935.80 1.054
935.90 1.054
936.00 1.054
936.10 1.053
936.20 1.053
936.30 1.053
936.40 1.052
936.50 1.052
936.60 1.051
936.70 1.051
936.80 1.051
936.90 1.05
937.00 1.05
937.10 1.05
937.20 1.049
937.30 1.049
937.40 1.048
937.50 1.048
937.60 1.048
937.70 1.047
937.80 1.047
937.90 1.046
938.00 1.046
938.10 1.046
938.20 1.045
938.30 1.045
938.40 1.045
938.50 1.044
938.60 1.044
938.70 1.043
938.80 1.043
938.90 1.043
939.00 1.042
939.10 1.042
939.20 1.041
939.30 1.041
939.40 1.041
939.50 1.04
939.60 1.04
939.70 1.04
939.80 1.039
939.90 1.039
940.00 1.038
940.10 1.038
940.20 1.038
940.30 1.037
940.40 1.037
940.50 1.036
940.60 1.036
940.70 1.036
940.80 1.035
940.90 1.035
941.00 1.034
941.10 1.034
941.20 1.034
941.30 1.033
941.40 1.033
941.50 1.032
941.60 1.032
941.70 1.032
941.80 1.031
941.90 1.031
942.00 1.031
942.10 1.03
942.20 1.03
942.30 1.029
942.40 1.029
942.50 1.029
942.60 1.028
942.70 1.028
942.80 1.027
942.90 1.027
943.00 1.027
943.10 1.026
943.20 1.026
943.30 1.025
943.40 1.025
943.50 1.025
943.60 1.024
943.70 1.024
943.80 1.023
943.90 1.023
944.00 1.023
944.10 1.022
944.20 1.022
944.30 1.022
944.40 1.021
944.50 1.021
944.60 1.02
944.70 1.02
944.80 1.02
944.90 1.019
945.00 1.019
945.10 1.018
945.20 1.018
945.30 1.018
945.40 1.017
945.50 1.017
945.60 1.016
945.70 1.016
945.80 1.016
945.90 1.015
946.00 1.015
946.10 1.014
946.20 1.014
946.30 1.014
946.40 1.013
946.50 1.013
946.60 1.012
946.70 1.012
946.80 1.012
946.90 1.011
947.00 1.011
947.10 1.01
947.20 1.01
947.30 1.01
947.40 1.009
947.50 1.009
947.60 1.008
947.70 1.008
947.80 1.008
947.90 1.007
948.00 1.007
948.10 1.006
948.20 1.006
948.30 1.006
948.40 1.005
948.50 1.005
948.60 1.004
948.70 1.004
948.80 1.004
948.90 1.003
949.00 1.003
949.10 1.002
949.20 1.002
949.30 1.001
949.40 1.001
949.50 1.001
949.60 1
949.70 0.9999
949.80 0.9995
949.90 0.9991
950.00 0.9987
950.10 0.9983
950.20 0.9979
950.30 0.9975
950.40 0.9971
950.50 0.9967
950.60 0.9963
950.70 0.9959
950.80 0.9955
950.90 0.9951
951.00 0.9946
951.10 0.9942
951.20 0.9938
951.30 0.9934
951.40 0.993
951.50 0.9926
951.60 0.9922
951.70 0.9918
951.80 0.9914
951.90 0.991
952.00 0.9906
952.10 0.9902
952.20 0.9898
952.30 0.9894
952.40 0.989
952.50 0.9886
952.60 0.9882
952.70 0.9878
952.80 0.9874
952.90 0.9869
953.00 0.9865
953.10 0.9861
953.20 0.9857
953.30 0.9853
953.40 0.9849
953.50 0.9845
953.60 0.9841
953.70 0.9837
953.80 0.9833
953.90 0.9829
954.00 0.9825
954.10 0.9821
954.20 0.9817
954.30 0.9812
954.40 0.9808
954.50 0.9804
954.60 0.98
954.70 0.9796
954.80 0.9792
954.90 0.9788
955.00 0.9784
955.10 0.978
955.20 0.9776
955.30 0.9772
955.40 0.9768
955.50 0.9763
955.60 0.9759
955.70 0.9755
955.80 0.9751
955.90 0.9747
956.00 0.9743
956.10 0.9739
956.20 0.9734
956.30 0.973
956.40 0.9726
956.50 0.9722
956.60 0.9718
956.70 0.9714
956.80 0.9709
956.90 0.9705
957.00 0.9701
957.10 0.9697
957.20 0.9693
957.30 0.9689
957.40 0.9685
957.50 0.9681
957.60 0.9677
957.70 0.9673
957.80 0.9668
957.90 0.9664
958.00 0.966
958.10 0.9656
958.20 0.9652
958.30 0.9648
958.40 0.9644
958.50 0.964
958.60 0.9635
958.70 0.9631
958.80 0.9627
958.90 0.9623
959.00 0.9619
959.10 0.9615
959.20 0.9611
959.30 0.9607
959.40 0.9603
959.50 0.9598
959.60 0.9594
959.70 0.959
959.80 0.9586
959.90 0.9582
960.00 0.9578
960.10 0.9574
960.20 0.957
960.30 0.9566
960.40 0.9561
960.50 0.9557
960.60 0.9553
960.70 0.9549
960.80 0.9545
960.90 0.9541
961.00 0.9537
961.10 0.9533
961.20 0.9529
961.30 0.9524
961.40 0.952
961.50 0.9516
961.60 0.9512
961.70 0.9508
961.80 0.9504
961.90 0.95
962.00 0.9496
962.10 0.9492
962.20 0.9488
962.30 0.9483
962.40 0.9479
962.50 0.9475
962.60 0.9471
962.70 0.9467
962.80 0.9463
962.90 0.9459
963.00 0.9455
963.10 0.945
963.20 0.9446
963.30 0.9442
963.40 0.9438
963.50 0.9434
963.60 0.943
963.70 0.9426
963.80 0.9422
963.90 0.9418
964.00 0.9413
964.10 0.9409
964.20 0.9405
964.30 0.9401
964.40 0.9397
964.50 0.9393
964.60 0.9389
964.70 0.9384
964.80 0.938
964.90 0.9376
965.00 0.9372
965.10 0.9368
965.20 0.9363
965.30 0.9359
965.40 0.9355
965.50 0.9351
965.60 0.9347
965.70 0.9343
965.80 0.9338
965.90 0.9334
966.00 0.933
966.10 0.9326
966.20 0.9322
966.30 0.9318
966.40 0.9314
966.50 0.931
966.60 0.9305
966.70 0.9301
966.80 0.9297
966.90 0.9293
967.00 0.9289
967.10 0.9285
967.20 0.9281
967.30 0.9277
967.40 0.9273
967.50 0.9268
967.60 0.9264
967.70 0.926
967.80 0.9256
967.90 0.9252
968.00 0.9248
968.10 0.9244
968.20 0.924
968.30 0.9235
968.40 0.9231
968.50 0.9227
968.60 0.9223
968.70 0.9219
968.80 0.9215
968.90 0.9211
969.00 0.9207
969.10 0.9203
969.20 0.9199
969.30 0.9195
969.40 0.919
969.50 0.9186
969.60 0.9182
969.70 0.9178
969.80 0.9174
969.90 0.917
970.00 0.9166
970.10 0.9162
970.20 0.9158
970.30 0.9154
970.40 0.915
970.50 0.9146
970.60 0.9141
970.70 0.9137
970.80 0.9133
970.90 0.9129
971.00 0.9125
971.10 0.9121
971.20 0.9117
971.30 0.9113
971.40 0.9109
971.50 0.9105
971.60 0.9101
971.70 0.9097
971.80 0.9093
971.90 0.9089
972.00 0.9084
972.10 0.908
972.20 0.9076
972.30 0.9072
972.40 0.9068
972.50 0.9064
972.60 0.906
972.70 0.9056
972.80 0.9052
972.90 0.9048
973.00 0.9044
973.10 0.904
973.20 0.9036
973.30 0.9032
973.40 0.9028
973.50 0.9024
973.60 0.902
973.70 0.9016
973.80 0.9012
973.90 0.9008
974.00 0.9004
974.10 0.9
974.20 0.8996
974.30 0.8992
974.40 0.8988
974.50 0.8984
974.60 0.8979
974.70 0.8975
974.80 0.8971
974.90 0.8967
975.00 0.8963
975.10 0.8959
975.20 0.8955
975.30 0.8951
975.40 0.8947
975.50 0.8943
975.60 0.8939
975.70 0.8935
975.80 0.8931
975.90 0.8927
976.00 0.8923
976.10 0.8919
976.20 0.8915
976.30 0.8911
976.40 0.8907
976.50 0.8903
976.60 0.8899
976.70 0.8895
976.80 0.8891
976.90 0.8887
977.00 0.8883
977.10 0.8879
977.20 0.8875
977.30 0.8871
977.40 0.8867
977.50 0.8863
977.60 0.8859
977.70 0.8855
977.80 0.8851
977.90 0.8847
978.00 0.8843
978.10 0.8839
978.20 0.8835
978.30 0.8831
978.40 0.8827
978.50 0.8823
978.60 0.8819
978.70 0.8815
978.80 0.8811
978.90 0.8807
979.00 0.8803
979.10 0.8799
979.20 0.8795
979.30 0.8791
979.40 0.8787
979.50 0.8783
979.60 0.8779
979.70 0.8775
979.80 0.8771
979.90 0.8767
980.00 0.8763
980.10 0.876
980.20 0.8756
980.30 0.8752
980.40 0.8748
980.50 0.8744
980.60 0.874
980.70 0.8736
980.80 0.8732
980.90 0.8728
981.00 0.8724
981.10 0.872
981.20 0.8716
981.30 0.8712
981.40 0.8708
981.50 0.8704
981.60 0.8701
981.70 0.8697
981.80 0.8693
981.90 0.8689
982.00 0.8685
982.10 0.8681
982.20 0.8677
982.30 0.8673
982.40 0.8669
982.50 0.8665
982.60 0.8661
982.70 0.8657
982.80 0.8654
982.90 0.865
983.00 0.8646
983.10 0.8642
983.20 0.8638
983.30 0.8634
983.40 0.863
983.50 0.8626
983.60 0.8622
983.70 0.8618
983.80 0.8615
983.90 0.8611
984.00 0.8607
984.10 0.8603
984.20 0.8599
984.30 0.8595
984.40 0.8591
984.50 0.8587
984.60 0.8584
984.70 0.858
984.80 0.8576
984.90 0.8572
985.00 0.8568
985.10 0.8565
985.20 0.8561
985.30 0.8557
985.40 0.8553
985.50 0.8549
985.60 0.8546
985.70 0.8542
985.80 0.8538
985.90 0.8534
986.00 0.8531
986.10 0.8527
986.20 0.8523
986.30 0.8519
986.40 0.8516
986.50 0.8512
986.60 0.8508
986.70 0.8504
986.80 0.8501
986.90 0.8497
987.00 0.8493
987.10 0.8489
987.20 0.8485
987.30 0.8482
987.40 0.8478
987.50 0.8474
987.60 0.847
987.70 0.8466
987.80 0.8462
987.90 0.8458
988.00 0.8455
988.10 0.8451
988.20 0.8447
988.30 0.8443
988.40 0.8439
988.50 0.8435
988.60 0.8432
988.70 0.8428
988.80 0.8424
988.90 0.842
989.00 0.8416
989.10 0.8412
989.20 0.8408
989.30 0.8405
989.40 0.8401
989.50 0.8397
989.60 0.8393
989.70 0.8389
989.80 0.8385
989.90 0.8382
990.00 0.8378
990.10 0.8374
990.20 0.837
990.30 0.8366
990.40 0.8362
990.50 0.8359
990.60 0.8355
990.70 0.8351
990.80 0.8347
990.90 0.8343
991.00 0.8339
991.10 0.8336
991.20 0.8332
991.30 0.8328
991.40 0.8324
991.50 0.832
991.60 0.8317
991.70 0.8313
991.80 0.8309
991.90 0.8305
992.00 0.8301
992.10 0.8297
992.20 0.8294
992.30 0.829
992.40 0.8286
992.50 0.8282
992.60 0.8278
992.70 0.8275
992.80 0.8271
992.90 0.8267
993.00 0.8263
993.10 0.8259
993.20 0.8255
993.30 0.8251
993.40 0.8248
993.50 0.8244
993.60 0.824
993.70 0.8236
993.80 0.8232
993.90 0.8228
994.00 0.8225
994.10 0.8221
994.20 0.8217
994.30 0.8213
994.40 0.8209
994.50 0.8205
994.60 0.8202
994.70 0.8197
994.80 0.8193
994.90 0.8189
995.00 0.8184
995.10 0.818
995.20 0.8176
995.30 0.8172
995.40 0.8167
995.50 0.8163
995.60 0.8159
995.70 0.8155
995.80 0.8151
995.90 0.8147
996.00 0.8143
996.10 0.814
996.20 0.8136
996.30 0.8132
996.40 0.8128
996.50 0.8124
996.60 0.8121
996.70 0.8117
996.80 0.8113
996.90 0.8109
997.00 0.8106
997.10 0.8102
997.20 0.8098
997.30 0.8094
997.40 0.8091
997.50 0.8087
997.60 0.8083
997.70 0.8079
997.80 0.8076
997.90 0.8072
998.00 0.8068
998.10 0.8065
998.20 0.8061
998.30 0.8057
998.40 0.8053
998.50 0.805
998.60 0.8046
998.70 0.8042
998.80 0.8039
998.90 0.8035
999.00 0.8031
999.10 0.8028
999.20 0.8024
999.30 0.802
999.40 0.8016
999.50 0.8013
999.60 0.8009
999.70 0.8005
999.80 0.8002
999.90 0.7998
1000.00 0.7995
1000.10 0.7991
1000.20 0.7987
1000.30 0.7984
1000.40 0.798
1000.50 0.7977
1000.60 0.7973
1000.70 0.7969
1000.80 0.7966
1000.90 0.7962
1001.00 0.7959
1001.10 0.7955
1001.20 0.7951
1001.30 0.7948
1001.40 0.7944
1001.50 0.7941
1001.60 0.7937
1001.70 0.7934
1001.80 0.793
1001.90 0.7926
1002.00 0.7923
1002.10 0.7919
1002.20 0.7915
1002.30 0.7912
1002.40 0.7908
1002.50 0.7905
1002.60 0.7901
1002.70 0.7898
1002.80 0.7894
1002.90 0.7891
1003.00 0.7887
1003.10 0.7884
1003.20 0.788
1003.30 0.7877
1003.40 0.7873
1003.50 0.787
1003.60 0.7866
1003.70 0.7863
1003.80 0.7859
1003.90 0.7856
1004.00 0.7852
1004.10 0.7849
1004.20 0.7846
1004.30 0.7842
1004.40 0.7839
1004.50 0.7835
1004.60 0.7832
1004.70 0.7828
1004.80 0.7825
1004.90 0.7821
1005.00 0.7817
1005.10 0.7813
1005.20 0.781
1005.30 0.7807
1005.40 0.7803
1005.50 0.78
1005.60 0.7796
1005.70 0.7793
1005.80 0.779
1005.90 0.7786
1006.00 0.7783
1006.10 0.7779
1006.20 0.7776
1006.30 0.7773
1006.40 0.7769
1006.50 0.7766
1006.60 0.7762
1006.70 0.7759
1006.80 0.7756
1006.90 0.7752
1007.00 0.7749
1007.10 0.7746
1007.20 0.7742
1007.30 0.7739
1007.40 0.7736
1007.50 0.7732
1007.60 0.7729
1007.70 0.7726
1007.80 0.7723
1007.90 0.7719
1008.00 0.7716
1008.10 0.7713
1008.20 0.771
1008.30 0.7706
1008.40 0.7703
1008.50 0.77
1008.60 0.7697
1008.70 0.7693
1008.80 0.769
1008.90 0.7687
1009.00 0.7683
1009.10 0.768
1009.20 0.7677
1009.30 0.7674
1009.40 0.767
1009.50 0.7667
1009.60 0.7664
1009.70 0.7661
1009.80 0.7658
1009.90 0.7655
1010.00 0.7651
1010.10 0.7648
1010.20 0.7645
1010.30 0.7642
1010.40 0.7639
1010.50 0.7636
1010.60 0.7633
1010.70 0.7629
1010.80 0.7626
1010.90 0.7623
1011.00 0.762
1011.10 0.7617
1011.20 0.7614
1011.30 0.7611
1011.40 0.7607
1011.50 0.7604
1011.60 0.7601
1011.70 0.7598
1011.80 0.7595
1011.90 0.7592
1012.00 0.7589
1012.10 0.7586
1012.20 0.7582
1012.30 0.7579
1012.40 0.7576
1012.50 0.7573
1012.60 0.757
1012.70 0.7567
1012.80 0.7564
1012.90 0.7561
1013.00 0.7558
1013.10 0.7555
1013.20 0.7552
1013.30 0.7549
1013.40 0.7546
1013.50 0.7543
1013.60 0.754
1013.70 0.7537
1013.80 0.7534
1013.90 0.7531
1014.00 0.7528
1014.10 0.7525
1014.20 0.7522
1014.30 0.7519
1014.40 0.7516
1014.50 0.7513
1014.60 0.751
1014.70 0.7507
1014.80 0.7505
1014.90 0.7502
1015.00 0.7499
1015.10 0.7496
1015.20 0.7493
1015.30 0.7491
1015.40 0.7488
1015.50 0.7485
1015.60 0.7482
1015.70 0.748
1015.80 0.7477
1015.90 0.7474
1016.00 0.7471
1016.10 0.7468
1016.20 0.7466
1016.30 0.7463
1016.40 0.746
1016.50 0.7457
1016.60 0.7455
1016.70 0.7452
1016.80 0.7449
1016.90 0.7446
1017.00 0.7443
1017.10 0.744
1017.20 0.7437
1017.30 0.7435
1017.40 0.7432
1017.50 0.7429
1017.60 0.7426
1017.70 0.7423
1017.80 0.742
1017.90 0.7417
1018.00 0.7415
1018.10 0.7412
1018.20 0.7409
1018.30 0.7406
1018.40 0.7403
1018.50 0.74
1018.60 0.7398
1018.70 0.7395
1018.80 0.7392
1018.90 0.7389
1019.00 0.7386
1019.10 0.7384
1019.20 0.7381
1019.30 0.7378
1019.40 0.7375
1019.50 0.7372
1019.60 0.737
1019.70 0.7367
1019.80 0.7364
1019.90 0.7361
1020.00 0.7358
1020.10 0.7356
1020.20 0.7353
1020.30 0.735
1020.40 0.7347
1020.50 0.7345
1020.60 0.7342
1020.70 0.7339
1020.80 0.7336
1020.90 0.7333
1021.00 0.7331
1021.10 0.7328
1021.20 0.7325
1021.30 0.7322
1021.40 0.732
1021.50 0.7317
1021.60 0.7314
1021.70 0.7311
1021.80 0.7309
1021.90 0.7306
1022.00 0.7303
1022.10 0.73
1022.20 0.7298
1022.30 0.7295
1022.40 0.7292
1022.50 0.729
1022.60 0.7287
1022.70 0.7284
1022.80 0.7282
1022.90 0.7279
1023.00 0.7276
1023.10 0.7273
1023.20 0.7271
1023.30 0.7268
1023.40 0.7265
1023.50 0.7263
1023.60 0.726
1023.70 0.7257
1023.80 0.7255
1023.90 0.7252
1024.00 0.7249
1024.10 0.7247
1024.20 0.7244
1024.30 0.7241
1024.40 0.7239
1024.50 0.7236
1024.60 0.7233
1024.70 0.7231
1024.80 0.7228
1024.90 0.7225
1025.00 0.7223
1025.10 0.722
1025.20 0.7217
1025.30 0.7215
1025.40 0.7212
1025.50 0.7209
1025.60 0.7207
1025.70 0.7204
1025.80 0.7201
1025.90 0.7199
1026.00 0.7196
1026.10 0.7193
1026.20 0.7191
1026.30 0.7188
1026.40 0.7185
1026.50 0.7183
1026.60 0.718
1026.70 0.7177
1026.80 0.7175
1026.90 0.7172
1027.00 0.717
1027.10 0.7167
1027.20 0.7165
1027.30 0.7162
1027.40 0.7159
1027.50 0.7157
1027.60 0.7154
1027.70 0.7152
1027.80 0.7149
1027.90 0.7147
1028.00 0.7144
1028.10 0.7142
1028.20 0.7139
1028.30 0.7137
1028.40 0.7134
1028.50 0.7132
1028.60 0.7129
1028.70 0.7127
1028.80 0.7124
1028.90 0.7122
1029.00 0.7119
1029.10 0.7117
1029.20 0.7114
1029.30 0.7112
1029.40 0.7109
1029.50 0.7107
1029.60 0.7104
1029.70 0.7102
1029.80 0.7099
1029.90 0.7097
1030.00 0.7094
1030.10 0.7092
1030.20 0.7089
1030.30 0.7087
1030.40 0.7084
1030.50 0.7082
1030.60 0.7079
1030.70 0.7077
1030.80 0.7074
1030.90 0.7072
1031.00 0.7069
1031.10 0.7067
1031.20 0.7065
1031.30 0.7062
1031.40 0.706
1031.50 0.7057
1031.60 0.7055
1031.70 0.7052
1031.80 0.705
1031.90 0.7047
1032.00 0.7045
1032.10 0.7042
1032.20 0.704
1032.30 0.7038
1032.40 0.7035
1032.50 0.7033
1032.60 0.703
1032.70 0.7028
1032.80 0.7026
1032.90 0.7023
1033.00 0.7021
1033.10 0.7019
1033.20 0.7016
1033.30 0.7014
1033.40 0.7012
1033.50 0.7009
1033.60 0.7007
1033.70 0.7005
1033.80 0.7002
1033.90 0.7
1034.00 0.6997
1034.10 0.6995
1034.20 0.6993
1034.30 0.699
1034.40 0.6988
1034.50 0.6986
1034.60 0.6983
1034.70 0.6981
1034.80 0.6979
1034.90 0.6976
1035.00 0.6974
1035.10 0.6972
1035.20 0.6969
1035.30 0.6967
1035.40 0.6965
1035.50 0.6962
1035.60 0.696
1035.70 0.6958
1035.80 0.6955
1035.90 0.6953
1036.00 0.6951
1036.10 0.6948
1036.20 0.6946
1036.30 0.6944
1036.40 0.6941
1036.50 0.6939
1036.60 0.6937
1036.70 0.6934
1036.80 0.6932
1036.90 0.693
1037.00 0.6927
1037.10 0.6925
1037.20 0.6923
1037.30 0.6921
1037.40 0.6919
1037.50 0.6916
1037.60 0.6914
1037.70 0.6912
1037.80 0.691
1037.90 0.6908
1038.00 0.6905
1038.10 0.6903
1038.20 0.6901
1038.30 0.6899
1038.40 0.6897
1038.50 0.6894
1038.60 0.6892
1038.70 0.689
1038.80 0.6888
1038.90 0.6886
1039.00 0.6883
1039.10 0.6881
1039.20 0.6879
1039.30 0.6877
1039.40 0.6875
1039.50 0.6873
1039.60 0.687
1039.70 0.6868
1039.80 0.6866
1039.90 0.6864
1040.00 0.6862
1040.10 0.6859
1040.20 0.6857
1040.30 0.6855
1040.40 0.6853
1040.50 0.6851
1040.60 0.6849
1040.70 0.6846
1040.80 0.6844
1040.90 0.6842
1041.00 0.684
1041.10 0.6838
1041.20 0.6836
1041.30 0.6833
1041.40 0.6831
1041.50 0.6829
1041.60 0.6827
1041.70 0.6825
1041.80 0.6823
1041.90 0.682
1042.00 0.6818
1042.10 0.6816
1042.20 0.6814
1042.30 0.6812
1042.40 0.681
1042.50 0.6808
1042.60 0.6806
1042.70 0.6804
1042.80 0.6802
1042.90 0.68
1043.00 0.6798
1043.10 0.6796
1043.20 0.6794
1043.30 0.6792
1043.40 0.679
1043.50 0.6788
1043.60 0.6786
1043.70 0.6783
1043.80 0.6781
1043.90 0.6779
1044.00 0.6777
1044.10 0.6775
1044.20 0.6773
1044.30 0.6771
1044.40 0.6769
1044.50 0.6767
1044.60 0.6765
1044.70 0.6763
1044.80 0.6761
1044.90 0.6759
1045.00 0.6757
1045.10 0.6755
1045.20 0.6753
1045.30 0.6751
1045.40 0.6749
1045.50 0.6747
1045.60 0.6745
1045.70 0.6743
1045.80 0.6741
1045.90 0.6739
1046.00 0.6737
1046.10 0.6735
1046.20 0.6733
1046.30 0.6731
1046.40 0.6729
1046.50 0.6727
1046.60 0.6725
1046.70 0.6723
1046.80 0.6721
1046.90 0.6719
1047.00 0.6717
1047.10 0.6715
1047.20 0.6713
1047.30 0.6711
1047.40 0.6709
1047.50 0.6707
1047.60 0.6705
1047.70 0.6703
1047.80 0.6702
1047.90 0.67
1048.00 0.6698
1048.10 0.6696
1048.20 0.6694
1048.30 0.6692
1048.40 0.669
1048.50 0.6688
1048.60 0.6686
1048.70 0.6685
1048.80 0.6683
1048.90 0.6681
1049.00 0.6679
1049.10 0.6677
1049.20 0.6675
1049.30 0.6673
1049.40 0.6671
1049.50 0.667
1049.60 0.6668
1049.70 0.6666
1049.80 0.6664
1049.90 0.6662
1050.00 0.666
1050.10 0.6658
1050.20 0.6656
1050.30 0.6655
1050.40 0.6653
1050.50 0.6651
1050.60 0.6649
1050.70 0.6647
1050.80 0.6645
1050.90 0.6643
1051.00 0.6642
1051.10 0.664
1051.20 0.6638
1051.30 0.6636
1051.40 0.6634
1051.50 0.6632
1051.60 0.663
1051.70 0.6628
1051.80 0.6627
1051.90 0.6625
1052.00 0.6623
1052.10 0.6621
1052.20 0.6619
1052.30 0.6618
1052.40 0.6616
1052.50 0.6614
1052.60 0.6612
1052.70 0.6611
1052.80 0.6609
1052.90 0.6607
1053.00 0.6606
1053.10 0.6604
1053.20 0.6602
1053.30 0.66
1053.40 0.6599
1053.50 0.6597
1053.60 0.6595
1053.70 0.6593
1053.80 0.6592
1053.90 0.659
1054.00 0.6588
1054.10 0.6587
1054.20 0.6585
1054.30 0.6583
1054.40 0.6581
1054.50 0.658
1054.60 0.6578
1054.70 0.6576
1054.80 0.6574
1054.90 0.6573
1055.00 0.6571
1055.10 0.6569
1055.20 0.6568
1055.30 0.6566
1055.40 0.6564
1055.50 0.6562
1055.60 0.6561
1055.70 0.6559
1055.80 0.6557
1055.90 0.6556
1056.00 0.6554
1056.10 0.6552
1056.20 0.655
1056.30 0.6549
1056.40 0.6547
1056.50 0.6545
1056.60 0.6544
1056.70 0.6542
1056.80 0.654
1056.90 0.6538
1057.00 0.6537
1057.10 0.6535
1057.20 0.6534
1057.30 0.6532
1057.40 0.653
1057.50 0.6529
1057.60 0.6527
1057.70 0.6526
1057.80 0.6524
1057.90 0.6522
1058.00 0.6521
1058.10 0.6519
1058.20 0.6518
1058.30 0.6516
1058.40 0.6515
1058.50 0.6513
1058.60 0.6511
1058.70 0.651
1058.80 0.6508
1058.90 0.6507
1059.00 0.6505
1059.10 0.6503
1059.20 0.6502
1059.30 0.65
1059.40 0.6499
1059.50 0.6497
1059.60 0.6496
1059.70 0.6494
1059.80 0.6492
1059.90 0.6491
1060.00 0.6489
1060.10 0.6488
1060.20 0.6486
1060.30 0.6485
1060.40 0.6483
1060.50 0.6481
1060.60 0.648
1060.70 0.6478
1060.80 0.6477
1060.90 0.6475
1061.00 0.6474
1061.10 0.6472
1061.20 0.647
1061.30 0.6469
1061.40 0.6467
1061.50 0.6466
1061.60 0.6464
1061.70 0.6463
1061.80 0.6461
1061.90 0.646
1062.00 0.6458
1062.10 0.6457
1062.20 0.6455
1062.30 0.6454
1062.40 0.6452
1062.50 0.6451
1062.60 0.6449
1062.70 0.6448
1062.80 0.6446
1062.90 0.6445
1063.00 0.6443
1063.10 0.6442
1063.20 0.644
1063.30 0.6439
1063.40 0.6438
1063.50 0.6436
1063.60 0.6435
1063.70 0.6433
1063.80 0.6432
1063.90 0.643
1064.00 0.6429
1064.10 0.6427
1064.20 0.6426
1064.30 0.6425
1064.40 0.6423
1064.50 0.6422
1064.60 0.642
1064.70 0.6419
1064.80 0.6417
1064.90 0.6416
1065.00 0.6414
1065.10 0.6413
1065.20 0.6411
1065.30 0.641
1065.40 0.6409
1065.50 0.6407
1065.60 0.6406
1065.70 0.6404
1065.80 0.6403
1065.90 0.6401
1066.00 0.64
1066.10 0.6399
1066.20 0.6397
1066.30 0.6396
1066.40 0.6394
1066.50 0.6393
1066.60 0.6391
1066.70 0.639
1066.80 0.6388
1066.90 0.6387
1067.00 0.6386
1067.10 0.6384
1067.20 0.6383
1067.30 0.6382
1067.40 0.638
1067.50 0.6379
1067.60 0.6378
1067.70 0.6376
1067.80 0.6375
1067.90 0.6374
1068.00 0.6372
1068.10 0.6371
1068.20 0.637
1068.30 0.6368
1068.40 0.6367
1068.50 0.6366
1068.60 0.6365
1068.70 0.6363
1068.80 0.6362
1068.90 0.6361
1069.00 0.6359
1069.10 0.6358
1069.20 0.6357
1069.30 0.6355
1069.40 0.6354
1069.50 0.6353
1069.60 0.6351
1069.70 0.635
1069.80 0.6349
1069.90 0.6348
1070.00 0.6346
1070.10 0.6345
1070.20 0.6344
1070.30 0.6342
1070.40 0.6341
1070.50 0.634
1070.60 0.6338
1070.70 0.6337
1070.80 0.6336
1070.90 0.6334
1071.00 0.6333
1071.10 0.6332
1071.20 0.6331
1071.30 0.6329
1071.40 0.6328
1071.50 0.6327
1071.60 0.6325
1071.70 0.6324
1071.80 0.6323
1071.90 0.6321
1072.00 0.632
1072.10 0.6319
1072.20 0.6318
1072.30 0.6316
1072.40 0.6315
1072.50 0.6314
1072.60 0.6313
1072.70 0.6312
1072.80 0.631
1072.90 0.6309
1073.00 0.6308
1073.10 0.6307
1073.20 0.6305
1073.30 0.6304
1073.40 0.6303
1073.50 0.6302
1073.60 0.63
1073.70 0.6299
1073.80 0.6298
1073.90 0.6297
1074.00 0.6296
1074.10 0.6294
1074.20 0.6293
1074.30 0.6292
1074.40 0.6291
1074.50 0.6289
1074.60 0.6288
1074.70 0.6287
1074.80 0.6286
1074.90 0.6285
1075.00 0.6283
1075.10 0.6282
1075.20 0.6281
1075.30 0.628
1075.40 0.6278
1075.50 0.6277
1075.60 0.6276
1075.70 0.6275
1075.80 0.6274
1075.90 0.6272
1076.00 0.6271
1076.10 0.627
1076.20 0.6269
1076.30 0.6268
1076.40 0.6266
1076.50 0.6265
1076.60 0.6264
1076.70 0.6263
1076.80 0.6262
1076.90 0.626
1077.00 0.6259
1077.10 0.6258
1077.20 0.6257
1077.30 0.6256
1077.40 0.6254
1077.50 0.6253
1077.60 0.6252
1077.70 0.6251
1077.80 0.625
1077.90 0.6249
1078.00 0.6247
1078.10 0.6246
1078.20 0.6245
1078.30 0.6244
1078.40 0.6243
1078.50 0.6242
1078.60 0.6241
1078.70 0.6239
1078.80 0.6238
1078.90 0.6237
1079.00 0.6236
1079.10 0.6235
1079.20 0.6234
1079.30 0.6232
1079.40 0.6231
1079.50 0.623
1079.60 0.6229
1079.70 0.6228
1079.80 0.6227
1079.90 0.6226
1080.00 0.6225
1080.10 0.6224
1080.20 0.6223
1080.30 0.6221
1080.40 0.622
1080.50 0.6219
1080.60 0.6218
1080.70 0.6217
1080.80 0.6216
1080.90 0.6215
1081.00 0.6214
1081.10 0.6213
1081.20 0.6212
1081.30 0.6211
1081.40 0.6209
1081.50 0.6208
1081.60 0.6207
1081.70 0.6206
1081.80 0.6205
1081.90 0.6204
1082.00 0.6203
1082.10 0.6202
1082.20 0.6201
1082.30 0.62
1082.40 0.6199
1082.50 0.6198
1082.60 0.6197
1082.70 0.6195
1082.80 0.6194
1082.90 0.6193
1083.00 0.6192
1083.10 0.6191
1083.20 0.619
1083.30 0.6189
1083.40 0.6188
1083.50 0.6187
1083.60 0.6186
1083.70 0.6185
1083.80 0.6184
1083.90 0.6183
1084.00 0.6181
1084.10 0.618
1084.20 0.6179
1084.30 0.6178
1084.40 0.6177
1084.50 0.6176
1084.60 0.6175
1084.70 0.6174
1084.80 0.6173
1084.90 0.6172
1085.00 0.6171
1085.10 0.617
1085.20 0.6169
1085.30 0.6168
1085.40 0.6167
1085.50 0.6166
1085.60 0.6165
1085.70 0.6164
1085.80 0.6162
1085.90 0.6161
1086.00 0.616
1086.10 0.6159
1086.20 0.6158
1086.30 0.6157
1086.40 0.6156
1086.50 0.6155
1086.60 0.6154
1086.70 0.6153
1086.80 0.6152
1086.90 0.6151
1087.00 0.615
1087.10 0.6149
1087.20 0.6148
1087.30 0.6147
1087.40 0.6146
1087.50 0.6145
1087.60 0.6144
1087.70 0.6143
1087.80 0.6142
1087.90 0.6141
1088.00 0.614
1088.10 0.6139
1088.20 0.6138
1088.30 0.6137
1088.40 0.6136
1088.50 0.6135
1088.60 0.6134
1088.70 0.6133
1088.80 0.6132
1088.90 0.6131
1089.00 0.613
1089.10 0.6129
1089.20 0.6128
1089.30 0.6127
1089.40 0.6126
1089.50 0.6125
1089.60 0.6124
1089.70 0.6123
1089.80 0.6122
1089.90 0.6121
1090.00 0.612
1090.10 0.6119
1090.20 0.6118
1090.30 0.6117
1090.40 0.6116
1090.50 0.6115
1090.60 0.6114
1090.70 0.6113
1090.80 0.6112
1090.90 0.6111
1091.00 0.611
1091.10 0.6109
1091.20 0.6108
1091.30 0.6107
1091.40 0.6106
1091.50 0.6105
1091.60 0.6104
1091.70 0.6104
1091.80 0.6103
1091.90 0.6102
1092.00 0.6101
1092.10 0.61
1092.20 0.6099
1092.30 0.6098
1092.40 0.6097
1092.50 0.6096
1092.60 0.6095
1092.70 0.6094
1092.80 0.6093
1092.90 0.6093
1093.00 0.6092
1093.10 0.6091
1093.20 0.609
1093.30 0.6089
1093.40 0.6088
1093.50 0.6088
1093.60 0.6086
1093.70 0.6085
1093.80 0.6085
1093.90 0.6084
1094.00 0.6083
1094.10 0.6082
1094.20 0.6081
1094.30 0.608
1094.40 0.6079
1094.50 0.6078
1094.60 0.6077
1094.70 0.6076
1094.80 0.6075
1094.90 0.6074
1095.00 0.6073
1095.10 0.6073
1095.20 0.6072
1095.30 0.6071
1095.40 0.607
1095.50 0.6069
1095.60 0.6068
1095.70 0.6067
1095.80 0.6066
1095.90 0.6065
1096.00 0.6064
1096.10 0.6063
1096.20 0.6062
1096.30 0.6061
1096.40 0.6061
1096.50 0.606
1096.60 0.6059
1096.70 0.6058
1096.80 0.6057
1096.90 0.6056
1097.00 0.6055
1097.10 0.6054
1097.20 0.6053
1097.30 0.6053
1097.40 0.6052
1097.50 0.6051
1097.60 0.605
1097.70 0.6049
1097.80 0.6048
1097.90 0.6047
1098.00 0.6046
1098.10 0.6045
1098.20 0.6044
1098.30 0.6043
1098.40 0.6043
1098.50 0.6042
1098.60 0.6041
1098.70 0.604
1098.80 0.6039
1098.90 0.6038
1099.00 0.6037
1099.10 0.6036
1099.20 0.6035
1099.30 0.6035
1099.40 0.6034
1099.50 0.6033
1099.60 0.6032
1099.70 0.6031
1099.80 0.603
1099.90 0.6029
1100.00 0.6028
1100.10 0.6027
1100.20 0.6026
1100.30 0.6026
1100.40 0.6025
1100.50 0.6024
1100.60 0.6023
1100.70 0.6022
1100.80 0.6021
1100.90 0.602
1101.00 0.6019
1101.10 0.6018
1101.20 0.6018
1101.30 0.6017
1101.40 0.6016
1101.50 0.6015
1101.60 0.6014
1101.70 0.6013
1101.80 0.6012
1101.90 0.6011
1102.00 0.6011
1102.10 0.601
1102.20 0.6009
1102.30 0.6008
1102.40 0.6007
1102.50 0.6006
1102.60 0.6005
1102.70 0.6005
1102.80 0.6004
1102.90 0.6003
1103.00 0.6002
1103.10 0.6001
1103.20 0.6
1103.30 0.5999
1103.40 0.5998
1103.50 0.5998
1103.60 0.5997
1103.70 0.5996
1103.80 0.5995
1103.90 0.5994
1104.00 0.5993
1104.10 0.5993
1104.20 0.5992
1104.30 0.5991
1104.40 0.599
1104.50 0.5989
1104.60 0.5988
1104.70 0.5988
1104.80 0.5987
1104.90 0.5986
1105.00 0.5985
1105.10 0.5984
1105.20 0.5984
1105.30 0.5983
1105.40 0.5982
1105.50 0.5981
1105.60 0.598
1105.70 0.5979
1105.80 0.5978
1105.90 0.5978
1106.00 0.5977
1106.10 0.5976
1106.20 0.5975
1106.30 0.5974
1106.40 0.5973
1106.50 0.5973
1106.60 0.5972
1106.70 0.5971
1106.80 0.597
1106.90 0.5969
1107.00 0.5968
1107.10 0.5968
1107.20 0.5967
1107.30 0.5966
1107.40 0.5965
1107.50 0.5964
1107.60 0.5963
1107.70 0.5963
1107.80 0.5962
1107.90 0.5961
1108.00 0.596
1108.10 0.5959
1108.20 0.5958
1108.30 0.5958
1108.40 0.5957
1108.50 0.5956
1108.60 0.5955
1108.70 0.5954
1108.80 0.5953
1108.90 0.5953
1109.00 0.5952
1109.10 0.5951
1109.20 0.595
1109.30 0.5949
1109.40 0.5948
1109.50 0.5948
1109.60 0.5947
1109.70 0.5946
1109.80 0.5945
1109.90 0.5944
1110.00 0.5943
1110.10 0.5943
1110.20 0.5942
1110.30 0.5941
1110.40 0.594
1110.50 0.5939
1110.60 0.5939
1110.70 0.5938
1110.80 0.5937
1110.90 0.5936
1111.00 0.5935
1111.10 0.5934
1111.20 0.5934
1111.30 0.5933
1111.40 0.5932
1111.50 0.5931
1111.60 0.593
1111.70 0.593
1111.80 0.5929
1111.90 0.5928
1112.00 0.5927
1112.10 0.5926
1112.20 0.5925
1112.30 0.5925
1112.40 0.5924
1112.50 0.5923
1112.60 0.5922
1112.70 0.5921
1112.80 0.592
1112.90 0.592
1113.00 0.5919
1113.10 0.5918
1113.20 0.5917
1113.30 0.5916
1113.40 0.5916
1113.50 0.5915
1113.60 0.5914
1113.70 0.5913
1113.80 0.5912
1113.90 0.5912
1114.00 0.5911
1114.10 0.591
1114.20 0.5909
1114.30 0.5908
1114.40 0.5907
1114.50 0.5907
1114.60 0.5906
1114.70 0.5905
1114.80 0.5904
1114.90 0.5903
1115.00 0.5903
1115.10 0.5902
1115.20 0.5901
1115.30 0.59
1115.40 0.5899
1115.50 0.5899
1115.60 0.5898
1115.70 0.5897
1115.80 0.5896
1115.90 0.5895
1116.00 0.5895
1116.10 0.5894
1116.20 0.5893
1116.30 0.5892
1116.40 0.5891
1116.50 0.5891
1116.60 0.589
1116.70 0.5889
1116.80 0.5888
1116.90 0.5887
1117.00 0.5887
1117.10 0.5886
1117.20 0.5885
1117.30 0.5884
1117.40 0.5884
1117.50 0.5883
1117.60 0.5882
1117.70 0.5881
1117.80 0.588
1117.90 0.588
1118.00 0.5879
1118.10 0.5878
1118.20 0.5877
1118.30 0.5877
1118.40 0.5876
1118.50 0.5875
1118.60 0.5874
1118.70 0.5873
1118.80 0.5873
1118.90 0.5872
1119.00 0.5871
1119.10 0.587
1119.20 0.587
1119.30 0.5869
1119.40 0.5868
1119.50 0.5867
1119.60 0.5866
1119.70 0.5866
1119.80 0.5865
1119.90 0.5864
1120.00 0.5863
1120.10 0.5863
1120.20 0.5862
1120.30 0.5861
1120.40 0.586
1120.50 0.5859
1120.60 0.5859
1120.70 0.5858
1120.80 0.5857
1120.90 0.5856
1121.00 0.5856
1121.10 0.5855
1121.20 0.5854
1121.30 0.5853
1121.40 0.5853
1121.50 0.5852
1121.60 0.5851
1121.70 0.585
1121.80 0.5849
1121.90 0.5849
1122.00 0.5848
1122.10 0.5847
1122.20 0.5846
1122.30 0.5846
1122.40 0.5845
1122.50 0.5844
1122.60 0.5843
1122.70 0.5842
1122.80 0.5842
1122.90 0.5841
1123.00 0.584
1123.10 0.5839
1123.20 0.5838
1123.30 0.5838
1123.40 0.5837
1123.50 0.5836
1123.60 0.5835
1123.70 0.5835
1123.80 0.5834
1123.90 0.5833
1124.00 0.5832
1124.10 0.5831
1124.20 0.5831
1124.30 0.583
1124.40 0.5829
1124.50 0.5828
1124.60 0.5828
1124.70 0.5827
1124.80 0.5826
1124.90 0.5825
1125.00 0.5824
1125.10 0.5824
1125.20 0.5823
1125.30 0.5822
1125.40 0.5821
1125.50 0.5821
1125.60 0.582
1125.70 0.5819
1125.80 0.5818
1125.90 0.5817
1126.00 0.5817
1126.10 0.5816
1126.20 0.5815
1126.30 0.5814
1126.40 0.5814
1126.50 0.5813
1126.60 0.5812
1126.70 0.5811
1126.80 0.581
1126.90 0.581
1127.00 0.5809
1127.10 0.5808
1127.20 0.5807
1127.30 0.5807
1127.40 0.5806
1127.50 0.5805
1127.60 0.5804
1127.70 0.5804
1127.80 0.5803
1127.90 0.5802
1128.00 0.5801
1128.10 0.58
1128.20 0.58
1128.30 0.5799
1128.40 0.5798
1128.50 0.5797
1128.60 0.5797
1128.70 0.5796
1128.80 0.5795
1128.90 0.5794
1129.00 0.5794
1129.10 0.5793
1129.20 0.5792
1129.30 0.5791
1129.40 0.5791
1129.50 0.579
1129.60 0.5789
1129.70 0.5788
1129.80 0.5788
1129.90 0.5787
1130.00 0.5786
1130.10 0.5785
1130.20 0.5785
1130.30 0.5784
1130.40 0.5783
1130.50 0.5782
1130.60 0.5782
1130.70 0.5781
1130.80 0.578
1130.90 0.5779
1131.00 0.5779
1131.10 0.5778
1131.20 0.5777
1131.30 0.5776
1131.40 0.5776
1131.50 0.5775
1131.60 0.5774
1131.70 0.5773
1131.80 0.5773
1131.90 0.5772
1132.00 0.5771
1132.10 0.577
1132.20 0.5769
1132.30 0.5769
1132.40 0.5768
1132.50 0.5767
1132.60 0.5766
1132.70 0.5765
1132.80 0.5765
1132.90 0.5764
1133.00 0.5763
1133.10 0.5762
1133.20 0.5761
1133.30 0.5761
1133.40 0.576
1133.50 0.5759
1133.60 0.5758
1133.70 0.5757
1133.80 0.5757
1133.90 0.5756
1134.00 0.5755
1134.10 0.5754
1134.20 0.5753
1134.30 0.5753
1134.40 0.5752
1134.50 0.5751
1134.60 0.575
1134.70 0.5749
1134.80 0.5749
1134.90 0.5748
1135.00 0.5747
1135.10 0.5746
1135.20 0.5745
1135.30 0.5745
1135.40 0.5744
1135.50 0.5743
1135.60 0.5742
1135.70 0.5741
1135.80 0.5741
1135.90 0.574
1136.00 0.5739
1136.10 0.5738
1136.20 0.5737
1136.30 0.5737
1136.40 0.5736
1136.50 0.5735
1136.60 0.5734
1136.70 0.5733
1136.80 0.5733
1136.90 0.5732
1137.00 0.5731
1137.10 0.573
1137.20 0.5729
1137.30 0.5728
1137.40 0.5728
1137.50 0.5727
1137.60 0.5726
1137.70 0.5725
1137.80 0.5724
1137.90 0.5723
1138.00 0.5723
1138.10 0.5722
1138.20 0.5721
1138.30 0.572
1138.40 0.5719
1138.50 0.5718
1138.60 0.5718
1138.70 0.5717
1138.80 0.5716
1138.90 0.5715
1139.00 0.5714
1139.10 0.5713
1139.20 0.5713
1139.30 0.5712
1139.40 0.5711
1139.50 0.571
1139.60 0.5709
1139.70 0.5709
1139.80 0.5708
1139.90 0.5707
1140.00 0.5706
1140.10 0.5705
1140.20 0.5704
1140.30 0.5704
1140.40 0.5703
1140.50 0.5702
1140.60 0.5701
1140.70 0.57
1140.80 0.5699
1140.90 0.5699
1141.00 0.5698
1141.10 0.5697
1141.20 0.5696
1141.30 0.5695
1141.40 0.5694
1141.50 0.5694
1141.60 0.5693
1141.70 0.5692
1141.80 0.5691
1141.90 0.569
1142.00 0.569
1142.10 0.5689
1142.20 0.5688
1142.30 0.5687
1142.40 0.5686
1142.50 0.5685
1142.60 0.5684
1142.70 0.5684
1142.80 0.5683
1142.90 0.5682
1143.00 0.5681
1143.10 0.568
1143.20 0.5679
1143.30 0.5679
1143.40 0.5678
1143.50 0.5677
1143.60 0.5676
1143.70 0.5675
1143.80 0.5674
1143.90 0.5674
1144.00 0.5673
1144.10 0.5672
1144.20 0.5671
1144.30 0.567
1144.40 0.5669
1144.50 0.5669
1144.60 0.5668
1144.70 0.5667
1144.80 0.5666
1144.90 0.5665
1145.00 0.5664
1145.10 0.5664
1145.20 0.5663
1145.30 0.5662
1145.40 0.5661
1145.50 0.566
1145.60 0.5659
1145.70 0.5659
1145.80 0.5658
1145.90 0.5657
1146.00 0.5656
1146.10 0.5655
1146.20 0.5654
1146.30 0.5654
1146.40 0.5653
1146.50 0.5652
1146.60 0.5651
1146.70 0.565
1146.80 0.5649
1146.90 0.5649
1147.00 0.5648
1147.10 0.5647
1147.20 0.5646
1147.30 0.5645
1147.40 0.5644
1147.50 0.5643
1147.60 0.5643
1147.70 0.5642
1147.80 0.5641
1147.90 0.564
1148.00 0.5639
1148.10 0.5638
1148.20 0.5637
1148.30 0.5636
1148.40 0.5636
1148.50 0.5635
1148.60 0.5634
1148.70 0.5633
1148.80 0.5632
1148.90 0.5631
1149.00 0.563
1149.10 0.5629
1149.20 0.5629
1149.30 0.5628
1149.40 0.5627
1149.50 0.5626
1149.60 0.5625
1149.70 0.5624
1149.80 0.5623
1149.90 0.5622
1150.00 0.5622
1150.10 0.5621
1150.20 0.562
1150.30 0.5619
1150.40 0.5618
1150.50 0.5617
1150.60 0.5616
1150.70 0.5615
1150.80 0.5615
1150.90 0.5614
1151.00 0.5613
1151.10 0.5612
1151.20 0.5611
1151.30 0.561
1151.40 0.5609
1151.50 0.5608
1151.60 0.5608
1151.70 0.5607
1151.80 0.5606
1151.90 0.5605
1152.00 0.5604
1152.10 0.5603
1152.20 0.5602
1152.30 0.5601
1152.40 0.56
1152.50 0.56
1152.60 0.5599
1152.70 0.5598
1152.80 0.5597
1152.90 0.5596
1153.00 0.5595
1153.10 0.5594
1153.20 0.5593
1153.30 0.5592
1153.40 0.5592
1153.50 0.5591
1153.60 0.559
1153.70 0.5589
1153.80 0.5588
1153.90 0.5587
1154.00 0.5586
1154.10 0.5585
1154.20 0.5584
1154.30 0.5583
1154.40 0.5583
1154.50 0.5582
1154.60 0.5581
1154.70 0.558
1154.80 0.5579
1154.90 0.5578
1155.00 0.5577
1155.10 0.5576
1155.20 0.5575
1155.30 0.5575
1155.40 0.5574
1155.50 0.5573
1155.60 0.5572
1155.70 0.5571
1155.80 0.557
1155.90 0.5569
1156.00 0.5568
1156.10 0.5567
1156.20 0.5567
1156.30 0.5566
1156.40 0.5565
1156.50 0.5564
1156.60 0.5563
1156.70 0.5562
1156.80 0.5561
1156.90 0.556
1157.00 0.5559
1157.10 0.5558
1157.20 0.5557
1157.30 0.5557
1157.40 0.5556
1157.50 0.5555
1157.60 0.5554
1157.70 0.5553
1157.80 0.5552
1157.90 0.5551
1158.00 0.555
1158.10 0.5549
1158.20 0.5548
1158.30 0.5547
1158.40 0.5546
1158.50 0.5545
1158.60 0.5544
1158.70 0.5543
1158.80 0.5542
1158.90 0.5541
1159.00 0.554
1159.10 0.5539
1159.20 0.5538
1159.30 0.5538
1159.40 0.5537
1159.50 0.5536
1159.60 0.5535
1159.70 0.5534
1159.80 0.5533
1159.90 0.5532
1160.00 0.5531
1160.10 0.553
1160.20 0.5529
1160.30 0.5528
1160.40 0.5527
1160.50 0.5526
1160.60 0.5525
1160.70 0.5524
1160.80 0.5523
1160.90 0.5522
1161.00 0.5521
1161.10 0.552
1161.20 0.552
1161.30 0.5519
1161.40 0.5518
1161.50 0.5517
1161.60 0.5516
1161.70 0.5515
1161.80 0.5514
1161.90 0.5513
1162.00 0.5512
1162.10 0.5511
1162.20 0.551
1162.30 0.5509
1162.40 0.5508
1162.50 0.5507
1162.60 0.5506
1162.70 0.5505
1162.80 0.5504
1162.90 0.5503
1163.00 0.5502
1163.10 0.5501
1163.20 0.55
1163.30 0.5499
1163.40 0.5498
1163.50 0.5497
1163.60 0.5496
1163.70 0.5495
1163.80 0.5494
1163.90 0.5493
1164.00 0.5492
1164.10 0.5491
1164.20 0.549
1164.30 0.5489
1164.40 0.5488
1164.50 0.5487
1164.60 0.5486
1164.70 0.5485
1164.80 0.5484
1164.90 0.5483
1165.00 0.5482
1165.10 0.5481
1165.20 0.548
1165.30 0.5479
1165.40 0.5478
1165.50 0.5477
1165.60 0.5476
1165.70 0.5475
1165.80 0.5474
1165.90 0.5473
1166.00 0.5472
1166.10 0.5471
1166.20 0.547
1166.30 0.5469
1166.40 0.5468
1166.50 0.5467
1166.60 0.5466
1166.70 0.5465
1166.80 0.5464
1166.90 0.5463
1167.00 0.5462
1167.10 0.5461
1167.20 0.546
1167.30 0.5459
1167.40 0.5458
1167.50 0.5457
1167.60 0.5456
1167.70 0.5455
1167.80 0.5454
1167.90 0.5453
1168.00 0.5452
1168.10 0.5451
1168.20 0.545
1168.30 0.5449
1168.40 0.5448
1168.50 0.5447
1168.60 0.5446
1168.70 0.5445
1168.80 0.5444
1168.90 0.5443
1169.00 0.5442
1169.10 0.5441
1169.20 0.544
1169.30 0.5439
1169.40 0.5438
1169.50 0.5437
1169.60 0.5436
1169.70 0.5435
1169.80 0.5434
1169.90 0.5433
1170.00 0.5432
1170.10 0.5431
1170.20 0.543
1170.30 0.5429
1170.40 0.5428
1170.50 0.5427
1170.60 0.5425
1170.70 0.5424
1170.80 0.5423
1170.90 0.5422
1171.00 0.5421
1171.10 0.542
1171.20 0.5419
1171.30 0.5418
1171.40 0.5417
1171.50 0.5416
1171.60 0.5415
1171.70 0.5414
1171.80 0.5413
1171.90 0.5412
1172.00 0.5411
1172.10 0.541
1172.20 0.5409
1172.30 0.5408
1172.40 0.5407
1172.50 0.5406
1172.60 0.5405
1172.70 0.5404
1172.80 0.5403
1172.90 0.5402
1173.00 0.5401
1173.10 0.5399
1173.20 0.5398
1173.30 0.5397
1173.40 0.5396
1173.50 0.5395
1173.60 0.5394
1173.70 0.5393
1173.80 0.5392
1173.90 0.5391
1174.00 0.539
1174.10 0.5389
1174.20 0.5388
1174.30 0.5387
1174.40 0.5386
1174.50 0.5384
1174.60 0.5383
1174.70 0.5382
1174.80 0.5381
1174.90 0.538
1175.00 0.5379
1175.10 0.5378
1175.20 0.5377
1175.30 0.5376
1175.40 0.5375
1175.50 0.5374
1175.60 0.5373
1175.70 0.5372
1175.80 0.5371
1175.90 0.537
1176.00 0.5369
1176.10 0.5367
1176.20 0.5366
1176.30 0.5365
1176.40 0.5364
1176.50 0.5363
1176.60 0.5362
1176.70 0.5361
1176.80 0.536
1176.90 0.5359
1177.00 0.5358
1177.10 0.5357
1177.20 0.5356
1177.30 0.5355
1177.40 0.5354
1177.50 0.5352
1177.60 0.5351
1177.70 0.535
1177.80 0.5349
1177.90 0.5348
1178.00 0.5347
1178.10 0.5346
1178.20 0.5345
1178.30 0.5344
1178.40 0.5343
1178.50 0.5342
1178.60 0.534
1178.70 0.5339
1178.80 0.5338
1178.90 0.5337
1179.00 0.5336
1179.10 0.5335
1179.20 0.5334
1179.30 0.5333
1179.40 0.5332
1179.50 0.5331
1179.60 0.533
1179.70 0.5329
1179.80 0.5327
1179.90 0.5326
1180.00 0.5325
1180.10 0.5324
1180.20 0.5323
1180.30 0.5322
1180.40 0.5321
1180.50 0.532
1180.60 0.5319
1180.70 0.5318
1180.80 0.5317
1180.90 0.5315
1181.00 0.5314
1181.10 0.5313
1181.20 0.5312
1181.30 0.5311
1181.40 0.531
1181.50 0.5309
1181.60 0.5308
1181.70 0.5307
1181.80 0.5306
1181.90 0.5305
1182.00 0.5304
1182.10 0.5302
1182.20 0.5301
1182.30 0.53
1182.40 0.5299
1182.50 0.5298
1182.60 0.5297
1182.70 0.5296
1182.80 0.5294
1182.90 0.5293
1183.00 0.5292
1183.10 0.5291
1183.20 0.529
1183.30 0.5289
1183.40 0.5288
1183.50 0.5286
1183.60 0.5285
1183.70 0.5284
1183.80 0.5283
1183.90 0.5282
1184.00 0.5281
1184.10 0.528
1184.20 0.5279
1184.30 0.5277
1184.40 0.5276
1184.50 0.5275
1184.60 0.5274
1184.70 0.5273
1184.80 0.5272
1184.90 0.5271
1185.00 0.5269
1185.10 0.5268
1185.20 0.5267
1185.30 0.5266
1185.40 0.5265
1185.50 0.5264
1185.60 0.5263
1185.70 0.5262
1185.80 0.526
1185.90 0.5259
1186.00 0.5258
1186.10 0.5257
1186.20 0.5256
1186.30 0.5255
1186.40 0.5254
1186.50 0.5253
1186.60 0.5251
1186.70 0.525
1186.80 0.5249
1186.90 0.5248
1187.00 0.5247
1187.10 0.5246
1187.20 0.5245
1187.30 0.5243
1187.40 0.5242
1187.50 0.5241
1187.60 0.524
1187.70 0.5239
1187.80 0.5238
1187.90 0.5237
1188.00 0.5235
1188.10 0.5234
1188.20 0.5233
1188.30 0.5232
1188.40 0.5231
1188.50 0.523
1188.60 0.5229
1188.70 0.5228
1188.80 0.5226
1188.90 0.5225
1189.00 0.5224
1189.10 0.5223
1189.20 0.5222
1189.30 0.5221
1189.40 0.522
1189.50 0.5218
1189.60 0.5217
1189.70 0.5216
1189.80 0.5215
1189.90 0.5214
1190.00 0.5213
1190.10 0.5212
1190.20 0.5211
1190.30 0.5209
1190.40 0.5208
1190.50 0.5207
1190.60 0.5206
1190.70 0.5205
1190.80 0.5204
1190.90 0.5203
1191.00 0.5201
1191.10 0.52
1191.20 0.5199
1191.30 0.5198
1191.40 0.5197
1191.50 0.5196
1191.60 0.5195
1191.70 0.5194
1191.80 0.5192
1191.90 0.5191
1192.00 0.519
1192.10 0.5189
1192.20 0.5188
1192.30 0.5187
1192.40 0.5186
1192.50 0.5184
1192.60 0.5183
1192.70 0.5182
1192.80 0.5181
1192.90 0.518
1193.00 0.5179
1193.10 0.5178
1193.20 0.5176
1193.30 0.5175
1193.40 0.5174
1193.50 0.5173
1193.60 0.5172
1193.70 0.5171
1193.80 0.5169
1193.90 0.5168
1194.00 0.5167
1194.10 0.5166
1194.20 0.5165
1194.30 0.5164
1194.40 0.5163
1194.50 0.5161
1194.60 0.516
1194.70 0.5159
1194.80 0.5158
1194.90 0.5157
1195.00 0.5156
1195.10 0.5155
1195.20 0.5153
1195.30 0.5152
1195.40 0.5151
1195.50 0.515
1195.60 0.5149
1195.70 0.5148
1195.80 0.5147
1195.90 0.5145
1196.00 0.5144
1196.10 0.5143
1196.20 0.5142
1196.30 0.5141
1196.40 0.514
1196.50 0.5139
1196.60 0.5137
1196.70 0.5136
1196.80 0.5135
1196.90 0.5134
1197.00 0.5133
1197.10 0.5132
1197.20 0.5131
1197.30 0.5129
1197.40 0.5128
1197.50 0.5127
1197.60 0.5126
1197.70 0.5125
1197.80 0.5123
1197.90 0.5122
1198.00 0.5121
1198.10 0.512
1198.20 0.5119
1198.30 0.5118
1198.40 0.5116
1198.50 0.5115
1198.60 0.5114
1198.70 0.5113
1198.80 0.5112
1198.90 0.511
1199.00 0.5109
1199.10 0.5108
1199.20 0.5107
1199.30 0.5106
1199.40 0.5105
1199.50 0.5103
1199.60 0.5102
1199.70 0.5101
1199.80 0.51
1199.90 0.5099
1200.00 0
