# Version 2.1 - nm, norm@500 to 1, cut digits, bergeron_3500_85.dat_3500
# Wavelength(nm)  Flambda(ergs/cm^s/s/nm)
300.00 0.1481
300.10 0.1484
300.20 0.1487
300.30 0.149
300.40 0.1493
300.50 0.1496
300.60 0.1499
300.70 0.1502
300.80 0.1505
300.90 0.1508
301.00 0.1511
301.10 0.1514
301.20 0.1517
301.30 0.152
301.40 0.1523
301.50 0.1526
301.60 0.1529
301.70 0.1532
301.80 0.1535
301.90 0.1538
302.00 0.1541
302.10 0.1544
302.20 0.1547
302.30 0.155
302.40 0.1553
302.50 0.1556
302.60 0.156
302.70 0.1563
302.80 0.1566
302.90 0.1569
303.00 0.1572
303.10 0.1575
303.20 0.1578
303.30 0.1581
303.40 0.1584
303.50 0.1587
303.60 0.159
303.70 0.1593
303.80 0.1596
303.90 0.16
304.00 0.1603
304.10 0.1606
304.20 0.1609
304.30 0.1612
304.40 0.1615
304.50 0.1618
304.60 0.1622
304.70 0.1625
304.80 0.1628
304.90 0.1631
305.00 0.1634
305.10 0.1637
305.20 0.164
305.30 0.1644
305.40 0.1647
305.50 0.165
305.60 0.1653
305.70 0.1656
305.80 0.1659
305.90 0.1662
306.00 0.1666
306.10 0.1669
306.20 0.1672
306.30 0.1675
306.40 0.1678
306.50 0.1682
306.60 0.1685
306.70 0.1688
306.80 0.1691
306.90 0.1695
307.00 0.1698
307.10 0.1701
307.20 0.1704
307.30 0.1707
307.40 0.1711
307.50 0.1714
307.60 0.1717
307.70 0.172
307.80 0.1723
307.90 0.1726
308.00 0.173
308.10 0.1733
308.20 0.1736
308.30 0.174
308.40 0.1743
308.50 0.1746
308.60 0.1749
308.70 0.1753
308.80 0.1756
308.90 0.1759
309.00 0.1763
309.10 0.1766
309.20 0.1769
309.30 0.1772
309.40 0.1776
309.50 0.1779
309.60 0.1782
309.70 0.1785
309.80 0.1789
309.90 0.1792
310.00 0.1795
310.10 0.1798
310.20 0.1802
310.30 0.1805
310.40 0.1808
310.50 0.1812
310.60 0.1815
310.70 0.1819
310.80 0.1822
310.90 0.1825
311.00 0.1829
311.10 0.1832
311.20 0.1835
311.30 0.1839
311.40 0.1842
311.50 0.1845
311.60 0.1849
311.70 0.1852
311.80 0.1855
311.90 0.1858
312.00 0.1862
312.10 0.1865
312.20 0.1868
312.30 0.1872
312.40 0.1875
312.50 0.1879
312.60 0.1882
312.70 0.1885
312.80 0.1889
312.90 0.1892
313.00 0.1896
313.10 0.1899
313.20 0.1902
313.30 0.1906
313.40 0.1909
313.50 0.1913
313.60 0.1916
313.70 0.1919
313.80 0.1923
313.90 0.1926
314.00 0.1929
314.10 0.1933
314.20 0.1936
314.30 0.194
314.40 0.1943
314.50 0.1947
314.60 0.195
314.70 0.1954
314.80 0.1957
314.90 0.1961
315.00 0.1964
315.10 0.1968
315.20 0.1971
315.30 0.1974
315.40 0.1978
315.50 0.1981
315.60 0.1985
315.70 0.1988
315.80 0.1992
315.90 0.1995
316.00 0.1998
316.10 0.2002
316.20 0.2005
316.30 0.2009
316.40 0.2013
316.50 0.2016
316.60 0.202
316.70 0.2023
316.80 0.2027
316.90 0.203
317.00 0.2034
317.10 0.2037
317.20 0.2041
317.30 0.2044
317.40 0.2048
317.50 0.2051
317.60 0.2055
317.70 0.2058
317.80 0.2062
317.90 0.2065
318.00 0.2069
318.10 0.2072
318.20 0.2076
318.30 0.2079
318.40 0.2083
318.50 0.2086
318.60 0.209
318.70 0.2094
318.80 0.2097
318.90 0.2101
319.00 0.2104
319.10 0.2108
319.20 0.2112
319.30 0.2115
319.40 0.2119
319.50 0.2122
319.60 0.2126
319.70 0.2129
319.80 0.2133
319.90 0.2136
320.00 0.214
320.10 0.2144
320.20 0.2147
320.30 0.2151
320.40 0.2154
320.50 0.2158
320.60 0.2162
320.70 0.2165
320.80 0.2169
320.90 0.2173
321.00 0.2176
321.10 0.218
321.20 0.2183
321.30 0.2187
321.40 0.2191
321.50 0.2194
321.60 0.2198
321.70 0.2201
321.80 0.2205
321.90 0.2209
322.00 0.2212
322.10 0.2216
322.20 0.222
322.30 0.2223
322.40 0.2227
322.50 0.2231
322.60 0.2234
322.70 0.2238
322.80 0.2242
322.90 0.2245
323.00 0.2249
323.10 0.2253
323.20 0.2257
323.30 0.226
323.40 0.2264
323.50 0.2267
323.60 0.2271
323.70 0.2275
323.80 0.2278
323.90 0.2282
324.00 0.2286
324.10 0.2289
324.20 0.2293
324.30 0.2297
324.40 0.2301
324.50 0.2305
324.60 0.2308
324.70 0.2312
324.80 0.2316
324.90 0.2319
325.00 0.2323
325.10 0.2327
325.20 0.2331
325.30 0.2334
325.40 0.2338
325.50 0.2342
325.60 0.2346
325.70 0.2349
325.80 0.2353
325.90 0.2357
326.00 0.236
326.10 0.2364
326.20 0.2368
326.30 0.2372
326.40 0.2376
326.50 0.2379
326.60 0.2383
326.70 0.2387
326.80 0.2391
326.90 0.2395
327.00 0.2398
327.10 0.2402
327.20 0.2406
327.30 0.241
327.40 0.2413
327.50 0.2417
327.60 0.2421
327.70 0.2425
327.80 0.2428
327.90 0.2432
328.00 0.2436
328.10 0.244
328.20 0.2444
328.30 0.2448
328.40 0.2451
328.50 0.2455
328.60 0.2459
328.70 0.2463
328.80 0.2467
328.90 0.2471
329.00 0.2474
329.10 0.2478
329.20 0.2482
329.30 0.2486
329.40 0.249
329.50 0.2494
329.60 0.2497
329.70 0.2501
329.80 0.2505
329.90 0.2509
330.00 0.2513
330.10 0.2516
330.20 0.252
330.30 0.2524
330.40 0.2528
330.50 0.2532
330.60 0.2536
330.70 0.254
330.80 0.2544
330.90 0.2548
331.00 0.2552
331.10 0.2556
331.20 0.2559
331.30 0.2563
331.40 0.2567
331.50 0.2571
331.60 0.2575
331.70 0.2579
331.80 0.2583
331.90 0.2586
332.00 0.259
332.10 0.2594
332.20 0.2598
332.30 0.2602
332.40 0.2606
332.50 0.261
332.60 0.2614
332.70 0.2618
332.80 0.2622
332.90 0.2626
333.00 0.263
333.10 0.2634
333.20 0.2638
333.30 0.2642
333.40 0.2645
333.50 0.2649
333.60 0.2653
333.70 0.2657
333.80 0.2661
333.90 0.2665
334.00 0.2669
334.10 0.2673
334.20 0.2677
334.30 0.2681
334.40 0.2685
334.50 0.2689
334.60 0.2693
334.70 0.2697
334.80 0.2701
334.90 0.2705
335.00 0.2709
335.10 0.2713
335.20 0.2717
335.30 0.2721
335.40 0.2725
335.50 0.2729
335.60 0.2733
335.70 0.2737
335.80 0.2741
335.90 0.2745
336.00 0.2748
336.10 0.2753
336.20 0.2757
336.30 0.2761
336.40 0.2765
336.50 0.2769
336.60 0.2773
336.70 0.2777
336.80 0.2781
336.90 0.2785
337.00 0.2789
337.10 0.2793
337.20 0.2797
337.30 0.2801
337.40 0.2805
337.50 0.2809
337.60 0.2813
337.70 0.2817
337.80 0.2821
337.90 0.2825
338.00 0.2829
338.10 0.2833
338.20 0.2837
338.30 0.2841
338.40 0.2845
338.50 0.285
338.60 0.2854
338.70 0.2858
338.80 0.2862
338.90 0.2866
339.00 0.287
339.10 0.2874
339.20 0.2878
339.30 0.2882
339.40 0.2886
339.50 0.289
339.60 0.2894
339.70 0.2898
339.80 0.2902
339.90 0.2906
340.00 0.291
340.10 0.2915
340.20 0.2919
340.30 0.2923
340.40 0.2927
340.50 0.2931
340.60 0.2935
340.70 0.2939
340.80 0.2944
340.90 0.2948
341.00 0.2952
341.10 0.2956
341.20 0.296
341.30 0.2964
341.40 0.2968
341.50 0.2972
341.60 0.2976
341.70 0.2981
341.80 0.2985
341.90 0.2989
342.00 0.2993
342.10 0.2997
342.20 0.3001
342.30 0.3005
342.40 0.301
342.50 0.3014
342.60 0.3018
342.70 0.3022
342.80 0.3026
342.90 0.303
343.00 0.3035
343.10 0.3039
343.20 0.3043
343.30 0.3047
343.40 0.3051
343.50 0.3055
343.60 0.3059
343.70 0.3064
343.80 0.3068
343.90 0.3072
344.00 0.3076
344.10 0.308
344.20 0.3084
344.30 0.3089
344.40 0.3093
344.50 0.3097
344.60 0.3101
344.70 0.3105
344.80 0.311
344.90 0.3114
345.00 0.3118
345.10 0.3122
345.20 0.3127
345.30 0.3131
345.40 0.3135
345.50 0.3139
345.60 0.3143
345.70 0.3147
345.80 0.3152
345.90 0.3156
346.00 0.316
346.10 0.3164
346.20 0.3168
346.30 0.3173
346.40 0.3177
346.50 0.3181
346.60 0.3185
346.70 0.319
346.80 0.3194
346.90 0.3198
347.00 0.3202
347.10 0.3207
347.20 0.3211
347.30 0.3215
347.40 0.3219
347.50 0.3224
347.60 0.3228
347.70 0.3232
347.80 0.3236
347.90 0.324
348.00 0.3245
348.10 0.3249
348.20 0.3253
348.30 0.3258
348.40 0.3262
348.50 0.3266
348.60 0.3271
348.70 0.3275
348.80 0.3279
348.90 0.3283
349.00 0.3288
349.10 0.3292
349.20 0.3296
349.30 0.3301
349.40 0.3305
349.50 0.3309
349.60 0.3313
349.70 0.3318
349.80 0.3322
349.90 0.3326
350.00 0.333
350.10 0.3335
350.20 0.3339
350.30 0.3343
350.40 0.3348
350.50 0.3352
350.60 0.3356
350.70 0.3361
350.80 0.3365
350.90 0.3369
351.00 0.3374
351.10 0.3378
351.20 0.3382
351.30 0.3387
351.40 0.3391
351.50 0.3395
351.60 0.3399
351.70 0.3404
351.80 0.3408
351.90 0.3412
352.00 0.3416
352.10 0.3421
352.20 0.3425
352.30 0.343
352.40 0.3434
352.50 0.3438
352.60 0.3443
352.70 0.3447
352.80 0.3452
352.90 0.3456
353.00 0.346
353.10 0.3465
353.20 0.3469
353.30 0.3473
353.40 0.3478
353.50 0.3482
353.60 0.3486
353.70 0.3491
353.80 0.3495
353.90 0.3499
354.00 0.3503
354.10 0.3508
354.20 0.3512
354.30 0.3517
354.40 0.3521
354.50 0.3526
354.60 0.353
354.70 0.3534
354.80 0.3539
354.90 0.3543
355.00 0.3548
355.10 0.3552
355.20 0.3556
355.30 0.3561
355.40 0.3565
355.50 0.3569
355.60 0.3574
355.70 0.3578
355.80 0.3582
355.90 0.3587
356.00 0.3591
356.10 0.3596
356.20 0.36
356.30 0.3604
356.40 0.3609
356.50 0.3613
356.60 0.3618
356.70 0.3622
356.80 0.3627
356.90 0.3631
357.00 0.3635
357.10 0.364
357.20 0.3644
357.30 0.3649
357.40 0.3653
357.50 0.3657
357.60 0.3662
357.70 0.3666
357.80 0.3671
357.90 0.3675
358.00 0.3679
358.10 0.3684
358.20 0.3688
358.30 0.3693
358.40 0.3697
358.50 0.3702
358.60 0.3706
358.70 0.3711
358.80 0.3715
358.90 0.372
359.00 0.3724
359.10 0.3729
359.20 0.3733
359.30 0.3737
359.40 0.3742
359.50 0.3746
359.60 0.3751
359.70 0.3755
359.80 0.376
359.90 0.3764
360.00 0.3768
360.10 0.3773
360.20 0.3777
360.30 0.3782
360.40 0.3786
360.50 0.3791
360.60 0.3795
360.70 0.38
360.80 0.3804
360.90 0.3809
361.00 0.3813
361.10 0.3818
361.20 0.3822
361.30 0.3827
361.40 0.3831
361.50 0.3836
361.60 0.384
361.70 0.3845
361.80 0.3849
361.90 0.3853
362.00 0.3858
362.10 0.3862
362.20 0.3867
362.30 0.3871
362.40 0.3876
362.50 0.388
362.60 0.3885
362.70 0.3889
362.80 0.3894
362.90 0.3898
363.00 0.3903
363.10 0.3907
363.20 0.3912
363.30 0.3916
363.40 0.3921
363.50 0.3926
363.60 0.393
363.70 0.3935
363.80 0.3939
363.90 0.3944
364.00 0.3948
364.10 0.3953
364.20 0.3957
364.30 0.3962
364.40 0.3966
364.50 0.3971
364.60 0.3975
364.70 0.398
364.80 0.3984
364.90 0.3989
365.00 0.3993
365.10 0.3998
365.20 0.4002
365.30 0.4007
365.40 0.4012
365.50 0.4016
365.60 0.4021
365.70 0.4025
365.80 0.403
365.90 0.4034
366.00 0.4039
366.10 0.4043
366.20 0.4048
366.30 0.4052
366.40 0.4057
366.50 0.4062
366.60 0.4066
366.70 0.4071
366.80 0.4075
366.90 0.408
367.00 0.4084
367.10 0.4089
367.20 0.4093
367.30 0.4098
367.40 0.4103
367.50 0.4107
367.60 0.4112
367.70 0.4116
367.80 0.4121
367.90 0.4125
368.00 0.413
368.10 0.4134
368.20 0.4139
368.30 0.4144
368.40 0.4148
368.50 0.4153
368.60 0.4157
368.70 0.4162
368.80 0.4167
368.90 0.4171
369.00 0.4176
369.10 0.418
369.20 0.4185
369.30 0.419
369.40 0.4194
369.50 0.4199
369.60 0.4203
369.70 0.4208
369.80 0.4212
369.90 0.4217
370.00 0.4221
370.10 0.4226
370.20 0.4231
370.30 0.4235
370.40 0.424
370.50 0.4245
370.60 0.4249
370.70 0.4254
370.80 0.4259
370.90 0.4263
371.00 0.4268
371.10 0.4272
371.20 0.4277
371.30 0.4282
371.40 0.4286
371.50 0.4291
371.60 0.4295
371.70 0.43
371.80 0.4304
371.90 0.4309
372.00 0.4313
372.10 0.4318
372.20 0.4323
372.30 0.4327
372.40 0.4332
372.50 0.4337
372.60 0.4341
372.70 0.4346
372.80 0.4351
372.90 0.4355
373.00 0.436
373.10 0.4365
373.20 0.4369
373.30 0.4374
373.40 0.4379
373.50 0.4383
373.60 0.4388
373.70 0.4392
373.80 0.4397
373.90 0.4402
374.00 0.4406
374.10 0.4411
374.20 0.4415
374.30 0.442
374.40 0.4425
374.50 0.4429
374.60 0.4434
374.70 0.4439
374.80 0.4443
374.90 0.4448
375.00 0.4453
375.10 0.4457
375.20 0.4462
375.30 0.4467
375.40 0.4471
375.50 0.4476
375.60 0.448
375.70 0.4485
375.80 0.449
375.90 0.4494
376.00 0.4499
376.10 0.4504
376.20 0.4508
376.30 0.4513
376.40 0.4518
376.50 0.4522
376.60 0.4527
376.70 0.4532
376.80 0.4536
376.90 0.4541
377.00 0.4545
377.10 0.455
377.20 0.4555
377.30 0.456
377.40 0.4564
377.50 0.4569
377.60 0.4574
377.70 0.4578
377.80 0.4583
377.90 0.4588
378.00 0.4592
378.10 0.4597
378.20 0.4602
378.30 0.4606
378.40 0.4611
378.50 0.4616
378.60 0.462
378.70 0.4625
378.80 0.463
378.90 0.4634
379.00 0.4639
379.10 0.4644
379.20 0.4648
379.30 0.4653
379.40 0.4658
379.50 0.4662
379.60 0.4667
379.70 0.4672
379.80 0.4676
379.90 0.4681
380.00 0.4686
380.10 0.469
380.20 0.4695
380.30 0.47
380.40 0.4704
380.50 0.4709
380.60 0.4714
380.70 0.4719
380.80 0.4723
380.90 0.4728
381.00 0.4733
381.10 0.4737
381.20 0.4742
381.30 0.4747
381.40 0.4751
381.50 0.4756
381.60 0.4761
381.70 0.4765
381.80 0.477
381.90 0.4775
382.00 0.478
382.10 0.4784
382.20 0.4789
382.30 0.4794
382.40 0.4798
382.50 0.4803
382.60 0.4808
382.70 0.4813
382.80 0.4817
382.90 0.4822
383.00 0.4827
383.10 0.4831
383.20 0.4836
383.30 0.4841
383.40 0.4846
383.50 0.485
383.60 0.4855
383.70 0.486
383.80 0.4864
383.90 0.4869
384.00 0.4874
384.10 0.4878
384.20 0.4883
384.30 0.4888
384.40 0.4893
384.50 0.4897
384.60 0.4902
384.70 0.4907
384.80 0.4911
384.90 0.4916
385.00 0.4921
385.10 0.4926
385.20 0.493
385.30 0.4935
385.40 0.494
385.50 0.4944
385.60 0.4949
385.70 0.4954
385.80 0.4959
385.90 0.4963
386.00 0.4968
386.10 0.4973
386.20 0.4978
386.30 0.4982
386.40 0.4987
386.50 0.4992
386.60 0.4996
386.70 0.5001
386.80 0.5006
386.90 0.5011
387.00 0.5015
387.10 0.502
387.20 0.5025
387.30 0.503
387.40 0.5034
387.50 0.5039
387.60 0.5044
387.70 0.5049
387.80 0.5053
387.90 0.5058
388.00 0.5063
388.10 0.5068
388.20 0.5072
388.30 0.5077
388.40 0.5082
388.50 0.5086
388.60 0.5091
388.70 0.5096
388.80 0.5101
388.90 0.5105
389.00 0.511
389.10 0.5115
389.20 0.512
389.30 0.5124
389.40 0.5129
389.50 0.5134
389.60 0.5139
389.70 0.5143
389.80 0.5148
389.90 0.5153
390.00 0.5158
390.10 0.5162
390.20 0.5167
390.30 0.5172
390.40 0.5177
390.50 0.5181
390.60 0.5186
390.70 0.5191
390.80 0.5196
390.90 0.52
391.00 0.5205
391.10 0.521
391.20 0.5215
391.30 0.5219
391.40 0.5224
391.50 0.5229
391.60 0.5233
391.70 0.5238
391.80 0.5243
391.90 0.5248
392.00 0.5252
392.10 0.5257
392.20 0.5262
392.30 0.5267
392.40 0.5271
392.50 0.5276
392.60 0.5281
392.70 0.5286
392.80 0.5291
392.90 0.5295
393.00 0.53
393.10 0.5305
393.20 0.531
393.30 0.5314
393.40 0.5319
393.50 0.5324
393.60 0.5329
393.70 0.5333
393.80 0.5338
393.90 0.5343
394.00 0.5348
394.10 0.5352
394.20 0.5357
394.30 0.5362
394.40 0.5367
394.50 0.5371
394.60 0.5376
394.70 0.5381
394.80 0.5386
394.90 0.539
395.00 0.5395
395.10 0.54
395.20 0.5405
395.30 0.541
395.40 0.5414
395.50 0.5419
395.60 0.5424
395.70 0.5429
395.80 0.5433
395.90 0.5438
396.00 0.5443
396.10 0.5448
396.20 0.5452
396.30 0.5457
396.40 0.5462
396.50 0.5467
396.60 0.5471
396.70 0.5476
396.80 0.5481
396.90 0.5486
397.00 0.549
397.10 0.5495
397.20 0.55
397.30 0.5505
397.40 0.551
397.50 0.5514
397.60 0.5519
397.70 0.5524
397.80 0.5529
397.90 0.5534
398.00 0.5538
398.10 0.5543
398.20 0.5548
398.30 0.5552
398.40 0.5557
398.50 0.5562
398.60 0.5567
398.70 0.5572
398.80 0.5576
398.90 0.5581
399.00 0.5586
399.10 0.5591
399.20 0.5595
399.30 0.56
399.40 0.5605
399.50 0.561
399.60 0.5615
399.70 0.5619
399.80 0.5624
399.90 0.5629
400.00 0.5634
400.10 0.5638
400.20 0.5643
400.30 0.5648
400.40 0.5653
400.50 0.5657
400.60 0.5662
400.70 0.5667
400.80 0.5672
400.90 0.5677
401.00 0.5681
401.10 0.5686
401.20 0.5691
401.30 0.5696
401.40 0.57
401.50 0.5705
401.60 0.571
401.70 0.5715
401.80 0.5719
401.90 0.5724
402.00 0.5729
402.10 0.5734
402.20 0.5738
402.30 0.5743
402.40 0.5748
402.50 0.5753
402.60 0.5758
402.70 0.5762
402.80 0.5767
402.90 0.5772
403.00 0.5776
403.10 0.5781
403.20 0.5786
403.30 0.5791
403.40 0.5796
403.50 0.58
403.60 0.5805
403.70 0.581
403.80 0.5815
403.90 0.582
404.00 0.5824
404.10 0.5829
404.20 0.5834
404.30 0.5839
404.40 0.5843
404.50 0.5848
404.60 0.5853
404.70 0.5858
404.80 0.5862
404.90 0.5867
405.00 0.5872
405.10 0.5877
405.20 0.5882
405.30 0.5886
405.40 0.5891
405.50 0.5896
405.60 0.5901
405.70 0.5905
405.80 0.591
405.90 0.5915
406.00 0.592
406.10 0.5924
406.20 0.5929
406.30 0.5934
406.40 0.5939
406.50 0.5944
406.60 0.5948
406.70 0.5953
406.80 0.5958
406.90 0.5963
407.00 0.5967
407.10 0.5972
407.20 0.5977
407.30 0.5982
407.40 0.5986
407.50 0.5991
407.60 0.5996
407.70 0.6001
407.80 0.6006
407.90 0.601
408.00 0.6015
408.10 0.602
408.20 0.6025
408.30 0.6029
408.40 0.6034
408.50 0.6039
408.60 0.6044
408.70 0.6048
408.80 0.6053
408.90 0.6058
409.00 0.6063
409.10 0.6067
409.20 0.6072
409.30 0.6077
409.40 0.6082
409.50 0.6086
409.60 0.6091
409.70 0.6096
409.80 0.6101
409.90 0.6106
410.00 0.611
410.10 0.6115
410.20 0.612
410.30 0.6125
410.40 0.6129
410.50 0.6134
410.60 0.6139
410.70 0.6144
410.80 0.6148
410.90 0.6153
411.00 0.6158
411.10 0.6163
411.20 0.6167
411.30 0.6172
411.40 0.6177
411.50 0.6182
411.60 0.6186
411.70 0.6191
411.80 0.6196
411.90 0.6201
412.00 0.6205
412.10 0.621
412.20 0.6215
412.30 0.622
412.40 0.6224
412.50 0.6229
412.60 0.6234
412.70 0.6239
412.80 0.6244
412.90 0.6248
413.00 0.6253
413.10 0.6258
413.20 0.6262
413.30 0.6267
413.40 0.6272
413.50 0.6277
413.60 0.6282
413.70 0.6286
413.80 0.6291
413.90 0.6296
414.00 0.6301
414.10 0.6305
414.20 0.631
414.30 0.6315
414.40 0.632
414.50 0.6324
414.60 0.6329
414.70 0.6334
414.80 0.6338
414.90 0.6343
415.00 0.6348
415.10 0.6353
415.20 0.6358
415.30 0.6362
415.40 0.6367
415.50 0.6372
415.60 0.6376
415.70 0.6381
415.80 0.6386
415.90 0.6391
416.00 0.6395
416.10 0.64
416.20 0.6405
416.30 0.641
416.40 0.6414
416.50 0.6419
416.60 0.6424
416.70 0.6428
416.80 0.6433
416.90 0.6438
417.00 0.6443
417.10 0.6448
417.20 0.6452
417.30 0.6457
417.40 0.6462
417.50 0.6466
417.60 0.6471
417.70 0.6476
417.80 0.6481
417.90 0.6485
418.00 0.649
418.10 0.6495
418.20 0.65
418.30 0.6504
418.40 0.6509
418.50 0.6514
418.60 0.6519
418.70 0.6523
418.80 0.6528
418.90 0.6533
419.00 0.6537
419.10 0.6542
419.20 0.6547
419.30 0.6551
419.40 0.6556
419.50 0.6561
419.60 0.6566
419.70 0.657
419.80 0.6575
419.90 0.658
420.00 0.6585
420.10 0.6589
420.20 0.6594
420.30 0.6599
420.40 0.6603
420.50 0.6608
420.60 0.6613
420.70 0.6618
420.80 0.6622
420.90 0.6627
421.00 0.6632
421.10 0.6637
421.20 0.6641
421.30 0.6646
421.40 0.6651
421.50 0.6655
421.60 0.666
421.70 0.6665
421.80 0.6669
421.90 0.6674
422.00 0.6679
422.10 0.6684
422.20 0.6688
422.30 0.6693
422.40 0.6698
422.50 0.6703
422.60 0.6707
422.70 0.6712
422.80 0.6717
422.90 0.6721
423.00 0.6726
423.10 0.6731
423.20 0.6736
423.30 0.674
423.40 0.6745
423.50 0.675
423.60 0.6754
423.70 0.6759
423.80 0.6764
423.90 0.6768
424.00 0.6773
424.10 0.6778
424.20 0.6782
424.30 0.6787
424.40 0.6792
424.50 0.6797
424.60 0.6801
424.70 0.6806
424.80 0.6811
424.90 0.6815
425.00 0.682
425.10 0.6825
425.20 0.6829
425.30 0.6834
425.40 0.6839
425.50 0.6843
425.60 0.6848
425.70 0.6853
425.80 0.6858
425.90 0.6862
426.00 0.6867
426.10 0.6872
426.20 0.6876
426.30 0.6881
426.40 0.6886
426.50 0.689
426.60 0.6895
426.70 0.69
426.80 0.6904
426.90 0.6909
427.00 0.6914
427.10 0.6918
427.20 0.6923
427.30 0.6928
427.40 0.6932
427.50 0.6937
427.60 0.6942
427.70 0.6946
427.80 0.6951
427.90 0.6956
428.00 0.696
428.10 0.6965
428.20 0.697
428.30 0.6974
428.40 0.6979
428.50 0.6984
428.60 0.6988
428.70 0.6993
428.80 0.6998
428.90 0.7002
429.00 0.7007
429.10 0.7012
429.20 0.7016
429.30 0.7021
429.40 0.7026
429.50 0.703
429.60 0.7035
429.70 0.704
429.80 0.7044
429.90 0.7049
430.00 0.7054
430.10 0.7058
430.20 0.7063
430.30 0.7068
430.40 0.7072
430.50 0.7077
430.60 0.7082
430.70 0.7086
430.80 0.7091
430.90 0.7096
431.00 0.71
431.10 0.7105
431.20 0.711
431.30 0.7114
431.40 0.7119
431.50 0.7123
431.60 0.7128
431.70 0.7133
431.80 0.7137
431.90 0.7142
432.00 0.7147
432.10 0.7151
432.20 0.7156
432.30 0.7161
432.40 0.7165
432.50 0.717
432.60 0.7174
432.70 0.7179
432.80 0.7184
432.90 0.7188
433.00 0.7193
433.10 0.7198
433.20 0.7202
433.30 0.7207
433.40 0.7212
433.50 0.7216
433.60 0.7221
433.70 0.7225
433.80 0.723
433.90 0.7235
434.00 0.7239
434.10 0.7244
434.20 0.7249
434.30 0.7253
434.40 0.7258
434.50 0.7262
434.60 0.7267
434.70 0.7272
434.80 0.7276
434.90 0.7281
435.00 0.7285
435.10 0.729
435.20 0.7295
435.30 0.7299
435.40 0.7304
435.50 0.7309
435.60 0.7313
435.70 0.7318
435.80 0.7322
435.90 0.7327
436.00 0.7331
436.10 0.7336
436.20 0.7341
436.30 0.7345
436.40 0.735
436.50 0.7355
436.60 0.7359
436.70 0.7364
436.80 0.7368
436.90 0.7373
437.00 0.7377
437.10 0.7382
437.20 0.7387
437.30 0.7391
437.40 0.7396
437.50 0.7401
437.60 0.7405
437.70 0.741
437.80 0.7414
437.90 0.7419
438.00 0.7423
438.10 0.7428
438.20 0.7433
438.30 0.7437
438.40 0.7442
438.50 0.7446
438.60 0.7451
438.70 0.7455
438.80 0.746
438.90 0.7465
439.00 0.7469
439.10 0.7474
439.20 0.7478
439.30 0.7483
439.40 0.7487
439.50 0.7492
439.60 0.7497
439.70 0.7501
439.80 0.7506
439.90 0.751
440.00 0.7515
440.10 0.7519
440.20 0.7524
440.30 0.7529
440.40 0.7533
440.50 0.7538
440.60 0.7542
440.70 0.7547
440.80 0.7551
440.90 0.7556
441.00 0.756
441.10 0.7565
441.20 0.757
441.30 0.7574
441.40 0.7579
441.50 0.7583
441.60 0.7588
441.70 0.7592
441.80 0.7597
441.90 0.7601
442.00 0.7606
442.10 0.761
442.20 0.7615
442.30 0.762
442.40 0.7624
442.50 0.7629
442.60 0.7633
442.70 0.7638
442.80 0.7642
442.90 0.7647
443.00 0.7651
443.10 0.7656
443.20 0.766
443.30 0.7665
443.40 0.7669
443.50 0.7674
443.60 0.7678
443.70 0.7683
443.80 0.7688
443.90 0.7692
444.00 0.7697
444.10 0.7701
444.20 0.7706
444.30 0.771
444.40 0.7715
444.50 0.7719
444.60 0.7724
444.70 0.7728
444.80 0.7733
444.90 0.7737
445.00 0.7742
445.10 0.7746
445.20 0.7751
445.30 0.7755
445.40 0.776
445.50 0.7764
445.60 0.7769
445.70 0.7773
445.80 0.7778
445.90 0.7782
446.00 0.7787
446.10 0.7791
446.20 0.7796
446.30 0.78
446.40 0.7805
446.50 0.7809
446.60 0.7814
446.70 0.7818
446.80 0.7823
446.90 0.7827
447.00 0.7832
447.10 0.7836
447.20 0.7841
447.30 0.7845
447.40 0.785
447.50 0.7854
447.60 0.7859
447.70 0.7863
447.80 0.7867
447.90 0.7872
448.00 0.7876
448.10 0.7881
448.20 0.7885
448.30 0.789
448.40 0.7894
448.50 0.7899
448.60 0.7903
448.70 0.7908
448.80 0.7912
448.90 0.7917
449.00 0.7921
449.10 0.7926
449.20 0.793
449.30 0.7934
449.40 0.7939
449.50 0.7943
449.60 0.7948
449.70 0.7952
449.80 0.7957
449.90 0.7961
450.00 0.7966
450.10 0.797
450.20 0.7975
450.30 0.7979
450.40 0.7983
450.50 0.7988
450.60 0.7992
450.70 0.7997
450.80 0.8001
450.90 0.8006
451.00 0.801
451.10 0.8015
451.20 0.8019
451.30 0.8023
451.40 0.8028
451.50 0.8032
451.60 0.8037
451.70 0.8041
451.80 0.8046
451.90 0.805
452.00 0.8055
452.10 0.8059
452.20 0.8063
452.30 0.8068
452.40 0.8072
452.50 0.8077
452.60 0.8081
452.70 0.8085
452.80 0.809
452.90 0.8094
453.00 0.8099
453.10 0.8103
453.20 0.8108
453.30 0.8112
453.40 0.8116
453.50 0.8121
453.60 0.8125
453.70 0.813
453.80 0.8134
453.90 0.8138
454.00 0.8143
454.10 0.8147
454.20 0.8152
454.30 0.8156
454.40 0.816
454.50 0.8165
454.60 0.8169
454.70 0.8174
454.80 0.8178
454.90 0.8182
455.00 0.8187
455.10 0.8191
455.20 0.8195
455.30 0.82
455.40 0.8204
455.50 0.8209
455.60 0.8213
455.70 0.8217
455.80 0.8222
455.90 0.8226
456.00 0.823
456.10 0.8235
456.20 0.8239
456.30 0.8243
456.40 0.8248
456.50 0.8252
456.60 0.8257
456.70 0.8261
456.80 0.8265
456.90 0.827
457.00 0.8274
457.10 0.8278
457.20 0.8283
457.30 0.8287
457.40 0.8291
457.50 0.8296
457.60 0.83
457.70 0.8304
457.80 0.8309
457.90 0.8313
458.00 0.8318
458.10 0.8322
458.20 0.8326
458.30 0.8331
458.40 0.8335
458.50 0.8339
458.60 0.8344
458.70 0.8348
458.80 0.8352
458.90 0.8357
459.00 0.8361
459.10 0.8365
459.20 0.837
459.30 0.8374
459.40 0.8378
459.50 0.8383
459.60 0.8387
459.70 0.8391
459.80 0.8396
459.90 0.84
460.00 0.8404
460.10 0.8408
460.20 0.8413
460.30 0.8417
460.40 0.8421
460.50 0.8426
460.60 0.843
460.70 0.8434
460.80 0.8439
460.90 0.8443
461.00 0.8447
461.10 0.8451
461.20 0.8456
461.30 0.846
461.40 0.8464
461.50 0.8469
461.60 0.8473
461.70 0.8477
461.80 0.8482
461.90 0.8486
462.00 0.849
462.10 0.8494
462.20 0.8499
462.30 0.8503
462.40 0.8507
462.50 0.8512
462.60 0.8516
462.70 0.852
462.80 0.8524
462.90 0.8529
463.00 0.8533
463.10 0.8537
463.20 0.8542
463.30 0.8546
463.40 0.855
463.50 0.8554
463.60 0.8559
463.70 0.8563
463.80 0.8567
463.90 0.8571
464.00 0.8576
464.10 0.858
464.20 0.8584
464.30 0.8588
464.40 0.8593
464.50 0.8597
464.60 0.8601
464.70 0.8605
464.80 0.861
464.90 0.8614
465.00 0.8618
465.10 0.8622
465.20 0.8627
465.30 0.8631
465.40 0.8635
465.50 0.8639
465.60 0.8644
465.70 0.8648
465.80 0.8652
465.90 0.8656
466.00 0.866
466.10 0.8665
466.20 0.8669
466.30 0.8673
466.40 0.8677
466.50 0.8682
466.60 0.8686
466.70 0.869
466.80 0.8694
466.90 0.8698
467.00 0.8703
467.10 0.8707
467.20 0.8711
467.30 0.8715
467.40 0.8719
467.50 0.8724
467.60 0.8728
467.70 0.8732
467.80 0.8736
467.90 0.874
468.00 0.8745
468.10 0.8749
468.20 0.8753
468.30 0.8757
468.40 0.8761
468.50 0.8766
468.60 0.877
468.70 0.8774
468.80 0.8778
468.90 0.8782
469.00 0.8786
469.10 0.8791
469.20 0.8795
469.30 0.8799
469.40 0.8803
469.50 0.8807
469.60 0.8812
469.70 0.8816
469.80 0.882
469.90 0.8824
470.00 0.8828
470.10 0.8832
470.20 0.8837
470.30 0.8841
470.40 0.8845
470.50 0.8849
470.60 0.8853
470.70 0.8857
470.80 0.8862
470.90 0.8866
471.00 0.887
471.10 0.8874
471.20 0.8878
471.30 0.8882
471.40 0.8886
471.50 0.8891
471.60 0.8895
471.70 0.8899
471.80 0.8903
471.90 0.8907
472.00 0.8911
472.10 0.8915
472.20 0.8919
472.30 0.8924
472.40 0.8928
472.50 0.8932
472.60 0.8936
472.70 0.894
472.80 0.8944
472.90 0.8948
473.00 0.8952
473.10 0.8957
473.20 0.8961
473.30 0.8965
473.40 0.8969
473.50 0.8973
473.60 0.8977
473.70 0.8981
473.80 0.8985
473.90 0.8989
474.00 0.8993
474.10 0.8998
474.20 0.9002
474.30 0.9006
474.40 0.901
474.50 0.9014
474.60 0.9018
474.70 0.9022
474.80 0.9026
474.90 0.903
475.00 0.9034
475.10 0.9038
475.20 0.9043
475.30 0.9047
475.40 0.9051
475.50 0.9055
475.60 0.9059
475.70 0.9063
475.80 0.9067
475.90 0.9071
476.00 0.9075
476.10 0.9079
476.20 0.9083
476.30 0.9087
476.40 0.9091
476.50 0.9095
476.60 0.9099
476.70 0.9104
476.80 0.9108
476.90 0.9112
477.00 0.9116
477.10 0.912
477.20 0.9124
477.30 0.9128
477.40 0.9132
477.50 0.9136
477.60 0.914
477.70 0.9144
477.80 0.9148
477.90 0.9152
478.00 0.9156
478.10 0.916
478.20 0.9164
478.30 0.9168
478.40 0.9172
478.50 0.9176
478.60 0.918
478.70 0.9184
478.80 0.9188
478.90 0.9192
479.00 0.9196
479.10 0.92
479.20 0.9204
479.30 0.9208
479.40 0.9212
479.50 0.9216
479.60 0.922
479.70 0.9224
479.80 0.9228
479.90 0.9232
480.00 0.9236
480.10 0.924
480.20 0.9244
480.30 0.9248
480.40 0.9252
480.50 0.9256
480.60 0.926
480.70 0.9264
480.80 0.9268
480.90 0.9272
481.00 0.9276
481.10 0.928
481.20 0.9284
481.30 0.9288
481.40 0.9292
481.50 0.9296
481.60 0.93
481.70 0.9304
481.80 0.9308
481.90 0.9312
482.00 0.9316
482.10 0.932
482.20 0.9324
482.30 0.9328
482.40 0.9332
482.50 0.9336
482.60 0.934
482.70 0.9344
482.80 0.9348
482.90 0.9352
483.00 0.9356
483.10 0.9359
483.20 0.9363
483.30 0.9367
483.40 0.9371
483.50 0.9375
483.60 0.9379
483.70 0.9383
483.80 0.9387
483.90 0.9391
484.00 0.9395
484.10 0.9399
484.20 0.9403
484.30 0.9407
484.40 0.9411
484.50 0.9415
484.60 0.9418
484.70 0.9422
484.80 0.9426
484.90 0.943
485.00 0.9434
485.10 0.9438
485.20 0.9442
485.30 0.9446
485.40 0.945
485.50 0.9454
485.60 0.9458
485.70 0.9461
485.80 0.9465
485.90 0.9469
486.00 0.9473
486.10 0.9477
486.20 0.9481
486.30 0.9485
486.40 0.9489
486.50 0.9493
486.60 0.9497
486.70 0.95
486.80 0.9504
486.90 0.9508
487.00 0.9512
487.10 0.9516
487.20 0.952
487.30 0.9524
487.40 0.9527
487.50 0.9531
487.60 0.9535
487.70 0.9539
487.80 0.9543
487.90 0.9547
488.00 0.9551
488.10 0.9554
488.20 0.9558
488.30 0.9562
488.40 0.9566
488.50 0.957
488.60 0.9574
488.70 0.9578
488.80 0.9581
488.90 0.9585
489.00 0.9589
489.10 0.9593
489.20 0.9597
489.30 0.9601
489.40 0.9605
489.50 0.9608
489.60 0.9612
489.70 0.9616
489.80 0.962
489.90 0.9624
490.00 0.9627
490.10 0.9631
490.20 0.9635
490.30 0.9639
490.40 0.9643
490.50 0.9647
490.60 0.965
490.70 0.9654
490.80 0.9658
490.90 0.9662
491.00 0.9666
491.10 0.9669
491.20 0.9673
491.30 0.9677
491.40 0.9681
491.50 0.9684
491.60 0.9688
491.70 0.9692
491.80 0.9696
491.90 0.97
492.00 0.9703
492.10 0.9707
492.20 0.9711
492.30 0.9715
492.40 0.9718
492.50 0.9722
492.60 0.9726
492.70 0.973
492.80 0.9734
492.90 0.9737
493.00 0.9741
493.10 0.9745
493.20 0.9749
493.30 0.9752
493.40 0.9756
493.50 0.976
493.60 0.9764
493.70 0.9767
493.80 0.9771
493.90 0.9775
494.00 0.9779
494.10 0.9782
494.20 0.9786
494.30 0.979
494.40 0.9794
494.50 0.9797
494.60 0.9801
494.70 0.9805
494.80 0.9809
494.90 0.9812
495.00 0.9816
495.10 0.982
495.20 0.9824
495.30 0.9827
495.40 0.9831
495.50 0.9835
495.60 0.9838
495.70 0.9842
495.80 0.9846
495.90 0.985
496.00 0.9853
496.10 0.9857
496.20 0.9861
496.30 0.9864
496.40 0.9868
496.50 0.9872
496.60 0.9875
496.70 0.9879
496.80 0.9883
496.90 0.9886
497.00 0.989
497.10 0.9894
497.20 0.9898
497.30 0.9901
497.40 0.9905
497.50 0.9909
497.60 0.9912
497.70 0.9916
497.80 0.992
497.90 0.9923
498.00 0.9927
498.10 0.9931
498.20 0.9934
498.30 0.9938
498.40 0.9942
498.50 0.9945
498.60 0.9949
498.70 0.9953
498.80 0.9956
498.90 0.996
499.00 0.9964
499.10 0.9967
499.20 0.9971
499.30 0.9975
499.40 0.9978
499.50 0.9982
499.60 0.9986
499.70 0.9989
499.80 0.9993
499.90 0.9996
500.00 1
500.10 1
500.20 1.001
500.30 1.001
500.40 1.001
500.50 1.002
500.60 1.002
500.70 1.003
500.80 1.003
500.90 1.003
501.00 1.004
501.10 1.004
501.20 1.004
501.30 1.005
501.40 1.005
501.50 1.005
501.60 1.006
501.70 1.006
501.80 1.007
501.90 1.007
502.00 1.007
502.10 1.008
502.20 1.008
502.30 1.008
502.40 1.009
502.50 1.009
502.60 1.009
502.70 1.01
502.80 1.01
502.90 1.01
503.00 1.011
503.10 1.011
503.20 1.012
503.30 1.012
503.40 1.012
503.50 1.013
503.60 1.013
503.70 1.013
503.80 1.014
503.90 1.014
504.00 1.014
504.10 1.015
504.20 1.015
504.30 1.015
504.40 1.016
504.50 1.016
504.60 1.017
504.70 1.017
504.80 1.017
504.90 1.018
505.00 1.018
505.10 1.018
505.20 1.019
505.30 1.019
505.40 1.019
505.50 1.02
505.60 1.02
505.70 1.02
505.80 1.021
505.90 1.021
506.00 1.021
506.10 1.022
506.20 1.022
506.30 1.022
506.40 1.023
506.50 1.023
506.60 1.024
506.70 1.024
506.80 1.024
506.90 1.025
507.00 1.025
507.10 1.025
507.20 1.026
507.30 1.026
507.40 1.026
507.50 1.027
507.60 1.027
507.70 1.027
507.80 1.028
507.90 1.028
508.00 1.028
508.10 1.029
508.20 1.029
508.30 1.029
508.40 1.03
508.50 1.03
508.60 1.031
508.70 1.031
508.80 1.031
508.90 1.032
509.00 1.032
509.10 1.032
509.20 1.033
509.30 1.033
509.40 1.033
509.50 1.034
509.60 1.034
509.70 1.034
509.80 1.035
509.90 1.035
510.00 1.035
510.10 1.036
510.20 1.036
510.30 1.036
510.40 1.037
510.50 1.037
510.60 1.037
510.70 1.038
510.80 1.038
510.90 1.038
511.00 1.039
511.10 1.039
511.20 1.039
511.30 1.04
511.40 1.04
511.50 1.04
511.60 1.041
511.70 1.041
511.80 1.041
511.90 1.042
512.00 1.042
512.10 1.043
512.20 1.043
512.30 1.043
512.40 1.044
512.50 1.044
512.60 1.044
512.70 1.045
512.80 1.045
512.90 1.045
513.00 1.046
513.10 1.046
513.20 1.046
513.30 1.047
513.40 1.047
513.50 1.047
513.60 1.048
513.70 1.048
513.80 1.048
513.90 1.049
514.00 1.049
514.10 1.049
514.20 1.05
514.30 1.05
514.40 1.05
514.50 1.051
514.60 1.051
514.70 1.051
514.80 1.052
514.90 1.052
515.00 1.052
515.10 1.053
515.20 1.053
515.30 1.053
515.40 1.054
515.50 1.054
515.60 1.054
515.70 1.055
515.80 1.055
515.90 1.055
516.00 1.056
516.10 1.056
516.20 1.056
516.30 1.057
516.40 1.057
516.50 1.057
516.60 1.058
516.70 1.058
516.80 1.058
516.90 1.059
517.00 1.059
517.10 1.059
517.20 1.06
517.30 1.06
517.40 1.06
517.50 1.061
517.60 1.061
517.70 1.061
517.80 1.062
517.90 1.062
518.00 1.062
518.10 1.063
518.20 1.063
518.30 1.063
518.40 1.063
518.50 1.064
518.60 1.064
518.70 1.064
518.80 1.065
518.90 1.065
519.00 1.065
519.10 1.066
519.20 1.066
519.30 1.066
519.40 1.067
519.50 1.067
519.60 1.067
519.70 1.068
519.80 1.068
519.90 1.068
520.00 1.069
520.10 1.069
520.20 1.069
520.30 1.07
520.40 1.07
520.50 1.07
520.60 1.071
520.70 1.071
520.80 1.071
520.90 1.072
521.00 1.072
521.10 1.072
521.20 1.073
521.30 1.073
521.40 1.073
521.50 1.074
521.60 1.074
521.70 1.074
521.80 1.074
521.90 1.075
522.00 1.075
522.10 1.075
522.20 1.076
522.30 1.076
522.40 1.076
522.50 1.077
522.60 1.077
522.70 1.077
522.80 1.078
522.90 1.078
523.00 1.078
523.10 1.079
523.20 1.079
523.30 1.079
523.40 1.08
523.50 1.08
523.60 1.08
523.70 1.081
523.80 1.081
523.90 1.081
524.00 1.081
524.10 1.082
524.20 1.082
524.30 1.082
524.40 1.083
524.50 1.083
524.60 1.083
524.70 1.084
524.80 1.084
524.90 1.084
525.00 1.085
525.10 1.085
525.20 1.085
525.30 1.086
525.40 1.086
525.50 1.086
525.60 1.086
525.70 1.087
525.80 1.087
525.90 1.087
526.00 1.088
526.10 1.088
526.20 1.088
526.30 1.089
526.40 1.089
526.50 1.089
526.60 1.09
526.70 1.09
526.80 1.09
526.90 1.091
527.00 1.091
527.10 1.091
527.20 1.091
527.30 1.092
527.40 1.092
527.50 1.092
527.60 1.093
527.70 1.093
527.80 1.093
527.90 1.094
528.00 1.094
528.10 1.094
528.20 1.095
528.30 1.095
528.40 1.095
528.50 1.095
528.60 1.096
528.70 1.096
528.80 1.096
528.90 1.097
529.00 1.097
529.10 1.097
529.20 1.098
529.30 1.098
529.40 1.098
529.50 1.098
529.60 1.099
529.70 1.099
529.80 1.099
529.90 1.1
530.00 1.1
530.10 1.1
530.20 1.101
530.30 1.101
530.40 1.101
530.50 1.102
530.60 1.102
530.70 1.102
530.80 1.102
530.90 1.103
531.00 1.103
531.10 1.103
531.20 1.104
531.30 1.104
531.40 1.104
531.50 1.105
531.60 1.105
531.70 1.105
531.80 1.105
531.90 1.106
532.00 1.106
532.10 1.106
532.20 1.107
532.30 1.107
532.40 1.107
532.50 1.108
532.60 1.108
532.70 1.108
532.80 1.108
532.90 1.109
533.00 1.109
533.10 1.109
533.20 1.11
533.30 1.11
533.40 1.11
533.50 1.11
533.60 1.111
533.70 1.111
533.80 1.111
533.90 1.112
534.00 1.112
534.10 1.112
534.20 1.113
534.30 1.113
534.40 1.113
534.50 1.113
534.60 1.114
534.70 1.114
534.80 1.114
534.90 1.115
535.00 1.115
535.10 1.115
535.20 1.115
535.30 1.116
535.40 1.116
535.50 1.116
535.60 1.117
535.70 1.117
535.80 1.117
535.90 1.118
536.00 1.118
536.10 1.118
536.20 1.118
536.30 1.119
536.40 1.119
536.50 1.119
536.60 1.12
536.70 1.12
536.80 1.12
536.90 1.12
537.00 1.121
537.10 1.121
537.20 1.121
537.30 1.122
537.40 1.122
537.50 1.122
537.60 1.122
537.70 1.123
537.80 1.123
537.90 1.123
538.00 1.124
538.10 1.124
538.20 1.124
538.30 1.124
538.40 1.125
538.50 1.125
538.60 1.125
538.70 1.126
538.80 1.126
538.90 1.126
539.00 1.126
539.10 1.127
539.20 1.127
539.30 1.127
539.40 1.128
539.50 1.128
539.60 1.128
539.70 1.128
539.80 1.129
539.90 1.129
540.00 1.129
540.10 1.13
540.20 1.13
540.30 1.13
540.40 1.13
540.50 1.131
540.60 1.131
540.70 1.131
540.80 1.131
540.90 1.132
541.00 1.132
541.10 1.132
541.20 1.133
541.30 1.133
541.40 1.133
541.50 1.133
541.60 1.134
541.70 1.134
541.80 1.134
541.90 1.135
542.00 1.135
542.10 1.135
542.20 1.135
542.30 1.136
542.40 1.136
542.50 1.136
542.60 1.136
542.70 1.137
542.80 1.137
542.90 1.137
543.00 1.138
543.10 1.138
543.20 1.138
543.30 1.138
543.40 1.139
543.50 1.139
543.60 1.139
543.70 1.14
543.80 1.14
543.90 1.14
544.00 1.14
544.10 1.141
544.20 1.141
544.30 1.141
544.40 1.141
544.50 1.142
544.60 1.142
544.70 1.142
544.80 1.143
544.90 1.143
545.00 1.143
545.10 1.143
545.20 1.144
545.30 1.144
545.40 1.144
545.50 1.144
545.60 1.145
545.70 1.145
545.80 1.145
545.90 1.146
546.00 1.146
546.10 1.146
546.20 1.146
546.30 1.147
546.40 1.147
546.50 1.147
546.60 1.147
546.70 1.148
546.80 1.148
546.90 1.148
547.00 1.148
547.10 1.149
547.20 1.149
547.30 1.149
547.40 1.15
547.50 1.15
547.60 1.15
547.70 1.15
547.80 1.151
547.90 1.151
548.00 1.151
548.10 1.151
548.20 1.152
548.30 1.152
548.40 1.152
548.50 1.152
548.60 1.153
548.70 1.153
548.80 1.153
548.90 1.154
549.00 1.154
549.10 1.154
549.20 1.154
549.30 1.155
549.40 1.155
549.50 1.155
549.60 1.155
549.70 1.156
549.80 1.156
549.90 1.156
550.00 1.156
550.10 1.157
550.20 1.157
550.30 1.157
550.40 1.157
550.50 1.158
550.60 1.158
550.70 1.158
550.80 1.158
550.90 1.159
551.00 1.159
551.10 1.159
551.20 1.159
551.30 1.16
551.40 1.16
551.50 1.16
551.60 1.161
551.70 1.161
551.80 1.161
551.90 1.161
552.00 1.162
552.10 1.162
552.20 1.162
552.30 1.162
552.40 1.163
552.50 1.163
552.60 1.163
552.70 1.163
552.80 1.164
552.90 1.164
553.00 1.164
553.10 1.164
553.20 1.165
553.30 1.165
553.40 1.165
553.50 1.165
553.60 1.166
553.70 1.166
553.80 1.166
553.90 1.166
554.00 1.167
554.10 1.167
554.20 1.167
554.30 1.167
554.40 1.168
554.50 1.168
554.60 1.168
554.70 1.168
554.80 1.169
554.90 1.169
555.00 1.169
555.10 1.169
555.20 1.17
555.30 1.17
555.40 1.17
555.50 1.17
555.60 1.171
555.70 1.171
555.80 1.171
555.90 1.171
556.00 1.172
556.10 1.172
556.20 1.172
556.30 1.172
556.40 1.173
556.50 1.173
556.60 1.173
556.70 1.173
556.80 1.174
556.90 1.174
557.00 1.174
557.10 1.174
557.20 1.175
557.30 1.175
557.40 1.175
557.50 1.175
557.60 1.176
557.70 1.176
557.80 1.176
557.90 1.176
558.00 1.177
558.10 1.177
558.20 1.177
558.30 1.177
558.40 1.178
558.50 1.178
558.60 1.178
558.70 1.178
558.80 1.179
558.90 1.179
559.00 1.179
559.10 1.179
559.20 1.179
559.30 1.18
559.40 1.18
559.50 1.18
559.60 1.18
559.70 1.181
559.80 1.181
559.90 1.181
560.00 1.181
560.10 1.182
560.20 1.182
560.30 1.182
560.40 1.182
560.50 1.183
560.60 1.183
560.70 1.183
560.80 1.183
560.90 1.184
561.00 1.184
561.10 1.184
561.20 1.184
561.30 1.185
561.40 1.185
561.50 1.185
561.60 1.185
561.70 1.185
561.80 1.186
561.90 1.186
562.00 1.186
562.10 1.186
562.20 1.187
562.30 1.187
562.40 1.187
562.50 1.187
562.60 1.188
562.70 1.188
562.80 1.188
562.90 1.188
563.00 1.189
563.10 1.189
563.20 1.189
563.30 1.189
563.40 1.189
563.50 1.19
563.60 1.19
563.70 1.19
563.80 1.19
563.90 1.191
564.00 1.191
564.10 1.191
564.20 1.191
564.30 1.192
564.40 1.192
564.50 1.192
564.60 1.192
564.70 1.192
564.80 1.193
564.90 1.193
565.00 1.193
565.10 1.193
565.20 1.194
565.30 1.194
565.40 1.194
565.50 1.194
565.60 1.195
565.70 1.195
565.80 1.195
565.90 1.195
566.00 1.195
566.10 1.196
566.20 1.196
566.30 1.196
566.40 1.196
566.50 1.197
566.60 1.197
566.70 1.197
566.80 1.197
566.90 1.197
567.00 1.198
567.10 1.198
567.20 1.198
567.30 1.198
567.40 1.199
567.50 1.199
567.60 1.199
567.70 1.199
567.80 1.199
567.90 1.2
568.00 1.2
568.10 1.2
568.20 1.2
568.30 1.201
568.40 1.201
568.50 1.201
568.60 1.201
568.70 1.201
568.80 1.202
568.90 1.202
569.00 1.202
569.10 1.202
569.20 1.203
569.30 1.203
569.40 1.203
569.50 1.203
569.60 1.203
569.70 1.204
569.80 1.204
569.90 1.204
570.00 1.204
570.10 1.205
570.20 1.205
570.30 1.205
570.40 1.205
570.50 1.205
570.60 1.206
570.70 1.206
570.80 1.206
570.90 1.206
571.00 1.207
571.10 1.207
571.20 1.207
571.30 1.207
571.40 1.207
571.50 1.208
571.60 1.208
571.70 1.208
571.80 1.208
571.90 1.208
572.00 1.209
572.10 1.209
572.20 1.209
572.30 1.209
572.40 1.21
572.50 1.21
572.60 1.21
572.70 1.21
572.80 1.21
572.90 1.211
573.00 1.211
573.10 1.211
573.20 1.211
573.30 1.211
573.40 1.212
573.50 1.212
573.60 1.212
573.70 1.212
573.80 1.213
573.90 1.213
574.00 1.213
574.10 1.213
574.20 1.213
574.30 1.214
574.40 1.214
574.50 1.214
574.60 1.214
574.70 1.214
574.80 1.215
574.90 1.215
575.00 1.215
575.10 1.215
575.20 1.215
575.30 1.216
575.40 1.216
575.50 1.216
575.60 1.216
575.70 1.216
575.80 1.217
575.90 1.217
576.00 1.217
576.10 1.217
576.20 1.218
576.30 1.218
576.40 1.218
576.50 1.218
576.60 1.218
576.70 1.219
576.80 1.219
576.90 1.219
577.00 1.219
577.10 1.219
577.20 1.22
577.30 1.22
577.40 1.22
577.50 1.22
577.60 1.22
577.70 1.221
577.80 1.221
577.90 1.221
578.00 1.221
578.10 1.221
578.20 1.222
578.30 1.222
578.40 1.222
578.50 1.222
578.60 1.222
578.70 1.223
578.80 1.223
578.90 1.223
579.00 1.223
579.10 1.223
579.20 1.224
579.30 1.224
579.40 1.224
579.50 1.224
579.60 1.224
579.70 1.225
579.80 1.225
579.90 1.225
580.00 1.225
580.10 1.225
580.20 1.226
580.30 1.226
580.40 1.226
580.50 1.226
580.60 1.226
580.70 1.227
580.80 1.227
580.90 1.227
581.00 1.227
581.10 1.227
581.20 1.228
581.30 1.228
581.40 1.228
581.50 1.228
581.60 1.228
581.70 1.229
581.80 1.229
581.90 1.229
582.00 1.229
582.10 1.229
582.20 1.23
582.30 1.23
582.40 1.23
582.50 1.23
582.60 1.23
582.70 1.231
582.80 1.231
582.90 1.231
583.00 1.231
583.10 1.231
583.20 1.231
583.30 1.232
583.40 1.232
583.50 1.232
583.60 1.232
583.70 1.232
583.80 1.233
583.90 1.233
584.00 1.233
584.10 1.233
584.20 1.233
584.30 1.233
584.40 1.234
584.50 1.234
584.60 1.234
584.70 1.234
584.80 1.234
584.90 1.235
585.00 1.235
585.10 1.235
585.20 1.235
585.30 1.235
585.40 1.236
585.50 1.236
585.60 1.236
585.70 1.236
585.80 1.236
585.90 1.237
586.00 1.237
586.10 1.237
586.20 1.237
586.30 1.237
586.40 1.237
586.50 1.238
586.60 1.238
586.70 1.238
586.80 1.238
586.90 1.238
587.00 1.239
587.10 1.239
587.20 1.239
587.30 1.239
587.40 1.239
587.50 1.239
587.60 1.24
587.70 1.24
587.80 1.24
587.90 1.24
588.00 1.24
588.10 1.241
588.20 1.241
588.30 1.241
588.40 1.241
588.50 1.241
588.60 1.241
588.70 1.242
588.80 1.242
588.90 1.242
589.00 1.242
589.10 1.242
589.20 1.242
589.30 1.243
589.40 1.243
589.50 1.243
589.60 1.243
589.70 1.243
589.80 1.244
589.90 1.244
590.00 1.244
590.10 1.244
590.20 1.244
590.30 1.244
590.40 1.245
590.50 1.245
590.60 1.245
590.70 1.245
590.80 1.245
590.90 1.246
591.00 1.246
591.10 1.246
591.20 1.246
591.30 1.246
591.40 1.246
591.50 1.247
591.60 1.247
591.70 1.247
591.80 1.247
591.90 1.247
592.00 1.247
592.10 1.248
592.20 1.248
592.30 1.248
592.40 1.248
592.50 1.248
592.60 1.249
592.70 1.249
592.80 1.249
592.90 1.249
593.00 1.249
593.10 1.249
593.20 1.25
593.30 1.25
593.40 1.25
593.50 1.25
593.60 1.25
593.70 1.25
593.80 1.251
593.90 1.251
594.00 1.251
594.10 1.251
594.20 1.251
594.30 1.251
594.40 1.252
594.50 1.252
594.60 1.252
594.70 1.252
594.80 1.252
594.90 1.252
595.00 1.253
595.10 1.253
595.20 1.253
595.30 1.253
595.40 1.253
595.50 1.253
595.60 1.254
595.70 1.254
595.80 1.254
595.90 1.254
596.00 1.254
596.10 1.254
596.20 1.255
596.30 1.255
596.40 1.255
596.50 1.255
596.60 1.255
596.70 1.255
596.80 1.256
596.90 1.256
597.00 1.256
597.10 1.256
597.20 1.256
597.30 1.256
597.40 1.257
597.50 1.257
597.60 1.257
597.70 1.257
597.80 1.257
597.90 1.257
598.00 1.257
598.10 1.258
598.20 1.258
598.30 1.258
598.40 1.258
598.50 1.258
598.60 1.258
598.70 1.259
598.80 1.259
598.90 1.259
599.00 1.259
599.10 1.259
599.20 1.259
599.30 1.26
599.40 1.26
599.50 1.26
599.60 1.26
599.70 1.26
599.80 1.26
599.90 1.26
600.00 1.261
600.10 1.261
600.20 1.261
600.30 1.261
600.40 1.261
600.50 1.261
600.60 1.262
600.70 1.262
600.80 1.262
600.90 1.262
601.00 1.262
601.10 1.262
601.20 1.262
601.30 1.263
601.40 1.263
601.50 1.263
601.60 1.263
601.70 1.263
601.80 1.263
601.90 1.264
602.00 1.264
602.10 1.264
602.20 1.264
602.30 1.264
602.40 1.264
602.50 1.265
602.60 1.265
602.70 1.265
602.80 1.265
602.90 1.265
603.00 1.265
603.10 1.265
603.20 1.266
603.30 1.266
603.40 1.266
603.50 1.266
603.60 1.266
603.70 1.266
603.80 1.266
603.90 1.267
604.00 1.267
604.10 1.267
604.20 1.267
604.30 1.267
604.40 1.267
604.50 1.267
604.60 1.268
604.70 1.268
604.80 1.268
604.90 1.268
605.00 1.268
605.10 1.268
605.20 1.269
605.30 1.269
605.40 1.269
605.50 1.269
605.60 1.269
605.70 1.269
605.80 1.269
605.90 1.27
606.00 1.27
606.10 1.27
606.20 1.27
606.30 1.27
606.40 1.27
606.50 1.27
606.60 1.271
606.70 1.271
606.80 1.271
606.90 1.271
607.00 1.271
607.10 1.271
607.20 1.271
607.30 1.272
607.40 1.272
607.50 1.272
607.60 1.272
607.70 1.272
607.80 1.272
607.90 1.272
608.00 1.273
608.10 1.273
608.20 1.273
608.30 1.273
608.40 1.273
608.50 1.273
608.60 1.273
608.70 1.273
608.80 1.274
608.90 1.274
609.00 1.274
609.10 1.274
609.20 1.274
609.30 1.274
609.40 1.274
609.50 1.275
609.60 1.275
609.70 1.275
609.80 1.275
609.90 1.275
610.00 1.275
610.10 1.275
610.20 1.276
610.30 1.276
610.40 1.276
610.50 1.276
610.60 1.276
610.70 1.276
610.80 1.276
610.90 1.276
611.00 1.277
611.10 1.277
611.20 1.277
611.30 1.277
611.40 1.277
611.50 1.277
611.60 1.277
611.70 1.278
611.80 1.278
611.90 1.278
612.00 1.278
612.10 1.278
612.20 1.278
612.30 1.278
612.40 1.278
612.50 1.279
612.60 1.279
612.70 1.279
612.80 1.279
612.90 1.279
613.00 1.279
613.10 1.279
613.20 1.28
613.30 1.28
613.40 1.28
613.50 1.28
613.60 1.28
613.70 1.28
613.80 1.28
613.90 1.28
614.00 1.281
614.10 1.281
614.20 1.281
614.30 1.281
614.40 1.281
614.50 1.281
614.60 1.281
614.70 1.281
614.80 1.282
614.90 1.282
615.00 1.282
615.10 1.282
615.20 1.282
615.30 1.282
615.40 1.282
615.50 1.282
615.60 1.283
615.70 1.283
615.80 1.283
615.90 1.283
616.00 1.283
616.10 1.283
616.20 1.283
616.30 1.283
616.40 1.284
616.50 1.284
616.60 1.284
616.70 1.284
616.80 1.284
616.90 1.284
617.00 1.284
617.10 1.284
617.20 1.285
617.30 1.285
617.40 1.285
617.50 1.285
617.60 1.285
617.70 1.285
617.80 1.285
617.90 1.285
618.00 1.286
618.10 1.286
618.20 1.286
618.30 1.286
618.40 1.286
618.50 1.286
618.60 1.286
618.70 1.286
618.80 1.286
618.90 1.287
619.00 1.287
619.10 1.287
619.20 1.287
619.30 1.287
619.40 1.287
619.50 1.287
619.60 1.287
619.70 1.288
619.80 1.288
619.90 1.288
620.00 1.288
620.10 1.288
620.20 1.288
620.30 1.288
620.40 1.288
620.50 1.288
620.60 1.289
620.70 1.289
620.80 1.289
620.90 1.289
621.00 1.289
621.10 1.289
621.20 1.289
621.30 1.289
621.40 1.29
621.50 1.29
621.60 1.29
621.70 1.29
621.80 1.29
621.90 1.29
622.00 1.29
622.10 1.29
622.20 1.29
622.30 1.29
622.40 1.291
622.50 1.291
622.60 1.291
622.70 1.291
622.80 1.291
622.90 1.291
623.00 1.291
623.10 1.291
623.20 1.291
623.30 1.292
623.40 1.292
623.50 1.292
623.60 1.292
623.70 1.292
623.80 1.292
623.90 1.292
624.00 1.292
624.10 1.292
624.20 1.293
624.30 1.293
624.40 1.293
624.50 1.293
624.60 1.293
624.70 1.293
624.80 1.293
624.90 1.293
625.00 1.293
625.10 1.294
625.20 1.294
625.30 1.294
625.40 1.294
625.50 1.294
625.60 1.294
625.70 1.294
625.80 1.294
625.90 1.294
626.00 1.294
626.10 1.295
626.20 1.295
626.30 1.295
626.40 1.295
626.50 1.295
626.60 1.295
626.70 1.295
626.80 1.295
626.90 1.295
627.00 1.295
627.10 1.296
627.20 1.296
627.30 1.296
627.40 1.296
627.50 1.296
627.60 1.296
627.70 1.296
627.80 1.296
627.90 1.296
628.00 1.296
628.10 1.297
628.20 1.297
628.30 1.297
628.40 1.297
628.50 1.297
628.60 1.297
628.70 1.297
628.80 1.297
628.90 1.297
629.00 1.297
629.10 1.298
629.20 1.298
629.30 1.298
629.40 1.298
629.50 1.298
629.60 1.298
629.70 1.298
629.80 1.298
629.90 1.298
630.00 1.298
630.10 1.299
630.20 1.299
630.30 1.299
630.40 1.299
630.50 1.299
630.60 1.299
630.70 1.299
630.80 1.299
630.90 1.299
631.00 1.299
631.10 1.299
631.20 1.3
631.30 1.3
631.40 1.3
631.50 1.3
631.60 1.3
631.70 1.3
631.80 1.3
631.90 1.3
632.00 1.3
632.10 1.3
632.20 1.3
632.30 1.301
632.40 1.301
632.50 1.301
632.60 1.301
632.70 1.301
632.80 1.301
632.90 1.301
633.00 1.301
633.10 1.301
633.20 1.301
633.30 1.301
633.40 1.301
633.50 1.302
633.60 1.302
633.70 1.302
633.80 1.302
633.90 1.302
634.00 1.302
634.10 1.302
634.20 1.302
634.30 1.302
634.40 1.302
634.50 1.302
634.60 1.303
634.70 1.303
634.80 1.303
634.90 1.303
635.00 1.303
635.10 1.303
635.20 1.303
635.30 1.303
635.40 1.303
635.50 1.303
635.60 1.303
635.70 1.303
635.80 1.304
635.90 1.304
636.00 1.304
636.10 1.304
636.20 1.304
636.30 1.304
636.40 1.304
636.50 1.304
636.60 1.304
636.70 1.304
636.80 1.304
636.90 1.304
637.00 1.305
637.10 1.305
637.20 1.305
637.30 1.305
637.40 1.305
637.50 1.305
637.60 1.305
637.70 1.305
637.80 1.305
637.90 1.305
638.00 1.305
638.10 1.305
638.20 1.306
638.30 1.306
638.40 1.306
638.50 1.306
638.60 1.306
638.70 1.306
638.80 1.306
638.90 1.306
639.00 1.306
639.10 1.306
639.20 1.306
639.30 1.306
639.40 1.306
639.50 1.307
639.60 1.307
639.70 1.307
639.80 1.307
639.90 1.307
640.00 1.307
640.10 1.307
640.20 1.307
640.30 1.307
640.40 1.307
640.50 1.307
640.60 1.307
640.70 1.307
640.80 1.307
640.90 1.307
641.00 1.308
641.10 1.308
641.20 1.308
641.30 1.308
641.40 1.308
641.50 1.308
641.60 1.308
641.70 1.308
641.80 1.308
641.90 1.308
642.00 1.308
642.10 1.308
642.20 1.308
642.30 1.308
642.40 1.309
642.50 1.309
642.60 1.309
642.70 1.309
642.80 1.309
642.90 1.309
643.00 1.309
643.10 1.309
643.20 1.309
643.30 1.309
643.40 1.309
643.50 1.309
643.60 1.309
643.70 1.309
643.80 1.309
643.90 1.31
644.00 1.31
644.10 1.31
644.20 1.31
644.30 1.31
644.40 1.31
644.50 1.31
644.60 1.31
644.70 1.31
644.80 1.31
644.90 1.31
645.00 1.31
645.10 1.31
645.20 1.31
645.30 1.31
645.40 1.31
645.50 1.311
645.60 1.311
645.70 1.311
645.80 1.311
645.90 1.311
646.00 1.311
646.10 1.311
646.20 1.311
646.30 1.311
646.40 1.311
646.50 1.311
646.60 1.311
646.70 1.311
646.80 1.311
646.90 1.311
647.00 1.312
647.10 1.312
647.20 1.312
647.30 1.312
647.40 1.312
647.50 1.312
647.60 1.312
647.70 1.312
647.80 1.312
647.90 1.312
648.00 1.312
648.10 1.312
648.20 1.312
648.30 1.312
648.40 1.312
648.50 1.312
648.60 1.312
648.70 1.312
648.80 1.312
648.90 1.313
649.00 1.313
649.10 1.313
649.20 1.313
649.30 1.313
649.40 1.313
649.50 1.313
649.60 1.313
649.70 1.313
649.80 1.313
649.90 1.313
650.00 1.313
650.10 1.313
650.20 1.313
650.30 1.313
650.40 1.313
650.50 1.313
650.60 1.313
650.70 1.313
650.80 1.314
650.90 1.314
651.00 1.314
651.10 1.314
651.20 1.314
651.30 1.314
651.40 1.314
651.50 1.314
651.60 1.314
651.70 1.314
651.80 1.314
651.90 1.314
652.00 1.314
652.10 1.314
652.20 1.314
652.30 1.314
652.40 1.314
652.50 1.314
652.60 1.314
652.70 1.314
652.80 1.314
652.90 1.315
653.00 1.315
653.10 1.315
653.20 1.315
653.30 1.315
653.40 1.315
653.50 1.315
653.60 1.315
653.70 1.315
653.80 1.315
653.90 1.315
654.00 1.315
654.10 1.315
654.20 1.315
654.30 1.315
654.40 1.315
654.50 1.315
654.60 1.315
654.70 1.315
654.80 1.315
654.90 1.315
655.00 1.315
655.10 1.315
655.20 1.315
655.30 1.316
655.40 1.316
655.50 1.316
655.60 1.316
655.70 1.316
655.80 1.316
655.90 1.316
656.00 1.316
656.10 1.316
656.20 1.316
656.30 1.316
656.40 1.316
656.50 1.316
656.60 1.316
656.70 1.316
656.80 1.316
656.90 1.316
657.00 1.316
657.10 1.316
657.20 1.316
657.30 1.316
657.40 1.316
657.50 1.316
657.60 1.316
657.70 1.316
657.80 1.316
657.90 1.316
658.00 1.317
658.10 1.317
658.20 1.317
658.30 1.317
658.40 1.317
658.50 1.317
658.60 1.317
658.70 1.317
658.80 1.317
658.90 1.317
659.00 1.317
659.10 1.317
659.20 1.317
659.30 1.317
659.40 1.317
659.50 1.317
659.60 1.317
659.70 1.317
659.80 1.317
659.90 1.317
660.00 1.317
660.10 1.317
660.20 1.317
660.30 1.317
660.40 1.317
660.50 1.317
660.60 1.317
660.70 1.317
660.80 1.317
660.90 1.317
661.00 1.317
661.10 1.317
661.20 1.317
661.30 1.318
661.40 1.318
661.50 1.318
661.60 1.318
661.70 1.318
661.80 1.318
661.90 1.318
662.00 1.318
662.10 1.318
662.20 1.318
662.30 1.318
662.40 1.318
662.50 1.318
662.60 1.318
662.70 1.318
662.80 1.318
662.90 1.318
663.00 1.318
663.10 1.318
663.20 1.318
663.30 1.318
663.40 1.318
663.50 1.318
663.60 1.318
663.70 1.318
663.80 1.318
663.90 1.318
664.00 1.318
664.10 1.318
664.20 1.318
664.30 1.318
664.40 1.318
664.50 1.318
664.60 1.318
664.70 1.318
664.80 1.318
664.90 1.318
665.00 1.318
665.10 1.318
665.20 1.318
665.30 1.318
665.40 1.318
665.50 1.318
665.60 1.318
665.70 1.318
665.80 1.318
665.90 1.318
666.00 1.318
666.10 1.318
666.20 1.318
666.30 1.318
666.40 1.318
666.50 1.318
666.60 1.318
666.70 1.318
666.80 1.318
666.90 1.318
667.00 1.318
667.10 1.318
667.20 1.319
667.30 1.319
667.40 1.319
667.50 1.319
667.60 1.319
667.70 1.319
667.80 1.319
667.90 1.319
668.00 1.319
668.10 1.319
668.20 1.319
668.30 1.319
668.40 1.319
668.50 1.319
668.60 1.319
668.70 1.319
668.80 1.319
668.90 1.319
669.00 1.319
669.10 1.319
669.20 1.319
669.30 1.319
669.40 1.319
669.50 1.319
669.60 1.319
669.70 1.319
669.80 1.319
669.90 1.319
670.00 1.319
670.10 1.319
670.20 1.319
670.30 1.319
670.40 1.319
670.50 1.319
670.60 1.319
670.70 1.319
670.80 1.319
670.90 1.319
671.00 1.319
671.10 1.319
671.20 1.319
671.30 1.319
671.40 1.319
671.50 1.319
671.60 1.319
671.70 1.319
671.80 1.319
671.90 1.319
672.00 1.319
672.10 1.319
672.20 1.319
672.30 1.319
672.40 1.319
672.50 1.319
672.60 1.319
672.70 1.319
672.80 1.319
672.90 1.319
673.00 1.319
673.10 1.319
673.20 1.319
673.30 1.319
673.40 1.319
673.50 1.319
673.60 1.319
673.70 1.319
673.80 1.319
673.90 1.319
674.00 1.319
674.10 1.318
674.20 1.318
674.30 1.318
674.40 1.318
674.50 1.318
674.60 1.318
674.70 1.318
674.80 1.318
674.90 1.318
675.00 1.318
675.10 1.318
675.20 1.318
675.30 1.318
675.40 1.318
675.50 1.318
675.60 1.318
675.70 1.318
675.80 1.318
675.90 1.318
676.00 1.318
676.10 1.318
676.20 1.318
676.30 1.318
676.40 1.318
676.50 1.318
676.60 1.318
676.70 1.318
676.80 1.318
676.90 1.318
677.00 1.318
677.10 1.318
677.20 1.318
677.30 1.318
677.40 1.318
677.50 1.318
677.60 1.318
677.70 1.318
677.80 1.318
677.90 1.318
678.00 1.318
678.10 1.318
678.20 1.318
678.30 1.318
678.40 1.318
678.50 1.318
678.60 1.318
678.70 1.318
678.80 1.318
678.90 1.318
679.00 1.318
679.10 1.318
679.20 1.318
679.30 1.318
679.40 1.318
679.50 1.318
679.60 1.318
679.70 1.318
679.80 1.317
679.90 1.317
680.00 1.317
680.10 1.317
680.20 1.317
680.30 1.317
680.40 1.317
680.50 1.317
680.60 1.317
680.70 1.317
680.80 1.317
680.90 1.317
681.00 1.317
681.10 1.317
681.20 1.317
681.30 1.317
681.40 1.317
681.50 1.317
681.60 1.317
681.70 1.317
681.80 1.317
681.90 1.317
682.00 1.317
682.10 1.317
682.20 1.317
682.30 1.317
682.40 1.317
682.50 1.317
682.60 1.317
682.70 1.317
682.80 1.317
682.90 1.316
683.00 1.316
683.10 1.316
683.20 1.316
683.30 1.316
683.40 1.316
683.50 1.316
683.60 1.316
683.70 1.316
683.80 1.316
683.90 1.316
684.00 1.316
684.10 1.316
684.20 1.316
684.30 1.316
684.40 1.316
684.50 1.316
684.60 1.316
684.70 1.316
684.80 1.316
684.90 1.316
685.00 1.316
685.10 1.316
685.20 1.316
685.30 1.316
685.40 1.316
685.50 1.315
685.60 1.315
685.70 1.315
685.80 1.315
685.90 1.315
686.00 1.315
686.10 1.315
686.20 1.315
686.30 1.315
686.40 1.315
686.50 1.315
686.60 1.315
686.70 1.315
686.80 1.315
686.90 1.315
687.00 1.315
687.10 1.315
687.20 1.315
687.30 1.315
687.40 1.315
687.50 1.314
687.60 1.314
687.70 1.314
687.80 1.314
687.90 1.314
688.00 1.314
688.10 1.314
688.20 1.314
688.30 1.314
688.40 1.314
688.50 1.314
688.60 1.314
688.70 1.314
688.80 1.314
688.90 1.314
689.00 1.314
689.10 1.314
689.20 1.313
689.30 1.313
689.40 1.313
689.50 1.313
689.60 1.313
689.70 1.313
689.80 1.313
689.90 1.313
690.00 1.313
690.10 1.313
690.20 1.313
690.30 1.313
690.40 1.313
690.50 1.313
690.60 1.313
690.70 1.312
690.80 1.312
690.90 1.312
691.00 1.312
691.10 1.312
691.20 1.312
691.30 1.312
691.40 1.312
691.50 1.312
691.60 1.312
691.70 1.312
691.80 1.312
691.90 1.312
692.00 1.312
692.10 1.311
692.20 1.311
692.30 1.311
692.40 1.311
692.50 1.311
692.60 1.311
692.70 1.311
692.80 1.311
692.90 1.311
693.00 1.311
693.10 1.311
693.20 1.311
693.30 1.311
693.40 1.311
693.50 1.31
693.60 1.31
693.70 1.31
693.80 1.31
693.90 1.31
694.00 1.31
694.10 1.31
694.20 1.31
694.30 1.31
694.40 1.31
694.50 1.31
694.60 1.31
694.70 1.31
694.80 1.31
694.90 1.309
695.00 1.309
695.10 1.309
695.20 1.309
695.30 1.309
695.40 1.309
695.50 1.309
695.60 1.309
695.70 1.309
695.80 1.309
695.90 1.309
696.00 1.308
696.10 1.308
696.20 1.308
696.30 1.308
696.40 1.308
696.50 1.308
696.60 1.308
696.70 1.308
696.80 1.308
696.90 1.308
697.00 1.308
697.10 1.307
697.20 1.307
697.30 1.307
697.40 1.307
697.50 1.307
697.60 1.307
697.70 1.307
697.80 1.307
697.90 1.307
698.00 1.307
698.10 1.307
698.20 1.306
698.30 1.306
698.40 1.306
698.50 1.306
698.60 1.306
698.70 1.306
698.80 1.306
698.90 1.306
699.00 1.306
699.10 1.306
699.20 1.306
699.30 1.305
699.40 1.305
699.50 1.305
699.60 1.305
699.70 1.305
699.80 1.305
699.90 1.305
700.00 1.305
700.10 1.305
700.20 1.305
700.30 1.304
700.40 1.304
700.50 1.304
700.60 1.304
700.70 1.304
700.80 1.304
700.90 1.304
701.00 1.304
701.10 1.304
701.20 1.303
701.30 1.303
701.40 1.303
701.50 1.303
701.60 1.303
701.70 1.303
701.80 1.303
701.90 1.303
702.00 1.303
702.10 1.302
702.20 1.302
702.30 1.302
702.40 1.302
702.50 1.302
702.60 1.302
702.70 1.302
702.80 1.302
702.90 1.302
703.00 1.301
703.10 1.301
703.20 1.301
703.30 1.301
703.40 1.301
703.50 1.301
703.60 1.301
703.70 1.301
703.80 1.301
703.90 1.3
704.00 1.3
704.10 1.3
704.20 1.3
704.30 1.3
704.40 1.3
704.50 1.3
704.60 1.3
704.70 1.3
704.80 1.299
704.90 1.299
705.00 1.299
705.10 1.299
705.20 1.299
705.30 1.299
705.40 1.299
705.50 1.299
705.60 1.298
705.70 1.298
705.80 1.298
705.90 1.298
706.00 1.298
706.10 1.298
706.20 1.298
706.30 1.298
706.40 1.297
706.50 1.297
706.60 1.297
706.70 1.297
706.80 1.297
706.90 1.297
707.00 1.297
707.10 1.297
707.20 1.296
707.30 1.296
707.40 1.296
707.50 1.296
707.60 1.296
707.70 1.296
707.80 1.296
707.90 1.295
708.00 1.295
708.10 1.295
708.20 1.295
708.30 1.295
708.40 1.295
708.50 1.295
708.60 1.295
708.70 1.294
708.80 1.294
708.90 1.294
709.00 1.294
709.10 1.294
709.20 1.294
709.30 1.294
709.40 1.294
709.50 1.293
709.60 1.293
709.70 1.293
709.80 1.293
709.90 1.293
710.00 1.293
710.10 1.293
710.20 1.292
710.30 1.292
710.40 1.292
710.50 1.292
710.60 1.292
710.70 1.292
710.80 1.292
710.90 1.291
711.00 1.291
711.10 1.291
711.20 1.291
711.30 1.291
711.40 1.291
711.50 1.291
711.60 1.29
711.70 1.29
711.80 1.29
711.90 1.29
712.00 1.29
712.10 1.29
712.20 1.289
712.30 1.289
712.40 1.289
712.50 1.289
712.60 1.289
712.70 1.289
712.80 1.289
712.90 1.288
713.00 1.288
713.10 1.288
713.20 1.288
713.30 1.288
713.40 1.288
713.50 1.288
713.60 1.287
713.70 1.287
713.80 1.287
713.90 1.287
714.00 1.287
714.10 1.287
714.20 1.287
714.30 1.286
714.40 1.286
714.50 1.286
714.60 1.286
714.70 1.286
714.80 1.286
714.90 1.286
715.00 1.285
715.10 1.285
715.20 1.285
715.30 1.285
715.40 1.285
715.50 1.285
715.60 1.284
715.70 1.284
715.80 1.284
715.90 1.284
716.00 1.284
716.10 1.284
716.20 1.283
716.30 1.283
716.40 1.283
716.50 1.283
716.60 1.283
716.70 1.283
716.80 1.282
716.90 1.282
717.00 1.282
717.10 1.282
717.20 1.282
717.30 1.282
717.40 1.281
717.50 1.281
717.60 1.281
717.70 1.281
717.80 1.281
717.90 1.281
718.00 1.28
718.10 1.28
718.20 1.28
718.30 1.28
718.40 1.28
718.50 1.28
718.60 1.279
718.70 1.279
718.80 1.279
718.90 1.279
719.00 1.279
719.10 1.279
719.20 1.278
719.30 1.278
719.40 1.278
719.50 1.278
719.60 1.278
719.70 1.278
719.80 1.277
719.90 1.277
720.00 1.277
720.10 1.277
720.20 1.277
720.30 1.277
720.40 1.276
720.50 1.276
720.60 1.276
720.70 1.276
720.80 1.276
720.90 1.276
721.00 1.275
721.10 1.275
721.20 1.275
721.30 1.275
721.40 1.275
721.50 1.275
721.60 1.274
721.70 1.274
721.80 1.274
721.90 1.274
722.00 1.274
722.10 1.274
722.20 1.273
722.30 1.273
722.40 1.273
722.50 1.273
722.60 1.273
722.70 1.272
722.80 1.272
722.90 1.272
723.00 1.272
723.10 1.272
723.20 1.272
723.30 1.271
723.40 1.271
723.50 1.271
723.60 1.271
723.70 1.271
723.80 1.271
723.90 1.27
724.00 1.27
724.10 1.27
724.20 1.27
724.30 1.27
724.40 1.27
724.50 1.269
724.60 1.269
724.70 1.269
724.80 1.269
724.90 1.269
725.00 1.269
725.10 1.268
725.20 1.268
725.30 1.268
725.40 1.268
725.50 1.268
725.60 1.267
725.70 1.267
725.80 1.267
725.90 1.267
726.00 1.267
726.10 1.267
726.20 1.266
726.30 1.266
726.40 1.266
726.50 1.266
726.60 1.266
726.70 1.265
726.80 1.265
726.90 1.265
727.00 1.265
727.10 1.265
727.20 1.265
727.30 1.264
727.40 1.264
727.50 1.264
727.60 1.264
727.70 1.264
727.80 1.263
727.90 1.263
728.00 1.263
728.10 1.263
728.20 1.263
728.30 1.263
728.40 1.262
728.50 1.262
728.60 1.262
728.70 1.262
728.80 1.262
728.90 1.262
729.00 1.261
729.10 1.261
729.20 1.261
729.30 1.261
729.40 1.261
729.50 1.26
729.60 1.26
729.70 1.26
729.80 1.26
729.90 1.26
730.00 1.26
730.10 1.259
730.20 1.259
730.30 1.259
730.40 1.259
730.50 1.259
730.60 1.258
730.70 1.258
730.80 1.258
730.90 1.258
731.00 1.258
731.10 1.258
731.20 1.257
731.30 1.257
731.40 1.257
731.50 1.257
731.60 1.257
731.70 1.257
731.80 1.256
731.90 1.256
732.00 1.256
732.10 1.256
732.20 1.256
732.30 1.255
732.40 1.255
732.50 1.255
732.60 1.255
732.70 1.255
732.80 1.255
732.90 1.254
733.00 1.254
733.10 1.254
733.20 1.254
733.30 1.254
733.40 1.253
733.50 1.253
733.60 1.253
733.70 1.253
733.80 1.253
733.90 1.253
734.00 1.252
734.10 1.252
734.20 1.252
734.30 1.252
734.40 1.252
734.50 1.252
734.60 1.251
734.70 1.251
734.80 1.251
734.90 1.251
735.00 1.251
735.10 1.25
735.20 1.25
735.30 1.25
735.40 1.25
735.50 1.25
735.60 1.25
735.70 1.249
735.80 1.249
735.90 1.249
736.00 1.249
736.10 1.249
736.20 1.249
736.30 1.248
736.40 1.248
736.50 1.248
736.60 1.248
736.70 1.248
736.80 1.247
736.90 1.247
737.00 1.247
737.10 1.247
737.20 1.247
737.30 1.247
737.40 1.246
737.50 1.246
737.60 1.246
737.70 1.246
737.80 1.246
737.90 1.246
738.00 1.245
738.10 1.245
738.20 1.245
738.30 1.245
738.40 1.245
738.50 1.245
738.60 1.244
738.70 1.244
738.80 1.244
738.90 1.244
739.00 1.244
739.10 1.243
739.20 1.243
739.30 1.243
739.40 1.243
739.50 1.243
739.60 1.243
739.70 1.242
739.80 1.242
739.90 1.242
740.00 1.242
740.10 1.242
740.20 1.242
740.30 1.241
740.40 1.241
740.50 1.241
740.60 1.241
740.70 1.241
740.80 1.241
740.90 1.24
741.00 1.24
741.10 1.24
741.20 1.24
741.30 1.24
741.40 1.24
741.50 1.239
741.60 1.239
741.70 1.239
741.80 1.239
741.90 1.239
742.00 1.239
742.10 1.238
742.20 1.238
742.30 1.238
742.40 1.238
742.50 1.238
742.60 1.238
742.70 1.237
742.80 1.237
742.90 1.237
743.00 1.237
743.10 1.237
743.20 1.237
743.30 1.237
743.40 1.236
743.50 1.236
743.60 1.236
743.70 1.236
743.80 1.236
743.90 1.236
744.00 1.235
744.10 1.235
744.20 1.235
744.30 1.235
744.40 1.235
744.50 1.235
744.60 1.234
744.70 1.234
744.80 1.234
744.90 1.234
745.00 1.234
745.10 1.234
745.20 1.233
745.30 1.233
745.40 1.233
745.50 1.233
745.60 1.233
745.70 1.233
745.80 1.232
745.90 1.232
746.00 1.232
746.10 1.232
746.20 1.232
746.30 1.232
746.40 1.232
746.50 1.231
746.60 1.231
746.70 1.231
746.80 1.231
746.90 1.231
747.00 1.231
747.10 1.23
747.20 1.23
747.30 1.23
747.40 1.23
747.50 1.23
747.60 1.23
747.70 1.229
747.80 1.229
747.90 1.229
748.00 1.229
748.10 1.229
748.20 1.229
748.30 1.228
748.40 1.228
748.50 1.228
748.60 1.228
748.70 1.228
748.80 1.228
748.90 1.227
749.00 1.227
749.10 1.227
749.20 1.227
749.30 1.227
749.40 1.227
749.50 1.227
749.60 1.226
749.70 1.226
749.80 1.226
749.90 1.226
750.00 1.226
750.10 1.226
750.20 1.225
750.30 1.225
750.40 1.225
750.50 1.225
750.60 1.225
750.70 1.225
750.80 1.225
750.90 1.224
751.00 1.224
751.10 1.224
751.20 1.224
751.30 1.224
751.40 1.224
751.50 1.223
751.60 1.223
751.70 1.223
751.80 1.223
751.90 1.223
752.00 1.223
752.10 1.223
752.20 1.222
752.30 1.222
752.40 1.222
752.50 1.222
752.60 1.222
752.70 1.222
752.80 1.221
752.90 1.221
753.00 1.221
753.10 1.221
753.20 1.221
753.30 1.221
753.40 1.221
753.50 1.22
753.60 1.22
753.70 1.22
753.80 1.22
753.90 1.22
754.00 1.22
754.10 1.22
754.20 1.219
754.30 1.219
754.40 1.219
754.50 1.219
754.60 1.219
754.70 1.219
754.80 1.218
754.90 1.218
755.00 1.218
755.10 1.218
755.20 1.218
755.30 1.218
755.40 1.218
755.50 1.217
755.60 1.217
755.70 1.217
755.80 1.217
755.90 1.217
756.00 1.217
756.10 1.217
756.20 1.216
756.30 1.216
756.40 1.216
756.50 1.216
756.60 1.216
756.70 1.216
756.80 1.215
756.90 1.215
757.00 1.215
757.10 1.215
757.20 1.215
757.30 1.215
757.40 1.215
757.50 1.214
757.60 1.214
757.70 1.214
757.80 1.214
757.90 1.214
758.00 1.214
758.10 1.214
758.20 1.213
758.30 1.213
758.40 1.213
758.50 1.213
758.60 1.213
758.70 1.213
758.80 1.212
758.90 1.212
759.00 1.212
759.10 1.212
759.20 1.212
759.30 1.212
759.40 1.212
759.50 1.211
759.60 1.211
759.70 1.211
759.80 1.211
759.90 1.211
760.00 1.211
760.10 1.211
760.20 1.21
760.30 1.21
760.40 1.21
760.50 1.21
760.60 1.21
760.70 1.21
760.80 1.21
760.90 1.209
761.00 1.209
761.10 1.209
761.20 1.209
761.30 1.209
761.40 1.209
761.50 1.209
761.60 1.208
761.70 1.208
761.80 1.208
761.90 1.208
762.00 1.208
762.10 1.208
762.20 1.208
762.30 1.207
762.40 1.207
762.50 1.207
762.60 1.207
762.70 1.207
762.80 1.207
762.90 1.207
763.00 1.206
763.10 1.206
763.20 1.206
763.30 1.206
763.40 1.206
763.50 1.206
763.60 1.206
763.70 1.205
763.80 1.205
763.90 1.205
764.00 1.205
764.10 1.205
764.20 1.205
764.30 1.205
764.40 1.204
764.50 1.204
764.60 1.204
764.70 1.204
764.80 1.204
764.90 1.204
765.00 1.204
765.10 1.203
765.20 1.203
765.30 1.203
765.40 1.203
765.50 1.203
765.60 1.203
765.70 1.203
765.80 1.202
765.90 1.202
766.00 1.202
766.10 1.202
766.20 1.202
766.30 1.202
766.40 1.202
766.50 1.201
766.60 1.201
766.70 1.201
766.80 1.201
766.90 1.201
767.00 1.201
767.10 1.201
767.20 1.2
767.30 1.2
767.40 1.2
767.50 1.2
767.60 1.2
767.70 1.2
767.80 1.2
767.90 1.199
768.00 1.199
768.10 1.199
768.20 1.199
768.30 1.199
768.40 1.199
768.50 1.199
768.60 1.198
768.70 1.198
768.80 1.198
768.90 1.198
769.00 1.198
769.10 1.198
769.20 1.198
769.30 1.197
769.40 1.197
769.50 1.197
769.60 1.197
769.70 1.197
769.80 1.197
769.90 1.197
770.00 1.196
770.10 1.196
770.20 1.196
770.30 1.196
770.40 1.196
770.50 1.196
770.60 1.196
770.70 1.196
770.80 1.195
770.90 1.195
771.00 1.195
771.10 1.195
771.20 1.195
771.30 1.195
771.40 1.195
771.50 1.195
771.60 1.194
771.70 1.194
771.80 1.194
771.90 1.194
772.00 1.194
772.10 1.194
772.20 1.194
772.30 1.194
772.40 1.193
772.50 1.193
772.60 1.193
772.70 1.193
772.80 1.193
772.90 1.193
773.00 1.193
773.10 1.192
773.20 1.192
773.30 1.192
773.40 1.192
773.50 1.192
773.60 1.192
773.70 1.192
773.80 1.192
773.90 1.191
774.00 1.191
774.10 1.191
774.20 1.191
774.30 1.191
774.40 1.191
774.50 1.191
774.60 1.191
774.70 1.19
774.80 1.19
774.90 1.19
775.00 1.19
775.10 1.19
775.20 1.19
775.30 1.19
775.40 1.189
775.50 1.189
775.60 1.189
775.70 1.189
775.80 1.189
775.90 1.189
776.00 1.189
776.10 1.189
776.20 1.188
776.30 1.188
776.40 1.188
776.50 1.188
776.60 1.188
776.70 1.188
776.80 1.188
776.90 1.188
777.00 1.187
777.10 1.187
777.20 1.187
777.30 1.187
777.40 1.187
777.50 1.187
777.60 1.187
777.70 1.187
777.80 1.186
777.90 1.186
778.00 1.186
778.10 1.186
778.20 1.186
778.30 1.186
778.40 1.186
778.50 1.186
778.60 1.185
778.70 1.185
778.80 1.185
778.90 1.185
779.00 1.185
779.10 1.185
779.20 1.185
779.30 1.184
779.40 1.184
779.50 1.184
779.60 1.184
779.70 1.184
779.80 1.184
779.90 1.184
780.00 1.184
780.10 1.183
780.20 1.183
780.30 1.183
780.40 1.183
780.50 1.183
780.60 1.183
780.70 1.183
780.80 1.183
780.90 1.183
781.00 1.182
781.10 1.182
781.20 1.182
781.30 1.182
781.40 1.182
781.50 1.182
781.60 1.182
781.70 1.182
781.80 1.182
781.90 1.181
782.00 1.181
782.10 1.181
782.20 1.181
782.30 1.181
782.40 1.181
782.50 1.181
782.60 1.181
782.70 1.181
782.80 1.18
782.90 1.18
783.00 1.18
783.10 1.18
783.20 1.18
783.30 1.18
783.40 1.18
783.50 1.18
783.60 1.18
783.70 1.179
783.80 1.179
783.90 1.179
784.00 1.179
784.10 1.179
784.20 1.179
784.30 1.179
784.40 1.179
784.50 1.178
784.60 1.178
784.70 1.178
784.80 1.178
784.90 1.178
785.00 1.178
785.10 1.178
785.20 1.178
785.30 1.178
785.40 1.177
785.50 1.177
785.60 1.177
785.70 1.177
785.80 1.177
785.90 1.177
786.00 1.177
786.10 1.177
786.20 1.177
786.30 1.176
786.40 1.176
786.50 1.176
786.60 1.176
786.70 1.176
786.80 1.176
786.90 1.176
787.00 1.176
787.10 1.176
787.20 1.175
787.30 1.175
787.40 1.175
787.50 1.175
787.60 1.175
787.70 1.175
787.80 1.175
787.90 1.175
788.00 1.175
788.10 1.174
788.20 1.174
788.30 1.174
788.40 1.174
788.50 1.174
788.60 1.174
788.70 1.174
788.80 1.174
788.90 1.174
789.00 1.173
789.10 1.173
789.20 1.173
789.30 1.173
789.40 1.173
789.50 1.173
789.60 1.173
789.70 1.173
789.80 1.173
789.90 1.172
790.00 1.172
790.10 1.172
790.20 1.172
790.30 1.172
790.40 1.172
790.50 1.172
790.60 1.172
790.70 1.171
790.80 1.171
790.90 1.171
791.00 1.171
791.10 1.171
791.20 1.171
791.30 1.171
791.40 1.171
791.50 1.171
791.60 1.17
791.70 1.17
791.80 1.17
791.90 1.17
792.00 1.17
792.10 1.17
792.20 1.17
792.30 1.17
792.40 1.17
792.50 1.169
792.60 1.169
792.70 1.169
792.80 1.169
792.90 1.169
793.00 1.169
793.10 1.169
793.20 1.169
793.30 1.169
793.40 1.168
793.50 1.168
793.60 1.168
793.70 1.168
793.80 1.168
793.90 1.168
794.00 1.168
794.10 1.168
794.20 1.167
794.30 1.167
794.40 1.167
794.50 1.167
794.60 1.167
794.70 1.167
794.80 1.167
794.90 1.167
795.00 1.167
795.10 1.166
795.20 1.166
795.30 1.166
795.40 1.166
795.50 1.166
795.60 1.166
795.70 1.166
795.80 1.166
795.90 1.166
796.00 1.165
796.10 1.165
796.20 1.165
796.30 1.165
796.40 1.165
796.50 1.165
796.60 1.165
796.70 1.165
796.80 1.165
796.90 1.164
797.00 1.164
797.10 1.164
797.20 1.164
797.30 1.164
797.40 1.164
797.50 1.164
797.60 1.164
797.70 1.164
797.80 1.163
797.90 1.163
798.00 1.163
798.10 1.163
798.20 1.163
798.30 1.163
798.40 1.163
798.50 1.163
798.60 1.162
798.70 1.162
798.80 1.162
798.90 1.162
799.00 1.162
799.10 1.162
799.20 1.162
799.30 1.162
799.40 1.162
799.50 1.161
799.60 1.161
799.70 1.161
799.80 1.161
799.90 1.161
800.00 1.161
800.10 1.161
800.20 1.161
800.30 1.16
800.40 1.16
800.50 1.16
800.60 1.16
800.70 1.16
800.80 1.16
800.90 1.16
801.00 1.16
801.10 1.159
801.20 1.159
801.30 1.159
801.40 1.159
801.50 1.159
801.60 1.159
801.70 1.159
801.80 1.158
801.90 1.158
802.00 1.158
802.10 1.158
802.20 1.158
802.30 1.158
802.40 1.158
802.50 1.157
802.60 1.157
802.70 1.157
802.80 1.157
802.90 1.157
803.00 1.157
803.10 1.157
803.20 1.157
803.30 1.156
803.40 1.156
803.50 1.156
803.60 1.156
803.70 1.156
803.80 1.156
803.90 1.156
804.00 1.155
804.10 1.155
804.20 1.155
804.30 1.155
804.40 1.155
804.50 1.155
804.60 1.155
804.70 1.154
804.80 1.154
804.90 1.154
805.00 1.154
805.10 1.154
805.20 1.154
805.30 1.154
805.40 1.154
805.50 1.153
805.60 1.153
805.70 1.153
805.80 1.153
805.90 1.153
806.00 1.153
806.10 1.153
806.20 1.152
806.30 1.152
806.40 1.152
806.50 1.152
806.60 1.152
806.70 1.152
806.80 1.152
806.90 1.151
807.00 1.151
807.10 1.151
807.20 1.151
807.30 1.151
807.40 1.151
807.50 1.151
807.60 1.151
807.70 1.15
807.80 1.15
807.90 1.15
808.00 1.15
808.10 1.15
808.20 1.15
808.30 1.15
808.40 1.149
808.50 1.149
808.60 1.149
808.70 1.149
808.80 1.149
808.90 1.149
809.00 1.149
809.10 1.149
809.20 1.148
809.30 1.148
809.40 1.148
809.50 1.148
809.60 1.148
809.70 1.148
809.80 1.148
809.90 1.147
810.00 1.147
810.10 1.147
810.20 1.147
810.30 1.147
810.40 1.147
810.50 1.146
810.60 1.146
810.70 1.146
810.80 1.146
810.90 1.146
811.00 1.146
811.10 1.146
811.20 1.145
811.30 1.145
811.40 1.145
811.50 1.145
811.60 1.145
811.70 1.145
811.80 1.144
811.90 1.144
812.00 1.144
812.10 1.144
812.20 1.144
812.30 1.144
812.40 1.143
812.50 1.143
812.60 1.143
812.70 1.143
812.80 1.143
812.90 1.143
813.00 1.142
813.10 1.142
813.20 1.142
813.30 1.142
813.40 1.142
813.50 1.142
813.60 1.141
813.70 1.141
813.80 1.141
813.90 1.141
814.00 1.141
814.10 1.141
814.20 1.14
814.30 1.14
814.40 1.14
814.50 1.14
814.60 1.14
814.70 1.14
814.80 1.139
814.90 1.139
815.00 1.139
815.10 1.139
815.20 1.139
815.30 1.139
815.40 1.138
815.50 1.138
815.60 1.138
815.70 1.138
815.80 1.138
815.90 1.138
816.00 1.138
816.10 1.137
816.20 1.137
816.30 1.137
816.40 1.137
816.50 1.137
816.60 1.137
816.70 1.136
816.80 1.136
816.90 1.136
817.00 1.136
817.10 1.136
817.20 1.136
817.30 1.135
817.40 1.135
817.50 1.135
817.60 1.135
817.70 1.135
817.80 1.135
817.90 1.134
818.00 1.134
818.10 1.134
818.20 1.134
818.30 1.134
818.40 1.134
818.50 1.133
818.60 1.133
818.70 1.133
818.80 1.133
818.90 1.133
819.00 1.133
819.10 1.133
819.20 1.132
819.30 1.132
819.40 1.132
819.50 1.132
819.60 1.132
819.70 1.132
819.80 1.131
819.90 1.131
820.00 1.131
820.10 1.131
820.20 1.131
820.30 1.131
820.40 1.13
820.50 1.13
820.60 1.13
820.70 1.13
820.80 1.13
820.90 1.129
821.00 1.129
821.10 1.129
821.20 1.129
821.30 1.129
821.40 1.129
821.50 1.128
821.60 1.128
821.70 1.128
821.80 1.128
821.90 1.128
822.00 1.128
822.10 1.127
822.20 1.127
822.30 1.127
822.40 1.127
822.50 1.127
822.60 1.126
822.70 1.126
822.80 1.126
822.90 1.126
823.00 1.126
823.10 1.126
823.20 1.125
823.30 1.125
823.40 1.125
823.50 1.125
823.60 1.125
823.70 1.124
823.80 1.124
823.90 1.124
824.00 1.124
824.10 1.124
824.20 1.123
824.30 1.123
824.40 1.123
824.50 1.123
824.60 1.123
824.70 1.123
824.80 1.122
824.90 1.122
825.00 1.122
825.10 1.122
825.20 1.122
825.30 1.121
825.40 1.121
825.50 1.121
825.60 1.121
825.70 1.121
825.80 1.121
825.90 1.12
826.00 1.12
826.10 1.12
826.20 1.12
826.30 1.12
826.40 1.12
826.50 1.119
826.60 1.119
826.70 1.119
826.80 1.119
826.90 1.119
827.00 1.118
827.10 1.118
827.20 1.118
827.30 1.118
827.40 1.118
827.50 1.117
827.60 1.117
827.70 1.117
827.80 1.117
827.90 1.117
828.00 1.116
828.10 1.116
828.20 1.116
828.30 1.116
828.40 1.116
828.50 1.116
828.60 1.115
828.70 1.115
828.80 1.115
828.90 1.115
829.00 1.115
829.10 1.114
829.20 1.114
829.30 1.114
829.40 1.114
829.50 1.114
829.60 1.113
829.70 1.113
829.80 1.113
829.90 1.113
830.00 1.113
830.10 1.112
830.20 1.112
830.30 1.112
830.40 1.112
830.50 1.112
830.60 1.111
830.70 1.111
830.80 1.111
830.90 1.111
831.00 1.111
831.10 1.111
831.20 1.11
831.30 1.11
831.40 1.11
831.50 1.11
831.60 1.11
831.70 1.109
831.80 1.109
831.90 1.109
832.00 1.109
832.10 1.109
832.20 1.108
832.30 1.108
832.40 1.108
832.50 1.108
832.60 1.108
832.70 1.107
832.80 1.107
832.90 1.107
833.00 1.107
833.10 1.107
833.20 1.106
833.30 1.106
833.40 1.106
833.50 1.106
833.60 1.106
833.70 1.105
833.80 1.105
833.90 1.105
834.00 1.105
834.10 1.105
834.20 1.104
834.30 1.104
834.40 1.104
834.50 1.104
834.60 1.104
834.70 1.103
834.80 1.103
834.90 1.103
835.00 1.103
835.10 1.103
835.20 1.102
835.30 1.102
835.40 1.102
835.50 1.102
835.60 1.102
835.70 1.101
835.80 1.101
835.90 1.101
836.00 1.101
836.10 1.101
836.20 1.1
836.30 1.1
836.40 1.1
836.50 1.1
836.60 1.1
836.70 1.099
836.80 1.099
836.90 1.099
837.00 1.099
837.10 1.099
837.20 1.098
837.30 1.098
837.40 1.098
837.50 1.098
837.60 1.098
837.70 1.097
837.80 1.097
837.90 1.097
838.00 1.097
838.10 1.097
838.20 1.096
838.30 1.096
838.40 1.096
838.50 1.096
838.60 1.096
838.70 1.095
838.80 1.095
838.90 1.095
839.00 1.095
839.10 1.094
839.20 1.094
839.30 1.094
839.40 1.094
839.50 1.094
839.60 1.093
839.70 1.093
839.80 1.093
839.90 1.093
840.00 1.093
840.10 1.092
840.20 1.092
840.30 1.092
840.40 1.092
840.50 1.092
840.60 1.091
840.70 1.091
840.80 1.091
840.90 1.091
841.00 1.091
841.10 1.09
841.20 1.09
841.30 1.09
841.40 1.09
841.50 1.09
841.60 1.089
841.70 1.089
841.80 1.089
841.90 1.089
842.00 1.088
842.10 1.088
842.20 1.088
842.30 1.088
842.40 1.088
842.50 1.087
842.60 1.087
842.70 1.087
842.80 1.087
842.90 1.087
843.00 1.086
843.10 1.086
843.20 1.086
843.30 1.086
843.40 1.085
843.50 1.085
843.60 1.085
843.70 1.085
843.80 1.085
843.90 1.084
844.00 1.084
844.10 1.084
844.20 1.084
844.30 1.084
844.40 1.083
844.50 1.083
844.60 1.083
844.70 1.083
844.80 1.083
844.90 1.082
845.00 1.082
845.10 1.082
845.20 1.082
845.30 1.081
845.40 1.081
845.50 1.081
845.60 1.081
845.70 1.081
845.80 1.08
845.90 1.08
846.00 1.08
846.10 1.08
846.20 1.08
846.30 1.079
846.40 1.079
846.50 1.079
846.60 1.079
846.70 1.078
846.80 1.078
846.90 1.078
847.00 1.078
847.10 1.078
847.20 1.077
847.30 1.077
847.40 1.077
847.50 1.077
847.60 1.076
847.70 1.076
847.80 1.076
847.90 1.076
848.00 1.076
848.10 1.075
848.20 1.075
848.30 1.075
848.40 1.075
848.50 1.075
848.60 1.074
848.70 1.074
848.80 1.074
848.90 1.074
849.00 1.073
849.10 1.073
849.20 1.073
849.30 1.073
849.40 1.073
849.50 1.072
849.60 1.072
849.70 1.072
849.80 1.072
849.90 1.071
850.00 1.071
850.10 1.071
850.20 1.071
850.30 1.071
850.40 1.07
850.50 1.07
850.60 1.07
850.70 1.07
850.80 1.069
850.90 1.069
851.00 1.069
851.10 1.069
851.20 1.069
851.30 1.068
851.40 1.068
851.50 1.068
851.60 1.068
851.70 1.067
851.80 1.067
851.90 1.067
852.00 1.067
852.10 1.067
852.20 1.066
852.30 1.066
852.40 1.066
852.50 1.066
852.60 1.065
852.70 1.065
852.80 1.065
852.90 1.065
853.00 1.065
853.10 1.064
853.20 1.064
853.30 1.064
853.40 1.064
853.50 1.063
853.60 1.063
853.70 1.063
853.80 1.063
853.90 1.063
854.00 1.062
854.10 1.062
854.20 1.062
854.30 1.062
854.40 1.061
854.50 1.061
854.60 1.061
854.70 1.061
854.80 1.06
854.90 1.06
855.00 1.06
855.10 1.06
855.20 1.06
855.30 1.059
855.40 1.059
855.50 1.059
855.60 1.059
855.70 1.058
855.80 1.058
855.90 1.058
856.00 1.058
856.10 1.058
856.20 1.057
856.30 1.057
856.40 1.057
856.50 1.057
856.60 1.056
856.70 1.056
856.80 1.056
856.90 1.056
857.00 1.056
857.10 1.055
857.20 1.055
857.30 1.055
857.40 1.055
857.50 1.054
857.60 1.054
857.70 1.054
857.80 1.054
857.90 1.053
858.00 1.053
858.10 1.053
858.20 1.053
858.30 1.052
858.40 1.052
858.50 1.052
858.60 1.052
858.70 1.052
858.80 1.051
858.90 1.051
859.00 1.051
859.10 1.051
859.20 1.05
859.30 1.05
859.40 1.05
859.50 1.05
859.60 1.049
859.70 1.049
859.80 1.049
859.90 1.049
860.00 1.048
860.10 1.048
860.20 1.048
860.30 1.048
860.40 1.048
860.50 1.047
860.60 1.047
860.70 1.047
860.80 1.047
860.90 1.046
861.00 1.046
861.10 1.046
861.20 1.046
861.30 1.045
861.40 1.045
861.50 1.045
861.60 1.045
861.70 1.045
861.80 1.044
861.90 1.044
862.00 1.044
862.10 1.044
862.20 1.043
862.30 1.043
862.40 1.043
862.50 1.043
862.60 1.042
862.70 1.042
862.80 1.042
862.90 1.042
863.00 1.041
863.10 1.041
863.20 1.041
863.30 1.041
863.40 1.04
863.50 1.04
863.60 1.04
863.70 1.04
863.80 1.039
863.90 1.039
864.00 1.039
864.10 1.039
864.20 1.039
864.30 1.038
864.40 1.038
864.50 1.038
864.60 1.038
864.70 1.037
864.80 1.037
864.90 1.037
865.00 1.037
865.10 1.036
865.20 1.036
865.30 1.036
865.40 1.036
865.50 1.035
865.60 1.035
865.70 1.035
865.80 1.035
865.90 1.034
866.00 1.034
866.10 1.034
866.20 1.034
866.30 1.033
866.40 1.033
866.50 1.033
866.60 1.033
866.70 1.033
866.80 1.032
866.90 1.032
867.00 1.032
867.10 1.032
867.20 1.031
867.30 1.031
867.40 1.031
867.50 1.031
867.60 1.03
867.70 1.03
867.80 1.03
867.90 1.03
868.00 1.029
868.10 1.029
868.20 1.029
868.30 1.029
868.40 1.028
868.50 1.028
868.60 1.028
868.70 1.028
868.80 1.027
868.90 1.027
869.00 1.027
869.10 1.026
869.20 1.026
869.30 1.026
869.40 1.026
869.50 1.025
869.60 1.025
869.70 1.025
869.80 1.025
869.90 1.024
870.00 1.024
870.10 1.024
870.20 1.024
870.30 1.023
870.40 1.023
870.50 1.023
870.60 1.023
870.70 1.022
870.80 1.022
870.90 1.022
871.00 1.022
871.10 1.021
871.20 1.021
871.30 1.021
871.40 1.021
871.50 1.02
871.60 1.02
871.70 1.02
871.80 1.02
871.90 1.019
872.00 1.019
872.10 1.019
872.20 1.019
872.30 1.018
872.40 1.018
872.50 1.018
872.60 1.018
872.70 1.017
872.80 1.017
872.90 1.017
873.00 1.017
873.10 1.016
873.20 1.016
873.30 1.016
873.40 1.016
873.50 1.015
873.60 1.015
873.70 1.015
873.80 1.015
873.90 1.014
874.00 1.014
874.10 1.014
874.20 1.013
874.30 1.013
874.40 1.013
874.50 1.013
874.60 1.012
874.70 1.012
874.80 1.012
874.90 1.012
875.00 1.011
875.10 1.011
875.20 1.011
875.30 1.011
875.40 1.01
875.50 1.01
875.60 1.01
875.70 1.01
875.80 1.009
875.90 1.009
876.00 1.009
876.10 1.008
876.20 1.008
876.30 1.008
876.40 1.008
876.50 1.007
876.60 1.007
876.70 1.007
876.80 1.007
876.90 1.006
877.00 1.006
877.10 1.006
877.20 1.006
877.30 1.005
877.40 1.005
877.50 1.005
877.60 1.004
877.70 1.004
877.80 1.004
877.90 1.004
878.00 1.003
878.10 1.003
878.20 1.003
878.30 1.003
878.40 1.002
878.50 1.002
878.60 1.002
878.70 1.001
878.80 1.001
878.90 1.001
879.00 1.001
879.10 1
879.20 1
879.30 0.9998
879.40 0.9995
879.50 0.9992
879.60 0.9989
879.70 0.9987
879.80 0.9984
879.90 0.9981
880.00 0.9978
880.10 0.9976
880.20 0.9973
880.30 0.997
880.40 0.9967
880.50 0.9965
880.60 0.9962
880.70 0.9959
880.80 0.9957
880.90 0.9954
881.00 0.9951
881.10 0.9948
881.20 0.9946
881.30 0.9943
881.40 0.994
881.50 0.9937
881.60 0.9935
881.70 0.9932
881.80 0.9929
881.90 0.9926
882.00 0.9924
882.10 0.9921
882.20 0.9918
882.30 0.9915
882.40 0.9912
882.50 0.9909
882.60 0.9906
882.70 0.9903
882.80 0.99
882.90 0.9897
883.00 0.9894
883.10 0.9891
883.20 0.9889
883.30 0.9886
883.40 0.9883
883.50 0.988
883.60 0.9877
883.70 0.9874
883.80 0.9871
883.90 0.9868
884.00 0.9865
884.10 0.9862
884.20 0.9859
884.30 0.9856
884.40 0.9854
884.50 0.9851
884.60 0.9848
884.70 0.9845
884.80 0.9842
884.90 0.9839
885.00 0.9836
885.10 0.9833
885.20 0.983
885.30 0.9827
885.40 0.9825
885.50 0.9822
885.60 0.9819
885.70 0.9816
885.80 0.9813
885.90 0.981
886.00 0.9807
886.10 0.9804
886.20 0.9801
886.30 0.9798
886.40 0.9796
886.50 0.9793
886.60 0.979
886.70 0.9787
886.80 0.9784
886.90 0.9781
887.00 0.9778
887.10 0.9775
887.20 0.9772
887.30 0.9769
887.40 0.9766
887.50 0.9763
887.60 0.976
887.70 0.9757
887.80 0.9753
887.90 0.975
888.00 0.9747
888.10 0.9744
888.20 0.9741
888.30 0.9738
888.40 0.9735
888.50 0.9732
888.60 0.9729
888.70 0.9726
888.80 0.9722
888.90 0.9719
889.00 0.9716
889.10 0.9713
889.20 0.971
889.30 0.9707
889.40 0.9704
889.50 0.9701
889.60 0.9698
889.70 0.9695
889.80 0.9692
889.90 0.9689
890.00 0.9685
890.10 0.9682
890.20 0.9679
890.30 0.9676
890.40 0.9673
890.50 0.967
890.60 0.9667
890.70 0.9664
890.80 0.9661
890.90 0.9658
891.00 0.9655
891.10 0.9652
891.20 0.9649
891.30 0.9646
891.40 0.9643
891.50 0.9639
891.60 0.9636
891.70 0.9633
891.80 0.963
891.90 0.9627
892.00 0.9624
892.10 0.9621
892.20 0.9618
892.30 0.9616
892.40 0.9613
892.50 0.961
892.60 0.9607
892.70 0.9604
892.80 0.9601
892.90 0.9598
893.00 0.9595
893.10 0.9592
893.20 0.9589
893.30 0.9587
893.40 0.9584
893.50 0.9581
893.60 0.9578
893.70 0.9575
893.80 0.9572
893.90 0.9569
894.00 0.9566
894.10 0.9564
894.20 0.9561
894.30 0.9558
894.40 0.9555
894.50 0.9552
894.60 0.9549
894.70 0.9546
894.80 0.9543
894.90 0.9541
895.00 0.9538
895.10 0.9535
895.20 0.9532
895.30 0.9529
895.40 0.9526
895.50 0.9523
895.60 0.9521
895.70 0.9518
895.80 0.9515
895.90 0.9512
896.00 0.9509
896.10 0.9506
896.20 0.9503
896.30 0.9501
896.40 0.9498
896.50 0.9495
896.60 0.9492
896.70 0.9489
896.80 0.9486
896.90 0.9483
897.00 0.9481
897.10 0.9477
897.20 0.9474
897.30 0.947
897.40 0.9467
897.50 0.9463
897.60 0.946
897.70 0.9456
897.80 0.9453
897.90 0.9449
898.00 0.9446
898.10 0.9442
898.20 0.9439
898.30 0.9435
898.40 0.9432
898.50 0.9428
898.60 0.9425
898.70 0.9421
898.80 0.9418
898.90 0.9414
899.00 0.9411
899.10 0.9407
899.20 0.9404
899.30 0.94
899.40 0.9397
899.50 0.9393
899.60 0.939
899.70 0.9387
899.80 0.9383
899.90 0.938
900.00 0.9376
900.10 0.9373
900.20 0.9369
900.30 0.9366
900.40 0.9362
900.50 0.9359
900.60 0.9355
900.70 0.9352
900.80 0.9349
900.90 0.9345
901.00 0.9342
901.10 0.9338
901.20 0.9335
901.30 0.9331
901.40 0.9328
901.50 0.9324
901.60 0.9321
901.70 0.9318
901.80 0.9314
901.90 0.9311
902.00 0.9307
902.10 0.9303
902.20 0.9298
902.30 0.9294
902.40 0.9289
902.50 0.9285
902.60 0.928
902.70 0.9276
902.80 0.9271
902.90 0.9267
903.00 0.9263
903.10 0.9258
903.20 0.9254
903.30 0.9249
903.40 0.9245
903.50 0.924
903.60 0.9236
903.70 0.9231
903.80 0.9227
903.90 0.9222
904.00 0.9218
904.10 0.9214
904.20 0.9209
904.30 0.9205
904.40 0.92
904.50 0.9196
904.60 0.9191
904.70 0.9187
904.80 0.9183
904.90 0.9178
905.00 0.9174
905.10 0.9169
905.20 0.9165
905.30 0.916
905.40 0.9156
905.50 0.9152
905.60 0.9147
905.70 0.9143
905.80 0.9138
905.90 0.9134
906.00 0.9129
906.10 0.9125
906.20 0.9121
906.30 0.9116
906.40 0.9112
906.50 0.9107
906.60 0.9103
906.70 0.9099
906.80 0.9094
906.90 0.909
907.00 0.9086
907.10 0.9082
907.20 0.9078
907.30 0.9074
907.40 0.907
907.50 0.9066
907.60 0.9062
907.70 0.9058
907.80 0.9054
907.90 0.905
908.00 0.9046
908.10 0.9042
908.20 0.9038
908.30 0.9034
908.40 0.9031
908.50 0.9027
908.60 0.9023
908.70 0.9019
908.80 0.9015
908.90 0.9011
909.00 0.9007
909.10 0.9003
909.20 0.8999
909.30 0.8995
909.40 0.8991
909.50 0.8988
909.60 0.8984
909.70 0.898
909.80 0.8976
909.90 0.8972
910.00 0.8968
910.10 0.8964
910.20 0.896
910.30 0.8956
910.40 0.8952
910.50 0.8949
910.60 0.8945
910.70 0.8941
910.80 0.8937
910.90 0.8933
911.00 0.8929
911.10 0.8925
911.20 0.8921
911.30 0.8918
911.40 0.8914
911.50 0.891
911.60 0.8906
911.70 0.8902
911.80 0.8898
911.90 0.8894
912.00 0.889
912.10 0.8887
912.20 0.8883
912.30 0.888
912.40 0.8876
912.50 0.8873
912.60 0.8869
912.70 0.8866
912.80 0.8862
912.90 0.8859
913.00 0.8855
913.10 0.8852
913.20 0.8848
913.30 0.8845
913.40 0.8841
913.50 0.8837
913.60 0.8834
913.70 0.883
913.80 0.8827
913.90 0.8823
914.00 0.882
914.10 0.8816
914.20 0.8813
914.30 0.8809
914.40 0.8806
914.50 0.8802
914.60 0.8799
914.70 0.8795
914.80 0.8792
914.90 0.8788
915.00 0.8785
915.10 0.8781
915.20 0.8778
915.30 0.8774
915.40 0.8771
915.50 0.8767
915.60 0.8764
915.70 0.876
915.80 0.8757
915.90 0.8753
916.00 0.875
916.10 0.8746
916.20 0.8743
916.30 0.8739
916.40 0.8736
916.50 0.8732
916.60 0.8729
916.70 0.8725
916.80 0.8722
916.90 0.8718
917.00 0.8715
917.10 0.8711
917.20 0.8707
917.30 0.8703
917.40 0.8699
917.50 0.8695
917.60 0.8692
917.70 0.8688
917.80 0.8684
917.90 0.868
918.00 0.8676
918.10 0.8672
918.20 0.8668
918.30 0.8664
918.40 0.8661
918.50 0.8657
918.60 0.8653
918.70 0.8649
918.80 0.8645
918.90 0.8641
919.00 0.8637
919.10 0.8633
919.20 0.863
919.30 0.8626
919.40 0.8622
919.50 0.8618
919.60 0.8614
919.70 0.861
919.80 0.8606
919.90 0.8602
920.00 0.8599
920.10 0.8595
920.20 0.8591
920.30 0.8587
920.40 0.8583
920.50 0.8579
920.60 0.8576
920.70 0.8572
920.80 0.8568
920.90 0.8564
921.00 0.856
921.10 0.8556
921.20 0.8552
921.30 0.8549
921.40 0.8545
921.50 0.8541
921.60 0.8537
921.70 0.8533
921.80 0.8529
921.90 0.8526
922.00 0.8522
922.10 0.8518
922.20 0.8514
922.30 0.851
922.40 0.8506
922.50 0.8502
922.60 0.8498
922.70 0.8494
922.80 0.849
922.90 0.8486
923.00 0.8482
923.10 0.8478
923.20 0.8474
923.30 0.847
923.40 0.8466
923.50 0.8462
923.60 0.8458
923.70 0.8454
923.80 0.845
923.90 0.8447
924.00 0.8443
924.10 0.8439
924.20 0.8435
924.30 0.8431
924.40 0.8427
924.50 0.8423
924.60 0.8419
924.70 0.8415
924.80 0.8411
924.90 0.8407
925.00 0.8403
925.10 0.8399
925.20 0.8395
925.30 0.8391
925.40 0.8387
925.50 0.8384
925.60 0.838
925.70 0.8376
925.80 0.8372
925.90 0.8368
926.00 0.8364
926.10 0.836
926.20 0.8356
926.30 0.8352
926.40 0.8348
926.50 0.8344
926.60 0.834
926.70 0.8337
926.80 0.8333
926.90 0.8329
927.00 0.8325
927.10 0.8321
927.20 0.8317
927.30 0.8313
927.40 0.8309
927.50 0.8305
927.60 0.8301
927.70 0.8296
927.80 0.8292
927.90 0.8288
928.00 0.8284
928.10 0.828
928.20 0.8276
928.30 0.8272
928.40 0.8268
928.50 0.8264
928.60 0.826
928.70 0.8256
928.80 0.8252
928.90 0.8248
929.00 0.8244
929.10 0.824
929.20 0.8236
929.30 0.8232
929.40 0.8228
929.50 0.8224
929.60 0.822
929.70 0.8216
929.80 0.8212
929.90 0.8208
930.00 0.8204
930.10 0.82
930.20 0.8196
930.30 0.8192
930.40 0.8188
930.50 0.8184
930.60 0.818
930.70 0.8176
930.80 0.8172
930.90 0.8168
931.00 0.8164
931.10 0.816
931.20 0.8156
931.30 0.8152
931.40 0.8148
931.50 0.8144
931.60 0.814
931.70 0.8136
931.80 0.8132
931.90 0.8128
932.00 0.8124
932.10 0.812
932.20 0.8116
932.30 0.8112
932.40 0.8108
932.50 0.8104
932.60 0.81
932.70 0.8096
932.80 0.8092
932.90 0.8088
933.00 0.8083
933.10 0.8079
933.20 0.8075
933.30 0.8071
933.40 0.8067
933.50 0.8063
933.60 0.8059
933.70 0.8055
933.80 0.8051
933.90 0.8047
934.00 0.8043
934.10 0.8039
934.20 0.8035
934.30 0.8031
934.40 0.8027
934.50 0.8023
934.60 0.8019
934.70 0.8014
934.80 0.801
934.90 0.8006
935.00 0.8002
935.10 0.7998
935.20 0.7994
935.30 0.799
935.40 0.7986
935.50 0.7982
935.60 0.7977
935.70 0.7973
935.80 0.7969
935.90 0.7965
936.00 0.7961
936.10 0.7957
936.20 0.7953
936.30 0.7949
936.40 0.7945
936.50 0.7941
936.60 0.7937
936.70 0.7932
936.80 0.7928
936.90 0.7924
937.00 0.792
937.10 0.7916
937.20 0.7912
937.30 0.7908
937.40 0.7904
937.50 0.7899
937.60 0.7895
937.70 0.7891
937.80 0.7887
937.90 0.7883
938.00 0.7879
938.10 0.7874
938.20 0.787
938.30 0.7866
938.40 0.7862
938.50 0.7858
938.60 0.7854
938.70 0.7849
938.80 0.7845
938.90 0.7841
939.00 0.7837
939.10 0.7833
939.20 0.7829
939.30 0.7824
939.40 0.782
939.50 0.7816
939.60 0.7812
939.70 0.7808
939.80 0.7804
939.90 0.78
940.00 0.7795
940.10 0.7791
940.20 0.7787
940.30 0.7783
940.40 0.7779
940.50 0.7775
940.60 0.777
940.70 0.7766
940.80 0.7762
940.90 0.7758
941.00 0.7754
941.10 0.775
941.20 0.7745
941.30 0.7741
941.40 0.7737
941.50 0.7733
941.60 0.7729
941.70 0.7725
941.80 0.772
941.90 0.7716
942.00 0.7712
942.10 0.7708
942.20 0.7704
942.30 0.7699
942.40 0.7695
942.50 0.7691
942.60 0.7687
942.70 0.7683
942.80 0.7679
942.90 0.7674
943.00 0.767
943.10 0.7666
943.20 0.7662
943.30 0.7658
943.40 0.7654
943.50 0.765
943.60 0.7645
943.70 0.7641
943.80 0.7637
943.90 0.7633
944.00 0.7629
944.10 0.7625
944.20 0.7621
944.30 0.7617
944.40 0.7612
944.50 0.7608
944.60 0.7604
944.70 0.76
944.80 0.7596
944.90 0.7591
945.00 0.7587
945.10 0.7583
945.20 0.7579
945.30 0.7575
945.40 0.757
945.50 0.7566
945.60 0.7562
945.70 0.7558
945.80 0.7554
945.90 0.755
946.00 0.7545
946.10 0.7541
946.20 0.7537
946.30 0.7533
946.40 0.7529
946.50 0.7525
946.60 0.752
946.70 0.7516
946.80 0.7512
946.90 0.7508
947.00 0.7504
947.10 0.7499
947.20 0.7495
947.30 0.7491
947.40 0.7487
947.50 0.7482
947.60 0.7478
947.70 0.7474
947.80 0.747
947.90 0.7466
948.00 0.7461
948.10 0.7457
948.20 0.7453
948.30 0.7449
948.40 0.7445
948.50 0.744
948.60 0.7436
948.70 0.7432
948.80 0.7428
948.90 0.7424
949.00 0.7419
949.10 0.7415
949.20 0.7411
949.30 0.7407
949.40 0.7403
949.50 0.7399
949.60 0.7394
949.70 0.739
949.80 0.7386
949.90 0.7382
950.00 0.7378
950.10 0.7373
950.20 0.7369
950.30 0.7365
950.40 0.7361
950.50 0.7357
950.60 0.7353
950.70 0.7348
950.80 0.7344
950.90 0.734
951.00 0.7336
951.10 0.7332
951.20 0.7328
951.30 0.7324
951.40 0.7319
951.50 0.7315
951.60 0.7311
951.70 0.7307
951.80 0.7303
951.90 0.7298
952.00 0.7294
952.10 0.729
952.20 0.7286
952.30 0.7282
952.40 0.7277
952.50 0.7273
952.60 0.7269
952.70 0.7265
952.80 0.7261
952.90 0.7257
953.00 0.7253
953.10 0.7248
953.20 0.7244
953.30 0.724
953.40 0.7236
953.50 0.7232
953.60 0.7228
953.70 0.7223
953.80 0.7219
953.90 0.7215
954.00 0.7211
954.10 0.7207
954.20 0.7203
954.30 0.7199
954.40 0.7194
954.50 0.719
954.60 0.7186
954.70 0.7182
954.80 0.7178
954.90 0.7174
955.00 0.7169
955.10 0.7165
955.20 0.7161
955.30 0.7157
955.40 0.7153
955.50 0.7149
955.60 0.7145
955.70 0.714
955.80 0.7136
955.90 0.7132
956.00 0.7128
956.10 0.7124
956.20 0.7119
956.30 0.7115
956.40 0.7111
956.50 0.7107
956.60 0.7103
956.70 0.7098
956.80 0.7094
956.90 0.709
957.00 0.7086
957.10 0.7082
957.20 0.7077
957.30 0.7073
957.40 0.7069
957.50 0.7065
957.60 0.7061
957.70 0.7057
957.80 0.7053
957.90 0.7049
958.00 0.7044
958.10 0.704
958.20 0.7036
958.30 0.7032
958.40 0.7028
958.50 0.7024
958.60 0.702
958.70 0.7016
958.80 0.7012
958.90 0.7008
959.00 0.7003
959.10 0.6999
959.20 0.6995
959.30 0.6991
959.40 0.6987
959.50 0.6983
959.60 0.6979
959.70 0.6975
959.80 0.6971
959.90 0.6966
960.00 0.6962
960.10 0.6958
960.20 0.6954
960.30 0.695
960.40 0.6946
960.50 0.6942
960.60 0.6938
960.70 0.6934
960.80 0.693
960.90 0.6926
961.00 0.6921
961.10 0.6917
961.20 0.6913
961.30 0.6909
961.40 0.6905
961.50 0.6901
961.60 0.6897
961.70 0.6893
961.80 0.6889
961.90 0.6884
962.00 0.688
962.10 0.6876
962.20 0.6872
962.30 0.6868
962.40 0.6864
962.50 0.686
962.60 0.6856
962.70 0.6852
962.80 0.6848
962.90 0.6844
963.00 0.684
963.10 0.6836
963.20 0.6832
963.30 0.6828
963.40 0.6824
963.50 0.682
963.60 0.6816
963.70 0.6812
963.80 0.6808
963.90 0.6804
964.00 0.68
964.10 0.6796
964.20 0.6792
964.30 0.6788
964.40 0.6784
964.50 0.6779
964.60 0.6775
964.70 0.6771
964.80 0.6767
964.90 0.6763
965.00 0.6759
965.10 0.6755
965.20 0.6751
965.30 0.6747
965.40 0.6743
965.50 0.6739
965.60 0.6735
965.70 0.6731
965.80 0.6727
965.90 0.6723
966.00 0.6718
966.10 0.6714
966.20 0.671
966.30 0.6706
966.40 0.6702
966.50 0.6698
966.60 0.6694
966.70 0.669
966.80 0.6686
966.90 0.6682
967.00 0.6678
967.10 0.6674
967.20 0.667
967.30 0.6666
967.40 0.6662
967.50 0.6658
967.60 0.6654
967.70 0.665
967.80 0.6646
967.90 0.6642
968.00 0.6638
968.10 0.6634
968.20 0.663
968.30 0.6626
968.40 0.6623
968.50 0.6619
968.60 0.6615
968.70 0.6611
968.80 0.6607
968.90 0.6603
969.00 0.6599
969.10 0.6595
969.20 0.6591
969.30 0.6587
969.40 0.6583
969.50 0.6579
969.60 0.6575
969.70 0.6571
969.80 0.6567
969.90 0.6563
970.00 0.6559
970.10 0.6556
970.20 0.6552
970.30 0.6548
970.40 0.6544
970.50 0.654
970.60 0.6536
970.70 0.6532
970.80 0.6528
970.90 0.6524
971.00 0.652
971.10 0.6517
971.20 0.6513
971.30 0.6509
971.40 0.6505
971.50 0.6501
971.60 0.6497
971.70 0.6493
971.80 0.6489
971.90 0.6486
972.00 0.6482
972.10 0.6478
972.20 0.6474
972.30 0.647
972.40 0.6466
972.50 0.6462
972.60 0.6459
972.70 0.6455
972.80 0.6451
972.90 0.6447
973.00 0.6443
973.10 0.6439
973.20 0.6436
973.30 0.6432
973.40 0.6428
973.50 0.6424
973.60 0.642
973.70 0.6416
973.80 0.6413
973.90 0.6409
974.00 0.6405
974.10 0.6401
974.20 0.6397
974.30 0.6394
974.40 0.639
974.50 0.6386
974.60 0.6382
974.70 0.6378
974.80 0.6375
974.90 0.6371
975.00 0.6367
975.10 0.6363
975.20 0.6359
975.30 0.6355
975.40 0.6352
975.50 0.6348
975.60 0.6344
975.70 0.634
975.80 0.6336
975.90 0.6333
976.00 0.6329
976.10 0.6325
976.20 0.6321
976.30 0.6318
976.40 0.6314
976.50 0.631
976.60 0.6306
976.70 0.6302
976.80 0.6299
976.90 0.6295
977.00 0.6291
977.10 0.6287
977.20 0.6284
977.30 0.628
977.40 0.6276
977.50 0.6273
977.60 0.6269
977.70 0.6265
977.80 0.6261
977.90 0.6258
978.00 0.6254
978.10 0.625
978.20 0.6247
978.30 0.6243
978.40 0.6239
978.50 0.6236
978.60 0.6232
978.70 0.6228
978.80 0.6225
978.90 0.6221
979.00 0.6217
979.10 0.6214
979.20 0.621
979.30 0.6206
979.40 0.6203
979.50 0.6199
979.60 0.6195
979.70 0.6192
979.80 0.6188
979.90 0.6184
980.00 0.6181
980.10 0.6177
980.20 0.6173
980.30 0.617
980.40 0.6166
980.50 0.6162
980.60 0.6159
980.70 0.6155
980.80 0.6151
980.90 0.6148
981.00 0.6144
981.10 0.614
981.20 0.6137
981.30 0.6133
981.40 0.613
981.50 0.6126
981.60 0.6122
981.70 0.6119
981.80 0.6115
981.90 0.6111
982.00 0.6108
982.10 0.6104
982.20 0.6101
982.30 0.6097
982.40 0.6093
982.50 0.609
982.60 0.6086
982.70 0.6083
982.80 0.6079
982.90 0.6076
983.00 0.6072
983.10 0.6069
983.20 0.6065
983.30 0.6062
983.40 0.6058
983.50 0.6054
983.60 0.6051
983.70 0.6047
983.80 0.6044
983.90 0.604
984.00 0.6037
984.10 0.6033
984.20 0.603
984.30 0.6026
984.40 0.6023
984.50 0.6019
984.60 0.6016
984.70 0.6012
984.80 0.6009
984.90 0.6005
985.00 0.6002
985.10 0.5999
985.20 0.5995
985.30 0.5992
985.40 0.5988
985.50 0.5985
985.60 0.5981
985.70 0.5978
985.80 0.5975
985.90 0.5971
986.00 0.5968
986.10 0.5964
986.20 0.5961
986.30 0.5958
986.40 0.5954
986.50 0.5951
986.60 0.5948
986.70 0.5944
986.80 0.5941
986.90 0.5937
987.00 0.5934
987.10 0.593
987.20 0.5927
987.30 0.5924
987.40 0.592
987.50 0.5917
987.60 0.5913
987.70 0.591
987.80 0.5906
987.90 0.5903
988.00 0.5899
988.10 0.5896
988.20 0.5892
988.30 0.5889
988.40 0.5885
988.50 0.5882
988.60 0.5879
988.70 0.5875
988.80 0.5872
988.90 0.5868
989.00 0.5865
989.10 0.5861
989.20 0.5858
989.30 0.5854
989.40 0.5851
989.50 0.5847
989.60 0.5844
989.70 0.5841
989.80 0.5837
989.90 0.5834
990.00 0.583
990.10 0.5827
990.20 0.5823
990.30 0.582
990.40 0.5816
990.50 0.5813
990.60 0.581
990.70 0.5806
990.80 0.5803
990.90 0.5799
991.00 0.5796
991.10 0.5792
991.20 0.5789
991.30 0.5785
991.40 0.5782
991.50 0.5779
991.60 0.5775
991.70 0.5772
991.80 0.5768
991.90 0.5765
992.00 0.5761
992.10 0.5758
992.20 0.5754
992.30 0.5751
992.40 0.5748
992.50 0.5744
992.60 0.5741
992.70 0.5737
992.80 0.5734
992.90 0.573
993.00 0.5727
993.10 0.5723
993.20 0.572
993.30 0.5717
993.40 0.5713
993.50 0.571
993.60 0.5706
993.70 0.5703
993.80 0.57
993.90 0.5696
994.00 0.5693
994.10 0.5689
994.20 0.5686
994.30 0.5682
994.40 0.5679
994.50 0.5676
994.60 0.5672
994.70 0.5668
994.80 0.5665
994.90 0.5661
995.00 0.5657
995.10 0.5653
995.20 0.5649
995.30 0.5645
995.40 0.5641
995.50 0.5637
995.60 0.5634
995.70 0.563
995.80 0.5627
995.90 0.5623
996.00 0.562
996.10 0.5617
996.20 0.5613
996.30 0.561
996.40 0.5607
996.50 0.5603
996.60 0.56
996.70 0.5597
996.80 0.5593
996.90 0.559
997.00 0.5587
997.10 0.5583
997.20 0.558
997.30 0.5577
997.40 0.5573
997.50 0.557
997.60 0.5567
997.70 0.5563
997.80 0.556
997.90 0.5557
998.00 0.5554
998.10 0.555
998.20 0.5547
998.30 0.5544
998.40 0.5541
998.50 0.5537
998.60 0.5534
998.70 0.5531
998.80 0.5528
998.90 0.5525
999.00 0.5521
999.10 0.5518
999.20 0.5515
999.30 0.5512
999.40 0.5508
999.50 0.5505
999.60 0.5502
999.70 0.5499
999.80 0.5496
999.90 0.5492
1000.00 0.5489
1000.10 0.5486
1000.20 0.5483
1000.30 0.548
1000.40 0.5477
1000.50 0.5474
1000.60 0.547
1000.70 0.5467
1000.80 0.5464
1000.90 0.5461
1001.00 0.5458
1001.10 0.5455
1001.20 0.5451
1001.30 0.5448
1001.40 0.5445
1001.50 0.5442
1001.60 0.5439
1001.70 0.5436
1001.80 0.5433
1001.90 0.543
1002.00 0.5427
1002.10 0.5424
1002.20 0.5421
1002.30 0.5418
1002.40 0.5414
1002.50 0.5411
1002.60 0.5408
1002.70 0.5405
1002.80 0.5402
1002.90 0.5399
1003.00 0.5396
1003.10 0.5393
1003.20 0.539
1003.30 0.5387
1003.40 0.5384
1003.50 0.5381
1003.60 0.5378
1003.70 0.5375
1003.80 0.5372
1003.90 0.5369
1004.00 0.5366
1004.10 0.5363
1004.20 0.536
1004.30 0.5357
1004.40 0.5354
1004.50 0.5351
1004.60 0.5348
1004.70 0.5345
1004.80 0.5342
1004.90 0.5339
1005.00 0.5335
1005.10 0.5332
1005.20 0.5329
1005.30 0.5326
1005.40 0.5323
1005.50 0.5321
1005.60 0.5318
1005.70 0.5315
1005.80 0.5312
1005.90 0.5309
1006.00 0.5306
1006.10 0.5303
1006.20 0.53
1006.30 0.5298
1006.40 0.5295
1006.50 0.5292
1006.60 0.5289
1006.70 0.5286
1006.80 0.5283
1006.90 0.528
1007.00 0.5277
1007.10 0.5275
1007.20 0.5272
1007.30 0.5269
1007.40 0.5266
1007.50 0.5264
1007.60 0.5261
1007.70 0.5258
1007.80 0.5255
1007.90 0.5253
1008.00 0.525
1008.10 0.5247
1008.20 0.5244
1008.30 0.5242
1008.40 0.5239
1008.50 0.5236
1008.60 0.5233
1008.70 0.5231
1008.80 0.5228
1008.90 0.5225
1009.00 0.5222
1009.10 0.522
1009.20 0.5217
1009.30 0.5214
1009.40 0.5211
1009.50 0.5209
1009.60 0.5206
1009.70 0.5203
1009.80 0.5201
1009.90 0.5198
1010.00 0.5195
1010.10 0.5193
1010.20 0.519
1010.30 0.5187
1010.40 0.5185
1010.50 0.5182
1010.60 0.5179
1010.70 0.5177
1010.80 0.5174
1010.90 0.5171
1011.00 0.5169
1011.10 0.5166
1011.20 0.5163
1011.30 0.5161
1011.40 0.5158
1011.50 0.5156
1011.60 0.5153
1011.70 0.515
1011.80 0.5148
1011.90 0.5145
1012.00 0.5143
1012.10 0.514
1012.20 0.5138
1012.30 0.5135
1012.40 0.5132
1012.50 0.513
1012.60 0.5127
1012.70 0.5125
1012.80 0.5122
1012.90 0.512
1013.00 0.5117
1013.10 0.5115
1013.20 0.5112
1013.30 0.511
1013.40 0.5107
1013.50 0.5105
1013.60 0.5102
1013.70 0.51
1013.80 0.5097
1013.90 0.5095
1014.00 0.5093
1014.10 0.509
1014.20 0.5088
1014.30 0.5085
1014.40 0.5083
1014.50 0.5081
1014.60 0.5078
1014.70 0.5076
1014.80 0.5074
1014.90 0.5071
1015.00 0.5069
1015.10 0.5067
1015.20 0.5065
1015.30 0.5062
1015.40 0.506
1015.50 0.5058
1015.60 0.5056
1015.70 0.5053
1015.80 0.5051
1015.90 0.5049
1016.00 0.5047
1016.10 0.5044
1016.20 0.5042
1016.30 0.504
1016.40 0.5038
1016.50 0.5035
1016.60 0.5033
1016.70 0.5031
1016.80 0.5028
1016.90 0.5026
1017.00 0.5024
1017.10 0.5021
1017.20 0.5019
1017.30 0.5017
1017.40 0.5014
1017.50 0.5012
1017.60 0.501
1017.70 0.5008
1017.80 0.5005
1017.90 0.5003
1018.00 0.5001
1018.10 0.4998
1018.20 0.4996
1018.30 0.4994
1018.40 0.4991
1018.50 0.4989
1018.60 0.4987
1018.70 0.4985
1018.80 0.4982
1018.90 0.498
1019.00 0.4978
1019.10 0.4976
1019.20 0.4973
1019.30 0.4971
1019.40 0.4969
1019.50 0.4967
1019.60 0.4964
1019.70 0.4962
1019.80 0.496
1019.90 0.4957
1020.00 0.4955
1020.10 0.4953
1020.20 0.4951
1020.30 0.4948
1020.40 0.4946
1020.50 0.4944
1020.60 0.4942
1020.70 0.494
1020.80 0.4937
1020.90 0.4935
1021.00 0.4933
1021.10 0.4931
1021.20 0.4928
1021.30 0.4926
1021.40 0.4924
1021.50 0.4922
1021.60 0.492
1021.70 0.4917
1021.80 0.4915
1021.90 0.4913
1022.00 0.4911
1022.10 0.4909
1022.20 0.4907
1022.30 0.4904
1022.40 0.4902
1022.50 0.49
1022.60 0.4898
1022.70 0.4896
1022.80 0.4894
1022.90 0.4891
1023.00 0.4889
1023.10 0.4887
1023.20 0.4885
1023.30 0.4883
1023.40 0.4881
1023.50 0.4878
1023.60 0.4876
1023.70 0.4874
1023.80 0.4872
1023.90 0.487
1024.00 0.4868
1024.10 0.4865
1024.20 0.4863
1024.30 0.4861
1024.40 0.4859
1024.50 0.4857
1024.60 0.4855
1024.70 0.4853
1024.80 0.485
1024.90 0.4848
1025.00 0.4846
1025.10 0.4844
1025.20 0.4842
1025.30 0.484
1025.40 0.4838
1025.50 0.4836
1025.60 0.4834
1025.70 0.4831
1025.80 0.4829
1025.90 0.4827
1026.00 0.4825
1026.10 0.4823
1026.20 0.4821
1026.30 0.4819
1026.40 0.4817
1026.50 0.4815
1026.60 0.4813
1026.70 0.481
1026.80 0.4808
1026.90 0.4806
1027.00 0.4804
1027.10 0.4802
1027.20 0.48
1027.30 0.4798
1027.40 0.4796
1027.50 0.4794
1027.60 0.4792
1027.70 0.479
1027.80 0.4788
1027.90 0.4786
1028.00 0.4784
1028.10 0.4782
1028.20 0.478
1028.30 0.4778
1028.40 0.4776
1028.50 0.4774
1028.60 0.4772
1028.70 0.477
1028.80 0.4768
1028.90 0.4766
1029.00 0.4764
1029.10 0.4762
1029.20 0.476
1029.30 0.4759
1029.40 0.4757
1029.50 0.4755
1029.60 0.4753
1029.70 0.4751
1029.80 0.4749
1029.90 0.4747
1030.00 0.4745
1030.10 0.4743
1030.20 0.4741
1030.30 0.4739
1030.40 0.4737
1030.50 0.4735
1030.60 0.4733
1030.70 0.4731
1030.80 0.4729
1030.90 0.4727
1031.00 0.4725
1031.10 0.4723
1031.20 0.4721
1031.30 0.4719
1031.40 0.4717
1031.50 0.4715
1031.60 0.4713
1031.70 0.4711
1031.80 0.4709
1031.90 0.4707
1032.00 0.4705
1032.10 0.4704
1032.20 0.4702
1032.30 0.47
1032.40 0.4698
1032.50 0.4696
1032.60 0.4694
1032.70 0.4692
1032.80 0.4691
1032.90 0.4689
1033.00 0.4687
1033.10 0.4685
1033.20 0.4683
1033.30 0.4681
1033.40 0.468
1033.50 0.4678
1033.60 0.4676
1033.70 0.4674
1033.80 0.4672
1033.90 0.467
1034.00 0.4669
1034.10 0.4667
1034.20 0.4665
1034.30 0.4663
1034.40 0.4661
1034.50 0.4659
1034.60 0.4658
1034.70 0.4656
1034.80 0.4654
1034.90 0.4652
1035.00 0.465
1035.10 0.4648
1035.20 0.4647
1035.30 0.4645
1035.40 0.4643
1035.50 0.4641
1035.60 0.4639
1035.70 0.4638
1035.80 0.4636
1035.90 0.4634
1036.00 0.4632
1036.10 0.463
1036.20 0.4628
1036.30 0.4627
1036.40 0.4625
1036.50 0.4623
1036.60 0.4621
1036.70 0.4619
1036.80 0.4618
1036.90 0.4616
1037.00 0.4614
1037.10 0.4612
1037.20 0.4611
1037.30 0.4609
1037.40 0.4607
1037.50 0.4605
1037.60 0.4604
1037.70 0.4602
1037.80 0.46
1037.90 0.4599
1038.00 0.4597
1038.10 0.4595
1038.20 0.4594
1038.30 0.4592
1038.40 0.459
1038.50 0.4589
1038.60 0.4587
1038.70 0.4585
1038.80 0.4584
1038.90 0.4582
1039.00 0.458
1039.10 0.4579
1039.20 0.4577
1039.30 0.4575
1039.40 0.4574
1039.50 0.4572
1039.60 0.457
1039.70 0.4569
1039.80 0.4567
1039.90 0.4565
1040.00 0.4564
1040.10 0.4562
1040.20 0.456
1040.30 0.4559
1040.40 0.4557
1040.50 0.4555
1040.60 0.4554
1040.70 0.4552
1040.80 0.455
1040.90 0.4549
1041.00 0.4547
1041.10 0.4545
1041.20 0.4544
1041.30 0.4542
1041.40 0.454
1041.50 0.4539
1041.60 0.4537
1041.70 0.4535
1041.80 0.4534
1041.90 0.4532
1042.00 0.453
1042.10 0.4529
1042.20 0.4527
1042.30 0.4526
1042.40 0.4524
1042.50 0.4523
1042.60 0.4521
1042.70 0.4519
1042.80 0.4518
1042.90 0.4516
1043.00 0.4515
1043.10 0.4513
1043.20 0.4512
1043.30 0.451
1043.40 0.4509
1043.50 0.4507
1043.60 0.4506
1043.70 0.4504
1043.80 0.4502
1043.90 0.4501
1044.00 0.4499
1044.10 0.4498
1044.20 0.4496
1044.30 0.4495
1044.40 0.4493
1044.50 0.4492
1044.60 0.449
1044.70 0.4489
1044.80 0.4487
1044.90 0.4486
1045.00 0.4484
1045.10 0.4483
1045.20 0.4481
1045.30 0.4479
1045.40 0.4478
1045.50 0.4476
1045.60 0.4475
1045.70 0.4473
1045.80 0.4472
1045.90 0.447
1046.00 0.4469
1046.10 0.4467
1046.20 0.4466
1046.30 0.4464
1046.40 0.4463
1046.50 0.4461
1046.60 0.446
1046.70 0.4458
1046.80 0.4457
1046.90 0.4455
1047.00 0.4454
1047.10 0.4452
1047.20 0.4451
1047.30 0.4449
1047.40 0.4448
1047.50 0.4447
1047.60 0.4445
1047.70 0.4444
1047.80 0.4442
1047.90 0.4441
1048.00 0.4439
1048.10 0.4438
1048.20 0.4437
1048.30 0.4435
1048.40 0.4434
1048.50 0.4432
1048.60 0.4431
1048.70 0.443
1048.80 0.4428
1048.90 0.4427
1049.00 0.4425
1049.10 0.4424
1049.20 0.4423
1049.30 0.4421
1049.40 0.442
1049.50 0.4418
1049.60 0.4417
1049.70 0.4416
1049.80 0.4414
1049.90 0.4413
1050.00 0.4411
1050.10 0.441
1050.20 0.4409
1050.30 0.4407
1050.40 0.4406
1050.50 0.4404
1050.60 0.4403
1050.70 0.4402
1050.80 0.44
1050.90 0.4399
1051.00 0.4397
1051.10 0.4396
1051.20 0.4395
1051.30 0.4393
1051.40 0.4392
1051.50 0.4391
1051.60 0.4389
1051.70 0.4388
1051.80 0.4386
1051.90 0.4385
1052.00 0.4384
1052.10 0.4382
1052.20 0.4381
1052.30 0.438
1052.40 0.4378
1052.50 0.4377
1052.60 0.4376
1052.70 0.4375
1052.80 0.4373
1052.90 0.4372
1053.00 0.4371
1053.10 0.437
1053.20 0.4368
1053.30 0.4367
1053.40 0.4366
1053.50 0.4365
1053.60 0.4363
1053.70 0.4362
1053.80 0.4361
1053.90 0.4359
1054.00 0.4358
1054.10 0.4357
1054.20 0.4356
1054.30 0.4354
1054.40 0.4353
1054.50 0.4352
1054.60 0.4351
1054.70 0.4349
1054.80 0.4348
1054.90 0.4347
1055.00 0.4346
1055.10 0.4344
1055.20 0.4343
1055.30 0.4342
1055.40 0.4341
1055.50 0.4339
1055.60 0.4338
1055.70 0.4337
1055.80 0.4336
1055.90 0.4334
1056.00 0.4333
1056.10 0.4332
1056.20 0.4331
1056.30 0.4329
1056.40 0.4328
1056.50 0.4327
1056.60 0.4326
1056.70 0.4324
1056.80 0.4323
1056.90 0.4322
1057.00 0.432
1057.10 0.4319
1057.20 0.4318
1057.30 0.4317
1057.40 0.4316
1057.50 0.4315
1057.60 0.4314
1057.70 0.4312
1057.80 0.4311
1057.90 0.431
1058.00 0.4309
1058.10 0.4308
1058.20 0.4307
1058.30 0.4306
1058.40 0.4304
1058.50 0.4303
1058.60 0.4302
1058.70 0.4301
1058.80 0.43
1058.90 0.4299
1059.00 0.4298
1059.10 0.4296
1059.20 0.4295
1059.30 0.4294
1059.40 0.4293
1059.50 0.4292
1059.60 0.4291
1059.70 0.429
1059.80 0.4288
1059.90 0.4287
1060.00 0.4286
1060.10 0.4285
1060.20 0.4284
1060.30 0.4283
1060.40 0.4282
1060.50 0.428
1060.60 0.4279
1060.70 0.4278
1060.80 0.4277
1060.90 0.4276
1061.00 0.4275
1061.10 0.4274
1061.20 0.4272
1061.30 0.4271
1061.40 0.427
1061.50 0.4269
1061.60 0.4268
1061.70 0.4267
1061.80 0.4266
1061.90 0.4265
1062.00 0.4263
1062.10 0.4262
1062.20 0.4261
1062.30 0.426
1062.40 0.4259
1062.50 0.4258
1062.60 0.4257
1062.70 0.4256
1062.80 0.4255
1062.90 0.4254
1063.00 0.4253
1063.10 0.4252
1063.20 0.4251
1063.30 0.425
1063.40 0.4249
1063.50 0.4248
1063.60 0.4247
1063.70 0.4246
1063.80 0.4245
1063.90 0.4244
1064.00 0.4243
1064.10 0.4242
1064.20 0.4241
1064.30 0.424
1064.40 0.4239
1064.50 0.4238
1064.60 0.4237
1064.70 0.4236
1064.80 0.4235
1064.90 0.4234
1065.00 0.4233
1065.10 0.4232
1065.20 0.4231
1065.30 0.423
1065.40 0.4229
1065.50 0.4228
1065.60 0.4227
1065.70 0.4226
1065.80 0.4225
1065.90 0.4224
1066.00 0.4223
1066.10 0.4222
1066.20 0.4221
1066.30 0.422
1066.40 0.4219
1066.50 0.4218
1066.60 0.4217
1066.70 0.4216
1066.80 0.4215
1066.90 0.4214
1067.00 0.4213
1067.10 0.4212
1067.20 0.4211
1067.30 0.421
1067.40 0.4209
1067.50 0.4208
1067.60 0.4207
1067.70 0.4206
1067.80 0.4205
1067.90 0.4204
1068.00 0.4204
1068.10 0.4203
1068.20 0.4202
1068.30 0.4201
1068.40 0.42
1068.50 0.4199
1068.60 0.4198
1068.70 0.4197
1068.80 0.4196
1068.90 0.4195
1069.00 0.4195
1069.10 0.4194
1069.20 0.4193
1069.30 0.4192
1069.40 0.4191
1069.50 0.419
1069.60 0.4189
1069.70 0.4188
1069.80 0.4187
1069.90 0.4186
1070.00 0.4186
1070.10 0.4185
1070.20 0.4184
1070.30 0.4183
1070.40 0.4182
1070.50 0.4181
1070.60 0.418
1070.70 0.4179
1070.80 0.4178
1070.90 0.4178
1071.00 0.4177
1071.10 0.4176
1071.20 0.4175
1071.30 0.4174
1071.40 0.4173
1071.50 0.4172
1071.60 0.4171
1071.70 0.417
1071.80 0.417
1071.90 0.4169
1072.00 0.4168
1072.10 0.4167
1072.20 0.4166
1072.30 0.4165
1072.40 0.4164
1072.50 0.4163
1072.60 0.4162
1072.70 0.4162
1072.80 0.4161
1072.90 0.416
1073.00 0.4159
1073.10 0.4158
1073.20 0.4157
1073.30 0.4156
1073.40 0.4156
1073.50 0.4155
1073.60 0.4154
1073.70 0.4153
1073.80 0.4152
1073.90 0.4151
1074.00 0.4151
1074.10 0.415
1074.20 0.4149
1074.30 0.4148
1074.40 0.4147
1074.50 0.4147
1074.60 0.4146
1074.70 0.4145
1074.80 0.4144
1074.90 0.4143
1075.00 0.4142
1075.10 0.4142
1075.20 0.4141
1075.30 0.414
1075.40 0.4139
1075.50 0.4138
1075.60 0.4138
1075.70 0.4137
1075.80 0.4136
1075.90 0.4135
1076.00 0.4134
1076.10 0.4134
1076.20 0.4133
1076.30 0.4132
1076.40 0.4131
1076.50 0.413
1076.60 0.413
1076.70 0.4129
1076.80 0.4128
1076.90 0.4127
1077.00 0.4126
1077.10 0.4126
1077.20 0.4125
1077.30 0.4124
1077.40 0.4123
1077.50 0.4123
1077.60 0.4122
1077.70 0.4121
1077.80 0.412
1077.90 0.4119
1078.00 0.4119
1078.10 0.4118
1078.20 0.4117
1078.30 0.4116
1078.40 0.4116
1078.50 0.4115
1078.60 0.4114
1078.70 0.4113
1078.80 0.4113
1078.90 0.4112
1079.00 0.4111
1079.10 0.411
1079.20 0.411
1079.30 0.4109
1079.40 0.4108
1079.50 0.4107
1079.60 0.4107
1079.70 0.4106
1079.80 0.4105
1079.90 0.4104
1080.00 0.4104
1080.10 0.4103
1080.20 0.4102
1080.30 0.4101
1080.40 0.4101
1080.50 0.41
1080.60 0.4099
1080.70 0.4099
1080.80 0.4098
1080.90 0.4097
1081.00 0.4096
1081.10 0.4096
1081.20 0.4095
1081.30 0.4094
1081.40 0.4093
1081.50 0.4093
1081.60 0.4092
1081.70 0.4091
1081.80 0.4091
1081.90 0.409
1082.00 0.4089
1082.10 0.4089
1082.20 0.4088
1082.30 0.4087
1082.40 0.4086
1082.50 0.4086
1082.60 0.4085
1082.70 0.4084
1082.80 0.4084
1082.90 0.4083
1083.00 0.4082
1083.10 0.4082
1083.20 0.4081
1083.30 0.408
1083.40 0.4079
1083.50 0.4079
1083.60 0.4078
1083.70 0.4077
1083.80 0.4077
1083.90 0.4076
1084.00 0.4075
1084.10 0.4075
1084.20 0.4074
1084.30 0.4073
1084.40 0.4073
1084.50 0.4072
1084.60 0.4071
1084.70 0.4071
1084.80 0.407
1084.90 0.4069
1085.00 0.4069
1085.10 0.4068
1085.20 0.4067
1085.30 0.4067
1085.40 0.4066
1085.50 0.4065
1085.60 0.4065
1085.70 0.4064
1085.80 0.4063
1085.90 0.4063
1086.00 0.4062
1086.10 0.4061
1086.20 0.4061
1086.30 0.406
1086.40 0.4059
1086.50 0.4059
1086.60 0.4058
1086.70 0.4057
1086.80 0.4057
1086.90 0.4056
1087.00 0.4055
1087.10 0.4055
1087.20 0.4054
1087.30 0.4053
1087.40 0.4053
1087.50 0.4052
1087.60 0.4051
1087.70 0.4051
1087.80 0.405
1087.90 0.405
1088.00 0.4049
1088.10 0.4048
1088.20 0.4048
1088.30 0.4047
1088.40 0.4046
1088.50 0.4046
1088.60 0.4045
1088.70 0.4045
1088.80 0.4044
1088.90 0.4043
1089.00 0.4043
1089.10 0.4042
1089.20 0.4041
1089.30 0.4041
1089.40 0.404
1089.50 0.404
1089.60 0.4039
1089.70 0.4038
1089.80 0.4038
1089.90 0.4037
1090.00 0.4036
1090.10 0.4036
1090.20 0.4035
1090.30 0.4035
1090.40 0.4034
1090.50 0.4033
1090.60 0.4033
1090.70 0.4032
1090.80 0.4032
1090.90 0.4031
1091.00 0.403
1091.10 0.403
1091.20 0.4029
1091.30 0.4029
1091.40 0.4028
1091.50 0.4027
1091.60 0.4027
1091.70 0.4026
1091.80 0.4026
1091.90 0.4025
1092.00 0.4024
1092.10 0.4024
1092.20 0.4023
1092.30 0.4023
1092.40 0.4022
1092.50 0.4021
1092.60 0.4021
1092.70 0.402
1092.80 0.402
1092.90 0.4019
1093.00 0.4019
1093.10 0.4019
1093.20 0.4018
1093.30 0.4017
1093.40 0.4017
1093.50 0.4016
1093.60 0.4016
1093.70 0.4015
1093.80 0.4015
1093.90 0.4014
1094.00 0.4013
1094.10 0.4013
1094.20 0.4012
1094.30 0.4012
1094.40 0.4011
1094.50 0.4011
1094.60 0.401
1094.70 0.4009
1094.80 0.4009
1094.90 0.4008
1095.00 0.4008
1095.10 0.4007
1095.20 0.4007
1095.30 0.4006
1095.40 0.4005
1095.50 0.4005
1095.60 0.4004
1095.70 0.4004
1095.80 0.4003
1095.90 0.4003
1096.00 0.4002
1096.10 0.4002
1096.20 0.4001
1096.30 0.4001
1096.40 0.4
1096.50 0.3999
1096.60 0.3999
1096.70 0.3998
1096.80 0.3998
1096.90 0.3997
1097.00 0.3997
1097.10 0.3996
1097.20 0.3996
1097.30 0.3995
1097.40 0.3995
1097.50 0.3994
1097.60 0.3993
1097.70 0.3993
1097.80 0.3992
1097.90 0.3992
1098.00 0.3991
1098.10 0.3991
1098.20 0.399
1098.30 0.399
1098.40 0.3989
1098.50 0.3989
1098.60 0.3988
1098.70 0.3987
1098.80 0.3987
1098.90 0.3986
1099.00 0.3986
1099.10 0.3985
1099.20 0.3985
1099.30 0.3984
1099.40 0.3984
1099.50 0.3983
1099.60 0.3983
1099.70 0.3982
1099.80 0.3982
1099.90 0.3981
1100.00 0.398
1100.10 0.398
1100.20 0.3979
1100.30 0.3979
1100.40 0.3978
1100.50 0.3978
1100.60 0.3977
1100.70 0.3977
1100.80 0.3976
1100.90 0.3976
1101.00 0.3975
1101.10 0.3975
1101.20 0.3974
1101.30 0.3974
1101.40 0.3973
1101.50 0.3973
1101.60 0.3972
1101.70 0.3972
1101.80 0.3971
1101.90 0.3971
1102.00 0.397
1102.10 0.397
1102.20 0.3969
1102.30 0.3968
1102.40 0.3968
1102.50 0.3967
1102.60 0.3967
1102.70 0.3966
1102.80 0.3966
1102.90 0.3965
1103.00 0.3965
1103.10 0.3964
1103.20 0.3964
1103.30 0.3963
1103.40 0.3963
1103.50 0.3962
1103.60 0.3962
1103.70 0.3961
1103.80 0.3961
1103.90 0.3961
1104.00 0.396
1104.10 0.396
1104.20 0.3959
1104.30 0.3959
1104.40 0.3958
1104.50 0.3958
1104.60 0.3957
1104.70 0.3957
1104.80 0.3956
1104.90 0.3956
1105.00 0.3955
1105.10 0.3955
1105.20 0.3954
1105.30 0.3954
1105.40 0.3953
1105.50 0.3953
1105.60 0.3952
1105.70 0.3952
1105.80 0.3951
1105.90 0.3951
1106.00 0.395
1106.10 0.395
1106.20 0.3949
1106.30 0.3949
1106.40 0.3948
1106.50 0.3948
1106.60 0.3947
1106.70 0.3947
1106.80 0.3946
1106.90 0.3946
1107.00 0.3945
1107.10 0.3945
1107.20 0.3944
1107.30 0.3944
1107.40 0.3944
1107.50 0.3943
1107.60 0.3943
1107.70 0.3942
1107.80 0.3942
1107.90 0.3941
1108.00 0.3941
1108.10 0.394
1108.20 0.394
1108.30 0.3939
1108.40 0.3939
1108.50 0.3938
1108.60 0.3938
1108.70 0.3937
1108.80 0.3937
1108.90 0.3936
1109.00 0.3936
1109.10 0.3935
1109.20 0.3935
1109.30 0.3934
1109.40 0.3934
1109.50 0.3934
1109.60 0.3933
1109.70 0.3933
1109.80 0.3932
1109.90 0.3932
1110.00 0.3931
1110.10 0.3931
1110.20 0.393
1110.30 0.393
1110.40 0.3929
1110.50 0.3929
1110.60 0.3928
1110.70 0.3928
1110.80 0.3927
1110.90 0.3927
1111.00 0.3926
1111.10 0.3926
1111.20 0.3925
1111.30 0.3925
1111.40 0.3924
1111.50 0.3924
1111.60 0.3924
1111.70 0.3923
1111.80 0.3923
1111.90 0.3922
1112.00 0.3922
1112.10 0.3921
1112.20 0.3921
1112.30 0.392
1112.40 0.392
1112.50 0.3919
1112.60 0.3919
1112.70 0.3918
1112.80 0.3918
1112.90 0.3918
1113.00 0.3917
1113.10 0.3917
1113.20 0.3916
1113.30 0.3916
1113.40 0.3915
1113.50 0.3915
1113.60 0.3914
1113.70 0.3914
1113.80 0.3913
1113.90 0.3913
1114.00 0.3912
1114.10 0.3912
1114.20 0.3912
1114.30 0.3911
1114.40 0.3911
1114.50 0.391
1114.60 0.391
1114.70 0.3909
1114.80 0.3909
1114.90 0.3908
1115.00 0.3908
1115.10 0.3907
1115.20 0.3907
1115.30 0.3906
1115.40 0.3906
1115.50 0.3906
1115.60 0.3905
1115.70 0.3905
1115.80 0.3904
1115.90 0.3904
1116.00 0.3903
1116.10 0.3903
1116.20 0.3902
1116.30 0.3902
1116.40 0.3901
1116.50 0.3901
1116.60 0.39
1116.70 0.39
1116.80 0.39
1116.90 0.3899
1117.00 0.3899
1117.10 0.3898
1117.20 0.3898
1117.30 0.3897
1117.40 0.3897
1117.50 0.3896
1117.60 0.3896
1117.70 0.3896
1117.80 0.3895
1117.90 0.3895
1118.00 0.3894
1118.10 0.3894
1118.20 0.3893
1118.30 0.3893
1118.40 0.3893
1118.50 0.3892
1118.60 0.3892
1118.70 0.3891
1118.80 0.3891
1118.90 0.389
1119.00 0.389
1119.10 0.389
1119.20 0.3889
1119.30 0.3889
1119.40 0.3888
1119.50 0.3888
1119.60 0.3887
1119.70 0.3887
1119.80 0.3887
1119.90 0.3886
1120.00 0.3886
1120.10 0.3885
1120.20 0.3885
1120.30 0.3884
1120.40 0.3884
1120.50 0.3884
1120.60 0.3883
1120.70 0.3883
1120.80 0.3882
1120.90 0.3882
1121.00 0.3881
1121.10 0.3881
1121.20 0.3881
1121.30 0.388
1121.40 0.388
1121.50 0.3879
1121.60 0.3879
1121.70 0.3878
1121.80 0.3878
1121.90 0.3878
1122.00 0.3877
1122.10 0.3877
1122.20 0.3876
1122.30 0.3876
1122.40 0.3875
1122.50 0.3875
1122.60 0.3874
1122.70 0.3874
1122.80 0.3874
1122.90 0.3873
1123.00 0.3873
1123.10 0.3872
1123.20 0.3872
1123.30 0.3871
1123.40 0.3871
1123.50 0.387
1123.60 0.387
1123.70 0.387
1123.80 0.3869
1123.90 0.3869
1124.00 0.3868
1124.10 0.3868
1124.20 0.3867
1124.30 0.3867
1124.40 0.3867
1124.50 0.3866
1124.60 0.3866
1124.70 0.3865
1124.80 0.3865
1124.90 0.3864
1125.00 0.3864
1125.10 0.3863
1125.20 0.3863
1125.30 0.3863
1125.40 0.3862
1125.50 0.3862
1125.60 0.3861
1125.70 0.3861
1125.80 0.386
1125.90 0.386
1126.00 0.386
1126.10 0.3859
1126.20 0.3859
1126.30 0.3858
1126.40 0.3858
1126.50 0.3857
1126.60 0.3857
1126.70 0.3856
1126.80 0.3856
1126.90 0.3856
1127.00 0.3855
1127.10 0.3855
1127.20 0.3854
1127.30 0.3854
1127.40 0.3853
1127.50 0.3853
1127.60 0.3853
1127.70 0.3852
1127.80 0.3852
1127.90 0.3851
1128.00 0.3851
1128.10 0.3851
1128.20 0.385
1128.30 0.385
1128.40 0.3849
1128.50 0.3849
1128.60 0.3848
1128.70 0.3848
1128.80 0.3848
1128.90 0.3847
1129.00 0.3847
1129.10 0.3846
1129.20 0.3846
1129.30 0.3845
1129.40 0.3845
1129.50 0.3845
1129.60 0.3844
1129.70 0.3844
1129.80 0.3843
1129.90 0.3843
1130.00 0.3843
1130.10 0.3842
1130.20 0.3842
1130.30 0.3841
1130.40 0.3841
1130.50 0.384
1130.60 0.384
1130.70 0.384
1130.80 0.3839
1130.90 0.3839
1131.00 0.3838
1131.10 0.3838
1131.20 0.3837
1131.30 0.3837
1131.40 0.3837
1131.50 0.3836
1131.60 0.3836
1131.70 0.3835
1131.80 0.3835
1131.90 0.3835
1132.00 0.3834
1132.10 0.3834
1132.20 0.3833
1132.30 0.3833
1132.40 0.3832
1132.50 0.3832
1132.60 0.3831
1132.70 0.3831
1132.80 0.383
1132.90 0.383
1133.00 0.3829
1133.10 0.3829
1133.20 0.3829
1133.30 0.3828
1133.40 0.3828
1133.50 0.3827
1133.60 0.3827
1133.70 0.3826
1133.80 0.3826
1133.90 0.3825
1134.00 0.3825
1134.10 0.3824
1134.20 0.3824
1134.30 0.3824
1134.40 0.3823
1134.50 0.3823
1134.60 0.3822
1134.70 0.3822
1134.80 0.3821
1134.90 0.3821
1135.00 0.382
1135.10 0.382
1135.20 0.3819
1135.30 0.3819
1135.40 0.3818
1135.50 0.3818
1135.60 0.3818
1135.70 0.3817
1135.80 0.3817
1135.90 0.3816
1136.00 0.3816
1136.10 0.3815
1136.20 0.3815
1136.30 0.3814
1136.40 0.3814
1136.50 0.3813
1136.60 0.3813
1136.70 0.3812
1136.80 0.3812
1136.90 0.3812
1137.00 0.3811
1137.10 0.3811
1137.20 0.381
1137.30 0.381
1137.40 0.3809
1137.50 0.3809
1137.60 0.3808
1137.70 0.3808
1137.80 0.3807
1137.90 0.3807
1138.00 0.3806
1138.10 0.3806
1138.20 0.3805
1138.30 0.3805
1138.40 0.3804
1138.50 0.3804
1138.60 0.3803
1138.70 0.3803
1138.80 0.3802
1138.90 0.3802
1139.00 0.3801
1139.10 0.3801
1139.20 0.3801
1139.30 0.38
1139.40 0.38
1139.50 0.3799
1139.60 0.3799
1139.70 0.3798
1139.80 0.3798
1139.90 0.3797
1140.00 0.3797
1140.10 0.3796
1140.20 0.3796
1140.30 0.3795
1140.40 0.3795
1140.50 0.3794
1140.60 0.3794
1140.70 0.3793
1140.80 0.3793
1140.90 0.3792
1141.00 0.3792
1141.10 0.3791
1141.20 0.3791
1141.30 0.379
1141.40 0.379
1141.50 0.3789
1141.60 0.3789
1141.70 0.3789
1141.80 0.3788
1141.90 0.3788
1142.00 0.3787
1142.10 0.3787
1142.20 0.3786
1142.30 0.3786
1142.40 0.3785
1142.50 0.3785
1142.60 0.3784
1142.70 0.3784
1142.80 0.3783
1142.90 0.3783
1143.00 0.3782
1143.10 0.3782
1143.20 0.3781
1143.30 0.3781
1143.40 0.378
1143.50 0.378
1143.60 0.3779
1143.70 0.3779
1143.80 0.3778
1143.90 0.3778
1144.00 0.3777
1144.10 0.3777
1144.20 0.3776
1144.30 0.3776
1144.40 0.3775
1144.50 0.3775
1144.60 0.3774
1144.70 0.3774
1144.80 0.3773
1144.90 0.3773
1145.00 0.3772
1145.10 0.3772
1145.20 0.3771
1145.30 0.3771
1145.40 0.377
1145.50 0.377
1145.60 0.3769
1145.70 0.3769
1145.80 0.3768
1145.90 0.3768
1146.00 0.3767
1146.10 0.3767
1146.20 0.3766
1146.30 0.3766
1146.40 0.3765
1146.50 0.3765
1146.60 0.3764
1146.70 0.3764
1146.80 0.3763
1146.90 0.3763
1147.00 0.3762
1147.10 0.3762
1147.20 0.3761
1147.30 0.3761
1147.40 0.376
1147.50 0.376
1147.60 0.3759
1147.70 0.3759
1147.80 0.3758
1147.90 0.3758
1148.00 0.3757
1148.10 0.3757
1148.20 0.3756
1148.30 0.3756
1148.40 0.3755
1148.50 0.3754
1148.60 0.3754
1148.70 0.3753
1148.80 0.3753
1148.90 0.3752
1149.00 0.3752
1149.10 0.3751
1149.20 0.3751
1149.30 0.375
1149.40 0.375
1149.50 0.3749
1149.60 0.3749
1149.70 0.3748
1149.80 0.3748
1149.90 0.3747
1150.00 0.3747
1150.10 0.3746
1150.20 0.3745
1150.30 0.3745
1150.40 0.3744
1150.50 0.3744
1150.60 0.3743
1150.70 0.3743
1150.80 0.3742
1150.90 0.3742
1151.00 0.3741
1151.10 0.3741
1151.20 0.374
1151.30 0.374
1151.40 0.3739
1151.50 0.3739
1151.60 0.3738
1151.70 0.3738
1151.80 0.3737
1151.90 0.3736
1152.00 0.3736
1152.10 0.3735
1152.20 0.3735
1152.30 0.3734
1152.40 0.3734
1152.50 0.3733
1152.60 0.3733
1152.70 0.3732
1152.80 0.3732
1152.90 0.3731
1153.00 0.373
1153.10 0.373
1153.20 0.3729
1153.30 0.3729
1153.40 0.3728
1153.50 0.3728
1153.60 0.3727
1153.70 0.3727
1153.80 0.3726
1153.90 0.3725
1154.00 0.3725
1154.10 0.3724
1154.20 0.3724
1154.30 0.3723
1154.40 0.3723
1154.50 0.3722
1154.60 0.3722
1154.70 0.3721
1154.80 0.3721
1154.90 0.372
1155.00 0.3719
1155.10 0.3719
1155.20 0.3718
1155.30 0.3718
1155.40 0.3717
1155.50 0.3717
1155.60 0.3716
1155.70 0.3716
1155.80 0.3715
1155.90 0.3715
1156.00 0.3714
1156.10 0.3713
1156.20 0.3713
1156.30 0.3712
1156.40 0.3712
1156.50 0.3711
1156.60 0.3711
1156.70 0.371
1156.80 0.371
1156.90 0.3709
1157.00 0.3709
1157.10 0.3708
1157.20 0.3707
1157.30 0.3707
1157.40 0.3706
1157.50 0.3706
1157.60 0.3705
1157.70 0.3704
1157.80 0.3704
1157.90 0.3703
1158.00 0.3703
1158.10 0.3702
1158.20 0.3701
1158.30 0.3701
1158.40 0.37
1158.50 0.37
1158.60 0.3699
1158.70 0.3698
1158.80 0.3698
1158.90 0.3697
1159.00 0.3697
1159.10 0.3696
1159.20 0.3695
1159.30 0.3695
1159.40 0.3694
1159.50 0.3694
1159.60 0.3693
1159.70 0.3692
1159.80 0.3692
1159.90 0.3691
1160.00 0.3691
1160.10 0.369
1160.20 0.3689
1160.30 0.3689
1160.40 0.3688
1160.50 0.3688
1160.60 0.3687
1160.70 0.3687
1160.80 0.3686
1160.90 0.3685
1161.00 0.3685
1161.10 0.3684
1161.20 0.3684
1161.30 0.3683
1161.40 0.3682
1161.50 0.3682
1161.60 0.3681
1161.70 0.3681
1161.80 0.368
1161.90 0.3679
1162.00 0.3679
1162.10 0.3678
1162.20 0.3678
1162.30 0.3677
1162.40 0.3676
1162.50 0.3676
1162.60 0.3675
1162.70 0.3674
1162.80 0.3674
1162.90 0.3673
1163.00 0.3672
1163.10 0.3672
1163.20 0.3671
1163.30 0.3671
1163.40 0.367
1163.50 0.3669
1163.60 0.3669
1163.70 0.3668
1163.80 0.3667
1163.90 0.3667
1164.00 0.3666
1164.10 0.3666
1164.20 0.3665
1164.30 0.3664
1164.40 0.3664
1164.50 0.3663
1164.60 0.3662
1164.70 0.3662
1164.80 0.3661
1164.90 0.3661
1165.00 0.366
1165.10 0.3659
1165.20 0.3659
1165.30 0.3658
1165.40 0.3657
1165.50 0.3657
1165.60 0.3656
1165.70 0.3655
1165.80 0.3655
1165.90 0.3654
1166.00 0.3654
1166.10 0.3653
1166.20 0.3652
1166.30 0.3652
1166.40 0.3651
1166.50 0.365
1166.60 0.365
1166.70 0.3649
1166.80 0.3649
1166.90 0.3648
1167.00 0.3647
1167.10 0.3647
1167.20 0.3646
1167.30 0.3645
1167.40 0.3645
1167.50 0.3644
1167.60 0.3643
1167.70 0.3643
1167.80 0.3642
1167.90 0.3641
1168.00 0.3641
1168.10 0.364
1168.20 0.3639
1168.30 0.3639
1168.40 0.3638
1168.50 0.3637
1168.60 0.3637
1168.70 0.3636
1168.80 0.3635
1168.90 0.3634
1169.00 0.3634
1169.10 0.3633
1169.20 0.3632
1169.30 0.3632
1169.40 0.3631
1169.50 0.363
1169.60 0.363
1169.70 0.3629
1169.80 0.3628
1169.90 0.3628
1170.00 0.3627
1170.10 0.3626
1170.20 0.3626
1170.30 0.3625
1170.40 0.3624
1170.50 0.3624
1170.60 0.3623
1170.70 0.3622
1170.80 0.3622
1170.90 0.3621
1171.00 0.362
1171.10 0.362
1171.20 0.3619
1171.30 0.3618
1171.40 0.3618
1171.50 0.3617
1171.60 0.3616
1171.70 0.3616
1171.80 0.3615
1171.90 0.3614
1172.00 0.3614
1172.10 0.3613
1172.20 0.3612
1172.30 0.3612
1172.40 0.3611
1172.50 0.361
1172.60 0.3609
1172.70 0.3609
1172.80 0.3608
1172.90 0.3607
1173.00 0.3607
1173.10 0.3606
1173.20 0.3605
1173.30 0.3604
1173.40 0.3604
1173.50 0.3603
1173.60 0.3602
1173.70 0.3602
1173.80 0.3601
1173.90 0.36
1174.00 0.36
1174.10 0.3599
1174.20 0.3598
1174.30 0.3597
1174.40 0.3597
1174.50 0.3596
1174.60 0.3595
1174.70 0.3595
1174.80 0.3594
1174.90 0.3593
1175.00 0.3593
1175.10 0.3592
1175.20 0.3591
1175.30 0.359
1175.40 0.359
1175.50 0.3589
1175.60 0.3588
1175.70 0.3588
1175.80 0.3587
1175.90 0.3586
1176.00 0.3586
1176.10 0.3585
1176.20 0.3584
1176.30 0.3584
1176.40 0.3583
1176.50 0.3582
1176.60 0.3581
1176.70 0.3581
1176.80 0.358
1176.90 0.3579
1177.00 0.3579
1177.10 0.3578
1177.20 0.3577
1177.30 0.3576
1177.40 0.3576
1177.50 0.3575
1177.60 0.3574
1177.70 0.3573
1177.80 0.3573
1177.90 0.3572
1178.00 0.3571
1178.10 0.3571
1178.20 0.357
1178.30 0.3569
1178.40 0.3568
1178.50 0.3568
1178.60 0.3567
1178.70 0.3566
1178.80 0.3565
1178.90 0.3565
1179.00 0.3564
1179.10 0.3563
1179.20 0.3562
1179.30 0.3562
1179.40 0.3561
1179.50 0.356
1179.60 0.356
1179.70 0.3559
1179.80 0.3558
1179.90 0.3557
1180.00 0.3557
1180.10 0.3556
1180.20 0.3555
1180.30 0.3554
1180.40 0.3554
1180.50 0.3553
1180.60 0.3552
1180.70 0.3552
1180.80 0.3551
1180.90 0.355
1181.00 0.3549
1181.10 0.3549
1181.20 0.3548
1181.30 0.3547
1181.40 0.3546
1181.50 0.3546
1181.60 0.3545
1181.70 0.3544
1181.80 0.3544
1181.90 0.3543
1182.00 0.3542
1182.10 0.3541
1182.20 0.3541
1182.30 0.354
1182.40 0.3539
1182.50 0.3538
1182.60 0.3537
1182.70 0.3537
1182.80 0.3536
1182.90 0.3535
1183.00 0.3534
1183.10 0.3534
1183.20 0.3533
1183.30 0.3532
1183.40 0.3531
1183.50 0.3531
1183.60 0.353
1183.70 0.3529
1183.80 0.3528
1183.90 0.3528
1184.00 0.3527
1184.10 0.3526
1184.20 0.3525
1184.30 0.3524
1184.40 0.3524
1184.50 0.3523
1184.60 0.3522
1184.70 0.3521
1184.80 0.3521
1184.90 0.352
1185.00 0.3519
1185.10 0.3518
1185.20 0.3518
1185.30 0.3517
1185.40 0.3516
1185.50 0.3515
1185.60 0.3515
1185.70 0.3514
1185.80 0.3513
1185.90 0.3512
1186.00 0.3512
1186.10 0.3511
1186.20 0.351
1186.30 0.3509
1186.40 0.3509
1186.50 0.3508
1186.60 0.3507
1186.70 0.3506
1186.80 0.3505
1186.90 0.3505
1187.00 0.3504
1187.10 0.3503
1187.20 0.3502
1187.30 0.3502
1187.40 0.3501
1187.50 0.35
1187.60 0.3499
1187.70 0.3499
1187.80 0.3498
1187.90 0.3497
1188.00 0.3496
1188.10 0.3495
1188.20 0.3495
1188.30 0.3494
1188.40 0.3493
1188.50 0.3492
1188.60 0.3492
1188.70 0.3491
1188.80 0.349
1188.90 0.3489
1189.00 0.3489
1189.10 0.3488
1189.20 0.3487
1189.30 0.3486
1189.40 0.3485
1189.50 0.3485
1189.60 0.3484
1189.70 0.3483
1189.80 0.3482
1189.90 0.3482
1190.00 0.3481
1190.10 0.348
1190.20 0.3479
1190.30 0.3479
1190.40 0.3478
1190.50 0.3477
1190.60 0.3476
1190.70 0.3475
1190.80 0.3475
1190.90 0.3474
1191.00 0.3473
1191.10 0.3472
1191.20 0.3472
1191.30 0.3471
1191.40 0.347
1191.50 0.3469
1191.60 0.3469
1191.70 0.3468
1191.80 0.3467
1191.90 0.3466
1192.00 0.3466
1192.10 0.3465
1192.20 0.3464
1192.30 0.3463
1192.40 0.3462
1192.50 0.3462
1192.60 0.3461
1192.70 0.346
1192.80 0.3459
1192.90 0.3458
1193.00 0.3458
1193.10 0.3457
1193.20 0.3456
1193.30 0.3455
1193.40 0.3455
1193.50 0.3454
1193.60 0.3453
1193.70 0.3452
1193.80 0.3451
1193.90 0.3451
1194.00 0.345
1194.10 0.3449
1194.20 0.3448
1194.30 0.3448
1194.40 0.3447
1194.50 0.3446
1194.60 0.3445
1194.70 0.3444
1194.80 0.3444
1194.90 0.3443
1195.00 0.3442
1195.10 0.3441
1195.20 0.344
1195.30 0.344
1195.40 0.3439
1195.50 0.3438
1195.60 0.3437
1195.70 0.3437
1195.80 0.3436
1195.90 0.3435
1196.00 0.3434
1196.10 0.3433
1196.20 0.3433
1196.30 0.3432
1196.40 0.3431
1196.50 0.343
1196.60 0.343
1196.70 0.3429
1196.80 0.3428
1196.90 0.3427
1197.00 0.3426
1197.10 0.3426
1197.20 0.3425
1197.30 0.3424
1197.40 0.3423
1197.50 0.3422
1197.60 0.3422
1197.70 0.3421
1197.80 0.342
1197.90 0.3419
1198.00 0.3418
1198.10 0.3418
1198.20 0.3417
1198.30 0.3416
1198.40 0.3415
1198.50 0.3414
1198.60 0.3414
1198.70 0.3413
1198.80 0.3412
1198.90 0.3411
1199.00 0.341
1199.10 0.341
1199.20 0.3409
1199.30 0.3408
1199.40 0.3407
1199.50 0.3406
1199.60 0.3406
1199.70 0.3405
1199.80 0.3404
1199.90 0.3403
1200.00 0
