# Version 2.1 - nm, norm@500 to 1, cut digits, bergeron_75000_75.dat_75000
# Wavelength(nm)  Flambda(ergs/cm^s/s/nm)
300.00 6.607
300.10 6.599
300.20 6.591
300.30 6.583
300.40 6.575
300.50 6.567
300.60 6.558
300.70 6.55
300.80 6.542
300.90 6.534
301.00 6.526
301.10 6.518
301.20 6.51
301.30 6.502
301.40 6.494
301.50 6.486
301.60 6.478
301.70 6.47
301.80 6.462
301.90 6.454
302.00 6.446
302.10 6.438
302.20 6.43
302.30 6.422
302.40 6.415
302.50 6.407
302.60 6.399
302.70 6.391
302.80 6.383
302.90 6.375
303.00 6.368
303.10 6.36
303.20 6.352
303.30 6.344
303.40 6.336
303.50 6.329
303.60 6.321
303.70 6.313
303.80 6.305
303.90 6.298
304.00 6.29
304.10 6.282
304.20 6.275
304.30 6.267
304.40 6.259
304.50 6.252
304.60 6.244
304.70 6.237
304.80 6.229
304.90 6.221
305.00 6.214
305.10 6.206
305.20 6.199
305.30 6.191
305.40 6.184
305.50 6.176
305.60 6.169
305.70 6.161
305.80 6.154
305.90 6.146
306.00 6.139
306.10 6.131
306.20 6.124
306.30 6.116
306.40 6.109
306.50 6.102
306.60 6.094
306.70 6.087
306.80 6.079
306.90 6.072
307.00 6.065
307.10 6.057
307.20 6.05
307.30 6.043
307.40 6.035
307.50 6.028
307.60 6.021
307.70 6.014
307.80 6.006
307.90 5.999
308.00 5.992
308.10 5.985
308.20 5.977
308.30 5.97
308.40 5.963
308.50 5.956
308.60 5.949
308.70 5.941
308.80 5.934
308.90 5.927
309.00 5.92
309.10 5.913
309.20 5.906
309.30 5.899
309.40 5.892
309.50 5.884
309.60 5.877
309.70 5.87
309.80 5.863
309.90 5.856
310.00 5.849
310.10 5.842
310.20 5.835
310.30 5.828
310.40 5.821
310.50 5.814
310.60 5.807
310.70 5.8
310.80 5.793
310.90 5.787
311.00 5.78
311.10 5.773
311.20 5.766
311.30 5.759
311.40 5.752
311.50 5.745
311.60 5.738
311.70 5.731
311.80 5.725
311.90 5.718
312.00 5.711
312.10 5.704
312.20 5.697
312.30 5.691
312.40 5.684
312.50 5.677
312.60 5.67
312.70 5.664
312.80 5.657
312.90 5.65
313.00 5.643
313.10 5.637
313.20 5.63
313.30 5.623
313.40 5.617
313.50 5.61
313.60 5.603
313.70 5.597
313.80 5.59
313.90 5.583
314.00 5.577
314.10 5.57
314.20 5.564
314.30 5.557
314.40 5.55
314.50 5.544
314.60 5.537
314.70 5.531
314.80 5.524
314.90 5.518
315.00 5.511
315.10 5.505
315.20 5.498
315.30 5.492
315.40 5.485
315.50 5.479
315.60 5.472
315.70 5.466
315.80 5.459
315.90 5.453
316.00 5.447
316.10 5.44
316.20 5.434
316.30 5.427
316.40 5.421
316.50 5.415
316.60 5.408
316.70 5.402
316.80 5.395
316.90 5.389
317.00 5.383
317.10 5.376
317.20 5.37
317.30 5.364
317.40 5.358
317.50 5.351
317.60 5.345
317.70 5.339
317.80 5.332
317.90 5.326
318.00 5.32
318.10 5.314
318.20 5.308
318.30 5.301
318.40 5.295
318.50 5.289
318.60 5.283
318.70 5.277
318.80 5.27
318.90 5.264
319.00 5.258
319.10 5.252
319.20 5.246
319.30 5.24
319.40 5.234
319.50 5.228
319.60 5.221
319.70 5.215
319.80 5.209
319.90 5.203
320.00 5.197
320.10 5.191
320.20 5.185
320.30 5.179
320.40 5.173
320.50 5.167
320.60 5.161
320.70 5.155
320.80 5.149
320.90 5.143
321.00 5.137
321.10 5.131
321.20 5.125
321.30 5.119
321.40 5.113
321.50 5.107
321.60 5.102
321.70 5.096
321.80 5.09
321.90 5.084
322.00 5.078
322.10 5.072
322.20 5.066
322.30 5.06
322.40 5.054
322.50 5.049
322.60 5.043
322.70 5.037
322.80 5.031
322.90 5.025
323.00 5.02
323.10 5.014
323.20 5.008
323.30 5.002
323.40 4.996
323.50 4.991
323.60 4.985
323.70 4.979
323.80 4.973
323.90 4.968
324.00 4.962
324.10 4.956
324.20 4.951
324.30 4.945
324.40 4.939
324.50 4.934
324.60 4.928
324.70 4.922
324.80 4.917
324.90 4.911
325.00 4.905
325.10 4.9
325.20 4.894
325.30 4.889
325.40 4.883
325.50 4.877
325.60 4.872
325.70 4.866
325.80 4.861
325.90 4.855
326.00 4.849
326.10 4.844
326.20 4.838
326.30 4.833
326.40 4.827
326.50 4.822
326.60 4.816
326.70 4.811
326.80 4.805
326.90 4.8
327.00 4.794
327.10 4.789
327.20 4.783
327.30 4.778
327.40 4.773
327.50 4.767
327.60 4.762
327.70 4.756
327.80 4.751
327.90 4.745
328.00 4.74
328.10 4.735
328.20 4.729
328.30 4.724
328.40 4.719
328.50 4.713
328.60 4.708
328.70 4.703
328.80 4.697
328.90 4.692
329.00 4.687
329.10 4.681
329.20 4.676
329.30 4.671
329.40 4.665
329.50 4.66
329.60 4.655
329.70 4.65
329.80 4.644
329.90 4.639
330.00 4.634
330.10 4.629
330.20 4.623
330.30 4.618
330.40 4.613
330.50 4.608
330.60 4.603
330.70 4.597
330.80 4.592
330.90 4.587
331.00 4.582
331.10 4.577
331.20 4.572
331.30 4.566
331.40 4.561
331.50 4.556
331.60 4.551
331.70 4.546
331.80 4.541
331.90 4.536
332.00 4.53
332.10 4.525
332.20 4.52
332.30 4.515
332.40 4.51
332.50 4.505
332.60 4.5
332.70 4.495
332.80 4.49
332.90 4.485
333.00 4.48
333.10 4.475
333.20 4.47
333.30 4.465
333.40 4.46
333.50 4.455
333.60 4.45
333.70 4.445
333.80 4.44
333.90 4.435
334.00 4.43
334.10 4.425
334.20 4.42
334.30 4.415
334.40 4.41
334.50 4.405
334.60 4.4
334.70 4.396
334.80 4.391
334.90 4.386
335.00 4.381
335.10 4.376
335.20 4.371
335.30 4.366
335.40 4.361
335.50 4.357
335.60 4.352
335.70 4.347
335.80 4.342
335.90 4.337
336.00 4.332
336.10 4.328
336.20 4.323
336.30 4.318
336.40 4.313
336.50 4.308
336.60 4.304
336.70 4.299
336.80 4.294
336.90 4.289
337.00 4.285
337.10 4.28
337.20 4.275
337.30 4.27
337.40 4.266
337.50 4.261
337.60 4.256
337.70 4.251
337.80 4.247
337.90 4.242
338.00 4.237
338.10 4.233
338.20 4.228
338.30 4.223
338.40 4.219
338.50 4.214
338.60 4.209
338.70 4.205
338.80 4.2
338.90 4.195
339.00 4.191
339.10 4.186
339.20 4.182
339.30 4.177
339.40 4.172
339.50 4.168
339.60 4.163
339.70 4.159
339.80 4.154
339.90 4.149
340.00 4.145
340.10 4.14
340.20 4.136
340.30 4.131
340.40 4.127
340.50 4.122
340.60 4.118
340.70 4.113
340.80 4.109
340.90 4.104
341.00 4.1
341.10 4.095
341.20 4.091
341.30 4.086
341.40 4.082
341.50 4.077
341.60 4.073
341.70 4.068
341.80 4.064
341.90 4.059
342.00 4.055
342.10 4.051
342.20 4.046
342.30 4.042
342.40 4.037
342.50 4.033
342.60 4.029
342.70 4.024
342.80 4.02
342.90 4.015
343.00 4.011
343.10 4.007
343.20 4.002
343.30 3.998
343.40 3.994
343.50 3.989
343.60 3.985
343.70 3.981
343.80 3.976
343.90 3.972
344.00 3.968
344.10 3.963
344.20 3.959
344.30 3.955
344.40 3.95
344.50 3.946
344.60 3.942
344.70 3.938
344.80 3.933
344.90 3.929
345.00 3.925
345.10 3.921
345.20 3.916
345.30 3.912
345.40 3.908
345.50 3.904
345.60 3.899
345.70 3.895
345.80 3.891
345.90 3.887
346.00 3.882
346.10 3.878
346.20 3.874
346.30 3.87
346.40 3.866
346.50 3.862
346.60 3.857
346.70 3.853
346.80 3.849
346.90 3.845
347.00 3.841
347.10 3.837
347.20 3.833
347.30 3.828
347.40 3.824
347.50 3.82
347.60 3.816
347.70 3.812
347.80 3.808
347.90 3.804
348.00 3.8
348.10 3.796
348.20 3.791
348.30 3.787
348.40 3.783
348.50 3.779
348.60 3.775
348.70 3.771
348.80 3.767
348.90 3.763
349.00 3.759
349.10 3.755
349.20 3.751
349.30 3.747
349.40 3.743
349.50 3.739
349.60 3.735
349.70 3.731
349.80 3.727
349.90 3.723
350.00 3.719
350.10 3.715
350.20 3.711
350.30 3.707
350.40 3.703
350.50 3.699
350.60 3.695
350.70 3.691
350.80 3.687
350.90 3.683
351.00 3.68
351.10 3.676
351.20 3.672
351.30 3.668
351.40 3.664
351.50 3.66
351.60 3.656
351.70 3.652
351.80 3.648
351.90 3.644
352.00 3.64
352.10 3.637
352.20 3.633
352.30 3.629
352.40 3.625
352.50 3.621
352.60 3.617
352.70 3.614
352.80 3.61
352.90 3.606
353.00 3.602
353.10 3.598
353.20 3.594
353.30 3.591
353.40 3.587
353.50 3.583
353.60 3.579
353.70 3.575
353.80 3.572
353.90 3.568
354.00 3.564
354.10 3.56
354.20 3.557
354.30 3.553
354.40 3.549
354.50 3.545
354.60 3.542
354.70 3.538
354.80 3.534
354.90 3.53
355.00 3.527
355.10 3.523
355.20 3.519
355.30 3.516
355.40 3.512
355.50 3.508
355.60 3.504
355.70 3.501
355.80 3.497
355.90 3.493
356.00 3.49
356.10 3.486
356.20 3.482
356.30 3.479
356.40 3.475
356.50 3.471
356.60 3.468
356.70 3.464
356.80 3.46
356.90 3.457
357.00 3.453
357.10 3.45
357.20 3.446
357.30 3.442
357.40 3.439
357.50 3.435
357.60 3.432
357.70 3.428
357.80 3.424
357.90 3.421
358.00 3.417
358.10 3.414
358.20 3.41
358.30 3.406
358.40 3.403
358.50 3.399
358.60 3.396
358.70 3.392
358.80 3.389
358.90 3.385
359.00 3.382
359.10 3.378
359.20 3.375
359.30 3.371
359.40 3.368
359.50 3.364
359.60 3.361
359.70 3.357
359.80 3.354
359.90 3.35
360.00 3.347
360.10 3.343
360.20 3.34
360.30 3.336
360.40 3.333
360.50 3.329
360.60 3.326
360.70 3.322
360.80 3.319
360.90 3.315
361.00 3.312
361.10 3.309
361.20 3.305
361.30 3.302
361.40 3.298
361.50 3.295
361.60 3.291
361.70 3.288
361.80 3.285
361.90 3.281
362.00 3.278
362.10 3.274
362.20 3.271
362.30 3.268
362.40 3.264
362.50 3.261
362.60 3.257
362.70 3.254
362.80 3.251
362.90 3.247
363.00 3.244
363.10 3.241
363.20 3.237
363.30 3.234
363.40 3.231
363.50 3.227
363.60 3.224
363.70 3.221
363.80 3.217
363.90 3.214
364.00 3.211
364.10 3.207
364.20 3.204
364.30 3.201
364.40 3.198
364.50 3.194
364.60 3.191
364.70 3.188
364.80 3.184
364.90 3.181
365.00 3.178
365.10 3.175
365.20 3.171
365.30 3.168
365.40 3.165
365.50 3.162
365.60 3.158
365.70 3.155
365.80 3.152
365.90 3.149
366.00 3.145
366.10 3.142
366.20 3.139
366.30 3.136
366.40 3.132
366.50 3.129
366.60 3.126
366.70 3.123
366.80 3.119
366.90 3.116
367.00 3.113
367.10 3.109
367.20 3.106
367.30 3.103
367.40 3.1
367.50 3.097
367.60 3.093
367.70 3.09
367.80 3.087
367.90 3.084
368.00 3.08
368.10 3.077
368.20 3.074
368.30 3.071
368.40 3.068
368.50 3.064
368.60 3.061
368.70 3.058
368.80 3.055
368.90 3.052
369.00 3.048
369.10 3.045
369.20 3.042
369.30 3.039
369.40 3.036
369.50 3.033
369.60 3.029
369.70 3.026
369.80 3.023
369.90 3.02
370.00 3.017
370.10 3.014
370.20 3.011
370.30 3.007
370.40 3.004
370.50 3.001
370.60 2.998
370.70 2.995
370.80 2.992
370.90 2.989
371.00 2.986
371.10 2.983
371.20 2.98
371.30 2.977
371.40 2.973
371.50 2.97
371.60 2.967
371.70 2.964
371.80 2.961
371.90 2.958
372.00 2.955
372.10 2.952
372.20 2.949
372.30 2.946
372.40 2.943
372.50 2.94
372.60 2.937
372.70 2.934
372.80 2.931
372.90 2.928
373.00 2.925
373.10 2.922
373.20 2.919
373.30 2.916
373.40 2.913
373.50 2.91
373.60 2.907
373.70 2.904
373.80 2.901
373.90 2.898
374.00 2.895
374.10 2.893
374.20 2.89
374.30 2.887
374.40 2.884
374.50 2.881
374.60 2.878
374.70 2.875
374.80 2.872
374.90 2.869
375.00 2.867
375.10 2.864
375.20 2.861
375.30 2.858
375.40 2.855
375.50 2.852
375.60 2.849
375.70 2.846
375.80 2.844
375.90 2.841
376.00 2.838
376.10 2.835
376.20 2.832
376.30 2.829
376.40 2.827
376.50 2.824
376.60 2.821
376.70 2.818
376.80 2.816
376.90 2.813
377.00 2.81
377.10 2.807
377.20 2.805
377.30 2.802
377.40 2.799
377.50 2.797
377.60 2.794
377.70 2.791
377.80 2.789
377.90 2.786
378.00 2.783
378.10 2.781
378.20 2.778
378.30 2.775
378.40 2.773
378.50 2.77
378.60 2.767
378.70 2.764
378.80 2.762
378.90 2.759
379.00 2.756
379.10 2.754
379.20 2.751
379.30 2.749
379.40 2.746
379.50 2.743
379.60 2.741
379.70 2.738
379.80 2.735
379.90 2.733
380.00 2.73
380.10 2.728
380.20 2.725
380.30 2.723
380.40 2.721
380.50 2.718
380.60 2.716
380.70 2.714
380.80 2.711
380.90 2.709
381.00 2.706
381.10 2.704
381.20 2.701
381.30 2.699
381.40 2.696
381.50 2.694
381.60 2.691
381.70 2.689
381.80 2.686
381.90 2.683
382.00 2.68
382.10 2.678
382.20 2.675
382.30 2.672
382.40 2.669
382.50 2.666
382.60 2.663
382.70 2.66
382.80 2.657
382.90 2.654
383.00 2.651
383.10 2.648
383.20 2.645
383.30 2.643
383.40 2.64
383.50 2.637
383.60 2.635
383.70 2.633
383.80 2.631
383.90 2.63
384.00 2.628
384.10 2.626
384.20 2.625
384.30 2.623
384.40 2.621
384.50 2.62
384.60 2.618
384.70 2.616
384.80 2.614
384.90 2.612
385.00 2.611
385.10 2.609
385.20 2.606
385.30 2.604
385.40 2.602
385.50 2.6
385.60 2.598
385.70 2.595
385.80 2.593
385.90 2.59
386.00 2.588
386.10 2.585
386.20 2.582
386.30 2.579
386.40 2.576
386.50 2.573
386.60 2.57
386.70 2.567
386.80 2.564
386.90 2.56
387.00 2.557
387.10 2.553
387.20 2.55
387.30 2.546
387.40 2.542
387.50 2.538
387.60 2.534
387.70 2.531
387.80 2.526
387.90 2.522
388.00 2.518
388.10 2.514
388.20 2.51
388.30 2.506
388.40 2.502
388.50 2.498
388.60 2.494
388.70 2.491
388.80 2.488
388.90 2.486
389.00 2.484
389.10 2.483
389.20 2.481
389.30 2.481
389.40 2.481
389.50 2.48
389.60 2.48
389.70 2.48
389.80 2.48
389.90 2.48
390.00 2.48
390.10 2.48
390.20 2.48
390.30 2.479
390.40 2.479
390.50 2.479
390.60 2.478
390.70 2.478
390.80 2.477
390.90 2.476
391.00 2.475
391.10 2.474
391.20 2.473
391.30 2.472
391.40 2.471
391.50 2.47
391.60 2.468
391.70 2.467
391.80 2.465
391.90 2.464
392.00 2.462
392.10 2.46
392.20 2.458
392.30 2.456
392.40 2.454
392.50 2.452
392.60 2.45
392.70 2.447
392.80 2.445
392.90 2.442
393.00 2.44
393.10 2.437
393.20 2.434
393.30 2.431
393.40 2.428
393.50 2.425
393.60 2.422
393.70 2.418
393.80 2.415
393.90 2.411
394.00 2.407
394.10 2.403
394.20 2.399
394.30 2.395
394.40 2.391
394.50 2.387
394.60 2.382
394.70 2.377
394.80 2.373
394.90 2.368
395.00 2.362
395.10 2.357
395.20 2.352
395.30 2.346
395.40 2.34
395.50 2.335
395.60 2.329
395.70 2.322
395.80 2.316
395.90 2.31
396.00 2.303
396.10 2.297
396.20 2.29
396.30 2.283
396.40 2.276
396.50 2.27
396.60 2.263
396.70 2.256
396.80 2.25
396.90 2.243
397.00 2.238
397.10 2.239
397.20 2.241
397.30 2.243
397.40 2.246
397.50 2.249
397.60 2.252
397.70 2.255
397.80 2.257
397.90 2.26
398.00 2.263
398.10 2.265
398.20 2.267
398.30 2.27
398.40 2.272
398.50 2.274
398.60 2.275
398.70 2.277
398.80 2.279
398.90 2.28
399.00 2.281
399.10 2.282
399.20 2.283
399.30 2.284
399.40 2.285
399.50 2.285
399.60 2.286
399.70 2.286
399.80 2.286
399.90 2.286
400.00 2.286
400.10 2.286
400.20 2.286
400.30 2.286
400.40 2.285
400.50 2.285
400.60 2.284
400.70 2.284
400.80 2.283
400.90 2.282
401.00 2.281
401.10 2.28
401.20 2.279
401.30 2.278
401.40 2.277
401.50 2.276
401.60 2.274
401.70 2.273
401.80 2.272
401.90 2.27
402.00 2.269
402.10 2.267
402.20 2.265
402.30 2.264
402.40 2.262
402.50 2.26
402.60 2.259
402.70 2.257
402.80 2.255
402.90 2.253
403.00 2.251
403.10 2.249
403.20 2.247
403.30 2.245
403.40 2.243
403.50 2.241
403.60 2.239
403.70 2.237
403.80 2.235
403.90 2.232
404.00 2.23
404.10 2.228
404.20 2.225
404.30 2.223
404.40 2.221
404.50 2.218
404.60 2.215
404.70 2.213
404.80 2.21
404.90 2.208
405.00 2.205
405.10 2.202
405.20 2.199
405.30 2.196
405.40 2.193
405.50 2.19
405.60 2.187
405.70 2.184
405.80 2.181
405.90 2.178
406.00 2.174
406.10 2.171
406.20 2.167
406.30 2.164
406.40 2.16
406.50 2.156
406.60 2.152
406.70 2.148
406.80 2.144
406.90 2.139
407.00 2.135
407.10 2.13
407.20 2.126
407.30 2.121
407.40 2.116
407.50 2.11
407.60 2.105
407.70 2.099
407.80 2.094
407.90 2.088
408.00 2.082
408.10 2.075
408.20 2.069
408.30 2.062
408.40 2.055
408.50 2.047
408.60 2.04
408.70 2.032
408.80 2.024
408.90 2.016
409.00 2.007
409.10 1.999
409.20 1.99
409.30 1.98
409.40 1.971
409.50 1.961
409.60 1.952
409.70 1.942
409.80 1.933
409.90 1.924
410.00 1.919
410.10 1.918
410.20 1.92
410.30 1.915
410.40 1.914
410.50 1.918
410.60 1.923
410.70 1.929
410.80 1.936
410.90 1.942
411.00 1.947
411.10 1.953
411.20 1.959
411.30 1.964
411.40 1.969
411.50 1.974
411.60 1.978
411.70 1.982
411.80 1.986
411.90 1.99
412.00 1.993
412.10 1.996
412.20 1.999
412.30 2.002
412.40 2.004
412.50 2.006
412.60 2.009
412.70 2.01
412.80 2.012
412.90 2.013
413.00 2.015
413.10 2.016
413.20 2.017
413.30 2.017
413.40 2.018
413.50 2.019
413.60 2.019
413.70 2.019
413.80 2.019
413.90 2.019
414.00 2.019
414.10 2.019
414.20 2.019
414.30 2.019
414.40 2.018
414.50 2.018
414.60 2.017
414.70 2.017
414.80 2.016
414.90 2.015
415.00 2.015
415.10 2.014
415.20 2.013
415.30 2.012
415.40 2.011
415.50 2.01
415.60 2.009
415.70 2.008
415.80 2.007
415.90 2.005
416.00 2.004
416.10 2.003
416.20 2.002
416.30 2
416.40 1.999
416.50 1.998
416.60 1.996
416.70 1.995
416.80 1.994
416.90 1.992
417.00 1.991
417.10 1.989
417.20 1.988
417.30 1.986
417.40 1.985
417.50 1.983
417.60 1.982
417.70 1.98
417.80 1.979
417.90 1.977
418.00 1.976
418.10 1.974
418.20 1.973
418.30 1.971
418.40 1.969
418.50 1.968
418.60 1.966
418.70 1.965
418.80 1.963
418.90 1.961
419.00 1.96
419.10 1.958
419.20 1.956
419.30 1.955
419.40 1.953
419.50 1.951
419.60 1.95
419.70 1.948
419.80 1.947
419.90 1.945
420.00 1.943
420.10 1.941
420.20 1.94
420.30 1.938
420.40 1.936
420.50 1.935
420.60 1.933
420.70 1.931
420.80 1.93
420.90 1.928
421.00 1.926
421.10 1.925
421.20 1.923
421.30 1.921
421.40 1.919
421.50 1.918
421.60 1.916
421.70 1.914
421.80 1.913
421.90 1.911
422.00 1.909
422.10 1.907
422.20 1.906
422.30 1.904
422.40 1.902
422.50 1.901
422.60 1.899
422.70 1.897
422.80 1.895
422.90 1.894
423.00 1.892
423.10 1.89
423.20 1.888
423.30 1.887
423.40 1.885
423.50 1.883
423.60 1.881
423.70 1.88
423.80 1.878
423.90 1.876
424.00 1.874
424.10 1.873
424.20 1.871
424.30 1.869
424.40 1.867
424.50 1.866
424.60 1.864
424.70 1.862
424.80 1.86
424.90 1.858
425.00 1.857
425.10 1.855
425.20 1.853
425.30 1.851
425.40 1.849
425.50 1.848
425.60 1.846
425.70 1.844
425.80 1.842
425.90 1.84
426.00 1.838
426.10 1.837
426.20 1.835
426.30 1.833
426.40 1.831
426.50 1.829
426.60 1.827
426.70 1.825
426.80 1.823
426.90 1.822
427.00 1.82
427.10 1.818
427.20 1.816
427.30 1.814
427.40 1.812
427.50 1.81
427.60 1.808
427.70 1.806
427.80 1.804
427.90 1.801
428.00 1.799
428.10 1.797
428.20 1.795
428.30 1.793
428.40 1.791
428.50 1.788
428.60 1.786
428.70 1.784
428.80 1.782
428.90 1.779
429.00 1.777
429.10 1.774
429.20 1.772
429.30 1.769
429.40 1.767
429.50 1.764
429.60 1.761
429.70 1.759
429.80 1.756
429.90 1.753
430.00 1.75
430.10 1.747
430.20 1.744
430.30 1.74
430.40 1.737
430.50 1.734
430.60 1.73
430.70 1.726
430.80 1.723
430.90 1.719
431.00 1.715
431.10 1.71
431.20 1.706
431.30 1.701
431.40 1.697
431.50 1.692
431.60 1.687
431.70 1.681
431.80 1.676
431.90 1.67
432.00 1.664
432.10 1.658
432.20 1.651
432.30 1.645
432.40 1.638
432.50 1.63
432.60 1.623
432.70 1.615
432.80 1.607
432.90 1.598
433.00 1.589
433.10 1.58
433.20 1.571
433.30 1.562
433.40 1.553
433.50 1.543
433.60 1.534
433.70 1.524
433.80 1.515
433.90 1.506
434.00 1.499
434.10 1.498
434.20 1.503
434.30 1.51
434.40 1.516
434.50 1.523
434.60 1.53
434.70 1.536
434.80 1.543
434.90 1.55
435.00 1.556
435.10 1.562
435.20 1.568
435.30 1.574
435.40 1.579
435.50 1.584
435.60 1.589
435.70 1.593
435.80 1.597
435.90 1.601
436.00 1.605
436.10 1.608
436.20 1.611
436.30 1.614
436.40 1.616
436.50 1.618
436.60 1.62
436.70 1.622
436.80 1.624
436.90 1.625
437.00 1.627
437.10 1.628
437.20 1.629
437.30 1.63
437.40 1.63
437.50 1.631
437.60 1.631
437.70 1.632
437.80 1.632
437.90 1.632
438.00 1.632
438.10 1.632
438.20 1.632
438.30 1.632
438.40 1.632
438.50 1.631
438.60 1.631
438.70 1.631
438.80 1.63
438.90 1.63
439.00 1.629
439.10 1.628
439.20 1.628
439.30 1.627
439.40 1.626
439.50 1.625
439.60 1.625
439.70 1.624
439.80 1.623
439.90 1.622
440.00 1.621
440.10 1.62
440.20 1.619
440.30 1.618
440.40 1.617
440.50 1.616
440.60 1.615
440.70 1.614
440.80 1.613
440.90 1.612
441.00 1.611
441.10 1.61
441.20 1.609
441.30 1.608
441.40 1.606
441.50 1.605
441.60 1.604
441.70 1.603
441.80 1.602
441.90 1.601
442.00 1.599
442.10 1.598
442.20 1.597
442.30 1.596
442.40 1.595
442.50 1.593
442.60 1.592
442.70 1.591
442.80 1.59
442.90 1.588
443.00 1.587
443.10 1.586
443.20 1.585
443.30 1.583
443.40 1.582
443.50 1.581
443.60 1.58
443.70 1.578
443.80 1.577
443.90 1.576
444.00 1.575
444.10 1.573
444.20 1.572
444.30 1.571
444.40 1.569
444.50 1.568
444.60 1.567
444.70 1.566
444.80 1.564
444.90 1.563
445.00 1.562
445.10 1.561
445.20 1.559
445.30 1.558
445.40 1.557
445.50 1.555
445.60 1.554
445.70 1.553
445.80 1.552
445.90 1.55
446.00 1.549
446.10 1.548
446.20 1.546
446.30 1.545
446.40 1.544
446.50 1.543
446.60 1.541
446.70 1.54
446.80 1.539
446.90 1.537
447.00 1.536
447.10 1.535
447.20 1.534
447.30 1.532
447.40 1.531
447.50 1.53
447.60 1.528
447.70 1.527
447.80 1.526
447.90 1.525
448.00 1.523
448.10 1.522
448.20 1.521
448.30 1.52
448.40 1.518
448.50 1.517
448.60 1.516
448.70 1.514
448.80 1.513
448.90 1.512
449.00 1.511
449.10 1.509
449.20 1.508
449.30 1.507
449.40 1.506
449.50 1.504
449.60 1.503
449.70 1.502
449.80 1.501
449.90 1.499
450.00 1.498
450.10 1.497
450.20 1.495
450.30 1.494
450.40 1.493
450.50 1.492
450.60 1.49
450.70 1.489
450.80 1.488
450.90 1.487
451.00 1.485
451.10 1.484
451.20 1.483
451.30 1.482
451.40 1.48
451.50 1.479
451.60 1.478
451.70 1.477
451.80 1.475
451.90 1.474
452.00 1.473
452.10 1.472
452.20 1.471
452.30 1.469
452.40 1.468
452.50 1.467
452.60 1.466
452.70 1.464
452.80 1.463
452.90 1.462
453.00 1.461
453.10 1.459
453.20 1.458
453.30 1.457
453.40 1.456
453.50 1.455
453.60 1.453
453.70 1.452
453.80 1.451
453.90 1.45
454.00 1.448
454.10 1.447
454.20 1.446
454.30 1.445
454.40 1.444
454.50 1.442
454.60 1.441
454.70 1.44
454.80 1.439
454.90 1.438
455.00 1.436
455.10 1.435
455.20 1.434
455.30 1.433
455.40 1.432
455.50 1.43
455.60 1.429
455.70 1.428
455.80 1.427
455.90 1.426
456.00 1.424
456.10 1.423
456.20 1.422
456.30 1.421
456.40 1.42
456.50 1.418
456.60 1.417
456.70 1.416
456.80 1.415
456.90 1.414
457.00 1.412
457.10 1.411
457.20 1.41
457.30 1.409
457.40 1.408
457.50 1.407
457.60 1.405
457.70 1.404
457.80 1.403
457.90 1.402
458.00 1.401
458.10 1.4
458.20 1.398
458.30 1.397
458.40 1.396
458.50 1.395
458.60 1.394
458.70 1.393
458.80 1.391
458.90 1.39
459.00 1.389
459.10 1.388
459.20 1.387
459.30 1.386
459.40 1.384
459.50 1.383
459.60 1.382
459.70 1.381
459.80 1.38
459.90 1.379
460.00 1.378
460.10 1.376
460.20 1.375
460.30 1.374
460.40 1.373
460.50 1.372
460.60 1.371
460.70 1.37
460.80 1.368
460.90 1.367
461.00 1.366
461.10 1.365
461.20 1.364
461.30 1.363
461.40 1.362
461.50 1.36
461.60 1.359
461.70 1.358
461.80 1.357
461.90 1.356
462.00 1.355
462.10 1.354
462.20 1.353
462.30 1.351
462.40 1.35
462.50 1.349
462.60 1.348
462.70 1.347
462.80 1.346
462.90 1.345
463.00 1.344
463.10 1.342
463.20 1.341
463.30 1.34
463.40 1.339
463.50 1.338
463.60 1.337
463.70 1.336
463.80 1.335
463.90 1.334
464.00 1.332
464.10 1.331
464.20 1.33
464.30 1.329
464.40 1.328
464.50 1.327
464.60 1.326
464.70 1.325
464.80 1.324
464.90 1.323
465.00 1.321
465.10 1.32
465.20 1.319
465.30 1.318
465.40 1.317
465.50 1.316
465.60 1.315
465.70 1.314
465.80 1.313
465.90 1.312
466.00 1.311
466.10 1.31
466.20 1.308
466.30 1.307
466.40 1.306
466.50 1.305
466.60 1.304
466.70 1.303
466.80 1.302
466.90 1.301
467.00 1.3
467.10 1.299
467.20 1.298
467.30 1.297
467.40 1.295
467.50 1.294
467.60 1.293
467.70 1.292
467.80 1.291
467.90 1.29
468.00 1.289
468.10 1.288
468.20 1.287
468.30 1.286
468.40 1.285
468.50 1.284
468.60 1.283
468.70 1.282
468.80 1.281
468.90 1.28
469.00 1.278
469.10 1.277
469.20 1.276
469.30 1.275
469.40 1.274
469.50 1.273
469.60 1.272
469.70 1.271
469.80 1.27
469.90 1.269
470.00 1.268
470.10 1.267
470.20 1.266
470.30 1.265
470.40 1.264
470.50 1.263
470.60 1.262
470.70 1.261
470.80 1.26
470.90 1.259
471.00 1.257
471.10 1.256
471.20 1.255
471.30 1.254
471.40 1.253
471.50 1.252
471.60 1.251
471.70 1.25
471.80 1.249
471.90 1.248
472.00 1.247
472.10 1.246
472.20 1.245
472.30 1.244
472.40 1.243
472.50 1.242
472.60 1.241
472.70 1.24
472.80 1.239
472.90 1.238
473.00 1.237
473.10 1.236
473.20 1.235
473.30 1.234
473.40 1.233
473.50 1.232
473.60 1.23
473.70 1.229
473.80 1.228
473.90 1.227
474.00 1.226
474.10 1.225
474.20 1.224
474.30 1.223
474.40 1.222
474.50 1.221
474.60 1.22
474.70 1.219
474.80 1.218
474.90 1.217
475.00 1.216
475.10 1.215
475.20 1.214
475.30 1.213
475.40 1.212
475.50 1.211
475.60 1.21
475.70 1.209
475.80 1.208
475.90 1.207
476.00 1.206
476.10 1.205
476.20 1.204
476.30 1.202
476.40 1.201
476.50 1.2
476.60 1.199
476.70 1.198
476.80 1.197
476.90 1.196
477.00 1.195
477.10 1.194
477.20 1.193
477.30 1.192
477.40 1.191
477.50 1.19
477.60 1.189
477.70 1.188
477.80 1.187
477.90 1.185
478.00 1.184
478.10 1.183
478.20 1.182
478.30 1.181
478.40 1.18
478.50 1.179
478.60 1.178
478.70 1.177
478.80 1.175
478.90 1.174
479.00 1.173
479.10 1.172
479.20 1.171
479.30 1.17
479.40 1.168
479.50 1.167
479.60 1.166
479.70 1.165
479.80 1.164
479.90 1.162
480.00 1.161
480.10 1.16
480.20 1.159
480.30 1.157
480.40 1.156
480.50 1.155
480.60 1.153
480.70 1.152
480.80 1.151
480.90 1.149
481.00 1.148
481.10 1.147
481.20 1.145
481.30 1.143
481.40 1.142
481.50 1.14
481.60 1.138
481.70 1.137
481.80 1.135
481.90 1.134
482.00 1.132
482.10 1.13
482.20 1.128
482.30 1.126
482.40 1.124
482.50 1.122
482.60 1.12
482.70 1.118
482.80 1.115
482.90 1.113
483.00 1.111
483.10 1.109
483.20 1.106
483.30 1.103
483.40 1.1
483.50 1.097
483.60 1.094
483.70 1.091
483.80 1.087
483.90 1.084
484.00 1.081
484.10 1.078
484.20 1.074
484.30 1.07
484.40 1.066
484.50 1.061
484.60 1.057
484.70 1.052
484.80 1.047
484.90 1.042
485.00 1.037
485.10 1.032
485.20 1.026
485.30 1.02
485.40 1.014
485.50 1.008
485.60 1.002
485.70 0.9955
485.80 0.9886
485.90 0.9815
486.00 0.9752
486.10 0.9831
486.20 0.9763
486.30 0.9745
486.40 0.98
486.50 0.9855
486.60 0.9907
486.70 0.9956
486.80 1
486.90 1.005
487.00 1.009
487.10 1.013
487.20 1.017
487.30 1.02
487.40 1.024
487.50 1.028
487.60 1.031
487.70 1.034
487.80 1.036
487.90 1.039
488.00 1.041
488.10 1.044
488.20 1.046
488.30 1.047
488.40 1.048
488.50 1.05
488.60 1.051
488.70 1.053
488.80 1.054
488.90 1.055
489.00 1.057
489.10 1.058
489.20 1.059
489.30 1.059
489.40 1.059
489.50 1.06
489.60 1.06
489.70 1.06
489.80 1.061
489.90 1.061
490.00 1.061
490.10 1.062
490.20 1.062
490.30 1.062
490.40 1.061
490.50 1.061
490.60 1.061
490.70 1.061
490.80 1.061
490.90 1.061
491.00 1.06
491.10 1.06
491.20 1.06
491.30 1.059
491.40 1.059
491.50 1.059
491.60 1.058
491.70 1.058
491.80 1.057
491.90 1.057
492.00 1.056
492.10 1.056
492.20 1.055
492.30 1.055
492.40 1.054
492.50 1.054
492.60 1.053
492.70 1.052
492.80 1.052
492.90 1.051
493.00 1.051
493.10 1.05
493.20 1.049
493.30 1.049
493.40 1.048
493.50 1.047
493.60 1.047
493.70 1.046
493.80 1.045
493.90 1.045
494.00 1.044
494.10 1.044
494.20 1.043
494.30 1.042
494.40 1.041
494.50 1.041
494.60 1.04
494.70 1.039
494.80 1.039
494.90 1.038
495.00 1.037
495.10 1.036
495.20 1.036
495.30 1.035
495.40 1.034
495.50 1.034
495.60 1.033
495.70 1.032
495.80 1.031
495.90 1.031
496.00 1.03
496.10 1.029
496.20 1.028
496.30 1.028
496.40 1.027
496.50 1.026
496.60 1.025
496.70 1.025
496.80 1.024
496.90 1.023
497.00 1.022
497.10 1.022
497.20 1.021
497.30 1.02
497.40 1.019
497.50 1.019
497.60 1.018
497.70 1.017
497.80 1.016
497.90 1.016
498.00 1.015
498.10 1.014
498.20 1.014
498.30 1.013
498.40 1.012
498.50 1.011
498.60 1.01
498.70 1.01
498.80 1.009
498.90 1.008
499.00 1.007
499.10 1.007
499.20 1.006
499.30 1.005
499.40 1.004
499.50 1.004
499.60 1.003
499.70 1.002
499.80 1.001
499.90 1.001
500.00 1
500.10 0.9993
500.20 0.9985
500.30 0.9978
500.40 0.997
500.50 0.9963
500.60 0.9955
500.70 0.9948
500.80 0.994
500.90 0.9933
501.00 0.9925
501.10 0.9918
501.20 0.991
501.30 0.9903
501.40 0.9895
501.50 0.9888
501.60 0.988
501.70 0.9873
501.80 0.9866
501.90 0.9858
502.00 0.9851
502.10 0.9843
502.20 0.9836
502.30 0.9829
502.40 0.9821
502.50 0.9814
502.60 0.9806
502.70 0.9799
502.80 0.9792
502.90 0.9784
503.00 0.9777
503.10 0.9769
503.20 0.9762
503.30 0.9755
503.40 0.9747
503.50 0.974
503.60 0.9733
503.70 0.9725
503.80 0.9718
503.90 0.9711
504.00 0.9703
504.10 0.9696
504.20 0.9689
504.30 0.9681
504.40 0.9674
504.50 0.9667
504.60 0.9659
504.70 0.9652
504.80 0.9645
504.90 0.9638
505.00 0.963
505.10 0.9623
505.20 0.9616
505.30 0.9609
505.40 0.9601
505.50 0.9594
505.60 0.9587
505.70 0.958
505.80 0.9573
505.90 0.9565
506.00 0.9558
506.10 0.9551
506.20 0.9544
506.30 0.9537
506.40 0.9529
506.50 0.9522
506.60 0.9515
506.70 0.9508
506.80 0.9501
506.90 0.9493
507.00 0.9486
507.10 0.9479
507.20 0.9472
507.30 0.9465
507.40 0.9458
507.50 0.9451
507.60 0.9444
507.70 0.9436
507.80 0.9429
507.90 0.9422
508.00 0.9415
508.10 0.9408
508.20 0.9401
508.30 0.9394
508.40 0.9387
508.50 0.938
508.60 0.9373
508.70 0.9366
508.80 0.9359
508.90 0.9352
509.00 0.9345
509.10 0.9338
509.20 0.9331
509.30 0.9324
509.40 0.9317
509.50 0.931
509.60 0.9303
509.70 0.9296
509.80 0.9289
509.90 0.9282
510.00 0.9275
510.10 0.9268
510.20 0.9261
510.30 0.9254
510.40 0.9247
510.50 0.924
510.60 0.9233
510.70 0.9226
510.80 0.9219
510.90 0.9212
511.00 0.9205
511.10 0.9198
511.20 0.9192
511.30 0.9185
511.40 0.9178
511.50 0.9171
511.60 0.9164
511.70 0.9157
511.80 0.915
511.90 0.9144
512.00 0.9137
512.10 0.913
512.20 0.9123
512.30 0.9116
512.40 0.9109
512.50 0.9103
512.60 0.9096
512.70 0.9089
512.80 0.9082
512.90 0.9075
513.00 0.9069
513.10 0.9062
513.20 0.9055
513.30 0.9048
513.40 0.9042
513.50 0.9035
513.60 0.9028
513.70 0.9021
513.80 0.9015
513.90 0.9008
514.00 0.9001
514.10 0.8994
514.20 0.8988
514.30 0.8981
514.40 0.8974
514.50 0.8968
514.60 0.8961
514.70 0.8954
514.80 0.8948
514.90 0.8941
515.00 0.8934
515.10 0.8928
515.20 0.8921
515.30 0.8914
515.40 0.8908
515.50 0.8901
515.60 0.8895
515.70 0.8888
515.80 0.8881
515.90 0.8875
516.00 0.8868
516.10 0.8862
516.20 0.8855
516.30 0.8848
516.40 0.8842
516.50 0.8835
516.60 0.8829
516.70 0.8822
516.80 0.8816
516.90 0.8809
517.00 0.8802
517.10 0.8796
517.20 0.8789
517.30 0.8783
517.40 0.8776
517.50 0.877
517.60 0.8763
517.70 0.8757
517.80 0.875
517.90 0.8744
518.00 0.8737
518.10 0.8731
518.20 0.8724
518.30 0.8718
518.40 0.8712
518.50 0.8705
518.60 0.8699
518.70 0.8692
518.80 0.8686
518.90 0.8679
519.00 0.8673
519.10 0.8667
519.20 0.866
519.30 0.8654
519.40 0.8647
519.50 0.8641
519.60 0.8635
519.70 0.8628
519.80 0.8622
519.90 0.8615
520.00 0.8609
520.10 0.8603
520.20 0.8596
520.30 0.859
520.40 0.8584
520.50 0.8577
520.60 0.8571
520.70 0.8565
520.80 0.8558
520.90 0.8552
521.00 0.8546
521.10 0.8539
521.20 0.8533
521.30 0.8527
521.40 0.8521
521.50 0.8514
521.60 0.8508
521.70 0.8502
521.80 0.8496
521.90 0.8489
522.00 0.8483
522.10 0.8477
522.20 0.8471
522.30 0.8464
522.40 0.8458
522.50 0.8452
522.60 0.8446
522.70 0.844
522.80 0.8433
522.90 0.8427
523.00 0.8421
523.10 0.8415
523.20 0.8409
523.30 0.8402
523.40 0.8396
523.50 0.839
523.60 0.8384
523.70 0.8378
523.80 0.8372
523.90 0.8366
524.00 0.8359
524.10 0.8353
524.20 0.8347
524.30 0.8341
524.40 0.8335
524.50 0.8329
524.60 0.8323
524.70 0.8317
524.80 0.8311
524.90 0.8304
525.00 0.8298
525.10 0.8292
525.20 0.8286
525.30 0.828
525.40 0.8274
525.50 0.8268
525.60 0.8262
525.70 0.8256
525.80 0.825
525.90 0.8244
526.00 0.8238
526.10 0.8232
526.20 0.8226
526.30 0.822
526.40 0.8214
526.50 0.8208
526.60 0.8202
526.70 0.8196
526.80 0.819
526.90 0.8184
527.00 0.8178
527.10 0.8172
527.20 0.8166
527.30 0.816
527.40 0.8154
527.50 0.8148
527.60 0.8142
527.70 0.8136
527.80 0.813
527.90 0.8125
528.00 0.8119
528.10 0.8113
528.20 0.8107
528.30 0.8101
528.40 0.8095
528.50 0.8089
528.60 0.8083
528.70 0.8077
528.80 0.8072
528.90 0.8066
529.00 0.806
529.10 0.8054
529.20 0.8048
529.30 0.8042
529.40 0.8036
529.50 0.8031
529.60 0.8025
529.70 0.8019
529.80 0.8013
529.90 0.8007
530.00 0.8002
530.10 0.7996
530.20 0.799
530.30 0.7984
530.40 0.7978
530.50 0.7973
530.60 0.7967
530.70 0.7961
530.80 0.7955
530.90 0.795
531.00 0.7944
531.10 0.7938
531.20 0.7932
531.30 0.7927
531.40 0.7921
531.50 0.7915
531.60 0.7909
531.70 0.7904
531.80 0.7898
531.90 0.7892
532.00 0.7886
532.10 0.7881
532.20 0.7875
532.30 0.7869
532.40 0.7864
532.50 0.7858
532.60 0.7852
532.70 0.7847
532.80 0.7841
532.90 0.7835
533.00 0.783
533.10 0.7824
533.20 0.7818
533.30 0.7813
533.40 0.7807
533.50 0.7802
533.60 0.7796
533.70 0.779
533.80 0.7785
533.90 0.7779
534.00 0.7774
534.10 0.7768
534.20 0.7762
534.30 0.7757
534.40 0.7751
534.50 0.7746
534.60 0.774
534.70 0.7734
534.80 0.7729
534.90 0.7723
535.00 0.7718
535.10 0.7712
535.20 0.7707
535.30 0.7701
535.40 0.7696
535.50 0.769
535.60 0.7685
535.70 0.7679
535.80 0.7674
535.90 0.7668
536.00 0.7663
536.10 0.7657
536.20 0.7652
536.30 0.7646
536.40 0.7641
536.50 0.7635
536.60 0.763
536.70 0.7624
536.80 0.7619
536.90 0.7613
537.00 0.7608
537.10 0.7602
537.20 0.7597
537.30 0.7592
537.40 0.7586
537.50 0.7581
537.60 0.7575
537.70 0.757
537.80 0.7564
537.90 0.7559
538.00 0.7554
538.10 0.7548
538.20 0.7543
538.30 0.7537
538.40 0.7532
538.50 0.7527
538.60 0.7521
538.70 0.7516
538.80 0.7511
538.90 0.7505
539.00 0.75
539.10 0.7494
539.20 0.7489
539.30 0.7484
539.40 0.7478
539.50 0.7473
539.60 0.7468
539.70 0.7462
539.80 0.7457
539.90 0.7452
540.00 0.7447
540.10 0.7441
540.20 0.7436
540.30 0.7431
540.40 0.7425
540.50 0.742
540.60 0.7415
540.70 0.741
540.80 0.7404
540.90 0.7399
541.00 0.7394
541.10 0.7388
541.20 0.7383
541.30 0.7378
541.40 0.7373
541.50 0.7368
541.60 0.7362
541.70 0.7357
541.80 0.7352
541.90 0.7347
542.00 0.7341
542.10 0.7336
542.20 0.7331
542.30 0.7326
542.40 0.7321
542.50 0.7315
542.60 0.731
542.70 0.7305
542.80 0.73
542.90 0.7295
543.00 0.7289
543.10 0.7284
543.20 0.7279
543.30 0.7274
543.40 0.7269
543.50 0.7264
543.60 0.7259
543.70 0.7253
543.80 0.7248
543.90 0.7243
544.00 0.7238
544.10 0.7233
544.20 0.7228
544.30 0.7223
544.40 0.7218
544.50 0.7213
544.60 0.7207
544.70 0.7202
544.80 0.7197
544.90 0.7192
545.00 0.7187
545.10 0.7182
545.20 0.7177
545.30 0.7172
545.40 0.7167
545.50 0.7162
545.60 0.7157
545.70 0.7152
545.80 0.7147
545.90 0.7142
546.00 0.7137
546.10 0.7132
546.20 0.7127
546.30 0.7122
546.40 0.7116
546.50 0.7111
546.60 0.7106
546.70 0.7101
546.80 0.7096
546.90 0.7091
547.00 0.7087
547.10 0.7082
547.20 0.7077
547.30 0.7072
547.40 0.7067
547.50 0.7062
547.60 0.7057
547.70 0.7052
547.80 0.7047
547.90 0.7042
548.00 0.7037
548.10 0.7032
548.20 0.7027
548.30 0.7022
548.40 0.7017
548.50 0.7012
548.60 0.7007
548.70 0.7002
548.80 0.6997
548.90 0.6993
549.00 0.6988
549.10 0.6983
549.20 0.6978
549.30 0.6973
549.40 0.6968
549.50 0.6963
549.60 0.6958
549.70 0.6953
549.80 0.6949
549.90 0.6944
550.00 0.6939
550.10 0.6934
550.20 0.6929
550.30 0.6924
550.40 0.692
550.50 0.6915
550.60 0.691
550.70 0.6905
550.80 0.69
550.90 0.6895
551.00 0.6891
551.10 0.6886
551.20 0.6881
551.30 0.6876
551.40 0.6871
551.50 0.6867
551.60 0.6862
551.70 0.6857
551.80 0.6852
551.90 0.6847
552.00 0.6843
552.10 0.6838
552.20 0.6833
552.30 0.6828
552.40 0.6824
552.50 0.6819
552.60 0.6814
552.70 0.6809
552.80 0.6805
552.90 0.68
553.00 0.6795
553.10 0.679
553.20 0.6786
553.30 0.6781
553.40 0.6776
553.50 0.6771
553.60 0.6767
553.70 0.6762
553.80 0.6757
553.90 0.6753
554.00 0.6748
554.10 0.6743
554.20 0.6739
554.30 0.6734
554.40 0.6729
554.50 0.6725
554.60 0.672
554.70 0.6715
554.80 0.6711
554.90 0.6706
555.00 0.6701
555.10 0.6697
555.20 0.6692
555.30 0.6687
555.40 0.6683
555.50 0.6678
555.60 0.6673
555.70 0.6669
555.80 0.6664
555.90 0.666
556.00 0.6655
556.10 0.665
556.20 0.6646
556.30 0.6641
556.40 0.6637
556.50 0.6632
556.60 0.6627
556.70 0.6623
556.80 0.6618
556.90 0.6614
557.00 0.6609
557.10 0.6605
557.20 0.66
557.30 0.6595
557.40 0.6591
557.50 0.6586
557.60 0.6582
557.70 0.6577
557.80 0.6573
557.90 0.6568
558.00 0.6564
558.10 0.6559
558.20 0.6555
558.30 0.655
558.40 0.6546
558.50 0.6541
558.60 0.6537
558.70 0.6532
558.80 0.6528
558.90 0.6523
559.00 0.6519
559.10 0.6514
559.20 0.651
559.30 0.6505
559.40 0.6501
559.50 0.6496
559.60 0.6492
559.70 0.6487
559.80 0.6483
559.90 0.6478
560.00 0.6474
560.10 0.6469
560.20 0.6465
560.30 0.646
560.40 0.6456
560.50 0.6452
560.60 0.6447
560.70 0.6443
560.80 0.6438
560.90 0.6434
561.00 0.643
561.10 0.6425
561.20 0.6421
561.30 0.6416
561.40 0.6412
561.50 0.6407
561.60 0.6403
561.70 0.6399
561.80 0.6394
561.90 0.639
562.00 0.6386
562.10 0.6381
562.20 0.6377
562.30 0.6372
562.40 0.6368
562.50 0.6364
562.60 0.6359
562.70 0.6355
562.80 0.6351
562.90 0.6346
563.00 0.6342
563.10 0.6338
563.20 0.6333
563.30 0.6329
563.40 0.6325
563.50 0.632
563.60 0.6316
563.70 0.6312
563.80 0.6307
563.90 0.6303
564.00 0.6299
564.10 0.6294
564.20 0.629
564.30 0.6286
564.40 0.6282
564.50 0.6277
564.60 0.6273
564.70 0.6269
564.80 0.6264
564.90 0.626
565.00 0.6256
565.10 0.6252
565.20 0.6247
565.30 0.6243
565.40 0.6239
565.50 0.6235
565.60 0.623
565.70 0.6226
565.80 0.6222
565.90 0.6218
566.00 0.6213
566.10 0.6209
566.20 0.6205
566.30 0.6201
566.40 0.6197
566.50 0.6192
566.60 0.6188
566.70 0.6184
566.80 0.618
566.90 0.6176
567.00 0.6171
567.10 0.6167
567.20 0.6163
567.30 0.6159
567.40 0.6155
567.50 0.615
567.60 0.6146
567.70 0.6142
567.80 0.6138
567.90 0.6134
568.00 0.613
568.10 0.6125
568.20 0.6121
568.30 0.6117
568.40 0.6113
568.50 0.6109
568.60 0.6105
568.70 0.6101
568.80 0.6096
568.90 0.6092
569.00 0.6088
569.10 0.6084
569.20 0.608
569.30 0.6076
569.40 0.6072
569.50 0.6068
569.60 0.6064
569.70 0.6059
569.80 0.6055
569.90 0.6051
570.00 0.6047
570.10 0.6043
570.20 0.6039
570.30 0.6035
570.40 0.6031
570.50 0.6027
570.60 0.6023
570.70 0.6019
570.80 0.6015
570.90 0.6011
571.00 0.6006
571.10 0.6002
571.20 0.5998
571.30 0.5994
571.40 0.599
571.50 0.5986
571.60 0.5982
571.70 0.5978
571.80 0.5974
571.90 0.597
572.00 0.5966
572.10 0.5962
572.20 0.5958
572.30 0.5954
572.40 0.595
572.50 0.5946
572.60 0.5942
572.70 0.5938
572.80 0.5934
572.90 0.593
573.00 0.5926
573.10 0.5922
573.20 0.5918
573.30 0.5914
573.40 0.591
573.50 0.5906
573.60 0.5902
573.70 0.5898
573.80 0.5894
573.90 0.589
574.00 0.5886
574.10 0.5882
574.20 0.5878
574.30 0.5875
574.40 0.5871
574.50 0.5867
574.60 0.5863
574.70 0.5859
574.80 0.5855
574.90 0.5851
575.00 0.5847
575.10 0.5843
575.20 0.5839
575.30 0.5835
575.40 0.5831
575.50 0.5827
575.60 0.5824
575.70 0.582
575.80 0.5816
575.90 0.5812
576.00 0.5808
576.10 0.5804
576.20 0.58
576.30 0.5796
576.40 0.5792
576.50 0.5789
576.60 0.5785
576.70 0.5781
576.80 0.5777
576.90 0.5773
577.00 0.5769
577.10 0.5765
577.20 0.5762
577.30 0.5758
577.40 0.5754
577.50 0.575
577.60 0.5746
577.70 0.5742
577.80 0.5739
577.90 0.5735
578.00 0.5731
578.10 0.5727
578.20 0.5723
578.30 0.5719
578.40 0.5716
578.50 0.5712
578.60 0.5708
578.70 0.5704
578.80 0.57
578.90 0.5697
579.00 0.5693
579.10 0.5689
579.20 0.5685
579.30 0.5682
579.40 0.5678
579.50 0.5674
579.60 0.567
579.70 0.5666
579.80 0.5663
579.90 0.5659
580.00 0.5655
580.10 0.5651
580.20 0.5648
580.30 0.5644
580.40 0.564
580.50 0.5636
580.60 0.5633
580.70 0.5629
580.80 0.5625
580.90 0.5621
581.00 0.5618
581.10 0.5614
581.20 0.561
581.30 0.5607
581.40 0.5603
581.50 0.5599
581.60 0.5595
581.70 0.5592
581.80 0.5588
581.90 0.5584
582.00 0.5581
582.10 0.5577
582.20 0.5573
582.30 0.557
582.40 0.5566
582.50 0.5562
582.60 0.5558
582.70 0.5555
582.80 0.5551
582.90 0.5547
583.00 0.5544
583.10 0.554
583.20 0.5536
583.30 0.5533
583.40 0.5529
583.50 0.5525
583.60 0.5522
583.70 0.5518
583.80 0.5515
583.90 0.5511
584.00 0.5507
584.10 0.5504
584.20 0.55
584.30 0.5496
584.40 0.5493
584.50 0.5489
584.60 0.5485
584.70 0.5482
584.80 0.5478
584.90 0.5475
585.00 0.5471
585.10 0.5467
585.20 0.5464
585.30 0.546
585.40 0.5457
585.50 0.5453
585.60 0.5449
585.70 0.5446
585.80 0.5442
585.90 0.5439
586.00 0.5435
586.10 0.5432
586.20 0.5428
586.30 0.5424
586.40 0.5421
586.50 0.5417
586.60 0.5414
586.70 0.541
586.80 0.5407
586.90 0.5403
587.00 0.54
587.10 0.5396
587.20 0.5392
587.30 0.5389
587.40 0.5385
587.50 0.5382
587.60 0.5378
587.70 0.5375
587.80 0.5371
587.90 0.5368
588.00 0.5364
588.10 0.5361
588.20 0.5357
588.30 0.5354
588.40 0.535
588.50 0.5347
588.60 0.5343
588.70 0.534
588.80 0.5336
588.90 0.5333
589.00 0.5329
589.10 0.5326
589.20 0.5322
589.30 0.5319
589.40 0.5315
589.50 0.5312
589.60 0.5308
589.70 0.5305
589.80 0.5301
589.90 0.5298
590.00 0.5294
590.10 0.5291
590.20 0.5287
590.30 0.5284
590.40 0.5281
590.50 0.5277
590.60 0.5274
590.70 0.527
590.80 0.5267
590.90 0.5263
591.00 0.526
591.10 0.5257
591.20 0.5253
591.30 0.525
591.40 0.5246
591.50 0.5243
591.60 0.5239
591.70 0.5236
591.80 0.5233
591.90 0.5229
592.00 0.5226
592.10 0.5222
592.20 0.5219
592.30 0.5216
592.40 0.5212
592.50 0.5209
592.60 0.5205
592.70 0.5202
592.80 0.5199
592.90 0.5195
593.00 0.5192
593.10 0.5188
593.20 0.5185
593.30 0.5182
593.40 0.5178
593.50 0.5175
593.60 0.5172
593.70 0.5168
593.80 0.5165
593.90 0.5162
594.00 0.5158
594.10 0.5155
594.20 0.5152
594.30 0.5148
594.40 0.5145
594.50 0.5142
594.60 0.5138
594.70 0.5135
594.80 0.5132
594.90 0.5128
595.00 0.5125
595.10 0.5122
595.20 0.5118
595.30 0.5115
595.40 0.5112
595.50 0.5108
595.60 0.5105
595.70 0.5102
595.80 0.5098
595.90 0.5095
596.00 0.5092
596.10 0.5088
596.20 0.5085
596.30 0.5082
596.40 0.5079
596.50 0.5075
596.60 0.5072
596.70 0.5069
596.80 0.5065
596.90 0.5062
597.00 0.5059
597.10 0.5056
597.20 0.5052
597.30 0.5049
597.40 0.5046
597.50 0.5043
597.60 0.5039
597.70 0.5036
597.80 0.5033
597.90 0.503
598.00 0.5026
598.10 0.5023
598.20 0.502
598.30 0.5017
598.40 0.5013
598.50 0.501
598.60 0.5007
598.70 0.5004
598.80 0.5001
598.90 0.4997
599.00 0.4994
599.10 0.4991
599.20 0.4988
599.30 0.4984
599.40 0.4981
599.50 0.4978
599.60 0.4975
599.70 0.4972
599.80 0.4968
599.90 0.4965
600.00 0.4962
600.10 0.4959
600.20 0.4956
600.30 0.4952
600.40 0.4949
600.50 0.4946
600.60 0.4943
600.70 0.494
600.80 0.4937
600.90 0.4933
601.00 0.493
601.10 0.4927
601.20 0.4924
601.30 0.4921
601.40 0.4918
601.50 0.4914
601.60 0.4911
601.70 0.4908
601.80 0.4905
601.90 0.4902
602.00 0.4899
602.10 0.4896
602.20 0.4892
602.30 0.4889
602.40 0.4886
602.50 0.4883
602.60 0.488
602.70 0.4877
602.80 0.4874
602.90 0.4871
603.00 0.4867
603.10 0.4864
603.20 0.4861
603.30 0.4858
603.40 0.4855
603.50 0.4852
603.60 0.4849
603.70 0.4846
603.80 0.4843
603.90 0.484
604.00 0.4836
604.10 0.4833
604.20 0.483
604.30 0.4827
604.40 0.4824
604.50 0.4821
604.60 0.4818
604.70 0.4815
604.80 0.4812
604.90 0.4809
605.00 0.4806
605.10 0.4803
605.20 0.48
605.30 0.4796
605.40 0.4793
605.50 0.479
605.60 0.4787
605.70 0.4784
605.80 0.4781
605.90 0.4778
606.00 0.4775
606.10 0.4772
606.20 0.4769
606.30 0.4766
606.40 0.4763
606.50 0.476
606.60 0.4757
606.70 0.4754
606.80 0.4751
606.90 0.4748
607.00 0.4745
607.10 0.4742
607.20 0.4739
607.30 0.4736
607.40 0.4733
607.50 0.473
607.60 0.4727
607.70 0.4724
607.80 0.4721
607.90 0.4718
608.00 0.4715
608.10 0.4712
608.20 0.4709
608.30 0.4706
608.40 0.4703
608.50 0.47
608.60 0.4697
608.70 0.4694
608.80 0.4691
608.90 0.4688
609.00 0.4685
609.10 0.4682
609.20 0.4679
609.30 0.4676
609.40 0.4673
609.50 0.467
609.60 0.4667
609.70 0.4664
609.80 0.4661
609.90 0.4658
610.00 0.4655
610.10 0.4652
610.20 0.4649
610.30 0.4647
610.40 0.4644
610.50 0.4641
610.60 0.4638
610.70 0.4635
610.80 0.4632
610.90 0.4629
611.00 0.4626
611.10 0.4623
611.20 0.462
611.30 0.4617
611.40 0.4614
611.50 0.4611
611.60 0.4609
611.70 0.4606
611.80 0.4603
611.90 0.46
612.00 0.4597
612.10 0.4594
612.20 0.4591
612.30 0.4588
612.40 0.4585
612.50 0.4582
612.60 0.458
612.70 0.4577
612.80 0.4574
612.90 0.4571
613.00 0.4568
613.10 0.4565
613.20 0.4562
613.30 0.4559
613.40 0.4557
613.50 0.4554
613.60 0.4551
613.70 0.4548
613.80 0.4545
613.90 0.4542
614.00 0.4539
614.10 0.4536
614.20 0.4534
614.30 0.4531
614.40 0.4528
614.50 0.4525
614.60 0.4522
614.70 0.4519
614.80 0.4517
614.90 0.4514
615.00 0.4511
615.10 0.4508
615.20 0.4505
615.30 0.4502
615.40 0.45
615.50 0.4497
615.60 0.4494
615.70 0.4491
615.80 0.4488
615.90 0.4485
616.00 0.4483
616.10 0.448
616.20 0.4477
616.30 0.4474
616.40 0.4471
616.50 0.4469
616.60 0.4466
616.70 0.4463
616.80 0.446
616.90 0.4457
617.00 0.4455
617.10 0.4452
617.20 0.4449
617.30 0.4446
617.40 0.4444
617.50 0.4441
617.60 0.4438
617.70 0.4435
617.80 0.4432
617.90 0.443
618.00 0.4427
618.10 0.4424
618.20 0.4421
618.30 0.4419
618.40 0.4416
618.50 0.4413
618.60 0.441
618.70 0.4408
618.80 0.4405
618.90 0.4402
619.00 0.4399
619.10 0.4397
619.20 0.4394
619.30 0.4391
619.40 0.4388
619.50 0.4386
619.60 0.4383
619.70 0.438
619.80 0.4377
619.90 0.4375
620.00 0.4372
620.10 0.4369
620.20 0.4367
620.30 0.4364
620.40 0.4361
620.50 0.4358
620.60 0.4356
620.70 0.4353
620.80 0.435
620.90 0.4348
621.00 0.4345
621.10 0.4342
621.20 0.4339
621.30 0.4337
621.40 0.4334
621.50 0.4331
621.60 0.4329
621.70 0.4326
621.80 0.4323
621.90 0.4321
622.00 0.4318
622.10 0.4315
622.20 0.4313
622.30 0.431
622.40 0.4307
622.50 0.4304
622.60 0.4302
622.70 0.4299
622.80 0.4296
622.90 0.4294
623.00 0.4291
623.10 0.4288
623.20 0.4286
623.30 0.4283
623.40 0.4281
623.50 0.4278
623.60 0.4275
623.70 0.4273
623.80 0.427
623.90 0.4267
624.00 0.4265
624.10 0.4262
624.20 0.4259
624.30 0.4257
624.40 0.4254
624.50 0.4251
624.60 0.4249
624.70 0.4246
624.80 0.4244
624.90 0.4241
625.00 0.4238
625.10 0.4236
625.20 0.4233
625.30 0.423
625.40 0.4228
625.50 0.4225
625.60 0.4223
625.70 0.422
625.80 0.4217
625.90 0.4215
626.00 0.4212
626.10 0.421
626.20 0.4207
626.30 0.4204
626.40 0.4202
626.50 0.4199
626.60 0.4197
626.70 0.4194
626.80 0.4191
626.90 0.4189
627.00 0.4186
627.10 0.4184
627.20 0.4181
627.30 0.4178
627.40 0.4176
627.50 0.4173
627.60 0.4171
627.70 0.4168
627.80 0.4166
627.90 0.4163
628.00 0.416
628.10 0.4158
628.20 0.4155
628.30 0.4153
628.40 0.415
628.50 0.4148
628.60 0.4145
628.70 0.4143
628.80 0.414
628.90 0.4137
629.00 0.4135
629.10 0.4132
629.20 0.413
629.30 0.4127
629.40 0.4125
629.50 0.4122
629.60 0.412
629.70 0.4117
629.80 0.4115
629.90 0.4112
630.00 0.411
630.10 0.4107
630.20 0.4105
630.30 0.4102
630.40 0.4099
630.50 0.4097
630.60 0.4094
630.70 0.4092
630.80 0.4089
630.90 0.4087
631.00 0.4084
631.10 0.4082
631.20 0.4079
631.30 0.4077
631.40 0.4074
631.50 0.4072
631.60 0.4069
631.70 0.4067
631.80 0.4064
631.90 0.4062
632.00 0.4059
632.10 0.4057
632.20 0.4054
632.30 0.4052
632.40 0.4049
632.50 0.4047
632.60 0.4044
632.70 0.4042
632.80 0.404
632.90 0.4037
633.00 0.4035
633.10 0.4032
633.20 0.403
633.30 0.4027
633.40 0.4025
633.50 0.4022
633.60 0.402
633.70 0.4017
633.80 0.4015
633.90 0.4012
634.00 0.401
634.10 0.4007
634.20 0.4005
634.30 0.4003
634.40 0.4
634.50 0.3998
634.60 0.3995
634.70 0.3993
634.80 0.399
634.90 0.3988
635.00 0.3985
635.10 0.3983
635.20 0.3981
635.30 0.3978
635.40 0.3976
635.50 0.3973
635.60 0.3971
635.70 0.3968
635.80 0.3966
635.90 0.3964
636.00 0.3961
636.10 0.3959
636.20 0.3956
636.30 0.3954
636.40 0.3951
636.50 0.3949
636.60 0.3947
636.70 0.3944
636.80 0.3942
636.90 0.3939
637.00 0.3937
637.10 0.3935
637.20 0.3932
637.30 0.393
637.40 0.3927
637.50 0.3925
637.60 0.3923
637.70 0.392
637.80 0.3918
637.90 0.3915
638.00 0.3913
638.10 0.3911
638.20 0.3908
638.30 0.3906
638.40 0.3903
638.50 0.3901
638.60 0.3899
638.70 0.3896
638.80 0.3894
638.90 0.3891
639.00 0.3889
639.10 0.3887
639.20 0.3884
639.30 0.3882
639.40 0.388
639.50 0.3877
639.60 0.3875
639.70 0.3872
639.80 0.387
639.90 0.3868
640.00 0.3865
640.10 0.3863
640.20 0.3861
640.30 0.3858
640.40 0.3856
640.50 0.3853
640.60 0.3851
640.70 0.3849
640.80 0.3846
640.90 0.3844
641.00 0.3842
641.10 0.3839
641.20 0.3837
641.30 0.3835
641.40 0.3832
641.50 0.383
641.60 0.3828
641.70 0.3825
641.80 0.3823
641.90 0.382
642.00 0.3818
642.10 0.3816
642.20 0.3813
642.30 0.3811
642.40 0.3809
642.50 0.3806
642.60 0.3804
642.70 0.3802
642.80 0.3799
642.90 0.3797
643.00 0.3795
643.10 0.3792
643.20 0.379
643.30 0.3788
643.40 0.3785
643.50 0.3783
643.60 0.3781
643.70 0.3778
643.80 0.3776
643.90 0.3773
644.00 0.3771
644.10 0.3769
644.20 0.3766
644.30 0.3764
644.40 0.3762
644.50 0.3759
644.60 0.3757
644.70 0.3755
644.80 0.3752
644.90 0.375
645.00 0.3748
645.10 0.3745
645.20 0.3743
645.30 0.3741
645.40 0.3738
645.50 0.3736
645.60 0.3733
645.70 0.3731
645.80 0.3729
645.90 0.3726
646.00 0.3724
646.10 0.3722
646.20 0.3719
646.30 0.3717
646.40 0.3714
646.50 0.3712
646.60 0.371
646.70 0.3707
646.80 0.3705
646.90 0.3702
647.00 0.37
647.10 0.3698
647.20 0.3695
647.30 0.3693
647.40 0.369
647.50 0.3688
647.60 0.3685
647.70 0.3683
647.80 0.368
647.90 0.3678
648.00 0.3675
648.10 0.3673
648.20 0.3671
648.30 0.3668
648.40 0.3666
648.50 0.3663
648.60 0.366
648.70 0.3658
648.80 0.3655
648.90 0.3653
649.00 0.365
649.10 0.3648
649.20 0.3645
649.30 0.3642
649.40 0.364
649.50 0.3637
649.60 0.3634
649.70 0.3631
649.80 0.3629
649.90 0.3626
650.00 0.3623
650.10 0.362
650.20 0.3618
650.30 0.3615
650.40 0.3612
650.50 0.3609
650.60 0.3606
650.70 0.3602
650.80 0.3599
650.90 0.3596
651.00 0.3593
651.10 0.359
651.20 0.3587
651.30 0.3584
651.40 0.358
651.50 0.3576
651.60 0.3573
651.70 0.3569
651.80 0.3565
651.90 0.3562
652.00 0.3558
652.10 0.3554
652.20 0.3551
652.30 0.3547
652.40 0.3542
652.50 0.3537
652.60 0.3532
652.70 0.3527
652.80 0.3522
652.90 0.3517
653.00 0.3512
653.10 0.3508
653.20 0.3503
653.30 0.3497
653.40 0.349
653.50 0.3483
653.60 0.3476
653.70 0.3469
653.80 0.3461
653.90 0.3454
654.00 0.3447
654.10 0.344
654.20 0.3433
654.30 0.3425
654.40 0.3415
654.50 0.3405
654.60 0.3395
654.70 0.3385
654.80 0.3374
654.90 0.3362
655.00 0.3349
655.10 0.3336
655.20 0.3324
655.30 0.331
655.40 0.3295
655.50 0.328
655.60 0.3263
655.70 0.3245
655.80 0.3224
655.90 0.3201
656.00 0.3168
656.10 0.3134
656.20 0.3159
656.30 0.3295
656.40 0.3121
656.50 0.3139
656.60 0.3169
656.70 0.3195
656.80 0.3213
656.90 0.3229
657.00 0.3243
657.10 0.3255
657.20 0.3266
657.30 0.3277
657.40 0.3286
657.50 0.3295
657.60 0.3303
657.70 0.3312
657.80 0.332
657.90 0.3326
658.00 0.3332
658.10 0.3338
658.20 0.3344
658.30 0.335
658.40 0.3353
658.50 0.3356
658.60 0.3359
658.70 0.3362
658.80 0.3365
658.90 0.3368
659.00 0.3371
659.10 0.3374
659.20 0.3377
659.30 0.338
659.40 0.338
659.50 0.3381
659.60 0.3382
659.70 0.3382
659.80 0.3383
659.90 0.3384
660.00 0.3384
660.10 0.3385
660.20 0.3386
660.30 0.3386
660.40 0.3386
660.50 0.3385
660.60 0.3385
660.70 0.3384
660.80 0.3384
660.90 0.3383
661.00 0.3383
661.10 0.3382
661.20 0.3382
661.30 0.3381
661.40 0.338
661.50 0.3379
661.60 0.3378
661.70 0.3377
661.80 0.3375
661.90 0.3374
662.00 0.3373
662.10 0.3372
662.20 0.3371
662.30 0.337
662.40 0.3368
662.50 0.3367
662.60 0.3366
662.70 0.3364
662.80 0.3363
662.90 0.3361
663.00 0.336
663.10 0.3358
663.20 0.3357
663.30 0.3356
663.40 0.3354
663.50 0.3352
663.60 0.3351
663.70 0.3349
663.80 0.3347
663.90 0.3346
664.00 0.3344
664.10 0.3343
664.20 0.3341
664.30 0.3339
664.40 0.3338
664.50 0.3336
664.60 0.3334
664.70 0.3333
664.80 0.3331
664.90 0.3329
665.00 0.3327
665.10 0.3326
665.20 0.3324
665.30 0.3322
665.40 0.3321
665.50 0.3319
665.60 0.3317
665.70 0.3315
665.80 0.3313
665.90 0.3312
666.00 0.331
666.10 0.3308
666.20 0.3306
666.30 0.3305
666.40 0.3303
666.50 0.3301
666.60 0.3299
666.70 0.3297
666.80 0.3296
666.90 0.3294
667.00 0.3292
667.10 0.329
667.20 0.3289
667.30 0.3287
667.40 0.3285
667.50 0.3283
667.60 0.3281
667.70 0.3279
667.80 0.3278
667.90 0.3276
668.00 0.3274
668.10 0.3272
668.20 0.327
668.30 0.3269
668.40 0.3267
668.50 0.3265
668.60 0.3263
668.70 0.3261
668.80 0.3259
668.90 0.3258
669.00 0.3256
669.10 0.3254
669.20 0.3252
669.30 0.325
669.40 0.3249
669.50 0.3247
669.60 0.3245
669.70 0.3243
669.80 0.3241
669.90 0.3239
670.00 0.3238
670.10 0.3236
670.20 0.3234
670.30 0.3232
670.40 0.323
670.50 0.3229
670.60 0.3227
670.70 0.3225
670.80 0.3223
670.90 0.3221
671.00 0.3219
671.10 0.3218
671.20 0.3216
671.30 0.3214
671.40 0.3212
671.50 0.321
671.60 0.3208
671.70 0.3207
671.80 0.3205
671.90 0.3203
672.00 0.3201
672.10 0.3199
672.20 0.3198
672.30 0.3196
672.40 0.3194
672.50 0.3192
672.60 0.319
672.70 0.3189
672.80 0.3187
672.90 0.3185
673.00 0.3183
673.10 0.3181
673.20 0.318
673.30 0.3178
673.40 0.3176
673.50 0.3174
673.60 0.3172
673.70 0.3171
673.80 0.3169
673.90 0.3167
674.00 0.3165
674.10 0.3163
674.20 0.3162
674.30 0.316
674.40 0.3158
674.50 0.3156
674.60 0.3154
674.70 0.3153
674.80 0.3151
674.90 0.3149
675.00 0.3147
675.10 0.3145
675.20 0.3144
675.30 0.3142
675.40 0.314
675.50 0.3138
675.60 0.3137
675.70 0.3135
675.80 0.3133
675.90 0.3131
676.00 0.3129
676.10 0.3128
676.20 0.3126
676.30 0.3124
676.40 0.3122
676.50 0.3121
676.60 0.3119
676.70 0.3117
676.80 0.3115
676.90 0.3113
677.00 0.3112
677.10 0.311
677.20 0.3108
677.30 0.3106
677.40 0.3105
677.50 0.3103
677.60 0.3101
677.70 0.3099
677.80 0.3098
677.90 0.3096
678.00 0.3094
678.10 0.3092
678.20 0.3091
678.30 0.3089
678.40 0.3087
678.50 0.3085
678.60 0.3084
678.70 0.3082
678.80 0.308
678.90 0.3078
679.00 0.3077
679.10 0.3075
679.20 0.3073
679.30 0.3071
679.40 0.307
679.50 0.3068
679.60 0.3066
679.70 0.3064
679.80 0.3063
679.90 0.3061
680.00 0.3059
680.10 0.3057
680.20 0.3056
680.30 0.3054
680.40 0.3052
680.50 0.305
680.60 0.3049
680.70 0.3047
680.80 0.3045
680.90 0.3044
681.00 0.3042
681.10 0.304
681.20 0.3038
681.30 0.3037
681.40 0.3035
681.50 0.3033
681.60 0.3032
681.70 0.303
681.80 0.3028
681.90 0.3026
682.00 0.3025
682.10 0.3023
682.20 0.3021
682.30 0.302
682.40 0.3018
682.50 0.3016
682.60 0.3014
682.70 0.3013
682.80 0.3011
682.90 0.3009
683.00 0.3008
683.10 0.3006
683.20 0.3004
683.30 0.3003
683.40 0.3001
683.50 0.2999
683.60 0.2997
683.70 0.2996
683.80 0.2994
683.90 0.2992
684.00 0.2991
684.10 0.2989
684.20 0.2987
684.30 0.2986
684.40 0.2984
684.50 0.2982
684.60 0.2981
684.70 0.2979
684.80 0.2977
684.90 0.2976
685.00 0.2974
685.10 0.2972
685.20 0.2971
685.30 0.2969
685.40 0.2967
685.50 0.2966
685.60 0.2964
685.70 0.2962
685.80 0.2961
685.90 0.2959
686.00 0.2957
686.10 0.2956
686.20 0.2954
686.30 0.2952
686.40 0.2951
686.50 0.2949
686.60 0.2947
686.70 0.2946
686.80 0.2944
686.90 0.2942
687.00 0.2941
687.10 0.2939
687.20 0.2937
687.30 0.2936
687.40 0.2934
687.50 0.2932
687.60 0.2931
687.70 0.2929
687.80 0.2927
687.90 0.2926
688.00 0.2924
688.10 0.2922
688.20 0.2921
688.30 0.2919
688.40 0.2918
688.50 0.2916
688.60 0.2914
688.70 0.2913
688.80 0.2911
688.90 0.2909
689.00 0.2908
689.10 0.2906
689.20 0.2905
689.30 0.2903
689.40 0.2901
689.50 0.29
689.60 0.2898
689.70 0.2896
689.80 0.2895
689.90 0.2893
690.00 0.2892
690.10 0.289
690.20 0.2888
690.30 0.2887
690.40 0.2885
690.50 0.2884
690.60 0.2882
690.70 0.288
690.80 0.2879
690.90 0.2877
691.00 0.2875
691.10 0.2874
691.20 0.2872
691.30 0.2871
691.40 0.2869
691.50 0.2867
691.60 0.2866
691.70 0.2864
691.80 0.2863
691.90 0.2861
692.00 0.2859
692.10 0.2858
692.20 0.2856
692.30 0.2855
692.40 0.2853
692.50 0.2851
692.60 0.285
692.70 0.2848
692.80 0.2847
692.90 0.2845
693.00 0.2844
693.10 0.2842
693.20 0.284
693.30 0.2839
693.40 0.2837
693.50 0.2836
693.60 0.2834
693.70 0.2832
693.80 0.2831
693.90 0.2829
694.00 0.2828
694.10 0.2826
694.20 0.2825
694.30 0.2823
694.40 0.2821
694.50 0.282
694.60 0.2818
694.70 0.2817
694.80 0.2815
694.90 0.2813
695.00 0.2812
695.10 0.281
695.20 0.2809
695.30 0.2807
695.40 0.2806
695.50 0.2804
695.60 0.2803
695.70 0.2801
695.80 0.2799
695.90 0.2798
696.00 0.2796
696.10 0.2795
696.20 0.2793
696.30 0.2792
696.40 0.279
696.50 0.2789
696.60 0.2787
696.70 0.2786
696.80 0.2784
696.90 0.2782
697.00 0.2781
697.10 0.2779
697.20 0.2778
697.30 0.2776
697.40 0.2775
697.50 0.2773
697.60 0.2772
697.70 0.277
697.80 0.2769
697.90 0.2767
698.00 0.2766
698.10 0.2764
698.20 0.2762
698.30 0.2761
698.40 0.2759
698.50 0.2758
698.60 0.2756
698.70 0.2755
698.80 0.2753
698.90 0.2752
699.00 0.275
699.10 0.2749
699.20 0.2747
699.30 0.2746
699.40 0.2744
699.50 0.2743
699.60 0.2741
699.70 0.274
699.80 0.2738
699.90 0.2737
700.00 0.2735
700.10 0.2733
700.20 0.2732
700.30 0.273
700.40 0.2729
700.50 0.2727
700.60 0.2726
700.70 0.2724
700.80 0.2723
700.90 0.2721
701.00 0.272
701.10 0.2718
701.20 0.2717
701.30 0.2715
701.40 0.2714
701.50 0.2713
701.60 0.2711
701.70 0.271
701.80 0.2708
701.90 0.2707
702.00 0.2705
702.10 0.2704
702.20 0.2702
702.30 0.2701
702.40 0.2699
702.50 0.2698
702.60 0.2696
702.70 0.2695
702.80 0.2693
702.90 0.2692
703.00 0.269
703.10 0.2689
703.20 0.2687
703.30 0.2686
703.40 0.2684
703.50 0.2683
703.60 0.2681
703.70 0.268
703.80 0.2678
703.90 0.2677
704.00 0.2675
704.10 0.2674
704.20 0.2672
704.30 0.2671
704.40 0.267
704.50 0.2668
704.60 0.2667
704.70 0.2665
704.80 0.2664
704.90 0.2662
705.00 0.2661
705.10 0.2659
705.20 0.2658
705.30 0.2656
705.40 0.2655
705.50 0.2653
705.60 0.2652
705.70 0.2651
705.80 0.2649
705.90 0.2648
706.00 0.2646
706.10 0.2645
706.20 0.2643
706.30 0.2642
706.40 0.264
706.50 0.2639
706.60 0.2638
706.70 0.2636
706.80 0.2635
706.90 0.2633
707.00 0.2632
707.10 0.263
707.20 0.2629
707.30 0.2627
707.40 0.2626
707.50 0.2625
707.60 0.2623
707.70 0.2622
707.80 0.262
707.90 0.2619
708.00 0.2617
708.10 0.2616
708.20 0.2615
708.30 0.2613
708.40 0.2612
708.50 0.261
708.60 0.2609
708.70 0.2607
708.80 0.2606
708.90 0.2605
709.00 0.2603
709.10 0.2602
709.20 0.26
709.30 0.2599
709.40 0.2597
709.50 0.2596
709.60 0.2595
709.70 0.2593
709.80 0.2592
709.90 0.259
710.00 0.2589
710.10 0.2587
710.20 0.2586
710.30 0.2585
710.40 0.2583
710.50 0.2582
710.60 0.258
710.70 0.2579
710.80 0.2578
710.90 0.2576
711.00 0.2575
711.10 0.2573
711.20 0.2572
711.30 0.2571
711.40 0.2569
711.50 0.2568
711.60 0.2567
711.70 0.2565
711.80 0.2564
711.90 0.2562
712.00 0.2561
712.10 0.256
712.20 0.2558
712.30 0.2557
712.40 0.2555
712.50 0.2554
712.60 0.2553
712.70 0.2551
712.80 0.255
712.90 0.2548
713.00 0.2547
713.10 0.2546
713.20 0.2544
713.30 0.2543
713.40 0.2542
713.50 0.254
713.60 0.2539
713.70 0.2537
713.80 0.2536
713.90 0.2535
714.00 0.2533
714.10 0.2532
714.20 0.253
714.30 0.2529
714.40 0.2528
714.50 0.2526
714.60 0.2525
714.70 0.2524
714.80 0.2522
714.90 0.2521
715.00 0.252
715.10 0.2518
715.20 0.2517
715.30 0.2515
715.40 0.2514
715.50 0.2513
715.60 0.2511
715.70 0.251
715.80 0.2509
715.90 0.2507
716.00 0.2506
716.10 0.2505
716.20 0.2503
716.30 0.2502
716.40 0.2501
716.50 0.2499
716.60 0.2498
716.70 0.2497
716.80 0.2495
716.90 0.2494
717.00 0.2492
717.10 0.2491
717.20 0.249
717.30 0.2488
717.40 0.2487
717.50 0.2486
717.60 0.2484
717.70 0.2483
717.80 0.2482
717.90 0.248
718.00 0.2479
718.10 0.2478
718.20 0.2476
718.30 0.2475
718.40 0.2474
718.50 0.2472
718.60 0.2471
718.70 0.247
718.80 0.2468
718.90 0.2467
719.00 0.2466
719.10 0.2464
719.20 0.2463
719.30 0.2462
719.40 0.246
719.50 0.2459
719.60 0.2458
719.70 0.2456
719.80 0.2455
719.90 0.2454
720.00 0.2452
720.10 0.2451
720.20 0.245
720.30 0.2448
720.40 0.2447
720.50 0.2446
720.60 0.2445
720.70 0.2443
720.80 0.2442
720.90 0.2441
721.00 0.2439
721.10 0.2438
721.20 0.2437
721.30 0.2435
721.40 0.2434
721.50 0.2433
721.60 0.2432
721.70 0.243
721.80 0.2429
721.90 0.2428
722.00 0.2426
722.10 0.2425
722.20 0.2424
722.30 0.2422
722.40 0.2421
722.50 0.242
722.60 0.2419
722.70 0.2417
722.80 0.2416
722.90 0.2415
723.00 0.2413
723.10 0.2412
723.20 0.2411
723.30 0.2409
723.40 0.2408
723.50 0.2407
723.60 0.2406
723.70 0.2404
723.80 0.2403
723.90 0.2402
724.00 0.24
724.10 0.2399
724.20 0.2398
724.30 0.2397
724.40 0.2395
724.50 0.2394
724.60 0.2393
724.70 0.2391
724.80 0.239
724.90 0.2389
725.00 0.2388
725.10 0.2386
725.20 0.2385
725.30 0.2384
725.40 0.2382
725.50 0.2381
725.60 0.238
725.70 0.2379
725.80 0.2377
725.90 0.2376
726.00 0.2375
726.10 0.2374
726.20 0.2372
726.30 0.2371
726.40 0.237
726.50 0.2369
726.60 0.2367
726.70 0.2366
726.80 0.2365
726.90 0.2364
727.00 0.2362
727.10 0.2361
727.20 0.236
727.30 0.2359
727.40 0.2357
727.50 0.2356
727.60 0.2355
727.70 0.2354
727.80 0.2352
727.90 0.2351
728.00 0.235
728.10 0.2349
728.20 0.2347
728.30 0.2346
728.40 0.2345
728.50 0.2344
728.60 0.2342
728.70 0.2341
728.80 0.234
728.90 0.2339
729.00 0.2337
729.10 0.2336
729.20 0.2335
729.30 0.2334
729.40 0.2332
729.50 0.2331
729.60 0.233
729.70 0.2329
729.80 0.2327
729.90 0.2326
730.00 0.2325
730.10 0.2324
730.20 0.2322
730.30 0.2321
730.40 0.232
730.50 0.2319
730.60 0.2318
730.70 0.2316
730.80 0.2315
730.90 0.2314
731.00 0.2313
731.10 0.2311
731.20 0.231
731.30 0.2309
731.40 0.2308
731.50 0.2307
731.60 0.2305
731.70 0.2304
731.80 0.2303
731.90 0.2302
732.00 0.2301
732.10 0.2299
732.20 0.2298
732.30 0.2297
732.40 0.2296
732.50 0.2294
732.60 0.2293
732.70 0.2292
732.80 0.2291
732.90 0.229
733.00 0.2288
733.10 0.2287
733.20 0.2286
733.30 0.2285
733.40 0.2284
733.50 0.2282
733.60 0.2281
733.70 0.228
733.80 0.2279
733.90 0.2278
734.00 0.2276
734.10 0.2275
734.20 0.2274
734.30 0.2273
734.40 0.2272
734.50 0.227
734.60 0.2269
734.70 0.2268
734.80 0.2267
734.90 0.2266
735.00 0.2264
735.10 0.2263
735.20 0.2262
735.30 0.2261
735.40 0.226
735.50 0.2258
735.60 0.2257
735.70 0.2256
735.80 0.2255
735.90 0.2254
736.00 0.2253
736.10 0.2251
736.20 0.225
736.30 0.2249
736.40 0.2248
736.50 0.2247
736.60 0.2245
736.70 0.2244
736.80 0.2243
736.90 0.2242
737.00 0.2241
737.10 0.224
737.20 0.2238
737.30 0.2237
737.40 0.2236
737.50 0.2235
737.60 0.2234
737.70 0.2232
737.80 0.2231
737.90 0.223
738.00 0.2229
738.10 0.2228
738.20 0.2227
738.30 0.2225
738.40 0.2224
738.50 0.2223
738.60 0.2222
738.70 0.2221
738.80 0.2219
738.90 0.2218
739.00 0.2217
739.10 0.2216
739.20 0.2215
739.30 0.2214
739.40 0.2212
739.50 0.2211
739.60 0.221
739.70 0.2209
739.80 0.2208
739.90 0.2207
740.00 0.2205
740.10 0.2204
740.20 0.2203
740.30 0.2202
740.40 0.2201
740.50 0.22
740.60 0.2199
740.70 0.2197
740.80 0.2196
740.90 0.2195
741.00 0.2194
741.10 0.2193
741.20 0.2192
741.30 0.2191
741.40 0.2189
741.50 0.2188
741.60 0.2187
741.70 0.2186
741.80 0.2185
741.90 0.2184
742.00 0.2183
742.10 0.2182
742.20 0.218
742.30 0.2179
742.40 0.2178
742.50 0.2177
742.60 0.2176
742.70 0.2175
742.80 0.2174
742.90 0.2173
743.00 0.2171
743.10 0.217
743.20 0.2169
743.30 0.2168
743.40 0.2167
743.50 0.2166
743.60 0.2165
743.70 0.2163
743.80 0.2162
743.90 0.2161
744.00 0.216
744.10 0.2159
744.20 0.2158
744.30 0.2157
744.40 0.2156
744.50 0.2155
744.60 0.2153
744.70 0.2152
744.80 0.2151
744.90 0.215
745.00 0.2149
745.10 0.2148
745.20 0.2147
745.30 0.2146
745.40 0.2144
745.50 0.2143
745.60 0.2142
745.70 0.2141
745.80 0.214
745.90 0.2139
746.00 0.2138
746.10 0.2137
746.20 0.2136
746.30 0.2134
746.40 0.2133
746.50 0.2132
746.60 0.2131
746.70 0.213
746.80 0.2129
746.90 0.2128
747.00 0.2127
747.10 0.2126
747.20 0.2124
747.30 0.2123
747.40 0.2122
747.50 0.2121
747.60 0.212
747.70 0.2119
747.80 0.2118
747.90 0.2117
748.00 0.2116
748.10 0.2115
748.20 0.2113
748.30 0.2112
748.40 0.2111
748.50 0.211
748.60 0.2109
748.70 0.2108
748.80 0.2107
748.90 0.2106
749.00 0.2105
749.10 0.2104
749.20 0.2102
749.30 0.2101
749.40 0.21
749.50 0.2099
749.60 0.2098
749.70 0.2097
749.80 0.2096
749.90 0.2095
750.00 0.2094
750.10 0.2093
750.20 0.2092
750.30 0.209
750.40 0.2089
750.50 0.2088
750.60 0.2087
750.70 0.2086
750.80 0.2085
750.90 0.2084
751.00 0.2083
751.10 0.2082
751.20 0.2081
751.30 0.208
751.40 0.2079
751.50 0.2078
751.60 0.2077
751.70 0.2076
751.80 0.2074
751.90 0.2073
752.00 0.2072
752.10 0.2071
752.20 0.207
752.30 0.2069
752.40 0.2068
752.50 0.2067
752.60 0.2066
752.70 0.2065
752.80 0.2064
752.90 0.2063
753.00 0.2062
753.10 0.2061
753.20 0.206
753.30 0.2059
753.40 0.2057
753.50 0.2056
753.60 0.2055
753.70 0.2054
753.80 0.2053
753.90 0.2052
754.00 0.2051
754.10 0.205
754.20 0.2049
754.30 0.2048
754.40 0.2047
754.50 0.2046
754.60 0.2045
754.70 0.2044
754.80 0.2043
754.90 0.2042
755.00 0.2041
755.10 0.204
755.20 0.2039
755.30 0.2038
755.40 0.2036
755.50 0.2035
755.60 0.2034
755.70 0.2033
755.80 0.2032
755.90 0.2031
756.00 0.203
756.10 0.2029
756.20 0.2028
756.30 0.2027
756.40 0.2026
756.50 0.2025
756.60 0.2024
756.70 0.2023
756.80 0.2022
756.90 0.2021
757.00 0.202
757.10 0.2019
757.20 0.2018
757.30 0.2017
757.40 0.2016
757.50 0.2015
757.60 0.2014
757.70 0.2013
757.80 0.2012
757.90 0.201
758.00 0.2009
758.10 0.2008
758.20 0.2007
758.30 0.2006
758.40 0.2005
758.50 0.2004
758.60 0.2003
758.70 0.2002
758.80 0.2001
758.90 0.2
759.00 0.1999
759.10 0.1998
759.20 0.1997
759.30 0.1996
759.40 0.1995
759.50 0.1994
759.60 0.1993
759.70 0.1992
759.80 0.1991
759.90 0.199
760.00 0.1989
760.10 0.1988
760.20 0.1987
760.30 0.1986
760.40 0.1985
760.50 0.1984
760.60 0.1983
760.70 0.1982
760.80 0.1981
760.90 0.198
761.00 0.1979
761.10 0.1978
761.20 0.1977
761.30 0.1976
761.40 0.1975
761.50 0.1974
761.60 0.1973
761.70 0.1972
761.80 0.1971
761.90 0.197
762.00 0.1969
762.10 0.1968
762.20 0.1967
762.30 0.1966
762.40 0.1965
762.50 0.1964
762.60 0.1963
762.70 0.1962
762.80 0.1961
762.90 0.196
763.00 0.1959
763.10 0.1958
763.20 0.1957
763.30 0.1956
763.40 0.1955
763.50 0.1954
763.60 0.1953
763.70 0.1952
763.80 0.1951
763.90 0.195
764.00 0.1949
764.10 0.1948
764.20 0.1947
764.30 0.1946
764.40 0.1945
764.50 0.1944
764.60 0.1943
764.70 0.1942
764.80 0.1941
764.90 0.194
765.00 0.1939
765.10 0.1938
765.20 0.1937
765.30 0.1936
765.40 0.1935
765.50 0.1934
765.60 0.1933
765.70 0.1932
765.80 0.1931
765.90 0.193
766.00 0.1929
766.10 0.1928
766.20 0.1927
766.30 0.1926
766.40 0.1925
766.50 0.1924
766.60 0.1923
766.70 0.1923
766.80 0.1922
766.90 0.1921
767.00 0.192
767.10 0.1919
767.20 0.1918
767.30 0.1917
767.40 0.1916
767.50 0.1915
767.60 0.1914
767.70 0.1913
767.80 0.1912
767.90 0.1911
768.00 0.191
768.10 0.1909
768.20 0.1908
768.30 0.1907
768.40 0.1906
768.50 0.1905
768.60 0.1904
768.70 0.1903
768.80 0.1902
768.90 0.1901
769.00 0.19
769.10 0.1899
769.20 0.1898
769.30 0.1897
769.40 0.1896
769.50 0.1895
769.60 0.1894
769.70 0.1893
769.80 0.1892
769.90 0.1892
770.00 0.1891
770.10 0.189
770.20 0.1889
770.30 0.1888
770.40 0.1887
770.50 0.1886
770.60 0.1885
770.70 0.1884
770.80 0.1883
770.90 0.1882
771.00 0.1881
771.10 0.188
771.20 0.1879
771.30 0.1878
771.40 0.1877
771.50 0.1876
771.60 0.1876
771.70 0.1875
771.80 0.1874
771.90 0.1873
772.00 0.1872
772.10 0.1871
772.20 0.187
772.30 0.1869
772.40 0.1868
772.50 0.1867
772.60 0.1866
772.70 0.1865
772.80 0.1864
772.90 0.1863
773.00 0.1862
773.10 0.1862
773.20 0.1861
773.30 0.186
773.40 0.1859
773.50 0.1858
773.60 0.1857
773.70 0.1856
773.80 0.1855
773.90 0.1854
774.00 0.1853
774.10 0.1852
774.20 0.1851
774.30 0.185
774.40 0.1849
774.50 0.1849
774.60 0.1848
774.70 0.1847
774.80 0.1846
774.90 0.1845
775.00 0.1844
775.10 0.1843
775.20 0.1842
775.30 0.1841
775.40 0.184
775.50 0.1839
775.60 0.1838
775.70 0.1837
775.80 0.1837
775.90 0.1836
776.00 0.1835
776.10 0.1834
776.20 0.1833
776.30 0.1832
776.40 0.1831
776.50 0.183
776.60 0.1829
776.70 0.1828
776.80 0.1827
776.90 0.1826
777.00 0.1826
777.10 0.1825
777.20 0.1824
777.30 0.1823
777.40 0.1822
777.50 0.1821
777.60 0.182
777.70 0.1819
777.80 0.1818
777.90 0.1817
778.00 0.1816
778.10 0.1815
778.20 0.1815
778.30 0.1814
778.40 0.1813
778.50 0.1812
778.60 0.1811
778.70 0.181
778.80 0.1809
778.90 0.1808
779.00 0.1807
779.10 0.1806
779.20 0.1806
779.30 0.1805
779.40 0.1804
779.50 0.1803
779.60 0.1802
779.70 0.1801
779.80 0.18
779.90 0.1799
780.00 0.1798
780.10 0.1797
780.20 0.1797
780.30 0.1796
780.40 0.1795
780.50 0.1794
780.60 0.1793
780.70 0.1792
780.80 0.1791
780.90 0.179
781.00 0.1789
781.10 0.1789
781.20 0.1788
781.30 0.1787
781.40 0.1786
781.50 0.1785
781.60 0.1784
781.70 0.1783
781.80 0.1782
781.90 0.1782
782.00 0.1781
782.10 0.178
782.20 0.1779
782.30 0.1778
782.40 0.1777
782.50 0.1776
782.60 0.1775
782.70 0.1774
782.80 0.1774
782.90 0.1773
783.00 0.1772
783.10 0.1771
783.20 0.177
783.30 0.1769
783.40 0.1768
783.50 0.1767
783.60 0.1767
783.70 0.1766
783.80 0.1765
783.90 0.1764
784.00 0.1763
784.10 0.1762
784.20 0.1761
784.30 0.1761
784.40 0.176
784.50 0.1759
784.60 0.1758
784.70 0.1757
784.80 0.1756
784.90 0.1755
785.00 0.1754
785.10 0.1754
785.20 0.1753
785.30 0.1752
785.40 0.1751
785.50 0.175
785.60 0.1749
785.70 0.1748
785.80 0.1748
785.90 0.1747
786.00 0.1746
786.10 0.1745
786.20 0.1744
786.30 0.1743
786.40 0.1742
786.50 0.1741
786.60 0.1741
786.70 0.174
786.80 0.1739
786.90 0.1738
787.00 0.1737
787.10 0.1736
787.20 0.1735
787.30 0.1735
787.40 0.1734
787.50 0.1733
787.60 0.1732
787.70 0.1731
787.80 0.173
787.90 0.1729
788.00 0.1729
788.10 0.1728
788.20 0.1727
788.30 0.1726
788.40 0.1725
788.50 0.1724
788.60 0.1723
788.70 0.1723
788.80 0.1722
788.90 0.1721
789.00 0.172
789.10 0.1719
789.20 0.1718
789.30 0.1718
789.40 0.1717
789.50 0.1716
789.60 0.1715
789.70 0.1714
789.80 0.1713
789.90 0.1712
790.00 0.1712
790.10 0.1711
790.20 0.171
790.30 0.1709
790.40 0.1708
790.50 0.1707
790.60 0.1707
790.70 0.1706
790.80 0.1705
790.90 0.1704
791.00 0.1703
791.10 0.1702
791.20 0.1702
791.30 0.1701
791.40 0.17
791.50 0.1699
791.60 0.1698
791.70 0.1697
791.80 0.1697
791.90 0.1696
792.00 0.1695
792.10 0.1694
792.20 0.1693
792.30 0.1692
792.40 0.1692
792.50 0.1691
792.60 0.169
792.70 0.1689
792.80 0.1688
792.90 0.1688
793.00 0.1687
793.10 0.1686
793.20 0.1685
793.30 0.1684
793.40 0.1683
793.50 0.1683
793.60 0.1682
793.70 0.1681
793.80 0.168
793.90 0.1679
794.00 0.1679
794.10 0.1678
794.20 0.1677
794.30 0.1676
794.40 0.1675
794.50 0.1674
794.60 0.1674
794.70 0.1673
794.80 0.1672
794.90 0.1671
795.00 0.167
795.10 0.167
795.20 0.1669
795.30 0.1668
795.40 0.1667
795.50 0.1666
795.60 0.1665
795.70 0.1665
795.80 0.1664
795.90 0.1663
796.00 0.1662
796.10 0.1661
796.20 0.1661
796.30 0.166
796.40 0.1659
796.50 0.1658
796.60 0.1657
796.70 0.1657
796.80 0.1656
796.90 0.1655
797.00 0.1654
797.10 0.1653
797.20 0.1652
797.30 0.1652
797.40 0.1651
797.50 0.165
797.60 0.1649
797.70 0.1648
797.80 0.1648
797.90 0.1647
798.00 0.1646
798.10 0.1645
798.20 0.1644
798.30 0.1644
798.40 0.1643
798.50 0.1642
798.60 0.1641
798.70 0.164
798.80 0.164
798.90 0.1639
799.00 0.1638
799.10 0.1637
799.20 0.1636
799.30 0.1636
799.40 0.1635
799.50 0.1634
799.60 0.1633
799.70 0.1632
799.80 0.1632
799.90 0.1631
800.00 0.163
800.10 0.1629
800.20 0.1628
800.30 0.1628
800.40 0.1627
800.50 0.1626
800.60 0.1625
800.70 0.1625
800.80 0.1624
800.90 0.1623
801.00 0.1622
801.10 0.1621
801.20 0.1621
801.30 0.162
801.40 0.1619
801.50 0.1618
801.60 0.1618
801.70 0.1617
801.80 0.1616
801.90 0.1615
802.00 0.1614
802.10 0.1614
802.20 0.1613
802.30 0.1612
802.40 0.1611
802.50 0.1611
802.60 0.161
802.70 0.1609
802.80 0.1608
802.90 0.1607
803.00 0.1607
803.10 0.1606
803.20 0.1605
803.30 0.1604
803.40 0.1604
803.50 0.1603
803.60 0.1602
803.70 0.1601
803.80 0.16
803.90 0.16
804.00 0.1599
804.10 0.1598
804.20 0.1597
804.30 0.1597
804.40 0.1596
804.50 0.1595
804.60 0.1594
804.70 0.1594
804.80 0.1593
804.90 0.1592
805.00 0.1591
805.10 0.159
805.20 0.159
805.30 0.1589
805.40 0.1588
805.50 0.1587
805.60 0.1587
805.70 0.1586
805.80 0.1585
805.90 0.1584
806.00 0.1584
806.10 0.1583
806.20 0.1582
806.30 0.1581
806.40 0.1581
806.50 0.158
806.60 0.1579
806.70 0.1578
806.80 0.1577
806.90 0.1577
807.00 0.1576
807.10 0.1575
807.20 0.1574
807.30 0.1574
807.40 0.1573
807.50 0.1572
807.60 0.1571
807.70 0.1571
807.80 0.157
807.90 0.1569
808.00 0.1568
808.10 0.1568
808.20 0.1567
808.30 0.1566
808.40 0.1565
808.50 0.1565
808.60 0.1564
808.70 0.1563
808.80 0.1562
808.90 0.1562
809.00 0.1561
809.10 0.156
809.20 0.1559
809.30 0.1559
809.40 0.1558
809.50 0.1557
809.60 0.1556
809.70 0.1556
809.80 0.1555
809.90 0.1554
810.00 0.1553
810.10 0.1553
810.20 0.1552
810.30 0.1551
810.40 0.155
810.50 0.155
810.60 0.1549
810.70 0.1548
810.80 0.1547
810.90 0.1547
811.00 0.1546
811.10 0.1545
811.20 0.1544
811.30 0.1544
811.40 0.1543
811.50 0.1542
811.60 0.1542
811.70 0.1541
811.80 0.154
811.90 0.1539
812.00 0.1539
812.10 0.1538
812.20 0.1537
812.30 0.1536
812.40 0.1536
812.50 0.1535
812.60 0.1534
812.70 0.1533
812.80 0.1533
812.90 0.1532
813.00 0.1531
813.10 0.1531
813.20 0.153
813.30 0.1529
813.40 0.1528
813.50 0.1528
813.60 0.1527
813.70 0.1526
813.80 0.1525
813.90 0.1525
814.00 0.1524
814.10 0.1523
814.20 0.1523
814.30 0.1522
814.40 0.1521
814.50 0.152
814.60 0.152
814.70 0.1519
814.80 0.1518
814.90 0.1517
815.00 0.1517
815.10 0.1516
815.20 0.1515
815.30 0.1515
815.40 0.1514
815.50 0.1513
815.60 0.1512
815.70 0.1512
815.80 0.1511
815.90 0.151
816.00 0.151
816.10 0.1509
816.20 0.1508
816.30 0.1507
816.40 0.1507
816.50 0.1506
816.60 0.1505
816.70 0.1505
816.80 0.1504
816.90 0.1503
817.00 0.1502
817.10 0.1502
817.20 0.1501
817.30 0.15
817.40 0.15
817.50 0.1499
817.60 0.1498
817.70 0.1497
817.80 0.1497
817.90 0.1496
818.00 0.1495
818.10 0.1495
818.20 0.1494
818.30 0.1493
818.40 0.1492
818.50 0.1492
818.60 0.1491
818.70 0.149
818.80 0.149
818.90 0.1489
819.00 0.1488
819.10 0.1487
819.20 0.1487
819.30 0.1486
819.40 0.1485
819.50 0.1485
819.60 0.1484
819.70 0.1483
819.80 0.1482
819.90 0.1482
820.00 0.1481
820.10 0.148
820.20 0.148
820.30 0.1479
820.40 0.1478
820.50 0.1478
820.60 0.1477
820.70 0.1476
820.80 0.1475
820.90 0.1475
821.00 0.1474
821.10 0.1473
821.20 0.1473
821.30 0.1472
821.40 0.1471
821.50 0.1471
821.60 0.147
821.70 0.1469
821.80 0.1468
821.90 0.1468
822.00 0.1467
822.10 0.1466
822.20 0.1466
822.30 0.1465
822.40 0.1464
822.50 0.1464
822.60 0.1463
822.70 0.1462
822.80 0.1462
822.90 0.1461
823.00 0.146
823.10 0.146
823.20 0.1459
823.30 0.1458
823.40 0.1457
823.50 0.1457
823.60 0.1456
823.70 0.1455
823.80 0.1455
823.90 0.1454
824.00 0.1453
824.10 0.1453
824.20 0.1452
824.30 0.1451
824.40 0.1451
824.50 0.145
824.60 0.1449
824.70 0.1449
824.80 0.1448
824.90 0.1447
825.00 0.1447
825.10 0.1446
825.20 0.1445
825.30 0.1444
825.40 0.1444
825.50 0.1443
825.60 0.1442
825.70 0.1442
825.80 0.1441
825.90 0.144
826.00 0.144
826.10 0.1439
826.20 0.1438
826.30 0.1438
826.40 0.1437
826.50 0.1436
826.60 0.1436
826.70 0.1435
826.80 0.1434
826.90 0.1434
827.00 0.1433
827.10 0.1432
827.20 0.1432
827.30 0.1431
827.40 0.143
827.50 0.143
827.60 0.1429
827.70 0.1428
827.80 0.1428
827.90 0.1427
828.00 0.1426
828.10 0.1426
828.20 0.1425
828.30 0.1424
828.40 0.1424
828.50 0.1423
828.60 0.1422
828.70 0.1422
828.80 0.1421
828.90 0.142
829.00 0.142
829.10 0.1419
829.20 0.1418
829.30 0.1418
829.40 0.1417
829.50 0.1416
829.60 0.1416
829.70 0.1415
829.80 0.1414
829.90 0.1414
830.00 0.1413
830.10 0.1412
830.20 0.1412
830.30 0.1411
830.40 0.141
830.50 0.141
830.60 0.1409
830.70 0.1408
830.80 0.1408
830.90 0.1407
831.00 0.1406
831.10 0.1406
831.20 0.1405
831.30 0.1404
831.40 0.1404
831.50 0.1403
831.60 0.1402
831.70 0.1402
831.80 0.1401
831.90 0.14
832.00 0.14
832.10 0.1399
832.20 0.1398
832.30 0.1398
832.40 0.1397
832.50 0.1397
832.60 0.1396
832.70 0.1395
832.80 0.1395
832.90 0.1394
833.00 0.1393
833.10 0.1393
833.20 0.1392
833.30 0.1391
833.40 0.1391
833.50 0.139
833.60 0.1389
833.70 0.1389
833.80 0.1388
833.90 0.1387
834.00 0.1387
834.10 0.1386
834.20 0.1385
834.30 0.1385
834.40 0.1384
834.50 0.1384
834.60 0.1383
834.70 0.1382
834.80 0.1382
834.90 0.1381
835.00 0.138
835.10 0.138
835.20 0.1379
835.30 0.1378
835.40 0.1378
835.50 0.1377
835.60 0.1376
835.70 0.1376
835.80 0.1375
835.90 0.1375
836.00 0.1374
836.10 0.1373
836.20 0.1373
836.30 0.1372
836.40 0.1371
836.50 0.1371
836.60 0.137
836.70 0.1369
836.80 0.1369
836.90 0.1368
837.00 0.1367
837.10 0.1367
837.20 0.1366
837.30 0.1366
837.40 0.1365
837.50 0.1364
837.60 0.1364
837.70 0.1363
837.80 0.1362
837.90 0.1362
838.00 0.1361
838.10 0.1361
838.20 0.136
838.30 0.1359
838.40 0.1359
838.50 0.1358
838.60 0.1357
838.70 0.1357
838.80 0.1356
838.90 0.1356
839.00 0.1355
839.10 0.1354
839.20 0.1354
839.30 0.1353
839.40 0.1352
839.50 0.1352
839.60 0.1351
839.70 0.135
839.80 0.135
839.90 0.1349
840.00 0.1349
840.10 0.1348
840.20 0.1347
840.30 0.1347
840.40 0.1346
840.50 0.1345
840.60 0.1345
840.70 0.1344
840.80 0.1344
840.90 0.1343
841.00 0.1342
841.10 0.1342
841.20 0.1341
841.30 0.1341
841.40 0.134
841.50 0.1339
841.60 0.1339
841.70 0.1338
841.80 0.1337
841.90 0.1337
842.00 0.1336
842.10 0.1336
842.20 0.1335
842.30 0.1334
842.40 0.1334
842.50 0.1333
842.60 0.1332
842.70 0.1332
842.80 0.1331
842.90 0.1331
843.00 0.133
843.10 0.1329
843.20 0.1329
843.30 0.1328
843.40 0.1328
843.50 0.1327
843.60 0.1326
843.70 0.1326
843.80 0.1325
843.90 0.1325
844.00 0.1324
844.10 0.1323
844.20 0.1323
844.30 0.1322
844.40 0.1321
844.50 0.1321
844.60 0.132
844.70 0.132
844.80 0.1319
844.90 0.1318
845.00 0.1318
845.10 0.1317
845.20 0.1317
845.30 0.1316
845.40 0.1315
845.50 0.1315
845.60 0.1314
845.70 0.1314
845.80 0.1313
845.90 0.1312
846.00 0.1312
846.10 0.1311
846.20 0.1311
846.30 0.131
846.40 0.1309
846.50 0.1309
846.60 0.1308
846.70 0.1308
846.80 0.1307
846.90 0.1306
847.00 0.1306
847.10 0.1305
847.20 0.1305
847.30 0.1304
847.40 0.1303
847.50 0.1303
847.60 0.1302
847.70 0.1302
847.80 0.1301
847.90 0.13
848.00 0.13
848.10 0.1299
848.20 0.1299
848.30 0.1298
848.40 0.1297
848.50 0.1297
848.60 0.1296
848.70 0.1296
848.80 0.1295
848.90 0.1294
849.00 0.1294
849.10 0.1293
849.20 0.1293
849.30 0.1292
849.40 0.1291
849.50 0.1291
849.60 0.129
849.70 0.129
849.80 0.1289
849.90 0.1288
850.00 0.1288
850.10 0.1287
850.20 0.1287
850.30 0.1286
850.40 0.1286
850.50 0.1285
850.60 0.1284
850.70 0.1284
850.80 0.1283
850.90 0.1283
851.00 0.1282
851.10 0.1281
851.20 0.1281
851.30 0.128
851.40 0.128
851.50 0.1279
851.60 0.1278
851.70 0.1278
851.80 0.1277
851.90 0.1277
852.00 0.1276
852.10 0.1276
852.20 0.1275
852.30 0.1274
852.40 0.1274
852.50 0.1273
852.60 0.1273
852.70 0.1272
852.80 0.1271
852.90 0.1271
853.00 0.127
853.10 0.127
853.20 0.1269
853.30 0.1269
853.40 0.1268
853.50 0.1267
853.60 0.1267
853.70 0.1266
853.80 0.1266
853.90 0.1265
854.00 0.1265
854.10 0.1264
854.20 0.1263
854.30 0.1263
854.40 0.1262
854.50 0.1262
854.60 0.1261
854.70 0.1261
854.80 0.126
854.90 0.1259
855.00 0.1259
855.10 0.1258
855.20 0.1258
855.30 0.1257
855.40 0.1257
855.50 0.1256
855.60 0.1255
855.70 0.1255
855.80 0.1254
855.90 0.1254
856.00 0.1253
856.10 0.1253
856.20 0.1252
856.30 0.1251
856.40 0.1251
856.50 0.125
856.60 0.125
856.70 0.1249
856.80 0.1249
856.90 0.1248
857.00 0.1247
857.10 0.1247
857.20 0.1246
857.30 0.1246
857.40 0.1245
857.50 0.1245
857.60 0.1244
857.70 0.1243
857.80 0.1243
857.90 0.1242
858.00 0.1242
858.10 0.1241
858.20 0.1241
858.30 0.124
858.40 0.124
858.50 0.1239
858.60 0.1238
858.70 0.1238
858.80 0.1237
858.90 0.1237
859.00 0.1236
859.10 0.1236
859.20 0.1235
859.30 0.1234
859.40 0.1234
859.50 0.1233
859.60 0.1233
859.70 0.1232
859.80 0.1232
859.90 0.1231
860.00 0.1231
860.10 0.123
860.20 0.1229
860.30 0.1229
860.40 0.1228
860.50 0.1228
860.60 0.1227
860.70 0.1227
860.80 0.1226
860.90 0.1226
861.00 0.1225
861.10 0.1224
861.20 0.1224
861.30 0.1223
861.40 0.1223
861.50 0.1222
861.60 0.1222
861.70 0.1221
861.80 0.1221
861.90 0.122
862.00 0.1219
862.10 0.1219
862.20 0.1218
862.30 0.1218
862.40 0.1217
862.50 0.1217
862.60 0.1216
862.70 0.1216
862.80 0.1215
862.90 0.1215
863.00 0.1214
863.10 0.1213
863.20 0.1213
863.30 0.1212
863.40 0.1212
863.50 0.1211
863.60 0.1211
863.70 0.121
863.80 0.121
863.90 0.1209
864.00 0.1209
864.10 0.1208
864.20 0.1207
864.30 0.1207
864.40 0.1206
864.50 0.1206
864.60 0.1205
864.70 0.1205
864.80 0.1204
864.90 0.1204
865.00 0.1203
865.10 0.1203
865.20 0.1202
865.30 0.1202
865.40 0.1201
865.50 0.12
865.60 0.12
865.70 0.1199
865.80 0.1199
865.90 0.1198
866.00 0.1198
866.10 0.1197
866.20 0.1197
866.30 0.1196
866.40 0.1196
866.50 0.1195
866.60 0.1195
866.70 0.1194
866.80 0.1193
866.90 0.1193
867.00 0.1192
867.10 0.1192
867.20 0.1191
867.30 0.1191
867.40 0.119
867.50 0.119
867.60 0.1189
867.70 0.1189
867.80 0.1188
867.90 0.1188
868.00 0.1187
868.10 0.1187
868.20 0.1186
868.30 0.1185
868.40 0.1185
868.50 0.1184
868.60 0.1184
868.70 0.1183
868.80 0.1183
868.90 0.1182
869.00 0.1182
869.10 0.1181
869.20 0.1181
869.30 0.118
869.40 0.118
869.50 0.1179
869.60 0.1179
869.70 0.1178
869.80 0.1178
869.90 0.1177
870.00 0.1176
870.10 0.1176
870.20 0.1175
870.30 0.1175
870.40 0.1174
870.50 0.1174
870.60 0.1173
870.70 0.1173
870.80 0.1172
870.90 0.1172
871.00 0.1171
871.10 0.1171
871.20 0.117
871.30 0.117
871.40 0.1169
871.50 0.1169
871.60 0.1168
871.70 0.1168
871.80 0.1167
871.90 0.1167
872.00 0.1166
872.10 0.1165
872.20 0.1165
872.30 0.1164
872.40 0.1164
872.50 0.1163
872.60 0.1163
872.70 0.1162
872.80 0.1162
872.90 0.1161
873.00 0.1161
873.10 0.116
873.20 0.116
873.30 0.1159
873.40 0.1159
873.50 0.1158
873.60 0.1158
873.70 0.1157
873.80 0.1157
873.90 0.1156
874.00 0.1156
874.10 0.1155
874.20 0.1155
874.30 0.1154
874.40 0.1154
874.50 0.1153
874.60 0.1153
874.70 0.1152
874.80 0.1152
874.90 0.1151
875.00 0.1151
875.10 0.115
875.20 0.115
875.30 0.1149
875.40 0.1149
875.50 0.1148
875.60 0.1148
875.70 0.1147
875.80 0.1147
875.90 0.1146
876.00 0.1145
876.10 0.1145
876.20 0.1144
876.30 0.1144
876.40 0.1143
876.50 0.1143
876.60 0.1142
876.70 0.1142
876.80 0.1141
876.90 0.1141
877.00 0.114
877.10 0.114
877.20 0.1139
877.30 0.1139
877.40 0.1138
877.50 0.1138
877.60 0.1137
877.70 0.1137
877.80 0.1136
877.90 0.1136
878.00 0.1135
878.10 0.1135
878.20 0.1134
878.30 0.1134
878.40 0.1133
878.50 0.1133
878.60 0.1132
878.70 0.1132
878.80 0.1131
878.90 0.1131
879.00 0.113
879.10 0.113
879.20 0.1129
879.30 0.1129
879.40 0.1128
879.50 0.1128
879.60 0.1127
879.70 0.1127
879.80 0.1126
879.90 0.1126
880.00 0.1125
880.10 0.1125
880.20 0.1124
880.30 0.1124
880.40 0.1123
880.50 0.1123
880.60 0.1122
880.70 0.1122
880.80 0.1121
880.90 0.1121
881.00 0.112
881.10 0.112
881.20 0.1119
881.30 0.1119
881.40 0.1118
881.50 0.1118
881.60 0.1117
881.70 0.1117
881.80 0.1116
881.90 0.1116
882.00 0.1116
882.10 0.1115
882.20 0.1115
882.30 0.1114
882.40 0.1114
882.50 0.1113
882.60 0.1113
882.70 0.1112
882.80 0.1112
882.90 0.1111
883.00 0.1111
883.10 0.111
883.20 0.111
883.30 0.1109
883.40 0.1109
883.50 0.1108
883.60 0.1108
883.70 0.1107
883.80 0.1107
883.90 0.1106
884.00 0.1106
884.10 0.1105
884.20 0.1105
884.30 0.1104
884.40 0.1104
884.50 0.1103
884.60 0.1103
884.70 0.1102
884.80 0.1102
884.90 0.1101
885.00 0.1101
885.10 0.1101
885.20 0.11
885.30 0.11
885.40 0.1099
885.50 0.1099
885.60 0.1098
885.70 0.1098
885.80 0.1097
885.90 0.1097
886.00 0.1096
886.10 0.1096
886.20 0.1095
886.30 0.1095
886.40 0.1094
886.50 0.1094
886.60 0.1093
886.70 0.1093
886.80 0.1092
886.90 0.1092
887.00 0.1091
887.10 0.1091
887.20 0.109
887.30 0.109
887.40 0.109
887.50 0.1089
887.60 0.1089
887.70 0.1088
887.80 0.1088
887.90 0.1087
888.00 0.1087
888.10 0.1086
888.20 0.1086
888.30 0.1085
888.40 0.1085
888.50 0.1084
888.60 0.1084
888.70 0.1083
888.80 0.1083
888.90 0.1082
889.00 0.1082
889.10 0.1081
889.20 0.1081
889.30 0.108
889.40 0.108
889.50 0.108
889.60 0.1079
889.70 0.1079
889.80 0.1078
889.90 0.1078
890.00 0.1077
890.10 0.1077
890.20 0.1076
890.30 0.1076
890.40 0.1075
890.50 0.1075
890.60 0.1074
890.70 0.1074
890.80 0.1073
890.90 0.1073
891.00 0.1072
891.10 0.1072
891.20 0.1072
891.30 0.1071
891.40 0.1071
891.50 0.107
891.60 0.107
891.70 0.1069
891.80 0.1069
891.90 0.1068
892.00 0.1068
892.10 0.1067
892.20 0.1067
892.30 0.1066
892.40 0.1066
892.50 0.1065
892.60 0.1065
892.70 0.1065
892.80 0.1064
892.90 0.1064
893.00 0.1063
893.10 0.1063
893.20 0.1062
893.30 0.1062
893.40 0.1061
893.50 0.1061
893.60 0.106
893.70 0.106
893.80 0.1059
893.90 0.1059
894.00 0.1059
894.10 0.1058
894.20 0.1058
894.30 0.1057
894.40 0.1057
894.50 0.1056
894.60 0.1056
894.70 0.1055
894.80 0.1055
894.90 0.1054
895.00 0.1054
895.10 0.1054
895.20 0.1053
895.30 0.1053
895.40 0.1052
895.50 0.1052
895.60 0.1051
895.70 0.1051
895.80 0.105
895.90 0.105
896.00 0.1049
896.10 0.1049
896.20 0.1048
896.30 0.1048
896.40 0.1048
896.50 0.1047
896.60 0.1047
896.70 0.1046
896.80 0.1046
896.90 0.1045
897.00 0.1045
897.10 0.1044
897.20 0.1044
897.30 0.1044
897.40 0.1043
897.50 0.1043
897.60 0.1042
897.70 0.1042
897.80 0.1041
897.90 0.1041
898.00 0.104
898.10 0.104
898.20 0.104
898.30 0.1039
898.40 0.1039
898.50 0.1038
898.60 0.1038
898.70 0.1037
898.80 0.1037
898.90 0.1036
899.00 0.1036
899.10 0.1036
899.20 0.1035
899.30 0.1035
899.40 0.1034
899.50 0.1034
899.60 0.1033
899.70 0.1033
899.80 0.1032
899.90 0.1032
900.00 0.1032
900.10 0.1031
900.20 0.1031
900.30 0.103
900.40 0.103
900.50 0.1029
900.60 0.1029
900.70 0.1028
900.80 0.1028
900.90 0.1028
901.00 0.1027
901.10 0.1027
901.20 0.1026
901.30 0.1026
901.40 0.1025
901.50 0.1025
901.60 0.1025
901.70 0.1024
901.80 0.1024
901.90 0.1023
902.00 0.1023
902.10 0.1022
902.20 0.1022
902.30 0.1021
902.40 0.1021
902.50 0.1021
902.60 0.102
902.70 0.102
902.80 0.1019
902.90 0.1019
903.00 0.1018
903.10 0.1018
903.20 0.1018
903.30 0.1017
903.40 0.1017
903.50 0.1016
903.60 0.1016
903.70 0.1015
903.80 0.1015
903.90 0.1014
904.00 0.1014
904.10 0.1014
904.20 0.1013
904.30 0.1013
904.40 0.1012
904.50 0.1012
904.60 0.1011
904.70 0.1011
904.80 0.1011
904.90 0.101
905.00 0.101
905.10 0.1009
905.20 0.1009
905.30 0.1008
905.40 0.1008
905.50 0.1008
905.60 0.1007
905.70 0.1007
905.80 0.1006
905.90 0.1006
906.00 0.1005
906.10 0.1005
906.20 0.1004
906.30 0.1004
906.40 0.1004
906.50 0.1003
906.60 0.1003
906.70 0.1002
906.80 0.1002
906.90 0.1001
907.00 0.1001
907.10 0.1001
907.20 0.1
907.30 0.09997
907.40 0.09993
907.50 0.09989
907.60 0.09985
907.70 0.0998
907.80 0.09976
907.90 0.09972
908.00 0.09968
908.10 0.09963
908.20 0.09959
908.30 0.09955
908.40 0.09951
908.50 0.09946
908.60 0.09942
908.70 0.09938
908.80 0.09934
908.90 0.09929
909.00 0.09925
909.10 0.09921
909.20 0.09917
909.30 0.09912
909.40 0.09908
909.50 0.09904
909.60 0.099
909.70 0.09896
909.80 0.09891
909.90 0.09887
910.00 0.09883
910.10 0.09879
910.20 0.09874
910.30 0.0987
910.40 0.09866
910.50 0.09862
910.60 0.09858
910.70 0.09853
910.80 0.09849
910.90 0.09845
911.00 0.09841
911.10 0.09837
911.20 0.09832
911.30 0.09828
911.40 0.09824
911.50 0.0982
911.60 0.09816
911.70 0.09811
911.80 0.09807
911.90 0.09803
912.00 0.09799
912.10 0.09795
912.20 0.0979
912.30 0.09786
912.40 0.09782
912.50 0.09778
912.60 0.09773
912.70 0.09769
912.80 0.09765
912.90 0.09761
913.00 0.09757
913.10 0.09752
913.20 0.09748
913.30 0.09744
913.40 0.0974
913.50 0.09736
913.60 0.09731
913.70 0.09727
913.80 0.09723
913.90 0.09719
914.00 0.09715
914.10 0.09711
914.20 0.09706
914.30 0.09702
914.40 0.09698
914.50 0.09694
914.60 0.0969
914.70 0.09685
914.80 0.09681
914.90 0.09677
915.00 0.09673
915.10 0.09669
915.20 0.09665
915.30 0.0966
915.40 0.09656
915.50 0.09652
915.60 0.09648
915.70 0.09644
915.80 0.0964
915.90 0.09635
916.00 0.09631
916.10 0.09627
916.20 0.09623
916.30 0.09619
916.40 0.09615
916.50 0.09611
916.60 0.09606
916.70 0.09602
916.80 0.09598
916.90 0.09594
917.00 0.0959
917.10 0.09586
917.20 0.09582
917.30 0.09578
917.40 0.09574
917.50 0.0957
917.60 0.09566
917.70 0.09562
917.80 0.09557
917.90 0.09553
918.00 0.09549
918.10 0.09545
918.20 0.09541
918.30 0.09537
918.40 0.09533
918.50 0.09529
918.60 0.09525
918.70 0.09521
918.80 0.09517
918.90 0.09513
919.00 0.09509
919.10 0.09505
919.20 0.09501
919.30 0.09497
919.40 0.09493
919.50 0.09489
919.60 0.09485
919.70 0.09481
919.80 0.09477
919.90 0.09473
920.00 0.09469
920.10 0.09465
920.20 0.09461
920.30 0.09457
920.40 0.09453
920.50 0.09449
920.60 0.09445
920.70 0.09441
920.80 0.09437
920.90 0.09433
921.00 0.09429
921.10 0.09425
921.20 0.09421
921.30 0.09417
921.40 0.09413
921.50 0.09409
921.60 0.09405
921.70 0.09401
921.80 0.09397
921.90 0.09393
922.00 0.09389
922.10 0.09385
922.20 0.09381
922.30 0.09377
922.40 0.09374
922.50 0.0937
922.60 0.09366
922.70 0.09362
922.80 0.09358
922.90 0.09354
923.00 0.0935
923.10 0.09346
923.20 0.09342
923.30 0.09338
923.40 0.09335
923.50 0.09331
923.60 0.09327
923.70 0.09323
923.80 0.09319
923.90 0.09315
924.00 0.09311
924.10 0.09307
924.20 0.09303
924.30 0.093
924.40 0.09296
924.50 0.09292
924.60 0.09288
924.70 0.09284
924.80 0.0928
924.90 0.09276
925.00 0.09272
925.10 0.09269
925.20 0.09265
925.30 0.09261
925.40 0.09257
925.50 0.09253
925.60 0.09249
925.70 0.09245
925.80 0.09242
925.90 0.09238
926.00 0.09234
926.10 0.0923
926.20 0.09226
926.30 0.09222
926.40 0.09218
926.50 0.09215
926.60 0.09211
926.70 0.09207
926.80 0.09203
926.90 0.09199
927.00 0.09195
927.10 0.09192
927.20 0.09188
927.30 0.09184
927.40 0.0918
927.50 0.09177
927.60 0.09173
927.70 0.09169
927.80 0.09166
927.90 0.09162
928.00 0.09158
928.10 0.09154
928.20 0.09151
928.30 0.09147
928.40 0.09143
928.50 0.0914
928.60 0.09136
928.70 0.09132
928.80 0.09129
928.90 0.09125
929.00 0.09121
929.10 0.09117
929.20 0.09114
929.30 0.0911
929.40 0.09106
929.50 0.09103
929.60 0.09099
929.70 0.09095
929.80 0.09092
929.90 0.09088
930.00 0.09084
930.10 0.09081
930.20 0.09077
930.30 0.09073
930.40 0.0907
930.50 0.09066
930.60 0.09062
930.70 0.09059
930.80 0.09055
930.90 0.09051
931.00 0.09047
931.10 0.09044
931.20 0.0904
931.30 0.09037
931.40 0.09033
931.50 0.09029
931.60 0.09026
931.70 0.09022
931.80 0.09018
931.90 0.09015
932.00 0.09011
932.10 0.09007
932.20 0.09004
932.30 0.09
932.40 0.08996
932.50 0.08993
932.60 0.08989
932.70 0.08985
932.80 0.08981
932.90 0.08978
933.00 0.08974
933.10 0.0897
933.20 0.08967
933.30 0.08963
933.40 0.08959
933.50 0.08956
933.60 0.08952
933.70 0.08949
933.80 0.08945
933.90 0.08941
934.00 0.08938
934.10 0.08934
934.20 0.0893
934.30 0.08927
934.40 0.08923
934.50 0.08919
934.60 0.08916
934.70 0.08912
934.80 0.08908
934.90 0.08904
935.00 0.08901
935.10 0.08897
935.20 0.08893
935.30 0.0889
935.40 0.08886
935.50 0.08882
935.60 0.08879
935.70 0.08875
935.80 0.08871
935.90 0.08868
936.00 0.08864
936.10 0.0886
936.20 0.08857
936.30 0.08853
936.40 0.08849
936.50 0.08846
936.60 0.08842
936.70 0.08838
936.80 0.08835
936.90 0.08831
937.00 0.08828
937.10 0.08824
937.20 0.0882
937.30 0.08816
937.40 0.08813
937.50 0.08809
937.60 0.08805
937.70 0.08802
937.80 0.08798
937.90 0.08794
938.00 0.08791
938.10 0.08787
938.20 0.08783
938.30 0.0878
938.40 0.08776
938.50 0.08772
938.60 0.08769
938.70 0.08765
938.80 0.08761
938.90 0.08758
939.00 0.08754
939.10 0.0875
939.20 0.08747
939.30 0.08743
939.40 0.08739
939.50 0.08736
939.60 0.08732
939.70 0.08728
939.80 0.08725
939.90 0.08721
940.00 0.08717
940.10 0.08714
940.20 0.0871
940.30 0.08706
940.40 0.08702
940.50 0.08699
940.60 0.08695
940.70 0.08691
940.80 0.08688
940.90 0.08684
941.00 0.0868
941.10 0.08677
941.20 0.08673
941.30 0.08669
941.40 0.08666
941.50 0.08662
941.60 0.08658
941.70 0.08654
941.80 0.08651
941.90 0.08647
942.00 0.08643
942.10 0.0864
942.20 0.08636
942.30 0.08632
942.40 0.08629
942.50 0.08625
942.60 0.08621
942.70 0.08617
942.80 0.08614
942.90 0.0861
943.00 0.08606
943.10 0.08603
943.20 0.08599
943.30 0.08595
943.40 0.08592
943.50 0.08588
943.60 0.08584
943.70 0.0858
943.80 0.08577
943.90 0.08573
944.00 0.08569
944.10 0.08566
944.20 0.08562
944.30 0.08558
944.40 0.08555
944.50 0.08551
944.60 0.08547
944.70 0.08543
944.80 0.0854
944.90 0.08536
945.00 0.08532
945.10 0.08528
945.20 0.08525
945.30 0.08521
945.40 0.08517
945.50 0.08514
945.60 0.0851
945.70 0.08506
945.80 0.08502
945.90 0.08499
946.00 0.08495
946.10 0.08491
946.20 0.08487
946.30 0.08484
946.40 0.0848
946.50 0.08476
946.60 0.08473
946.70 0.08469
946.80 0.08465
946.90 0.08461
947.00 0.08458
947.10 0.08454
947.20 0.0845
947.30 0.08446
947.40 0.08443
947.50 0.08439
947.60 0.08435
947.70 0.08431
947.80 0.08428
947.90 0.08424
948.00 0.0842
948.10 0.08417
948.20 0.08413
948.30 0.08409
948.40 0.08405
948.50 0.08402
948.60 0.08398
948.70 0.08394
948.80 0.0839
948.90 0.08387
949.00 0.08383
949.10 0.08379
949.20 0.08376
949.30 0.08372
949.40 0.08368
949.50 0.08364
949.60 0.08361
949.70 0.08357
949.80 0.08353
949.90 0.0835
950.00 0.08346
950.10 0.08342
950.20 0.08339
950.30 0.08335
950.40 0.08331
950.50 0.08328
950.60 0.08324
950.70 0.0832
950.80 0.08317
950.90 0.08313
951.00 0.08309
951.10 0.08306
951.20 0.08302
951.30 0.08298
951.40 0.08295
951.50 0.08291
951.60 0.08287
951.70 0.08284
951.80 0.0828
951.90 0.08277
952.00 0.08273
952.10 0.0827
952.20 0.08266
952.30 0.08263
952.40 0.08259
952.50 0.08256
952.60 0.08252
952.70 0.08249
952.80 0.08245
952.90 0.08242
953.00 0.08239
953.10 0.08235
953.20 0.08232
953.30 0.08229
953.40 0.08225
953.50 0.08222
953.60 0.08219
953.70 0.08216
953.80 0.08213
953.90 0.0821
954.00 0.08207
954.10 0.08204
954.20 0.08201
954.30 0.08198
954.40 0.08196
954.50 0.08193
954.60 0.0819
954.70 0.08186
954.80 0.08182
954.90 0.08178
955.00 0.08175
955.10 0.08171
955.20 0.08167
955.30 0.08164
955.40 0.0816
955.50 0.08157
955.60 0.08153
955.70 0.08149
955.80 0.08146
955.90 0.08143
956.00 0.08139
956.10 0.08136
956.20 0.08133
956.30 0.0813
956.40 0.08126
956.50 0.08123
956.60 0.0812
956.70 0.08117
956.80 0.08114
956.90 0.0811
957.00 0.08107
957.10 0.08104
957.20 0.08101
957.30 0.08098
957.40 0.08095
957.50 0.08092
957.60 0.08089
957.70 0.08086
957.80 0.08083
957.90 0.0808
958.00 0.08077
958.10 0.08074
958.20 0.08071
958.30 0.08068
958.40 0.08065
958.50 0.08062
958.60 0.08059
958.70 0.08056
958.80 0.08053
958.90 0.0805
959.00 0.08047
959.10 0.08044
959.20 0.08041
959.30 0.08038
959.40 0.08035
959.50 0.08032
959.60 0.08029
959.70 0.08026
959.80 0.08024
959.90 0.08021
960.00 0.08018
960.10 0.08015
960.20 0.08012
960.30 0.08009
960.40 0.08006
960.50 0.08003
960.60 0.08
960.70 0.07997
960.80 0.07994
960.90 0.07991
961.00 0.07988
961.10 0.07985
961.20 0.07983
961.30 0.0798
961.40 0.07977
961.50 0.07974
961.60 0.07971
961.70 0.07968
961.80 0.07965
961.90 0.07962
962.00 0.07959
962.10 0.07956
962.20 0.07953
962.30 0.0795
962.40 0.07947
962.50 0.07944
962.60 0.07941
962.70 0.07939
962.80 0.07936
962.90 0.07933
963.00 0.0793
963.10 0.07927
963.20 0.07924
963.30 0.07921
963.40 0.07918
963.50 0.07915
963.60 0.07912
963.70 0.07909
963.80 0.07906
963.90 0.07903
964.00 0.079
964.10 0.07897
964.20 0.07894
964.30 0.07891
964.40 0.07889
964.50 0.07886
964.60 0.07883
964.70 0.0788
964.80 0.07877
964.90 0.07874
965.00 0.07871
965.10 0.07868
965.20 0.07865
965.30 0.07862
965.40 0.07859
965.50 0.07856
965.60 0.07853
965.70 0.0785
965.80 0.07847
965.90 0.07844
966.00 0.07841
966.10 0.07838
966.20 0.07835
966.30 0.07832
966.40 0.07829
966.50 0.07826
966.60 0.07823
966.70 0.0782
966.80 0.07817
966.90 0.07814
967.00 0.07811
967.10 0.07808
967.20 0.07805
967.30 0.07802
967.40 0.07799
967.50 0.07796
967.60 0.07793
967.70 0.07791
967.80 0.07788
967.90 0.07785
968.00 0.07782
968.10 0.07779
968.20 0.07776
968.30 0.07773
968.40 0.0777
968.50 0.07767
968.60 0.07764
968.70 0.07761
968.80 0.07758
968.90 0.07755
969.00 0.07752
969.10 0.07749
969.20 0.07746
969.30 0.07743
969.40 0.0774
969.50 0.07737
969.60 0.07734
969.70 0.07731
969.80 0.07728
969.90 0.07725
970.00 0.07722
970.10 0.07719
970.20 0.07716
970.30 0.07713
970.40 0.0771
970.50 0.07707
970.60 0.07704
970.70 0.07701
970.80 0.07698
970.90 0.07695
971.00 0.07692
971.10 0.07689
971.20 0.07686
971.30 0.07683
971.40 0.0768
971.50 0.07677
971.60 0.07674
971.70 0.07671
971.80 0.07668
971.90 0.07665
972.00 0.07662
972.10 0.07659
972.20 0.07656
972.30 0.07653
972.40 0.0765
972.50 0.07647
972.60 0.07644
972.70 0.07641
972.80 0.07638
972.90 0.07635
973.00 0.07632
973.10 0.07629
973.20 0.07626
973.30 0.07623
973.40 0.0762
973.50 0.07617
973.60 0.07614
973.70 0.07611
973.80 0.07608
973.90 0.07605
974.00 0.07602
974.10 0.07599
974.20 0.07596
974.30 0.07593
974.40 0.0759
974.50 0.07587
974.60 0.07584
974.70 0.07581
974.80 0.07578
974.90 0.07575
975.00 0.07572
975.10 0.07569
975.20 0.07566
975.30 0.07563
975.40 0.0756
975.50 0.07557
975.60 0.07554
975.70 0.07551
975.80 0.07548
975.90 0.07545
976.00 0.07542
976.10 0.07539
976.20 0.07537
976.30 0.07534
976.40 0.07531
976.50 0.07528
976.60 0.07525
976.70 0.07522
976.80 0.07519
976.90 0.07516
977.00 0.07513
977.10 0.0751
977.20 0.07507
977.30 0.07504
977.40 0.07501
977.50 0.07498
977.60 0.07495
977.70 0.07492
977.80 0.07489
977.90 0.07486
978.00 0.07483
978.10 0.0748
978.20 0.07477
978.30 0.07474
978.40 0.07471
978.50 0.07468
978.60 0.07465
978.70 0.07462
978.80 0.07459
978.90 0.07456
979.00 0.07453
979.10 0.0745
979.20 0.07447
979.30 0.07444
979.40 0.07441
979.50 0.07438
979.60 0.07435
979.70 0.07432
979.80 0.07429
979.90 0.07426
980.00 0.07423
980.10 0.0742
980.20 0.07417
980.30 0.07415
980.40 0.07412
980.50 0.07409
980.60 0.07406
980.70 0.07403
980.80 0.074
980.90 0.07397
981.00 0.07394
981.10 0.07391
981.20 0.07388
981.30 0.07385
981.40 0.07382
981.50 0.07379
981.60 0.07376
981.70 0.07373
981.80 0.0737
981.90 0.07367
982.00 0.07364
982.10 0.07361
982.20 0.07358
982.30 0.07355
982.40 0.07353
982.50 0.0735
982.60 0.07347
982.70 0.07344
982.80 0.07341
982.90 0.07338
983.00 0.07335
983.10 0.07332
983.20 0.07329
983.30 0.07326
983.40 0.07323
983.50 0.0732
983.60 0.07317
983.70 0.07314
983.80 0.07311
983.90 0.07308
984.00 0.07305
984.10 0.07302
984.20 0.07299
984.30 0.07296
984.40 0.07293
984.50 0.0729
984.60 0.07288
984.70 0.07285
984.80 0.07282
984.90 0.07279
985.00 0.07276
985.10 0.07273
985.20 0.0727
985.30 0.07267
985.40 0.07264
985.50 0.07261
985.60 0.07258
985.70 0.07255
985.80 0.07252
985.90 0.07249
986.00 0.07246
986.10 0.07243
986.20 0.0724
986.30 0.07237
986.40 0.07234
986.50 0.07231
986.60 0.07228
986.70 0.07225
986.80 0.07223
986.90 0.0722
987.00 0.07217
987.10 0.07214
987.20 0.07211
987.30 0.07208
987.40 0.07205
987.50 0.07202
987.60 0.07199
987.70 0.07196
987.80 0.07193
987.90 0.0719
988.00 0.07187
988.10 0.07184
988.20 0.07181
988.30 0.07178
988.40 0.07175
988.50 0.07172
988.60 0.07169
988.70 0.07166
988.80 0.07163
988.90 0.0716
989.00 0.07157
989.10 0.07154
989.20 0.07151
989.30 0.07148
989.40 0.07145
989.50 0.07142
989.60 0.07139
989.70 0.07136
989.80 0.07133
989.90 0.0713
990.00 0.07127
990.10 0.07125
990.20 0.07122
990.30 0.07119
990.40 0.07116
990.50 0.07113
990.60 0.0711
990.70 0.07107
990.80 0.07104
990.90 0.07101
991.00 0.07098
991.10 0.07095
991.20 0.07092
991.30 0.07089
991.40 0.07086
991.50 0.07083
991.60 0.0708
991.70 0.07077
991.80 0.07074
991.90 0.07071
992.00 0.07068
992.10 0.07065
992.20 0.07061
992.30 0.07058
992.40 0.07055
992.50 0.07052
992.60 0.07049
992.70 0.07046
992.80 0.07043
992.90 0.0704
993.00 0.07037
993.10 0.07034
993.20 0.07031
993.30 0.07028
993.40 0.07025
993.50 0.07022
993.60 0.07019
993.70 0.07016
993.80 0.07013
993.90 0.0701
994.00 0.07006
994.10 0.07003
994.20 0.07
994.30 0.06997
994.40 0.06994
994.50 0.06991
994.60 0.06988
994.70 0.06985
994.80 0.06982
994.90 0.06979
995.00 0.06976
995.10 0.06973
995.20 0.06969
995.30 0.06966
995.40 0.06963
995.50 0.0696
995.60 0.06957
995.70 0.06954
995.80 0.06951
995.90 0.06947
996.00 0.06944
996.10 0.06941
996.20 0.06938
996.30 0.06935
996.40 0.06932
996.50 0.06928
996.60 0.06925
996.70 0.06922
996.80 0.06919
996.90 0.06916
997.00 0.06913
997.10 0.06909
997.20 0.06906
997.30 0.06903
997.40 0.069
997.50 0.06897
997.60 0.06893
997.70 0.0689
997.80 0.06887
997.90 0.06884
998.00 0.0688
998.10 0.06877
998.20 0.06874
998.30 0.06871
998.40 0.06867
998.50 0.06864
998.60 0.06861
998.70 0.06857
998.80 0.06854
998.90 0.06851
999.00 0.06848
999.10 0.06844
999.20 0.06841
999.30 0.06838
999.40 0.06835
999.50 0.06831
999.60 0.06828
999.70 0.06825
999.80 0.06821
999.90 0.06818
1000.00 0.06814
1000.10 0.06811
1000.20 0.06808
1000.30 0.06804
1000.40 0.06801
1000.50 0.06797
1000.60 0.06794
1000.70 0.06791
1000.80 0.06787
1000.90 0.06784
1001.00 0.0678
1001.10 0.06777
1001.20 0.06774
1001.30 0.0677
1001.40 0.06767
1001.50 0.06763
1001.60 0.0676
1001.70 0.06757
1001.80 0.06754
1001.90 0.0675
1002.00 0.06747
1002.10 0.06744
1002.20 0.06741
1002.30 0.06738
1002.40 0.06735
1002.50 0.06732
1002.60 0.06729
1002.70 0.06726
1002.80 0.06723
1002.90 0.0672
1003.00 0.06717
1003.10 0.06714
1003.20 0.06711
1003.30 0.06709
1003.40 0.06707
1003.50 0.06704
1003.60 0.06702
1003.70 0.067
1003.80 0.06697
1003.90 0.06696
1004.00 0.06694
1004.10 0.06693
1004.20 0.06691
1004.30 0.0669
1004.40 0.06689
1004.50 0.06689
1004.60 0.06688
1004.70 0.06688
1004.80 0.06686
1004.90 0.06684
1005.00 0.06681
1005.10 0.06678
1005.20 0.06673
1005.30 0.06669
1005.40 0.06665
1005.50 0.06661
1005.60 0.06657
1005.70 0.06653
1005.80 0.0665
1005.90 0.06646
1006.00 0.06642
1006.10 0.06638
1006.20 0.06635
1006.30 0.06633
1006.40 0.0663
1006.50 0.06628
1006.60 0.06625
1006.70 0.06622
1006.80 0.0662
1006.90 0.06617
1007.00 0.06615
1007.10 0.06613
1007.20 0.0661
1007.30 0.06608
1007.40 0.06606
1007.50 0.06604
1007.60 0.06602
1007.70 0.066
1007.80 0.06598
1007.90 0.06596
1008.00 0.06594
1008.10 0.06592
1008.20 0.0659
1008.30 0.06589
1008.40 0.06587
1008.50 0.06585
1008.60 0.06583
1008.70 0.06581
1008.80 0.06579
1008.90 0.06577
1009.00 0.06575
1009.10 0.06573
1009.20 0.06571
1009.30 0.0657
1009.40 0.06568
1009.50 0.06566
1009.60 0.06564
1009.70 0.06562
1009.80 0.0656
1009.90 0.06558
1010.00 0.06556
1010.10 0.06554
1010.20 0.06552
1010.30 0.0655
1010.40 0.06548
1010.50 0.06547
1010.60 0.06545
1010.70 0.06543
1010.80 0.06541
1010.90 0.06539
1011.00 0.06537
1011.10 0.06535
1011.20 0.06533
1011.30 0.06531
1011.40 0.06529
1011.50 0.06527
1011.60 0.06525
1011.70 0.06523
1011.80 0.06522
1011.90 0.0652
1012.00 0.06518
1012.10 0.06516
1012.20 0.06513
1012.30 0.06511
1012.40 0.06509
1012.50 0.06507
1012.60 0.06505
1012.70 0.06503
1012.80 0.06501
1012.90 0.06499
1013.00 0.06497
1013.10 0.06495
1013.20 0.06493
1013.30 0.06491
1013.40 0.06489
1013.50 0.06487
1013.60 0.06485
1013.70 0.06483
1013.80 0.06481
1013.90 0.06479
1014.00 0.06477
1014.10 0.06474
1014.20 0.06472
1014.30 0.0647
1014.40 0.06468
1014.50 0.06466
1014.60 0.06464
1014.70 0.06462
1014.80 0.0646
1014.90 0.06457
1015.00 0.06455
1015.10 0.06453
1015.20 0.06451
1015.30 0.06449
1015.40 0.06447
1015.50 0.06444
1015.60 0.06442
1015.70 0.0644
1015.80 0.06438
1015.90 0.06436
1016.00 0.06434
1016.10 0.06431
1016.20 0.06429
1016.30 0.06427
1016.40 0.06425
1016.50 0.06423
1016.60 0.06421
1016.70 0.06418
1016.80 0.06416
1016.90 0.06414
1017.00 0.06412
1017.10 0.0641
1017.20 0.06407
1017.30 0.06405
1017.40 0.06403
1017.50 0.06401
1017.60 0.06398
1017.70 0.06396
1017.80 0.06394
1017.90 0.06392
1018.00 0.0639
1018.10 0.06387
1018.20 0.06385
1018.30 0.06383
1018.40 0.06381
1018.50 0.06378
1018.60 0.06376
1018.70 0.06374
1018.80 0.06372
1018.90 0.06369
1019.00 0.06367
1019.10 0.06365
1019.20 0.06363
1019.30 0.0636
1019.40 0.06358
1019.50 0.06356
1019.60 0.06354
1019.70 0.06351
1019.80 0.06349
1019.90 0.06347
1020.00 0.06344
1020.10 0.06342
1020.20 0.0634
1020.30 0.06338
1020.40 0.06335
1020.50 0.06333
1020.60 0.06331
1020.70 0.06329
1020.80 0.06326
1020.90 0.06324
1021.00 0.06322
1021.10 0.06319
1021.20 0.06317
1021.30 0.06315
1021.40 0.06313
1021.50 0.0631
1021.60 0.06308
1021.70 0.06306
1021.80 0.06303
1021.90 0.06301
1022.00 0.06299
1022.10 0.06297
1022.20 0.06294
1022.30 0.06292
1022.40 0.0629
1022.50 0.06287
1022.60 0.06285
1022.70 0.06283
1022.80 0.06281
1022.90 0.06278
1023.00 0.06276
1023.10 0.06274
1023.20 0.06271
1023.30 0.06269
1023.40 0.06267
1023.50 0.06264
1023.60 0.06262
1023.70 0.0626
1023.80 0.06258
1023.90 0.06255
1024.00 0.06253
1024.10 0.06251
1024.20 0.06248
1024.30 0.06246
1024.40 0.06244
1024.50 0.06242
1024.60 0.06239
1024.70 0.06237
1024.80 0.06235
1024.90 0.06232
1025.00 0.0623
1025.10 0.06228
1025.20 0.06225
1025.30 0.06223
1025.40 0.06221
1025.50 0.06219
1025.60 0.06216
1025.70 0.06214
1025.80 0.06212
1025.90 0.06209
1026.00 0.06207
1026.10 0.06205
1026.20 0.06202
1026.30 0.062
1026.40 0.06198
1026.50 0.06196
1026.60 0.06193
1026.70 0.06191
1026.80 0.06189
1026.90 0.06186
1027.00 0.06184
1027.10 0.06182
1027.20 0.0618
1027.30 0.06177
1027.40 0.06175
1027.50 0.06173
1027.60 0.0617
1027.70 0.06168
1027.80 0.06166
1027.90 0.06163
1028.00 0.06161
1028.10 0.06159
1028.20 0.06157
1028.30 0.06154
1028.40 0.06152
1028.50 0.0615
1028.60 0.06147
1028.70 0.06145
1028.80 0.06143
1028.90 0.06141
1029.00 0.06138
1029.10 0.06136
1029.20 0.06134
1029.30 0.06131
1029.40 0.06129
1029.50 0.06127
1029.60 0.06125
1029.70 0.06122
1029.80 0.0612
1029.90 0.06118
1030.00 0.06115
1030.10 0.06113
1030.20 0.06111
1030.30 0.06109
1030.40 0.06106
1030.50 0.06104
1030.60 0.06102
1030.70 0.061
1030.80 0.06097
1030.90 0.06095
1031.00 0.06093
1031.10 0.0609
1031.20 0.06088
1031.30 0.06086
1031.40 0.06084
1031.50 0.06081
1031.60 0.06079
1031.70 0.06077
1031.80 0.06075
1031.90 0.06072
1032.00 0.0607
1032.10 0.06068
1032.20 0.06066
1032.30 0.06063
1032.40 0.06061
1032.50 0.06059
1032.60 0.06056
1032.70 0.06054
1032.80 0.06052
1032.90 0.0605
1033.00 0.06047
1033.10 0.06045
1033.20 0.06043
1033.30 0.06041
1033.40 0.06038
1033.50 0.06036
1033.60 0.06034
1033.70 0.06032
1033.80 0.06029
1033.90 0.06027
1034.00 0.06025
1034.10 0.06023
1034.20 0.0602
1034.30 0.06018
1034.40 0.06016
1034.50 0.06014
1034.60 0.06011
1034.70 0.06009
1034.80 0.06007
1034.90 0.06005
1035.00 0.06002
1035.10 0.06
1035.20 0.05998
1035.30 0.05996
1035.40 0.05993
1035.50 0.05991
1035.60 0.05989
1035.70 0.05987
1035.80 0.05984
1035.90 0.05982
1036.00 0.0598
1036.10 0.05978
1036.20 0.05976
1036.30 0.05973
1036.40 0.05971
1036.50 0.05969
1036.60 0.05967
1036.70 0.05964
1036.80 0.05962
1036.90 0.0596
1037.00 0.05958
1037.10 0.05955
1037.20 0.05953
1037.30 0.05951
1037.40 0.05949
1037.50 0.05947
1037.60 0.05944
1037.70 0.05942
1037.80 0.0594
1037.90 0.05938
1038.00 0.05935
1038.10 0.05933
1038.20 0.05931
1038.30 0.05929
1038.40 0.05927
1038.50 0.05924
1038.60 0.05922
1038.70 0.0592
1038.80 0.05918
1038.90 0.05916
1039.00 0.05913
1039.10 0.05911
1039.20 0.05909
1039.30 0.05907
1039.40 0.05905
1039.50 0.05902
1039.60 0.059
1039.70 0.05898
1039.80 0.05896
1039.90 0.05893
1040.00 0.05891
1040.10 0.05889
1040.20 0.05887
1040.30 0.05885
1040.40 0.05882
1040.50 0.0588
1040.60 0.05878
1040.70 0.05876
1040.80 0.05874
1040.90 0.05872
1041.00 0.05869
1041.10 0.05867
1041.20 0.05865
1041.30 0.05863
1041.40 0.05861
1041.50 0.05858
1041.60 0.05856
1041.70 0.05854
1041.80 0.05852
1041.90 0.0585
1042.00 0.05847
1042.10 0.05845
1042.20 0.05843
1042.30 0.05841
1042.40 0.05839
1042.50 0.05837
1042.60 0.05834
1042.70 0.05832
1042.80 0.0583
1042.90 0.05828
1043.00 0.05826
1043.10 0.05823
1043.20 0.05821
1043.30 0.05819
1043.40 0.05817
1043.50 0.05815
1043.60 0.05813
1043.70 0.0581
1043.80 0.05808
1043.90 0.05806
1044.00 0.05804
1044.10 0.05802
1044.20 0.058
1044.30 0.05797
1044.40 0.05795
1044.50 0.05793
1044.60 0.05791
1044.70 0.05789
1044.80 0.05787
1044.90 0.05785
1045.00 0.05782
1045.10 0.0578
1045.20 0.05778
1045.30 0.05776
1045.40 0.05774
1045.50 0.05772
1045.60 0.05769
1045.70 0.05767
1045.80 0.05765
1045.90 0.05763
1046.00 0.05761
1046.10 0.05759
1046.20 0.05757
1046.30 0.05754
1046.40 0.05752
1046.50 0.0575
1046.60 0.05748
1046.70 0.05746
1046.80 0.05744
1046.90 0.05742
1047.00 0.05739
1047.10 0.05737
1047.20 0.05735
1047.30 0.05733
1047.40 0.05731
1047.50 0.05729
1047.60 0.05727
1047.70 0.05724
1047.80 0.05722
1047.90 0.0572
1048.00 0.05718
1048.10 0.05716
1048.20 0.05714
1048.30 0.05712
1048.40 0.0571
1048.50 0.05707
1048.60 0.05705
1048.70 0.05703
1048.80 0.05701
1048.90 0.05699
1049.00 0.05697
1049.10 0.05695
1049.20 0.05693
1049.30 0.05691
1049.40 0.05688
1049.50 0.05686
1049.60 0.05684
1049.70 0.05682
1049.80 0.0568
1049.90 0.05678
1050.00 0.05676
1050.10 0.05674
1050.20 0.05672
1050.30 0.05669
1050.40 0.05667
1050.50 0.05665
1050.60 0.05663
1050.70 0.05661
1050.80 0.05659
1050.90 0.05657
1051.00 0.05655
1051.10 0.05653
1051.20 0.0565
1051.30 0.05648
1051.40 0.05646
1051.50 0.05644
1051.60 0.05642
1051.70 0.0564
1051.80 0.05638
1051.90 0.05636
1052.00 0.05634
1052.10 0.05632
1052.20 0.05629
1052.30 0.05627
1052.40 0.05625
1052.50 0.05623
1052.60 0.05621
1052.70 0.05619
1052.80 0.05617
1052.90 0.05615
1053.00 0.05613
1053.10 0.05611
1053.20 0.05609
1053.30 0.05607
1053.40 0.05605
1053.50 0.05602
1053.60 0.056
1053.70 0.05598
1053.80 0.05596
1053.90 0.05594
1054.00 0.05592
1054.10 0.0559
1054.20 0.05588
1054.30 0.05586
1054.40 0.05584
1054.50 0.05582
1054.60 0.0558
1054.70 0.05578
1054.80 0.05575
1054.90 0.05573
1055.00 0.05571
1055.10 0.05569
1055.20 0.05567
1055.30 0.05565
1055.40 0.05563
1055.50 0.05561
1055.60 0.05559
1055.70 0.05557
1055.80 0.05555
1055.90 0.05553
1056.00 0.05551
1056.10 0.05549
1056.20 0.05547
1056.30 0.05545
1056.40 0.05542
1056.50 0.0554
1056.60 0.05538
1056.70 0.05536
1056.80 0.05534
1056.90 0.05532
1057.00 0.0553
1057.10 0.05528
1057.20 0.05526
1057.30 0.05524
1057.40 0.05522
1057.50 0.0552
1057.60 0.05518
1057.70 0.05516
1057.80 0.05514
1057.90 0.05512
1058.00 0.0551
1058.10 0.05508
1058.20 0.05506
1058.30 0.05504
1058.40 0.05502
1058.50 0.055
1058.60 0.05497
1058.70 0.05495
1058.80 0.05493
1058.90 0.05491
1059.00 0.05489
1059.10 0.05487
1059.20 0.05485
1059.30 0.05483
1059.40 0.05481
1059.50 0.05479
1059.60 0.05477
1059.70 0.05475
1059.80 0.05473
1059.90 0.05471
1060.00 0.05469
1060.10 0.05467
1060.20 0.05465
1060.30 0.05463
1060.40 0.05461
1060.50 0.05459
1060.60 0.05457
1060.70 0.05455
1060.80 0.05453
1060.90 0.05451
1061.00 0.05449
1061.10 0.05447
1061.20 0.05445
1061.30 0.05443
1061.40 0.05441
1061.50 0.05439
1061.60 0.05437
1061.70 0.05435
1061.80 0.05433
1061.90 0.05431
1062.00 0.05429
1062.10 0.05427
1062.20 0.05425
1062.30 0.05423
1062.40 0.05421
1062.50 0.05419
1062.60 0.05417
1062.70 0.05415
1062.80 0.05413
1062.90 0.05411
1063.00 0.05409
1063.10 0.05407
1063.20 0.05405
1063.30 0.05403
1063.40 0.05401
1063.50 0.05399
1063.60 0.05397
1063.70 0.05395
1063.80 0.05393
1063.90 0.05391
1064.00 0.05389
1064.10 0.05387
1064.20 0.05385
1064.30 0.05383
1064.40 0.05381
1064.50 0.05379
1064.60 0.05377
1064.70 0.05375
1064.80 0.05373
1064.90 0.05371
1065.00 0.05369
1065.10 0.05367
1065.20 0.05365
1065.30 0.05363
1065.40 0.05361
1065.50 0.05359
1065.60 0.05357
1065.70 0.05355
1065.80 0.05353
1065.90 0.05351
1066.00 0.05349
1066.10 0.05347
1066.20 0.05345
1066.30 0.05343
1066.40 0.05341
1066.50 0.05339
1066.60 0.05337
1066.70 0.05335
1066.80 0.05333
1066.90 0.05331
1067.00 0.05329
1067.10 0.05327
1067.20 0.05325
1067.30 0.05323
1067.40 0.05321
1067.50 0.05319
1067.60 0.05317
1067.70 0.05315
1067.80 0.05313
1067.90 0.05311
1068.00 0.05309
1068.10 0.05307
1068.20 0.05305
1068.30 0.05303
1068.40 0.05301
1068.50 0.05299
1068.60 0.05297
1068.70 0.05295
1068.80 0.05293
1068.90 0.05291
1069.00 0.05289
1069.10 0.05287
1069.20 0.05285
1069.30 0.05283
1069.40 0.05282
1069.50 0.0528
1069.60 0.05278
1069.70 0.05276
1069.80 0.05274
1069.90 0.05272
1070.00 0.0527
1070.10 0.05268
1070.20 0.05266
1070.30 0.05264
1070.40 0.05262
1070.50 0.0526
1070.60 0.05258
1070.70 0.05256
1070.80 0.05254
1070.90 0.05252
1071.00 0.0525
1071.10 0.05248
1071.20 0.05246
1071.30 0.05244
1071.40 0.05242
1071.50 0.0524
1071.60 0.05238
1071.70 0.05236
1071.80 0.05234
1071.90 0.05233
1072.00 0.05231
1072.10 0.05229
1072.20 0.05227
1072.30 0.05225
1072.40 0.05223
1072.50 0.05221
1072.60 0.05219
1072.70 0.05217
1072.80 0.05215
1072.90 0.05213
1073.00 0.05211
1073.10 0.05209
1073.20 0.05207
1073.30 0.05205
1073.40 0.05203
1073.50 0.05201
1073.60 0.05199
1073.70 0.05197
1073.80 0.05195
1073.90 0.05193
1074.00 0.05191
1074.10 0.05189
1074.20 0.05187
1074.30 0.05185
1074.40 0.05183
1074.50 0.05181
1074.60 0.05179
1074.70 0.05177
1074.80 0.05175
1074.90 0.05173
1075.00 0.05172
1075.10 0.0517
1075.20 0.05168
1075.30 0.05166
1075.40 0.05164
1075.50 0.05162
1075.60 0.0516
1075.70 0.05158
1075.80 0.05156
1075.90 0.05154
1076.00 0.05152
1076.10 0.0515
1076.20 0.05148
1076.30 0.05146
1076.40 0.05144
1076.50 0.05142
1076.60 0.0514
1076.70 0.05138
1076.80 0.05136
1076.90 0.05134
1077.00 0.05132
1077.10 0.0513
1077.20 0.05128
1077.30 0.05126
1077.40 0.05124
1077.50 0.05122
1077.60 0.0512
1077.70 0.05118
1077.80 0.05116
1077.90 0.05114
1078.00 0.05112
1078.10 0.0511
1078.20 0.05108
1078.30 0.05106
1078.40 0.05104
1078.50 0.05102
1078.60 0.051
1078.70 0.05098
1078.80 0.05096
1078.90 0.05094
1079.00 0.05092
1079.10 0.0509
1079.20 0.05088
1079.30 0.05086
1079.40 0.05084
1079.50 0.05082
1079.60 0.0508
1079.70 0.05078
1079.80 0.05076
1079.90 0.05074
1080.00 0.05072
1080.10 0.0507
1080.20 0.05068
1080.30 0.05066
1080.40 0.05064
1080.50 0.05062
1080.60 0.0506
1080.70 0.05058
1080.80 0.05056
1080.90 0.05054
1081.00 0.05052
1081.10 0.0505
1081.20 0.05048
1081.30 0.05046
1081.40 0.05043
1081.50 0.05041
1081.60 0.05039
1081.70 0.05037
1081.80 0.05035
1081.90 0.05033
1082.00 0.05031
1082.10 0.05029
1082.20 0.05027
1082.30 0.05025
1082.40 0.05022
1082.50 0.0502
1082.60 0.05018
1082.70 0.05016
1082.80 0.05014
1082.90 0.05012
1083.00 0.0501
1083.10 0.05008
1083.20 0.05005
1083.30 0.05003
1083.40 0.05001
1083.50 0.04999
1083.60 0.04997
1083.70 0.04995
1083.80 0.04992
1083.90 0.0499
1084.00 0.04988
1084.10 0.04986
1084.20 0.04984
1084.30 0.04982
1084.40 0.04979
1084.50 0.04977
1084.60 0.04975
1084.70 0.04973
1084.80 0.0497
1084.90 0.04968
1085.00 0.04966
1085.10 0.04963
1085.20 0.04961
1085.30 0.04959
1085.40 0.04956
1085.50 0.04954
1085.60 0.04952
1085.70 0.0495
1085.80 0.04947
1085.90 0.04945
1086.00 0.04943
1086.10 0.0494
1086.20 0.04938
1086.30 0.04936
1086.40 0.04934
1086.50 0.04931
1086.60 0.04929
1086.70 0.04926
1086.80 0.04924
1086.90 0.04922
1087.00 0.04919
1087.10 0.04917
1087.20 0.04914
1087.30 0.04912
1087.40 0.04909
1087.50 0.04907
1087.60 0.04904
1087.70 0.04902
1087.80 0.049
1087.90 0.04897
1088.00 0.04895
1088.10 0.04892
1088.20 0.0489
1088.30 0.04887
1088.40 0.04885
1088.50 0.04882
1088.60 0.0488
1088.70 0.04877
1088.80 0.04875
1088.90 0.04872
1089.00 0.0487
1089.10 0.04867
1089.20 0.04865
1089.30 0.04862
1089.40 0.04859
1089.50 0.04857
1089.60 0.04854
1089.70 0.04852
1089.80 0.04849
1089.90 0.04847
1090.00 0.04844
1090.10 0.04842
1090.20 0.04839
1090.30 0.04837
1090.40 0.04834
1090.50 0.04832
1090.60 0.0483
1090.70 0.04827
1090.80 0.04825
1090.90 0.04823
1091.00 0.04821
1091.10 0.04818
1091.20 0.04816
1091.30 0.04814
1091.40 0.04812
1091.50 0.04809
1091.60 0.04807
1091.70 0.04805
1091.80 0.04803
1091.90 0.04801
1092.00 0.04798
1092.10 0.04797
1092.20 0.04795
1092.30 0.04794
1092.40 0.04792
1092.50 0.04791
1092.60 0.04789
1092.70 0.04788
1092.80 0.04787
1092.90 0.04787
1093.00 0.04786
1093.10 0.04785
1093.20 0.04785
1093.30 0.04785
1093.40 0.04785
1093.50 0.04786
1093.60 0.0479
1093.70 0.04793
1093.80 0.04794
1093.90 0.04793
1094.00 0.04786
1094.10 0.0478
1094.20 0.04773
1094.30 0.04768
1094.40 0.04765
1094.50 0.04763
1094.60 0.0476
1094.70 0.04757
1094.80 0.04754
1094.90 0.04752
1095.00 0.04749
1095.10 0.04748
1095.20 0.04746
1095.30 0.04745
1095.40 0.04743
1095.50 0.04741
1095.60 0.0474
1095.70 0.04738
1095.80 0.04737
1095.90 0.04735
1096.00 0.04734
1096.10 0.04732
1096.20 0.04731
1096.30 0.04729
1096.40 0.04728
1096.50 0.04726
1096.60 0.04725
1096.70 0.04724
1096.80 0.04723
1096.90 0.04722
1097.00 0.04721
1097.10 0.0472
1097.20 0.0472
1097.30 0.04719
1097.40 0.04718
1097.50 0.04717
1097.60 0.04716
1097.70 0.04715
1097.80 0.04714
1097.90 0.04713
1098.00 0.04712
1098.10 0.04712
1098.20 0.04711
1098.30 0.0471
1098.40 0.04709
1098.50 0.04708
1098.60 0.04707
1098.70 0.04706
1098.80 0.04705
1098.90 0.04704
1099.00 0.04703
1099.10 0.04702
1099.20 0.04701
1099.30 0.047
1099.40 0.04699
1099.50 0.04699
1099.60 0.04698
1099.70 0.04697
1099.80 0.04696
1099.90 0.04695
1100.00 0.04694
1100.10 0.04693
1100.20 0.04692
1100.30 0.04691
1100.40 0.0469
1100.50 0.04689
1100.60 0.04688
1100.70 0.04687
1100.80 0.04686
1100.90 0.04685
1101.00 0.04684
1101.10 0.04682
1101.20 0.04681
1101.30 0.0468
1101.40 0.04679
1101.50 0.04678
1101.60 0.04677
1101.70 0.04676
1101.80 0.04675
1101.90 0.04674
1102.00 0.04673
1102.10 0.04671
1102.20 0.0467
1102.30 0.04669
1102.40 0.04668
1102.50 0.04667
1102.60 0.04665
1102.70 0.04664
1102.80 0.04663
1102.90 0.04662
1103.00 0.04661
1103.10 0.04659
1103.20 0.04658
1103.30 0.04657
1103.40 0.04656
1103.50 0.04654
1103.60 0.04653
1103.70 0.04652
1103.80 0.0465
1103.90 0.04649
1104.00 0.04648
1104.10 0.04646
1104.20 0.04645
1104.30 0.04644
1104.40 0.04642
1104.50 0.04641
1104.60 0.0464
1104.70 0.04638
1104.80 0.04637
1104.90 0.04636
1105.00 0.04634
1105.10 0.04633
1105.20 0.04632
1105.30 0.0463
1105.40 0.04629
1105.50 0.04628
1105.60 0.04626
1105.70 0.04625
1105.80 0.04624
1105.90 0.04622
1106.00 0.04621
1106.10 0.04619
1106.20 0.04618
1106.30 0.04616
1106.40 0.04615
1106.50 0.04614
1106.60 0.04612
1106.70 0.04611
1106.80 0.04609
1106.90 0.04608
1107.00 0.04607
1107.10 0.04605
1107.20 0.04604
1107.30 0.04602
1107.40 0.04601
1107.50 0.04599
1107.60 0.04598
1107.70 0.04597
1107.80 0.04595
1107.90 0.04594
1108.00 0.04592
1108.10 0.04591
1108.20 0.04589
1108.30 0.04588
1108.40 0.04586
1108.50 0.04585
1108.60 0.04583
1108.70 0.04582
1108.80 0.0458
1108.90 0.04579
1109.00 0.04577
1109.10 0.04576
1109.20 0.04575
1109.30 0.04573
1109.40 0.04572
1109.50 0.0457
1109.60 0.04569
1109.70 0.04567
1109.80 0.04566
1109.90 0.04564
1110.00 0.04563
1110.10 0.04561
1110.20 0.0456
1110.30 0.04558
1110.40 0.04557
1110.50 0.04555
1110.60 0.04554
1110.70 0.04552
1110.80 0.04551
1110.90 0.04549
1111.00 0.04548
1111.10 0.04546
1111.20 0.04545
1111.30 0.04543
1111.40 0.04542
1111.50 0.0454
1111.60 0.04539
1111.70 0.04537
1111.80 0.04536
1111.90 0.04534
1112.00 0.04533
1112.10 0.04531
1112.20 0.0453
1112.30 0.04528
1112.40 0.04527
1112.50 0.04525
1112.60 0.04524
1112.70 0.04522
1112.80 0.04521
1112.90 0.04519
1113.00 0.04517
1113.10 0.04516
1113.20 0.04514
1113.30 0.04513
1113.40 0.04511
1113.50 0.0451
1113.60 0.04508
1113.70 0.04507
1113.80 0.04505
1113.90 0.04504
1114.00 0.04502
1114.10 0.04501
1114.20 0.04499
1114.30 0.04498
1114.40 0.04496
1114.50 0.04495
1114.60 0.04493
1114.70 0.04492
1114.80 0.0449
1114.90 0.04489
1115.00 0.04487
1115.10 0.04485
1115.20 0.04484
1115.30 0.04482
1115.40 0.04481
1115.50 0.04479
1115.60 0.04478
1115.70 0.04476
1115.80 0.04475
1115.90 0.04473
1116.00 0.04472
1116.10 0.0447
1116.20 0.04469
1116.30 0.04467
1116.40 0.04466
1116.50 0.04464
1116.60 0.04463
1116.70 0.04461
1116.80 0.0446
1116.90 0.04458
1117.00 0.04457
1117.10 0.04455
1117.20 0.04454
1117.30 0.04452
1117.40 0.04451
1117.50 0.04449
1117.60 0.04448
1117.70 0.04446
1117.80 0.04444
1117.90 0.04443
1118.00 0.04441
1118.10 0.0444
1118.20 0.04438
1118.30 0.04437
1118.40 0.04435
1118.50 0.04434
1118.60 0.04432
1118.70 0.04431
1118.80 0.04429
1118.90 0.04428
1119.00 0.04426
1119.10 0.04425
1119.20 0.04423
1119.30 0.04422
1119.40 0.0442
1119.50 0.04419
1119.60 0.04417
1119.70 0.04416
1119.80 0.04414
1119.90 0.04413
1120.00 0.04411
1120.10 0.0441
1120.20 0.04408
1120.30 0.04407
1120.40 0.04405
1120.50 0.04404
1120.60 0.04402
1120.70 0.04401
1120.80 0.04399
1120.90 0.04397
1121.00 0.04396
1121.10 0.04394
1121.20 0.04393
1121.30 0.04391
1121.40 0.0439
1121.50 0.04388
1121.60 0.04387
1121.70 0.04385
1121.80 0.04384
1121.90 0.04382
1122.00 0.04381
1122.10 0.04379
1122.20 0.04378
1122.30 0.04376
1122.40 0.04375
1122.50 0.04373
1122.60 0.04372
1122.70 0.0437
1122.80 0.04369
1122.90 0.04367
1123.00 0.04366
1123.10 0.04364
1123.20 0.04363
1123.30 0.04361
1123.40 0.0436
1123.50 0.04358
1123.60 0.04357
1123.70 0.04355
1123.80 0.04354
1123.90 0.04352
1124.00 0.04351
1124.10 0.04349
1124.20 0.04348
1124.30 0.04346
1124.40 0.04345
1124.50 0.04343
1124.60 0.04342
1124.70 0.0434
1124.80 0.04339
1124.90 0.04337
1125.00 0.04336
1125.10 0.04334
1125.20 0.04333
1125.30 0.04331
1125.40 0.0433
1125.50 0.04329
1125.60 0.04327
1125.70 0.04326
1125.80 0.04324
1125.90 0.04323
1126.00 0.04321
1126.10 0.0432
1126.20 0.04318
1126.30 0.04317
1126.40 0.04315
1126.50 0.04314
1126.60 0.04312
1126.70 0.04311
1126.80 0.04309
1126.90 0.04308
1127.00 0.04306
1127.10 0.04305
1127.20 0.04303
1127.30 0.04302
1127.40 0.043
1127.50 0.04299
1127.60 0.04297
1127.70 0.04296
1127.80 0.04294
1127.90 0.04293
1128.00 0.04291
1128.10 0.0429
1128.20 0.04288
1128.30 0.04287
1128.40 0.04286
1128.50 0.04284
1128.60 0.04283
1128.70 0.04281
1128.80 0.0428
1128.90 0.04278
1129.00 0.04277
1129.10 0.04275
1129.20 0.04274
1129.30 0.04272
1129.40 0.04271
1129.50 0.04269
1129.60 0.04268
1129.70 0.04266
1129.80 0.04265
1129.90 0.04264
1130.00 0.04262
1130.10 0.04261
1130.20 0.04259
1130.30 0.04258
1130.40 0.04256
1130.50 0.04255
1130.60 0.04253
1130.70 0.04252
1130.80 0.0425
1130.90 0.04249
1131.00 0.04247
1131.10 0.04246
1131.20 0.04244
1131.30 0.04243
1131.40 0.04242
1131.50 0.0424
1131.60 0.04239
1131.70 0.04237
1131.80 0.04236
1131.90 0.04234
1132.00 0.04233
1132.10 0.04231
1132.20 0.0423
1132.30 0.04228
1132.40 0.04227
1132.50 0.04226
1132.60 0.04224
1132.70 0.04223
1132.80 0.04221
1132.90 0.0422
1133.00 0.04218
1133.10 0.04217
1133.20 0.04215
1133.30 0.04214
1133.40 0.04213
1133.50 0.04211
1133.60 0.0421
1133.70 0.04208
1133.80 0.04207
1133.90 0.04205
1134.00 0.04204
1134.10 0.04202
1134.20 0.04201
1134.30 0.042
1134.40 0.04198
1134.50 0.04197
1134.60 0.04195
1134.70 0.04194
1134.80 0.04192
1134.90 0.04191
1135.00 0.04189
1135.10 0.04188
1135.20 0.04187
1135.30 0.04185
1135.40 0.04184
1135.50 0.04182
1135.60 0.04181
1135.70 0.04179
1135.80 0.04178
1135.90 0.04177
1136.00 0.04175
1136.10 0.04174
1136.20 0.04172
1136.30 0.04171
1136.40 0.04169
1136.50 0.04168
1136.60 0.04167
1136.70 0.04165
1136.80 0.04164
1136.90 0.04162
1137.00 0.04161
1137.10 0.04159
1137.20 0.04158
1137.30 0.04157
1137.40 0.04155
1137.50 0.04154
1137.60 0.04152
1137.70 0.04151
1137.80 0.04149
1137.90 0.04148
1138.00 0.04147
1138.10 0.04145
1138.20 0.04144
1138.30 0.04142
1138.40 0.04141
1138.50 0.0414
1138.60 0.04138
1138.70 0.04137
1138.80 0.04135
1138.90 0.04134
1139.00 0.04132
1139.10 0.04131
1139.20 0.0413
1139.30 0.04128
1139.40 0.04127
1139.50 0.04125
1139.60 0.04124
1139.70 0.04123
1139.80 0.04121
1139.90 0.0412
1140.00 0.04118
1140.10 0.04117
1140.20 0.04116
1140.30 0.04114
1140.40 0.04113
1140.50 0.04111
1140.60 0.0411
1140.70 0.04109
1140.80 0.04107
1140.90 0.04106
1141.00 0.04104
1141.10 0.04103
1141.20 0.04101
1141.30 0.041
1141.40 0.04099
1141.50 0.04097
1141.60 0.04096
1141.70 0.04094
1141.80 0.04093
1141.90 0.04092
1142.00 0.0409
1142.10 0.04089
1142.20 0.04087
1142.30 0.04086
1142.40 0.04085
1142.50 0.04083
1142.60 0.04082
1142.70 0.04081
1142.80 0.04079
1142.90 0.04078
1143.00 0.04076
1143.10 0.04075
1143.20 0.04074
1143.30 0.04072
1143.40 0.04071
1143.50 0.04069
1143.60 0.04068
1143.70 0.04067
1143.80 0.04065
1143.90 0.04064
1144.00 0.04063
1144.10 0.04061
1144.20 0.0406
1144.30 0.04058
1144.40 0.04057
1144.50 0.04056
1144.60 0.04054
1144.70 0.04053
1144.80 0.04051
1144.90 0.0405
1145.00 0.04049
1145.10 0.04047
1145.20 0.04046
1145.30 0.04045
1145.40 0.04043
1145.50 0.04042
1145.60 0.0404
1145.70 0.04039
1145.80 0.04038
1145.90 0.04036
1146.00 0.04035
1146.10 0.04034
1146.20 0.04032
1146.30 0.04031
1146.40 0.04029
1146.50 0.04028
1146.60 0.04027
1146.70 0.04025
1146.80 0.04024
1146.90 0.04023
1147.00 0.04021
1147.10 0.0402
1147.20 0.04018
1147.30 0.04017
1147.40 0.04016
1147.50 0.04014
1147.60 0.04013
1147.70 0.04012
1147.80 0.0401
1147.90 0.04009
1148.00 0.04008
1148.10 0.04006
1148.20 0.04005
1148.30 0.04003
1148.40 0.04002
1148.50 0.04001
1148.60 0.03999
1148.70 0.03998
1148.80 0.03997
1148.90 0.03995
1149.00 0.03994
1149.10 0.03993
1149.20 0.03991
1149.30 0.0399
1149.40 0.03989
1149.50 0.03987
1149.60 0.03986
1149.70 0.03984
1149.80 0.03983
1149.90 0.03982
1150.00 0.0398
1150.10 0.03979
1150.20 0.03978
1150.30 0.03976
1150.40 0.03975
1150.50 0.03974
1150.60 0.03972
1150.70 0.03971
1150.80 0.0397
1150.90 0.03968
1151.00 0.03967
1151.10 0.03966
1151.20 0.03964
1151.30 0.03963
1151.40 0.03962
1151.50 0.0396
1151.60 0.03959
1151.70 0.03958
1151.80 0.03956
1151.90 0.03955
1152.00 0.03953
1152.10 0.03952
1152.20 0.03951
1152.30 0.03949
1152.40 0.03948
1152.50 0.03947
1152.60 0.03945
1152.70 0.03944
1152.80 0.03943
1152.90 0.03941
1153.00 0.0394
1153.10 0.03939
1153.20 0.03937
1153.30 0.03936
1153.40 0.03935
1153.50 0.03934
1153.60 0.03932
1153.70 0.03931
1153.80 0.0393
1153.90 0.03928
1154.00 0.03927
1154.10 0.03926
1154.20 0.03924
1154.30 0.03923
1154.40 0.03922
1154.50 0.0392
1154.60 0.03919
1154.70 0.03918
1154.80 0.03916
1154.90 0.03915
1155.00 0.03914
1155.10 0.03912
1155.20 0.03911
1155.30 0.0391
1155.40 0.03908
1155.50 0.03907
1155.60 0.03906
1155.70 0.03904
1155.80 0.03903
1155.90 0.03902
1156.00 0.039
1156.10 0.03899
1156.20 0.03898
1156.30 0.03896
1156.40 0.03895
1156.50 0.03894
1156.60 0.03892
1156.70 0.03891
1156.80 0.0389
1156.90 0.03889
1157.00 0.03887
1157.10 0.03886
1157.20 0.03885
1157.30 0.03883
1157.40 0.03882
1157.50 0.03881
1157.60 0.03879
1157.70 0.03878
1157.80 0.03877
1157.90 0.03875
1158.00 0.03874
1158.10 0.03873
1158.20 0.03872
1158.30 0.0387
1158.40 0.03869
1158.50 0.03868
1158.60 0.03866
1158.70 0.03865
1158.80 0.03864
1158.90 0.03862
1159.00 0.03861
1159.10 0.0386
1159.20 0.03859
1159.30 0.03857
1159.40 0.03856
1159.50 0.03855
1159.60 0.03853
1159.70 0.03852
1159.80 0.03851
1159.90 0.03849
1160.00 0.03848
1160.10 0.03847
1160.20 0.03846
1160.30 0.03844
1160.40 0.03843
1160.50 0.03842
1160.60 0.0384
1160.70 0.03839
1160.80 0.03838
1160.90 0.03837
1161.00 0.03835
1161.10 0.03834
1161.20 0.03833
1161.30 0.03831
1161.40 0.0383
1161.50 0.03829
1161.60 0.03827
1161.70 0.03826
1161.80 0.03825
1161.90 0.03824
1162.00 0.03822
1162.10 0.03821
1162.20 0.0382
1162.30 0.03818
1162.40 0.03817
1162.50 0.03816
1162.60 0.03815
1162.70 0.03813
1162.80 0.03812
1162.90 0.03811
1163.00 0.0381
1163.10 0.03808
1163.20 0.03807
1163.30 0.03806
1163.40 0.03804
1163.50 0.03803
1163.60 0.03802
1163.70 0.03801
1163.80 0.03799
1163.90 0.03798
1164.00 0.03797
1164.10 0.03795
1164.20 0.03794
1164.30 0.03793
1164.40 0.03792
1164.50 0.0379
1164.60 0.03789
1164.70 0.03788
1164.80 0.03787
1164.90 0.03785
1165.00 0.03784
1165.10 0.03783
1165.20 0.03782
1165.30 0.0378
1165.40 0.03779
1165.50 0.03778
1165.60 0.03776
1165.70 0.03775
1165.80 0.03774
1165.90 0.03773
1166.00 0.03771
1166.10 0.0377
1166.20 0.03769
1166.30 0.03768
1166.40 0.03766
1166.50 0.03765
1166.60 0.03764
1166.70 0.03763
1166.80 0.03761
1166.90 0.0376
1167.00 0.03759
1167.10 0.03757
1167.20 0.03756
1167.30 0.03755
1167.40 0.03754
1167.50 0.03752
1167.60 0.03751
1167.70 0.0375
1167.80 0.03749
1167.90 0.03747
1168.00 0.03746
1168.10 0.03745
1168.20 0.03744
1168.30 0.03742
1168.40 0.03741
1168.50 0.0374
1168.60 0.03739
1168.70 0.03737
1168.80 0.03736
1168.90 0.03735
1169.00 0.03734
1169.10 0.03732
1169.20 0.03731
1169.30 0.0373
1169.40 0.03729
1169.50 0.03728
1169.60 0.03726
1169.70 0.03725
1169.80 0.03724
1169.90 0.03723
1170.00 0.03721
1170.10 0.0372
1170.20 0.03719
1170.30 0.03718
1170.40 0.03716
1170.50 0.03715
1170.60 0.03714
1170.70 0.03713
1170.80 0.03711
1170.90 0.0371
1171.00 0.03709
1171.10 0.03708
1171.20 0.03706
1171.30 0.03705
1171.40 0.03704
1171.50 0.03703
1171.60 0.03701
1171.70 0.037
1171.80 0.03699
1171.90 0.03698
1172.00 0.03697
1172.10 0.03695
1172.20 0.03694
1172.30 0.03693
1172.40 0.03692
1172.50 0.0369
1172.60 0.03689
1172.70 0.03688
1172.80 0.03687
1172.90 0.03685
1173.00 0.03684
1173.10 0.03683
1173.20 0.03682
1173.30 0.03681
1173.40 0.03679
1173.50 0.03678
1173.60 0.03677
1173.70 0.03676
1173.80 0.03674
1173.90 0.03673
1174.00 0.03672
1174.10 0.03671
1174.20 0.0367
1174.30 0.03668
1174.40 0.03667
1174.50 0.03666
1174.60 0.03665
1174.70 0.03663
1174.80 0.03662
1174.90 0.03661
1175.00 0.0366
1175.10 0.03659
1175.20 0.03657
1175.30 0.03656
1175.40 0.03655
1175.50 0.03654
1175.60 0.03653
1175.70 0.03651
1175.80 0.0365
1175.90 0.03649
1176.00 0.03648
1176.10 0.03646
1176.20 0.03645
1176.30 0.03644
1176.40 0.03643
1176.50 0.03642
1176.60 0.0364
1176.70 0.03639
1176.80 0.03638
1176.90 0.03637
1177.00 0.03636
1177.10 0.03634
1177.20 0.03633
1177.30 0.03632
1177.40 0.03631
1177.50 0.0363
1177.60 0.03628
1177.70 0.03627
1177.80 0.03626
1177.90 0.03625
1178.00 0.03624
1178.10 0.03622
1178.20 0.03621
1178.30 0.0362
1178.40 0.03619
1178.50 0.03618
1178.60 0.03616
1178.70 0.03615
1178.80 0.03614
1178.90 0.03613
1179.00 0.03612
1179.10 0.0361
1179.20 0.03609
1179.30 0.03608
1179.40 0.03607
1179.50 0.03606
1179.60 0.03604
1179.70 0.03603
1179.80 0.03602
1179.90 0.03601
1180.00 0.036
1180.10 0.03598
1180.20 0.03597
1180.30 0.03596
1180.40 0.03595
1180.50 0.03594
1180.60 0.03592
1180.70 0.03591
1180.80 0.0359
1180.90 0.03589
1181.00 0.03588
1181.10 0.03586
1181.20 0.03585
1181.30 0.03584
1181.40 0.03583
1181.50 0.03582
1181.60 0.03581
1181.70 0.03579
1181.80 0.03578
1181.90 0.03577
1182.00 0.03576
1182.10 0.03575
1182.20 0.03573
1182.30 0.03572
1182.40 0.03571
1182.50 0.0357
1182.60 0.03569
1182.70 0.03568
1182.80 0.03566
1182.90 0.03565
1183.00 0.03564
1183.10 0.03563
1183.20 0.03562
1183.30 0.03561
1183.40 0.03559
1183.50 0.03558
1183.60 0.03557
1183.70 0.03556
1183.80 0.03555
1183.90 0.03553
1184.00 0.03552
1184.10 0.03551
1184.20 0.0355
1184.30 0.03549
1184.40 0.03548
1184.50 0.03546
1184.60 0.03545
1184.70 0.03544
1184.80 0.03543
1184.90 0.03542
1185.00 0.03541
1185.10 0.03539
1185.20 0.03538
1185.30 0.03537
1185.40 0.03536
1185.50 0.03535
1185.60 0.03534
1185.70 0.03532
1185.80 0.03531
1185.90 0.0353
1186.00 0.03529
1186.10 0.03528
1186.20 0.03527
1186.30 0.03525
1186.40 0.03524
1186.50 0.03523
1186.60 0.03522
1186.70 0.03521
1186.80 0.0352
1186.90 0.03518
1187.00 0.03517
1187.10 0.03516
1187.20 0.03515
1187.30 0.03514
1187.40 0.03513
1187.50 0.03512
1187.60 0.0351
1187.70 0.03509
1187.80 0.03508
1187.90 0.03507
1188.00 0.03506
1188.10 0.03505
1188.20 0.03503
1188.30 0.03502
1188.40 0.03501
1188.50 0.035
1188.60 0.03499
1188.70 0.03498
1188.80 0.03497
1188.90 0.03495
1189.00 0.03494
1189.10 0.03493
1189.20 0.03492
1189.30 0.03491
1189.40 0.0349
1189.50 0.03489
1189.60 0.03487
1189.70 0.03486
1189.80 0.03485
1189.90 0.03484
1190.00 0.03483
1190.10 0.03482
1190.20 0.03481
1190.30 0.03479
1190.40 0.03478
1190.50 0.03477
1190.60 0.03476
1190.70 0.03475
1190.80 0.03474
1190.90 0.03473
1191.00 0.03471
1191.10 0.0347
1191.20 0.03469
1191.30 0.03468
1191.40 0.03467
1191.50 0.03466
1191.60 0.03465
1191.70 0.03463
1191.80 0.03462
1191.90 0.03461
1192.00 0.0346
1192.10 0.03459
1192.20 0.03458
1192.30 0.03457
1192.40 0.03455
1192.50 0.03454
1192.60 0.03453
1192.70 0.03452
1192.80 0.03451
1192.90 0.0345
1193.00 0.03449
1193.10 0.03448
1193.20 0.03446
1193.30 0.03445
1193.40 0.03444
1193.50 0.03443
1193.60 0.03442
1193.70 0.03441
1193.80 0.0344
1193.90 0.03439
1194.00 0.03437
1194.10 0.03436
1194.20 0.03435
1194.30 0.03434
1194.40 0.03433
1194.50 0.03432
1194.60 0.03431
1194.70 0.0343
1194.80 0.03428
1194.90 0.03427
1195.00 0.03426
1195.10 0.03425
1195.20 0.03424
1195.30 0.03423
1195.40 0.03422
1195.50 0.03421
1195.60 0.03419
1195.70 0.03418
1195.80 0.03417
1195.90 0.03416
1196.00 0.03415
1196.10 0.03414
1196.20 0.03413
1196.30 0.03412
1196.40 0.03411
1196.50 0.03409
1196.60 0.03408
1196.70 0.03407
1196.80 0.03406
1196.90 0.03405
1197.00 0.03404
1197.10 0.03403
1197.20 0.03402
1197.30 0.03401
1197.40 0.03399
1197.50 0.03398
1197.60 0.03397
1197.70 0.03396
1197.80 0.03395
1197.90 0.03394
1198.00 0.03393
1198.10 0.03392
1198.20 0.03391
1198.30 0.03389
1198.40 0.03388
1198.50 0.03387
1198.60 0.03386
1198.70 0.03385
1198.80 0.03384
1198.90 0.03383
1199.00 0.03382
1199.10 0.03381
1199.20 0.0338
1199.30 0.03378
1199.40 0.03377
1199.50 0.03376
1199.60 0.03375
1199.70 0.03374
1199.80 0.03373
1199.90 0.03372
1200.00 0
