# Version 2.1 - nm, norm@500 to 1, cut digits, bergeron_20000_75.dat_20000
# Wavelength(nm)  Flambda(ergs/cm^s/s/nm)
300.00 3.229
300.10 3.226
300.20 3.223
300.30 3.22
300.40 3.216
300.50 3.213
300.60 3.21
300.70 3.207
300.80 3.204
300.90 3.201
301.00 3.198
301.10 3.195
301.20 3.192
301.30 3.189
301.40 3.186
301.50 3.183
301.60 3.18
301.70 3.177
301.80 3.174
301.90 3.171
302.00 3.168
302.10 3.165
302.20 3.162
302.30 3.159
302.40 3.156
302.50 3.153
302.60 3.15
302.70 3.147
302.80 3.144
302.90 3.141
303.00 3.138
303.10 3.136
303.20 3.133
303.30 3.13
303.40 3.127
303.50 3.124
303.60 3.121
303.70 3.118
303.80 3.115
303.90 3.112
304.00 3.109
304.10 3.106
304.20 3.103
304.30 3.1
304.40 3.097
304.50 3.095
304.60 3.092
304.70 3.089
304.80 3.086
304.90 3.083
305.00 3.08
305.10 3.077
305.20 3.074
305.30 3.071
305.40 3.069
305.50 3.066
305.60 3.063
305.70 3.06
305.80 3.057
305.90 3.054
306.00 3.051
306.10 3.049
306.20 3.046
306.30 3.043
306.40 3.04
306.50 3.037
306.60 3.034
306.70 3.032
306.80 3.029
306.90 3.026
307.00 3.023
307.10 3.02
307.20 3.018
307.30 3.015
307.40 3.012
307.50 3.009
307.60 3.006
307.70 3.004
307.80 3.001
307.90 2.998
308.00 2.995
308.10 2.992
308.20 2.99
308.30 2.987
308.40 2.984
308.50 2.981
308.60 2.979
308.70 2.976
308.80 2.973
308.90 2.97
309.00 2.968
309.10 2.965
309.20 2.962
309.30 2.959
309.40 2.957
309.50 2.954
309.60 2.951
309.70 2.948
309.80 2.946
309.90 2.943
310.00 2.94
310.10 2.938
310.20 2.935
310.30 2.932
310.40 2.93
310.50 2.927
310.60 2.924
310.70 2.921
310.80 2.919
310.90 2.916
311.00 2.913
311.10 2.911
311.20 2.908
311.30 2.905
311.40 2.903
311.50 2.9
311.60 2.897
311.70 2.895
311.80 2.892
311.90 2.889
312.00 2.887
312.10 2.884
312.20 2.881
312.30 2.879
312.40 2.876
312.50 2.874
312.60 2.871
312.70 2.868
312.80 2.866
312.90 2.863
313.00 2.86
313.10 2.858
313.20 2.855
313.30 2.853
313.40 2.85
313.50 2.847
313.60 2.845
313.70 2.842
313.80 2.84
313.90 2.837
314.00 2.834
314.10 2.832
314.20 2.829
314.30 2.827
314.40 2.824
314.50 2.822
314.60 2.819
314.70 2.816
314.80 2.814
314.90 2.811
315.00 2.809
315.10 2.806
315.20 2.804
315.30 2.801
315.40 2.799
315.50 2.796
315.60 2.793
315.70 2.791
315.80 2.788
315.90 2.786
316.00 2.783
316.10 2.781
316.20 2.778
316.30 2.776
316.40 2.773
316.50 2.771
316.60 2.768
316.70 2.766
316.80 2.763
316.90 2.761
317.00 2.758
317.10 2.756
317.20 2.753
317.30 2.751
317.40 2.748
317.50 2.746
317.60 2.743
317.70 2.741
317.80 2.738
317.90 2.736
318.00 2.733
318.10 2.731
318.20 2.729
318.30 2.726
318.40 2.724
318.50 2.721
318.60 2.719
318.70 2.716
318.80 2.714
318.90 2.711
319.00 2.709
319.10 2.707
319.20 2.704
319.30 2.702
319.40 2.699
319.50 2.697
319.60 2.694
319.70 2.692
319.80 2.69
319.90 2.687
320.00 2.685
320.10 2.682
320.20 2.68
320.30 2.678
320.40 2.675
320.50 2.673
320.60 2.67
320.70 2.668
320.80 2.666
320.90 2.663
321.00 2.661
321.10 2.658
321.20 2.656
321.30 2.654
321.40 2.651
321.50 2.649
321.60 2.647
321.70 2.644
321.80 2.642
321.90 2.639
322.00 2.637
322.10 2.635
322.20 2.632
322.30 2.63
322.40 2.628
322.50 2.625
322.60 2.623
322.70 2.621
322.80 2.618
322.90 2.616
323.00 2.614
323.10 2.611
323.20 2.609
323.30 2.607
323.40 2.604
323.50 2.602
323.60 2.6
323.70 2.597
323.80 2.595
323.90 2.593
324.00 2.591
324.10 2.588
324.20 2.586
324.30 2.584
324.40 2.581
324.50 2.579
324.60 2.577
324.70 2.575
324.80 2.572
324.90 2.57
325.00 2.568
325.10 2.565
325.20 2.563
325.30 2.561
325.40 2.559
325.50 2.556
325.60 2.554
325.70 2.552
325.80 2.55
325.90 2.547
326.00 2.545
326.10 2.543
326.20 2.541
326.30 2.538
326.40 2.536
326.50 2.534
326.60 2.532
326.70 2.529
326.80 2.527
326.90 2.525
327.00 2.523
327.10 2.521
327.20 2.518
327.30 2.516
327.40 2.514
327.50 2.512
327.60 2.51
327.70 2.507
327.80 2.505
327.90 2.503
328.00 2.501
328.10 2.499
328.20 2.496
328.30 2.494
328.40 2.492
328.50 2.49
328.60 2.488
328.70 2.485
328.80 2.483
328.90 2.481
329.00 2.479
329.10 2.477
329.20 2.475
329.30 2.472
329.40 2.47
329.50 2.468
329.60 2.466
329.70 2.464
329.80 2.462
329.90 2.459
330.00 2.457
330.10 2.455
330.20 2.453
330.30 2.451
330.40 2.449
330.50 2.447
330.60 2.444
330.70 2.442
330.80 2.44
330.90 2.438
331.00 2.436
331.10 2.434
331.20 2.432
331.30 2.43
331.40 2.427
331.50 2.425
331.60 2.423
331.70 2.421
331.80 2.419
331.90 2.417
332.00 2.415
332.10 2.413
332.20 2.411
332.30 2.409
332.40 2.406
332.50 2.404
332.60 2.402
332.70 2.4
332.80 2.398
332.90 2.396
333.00 2.394
333.10 2.392
333.20 2.39
333.30 2.388
333.40 2.386
333.50 2.384
333.60 2.382
333.70 2.38
333.80 2.377
333.90 2.375
334.00 2.373
334.10 2.371
334.20 2.369
334.30 2.367
334.40 2.365
334.50 2.363
334.60 2.361
334.70 2.359
334.80 2.357
334.90 2.355
335.00 2.353
335.10 2.351
335.20 2.349
335.30 2.347
335.40 2.345
335.50 2.343
335.60 2.341
335.70 2.339
335.80 2.337
335.90 2.335
336.00 2.333
336.10 2.331
336.20 2.329
336.30 2.327
336.40 2.325
336.50 2.323
336.60 2.321
336.70 2.319
336.80 2.317
336.90 2.315
337.00 2.313
337.10 2.311
337.20 2.309
337.30 2.307
337.40 2.305
337.50 2.303
337.60 2.301
337.70 2.299
337.80 2.297
337.90 2.295
338.00 2.293
338.10 2.291
338.20 2.289
338.30 2.287
338.40 2.285
338.50 2.283
338.60 2.281
338.70 2.279
338.80 2.277
338.90 2.276
339.00 2.274
339.10 2.272
339.20 2.27
339.30 2.268
339.40 2.266
339.50 2.264
339.60 2.262
339.70 2.26
339.80 2.258
339.90 2.256
340.00 2.254
340.10 2.252
340.20 2.25
340.30 2.249
340.40 2.247
340.50 2.245
340.60 2.243
340.70 2.241
340.80 2.239
340.90 2.237
341.00 2.235
341.10 2.233
341.20 2.231
341.30 2.23
341.40 2.228
341.50 2.226
341.60 2.224
341.70 2.222
341.80 2.22
341.90 2.218
342.00 2.216
342.10 2.214
342.20 2.213
342.30 2.211
342.40 2.209
342.50 2.207
342.60 2.205
342.70 2.203
342.80 2.201
342.90 2.2
343.00 2.198
343.10 2.196
343.20 2.194
343.30 2.192
343.40 2.19
343.50 2.188
343.60 2.187
343.70 2.185
343.80 2.183
343.90 2.181
344.00 2.179
344.10 2.177
344.20 2.176
344.30 2.174
344.40 2.172
344.50 2.17
344.60 2.168
344.70 2.166
344.80 2.165
344.90 2.163
345.00 2.161
345.10 2.159
345.20 2.157
345.30 2.155
345.40 2.154
345.50 2.152
345.60 2.15
345.70 2.148
345.80 2.146
345.90 2.145
346.00 2.143
346.10 2.141
346.20 2.139
346.30 2.137
346.40 2.136
346.50 2.134
346.60 2.132
346.70 2.13
346.80 2.129
346.90 2.127
347.00 2.125
347.10 2.123
347.20 2.121
347.30 2.12
347.40 2.118
347.50 2.116
347.60 2.114
347.70 2.113
347.80 2.111
347.90 2.109
348.00 2.107
348.10 2.106
348.20 2.104
348.30 2.102
348.40 2.1
348.50 2.099
348.60 2.097
348.70 2.095
348.80 2.093
348.90 2.092
349.00 2.09
349.10 2.088
349.20 2.086
349.30 2.085
349.40 2.083
349.50 2.081
349.60 2.079
349.70 2.078
349.80 2.076
349.90 2.074
350.00 2.072
350.10 2.071
350.20 2.069
350.30 2.067
350.40 2.066
350.50 2.064
350.60 2.062
350.70 2.06
350.80 2.059
350.90 2.057
351.00 2.055
351.10 2.054
351.20 2.052
351.30 2.05
351.40 2.049
351.50 2.047
351.60 2.045
351.70 2.043
351.80 2.042
351.90 2.04
352.00 2.038
352.10 2.037
352.20 2.035
352.30 2.033
352.40 2.032
352.50 2.03
352.60 2.028
352.70 2.027
352.80 2.025
352.90 2.023
353.00 2.022
353.10 2.02
353.20 2.018
353.30 2.017
353.40 2.015
353.50 2.013
353.60 2.012
353.70 2.01
353.80 2.008
353.90 2.007
354.00 2.005
354.10 2.003
354.20 2.002
354.30 2
354.40 1.999
354.50 1.997
354.60 1.995
354.70 1.994
354.80 1.992
354.90 1.99
355.00 1.989
355.10 1.987
355.20 1.985
355.30 1.984
355.40 1.982
355.50 1.981
355.60 1.979
355.70 1.977
355.80 1.976
355.90 1.974
356.00 1.972
356.10 1.971
356.20 1.969
356.30 1.968
356.40 1.966
356.50 1.964
356.60 1.963
356.70 1.961
356.80 1.96
356.90 1.958
357.00 1.956
357.10 1.955
357.20 1.953
357.30 1.952
357.40 1.95
357.50 1.948
357.60 1.947
357.70 1.945
357.80 1.944
357.90 1.942
358.00 1.94
358.10 1.939
358.20 1.937
358.30 1.936
358.40 1.934
358.50 1.933
358.60 1.931
358.70 1.929
358.80 1.928
358.90 1.926
359.00 1.925
359.10 1.923
359.20 1.922
359.30 1.92
359.40 1.919
359.50 1.917
359.60 1.915
359.70 1.914
359.80 1.912
359.90 1.911
360.00 1.909
360.10 1.908
360.20 1.906
360.30 1.905
360.40 1.903
360.50 1.901
360.60 1.9
360.70 1.898
360.80 1.897
360.90 1.895
361.00 1.894
361.10 1.892
361.20 1.891
361.30 1.889
361.40 1.888
361.50 1.886
361.60 1.885
361.70 1.883
361.80 1.882
361.90 1.88
362.00 1.879
362.10 1.877
362.20 1.876
362.30 1.874
362.40 1.873
362.50 1.871
362.60 1.869
362.70 1.868
362.80 1.866
362.90 1.865
363.00 1.863
363.10 1.862
363.20 1.86
363.30 1.859
363.40 1.857
363.50 1.856
363.60 1.854
363.70 1.853
363.80 1.852
363.90 1.85
364.00 1.849
364.10 1.847
364.20 1.846
364.30 1.844
364.40 1.843
364.50 1.841
364.60 1.84
364.70 1.838
364.80 1.837
364.90 1.835
365.00 1.834
365.10 1.832
365.20 1.831
365.30 1.829
365.40 1.828
365.50 1.826
365.60 1.825
365.70 1.824
365.80 1.822
365.90 1.821
366.00 1.819
366.10 1.817
366.20 1.815
366.30 1.814
366.40 1.812
366.50 1.81
366.60 1.808
366.70 1.806
366.80 1.805
366.90 1.803
367.00 1.801
367.10 1.799
367.20 1.797
367.30 1.795
367.40 1.794
367.50 1.792
367.60 1.79
367.70 1.788
367.80 1.786
367.90 1.785
368.00 1.783
368.10 1.781
368.20 1.779
368.30 1.778
368.40 1.776
368.50 1.774
368.60 1.773
368.70 1.771
368.80 1.769
368.90 1.767
369.00 1.766
369.10 1.764
369.20 1.762
369.30 1.761
369.40 1.759
369.50 1.757
369.60 1.756
369.70 1.754
369.80 1.752
369.90 1.75
370.00 1.749
370.10 1.747
370.20 1.746
370.30 1.744
370.40 1.743
370.50 1.741
370.60 1.74
370.70 1.738
370.80 1.737
370.90 1.735
371.00 1.734
371.10 1.732
371.20 1.731
371.30 1.729
371.40 1.727
371.50 1.726
371.60 1.724
371.70 1.723
371.80 1.721
371.90 1.72
372.00 1.718
372.10 1.717
372.20 1.717
372.30 1.716
372.40 1.715
372.50 1.714
372.60 1.713
372.70 1.712
372.80 1.711
372.90 1.71
373.00 1.709
373.10 1.708
373.20 1.707
373.30 1.706
373.40 1.705
373.50 1.704
373.60 1.703
373.70 1.702
373.80 1.701
373.90 1.7
374.00 1.699
374.10 1.699
374.20 1.698
374.30 1.698
374.40 1.697
374.50 1.697
374.60 1.696
374.70 1.695
374.80 1.695
374.90 1.694
375.00 1.694
375.10 1.693
375.20 1.692
375.30 1.692
375.40 1.691
375.50 1.691
375.60 1.69
375.70 1.69
375.80 1.689
375.90 1.688
376.00 1.688
376.10 1.685
376.20 1.682
376.30 1.679
376.40 1.676
376.50 1.672
376.60 1.669
376.70 1.666
376.80 1.663
376.90 1.66
377.00 1.657
377.10 1.66
377.20 1.663
377.30 1.665
377.40 1.668
377.50 1.671
377.60 1.673
377.70 1.676
377.80 1.679
377.90 1.682
378.00 1.684
378.10 1.681
378.20 1.678
378.30 1.675
378.40 1.673
378.50 1.67
378.60 1.667
378.70 1.664
378.80 1.661
378.90 1.658
379.00 1.655
379.10 1.65
379.20 1.646
379.30 1.641
379.40 1.636
379.50 1.632
379.60 1.627
379.70 1.622
379.80 1.618
379.90 1.613
380.00 1.608
380.10 1.616
380.20 1.624
380.30 1.632
380.40 1.64
380.50 1.647
380.60 1.655
380.70 1.663
380.80 1.671
380.90 1.678
381.00 1.686
381.10 1.687
381.20 1.688
381.30 1.69
381.40 1.691
381.50 1.692
381.60 1.69
381.70 1.687
381.80 1.682
381.90 1.676
382.00 1.669
382.10 1.661
382.20 1.652
382.30 1.636
382.40 1.621
382.50 1.605
382.60 1.59
382.70 1.574
382.80 1.559
382.90 1.544
383.00 1.528
383.10 1.513
383.20 1.497
383.30 1.478
383.40 1.459
383.50 1.441
383.60 1.445
383.70 1.463
383.80 1.483
383.90 1.503
384.00 1.523
384.10 1.542
384.20 1.561
384.30 1.579
384.40 1.597
384.50 1.613
384.60 1.629
384.70 1.644
384.80 1.658
384.90 1.67
385.00 1.682
385.10 1.692
385.20 1.702
385.30 1.711
385.40 1.718
385.50 1.724
385.60 1.729
385.70 1.732
385.80 1.735
385.90 1.736
386.00 1.736
386.10 1.735
386.20 1.733
386.30 1.729
386.40 1.724
386.50 1.718
386.60 1.71
386.70 1.701
386.80 1.691
386.90 1.68
387.00 1.667
387.10 1.653
387.20 1.637
387.30 1.62
387.40 1.602
387.50 1.583
387.60 1.562
387.70 1.54
387.80 1.517
387.90 1.493
388.00 1.467
388.10 1.441
388.20 1.414
388.30 1.386
388.40 1.356
388.50 1.327
388.60 1.297
388.70 1.267
388.80 1.24
388.90 1.217
389.00 1.237
389.10 1.262
389.20 1.291
389.30 1.32
389.40 1.349
389.50 1.377
389.60 1.404
389.70 1.431
389.80 1.457
389.90 1.482
390.00 1.507
390.10 1.531
390.20 1.553
390.30 1.575
390.40 1.596
390.50 1.615
390.60 1.634
390.70 1.652
390.80 1.669
390.90 1.685
391.00 1.701
391.10 1.715
391.20 1.728
391.30 1.741
391.40 1.752
391.50 1.763
391.60 1.773
391.70 1.781
391.80 1.789
391.90 1.797
392.00 1.803
392.10 1.808
392.20 1.813
392.30 1.817
392.40 1.82
392.50 1.822
392.60 1.823
392.70 1.824
392.80 1.824
392.90 1.822
393.00 1.82
393.10 1.818
393.20 1.814
393.30 1.81
393.40 1.804
393.50 1.798
393.60 1.791
393.70 1.783
393.80 1.774
393.90 1.764
394.00 1.754
394.10 1.742
394.20 1.73
394.30 1.716
394.40 1.702
394.50 1.686
394.60 1.67
394.70 1.653
394.80 1.635
394.90 1.616
395.00 1.595
395.10 1.574
395.20 1.552
395.30 1.529
395.40 1.505
395.50 1.48
395.60 1.454
395.70 1.428
395.80 1.4
395.90 1.372
396.00 1.342
396.10 1.312
396.20 1.281
396.30 1.249
396.40 1.217
396.50 1.184
396.60 1.149
396.70 1.114
396.80 1.076
396.90 1.034
397.00 0.9876
397.10 1.029
397.20 1.068
397.30 1.105
397.40 1.139
397.50 1.173
397.60 1.205
397.70 1.235
397.80 1.266
397.90 1.295
398.00 1.324
398.10 1.351
398.20 1.378
398.30 1.404
398.40 1.429
398.50 1.454
398.60 1.477
398.70 1.5
398.80 1.522
398.90 1.543
399.00 1.563
399.10 1.583
399.20 1.601
399.30 1.619
399.40 1.636
399.50 1.652
399.60 1.668
399.70 1.683
399.80 1.697
399.90 1.71
400.00 1.723
400.10 1.735
400.20 1.746
400.30 1.757
400.40 1.768
400.50 1.777
400.60 1.787
400.70 1.795
400.80 1.803
400.90 1.811
401.00 1.818
401.10 1.825
401.20 1.831
401.30 1.837
401.40 1.842
401.50 1.847
401.60 1.852
401.70 1.856
401.80 1.86
401.90 1.863
402.00 1.867
402.10 1.869
402.20 1.872
402.30 1.874
402.40 1.876
402.50 1.878
402.60 1.879
402.70 1.88
402.80 1.88
402.90 1.881
403.00 1.881
403.10 1.881
403.20 1.881
403.30 1.88
403.40 1.879
403.50 1.878
403.60 1.876
403.70 1.875
403.80 1.873
403.90 1.87
404.00 1.868
404.10 1.865
404.20 1.862
404.30 1.859
404.40 1.855
404.50 1.851
404.60 1.847
404.70 1.842
404.80 1.838
404.90 1.832
405.00 1.827
405.10 1.821
405.20 1.815
405.30 1.809
405.40 1.802
405.50 1.795
405.60 1.787
405.70 1.779
405.80 1.771
405.90 1.762
406.00 1.753
406.10 1.744
406.20 1.734
406.30 1.724
406.40 1.713
406.50 1.701
406.60 1.69
406.70 1.677
406.80 1.664
406.90 1.651
407.00 1.637
407.10 1.623
407.20 1.608
407.30 1.592
407.40 1.576
407.50 1.559
407.60 1.542
407.70 1.524
407.80 1.505
407.90 1.486
408.00 1.466
408.10 1.445
408.20 1.424
408.30 1.402
408.40 1.38
408.50 1.356
408.60 1.332
408.70 1.308
408.80 1.282
408.90 1.256
409.00 1.23
409.10 1.203
409.20 1.175
409.30 1.146
409.40 1.116
409.50 1.086
409.60 1.055
409.70 1.023
409.80 0.9887
409.90 0.953
410.00 0.9094
410.10 0.8683
410.20 0.8297
410.30 0.8843
410.40 0.9309
410.50 0.9695
410.60 1.002
410.70 1.034
410.80 1.065
410.90 1.093
411.00 1.122
411.10 1.149
411.20 1.176
411.30 1.201
411.40 1.227
411.50 1.251
411.60 1.274
411.70 1.297
411.80 1.319
411.90 1.341
412.00 1.362
412.10 1.381
412.20 1.401
412.30 1.42
412.40 1.437
412.50 1.454
412.60 1.471
412.70 1.487
412.80 1.502
412.90 1.517
413.00 1.531
413.10 1.545
413.20 1.558
413.30 1.57
413.40 1.582
413.50 1.593
413.60 1.604
413.70 1.614
413.80 1.624
413.90 1.634
414.00 1.642
414.10 1.651
414.20 1.659
414.30 1.667
414.40 1.674
414.50 1.681
414.60 1.688
414.70 1.694
414.80 1.7
414.90 1.706
415.00 1.711
415.10 1.716
415.20 1.721
415.30 1.725
415.40 1.73
415.50 1.734
415.60 1.738
415.70 1.741
415.80 1.744
415.90 1.748
416.00 1.751
416.10 1.753
416.20 1.756
416.30 1.758
416.40 1.761
416.50 1.763
416.60 1.765
416.70 1.766
416.80 1.768
416.90 1.77
417.00 1.771
417.10 1.772
417.20 1.774
417.30 1.775
417.40 1.776
417.50 1.776
417.60 1.777
417.70 1.778
417.80 1.778
417.90 1.779
418.00 1.779
418.10 1.78
418.20 1.78
418.30 1.78
418.40 1.78
418.50 1.78
418.60 1.78
418.70 1.78
418.80 1.78
418.90 1.78
419.00 1.78
419.10 1.779
419.20 1.779
419.30 1.779
419.40 1.778
419.50 1.778
419.60 1.777
419.70 1.777
419.80 1.776
419.90 1.775
420.00 1.775
420.10 1.774
420.20 1.773
420.30 1.772
420.40 1.772
420.50 1.771
420.60 1.77
420.70 1.769
420.80 1.768
420.90 1.767
421.00 1.766
421.10 1.765
421.20 1.763
421.30 1.762
421.40 1.761
421.50 1.76
421.60 1.759
421.70 1.757
421.80 1.756
421.90 1.755
422.00 1.753
422.10 1.752
422.20 1.751
422.30 1.749
422.40 1.748
422.50 1.746
422.60 1.745
422.70 1.743
422.80 1.742
422.90 1.74
423.00 1.738
423.10 1.737
423.20 1.735
423.30 1.733
423.40 1.732
423.50 1.73
423.60 1.728
423.70 1.726
423.80 1.724
423.90 1.722
424.00 1.721
424.10 1.719
424.20 1.717
424.30 1.715
424.40 1.713
424.50 1.71
424.60 1.708
424.70 1.706
424.80 1.704
424.90 1.702
425.00 1.699
425.10 1.697
425.20 1.695
425.30 1.692
425.40 1.69
425.50 1.687
425.60 1.685
425.70 1.682
425.80 1.68
425.90 1.677
426.00 1.674
426.10 1.671
426.20 1.668
426.30 1.665
426.40 1.662
426.50 1.659
426.60 1.656
426.70 1.653
426.80 1.649
426.90 1.646
427.00 1.643
427.10 1.639
427.20 1.635
427.30 1.631
427.40 1.627
427.50 1.623
427.60 1.619
427.70 1.615
427.80 1.611
427.90 1.606
428.00 1.601
428.10 1.596
428.20 1.592
428.30 1.586
428.40 1.581
428.50 1.576
428.60 1.57
428.70 1.564
428.80 1.558
428.90 1.551
429.00 1.545
429.10 1.538
429.20 1.531
429.30 1.524
429.40 1.517
429.50 1.509
429.60 1.501
429.70 1.493
429.80 1.484
429.90 1.475
430.00 1.466
430.10 1.456
430.20 1.447
430.30 1.437
430.40 1.426
430.50 1.415
430.60 1.405
430.70 1.393
430.80 1.381
430.90 1.369
431.00 1.357
431.10 1.344
431.20 1.33
431.30 1.317
431.40 1.302
431.50 1.288
431.60 1.273
431.70 1.257
431.80 1.241
431.90 1.225
432.00 1.208
432.10 1.19
432.20 1.172
432.30 1.154
432.40 1.135
432.50 1.115
432.60 1.095
432.70 1.074
432.80 1.053
432.90 1.031
433.00 1.009
433.10 0.9862
433.20 0.9627
433.30 0.9386
433.40 0.9133
433.50 0.8871
433.60 0.8601
433.70 0.83
433.80 0.7954
433.90 0.7563
434.00 0.6782
434.10 0.679
434.20 0.7588
434.30 0.796
434.40 0.8291
434.50 0.8579
434.60 0.8837
434.70 0.9086
434.80 0.9325
434.90 0.9552
435.00 0.9773
435.10 0.9989
435.20 1.019
435.30 1.04
435.40 1.059
435.50 1.078
435.60 1.096
435.70 1.114
435.80 1.131
435.90 1.148
436.00 1.164
436.10 1.179
436.20 1.194
436.30 1.209
436.40 1.223
436.50 1.236
436.60 1.249
436.70 1.261
436.80 1.273
436.90 1.285
437.00 1.296
437.10 1.306
437.20 1.316
437.30 1.326
437.40 1.335
437.50 1.344
437.60 1.353
437.70 1.361
437.80 1.369
437.90 1.377
438.00 1.384
438.10 1.391
438.20 1.397
438.30 1.404
438.40 1.41
438.50 1.415
438.60 1.421
438.70 1.426
438.80 1.431
438.90 1.435
439.00 1.44
439.10 1.444
439.20 1.448
439.30 1.451
439.40 1.455
439.50 1.458
439.60 1.461
439.70 1.464
439.80 1.467
439.90 1.469
440.00 1.472
440.10 1.474
440.20 1.476
440.30 1.478
440.40 1.48
440.50 1.481
440.60 1.483
440.70 1.484
440.80 1.486
440.90 1.487
441.00 1.488
441.10 1.489
441.20 1.49
441.30 1.491
441.40 1.492
441.50 1.492
441.60 1.493
441.70 1.494
441.80 1.494
441.90 1.495
442.00 1.495
442.10 1.495
442.20 1.496
442.30 1.496
442.40 1.496
442.50 1.496
442.60 1.496
442.70 1.496
442.80 1.496
442.90 1.496
443.00 1.496
443.10 1.496
443.20 1.496
443.30 1.496
443.40 1.496
443.50 1.495
443.60 1.495
443.70 1.495
443.80 1.494
443.90 1.494
444.00 1.494
444.10 1.493
444.20 1.493
444.30 1.492
444.40 1.492
444.50 1.492
444.60 1.491
444.70 1.491
444.80 1.49
444.90 1.489
445.00 1.489
445.10 1.488
445.20 1.488
445.30 1.487
445.40 1.486
445.50 1.486
445.60 1.485
445.70 1.484
445.80 1.484
445.90 1.483
446.00 1.482
446.10 1.482
446.20 1.481
446.30 1.48
446.40 1.479
446.50 1.479
446.60 1.478
446.70 1.477
446.80 1.476
446.90 1.475
447.00 1.475
447.10 1.474
447.20 1.473
447.30 1.472
447.40 1.471
447.50 1.471
447.60 1.47
447.70 1.469
447.80 1.468
447.90 1.467
448.00 1.466
448.10 1.465
448.20 1.464
448.30 1.464
448.40 1.463
448.50 1.462
448.60 1.461
448.70 1.46
448.80 1.459
448.90 1.458
449.00 1.457
449.10 1.456
449.20 1.455
449.30 1.454
449.40 1.453
449.50 1.452
449.60 1.452
449.70 1.451
449.80 1.45
449.90 1.449
450.00 1.448
450.10 1.447
450.20 1.446
450.30 1.445
450.40 1.444
450.50 1.443
450.60 1.442
450.70 1.441
450.80 1.44
450.90 1.439
451.00 1.438
451.10 1.437
451.20 1.436
451.30 1.435
451.40 1.434
451.50 1.433
451.60 1.432
451.70 1.431
451.80 1.43
451.90 1.429
452.00 1.428
452.10 1.427
452.20 1.426
452.30 1.425
452.40 1.424
452.50 1.423
452.60 1.422
452.70 1.421
452.80 1.42
452.90 1.419
453.00 1.418
453.10 1.417
453.20 1.416
453.30 1.415
453.40 1.414
453.50 1.413
453.60 1.412
453.70 1.411
453.80 1.41
453.90 1.409
454.00 1.408
454.10 1.407
454.20 1.406
454.30 1.405
454.40 1.404
454.50 1.403
454.60 1.401
454.70 1.4
454.80 1.399
454.90 1.398
455.00 1.397
455.10 1.396
455.20 1.395
455.30 1.394
455.40 1.393
455.50 1.392
455.60 1.391
455.70 1.39
455.80 1.389
455.90 1.388
456.00 1.387
456.10 1.386
456.20 1.385
456.30 1.384
456.40 1.383
456.50 1.382
456.60 1.381
456.70 1.38
456.80 1.379
456.90 1.378
457.00 1.377
457.10 1.376
457.20 1.375
457.30 1.374
457.40 1.373
457.50 1.372
457.60 1.371
457.70 1.37
457.80 1.369
457.90 1.368
458.00 1.366
458.10 1.365
458.20 1.364
458.30 1.363
458.40 1.362
458.50 1.361
458.60 1.36
458.70 1.359
458.80 1.358
458.90 1.357
459.00 1.356
459.10 1.355
459.20 1.354
459.30 1.353
459.40 1.352
459.50 1.351
459.60 1.35
459.70 1.349
459.80 1.348
459.90 1.347
460.00 1.346
460.10 1.345
460.20 1.344
460.30 1.343
460.40 1.342
460.50 1.341
460.60 1.34
460.70 1.339
460.80 1.338
460.90 1.337
461.00 1.336
461.10 1.335
461.20 1.334
461.30 1.333
461.40 1.331
461.50 1.33
461.60 1.329
461.70 1.328
461.80 1.327
461.90 1.326
462.00 1.325
462.10 1.324
462.20 1.323
462.30 1.322
462.40 1.321
462.50 1.32
462.60 1.319
462.70 1.318
462.80 1.317
462.90 1.316
463.00 1.315
463.10 1.314
463.20 1.313
463.30 1.312
463.40 1.311
463.50 1.31
463.60 1.309
463.70 1.308
463.80 1.307
463.90 1.306
464.00 1.305
464.10 1.304
464.20 1.303
464.30 1.302
464.40 1.301
464.50 1.3
464.60 1.299
464.70 1.298
464.80 1.296
464.90 1.295
465.00 1.294
465.10 1.293
465.20 1.292
465.30 1.291
465.40 1.29
465.50 1.289
465.60 1.288
465.70 1.287
465.80 1.286
465.90 1.285
466.00 1.284
466.10 1.283
466.20 1.282
466.30 1.281
466.40 1.28
466.50 1.279
466.60 1.278
466.70 1.277
466.80 1.276
466.90 1.275
467.00 1.274
467.10 1.273
467.20 1.272
467.30 1.271
467.40 1.269
467.50 1.268
467.60 1.267
467.70 1.266
467.80 1.265
467.90 1.264
468.00 1.263
468.10 1.262
468.20 1.261
468.30 1.26
468.40 1.259
468.50 1.258
468.60 1.257
468.70 1.256
468.80 1.255
468.90 1.254
469.00 1.253
469.10 1.251
469.20 1.25
469.30 1.249
469.40 1.248
469.50 1.247
469.60 1.246
469.70 1.245
469.80 1.244
469.90 1.243
470.00 1.242
470.10 1.241
470.20 1.24
470.30 1.238
470.40 1.237
470.50 1.236
470.60 1.235
470.70 1.234
470.80 1.233
470.90 1.232
471.00 1.231
471.10 1.23
471.20 1.228
471.30 1.227
471.40 1.226
471.50 1.225
471.60 1.224
471.70 1.223
471.80 1.221
471.90 1.22
472.00 1.219
472.10 1.218
472.20 1.217
472.30 1.216
472.40 1.214
472.50 1.213
472.60 1.212
472.70 1.211
472.80 1.21
472.90 1.208
473.00 1.207
473.10 1.206
473.20 1.205
473.30 1.204
473.40 1.202
473.50 1.201
473.60 1.2
473.70 1.198
473.80 1.197
473.90 1.196
474.00 1.195
474.10 1.193
474.20 1.192
474.30 1.191
474.40 1.189
474.50 1.188
474.60 1.187
474.70 1.185
474.80 1.184
474.90 1.183
475.00 1.181
475.10 1.18
475.20 1.178
475.30 1.177
475.40 1.175
475.50 1.174
475.60 1.172
475.70 1.171
475.80 1.169
475.90 1.168
476.00 1.166
476.10 1.165
476.20 1.163
476.30 1.161
476.40 1.16
476.50 1.158
476.60 1.156
476.70 1.155
476.80 1.153
476.90 1.151
477.00 1.15
477.10 1.148
477.20 1.146
477.30 1.144
477.40 1.142
477.50 1.14
477.60 1.138
477.70 1.136
477.80 1.134
477.90 1.132
478.00 1.13
478.10 1.128
478.20 1.126
478.30 1.124
478.40 1.121
478.50 1.119
478.60 1.117
478.70 1.114
478.80 1.112
478.90 1.11
479.00 1.107
479.10 1.105
479.20 1.102
479.30 1.099
479.40 1.096
479.50 1.093
479.60 1.09
479.70 1.087
479.80 1.084
479.90 1.082
480.00 1.079
480.10 1.076
480.20 1.072
480.30 1.068
480.40 1.065
480.50 1.061
480.60 1.057
480.70 1.053
480.80 1.049
480.90 1.046
481.00 1.042
481.10 1.038
481.20 1.034
481.30 1.029
481.40 1.024
481.50 1.019
481.60 1.014
481.70 1.009
481.80 1.004
481.90 0.9987
482.00 0.9937
482.10 0.9887
482.20 0.9826
482.30 0.9759
482.40 0.9692
482.50 0.9625
482.60 0.9558
482.70 0.9491
482.80 0.9425
482.90 0.9358
483.00 0.9292
483.10 0.9225
483.20 0.9143
483.30 0.9054
483.40 0.8964
483.50 0.8875
483.60 0.8786
483.70 0.8697
483.80 0.8608
483.90 0.8519
484.00 0.843
484.10 0.8341
484.20 0.8238
484.30 0.8129
484.40 0.8019
484.50 0.791
484.60 0.7801
484.70 0.7681
484.80 0.7556
484.90 0.7431
485.00 0.7306
485.10 0.7181
485.20 0.7047
485.30 0.6908
485.40 0.6761
485.50 0.6611
485.60 0.6448
485.70 0.628
485.80 0.6073
485.90 0.585
486.00 0.5531
486.10 0.4687
486.20 0.511
486.30 0.5659
486.40 0.5907
486.50 0.6126
486.60 0.6306
486.70 0.6468
486.80 0.6616
486.90 0.6758
487.00 0.6891
487.10 0.7021
487.20 0.714
487.30 0.7255
487.40 0.737
487.50 0.7485
487.60 0.76
487.70 0.7703
487.80 0.7801
487.90 0.7898
488.00 0.7996
488.10 0.8093
488.20 0.8176
488.30 0.8251
488.40 0.8327
488.50 0.8402
488.60 0.8478
488.70 0.8553
488.80 0.8629
488.90 0.8704
489.00 0.8779
489.10 0.8855
489.20 0.8914
489.30 0.8965
489.40 0.9016
489.50 0.9068
489.60 0.9119
489.70 0.917
489.80 0.9221
489.90 0.9273
490.00 0.9324
490.10 0.9375
490.20 0.9414
490.30 0.9447
490.40 0.9481
490.50 0.9514
490.60 0.9547
490.70 0.9581
490.80 0.9614
490.90 0.9647
491.00 0.968
491.10 0.9713
491.20 0.9738
491.30 0.9759
491.40 0.9779
491.50 0.98
491.60 0.9821
491.70 0.9841
491.80 0.9862
491.90 0.9883
492.00 0.9903
492.10 0.9924
492.20 0.9939
492.30 0.9951
492.40 0.9963
492.50 0.9975
492.60 0.9987
492.70 0.9999
492.80 1.001
492.90 1.002
493.00 1.004
493.10 1.005
493.20 1.006
493.30 1.006
493.40 1.007
493.50 1.007
493.60 1.008
493.70 1.009
493.80 1.009
493.90 1.01
494.00 1.011
494.10 1.011
494.20 1.012
494.30 1.012
494.40 1.012
494.50 1.012
494.60 1.013
494.70 1.013
494.80 1.013
494.90 1.013
495.00 1.013
495.10 1.014
495.20 1.014
495.30 1.014
495.40 1.014
495.50 1.014
495.60 1.014
495.70 1.014
495.80 1.014
495.90 1.014
496.00 1.014
496.10 1.014
496.20 1.013
496.30 1.013
496.40 1.013
496.50 1.013
496.60 1.013
496.70 1.012
496.80 1.012
496.90 1.012
497.00 1.012
497.10 1.012
497.20 1.011
497.30 1.011
497.40 1.011
497.50 1.01
497.60 1.01
497.70 1.01
497.80 1.009
497.90 1.009
498.00 1.009
498.10 1.008
498.20 1.008
498.30 1.008
498.40 1.007
498.50 1.007
498.60 1.006
498.70 1.006
498.80 1.006
498.90 1.005
499.00 1.005
499.10 1.004
499.20 1.004
499.30 1.003
499.40 1.003
499.50 1.002
499.60 1.002
499.70 1.001
499.80 1.001
499.90 1
500.00 1
500.10 0.9995
500.20 0.999
500.30 0.9985
500.40 0.998
500.50 0.9975
500.60 0.9969
500.70 0.9964
500.80 0.9959
500.90 0.9954
501.00 0.9949
501.10 0.9943
501.20 0.9938
501.30 0.9932
501.40 0.9927
501.50 0.9921
501.60 0.9916
501.70 0.991
501.80 0.9905
501.90 0.9899
502.00 0.9894
502.10 0.9888
502.20 0.9883
502.30 0.9877
502.40 0.9871
502.50 0.9865
502.60 0.986
502.70 0.9854
502.80 0.9848
502.90 0.9842
503.00 0.9837
503.10 0.9831
503.20 0.9825
503.30 0.9819
503.40 0.9813
503.50 0.9807
503.60 0.9801
503.70 0.9795
503.80 0.979
503.90 0.9784
504.00 0.9778
504.10 0.9772
504.20 0.9766
504.30 0.976
504.40 0.9754
504.50 0.9748
504.60 0.9742
504.70 0.9736
504.80 0.973
504.90 0.9724
505.00 0.9718
505.10 0.9712
505.20 0.9706
505.30 0.97
505.40 0.9693
505.50 0.9687
505.60 0.9681
505.70 0.9675
505.80 0.9669
505.90 0.9663
506.00 0.9657
506.10 0.9651
506.20 0.9645
506.30 0.9639
506.40 0.9632
506.50 0.9626
506.60 0.962
506.70 0.9614
506.80 0.9608
506.90 0.9602
507.00 0.9596
507.10 0.959
507.20 0.9583
507.30 0.9577
507.40 0.9571
507.50 0.9565
507.60 0.9559
507.70 0.9552
507.80 0.9546
507.90 0.954
508.00 0.9534
508.10 0.9528
508.20 0.9522
508.30 0.9515
508.40 0.9509
508.50 0.9503
508.60 0.9497
508.70 0.9491
508.80 0.9484
508.90 0.9478
509.00 0.9472
509.10 0.9466
509.20 0.946
509.30 0.9454
509.40 0.9447
509.50 0.9441
509.60 0.9435
509.70 0.9429
509.80 0.9423
509.90 0.9416
510.00 0.941
510.10 0.9404
510.20 0.9398
510.30 0.9392
510.40 0.9386
510.50 0.9379
510.60 0.9373
510.70 0.9367
510.80 0.9361
510.90 0.9355
511.00 0.9349
511.10 0.9342
511.20 0.9336
511.30 0.933
511.40 0.9324
511.50 0.9318
511.60 0.9312
511.70 0.9305
511.80 0.9299
511.90 0.9293
512.00 0.9287
512.10 0.9281
512.20 0.9275
512.30 0.9268
512.40 0.9262
512.50 0.9256
512.60 0.925
512.70 0.9244
512.80 0.9238
512.90 0.9232
513.00 0.9225
513.10 0.9219
513.20 0.9213
513.30 0.9207
513.40 0.9201
513.50 0.9195
513.60 0.9189
513.70 0.9183
513.80 0.9177
513.90 0.917
514.00 0.9164
514.10 0.9158
514.20 0.9152
514.30 0.9146
514.40 0.914
514.50 0.9134
514.60 0.9128
514.70 0.9122
514.80 0.9116
514.90 0.911
515.00 0.9104
515.10 0.9098
515.20 0.9091
515.30 0.9085
515.40 0.9079
515.50 0.9073
515.60 0.9067
515.70 0.9061
515.80 0.9055
515.90 0.9049
516.00 0.9043
516.10 0.9037
516.20 0.9031
516.30 0.9025
516.40 0.9019
516.50 0.9013
516.60 0.9007
516.70 0.9001
516.80 0.8995
516.90 0.8989
517.00 0.8983
517.10 0.8977
517.20 0.8971
517.30 0.8965
517.40 0.8959
517.50 0.8953
517.60 0.8947
517.70 0.8941
517.80 0.8935
517.90 0.8929
518.00 0.8923
518.10 0.8917
518.20 0.8911
518.30 0.8905
518.40 0.8899
518.50 0.8893
518.60 0.8887
518.70 0.8882
518.80 0.8876
518.90 0.887
519.00 0.8864
519.10 0.8858
519.20 0.8852
519.30 0.8846
519.40 0.884
519.50 0.8834
519.60 0.8828
519.70 0.8822
519.80 0.8817
519.90 0.8811
520.00 0.8805
520.10 0.8799
520.20 0.8793
520.30 0.8787
520.40 0.8781
520.50 0.8775
520.60 0.877
520.70 0.8764
520.80 0.8758
520.90 0.8752
521.00 0.8746
521.10 0.874
521.20 0.8735
521.30 0.8729
521.40 0.8723
521.50 0.8717
521.60 0.8711
521.70 0.8705
521.80 0.87
521.90 0.8694
522.00 0.8688
522.10 0.8682
522.20 0.8676
522.30 0.8671
522.40 0.8665
522.50 0.8659
522.60 0.8653
522.70 0.8648
522.80 0.8642
522.90 0.8636
523.00 0.863
523.10 0.8625
523.20 0.8619
523.30 0.8613
523.40 0.8607
523.50 0.8602
523.60 0.8596
523.70 0.859
523.80 0.8584
523.90 0.8579
524.00 0.8573
524.10 0.8567
524.20 0.8562
524.30 0.8556
524.40 0.855
524.50 0.8545
524.60 0.8539
524.70 0.8533
524.80 0.8528
524.90 0.8522
525.00 0.8516
525.10 0.8511
525.20 0.8505
525.30 0.8499
525.40 0.8494
525.50 0.8488
525.60 0.8482
525.70 0.8477
525.80 0.8471
525.90 0.8465
526.00 0.846
526.10 0.8454
526.20 0.8449
526.30 0.8443
526.40 0.8437
526.50 0.8432
526.60 0.8426
526.70 0.8421
526.80 0.8415
526.90 0.8409
527.00 0.8404
527.10 0.8398
527.20 0.8393
527.30 0.8387
527.40 0.8382
527.50 0.8376
527.60 0.837
527.70 0.8365
527.80 0.8359
527.90 0.8354
528.00 0.8348
528.10 0.8343
528.20 0.8337
528.30 0.8332
528.40 0.8326
528.50 0.8321
528.60 0.8315
528.70 0.831
528.80 0.8304
528.90 0.8299
529.00 0.8293
529.10 0.8288
529.20 0.8282
529.30 0.8277
529.40 0.8271
529.50 0.8266
529.60 0.826
529.70 0.8255
529.80 0.8249
529.90 0.8244
530.00 0.8238
530.10 0.8233
530.20 0.8228
530.30 0.8222
530.40 0.8217
530.50 0.8211
530.60 0.8206
530.70 0.82
530.80 0.8195
530.90 0.819
531.00 0.8184
531.10 0.8179
531.20 0.8173
531.30 0.8168
531.40 0.8163
531.50 0.8157
531.60 0.8152
531.70 0.8146
531.80 0.8141
531.90 0.8136
532.00 0.813
532.10 0.8125
532.20 0.812
532.30 0.8114
532.40 0.8109
532.50 0.8104
532.60 0.8098
532.70 0.8093
532.80 0.8088
532.90 0.8082
533.00 0.8077
533.10 0.8072
533.20 0.8066
533.30 0.8061
533.40 0.8056
533.50 0.805
533.60 0.8045
533.70 0.804
533.80 0.8035
533.90 0.8029
534.00 0.8024
534.10 0.8019
534.20 0.8013
534.30 0.8008
534.40 0.8003
534.50 0.7998
534.60 0.7992
534.70 0.7987
534.80 0.7982
534.90 0.7977
535.00 0.7971
535.10 0.7966
535.20 0.7961
535.30 0.7956
535.40 0.795
535.50 0.7945
535.60 0.794
535.70 0.7935
535.80 0.793
535.90 0.7924
536.00 0.7919
536.10 0.7914
536.20 0.7909
536.30 0.7904
536.40 0.7899
536.50 0.7893
536.60 0.7888
536.70 0.7883
536.80 0.7878
536.90 0.7873
537.00 0.7868
537.10 0.7862
537.20 0.7857
537.30 0.7852
537.40 0.7847
537.50 0.7842
537.60 0.7837
537.70 0.7832
537.80 0.7826
537.90 0.7821
538.00 0.7816
538.10 0.7811
538.20 0.7806
538.30 0.7801
538.40 0.7796
538.50 0.7791
538.60 0.7786
538.70 0.7781
538.80 0.7775
538.90 0.777
539.00 0.7765
539.10 0.776
539.20 0.7755
539.30 0.775
539.40 0.7745
539.50 0.774
539.60 0.7735
539.70 0.773
539.80 0.7725
539.90 0.772
540.00 0.7715
540.10 0.771
540.20 0.7705
540.30 0.77
540.40 0.7695
540.50 0.769
540.60 0.7685
540.70 0.768
540.80 0.7675
540.90 0.767
541.00 0.7665
541.10 0.766
541.20 0.7655
541.30 0.765
541.40 0.7645
541.50 0.764
541.60 0.7635
541.70 0.763
541.80 0.7625
541.90 0.762
542.00 0.7615
542.10 0.761
542.20 0.7605
542.30 0.76
542.40 0.7595
542.50 0.759
542.60 0.7585
542.70 0.758
542.80 0.7576
542.90 0.7571
543.00 0.7566
543.10 0.7561
543.20 0.7556
543.30 0.7551
543.40 0.7546
543.50 0.7541
543.60 0.7536
543.70 0.7531
543.80 0.7527
543.90 0.7522
544.00 0.7517
544.10 0.7512
544.20 0.7507
544.30 0.7502
544.40 0.7497
544.50 0.7493
544.60 0.7488
544.70 0.7483
544.80 0.7478
544.90 0.7473
545.00 0.7468
545.10 0.7464
545.20 0.7459
545.30 0.7454
545.40 0.7449
545.50 0.7444
545.60 0.7439
545.70 0.7435
545.80 0.743
545.90 0.7425
546.00 0.742
546.10 0.7415
546.20 0.7411
546.30 0.7406
546.40 0.7401
546.50 0.7396
546.60 0.7392
546.70 0.7387
546.80 0.7382
546.90 0.7377
547.00 0.7373
547.10 0.7368
547.20 0.7363
547.30 0.7358
547.40 0.7354
547.50 0.7349
547.60 0.7344
547.70 0.7339
547.80 0.7335
547.90 0.733
548.00 0.7325
548.10 0.732
548.20 0.7316
548.30 0.7311
548.40 0.7306
548.50 0.7302
548.60 0.7297
548.70 0.7292
548.80 0.7288
548.90 0.7283
549.00 0.7278
549.10 0.7273
549.20 0.7269
549.30 0.7264
549.40 0.7259
549.50 0.7255
549.60 0.725
549.70 0.7246
549.80 0.7241
549.90 0.7236
550.00 0.7232
550.10 0.7227
550.20 0.7222
550.30 0.7218
550.40 0.7213
550.50 0.7208
550.60 0.7204
550.70 0.7199
550.80 0.7195
550.90 0.719
551.00 0.7185
551.10 0.7181
551.20 0.7176
551.30 0.7172
551.40 0.7167
551.50 0.7162
551.60 0.7158
551.70 0.7153
551.80 0.7149
551.90 0.7144
552.00 0.714
552.10 0.7135
552.20 0.713
552.30 0.7126
552.40 0.7121
552.50 0.7117
552.60 0.7112
552.70 0.7108
552.80 0.7103
552.90 0.7099
553.00 0.7094
553.10 0.7089
553.20 0.7085
553.30 0.708
553.40 0.7076
553.50 0.7071
553.60 0.7067
553.70 0.7062
553.80 0.7058
553.90 0.7053
554.00 0.7049
554.10 0.7044
554.20 0.704
554.30 0.7035
554.40 0.7031
554.50 0.7026
554.60 0.7022
554.70 0.7018
554.80 0.7013
554.90 0.7009
555.00 0.7004
555.10 0.7
555.20 0.6995
555.30 0.6991
555.40 0.6986
555.50 0.6982
555.60 0.6977
555.70 0.6973
555.80 0.6969
555.90 0.6964
556.00 0.696
556.10 0.6955
556.20 0.6951
556.30 0.6946
556.40 0.6942
556.50 0.6938
556.60 0.6933
556.70 0.6929
556.80 0.6924
556.90 0.692
557.00 0.6916
557.10 0.6911
557.20 0.6907
557.30 0.6902
557.40 0.6898
557.50 0.6894
557.60 0.6889
557.70 0.6885
557.80 0.6881
557.90 0.6876
558.00 0.6872
558.10 0.6868
558.20 0.6863
558.30 0.6859
558.40 0.6855
558.50 0.685
558.60 0.6846
558.70 0.6842
558.80 0.6837
558.90 0.6833
559.00 0.6829
559.10 0.6824
559.20 0.682
559.30 0.6816
559.40 0.6811
559.50 0.6807
559.60 0.6803
559.70 0.6798
559.80 0.6794
559.90 0.679
560.00 0.6785
560.10 0.6781
560.20 0.6777
560.30 0.6773
560.40 0.6768
560.50 0.6764
560.60 0.676
560.70 0.6756
560.80 0.6751
560.90 0.6747
561.00 0.6743
561.10 0.6739
561.20 0.6734
561.30 0.673
561.40 0.6726
561.50 0.6722
561.60 0.6717
561.70 0.6713
561.80 0.6709
561.90 0.6705
562.00 0.67
562.10 0.6696
562.20 0.6692
562.30 0.6688
562.40 0.6684
562.50 0.6679
562.60 0.6675
562.70 0.6671
562.80 0.6667
562.90 0.6663
563.00 0.6658
563.10 0.6654
563.20 0.665
563.30 0.6646
563.40 0.6642
563.50 0.6638
563.60 0.6633
563.70 0.6629
563.80 0.6625
563.90 0.6621
564.00 0.6617
564.10 0.6613
564.20 0.6608
564.30 0.6604
564.40 0.66
564.50 0.6596
564.60 0.6592
564.70 0.6588
564.80 0.6584
564.90 0.6579
565.00 0.6575
565.10 0.6571
565.20 0.6567
565.30 0.6563
565.40 0.6559
565.50 0.6555
565.60 0.6551
565.70 0.6547
565.80 0.6543
565.90 0.6538
566.00 0.6534
566.10 0.653
566.20 0.6526
566.30 0.6522
566.40 0.6518
566.50 0.6514
566.60 0.651
566.70 0.6506
566.80 0.6502
566.90 0.6498
567.00 0.6494
567.10 0.6489
567.20 0.6485
567.30 0.6481
567.40 0.6477
567.50 0.6473
567.60 0.6469
567.70 0.6465
567.80 0.6461
567.90 0.6457
568.00 0.6453
568.10 0.6449
568.20 0.6445
568.30 0.6441
568.40 0.6437
568.50 0.6433
568.60 0.6429
568.70 0.6425
568.80 0.6421
568.90 0.6417
569.00 0.6413
569.10 0.6409
569.20 0.6405
569.30 0.6401
569.40 0.6397
569.50 0.6393
569.60 0.6389
569.70 0.6385
569.80 0.6381
569.90 0.6377
570.00 0.6373
570.10 0.6369
570.20 0.6365
570.30 0.6361
570.40 0.6357
570.50 0.6353
570.60 0.635
570.70 0.6346
570.80 0.6342
570.90 0.6338
571.00 0.6334
571.10 0.633
571.20 0.6326
571.30 0.6322
571.40 0.6318
571.50 0.6314
571.60 0.631
571.70 0.6306
571.80 0.6302
571.90 0.6299
572.00 0.6295
572.10 0.6291
572.20 0.6287
572.30 0.6283
572.40 0.6279
572.50 0.6275
572.60 0.6271
572.70 0.6267
572.80 0.6264
572.90 0.626
573.00 0.6256
573.10 0.6252
573.20 0.6248
573.30 0.6244
573.40 0.624
573.50 0.6236
573.60 0.6233
573.70 0.6229
573.80 0.6225
573.90 0.6221
574.00 0.6217
574.10 0.6213
574.20 0.621
574.30 0.6206
574.40 0.6202
574.50 0.6198
574.60 0.6194
574.70 0.619
574.80 0.6187
574.90 0.6183
575.00 0.6179
575.10 0.6175
575.20 0.6171
575.30 0.6167
575.40 0.6164
575.50 0.616
575.60 0.6156
575.70 0.6152
575.80 0.6149
575.90 0.6145
576.00 0.6141
576.10 0.6137
576.20 0.6133
576.30 0.613
576.40 0.6126
576.50 0.6122
576.60 0.6118
576.70 0.6115
576.80 0.6111
576.90 0.6107
577.00 0.6103
577.10 0.61
577.20 0.6096
577.30 0.6092
577.40 0.6088
577.50 0.6085
577.60 0.6081
577.70 0.6077
577.80 0.6073
577.90 0.607
578.00 0.6066
578.10 0.6062
578.20 0.6058
578.30 0.6055
578.40 0.6051
578.50 0.6047
578.60 0.6044
578.70 0.604
578.80 0.6036
578.90 0.6032
579.00 0.6029
579.10 0.6025
579.20 0.6021
579.30 0.6018
579.40 0.6014
579.50 0.601
579.60 0.6007
579.70 0.6003
579.80 0.5999
579.90 0.5996
580.00 0.5992
580.10 0.5988
580.20 0.5985
580.30 0.5981
580.40 0.5977
580.50 0.5974
580.60 0.597
580.70 0.5966
580.80 0.5963
580.90 0.5959
581.00 0.5955
581.10 0.5952
581.20 0.5948
581.30 0.5944
581.40 0.5941
581.50 0.5937
581.60 0.5934
581.70 0.593
581.80 0.5926
581.90 0.5923
582.00 0.5919
582.10 0.5915
582.20 0.5912
582.30 0.5908
582.40 0.5905
582.50 0.5901
582.60 0.5897
582.70 0.5894
582.80 0.589
582.90 0.5887
583.00 0.5883
583.10 0.5879
583.20 0.5876
583.30 0.5872
583.40 0.5869
583.50 0.5865
583.60 0.5862
583.70 0.5858
583.80 0.5854
583.90 0.5851
584.00 0.5847
584.10 0.5844
584.20 0.584
584.30 0.5837
584.40 0.5833
584.50 0.583
584.60 0.5826
584.70 0.5823
584.80 0.5819
584.90 0.5815
585.00 0.5812
585.10 0.5808
585.20 0.5805
585.30 0.5801
585.40 0.5798
585.50 0.5794
585.60 0.5791
585.70 0.5787
585.80 0.5784
585.90 0.578
586.00 0.5777
586.10 0.5773
586.20 0.577
586.30 0.5766
586.40 0.5763
586.50 0.5759
586.60 0.5756
586.70 0.5752
586.80 0.5749
586.90 0.5745
587.00 0.5742
587.10 0.5738
587.20 0.5735
587.30 0.5731
587.40 0.5728
587.50 0.5724
587.60 0.5721
587.70 0.5718
587.80 0.5714
587.90 0.5711
588.00 0.5707
588.10 0.5704
588.20 0.57
588.30 0.5697
588.40 0.5693
588.50 0.569
588.60 0.5686
588.70 0.5683
588.80 0.568
588.90 0.5676
589.00 0.5673
589.10 0.5669
589.20 0.5666
589.30 0.5663
589.40 0.5659
589.50 0.5656
589.60 0.5652
589.70 0.5649
589.80 0.5645
589.90 0.5642
590.00 0.5639
590.10 0.5635
590.20 0.5632
590.30 0.5628
590.40 0.5625
590.50 0.5622
590.60 0.5618
590.70 0.5615
590.80 0.5611
590.90 0.5608
591.00 0.5605
591.10 0.5601
591.20 0.5598
591.30 0.5595
591.40 0.5591
591.50 0.5588
591.60 0.5585
591.70 0.5581
591.80 0.5578
591.90 0.5574
592.00 0.5571
592.10 0.5568
592.20 0.5564
592.30 0.5561
592.40 0.5558
592.50 0.5554
592.60 0.5551
592.70 0.5548
592.80 0.5544
592.90 0.5541
593.00 0.5538
593.10 0.5534
593.20 0.5531
593.30 0.5528
593.40 0.5524
593.50 0.5521
593.60 0.5518
593.70 0.5515
593.80 0.5511
593.90 0.5508
594.00 0.5505
594.10 0.5501
594.20 0.5498
594.30 0.5495
594.40 0.5491
594.50 0.5488
594.60 0.5485
594.70 0.5482
594.80 0.5478
594.90 0.5475
595.00 0.5472
595.10 0.5468
595.20 0.5465
595.30 0.5462
595.40 0.5459
595.50 0.5455
595.60 0.5452
595.70 0.5449
595.80 0.5446
595.90 0.5442
596.00 0.5439
596.10 0.5436
596.20 0.5433
596.30 0.5429
596.40 0.5426
596.50 0.5423
596.60 0.542
596.70 0.5416
596.80 0.5413
596.90 0.541
597.00 0.5407
597.10 0.5403
597.20 0.54
597.30 0.5397
597.40 0.5394
597.50 0.5391
597.60 0.5387
597.70 0.5384
597.80 0.5381
597.90 0.5378
598.00 0.5374
598.10 0.5371
598.20 0.5368
598.30 0.5365
598.40 0.5362
598.50 0.5358
598.60 0.5355
598.70 0.5352
598.80 0.5349
598.90 0.5346
599.00 0.5343
599.10 0.5339
599.20 0.5336
599.30 0.5333
599.40 0.533
599.50 0.5327
599.60 0.5323
599.70 0.532
599.80 0.5317
599.90 0.5314
600.00 0.5311
600.10 0.5308
600.20 0.5304
600.30 0.5301
600.40 0.5298
600.50 0.5295
600.60 0.5292
600.70 0.5289
600.80 0.5286
600.90 0.5282
601.00 0.5279
601.10 0.5276
601.20 0.5273
601.30 0.527
601.40 0.5267
601.50 0.5264
601.60 0.5261
601.70 0.5257
601.80 0.5254
601.90 0.5251
602.00 0.5248
602.10 0.5245
602.20 0.5242
602.30 0.5239
602.40 0.5236
602.50 0.5233
602.60 0.5229
602.70 0.5226
602.80 0.5223
602.90 0.522
603.00 0.5217
603.10 0.5214
603.20 0.5211
603.30 0.5208
603.40 0.5205
603.50 0.5202
603.60 0.5199
603.70 0.5196
603.80 0.5192
603.90 0.5189
604.00 0.5186
604.10 0.5183
604.20 0.518
604.30 0.5177
604.40 0.5174
604.50 0.5171
604.60 0.5168
604.70 0.5165
604.80 0.5162
604.90 0.5159
605.00 0.5156
605.10 0.5153
605.20 0.515
605.30 0.5147
605.40 0.5144
605.50 0.514
605.60 0.5137
605.70 0.5134
605.80 0.5131
605.90 0.5128
606.00 0.5125
606.10 0.5122
606.20 0.5119
606.30 0.5116
606.40 0.5113
606.50 0.511
606.60 0.5107
606.70 0.5104
606.80 0.5101
606.90 0.5098
607.00 0.5095
607.10 0.5092
607.20 0.5089
607.30 0.5086
607.40 0.5083
607.50 0.508
607.60 0.5077
607.70 0.5074
607.80 0.5071
607.90 0.5068
608.00 0.5065
608.10 0.5062
608.20 0.5059
608.30 0.5056
608.40 0.5053
608.50 0.505
608.60 0.5047
608.70 0.5044
608.80 0.5041
608.90 0.5039
609.00 0.5036
609.10 0.5033
609.20 0.503
609.30 0.5027
609.40 0.5024
609.50 0.5021
609.60 0.5018
609.70 0.5015
609.80 0.5012
609.90 0.5009
610.00 0.5006
610.10 0.5003
610.20 0.5
610.30 0.4997
610.40 0.4994
610.50 0.4991
610.60 0.4988
610.70 0.4985
610.80 0.4983
610.90 0.498
611.00 0.4977
611.10 0.4974
611.20 0.4971
611.30 0.4968
611.40 0.4965
611.50 0.4962
611.60 0.4959
611.70 0.4956
611.80 0.4953
611.90 0.495
612.00 0.4948
612.10 0.4945
612.20 0.4942
612.30 0.4939
612.40 0.4936
612.50 0.4933
612.60 0.493
612.70 0.4927
612.80 0.4924
612.90 0.4922
613.00 0.4919
613.10 0.4916
613.20 0.4913
613.30 0.491
613.40 0.4907
613.50 0.4904
613.60 0.4901
613.70 0.4899
613.80 0.4896
613.90 0.4893
614.00 0.489
614.10 0.4887
614.20 0.4884
614.30 0.4881
614.40 0.4878
614.50 0.4876
614.60 0.4873
614.70 0.487
614.80 0.4867
614.90 0.4864
615.00 0.4861
615.10 0.4859
615.20 0.4856
615.30 0.4853
615.40 0.485
615.50 0.4847
615.60 0.4844
615.70 0.4842
615.80 0.4839
615.90 0.4836
616.00 0.4833
616.10 0.483
616.20 0.4827
616.30 0.4825
616.40 0.4822
616.50 0.4819
616.60 0.4816
616.70 0.4813
616.80 0.4811
616.90 0.4808
617.00 0.4805
617.10 0.4802
617.20 0.4799
617.30 0.4797
617.40 0.4794
617.50 0.4791
617.60 0.4788
617.70 0.4785
617.80 0.4782
617.90 0.478
618.00 0.4777
618.10 0.4774
618.20 0.4771
618.30 0.4769
618.40 0.4766
618.50 0.4763
618.60 0.476
618.70 0.4757
618.80 0.4755
618.90 0.4752
619.00 0.4749
619.10 0.4746
619.20 0.4744
619.30 0.4741
619.40 0.4738
619.50 0.4735
619.60 0.4733
619.70 0.473
619.80 0.4727
619.90 0.4724
620.00 0.4722
620.10 0.4719
620.20 0.4716
620.30 0.4713
620.40 0.4711
620.50 0.4708
620.60 0.4705
620.70 0.4702
620.80 0.47
620.90 0.4697
621.00 0.4694
621.10 0.4691
621.20 0.4689
621.30 0.4686
621.40 0.4683
621.50 0.468
621.60 0.4678
621.70 0.4675
621.80 0.4672
621.90 0.4669
622.00 0.4667
622.10 0.4664
622.20 0.4661
622.30 0.4659
622.40 0.4656
622.50 0.4653
622.60 0.465
622.70 0.4648
622.80 0.4645
622.90 0.4642
623.00 0.464
623.10 0.4637
623.20 0.4634
623.30 0.4631
623.40 0.4629
623.50 0.4626
623.60 0.4623
623.70 0.4621
623.80 0.4618
623.90 0.4615
624.00 0.4613
624.10 0.461
624.20 0.4607
624.30 0.4604
624.40 0.4602
624.50 0.4599
624.60 0.4596
624.70 0.4594
624.80 0.4591
624.90 0.4588
625.00 0.4586
625.10 0.4583
625.20 0.458
625.30 0.4578
625.40 0.4575
625.50 0.4572
625.60 0.457
625.70 0.4567
625.80 0.4564
625.90 0.4562
626.00 0.4559
626.10 0.4556
626.20 0.4554
626.30 0.4551
626.40 0.4548
626.50 0.4546
626.60 0.4543
626.70 0.454
626.80 0.4538
626.90 0.4535
627.00 0.4532
627.10 0.453
627.20 0.4527
627.30 0.4524
627.40 0.4522
627.50 0.4519
627.60 0.4516
627.70 0.4514
627.80 0.4511
627.90 0.4508
628.00 0.4506
628.10 0.4503
628.20 0.4501
628.30 0.4498
628.40 0.4495
628.50 0.4493
628.60 0.449
628.70 0.4487
628.80 0.4485
628.90 0.4482
629.00 0.4479
629.10 0.4477
629.20 0.4474
629.30 0.4472
629.40 0.4469
629.50 0.4466
629.60 0.4464
629.70 0.4461
629.80 0.4458
629.90 0.4456
630.00 0.4453
630.10 0.445
630.20 0.4448
630.30 0.4445
630.40 0.4443
630.50 0.444
630.60 0.4437
630.70 0.4435
630.80 0.4432
630.90 0.4429
631.00 0.4427
631.10 0.4424
631.20 0.4422
631.30 0.4419
631.40 0.4416
631.50 0.4414
631.60 0.4411
631.70 0.4408
631.80 0.4406
631.90 0.4403
632.00 0.4401
632.10 0.4398
632.20 0.4395
632.30 0.4393
632.40 0.439
632.50 0.4387
632.60 0.4385
632.70 0.4382
632.80 0.438
632.90 0.4377
633.00 0.4374
633.10 0.4372
633.20 0.4369
633.30 0.4366
633.40 0.4364
633.50 0.4361
633.60 0.4359
633.70 0.4356
633.80 0.4353
633.90 0.4351
634.00 0.4348
634.10 0.4345
634.20 0.4343
634.30 0.434
634.40 0.4338
634.50 0.4335
634.60 0.4332
634.70 0.433
634.80 0.4327
634.90 0.4324
635.00 0.4322
635.10 0.4319
635.20 0.4317
635.30 0.4314
635.40 0.4311
635.50 0.4309
635.60 0.4306
635.70 0.4303
635.80 0.4301
635.90 0.4298
636.00 0.4295
636.10 0.4293
636.20 0.429
636.30 0.4287
636.40 0.4285
636.50 0.4282
636.60 0.4279
636.70 0.4277
636.80 0.4274
636.90 0.4271
637.00 0.4269
637.10 0.4266
637.20 0.4263
637.30 0.4261
637.40 0.4258
637.50 0.4255
637.60 0.4253
637.70 0.425
637.80 0.4247
637.90 0.4245
638.00 0.4242
638.10 0.4239
638.20 0.4236
638.30 0.4234
638.40 0.4231
638.50 0.4228
638.60 0.4226
638.70 0.4223
638.80 0.422
638.90 0.4217
639.00 0.4215
639.10 0.4212
639.20 0.4209
639.30 0.4206
639.40 0.4204
639.50 0.4201
639.60 0.4198
639.70 0.4195
639.80 0.4192
639.90 0.419
640.00 0.4187
640.10 0.4184
640.20 0.4181
640.30 0.4178
640.40 0.4176
640.50 0.4173
640.60 0.417
640.70 0.4167
640.80 0.4164
640.90 0.4161
641.00 0.4158
641.10 0.4156
641.20 0.4153
641.30 0.415
641.40 0.4147
641.50 0.4144
641.60 0.4141
641.70 0.4138
641.80 0.4135
641.90 0.4132
642.00 0.4129
642.10 0.4126
642.20 0.4123
642.30 0.412
642.40 0.4117
642.50 0.4114
642.60 0.4111
642.70 0.4108
642.80 0.4105
642.90 0.4102
643.00 0.4099
643.10 0.4095
643.20 0.4092
643.30 0.4089
643.40 0.4086
643.50 0.4083
643.60 0.4079
643.70 0.4076
643.80 0.4073
643.90 0.407
644.00 0.4066
644.10 0.4063
644.20 0.406
644.30 0.4056
644.40 0.4053
644.50 0.4049
644.60 0.4046
644.70 0.4042
644.80 0.4039
644.90 0.4035
645.00 0.4032
645.10 0.4028
645.20 0.4025
645.30 0.4021
645.40 0.4017
645.50 0.4013
645.60 0.401
645.70 0.4006
645.80 0.4002
645.90 0.3998
646.00 0.3994
646.10 0.399
646.20 0.3986
646.30 0.3982
646.40 0.3978
646.50 0.3974
646.60 0.3969
646.70 0.3965
646.80 0.3961
646.90 0.3956
647.00 0.3952
647.10 0.3948
647.20 0.3943
647.30 0.3939
647.40 0.3934
647.50 0.3929
647.60 0.3924
647.70 0.3919
647.80 0.3914
647.90 0.3909
648.00 0.3904
648.10 0.3899
648.20 0.3894
648.30 0.3888
648.40 0.3882
648.50 0.3876
648.60 0.387
648.70 0.3864
648.80 0.3858
648.90 0.3852
649.00 0.3847
649.10 0.3841
649.20 0.3835
649.30 0.3828
649.40 0.3821
649.50 0.3814
649.60 0.3806
649.70 0.3799
649.80 0.3791
649.90 0.3784
650.00 0.3777
650.10 0.3769
650.20 0.3762
650.30 0.3754
650.40 0.3745
650.50 0.3735
650.60 0.3726
650.70 0.3717
650.80 0.3707
650.90 0.3698
651.00 0.3689
651.10 0.3679
651.20 0.367
651.30 0.366
651.40 0.3648
651.50 0.3635
651.60 0.3623
651.70 0.3611
651.80 0.3599
651.90 0.3586
652.00 0.3574
652.10 0.3562
652.20 0.355
652.30 0.3537
652.40 0.352
652.50 0.3504
652.60 0.3488
652.70 0.3472
652.80 0.3455
652.90 0.3439
653.00 0.3423
653.10 0.3406
653.20 0.339
653.30 0.3373
653.40 0.3351
653.50 0.3329
653.60 0.3307
653.70 0.3286
653.80 0.3264
653.90 0.3242
654.00 0.322
654.10 0.3199
654.20 0.3177
654.30 0.3154
654.40 0.3127
654.50 0.31
654.60 0.3073
654.70 0.3046
654.80 0.3018
654.90 0.2986
655.00 0.2954
655.10 0.2922
655.20 0.2891
655.30 0.2858
655.40 0.2821
655.50 0.2784
655.60 0.2743
655.70 0.2701
655.80 0.2651
655.90 0.2597
656.00 0.2521
656.10 0.2438
656.20 0.2208
656.30 0.1596
656.40 0.2327
656.50 0.2468
656.60 0.2542
656.70 0.2611
656.80 0.2658
656.90 0.2703
657.00 0.2741
657.10 0.2778
657.20 0.2811
657.30 0.2844
657.40 0.2873
657.50 0.2901
657.60 0.293
657.70 0.2959
657.80 0.2986
657.90 0.301
658.00 0.3034
658.10 0.3057
658.20 0.3081
658.30 0.3104
658.40 0.3122
658.50 0.314
658.60 0.3158
658.70 0.3176
658.80 0.3194
658.90 0.3212
659.00 0.323
659.10 0.3248
659.20 0.3266
659.30 0.3283
659.40 0.3295
659.50 0.3307
659.60 0.3319
659.70 0.3332
659.80 0.3344
659.90 0.3356
660.00 0.3368
660.10 0.338
660.20 0.3393
660.30 0.3404
660.40 0.3412
660.50 0.342
660.60 0.3428
660.70 0.3436
660.80 0.3444
660.90 0.3452
661.00 0.346
661.10 0.3468
661.20 0.3476
661.30 0.3483
661.40 0.3488
661.50 0.3493
661.60 0.3498
661.70 0.3503
661.80 0.3508
661.90 0.3513
662.00 0.3518
662.10 0.3523
662.20 0.3528
662.30 0.3532
662.40 0.3535
662.50 0.3538
662.60 0.3541
662.70 0.3544
662.80 0.3547
662.90 0.355
663.00 0.3553
663.10 0.3556
663.20 0.3559
663.30 0.3561
663.40 0.3563
663.50 0.3564
663.60 0.3566
663.70 0.3568
663.80 0.3569
663.90 0.3571
664.00 0.3572
664.10 0.3574
664.20 0.3575
664.30 0.3577
664.40 0.3577
664.50 0.3578
664.60 0.3578
664.70 0.3579
664.80 0.3579
664.90 0.358
665.00 0.3581
665.10 0.3581
665.20 0.3582
665.30 0.3582
665.40 0.3582
665.50 0.3582
665.60 0.3582
665.70 0.3582
665.80 0.3582
665.90 0.3582
666.00 0.3582
666.10 0.3582
666.20 0.3581
666.30 0.3581
666.40 0.3581
666.50 0.358
666.60 0.358
666.70 0.3579
666.80 0.3579
666.90 0.3578
667.00 0.3578
667.10 0.3577
667.20 0.3576
667.30 0.3576
667.40 0.3575
667.50 0.3574
667.60 0.3573
667.70 0.3572
667.80 0.3572
667.90 0.3571
668.00 0.357
668.10 0.3569
668.20 0.3568
668.30 0.3567
668.40 0.3566
668.50 0.3565
668.60 0.3564
668.70 0.3563
668.80 0.3562
668.90 0.3561
669.00 0.3559
669.10 0.3558
669.20 0.3557
669.30 0.3556
669.40 0.3555
669.50 0.3554
669.60 0.3552
669.70 0.3551
669.80 0.355
669.90 0.3549
670.00 0.3547
670.10 0.3546
670.20 0.3545
670.30 0.3544
670.40 0.3542
670.50 0.3541
670.60 0.3539
670.70 0.3538
670.80 0.3537
670.90 0.3535
671.00 0.3534
671.10 0.3532
671.20 0.3531
671.30 0.353
671.40 0.3528
671.50 0.3527
671.60 0.3525
671.70 0.3524
671.80 0.3522
671.90 0.3521
672.00 0.3519
672.10 0.3518
672.20 0.3516
672.30 0.3515
672.40 0.3513
672.50 0.3512
672.60 0.351
672.70 0.3509
672.80 0.3507
672.90 0.3506
673.00 0.3504
673.10 0.3503
673.20 0.3501
673.30 0.3499
673.40 0.3498
673.50 0.3496
673.60 0.3495
673.70 0.3493
673.80 0.3491
673.90 0.349
674.00 0.3488
674.10 0.3487
674.20 0.3485
674.30 0.3483
674.40 0.3482
674.50 0.348
674.60 0.3479
674.70 0.3477
674.80 0.3475
674.90 0.3474
675.00 0.3472
675.10 0.347
675.20 0.3469
675.30 0.3467
675.40 0.3466
675.50 0.3464
675.60 0.3462
675.70 0.3461
675.80 0.3459
675.90 0.3457
676.00 0.3456
676.10 0.3454
676.20 0.3452
676.30 0.3451
676.40 0.3449
676.50 0.3447
676.60 0.3446
676.70 0.3444
676.80 0.3442
676.90 0.3441
677.00 0.3439
677.10 0.3437
677.20 0.3436
677.30 0.3434
677.40 0.3432
677.50 0.3431
677.60 0.3429
677.70 0.3427
677.80 0.3426
677.90 0.3424
678.00 0.3422
678.10 0.3421
678.20 0.3419
678.30 0.3417
678.40 0.3415
678.50 0.3414
678.60 0.3412
678.70 0.341
678.80 0.3409
678.90 0.3407
679.00 0.3405
679.10 0.3404
679.20 0.3402
679.30 0.34
679.40 0.3399
679.50 0.3397
679.60 0.3395
679.70 0.3393
679.80 0.3392
679.90 0.339
680.00 0.3388
680.10 0.3387
680.20 0.3385
680.30 0.3383
680.40 0.3382
680.50 0.338
680.60 0.3378
680.70 0.3376
680.80 0.3375
680.90 0.3373
681.00 0.3371
681.10 0.337
681.20 0.3368
681.30 0.3366
681.40 0.3365
681.50 0.3363
681.60 0.3361
681.70 0.3359
681.80 0.3358
681.90 0.3356
682.00 0.3354
682.10 0.3353
682.20 0.3351
682.30 0.3349
682.40 0.3348
682.50 0.3346
682.60 0.3344
682.70 0.3343
682.80 0.3341
682.90 0.3339
683.00 0.3337
683.10 0.3336
683.20 0.3334
683.30 0.3332
683.40 0.3331
683.50 0.3329
683.60 0.3327
683.70 0.3326
683.80 0.3324
683.90 0.3322
684.00 0.3321
684.10 0.3319
684.20 0.3317
684.30 0.3315
684.40 0.3314
684.50 0.3312
684.60 0.331
684.70 0.3309
684.80 0.3307
684.90 0.3305
685.00 0.3304
685.10 0.3302
685.20 0.33
685.30 0.3299
685.40 0.3297
685.50 0.3295
685.60 0.3293
685.70 0.3292
685.80 0.329
685.90 0.3288
686.00 0.3287
686.10 0.3285
686.20 0.3283
686.30 0.3282
686.40 0.328
686.50 0.3278
686.60 0.3277
686.70 0.3275
686.80 0.3273
686.90 0.3272
687.00 0.327
687.10 0.3268
687.20 0.3267
687.30 0.3265
687.40 0.3263
687.50 0.3262
687.60 0.326
687.70 0.3258
687.80 0.3257
687.90 0.3255
688.00 0.3253
688.10 0.3252
688.20 0.325
688.30 0.3248
688.40 0.3247
688.50 0.3245
688.60 0.3243
688.70 0.3242
688.80 0.324
688.90 0.3238
689.00 0.3237
689.10 0.3235
689.20 0.3233
689.30 0.3232
689.40 0.323
689.50 0.3228
689.60 0.3227
689.70 0.3225
689.80 0.3223
689.90 0.3222
690.00 0.322
690.10 0.3218
690.20 0.3217
690.30 0.3215
690.40 0.3213
690.50 0.3212
690.60 0.321
690.70 0.3209
690.80 0.3207
690.90 0.3205
691.00 0.3204
691.10 0.3202
691.20 0.32
691.30 0.3199
691.40 0.3197
691.50 0.3195
691.60 0.3194
691.70 0.3192
691.80 0.319
691.90 0.3189
692.00 0.3187
692.10 0.3186
692.20 0.3184
692.30 0.3182
692.40 0.3181
692.50 0.3179
692.60 0.3177
692.70 0.3176
692.80 0.3174
692.90 0.3172
693.00 0.3171
693.10 0.3169
693.20 0.3168
693.30 0.3166
693.40 0.3164
693.50 0.3163
693.60 0.3161
693.70 0.3159
693.80 0.3158
693.90 0.3156
694.00 0.3155
694.10 0.3153
694.20 0.3151
694.30 0.315
694.40 0.3148
694.50 0.3147
694.60 0.3145
694.70 0.3143
694.80 0.3142
694.90 0.314
695.00 0.3138
695.10 0.3137
695.20 0.3135
695.30 0.3134
695.40 0.3132
695.50 0.313
695.60 0.3129
695.70 0.3127
695.80 0.3126
695.90 0.3124
696.00 0.3122
696.10 0.3121
696.20 0.3119
696.30 0.3118
696.40 0.3116
696.50 0.3114
696.60 0.3113
696.70 0.3111
696.80 0.311
696.90 0.3108
697.00 0.3107
697.10 0.3105
697.20 0.3103
697.30 0.3102
697.40 0.31
697.50 0.3099
697.60 0.3097
697.70 0.3095
697.80 0.3094
697.90 0.3092
698.00 0.3091
698.10 0.3089
698.20 0.3087
698.30 0.3086
698.40 0.3084
698.50 0.3083
698.60 0.3081
698.70 0.308
698.80 0.3078
698.90 0.3076
699.00 0.3075
699.10 0.3073
699.20 0.3072
699.30 0.307
699.40 0.3069
699.50 0.3067
699.60 0.3065
699.70 0.3064
699.80 0.3062
699.90 0.3061
700.00 0.3059
700.10 0.3058
700.20 0.3056
700.30 0.3054
700.40 0.3053
700.50 0.3051
700.60 0.305
700.70 0.3048
700.80 0.3047
700.90 0.3045
701.00 0.3044
701.10 0.3042
701.20 0.304
701.30 0.3039
701.40 0.3037
701.50 0.3036
701.60 0.3034
701.70 0.3033
701.80 0.3031
701.90 0.303
702.00 0.3028
702.10 0.3027
702.20 0.3025
702.30 0.3023
702.40 0.3022
702.50 0.302
702.60 0.3019
702.70 0.3017
702.80 0.3016
702.90 0.3014
703.00 0.3013
703.10 0.3011
703.20 0.301
703.30 0.3008
703.40 0.3007
703.50 0.3005
703.60 0.3003
703.70 0.3002
703.80 0.3
703.90 0.2999
704.00 0.2997
704.10 0.2996
704.20 0.2994
704.30 0.2993
704.40 0.2991
704.50 0.299
704.60 0.2988
704.70 0.2987
704.80 0.2985
704.90 0.2984
705.00 0.2982
705.10 0.2981
705.20 0.2979
705.30 0.2978
705.40 0.2976
705.50 0.2975
705.60 0.2973
705.70 0.2972
705.80 0.297
705.90 0.2969
706.00 0.2967
706.10 0.2966
706.20 0.2964
706.30 0.2963
706.40 0.2961
706.50 0.296
706.60 0.2958
706.70 0.2957
706.80 0.2955
706.90 0.2954
707.00 0.2952
707.10 0.2951
707.20 0.2949
707.30 0.2948
707.40 0.2946
707.50 0.2945
707.60 0.2943
707.70 0.2942
707.80 0.294
707.90 0.2939
708.00 0.2937
708.10 0.2936
708.20 0.2934
708.30 0.2933
708.40 0.2931
708.50 0.293
708.60 0.2928
708.70 0.2927
708.80 0.2925
708.90 0.2924
709.00 0.2922
709.10 0.2921
709.20 0.2919
709.30 0.2918
709.40 0.2916
709.50 0.2915
709.60 0.2913
709.70 0.2912
709.80 0.291
709.90 0.2909
710.00 0.2907
710.10 0.2906
710.20 0.2904
710.30 0.2903
710.40 0.2902
710.50 0.29
710.60 0.2899
710.70 0.2897
710.80 0.2896
710.90 0.2894
711.00 0.2893
711.10 0.2891
711.20 0.289
711.30 0.2888
711.40 0.2887
711.50 0.2885
711.60 0.2884
711.70 0.2883
711.80 0.2881
711.90 0.288
712.00 0.2878
712.10 0.2877
712.20 0.2875
712.30 0.2874
712.40 0.2872
712.50 0.2871
712.60 0.287
712.70 0.2868
712.80 0.2867
712.90 0.2865
713.00 0.2864
713.10 0.2862
713.20 0.2861
713.30 0.2859
713.40 0.2858
713.50 0.2857
713.60 0.2855
713.70 0.2854
713.80 0.2852
713.90 0.2851
714.00 0.2849
714.10 0.2848
714.20 0.2846
714.30 0.2845
714.40 0.2844
714.50 0.2842
714.60 0.2841
714.70 0.2839
714.80 0.2838
714.90 0.2836
715.00 0.2835
715.10 0.2834
715.20 0.2832
715.30 0.2831
715.40 0.2829
715.50 0.2828
715.60 0.2826
715.70 0.2825
715.80 0.2824
715.90 0.2822
716.00 0.2821
716.10 0.2819
716.20 0.2818
716.30 0.2817
716.40 0.2815
716.50 0.2814
716.60 0.2812
716.70 0.2811
716.80 0.2809
716.90 0.2808
717.00 0.2807
717.10 0.2805
717.20 0.2804
717.30 0.2802
717.40 0.2801
717.50 0.28
717.60 0.2798
717.70 0.2797
717.80 0.2795
717.90 0.2794
718.00 0.2793
718.10 0.2791
718.20 0.279
718.30 0.2788
718.40 0.2787
718.50 0.2786
718.60 0.2784
718.70 0.2783
718.80 0.2781
718.90 0.278
719.00 0.2779
719.10 0.2777
719.20 0.2776
719.30 0.2774
719.40 0.2773
719.50 0.2772
719.60 0.277
719.70 0.2769
719.80 0.2768
719.90 0.2766
720.00 0.2765
720.10 0.2763
720.20 0.2762
720.30 0.2761
720.40 0.2759
720.50 0.2758
720.60 0.2756
720.70 0.2755
720.80 0.2754
720.90 0.2752
721.00 0.2751
721.10 0.275
721.20 0.2748
721.30 0.2747
721.40 0.2746
721.50 0.2744
721.60 0.2743
721.70 0.2741
721.80 0.274
721.90 0.2739
722.00 0.2737
722.10 0.2736
722.20 0.2735
722.30 0.2733
722.40 0.2732
722.50 0.273
722.60 0.2729
722.70 0.2728
722.80 0.2726
722.90 0.2725
723.00 0.2724
723.10 0.2722
723.20 0.2721
723.30 0.272
723.40 0.2718
723.50 0.2717
723.60 0.2716
723.70 0.2714
723.80 0.2713
723.90 0.2711
724.00 0.271
724.10 0.2709
724.20 0.2707
724.30 0.2706
724.40 0.2705
724.50 0.2703
724.60 0.2702
724.70 0.2701
724.80 0.2699
724.90 0.2698
725.00 0.2697
725.10 0.2695
725.20 0.2694
725.30 0.2693
725.40 0.2691
725.50 0.269
725.60 0.2689
725.70 0.2687
725.80 0.2686
725.90 0.2685
726.00 0.2683
726.10 0.2682
726.20 0.2681
726.30 0.2679
726.40 0.2678
726.50 0.2677
726.60 0.2675
726.70 0.2674
726.80 0.2673
726.90 0.2671
727.00 0.267
727.10 0.2669
727.20 0.2667
727.30 0.2666
727.40 0.2665
727.50 0.2663
727.60 0.2662
727.70 0.2661
727.80 0.2659
727.90 0.2658
728.00 0.2657
728.10 0.2656
728.20 0.2654
728.30 0.2653
728.40 0.2652
728.50 0.265
728.60 0.2649
728.70 0.2648
728.80 0.2646
728.90 0.2645
729.00 0.2644
729.10 0.2642
729.20 0.2641
729.30 0.264
729.40 0.2638
729.50 0.2637
729.60 0.2636
729.70 0.2635
729.80 0.2633
729.90 0.2632
730.00 0.2631
730.10 0.2629
730.20 0.2628
730.30 0.2627
730.40 0.2625
730.50 0.2624
730.60 0.2623
730.70 0.2622
730.80 0.262
730.90 0.2619
731.00 0.2618
731.10 0.2616
731.20 0.2615
731.30 0.2614
731.40 0.2613
731.50 0.2611
731.60 0.261
731.70 0.2609
731.80 0.2607
731.90 0.2606
732.00 0.2605
732.10 0.2604
732.20 0.2602
732.30 0.2601
732.40 0.26
732.50 0.2599
732.60 0.2597
732.70 0.2596
732.80 0.2595
732.90 0.2593
733.00 0.2592
733.10 0.2591
733.20 0.259
733.30 0.2588
733.40 0.2587
733.50 0.2586
733.60 0.2585
733.70 0.2583
733.80 0.2582
733.90 0.2581
734.00 0.2579
734.10 0.2578
734.20 0.2577
734.30 0.2576
734.40 0.2574
734.50 0.2573
734.60 0.2572
734.70 0.2571
734.80 0.2569
734.90 0.2568
735.00 0.2567
735.10 0.2566
735.20 0.2564
735.30 0.2563
735.40 0.2562
735.50 0.2561
735.60 0.2559
735.70 0.2558
735.80 0.2557
735.90 0.2556
736.00 0.2554
736.10 0.2553
736.20 0.2552
736.30 0.2551
736.40 0.2549
736.50 0.2548
736.60 0.2547
736.70 0.2546
736.80 0.2544
736.90 0.2543
737.00 0.2542
737.10 0.2541
737.20 0.2539
737.30 0.2538
737.40 0.2537
737.50 0.2536
737.60 0.2534
737.70 0.2533
737.80 0.2532
737.90 0.2531
738.00 0.2529
738.10 0.2528
738.20 0.2527
738.30 0.2526
738.40 0.2524
738.50 0.2523
738.60 0.2522
738.70 0.2521
738.80 0.2519
738.90 0.2518
739.00 0.2517
739.10 0.2516
739.20 0.2514
739.30 0.2513
739.40 0.2512
739.50 0.2511
739.60 0.2509
739.70 0.2508
739.80 0.2507
739.90 0.2506
740.00 0.2505
740.10 0.2503
740.20 0.2502
740.30 0.2501
740.40 0.25
740.50 0.2499
740.60 0.2497
740.70 0.2496
740.80 0.2495
740.90 0.2494
741.00 0.2492
741.10 0.2491
741.20 0.249
741.30 0.2489
741.40 0.2488
741.50 0.2486
741.60 0.2485
741.70 0.2484
741.80 0.2483
741.90 0.2482
742.00 0.248
742.10 0.2479
742.20 0.2478
742.30 0.2477
742.40 0.2476
742.50 0.2474
742.60 0.2473
742.70 0.2472
742.80 0.2471
742.90 0.247
743.00 0.2468
743.10 0.2467
743.20 0.2466
743.30 0.2465
743.40 0.2464
743.50 0.2462
743.60 0.2461
743.70 0.246
743.80 0.2459
743.90 0.2458
744.00 0.2456
744.10 0.2455
744.20 0.2454
744.30 0.2453
744.40 0.2452
744.50 0.2451
744.60 0.2449
744.70 0.2448
744.80 0.2447
744.90 0.2446
745.00 0.2445
745.10 0.2443
745.20 0.2442
745.30 0.2441
745.40 0.244
745.50 0.2439
745.60 0.2437
745.70 0.2436
745.80 0.2435
745.90 0.2434
746.00 0.2433
746.10 0.2432
746.20 0.243
746.30 0.2429
746.40 0.2428
746.50 0.2427
746.60 0.2426
746.70 0.2424
746.80 0.2423
746.90 0.2422
747.00 0.2421
747.10 0.242
747.20 0.2419
747.30 0.2417
747.40 0.2416
747.50 0.2415
747.60 0.2414
747.70 0.2413
747.80 0.2412
747.90 0.241
748.00 0.2409
748.10 0.2408
748.20 0.2407
748.30 0.2406
748.40 0.2405
748.50 0.2403
748.60 0.2402
748.70 0.2401
748.80 0.24
748.90 0.2399
749.00 0.2398
749.10 0.2396
749.20 0.2395
749.30 0.2394
749.40 0.2393
749.50 0.2392
749.60 0.2391
749.70 0.2389
749.80 0.2388
749.90 0.2387
750.00 0.2386
750.10 0.2385
750.20 0.2384
750.30 0.2383
750.40 0.2381
750.50 0.238
750.60 0.2379
750.70 0.2378
750.80 0.2377
750.90 0.2376
751.00 0.2375
751.10 0.2373
751.20 0.2372
751.30 0.2371
751.40 0.237
751.50 0.2369
751.60 0.2368
751.70 0.2367
751.80 0.2365
751.90 0.2364
752.00 0.2363
752.10 0.2362
752.20 0.2361
752.30 0.236
752.40 0.2359
752.50 0.2358
752.60 0.2356
752.70 0.2355
752.80 0.2354
752.90 0.2353
753.00 0.2352
753.10 0.2351
753.20 0.235
753.30 0.2349
753.40 0.2347
753.50 0.2346
753.60 0.2345
753.70 0.2344
753.80 0.2343
753.90 0.2342
754.00 0.2341
754.10 0.234
754.20 0.2338
754.30 0.2337
754.40 0.2336
754.50 0.2335
754.60 0.2334
754.70 0.2333
754.80 0.2332
754.90 0.2331
755.00 0.2329
755.10 0.2328
755.20 0.2327
755.30 0.2326
755.40 0.2325
755.50 0.2324
755.60 0.2323
755.70 0.2322
755.80 0.2321
755.90 0.2319
756.00 0.2318
756.10 0.2317
756.20 0.2316
756.30 0.2315
756.40 0.2314
756.50 0.2313
756.60 0.2312
756.70 0.2311
756.80 0.2309
756.90 0.2308
757.00 0.2307
757.10 0.2306
757.20 0.2305
757.30 0.2304
757.40 0.2303
757.50 0.2302
757.60 0.2301
757.70 0.23
757.80 0.2298
757.90 0.2297
758.00 0.2296
758.10 0.2295
758.20 0.2294
758.30 0.2293
758.40 0.2292
758.50 0.2291
758.60 0.229
758.70 0.2289
758.80 0.2287
758.90 0.2286
759.00 0.2285
759.10 0.2284
759.20 0.2283
759.30 0.2282
759.40 0.2281
759.50 0.228
759.60 0.2279
759.70 0.2278
759.80 0.2276
759.90 0.2275
760.00 0.2274
760.10 0.2273
760.20 0.2272
760.30 0.2271
760.40 0.227
760.50 0.2269
760.60 0.2268
760.70 0.2267
760.80 0.2266
760.90 0.2265
761.00 0.2264
761.10 0.2263
761.20 0.2261
761.30 0.226
761.40 0.2259
761.50 0.2258
761.60 0.2257
761.70 0.2256
761.80 0.2255
761.90 0.2254
762.00 0.2253
762.10 0.2252
762.20 0.2251
762.30 0.225
762.40 0.2249
762.50 0.2248
762.60 0.2247
762.70 0.2245
762.80 0.2244
762.90 0.2243
763.00 0.2242
763.10 0.2241
763.20 0.224
763.30 0.2239
763.40 0.2238
763.50 0.2237
763.60 0.2236
763.70 0.2235
763.80 0.2234
763.90 0.2233
764.00 0.2232
764.10 0.2231
764.20 0.223
764.30 0.2229
764.40 0.2227
764.50 0.2226
764.60 0.2225
764.70 0.2224
764.80 0.2223
764.90 0.2222
765.00 0.2221
765.10 0.222
765.20 0.2219
765.30 0.2218
765.40 0.2217
765.50 0.2216
765.60 0.2215
765.70 0.2214
765.80 0.2213
765.90 0.2212
766.00 0.2211
766.10 0.221
766.20 0.2209
766.30 0.2208
766.40 0.2206
766.50 0.2205
766.60 0.2204
766.70 0.2203
766.80 0.2202
766.90 0.2201
767.00 0.22
767.10 0.2199
767.20 0.2198
767.30 0.2197
767.40 0.2196
767.50 0.2195
767.60 0.2194
767.70 0.2193
767.80 0.2192
767.90 0.2191
768.00 0.219
768.10 0.2189
768.20 0.2188
768.30 0.2187
768.40 0.2186
768.50 0.2185
768.60 0.2184
768.70 0.2183
768.80 0.2182
768.90 0.218
769.00 0.2179
769.10 0.2178
769.20 0.2177
769.30 0.2176
769.40 0.2175
769.50 0.2174
769.60 0.2173
769.70 0.2172
769.80 0.2171
769.90 0.217
770.00 0.2169
770.10 0.2168
770.20 0.2167
770.30 0.2166
770.40 0.2165
770.50 0.2164
770.60 0.2163
770.70 0.2162
770.80 0.2161
770.90 0.216
771.00 0.2159
771.10 0.2158
771.20 0.2157
771.30 0.2156
771.40 0.2155
771.50 0.2154
771.60 0.2153
771.70 0.2152
771.80 0.2151
771.90 0.215
772.00 0.2149
772.10 0.2148
772.20 0.2147
772.30 0.2146
772.40 0.2145
772.50 0.2144
772.60 0.2143
772.70 0.2142
772.80 0.2141
772.90 0.214
773.00 0.2139
773.10 0.2138
773.20 0.2137
773.30 0.2136
773.40 0.2135
773.50 0.2134
773.60 0.2133
773.70 0.2132
773.80 0.2131
773.90 0.213
774.00 0.2129
774.10 0.2128
774.20 0.2127
774.30 0.2126
774.40 0.2125
774.50 0.2124
774.60 0.2123
774.70 0.2122
774.80 0.2121
774.90 0.212
775.00 0.2119
775.10 0.2118
775.20 0.2117
775.30 0.2116
775.40 0.2115
775.50 0.2114
775.60 0.2113
775.70 0.2112
775.80 0.2111
775.90 0.211
776.00 0.2109
776.10 0.2108
776.20 0.2107
776.30 0.2106
776.40 0.2105
776.50 0.2104
776.60 0.2103
776.70 0.2102
776.80 0.2101
776.90 0.21
777.00 0.2099
777.10 0.2098
777.20 0.2097
777.30 0.2096
777.40 0.2095
777.50 0.2094
777.60 0.2093
777.70 0.2092
777.80 0.2091
777.90 0.209
778.00 0.2089
778.10 0.2089
778.20 0.2088
778.30 0.2087
778.40 0.2086
778.50 0.2085
778.60 0.2084
778.70 0.2083
778.80 0.2082
778.90 0.2081
779.00 0.208
779.10 0.2079
779.20 0.2078
779.30 0.2077
779.40 0.2076
779.50 0.2075
779.60 0.2074
779.70 0.2073
779.80 0.2072
779.90 0.2071
780.00 0.207
780.10 0.2069
780.20 0.2068
780.30 0.2067
780.40 0.2066
780.50 0.2065
780.60 0.2064
780.70 0.2063
780.80 0.2062
780.90 0.2061
781.00 0.206
781.10 0.206
781.20 0.2059
781.30 0.2058
781.40 0.2057
781.50 0.2056
781.60 0.2055
781.70 0.2054
781.80 0.2053
781.90 0.2052
782.00 0.2051
782.10 0.205
782.20 0.2049
782.30 0.2048
782.40 0.2047
782.50 0.2046
782.60 0.2045
782.70 0.2044
782.80 0.2043
782.90 0.2042
783.00 0.2042
783.10 0.2041
783.20 0.204
783.30 0.2039
783.40 0.2038
783.50 0.2037
783.60 0.2036
783.70 0.2035
783.80 0.2034
783.90 0.2033
784.00 0.2032
784.10 0.2031
784.20 0.203
784.30 0.2029
784.40 0.2028
784.50 0.2027
784.60 0.2026
784.70 0.2026
784.80 0.2025
784.90 0.2024
785.00 0.2023
785.10 0.2022
785.20 0.2021
785.30 0.202
785.40 0.2019
785.50 0.2018
785.60 0.2017
785.70 0.2016
785.80 0.2015
785.90 0.2014
786.00 0.2013
786.10 0.2012
786.20 0.2012
786.30 0.2011
786.40 0.201
786.50 0.2009
786.60 0.2008
786.70 0.2007
786.80 0.2006
786.90 0.2005
787.00 0.2004
787.10 0.2003
787.20 0.2002
787.30 0.2001
787.40 0.2
787.50 0.2
787.60 0.1999
787.70 0.1998
787.80 0.1997
787.90 0.1996
788.00 0.1995
788.10 0.1994
788.20 0.1993
788.30 0.1992
788.40 0.1991
788.50 0.199
788.60 0.1989
788.70 0.1988
788.80 0.1988
788.90 0.1987
789.00 0.1986
789.10 0.1985
789.20 0.1984
789.30 0.1983
789.40 0.1982
789.50 0.1981
789.60 0.198
789.70 0.1979
789.80 0.1978
789.90 0.1977
790.00 0.1977
790.10 0.1976
790.20 0.1975
790.30 0.1974
790.40 0.1973
790.50 0.1972
790.60 0.1971
790.70 0.197
790.80 0.1969
790.90 0.1968
791.00 0.1968
791.10 0.1967
791.20 0.1966
791.30 0.1965
791.40 0.1964
791.50 0.1963
791.60 0.1962
791.70 0.1961
791.80 0.196
791.90 0.1959
792.00 0.1959
792.10 0.1958
792.20 0.1957
792.30 0.1956
792.40 0.1955
792.50 0.1954
792.60 0.1953
792.70 0.1952
792.80 0.1951
792.90 0.1951
793.00 0.195
793.10 0.1949
793.20 0.1948
793.30 0.1947
793.40 0.1946
793.50 0.1945
793.60 0.1944
793.70 0.1943
793.80 0.1943
793.90 0.1942
794.00 0.1941
794.10 0.194
794.20 0.1939
794.30 0.1938
794.40 0.1937
794.50 0.1936
794.60 0.1935
794.70 0.1935
794.80 0.1934
794.90 0.1933
795.00 0.1932
795.10 0.1931
795.20 0.193
795.30 0.1929
795.40 0.1928
795.50 0.1927
795.60 0.1927
795.70 0.1926
795.80 0.1925
795.90 0.1924
796.00 0.1923
796.10 0.1922
796.20 0.1921
796.30 0.192
796.40 0.192
796.50 0.1919
796.60 0.1918
796.70 0.1917
796.80 0.1916
796.90 0.1915
797.00 0.1914
797.10 0.1913
797.20 0.1913
797.30 0.1912
797.40 0.1911
797.50 0.191
797.60 0.1909
797.70 0.1908
797.80 0.1907
797.90 0.1906
798.00 0.1906
798.10 0.1905
798.20 0.1904
798.30 0.1903
798.40 0.1902
798.50 0.1901
798.60 0.19
798.70 0.19
798.80 0.1899
798.90 0.1898
799.00 0.1897
799.10 0.1896
799.20 0.1895
799.30 0.1894
799.40 0.1893
799.50 0.1893
799.60 0.1892
799.70 0.1891
799.80 0.189
799.90 0.1889
800.00 0.1888
800.10 0.1887
800.20 0.1887
800.30 0.1886
800.40 0.1885
800.50 0.1884
800.60 0.1883
800.70 0.1882
800.80 0.1881
800.90 0.1881
801.00 0.188
801.10 0.1879
801.20 0.1878
801.30 0.1877
801.40 0.1876
801.50 0.1876
801.60 0.1875
801.70 0.1874
801.80 0.1873
801.90 0.1872
802.00 0.1871
802.10 0.187
802.20 0.187
802.30 0.1869
802.40 0.1868
802.50 0.1867
802.60 0.1866
802.70 0.1865
802.80 0.1865
802.90 0.1864
803.00 0.1863
803.10 0.1862
803.20 0.1861
803.30 0.186
803.40 0.186
803.50 0.1859
803.60 0.1858
803.70 0.1857
803.80 0.1856
803.90 0.1855
804.00 0.1854
804.10 0.1854
804.20 0.1853
804.30 0.1852
804.40 0.1851
804.50 0.185
804.60 0.1849
804.70 0.1849
804.80 0.1848
804.90 0.1847
805.00 0.1846
805.10 0.1845
805.20 0.1844
805.30 0.1844
805.40 0.1843
805.50 0.1842
805.60 0.1841
805.70 0.184
805.80 0.1839
805.90 0.1839
806.00 0.1838
806.10 0.1837
806.20 0.1836
806.30 0.1835
806.40 0.1834
806.50 0.1834
806.60 0.1833
806.70 0.1832
806.80 0.1831
806.90 0.183
807.00 0.183
807.10 0.1829
807.20 0.1828
807.30 0.1827
807.40 0.1826
807.50 0.1825
807.60 0.1825
807.70 0.1824
807.80 0.1823
807.90 0.1822
808.00 0.1821
808.10 0.182
808.20 0.182
808.30 0.1819
808.40 0.1818
808.50 0.1817
808.60 0.1816
808.70 0.1816
808.80 0.1815
808.90 0.1814
809.00 0.1813
809.10 0.1812
809.20 0.1811
809.30 0.1811
809.40 0.181
809.50 0.1809
809.60 0.1808
809.70 0.1807
809.80 0.1807
809.90 0.1806
810.00 0.1805
810.10 0.1804
810.20 0.1803
810.30 0.1802
810.40 0.1802
810.50 0.1801
810.60 0.18
810.70 0.1799
810.80 0.1798
810.90 0.1798
811.00 0.1797
811.10 0.1796
811.20 0.1795
811.30 0.1794
811.40 0.1794
811.50 0.1793
811.60 0.1792
811.70 0.1791
811.80 0.179
811.90 0.179
812.00 0.1789
812.10 0.1788
812.20 0.1787
812.30 0.1786
812.40 0.1786
812.50 0.1785
812.60 0.1784
812.70 0.1783
812.80 0.1782
812.90 0.1782
813.00 0.1781
813.10 0.178
813.20 0.1779
813.30 0.1779
813.40 0.1778
813.50 0.1777
813.60 0.1776
813.70 0.1775
813.80 0.1775
813.90 0.1774
814.00 0.1773
814.10 0.1772
814.20 0.1771
814.30 0.1771
814.40 0.177
814.50 0.1769
814.60 0.1768
814.70 0.1767
814.80 0.1767
814.90 0.1766
815.00 0.1765
815.10 0.1764
815.20 0.1763
815.30 0.1763
815.40 0.1762
815.50 0.1761
815.60 0.176
815.70 0.176
815.80 0.1759
815.90 0.1758
816.00 0.1757
816.10 0.1756
816.20 0.1756
816.30 0.1755
816.40 0.1754
816.50 0.1753
816.60 0.1753
816.70 0.1752
816.80 0.1751
816.90 0.175
817.00 0.1749
817.10 0.1749
817.20 0.1748
817.30 0.1747
817.40 0.1746
817.50 0.1745
817.60 0.1745
817.70 0.1744
817.80 0.1743
817.90 0.1742
818.00 0.1742
818.10 0.1741
818.20 0.174
818.30 0.1739
818.40 0.1738
818.50 0.1738
818.60 0.1737
818.70 0.1736
818.80 0.1735
818.90 0.1735
819.00 0.1734
819.10 0.1733
819.20 0.1732
819.30 0.1732
819.40 0.1731
819.50 0.173
819.60 0.1729
819.70 0.1728
819.80 0.1728
819.90 0.1727
820.00 0.1726
820.10 0.1725
820.20 0.1725
820.30 0.1724
820.40 0.1723
820.50 0.1722
820.60 0.1722
820.70 0.1721
820.80 0.172
820.90 0.1719
821.00 0.1718
821.10 0.1718
821.20 0.1717
821.30 0.1716
821.40 0.1715
821.50 0.1715
821.60 0.1714
821.70 0.1713
821.80 0.1712
821.90 0.1712
822.00 0.1711
822.10 0.171
822.20 0.1709
822.30 0.1709
822.40 0.1708
822.50 0.1707
822.60 0.1706
822.70 0.1706
822.80 0.1705
822.90 0.1704
823.00 0.1703
823.10 0.1703
823.20 0.1702
823.30 0.1701
823.40 0.17
823.50 0.17
823.60 0.1699
823.70 0.1698
823.80 0.1697
823.90 0.1697
824.00 0.1696
824.10 0.1695
824.20 0.1694
824.30 0.1694
824.40 0.1693
824.50 0.1692
824.60 0.1691
824.70 0.1691
824.80 0.169
824.90 0.1689
825.00 0.1688
825.10 0.1688
825.20 0.1687
825.30 0.1686
825.40 0.1685
825.50 0.1685
825.60 0.1684
825.70 0.1683
825.80 0.1682
825.90 0.1682
826.00 0.1681
826.10 0.168
826.20 0.1679
826.30 0.1679
826.40 0.1678
826.50 0.1677
826.60 0.1676
826.70 0.1676
826.80 0.1675
826.90 0.1674
827.00 0.1673
827.10 0.1673
827.20 0.1672
827.30 0.1671
827.40 0.1671
827.50 0.167
827.60 0.1669
827.70 0.1668
827.80 0.1668
827.90 0.1667
828.00 0.1666
828.10 0.1665
828.20 0.1665
828.30 0.1664
828.40 0.1663
828.50 0.1662
828.60 0.1662
828.70 0.1661
828.80 0.166
828.90 0.1659
829.00 0.1659
829.10 0.1658
829.20 0.1657
829.30 0.1657
829.40 0.1656
829.50 0.1655
829.60 0.1654
829.70 0.1654
829.80 0.1653
829.90 0.1652
830.00 0.1651
830.10 0.1651
830.20 0.165
830.30 0.1649
830.40 0.1648
830.50 0.1648
830.60 0.1647
830.70 0.1646
830.80 0.1646
830.90 0.1645
831.00 0.1644
831.10 0.1643
831.20 0.1643
831.30 0.1642
831.40 0.1641
831.50 0.164
831.60 0.164
831.70 0.1639
831.80 0.1638
831.90 0.1638
832.00 0.1637
832.10 0.1636
832.20 0.1635
832.30 0.1635
832.40 0.1634
832.50 0.1633
832.60 0.1632
832.70 0.1632
832.80 0.1631
832.90 0.163
833.00 0.1629
833.10 0.1629
833.20 0.1628
833.30 0.1627
833.40 0.1626
833.50 0.1626
833.60 0.1625
833.70 0.1624
833.80 0.1623
833.90 0.1623
834.00 0.1622
834.10 0.1621
834.20 0.162
834.30 0.162
834.40 0.1619
834.50 0.1618
834.60 0.1618
834.70 0.1617
834.80 0.1616
834.90 0.1615
835.00 0.1615
835.10 0.1614
835.20 0.1613
835.30 0.1612
835.40 0.1612
835.50 0.1611
835.60 0.161
835.70 0.1609
835.80 0.1609
835.90 0.1608
836.00 0.1607
836.10 0.1606
836.20 0.1606
836.30 0.1605
836.40 0.1604
836.50 0.1604
836.60 0.1603
836.70 0.1602
836.80 0.1601
836.90 0.1601
837.00 0.16
837.10 0.1599
837.20 0.1598
837.30 0.1598
837.40 0.1597
837.50 0.1596
837.60 0.1596
837.70 0.1595
837.80 0.1594
837.90 0.1593
838.00 0.1593
838.10 0.1592
838.20 0.1591
838.30 0.1591
838.40 0.159
838.50 0.1589
838.60 0.1589
838.70 0.1588
838.80 0.1587
838.90 0.1586
839.00 0.1586
839.10 0.1585
839.20 0.1584
839.30 0.1584
839.40 0.1583
839.50 0.1582
839.60 0.1581
839.70 0.1581
839.80 0.158
839.90 0.1579
840.00 0.1579
840.10 0.1578
840.20 0.1577
840.30 0.1577
840.40 0.1576
840.50 0.1575
840.60 0.1574
840.70 0.1574
840.80 0.1573
840.90 0.1572
841.00 0.1572
841.10 0.1571
841.20 0.157
841.30 0.157
841.40 0.1569
841.50 0.1568
841.60 0.1567
841.70 0.1567
841.80 0.1566
841.90 0.1565
842.00 0.1565
842.10 0.1564
842.20 0.1563
842.30 0.1563
842.40 0.1562
842.50 0.1561
842.60 0.156
842.70 0.156
842.80 0.1559
842.90 0.1558
843.00 0.1558
843.10 0.1557
843.20 0.1556
843.30 0.1556
843.40 0.1555
843.50 0.1554
843.60 0.1554
843.70 0.1553
843.80 0.1552
843.90 0.1552
844.00 0.1551
844.10 0.155
844.20 0.1549
844.30 0.1549
844.40 0.1548
844.50 0.1547
844.60 0.1547
844.70 0.1546
844.80 0.1545
844.90 0.1545
845.00 0.1544
845.10 0.1543
845.20 0.1543
845.30 0.1542
845.40 0.1541
845.50 0.1541
845.60 0.154
845.70 0.1539
845.80 0.1539
845.90 0.1538
846.00 0.1537
846.10 0.1536
846.20 0.1536
846.30 0.1535
846.40 0.1534
846.50 0.1534
846.60 0.1533
846.70 0.1532
846.80 0.1532
846.90 0.1531
847.00 0.153
847.10 0.153
847.20 0.1529
847.30 0.1528
847.40 0.1528
847.50 0.1527
847.60 0.1526
847.70 0.1526
847.80 0.1525
847.90 0.1524
848.00 0.1524
848.10 0.1523
848.20 0.1522
848.30 0.1522
848.40 0.1521
848.50 0.152
848.60 0.152
848.70 0.1519
848.80 0.1518
848.90 0.1518
849.00 0.1517
849.10 0.1516
849.20 0.1516
849.30 0.1515
849.40 0.1514
849.50 0.1514
849.60 0.1513
849.70 0.1512
849.80 0.1512
849.90 0.1511
850.00 0.151
850.10 0.151
850.20 0.1509
850.30 0.1508
850.40 0.1508
850.50 0.1507
850.60 0.1506
850.70 0.1506
850.80 0.1505
850.90 0.1504
851.00 0.1504
851.10 0.1503
851.20 0.1503
851.30 0.1502
851.40 0.1501
851.50 0.1501
851.60 0.15
851.70 0.1499
851.80 0.1499
851.90 0.1498
852.00 0.1497
852.10 0.1497
852.20 0.1496
852.30 0.1495
852.40 0.1495
852.50 0.1494
852.60 0.1493
852.70 0.1493
852.80 0.1492
852.90 0.1492
853.00 0.1491
853.10 0.149
853.20 0.149
853.30 0.1489
853.40 0.1488
853.50 0.1488
853.60 0.1487
853.70 0.1486
853.80 0.1486
853.90 0.1485
854.00 0.1484
854.10 0.1484
854.20 0.1483
854.30 0.1483
854.40 0.1482
854.50 0.1481
854.60 0.1481
854.70 0.148
854.80 0.1479
854.90 0.1479
855.00 0.1478
855.10 0.1477
855.20 0.1477
855.30 0.1476
855.40 0.1476
855.50 0.1475
855.60 0.1474
855.70 0.1474
855.80 0.1473
855.90 0.1472
856.00 0.1472
856.10 0.1471
856.20 0.1471
856.30 0.147
856.40 0.1469
856.50 0.1469
856.60 0.1468
856.70 0.1467
856.80 0.1467
856.90 0.1466
857.00 0.1466
857.10 0.1465
857.20 0.1464
857.30 0.1464
857.40 0.1463
857.50 0.1462
857.60 0.1462
857.70 0.1461
857.80 0.1461
857.90 0.146
858.00 0.1459
858.10 0.1459
858.20 0.1458
858.30 0.1458
858.40 0.1457
858.50 0.1456
858.60 0.1456
858.70 0.1455
858.80 0.1455
858.90 0.1454
859.00 0.1453
859.10 0.1453
859.20 0.1452
859.30 0.1452
859.40 0.1451
859.50 0.145
859.60 0.145
859.70 0.1449
859.80 0.1449
859.90 0.1448
860.00 0.1447
860.10 0.1447
860.20 0.1446
860.30 0.1446
860.40 0.1445
860.50 0.1444
860.60 0.1444
860.70 0.1443
860.80 0.1443
860.90 0.1442
861.00 0.1441
861.10 0.1441
861.20 0.144
861.30 0.144
861.40 0.1439
861.50 0.1438
861.60 0.1438
861.70 0.1437
861.80 0.1437
861.90 0.1436
862.00 0.1435
862.10 0.1435
862.20 0.1434
862.30 0.1434
862.40 0.1433
862.50 0.1432
862.60 0.1432
862.70 0.1431
862.80 0.1431
862.90 0.143
863.00 0.1429
863.10 0.1429
863.20 0.1428
863.30 0.1428
863.40 0.1427
863.50 0.1426
863.60 0.1426
863.70 0.1425
863.80 0.1425
863.90 0.1424
864.00 0.1423
864.10 0.1423
864.20 0.1422
864.30 0.1422
864.40 0.1421
864.50 0.142
864.60 0.142
864.70 0.1419
864.80 0.1419
864.90 0.1418
865.00 0.1417
865.10 0.1417
865.20 0.1416
865.30 0.1416
865.40 0.1415
865.50 0.1415
865.60 0.1414
865.70 0.1413
865.80 0.1413
865.90 0.1412
866.00 0.1412
866.10 0.1411
866.20 0.141
866.30 0.141
866.40 0.1409
866.50 0.1409
866.60 0.1408
866.70 0.1407
866.80 0.1407
866.90 0.1406
867.00 0.1406
867.10 0.1405
867.20 0.1405
867.30 0.1404
867.40 0.1403
867.50 0.1403
867.60 0.1402
867.70 0.1402
867.80 0.1401
867.90 0.1401
868.00 0.14
868.10 0.14
868.20 0.1399
868.30 0.1398
868.40 0.1398
868.50 0.1397
868.60 0.1397
868.70 0.1396
868.80 0.1396
868.90 0.1395
869.00 0.1395
869.10 0.1394
869.20 0.1394
869.30 0.1393
869.40 0.1392
869.50 0.1392
869.60 0.1391
869.70 0.1391
869.80 0.139
869.90 0.139
870.00 0.1389
870.10 0.1389
870.20 0.1388
870.30 0.1387
870.40 0.1387
870.50 0.1386
870.60 0.1386
870.70 0.1385
870.80 0.1385
870.90 0.1384
871.00 0.1384
871.10 0.1383
871.20 0.1383
871.30 0.1382
871.40 0.1381
871.50 0.1381
871.60 0.138
871.70 0.138
871.80 0.1379
871.90 0.1379
872.00 0.1378
872.10 0.1378
872.20 0.1377
872.30 0.1377
872.40 0.1376
872.50 0.1375
872.60 0.1375
872.70 0.1374
872.80 0.1374
872.90 0.1373
873.00 0.1373
873.10 0.1372
873.20 0.1372
873.30 0.1371
873.40 0.1371
873.50 0.137
873.60 0.1369
873.70 0.1369
873.80 0.1368
873.90 0.1368
874.00 0.1367
874.10 0.1367
874.20 0.1366
874.30 0.1366
874.40 0.1365
874.50 0.1365
874.60 0.1364
874.70 0.1364
874.80 0.1363
874.90 0.1362
875.00 0.1362
875.10 0.1361
875.20 0.1361
875.30 0.136
875.40 0.136
875.50 0.1359
875.60 0.1359
875.70 0.1358
875.80 0.1358
875.90 0.1357
876.00 0.1357
876.10 0.1356
876.20 0.1355
876.30 0.1355
876.40 0.1354
876.50 0.1354
876.60 0.1353
876.70 0.1353
876.80 0.1352
876.90 0.1352
877.00 0.1351
877.10 0.1351
877.20 0.135
877.30 0.135
877.40 0.1349
877.50 0.1349
877.60 0.1348
877.70 0.1348
877.80 0.1347
877.90 0.1347
878.00 0.1346
878.10 0.1345
878.20 0.1345
878.30 0.1344
878.40 0.1344
878.50 0.1343
878.60 0.1343
878.70 0.1342
878.80 0.1342
878.90 0.1341
879.00 0.1341
879.10 0.134
879.20 0.134
879.30 0.1339
879.40 0.1339
879.50 0.1338
879.60 0.1338
879.70 0.1337
879.80 0.1337
879.90 0.1336
880.00 0.1336
880.10 0.1335
880.20 0.1335
880.30 0.1334
880.40 0.1334
880.50 0.1333
880.60 0.1333
880.70 0.1332
880.80 0.1331
880.90 0.1331
881.00 0.133
881.10 0.133
881.20 0.1329
881.30 0.1329
881.40 0.1328
881.50 0.1328
881.60 0.1327
881.70 0.1327
881.80 0.1326
881.90 0.1326
882.00 0.1325
882.10 0.1325
882.20 0.1324
882.30 0.1324
882.40 0.1323
882.50 0.1322
882.60 0.1322
882.70 0.1321
882.80 0.1321
882.90 0.132
883.00 0.1319
883.10 0.1319
883.20 0.1318
883.30 0.1318
883.40 0.1317
883.50 0.1316
883.60 0.1316
883.70 0.1315
883.80 0.1315
883.90 0.1314
884.00 0.1313
884.10 0.1313
884.20 0.1312
884.30 0.1312
884.40 0.1311
884.50 0.131
884.60 0.131
884.70 0.1309
884.80 0.1309
884.90 0.1308
885.00 0.1307
885.10 0.1307
885.20 0.1306
885.30 0.1306
885.40 0.1305
885.50 0.1305
885.60 0.1304
885.70 0.1303
885.80 0.1303
885.90 0.1302
886.00 0.1302
886.10 0.1301
886.20 0.13
886.30 0.13
886.40 0.1299
886.50 0.1299
886.60 0.1298
886.70 0.1297
886.80 0.1297
886.90 0.1296
887.00 0.1296
887.10 0.1295
887.20 0.1295
887.30 0.1295
887.40 0.1294
887.50 0.1294
887.60 0.1294
887.70 0.1293
887.80 0.1293
887.90 0.1292
888.00 0.1292
888.10 0.1292
888.20 0.1291
888.30 0.1291
888.40 0.1291
888.50 0.129
888.60 0.129
888.70 0.129
888.80 0.1289
888.90 0.1289
889.00 0.1289
889.10 0.1288
889.20 0.1288
889.30 0.1287
889.40 0.1287
889.50 0.1287
889.60 0.1286
889.70 0.1286
889.80 0.1286
889.90 0.1285
890.00 0.1285
890.10 0.1285
890.20 0.1284
890.30 0.1284
890.40 0.1284
890.50 0.1283
890.60 0.1283
890.70 0.1282
890.80 0.1282
890.90 0.1282
891.00 0.1281
891.10 0.1281
891.20 0.1281
891.30 0.128
891.40 0.128
891.50 0.128
891.60 0.1279
891.70 0.1279
891.80 0.1279
891.90 0.1278
892.00 0.1278
892.10 0.1277
892.20 0.1277
892.30 0.1276
892.40 0.1275
892.50 0.1275
892.60 0.1274
892.70 0.1273
892.80 0.1273
892.90 0.1272
893.00 0.1272
893.10 0.1271
893.20 0.127
893.30 0.127
893.40 0.1269
893.50 0.1268
893.60 0.1268
893.70 0.1267
893.80 0.1267
893.90 0.1266
894.00 0.1265
894.10 0.1265
894.20 0.1264
894.30 0.1263
894.40 0.1263
894.50 0.1262
894.60 0.1262
894.70 0.1261
894.80 0.126
894.90 0.126
895.00 0.1259
895.10 0.1258
895.20 0.1258
895.30 0.1257
895.40 0.1257
895.50 0.1256
895.60 0.1255
895.70 0.1255
895.80 0.1254
895.90 0.1254
896.00 0.1253
896.10 0.1252
896.20 0.1252
896.30 0.1251
896.40 0.125
896.50 0.125
896.60 0.1249
896.70 0.1249
896.80 0.1248
896.90 0.1247
897.00 0.1247
897.10 0.1246
897.20 0.1245
897.30 0.1244
897.40 0.1244
897.50 0.1243
897.60 0.1242
897.70 0.1241
897.80 0.1241
897.90 0.124
898.00 0.1239
898.10 0.1238
898.20 0.1237
898.30 0.1237
898.40 0.1236
898.50 0.1235
898.60 0.1234
898.70 0.1234
898.80 0.1233
898.90 0.1232
899.00 0.1231
899.10 0.123
899.20 0.123
899.30 0.1229
899.40 0.1228
899.50 0.1227
899.60 0.1227
899.70 0.1226
899.80 0.1225
899.90 0.1224
900.00 0.1224
900.10 0.1223
900.20 0.1222
900.30 0.1221
900.40 0.122
900.50 0.122
900.60 0.1219
900.70 0.1218
900.80 0.1217
900.90 0.1217
901.00 0.1216
901.10 0.1215
901.20 0.1214
901.30 0.1214
901.40 0.1213
901.50 0.1212
901.60 0.1211
901.70 0.1211
901.80 0.121
901.90 0.1209
902.00 0.1208
902.10 0.1208
902.20 0.1208
902.30 0.1208
902.40 0.1208
902.50 0.1208
902.60 0.1208
902.70 0.1208
902.80 0.1208
902.90 0.1208
903.00 0.1208
903.10 0.1208
903.20 0.1208
903.30 0.1208
903.40 0.1208
903.50 0.1208
903.60 0.1208
903.70 0.1208
903.80 0.1208
903.90 0.1208
904.00 0.1208
904.10 0.1208
904.20 0.1208
904.30 0.1208
904.40 0.1208
904.50 0.1208
904.60 0.1208
904.70 0.1208
904.80 0.1207
904.90 0.1207
905.00 0.1207
905.10 0.1207
905.20 0.1207
905.30 0.1207
905.40 0.1207
905.50 0.1207
905.60 0.1207
905.70 0.1207
905.80 0.1207
905.90 0.1207
906.00 0.1207
906.10 0.1207
906.20 0.1207
906.30 0.1207
906.40 0.1207
906.50 0.1207
906.60 0.1207
906.70 0.1207
906.80 0.1207
906.90 0.1207
907.00 0.1207
907.10 0.1207
907.20 0.1206
907.30 0.1206
907.40 0.1205
907.50 0.1205
907.60 0.1205
907.70 0.1204
907.80 0.1204
907.90 0.1204
908.00 0.1203
908.10 0.1203
908.20 0.1203
908.30 0.1202
908.40 0.1202
908.50 0.1201
908.60 0.1201
908.70 0.1201
908.80 0.12
908.90 0.12
909.00 0.12
909.10 0.1199
909.20 0.1199
909.30 0.1199
909.40 0.1198
909.50 0.1198
909.60 0.1198
909.70 0.1197
909.80 0.1197
909.90 0.1196
910.00 0.1196
910.10 0.1196
910.20 0.1195
910.30 0.1195
910.40 0.1195
910.50 0.1194
910.60 0.1194
910.70 0.1194
910.80 0.1193
910.90 0.1193
911.00 0.1193
911.10 0.1192
911.20 0.1192
911.30 0.1191
911.40 0.1191
911.50 0.1191
911.60 0.119
911.70 0.119
911.80 0.119
911.90 0.1189
912.00 0.1189
912.10 0.1188
912.20 0.1187
912.30 0.1187
912.40 0.1186
912.50 0.1185
912.60 0.1184
912.70 0.1184
912.80 0.1183
912.90 0.1182
913.00 0.1181
913.10 0.1181
913.20 0.118
913.30 0.1179
913.40 0.1178
913.50 0.1177
913.60 0.1177
913.70 0.1176
913.80 0.1175
913.90 0.1174
914.00 0.1174
914.10 0.1173
914.20 0.1172
914.30 0.1171
914.40 0.1171
914.50 0.117
914.60 0.1169
914.70 0.1168
914.80 0.1167
914.90 0.1167
915.00 0.1166
915.10 0.1165
915.20 0.1164
915.30 0.1164
915.40 0.1163
915.50 0.1162
915.60 0.1161
915.70 0.1161
915.80 0.116
915.90 0.1159
916.00 0.1158
916.10 0.1158
916.20 0.1157
916.30 0.1156
916.40 0.1155
916.50 0.1155
916.60 0.1154
916.70 0.1153
916.80 0.1152
916.90 0.1151
917.00 0.1151
917.10 0.115
917.20 0.1148
917.30 0.1147
917.40 0.1146
917.50 0.1145
917.60 0.1143
917.70 0.1142
917.80 0.1141
917.90 0.114
918.00 0.1139
918.10 0.1137
918.20 0.1136
918.30 0.1135
918.40 0.1134
918.50 0.1133
918.60 0.1131
918.70 0.113
918.80 0.1129
918.90 0.1128
919.00 0.1127
919.10 0.1125
919.20 0.1124
919.30 0.1123
919.40 0.1122
919.50 0.1121
919.60 0.1119
919.70 0.1118
919.80 0.1117
919.90 0.1116
920.00 0.1115
920.10 0.1113
920.20 0.1112
920.30 0.1111
920.40 0.111
920.50 0.1109
920.60 0.1108
920.70 0.1106
920.80 0.1105
920.90 0.1104
921.00 0.1103
921.10 0.1102
921.20 0.11
921.30 0.1099
921.40 0.1098
921.50 0.1097
921.60 0.1096
921.70 0.1094
921.80 0.1093
921.90 0.1092
922.00 0.1091
922.10 0.1091
922.20 0.1091
922.30 0.1091
922.40 0.1092
922.50 0.1092
922.60 0.1092
922.70 0.1092
922.80 0.1092
922.90 0.1092
923.00 0.1093
923.10 0.1093
923.20 0.1093
923.30 0.1093
923.40 0.1093
923.50 0.1094
923.60 0.1094
923.70 0.1094
923.80 0.1094
923.90 0.1094
924.00 0.1094
924.10 0.1095
924.20 0.1095
924.30 0.1095
924.40 0.1095
924.50 0.1095
924.60 0.1095
924.70 0.1096
924.80 0.1096
924.90 0.1096
925.00 0.1096
925.10 0.1096
925.20 0.1096
925.30 0.1097
925.40 0.1097
925.50 0.1097
925.60 0.1097
925.70 0.1097
925.80 0.1098
925.90 0.1098
926.00 0.1098
926.10 0.1098
926.20 0.1098
926.30 0.1098
926.40 0.1099
926.50 0.1099
926.60 0.1099
926.70 0.1099
926.80 0.1099
926.90 0.1099
927.00 0.11
927.10 0.11
927.20 0.11
927.30 0.11
927.40 0.11
927.50 0.11
927.60 0.11
927.70 0.1101
927.80 0.1101
927.90 0.1101
928.00 0.1101
928.10 0.1101
928.20 0.1101
928.30 0.1102
928.40 0.1102
928.50 0.1102
928.60 0.1102
928.70 0.1102
928.80 0.1102
928.90 0.1102
929.00 0.1103
929.10 0.1103
929.20 0.1103
929.30 0.1103
929.40 0.1103
929.50 0.1103
929.60 0.1103
929.70 0.1104
929.80 0.1104
929.90 0.1104
930.00 0.1104
930.10 0.1104
930.20 0.1104
930.30 0.1104
930.40 0.1105
930.50 0.1105
930.60 0.1105
930.70 0.1105
930.80 0.1105
930.90 0.1105
931.00 0.1105
931.10 0.1106
931.20 0.1106
931.30 0.1106
931.40 0.1106
931.50 0.1106
931.60 0.1106
931.70 0.1107
931.80 0.1107
931.90 0.1107
932.00 0.1107
932.10 0.1107
932.20 0.1107
932.30 0.1107
932.40 0.1106
932.50 0.1106
932.60 0.1106
932.70 0.1106
932.80 0.1106
932.90 0.1106
933.00 0.1106
933.10 0.1105
933.20 0.1105
933.30 0.1105
933.40 0.1105
933.50 0.1105
933.60 0.1105
933.70 0.1104
933.80 0.1104
933.90 0.1104
934.00 0.1104
934.10 0.1104
934.20 0.1104
934.30 0.1104
934.40 0.1103
934.50 0.1103
934.60 0.1103
934.70 0.1102
934.80 0.1102
934.90 0.1102
935.00 0.1102
935.10 0.1101
935.20 0.1101
935.30 0.1101
935.40 0.11
935.50 0.11
935.60 0.11
935.70 0.1099
935.80 0.1099
935.90 0.1099
936.00 0.1099
936.10 0.1098
936.20 0.1098
936.30 0.1098
936.40 0.1097
936.50 0.1097
936.60 0.1097
936.70 0.1096
936.80 0.1096
936.90 0.1096
937.00 0.1096
937.10 0.1095
937.20 0.1095
937.30 0.1094
937.40 0.1094
937.50 0.1093
937.60 0.1093
937.70 0.1093
937.80 0.1092
937.90 0.1092
938.00 0.1091
938.10 0.1091
938.20 0.1091
938.30 0.109
938.40 0.109
938.50 0.1089
938.60 0.1089
938.70 0.1088
938.80 0.1088
938.90 0.1087
939.00 0.1087
939.10 0.1086
939.20 0.1086
939.30 0.1085
939.40 0.1085
939.50 0.1084
939.60 0.1083
939.70 0.1083
939.80 0.1082
939.90 0.1082
940.00 0.1081
940.10 0.1081
940.20 0.108
940.30 0.108
940.40 0.1079
940.50 0.1079
940.60 0.1078
940.70 0.1077
940.80 0.1077
940.90 0.1076
941.00 0.1076
941.10 0.1075
941.20 0.1074
941.30 0.1074
941.40 0.1073
941.50 0.1072
941.60 0.1072
941.70 0.1071
941.80 0.1071
941.90 0.107
942.00 0.1069
942.10 0.1069
942.20 0.1068
942.30 0.1067
942.40 0.1067
942.50 0.1066
942.60 0.1065
942.70 0.1064
942.80 0.1063
942.90 0.1063
943.00 0.1062
943.10 0.1061
943.20 0.106
943.30 0.106
943.40 0.1059
943.50 0.1058
943.60 0.1057
943.70 0.1057
943.80 0.1056
943.90 0.1055
944.00 0.1054
944.10 0.1053
944.20 0.1053
944.30 0.1052
944.40 0.1051
944.50 0.105
944.60 0.1049
944.70 0.1048
944.80 0.1047
944.90 0.1047
945.00 0.1046
945.10 0.1045
945.20 0.1044
945.30 0.1043
945.40 0.1042
945.50 0.1041
945.60 0.104
945.70 0.1039
945.80 0.1038
945.90 0.1037
946.00 0.1036
946.10 0.1035
946.20 0.1034
946.30 0.1033
946.40 0.1032
946.50 0.1031
946.60 0.103
946.70 0.1029
946.80 0.1028
946.90 0.1027
947.00 0.1026
947.10 0.1024
947.20 0.1023
947.30 0.1022
947.40 0.1021
947.50 0.102
947.60 0.1018
947.70 0.1017
947.80 0.1016
947.90 0.1015
948.00 0.1013
948.10 0.1012
948.20 0.1011
948.30 0.1009
948.40 0.1008
948.50 0.1007
948.60 0.1006
948.70 0.1004
948.80 0.1003
948.90 0.1002
949.00 0.1001
949.10 0.09993
949.20 0.09981
949.30 0.09968
949.40 0.09952
949.50 0.09937
949.60 0.09922
949.70 0.09906
949.80 0.09891
949.90 0.09876
950.00 0.0986
950.10 0.09845
950.20 0.0983
950.30 0.09814
950.40 0.09799
950.50 0.09784
950.60 0.09768
950.70 0.09753
950.80 0.09738
950.90 0.09723
951.00 0.09707
951.10 0.09692
951.20 0.09677
951.30 0.09661
951.40 0.09644
951.50 0.09627
951.60 0.0961
951.70 0.09593
951.80 0.09576
951.90 0.09558
952.00 0.09541
952.10 0.09523
952.20 0.09505
952.30 0.09487
952.40 0.09469
952.50 0.0945
952.60 0.09432
952.70 0.09414
952.80 0.09396
952.90 0.09377
953.00 0.09358
953.10 0.09338
953.20 0.09319
953.30 0.093
953.40 0.09281
953.50 0.09262
953.60 0.09242
953.70 0.09222
953.80 0.09203
953.90 0.09183
954.00 0.09163
954.10 0.09143
954.20 0.09123
954.30 0.09104
954.40 0.09085
954.50 0.09071
954.60 0.09067
954.70 0.09064
954.80 0.09076
954.90 0.09089
955.00 0.09101
955.10 0.09113
955.20 0.09126
955.30 0.0914
955.40 0.09153
955.50 0.09166
955.60 0.09179
955.70 0.09192
955.80 0.09206
955.90 0.09218
956.00 0.09229
956.10 0.09241
956.20 0.09253
956.30 0.09265
956.40 0.09277
956.50 0.09289
956.60 0.09301
956.70 0.09312
956.80 0.09324
956.90 0.09336
957.00 0.09348
957.10 0.09359
957.20 0.09369
957.30 0.0938
957.40 0.09389
957.50 0.09398
957.60 0.09407
957.70 0.09416
957.80 0.09425
957.90 0.09434
958.00 0.09443
958.10 0.09452
958.20 0.09461
958.30 0.0947
958.40 0.09479
958.50 0.09488
958.60 0.09496
958.70 0.09505
958.80 0.09514
958.90 0.09523
959.00 0.09532
959.10 0.09541
959.20 0.0955
959.30 0.09559
959.40 0.09565
959.50 0.09571
959.60 0.09577
959.70 0.09583
959.80 0.09589
959.90 0.09595
960.00 0.09601
960.10 0.09607
960.20 0.09613
960.30 0.09619
960.40 0.09625
960.50 0.09631
960.60 0.09637
960.70 0.09643
960.80 0.09649
960.90 0.09655
961.00 0.09661
961.10 0.09667
961.20 0.09673
961.30 0.09679
961.40 0.09684
961.50 0.09688
961.60 0.09692
961.70 0.09696
961.80 0.09701
961.90 0.09705
962.00 0.09709
962.10 0.09712
962.20 0.09716
962.30 0.09719
962.40 0.09722
962.50 0.09725
962.60 0.09728
962.70 0.09731
962.80 0.09735
962.90 0.09738
963.00 0.09741
963.10 0.09744
963.20 0.09747
963.30 0.0975
963.40 0.09752
963.50 0.09754
963.60 0.09756
963.70 0.09759
963.80 0.09761
963.90 0.09763
964.00 0.09765
964.10 0.09767
964.20 0.09769
964.30 0.09771
964.40 0.09772
964.50 0.09772
964.60 0.09773
964.70 0.09774
964.80 0.09775
964.90 0.09776
965.00 0.09777
965.10 0.09777
965.20 0.09778
965.30 0.09779
965.40 0.0978
965.50 0.09781
965.60 0.09782
965.70 0.09782
965.80 0.09783
965.90 0.09784
966.00 0.09785
966.10 0.09786
966.20 0.09787
966.30 0.09787
966.40 0.09787
966.50 0.09787
966.60 0.09787
966.70 0.09787
966.80 0.09787
966.90 0.09787
967.00 0.09787
967.10 0.09786
967.20 0.09786
967.30 0.09785
967.40 0.09784
967.50 0.09784
967.60 0.09783
967.70 0.09782
967.80 0.09782
967.90 0.09781
968.00 0.09781
968.10 0.0978
968.20 0.09779
968.30 0.09779
968.40 0.09777
968.50 0.09776
968.60 0.09775
968.70 0.09773
968.80 0.09772
968.90 0.09771
969.00 0.09769
969.10 0.09768
969.20 0.09767
969.30 0.09765
969.40 0.09764
969.50 0.09762
969.60 0.09761
969.70 0.0976
969.80 0.09758
969.90 0.09757
970.00 0.09756
970.10 0.09754
970.20 0.09753
970.30 0.09752
970.40 0.0975
970.50 0.09748
970.60 0.09746
970.70 0.09744
970.80 0.09742
970.90 0.0974
971.00 0.09738
971.10 0.09736
971.20 0.09734
971.30 0.09732
971.40 0.0973
971.50 0.09728
971.60 0.09726
971.70 0.09724
971.80 0.09722
971.90 0.0972
972.00 0.09718
972.10 0.09715
972.20 0.09712
972.30 0.0971
972.40 0.09707
972.50 0.09705
972.60 0.09702
972.70 0.097
972.80 0.09697
972.90 0.09695
973.00 0.09692
973.10 0.0969
973.20 0.09687
973.30 0.09685
973.40 0.09682
973.50 0.0968
973.60 0.09677
973.70 0.09674
973.80 0.09672
973.90 0.09669
974.00 0.09667
974.10 0.09664
974.20 0.09662
974.30 0.09659
974.40 0.09656
974.50 0.09653
974.60 0.0965
974.70 0.09647
974.80 0.09644
974.90 0.09641
975.00 0.09638
975.10 0.09635
975.20 0.09632
975.30 0.09629
975.40 0.09626
975.50 0.09623
975.60 0.0962
975.70 0.09617
975.80 0.09614
975.90 0.09611
976.00 0.09608
976.10 0.09605
976.20 0.09602
976.30 0.09599
976.40 0.09596
976.50 0.09593
976.60 0.0959
976.70 0.09587
976.80 0.09584
976.90 0.09581
977.00 0.09578
977.10 0.09574
977.20 0.0957
977.30 0.09567
977.40 0.09563
977.50 0.09559
977.60 0.09556
977.70 0.09552
977.80 0.09548
977.90 0.09545
978.00 0.09541
978.10 0.09537
978.20 0.09534
978.30 0.0953
978.40 0.09526
978.50 0.09523
978.60 0.09519
978.70 0.09516
978.80 0.09512
978.90 0.09508
979.00 0.09505
979.10 0.09501
979.20 0.09497
979.30 0.09494
979.40 0.0949
979.50 0.09486
979.60 0.09483
979.70 0.09479
979.80 0.09476
979.90 0.09472
980.00 0.09468
980.10 0.09465
980.20 0.09461
980.30 0.09458
980.40 0.09454
980.50 0.0945
980.60 0.09447
980.70 0.09443
980.80 0.09439
980.90 0.09436
981.00 0.09432
981.10 0.09429
981.20 0.09425
981.30 0.09421
981.40 0.09418
981.50 0.09414
981.60 0.09411
981.70 0.09407
981.80 0.09403
981.90 0.094
982.00 0.09396
982.10 0.09392
982.20 0.09388
982.30 0.09384
982.40 0.09379
982.50 0.09375
982.60 0.09371
982.70 0.09367
982.80 0.09362
982.90 0.09358
983.00 0.09354
983.10 0.0935
983.20 0.09346
983.30 0.09341
983.40 0.09337
983.50 0.09333
983.60 0.09329
983.70 0.09325
983.80 0.0932
983.90 0.09316
984.00 0.09312
984.10 0.09308
984.20 0.09304
984.30 0.09299
984.40 0.09295
984.50 0.09291
984.60 0.09287
984.70 0.09282
984.80 0.09278
984.90 0.09273
985.00 0.09268
985.10 0.09263
985.20 0.09259
985.30 0.09254
985.40 0.09249
985.50 0.09245
985.60 0.0924
985.70 0.09235
985.80 0.0923
985.90 0.09226
986.00 0.09221
986.10 0.09216
986.20 0.09212
986.30 0.09207
986.40 0.09202
986.50 0.09198
986.60 0.09193
986.70 0.09188
986.80 0.09184
986.90 0.09179
987.00 0.09174
987.10 0.09169
987.20 0.09164
987.30 0.09159
987.40 0.09153
987.50 0.09148
987.60 0.09143
987.70 0.09138
987.80 0.09133
987.90 0.09127
988.00 0.09122
988.10 0.09117
988.20 0.09112
988.30 0.09107
988.40 0.09101
988.50 0.09096
988.60 0.09091
988.70 0.09085
988.80 0.0908
988.90 0.09074
989.00 0.09068
989.10 0.09062
989.20 0.09056
989.30 0.0905
989.40 0.09045
989.50 0.09039
989.60 0.09033
989.70 0.09027
989.80 0.09021
989.90 0.09015
990.00 0.0901
990.10 0.09004
990.20 0.08998
990.30 0.08992
990.40 0.08986
990.50 0.08981
990.60 0.08975
990.70 0.08968
990.80 0.08962
990.90 0.08955
991.00 0.08949
991.10 0.08942
991.20 0.08936
991.30 0.08929
991.40 0.08922
991.50 0.08916
991.60 0.08909
991.70 0.08903
991.80 0.08896
991.90 0.0889
992.00 0.08883
992.10 0.08876
992.20 0.08869
992.30 0.08862
992.40 0.08855
992.50 0.08848
992.60 0.08841
992.70 0.08833
992.80 0.08825
992.90 0.08817
993.00 0.08809
993.10 0.08801
993.20 0.08793
993.30 0.08785
993.40 0.08777
993.50 0.08769
993.60 0.08761
993.70 0.08753
993.80 0.08745
993.90 0.08737
994.00 0.08729
994.10 0.08721
994.20 0.08713
994.30 0.08705
994.40 0.08697
994.50 0.08689
994.60 0.08681
994.70 0.08672
994.80 0.08663
994.90 0.08654
995.00 0.08645
995.10 0.08635
995.20 0.08626
995.30 0.08617
995.40 0.08608
995.50 0.08598
995.60 0.08589
995.70 0.08579
995.80 0.08569
995.90 0.08558
996.00 0.08548
996.10 0.08537
996.20 0.08527
996.30 0.08517
996.40 0.08506
996.50 0.08496
996.60 0.08485
996.70 0.08475
996.80 0.08464
996.90 0.08454
997.00 0.08444
997.10 0.08432
997.20 0.0842
997.30 0.08409
997.40 0.08397
997.50 0.08386
997.60 0.08374
997.70 0.08361
997.80 0.08347
997.90 0.08334
998.00 0.0832
998.10 0.08307
998.20 0.08293
998.30 0.0828
998.40 0.08266
998.50 0.08253
998.60 0.08239
998.70 0.08226
998.80 0.08213
998.90 0.08199
999.00 0.08186
999.10 0.08172
999.20 0.08159
999.30 0.08145
999.40 0.08132
999.50 0.08118
999.60 0.08105
999.70 0.08089
999.80 0.08072
999.90 0.08055
1000.00 0.08038
1000.10 0.08021
1000.20 0.08004
1000.30 0.07987
1000.40 0.0797
1000.50 0.07953
1000.60 0.07936
1000.70 0.07919
1000.80 0.07902
1000.90 0.07885
1001.00 0.07869
1001.10 0.07852
1001.20 0.07835
1001.30 0.07818
1001.40 0.07801
1001.50 0.07784
1001.60 0.07767
1001.70 0.07748
1001.80 0.07729
1001.90 0.0771
1002.00 0.0769
1002.10 0.07669
1002.20 0.07647
1002.30 0.07626
1002.40 0.07605
1002.50 0.07583
1002.60 0.07562
1002.70 0.07541
1002.80 0.07519
1002.90 0.07498
1003.00 0.07477
1003.10 0.07456
1003.20 0.07432
1003.30 0.07408
1003.40 0.07384
1003.50 0.0736
1003.60 0.07337
1003.70 0.07313
1003.80 0.07289
1003.90 0.07264
1004.00 0.07239
1004.10 0.07213
1004.20 0.07188
1004.30 0.07163
1004.40 0.07138
1004.50 0.07115
1004.60 0.07094
1004.70 0.07078
1004.80 0.07072
1004.90 0.07071
1005.00 0.07069
1005.10 0.07075
1005.20 0.07084
1005.30 0.07093
1005.40 0.07102
1005.50 0.0712
1005.60 0.0714
1005.70 0.0716
1005.80 0.0718
1005.90 0.072
1006.00 0.0722
1006.10 0.0724
1006.20 0.07259
1006.30 0.07277
1006.40 0.07295
1006.50 0.07314
1006.60 0.07332
1006.70 0.0735
1006.80 0.07368
1006.90 0.07386
1007.00 0.07404
1007.10 0.0742
1007.20 0.07436
1007.30 0.07452
1007.40 0.07467
1007.50 0.07483
1007.60 0.07499
1007.70 0.07512
1007.80 0.07525
1007.90 0.07537
1008.00 0.0755
1008.10 0.07562
1008.20 0.07575
1008.30 0.07587
1008.40 0.076
1008.50 0.07612
1008.60 0.07624
1008.70 0.07637
1008.80 0.07649
1008.90 0.07662
1009.00 0.07674
1009.10 0.07687
1009.20 0.07699
1009.30 0.07711
1009.40 0.07724
1009.50 0.07736
1009.60 0.07749
1009.70 0.07758
1009.80 0.07766
1009.90 0.07774
1010.00 0.07783
1010.10 0.07791
1010.20 0.07799
1010.30 0.07808
1010.40 0.07816
1010.50 0.07824
1010.60 0.07833
1010.70 0.07841
1010.80 0.07849
1010.90 0.07858
1011.00 0.07866
1011.10 0.07874
1011.20 0.07883
1011.30 0.07891
1011.40 0.07899
1011.50 0.07907
1011.60 0.07916
1011.70 0.07922
1011.80 0.07929
1011.90 0.07935
1012.00 0.07941
1012.10 0.07946
1012.20 0.07951
1012.30 0.07956
1012.40 0.07961
1012.50 0.07966
1012.60 0.07971
1012.70 0.07976
1012.80 0.07981
1012.90 0.07986
1013.00 0.07991
1013.10 0.07995
1013.20 0.08
1013.30 0.08005
1013.40 0.0801
1013.50 0.08015
1013.60 0.0802
1013.70 0.08024
1013.80 0.08027
1013.90 0.0803
1014.00 0.08034
1014.10 0.08037
1014.20 0.0804
1014.30 0.08044
1014.40 0.08047
1014.50 0.08051
1014.60 0.08054
1014.70 0.08056
1014.80 0.08058
1014.90 0.0806
1015.00 0.08062
1015.10 0.08064
1015.20 0.08066
1015.30 0.08068
1015.40 0.0807
1015.50 0.08072
1015.60 0.08074
1015.70 0.08076
1015.80 0.08078
1015.90 0.0808
1016.00 0.08082
1016.10 0.08083
1016.20 0.08085
1016.30 0.08087
1016.40 0.08089
1016.50 0.08091
1016.60 0.08093
1016.70 0.08094
1016.80 0.08095
1016.90 0.08096
1017.00 0.08098
1017.10 0.08098
1017.20 0.08098
1017.30 0.08099
1017.40 0.08099
1017.50 0.081
1017.60 0.081
1017.70 0.08101
1017.80 0.08101
1017.90 0.08101
1018.00 0.08102
1018.10 0.08102
1018.20 0.08103
1018.30 0.08103
1018.40 0.08104
1018.50 0.08104
1018.60 0.08104
1018.70 0.08104
1018.80 0.08104
1018.90 0.08103
1019.00 0.08103
1019.10 0.08102
1019.20 0.08102
1019.30 0.08102
1019.40 0.08101
1019.50 0.08101
1019.60 0.081
1019.70 0.081
1019.80 0.08099
1019.90 0.08099
1020.00 0.08099
1020.10 0.08098
1020.20 0.08098
1020.30 0.08097
1020.40 0.08097
1020.50 0.08096
1020.60 0.08096
1020.70 0.08095
1020.80 0.08094
1020.90 0.08093
1021.00 0.08092
1021.10 0.08091
1021.20 0.0809
1021.30 0.08089
1021.40 0.08088
1021.50 0.08087
1021.60 0.08086
1021.70 0.08085
1021.80 0.08084
1021.90 0.08083
1022.00 0.08082
1022.10 0.0808
1022.20 0.08078
1022.30 0.08077
1022.40 0.08075
1022.50 0.08074
1022.60 0.08072
1022.70 0.08071
1022.80 0.08069
1022.90 0.08068
1023.00 0.08066
1023.10 0.08065
1023.20 0.08063
1023.30 0.08062
1023.40 0.0806
1023.50 0.08059
1023.60 0.08057
1023.70 0.08055
1023.80 0.08054
1023.90 0.08052
1024.00 0.08051
1024.10 0.08049
1024.20 0.08048
1024.30 0.08046
1024.40 0.08045
1024.50 0.08043
1024.60 0.08042
1024.70 0.0804
1024.80 0.08038
1024.90 0.08036
1025.00 0.08034
1025.10 0.08032
1025.20 0.0803
1025.30 0.08028
1025.40 0.08026
1025.50 0.08024
1025.60 0.08022
1025.70 0.0802
1025.80 0.08018
1025.90 0.08016
1026.00 0.08014
1026.10 0.08012
1026.20 0.08011
1026.30 0.08009
1026.40 0.08007
1026.50 0.08005
1026.60 0.08003
1026.70 0.08001
1026.80 0.07999
1026.90 0.07997
1027.00 0.07995
1027.10 0.07993
1027.20 0.0799
1027.30 0.07988
1027.40 0.07986
1027.50 0.07983
1027.60 0.07981
1027.70 0.07979
1027.80 0.07976
1027.90 0.07974
1028.00 0.07972
1028.10 0.07969
1028.20 0.07967
1028.30 0.07965
1028.40 0.07962
1028.50 0.0796
1028.60 0.07958
1028.70 0.07956
1028.80 0.07953
1028.90 0.07951
1029.00 0.07949
1029.10 0.07946
1029.20 0.07944
1029.30 0.07942
1029.40 0.07939
1029.50 0.07937
1029.60 0.07935
1029.70 0.07932
1029.80 0.0793
1029.90 0.07928
1030.00 0.07926
1030.10 0.07923
1030.20 0.07921
1030.30 0.07919
1030.40 0.07916
1030.50 0.07914
1030.60 0.07912
1030.70 0.07909
1030.80 0.07907
1030.90 0.07905
1031.00 0.07903
1031.10 0.079
1031.20 0.07898
1031.30 0.07896
1031.40 0.07893
1031.50 0.07891
1031.60 0.07889
1031.70 0.07887
1031.80 0.07884
1031.90 0.07882
1032.00 0.0788
1032.10 0.07877
1032.20 0.07875
1032.30 0.07872
1032.40 0.07869
1032.50 0.07867
1032.60 0.07864
1032.70 0.07862
1032.80 0.07859
1032.90 0.07857
1033.00 0.07854
1033.10 0.07852
1033.20 0.07849
1033.30 0.07846
1033.40 0.07844
1033.50 0.07841
1033.60 0.07839
1033.70 0.07836
1033.80 0.07834
1033.90 0.07831
1034.00 0.07829
1034.10 0.07826
1034.20 0.07824
1034.30 0.07821
1034.40 0.07819
1034.50 0.07816
1034.60 0.07813
1034.70 0.07811
1034.80 0.07808
1034.90 0.07806
1035.00 0.07803
1035.10 0.07801
1035.20 0.07798
1035.30 0.07796
1035.40 0.07793
1035.50 0.07791
1035.60 0.07788
1035.70 0.07786
1035.80 0.07783
1035.90 0.07781
1036.00 0.07778
1036.10 0.07775
1036.20 0.07773
1036.30 0.0777
1036.40 0.07768
1036.50 0.07765
1036.60 0.07763
1036.70 0.0776
1036.80 0.07758
1036.90 0.07755
1037.00 0.07753
1037.10 0.0775
1037.20 0.07747
1037.30 0.07745
1037.40 0.07742
1037.50 0.0774
1037.60 0.07737
1037.70 0.07734
1037.80 0.07732
1037.90 0.07729
1038.00 0.07726
1038.10 0.07724
1038.20 0.07721
1038.30 0.07718
1038.40 0.07716
1038.50 0.07713
1038.60 0.0771
1038.70 0.07708
1038.80 0.07705
1038.90 0.07703
1039.00 0.077
1039.10 0.07697
1039.20 0.07695
1039.30 0.07692
1039.40 0.07689
1039.50 0.07687
1039.60 0.07684
1039.70 0.07682
1039.80 0.07679
1039.90 0.07676
1040.00 0.07674
1040.10 0.07671
1040.20 0.07668
1040.30 0.07666
1040.40 0.07663
1040.50 0.07661
1040.60 0.07658
1040.70 0.07655
1040.80 0.07653
1040.90 0.0765
1041.00 0.07647
1041.10 0.07645
1041.20 0.07642
1041.30 0.0764
1041.40 0.07637
1041.50 0.07634
1041.60 0.07632
1041.70 0.07629
1041.80 0.07627
1041.90 0.07624
1042.00 0.07621
1042.10 0.07619
1042.20 0.07616
1042.30 0.07613
1042.40 0.07611
1042.50 0.07608
1042.60 0.07605
1042.70 0.07603
1042.80 0.076
1042.90 0.07597
1043.00 0.07595
1043.10 0.07592
1043.20 0.07589
1043.30 0.07587
1043.40 0.07584
1043.50 0.07581
1043.60 0.07579
1043.70 0.07576
1043.80 0.07573
1043.90 0.07571
1044.00 0.07568
1044.10 0.07565
1044.20 0.07563
1044.30 0.0756
1044.40 0.07557
1044.50 0.07555
1044.60 0.07552
1044.70 0.07549
1044.80 0.07547
1044.90 0.07544
1045.00 0.07541
1045.10 0.07539
1045.20 0.07536
1045.30 0.07533
1045.40 0.07531
1045.50 0.07528
1045.60 0.07525
1045.70 0.07523
1045.80 0.0752
1045.90 0.07517
1046.00 0.07515
1046.10 0.07512
1046.20 0.07509
1046.30 0.07507
1046.40 0.07504
1046.50 0.07502
1046.60 0.07499
1046.70 0.07496
1046.80 0.07494
1046.90 0.07491
1047.00 0.07488
1047.10 0.07486
1047.20 0.07483
1047.30 0.0748
1047.40 0.07478
1047.50 0.07475
1047.60 0.07472
1047.70 0.07469
1047.80 0.07467
1047.90 0.07464
1048.00 0.07461
1048.10 0.07459
1048.20 0.07456
1048.30 0.07453
1048.40 0.07451
1048.50 0.07448
1048.60 0.07445
1048.70 0.07443
1048.80 0.0744
1048.90 0.07437
1049.00 0.07435
1049.10 0.07432
1049.20 0.07429
1049.30 0.07427
1049.40 0.07424
1049.50 0.07421
1049.60 0.07419
1049.70 0.07416
1049.80 0.07413
1049.90 0.07411
1050.00 0.07408
1050.10 0.07405
1050.20 0.07403
1050.30 0.074
1050.40 0.07397
1050.50 0.07395
1050.60 0.07392
1050.70 0.07389
1050.80 0.07387
1050.90 0.07384
1051.00 0.07381
1051.10 0.07379
1051.20 0.07376
1051.30 0.07373
1051.40 0.07371
1051.50 0.07368
1051.60 0.07365
1051.70 0.07363
1051.80 0.0736
1051.90 0.07357
1052.00 0.07355
1052.10 0.07352
1052.20 0.07349
1052.30 0.07347
1052.40 0.07344
1052.50 0.07341
1052.60 0.07339
1052.70 0.07336
1052.80 0.07333
1052.90 0.0733
1053.00 0.07328
1053.10 0.07325
1053.20 0.07322
1053.30 0.0732
1053.40 0.07317
1053.50 0.07314
1053.60 0.07312
1053.70 0.07309
1053.80 0.07306
1053.90 0.07304
1054.00 0.07301
1054.10 0.07298
1054.20 0.07295
1054.30 0.07293
1054.40 0.0729
1054.50 0.07287
1054.60 0.07285
1054.70 0.07282
1054.80 0.07279
1054.90 0.07277
1055.00 0.07274
1055.10 0.07271
1055.20 0.07269
1055.30 0.07266
1055.40 0.07263
1055.50 0.07261
1055.60 0.07258
1055.70 0.07255
1055.80 0.07253
1055.90 0.0725
1056.00 0.07247
1056.10 0.07245
1056.20 0.07242
1056.30 0.07239
1056.40 0.07237
1056.50 0.07234
1056.60 0.07231
1056.70 0.07229
1056.80 0.07226
1056.90 0.07223
1057.00 0.07221
1057.10 0.07218
1057.20 0.07215
1057.30 0.07212
1057.40 0.0721
1057.50 0.07207
1057.60 0.07204
1057.70 0.07201
1057.80 0.07199
1057.90 0.07196
1058.00 0.07193
1058.10 0.07191
1058.20 0.07188
1058.30 0.07185
1058.40 0.07182
1058.50 0.0718
1058.60 0.07177
1058.70 0.07174
1058.80 0.07171
1058.90 0.07169
1059.00 0.07166
1059.10 0.07163
1059.20 0.07161
1059.30 0.07158
1059.40 0.07155
1059.50 0.07152
1059.60 0.0715
1059.70 0.07147
1059.80 0.07144
1059.90 0.07142
1060.00 0.07139
1060.10 0.07136
1060.20 0.07133
1060.30 0.07131
1060.40 0.07128
1060.50 0.07125
1060.60 0.07123
1060.70 0.0712
1060.80 0.07117
1060.90 0.07114
1061.00 0.07112
1061.10 0.07109
1061.20 0.07106
1061.30 0.07104
1061.40 0.07101
1061.50 0.07098
1061.60 0.07096
1061.70 0.07093
1061.80 0.0709
1061.90 0.07087
1062.00 0.07085
1062.10 0.07082
1062.20 0.07079
1062.30 0.07076
1062.40 0.07073
1062.50 0.07071
1062.60 0.07068
1062.70 0.07065
1062.80 0.07062
1062.90 0.07059
1063.00 0.07057
1063.10 0.07054
1063.20 0.07051
1063.30 0.07048
1063.40 0.07045
1063.50 0.07042
1063.60 0.0704
1063.70 0.07037
1063.80 0.07034
1063.90 0.07031
1064.00 0.07028
1064.10 0.07026
1064.20 0.07023
1064.30 0.0702
1064.40 0.07017
1064.50 0.07014
1064.60 0.07012
1064.70 0.07009
1064.80 0.07006
1064.90 0.07003
1065.00 0.07
1065.10 0.06998
1065.20 0.06995
1065.30 0.06992
1065.40 0.06989
1065.50 0.06986
1065.60 0.06984
1065.70 0.06981
1065.80 0.06978
1065.90 0.06975
1066.00 0.06972
1066.10 0.0697
1066.20 0.06967
1066.30 0.06964
1066.40 0.06961
1066.50 0.06958
1066.60 0.06956
1066.70 0.06953
1066.80 0.0695
1066.90 0.06947
1067.00 0.06944
1067.10 0.06941
1067.20 0.06938
1067.30 0.06935
1067.40 0.06932
1067.50 0.06929
1067.60 0.06926
1067.70 0.06923
1067.80 0.0692
1067.90 0.06917
1068.00 0.06914
1068.10 0.06911
1068.20 0.06908
1068.30 0.06905
1068.40 0.06902
1068.50 0.06899
1068.60 0.06896
1068.70 0.06893
1068.80 0.0689
1068.90 0.06887
1069.00 0.06884
1069.10 0.06881
1069.20 0.06878
1069.30 0.06875
1069.40 0.06872
1069.50 0.06869
1069.60 0.06866
1069.70 0.06863
1069.80 0.0686
1069.90 0.06857
1070.00 0.06854
1070.10 0.06851
1070.20 0.06848
1070.30 0.06845
1070.40 0.06841
1070.50 0.06838
1070.60 0.06835
1070.70 0.06832
1070.80 0.06829
1070.90 0.06826
1071.00 0.06823
1071.10 0.0682
1071.20 0.06817
1071.30 0.06814
1071.40 0.06811
1071.50 0.06808
1071.60 0.06805
1071.70 0.06802
1071.80 0.06799
1071.90 0.06796
1072.00 0.06793
1072.10 0.0679
1072.20 0.06787
1072.30 0.06784
1072.40 0.0678
1072.50 0.06777
1072.60 0.06774
1072.70 0.0677
1072.80 0.06767
1072.90 0.06764
1073.00 0.06761
1073.10 0.06757
1073.20 0.06754
1073.30 0.06751
1073.40 0.06748
1073.50 0.06744
1073.60 0.06741
1073.70 0.06737
1073.80 0.06733
1073.90 0.0673
1074.00 0.06726
1074.10 0.06722
1074.20 0.06719
1074.30 0.06715
1074.40 0.06711
1074.50 0.06708
1074.60 0.06704
1074.70 0.06701
1074.80 0.06697
1074.90 0.06693
1075.00 0.0669
1075.10 0.06686
1075.20 0.06682
1075.30 0.06679
1075.40 0.06675
1075.50 0.06671
1075.60 0.06668
1075.70 0.06664
1075.80 0.06661
1075.90 0.06657
1076.00 0.06653
1076.10 0.0665
1076.20 0.06646
1076.30 0.06643
1076.40 0.06639
1076.50 0.06635
1076.60 0.06632
1076.70 0.06628
1076.80 0.06625
1076.90 0.06621
1077.00 0.06617
1077.10 0.06613
1077.20 0.06609
1077.30 0.06605
1077.40 0.06601
1077.50 0.06597
1077.60 0.06593
1077.70 0.06589
1077.80 0.06584
1077.90 0.0658
1078.00 0.06576
1078.10 0.06571
1078.20 0.06567
1078.30 0.06563
1078.40 0.06558
1078.50 0.06554
1078.60 0.0655
1078.70 0.06545
1078.80 0.06541
1078.90 0.06537
1079.00 0.06532
1079.10 0.06528
1079.20 0.06524
1079.30 0.06519
1079.40 0.06515
1079.50 0.0651
1079.60 0.06505
1079.70 0.065
1079.80 0.06495
1079.90 0.0649
1080.00 0.06485
1080.10 0.0648
1080.20 0.06475
1080.30 0.0647
1080.40 0.06465
1080.50 0.0646
1080.60 0.06455
1080.70 0.0645
1080.80 0.06445
1080.90 0.0644
1081.00 0.06435
1081.10 0.0643
1081.20 0.06425
1081.30 0.0642
1081.40 0.06415
1081.50 0.0641
1081.60 0.06404
1081.70 0.06399
1081.80 0.06393
1081.90 0.06388
1082.00 0.06382
1082.10 0.06376
1082.20 0.0637
1082.30 0.06364
1082.40 0.06357
1082.50 0.06351
1082.60 0.06345
1082.70 0.06339
1082.80 0.06333
1082.90 0.06327
1083.00 0.06321
1083.10 0.06315
1083.20 0.06308
1083.30 0.06302
1083.40 0.06296
1083.50 0.0629
1083.60 0.06283
1083.70 0.06276
1083.80 0.06269
1083.90 0.06262
1084.00 0.06255
1084.10 0.06248
1084.20 0.06241
1084.30 0.06234
1084.40 0.06227
1084.50 0.0622
1084.60 0.06212
1084.70 0.06203
1084.80 0.06195
1084.90 0.06187
1085.00 0.06179
1085.10 0.06171
1085.20 0.06162
1085.30 0.06154
1085.40 0.06146
1085.50 0.06138
1085.60 0.06129
1085.70 0.06121
1085.80 0.06113
1085.90 0.06105
1086.00 0.06097
1086.10 0.06089
1086.20 0.0608
1086.30 0.06072
1086.40 0.06064
1086.50 0.06055
1086.60 0.06046
1086.70 0.06036
1086.80 0.06027
1086.90 0.06018
1087.00 0.06008
1087.10 0.05997
1087.20 0.05987
1087.30 0.05976
1087.40 0.05965
1087.50 0.05955
1087.60 0.05944
1087.70 0.05933
1087.80 0.05923
1087.90 0.05912
1088.00 0.05901
1088.10 0.0589
1088.20 0.0588
1088.30 0.05869
1088.40 0.05859
1088.50 0.05847
1088.60 0.05834
1088.70 0.0582
1088.80 0.05807
1088.90 0.05794
1089.00 0.05781
1089.10 0.05767
1089.20 0.05754
1089.30 0.05741
1089.40 0.05728
1089.50 0.05715
1089.60 0.05701
1089.70 0.05688
1089.80 0.05675
1089.90 0.05662
1090.00 0.05648
1090.10 0.05635
1090.20 0.05622
1090.30 0.05609
1090.40 0.05596
1090.50 0.05581
1090.60 0.05565
1090.70 0.05548
1090.80 0.05531
1090.90 0.05514
1091.00 0.05498
1091.10 0.05481
1091.20 0.05464
1091.30 0.05447
1091.40 0.05431
1091.50 0.05414
1091.60 0.05397
1091.70 0.05381
1091.80 0.05364
1091.90 0.05347
1092.00 0.0533
1092.10 0.05309
1092.20 0.05289
1092.30 0.05269
1092.40 0.05248
1092.50 0.05228
1092.60 0.05208
1092.70 0.05186
1092.80 0.05162
1092.90 0.05138
1093.00 0.05114
1093.10 0.05089
1093.20 0.05061
1093.30 0.05033
1093.40 0.05002
1093.50 0.04969
1093.60 0.04929
1093.70 0.04899
1093.80 0.04879
1093.90 0.04877
1094.00 0.04912
1094.10 0.04947
1094.20 0.04982
1094.30 0.05013
1094.40 0.05036
1094.50 0.05058
1094.60 0.0508
1094.70 0.05102
1094.80 0.05125
1094.90 0.05147
1095.00 0.05167
1095.10 0.05182
1095.20 0.05197
1095.30 0.05212
1095.40 0.05228
1095.50 0.05243
1095.60 0.05258
1095.70 0.05273
1095.80 0.05289
1095.90 0.05304
1096.00 0.05319
1096.10 0.05334
1096.20 0.05349
1096.30 0.05364
1096.40 0.0538
1096.50 0.05394
1096.60 0.05406
1096.70 0.05418
1096.80 0.0543
1096.90 0.05442
1097.00 0.05454
1097.10 0.05464
1097.20 0.05474
1097.30 0.05484
1097.40 0.05494
1097.50 0.05504
1097.60 0.05514
1097.70 0.05524
1097.80 0.05534
1097.90 0.05544
1098.00 0.05554
1098.10 0.05564
1098.20 0.05574
1098.30 0.05584
1098.40 0.05594
1098.50 0.05603
1098.60 0.0561
1098.70 0.05617
1098.80 0.05624
1098.90 0.05631
1099.00 0.05639
1099.10 0.05646
1099.20 0.05653
1099.30 0.0566
1099.40 0.05667
1099.50 0.05674
1099.60 0.05681
1099.70 0.05688
1099.80 0.05695
1099.90 0.05702
1100.00 0.05709
1100.10 0.05716
1100.20 0.05724
1100.30 0.05731
1100.40 0.05738
1100.50 0.05744
1100.60 0.05749
1100.70 0.05754
1100.80 0.05758
1100.90 0.05763
1101.00 0.05768
1101.10 0.05773
1101.20 0.05778
1101.30 0.05782
1101.40 0.05787
1101.50 0.05792
1101.60 0.05797
1101.70 0.05801
1101.80 0.05806
1101.90 0.05811
1102.00 0.05816
1102.10 0.05819
1102.20 0.05823
1102.30 0.05827
1102.40 0.05831
1102.50 0.05834
1102.60 0.05837
1102.70 0.0584
1102.80 0.05843
1102.90 0.05846
1103.00 0.05849
1103.10 0.05852
1103.20 0.05855
1103.30 0.05858
1103.40 0.05861
1103.50 0.05864
1103.60 0.05866
1103.70 0.05868
1103.80 0.0587
1103.90 0.05872
1104.00 0.05874
1104.10 0.05876
1104.20 0.05878
1104.30 0.0588
1104.40 0.05881
1104.50 0.05883
1104.60 0.05885
1104.70 0.05887
1104.80 0.05889
1104.90 0.05891
1105.00 0.05893
1105.10 0.05895
1105.20 0.05897
1105.30 0.05899
1105.40 0.05901
1105.50 0.05902
1105.60 0.05903
1105.70 0.05904
1105.80 0.05905
1105.90 0.05906
1106.00 0.05907
1106.10 0.05908
1106.20 0.05909
1106.30 0.05909
1106.40 0.0591
1106.50 0.05911
1106.60 0.05912
1106.70 0.05913
1106.80 0.05914
1106.90 0.05915
1107.00 0.05916
1107.10 0.05916
1107.20 0.05917
1107.30 0.05917
1107.40 0.05917
1107.50 0.05918
1107.60 0.05918
1107.70 0.05918
1107.80 0.05918
1107.90 0.05918
1108.00 0.05918
1108.10 0.05918
1108.20 0.05918
1108.30 0.05918
1108.40 0.05918
1108.50 0.05918
1108.60 0.05918
1108.70 0.05918
1108.80 0.05918
1108.90 0.05918
1109.00 0.05918
1109.10 0.05918
1109.20 0.05918
1109.30 0.05918
1109.40 0.05918
1109.50 0.05918
1109.60 0.05917
1109.70 0.05916
1109.80 0.05916
1109.90 0.05915
1110.00 0.05915
1110.10 0.05914
1110.20 0.05913
1110.30 0.05913
1110.40 0.05912
1110.50 0.05912
1110.60 0.05911
1110.70 0.0591
1110.80 0.0591
1110.90 0.05909
1111.00 0.05909
1111.10 0.05908
1111.20 0.05907
1111.30 0.05907
1111.40 0.05906
1111.50 0.05906
1111.60 0.05905
1111.70 0.05904
1111.80 0.05904
1111.90 0.05903
1112.00 0.05903
1112.10 0.05902
1112.20 0.05901
1112.30 0.059
1112.40 0.05899
1112.50 0.05898
1112.60 0.05897
1112.70 0.05896
1112.80 0.05895
1112.90 0.05894
1113.00 0.05893
1113.10 0.05892
1113.20 0.05891
1113.30 0.0589
1113.40 0.05889
1113.50 0.05888
1113.60 0.05887
1113.70 0.05885
1113.80 0.05884
1113.90 0.05883
1114.00 0.05882
1114.10 0.0588
1114.20 0.05879
1114.30 0.05878
1114.40 0.05876
1114.50 0.05875
1114.60 0.05874
1114.70 0.05873
1114.80 0.05871
1114.90 0.0587
1115.00 0.05869
1115.10 0.05868
1115.20 0.05866
1115.30 0.05865
1115.40 0.05864
1115.50 0.05863
1115.60 0.05861
1115.70 0.0586
1115.80 0.05859
1115.90 0.05858
1116.00 0.05856
1116.10 0.05855
1116.20 0.05854
1116.30 0.05852
1116.40 0.05851
1116.50 0.0585
1116.60 0.05849
1116.70 0.05847
1116.80 0.05846
1116.90 0.05845
1117.00 0.05844
1117.10 0.05842
1117.20 0.05841
1117.30 0.05839
1117.40 0.05837
1117.50 0.05836
1117.60 0.05834
1117.70 0.05833
1117.80 0.05831
1117.90 0.0583
1118.00 0.05828
1118.10 0.05827
1118.20 0.05825
1118.30 0.05823
1118.40 0.05822
1118.50 0.0582
1118.60 0.05819
1118.70 0.05817
1118.80 0.05816
1118.90 0.05814
1119.00 0.05813
1119.10 0.05811
1119.20 0.05809
1119.30 0.05808
1119.40 0.05806
1119.50 0.05805
1119.60 0.05803
1119.70 0.05802
1119.80 0.058
1119.90 0.05799
1120.00 0.05797
1120.10 0.05796
1120.20 0.05794
1120.30 0.05792
1120.40 0.05791
1120.50 0.05789
1120.60 0.05788
1120.70 0.05786
1120.80 0.05785
1120.90 0.05783
1121.00 0.05782
1121.10 0.0578
1121.20 0.05779
1121.30 0.05777
1121.40 0.05775
1121.50 0.05774
1121.60 0.05772
1121.70 0.05771
1121.80 0.05769
1121.90 0.05768
1122.00 0.05766
1122.10 0.05765
1122.20 0.05763
1122.30 0.05761
1122.40 0.05759
1122.50 0.05758
1122.60 0.05756
1122.70 0.05754
1122.80 0.05753
1122.90 0.05751
1123.00 0.05749
1123.10 0.05747
1123.20 0.05746
1123.30 0.05744
1123.40 0.05742
1123.50 0.05741
1123.60 0.05739
1123.70 0.05737
1123.80 0.05736
1123.90 0.05734
1124.00 0.05732
1124.10 0.0573
1124.20 0.05729
1124.30 0.05727
1124.40 0.05725
1124.50 0.05724
1124.60 0.05722
1124.70 0.0572
1124.80 0.05719
1124.90 0.05717
1125.00 0.05715
1125.10 0.05713
1125.20 0.05712
1125.30 0.0571
1125.40 0.05708
1125.50 0.05707
1125.60 0.05705
1125.70 0.05703
1125.80 0.05702
1125.90 0.057
1126.00 0.05698
1126.10 0.05696
1126.20 0.05695
1126.30 0.05693
1126.40 0.05691
1126.50 0.0569
1126.60 0.05688
1126.70 0.05686
1126.80 0.05685
1126.90 0.05683
1127.00 0.05681
1127.10 0.0568
1127.20 0.05678
1127.30 0.05676
1127.40 0.05674
1127.50 0.05672
1127.60 0.05671
1127.70 0.05669
1127.80 0.05667
1127.90 0.05665
1128.00 0.05664
1128.10 0.05662
1128.20 0.0566
1128.30 0.05658
1128.40 0.05657
1128.50 0.05655
1128.60 0.05653
1128.70 0.05651
1128.80 0.0565
1128.90 0.05648
1129.00 0.05646
1129.10 0.05644
1129.20 0.05643
1129.30 0.05641
1129.40 0.05639
1129.50 0.05637
1129.60 0.05635
1129.70 0.05634
1129.80 0.05632
1129.90 0.0563
1130.00 0.05628
1130.10 0.05627
1130.20 0.05625
1130.30 0.05623
1130.40 0.05621
1130.50 0.0562
1130.60 0.05618
1130.70 0.05616
1130.80 0.05614
1130.90 0.05613
1131.00 0.05611
1131.10 0.05609
1131.20 0.05607
1131.30 0.05606
1131.40 0.05604
1131.50 0.05602
1131.60 0.05601
1131.70 0.05599
1131.80 0.05597
1131.90 0.05595
1132.00 0.05594
1132.10 0.05592
1132.20 0.0559
1132.30 0.05588
1132.40 0.05586
1132.50 0.05585
1132.60 0.05583
1132.70 0.05581
1132.80 0.05579
1132.90 0.05578
1133.00 0.05576
1133.10 0.05574
1133.20 0.05572
1133.30 0.0557
1133.40 0.05569
1133.50 0.05567
1133.60 0.05565
1133.70 0.05563
1133.80 0.05562
1133.90 0.0556
1134.00 0.05558
1134.10 0.05556
1134.20 0.05554
1134.30 0.05553
1134.40 0.05551
1134.50 0.05549
1134.60 0.05547
1134.70 0.05546
1134.80 0.05544
1134.90 0.05542
1135.00 0.0554
1135.10 0.05539
1135.20 0.05537
1135.30 0.05535
1135.40 0.05533
1135.50 0.05532
1135.60 0.0553
1135.70 0.05528
1135.80 0.05526
1135.90 0.05524
1136.00 0.05523
1136.10 0.05521
1136.20 0.05519
1136.30 0.05517
1136.40 0.05516
1136.50 0.05514
1136.60 0.05512
1136.70 0.0551
1136.80 0.05509
1136.90 0.05507
1137.00 0.05505
1137.10 0.05503
1137.20 0.05502
1137.30 0.055
1137.40 0.05498
1137.50 0.05496
1137.60 0.05495
1137.70 0.05493
1137.80 0.05491
1137.90 0.05489
1138.00 0.05487
1138.10 0.05486
1138.20 0.05484
1138.30 0.05482
1138.40 0.0548
1138.50 0.05479
1138.60 0.05477
1138.70 0.05475
1138.80 0.05473
1138.90 0.05472
1139.00 0.0547
1139.10 0.05468
1139.20 0.05466
1139.30 0.05465
1139.40 0.05463
1139.50 0.05461
1139.60 0.05459
1139.70 0.05457
1139.80 0.05456
1139.90 0.05454
1140.00 0.05452
1140.10 0.0545
1140.20 0.05449
1140.30 0.05447
1140.40 0.05445
1140.50 0.05443
1140.60 0.05442
1140.70 0.0544
1140.80 0.05438
1140.90 0.05436
1141.00 0.05435
1141.10 0.05433
1141.20 0.05431
1141.30 0.05429
1141.40 0.05428
1141.50 0.05426
1141.60 0.05424
1141.70 0.05422
1141.80 0.05421
1141.90 0.05419
1142.00 0.05417
1142.10 0.05415
1142.20 0.05414
1142.30 0.05412
1142.40 0.0541
1142.50 0.05408
1142.60 0.05407
1142.70 0.05405
1142.80 0.05403
1142.90 0.05401
1143.00 0.054
1143.10 0.05398
1143.20 0.05396
1143.30 0.05394
1143.40 0.05393
1143.50 0.05391
1143.60 0.05389
1143.70 0.05387
1143.80 0.05386
1143.90 0.05384
1144.00 0.05382
1144.10 0.05381
1144.20 0.05379
1144.30 0.05377
1144.40 0.05375
1144.50 0.05374
1144.60 0.05372
1144.70 0.0537
1144.80 0.05368
1144.90 0.05367
1145.00 0.05365
1145.10 0.05363
1145.20 0.05361
1145.30 0.0536
1145.40 0.05358
1145.50 0.05356
1145.60 0.05354
1145.70 0.05353
1145.80 0.05351
1145.90 0.05349
1146.00 0.05348
1146.10 0.05346
1146.20 0.05344
1146.30 0.05342
1146.40 0.05341
1146.50 0.05339
1146.60 0.05337
1146.70 0.05335
1146.80 0.05334
1146.90 0.05332
1147.00 0.0533
1147.10 0.05328
1147.20 0.05327
1147.30 0.05325
1147.40 0.05323
1147.50 0.05322
1147.60 0.0532
1147.70 0.05318
1147.80 0.05316
1147.90 0.05315
1148.00 0.05313
1148.10 0.05311
1148.20 0.0531
1148.30 0.05308
1148.40 0.05306
1148.50 0.05304
1148.60 0.05303
1148.70 0.05301
1148.80 0.05299
1148.90 0.05297
1149.00 0.05296
1149.10 0.05294
1149.20 0.05292
1149.30 0.05291
1149.40 0.05289
1149.50 0.05287
1149.60 0.05285
1149.70 0.05284
1149.80 0.05282
1149.90 0.0528
1150.00 0.05279
1150.10 0.05277
1150.20 0.05275
1150.30 0.05273
1150.40 0.05272
1150.50 0.0527
1150.60 0.05268
1150.70 0.05267
1150.80 0.05265
1150.90 0.05263
1151.00 0.05262
1151.10 0.0526
1151.20 0.05258
1151.30 0.05256
1151.40 0.05255
1151.50 0.05253
1151.60 0.05251
1151.70 0.0525
1151.80 0.05248
1151.90 0.05246
1152.00 0.05244
1152.10 0.05243
1152.20 0.05241
1152.30 0.05239
1152.40 0.05238
1152.50 0.05236
1152.60 0.05234
1152.70 0.05233
1152.80 0.05231
1152.90 0.05229
1153.00 0.05227
1153.10 0.05226
1153.20 0.05224
1153.30 0.05222
1153.40 0.05221
1153.50 0.05219
1153.60 0.05217
1153.70 0.05216
1153.80 0.05214
1153.90 0.05212
1154.00 0.05211
1154.10 0.05209
1154.20 0.05207
1154.30 0.05206
1154.40 0.05204
1154.50 0.05202
1154.60 0.052
1154.70 0.05199
1154.80 0.05197
1154.90 0.05195
1155.00 0.05194
1155.10 0.05192
1155.20 0.0519
1155.30 0.05189
1155.40 0.05187
1155.50 0.05185
1155.60 0.05184
1155.70 0.05182
1155.80 0.0518
1155.90 0.05179
1156.00 0.05177
1156.10 0.05175
1156.20 0.05174
1156.30 0.05172
1156.40 0.0517
1156.50 0.05168
1156.60 0.05167
1156.70 0.05165
1156.80 0.05163
1156.90 0.05162
1157.00 0.0516
1157.10 0.05158
1157.20 0.05157
1157.30 0.05155
1157.40 0.05153
1157.50 0.05152
1157.60 0.0515
1157.70 0.05148
1157.80 0.05147
1157.90 0.05145
1158.00 0.05143
1158.10 0.05142
1158.20 0.0514
1158.30 0.05138
1158.40 0.05137
1158.50 0.05135
1158.60 0.05133
1158.70 0.05132
1158.80 0.0513
1158.90 0.05128
1159.00 0.05127
1159.10 0.05125
1159.20 0.05123
1159.30 0.05122
1159.40 0.0512
1159.50 0.05118
1159.60 0.05117
1159.70 0.05115
1159.80 0.05114
1159.90 0.05112
1160.00 0.0511
1160.10 0.05109
1160.20 0.05107
1160.30 0.05105
1160.40 0.05104
1160.50 0.05102
1160.60 0.051
1160.70 0.05099
1160.80 0.05097
1160.90 0.05095
1161.00 0.05094
1161.10 0.05092
1161.20 0.0509
1161.30 0.05089
1161.40 0.05087
1161.50 0.05085
1161.60 0.05084
1161.70 0.05082
1161.80 0.0508
1161.90 0.05079
1162.00 0.05077
1162.10 0.05076
1162.20 0.05074
1162.30 0.05072
1162.40 0.05071
1162.50 0.05069
1162.60 0.05067
1162.70 0.05066
1162.80 0.05064
1162.90 0.05062
1163.00 0.05061
1163.10 0.05059
1163.20 0.05058
1163.30 0.05056
1163.40 0.05054
1163.50 0.05053
1163.60 0.05051
1163.70 0.05049
1163.80 0.05048
1163.90 0.05046
1164.00 0.05044
1164.10 0.05043
1164.20 0.05041
1164.30 0.0504
1164.40 0.05038
1164.50 0.05036
1164.60 0.05035
1164.70 0.05033
1164.80 0.05031
1164.90 0.0503
1165.00 0.05028
1165.10 0.05027
1165.20 0.05025
1165.30 0.05023
1165.40 0.05022
1165.50 0.0502
1165.60 0.05018
1165.70 0.05017
1165.80 0.05015
1165.90 0.05014
1166.00 0.05012
1166.10 0.0501
1166.20 0.05009
1166.30 0.05007
1166.40 0.05005
1166.50 0.05004
1166.60 0.05002
1166.70 0.05001
1166.80 0.04999
1166.90 0.04997
1167.00 0.04996
1167.10 0.04994
1167.20 0.04993
1167.30 0.04991
1167.40 0.04989
1167.50 0.04988
1167.60 0.04986
1167.70 0.04985
1167.80 0.04983
1167.90 0.04981
1168.00 0.0498
1168.10 0.04978
1168.20 0.04976
1168.30 0.04975
1168.40 0.04973
1168.50 0.04972
1168.60 0.0497
1168.70 0.04968
1168.80 0.04967
1168.90 0.04965
1169.00 0.04964
1169.10 0.04962
1169.20 0.0496
1169.30 0.04959
1169.40 0.04957
1169.50 0.04956
1169.60 0.04954
1169.70 0.04952
1169.80 0.04951
1169.90 0.04949
1170.00 0.04948
1170.10 0.04946
1170.20 0.04944
1170.30 0.04943
1170.40 0.04941
1170.50 0.0494
1170.60 0.04938
1170.70 0.04936
1170.80 0.04935
1170.90 0.04933
1171.00 0.04932
1171.10 0.0493
1171.20 0.04929
1171.30 0.04927
1171.40 0.04925
1171.50 0.04924
1171.60 0.04922
1171.70 0.04921
1171.80 0.04919
1171.90 0.04917
1172.00 0.04916
1172.10 0.04914
1172.20 0.04913
1172.30 0.04911
1172.40 0.04909
1172.50 0.04908
1172.60 0.04906
1172.70 0.04905
1172.80 0.04903
1172.90 0.04902
1173.00 0.049
1173.10 0.04898
1173.20 0.04897
1173.30 0.04895
1173.40 0.04894
1173.50 0.04892
1173.60 0.04891
1173.70 0.04889
1173.80 0.04887
1173.90 0.04886
1174.00 0.04884
1174.10 0.04883
1174.20 0.04881
1174.30 0.0488
1174.40 0.04878
1174.50 0.04876
1174.60 0.04875
1174.70 0.04873
1174.80 0.04872
1174.90 0.0487
1175.00 0.04869
1175.10 0.04867
1175.20 0.04865
1175.30 0.04864
1175.40 0.04862
1175.50 0.04861
1175.60 0.04859
1175.70 0.04858
1175.80 0.04856
1175.90 0.04855
1176.00 0.04853
1176.10 0.04851
1176.20 0.0485
1176.30 0.04848
1176.40 0.04847
1176.50 0.04845
1176.60 0.04844
1176.70 0.04842
1176.80 0.04841
1176.90 0.04839
1177.00 0.04837
1177.10 0.04836
1177.20 0.04834
1177.30 0.04833
1177.40 0.04831
1177.50 0.0483
1177.60 0.04828
1177.70 0.04827
1177.80 0.04825
1177.90 0.04823
1178.00 0.04822
1178.10 0.0482
1178.20 0.04819
1178.30 0.04817
1178.40 0.04816
1178.50 0.04814
1178.60 0.04813
1178.70 0.04811
1178.80 0.0481
1178.90 0.04808
1179.00 0.04806
1179.10 0.04805
1179.20 0.04803
1179.30 0.04802
1179.40 0.048
1179.50 0.04799
1179.60 0.04797
1179.70 0.04796
1179.80 0.04794
1179.90 0.04793
1180.00 0.04791
1180.10 0.0479
1180.20 0.04788
1180.30 0.04786
1180.40 0.04785
1180.50 0.04783
1180.60 0.04782
1180.70 0.0478
1180.80 0.04779
1180.90 0.04777
1181.00 0.04776
1181.10 0.04774
1181.20 0.04773
1181.30 0.04771
1181.40 0.0477
1181.50 0.04768
1181.60 0.04767
1181.70 0.04765
1181.80 0.04764
1181.90 0.04762
1182.00 0.0476
1182.10 0.04759
1182.20 0.04757
1182.30 0.04756
1182.40 0.04754
1182.50 0.04753
1182.60 0.04751
1182.70 0.0475
1182.80 0.04748
1182.90 0.04747
1183.00 0.04745
1183.10 0.04744
1183.20 0.04742
1183.30 0.04741
1183.40 0.04739
1183.50 0.04738
1183.60 0.04736
1183.70 0.04735
1183.80 0.04733
1183.90 0.04732
1184.00 0.0473
1184.10 0.04729
1184.20 0.04727
1184.30 0.04726
1184.40 0.04724
1184.50 0.04723
1184.60 0.04721
1184.70 0.0472
1184.80 0.04718
1184.90 0.04717
1185.00 0.04715
1185.10 0.04713
1185.20 0.04712
1185.30 0.0471
1185.40 0.04709
1185.50 0.04707
1185.60 0.04706
1185.70 0.04704
1185.80 0.04703
1185.90 0.04701
1186.00 0.047
1186.10 0.04698
1186.20 0.04697
1186.30 0.04695
1186.40 0.04694
1186.50 0.04692
1186.60 0.04691
1186.70 0.04689
1186.80 0.04688
1186.90 0.04686
1187.00 0.04685
1187.10 0.04683
1187.20 0.04682
1187.30 0.0468
1187.40 0.04679
1187.50 0.04677
1187.60 0.04676
1187.70 0.04674
1187.80 0.04673
1187.90 0.04672
1188.00 0.0467
1188.10 0.04669
1188.20 0.04667
1188.30 0.04666
1188.40 0.04664
1188.50 0.04663
1188.60 0.04661
1188.70 0.0466
1188.80 0.04658
1188.90 0.04657
1189.00 0.04655
1189.10 0.04654
1189.20 0.04652
1189.30 0.04651
1189.40 0.04649
1189.50 0.04648
1189.60 0.04646
1189.70 0.04645
1189.80 0.04643
1189.90 0.04642
1190.00 0.0464
1190.10 0.04639
1190.20 0.04637
1190.30 0.04636
1190.40 0.04634
1190.50 0.04633
1190.60 0.04631
1190.70 0.0463
1190.80 0.04629
1190.90 0.04627
1191.00 0.04626
1191.10 0.04624
1191.20 0.04623
1191.30 0.04621
1191.40 0.0462
1191.50 0.04618
1191.60 0.04617
1191.70 0.04615
1191.80 0.04614
1191.90 0.04612
1192.00 0.04611
1192.10 0.04609
1192.20 0.04608
1192.30 0.04606
1192.40 0.04605
1192.50 0.04604
1192.60 0.04602
1192.70 0.04601
1192.80 0.04599
1192.90 0.04598
1193.00 0.04596
1193.10 0.04595
1193.20 0.04593
1193.30 0.04592
1193.40 0.0459
1193.50 0.04589
1193.60 0.04587
1193.70 0.04586
1193.80 0.04585
1193.90 0.04583
1194.00 0.04582
1194.10 0.0458
1194.20 0.04579
1194.30 0.04577
1194.40 0.04576
1194.50 0.04574
1194.60 0.04573
1194.70 0.04571
1194.80 0.0457
1194.90 0.04569
1195.00 0.04567
1195.10 0.04566
1195.20 0.04564
1195.30 0.04563
1195.40 0.04561
1195.50 0.0456
1195.60 0.04558
1195.70 0.04557
1195.80 0.04555
1195.90 0.04554
1196.00 0.04553
1196.10 0.04551
1196.20 0.0455
1196.30 0.04548
1196.40 0.04547
1196.50 0.04545
1196.60 0.04544
1196.70 0.04542
1196.80 0.04541
1196.90 0.0454
1197.00 0.04538
1197.10 0.04537
1197.20 0.04535
1197.30 0.04534
1197.40 0.04532
1197.50 0.04531
1197.60 0.04529
1197.70 0.04528
1197.80 0.04527
1197.90 0.04525
1198.00 0.04524
1198.10 0.04522
1198.20 0.04521
1198.30 0.04519
1198.40 0.04518
1198.50 0.04517
1198.60 0.04515
1198.70 0.04514
1198.80 0.04512
1198.90 0.04511
1199.00 0.04509
1199.10 0.04508
1199.20 0.04507
1199.30 0.04505
1199.40 0.04504
1199.50 0.04502
1199.60 0.04501
1199.70 0.04499
1199.80 0.04498
1199.90 0.04497
1200.00 0
