# Version 2.1 - nm, norm@500 to 1, cut digits, bergeron_25000_85.dat_25000
# Wavelength(nm)  Flambda(ergs/cm^s/s/nm)
300.00 4.253
300.10 4.248
300.20 4.243
300.30 4.239
300.40 4.234
300.50 4.23
300.60 4.225
300.70 4.221
300.80 4.216
300.90 4.212
301.00 4.207
301.10 4.203
301.20 4.198
301.30 4.194
301.40 4.189
301.50 4.185
301.60 4.18
301.70 4.176
301.80 4.171
301.90 4.167
302.00 4.163
302.10 4.158
302.20 4.154
302.30 4.149
302.40 4.145
302.50 4.14
302.60 4.136
302.70 4.132
302.80 4.127
302.90 4.123
303.00 4.118
303.10 4.114
303.20 4.11
303.30 4.105
303.40 4.101
303.50 4.097
303.60 4.092
303.70 4.088
303.80 4.084
303.90 4.079
304.00 4.075
304.10 4.071
304.20 4.066
304.30 4.062
304.40 4.058
304.50 4.053
304.60 4.049
304.70 4.045
304.80 4.04
304.90 4.036
305.00 4.032
305.10 4.028
305.20 4.023
305.30 4.019
305.40 4.015
305.50 4.011
305.60 4.006
305.70 4.002
305.80 3.998
305.90 3.994
306.00 3.99
306.10 3.985
306.20 3.981
306.30 3.977
306.40 3.973
306.50 3.969
306.60 3.964
306.70 3.96
306.80 3.956
306.90 3.952
307.00 3.948
307.10 3.944
307.20 3.94
307.30 3.935
307.40 3.931
307.50 3.927
307.60 3.923
307.70 3.919
307.80 3.915
307.90 3.911
308.00 3.907
308.10 3.903
308.20 3.898
308.30 3.894
308.40 3.89
308.50 3.886
308.60 3.882
308.70 3.878
308.80 3.874
308.90 3.87
309.00 3.866
309.10 3.862
309.20 3.858
309.30 3.854
309.40 3.85
309.50 3.846
309.60 3.842
309.70 3.838
309.80 3.834
309.90 3.83
310.00 3.826
310.10 3.822
310.20 3.818
310.30 3.814
310.40 3.81
310.50 3.806
310.60 3.802
310.70 3.798
310.80 3.794
310.90 3.79
311.00 3.786
311.10 3.782
311.20 3.778
311.30 3.774
311.40 3.771
311.50 3.767
311.60 3.763
311.70 3.759
311.80 3.755
311.90 3.751
312.00 3.747
312.10 3.743
312.20 3.739
312.30 3.736
312.40 3.732
312.50 3.728
312.60 3.724
312.70 3.72
312.80 3.716
312.90 3.712
313.00 3.709
313.10 3.705
313.20 3.701
313.30 3.697
313.40 3.693
313.50 3.69
313.60 3.686
313.70 3.682
313.80 3.678
313.90 3.674
314.00 3.671
314.10 3.667
314.20 3.663
314.30 3.659
314.40 3.656
314.50 3.652
314.60 3.648
314.70 3.644
314.80 3.641
314.90 3.637
315.00 3.633
315.10 3.629
315.20 3.626
315.30 3.622
315.40 3.618
315.50 3.614
315.60 3.611
315.70 3.607
315.80 3.603
315.90 3.6
316.00 3.596
316.10 3.592
316.20 3.589
316.30 3.585
316.40 3.581
316.50 3.578
316.60 3.574
316.70 3.57
316.80 3.567
316.90 3.563
317.00 3.559
317.10 3.556
317.20 3.552
317.30 3.549
317.40 3.545
317.50 3.541
317.60 3.538
317.70 3.534
317.80 3.531
317.90 3.527
318.00 3.523
318.10 3.52
318.20 3.516
318.30 3.513
318.40 3.509
318.50 3.505
318.60 3.502
318.70 3.498
318.80 3.495
318.90 3.491
319.00 3.488
319.10 3.484
319.20 3.481
319.30 3.477
319.40 3.474
319.50 3.47
319.60 3.467
319.70 3.463
319.80 3.46
319.90 3.456
320.00 3.453
320.10 3.449
320.20 3.446
320.30 3.442
320.40 3.439
320.50 3.435
320.60 3.432
320.70 3.428
320.80 3.425
320.90 3.421
321.00 3.418
321.10 3.414
321.20 3.411
321.30 3.408
321.40 3.404
321.50 3.401
321.60 3.397
321.70 3.394
321.80 3.39
321.90 3.387
322.00 3.384
322.10 3.38
322.20 3.377
322.30 3.373
322.40 3.37
322.50 3.367
322.60 3.363
322.70 3.36
322.80 3.357
322.90 3.353
323.00 3.35
323.10 3.346
323.20 3.343
323.30 3.34
323.40 3.336
323.50 3.333
323.60 3.33
323.70 3.326
323.80 3.323
323.90 3.32
324.00 3.316
324.10 3.313
324.20 3.31
324.30 3.306
324.40 3.303
324.50 3.3
324.60 3.297
324.70 3.293
324.80 3.29
324.90 3.287
325.00 3.283
325.10 3.28
325.20 3.277
325.30 3.274
325.40 3.27
325.50 3.267
325.60 3.264
325.70 3.261
325.80 3.257
325.90 3.254
326.00 3.251
326.10 3.248
326.20 3.244
326.30 3.241
326.40 3.238
326.50 3.235
326.60 3.232
326.70 3.228
326.80 3.225
326.90 3.222
327.00 3.219
327.10 3.216
327.20 3.212
327.30 3.209
327.40 3.206
327.50 3.203
327.60 3.2
327.70 3.197
327.80 3.193
327.90 3.19
328.00 3.187
328.10 3.184
328.20 3.181
328.30 3.178
328.40 3.174
328.50 3.171
328.60 3.168
328.70 3.165
328.80 3.162
328.90 3.159
329.00 3.156
329.10 3.153
329.20 3.15
329.30 3.146
329.40 3.143
329.50 3.14
329.60 3.137
329.70 3.134
329.80 3.131
329.90 3.128
330.00 3.125
330.10 3.122
330.20 3.119
330.30 3.116
330.40 3.113
330.50 3.11
330.60 3.106
330.70 3.103
330.80 3.1
330.90 3.097
331.00 3.094
331.10 3.091
331.20 3.088
331.30 3.085
331.40 3.082
331.50 3.079
331.60 3.076
331.70 3.073
331.80 3.07
331.90 3.067
332.00 3.064
332.10 3.061
332.20 3.058
332.30 3.055
332.40 3.052
332.50 3.049
332.60 3.046
332.70 3.043
332.80 3.04
332.90 3.037
333.00 3.034
333.10 3.031
333.20 3.028
333.30 3.026
333.40 3.023
333.50 3.02
333.60 3.017
333.70 3.014
333.80 3.011
333.90 3.008
334.00 3.005
334.10 3.002
334.20 2.999
334.30 2.996
334.40 2.993
334.50 2.99
334.60 2.987
334.70 2.985
334.80 2.982
334.90 2.979
335.00 2.976
335.10 2.973
335.20 2.97
335.30 2.967
335.40 2.964
335.50 2.962
335.60 2.959
335.70 2.956
335.80 2.953
335.90 2.95
336.00 2.947
336.10 2.944
336.20 2.942
336.30 2.939
336.40 2.936
336.50 2.933
336.60 2.93
336.70 2.927
336.80 2.925
336.90 2.922
337.00 2.919
337.10 2.916
337.20 2.913
337.30 2.91
337.40 2.908
337.50 2.905
337.60 2.902
337.70 2.899
337.80 2.896
337.90 2.894
338.00 2.891
338.10 2.888
338.20 2.885
338.30 2.883
338.40 2.88
338.50 2.877
338.60 2.874
338.70 2.872
338.80 2.869
338.90 2.866
339.00 2.863
339.10 2.861
339.20 2.858
339.30 2.855
339.40 2.852
339.50 2.85
339.60 2.847
339.70 2.844
339.80 2.841
339.90 2.839
340.00 2.836
340.10 2.833
340.20 2.831
340.30 2.828
340.40 2.825
340.50 2.822
340.60 2.82
340.70 2.817
340.80 2.814
340.90 2.812
341.00 2.809
341.10 2.806
341.20 2.804
341.30 2.801
341.40 2.798
341.50 2.796
341.60 2.793
341.70 2.79
341.80 2.788
341.90 2.785
342.00 2.782
342.10 2.78
342.20 2.777
342.30 2.774
342.40 2.772
342.50 2.769
342.60 2.766
342.70 2.764
342.80 2.761
342.90 2.759
343.00 2.756
343.10 2.753
343.20 2.751
343.30 2.748
343.40 2.746
343.50 2.743
343.60 2.74
343.70 2.738
343.80 2.735
343.90 2.733
344.00 2.73
344.10 2.727
344.20 2.725
344.30 2.722
344.40 2.72
344.50 2.717
344.60 2.715
344.70 2.712
344.80 2.709
344.90 2.707
345.00 2.704
345.10 2.702
345.20 2.699
345.30 2.697
345.40 2.694
345.50 2.692
345.60 2.689
345.70 2.686
345.80 2.684
345.90 2.681
346.00 2.679
346.10 2.676
346.20 2.674
346.30 2.671
346.40 2.669
346.50 2.666
346.60 2.664
346.70 2.661
346.80 2.659
346.90 2.656
347.00 2.654
347.10 2.651
347.20 2.649
347.30 2.646
347.40 2.644
347.50 2.641
347.60 2.639
347.70 2.636
347.80 2.634
347.90 2.631
348.00 2.629
348.10 2.627
348.20 2.624
348.30 2.622
348.40 2.619
348.50 2.617
348.60 2.614
348.70 2.612
348.80 2.609
348.90 2.607
349.00 2.605
349.10 2.602
349.20 2.6
349.30 2.597
349.40 2.595
349.50 2.592
349.60 2.59
349.70 2.588
349.80 2.585
349.90 2.583
350.00 2.58
350.10 2.578
350.20 2.576
350.30 2.573
350.40 2.571
350.50 2.568
350.60 2.566
350.70 2.564
350.80 2.561
350.90 2.559
351.00 2.556
351.10 2.554
351.20 2.552
351.30 2.549
351.40 2.547
351.50 2.545
351.60 2.542
351.70 2.54
351.80 2.538
351.90 2.535
352.00 2.533
352.10 2.53
352.20 2.528
352.30 2.526
352.40 2.523
352.50 2.521
352.60 2.519
352.70 2.516
352.80 2.514
352.90 2.512
353.00 2.509
353.10 2.507
353.20 2.505
353.30 2.503
353.40 2.5
353.50 2.498
353.60 2.496
353.70 2.493
353.80 2.491
353.90 2.489
354.00 2.486
354.10 2.484
354.20 2.482
354.30 2.48
354.40 2.477
354.50 2.475
354.60 2.473
354.70 2.47
354.80 2.468
354.90 2.466
355.00 2.464
355.10 2.461
355.20 2.459
355.30 2.457
355.40 2.455
355.50 2.452
355.60 2.45
355.70 2.448
355.80 2.446
355.90 2.443
356.00 2.441
356.10 2.439
356.20 2.437
356.30 2.434
356.40 2.432
356.50 2.43
356.60 2.428
356.70 2.425
356.80 2.423
356.90 2.421
357.00 2.419
357.10 2.417
357.20 2.414
357.30 2.412
357.40 2.41
357.50 2.408
357.60 2.406
357.70 2.403
357.80 2.401
357.90 2.399
358.00 2.397
358.10 2.395
358.20 2.392
358.30 2.39
358.40 2.388
358.50 2.386
358.60 2.384
358.70 2.382
358.80 2.379
358.90 2.377
359.00 2.375
359.10 2.373
359.20 2.371
359.30 2.369
359.40 2.366
359.50 2.364
359.60 2.362
359.70 2.36
359.80 2.358
359.90 2.356
360.00 2.353
360.10 2.351
360.20 2.349
360.30 2.347
360.40 2.345
360.50 2.343
360.60 2.341
360.70 2.339
360.80 2.336
360.90 2.334
361.00 2.332
361.10 2.33
361.20 2.328
361.30 2.326
361.40 2.324
361.50 2.322
361.60 2.32
361.70 2.318
361.80 2.315
361.90 2.313
362.00 2.311
362.10 2.309
362.20 2.307
362.30 2.305
362.40 2.303
362.50 2.301
362.60 2.299
362.70 2.297
362.80 2.295
362.90 2.293
363.00 2.29
363.10 2.288
363.20 2.286
363.30 2.284
363.40 2.282
363.50 2.28
363.60 2.278
363.70 2.276
363.80 2.274
363.90 2.272
364.00 2.27
364.10 2.268
364.20 2.266
364.30 2.264
364.40 2.262
364.50 2.26
364.60 2.258
364.70 2.256
364.80 2.254
364.90 2.252
365.00 2.25
365.10 2.248
365.20 2.246
365.30 2.244
365.40 2.242
365.50 2.24
365.60 2.238
365.70 2.236
365.80 2.234
365.90 2.232
366.00 2.23
366.10 2.227
366.20 2.225
366.30 2.223
366.40 2.221
366.50 2.218
366.60 2.216
366.70 2.214
366.80 2.212
366.90 2.209
367.00 2.207
367.10 2.205
367.20 2.203
367.30 2.2
367.40 2.198
367.50 2.196
367.60 2.194
367.70 2.191
367.80 2.189
367.90 2.187
368.00 2.185
368.10 2.183
368.20 2.18
368.30 2.178
368.40 2.176
368.50 2.174
368.60 2.171
368.70 2.169
368.80 2.167
368.90 2.165
369.00 2.162
369.10 2.16
369.20 2.158
369.30 2.156
369.40 2.154
369.50 2.151
369.60 2.149
369.70 2.147
369.80 2.145
369.90 2.142
370.00 2.14
370.10 2.138
370.20 2.136
370.30 2.134
370.40 2.132
370.50 2.13
370.60 2.127
370.70 2.125
370.80 2.123
370.90 2.121
371.00 2.119
371.10 2.117
371.20 2.115
371.30 2.113
371.40 2.111
371.50 2.108
371.60 2.106
371.70 2.104
371.80 2.102
371.90 2.1
372.00 2.098
372.10 2.096
372.20 2.094
372.30 2.092
372.40 2.09
372.50 2.088
372.60 2.086
372.70 2.085
372.80 2.083
372.90 2.081
373.00 2.079
373.10 2.077
373.20 2.075
373.30 2.073
373.40 2.071
373.50 2.069
373.60 2.067
373.70 2.066
373.80 2.064
373.90 2.062
374.00 2.06
374.10 2.058
374.20 2.056
374.30 2.054
374.40 2.053
374.50 2.051
374.60 2.049
374.70 2.047
374.80 2.045
374.90 2.044
375.00 2.042
375.10 2.04
375.20 2.038
375.30 2.037
375.40 2.035
375.50 2.033
375.60 2.031
375.70 2.029
375.80 2.028
375.90 2.026
376.00 2.024
376.10 2.022
376.20 2.021
376.30 2.019
376.40 2.017
376.50 2.015
376.60 2.013
376.70 2.011
376.80 2.01
376.90 2.008
377.00 2.006
377.10 2.005
377.20 2.004
377.30 2.003
377.40 2.002
377.50 2
377.60 1.999
377.70 1.998
377.80 1.997
377.90 1.996
378.00 1.995
378.10 1.993
378.20 1.992
378.30 1.99
378.40 1.988
378.50 1.987
378.60 1.985
378.70 1.984
378.80 1.982
378.90 1.98
379.00 1.979
379.10 1.977
379.20 1.975
379.30 1.974
379.40 1.972
379.50 1.971
379.60 1.969
379.70 1.967
379.80 1.966
379.90 1.964
380.00 1.963
380.10 1.962
380.20 1.962
380.30 1.962
380.40 1.962
380.50 1.961
380.60 1.961
380.70 1.961
380.80 1.961
380.90 1.961
381.00 1.96
381.10 1.959
381.20 1.958
381.30 1.957
381.40 1.956
381.50 1.955
381.60 1.953
381.70 1.952
381.80 1.95
381.90 1.948
382.00 1.945
382.10 1.943
382.20 1.94
382.30 1.937
382.40 1.934
382.50 1.93
382.60 1.927
382.70 1.923
382.80 1.92
382.90 1.917
383.00 1.913
383.10 1.91
383.20 1.907
383.30 1.903
383.40 1.9
383.50 1.897
383.60 1.897
383.70 1.898
383.80 1.9
383.90 1.903
384.00 1.905
384.10 1.908
384.20 1.91
384.30 1.912
384.40 1.914
384.50 1.916
384.60 1.918
384.70 1.919
384.80 1.921
384.90 1.922
385.00 1.923
385.10 1.923
385.20 1.924
385.30 1.924
385.40 1.923
385.50 1.923
385.60 1.922
385.70 1.921
385.80 1.92
385.90 1.919
386.00 1.917
386.10 1.915
386.20 1.913
386.30 1.91
386.40 1.907
386.50 1.904
386.60 1.9
386.70 1.896
386.80 1.892
386.90 1.888
387.00 1.883
387.10 1.878
387.20 1.873
387.30 1.867
387.40 1.861
387.50 1.855
387.60 1.848
387.70 1.841
387.80 1.834
387.90 1.827
388.00 1.819
388.10 1.811
388.20 1.803
388.30 1.795
388.40 1.787
388.50 1.779
388.60 1.771
388.70 1.764
388.80 1.759
388.90 1.754
389.00 1.757
389.10 1.762
389.20 1.768
389.30 1.775
389.40 1.782
389.50 1.789
389.60 1.796
389.70 1.803
389.80 1.81
389.90 1.817
390.00 1.823
390.10 1.83
390.20 1.836
390.30 1.841
390.40 1.847
390.50 1.852
390.60 1.857
390.70 1.862
390.80 1.866
390.90 1.87
391.00 1.874
391.10 1.877
391.20 1.88
391.30 1.883
391.40 1.885
391.50 1.888
391.60 1.89
391.70 1.891
391.80 1.892
391.90 1.893
392.00 1.893
392.10 1.894
392.20 1.894
392.30 1.893
392.40 1.892
392.50 1.891
392.60 1.889
392.70 1.888
392.80 1.885
392.90 1.883
393.00 1.88
393.10 1.877
393.20 1.873
393.30 1.869
393.40 1.865
393.50 1.86
393.60 1.855
393.70 1.849
393.80 1.843
393.90 1.837
394.00 1.831
394.10 1.823
394.20 1.816
394.30 1.808
394.40 1.8
394.50 1.791
394.60 1.782
394.70 1.773
394.80 1.763
394.90 1.753
395.00 1.742
395.10 1.731
395.20 1.72
395.30 1.708
395.40 1.695
395.50 1.683
395.60 1.67
395.70 1.656
395.80 1.642
395.90 1.628
396.00 1.613
396.10 1.598
396.20 1.582
396.30 1.566
396.40 1.55
396.50 1.533
396.60 1.516
396.70 1.499
396.80 1.481
396.90 1.464
397.00 1.447
397.10 1.46
397.20 1.475
397.30 1.491
397.40 1.507
397.50 1.523
397.60 1.538
397.70 1.553
397.80 1.568
397.90 1.582
398.00 1.595
398.10 1.609
398.20 1.622
398.30 1.634
398.40 1.646
398.50 1.658
398.60 1.67
398.70 1.681
398.80 1.692
398.90 1.702
399.00 1.712
399.10 1.722
399.20 1.731
399.30 1.74
399.40 1.749
399.50 1.757
399.60 1.765
399.70 1.773
399.80 1.78
399.90 1.787
400.00 1.794
400.10 1.801
400.20 1.807
400.30 1.813
400.40 1.819
400.50 1.824
400.60 1.829
400.70 1.834
400.80 1.838
400.90 1.843
401.00 1.847
401.10 1.85
401.20 1.854
401.30 1.857
401.40 1.86
401.50 1.863
401.60 1.865
401.70 1.868
401.80 1.87
401.90 1.871
402.00 1.873
402.10 1.874
402.20 1.875
402.30 1.876
402.40 1.877
402.50 1.877
402.60 1.877
402.70 1.877
402.80 1.877
402.90 1.877
403.00 1.876
403.10 1.875
403.20 1.874
403.30 1.872
403.40 1.871
403.50 1.869
403.60 1.867
403.70 1.865
403.80 1.862
403.90 1.859
404.00 1.856
404.10 1.853
404.20 1.85
404.30 1.846
404.40 1.842
404.50 1.838
404.60 1.834
404.70 1.829
404.80 1.824
404.90 1.819
405.00 1.814
405.10 1.808
405.20 1.802
405.30 1.796
405.40 1.79
405.50 1.783
405.60 1.777
405.70 1.769
405.80 1.762
405.90 1.754
406.00 1.746
406.10 1.738
406.20 1.73
406.30 1.721
406.40 1.712
406.50 1.702
406.60 1.693
406.70 1.683
406.80 1.672
406.90 1.662
407.00 1.651
407.10 1.639
407.20 1.628
407.30 1.616
407.40 1.604
407.50 1.591
407.60 1.579
407.70 1.565
407.80 1.552
407.90 1.538
408.00 1.524
408.10 1.509
408.20 1.494
408.30 1.479
408.40 1.463
408.50 1.447
408.60 1.431
408.70 1.414
408.80 1.397
408.90 1.379
409.00 1.361
409.10 1.342
409.20 1.323
409.30 1.303
409.40 1.283
409.50 1.262
409.60 1.24
409.70 1.218
409.80 1.194
409.90 1.171
410.00 1.148
410.10 1.135
410.20 1.129
410.30 1.14
410.40 1.157
410.50 1.179
410.60 1.2
410.70 1.221
410.80 1.242
410.90 1.261
411.00 1.28
411.10 1.298
411.20 1.316
411.30 1.333
411.40 1.349
411.50 1.365
411.60 1.38
411.70 1.395
411.80 1.409
411.90 1.424
412.00 1.437
412.10 1.45
412.20 1.463
412.30 1.476
412.40 1.488
412.50 1.5
412.60 1.511
412.70 1.522
412.80 1.533
412.90 1.544
413.00 1.554
413.10 1.564
413.20 1.573
413.30 1.582
413.40 1.591
413.50 1.6
413.60 1.608
413.70 1.616
413.80 1.624
413.90 1.632
414.00 1.639
414.10 1.646
414.20 1.653
414.30 1.66
414.40 1.666
414.50 1.672
414.60 1.678
414.70 1.684
414.80 1.689
414.90 1.695
415.00 1.7
415.10 1.705
415.20 1.709
415.30 1.714
415.40 1.718
415.50 1.722
415.60 1.727
415.70 1.73
415.80 1.734
415.90 1.737
416.00 1.741
416.10 1.744
416.20 1.747
416.30 1.75
416.40 1.753
416.50 1.755
416.60 1.758
416.70 1.76
416.80 1.762
416.90 1.764
417.00 1.766
417.10 1.768
417.20 1.77
417.30 1.772
417.40 1.773
417.50 1.775
417.60 1.776
417.70 1.777
417.80 1.779
417.90 1.78
418.00 1.781
418.10 1.782
418.20 1.782
418.30 1.783
418.40 1.784
418.50 1.784
418.60 1.785
418.70 1.785
418.80 1.786
418.90 1.786
419.00 1.786
419.10 1.786
419.20 1.786
419.30 1.786
419.40 1.786
419.50 1.786
419.60 1.786
419.70 1.786
419.80 1.785
419.90 1.785
420.00 1.785
420.10 1.784
420.20 1.784
420.30 1.783
420.40 1.783
420.50 1.782
420.60 1.781
420.70 1.781
420.80 1.78
420.90 1.779
421.00 1.778
421.10 1.777
421.20 1.776
421.30 1.775
421.40 1.774
421.50 1.773
421.60 1.772
421.70 1.771
421.80 1.769
421.90 1.768
422.00 1.767
422.10 1.765
422.20 1.764
422.30 1.763
422.40 1.761
422.50 1.759
422.60 1.758
422.70 1.756
422.80 1.755
422.90 1.753
423.00 1.751
423.10 1.749
423.20 1.748
423.30 1.746
423.40 1.744
423.50 1.742
423.60 1.74
423.70 1.738
423.80 1.735
423.90 1.733
424.00 1.731
424.10 1.729
424.20 1.726
424.30 1.724
424.40 1.722
424.50 1.719
424.60 1.717
424.70 1.714
424.80 1.711
424.90 1.709
425.00 1.706
425.10 1.703
425.20 1.7
425.30 1.697
425.40 1.694
425.50 1.691
425.60 1.688
425.70 1.684
425.80 1.681
425.90 1.678
426.00 1.674
426.10 1.67
426.20 1.667
426.30 1.663
426.40 1.659
426.50 1.655
426.60 1.651
426.70 1.647
426.80 1.643
426.90 1.638
427.00 1.634
427.10 1.629
427.20 1.624
427.30 1.62
427.40 1.615
427.50 1.61
427.60 1.604
427.70 1.599
427.80 1.594
427.90 1.588
428.00 1.582
428.10 1.576
428.20 1.57
428.30 1.564
428.40 1.558
428.50 1.552
428.60 1.545
428.70 1.538
428.80 1.531
428.90 1.524
429.00 1.517
429.10 1.51
429.20 1.502
429.30 1.495
429.40 1.487
429.50 1.479
429.60 1.471
429.70 1.462
429.80 1.454
429.90 1.445
430.00 1.436
430.10 1.427
430.20 1.418
430.30 1.409
430.40 1.399
430.50 1.389
430.60 1.379
430.70 1.369
430.80 1.359
430.90 1.348
431.00 1.338
431.10 1.327
431.20 1.315
431.30 1.304
431.40 1.292
431.50 1.28
431.60 1.268
431.70 1.256
431.80 1.243
431.90 1.23
432.00 1.217
432.10 1.203
432.20 1.189
432.30 1.175
432.40 1.16
432.50 1.145
432.60 1.13
432.70 1.115
432.80 1.098
432.90 1.082
433.00 1.065
433.10 1.047
433.20 1.028
433.30 1.009
433.40 0.9882
433.50 0.9664
433.60 0.9434
433.70 0.9174
433.80 0.8889
433.90 0.8582
434.00 0.8133
434.10 0.8137
434.20 0.8591
434.30 0.8884
434.40 0.9153
434.50 0.9399
434.60 0.9614
434.70 0.9817
434.80 1.001
434.90 1.019
435.00 1.036
435.10 1.052
435.20 1.067
435.30 1.082
435.40 1.097
435.50 1.11
435.60 1.124
435.70 1.137
435.80 1.149
435.90 1.162
436.00 1.174
436.10 1.185
436.20 1.197
436.30 1.208
436.40 1.218
436.50 1.229
436.60 1.239
436.70 1.248
436.80 1.258
436.90 1.267
437.00 1.276
437.10 1.285
437.20 1.294
437.30 1.302
437.40 1.31
437.50 1.318
437.60 1.325
437.70 1.333
437.80 1.34
437.90 1.347
438.00 1.354
438.10 1.361
438.20 1.367
438.30 1.373
438.40 1.379
438.50 1.385
438.60 1.391
438.70 1.396
438.80 1.402
438.90 1.407
439.00 1.412
439.10 1.417
439.20 1.421
439.30 1.426
439.40 1.43
439.50 1.434
439.60 1.438
439.70 1.442
439.80 1.446
439.90 1.45
440.00 1.453
440.10 1.456
440.20 1.459
440.30 1.463
440.40 1.465
440.50 1.468
440.60 1.471
440.70 1.473
440.80 1.476
440.90 1.478
441.00 1.48
441.10 1.482
441.20 1.484
441.30 1.486
441.40 1.488
441.50 1.49
441.60 1.491
441.70 1.493
441.80 1.494
441.90 1.496
442.00 1.497
442.10 1.498
442.20 1.499
442.30 1.5
442.40 1.501
442.50 1.502
442.60 1.503
442.70 1.503
442.80 1.504
442.90 1.505
443.00 1.505
443.10 1.506
443.20 1.506
443.30 1.507
443.40 1.507
443.50 1.507
443.60 1.508
443.70 1.508
443.80 1.508
443.90 1.508
444.00 1.508
444.10 1.508
444.20 1.508
444.30 1.508
444.40 1.508
444.50 1.508
444.60 1.508
444.70 1.508
444.80 1.508
444.90 1.507
445.00 1.507
445.10 1.507
445.20 1.507
445.30 1.506
445.40 1.506
445.50 1.506
445.60 1.505
445.70 1.505
445.80 1.505
445.90 1.504
446.00 1.504
446.10 1.503
446.20 1.503
446.30 1.502
446.40 1.502
446.50 1.501
446.60 1.501
446.70 1.5
446.80 1.499
446.90 1.499
447.00 1.498
447.10 1.498
447.20 1.497
447.30 1.496
447.40 1.496
447.50 1.495
447.60 1.494
447.70 1.493
447.80 1.493
447.90 1.492
448.00 1.491
448.10 1.491
448.20 1.49
448.30 1.489
448.40 1.488
448.50 1.487
448.60 1.487
448.70 1.486
448.80 1.485
448.90 1.484
449.00 1.483
449.10 1.483
449.20 1.482
449.30 1.481
449.40 1.48
449.50 1.479
449.60 1.478
449.70 1.477
449.80 1.477
449.90 1.476
450.00 1.475
450.10 1.474
450.20 1.473
450.30 1.472
450.40 1.471
450.50 1.47
450.60 1.469
450.70 1.468
450.80 1.467
450.90 1.466
451.00 1.466
451.10 1.465
451.20 1.464
451.30 1.463
451.40 1.462
451.50 1.461
451.60 1.46
451.70 1.459
451.80 1.458
451.90 1.457
452.00 1.456
452.10 1.455
452.20 1.454
452.30 1.453
452.40 1.452
452.50 1.451
452.60 1.45
452.70 1.449
452.80 1.448
452.90 1.447
453.00 1.446
453.10 1.445
453.20 1.444
453.30 1.443
453.40 1.442
453.50 1.441
453.60 1.44
453.70 1.439
453.80 1.438
453.90 1.437
454.00 1.436
454.10 1.435
454.20 1.434
454.30 1.432
454.40 1.431
454.50 1.43
454.60 1.429
454.70 1.428
454.80 1.427
454.90 1.426
455.00 1.425
455.10 1.424
455.20 1.423
455.30 1.422
455.40 1.421
455.50 1.42
455.60 1.419
455.70 1.418
455.80 1.417
455.90 1.416
456.00 1.414
456.10 1.413
456.20 1.412
456.30 1.411
456.40 1.41
456.50 1.409
456.60 1.408
456.70 1.407
456.80 1.406
456.90 1.405
457.00 1.404
457.10 1.403
457.20 1.402
457.30 1.4
457.40 1.399
457.50 1.398
457.60 1.397
457.70 1.396
457.80 1.395
457.90 1.394
458.00 1.393
458.10 1.392
458.20 1.391
458.30 1.39
458.40 1.389
458.50 1.387
458.60 1.386
458.70 1.385
458.80 1.384
458.90 1.383
459.00 1.382
459.10 1.381
459.20 1.38
459.30 1.379
459.40 1.378
459.50 1.376
459.60 1.375
459.70 1.374
459.80 1.373
459.90 1.372
460.00 1.371
460.10 1.37
460.20 1.369
460.30 1.368
460.40 1.366
460.50 1.365
460.60 1.364
460.70 1.363
460.80 1.362
460.90 1.361
461.00 1.36
461.10 1.359
461.20 1.358
461.30 1.356
461.40 1.355
461.50 1.354
461.60 1.353
461.70 1.352
461.80 1.351
461.90 1.35
462.00 1.349
462.10 1.347
462.20 1.346
462.30 1.345
462.40 1.344
462.50 1.343
462.60 1.342
462.70 1.341
462.80 1.34
462.90 1.338
463.00 1.337
463.10 1.336
463.20 1.335
463.30 1.334
463.40 1.333
463.50 1.332
463.60 1.33
463.70 1.329
463.80 1.328
463.90 1.327
464.00 1.326
464.10 1.325
464.20 1.324
464.30 1.322
464.40 1.321
464.50 1.32
464.60 1.319
464.70 1.318
464.80 1.317
464.90 1.316
465.00 1.314
465.10 1.313
465.20 1.312
465.30 1.311
465.40 1.31
465.50 1.309
465.60 1.307
465.70 1.306
465.80 1.305
465.90 1.304
466.00 1.303
466.10 1.302
466.20 1.3
466.30 1.299
466.40 1.298
466.50 1.297
466.60 1.296
466.70 1.294
466.80 1.293
466.90 1.292
467.00 1.291
467.10 1.29
467.20 1.289
467.30 1.287
467.40 1.286
467.50 1.285
467.60 1.284
467.70 1.282
467.80 1.281
467.90 1.28
468.00 1.279
468.10 1.278
468.20 1.276
468.30 1.275
468.40 1.274
468.50 1.273
468.60 1.271
468.70 1.27
468.80 1.269
468.90 1.268
469.00 1.266
469.10 1.265
469.20 1.264
469.30 1.263
469.40 1.261
469.50 1.26
469.60 1.259
469.70 1.258
469.80 1.256
469.90 1.255
470.00 1.254
470.10 1.252
470.20 1.251
470.30 1.25
470.40 1.248
470.50 1.247
470.60 1.246
470.70 1.244
470.80 1.243
470.90 1.242
471.00 1.24
471.10 1.239
471.20 1.238
471.30 1.236
471.40 1.235
471.50 1.233
471.60 1.232
471.70 1.231
471.80 1.229
471.90 1.228
472.00 1.226
472.10 1.225
472.20 1.224
472.30 1.222
472.40 1.221
472.50 1.219
472.60 1.218
472.70 1.216
472.80 1.215
472.90 1.213
473.00 1.212
473.10 1.21
473.20 1.209
473.30 1.207
473.40 1.205
473.50 1.204
473.60 1.202
473.70 1.201
473.80 1.199
473.90 1.197
474.00 1.196
474.10 1.194
474.20 1.193
474.30 1.191
474.40 1.189
474.50 1.187
474.60 1.186
474.70 1.184
474.80 1.182
474.90 1.18
475.00 1.179
475.10 1.177
475.20 1.175
475.30 1.173
475.40 1.171
475.50 1.169
475.60 1.167
475.70 1.165
475.80 1.163
475.90 1.161
476.00 1.16
476.10 1.158
476.20 1.156
476.30 1.153
476.40 1.151
476.50 1.149
476.60 1.147
476.70 1.145
476.80 1.143
476.90 1.14
477.00 1.138
477.10 1.136
477.20 1.134
477.30 1.131
477.40 1.129
477.50 1.126
477.60 1.124
477.70 1.121
477.80 1.119
477.90 1.116
478.00 1.114
478.10 1.111
478.20 1.108
478.30 1.106
478.40 1.103
478.50 1.1
478.60 1.097
478.70 1.094
478.80 1.091
478.90 1.088
479.00 1.085
479.10 1.082
479.20 1.079
479.30 1.076
479.40 1.072
479.50 1.069
479.60 1.065
479.70 1.062
479.80 1.058
479.90 1.055
480.00 1.052
480.10 1.048
480.20 1.044
480.30 1.04
480.40 1.036
480.50 1.032
480.60 1.028
480.70 1.024
480.80 1.02
480.90 1.016
481.00 1.011
481.10 1.007
481.20 1.003
481.30 0.9976
481.40 0.9927
481.50 0.9877
481.60 0.9827
481.70 0.9777
481.80 0.9728
481.90 0.9678
482.00 0.9629
482.10 0.9579
482.20 0.9522
482.30 0.9462
482.40 0.9401
482.50 0.9341
482.60 0.928
482.70 0.922
482.80 0.9159
482.90 0.9099
483.00 0.9039
483.10 0.8979
483.20 0.8909
483.30 0.8835
483.40 0.8761
483.50 0.8686
483.60 0.8612
483.70 0.8538
483.80 0.8464
483.90 0.839
484.00 0.8316
484.10 0.8242
484.20 0.8159
484.30 0.8071
484.40 0.7982
484.50 0.7894
484.60 0.7806
484.70 0.7708
484.80 0.7605
484.90 0.7501
485.00 0.7398
485.10 0.7295
485.20 0.7179
485.30 0.7057
485.40 0.6922
485.50 0.6782
485.60 0.6619
485.70 0.6445
485.80 0.6224
485.90 0.5982
486.00 0.5678
486.10 0.5305
486.20 0.5417
486.30 0.5786
486.40 0.6044
486.50 0.628
486.60 0.6469
486.70 0.6635
486.80 0.6777
486.90 0.6909
487.00 0.7027
487.10 0.7138
487.20 0.7237
487.30 0.733
487.40 0.7423
487.50 0.7516
487.60 0.7609
487.70 0.769
487.80 0.7766
487.90 0.7843
488.00 0.7919
488.10 0.7995
488.20 0.8061
488.30 0.8122
488.40 0.8183
488.50 0.8244
488.60 0.8305
488.70 0.8365
488.80 0.8426
488.90 0.8487
489.00 0.8548
489.10 0.8608
489.20 0.8659
489.30 0.8704
489.40 0.875
489.50 0.8795
489.60 0.8841
489.70 0.8887
489.80 0.8932
489.90 0.8978
490.00 0.9023
490.10 0.9068
490.20 0.9106
490.30 0.914
490.40 0.9173
490.50 0.9207
490.60 0.9241
490.70 0.9274
490.80 0.9308
490.90 0.9341
491.00 0.9375
491.10 0.9409
491.20 0.9436
491.30 0.946
491.40 0.9484
491.50 0.9508
491.60 0.9533
491.70 0.9557
491.80 0.9581
491.90 0.9605
492.00 0.9629
492.10 0.9653
492.20 0.9672
492.30 0.9689
492.40 0.9706
492.50 0.9723
492.60 0.974
492.70 0.9757
492.80 0.9773
492.90 0.979
493.00 0.9807
493.10 0.9824
493.20 0.9837
493.30 0.9848
493.40 0.9859
493.50 0.987
493.60 0.9881
493.70 0.9892
493.80 0.9903
493.90 0.9914
494.00 0.9926
494.10 0.9937
494.20 0.9945
494.30 0.9952
494.40 0.9958
494.50 0.9965
494.60 0.9972
494.70 0.9979
494.80 0.9986
494.90 0.9992
495.00 0.9999
495.10 1.001
495.20 1.001
495.30 1.001
495.40 1.002
495.50 1.002
495.60 1.002
495.70 1.003
495.80 1.003
495.90 1.004
496.00 1.004
496.10 1.004
496.20 1.004
496.30 1.005
496.40 1.005
496.50 1.005
496.60 1.005
496.70 1.005
496.80 1.005
496.90 1.005
497.00 1.005
497.10 1.005
497.20 1.005
497.30 1.005
497.40 1.005
497.50 1.005
497.60 1.005
497.70 1.005
497.80 1.005
497.90 1.005
498.00 1.005
498.10 1.005
498.20 1.005
498.30 1.004
498.40 1.004
498.50 1.004
498.60 1.004
498.70 1.004
498.80 1.003
498.90 1.003
499.00 1.003
499.10 1.003
499.20 1.002
499.30 1.002
499.40 1.002
499.50 1.002
499.60 1.001
499.70 1.001
499.80 1.001
499.90 1
500.00 1
500.10 0.9997
500.20 0.9993
500.30 0.9989
500.40 0.9985
500.50 0.9981
500.60 0.9978
500.70 0.9974
500.80 0.997
500.90 0.9966
501.00 0.9962
501.10 0.9958
501.20 0.9954
501.30 0.9949
501.40 0.9945
501.50 0.994
501.60 0.9936
501.70 0.9931
501.80 0.9927
501.90 0.9922
502.00 0.9918
502.10 0.9913
502.20 0.9908
502.30 0.9903
502.40 0.9898
502.50 0.9893
502.60 0.9888
502.70 0.9883
502.80 0.9878
502.90 0.9874
503.00 0.9869
503.10 0.9864
503.20 0.9858
503.30 0.9853
503.40 0.9848
503.50 0.9842
503.60 0.9837
503.70 0.9832
503.80 0.9827
503.90 0.9821
504.00 0.9816
504.10 0.9811
504.20 0.9805
504.30 0.98
504.40 0.9794
504.50 0.9788
504.60 0.9783
504.70 0.9777
504.80 0.9772
504.90 0.9766
505.00 0.9761
505.10 0.9755
505.20 0.9749
505.30 0.9744
505.40 0.9738
505.50 0.9732
505.60 0.9726
505.70 0.9721
505.80 0.9715
505.90 0.9709
506.00 0.9703
506.10 0.9698
506.20 0.9692
506.30 0.9686
506.40 0.968
506.50 0.9674
506.60 0.9668
506.70 0.9662
506.80 0.9656
506.90 0.965
507.00 0.9644
507.10 0.9638
507.20 0.9632
507.30 0.9626
507.40 0.962
507.50 0.9614
507.60 0.9608
507.70 0.9602
507.80 0.9596
507.90 0.959
508.00 0.9584
508.10 0.9578
508.20 0.9572
508.30 0.9566
508.40 0.956
508.50 0.9554
508.60 0.9548
508.70 0.9542
508.80 0.9535
508.90 0.9529
509.00 0.9523
509.10 0.9517
509.20 0.9511
509.30 0.9505
509.40 0.9499
509.50 0.9493
509.60 0.9486
509.70 0.948
509.80 0.9474
509.90 0.9468
510.00 0.9462
510.10 0.9456
510.20 0.945
510.30 0.9443
510.40 0.9437
510.50 0.9431
510.60 0.9425
510.70 0.9419
510.80 0.9412
510.90 0.9406
511.00 0.94
511.10 0.9394
511.20 0.9388
511.30 0.9381
511.40 0.9375
511.50 0.9369
511.60 0.9363
511.70 0.9357
511.80 0.935
511.90 0.9344
512.00 0.9338
512.10 0.9332
512.20 0.9326
512.30 0.9319
512.40 0.9313
512.50 0.9307
512.60 0.9301
512.70 0.9294
512.80 0.9288
512.90 0.9282
513.00 0.9276
513.10 0.927
513.20 0.9263
513.30 0.9257
513.40 0.9251
513.50 0.9245
513.60 0.9238
513.70 0.9232
513.80 0.9226
513.90 0.922
514.00 0.9214
514.10 0.9207
514.20 0.9201
514.30 0.9195
514.40 0.9189
514.50 0.9183
514.60 0.9176
514.70 0.917
514.80 0.9164
514.90 0.9158
515.00 0.9152
515.10 0.9145
515.20 0.9139
515.30 0.9133
515.40 0.9127
515.50 0.9121
515.60 0.9114
515.70 0.9108
515.80 0.9102
515.90 0.9096
516.00 0.909
516.10 0.9083
516.20 0.9077
516.30 0.9071
516.40 0.9065
516.50 0.9059
516.60 0.9053
516.70 0.9046
516.80 0.904
516.90 0.9034
517.00 0.9028
517.10 0.9022
517.20 0.9016
517.30 0.9009
517.40 0.9003
517.50 0.8997
517.60 0.8991
517.70 0.8985
517.80 0.8979
517.90 0.8973
518.00 0.8966
518.10 0.896
518.20 0.8954
518.30 0.8948
518.40 0.8942
518.50 0.8936
518.60 0.893
518.70 0.8924
518.80 0.8918
518.90 0.8911
519.00 0.8905
519.10 0.8899
519.20 0.8893
519.30 0.8887
519.40 0.8881
519.50 0.8875
519.60 0.8869
519.70 0.8863
519.80 0.8857
519.90 0.8851
520.00 0.8845
520.10 0.8838
520.20 0.8832
520.30 0.8826
520.40 0.882
520.50 0.8814
520.60 0.8808
520.70 0.8802
520.80 0.8796
520.90 0.879
521.00 0.8784
521.10 0.8778
521.20 0.8772
521.30 0.8766
521.40 0.876
521.50 0.8754
521.60 0.8748
521.70 0.8742
521.80 0.8736
521.90 0.873
522.00 0.8724
522.10 0.8718
522.20 0.8712
522.30 0.8706
522.40 0.87
522.50 0.8694
522.60 0.8688
522.70 0.8682
522.80 0.8676
522.90 0.867
523.00 0.8664
523.10 0.8658
523.20 0.8652
523.30 0.8646
523.40 0.864
523.50 0.8635
523.60 0.8629
523.70 0.8623
523.80 0.8617
523.90 0.8611
524.00 0.8605
524.10 0.8599
524.20 0.8593
524.30 0.8587
524.40 0.8581
524.50 0.8575
524.60 0.857
524.70 0.8564
524.80 0.8558
524.90 0.8552
525.00 0.8546
525.10 0.854
525.20 0.8534
525.30 0.8528
525.40 0.8523
525.50 0.8517
525.60 0.8511
525.70 0.8505
525.80 0.8499
525.90 0.8493
526.00 0.8488
526.10 0.8482
526.20 0.8476
526.30 0.847
526.40 0.8464
526.50 0.8458
526.60 0.8453
526.70 0.8447
526.80 0.8441
526.90 0.8435
527.00 0.8429
527.10 0.8424
527.20 0.8418
527.30 0.8412
527.40 0.8406
527.50 0.8401
527.60 0.8395
527.70 0.8389
527.80 0.8383
527.90 0.8378
528.00 0.8372
528.10 0.8366
528.20 0.836
528.30 0.8355
528.40 0.8349
528.50 0.8343
528.60 0.8337
528.70 0.8332
528.80 0.8326
528.90 0.832
529.00 0.8315
529.10 0.8309
529.20 0.8303
529.30 0.8298
529.40 0.8292
529.50 0.8286
529.60 0.8281
529.70 0.8275
529.80 0.8269
529.90 0.8264
530.00 0.8258
530.10 0.8252
530.20 0.8247
530.30 0.8241
530.40 0.8235
530.50 0.823
530.60 0.8224
530.70 0.8218
530.80 0.8213
530.90 0.8207
531.00 0.8201
531.10 0.8196
531.20 0.819
531.30 0.8185
531.40 0.8179
531.50 0.8174
531.60 0.8168
531.70 0.8162
531.80 0.8157
531.90 0.8151
532.00 0.8146
532.10 0.814
532.20 0.8135
532.30 0.8129
532.40 0.8123
532.50 0.8118
532.60 0.8112
532.70 0.8107
532.80 0.8101
532.90 0.8096
533.00 0.809
533.10 0.8085
533.20 0.8079
533.30 0.8074
533.40 0.8068
533.50 0.8063
533.60 0.8057
533.70 0.8052
533.80 0.8046
533.90 0.8041
534.00 0.8035
534.10 0.803
534.20 0.8024
534.30 0.8019
534.40 0.8013
534.50 0.8008
534.60 0.8002
534.70 0.7997
534.80 0.7991
534.90 0.7986
535.00 0.7981
535.10 0.7975
535.20 0.797
535.30 0.7964
535.40 0.7959
535.50 0.7953
535.60 0.7948
535.70 0.7943
535.80 0.7937
535.90 0.7932
536.00 0.7926
536.10 0.7921
536.20 0.7916
536.30 0.791
536.40 0.7905
536.50 0.79
536.60 0.7894
536.70 0.7889
536.80 0.7883
536.90 0.7878
537.00 0.7873
537.10 0.7867
537.20 0.7862
537.30 0.7857
537.40 0.7851
537.50 0.7846
537.60 0.7841
537.70 0.7835
537.80 0.783
537.90 0.7825
538.00 0.7819
538.10 0.7814
538.20 0.7809
538.30 0.7804
538.40 0.7798
538.50 0.7793
538.60 0.7788
538.70 0.7782
538.80 0.7777
538.90 0.7772
539.00 0.7767
539.10 0.7761
539.20 0.7756
539.30 0.7751
539.40 0.7746
539.50 0.774
539.60 0.7735
539.70 0.773
539.80 0.7725
539.90 0.7719
540.00 0.7714
540.10 0.7709
540.20 0.7704
540.30 0.7699
540.40 0.7693
540.50 0.7688
540.60 0.7683
540.70 0.7678
540.80 0.7673
540.90 0.7667
541.00 0.7662
541.10 0.7657
541.20 0.7652
541.30 0.7647
541.40 0.7642
541.50 0.7636
541.60 0.7631
541.70 0.7626
541.80 0.7621
541.90 0.7616
542.00 0.7611
542.10 0.7605
542.20 0.76
542.30 0.7595
542.40 0.759
542.50 0.7585
542.60 0.758
542.70 0.7575
542.80 0.757
542.90 0.7565
543.00 0.7559
543.10 0.7554
543.20 0.7549
543.30 0.7544
543.40 0.7539
543.50 0.7534
543.60 0.7529
543.70 0.7524
543.80 0.7519
543.90 0.7514
544.00 0.7509
544.10 0.7504
544.20 0.7499
544.30 0.7494
544.40 0.7489
544.50 0.7484
544.60 0.7479
544.70 0.7474
544.80 0.7468
544.90 0.7463
545.00 0.7458
545.10 0.7453
545.20 0.7448
545.30 0.7443
545.40 0.7438
545.50 0.7433
545.60 0.7428
545.70 0.7423
545.80 0.7419
545.90 0.7414
546.00 0.7409
546.10 0.7404
546.20 0.7399
546.30 0.7394
546.40 0.7389
546.50 0.7384
546.60 0.7379
546.70 0.7374
546.80 0.7369
546.90 0.7364
547.00 0.7359
547.10 0.7354
547.20 0.7349
547.30 0.7344
547.40 0.7339
547.50 0.7334
547.60 0.733
547.70 0.7325
547.80 0.732
547.90 0.7315
548.00 0.731
548.10 0.7305
548.20 0.73
548.30 0.7295
548.40 0.729
548.50 0.7286
548.60 0.7281
548.70 0.7276
548.80 0.7271
548.90 0.7266
549.00 0.7261
549.10 0.7256
549.20 0.7252
549.30 0.7247
549.40 0.7242
549.50 0.7237
549.60 0.7232
549.70 0.7227
549.80 0.7223
549.90 0.7218
550.00 0.7213
550.10 0.7208
550.20 0.7203
550.30 0.7199
550.40 0.7194
550.50 0.7189
550.60 0.7184
550.70 0.7179
550.80 0.7175
550.90 0.717
551.00 0.7165
551.10 0.716
551.20 0.7156
551.30 0.7151
551.40 0.7146
551.50 0.7141
551.60 0.7137
551.70 0.7132
551.80 0.7127
551.90 0.7122
552.00 0.7118
552.10 0.7113
552.20 0.7108
552.30 0.7103
552.40 0.7099
552.50 0.7094
552.60 0.7089
552.70 0.7085
552.80 0.708
552.90 0.7075
553.00 0.707
553.10 0.7066
553.20 0.7061
553.30 0.7056
553.40 0.7052
553.50 0.7047
553.60 0.7042
553.70 0.7038
553.80 0.7033
553.90 0.7028
554.00 0.7024
554.10 0.7019
554.20 0.7014
554.30 0.701
554.40 0.7005
554.50 0.7001
554.60 0.6996
554.70 0.6991
554.80 0.6987
554.90 0.6982
555.00 0.6977
555.10 0.6973
555.20 0.6968
555.30 0.6964
555.40 0.6959
555.50 0.6954
555.60 0.695
555.70 0.6945
555.80 0.6941
555.90 0.6936
556.00 0.6931
556.10 0.6927
556.20 0.6922
556.30 0.6918
556.40 0.6913
556.50 0.6909
556.60 0.6904
556.70 0.6899
556.80 0.6895
556.90 0.689
557.00 0.6886
557.10 0.6881
557.20 0.6877
557.30 0.6872
557.40 0.6868
557.50 0.6863
557.60 0.6859
557.70 0.6854
557.80 0.685
557.90 0.6845
558.00 0.6841
558.10 0.6836
558.20 0.6832
558.30 0.6827
558.40 0.6823
558.50 0.6818
558.60 0.6814
558.70 0.6809
558.80 0.6805
558.90 0.68
559.00 0.6796
559.10 0.6791
559.20 0.6787
559.30 0.6782
559.40 0.6778
559.50 0.6773
559.60 0.6769
559.70 0.6765
559.80 0.676
559.90 0.6756
560.00 0.6751
560.10 0.6747
560.20 0.6742
560.30 0.6738
560.40 0.6734
560.50 0.6729
560.60 0.6725
560.70 0.672
560.80 0.6716
560.90 0.6711
561.00 0.6707
561.10 0.6703
561.20 0.6698
561.30 0.6694
561.40 0.669
561.50 0.6685
561.60 0.6681
561.70 0.6676
561.80 0.6672
561.90 0.6668
562.00 0.6663
562.10 0.6659
562.20 0.6655
562.30 0.665
562.40 0.6646
562.50 0.6642
562.60 0.6637
562.70 0.6633
562.80 0.6629
562.90 0.6624
563.00 0.662
563.10 0.6616
563.20 0.6611
563.30 0.6607
563.40 0.6603
563.50 0.6598
563.60 0.6594
563.70 0.659
563.80 0.6585
563.90 0.6581
564.00 0.6577
564.10 0.6572
564.20 0.6568
564.30 0.6564
564.40 0.656
564.50 0.6555
564.60 0.6551
564.70 0.6547
564.80 0.6543
564.90 0.6538
565.00 0.6534
565.10 0.653
565.20 0.6526
565.30 0.6521
565.40 0.6517
565.50 0.6513
565.60 0.6509
565.70 0.6504
565.80 0.65
565.90 0.6496
566.00 0.6492
566.10 0.6487
566.20 0.6483
566.30 0.6479
566.40 0.6475
566.50 0.6471
566.60 0.6466
566.70 0.6462
566.80 0.6458
566.90 0.6454
567.00 0.645
567.10 0.6445
567.20 0.6441
567.30 0.6437
567.40 0.6433
567.50 0.6429
567.60 0.6425
567.70 0.642
567.80 0.6416
567.90 0.6412
568.00 0.6408
568.10 0.6404
568.20 0.64
568.30 0.6395
568.40 0.6391
568.50 0.6387
568.60 0.6383
568.70 0.6379
568.80 0.6375
568.90 0.6371
569.00 0.6366
569.10 0.6362
569.20 0.6358
569.30 0.6354
569.40 0.635
569.50 0.6346
569.60 0.6342
569.70 0.6338
569.80 0.6334
569.90 0.633
570.00 0.6325
570.10 0.6321
570.20 0.6317
570.30 0.6313
570.40 0.6309
570.50 0.6305
570.60 0.6301
570.70 0.6297
570.80 0.6293
570.90 0.6289
571.00 0.6285
571.10 0.6281
571.20 0.6277
571.30 0.6273
571.40 0.6269
571.50 0.6265
571.60 0.6261
571.70 0.6256
571.80 0.6252
571.90 0.6248
572.00 0.6244
572.10 0.624
572.20 0.6236
572.30 0.6232
572.40 0.6228
572.50 0.6224
572.60 0.622
572.70 0.6216
572.80 0.6212
572.90 0.6208
573.00 0.6204
573.10 0.62
573.20 0.6196
573.30 0.6192
573.40 0.6188
573.50 0.6184
573.60 0.618
573.70 0.6176
573.80 0.6172
573.90 0.6169
574.00 0.6165
574.10 0.6161
574.20 0.6157
574.30 0.6153
574.40 0.6149
574.50 0.6145
574.60 0.6141
574.70 0.6137
574.80 0.6133
574.90 0.6129
575.00 0.6125
575.10 0.6121
575.20 0.6117
575.30 0.6113
575.40 0.6109
575.50 0.6106
575.60 0.6102
575.70 0.6098
575.80 0.6094
575.90 0.609
576.00 0.6086
576.10 0.6082
576.20 0.6078
576.30 0.6074
576.40 0.607
576.50 0.6067
576.60 0.6063
576.70 0.6059
576.80 0.6055
576.90 0.6051
577.00 0.6047
577.10 0.6043
577.20 0.6039
577.30 0.6036
577.40 0.6032
577.50 0.6028
577.60 0.6024
577.70 0.602
577.80 0.6016
577.90 0.6012
578.00 0.6009
578.10 0.6005
578.20 0.6001
578.30 0.5997
578.40 0.5993
578.50 0.599
578.60 0.5986
578.70 0.5982
578.80 0.5978
578.90 0.5974
579.00 0.597
579.10 0.5967
579.20 0.5963
579.30 0.5959
579.40 0.5955
579.50 0.5951
579.60 0.5948
579.70 0.5944
579.80 0.594
579.90 0.5936
580.00 0.5933
580.10 0.5929
580.20 0.5925
580.30 0.5921
580.40 0.5917
580.50 0.5914
580.60 0.591
580.70 0.5906
580.80 0.5902
580.90 0.5899
581.00 0.5895
581.10 0.5891
581.20 0.5887
581.30 0.5884
581.40 0.588
581.50 0.5876
581.60 0.5873
581.70 0.5869
581.80 0.5865
581.90 0.5861
582.00 0.5858
582.10 0.5854
582.20 0.585
582.30 0.5846
582.40 0.5843
582.50 0.5839
582.60 0.5835
582.70 0.5832
582.80 0.5828
582.90 0.5824
583.00 0.5821
583.10 0.5817
583.20 0.5813
583.30 0.581
583.40 0.5806
583.50 0.5802
583.60 0.5799
583.70 0.5795
583.80 0.5791
583.90 0.5788
584.00 0.5784
584.10 0.578
584.20 0.5777
584.30 0.5773
584.40 0.5769
584.50 0.5766
584.60 0.5762
584.70 0.5758
584.80 0.5755
584.90 0.5751
585.00 0.5747
585.10 0.5744
585.20 0.574
585.30 0.5736
585.40 0.5733
585.50 0.5729
585.60 0.5726
585.70 0.5722
585.80 0.5718
585.90 0.5715
586.00 0.5711
586.10 0.5708
586.20 0.5704
586.30 0.57
586.40 0.5697
586.50 0.5693
586.60 0.569
586.70 0.5686
586.80 0.5682
586.90 0.5679
587.00 0.5675
587.10 0.5672
587.20 0.5668
587.30 0.5665
587.40 0.5661
587.50 0.5657
587.60 0.5654
587.70 0.565
587.80 0.5647
587.90 0.5643
588.00 0.564
588.10 0.5636
588.20 0.5633
588.30 0.5629
588.40 0.5626
588.50 0.5622
588.60 0.5618
588.70 0.5615
588.80 0.5611
588.90 0.5608
589.00 0.5604
589.10 0.5601
589.20 0.5597
589.30 0.5594
589.40 0.559
589.50 0.5587
589.60 0.5583
589.70 0.558
589.80 0.5576
589.90 0.5573
590.00 0.5569
590.10 0.5566
590.20 0.5562
590.30 0.5559
590.40 0.5555
590.50 0.5552
590.60 0.5548
590.70 0.5545
590.80 0.5541
590.90 0.5538
591.00 0.5535
591.10 0.5531
591.20 0.5528
591.30 0.5524
591.40 0.5521
591.50 0.5517
591.60 0.5514
591.70 0.551
591.80 0.5507
591.90 0.5503
592.00 0.55
592.10 0.5497
592.20 0.5493
592.30 0.549
592.40 0.5486
592.50 0.5483
592.60 0.5479
592.70 0.5476
592.80 0.5473
592.90 0.5469
593.00 0.5466
593.10 0.5462
593.20 0.5459
593.30 0.5455
593.40 0.5452
593.50 0.5449
593.60 0.5445
593.70 0.5442
593.80 0.5438
593.90 0.5435
594.00 0.5432
594.10 0.5428
594.20 0.5425
594.30 0.5422
594.40 0.5418
594.50 0.5415
594.60 0.5411
594.70 0.5408
594.80 0.5405
594.90 0.5401
595.00 0.5398
595.10 0.5395
595.20 0.5391
595.30 0.5388
595.40 0.5384
595.50 0.5381
595.60 0.5378
595.70 0.5374
595.80 0.5371
595.90 0.5368
596.00 0.5364
596.10 0.5361
596.20 0.5358
596.30 0.5354
596.40 0.5351
596.50 0.5348
596.60 0.5344
596.70 0.5341
596.80 0.5338
596.90 0.5334
597.00 0.5331
597.10 0.5328
597.20 0.5325
597.30 0.5321
597.40 0.5318
597.50 0.5315
597.60 0.5311
597.70 0.5308
597.80 0.5305
597.90 0.5301
598.00 0.5298
598.10 0.5295
598.20 0.5292
598.30 0.5288
598.40 0.5285
598.50 0.5282
598.60 0.5278
598.70 0.5275
598.80 0.5272
598.90 0.5269
599.00 0.5265
599.10 0.5262
599.20 0.5259
599.30 0.5256
599.40 0.5252
599.50 0.5249
599.60 0.5246
599.70 0.5243
599.80 0.5239
599.90 0.5236
600.00 0.5233
600.10 0.523
600.20 0.5226
600.30 0.5223
600.40 0.522
600.50 0.5217
600.60 0.5213
600.70 0.521
600.80 0.5207
600.90 0.5204
601.00 0.5201
601.10 0.5197
601.20 0.5194
601.30 0.5191
601.40 0.5188
601.50 0.5185
601.60 0.5181
601.70 0.5178
601.80 0.5175
601.90 0.5172
602.00 0.5169
602.10 0.5165
602.20 0.5162
602.30 0.5159
602.40 0.5156
602.50 0.5153
602.60 0.5149
602.70 0.5146
602.80 0.5143
602.90 0.514
603.00 0.5137
603.10 0.5134
603.20 0.513
603.30 0.5127
603.40 0.5124
603.50 0.5121
603.60 0.5118
603.70 0.5115
603.80 0.5111
603.90 0.5108
604.00 0.5105
604.10 0.5102
604.20 0.5099
604.30 0.5096
604.40 0.5093
604.50 0.5089
604.60 0.5086
604.70 0.5083
604.80 0.508
604.90 0.5077
605.00 0.5074
605.10 0.5071
605.20 0.5068
605.30 0.5064
605.40 0.5061
605.50 0.5058
605.60 0.5055
605.70 0.5052
605.80 0.5049
605.90 0.5046
606.00 0.5043
606.10 0.504
606.20 0.5036
606.30 0.5033
606.40 0.503
606.50 0.5027
606.60 0.5024
606.70 0.5021
606.80 0.5018
606.90 0.5015
607.00 0.5012
607.10 0.5009
607.20 0.5006
607.30 0.5002
607.40 0.4999
607.50 0.4996
607.60 0.4993
607.70 0.499
607.80 0.4987
607.90 0.4984
608.00 0.4981
608.10 0.4978
608.20 0.4975
608.30 0.4972
608.40 0.4969
608.50 0.4966
608.60 0.4963
608.70 0.496
608.80 0.4957
608.90 0.4954
609.00 0.495
609.10 0.4947
609.20 0.4944
609.30 0.4941
609.40 0.4938
609.50 0.4935
609.60 0.4932
609.70 0.4929
609.80 0.4926
609.90 0.4923
610.00 0.492
610.10 0.4917
610.20 0.4914
610.30 0.4911
610.40 0.4908
610.50 0.4905
610.60 0.4902
610.70 0.4899
610.80 0.4896
610.90 0.4893
611.00 0.489
611.10 0.4887
611.20 0.4884
611.30 0.4881
611.40 0.4878
611.50 0.4875
611.60 0.4872
611.70 0.4869
611.80 0.4866
611.90 0.4863
612.00 0.486
612.10 0.4857
612.20 0.4854
612.30 0.4851
612.40 0.4848
612.50 0.4845
612.60 0.4842
612.70 0.4839
612.80 0.4837
612.90 0.4834
613.00 0.4831
613.10 0.4828
613.20 0.4825
613.30 0.4822
613.40 0.4819
613.50 0.4816
613.60 0.4813
613.70 0.481
613.80 0.4807
613.90 0.4804
614.00 0.4801
614.10 0.4798
614.20 0.4795
614.30 0.4792
614.40 0.4789
614.50 0.4786
614.60 0.4784
614.70 0.4781
614.80 0.4778
614.90 0.4775
615.00 0.4772
615.10 0.4769
615.20 0.4766
615.30 0.4763
615.40 0.476
615.50 0.4757
615.60 0.4754
615.70 0.4751
615.80 0.4748
615.90 0.4746
616.00 0.4743
616.10 0.474
616.20 0.4737
616.30 0.4734
616.40 0.4731
616.50 0.4728
616.60 0.4725
616.70 0.4722
616.80 0.472
616.90 0.4717
617.00 0.4714
617.10 0.4711
617.20 0.4708
617.30 0.4705
617.40 0.4702
617.50 0.4699
617.60 0.4696
617.70 0.4694
617.80 0.4691
617.90 0.4688
618.00 0.4685
618.10 0.4682
618.20 0.4679
618.30 0.4676
618.40 0.4674
618.50 0.4671
618.60 0.4668
618.70 0.4665
618.80 0.4662
618.90 0.4659
619.00 0.4656
619.10 0.4654
619.20 0.4651
619.30 0.4648
619.40 0.4645
619.50 0.4642
619.60 0.4639
619.70 0.4636
619.80 0.4634
619.90 0.4631
620.00 0.4628
620.10 0.4625
620.20 0.4622
620.30 0.4619
620.40 0.4617
620.50 0.4614
620.60 0.4611
620.70 0.4608
620.80 0.4605
620.90 0.4602
621.00 0.46
621.10 0.4597
621.20 0.4594
621.30 0.4591
621.40 0.4588
621.50 0.4585
621.60 0.4583
621.70 0.458
621.80 0.4577
621.90 0.4574
622.00 0.4571
622.10 0.4569
622.20 0.4566
622.30 0.4563
622.40 0.456
622.50 0.4557
622.60 0.4555
622.70 0.4552
622.80 0.4549
622.90 0.4546
623.00 0.4543
623.10 0.4541
623.20 0.4538
623.30 0.4535
623.40 0.4532
623.50 0.4529
623.60 0.4527
623.70 0.4524
623.80 0.4521
623.90 0.4518
624.00 0.4515
624.10 0.4513
624.20 0.451
624.30 0.4507
624.40 0.4504
624.50 0.4501
624.60 0.4499
624.70 0.4496
624.80 0.4493
624.90 0.449
625.00 0.4488
625.10 0.4485
625.20 0.4482
625.30 0.4479
625.40 0.4476
625.50 0.4474
625.60 0.4471
625.70 0.4468
625.80 0.4465
625.90 0.4463
626.00 0.446
626.10 0.4457
626.20 0.4454
626.30 0.4452
626.40 0.4449
626.50 0.4446
626.60 0.4443
626.70 0.444
626.80 0.4438
626.90 0.4435
627.00 0.4432
627.10 0.4429
627.20 0.4427
627.30 0.4424
627.40 0.4421
627.50 0.4418
627.60 0.4416
627.70 0.4413
627.80 0.441
627.90 0.4407
628.00 0.4405
628.10 0.4402
628.20 0.4399
628.30 0.4396
628.40 0.4393
628.50 0.4391
628.60 0.4388
628.70 0.4385
628.80 0.4382
628.90 0.438
629.00 0.4377
629.10 0.4374
629.20 0.4371
629.30 0.4369
629.40 0.4366
629.50 0.4363
629.60 0.436
629.70 0.4358
629.80 0.4355
629.90 0.4352
630.00 0.4349
630.10 0.4347
630.20 0.4344
630.30 0.4341
630.40 0.4338
630.50 0.4336
630.60 0.4333
630.70 0.433
630.80 0.4327
630.90 0.4324
631.00 0.4322
631.10 0.4319
631.20 0.4316
631.30 0.4313
631.40 0.4311
631.50 0.4308
631.60 0.4305
631.70 0.4302
631.80 0.43
631.90 0.4297
632.00 0.4294
632.10 0.4291
632.20 0.4288
632.30 0.4286
632.40 0.4283
632.50 0.428
632.60 0.4277
632.70 0.4274
632.80 0.4272
632.90 0.4269
633.00 0.4266
633.10 0.4263
633.20 0.4261
633.30 0.4258
633.40 0.4255
633.50 0.4252
633.60 0.4249
633.70 0.4247
633.80 0.4244
633.90 0.4241
634.00 0.4238
634.10 0.4235
634.20 0.4233
634.30 0.423
634.40 0.4227
634.50 0.4224
634.60 0.4221
634.70 0.4218
634.80 0.4216
634.90 0.4213
635.00 0.421
635.10 0.4207
635.20 0.4204
635.30 0.4201
635.40 0.4199
635.50 0.4196
635.60 0.4193
635.70 0.419
635.80 0.4187
635.90 0.4184
636.00 0.4181
636.10 0.4178
636.20 0.4176
636.30 0.4173
636.40 0.417
636.50 0.4167
636.60 0.4164
636.70 0.4161
636.80 0.4158
636.90 0.4155
637.00 0.4152
637.10 0.4149
637.20 0.4146
637.30 0.4144
637.40 0.4141
637.50 0.4138
637.60 0.4135
637.70 0.4132
637.80 0.4129
637.90 0.4126
638.00 0.4123
638.10 0.412
638.20 0.4117
638.30 0.4114
638.40 0.4111
638.50 0.4108
638.60 0.4105
638.70 0.4102
638.80 0.4099
638.90 0.4095
639.00 0.4092
639.10 0.4089
639.20 0.4086
639.30 0.4083
639.40 0.408
639.50 0.4077
639.60 0.4074
639.70 0.4071
639.80 0.4068
639.90 0.4064
640.00 0.4061
640.10 0.4058
640.20 0.4055
640.30 0.4052
640.40 0.4049
640.50 0.4045
640.60 0.4042
640.70 0.4039
640.80 0.4035
640.90 0.4032
641.00 0.4029
641.10 0.4026
641.20 0.4022
641.30 0.4019
641.40 0.4016
641.50 0.4012
641.60 0.4009
641.70 0.4005
641.80 0.4002
641.90 0.3998
642.00 0.3995
642.10 0.3992
642.20 0.3988
642.30 0.3985
642.40 0.3981
642.50 0.3977
642.60 0.3974
642.70 0.397
642.80 0.3966
642.90 0.3963
643.00 0.3959
643.10 0.3956
643.20 0.3952
643.30 0.3948
643.40 0.3944
643.50 0.394
643.60 0.3937
643.70 0.3933
643.80 0.3929
643.90 0.3925
644.00 0.3921
644.10 0.3917
644.20 0.3913
644.30 0.3909
644.40 0.3905
644.50 0.3901
644.60 0.3896
644.70 0.3892
644.80 0.3888
644.90 0.3884
645.00 0.3879
645.10 0.3875
645.20 0.3871
645.30 0.3867
645.40 0.3862
645.50 0.3857
645.60 0.3853
645.70 0.3848
645.80 0.3843
645.90 0.3838
646.00 0.3834
646.10 0.3829
646.20 0.3824
646.30 0.382
646.40 0.3814
646.50 0.3809
646.60 0.3804
646.70 0.3799
646.80 0.3793
646.90 0.3788
647.00 0.3783
647.10 0.3778
647.20 0.3772
647.30 0.3767
647.40 0.3761
647.50 0.3755
647.60 0.3749
647.70 0.3743
647.80 0.3737
647.90 0.3731
648.00 0.3725
648.10 0.3719
648.20 0.3713
648.30 0.3707
648.40 0.37
648.50 0.3693
648.60 0.3686
648.70 0.3679
648.80 0.3672
648.90 0.3665
649.00 0.3658
649.10 0.3651
649.20 0.3644
649.30 0.3636
649.40 0.3628
649.50 0.362
649.60 0.3612
649.70 0.3603
649.80 0.3595
649.90 0.3587
650.00 0.3579
650.10 0.357
650.20 0.3562
650.30 0.3554
650.40 0.3544
650.50 0.3534
650.60 0.3524
650.70 0.3514
650.80 0.3504
650.90 0.3494
651.00 0.3484
651.10 0.3474
651.20 0.3465
651.30 0.3454
651.40 0.3442
651.50 0.343
651.60 0.3418
651.70 0.3406
651.80 0.3394
651.90 0.3382
652.00 0.337
652.10 0.3358
652.20 0.3346
652.30 0.3333
652.40 0.3319
652.50 0.3304
652.60 0.3289
652.70 0.3274
652.80 0.3259
652.90 0.3244
653.00 0.3229
653.10 0.3215
653.20 0.32
653.30 0.3184
653.40 0.3165
653.50 0.3147
653.60 0.3128
653.70 0.3109
653.80 0.309
653.90 0.3072
654.00 0.3053
654.10 0.3034
654.20 0.3015
654.30 0.2996
654.40 0.2972
654.50 0.2949
654.60 0.2926
654.70 0.2903
654.80 0.2878
654.90 0.2849
655.00 0.2821
655.10 0.2792
655.20 0.2763
655.30 0.2733
655.40 0.2697
655.50 0.266
655.60 0.2617
655.70 0.2572
655.80 0.2517
655.90 0.2458
656.00 0.2379
656.10 0.2296
656.20 0.2149
656.30 0.1923
656.40 0.2215
656.50 0.2324
656.60 0.2401
656.70 0.2473
656.80 0.2525
656.90 0.2575
657.00 0.2615
657.10 0.2654
657.20 0.2686
657.30 0.2718
657.40 0.2744
657.50 0.2769
657.60 0.2795
657.70 0.2821
657.80 0.2845
657.90 0.2865
658.00 0.2885
658.10 0.2905
658.20 0.2925
658.30 0.2944
658.40 0.2959
658.50 0.2975
658.60 0.299
658.70 0.3005
658.80 0.302
658.90 0.3035
659.00 0.3051
659.10 0.3066
659.20 0.3081
659.30 0.3095
659.40 0.3106
659.50 0.3117
659.60 0.3128
659.70 0.3139
659.80 0.315
659.90 0.3161
660.00 0.3172
660.10 0.3183
660.20 0.3194
660.30 0.3205
660.40 0.3213
660.50 0.322
660.60 0.3228
660.70 0.3236
660.80 0.3244
660.90 0.3252
661.00 0.326
661.10 0.3268
661.20 0.3276
661.30 0.3284
661.40 0.3289
661.50 0.3295
661.60 0.3301
661.70 0.3306
661.80 0.3312
661.90 0.3318
662.00 0.3323
662.10 0.3329
662.20 0.3335
662.30 0.334
662.40 0.3344
662.50 0.3348
662.60 0.3352
662.70 0.3356
662.80 0.336
662.90 0.3363
663.00 0.3367
663.10 0.3371
663.20 0.3375
663.30 0.3379
663.40 0.3381
663.50 0.3384
663.60 0.3387
663.70 0.3389
663.80 0.3392
663.90 0.3394
664.00 0.3397
664.10 0.3399
664.20 0.3402
664.30 0.3404
664.40 0.3406
664.50 0.3408
664.60 0.3409
664.70 0.3411
664.80 0.3412
664.90 0.3414
665.00 0.3415
665.10 0.3417
665.20 0.3419
665.30 0.342
665.40 0.3421
665.50 0.3422
665.60 0.3422
665.70 0.3423
665.80 0.3424
665.90 0.3425
666.00 0.3426
666.10 0.3426
666.20 0.3427
666.30 0.3428
666.40 0.3428
666.50 0.3428
666.60 0.3429
666.70 0.3429
666.80 0.3429
666.90 0.3429
667.00 0.3429
667.10 0.343
667.20 0.343
667.30 0.343
667.40 0.343
667.50 0.343
667.60 0.3429
667.70 0.3429
667.80 0.3429
667.90 0.3429
668.00 0.3428
668.10 0.3428
668.20 0.3428
668.30 0.3428
668.40 0.3427
668.50 0.3427
668.60 0.3426
668.70 0.3426
668.80 0.3425
668.90 0.3424
669.00 0.3424
669.10 0.3423
669.20 0.3423
669.30 0.3422
669.40 0.3421
669.50 0.3421
669.60 0.342
669.70 0.3419
669.80 0.3418
669.90 0.3417
670.00 0.3416
670.10 0.3416
670.20 0.3415
670.30 0.3414
670.40 0.3413
670.50 0.3412
670.60 0.3411
670.70 0.341
670.80 0.3409
670.90 0.3408
671.00 0.3407
671.10 0.3406
671.20 0.3405
671.30 0.3404
671.40 0.3403
671.50 0.3402
671.60 0.34
671.70 0.3399
671.80 0.3398
671.90 0.3397
672.00 0.3396
672.10 0.3395
672.20 0.3393
672.30 0.3392
672.40 0.3391
672.50 0.339
672.60 0.3388
672.70 0.3387
672.80 0.3386
672.90 0.3385
673.00 0.3383
673.10 0.3382
673.20 0.3381
673.30 0.3379
673.40 0.3378
673.50 0.3377
673.60 0.3375
673.70 0.3374
673.80 0.3373
673.90 0.3371
674.00 0.337
674.10 0.3369
674.20 0.3367
674.30 0.3366
674.40 0.3364
674.50 0.3363
674.60 0.3362
674.70 0.336
674.80 0.3359
674.90 0.3357
675.00 0.3356
675.10 0.3354
675.20 0.3353
675.30 0.3351
675.40 0.335
675.50 0.3348
675.60 0.3347
675.70 0.3345
675.80 0.3344
675.90 0.3342
676.00 0.3341
676.10 0.334
676.20 0.3338
676.30 0.3337
676.40 0.3335
676.50 0.3333
676.60 0.3332
676.70 0.333
676.80 0.3329
676.90 0.3327
677.00 0.3326
677.10 0.3324
677.20 0.3323
677.30 0.3321
677.40 0.332
677.50 0.3318
677.60 0.3316
677.70 0.3315
677.80 0.3313
677.90 0.3312
678.00 0.331
678.10 0.3309
678.20 0.3307
678.30 0.3306
678.40 0.3304
678.50 0.3302
678.60 0.3301
678.70 0.3299
678.80 0.3298
678.90 0.3296
679.00 0.3294
679.10 0.3293
679.20 0.3291
679.30 0.329
679.40 0.3288
679.50 0.3286
679.60 0.3285
679.70 0.3283
679.80 0.3282
679.90 0.328
680.00 0.3278
680.10 0.3277
680.20 0.3275
680.30 0.3274
680.40 0.3272
680.50 0.327
680.60 0.3269
680.70 0.3267
680.80 0.3265
680.90 0.3264
681.00 0.3262
681.10 0.3261
681.20 0.3259
681.30 0.3257
681.40 0.3256
681.50 0.3254
681.60 0.3252
681.70 0.3251
681.80 0.3249
681.90 0.3247
682.00 0.3246
682.10 0.3244
682.20 0.3243
682.30 0.3241
682.40 0.3239
682.50 0.3238
682.60 0.3236
682.70 0.3234
682.80 0.3233
682.90 0.3231
683.00 0.323
683.10 0.3228
683.20 0.3226
683.30 0.3225
683.40 0.3223
683.50 0.3221
683.60 0.322
683.70 0.3218
683.80 0.3216
683.90 0.3215
684.00 0.3213
684.10 0.3211
684.20 0.321
684.30 0.3208
684.40 0.3207
684.50 0.3205
684.60 0.3203
684.70 0.3202
684.80 0.32
684.90 0.3198
685.00 0.3197
685.10 0.3195
685.20 0.3193
685.30 0.3192
685.40 0.319
685.50 0.3188
685.60 0.3187
685.70 0.3185
685.80 0.3184
685.90 0.3182
686.00 0.318
686.10 0.3179
686.20 0.3177
686.30 0.3175
686.40 0.3174
686.50 0.3172
686.60 0.317
686.70 0.3169
686.80 0.3167
686.90 0.3165
687.00 0.3164
687.10 0.3162
687.20 0.3161
687.30 0.3159
687.40 0.3157
687.50 0.3156
687.60 0.3154
687.70 0.3152
687.80 0.3151
687.90 0.3149
688.00 0.3147
688.10 0.3146
688.20 0.3144
688.30 0.3142
688.40 0.3141
688.50 0.3139
688.60 0.3138
688.70 0.3136
688.80 0.3134
688.90 0.3133
689.00 0.3131
689.10 0.3129
689.20 0.3128
689.30 0.3126
689.40 0.3125
689.50 0.3123
689.60 0.3121
689.70 0.312
689.80 0.3118
689.90 0.3116
690.00 0.3115
690.10 0.3113
690.20 0.3111
690.30 0.311
690.40 0.3108
690.50 0.3107
690.60 0.3105
690.70 0.3103
690.80 0.3102
690.90 0.31
691.00 0.3098
691.10 0.3097
691.20 0.3095
691.30 0.3094
691.40 0.3092
691.50 0.309
691.60 0.3089
691.70 0.3087
691.80 0.3085
691.90 0.3084
692.00 0.3082
692.10 0.3081
692.20 0.3079
692.30 0.3077
692.40 0.3076
692.50 0.3074
692.60 0.3073
692.70 0.3071
692.80 0.3069
692.90 0.3068
693.00 0.3066
693.10 0.3065
693.20 0.3063
693.30 0.3061
693.40 0.306
693.50 0.3058
693.60 0.3057
693.70 0.3055
693.80 0.3053
693.90 0.3052
694.00 0.305
694.10 0.3048
694.20 0.3047
694.30 0.3045
694.40 0.3044
694.50 0.3042
694.60 0.3041
694.70 0.3039
694.80 0.3037
694.90 0.3036
695.00 0.3034
695.10 0.3033
695.20 0.3031
695.30 0.3029
695.40 0.3028
695.50 0.3026
695.60 0.3025
695.70 0.3023
695.80 0.3021
695.90 0.302
696.00 0.3018
696.10 0.3017
696.20 0.3015
696.30 0.3013
696.40 0.3012
696.50 0.301
696.60 0.3009
696.70 0.3007
696.80 0.3006
696.90 0.3004
697.00 0.3002
697.10 0.3001
697.20 0.2999
697.30 0.2998
697.40 0.2996
697.50 0.2995
697.60 0.2993
697.70 0.2991
697.80 0.299
697.90 0.2988
698.00 0.2987
698.10 0.2985
698.20 0.2984
698.30 0.2982
698.40 0.298
698.50 0.2979
698.60 0.2977
698.70 0.2976
698.80 0.2974
698.90 0.2973
699.00 0.2971
699.10 0.2969
699.20 0.2968
699.30 0.2966
699.40 0.2965
699.50 0.2963
699.60 0.2962
699.70 0.296
699.80 0.2959
699.90 0.2957
700.00 0.2955
700.10 0.2954
700.20 0.2952
700.30 0.2951
700.40 0.2949
700.50 0.2948
700.60 0.2946
700.70 0.2945
700.80 0.2943
700.90 0.2942
701.00 0.294
701.10 0.2938
701.20 0.2937
701.30 0.2935
701.40 0.2934
701.50 0.2932
701.60 0.2931
701.70 0.2929
701.80 0.2928
701.90 0.2926
702.00 0.2925
702.10 0.2923
702.20 0.2922
702.30 0.292
702.40 0.2918
702.50 0.2917
702.60 0.2915
702.70 0.2914
702.80 0.2912
702.90 0.2911
703.00 0.2909
703.10 0.2908
703.20 0.2906
703.30 0.2905
703.40 0.2903
703.50 0.2902
703.60 0.29
703.70 0.2899
703.80 0.2897
703.90 0.2896
704.00 0.2894
704.10 0.2893
704.20 0.2891
704.30 0.289
704.40 0.2888
704.50 0.2887
704.60 0.2885
704.70 0.2883
704.80 0.2882
704.90 0.288
705.00 0.2879
705.10 0.2877
705.20 0.2876
705.30 0.2874
705.40 0.2873
705.50 0.2871
705.60 0.287
705.70 0.2868
705.80 0.2867
705.90 0.2865
706.00 0.2864
706.10 0.2862
706.20 0.2861
706.30 0.2859
706.40 0.2858
706.50 0.2856
706.60 0.2855
706.70 0.2853
706.80 0.2852
706.90 0.2851
707.00 0.2849
707.10 0.2848
707.20 0.2846
707.30 0.2845
707.40 0.2843
707.50 0.2842
707.60 0.284
707.70 0.2839
707.80 0.2837
707.90 0.2836
708.00 0.2834
708.10 0.2833
708.20 0.2831
708.30 0.283
708.40 0.2828
708.50 0.2827
708.60 0.2825
708.70 0.2824
708.80 0.2822
708.90 0.2821
709.00 0.2819
709.10 0.2818
709.20 0.2816
709.30 0.2815
709.40 0.2813
709.50 0.2812
709.60 0.2811
709.70 0.2809
709.80 0.2808
709.90 0.2806
710.00 0.2805
710.10 0.2803
710.20 0.2802
710.30 0.28
710.40 0.2799
710.50 0.2797
710.60 0.2796
710.70 0.2794
710.80 0.2793
710.90 0.2792
711.00 0.279
711.10 0.2789
711.20 0.2787
711.30 0.2786
711.40 0.2784
711.50 0.2783
711.60 0.2781
711.70 0.278
711.80 0.2779
711.90 0.2777
712.00 0.2776
712.10 0.2774
712.20 0.2773
712.30 0.2771
712.40 0.277
712.50 0.2768
712.60 0.2767
712.70 0.2766
712.80 0.2764
712.90 0.2763
713.00 0.2761
713.10 0.276
713.20 0.2758
713.30 0.2757
713.40 0.2755
713.50 0.2754
713.60 0.2753
713.70 0.2751
713.80 0.275
713.90 0.2748
714.00 0.2747
714.10 0.2745
714.20 0.2744
714.30 0.2743
714.40 0.2741
714.50 0.274
714.60 0.2738
714.70 0.2737
714.80 0.2735
714.90 0.2734
715.00 0.2733
715.10 0.2731
715.20 0.273
715.30 0.2728
715.40 0.2727
715.50 0.2726
715.60 0.2724
715.70 0.2723
715.80 0.2721
715.90 0.272
716.00 0.2719
716.10 0.2717
716.20 0.2716
716.30 0.2714
716.40 0.2713
716.50 0.2712
716.60 0.271
716.70 0.2709
716.80 0.2707
716.90 0.2706
717.00 0.2705
717.10 0.2703
717.20 0.2702
717.30 0.27
717.40 0.2699
717.50 0.2698
717.60 0.2696
717.70 0.2695
717.80 0.2693
717.90 0.2692
718.00 0.2691
718.10 0.2689
718.20 0.2688
718.30 0.2686
718.40 0.2685
718.50 0.2684
718.60 0.2682
718.70 0.2681
718.80 0.2679
718.90 0.2678
719.00 0.2677
719.10 0.2675
719.20 0.2674
719.30 0.2672
719.40 0.2671
719.50 0.267
719.60 0.2668
719.70 0.2667
719.80 0.2666
719.90 0.2664
720.00 0.2663
720.10 0.2661
720.20 0.266
720.30 0.2659
720.40 0.2657
720.50 0.2656
720.60 0.2655
720.70 0.2653
720.80 0.2652
720.90 0.2651
721.00 0.2649
721.10 0.2648
721.20 0.2646
721.30 0.2645
721.40 0.2644
721.50 0.2642
721.60 0.2641
721.70 0.264
721.80 0.2638
721.90 0.2637
722.00 0.2636
722.10 0.2634
722.20 0.2633
722.30 0.2631
722.40 0.263
722.50 0.2629
722.60 0.2627
722.70 0.2626
722.80 0.2625
722.90 0.2623
723.00 0.2622
723.10 0.2621
723.20 0.2619
723.30 0.2618
723.40 0.2617
723.50 0.2615
723.60 0.2614
723.70 0.2613
723.80 0.2611
723.90 0.261
724.00 0.2609
724.10 0.2607
724.20 0.2606
724.30 0.2605
724.40 0.2603
724.50 0.2602
724.60 0.2601
724.70 0.2599
724.80 0.2598
724.90 0.2597
725.00 0.2595
725.10 0.2594
725.20 0.2593
725.30 0.2591
725.40 0.259
725.50 0.2589
725.60 0.2587
725.70 0.2586
725.80 0.2585
725.90 0.2583
726.00 0.2582
726.10 0.2581
726.20 0.2579
726.30 0.2578
726.40 0.2577
726.50 0.2575
726.60 0.2574
726.70 0.2573
726.80 0.2571
726.90 0.257
727.00 0.2569
727.10 0.2567
727.20 0.2566
727.30 0.2565
727.40 0.2564
727.50 0.2562
727.60 0.2561
727.70 0.256
727.80 0.2558
727.90 0.2557
728.00 0.2556
728.10 0.2554
728.20 0.2553
728.30 0.2552
728.40 0.255
728.50 0.2549
728.60 0.2548
728.70 0.2547
728.80 0.2545
728.90 0.2544
729.00 0.2543
729.10 0.2541
729.20 0.254
729.30 0.2539
729.40 0.2537
729.50 0.2536
729.60 0.2535
729.70 0.2534
729.80 0.2532
729.90 0.2531
730.00 0.253
730.10 0.2528
730.20 0.2527
730.30 0.2526
730.40 0.2525
730.50 0.2523
730.60 0.2522
730.70 0.2521
730.80 0.2519
730.90 0.2518
731.00 0.2517
731.10 0.2516
731.20 0.2514
731.30 0.2513
731.40 0.2512
731.50 0.251
731.60 0.2509
731.70 0.2508
731.80 0.2507
731.90 0.2505
732.00 0.2504
732.10 0.2503
732.20 0.2502
732.30 0.25
732.40 0.2499
732.50 0.2498
732.60 0.2497
732.70 0.2495
732.80 0.2494
732.90 0.2493
733.00 0.2491
733.10 0.249
733.20 0.2489
733.30 0.2488
733.40 0.2486
733.50 0.2485
733.60 0.2484
733.70 0.2483
733.80 0.2481
733.90 0.248
734.00 0.2479
734.10 0.2478
734.20 0.2476
734.30 0.2475
734.40 0.2474
734.50 0.2473
734.60 0.2471
734.70 0.247
734.80 0.2469
734.90 0.2468
735.00 0.2466
735.10 0.2465
735.20 0.2464
735.30 0.2463
735.40 0.2461
735.50 0.246
735.60 0.2459
735.70 0.2458
735.80 0.2456
735.90 0.2455
736.00 0.2454
736.10 0.2453
736.20 0.2451
736.30 0.245
736.40 0.2449
736.50 0.2448
736.60 0.2446
736.70 0.2445
736.80 0.2444
736.90 0.2443
737.00 0.2441
737.10 0.244
737.20 0.2439
737.30 0.2438
737.40 0.2437
737.50 0.2435
737.60 0.2434
737.70 0.2433
737.80 0.2432
737.90 0.243
738.00 0.2429
738.10 0.2428
738.20 0.2427
738.30 0.2425
738.40 0.2424
738.50 0.2423
738.60 0.2422
738.70 0.242
738.80 0.2419
738.90 0.2418
739.00 0.2417
739.10 0.2416
739.20 0.2414
739.30 0.2413
739.40 0.2412
739.50 0.2411
739.60 0.2409
739.70 0.2408
739.80 0.2407
739.90 0.2406
740.00 0.2405
740.10 0.2403
740.20 0.2402
740.30 0.2401
740.40 0.24
740.50 0.2399
740.60 0.2397
740.70 0.2396
740.80 0.2395
740.90 0.2394
741.00 0.2393
741.10 0.2391
741.20 0.239
741.30 0.2389
741.40 0.2388
741.50 0.2387
741.60 0.2385
741.70 0.2384
741.80 0.2383
741.90 0.2382
742.00 0.2381
742.10 0.2379
742.20 0.2378
742.30 0.2377
742.40 0.2376
742.50 0.2375
742.60 0.2374
742.70 0.2372
742.80 0.2371
742.90 0.237
743.00 0.2369
743.10 0.2368
743.20 0.2366
743.30 0.2365
743.40 0.2364
743.50 0.2363
743.60 0.2362
743.70 0.236
743.80 0.2359
743.90 0.2358
744.00 0.2357
744.10 0.2356
744.20 0.2355
744.30 0.2353
744.40 0.2352
744.50 0.2351
744.60 0.235
744.70 0.2349
744.80 0.2348
744.90 0.2346
745.00 0.2345
745.10 0.2344
745.20 0.2343
745.30 0.2342
745.40 0.234
745.50 0.2339
745.60 0.2338
745.70 0.2337
745.80 0.2336
745.90 0.2335
746.00 0.2333
746.10 0.2332
746.20 0.2331
746.30 0.233
746.40 0.2329
746.50 0.2328
746.60 0.2326
746.70 0.2325
746.80 0.2324
746.90 0.2323
747.00 0.2322
747.10 0.2321
747.20 0.2319
747.30 0.2318
747.40 0.2317
747.50 0.2316
747.60 0.2315
747.70 0.2314
747.80 0.2312
747.90 0.2311
748.00 0.231
748.10 0.2309
748.20 0.2308
748.30 0.2307
748.40 0.2306
748.50 0.2304
748.60 0.2303
748.70 0.2302
748.80 0.2301
748.90 0.23
749.00 0.2299
749.10 0.2297
749.20 0.2296
749.30 0.2295
749.40 0.2294
749.50 0.2293
749.60 0.2292
749.70 0.2291
749.80 0.2289
749.90 0.2288
750.00 0.2287
750.10 0.2286
750.20 0.2285
750.30 0.2284
750.40 0.2283
750.50 0.2281
750.60 0.228
750.70 0.2279
750.80 0.2278
750.90 0.2277
751.00 0.2276
751.10 0.2275
751.20 0.2274
751.30 0.2272
751.40 0.2271
751.50 0.227
751.60 0.2269
751.70 0.2268
751.80 0.2267
751.90 0.2266
752.00 0.2265
752.10 0.2264
752.20 0.2262
752.30 0.2261
752.40 0.226
752.50 0.2259
752.60 0.2258
752.70 0.2257
752.80 0.2256
752.90 0.2255
753.00 0.2253
753.10 0.2252
753.20 0.2251
753.30 0.225
753.40 0.2249
753.50 0.2248
753.60 0.2247
753.70 0.2246
753.80 0.2245
753.90 0.2243
754.00 0.2242
754.10 0.2241
754.20 0.224
754.30 0.2239
754.40 0.2238
754.50 0.2237
754.60 0.2236
754.70 0.2235
754.80 0.2233
754.90 0.2232
755.00 0.2231
755.10 0.223
755.20 0.2229
755.30 0.2228
755.40 0.2227
755.50 0.2226
755.60 0.2225
755.70 0.2224
755.80 0.2222
755.90 0.2221
756.00 0.222
756.10 0.2219
756.20 0.2218
756.30 0.2217
756.40 0.2216
756.50 0.2215
756.60 0.2214
756.70 0.2213
756.80 0.2211
756.90 0.221
757.00 0.2209
757.10 0.2208
757.20 0.2207
757.30 0.2206
757.40 0.2205
757.50 0.2204
757.60 0.2203
757.70 0.2202
757.80 0.2201
757.90 0.2199
758.00 0.2198
758.10 0.2197
758.20 0.2196
758.30 0.2195
758.40 0.2194
758.50 0.2193
758.60 0.2192
758.70 0.2191
758.80 0.219
758.90 0.2189
759.00 0.2188
759.10 0.2186
759.20 0.2185
759.30 0.2184
759.40 0.2183
759.50 0.2182
759.60 0.2181
759.70 0.218
759.80 0.2179
759.90 0.2178
760.00 0.2177
760.10 0.2176
760.20 0.2175
760.30 0.2174
760.40 0.2172
760.50 0.2171
760.60 0.217
760.70 0.2169
760.80 0.2168
760.90 0.2167
761.00 0.2166
761.10 0.2165
761.20 0.2164
761.30 0.2163
761.40 0.2162
761.50 0.2161
761.60 0.216
761.70 0.2159
761.80 0.2158
761.90 0.2157
762.00 0.2156
762.10 0.2155
762.20 0.2153
762.30 0.2152
762.40 0.2151
762.50 0.215
762.60 0.2149
762.70 0.2148
762.80 0.2147
762.90 0.2146
763.00 0.2145
763.10 0.2144
763.20 0.2143
763.30 0.2142
763.40 0.2141
763.50 0.214
763.60 0.2139
763.70 0.2138
763.80 0.2137
763.90 0.2136
764.00 0.2135
764.10 0.2134
764.20 0.2133
764.30 0.2132
764.40 0.213
764.50 0.2129
764.60 0.2128
764.70 0.2127
764.80 0.2126
764.90 0.2125
765.00 0.2124
765.10 0.2123
765.20 0.2122
765.30 0.2121
765.40 0.212
765.50 0.2119
765.60 0.2118
765.70 0.2117
765.80 0.2116
765.90 0.2115
766.00 0.2114
766.10 0.2113
766.20 0.2112
766.30 0.2111
766.40 0.211
766.50 0.2109
766.60 0.2108
766.70 0.2107
766.80 0.2106
766.90 0.2105
767.00 0.2104
767.10 0.2103
767.20 0.2102
767.30 0.21
767.40 0.2099
767.50 0.2098
767.60 0.2097
767.70 0.2096
767.80 0.2095
767.90 0.2094
768.00 0.2093
768.10 0.2092
768.20 0.2091
768.30 0.209
768.40 0.2089
768.50 0.2088
768.60 0.2087
768.70 0.2086
768.80 0.2085
768.90 0.2084
769.00 0.2083
769.10 0.2082
769.20 0.2081
769.30 0.208
769.40 0.2079
769.50 0.2078
769.60 0.2077
769.70 0.2076
769.80 0.2075
769.90 0.2074
770.00 0.2073
770.10 0.2072
770.20 0.2071
770.30 0.207
770.40 0.2069
770.50 0.2068
770.60 0.2067
770.70 0.2066
770.80 0.2065
770.90 0.2064
771.00 0.2063
771.10 0.2062
771.20 0.2061
771.30 0.206
771.40 0.2059
771.50 0.2058
771.60 0.2057
771.70 0.2056
771.80 0.2055
771.90 0.2054
772.00 0.2053
772.10 0.2052
772.20 0.2051
772.30 0.205
772.40 0.2049
772.50 0.2048
772.60 0.2047
772.70 0.2046
772.80 0.2045
772.90 0.2044
773.00 0.2043
773.10 0.2042
773.20 0.2041
773.30 0.204
773.40 0.2039
773.50 0.2038
773.60 0.2037
773.70 0.2036
773.80 0.2035
773.90 0.2034
774.00 0.2033
774.10 0.2032
774.20 0.2031
774.30 0.203
774.40 0.2029
774.50 0.2028
774.60 0.2027
774.70 0.2026
774.80 0.2025
774.90 0.2025
775.00 0.2024
775.10 0.2023
775.20 0.2022
775.30 0.2021
775.40 0.202
775.50 0.2019
775.60 0.2018
775.70 0.2017
775.80 0.2016
775.90 0.2015
776.00 0.2014
776.10 0.2013
776.20 0.2012
776.30 0.2011
776.40 0.201
776.50 0.2009
776.60 0.2008
776.70 0.2007
776.80 0.2006
776.90 0.2005
777.00 0.2004
777.10 0.2003
777.20 0.2002
777.30 0.2001
777.40 0.2
777.50 0.1999
777.60 0.1998
777.70 0.1997
777.80 0.1996
777.90 0.1995
778.00 0.1994
778.10 0.1993
778.20 0.1993
778.30 0.1992
778.40 0.1991
778.50 0.199
778.60 0.1989
778.70 0.1988
778.80 0.1987
778.90 0.1986
779.00 0.1985
779.10 0.1984
779.20 0.1983
779.30 0.1982
779.40 0.1981
779.50 0.198
779.60 0.1979
779.70 0.1978
779.80 0.1977
779.90 0.1976
780.00 0.1975
780.10 0.1974
780.20 0.1973
780.30 0.1972
780.40 0.1971
780.50 0.1971
780.60 0.197
780.70 0.1969
780.80 0.1968
780.90 0.1967
781.00 0.1966
781.10 0.1965
781.20 0.1964
781.30 0.1963
781.40 0.1962
781.50 0.1961
781.60 0.196
781.70 0.1959
781.80 0.1958
781.90 0.1957
782.00 0.1957
782.10 0.1956
782.20 0.1955
782.30 0.1954
782.40 0.1953
782.50 0.1952
782.60 0.1951
782.70 0.195
782.80 0.1949
782.90 0.1948
783.00 0.1947
783.10 0.1946
783.20 0.1945
783.30 0.1944
783.40 0.1944
783.50 0.1943
783.60 0.1942
783.70 0.1941
783.80 0.194
783.90 0.1939
784.00 0.1938
784.10 0.1937
784.20 0.1936
784.30 0.1935
784.40 0.1934
784.50 0.1933
784.60 0.1932
784.70 0.1931
784.80 0.1931
784.90 0.193
785.00 0.1929
785.10 0.1928
785.20 0.1927
785.30 0.1926
785.40 0.1925
785.50 0.1924
785.60 0.1923
785.70 0.1922
785.80 0.1921
785.90 0.192
786.00 0.192
786.10 0.1919
786.20 0.1918
786.30 0.1917
786.40 0.1916
786.50 0.1915
786.60 0.1914
786.70 0.1913
786.80 0.1912
786.90 0.1911
787.00 0.191
787.10 0.191
787.20 0.1909
787.30 0.1908
787.40 0.1907
787.50 0.1906
787.60 0.1905
787.70 0.1904
787.80 0.1903
787.90 0.1902
788.00 0.1901
788.10 0.19
788.20 0.19
788.30 0.1899
788.40 0.1898
788.50 0.1897
788.60 0.1896
788.70 0.1895
788.80 0.1894
788.90 0.1893
789.00 0.1892
789.10 0.1891
789.20 0.189
789.30 0.189
789.40 0.1889
789.50 0.1888
789.60 0.1887
789.70 0.1886
789.80 0.1885
789.90 0.1884
790.00 0.1883
790.10 0.1882
790.20 0.1881
790.30 0.1881
790.40 0.188
790.50 0.1879
790.60 0.1878
790.70 0.1877
790.80 0.1876
790.90 0.1875
791.00 0.1874
791.10 0.1874
791.20 0.1873
791.30 0.1872
791.40 0.1871
791.50 0.187
791.60 0.1869
791.70 0.1868
791.80 0.1867
791.90 0.1866
792.00 0.1866
792.10 0.1865
792.20 0.1864
792.30 0.1863
792.40 0.1862
792.50 0.1861
792.60 0.186
792.70 0.1859
792.80 0.1859
792.90 0.1858
793.00 0.1857
793.10 0.1856
793.20 0.1855
793.30 0.1854
793.40 0.1853
793.50 0.1852
793.60 0.1852
793.70 0.1851
793.80 0.185
793.90 0.1849
794.00 0.1848
794.10 0.1847
794.20 0.1846
794.30 0.1846
794.40 0.1845
794.50 0.1844
794.60 0.1843
794.70 0.1842
794.80 0.1841
794.90 0.184
795.00 0.1839
795.10 0.1839
795.20 0.1838
795.30 0.1837
795.40 0.1836
795.50 0.1835
795.60 0.1834
795.70 0.1833
795.80 0.1833
795.90 0.1832
796.00 0.1831
796.10 0.183
796.20 0.1829
796.30 0.1828
796.40 0.1827
796.50 0.1826
796.60 0.1826
796.70 0.1825
796.80 0.1824
796.90 0.1823
797.00 0.1822
797.10 0.1821
797.20 0.182
797.30 0.182
797.40 0.1819
797.50 0.1818
797.60 0.1817
797.70 0.1816
797.80 0.1815
797.90 0.1814
798.00 0.1814
798.10 0.1813
798.20 0.1812
798.30 0.1811
798.40 0.181
798.50 0.1809
798.60 0.1808
798.70 0.1808
798.80 0.1807
798.90 0.1806
799.00 0.1805
799.10 0.1804
799.20 0.1803
799.30 0.1803
799.40 0.1802
799.50 0.1801
799.60 0.18
799.70 0.1799
799.80 0.1798
799.90 0.1797
800.00 0.1797
800.10 0.1796
800.20 0.1795
800.30 0.1794
800.40 0.1793
800.50 0.1792
800.60 0.1792
800.70 0.1791
800.80 0.179
800.90 0.1789
801.00 0.1788
801.10 0.1787
801.20 0.1787
801.30 0.1786
801.40 0.1785
801.50 0.1784
801.60 0.1783
801.70 0.1782
801.80 0.1782
801.90 0.1781
802.00 0.178
802.10 0.1779
802.20 0.1778
802.30 0.1777
802.40 0.1777
802.50 0.1776
802.60 0.1775
802.70 0.1774
802.80 0.1773
802.90 0.1773
803.00 0.1772
803.10 0.1771
803.20 0.177
803.30 0.1769
803.40 0.1768
803.50 0.1768
803.60 0.1767
803.70 0.1766
803.80 0.1765
803.90 0.1764
804.00 0.1763
804.10 0.1763
804.20 0.1762
804.30 0.1761
804.40 0.176
804.50 0.1759
804.60 0.1759
804.70 0.1758
804.80 0.1757
804.90 0.1756
805.00 0.1755
805.10 0.1754
805.20 0.1754
805.30 0.1753
805.40 0.1752
805.50 0.1751
805.60 0.175
805.70 0.175
805.80 0.1749
805.90 0.1748
806.00 0.1747
806.10 0.1746
806.20 0.1745
806.30 0.1745
806.40 0.1744
806.50 0.1743
806.60 0.1742
806.70 0.1741
806.80 0.1741
806.90 0.174
807.00 0.1739
807.10 0.1738
807.20 0.1737
807.30 0.1737
807.40 0.1736
807.50 0.1735
807.60 0.1734
807.70 0.1733
807.80 0.1733
807.90 0.1732
808.00 0.1731
808.10 0.173
808.20 0.1729
808.30 0.1728
808.40 0.1728
808.50 0.1727
808.60 0.1726
808.70 0.1725
808.80 0.1724
808.90 0.1724
809.00 0.1723
809.10 0.1722
809.20 0.1721
809.30 0.172
809.40 0.172
809.50 0.1719
809.60 0.1718
809.70 0.1717
809.80 0.1716
809.90 0.1716
810.00 0.1715
810.10 0.1714
810.20 0.1713
810.30 0.1712
810.40 0.1712
810.50 0.1711
810.60 0.171
810.70 0.1709
810.80 0.1709
810.90 0.1708
811.00 0.1707
811.10 0.1706
811.20 0.1705
811.30 0.1705
811.40 0.1704
811.50 0.1703
811.60 0.1702
811.70 0.1701
811.80 0.1701
811.90 0.17
812.00 0.1699
812.10 0.1698
812.20 0.1698
812.30 0.1697
812.40 0.1696
812.50 0.1695
812.60 0.1694
812.70 0.1694
812.80 0.1693
812.90 0.1692
813.00 0.1691
813.10 0.1691
813.20 0.169
813.30 0.1689
813.40 0.1688
813.50 0.1687
813.60 0.1687
813.70 0.1686
813.80 0.1685
813.90 0.1684
814.00 0.1684
814.10 0.1683
814.20 0.1682
814.30 0.1681
814.40 0.1681
814.50 0.168
814.60 0.1679
814.70 0.1678
814.80 0.1677
814.90 0.1677
815.00 0.1676
815.10 0.1675
815.20 0.1674
815.30 0.1674
815.40 0.1673
815.50 0.1672
815.60 0.1671
815.70 0.167
815.80 0.167
815.90 0.1669
816.00 0.1668
816.10 0.1667
816.20 0.1667
816.30 0.1666
816.40 0.1665
816.50 0.1664
816.60 0.1664
816.70 0.1663
816.80 0.1662
816.90 0.1661
817.00 0.1661
817.10 0.166
817.20 0.1659
817.30 0.1658
817.40 0.1657
817.50 0.1657
817.60 0.1656
817.70 0.1655
817.80 0.1654
817.90 0.1654
818.00 0.1653
818.10 0.1652
818.20 0.1651
818.30 0.1651
818.40 0.165
818.50 0.1649
818.60 0.1648
818.70 0.1648
818.80 0.1647
818.90 0.1646
819.00 0.1645
819.10 0.1645
819.20 0.1644
819.30 0.1643
819.40 0.1642
819.50 0.1642
819.60 0.1641
819.70 0.164
819.80 0.1639
819.90 0.1638
820.00 0.1638
820.10 0.1637
820.20 0.1636
820.30 0.1635
820.40 0.1635
820.50 0.1634
820.60 0.1633
820.70 0.1632
820.80 0.1632
820.90 0.1631
821.00 0.163
821.10 0.163
821.20 0.1629
821.30 0.1628
821.40 0.1627
821.50 0.1627
821.60 0.1626
821.70 0.1625
821.80 0.1624
821.90 0.1624
822.00 0.1623
822.10 0.1622
822.20 0.1621
822.30 0.1621
822.40 0.162
822.50 0.1619
822.60 0.1618
822.70 0.1618
822.80 0.1617
822.90 0.1616
823.00 0.1615
823.10 0.1615
823.20 0.1614
823.30 0.1613
823.40 0.1613
823.50 0.1612
823.60 0.1611
823.70 0.161
823.80 0.161
823.90 0.1609
824.00 0.1608
824.10 0.1607
824.20 0.1607
824.30 0.1606
824.40 0.1605
824.50 0.1604
824.60 0.1604
824.70 0.1603
824.80 0.1602
824.90 0.1602
825.00 0.1601
825.10 0.16
825.20 0.1599
825.30 0.1599
825.40 0.1598
825.50 0.1597
825.60 0.1596
825.70 0.1596
825.80 0.1595
825.90 0.1594
826.00 0.1594
826.10 0.1593
826.20 0.1592
826.30 0.1591
826.40 0.1591
826.50 0.159
826.60 0.1589
826.70 0.1588
826.80 0.1588
826.90 0.1587
827.00 0.1586
827.10 0.1586
827.20 0.1585
827.30 0.1584
827.40 0.1583
827.50 0.1583
827.60 0.1582
827.70 0.1581
827.80 0.1581
827.90 0.158
828.00 0.1579
828.10 0.1578
828.20 0.1578
828.30 0.1577
828.40 0.1576
828.50 0.1576
828.60 0.1575
828.70 0.1574
828.80 0.1573
828.90 0.1573
829.00 0.1572
829.10 0.1571
829.20 0.1571
829.30 0.157
829.40 0.1569
829.50 0.1568
829.60 0.1568
829.70 0.1567
829.80 0.1566
829.90 0.1566
830.00 0.1565
830.10 0.1564
830.20 0.1563
830.30 0.1563
830.40 0.1562
830.50 0.1561
830.60 0.1561
830.70 0.156
830.80 0.1559
830.90 0.1558
831.00 0.1558
831.10 0.1557
831.20 0.1556
831.30 0.1556
831.40 0.1555
831.50 0.1554
831.60 0.1554
831.70 0.1553
831.80 0.1552
831.90 0.1551
832.00 0.1551
832.10 0.155
832.20 0.1549
832.30 0.1549
832.40 0.1548
832.50 0.1547
832.60 0.1546
832.70 0.1546
832.80 0.1545
832.90 0.1544
833.00 0.1544
833.10 0.1543
833.20 0.1542
833.30 0.1541
833.40 0.1541
833.50 0.154
833.60 0.1539
833.70 0.1539
833.80 0.1538
833.90 0.1537
834.00 0.1537
834.10 0.1536
834.20 0.1535
834.30 0.1534
834.40 0.1534
834.50 0.1533
834.60 0.1532
834.70 0.1532
834.80 0.1531
834.90 0.153
835.00 0.1529
835.10 0.1529
835.20 0.1528
835.30 0.1527
835.40 0.1527
835.50 0.1526
835.60 0.1525
835.70 0.1525
835.80 0.1524
835.90 0.1523
836.00 0.1522
836.10 0.1522
836.20 0.1521
836.30 0.152
836.40 0.152
836.50 0.1519
836.60 0.1518
836.70 0.1518
836.80 0.1517
836.90 0.1516
837.00 0.1515
837.10 0.1515
837.20 0.1514
837.30 0.1513
837.40 0.1513
837.50 0.1512
837.60 0.1511
837.70 0.1511
837.80 0.151
837.90 0.1509
838.00 0.1509
838.10 0.1508
838.20 0.1507
838.30 0.1506
838.40 0.1506
838.50 0.1505
838.60 0.1504
838.70 0.1504
838.80 0.1503
838.90 0.1502
839.00 0.1502
839.10 0.1501
839.20 0.15
839.30 0.15
839.40 0.1499
839.50 0.1498
839.60 0.1498
839.70 0.1497
839.80 0.1496
839.90 0.1496
840.00 0.1495
840.10 0.1494
840.20 0.1493
840.30 0.1493
840.40 0.1492
840.50 0.1491
840.60 0.1491
840.70 0.149
840.80 0.1489
840.90 0.1489
841.00 0.1488
841.10 0.1487
841.20 0.1487
841.30 0.1486
841.40 0.1485
841.50 0.1485
841.60 0.1484
841.70 0.1483
841.80 0.1483
841.90 0.1482
842.00 0.1481
842.10 0.1481
842.20 0.148
842.30 0.1479
842.40 0.1479
842.50 0.1478
842.60 0.1477
842.70 0.1477
842.80 0.1476
842.90 0.1475
843.00 0.1475
843.10 0.1474
843.20 0.1473
843.30 0.1473
843.40 0.1472
843.50 0.1471
843.60 0.147
843.70 0.147
843.80 0.1469
843.90 0.1468
844.00 0.1468
844.10 0.1467
844.20 0.1466
844.30 0.1466
844.40 0.1465
844.50 0.1464
844.60 0.1464
844.70 0.1463
844.80 0.1462
844.90 0.1462
845.00 0.1461
845.10 0.146
845.20 0.146
845.30 0.1459
845.40 0.1458
845.50 0.1458
845.60 0.1457
845.70 0.1457
845.80 0.1456
845.90 0.1455
846.00 0.1455
846.10 0.1454
846.20 0.1453
846.30 0.1453
846.40 0.1452
846.50 0.1451
846.60 0.1451
846.70 0.145
846.80 0.1449
846.90 0.1449
847.00 0.1448
847.10 0.1447
847.20 0.1447
847.30 0.1446
847.40 0.1445
847.50 0.1445
847.60 0.1444
847.70 0.1443
847.80 0.1443
847.90 0.1442
848.00 0.1441
848.10 0.1441
848.20 0.144
848.30 0.1439
848.40 0.1439
848.50 0.1438
848.60 0.1437
848.70 0.1437
848.80 0.1436
848.90 0.1436
849.00 0.1435
849.10 0.1434
849.20 0.1434
849.30 0.1433
849.40 0.1432
849.50 0.1432
849.60 0.1431
849.70 0.143
849.80 0.143
849.90 0.1429
850.00 0.1428
850.10 0.1428
850.20 0.1427
850.30 0.1427
850.40 0.1426
850.50 0.1425
850.60 0.1425
850.70 0.1424
850.80 0.1423
850.90 0.1423
851.00 0.1422
851.10 0.1421
851.20 0.1421
851.30 0.142
851.40 0.1419
851.50 0.1419
851.60 0.1418
851.70 0.1418
851.80 0.1417
851.90 0.1416
852.00 0.1416
852.10 0.1415
852.20 0.1414
852.30 0.1414
852.40 0.1413
852.50 0.1412
852.60 0.1412
852.70 0.1411
852.80 0.1411
852.90 0.141
853.00 0.1409
853.10 0.1409
853.20 0.1408
853.30 0.1407
853.40 0.1407
853.50 0.1406
853.60 0.1406
853.70 0.1405
853.80 0.1404
853.90 0.1404
854.00 0.1403
854.10 0.1402
854.20 0.1402
854.30 0.1401
854.40 0.14
854.50 0.14
854.60 0.1399
854.70 0.1399
854.80 0.1398
854.90 0.1397
855.00 0.1397
855.10 0.1396
855.20 0.1395
855.30 0.1395
855.40 0.1394
855.50 0.1394
855.60 0.1393
855.70 0.1392
855.80 0.1392
855.90 0.1391
856.00 0.1391
856.10 0.139
856.20 0.1389
856.30 0.1389
856.40 0.1388
856.50 0.1387
856.60 0.1387
856.70 0.1386
856.80 0.1386
856.90 0.1385
857.00 0.1384
857.10 0.1384
857.20 0.1383
857.30 0.1383
857.40 0.1382
857.50 0.1381
857.60 0.1381
857.70 0.138
857.80 0.1379
857.90 0.1379
858.00 0.1378
858.10 0.1378
858.20 0.1377
858.30 0.1376
858.40 0.1376
858.50 0.1375
858.60 0.1375
858.70 0.1374
858.80 0.1374
858.90 0.1373
859.00 0.1372
859.10 0.1372
859.20 0.1371
859.30 0.1371
859.40 0.137
859.50 0.1369
859.60 0.1369
859.70 0.1368
859.80 0.1368
859.90 0.1367
860.00 0.1366
860.10 0.1366
860.20 0.1365
860.30 0.1365
860.40 0.1364
860.50 0.1363
860.60 0.1363
860.70 0.1362
860.80 0.1362
860.90 0.1361
861.00 0.136
861.10 0.136
861.20 0.1359
861.30 0.1359
861.40 0.1358
861.50 0.1357
861.60 0.1357
861.70 0.1356
861.80 0.1356
861.90 0.1355
862.00 0.1354
862.10 0.1354
862.20 0.1353
862.30 0.1353
862.40 0.1352
862.50 0.1352
862.60 0.1351
862.70 0.135
862.80 0.135
862.90 0.1349
863.00 0.1349
863.10 0.1348
863.20 0.1347
863.30 0.1347
863.40 0.1346
863.50 0.1346
863.60 0.1345
863.70 0.1344
863.80 0.1344
863.90 0.1343
864.00 0.1343
864.10 0.1342
864.20 0.1341
864.30 0.1341
864.40 0.134
864.50 0.134
864.60 0.1339
864.70 0.1338
864.80 0.1338
864.90 0.1337
865.00 0.1337
865.10 0.1336
865.20 0.1335
865.30 0.1335
865.40 0.1334
865.50 0.1334
865.60 0.1333
865.70 0.1333
865.80 0.1332
865.90 0.1331
866.00 0.1331
866.10 0.133
866.20 0.133
866.30 0.1329
866.40 0.1328
866.50 0.1328
866.60 0.1327
866.70 0.1327
866.80 0.1326
866.90 0.1325
867.00 0.1325
867.10 0.1324
867.20 0.1324
867.30 0.1323
867.40 0.1323
867.50 0.1322
867.60 0.1321
867.70 0.1321
867.80 0.132
867.90 0.132
868.00 0.1319
868.10 0.1319
868.20 0.1318
868.30 0.1317
868.40 0.1317
868.50 0.1316
868.60 0.1316
868.70 0.1315
868.80 0.1315
868.90 0.1314
869.00 0.1313
869.10 0.1313
869.20 0.1312
869.30 0.1312
869.40 0.1311
869.50 0.1311
869.60 0.131
869.70 0.131
869.80 0.1309
869.90 0.1308
870.00 0.1308
870.10 0.1307
870.20 0.1307
870.30 0.1306
870.40 0.1306
870.50 0.1305
870.60 0.1304
870.70 0.1304
870.80 0.1303
870.90 0.1303
871.00 0.1302
871.10 0.1302
871.20 0.1301
871.30 0.13
871.40 0.13
871.50 0.1299
871.60 0.1299
871.70 0.1298
871.80 0.1298
871.90 0.1297
872.00 0.1297
872.10 0.1296
872.20 0.1295
872.30 0.1295
872.40 0.1294
872.50 0.1294
872.60 0.1293
872.70 0.1293
872.80 0.1292
872.90 0.1292
873.00 0.1291
873.10 0.129
873.20 0.129
873.30 0.1289
873.40 0.1289
873.50 0.1288
873.60 0.1288
873.70 0.1287
873.80 0.1287
873.90 0.1286
874.00 0.1285
874.10 0.1285
874.20 0.1284
874.30 0.1284
874.40 0.1283
874.50 0.1283
874.60 0.1282
874.70 0.1282
874.80 0.1281
874.90 0.1281
875.00 0.128
875.10 0.1279
875.20 0.1279
875.30 0.1278
875.40 0.1278
875.50 0.1277
875.60 0.1277
875.70 0.1276
875.80 0.1276
875.90 0.1275
876.00 0.1275
876.10 0.1274
876.20 0.1273
876.30 0.1273
876.40 0.1272
876.50 0.1272
876.60 0.1271
876.70 0.1271
876.80 0.127
876.90 0.127
877.00 0.1269
877.10 0.1269
877.20 0.1268
877.30 0.1267
877.40 0.1267
877.50 0.1266
877.60 0.1266
877.70 0.1265
877.80 0.1265
877.90 0.1264
878.00 0.1264
878.10 0.1263
878.20 0.1263
878.30 0.1262
878.40 0.1262
878.50 0.1261
878.60 0.1261
878.70 0.126
878.80 0.1259
878.90 0.1259
879.00 0.1258
879.10 0.1258
879.20 0.1257
879.30 0.1257
879.40 0.1256
879.50 0.1256
879.60 0.1255
879.70 0.1255
879.80 0.1254
879.90 0.1254
880.00 0.1253
880.10 0.1253
880.20 0.1252
880.30 0.1252
880.40 0.1251
880.50 0.125
880.60 0.125
880.70 0.1249
880.80 0.1249
880.90 0.1248
881.00 0.1248
881.10 0.1247
881.20 0.1247
881.30 0.1246
881.40 0.1246
881.50 0.1245
881.60 0.1245
881.70 0.1244
881.80 0.1244
881.90 0.1243
882.00 0.1243
882.10 0.1242
882.20 0.1242
882.30 0.1241
882.40 0.124
882.50 0.124
882.60 0.1239
882.70 0.1239
882.80 0.1238
882.90 0.1238
883.00 0.1237
883.10 0.1237
883.20 0.1236
883.30 0.1236
883.40 0.1235
883.50 0.1235
883.60 0.1234
883.70 0.1234
883.80 0.1233
883.90 0.1233
884.00 0.1232
884.10 0.1232
884.20 0.1231
884.30 0.1231
884.40 0.123
884.50 0.123
884.60 0.1229
884.70 0.1228
884.80 0.1228
884.90 0.1227
885.00 0.1227
885.10 0.1226
885.20 0.1226
885.30 0.1225
885.40 0.1225
885.50 0.1224
885.60 0.1224
885.70 0.1223
885.80 0.1223
885.90 0.1222
886.00 0.1222
886.10 0.1221
886.20 0.1221
886.30 0.122
886.40 0.122
886.50 0.1219
886.60 0.1219
886.70 0.1218
886.80 0.1218
886.90 0.1217
887.00 0.1217
887.10 0.1216
887.20 0.1216
887.30 0.1215
887.40 0.1215
887.50 0.1214
887.60 0.1214
887.70 0.1213
887.80 0.1213
887.90 0.1212
888.00 0.1212
888.10 0.1211
888.20 0.1211
888.30 0.121
888.40 0.121
888.50 0.1209
888.60 0.1209
888.70 0.1208
888.80 0.1208
888.90 0.1207
889.00 0.1207
889.10 0.1206
889.20 0.1206
889.30 0.1205
889.40 0.1205
889.50 0.1204
889.60 0.1204
889.70 0.1203
889.80 0.1203
889.90 0.1202
890.00 0.1202
890.10 0.1201
890.20 0.1201
890.30 0.1201
890.40 0.12
890.50 0.12
890.60 0.1199
890.70 0.1199
890.80 0.1198
890.90 0.1198
891.00 0.1197
891.10 0.1197
891.20 0.1196
891.30 0.1196
891.40 0.1195
891.50 0.1195
891.60 0.1194
891.70 0.1194
891.80 0.1193
891.90 0.1193
892.00 0.1192
892.10 0.1192
892.20 0.1191
892.30 0.1191
892.40 0.119
892.50 0.119
892.60 0.1189
892.70 0.1189
892.80 0.1188
892.90 0.1188
893.00 0.1187
893.10 0.1187
893.20 0.1186
893.30 0.1186
893.40 0.1185
893.50 0.1185
893.60 0.1184
893.70 0.1184
893.80 0.1183
893.90 0.1183
894.00 0.1182
894.10 0.1182
894.20 0.1181
894.30 0.1181
894.40 0.118
894.50 0.118
894.60 0.1179
894.70 0.1179
894.80 0.1178
894.90 0.1178
895.00 0.1177
895.10 0.1177
895.20 0.1176
895.30 0.1176
895.40 0.1175
895.50 0.1175
895.60 0.1174
895.70 0.1174
895.80 0.1173
895.90 0.1173
896.00 0.1172
896.10 0.1172
896.20 0.1171
896.30 0.1171
896.40 0.117
896.50 0.117
896.60 0.1169
896.70 0.1169
896.80 0.1168
896.90 0.1168
897.00 0.1167
897.10 0.1167
897.20 0.1166
897.30 0.1166
897.40 0.1165
897.50 0.1165
897.60 0.1164
897.70 0.1164
897.80 0.1163
897.90 0.1163
898.00 0.1162
898.10 0.1162
898.20 0.1161
898.30 0.1161
898.40 0.116
898.50 0.116
898.60 0.1159
898.70 0.1159
898.80 0.1158
898.90 0.1158
899.00 0.1157
899.10 0.1157
899.20 0.1156
899.30 0.1156
899.40 0.1155
899.50 0.1155
899.60 0.1154
899.70 0.1154
899.80 0.1153
899.90 0.1153
900.00 0.1152
900.10 0.1152
900.20 0.1152
900.30 0.1151
900.40 0.1151
900.50 0.115
900.60 0.115
900.70 0.1149
900.80 0.1149
900.90 0.1148
901.00 0.1148
901.10 0.1147
901.20 0.1147
901.30 0.1146
901.40 0.1146
901.50 0.1145
901.60 0.1145
901.70 0.1144
901.80 0.1144
901.90 0.1143
902.00 0.1143
902.10 0.1142
902.20 0.1142
902.30 0.1141
902.40 0.1141
902.50 0.1141
902.60 0.114
902.70 0.114
902.80 0.1139
902.90 0.1139
903.00 0.1139
903.10 0.1138
903.20 0.1138
903.30 0.1137
903.40 0.1137
903.50 0.1136
903.60 0.1136
903.70 0.1136
903.80 0.1135
903.90 0.1135
904.00 0.1134
904.10 0.1134
904.20 0.1134
904.30 0.1133
904.40 0.1133
904.50 0.1132
904.60 0.1132
904.70 0.1132
904.80 0.1131
904.90 0.1131
905.00 0.113
905.10 0.113
905.20 0.113
905.30 0.1129
905.40 0.1129
905.50 0.1128
905.60 0.1128
905.70 0.1128
905.80 0.1127
905.90 0.1127
906.00 0.1126
906.10 0.1126
906.20 0.1126
906.30 0.1125
906.40 0.1125
906.50 0.1124
906.60 0.1124
906.70 0.1124
906.80 0.1123
906.90 0.1123
907.00 0.1122
907.10 0.1122
907.20 0.1121
907.30 0.1121
907.40 0.1121
907.50 0.112
907.60 0.112
907.70 0.1119
907.80 0.1119
907.90 0.1118
908.00 0.1118
908.10 0.1117
908.20 0.1117
908.30 0.1117
908.40 0.1116
908.50 0.1116
908.60 0.1115
908.70 0.1115
908.80 0.1114
908.90 0.1114
909.00 0.1113
909.10 0.1113
909.20 0.1113
909.30 0.1112
909.40 0.1112
909.50 0.1111
909.60 0.1111
909.70 0.111
909.80 0.111
909.90 0.111
910.00 0.1109
910.10 0.1109
910.20 0.1108
910.30 0.1108
910.40 0.1107
910.50 0.1107
910.60 0.1106
910.70 0.1106
910.80 0.1106
910.90 0.1105
911.00 0.1105
911.10 0.1104
911.20 0.1104
911.30 0.1103
911.40 0.1103
911.50 0.1103
911.60 0.1102
911.70 0.1102
911.80 0.1101
911.90 0.1101
912.00 0.11
912.10 0.11
912.20 0.1099
912.30 0.1099
912.40 0.1098
912.50 0.1098
912.60 0.1097
912.70 0.1097
912.80 0.1096
912.90 0.1096
913.00 0.1095
913.10 0.1095
913.20 0.1094
913.30 0.1094
913.40 0.1093
913.50 0.1093
913.60 0.1092
913.70 0.1092
913.80 0.1091
913.90 0.1091
914.00 0.109
914.10 0.109
914.20 0.1089
914.30 0.1089
914.40 0.1089
914.50 0.1088
914.60 0.1088
914.70 0.1087
914.80 0.1087
914.90 0.1086
915.00 0.1086
915.10 0.1085
915.20 0.1085
915.30 0.1084
915.40 0.1084
915.50 0.1083
915.60 0.1083
915.70 0.1082
915.80 0.1082
915.90 0.1081
916.00 0.1081
916.10 0.108
916.20 0.108
916.30 0.1079
916.40 0.1079
916.50 0.1078
916.60 0.1078
916.70 0.1077
916.80 0.1077
916.90 0.1076
917.00 0.1076
917.10 0.1075
917.20 0.1075
917.30 0.1074
917.40 0.1074
917.50 0.1073
917.60 0.1073
917.70 0.1072
917.80 0.1072
917.90 0.1071
918.00 0.1071
918.10 0.107
918.20 0.1069
918.30 0.1069
918.40 0.1068
918.50 0.1068
918.60 0.1067
918.70 0.1067
918.80 0.1066
918.90 0.1066
919.00 0.1065
919.10 0.1065
919.20 0.1064
919.30 0.1064
919.40 0.1063
919.50 0.1063
919.60 0.1062
919.70 0.1062
919.80 0.1061
919.90 0.1061
920.00 0.106
920.10 0.106
920.20 0.1059
920.30 0.1058
920.40 0.1058
920.50 0.1057
920.60 0.1057
920.70 0.1056
920.80 0.1056
920.90 0.1055
921.00 0.1055
921.10 0.1054
921.20 0.1054
921.30 0.1053
921.40 0.1053
921.50 0.1052
921.60 0.1052
921.70 0.1051
921.80 0.1051
921.90 0.105
922.00 0.105
922.10 0.1049
922.20 0.1049
922.30 0.1049
922.40 0.1048
922.50 0.1048
922.60 0.1048
922.70 0.1047
922.80 0.1047
922.90 0.1047
923.00 0.1046
923.10 0.1046
923.20 0.1046
923.30 0.1045
923.40 0.1045
923.50 0.1045
923.60 0.1045
923.70 0.1044
923.80 0.1044
923.90 0.1044
924.00 0.1043
924.10 0.1043
924.20 0.1043
924.30 0.1042
924.40 0.1042
924.50 0.1042
924.60 0.1041
924.70 0.1041
924.80 0.1041
924.90 0.104
925.00 0.104
925.10 0.104
925.20 0.1039
925.30 0.1039
925.40 0.1039
925.50 0.1039
925.60 0.1038
925.70 0.1038
925.80 0.1038
925.90 0.1037
926.00 0.1037
926.10 0.1037
926.20 0.1036
926.30 0.1036
926.40 0.1036
926.50 0.1035
926.60 0.1035
926.70 0.1035
926.80 0.1034
926.90 0.1034
927.00 0.1034
927.10 0.1033
927.20 0.1033
927.30 0.1033
927.40 0.1033
927.50 0.1032
927.60 0.1032
927.70 0.1032
927.80 0.1031
927.90 0.1031
928.00 0.1031
928.10 0.103
928.20 0.103
928.30 0.103
928.40 0.103
928.50 0.1029
928.60 0.1029
928.70 0.1029
928.80 0.1028
928.90 0.1028
929.00 0.1028
929.10 0.1027
929.20 0.1027
929.30 0.1027
929.40 0.1027
929.50 0.1026
929.60 0.1026
929.70 0.1026
929.80 0.1025
929.90 0.1025
930.00 0.1025
930.10 0.1024
930.20 0.1024
930.30 0.1024
930.40 0.1024
930.50 0.1023
930.60 0.1023
930.70 0.1023
930.80 0.1022
930.90 0.1022
931.00 0.1022
931.10 0.1021
931.20 0.1021
931.30 0.1021
931.40 0.1021
931.50 0.102
931.60 0.102
931.70 0.102
931.80 0.1019
931.90 0.1019
932.00 0.1019
932.10 0.1018
932.20 0.1018
932.30 0.1018
932.40 0.1017
932.50 0.1017
932.60 0.1017
932.70 0.1016
932.80 0.1016
932.90 0.1016
933.00 0.1015
933.10 0.1015
933.20 0.1014
933.30 0.1014
933.40 0.1014
933.50 0.1013
933.60 0.1013
933.70 0.1013
933.80 0.1012
933.90 0.1012
934.00 0.1012
934.10 0.1011
934.20 0.1011
934.30 0.1011
934.40 0.101
934.50 0.101
934.60 0.1009
934.70 0.1009
934.80 0.1009
934.90 0.1008
935.00 0.1008
935.10 0.1008
935.20 0.1007
935.30 0.1007
935.40 0.1006
935.50 0.1006
935.60 0.1006
935.70 0.1005
935.80 0.1005
935.90 0.1004
936.00 0.1004
936.10 0.1004
936.20 0.1003
936.30 0.1003
936.40 0.1002
936.50 0.1002
936.60 0.1002
936.70 0.1001
936.80 0.1001
936.90 0.1001
937.00 0.1
937.10 0.09997
937.20 0.09993
937.30 0.09989
937.40 0.09985
937.50 0.09981
937.60 0.09976
937.70 0.09972
937.80 0.09968
937.90 0.09964
938.00 0.0996
938.10 0.09956
938.20 0.09951
938.30 0.09947
938.40 0.09943
938.50 0.09938
938.60 0.09934
938.70 0.09929
938.80 0.09925
938.90 0.09921
939.00 0.09916
939.10 0.09912
939.20 0.09907
939.30 0.09903
939.40 0.09898
939.50 0.09894
939.60 0.0989
939.70 0.09885
939.80 0.09881
939.90 0.09876
940.00 0.09872
940.10 0.09867
940.20 0.09863
940.30 0.09859
940.40 0.09854
940.50 0.09849
940.60 0.09844
940.70 0.0984
940.80 0.09835
940.90 0.0983
941.00 0.09826
941.10 0.09821
941.20 0.09816
941.30 0.09811
941.40 0.09807
941.50 0.09802
941.60 0.09797
941.70 0.09793
941.80 0.09788
941.90 0.09783
942.00 0.09778
942.10 0.09774
942.20 0.09769
942.30 0.09764
942.40 0.09759
942.50 0.09754
942.60 0.09748
942.70 0.09743
942.80 0.09738
942.90 0.09733
943.00 0.09728
943.10 0.09723
943.20 0.09718
943.30 0.09713
943.40 0.09708
943.50 0.09703
943.60 0.09698
943.70 0.09692
943.80 0.09687
943.90 0.09682
944.00 0.09677
944.10 0.09672
944.20 0.09667
944.30 0.09662
944.40 0.09657
944.50 0.09651
944.60 0.09646
944.70 0.09641
944.80 0.09635
944.90 0.0963
945.00 0.09625
945.10 0.09619
945.20 0.09614
945.30 0.09609
945.40 0.09603
945.50 0.09597
945.60 0.09592
945.70 0.09586
945.80 0.0958
945.90 0.09575
946.00 0.09569
946.10 0.09564
946.20 0.09558
946.30 0.09552
946.40 0.09547
946.50 0.09541
946.60 0.09536
946.70 0.0953
946.80 0.09524
946.90 0.09519
947.00 0.09513
947.10 0.09507
947.20 0.09502
947.30 0.09496
947.40 0.0949
947.50 0.09484
947.60 0.09478
947.70 0.09472
947.80 0.09466
947.90 0.0946
948.00 0.09454
948.10 0.09448
948.20 0.09442
948.30 0.09436
948.40 0.0943
948.50 0.09424
948.60 0.09418
948.70 0.09412
948.80 0.09406
948.90 0.094
949.00 0.09394
949.10 0.09388
949.20 0.09382
949.30 0.09376
949.40 0.09369
949.50 0.09363
949.60 0.09356
949.70 0.0935
949.80 0.09344
949.90 0.09337
950.00 0.09331
950.10 0.09324
950.20 0.09318
950.30 0.09312
950.40 0.09305
950.50 0.09299
950.60 0.09292
950.70 0.09286
950.80 0.0928
950.90 0.09273
951.00 0.09267
951.10 0.09261
951.20 0.09254
951.30 0.09248
951.40 0.09241
951.50 0.09235
951.60 0.09228
951.70 0.09222
951.80 0.09215
951.90 0.09208
952.00 0.09202
952.10 0.09195
952.20 0.09189
952.30 0.09182
952.40 0.09175
952.50 0.09169
952.60 0.09162
952.70 0.09156
952.80 0.09149
952.90 0.09142
953.00 0.09136
953.10 0.09129
953.20 0.09123
953.30 0.09116
953.40 0.0911
953.50 0.09103
953.60 0.09097
953.70 0.09091
953.80 0.09085
953.90 0.09078
954.00 0.09073
954.10 0.09067
954.20 0.09061
954.30 0.09055
954.40 0.0905
954.50 0.09045
954.60 0.09042
954.70 0.09039
954.80 0.09038
954.90 0.09036
955.00 0.09035
955.10 0.09034
955.20 0.09034
955.30 0.09033
955.40 0.09033
955.50 0.09032
955.60 0.09032
955.70 0.09031
955.80 0.09031
955.90 0.09031
956.00 0.09031
956.10 0.09031
956.20 0.09031
956.30 0.09031
956.40 0.0903
956.50 0.0903
956.60 0.0903
956.70 0.0903
956.80 0.0903
956.90 0.0903
957.00 0.0903
957.10 0.0903
957.20 0.0903
957.30 0.09029
957.40 0.09029
957.50 0.09029
957.60 0.09029
957.70 0.09028
957.80 0.09028
957.90 0.09028
958.00 0.09027
958.10 0.09027
958.20 0.09027
958.30 0.09027
958.40 0.09026
958.50 0.09026
958.60 0.09026
958.70 0.09025
958.80 0.09025
958.90 0.09025
959.00 0.09025
959.10 0.09024
959.20 0.09024
959.30 0.09024
959.40 0.09023
959.50 0.09022
959.60 0.09022
959.70 0.09021
959.80 0.0902
959.90 0.09019
960.00 0.09019
960.10 0.09018
960.20 0.09017
960.30 0.09017
960.40 0.09016
960.50 0.09015
960.60 0.09015
960.70 0.09014
960.80 0.09013
960.90 0.09012
961.00 0.09012
961.10 0.09011
961.20 0.0901
961.30 0.0901
961.40 0.09009
961.50 0.09008
961.60 0.09007
961.70 0.09006
961.80 0.09005
961.90 0.09004
962.00 0.09003
962.10 0.09001
962.20 0.09
962.30 0.08999
962.40 0.08998
962.50 0.08997
962.60 0.08995
962.70 0.08994
962.80 0.08993
962.90 0.08992
963.00 0.0899
963.10 0.08989
963.20 0.08988
963.30 0.08987
963.40 0.08985
963.50 0.08984
963.60 0.08983
963.70 0.08981
963.80 0.0898
963.90 0.08978
964.00 0.08977
964.10 0.08975
964.20 0.08974
964.30 0.08972
964.40 0.08971
964.50 0.08969
964.60 0.08967
964.70 0.08966
964.80 0.08964
964.90 0.08962
965.00 0.0896
965.10 0.08959
965.20 0.08957
965.30 0.08955
965.40 0.08953
965.50 0.08952
965.60 0.0895
965.70 0.08948
965.80 0.08947
965.90 0.08945
966.00 0.08943
966.10 0.08941
966.20 0.0894
966.30 0.08938
966.40 0.08936
966.50 0.08934
966.60 0.08932
966.70 0.0893
966.80 0.08928
966.90 0.08926
967.00 0.08924
967.10 0.08922
967.20 0.0892
967.30 0.08918
967.40 0.08916
967.50 0.08914
967.60 0.08912
967.70 0.0891
967.80 0.08907
967.90 0.08905
968.00 0.08903
968.10 0.08901
968.20 0.08899
968.30 0.08897
968.40 0.08895
968.50 0.08892
968.60 0.0889
968.70 0.08888
968.80 0.08885
968.90 0.08883
969.00 0.0888
969.10 0.08878
969.20 0.08876
969.30 0.08873
969.40 0.08871
969.50 0.08869
969.60 0.08866
969.70 0.08864
969.80 0.08862
969.90 0.08859
970.00 0.08857
970.10 0.08855
970.20 0.08852
970.30 0.0885
970.40 0.08847
970.50 0.08845
970.60 0.08842
970.70 0.0884
970.80 0.08837
970.90 0.08834
971.00 0.08832
971.10 0.08829
971.20 0.08827
971.30 0.08824
971.40 0.08821
971.50 0.08819
971.60 0.08816
971.70 0.08814
971.80 0.08811
971.90 0.08808
972.00 0.08806
972.10 0.08803
972.20 0.088
972.30 0.08797
972.40 0.08794
972.50 0.08792
972.60 0.08789
972.70 0.08786
972.80 0.08783
972.90 0.0878
973.00 0.08777
973.10 0.08775
973.20 0.08772
973.30 0.08769
973.40 0.08766
973.50 0.08763
973.60 0.0876
973.70 0.08758
973.80 0.08755
973.90 0.08752
974.00 0.08749
974.10 0.08746
974.20 0.08743
974.30 0.08741
974.40 0.08737
974.50 0.08734
974.60 0.08731
974.70 0.08728
974.80 0.08725
974.90 0.08722
975.00 0.08719
975.10 0.08716
975.20 0.08712
975.30 0.08709
975.40 0.08706
975.50 0.08703
975.60 0.087
975.70 0.08697
975.80 0.08694
975.90 0.08691
976.00 0.08688
976.10 0.08684
976.20 0.08681
976.30 0.08678
976.40 0.08675
976.50 0.08672
976.60 0.08669
976.70 0.08666
976.80 0.08663
976.90 0.0866
977.00 0.08657
977.10 0.08653
977.20 0.08649
977.30 0.08646
977.40 0.08642
977.50 0.08639
977.60 0.08635
977.70 0.08632
977.80 0.08628
977.90 0.08625
978.00 0.08621
978.10 0.08618
978.20 0.08614
978.30 0.0861
978.40 0.08607
978.50 0.08603
978.60 0.086
978.70 0.08596
978.80 0.08593
978.90 0.08589
979.00 0.08586
979.10 0.08582
979.20 0.08579
979.30 0.08575
979.40 0.08572
979.50 0.08568
979.60 0.08565
979.70 0.08561
979.80 0.08558
979.90 0.08554
980.00 0.08551
980.10 0.08547
980.20 0.08544
980.30 0.0854
980.40 0.08536
980.50 0.08533
980.60 0.08529
980.70 0.08526
980.80 0.08522
980.90 0.08519
981.00 0.08515
981.10 0.08512
981.20 0.08508
981.30 0.08505
981.40 0.08501
981.50 0.08498
981.60 0.08494
981.70 0.08491
981.80 0.08487
981.90 0.08484
982.00 0.0848
982.10 0.08476
982.20 0.08473
982.30 0.08469
982.40 0.08465
982.50 0.08461
982.60 0.08457
982.70 0.08453
982.80 0.08449
982.90 0.08445
983.00 0.08441
983.10 0.08437
983.20 0.08433
983.30 0.08429
983.40 0.08425
983.50 0.08421
983.60 0.08417
983.70 0.08413
983.80 0.08409
983.90 0.08405
984.00 0.08401
984.10 0.08397
984.20 0.08393
984.30 0.08389
984.40 0.08385
984.50 0.08382
984.60 0.08378
984.70 0.08373
984.80 0.08369
984.90 0.08365
985.00 0.0836
985.10 0.08356
985.20 0.08352
985.30 0.08348
985.40 0.08343
985.50 0.08339
985.60 0.08335
985.70 0.0833
985.80 0.08326
985.90 0.08322
986.00 0.08317
986.10 0.08313
986.20 0.08309
986.30 0.08305
986.40 0.083
986.50 0.08296
986.60 0.08292
986.70 0.08287
986.80 0.08283
986.90 0.08279
987.00 0.08275
987.10 0.0827
987.20 0.08265
987.30 0.08261
987.40 0.08256
987.50 0.08252
987.60 0.08247
987.70 0.08242
987.80 0.08238
987.90 0.08233
988.00 0.08229
988.10 0.08224
988.20 0.08219
988.30 0.08215
988.40 0.0821
988.50 0.08206
988.60 0.08201
988.70 0.08196
988.80 0.08191
988.90 0.08186
989.00 0.08181
989.10 0.08176
989.20 0.08171
989.30 0.08166
989.40 0.08162
989.50 0.08157
989.60 0.08152
989.70 0.08147
989.80 0.08142
989.90 0.08137
990.00 0.08132
990.10 0.08127
990.20 0.08122
990.30 0.08117
990.40 0.08112
990.50 0.08107
990.60 0.08102
990.70 0.08097
990.80 0.08092
990.90 0.08087
991.00 0.08081
991.10 0.08076
991.20 0.08071
991.30 0.08065
991.40 0.0806
991.50 0.08055
991.60 0.0805
991.70 0.08044
991.80 0.08039
991.90 0.08034
992.00 0.08028
992.10 0.08023
992.20 0.08017
992.30 0.08012
992.40 0.08006
992.50 0.08001
992.60 0.07995
992.70 0.0799
992.80 0.07984
992.90 0.07978
993.00 0.07972
993.10 0.07966
993.20 0.0796
993.30 0.07954
993.40 0.07948
993.50 0.07943
993.60 0.07937
993.70 0.07931
993.80 0.07925
993.90 0.07919
994.00 0.07913
994.10 0.07907
994.20 0.07902
994.30 0.07896
994.40 0.0789
994.50 0.07884
994.60 0.07878
994.70 0.07872
994.80 0.07866
994.90 0.07859
995.00 0.07853
995.10 0.07847
995.20 0.0784
995.30 0.07834
995.40 0.07828
995.50 0.07821
995.60 0.07815
995.70 0.07809
995.80 0.07802
995.90 0.07795
996.00 0.07788
996.10 0.07782
996.20 0.07775
996.30 0.07768
996.40 0.07762
996.50 0.07755
996.60 0.07748
996.70 0.07741
996.80 0.07735
996.90 0.07728
997.00 0.07721
997.10 0.07714
997.20 0.07707
997.30 0.077
997.40 0.07693
997.50 0.07686
997.60 0.07679
997.70 0.07672
997.80 0.07664
997.90 0.07656
998.00 0.07649
998.10 0.07641
998.20 0.07634
998.30 0.07626
998.40 0.07618
998.50 0.07611
998.60 0.07603
998.70 0.07596
998.80 0.07588
998.90 0.0758
999.00 0.07573
999.10 0.07565
999.20 0.07558
999.30 0.0755
999.40 0.07543
999.50 0.07535
999.60 0.07527
999.70 0.07519
999.80 0.07511
999.90 0.07502
1000.00 0.07494
1000.10 0.07485
1000.20 0.07477
1000.30 0.07469
1000.40 0.0746
1000.50 0.07452
1000.60 0.07443
1000.70 0.07435
1000.80 0.07426
1000.90 0.07418
1001.00 0.0741
1001.10 0.07401
1001.20 0.07393
1001.30 0.07384
1001.40 0.07376
1001.50 0.07368
1001.60 0.07359
1001.70 0.07351
1001.80 0.07342
1001.90 0.07333
1002.00 0.07324
1002.10 0.07315
1002.20 0.07306
1002.30 0.07297
1002.40 0.07288
1002.50 0.0728
1002.60 0.07271
1002.70 0.07262
1002.80 0.07253
1002.90 0.07244
1003.00 0.07235
1003.10 0.07226
1003.20 0.07218
1003.30 0.0721
1003.40 0.07201
1003.50 0.07193
1003.60 0.07185
1003.70 0.07177
1003.80 0.07168
1003.90 0.07161
1004.00 0.07154
1004.10 0.07148
1004.20 0.07141
1004.30 0.07135
1004.40 0.07131
1004.50 0.07126
1004.60 0.07124
1004.70 0.07123
1004.80 0.07123
1004.90 0.07122
1005.00 0.0712
1005.10 0.07117
1005.20 0.07113
1005.30 0.07109
1005.40 0.07105
1005.50 0.07105
1005.60 0.07106
1005.70 0.07107
1005.80 0.07109
1005.90 0.0711
1006.00 0.07111
1006.10 0.07112
1006.20 0.07115
1006.30 0.07119
1006.40 0.07122
1006.50 0.07125
1006.60 0.07129
1006.70 0.07132
1006.80 0.07135
1006.90 0.07139
1007.00 0.07142
1007.10 0.07146
1007.20 0.07149
1007.30 0.07153
1007.40 0.07157
1007.50 0.0716
1007.60 0.07164
1007.70 0.07168
1007.80 0.07171
1007.90 0.07174
1008.00 0.07177
1008.10 0.07181
1008.20 0.07184
1008.30 0.07187
1008.40 0.07191
1008.50 0.07194
1008.60 0.07197
1008.70 0.07201
1008.80 0.07204
1008.90 0.07207
1009.00 0.0721
1009.10 0.07214
1009.20 0.07217
1009.30 0.0722
1009.40 0.07224
1009.50 0.07227
1009.60 0.0723
1009.70 0.07233
1009.80 0.07235
1009.90 0.07237
1010.00 0.0724
1010.10 0.07242
1010.20 0.07244
1010.30 0.07247
1010.40 0.07249
1010.50 0.07251
1010.60 0.07254
1010.70 0.07256
1010.80 0.07258
1010.90 0.07261
1011.00 0.07263
1011.10 0.07265
1011.20 0.07268
1011.30 0.0727
1011.40 0.07272
1011.50 0.07275
1011.60 0.07277
1011.70 0.07279
1011.80 0.07281
1011.90 0.07282
1012.00 0.07284
1012.10 0.07286
1012.20 0.07287
1012.30 0.07288
1012.40 0.0729
1012.50 0.07291
1012.60 0.07292
1012.70 0.07293
1012.80 0.07295
1012.90 0.07296
1013.00 0.07297
1013.10 0.07299
1013.20 0.073
1013.30 0.07301
1013.40 0.07303
1013.50 0.07304
1013.60 0.07305
1013.70 0.07306
1013.80 0.07307
1013.90 0.07308
1014.00 0.07309
1014.10 0.0731
1014.20 0.0731
1014.30 0.07311
1014.40 0.07312
1014.50 0.07313
1014.60 0.07314
1014.70 0.07314
1014.80 0.07314
1014.90 0.07315
1015.00 0.07315
1015.10 0.07315
1015.20 0.07316
1015.30 0.07316
1015.40 0.07316
1015.50 0.07316
1015.60 0.07317
1015.70 0.07317
1015.80 0.07317
1015.90 0.07318
1016.00 0.07318
1016.10 0.07318
1016.20 0.07319
1016.30 0.07319
1016.40 0.07319
1016.50 0.0732
1016.60 0.0732
1016.70 0.0732
1016.80 0.0732
1016.90 0.0732
1017.00 0.0732
1017.10 0.07319
1017.20 0.07319
1017.30 0.07319
1017.40 0.07318
1017.50 0.07318
1017.60 0.07318
1017.70 0.07317
1017.80 0.07317
1017.90 0.07317
1018.00 0.07317
1018.10 0.07316
1018.20 0.07316
1018.30 0.07316
1018.40 0.07315
1018.50 0.07315
1018.60 0.07315
1018.70 0.07314
1018.80 0.07313
1018.90 0.07313
1019.00 0.07312
1019.10 0.07311
1019.20 0.0731
1019.30 0.0731
1019.40 0.07309
1019.50 0.07308
1019.60 0.07308
1019.70 0.07307
1019.80 0.07306
1019.90 0.07305
1020.00 0.07305
1020.10 0.07304
1020.20 0.07303
1020.30 0.07302
1020.40 0.07302
1020.50 0.07301
1020.60 0.073
1020.70 0.07299
1020.80 0.07298
1020.90 0.07297
1021.00 0.07296
1021.10 0.07295
1021.20 0.07294
1021.30 0.07293
1021.40 0.07292
1021.50 0.07291
1021.60 0.0729
1021.70 0.07289
1021.80 0.07288
1021.90 0.07287
1022.00 0.07286
1022.10 0.07284
1022.20 0.07283
1022.30 0.07282
1022.40 0.0728
1022.50 0.07279
1022.60 0.07278
1022.70 0.07276
1022.80 0.07275
1022.90 0.07274
1023.00 0.07272
1023.10 0.07271
1023.20 0.0727
1023.30 0.07268
1023.40 0.07267
1023.50 0.07266
1023.60 0.07264
1023.70 0.07263
1023.80 0.07262
1023.90 0.0726
1024.00 0.07259
1024.10 0.07258
1024.20 0.07256
1024.30 0.07255
1024.40 0.07254
1024.50 0.07252
1024.60 0.07251
1024.70 0.07249
1024.80 0.07248
1024.90 0.07246
1025.00 0.07244
1025.10 0.07243
1025.20 0.07241
1025.30 0.0724
1025.40 0.07238
1025.50 0.07236
1025.60 0.07235
1025.70 0.07233
1025.80 0.07231
1025.90 0.0723
1026.00 0.07228
1026.10 0.07226
1026.20 0.07225
1026.30 0.07223
1026.40 0.07222
1026.50 0.0722
1026.60 0.07218
1026.70 0.07217
1026.80 0.07215
1026.90 0.07213
1027.00 0.07212
1027.10 0.0721
1027.20 0.07208
1027.30 0.07206
1027.40 0.07204
1027.50 0.07202
1027.60 0.072
1027.70 0.07198
1027.80 0.07196
1027.90 0.07194
1028.00 0.07192
1028.10 0.0719
1028.20 0.07188
1028.30 0.07186
1028.40 0.07184
1028.50 0.07183
1028.60 0.07181
1028.70 0.07179
1028.80 0.07177
1028.90 0.07175
1029.00 0.07173
1029.10 0.07171
1029.20 0.07169
1029.30 0.07167
1029.40 0.07165
1029.50 0.07163
1029.60 0.07161
1029.70 0.07159
1029.80 0.07157
1029.90 0.07155
1030.00 0.07153
1030.10 0.07151
1030.20 0.0715
1030.30 0.07148
1030.40 0.07146
1030.50 0.07144
1030.60 0.07142
1030.70 0.0714
1030.80 0.07138
1030.90 0.07136
1031.00 0.07134
1031.10 0.07132
1031.20 0.0713
1031.30 0.07128
1031.40 0.07126
1031.50 0.07124
1031.60 0.07123
1031.70 0.07121
1031.80 0.07119
1031.90 0.07117
1032.00 0.07115
1032.10 0.07113
1032.20 0.0711
1032.30 0.07108
1032.40 0.07106
1032.50 0.07104
1032.60 0.07102
1032.70 0.07099
1032.80 0.07097
1032.90 0.07095
1033.00 0.07093
1033.10 0.07091
1033.20 0.07088
1033.30 0.07086
1033.40 0.07084
1033.50 0.07082
1033.60 0.0708
1033.70 0.07077
1033.80 0.07075
1033.90 0.07073
1034.00 0.07071
1034.10 0.07069
1034.20 0.07066
1034.30 0.07064
1034.40 0.07062
1034.50 0.0706
1034.60 0.07058
1034.70 0.07055
1034.80 0.07053
1034.90 0.07051
1035.00 0.07049
1035.10 0.07047
1035.20 0.07044
1035.30 0.07042
1035.40 0.0704
1035.50 0.07038
1035.60 0.07036
1035.70 0.07034
1035.80 0.07031
1035.90 0.07029
1036.00 0.07027
1036.10 0.07025
1036.20 0.07023
1036.30 0.0702
1036.40 0.07018
1036.50 0.07016
1036.60 0.07014
1036.70 0.07012
1036.80 0.0701
1036.90 0.07007
1037.00 0.07005
1037.10 0.07003
1037.20 0.07001
1037.30 0.06998
1037.40 0.06996
1037.50 0.06993
1037.60 0.06991
1037.70 0.06989
1037.80 0.06986
1037.90 0.06984
1038.00 0.06982
1038.10 0.06979
1038.20 0.06977
1038.30 0.06975
1038.40 0.06972
1038.50 0.0697
1038.60 0.06968
1038.70 0.06965
1038.80 0.06963
1038.90 0.06961
1039.00 0.06958
1039.10 0.06956
1039.20 0.06954
1039.30 0.06951
1039.40 0.06949
1039.50 0.06947
1039.60 0.06944
1039.70 0.06942
1039.80 0.0694
1039.90 0.06937
1040.00 0.06935
1040.10 0.06933
1040.20 0.0693
1040.30 0.06928
1040.40 0.06926
1040.50 0.06923
1040.60 0.06921
1040.70 0.06919
1040.80 0.06916
1040.90 0.06914
1041.00 0.06912
1041.10 0.06909
1041.20 0.06907
1041.30 0.06905
1041.40 0.06902
1041.50 0.069
1041.60 0.06898
1041.70 0.06895
1041.80 0.06893
1041.90 0.06891
1042.00 0.06888
1042.10 0.06886
1042.20 0.06884
1042.30 0.06881
1042.40 0.06879
1042.50 0.06876
1042.60 0.06874
1042.70 0.06871
1042.80 0.06869
1042.90 0.06866
1043.00 0.06864
1043.10 0.06862
1043.20 0.06859
1043.30 0.06857
1043.40 0.06854
1043.50 0.06852
1043.60 0.06849
1043.70 0.06847
1043.80 0.06845
1043.90 0.06842
1044.00 0.0684
1044.10 0.06837
1044.20 0.06835
1044.30 0.06832
1044.40 0.0683
1044.50 0.06828
1044.60 0.06825
1044.70 0.06823
1044.80 0.0682
1044.90 0.06818
1045.00 0.06815
1045.10 0.06813
1045.20 0.06811
1045.30 0.06808
1045.40 0.06806
1045.50 0.06803
1045.60 0.06801
1045.70 0.06799
1045.80 0.06796
1045.90 0.06794
1046.00 0.06791
1046.10 0.06789
1046.20 0.06787
1046.30 0.06784
1046.40 0.06782
1046.50 0.06779
1046.60 0.06777
1046.70 0.06774
1046.80 0.06772
1046.90 0.0677
1047.00 0.06767
1047.10 0.06765
1047.20 0.06762
1047.30 0.0676
1047.40 0.06757
1047.50 0.06755
1047.60 0.06752
1047.70 0.0675
1047.80 0.06747
1047.90 0.06745
1048.00 0.06742
1048.10 0.0674
1048.20 0.06737
1048.30 0.06735
1048.40 0.06732
1048.50 0.0673
1048.60 0.06727
1048.70 0.06725
1048.80 0.06722
1048.90 0.0672
1049.00 0.06717
1049.10 0.06715
1049.20 0.06712
1049.30 0.0671
1049.40 0.06707
1049.50 0.06705
1049.60 0.06702
1049.70 0.067
1049.80 0.06697
1049.90 0.06695
1050.00 0.06692
1050.10 0.0669
1050.20 0.06688
1050.30 0.06685
1050.40 0.06683
1050.50 0.0668
1050.60 0.06678
1050.70 0.06675
1050.80 0.06673
1050.90 0.0667
1051.00 0.06668
1051.10 0.06665
1051.20 0.06663
1051.30 0.0666
1051.40 0.06658
1051.50 0.06655
1051.60 0.06653
1051.70 0.0665
1051.80 0.06648
1051.90 0.06646
1052.00 0.06643
1052.10 0.0664
1052.20 0.06638
1052.30 0.06635
1052.40 0.06633
1052.50 0.0663
1052.60 0.06628
1052.70 0.06625
1052.80 0.06623
1052.90 0.0662
1053.00 0.06617
1053.10 0.06615
1053.20 0.06612
1053.30 0.0661
1053.40 0.06607
1053.50 0.06605
1053.60 0.06602
1053.70 0.06599
1053.80 0.06597
1053.90 0.06594
1054.00 0.06592
1054.10 0.06589
1054.20 0.06587
1054.30 0.06584
1054.40 0.06582
1054.50 0.06579
1054.60 0.06576
1054.70 0.06574
1054.80 0.06571
1054.90 0.06569
1055.00 0.06566
1055.10 0.06564
1055.20 0.06561
1055.30 0.06559
1055.40 0.06556
1055.50 0.06554
1055.60 0.06551
1055.70 0.06549
1055.80 0.06546
1055.90 0.06543
1056.00 0.06541
1056.10 0.06538
1056.20 0.06536
1056.30 0.06533
1056.40 0.06531
1056.50 0.06528
1056.60 0.06526
1056.70 0.06523
1056.80 0.06521
1056.90 0.06518
1057.00 0.06516
1057.10 0.06513
1057.20 0.0651
1057.30 0.06508
1057.40 0.06505
1057.50 0.06502
1057.60 0.065
1057.70 0.06497
1057.80 0.06494
1057.90 0.06492
1058.00 0.06489
1058.10 0.06486
1058.20 0.06484
1058.30 0.06481
1058.40 0.06478
1058.50 0.06476
1058.60 0.06473
1058.70 0.0647
1058.80 0.06468
1058.90 0.06465
1059.00 0.06462
1059.10 0.0646
1059.20 0.06457
1059.30 0.06455
1059.40 0.06452
1059.50 0.06449
1059.60 0.06447
1059.70 0.06444
1059.80 0.06441
1059.90 0.06439
1060.00 0.06436
1060.10 0.06433
1060.20 0.06431
1060.30 0.06428
1060.40 0.06425
1060.50 0.06423
1060.60 0.0642
1060.70 0.06418
1060.80 0.06415
1060.90 0.06412
1061.00 0.0641
1061.10 0.06407
1061.20 0.06404
1061.30 0.06402
1061.40 0.06399
1061.50 0.06397
1061.60 0.06394
1061.70 0.06391
1061.80 0.06389
1061.90 0.06386
1062.00 0.06383
1062.10 0.06381
1062.20 0.06378
1062.30 0.06375
1062.40 0.06372
1062.50 0.06369
1062.60 0.06366
1062.70 0.06364
1062.80 0.06361
1062.90 0.06358
1063.00 0.06355
1063.10 0.06352
1063.20 0.0635
1063.30 0.06347
1063.40 0.06344
1063.50 0.06341
1063.60 0.06338
1063.70 0.06336
1063.80 0.06333
1063.90 0.0633
1064.00 0.06327
1064.10 0.06324
1064.20 0.06322
1064.30 0.06319
1064.40 0.06316
1064.50 0.06313
1064.60 0.0631
1064.70 0.06308
1064.80 0.06305
1064.90 0.06302
1065.00 0.06299
1065.10 0.06296
1065.20 0.06294
1065.30 0.06291
1065.40 0.06288
1065.50 0.06285
1065.60 0.06282
1065.70 0.0628
1065.80 0.06277
1065.90 0.06274
1066.00 0.06271
1066.10 0.06268
1066.20 0.06266
1066.30 0.06263
1066.40 0.0626
1066.50 0.06257
1066.60 0.06255
1066.70 0.06252
1066.80 0.06249
1066.90 0.06246
1067.00 0.06243
1067.10 0.0624
1067.20 0.06237
1067.30 0.06234
1067.40 0.06231
1067.50 0.06228
1067.60 0.06225
1067.70 0.06222
1067.80 0.06219
1067.90 0.06216
1068.00 0.06212
1068.10 0.06209
1068.20 0.06206
1068.30 0.06203
1068.40 0.062
1068.50 0.06197
1068.60 0.06194
1068.70 0.06191
1068.80 0.06188
1068.90 0.06185
1069.00 0.06182
1069.10 0.06178
1069.20 0.06175
1069.30 0.06172
1069.40 0.06169
1069.50 0.06166
1069.60 0.06163
1069.70 0.0616
1069.80 0.06157
1069.90 0.06154
1070.00 0.06151
1070.10 0.06148
1070.20 0.06145
1070.30 0.06142
1070.40 0.06139
1070.50 0.06135
1070.60 0.06132
1070.70 0.06129
1070.80 0.06126
1070.90 0.06123
1071.00 0.0612
1071.10 0.06117
1071.20 0.06114
1071.30 0.06111
1071.40 0.06108
1071.50 0.06105
1071.60 0.06102
1071.70 0.06099
1071.80 0.06096
1071.90 0.06093
1072.00 0.0609
1072.10 0.06086
1072.20 0.06083
1072.30 0.0608
1072.40 0.06076
1072.50 0.06073
1072.60 0.06069
1072.70 0.06066
1072.80 0.06063
1072.90 0.06059
1073.00 0.06056
1073.10 0.06053
1073.20 0.06049
1073.30 0.06046
1073.40 0.06043
1073.50 0.06039
1073.60 0.06036
1073.70 0.06032
1073.80 0.06028
1073.90 0.06025
1074.00 0.06021
1074.10 0.06017
1074.20 0.06014
1074.30 0.0601
1074.40 0.06006
1074.50 0.06003
1074.60 0.05999
1074.70 0.05995
1074.80 0.05992
1074.90 0.05988
1075.00 0.05984
1075.10 0.05981
1075.20 0.05977
1075.30 0.05973
1075.40 0.0597
1075.50 0.05966
1075.60 0.05962
1075.70 0.05959
1075.80 0.05955
1075.90 0.05952
1076.00 0.05948
1076.10 0.05944
1076.20 0.05941
1076.30 0.05937
1076.40 0.05933
1076.50 0.0593
1076.60 0.05926
1076.70 0.05922
1076.80 0.05919
1076.90 0.05915
1077.00 0.05912
1077.10 0.05908
1077.20 0.05904
1077.30 0.059
1077.40 0.05896
1077.50 0.05892
1077.60 0.05888
1077.70 0.05883
1077.80 0.05879
1077.90 0.05875
1078.00 0.05871
1078.10 0.05867
1078.20 0.05862
1078.30 0.05858
1078.40 0.05854
1078.50 0.0585
1078.60 0.05846
1078.70 0.05842
1078.80 0.05837
1078.90 0.05833
1079.00 0.05829
1079.10 0.05825
1079.20 0.05821
1079.30 0.05817
1079.40 0.05812
1079.50 0.05808
1079.60 0.05803
1079.70 0.05799
1079.80 0.05794
1079.90 0.0579
1080.00 0.05785
1080.10 0.0578
1080.20 0.05776
1080.30 0.05771
1080.40 0.05767
1080.50 0.05762
1080.60 0.05757
1080.70 0.05753
1080.80 0.05748
1080.90 0.05743
1081.00 0.05739
1081.10 0.05734
1081.20 0.0573
1081.30 0.05725
1081.40 0.0572
1081.50 0.05716
1081.60 0.05711
1081.70 0.05706
1081.80 0.05701
1081.90 0.05696
1082.00 0.05691
1082.10 0.05686
1082.20 0.05681
1082.30 0.05675
1082.40 0.0567
1082.50 0.05665
1082.60 0.0566
1082.70 0.05654
1082.80 0.05649
1082.90 0.05644
1083.00 0.05639
1083.10 0.05633
1083.20 0.05628
1083.30 0.05623
1083.40 0.05618
1083.50 0.05612
1083.60 0.05607
1083.70 0.05601
1083.80 0.05595
1083.90 0.0559
1084.00 0.05584
1084.10 0.05579
1084.20 0.05573
1084.30 0.05567
1084.40 0.05562
1084.50 0.05556
1084.60 0.0555
1084.70 0.05543
1084.80 0.05537
1084.90 0.05531
1085.00 0.05525
1085.10 0.05518
1085.20 0.05512
1085.30 0.05506
1085.40 0.055
1085.50 0.05493
1085.60 0.05487
1085.70 0.05481
1085.80 0.05475
1085.90 0.05469
1086.00 0.05462
1086.10 0.05456
1086.20 0.0545
1086.30 0.05444
1086.40 0.05438
1086.50 0.05431
1086.60 0.05424
1086.70 0.05418
1086.80 0.05411
1086.90 0.05404
1087.00 0.05397
1087.10 0.0539
1087.20 0.05382
1087.30 0.05375
1087.40 0.05368
1087.50 0.05361
1087.60 0.05353
1087.70 0.05346
1087.80 0.05339
1087.90 0.05331
1088.00 0.05324
1088.10 0.05317
1088.20 0.05309
1088.30 0.05302
1088.40 0.05295
1088.50 0.05287
1088.60 0.05279
1088.70 0.0527
1088.80 0.05262
1088.90 0.05253
1089.00 0.05245
1089.10 0.05236
1089.20 0.05228
1089.30 0.05219
1089.40 0.05211
1089.50 0.05203
1089.60 0.05194
1089.70 0.05186
1089.80 0.05177
1089.90 0.05169
1090.00 0.05161
1090.10 0.05152
1090.20 0.05144
1090.30 0.05135
1090.40 0.05127
1090.50 0.05118
1090.60 0.05108
1090.70 0.05098
1090.80 0.05088
1090.90 0.05078
1091.00 0.05068
1091.10 0.05058
1091.20 0.05048
1091.30 0.05038
1091.40 0.05028
1091.50 0.05018
1091.60 0.05008
1091.70 0.04998
1091.80 0.04988
1091.90 0.04978
1092.00 0.04968
1092.10 0.04956
1092.20 0.04944
1092.30 0.04932
1092.40 0.04921
1092.50 0.04909
1092.60 0.04897
1092.70 0.04885
1092.80 0.04872
1092.90 0.04858
1093.00 0.04845
1093.10 0.0483
1093.20 0.04815
1093.30 0.04799
1093.40 0.04782
1093.50 0.04762
1093.60 0.0474
1093.70 0.04725
1093.80 0.04717
1093.90 0.04716
1094.00 0.04733
1094.10 0.0475
1094.20 0.04767
1094.30 0.04781
1094.40 0.04793
1094.50 0.04804
1094.60 0.04815
1094.70 0.04826
1094.80 0.04838
1094.90 0.04849
1095.00 0.04859
1095.10 0.04866
1095.20 0.04874
1095.30 0.04882
1095.40 0.04889
1095.50 0.04897
1095.60 0.04905
1095.70 0.04912
1095.80 0.0492
1095.90 0.04927
1096.00 0.04935
1096.10 0.04943
1096.20 0.0495
1096.30 0.04958
1096.40 0.04966
1096.50 0.04973
1096.60 0.04979
1096.70 0.04985
1096.80 0.04991
1096.90 0.04997
1097.00 0.05003
1097.10 0.05009
1097.20 0.05014
1097.30 0.05019
1097.40 0.05024
1097.50 0.05029
1097.60 0.05035
1097.70 0.0504
1097.80 0.05045
1097.90 0.0505
1098.00 0.05055
1098.10 0.0506
1098.20 0.05066
1098.30 0.05071
1098.40 0.05076
1098.50 0.05081
1098.60 0.05085
1098.70 0.05089
1098.80 0.05092
1098.90 0.05096
1099.00 0.051
1099.10 0.05104
1099.20 0.05108
1099.30 0.05112
1099.40 0.05116
1099.50 0.0512
1099.60 0.05123
1099.70 0.05127
1099.80 0.05131
1099.90 0.05135
1100.00 0.05139
1100.10 0.05143
1100.20 0.05147
1100.30 0.0515
1100.40 0.05154
1100.50 0.05158
1100.60 0.05161
1100.70 0.05163
1100.80 0.05166
1100.90 0.05169
1101.00 0.05172
1101.10 0.05175
1101.20 0.05178
1101.30 0.0518
1101.40 0.05183
1101.50 0.05186
1101.60 0.05189
1101.70 0.05192
1101.80 0.05194
1101.90 0.05197
1102.00 0.052
1102.10 0.05202
1102.20 0.05205
1102.30 0.05207
1102.40 0.05209
1102.50 0.05212
1102.60 0.05214
1102.70 0.05216
1102.80 0.05218
1102.90 0.0522
1103.00 0.05222
1103.10 0.05224
1103.20 0.05226
1103.30 0.05228
1103.40 0.0523
1103.50 0.05231
1103.60 0.05233
1103.70 0.05234
1103.80 0.05236
1103.90 0.05237
1104.00 0.05238
1104.10 0.0524
1104.20 0.05241
1104.30 0.05243
1104.40 0.05244
1104.50 0.05246
1104.60 0.05247
1104.70 0.05248
1104.80 0.0525
1104.90 0.05251
1105.00 0.05253
1105.10 0.05254
1105.20 0.05255
1105.30 0.05257
1105.40 0.05258
1105.50 0.05259
1105.60 0.0526
1105.70 0.05261
1105.80 0.05262
1105.90 0.05263
1106.00 0.05264
1106.10 0.05264
1106.20 0.05265
1106.30 0.05266
1106.40 0.05267
1106.50 0.05268
1106.60 0.05269
1106.70 0.05269
1106.80 0.0527
1106.90 0.05271
1107.00 0.05272
1107.10 0.05273
1107.20 0.05273
1107.30 0.05274
1107.40 0.05274
1107.50 0.05275
1107.60 0.05275
1107.70 0.05275
1107.80 0.05275
1107.90 0.05276
1108.00 0.05276
1108.10 0.05276
1108.20 0.05276
1108.30 0.05277
1108.40 0.05277
1108.50 0.05277
1108.60 0.05277
1108.70 0.05278
1108.80 0.05278
1108.90 0.05278
1109.00 0.05278
1109.10 0.05279
1109.20 0.05279
1109.30 0.05279
1109.40 0.05279
1109.50 0.0528
1109.60 0.05279
1109.70 0.05279
1109.80 0.05279
1109.90 0.05279
1110.00 0.05279
1110.10 0.05278
1110.20 0.05278
1110.30 0.05278
1110.40 0.05278
1110.50 0.05278
1110.60 0.05277
1110.70 0.05277
1110.80 0.05277
1110.90 0.05277
1111.00 0.05277
1111.10 0.05276
1111.20 0.05276
1111.30 0.05276
1111.40 0.05276
1111.50 0.05276
1111.60 0.05275
1111.70 0.05275
1111.80 0.05275
1111.90 0.05275
1112.00 0.05275
1112.10 0.05274
1112.20 0.05274
1112.30 0.05273
1112.40 0.05272
1112.50 0.05272
1112.60 0.05271
1112.70 0.05271
1112.80 0.0527
1112.90 0.0527
1113.00 0.05269
1113.10 0.05269
1113.20 0.05268
1113.30 0.05268
1113.40 0.05267
1113.50 0.05267
1113.60 0.05266
1113.70 0.05265
1113.80 0.05264
1113.90 0.05263
1114.00 0.05263
1114.10 0.05262
1114.20 0.05261
1114.30 0.0526
1114.40 0.05259
1114.50 0.05259
1114.60 0.05258
1114.70 0.05257
1114.80 0.05256
1114.90 0.05255
1115.00 0.05255
1115.10 0.05254
1115.20 0.05253
1115.30 0.05252
1115.40 0.05251
1115.50 0.05251
1115.60 0.0525
1115.70 0.05249
1115.80 0.05248
1115.90 0.05247
1116.00 0.05247
1116.10 0.05246
1116.20 0.05245
1116.30 0.05244
1116.40 0.05243
1116.50 0.05243
1116.60 0.05242
1116.70 0.05241
1116.80 0.0524
1116.90 0.05239
1117.00 0.05238
1117.10 0.05237
1117.20 0.05236
1117.30 0.05235
1117.40 0.05234
1117.50 0.05233
1117.60 0.05232
1117.70 0.0523
1117.80 0.05229
1117.90 0.05228
1118.00 0.05227
1118.10 0.05226
1118.20 0.05225
1118.30 0.05224
1118.40 0.05222
1118.50 0.05221
1118.60 0.0522
1118.70 0.05219
1118.80 0.05218
1118.90 0.05217
1119.00 0.05216
1119.10 0.05214
1119.20 0.05213
1119.30 0.05212
1119.40 0.05211
1119.50 0.0521
1119.60 0.05209
1119.70 0.05208
1119.80 0.05206
1119.90 0.05205
1120.00 0.05204
1120.10 0.05203
1120.20 0.05202
1120.30 0.05201
1120.40 0.052
1120.50 0.05198
1120.60 0.05197
1120.70 0.05196
1120.80 0.05195
1120.90 0.05194
1121.00 0.05193
1121.10 0.05192
1121.20 0.0519
1121.30 0.05189
1121.40 0.05188
1121.50 0.05187
1121.60 0.05186
1121.70 0.05185
1121.80 0.05184
1121.90 0.05183
1122.00 0.05181
1122.10 0.0518
1122.20 0.05179
1122.30 0.05177
1122.40 0.05176
1122.50 0.05175
1122.60 0.05173
1122.70 0.05172
1122.80 0.0517
1122.90 0.05169
1123.00 0.05168
1123.10 0.05166
1123.20 0.05165
1123.30 0.05164
1123.40 0.05162
1123.50 0.05161
1123.60 0.05159
1123.70 0.05158
1123.80 0.05157
1123.90 0.05155
1124.00 0.05154
1124.10 0.05153
1124.20 0.05151
1124.30 0.0515
1124.40 0.05148
1124.50 0.05147
1124.60 0.05146
1124.70 0.05144
1124.80 0.05143
1124.90 0.05142
1125.00 0.0514
1125.10 0.05139
1125.20 0.05138
1125.30 0.05136
1125.40 0.05135
1125.50 0.05133
1125.60 0.05132
1125.70 0.05131
1125.80 0.05129
1125.90 0.05128
1126.00 0.05127
1126.10 0.05125
1126.20 0.05124
1126.30 0.05123
1126.40 0.05121
1126.50 0.0512
1126.60 0.05118
1126.70 0.05117
1126.80 0.05116
1126.90 0.05114
1127.00 0.05113
1127.10 0.05112
1127.20 0.0511
1127.30 0.05109
1127.40 0.05107
1127.50 0.05106
1127.60 0.05104
1127.70 0.05103
1127.80 0.05101
1127.90 0.051
1128.00 0.05098
1128.10 0.05097
1128.20 0.05095
1128.30 0.05094
1128.40 0.05092
1128.50 0.05091
1128.60 0.05089
1128.70 0.05088
1128.80 0.05086
1128.90 0.05085
1129.00 0.05083
1129.10 0.05082
1129.20 0.0508
1129.30 0.05079
1129.40 0.05077
1129.50 0.05076
1129.60 0.05074
1129.70 0.05073
1129.80 0.05071
1129.90 0.0507
1130.00 0.05068
1130.10 0.05067
1130.20 0.05066
1130.30 0.05064
1130.40 0.05063
1130.50 0.05061
1130.60 0.0506
1130.70 0.05058
1130.80 0.05057
1130.90 0.05055
1131.00 0.05054
1131.10 0.05052
1131.20 0.05051
1131.30 0.05049
1131.40 0.05048
1131.50 0.05046
1131.60 0.05045
1131.70 0.05043
1131.80 0.05042
1131.90 0.0504
1132.00 0.05039
1132.10 0.05037
1132.20 0.05036
1132.30 0.05034
1132.40 0.05033
1132.50 0.05031
1132.60 0.0503
1132.70 0.05028
1132.80 0.05027
1132.90 0.05025
1133.00 0.05024
1133.10 0.05022
1133.20 0.0502
1133.30 0.05019
1133.40 0.05017
1133.50 0.05016
1133.60 0.05014
1133.70 0.05013
1133.80 0.05011
1133.90 0.0501
1134.00 0.05008
1134.10 0.05007
1134.20 0.05005
1134.30 0.05004
1134.40 0.05002
1134.50 0.05
1134.60 0.04999
1134.70 0.04997
1134.80 0.04996
1134.90 0.04994
1135.00 0.04993
1135.10 0.04991
1135.20 0.0499
1135.30 0.04988
1135.40 0.04987
1135.50 0.04985
1135.60 0.04984
1135.70 0.04982
1135.80 0.04981
1135.90 0.04979
1136.00 0.04977
1136.10 0.04976
1136.20 0.04974
1136.30 0.04973
1136.40 0.04971
1136.50 0.0497
1136.60 0.04968
1136.70 0.04967
1136.80 0.04965
1136.90 0.04964
1137.00 0.04962
1137.10 0.04961
1137.20 0.04959
1137.30 0.04957
1137.40 0.04956
1137.50 0.04954
1137.60 0.04953
1137.70 0.04951
1137.80 0.0495
1137.90 0.04948
1138.00 0.04947
1138.10 0.04945
1138.20 0.04943
1138.30 0.04942
1138.40 0.0494
1138.50 0.04939
1138.60 0.04937
1138.70 0.04936
1138.80 0.04934
1138.90 0.04932
1139.00 0.04931
1139.10 0.04929
1139.20 0.04928
1139.30 0.04926
1139.40 0.04925
1139.50 0.04923
1139.60 0.04922
1139.70 0.0492
1139.80 0.04918
1139.90 0.04917
1140.00 0.04915
1140.10 0.04914
1140.20 0.04912
1140.30 0.04911
1140.40 0.04909
1140.50 0.04908
1140.60 0.04906
1140.70 0.04904
1140.80 0.04903
1140.90 0.04901
1141.00 0.049
1141.10 0.04898
1141.20 0.04897
1141.30 0.04895
1141.40 0.04894
1141.50 0.04892
1141.60 0.04891
1141.70 0.04889
1141.80 0.04887
1141.90 0.04886
1142.00 0.04884
1142.10 0.04883
1142.20 0.04881
1142.30 0.0488
1142.40 0.04878
1142.50 0.04876
1142.60 0.04875
1142.70 0.04873
1142.80 0.04872
1142.90 0.0487
1143.00 0.04869
1143.10 0.04867
1143.20 0.04866
1143.30 0.04864
1143.40 0.04862
1143.50 0.04861
1143.60 0.04859
1143.70 0.04858
1143.80 0.04856
1143.90 0.04855
1144.00 0.04853
1144.10 0.04851
1144.20 0.0485
1144.30 0.04848
1144.40 0.04847
1144.50 0.04845
1144.60 0.04844
1144.70 0.04842
1144.80 0.04841
1144.90 0.04839
1145.00 0.04837
1145.10 0.04836
1145.20 0.04834
1145.30 0.04833
1145.40 0.04831
1145.50 0.0483
1145.60 0.04828
1145.70 0.04827
1145.80 0.04825
1145.90 0.04823
1146.00 0.04822
1146.10 0.0482
1146.20 0.04819
1146.30 0.04817
1146.40 0.04816
1146.50 0.04814
1146.60 0.04813
1146.70 0.04811
1146.80 0.0481
1146.90 0.04808
1147.00 0.04806
1147.10 0.04805
1147.20 0.04803
1147.30 0.04802
1147.40 0.048
1147.50 0.04799
1147.60 0.04797
1147.70 0.04796
1147.80 0.04794
1147.90 0.04792
1148.00 0.04791
1148.10 0.04789
1148.20 0.04788
1148.30 0.04786
1148.40 0.04785
1148.50 0.04783
1148.60 0.04782
1148.70 0.0478
1148.80 0.04778
1148.90 0.04777
1149.00 0.04775
1149.10 0.04774
1149.20 0.04772
1149.30 0.04771
1149.40 0.04769
1149.50 0.04768
1149.60 0.04766
1149.70 0.04764
1149.80 0.04763
1149.90 0.04761
1150.00 0.0476
1150.10 0.04758
1150.20 0.04757
1150.30 0.04755
1150.40 0.04754
1150.50 0.04752
1150.60 0.04751
1150.70 0.04749
1150.80 0.04748
1150.90 0.04746
1151.00 0.04744
1151.10 0.04743
1151.20 0.04741
1151.30 0.0474
1151.40 0.04738
1151.50 0.04737
1151.60 0.04735
1151.70 0.04734
1151.80 0.04732
1151.90 0.04731
1152.00 0.04729
1152.10 0.04727
1152.20 0.04726
1152.30 0.04724
1152.40 0.04723
1152.50 0.04721
1152.60 0.0472
1152.70 0.04718
1152.80 0.04717
1152.90 0.04715
1153.00 0.04714
1153.10 0.04712
1153.20 0.04711
1153.30 0.04709
1153.40 0.04707
1153.50 0.04706
1153.60 0.04704
1153.70 0.04703
1153.80 0.04701
1153.90 0.047
1154.00 0.04698
1154.10 0.04697
1154.20 0.04695
1154.30 0.04694
1154.40 0.04692
1154.50 0.04691
1154.60 0.04689
1154.70 0.04688
1154.80 0.04686
1154.90 0.04684
1155.00 0.04683
1155.10 0.04681
1155.20 0.0468
1155.30 0.04678
1155.40 0.04677
1155.50 0.04675
1155.60 0.04674
1155.70 0.04672
1155.80 0.04671
1155.90 0.04669
1156.00 0.04668
1156.10 0.04666
1156.20 0.04665
1156.30 0.04663
1156.40 0.04662
1156.50 0.0466
1156.60 0.04659
1156.70 0.04657
1156.80 0.04656
1156.90 0.04654
1157.00 0.04652
1157.10 0.04651
1157.20 0.04649
1157.30 0.04648
1157.40 0.04646
1157.50 0.04645
1157.60 0.04643
1157.70 0.04642
1157.80 0.0464
1157.90 0.04639
1158.00 0.04637
1158.10 0.04636
1158.20 0.04634
1158.30 0.04633
1158.40 0.04631
1158.50 0.0463
1158.60 0.04628
1158.70 0.04627
1158.80 0.04625
1158.90 0.04624
1159.00 0.04622
1159.10 0.04621
1159.20 0.04619
1159.30 0.04618
1159.40 0.04616
1159.50 0.04615
1159.60 0.04613
1159.70 0.04612
1159.80 0.0461
1159.90 0.04609
1160.00 0.04607
1160.10 0.04606
1160.20 0.04604
1160.30 0.04603
1160.40 0.04601
1160.50 0.046
1160.60 0.04598
1160.70 0.04597
1160.80 0.04595
1160.90 0.04594
1161.00 0.04592
1161.10 0.04591
1161.20 0.04589
1161.30 0.04588
1161.40 0.04586
1161.50 0.04585
1161.60 0.04583
1161.70 0.04582
1161.80 0.0458
1161.90 0.04579
1162.00 0.04577
1162.10 0.04576
1162.20 0.04574
1162.30 0.04573
1162.40 0.04571
1162.50 0.0457
1162.60 0.04568
1162.70 0.04567
1162.80 0.04565
1162.90 0.04564
1163.00 0.04562
1163.10 0.04561
1163.20 0.04559
1163.30 0.04558
1163.40 0.04556
1163.50 0.04555
1163.60 0.04553
1163.70 0.04552
1163.80 0.0455
1163.90 0.04549
1164.00 0.04547
1164.10 0.04546
1164.20 0.04544
1164.30 0.04543
1164.40 0.04541
1164.50 0.0454
1164.60 0.04538
1164.70 0.04537
1164.80 0.04535
1164.90 0.04534
1165.00 0.04532
1165.10 0.04531
1165.20 0.04529
1165.30 0.04528
1165.40 0.04526
1165.50 0.04525
1165.60 0.04523
1165.70 0.04522
1165.80 0.0452
1165.90 0.04519
1166.00 0.04517
1166.10 0.04516
1166.20 0.04514
1166.30 0.04513
1166.40 0.04512
1166.50 0.0451
1166.60 0.04509
1166.70 0.04507
1166.80 0.04506
1166.90 0.04504
1167.00 0.04503
1167.10 0.04501
1167.20 0.045
1167.30 0.04498
1167.40 0.04497
1167.50 0.04495
1167.60 0.04494
1167.70 0.04492
1167.80 0.04491
1167.90 0.04489
1168.00 0.04488
1168.10 0.04486
1168.20 0.04485
1168.30 0.04484
1168.40 0.04482
1168.50 0.04481
1168.60 0.04479
1168.70 0.04478
1168.80 0.04476
1168.90 0.04475
1169.00 0.04473
1169.10 0.04472
1169.20 0.0447
1169.30 0.04469
1169.40 0.04467
1169.50 0.04466
1169.60 0.04465
1169.70 0.04463
1169.80 0.04462
1169.90 0.0446
1170.00 0.04459
1170.10 0.04457
1170.20 0.04456
1170.30 0.04454
1170.40 0.04453
1170.50 0.04451
1170.60 0.0445
1170.70 0.04448
1170.80 0.04447
1170.90 0.04446
1171.00 0.04444
1171.10 0.04443
1171.20 0.04441
1171.30 0.0444
1171.40 0.04438
1171.50 0.04437
1171.60 0.04435
1171.70 0.04434
1171.80 0.04432
1171.90 0.04431
1172.00 0.0443
1172.10 0.04428
1172.20 0.04427
1172.30 0.04425
1172.40 0.04424
1172.50 0.04422
1172.60 0.04421
1172.70 0.04419
1172.80 0.04418
1172.90 0.04417
1173.00 0.04415
1173.10 0.04414
1173.20 0.04412
1173.30 0.04411
1173.40 0.04409
1173.50 0.04408
1173.60 0.04406
1173.70 0.04405
1173.80 0.04404
1173.90 0.04402
1174.00 0.04401
1174.10 0.04399
1174.20 0.04398
1174.30 0.04396
1174.40 0.04395
1174.50 0.04394
1174.60 0.04392
1174.70 0.04391
1174.80 0.04389
1174.90 0.04388
1175.00 0.04386
1175.10 0.04385
1175.20 0.04383
1175.30 0.04382
1175.40 0.04381
1175.50 0.04379
1175.60 0.04378
1175.70 0.04376
1175.80 0.04375
1175.90 0.04373
1176.00 0.04372
1176.10 0.04371
1176.20 0.04369
1176.30 0.04368
1176.40 0.04366
1176.50 0.04365
1176.60 0.04363
1176.70 0.04362
1176.80 0.04361
1176.90 0.04359
1177.00 0.04358
1177.10 0.04356
1177.20 0.04355
1177.30 0.04353
1177.40 0.04352
1177.50 0.04351
1177.60 0.04349
1177.70 0.04348
1177.80 0.04346
1177.90 0.04345
1178.00 0.04344
1178.10 0.04342
1178.20 0.04341
1178.30 0.04339
1178.40 0.04338
1178.50 0.04336
1178.60 0.04335
1178.70 0.04334
1178.80 0.04332
1178.90 0.04331
1179.00 0.04329
1179.10 0.04328
1179.20 0.04327
1179.30 0.04325
1179.40 0.04324
1179.50 0.04322
1179.60 0.04321
1179.70 0.04319
1179.80 0.04318
1179.90 0.04317
1180.00 0.04315
1180.10 0.04314
1180.20 0.04312
1180.30 0.04311
1180.40 0.0431
1180.50 0.04308
1180.60 0.04307
1180.70 0.04305
1180.80 0.04304
1180.90 0.04303
1181.00 0.04301
1181.10 0.043
1181.20 0.04298
1181.30 0.04297
1181.40 0.04296
1181.50 0.04294
1181.60 0.04293
1181.70 0.04291
1181.80 0.0429
1181.90 0.04289
1182.00 0.04287
1182.10 0.04286
1182.20 0.04284
1182.30 0.04283
1182.40 0.04282
1182.50 0.0428
1182.60 0.04279
1182.70 0.04277
1182.80 0.04276
1182.90 0.04275
1183.00 0.04273
1183.10 0.04272
1183.20 0.0427
1183.30 0.04269
1183.40 0.04268
1183.50 0.04266
1183.60 0.04265
1183.70 0.04263
1183.80 0.04262
1183.90 0.04261
1184.00 0.04259
1184.10 0.04258
1184.20 0.04256
1184.30 0.04255
1184.40 0.04254
1184.50 0.04252
1184.60 0.04251
1184.70 0.0425
1184.80 0.04248
1184.90 0.04247
1185.00 0.04245
1185.10 0.04244
1185.20 0.04243
1185.30 0.04241
1185.40 0.0424
1185.50 0.04238
1185.60 0.04237
1185.70 0.04236
1185.80 0.04234
1185.90 0.04233
1186.00 0.04232
1186.10 0.0423
1186.20 0.04229
1186.30 0.04227
1186.40 0.04226
1186.50 0.04225
1186.60 0.04223
1186.70 0.04222
1186.80 0.04221
1186.90 0.04219
1187.00 0.04218
1187.10 0.04216
1187.20 0.04215
1187.30 0.04214
1187.40 0.04212
1187.50 0.04211
1187.60 0.0421
1187.70 0.04208
1187.80 0.04207
1187.90 0.04205
1188.00 0.04204
1188.10 0.04203
1188.20 0.04201
1188.30 0.042
1188.40 0.04199
1188.50 0.04197
1188.60 0.04196
1188.70 0.04194
1188.80 0.04193
1188.90 0.04192
1189.00 0.0419
1189.10 0.04189
1189.20 0.04188
1189.30 0.04186
1189.40 0.04185
1189.50 0.04184
1189.60 0.04182
1189.70 0.04181
1189.80 0.04179
1189.90 0.04178
1190.00 0.04177
1190.10 0.04175
1190.20 0.04174
1190.30 0.04173
1190.40 0.04171
1190.50 0.0417
1190.60 0.04169
1190.70 0.04167
1190.80 0.04166
1190.90 0.04165
1191.00 0.04163
1191.10 0.04162
1191.20 0.0416
1191.30 0.04159
1191.40 0.04158
1191.50 0.04156
1191.60 0.04155
1191.70 0.04154
1191.80 0.04152
1191.90 0.04151
1192.00 0.0415
1192.10 0.04148
1192.20 0.04147
1192.30 0.04146
1192.40 0.04144
1192.50 0.04143
1192.60 0.04142
1192.70 0.0414
1192.80 0.04139
1192.90 0.04138
1193.00 0.04136
1193.10 0.04135
1193.20 0.04133
1193.30 0.04132
1193.40 0.04131
1193.50 0.04129
1193.60 0.04128
1193.70 0.04127
1193.80 0.04125
1193.90 0.04124
1194.00 0.04123
1194.10 0.04121
1194.20 0.0412
1194.30 0.04119
1194.40 0.04117
1194.50 0.04116
1194.60 0.04115
1194.70 0.04113
1194.80 0.04112
1194.90 0.04111
1195.00 0.04109
1195.10 0.04108
1195.20 0.04107
1195.30 0.04105
1195.40 0.04104
1195.50 0.04103
1195.60 0.04101
1195.70 0.041
1195.80 0.04099
1195.90 0.04097
1196.00 0.04096
1196.10 0.04095
1196.20 0.04093
1196.30 0.04092
1196.40 0.04091
1196.50 0.04089
1196.60 0.04088
1196.70 0.04087
1196.80 0.04085
1196.90 0.04084
1197.00 0.04083
1197.10 0.04081
1197.20 0.0408
1197.30 0.04079
1197.40 0.04077
1197.50 0.04076
1197.60 0.04075
1197.70 0.04073
1197.80 0.04072
1197.90 0.04071
1198.00 0.04069
1198.10 0.04068
1198.20 0.04067
1198.30 0.04065
1198.40 0.04064
1198.50 0.04063
1198.60 0.04062
1198.70 0.0406
1198.80 0.04059
1198.90 0.04058
1199.00 0.04056
1199.10 0.04055
1199.20 0.04054
1199.30 0.04052
1199.40 0.04051
1199.50 0.0405
1199.60 0.04048
1199.70 0.04047
1199.80 0.04046
1199.90 0.04044
1200.00 0
