# Version 2.1 - nm, norm@500 to 1, cut digits, bergeron_11500_70.dat_11500
# Wavelength(nm)  Flambda(ergs/cm^s/s/nm)
300.00 1.474
300.10 1.473
300.20 1.472
300.30 1.471
300.40 1.47
300.50 1.47
300.60 1.469
300.70 1.468
300.80 1.467
300.90 1.466
301.00 1.465
301.10 1.464
301.20 1.464
301.30 1.463
301.40 1.462
301.50 1.461
301.60 1.46
301.70 1.459
301.80 1.459
301.90 1.458
302.00 1.457
302.10 1.456
302.20 1.455
302.30 1.454
302.40 1.454
302.50 1.453
302.60 1.452
302.70 1.451
302.80 1.45
302.90 1.449
303.00 1.449
303.10 1.448
303.20 1.447
303.30 1.446
303.40 1.445
303.50 1.444
303.60 1.444
303.70 1.443
303.80 1.442
303.90 1.441
304.00 1.44
304.10 1.44
304.20 1.439
304.30 1.438
304.40 1.437
304.50 1.436
304.60 1.435
304.70 1.435
304.80 1.434
304.90 1.433
305.00 1.432
305.10 1.431
305.20 1.431
305.30 1.43
305.40 1.429
305.50 1.428
305.60 1.427
305.70 1.426
305.80 1.426
305.90 1.425
306.00 1.424
306.10 1.423
306.20 1.422
306.30 1.422
306.40 1.421
306.50 1.42
306.60 1.419
306.70 1.418
306.80 1.418
306.90 1.417
307.00 1.416
307.10 1.415
307.20 1.414
307.30 1.414
307.40 1.413
307.50 1.412
307.60 1.411
307.70 1.41
307.80 1.41
307.90 1.409
308.00 1.408
308.10 1.407
308.20 1.406
308.30 1.406
308.40 1.405
308.50 1.404
308.60 1.403
308.70 1.402
308.80 1.402
308.90 1.401
309.00 1.4
309.10 1.399
309.20 1.398
309.30 1.398
309.40 1.397
309.50 1.396
309.60 1.395
309.70 1.395
309.80 1.394
309.90 1.393
310.00 1.392
310.10 1.391
310.20 1.391
310.30 1.39
310.40 1.389
310.50 1.388
310.60 1.387
310.70 1.387
310.80 1.386
310.90 1.385
311.00 1.384
311.10 1.384
311.20 1.383
311.30 1.382
311.40 1.381
311.50 1.38
311.60 1.38
311.70 1.379
311.80 1.378
311.90 1.377
312.00 1.377
312.10 1.376
312.20 1.375
312.30 1.374
312.40 1.374
312.50 1.373
312.60 1.372
312.70 1.371
312.80 1.37
312.90 1.37
313.00 1.369
313.10 1.368
313.20 1.367
313.30 1.367
313.40 1.366
313.50 1.365
313.60 1.364
313.70 1.364
313.80 1.363
313.90 1.362
314.00 1.361
314.10 1.361
314.20 1.36
314.30 1.359
314.40 1.358
314.50 1.357
314.60 1.357
314.70 1.356
314.80 1.355
314.90 1.354
315.00 1.354
315.10 1.353
315.20 1.352
315.30 1.351
315.40 1.351
315.50 1.35
315.60 1.349
315.70 1.348
315.80 1.348
315.90 1.347
316.00 1.346
316.10 1.345
316.20 1.345
316.30 1.344
316.40 1.343
316.50 1.342
316.60 1.342
316.70 1.341
316.80 1.34
316.90 1.339
317.00 1.339
317.10 1.338
317.20 1.337
317.30 1.336
317.40 1.336
317.50 1.335
317.60 1.334
317.70 1.334
317.80 1.333
317.90 1.332
318.00 1.331
318.10 1.331
318.20 1.33
318.30 1.329
318.40 1.328
318.50 1.328
318.60 1.327
318.70 1.326
318.80 1.325
318.90 1.325
319.00 1.324
319.10 1.323
319.20 1.322
319.30 1.322
319.40 1.321
319.50 1.32
319.60 1.32
319.70 1.319
319.80 1.318
319.90 1.317
320.00 1.317
320.10 1.316
320.20 1.315
320.30 1.314
320.40 1.314
320.50 1.313
320.60 1.312
320.70 1.312
320.80 1.311
320.90 1.31
321.00 1.309
321.10 1.309
321.20 1.308
321.30 1.307
321.40 1.307
321.50 1.306
321.60 1.305
321.70 1.304
321.80 1.304
321.90 1.303
322.00 1.302
322.10 1.301
322.20 1.301
322.30 1.3
322.40 1.299
322.50 1.299
322.60 1.298
322.70 1.297
322.80 1.296
322.90 1.296
323.00 1.295
323.10 1.294
323.20 1.294
323.30 1.293
323.40 1.292
323.50 1.292
323.60 1.291
323.70 1.29
323.80 1.289
323.90 1.289
324.00 1.288
324.10 1.287
324.20 1.287
324.30 1.286
324.40 1.285
324.50 1.284
324.60 1.284
324.70 1.283
324.80 1.282
324.90 1.282
325.00 1.281
325.10 1.28
325.20 1.28
325.30 1.279
325.40 1.278
325.50 1.277
325.60 1.277
325.70 1.276
325.80 1.275
325.90 1.275
326.00 1.274
326.10 1.273
326.20 1.273
326.30 1.272
326.40 1.271
326.50 1.27
326.60 1.27
326.70 1.269
326.80 1.268
326.90 1.268
327.00 1.267
327.10 1.266
327.20 1.266
327.30 1.265
327.40 1.264
327.50 1.264
327.60 1.263
327.70 1.262
327.80 1.262
327.90 1.261
328.00 1.26
328.10 1.259
328.20 1.259
328.30 1.258
328.40 1.257
328.50 1.257
328.60 1.256
328.70 1.255
328.80 1.255
328.90 1.254
329.00 1.253
329.10 1.253
329.20 1.252
329.30 1.251
329.40 1.251
329.50 1.25
329.60 1.249
329.70 1.249
329.80 1.248
329.90 1.247
330.00 1.247
330.10 1.246
330.20 1.245
330.30 1.245
330.40 1.244
330.50 1.243
330.60 1.242
330.70 1.242
330.80 1.241
330.90 1.24
331.00 1.24
331.10 1.239
331.20 1.238
331.30 1.238
331.40 1.237
331.50 1.236
331.60 1.236
331.70 1.235
331.80 1.234
331.90 1.234
332.00 1.233
332.10 1.232
332.20 1.232
332.30 1.231
332.40 1.23
332.50 1.23
332.60 1.229
332.70 1.228
332.80 1.228
332.90 1.227
333.00 1.226
333.10 1.226
333.20 1.225
333.30 1.224
333.40 1.224
333.50 1.223
333.60 1.223
333.70 1.222
333.80 1.221
333.90 1.221
334.00 1.22
334.10 1.219
334.20 1.219
334.30 1.218
334.40 1.217
334.50 1.217
334.60 1.216
334.70 1.215
334.80 1.215
334.90 1.214
335.00 1.213
335.10 1.213
335.20 1.212
335.30 1.211
335.40 1.211
335.50 1.21
335.60 1.209
335.70 1.209
335.80 1.208
335.90 1.208
336.00 1.207
336.10 1.206
336.20 1.206
336.30 1.205
336.40 1.204
336.50 1.204
336.60 1.203
336.70 1.202
336.80 1.202
336.90 1.201
337.00 1.2
337.10 1.2
337.20 1.199
337.30 1.198
337.40 1.198
337.50 1.197
337.60 1.197
337.70 1.196
337.80 1.195
337.90 1.195
338.00 1.194
338.10 1.193
338.20 1.193
338.30 1.192
338.40 1.191
338.50 1.191
338.60 1.19
338.70 1.19
338.80 1.189
338.90 1.188
339.00 1.188
339.10 1.187
339.20 1.186
339.30 1.186
339.40 1.185
339.50 1.184
339.60 1.184
339.70 1.183
339.80 1.183
339.90 1.182
340.00 1.181
340.10 1.181
340.20 1.18
340.30 1.179
340.40 1.179
340.50 1.178
340.60 1.178
340.70 1.177
340.80 1.176
340.90 1.176
341.00 1.175
341.10 1.174
341.20 1.174
341.30 1.173
341.40 1.173
341.50 1.172
341.60 1.171
341.70 1.171
341.80 1.17
341.90 1.169
342.00 1.169
342.10 1.168
342.20 1.168
342.30 1.167
342.40 1.166
342.50 1.166
342.60 1.165
342.70 1.164
342.80 1.164
342.90 1.163
343.00 1.163
343.10 1.162
343.20 1.161
343.30 1.161
343.40 1.16
343.50 1.16
343.60 1.159
343.70 1.158
343.80 1.158
343.90 1.157
344.00 1.156
344.10 1.156
344.20 1.155
344.30 1.155
344.40 1.154
344.50 1.153
344.60 1.153
344.70 1.152
344.80 1.152
344.90 1.151
345.00 1.15
345.10 1.15
345.20 1.149
345.30 1.149
345.40 1.148
345.50 1.147
345.60 1.147
345.70 1.146
345.80 1.146
345.90 1.145
346.00 1.144
346.10 1.144
346.20 1.143
346.30 1.143
346.40 1.142
346.50 1.141
346.60 1.141
346.70 1.14
346.80 1.14
346.90 1.139
347.00 1.138
347.10 1.138
347.20 1.137
347.30 1.137
347.40 1.136
347.50 1.135
347.60 1.135
347.70 1.134
347.80 1.134
347.90 1.133
348.00 1.132
348.10 1.132
348.20 1.131
348.30 1.131
348.40 1.13
348.50 1.129
348.60 1.129
348.70 1.128
348.80 1.128
348.90 1.127
349.00 1.126
349.10 1.126
349.20 1.125
349.30 1.125
349.40 1.124
349.50 1.123
349.60 1.123
349.70 1.122
349.80 1.122
349.90 1.121
350.00 1.121
350.10 1.12
350.20 1.119
350.30 1.119
350.40 1.118
350.50 1.118
350.60 1.117
350.70 1.116
350.80 1.116
350.90 1.115
351.00 1.115
351.10 1.114
351.20 1.114
351.30 1.113
351.40 1.112
351.50 1.112
351.60 1.111
351.70 1.111
351.80 1.11
351.90 1.109
352.00 1.109
352.10 1.108
352.20 1.108
352.30 1.107
352.40 1.107
352.50 1.106
352.60 1.105
352.70 1.105
352.80 1.104
352.90 1.104
353.00 1.103
353.10 1.103
353.20 1.102
353.30 1.101
353.40 1.101
353.50 1.1
353.60 1.1
353.70 1.099
353.80 1.098
353.90 1.098
354.00 1.097
354.10 1.097
354.20 1.096
354.30 1.096
354.40 1.095
354.50 1.095
354.60 1.094
354.70 1.093
354.80 1.093
354.90 1.092
355.00 1.092
355.10 1.091
355.20 1.091
355.30 1.09
355.40 1.089
355.50 1.089
355.60 1.088
355.70 1.088
355.80 1.087
355.90 1.087
356.00 1.086
356.10 1.085
356.20 1.085
356.30 1.084
356.40 1.084
356.50 1.083
356.60 1.083
356.70 1.082
356.80 1.082
356.90 1.081
357.00 1.08
357.10 1.08
357.20 1.079
357.30 1.079
357.40 1.078
357.50 1.078
357.60 1.077
357.70 1.077
357.80 1.076
357.90 1.075
358.00 1.075
358.10 1.074
358.20 1.074
358.30 1.073
358.40 1.073
358.50 1.072
358.60 1.071
358.70 1.071
358.80 1.07
358.90 1.07
359.00 1.069
359.10 1.069
359.20 1.068
359.30 1.068
359.40 1.067
359.50 1.067
359.60 1.066
359.70 1.065
359.80 1.065
359.90 1.064
360.00 1.064
360.10 1.063
360.20 1.063
360.30 1.062
360.40 1.062
360.50 1.061
360.60 1.06
360.70 1.06
360.80 1.059
360.90 1.059
361.00 1.058
361.10 1.058
361.20 1.057
361.30 1.057
361.40 1.056
361.50 1.056
361.60 1.055
361.70 1.054
361.80 1.054
361.90 1.053
362.00 1.053
362.10 1.052
362.20 1.052
362.30 1.051
362.40 1.051
362.50 1.05
362.60 1.05
362.70 1.049
362.80 1.049
362.90 1.048
363.00 1.047
363.10 1.047
363.20 1.046
363.30 1.046
363.40 1.045
363.50 1.045
363.60 1.044
363.70 1.043
363.80 1.043
363.90 1.042
364.00 1.042
364.10 1.041
364.20 1.041
364.30 1.04
364.40 1.04
364.50 1.039
364.60 1.038
364.70 1.038
364.80 1.037
364.90 1.037
365.00 1.036
365.10 1.036
365.20 1.035
365.30 1.035
365.40 1.034
365.50 1.034
365.60 1.033
365.70 1.033
365.80 1.032
365.90 1.032
366.00 1.031
366.10 1.031
366.20 1.03
366.30 1.03
366.40 1.029
366.50 1.029
366.60 1.028
366.70 1.028
366.80 1.027
366.90 1.027
367.00 1.026
367.10 1.026
367.20 1.026
367.30 1.025
367.40 1.025
367.50 1.024
367.60 1.024
367.70 1.023
367.80 1.023
367.90 1.022
368.00 1.022
368.10 1.022
368.20 1.023
368.30 1.023
368.40 1.024
368.50 1.024
368.60 1.024
368.70 1.025
368.80 1.025
368.90 1.026
369.00 1.026
369.10 1.026
369.20 1.027
369.30 1.027
369.40 1.028
369.50 1.028
369.60 1.028
369.70 1.029
369.80 1.029
369.90 1.03
370.00 1.03
370.10 1.032
370.20 1.034
370.30 1.037
370.40 1.039
370.50 1.041
370.60 1.043
370.70 1.045
370.80 1.047
370.90 1.049
371.00 1.051
371.10 1.053
371.20 1.056
371.30 1.058
371.40 1.06
371.50 1.062
371.60 1.064
371.70 1.066
371.80 1.068
371.90 1.07
372.00 1.072
372.10 1.076
372.20 1.079
372.30 1.083
372.40 1.087
372.50 1.09
372.60 1.094
372.70 1.097
372.80 1.101
372.90 1.104
373.00 1.108
373.10 1.111
373.20 1.115
373.30 1.118
373.40 1.122
373.50 1.125
373.60 1.129
373.70 1.132
373.80 1.136
373.90 1.139
374.00 1.143
374.10 1.146
374.20 1.15
374.30 1.154
374.40 1.157
374.50 1.161
374.60 1.165
374.70 1.168
374.80 1.172
374.90 1.175
375.00 1.179
375.10 1.183
375.20 1.186
375.30 1.19
375.40 1.193
375.50 1.197
375.60 1.201
375.70 1.204
375.80 1.208
375.90 1.211
376.00 1.215
376.10 1.217
376.20 1.219
376.30 1.22
376.40 1.222
376.50 1.224
376.60 1.226
376.70 1.227
376.80 1.229
376.90 1.231
377.00 1.233
377.10 1.23
377.20 1.227
377.30 1.224
377.40 1.221
377.50 1.218
377.60 1.216
377.70 1.213
377.80 1.21
377.90 1.207
378.00 1.204
378.10 1.187
378.20 1.169
378.30 1.152
378.40 1.134
378.50 1.117
378.60 1.1
378.70 1.082
378.80 1.065
378.90 1.048
379.00 1.03
379.10 1.015
379.20 0.9986
379.30 0.9827
379.40 0.9668
379.50 0.951
379.60 0.9351
379.70 0.9193
379.80 0.9035
379.90 0.8876
380.00 0.8719
380.10 0.8965
380.20 0.9212
380.30 0.9458
380.40 0.9704
380.50 0.995
380.60 1.02
380.70 1.044
380.80 1.069
380.90 1.093
381.00 1.117
381.10 1.127
381.20 1.136
381.30 1.145
381.40 1.154
381.50 1.163
381.60 1.164
381.70 1.162
381.80 1.157
381.90 1.15
382.00 1.14
382.10 1.127
382.20 1.11
382.30 1.079
382.40 1.048
382.50 1.017
382.60 0.9861
382.70 0.9552
382.80 0.9243
382.90 0.8935
383.00 0.8627
383.10 0.8319
383.20 0.8012
383.30 0.7665
383.40 0.7287
383.50 0.6879
383.60 0.6971
383.70 0.7367
383.80 0.7743
383.90 0.8086
384.00 0.8433
384.10 0.88
384.20 0.9171
384.30 0.9538
384.40 0.9902
384.50 1.026
384.60 1.059
384.70 1.089
384.80 1.116
384.90 1.14
385.00 1.161
385.10 1.179
385.20 1.195
385.30 1.21
385.40 1.221
385.50 1.231
385.60 1.24
385.70 1.246
385.80 1.251
385.90 1.255
386.00 1.257
386.10 1.257
386.20 1.256
386.30 1.253
386.40 1.249
386.50 1.244
386.60 1.237
386.70 1.228
386.80 1.219
386.90 1.207
387.00 1.193
387.10 1.179
387.20 1.162
387.30 1.143
387.40 1.123
387.50 1.099
387.60 1.074
387.70 1.046
387.80 1.015
387.90 0.981
388.00 0.9449
388.10 0.9059
388.20 0.8662
388.30 0.826
388.40 0.7858
388.50 0.7466
388.60 0.7084
388.70 0.668
388.80 0.6244
388.90 0.5776
389.00 0.6213
389.10 0.6633
389.20 0.7037
389.30 0.7415
389.40 0.7803
389.50 0.8201
389.60 0.8603
389.70 0.9002
389.80 0.9395
389.90 0.9765
390.00 1.012
390.10 1.045
390.20 1.074
390.30 1.102
390.40 1.128
390.50 1.151
390.60 1.173
390.70 1.194
390.80 1.213
390.90 1.231
391.00 1.248
391.10 1.264
391.20 1.278
391.30 1.293
391.40 1.305
391.50 1.317
391.60 1.329
391.70 1.339
391.80 1.348
391.90 1.357
392.00 1.365
392.10 1.372
392.20 1.378
392.30 1.383
392.40 1.387
392.50 1.39
392.60 1.392
392.70 1.394
392.80 1.395
392.90 1.394
393.00 1.393
393.10 1.391
393.20 1.388
393.30 1.384
393.40 1.379
393.50 1.373
393.60 1.367
393.70 1.359
393.80 1.351
393.90 1.341
394.00 1.331
394.10 1.319
394.20 1.307
394.30 1.294
394.40 1.28
394.50 1.265
394.60 1.249
394.70 1.232
394.80 1.215
394.90 1.197
395.00 1.177
395.10 1.157
395.20 1.136
395.30 1.113
395.40 1.09
395.50 1.065
395.60 1.039
395.70 1.012
395.80 0.983
395.90 0.9518
396.00 0.9194
396.10 0.8857
396.20 0.8495
396.30 0.8124
396.40 0.7742
396.50 0.7355
396.60 0.6974
396.70 0.6599
396.80 0.6189
396.90 0.5661
397.00 0.5016
397.10 0.5615
397.20 0.6122
397.30 0.6537
397.40 0.6908
397.50 0.7283
397.60 0.7664
397.70 0.8041
397.80 0.8408
397.90 0.8765
398.00 0.9098
398.10 0.9418
398.20 0.9725
398.30 1.001
398.40 1.028
398.50 1.054
398.60 1.078
398.70 1.102
398.80 1.124
398.90 1.145
399.00 1.166
399.10 1.186
399.20 1.205
399.30 1.223
399.40 1.241
399.50 1.259
399.60 1.275
399.70 1.291
399.80 1.306
399.90 1.321
400.00 1.336
400.10 1.349
400.20 1.362
400.30 1.375
400.40 1.387
400.50 1.398
400.60 1.409
400.70 1.42
400.80 1.429
400.90 1.439
401.00 1.448
401.10 1.456
401.20 1.464
401.30 1.472
401.40 1.479
401.50 1.486
401.60 1.492
401.70 1.498
401.80 1.503
401.90 1.508
402.00 1.513
402.10 1.518
402.20 1.521
402.30 1.525
402.40 1.528
402.50 1.531
402.60 1.533
402.70 1.536
402.80 1.537
402.90 1.539
403.00 1.54
403.10 1.541
403.20 1.541
403.30 1.541
403.40 1.541
403.50 1.541
403.60 1.54
403.70 1.539
403.80 1.537
403.90 1.535
404.00 1.533
404.10 1.531
404.20 1.528
404.30 1.524
404.40 1.521
404.50 1.517
404.60 1.513
404.70 1.508
404.80 1.504
404.90 1.498
405.00 1.493
405.10 1.487
405.20 1.48
405.30 1.473
405.40 1.466
405.50 1.459
405.60 1.451
405.70 1.442
405.80 1.434
405.90 1.424
406.00 1.415
406.10 1.405
406.20 1.394
406.30 1.384
406.40 1.372
406.50 1.361
406.60 1.348
406.70 1.336
406.80 1.322
406.90 1.309
407.00 1.294
407.10 1.28
407.20 1.264
407.30 1.248
407.40 1.231
407.50 1.214
407.60 1.197
407.70 1.178
407.80 1.16
407.90 1.14
408.00 1.12
408.10 1.1
408.20 1.079
408.30 1.057
408.40 1.035
408.50 1.013
408.60 0.9896
408.70 0.9661
408.80 0.9417
408.90 0.9166
409.00 0.8909
409.10 0.8637
409.20 0.8357
409.30 0.8069
409.40 0.7759
409.50 0.744
409.60 0.711
409.70 0.6771
409.80 0.643
409.90 0.6087
410.00 0.5661
410.10 0.5164
410.20 0.4598
410.30 0.5335
410.40 0.5891
410.50 0.6265
410.60 0.66
410.70 0.6933
410.80 0.7265
410.90 0.7582
411.00 0.7887
411.10 0.8181
411.20 0.8454
411.30 0.872
411.40 0.8976
411.50 0.9219
411.60 0.9456
411.70 0.9687
411.80 0.9908
411.90 1.012
412.00 1.034
412.10 1.054
412.20 1.074
412.30 1.094
412.40 1.113
412.50 1.131
412.60 1.149
412.70 1.166
412.80 1.183
412.90 1.2
413.00 1.215
413.10 1.23
413.20 1.245
413.30 1.259
413.40 1.273
413.50 1.286
413.60 1.298
413.70 1.31
413.80 1.322
413.90 1.333
414.00 1.344
414.10 1.354
414.20 1.364
414.30 1.374
414.40 1.383
414.50 1.392
414.60 1.401
414.70 1.409
414.80 1.417
414.90 1.425
415.00 1.433
415.10 1.44
415.20 1.447
415.30 1.453
415.40 1.46
415.50 1.466
415.60 1.472
415.70 1.477
415.80 1.483
415.90 1.488
416.00 1.493
416.10 1.498
416.20 1.502
416.30 1.507
416.40 1.511
416.50 1.515
416.60 1.519
416.70 1.522
416.80 1.526
416.90 1.529
417.00 1.532
417.10 1.536
417.20 1.538
417.30 1.541
417.40 1.544
417.50 1.546
417.60 1.549
417.70 1.551
417.80 1.553
417.90 1.555
418.00 1.557
418.10 1.559
418.20 1.561
418.30 1.562
418.40 1.564
418.50 1.565
418.60 1.566
418.70 1.567
418.80 1.569
418.90 1.57
419.00 1.57
419.10 1.571
419.20 1.572
419.30 1.573
419.40 1.573
419.50 1.574
419.60 1.574
419.70 1.575
419.80 1.575
419.90 1.575
420.00 1.576
420.10 1.576
420.20 1.576
420.30 1.576
420.40 1.576
420.50 1.575
420.60 1.575
420.70 1.575
420.80 1.575
420.90 1.574
421.00 1.574
421.10 1.574
421.20 1.573
421.30 1.572
421.40 1.572
421.50 1.571
421.60 1.57
421.70 1.57
421.80 1.569
421.90 1.568
422.00 1.567
422.10 1.566
422.20 1.565
422.30 1.564
422.40 1.563
422.50 1.561
422.60 1.56
422.70 1.559
422.80 1.557
422.90 1.556
423.00 1.554
423.10 1.553
423.20 1.551
423.30 1.55
423.40 1.548
423.50 1.546
423.60 1.544
423.70 1.543
423.80 1.541
423.90 1.539
424.00 1.537
424.10 1.535
424.20 1.532
424.30 1.53
424.40 1.528
424.50 1.526
424.60 1.523
424.70 1.521
424.80 1.518
424.90 1.516
425.00 1.513
425.10 1.51
425.20 1.507
425.30 1.504
425.40 1.501
425.50 1.498
425.60 1.495
425.70 1.492
425.80 1.489
425.90 1.485
426.00 1.482
426.10 1.478
426.20 1.474
426.30 1.47
426.40 1.466
426.50 1.462
426.60 1.458
426.70 1.454
426.80 1.449
426.90 1.445
427.00 1.44
427.10 1.436
427.20 1.431
427.30 1.426
427.40 1.421
427.50 1.416
427.60 1.411
427.70 1.405
427.80 1.4
427.90 1.394
428.00 1.388
428.10 1.382
428.20 1.376
428.30 1.369
428.40 1.363
428.50 1.356
428.60 1.349
428.70 1.342
428.80 1.335
428.90 1.328
429.00 1.32
429.10 1.312
429.20 1.304
429.30 1.296
429.40 1.287
429.50 1.279
429.60 1.27
429.70 1.26
429.80 1.251
429.90 1.241
430.00 1.231
430.10 1.221
430.20 1.21
430.30 1.2
430.40 1.188
430.50 1.177
430.60 1.166
430.70 1.154
430.80 1.141
430.90 1.129
431.00 1.116
431.10 1.103
431.20 1.09
431.30 1.077
431.40 1.063
431.50 1.049
431.60 1.035
431.70 1.019
431.80 1.004
431.90 0.9876
432.00 0.9707
432.10 0.9532
432.20 0.9345
432.30 0.9151
432.40 0.8949
432.50 0.8731
432.60 0.8506
432.70 0.8273
432.80 0.8037
432.90 0.7803
433.00 0.7573
433.10 0.7353
433.20 0.713
433.30 0.6903
433.40 0.6652
433.50 0.639
433.60 0.6116
433.70 0.5828
433.80 0.5507
433.90 0.5152
434.00 0.4238
434.10 0.4249
434.20 0.5184
434.30 0.5527
434.40 0.584
434.50 0.6122
434.60 0.639
434.70 0.6645
434.80 0.6889
434.90 0.7108
435.00 0.7324
435.10 0.7537
435.20 0.7759
435.30 0.7984
435.40 0.8212
435.50 0.8433
435.60 0.8647
435.70 0.8854
435.80 0.9043
435.90 0.9225
436.00 0.9399
436.10 0.9561
436.20 0.9717
436.30 0.9867
436.40 1.001
436.50 1.015
436.60 1.028
436.70 1.04
436.80 1.053
436.90 1.065
437.00 1.076
437.10 1.087
437.20 1.099
437.30 1.109
437.40 1.12
437.50 1.13
437.60 1.14
437.70 1.15
437.80 1.159
437.90 1.168
438.00 1.177
438.10 1.186
438.20 1.194
438.30 1.202
438.40 1.209
438.50 1.217
438.60 1.224
438.70 1.231
438.80 1.238
438.90 1.244
439.00 1.25
439.10 1.256
439.20 1.262
439.30 1.268
439.40 1.273
439.50 1.278
439.60 1.283
439.70 1.288
439.80 1.293
439.90 1.297
440.00 1.301
440.10 1.305
440.20 1.309
440.30 1.313
440.40 1.317
440.50 1.321
440.60 1.324
440.70 1.327
440.80 1.33
440.90 1.333
441.00 1.336
441.10 1.339
441.20 1.342
441.30 1.344
441.40 1.347
441.50 1.349
441.60 1.352
441.70 1.354
441.80 1.356
441.90 1.358
442.00 1.36
442.10 1.362
442.20 1.363
442.30 1.365
442.40 1.366
442.50 1.368
442.60 1.369
442.70 1.371
442.80 1.372
442.90 1.373
443.00 1.374
443.10 1.375
443.20 1.377
443.30 1.377
443.40 1.378
443.50 1.379
443.60 1.38
443.70 1.381
443.80 1.382
443.90 1.382
444.00 1.383
444.10 1.384
444.20 1.384
444.30 1.385
444.40 1.385
444.50 1.386
444.60 1.386
444.70 1.386
444.80 1.387
444.90 1.387
445.00 1.387
445.10 1.387
445.20 1.388
445.30 1.388
445.40 1.388
445.50 1.388
445.60 1.388
445.70 1.388
445.80 1.388
445.90 1.388
446.00 1.388
446.10 1.388
446.20 1.388
446.30 1.388
446.40 1.388
446.50 1.388
446.60 1.388
446.70 1.387
446.80 1.387
446.90 1.387
447.00 1.387
447.10 1.386
447.20 1.386
447.30 1.386
447.40 1.386
447.50 1.385
447.60 1.385
447.70 1.385
447.80 1.384
447.90 1.384
448.00 1.384
448.10 1.383
448.20 1.383
448.30 1.382
448.40 1.382
448.50 1.381
448.60 1.381
448.70 1.381
448.80 1.38
448.90 1.38
449.00 1.379
449.10 1.379
449.20 1.378
449.30 1.378
449.40 1.377
449.50 1.377
449.60 1.376
449.70 1.376
449.80 1.375
449.90 1.375
450.00 1.374
450.10 1.373
450.20 1.373
450.30 1.372
450.40 1.372
450.50 1.371
450.60 1.37
450.70 1.37
450.80 1.369
450.90 1.368
451.00 1.368
451.10 1.367
451.20 1.366
451.30 1.366
451.40 1.365
451.50 1.364
451.60 1.364
451.70 1.363
451.80 1.362
451.90 1.362
452.00 1.361
452.10 1.36
452.20 1.36
452.30 1.359
452.40 1.358
452.50 1.358
452.60 1.357
452.70 1.356
452.80 1.355
452.90 1.355
453.00 1.354
453.10 1.353
453.20 1.352
453.30 1.352
453.40 1.351
453.50 1.35
453.60 1.349
453.70 1.349
453.80 1.348
453.90 1.347
454.00 1.346
454.10 1.346
454.20 1.345
454.30 1.344
454.40 1.343
454.50 1.343
454.60 1.342
454.70 1.341
454.80 1.34
454.90 1.34
455.00 1.339
455.10 1.338
455.20 1.337
455.30 1.336
455.40 1.336
455.50 1.335
455.60 1.334
455.70 1.333
455.80 1.332
455.90 1.332
456.00 1.331
456.10 1.33
456.20 1.329
456.30 1.328
456.40 1.328
456.50 1.327
456.60 1.326
456.70 1.325
456.80 1.325
456.90 1.324
457.00 1.323
457.10 1.322
457.20 1.321
457.30 1.321
457.40 1.32
457.50 1.319
457.60 1.318
457.70 1.317
457.80 1.317
457.90 1.316
458.00 1.315
458.10 1.314
458.20 1.313
458.30 1.312
458.40 1.312
458.50 1.311
458.60 1.31
458.70 1.309
458.80 1.308
458.90 1.307
459.00 1.307
459.10 1.306
459.20 1.305
459.30 1.304
459.40 1.303
459.50 1.302
459.60 1.301
459.70 1.301
459.80 1.3
459.90 1.299
460.00 1.298
460.10 1.297
460.20 1.296
460.30 1.295
460.40 1.295
460.50 1.294
460.60 1.293
460.70 1.292
460.80 1.291
460.90 1.29
461.00 1.289
461.10 1.289
461.20 1.288
461.30 1.287
461.40 1.286
461.50 1.285
461.60 1.284
461.70 1.283
461.80 1.282
461.90 1.282
462.00 1.281
462.10 1.28
462.20 1.279
462.30 1.278
462.40 1.277
462.50 1.276
462.60 1.275
462.70 1.274
462.80 1.274
462.90 1.273
463.00 1.272
463.10 1.271
463.20 1.27
463.30 1.269
463.40 1.268
463.50 1.267
463.60 1.266
463.70 1.266
463.80 1.265
463.90 1.264
464.00 1.263
464.10 1.262
464.20 1.261
464.30 1.26
464.40 1.259
464.50 1.258
464.60 1.257
464.70 1.256
464.80 1.255
464.90 1.255
465.00 1.254
465.10 1.253
465.20 1.252
465.30 1.251
465.40 1.25
465.50 1.249
465.60 1.248
465.70 1.247
465.80 1.246
465.90 1.245
466.00 1.244
466.10 1.243
466.20 1.242
466.30 1.241
466.40 1.24
466.50 1.239
466.60 1.238
466.70 1.237
466.80 1.236
466.90 1.236
467.00 1.235
467.10 1.234
467.20 1.233
467.30 1.232
467.40 1.231
467.50 1.23
467.60 1.229
467.70 1.228
467.80 1.227
467.90 1.226
468.00 1.225
468.10 1.224
468.20 1.223
468.30 1.221
468.40 1.22
468.50 1.219
468.60 1.218
468.70 1.217
468.80 1.216
468.90 1.215
469.00 1.214
469.10 1.213
469.20 1.212
469.30 1.211
469.40 1.21
469.50 1.209
469.60 1.208
469.70 1.207
469.80 1.205
469.90 1.204
470.00 1.203
470.10 1.202
470.20 1.201
470.30 1.2
470.40 1.199
470.50 1.198
470.60 1.197
470.70 1.195
470.80 1.194
470.90 1.193
471.00 1.192
471.10 1.191
471.20 1.19
471.30 1.189
471.40 1.187
471.50 1.186
471.60 1.185
471.70 1.184
471.80 1.182
471.90 1.181
472.00 1.18
472.10 1.179
472.20 1.177
472.30 1.176
472.40 1.175
472.50 1.173
472.60 1.172
472.70 1.171
472.80 1.169
472.90 1.168
473.00 1.167
473.10 1.165
473.20 1.164
473.30 1.162
473.40 1.161
473.50 1.159
473.60 1.158
473.70 1.156
473.80 1.155
473.90 1.153
474.00 1.152
474.10 1.15
474.20 1.149
474.30 1.147
474.40 1.146
474.50 1.144
474.60 1.142
474.70 1.141
474.80 1.139
474.90 1.137
475.00 1.136
475.10 1.134
475.20 1.132
475.30 1.13
475.40 1.128
475.50 1.126
475.60 1.124
475.70 1.123
475.80 1.121
475.90 1.119
476.00 1.117
476.10 1.115
476.20 1.113
476.30 1.111
476.40 1.109
476.50 1.106
476.60 1.104
476.70 1.102
476.80 1.1
476.90 1.098
477.00 1.095
477.10 1.093
477.20 1.091
477.30 1.088
477.40 1.086
477.50 1.083
477.60 1.08
477.70 1.078
477.80 1.075
477.90 1.073
478.00 1.07
478.10 1.067
478.20 1.064
478.30 1.061
478.40 1.058
478.50 1.055
478.60 1.052
478.70 1.049
478.80 1.045
478.90 1.042
479.00 1.039
479.10 1.036
479.20 1.032
479.30 1.029
479.40 1.025
479.50 1.021
479.60 1.017
479.70 1.013
479.80 1.009
479.90 1.005
480.00 1.001
480.10 0.9976
480.20 0.9931
480.30 0.9883
480.40 0.9834
480.50 0.9786
480.60 0.9738
480.70 0.9689
480.80 0.9641
480.90 0.9593
481.00 0.9545
481.10 0.9497
481.20 0.9439
481.30 0.9378
481.40 0.9316
481.50 0.9254
481.60 0.9193
481.70 0.9131
481.80 0.907
481.90 0.9008
482.00 0.8947
482.10 0.8885
482.20 0.8812
482.30 0.8733
482.40 0.8654
482.50 0.8575
482.60 0.8497
482.70 0.8418
482.80 0.8339
482.90 0.8261
483.00 0.8182
483.10 0.8104
483.20 0.801
483.30 0.7909
483.40 0.7807
483.50 0.7706
483.60 0.7606
483.70 0.7505
483.80 0.7404
483.90 0.7303
484.00 0.7203
484.10 0.7102
484.20 0.699
484.30 0.6873
484.40 0.6756
484.50 0.6638
484.60 0.6521
484.70 0.6396
484.80 0.6267
484.90 0.6138
485.00 0.6009
485.10 0.588
485.20 0.5745
485.30 0.5606
485.40 0.546
485.50 0.5309
485.60 0.5146
485.70 0.4978
485.80 0.4781
485.90 0.4571
486.00 0.4287
486.10 0.3332
486.20 0.3854
486.30 0.4401
486.40 0.4633
486.50 0.4841
486.60 0.502
486.70 0.5184
486.80 0.5336
486.90 0.5482
487.00 0.5619
487.10 0.5752
487.20 0.5878
487.30 0.6001
487.40 0.6124
487.50 0.6247
487.60 0.6369
487.70 0.6483
487.80 0.6593
487.90 0.6702
488.00 0.6812
488.10 0.6921
488.20 0.7018
488.30 0.711
488.40 0.7201
488.50 0.7293
488.60 0.7384
488.70 0.7475
488.80 0.7566
488.90 0.7657
489.00 0.7748
489.10 0.7839
489.20 0.7914
489.30 0.7982
489.40 0.8049
489.50 0.8116
489.60 0.8183
489.70 0.8251
489.80 0.8318
489.90 0.8385
490.00 0.8452
490.10 0.8518
490.20 0.8573
490.30 0.8622
490.40 0.867
490.50 0.8719
490.60 0.8768
490.70 0.8816
490.80 0.8865
490.90 0.8913
491.00 0.8962
491.10 0.901
491.20 0.9049
491.30 0.9083
491.40 0.9118
491.50 0.9152
491.60 0.9187
491.70 0.9221
491.80 0.9255
491.90 0.929
492.00 0.9324
492.10 0.9358
492.20 0.9385
492.30 0.941
492.40 0.9434
492.50 0.9458
492.60 0.9482
492.70 0.9506
492.80 0.953
492.90 0.9554
493.00 0.9578
493.10 0.9603
493.20 0.9622
493.30 0.9639
493.40 0.9655
493.50 0.9672
493.60 0.9689
493.70 0.9706
493.80 0.9723
493.90 0.9739
494.00 0.9756
494.10 0.9773
494.20 0.9786
494.30 0.9797
494.40 0.9808
494.50 0.9819
494.60 0.983
494.70 0.9841
494.80 0.9852
494.90 0.9863
495.00 0.9873
495.10 0.9884
495.20 0.9893
495.30 0.9899
495.40 0.9906
495.50 0.9913
495.60 0.992
495.70 0.9927
495.80 0.9934
495.90 0.9941
496.00 0.9947
496.10 0.9954
496.20 0.9959
496.30 0.9963
496.40 0.9967
496.50 0.9971
496.60 0.9975
496.70 0.9979
496.80 0.9982
496.90 0.9986
497.00 0.999
497.10 0.9994
497.20 0.9996
497.30 0.9998
497.40 1
497.50 1
497.60 1
497.70 1
497.80 1.001
497.90 1.001
498.00 1.001
498.10 1.001
498.20 1.001
498.30 1.001
498.40 1.001
498.50 1.001
498.60 1.001
498.70 1.001
498.80 1.001
498.90 1.001
499.00 1.001
499.10 1.001
499.20 1.001
499.30 1.001
499.40 1.001
499.50 1.001
499.60 1.001
499.70 1
499.80 1
499.90 1
500.00 1
500.10 0.9999
500.20 0.9997
500.30 0.9994
500.40 0.9992
500.50 0.999
500.60 0.9988
500.70 0.9985
500.80 0.9983
500.90 0.9981
501.00 0.9979
501.10 0.9976
501.20 0.9974
501.30 0.9971
501.40 0.9968
501.50 0.9965
501.60 0.9962
501.70 0.9959
501.80 0.9956
501.90 0.9953
502.00 0.995
502.10 0.9947
502.20 0.9944
502.30 0.994
502.40 0.9937
502.50 0.9933
502.60 0.993
502.70 0.9926
502.80 0.9923
502.90 0.9919
503.00 0.9916
503.10 0.9913
503.20 0.9909
503.30 0.9905
503.40 0.9901
503.50 0.9897
503.60 0.9893
503.70 0.9889
503.80 0.9885
503.90 0.9881
504.00 0.9878
504.10 0.9874
504.20 0.987
504.30 0.9865
504.40 0.9861
504.50 0.9857
504.60 0.9853
504.70 0.9848
504.80 0.9844
504.90 0.984
505.00 0.9836
505.10 0.9832
505.20 0.9827
505.30 0.9823
505.40 0.9818
505.50 0.9814
505.60 0.9809
505.70 0.9805
505.80 0.98
505.90 0.9796
506.00 0.9791
506.10 0.9787
506.20 0.9782
506.30 0.9778
506.40 0.9773
506.50 0.9768
506.60 0.9764
506.70 0.9759
506.80 0.9754
506.90 0.975
507.00 0.9745
507.10 0.974
507.20 0.9735
507.30 0.9731
507.40 0.9726
507.50 0.9721
507.60 0.9716
507.70 0.9711
507.80 0.9707
507.90 0.9702
508.00 0.9697
508.10 0.9692
508.20 0.9687
508.30 0.9682
508.40 0.9677
508.50 0.9672
508.60 0.9667
508.70 0.9663
508.80 0.9658
508.90 0.9653
509.00 0.9648
509.10 0.9643
509.20 0.9638
509.30 0.9633
509.40 0.9628
509.50 0.9623
509.60 0.9618
509.70 0.9613
509.80 0.9608
509.90 0.9603
510.00 0.9598
510.10 0.9593
510.20 0.9588
510.30 0.9583
510.40 0.9577
510.50 0.9572
510.60 0.9567
510.70 0.9562
510.80 0.9557
510.90 0.9552
511.00 0.9547
511.10 0.9542
511.20 0.9537
511.30 0.9532
511.40 0.9527
511.50 0.9521
511.60 0.9516
511.70 0.9511
511.80 0.9506
511.90 0.9501
512.00 0.9496
512.10 0.9491
512.20 0.9486
512.30 0.948
512.40 0.9475
512.50 0.947
512.60 0.9465
512.70 0.946
512.80 0.9455
512.90 0.945
513.00 0.9444
513.10 0.9439
513.20 0.9434
513.30 0.9429
513.40 0.9424
513.50 0.9419
513.60 0.9413
513.70 0.9408
513.80 0.9403
513.90 0.9398
514.00 0.9393
514.10 0.9388
514.20 0.9382
514.30 0.9377
514.40 0.9372
514.50 0.9367
514.60 0.9362
514.70 0.9356
514.80 0.9351
514.90 0.9346
515.00 0.9341
515.10 0.9336
515.20 0.933
515.30 0.9325
515.40 0.932
515.50 0.9315
515.60 0.931
515.70 0.9305
515.80 0.9299
515.90 0.9294
516.00 0.9289
516.10 0.9284
516.20 0.9279
516.30 0.9273
516.40 0.9268
516.50 0.9263
516.60 0.9258
516.70 0.9253
516.80 0.9248
516.90 0.9242
517.00 0.9237
517.10 0.9232
517.20 0.9227
517.30 0.9222
517.40 0.9217
517.50 0.9211
517.60 0.9206
517.70 0.9201
517.80 0.9196
517.90 0.9191
518.00 0.9185
518.10 0.918
518.20 0.9175
518.30 0.917
518.40 0.9165
518.50 0.916
518.60 0.9155
518.70 0.9149
518.80 0.9144
518.90 0.9139
519.00 0.9134
519.10 0.9129
519.20 0.9124
519.30 0.9119
519.40 0.9113
519.50 0.9108
519.60 0.9103
519.70 0.9098
519.80 0.9093
519.90 0.9088
520.00 0.9083
520.10 0.9077
520.20 0.9072
520.30 0.9067
520.40 0.9062
520.50 0.9057
520.60 0.9052
520.70 0.9047
520.80 0.9041
520.90 0.9036
521.00 0.9031
521.10 0.9026
521.20 0.9021
521.30 0.9016
521.40 0.9011
521.50 0.9006
521.60 0.9001
521.70 0.8995
521.80 0.899
521.90 0.8985
522.00 0.898
522.10 0.8975
522.20 0.897
522.30 0.8965
522.40 0.896
522.50 0.8955
522.60 0.895
522.70 0.8945
522.80 0.8939
522.90 0.8934
523.00 0.8929
523.10 0.8924
523.20 0.8919
523.30 0.8914
523.40 0.8909
523.50 0.8904
523.60 0.8899
523.70 0.8894
523.80 0.8889
523.90 0.8884
524.00 0.8879
524.10 0.8874
524.20 0.8869
524.30 0.8864
524.40 0.8858
524.50 0.8853
524.60 0.8848
524.70 0.8843
524.80 0.8838
524.90 0.8833
525.00 0.8828
525.10 0.8823
525.20 0.8818
525.30 0.8813
525.40 0.8808
525.50 0.8803
525.60 0.8798
525.70 0.8793
525.80 0.8788
525.90 0.8783
526.00 0.8778
526.10 0.8773
526.20 0.8768
526.30 0.8763
526.40 0.8758
526.50 0.8753
526.60 0.8748
526.70 0.8743
526.80 0.8738
526.90 0.8733
527.00 0.8728
527.10 0.8723
527.20 0.8718
527.30 0.8713
527.40 0.8708
527.50 0.8703
527.60 0.8698
527.70 0.8693
527.80 0.8689
527.90 0.8684
528.00 0.8679
528.10 0.8674
528.20 0.8669
528.30 0.8664
528.40 0.8659
528.50 0.8654
528.60 0.8649
528.70 0.8644
528.80 0.8639
528.90 0.8634
529.00 0.8629
529.10 0.8624
529.20 0.8619
529.30 0.8615
529.40 0.861
529.50 0.8605
529.60 0.86
529.70 0.8595
529.80 0.859
529.90 0.8585
530.00 0.858
530.10 0.8575
530.20 0.857
530.30 0.8566
530.40 0.8561
530.50 0.8556
530.60 0.8551
530.70 0.8546
530.80 0.8541
530.90 0.8536
531.00 0.8532
531.10 0.8527
531.20 0.8522
531.30 0.8517
531.40 0.8512
531.50 0.8507
531.60 0.8502
531.70 0.8498
531.80 0.8493
531.90 0.8488
532.00 0.8483
532.10 0.8478
532.20 0.8473
532.30 0.8469
532.40 0.8464
532.50 0.8459
532.60 0.8454
532.70 0.8449
532.80 0.8445
532.90 0.844
533.00 0.8435
533.10 0.843
533.20 0.8425
533.30 0.8421
533.40 0.8416
533.50 0.8411
533.60 0.8406
533.70 0.8401
533.80 0.8397
533.90 0.8392
534.00 0.8387
534.10 0.8382
534.20 0.8378
534.30 0.8373
534.40 0.8368
534.50 0.8363
534.60 0.8359
534.70 0.8354
534.80 0.8349
534.90 0.8344
535.00 0.834
535.10 0.8335
535.20 0.833
535.30 0.8325
535.40 0.8321
535.50 0.8316
535.60 0.8311
535.70 0.8306
535.80 0.8302
535.90 0.8297
536.00 0.8292
536.10 0.8288
536.20 0.8283
536.30 0.8278
536.40 0.8274
536.50 0.8269
536.60 0.8264
536.70 0.8259
536.80 0.8255
536.90 0.825
537.00 0.8245
537.10 0.8241
537.20 0.8236
537.30 0.8231
537.40 0.8227
537.50 0.8222
537.60 0.8217
537.70 0.8213
537.80 0.8208
537.90 0.8204
538.00 0.8199
538.10 0.8194
538.20 0.819
538.30 0.8185
538.40 0.818
538.50 0.8176
538.60 0.8171
538.70 0.8166
538.80 0.8162
538.90 0.8157
539.00 0.8153
539.10 0.8148
539.20 0.8143
539.30 0.8139
539.40 0.8134
539.50 0.813
539.60 0.8125
539.70 0.812
539.80 0.8116
539.90 0.8111
540.00 0.8107
540.10 0.8102
540.20 0.8097
540.30 0.8093
540.40 0.8088
540.50 0.8084
540.60 0.8079
540.70 0.8075
540.80 0.807
540.90 0.8065
541.00 0.8061
541.10 0.8056
541.20 0.8052
541.30 0.8047
541.40 0.8043
541.50 0.8038
541.60 0.8034
541.70 0.8029
541.80 0.8025
541.90 0.802
542.00 0.8016
542.10 0.8011
542.20 0.8007
542.30 0.8002
542.40 0.7998
542.50 0.7993
542.60 0.7989
542.70 0.7984
542.80 0.798
542.90 0.7975
543.00 0.7971
543.10 0.7966
543.20 0.7962
543.30 0.7957
543.40 0.7953
543.50 0.7948
543.60 0.7944
543.70 0.7939
543.80 0.7935
543.90 0.793
544.00 0.7926
544.10 0.7921
544.20 0.7917
544.30 0.7912
544.40 0.7908
544.50 0.7903
544.60 0.7899
544.70 0.7895
544.80 0.789
544.90 0.7886
545.00 0.7881
545.10 0.7877
545.20 0.7872
545.30 0.7868
545.40 0.7864
545.50 0.7859
545.60 0.7855
545.70 0.785
545.80 0.7846
545.90 0.7842
546.00 0.7837
546.10 0.7833
546.20 0.7829
546.30 0.7825
546.40 0.782
546.50 0.7816
546.60 0.7812
546.70 0.7808
546.80 0.7804
546.90 0.78
547.00 0.7796
547.10 0.7792
547.20 0.7788
547.30 0.7783
547.40 0.7779
547.50 0.7775
547.60 0.777
547.70 0.7766
547.80 0.7762
547.90 0.7757
548.00 0.7753
548.10 0.7748
548.20 0.7744
548.30 0.774
548.40 0.7735
548.50 0.7731
548.60 0.7727
548.70 0.7722
548.80 0.7718
548.90 0.7714
549.00 0.7709
549.10 0.7705
549.20 0.7701
549.30 0.7697
549.40 0.7692
549.50 0.7688
549.60 0.7684
549.70 0.7679
549.80 0.7675
549.90 0.7671
550.00 0.7666
550.10 0.7662
550.20 0.7658
550.30 0.7653
550.40 0.7649
550.50 0.7645
550.60 0.7641
550.70 0.7636
550.80 0.7632
550.90 0.7628
551.00 0.7624
551.10 0.7619
551.20 0.7615
551.30 0.7611
551.40 0.7606
551.50 0.7602
551.60 0.7598
551.70 0.7594
551.80 0.7589
551.90 0.7585
552.00 0.7581
552.10 0.7577
552.20 0.7572
552.30 0.7568
552.40 0.7564
552.50 0.756
552.60 0.7556
552.70 0.7551
552.80 0.7547
552.90 0.7543
553.00 0.7539
553.10 0.7535
553.20 0.753
553.30 0.7526
553.40 0.7522
553.50 0.7518
553.60 0.7514
553.70 0.7509
553.80 0.7505
553.90 0.7501
554.00 0.7497
554.10 0.7493
554.20 0.7488
554.30 0.7484
554.40 0.748
554.50 0.7476
554.60 0.7472
554.70 0.7468
554.80 0.7463
554.90 0.7459
555.00 0.7455
555.10 0.7451
555.20 0.7447
555.30 0.7443
555.40 0.7439
555.50 0.7434
555.60 0.743
555.70 0.7426
555.80 0.7422
555.90 0.7418
556.00 0.7414
556.10 0.741
556.20 0.7406
556.30 0.7401
556.40 0.7397
556.50 0.7393
556.60 0.7389
556.70 0.7385
556.80 0.7381
556.90 0.7377
557.00 0.7373
557.10 0.7369
557.20 0.7365
557.30 0.736
557.40 0.7356
557.50 0.7352
557.60 0.7348
557.70 0.7344
557.80 0.734
557.90 0.7336
558.00 0.7332
558.10 0.7328
558.20 0.7324
558.30 0.732
558.40 0.7316
558.50 0.7312
558.60 0.7308
558.70 0.7304
558.80 0.73
558.90 0.7296
559.00 0.7292
559.10 0.7288
559.20 0.7283
559.30 0.7279
559.40 0.7275
559.50 0.7271
559.60 0.7267
559.70 0.7263
559.80 0.7259
559.90 0.7255
560.00 0.7251
560.10 0.7247
560.20 0.7243
560.30 0.7239
560.40 0.7235
560.50 0.7231
560.60 0.7227
560.70 0.7223
560.80 0.7219
560.90 0.7215
561.00 0.7211
561.10 0.7207
561.20 0.7203
561.30 0.7199
561.40 0.7195
561.50 0.7191
561.60 0.7188
561.70 0.7184
561.80 0.718
561.90 0.7176
562.00 0.7172
562.10 0.7168
562.20 0.7164
562.30 0.716
562.40 0.7156
562.50 0.7152
562.60 0.7148
562.70 0.7144
562.80 0.714
562.90 0.7136
563.00 0.7132
563.10 0.7128
563.20 0.7124
563.30 0.7121
563.40 0.7117
563.50 0.7113
563.60 0.7109
563.70 0.7105
563.80 0.7101
563.90 0.7097
564.00 0.7093
564.10 0.7089
564.20 0.7085
564.30 0.7082
564.40 0.7078
564.50 0.7074
564.60 0.707
564.70 0.7066
564.80 0.7062
564.90 0.7058
565.00 0.7054
565.10 0.705
565.20 0.7047
565.30 0.7043
565.40 0.7039
565.50 0.7035
565.60 0.7031
565.70 0.7027
565.80 0.7023
565.90 0.702
566.00 0.7016
566.10 0.7012
566.20 0.7008
566.30 0.7004
566.40 0.7
566.50 0.6997
566.60 0.6993
566.70 0.6989
566.80 0.6985
566.90 0.6981
567.00 0.6977
567.10 0.6974
567.20 0.697
567.30 0.6966
567.40 0.6962
567.50 0.6958
567.60 0.6955
567.70 0.6951
567.80 0.6947
567.90 0.6943
568.00 0.6939
568.10 0.6936
568.20 0.6932
568.30 0.6928
568.40 0.6924
568.50 0.6921
568.60 0.6917
568.70 0.6913
568.80 0.6909
568.90 0.6905
569.00 0.6902
569.10 0.6898
569.20 0.6894
569.30 0.689
569.40 0.6887
569.50 0.6883
569.60 0.6879
569.70 0.6875
569.80 0.6872
569.90 0.6868
570.00 0.6864
570.10 0.686
570.20 0.6857
570.30 0.6853
570.40 0.6849
570.50 0.6845
570.60 0.6842
570.70 0.6838
570.80 0.6834
570.90 0.683
571.00 0.6827
571.10 0.6823
571.20 0.6819
571.30 0.6816
571.40 0.6812
571.50 0.6808
571.60 0.6805
571.70 0.6801
571.80 0.6797
571.90 0.6793
572.00 0.679
572.10 0.6786
572.20 0.6782
572.30 0.6779
572.40 0.6775
572.50 0.6771
572.60 0.6768
572.70 0.6764
572.80 0.676
572.90 0.6757
573.00 0.6753
573.10 0.6749
573.20 0.6746
573.30 0.6742
573.40 0.6738
573.50 0.6735
573.60 0.6731
573.70 0.6727
573.80 0.6724
573.90 0.672
574.00 0.6716
574.10 0.6713
574.20 0.6709
574.30 0.6706
574.40 0.6702
574.50 0.6698
574.60 0.6695
574.70 0.6691
574.80 0.6687
574.90 0.6684
575.00 0.668
575.10 0.6677
575.20 0.6673
575.30 0.6669
575.40 0.6666
575.50 0.6662
575.60 0.6659
575.70 0.6655
575.80 0.6651
575.90 0.6648
576.00 0.6644
576.10 0.6641
576.20 0.6637
576.30 0.6633
576.40 0.663
576.50 0.6626
576.60 0.6623
576.70 0.6619
576.80 0.6616
576.90 0.6612
577.00 0.6608
577.10 0.6605
577.20 0.6601
577.30 0.6598
577.40 0.6594
577.50 0.6591
577.60 0.6587
577.70 0.6584
577.80 0.658
577.90 0.6576
578.00 0.6573
578.10 0.6569
578.20 0.6566
578.30 0.6562
578.40 0.6559
578.50 0.6555
578.60 0.6552
578.70 0.6548
578.80 0.6545
578.90 0.6541
579.00 0.6538
579.10 0.6534
579.20 0.6531
579.30 0.6527
579.40 0.6523
579.50 0.652
579.60 0.6516
579.70 0.6513
579.80 0.6509
579.90 0.6506
580.00 0.6502
580.10 0.6499
580.20 0.6496
580.30 0.6492
580.40 0.6489
580.50 0.6485
580.60 0.6482
580.70 0.6478
580.80 0.6475
580.90 0.6471
581.00 0.6468
581.10 0.6464
581.20 0.6461
581.30 0.6457
581.40 0.6454
581.50 0.645
581.60 0.6447
581.70 0.6443
581.80 0.644
581.90 0.6437
582.00 0.6433
582.10 0.643
582.20 0.6426
582.30 0.6423
582.40 0.6419
582.50 0.6416
582.60 0.6412
582.70 0.6409
582.80 0.6406
582.90 0.6402
583.00 0.6399
583.10 0.6395
583.20 0.6392
583.30 0.6388
583.40 0.6385
583.50 0.6382
583.60 0.6378
583.70 0.6375
583.80 0.6371
583.90 0.6368
584.00 0.6365
584.10 0.6361
584.20 0.6358
584.30 0.6354
584.40 0.6351
584.50 0.6348
584.60 0.6344
584.70 0.6341
584.80 0.6337
584.90 0.6334
585.00 0.6331
585.10 0.6327
585.20 0.6324
585.30 0.6321
585.40 0.6317
585.50 0.6314
585.60 0.631
585.70 0.6307
585.80 0.6304
585.90 0.63
586.00 0.6297
586.10 0.6294
586.20 0.629
586.30 0.6287
586.40 0.6284
586.50 0.628
586.60 0.6277
586.70 0.6274
586.80 0.627
586.90 0.6267
587.00 0.6264
587.10 0.626
587.20 0.6257
587.30 0.6254
587.40 0.625
587.50 0.6247
587.60 0.6244
587.70 0.624
587.80 0.6237
587.90 0.6234
588.00 0.623
588.10 0.6227
588.20 0.6224
588.30 0.622
588.40 0.6217
588.50 0.6214
588.60 0.621
588.70 0.6207
588.80 0.6204
588.90 0.6201
589.00 0.6197
589.10 0.6194
589.20 0.6191
589.30 0.6187
589.40 0.6184
589.50 0.6181
589.60 0.6178
589.70 0.6174
589.80 0.6171
589.90 0.6168
590.00 0.6165
590.10 0.6161
590.20 0.6158
590.30 0.6155
590.40 0.6151
590.50 0.6148
590.60 0.6145
590.70 0.6142
590.80 0.6138
590.90 0.6135
591.00 0.6132
591.10 0.6129
591.20 0.6125
591.30 0.6122
591.40 0.6119
591.50 0.6116
591.60 0.6113
591.70 0.6109
591.80 0.6106
591.90 0.6103
592.00 0.61
592.10 0.6096
592.20 0.6093
592.30 0.609
592.40 0.6087
592.50 0.6084
592.60 0.608
592.70 0.6077
592.80 0.6074
592.90 0.6071
593.00 0.6067
593.10 0.6064
593.20 0.6061
593.30 0.6058
593.40 0.6055
593.50 0.6051
593.60 0.6048
593.70 0.6045
593.80 0.6042
593.90 0.6039
594.00 0.6036
594.10 0.6032
594.20 0.6029
594.30 0.6026
594.40 0.6023
594.50 0.602
594.60 0.6016
594.70 0.6013
594.80 0.601
594.90 0.6007
595.00 0.6004
595.10 0.6001
595.20 0.5997
595.30 0.5994
595.40 0.5991
595.50 0.5988
595.60 0.5985
595.70 0.5982
595.80 0.5979
595.90 0.5975
596.00 0.5972
596.10 0.5969
596.20 0.5966
596.30 0.5962
596.40 0.5958
596.50 0.5954
596.60 0.595
596.70 0.5947
596.80 0.5943
596.90 0.5939
597.00 0.5935
597.10 0.5932
597.20 0.5928
597.30 0.5925
597.40 0.5922
597.50 0.5919
597.60 0.5916
597.70 0.5913
597.80 0.591
597.90 0.5906
598.00 0.5903
598.10 0.59
598.20 0.5897
598.30 0.5894
598.40 0.5891
598.50 0.5888
598.60 0.5885
598.70 0.5882
598.80 0.5878
598.90 0.5875
599.00 0.5872
599.10 0.5869
599.20 0.5866
599.30 0.5863
599.40 0.586
599.50 0.5857
599.60 0.5854
599.70 0.5851
599.80 0.5847
599.90 0.5844
600.00 0.5841
600.10 0.5838
600.20 0.5835
600.30 0.5832
600.40 0.5829
600.50 0.5826
600.60 0.5823
600.70 0.582
600.80 0.5817
600.90 0.5814
601.00 0.5811
601.10 0.5807
601.20 0.5804
601.30 0.5801
601.40 0.5798
601.50 0.5795
601.60 0.5792
601.70 0.5789
601.80 0.5786
601.90 0.5783
602.00 0.578
602.10 0.5777
602.20 0.5774
602.30 0.5771
602.40 0.5768
602.50 0.5765
602.60 0.5762
602.70 0.5759
602.80 0.5756
602.90 0.5753
603.00 0.575
603.10 0.5747
603.20 0.5744
603.30 0.5741
603.40 0.5738
603.50 0.5735
603.60 0.5732
603.70 0.5729
603.80 0.5726
603.90 0.5723
604.00 0.572
604.10 0.5717
604.20 0.5714
604.30 0.5711
604.40 0.5708
604.50 0.5705
604.60 0.5702
604.70 0.5699
604.80 0.5696
604.90 0.5693
605.00 0.569
605.10 0.5687
605.20 0.5684
605.30 0.5681
605.40 0.5678
605.50 0.5675
605.60 0.5672
605.70 0.5669
605.80 0.5666
605.90 0.5663
606.00 0.566
606.10 0.5657
606.20 0.5654
606.30 0.5651
606.40 0.5648
606.50 0.5645
606.60 0.5642
606.70 0.5639
606.80 0.5636
606.90 0.5633
607.00 0.563
607.10 0.5627
607.20 0.5624
607.30 0.5621
607.40 0.5618
607.50 0.5615
607.60 0.5612
607.70 0.561
607.80 0.5607
607.90 0.5604
608.00 0.5601
608.10 0.5598
608.20 0.5595
608.30 0.5592
608.40 0.5589
608.50 0.5586
608.60 0.5583
608.70 0.558
608.80 0.5577
608.90 0.5574
609.00 0.5571
609.10 0.5569
609.20 0.5566
609.30 0.5563
609.40 0.556
609.50 0.5557
609.60 0.5554
609.70 0.5551
609.80 0.5548
609.90 0.5545
610.00 0.5542
610.10 0.5539
610.20 0.5536
610.30 0.5534
610.40 0.5531
610.50 0.5528
610.60 0.5525
610.70 0.5522
610.80 0.5519
610.90 0.5516
611.00 0.5513
611.10 0.551
611.20 0.5508
611.30 0.5505
611.40 0.5502
611.50 0.5499
611.60 0.5496
611.70 0.5493
611.80 0.549
611.90 0.5487
612.00 0.5485
612.10 0.5482
612.20 0.5479
612.30 0.5476
612.40 0.5473
612.50 0.547
612.60 0.5467
612.70 0.5464
612.80 0.5462
612.90 0.5459
613.00 0.5456
613.10 0.5453
613.20 0.545
613.30 0.5447
613.40 0.5444
613.50 0.5442
613.60 0.5439
613.70 0.5436
613.80 0.5433
613.90 0.543
614.00 0.5427
614.10 0.5424
614.20 0.5422
614.30 0.5419
614.40 0.5416
614.50 0.5413
614.60 0.541
614.70 0.5407
614.80 0.5405
614.90 0.5402
615.00 0.5399
615.10 0.5396
615.20 0.5393
615.30 0.539
615.40 0.5388
615.50 0.5385
615.60 0.5382
615.70 0.5379
615.80 0.5376
615.90 0.5373
616.00 0.5371
616.10 0.5368
616.20 0.5365
616.30 0.5362
616.40 0.5359
616.50 0.5357
616.60 0.5354
616.70 0.5351
616.80 0.5348
616.90 0.5345
617.00 0.5342
617.10 0.534
617.20 0.5337
617.30 0.5334
617.40 0.5331
617.50 0.5328
617.60 0.5326
617.70 0.5323
617.80 0.532
617.90 0.5317
618.00 0.5314
618.10 0.5312
618.20 0.5309
618.30 0.5306
618.40 0.5303
618.50 0.53
618.60 0.5298
618.70 0.5295
618.80 0.5292
618.90 0.5289
619.00 0.5287
619.10 0.5284
619.20 0.5281
619.30 0.5278
619.40 0.5275
619.50 0.5273
619.60 0.527
619.70 0.5267
619.80 0.5264
619.90 0.5261
620.00 0.5259
620.10 0.5256
620.20 0.5253
620.30 0.525
620.40 0.5248
620.50 0.5245
620.60 0.5242
620.70 0.5239
620.80 0.5236
620.90 0.5234
621.00 0.5231
621.10 0.5228
621.20 0.5225
621.30 0.5223
621.40 0.522
621.50 0.5217
621.60 0.5214
621.70 0.5212
621.80 0.5209
621.90 0.5206
622.00 0.5203
622.10 0.5201
622.20 0.5198
622.30 0.5195
622.40 0.5192
622.50 0.519
622.60 0.5187
622.70 0.5184
622.80 0.5181
622.90 0.5179
623.00 0.5176
623.10 0.5173
623.20 0.517
623.30 0.5167
623.40 0.5165
623.50 0.5162
623.60 0.5159
623.70 0.5156
623.80 0.5154
623.90 0.5151
624.00 0.5148
624.10 0.5145
624.20 0.5143
624.30 0.514
624.40 0.5137
624.50 0.5134
624.60 0.5132
624.70 0.5129
624.80 0.5126
624.90 0.5123
625.00 0.5121
625.10 0.5118
625.20 0.5115
625.30 0.5112
625.40 0.511
625.50 0.5107
625.60 0.5104
625.70 0.5101
625.80 0.5099
625.90 0.5096
626.00 0.5093
626.10 0.5091
626.20 0.5088
626.30 0.5085
626.40 0.5082
626.50 0.508
626.60 0.5077
626.70 0.5074
626.80 0.5071
626.90 0.5069
627.00 0.5066
627.10 0.5063
627.20 0.506
627.30 0.5058
627.40 0.5055
627.50 0.5052
627.60 0.5049
627.70 0.5047
627.80 0.5044
627.90 0.5041
628.00 0.5038
628.10 0.5036
628.20 0.5033
628.30 0.503
628.40 0.5027
628.50 0.5025
628.60 0.5022
628.70 0.5019
628.80 0.5016
628.90 0.5014
629.00 0.5011
629.10 0.5008
629.20 0.5005
629.30 0.5003
629.40 0.5
629.50 0.4997
629.60 0.4994
629.70 0.4992
629.80 0.4989
629.90 0.4986
630.00 0.4983
630.10 0.4981
630.20 0.4978
630.30 0.4975
630.40 0.4972
630.50 0.4969
630.60 0.4967
630.70 0.4964
630.80 0.4961
630.90 0.4958
631.00 0.4956
631.10 0.4953
631.20 0.495
631.30 0.4947
631.40 0.4945
631.50 0.4942
631.60 0.4939
631.70 0.4936
631.80 0.4933
631.90 0.4931
632.00 0.4928
632.10 0.4925
632.20 0.4922
632.30 0.4919
632.40 0.4917
632.50 0.4914
632.60 0.4911
632.70 0.4908
632.80 0.4905
632.90 0.4902
633.00 0.49
633.10 0.4897
633.20 0.4894
633.30 0.4891
633.40 0.4888
633.50 0.4885
633.60 0.4883
633.70 0.488
633.80 0.4877
633.90 0.4874
634.00 0.4871
634.10 0.4868
634.20 0.4866
634.30 0.4863
634.40 0.486
634.50 0.4857
634.60 0.4854
634.70 0.4851
634.80 0.4848
634.90 0.4845
635.00 0.4842
635.10 0.4839
635.20 0.4837
635.30 0.4834
635.40 0.4831
635.50 0.4828
635.60 0.4825
635.70 0.4822
635.80 0.4819
635.90 0.4816
636.00 0.4813
636.10 0.481
636.20 0.4807
636.30 0.4804
636.40 0.4801
636.50 0.4798
636.60 0.4795
636.70 0.4792
636.80 0.4789
636.90 0.4786
637.00 0.4783
637.10 0.478
637.20 0.4777
637.30 0.4774
637.40 0.4771
637.50 0.4767
637.60 0.4764
637.70 0.4761
637.80 0.4758
637.90 0.4755
638.00 0.4752
638.10 0.4749
638.20 0.4746
638.30 0.4742
638.40 0.4739
638.50 0.4736
638.60 0.4733
638.70 0.473
638.80 0.4726
638.90 0.4723
639.00 0.472
639.10 0.4717
639.20 0.4713
639.30 0.471
639.40 0.4707
639.50 0.4703
639.60 0.47
639.70 0.4697
639.80 0.4693
639.90 0.469
640.00 0.4686
640.10 0.4683
640.20 0.468
640.30 0.4676
640.40 0.4673
640.50 0.4669
640.60 0.4666
640.70 0.4662
640.80 0.4658
640.90 0.4655
641.00 0.4651
641.10 0.4648
641.20 0.4644
641.30 0.4641
641.40 0.4637
641.50 0.4633
641.60 0.4629
641.70 0.4626
641.80 0.4622
641.90 0.4618
642.00 0.4614
642.10 0.461
642.20 0.4607
642.30 0.4603
642.40 0.4599
642.50 0.4595
642.60 0.4591
642.70 0.4586
642.80 0.4582
642.90 0.4578
643.00 0.4574
643.10 0.457
643.20 0.4566
643.30 0.4562
643.40 0.4557
643.50 0.4553
643.60 0.4549
643.70 0.4544
643.80 0.454
643.90 0.4535
644.00 0.4531
644.10 0.4526
644.20 0.4522
644.30 0.4517
644.40 0.4512
644.50 0.4507
644.60 0.4502
644.70 0.4497
644.80 0.4492
644.90 0.4487
645.00 0.4482
645.10 0.4477
645.20 0.4472
645.30 0.4467
645.40 0.4462
645.50 0.4456
645.60 0.445
645.70 0.4445
645.80 0.4439
645.90 0.4434
646.00 0.4428
646.10 0.4422
646.20 0.4417
646.30 0.4411
646.40 0.4404
646.50 0.4398
646.60 0.4392
646.70 0.4385
646.80 0.4379
646.90 0.4372
647.00 0.4366
647.10 0.4359
647.20 0.4353
647.30 0.4346
647.40 0.4338
647.50 0.4331
647.60 0.4323
647.70 0.4316
647.80 0.4308
647.90 0.43
648.00 0.4293
648.10 0.4285
648.20 0.4278
648.30 0.427
648.40 0.4261
648.50 0.4251
648.60 0.4242
648.70 0.4233
648.80 0.4224
648.90 0.4215
649.00 0.4206
649.10 0.4196
649.20 0.4187
649.30 0.4178
649.40 0.4167
649.50 0.4155
649.60 0.4144
649.70 0.4133
649.80 0.4122
649.90 0.4111
650.00 0.4099
650.10 0.4088
650.20 0.4077
650.30 0.4066
650.40 0.4052
650.50 0.4038
650.60 0.4024
650.70 0.401
650.80 0.3996
650.90 0.3982
651.00 0.3969
651.10 0.3955
651.20 0.3941
651.30 0.3926
651.40 0.3909
651.50 0.3891
651.60 0.3874
651.70 0.3857
651.80 0.3839
651.90 0.3822
652.00 0.3804
652.10 0.3787
652.20 0.3769
652.30 0.3751
652.40 0.3729
652.50 0.3707
652.60 0.3685
652.70 0.3663
652.80 0.3641
652.90 0.3619
653.00 0.3597
653.10 0.3575
653.20 0.3553
653.30 0.353
653.40 0.3502
653.50 0.3475
653.60 0.3447
653.70 0.3419
653.80 0.3392
653.90 0.3364
654.00 0.3337
654.10 0.3309
654.20 0.3282
654.30 0.3253
654.40 0.322
654.50 0.3187
654.60 0.3154
654.70 0.3122
654.80 0.3088
654.90 0.3049
655.00 0.301
655.10 0.2972
655.20 0.2933
655.30 0.2894
655.40 0.2851
655.50 0.2807
655.60 0.2759
655.70 0.271
655.80 0.2654
655.90 0.2593
656.00 0.2511
656.10 0.2423
656.20 0.2124
656.30 0.1838
656.40 0.2311
656.50 0.2457
656.60 0.2537
656.70 0.2611
656.80 0.2665
656.90 0.2718
657.00 0.2763
657.10 0.2808
657.20 0.2848
657.30 0.2888
657.40 0.2924
657.50 0.296
657.60 0.2996
657.70 0.3032
657.80 0.3067
657.90 0.3097
658.00 0.3126
658.10 0.3156
658.20 0.3186
658.30 0.3215
658.40 0.3239
658.50 0.3264
658.60 0.3288
658.70 0.3312
658.80 0.3336
658.90 0.3361
659.00 0.3385
659.10 0.3409
659.20 0.3433
659.30 0.3456
659.40 0.3475
659.50 0.3493
659.60 0.3511
659.70 0.3529
659.80 0.3547
659.90 0.3565
660.00 0.3584
660.10 0.3602
660.20 0.362
660.30 0.3637
660.40 0.365
660.50 0.3664
660.60 0.3677
660.70 0.3691
660.80 0.3704
660.90 0.3717
661.00 0.3731
661.10 0.3744
661.20 0.3757
661.30 0.377
661.40 0.3779
661.50 0.3789
661.60 0.3798
661.70 0.3808
661.80 0.3817
661.90 0.3827
662.00 0.3836
662.10 0.3846
662.20 0.3855
662.30 0.3864
662.40 0.3871
662.50 0.3878
662.60 0.3884
662.70 0.3891
662.80 0.3898
662.90 0.3905
663.00 0.3911
663.10 0.3918
663.20 0.3925
663.30 0.3931
663.40 0.3935
663.50 0.394
663.60 0.3945
663.70 0.3949
663.80 0.3954
663.90 0.3959
664.00 0.3963
664.10 0.3968
664.20 0.3972
664.30 0.3977
664.40 0.398
664.50 0.3983
664.60 0.3986
664.70 0.3989
664.80 0.3992
664.90 0.3995
665.00 0.3998
665.10 0.4001
665.20 0.4004
665.30 0.4007
665.40 0.4009
665.50 0.4011
665.60 0.4012
665.70 0.4014
665.80 0.4016
665.90 0.4018
666.00 0.402
666.10 0.4022
666.20 0.4024
666.30 0.4025
666.40 0.4027
666.50 0.4028
666.60 0.4029
666.70 0.403
666.80 0.4031
666.90 0.4032
667.00 0.4033
667.10 0.4034
667.20 0.4035
667.30 0.4036
667.40 0.4036
667.50 0.4036
667.60 0.4037
667.70 0.4037
667.80 0.4038
667.90 0.4038
668.00 0.4039
668.10 0.4039
668.20 0.4039
668.30 0.404
668.40 0.404
668.50 0.4039
668.60 0.4039
668.70 0.4039
668.80 0.4039
668.90 0.4039
669.00 0.4039
669.10 0.4039
669.20 0.4039
669.30 0.4039
669.40 0.4038
669.50 0.4038
669.60 0.4037
669.70 0.4037
669.80 0.4036
669.90 0.4036
670.00 0.4035
670.10 0.4035
670.20 0.4035
670.30 0.4034
670.40 0.4033
670.50 0.4033
670.60 0.4032
670.70 0.4031
670.80 0.403
670.90 0.403
671.00 0.4029
671.10 0.4028
671.20 0.4027
671.30 0.4027
671.40 0.4026
671.50 0.4025
671.60 0.4024
671.70 0.4023
671.80 0.4022
671.90 0.4021
672.00 0.402
672.10 0.4019
672.20 0.4018
672.30 0.4017
672.40 0.4016
672.50 0.4015
672.60 0.4014
672.70 0.4012
672.80 0.4011
672.90 0.401
673.00 0.4009
673.10 0.4008
673.20 0.4007
673.30 0.4006
673.40 0.4005
673.50 0.4003
673.60 0.4002
673.70 0.4001
673.80 0.4
673.90 0.3998
674.00 0.3997
674.10 0.3996
674.20 0.3995
674.30 0.3993
674.40 0.3992
674.50 0.3991
674.60 0.3989
674.70 0.3988
674.80 0.3987
674.90 0.3985
675.00 0.3984
675.10 0.3983
675.20 0.3981
675.30 0.398
675.40 0.3978
675.50 0.3977
675.60 0.3976
675.70 0.3974
675.80 0.3973
675.90 0.3971
676.00 0.397
676.10 0.3968
676.20 0.3967
676.30 0.3966
676.40 0.3964
676.50 0.3963
676.60 0.3961
676.70 0.396
676.80 0.3958
676.90 0.3957
677.00 0.3955
677.10 0.3954
677.20 0.3952
677.30 0.3951
677.40 0.3949
677.50 0.3948
677.60 0.3946
677.70 0.3944
677.80 0.3943
677.90 0.3941
678.00 0.394
678.10 0.3938
678.20 0.3937
678.30 0.3935
678.40 0.3934
678.50 0.3932
678.60 0.393
678.70 0.3929
678.80 0.3927
678.90 0.3926
679.00 0.3924
679.10 0.3923
679.20 0.3921
679.30 0.3919
679.40 0.3918
679.50 0.3916
679.60 0.3915
679.70 0.3913
679.80 0.3911
679.90 0.391
680.00 0.3908
680.10 0.3906
680.20 0.3905
680.30 0.3903
680.40 0.3902
680.50 0.39
680.60 0.3898
680.70 0.3897
680.80 0.3895
680.90 0.3893
681.00 0.3892
681.10 0.389
681.20 0.3889
681.30 0.3887
681.40 0.3885
681.50 0.3884
681.60 0.3882
681.70 0.388
681.80 0.3879
681.90 0.3877
682.00 0.3875
682.10 0.3874
682.20 0.3872
682.30 0.387
682.40 0.3869
682.50 0.3867
682.60 0.3865
682.70 0.3864
682.80 0.3862
682.90 0.386
683.00 0.3859
683.10 0.3857
683.20 0.3855
683.30 0.3854
683.40 0.3852
683.50 0.385
683.60 0.3849
683.70 0.3847
683.80 0.3845
683.90 0.3844
684.00 0.3842
684.10 0.384
684.20 0.3839
684.30 0.3837
684.40 0.3835
684.50 0.3834
684.60 0.3832
684.70 0.383
684.80 0.3829
684.90 0.3827
685.00 0.3825
685.10 0.3824
685.20 0.3822
685.30 0.382
685.40 0.3819
685.50 0.3817
685.60 0.3815
685.70 0.3813
685.80 0.3812
685.90 0.381
686.00 0.3808
686.10 0.3807
686.20 0.3805
686.30 0.3803
686.40 0.3802
686.50 0.38
686.60 0.3798
686.70 0.3797
686.80 0.3795
686.90 0.3793
687.00 0.3792
687.10 0.379
687.20 0.3788
687.30 0.3787
687.40 0.3785
687.50 0.3783
687.60 0.3782
687.70 0.378
687.80 0.3778
687.90 0.3776
688.00 0.3775
688.10 0.3773
688.20 0.3771
688.30 0.377
688.40 0.3768
688.50 0.3766
688.60 0.3765
688.70 0.3763
688.80 0.3761
688.90 0.376
689.00 0.3758
689.10 0.3756
689.20 0.3755
689.30 0.3753
689.40 0.3751
689.50 0.3749
689.60 0.3748
689.70 0.3746
689.80 0.3744
689.90 0.3743
690.00 0.3741
690.10 0.3739
690.20 0.3738
690.30 0.3736
690.40 0.3734
690.50 0.3733
690.60 0.3731
690.70 0.3729
690.80 0.3727
690.90 0.3726
691.00 0.3724
691.10 0.3722
691.20 0.3721
691.30 0.3719
691.40 0.3717
691.50 0.3716
691.60 0.3714
691.70 0.3712
691.80 0.3711
691.90 0.3709
692.00 0.3707
692.10 0.3706
692.20 0.3704
692.30 0.3702
692.40 0.3701
692.50 0.3699
692.60 0.3697
692.70 0.3695
692.80 0.3694
692.90 0.3692
693.00 0.369
693.10 0.3689
693.20 0.3687
693.30 0.3685
693.40 0.3684
693.50 0.3682
693.60 0.368
693.70 0.3679
693.80 0.3677
693.90 0.3675
694.00 0.3674
694.10 0.3672
694.20 0.367
694.30 0.3669
694.40 0.3667
694.50 0.3665
694.60 0.3664
694.70 0.3662
694.80 0.3661
694.90 0.3659
695.00 0.3657
695.10 0.3656
695.20 0.3654
695.30 0.3652
695.40 0.3651
695.50 0.3649
695.60 0.3647
695.70 0.3646
695.80 0.3644
695.90 0.3642
696.00 0.3641
696.10 0.3639
696.20 0.3637
696.30 0.3636
696.40 0.3634
696.50 0.3632
696.60 0.3631
696.70 0.3629
696.80 0.3628
696.90 0.3626
697.00 0.3624
697.10 0.3623
697.20 0.3621
697.30 0.3619
697.40 0.3618
697.50 0.3616
697.60 0.3614
697.70 0.3613
697.80 0.3611
697.90 0.361
698.00 0.3608
698.10 0.3606
698.20 0.3605
698.30 0.3603
698.40 0.3601
698.50 0.36
698.60 0.3598
698.70 0.3596
698.80 0.3595
698.90 0.3593
699.00 0.3592
699.10 0.359
699.20 0.3588
699.30 0.3587
699.40 0.3585
699.50 0.3583
699.60 0.3582
699.70 0.358
699.80 0.3579
699.90 0.3577
700.00 0.3575
700.10 0.3574
700.20 0.3573
700.30 0.3571
700.40 0.357
700.50 0.3568
700.60 0.3567
700.70 0.3566
700.80 0.3564
700.90 0.3563
701.00 0.3561
701.10 0.356
701.20 0.3559
701.30 0.3557
701.40 0.3556
701.50 0.3554
701.60 0.3553
701.70 0.3552
701.80 0.355
701.90 0.3549
702.00 0.3548
702.10 0.3546
702.20 0.3545
702.30 0.3543
702.40 0.3542
702.50 0.3541
702.60 0.3539
702.70 0.3538
702.80 0.3536
702.90 0.3535
703.00 0.3534
703.10 0.3532
703.20 0.3531
703.30 0.353
703.40 0.3528
703.50 0.3527
703.60 0.3525
703.70 0.3524
703.80 0.3523
703.90 0.3521
704.00 0.352
704.10 0.3519
704.20 0.3517
704.30 0.3516
704.40 0.3514
704.50 0.3513
704.60 0.3512
704.70 0.351
704.80 0.3509
704.90 0.3508
705.00 0.3506
705.10 0.3505
705.20 0.3503
705.30 0.3501
705.40 0.35
705.50 0.3498
705.60 0.3497
705.70 0.3495
705.80 0.3493
705.90 0.3492
706.00 0.349
706.10 0.3489
706.20 0.3487
706.30 0.3486
706.40 0.3484
706.50 0.3482
706.60 0.3481
706.70 0.3479
706.80 0.3478
706.90 0.3476
707.00 0.3474
707.10 0.3473
707.20 0.3471
707.30 0.347
707.40 0.3468
707.50 0.3467
707.60 0.3465
707.70 0.3463
707.80 0.3462
707.90 0.346
708.00 0.3459
708.10 0.3457
708.20 0.3456
708.30 0.3454
708.40 0.3452
708.50 0.3451
708.60 0.3449
708.70 0.3448
708.80 0.3446
708.90 0.3445
709.00 0.3443
709.10 0.3441
709.20 0.344
709.30 0.3438
709.40 0.3437
709.50 0.3435
709.60 0.3434
709.70 0.3432
709.80 0.3431
709.90 0.3429
710.00 0.3427
710.10 0.3426
710.20 0.3424
710.30 0.3423
710.40 0.3421
710.50 0.342
710.60 0.3418
710.70 0.3417
710.80 0.3415
710.90 0.3413
711.00 0.3412
711.10 0.341
711.20 0.3409
711.30 0.3407
711.40 0.3406
711.50 0.3404
711.60 0.3403
711.70 0.3401
711.80 0.34
711.90 0.3398
712.00 0.3397
712.10 0.3395
712.20 0.3393
712.30 0.3392
712.40 0.339
712.50 0.3389
712.60 0.3387
712.70 0.3386
712.80 0.3384
712.90 0.3383
713.00 0.3381
713.10 0.338
713.20 0.3378
713.30 0.3377
713.40 0.3375
713.50 0.3374
713.60 0.3372
713.70 0.337
713.80 0.3369
713.90 0.3367
714.00 0.3366
714.10 0.3364
714.20 0.3363
714.30 0.3361
714.40 0.336
714.50 0.3358
714.60 0.3357
714.70 0.3355
714.80 0.3354
714.90 0.3352
715.00 0.3351
715.10 0.3349
715.20 0.3348
715.30 0.3346
715.40 0.3345
715.50 0.3343
715.60 0.3342
715.70 0.334
715.80 0.3339
715.90 0.3337
716.00 0.3336
716.10 0.3334
716.20 0.3333
716.30 0.3331
716.40 0.333
716.50 0.3328
716.60 0.3327
716.70 0.3325
716.80 0.3324
716.90 0.3323
717.00 0.3321
717.10 0.332
717.20 0.3318
717.30 0.3317
717.40 0.3315
717.50 0.3314
717.60 0.3312
717.70 0.3311
717.80 0.3309
717.90 0.3308
718.00 0.3306
718.10 0.3305
718.20 0.3303
718.30 0.3302
718.40 0.33
718.50 0.3299
718.60 0.3298
718.70 0.3296
718.80 0.3295
718.90 0.3293
719.00 0.3292
719.10 0.329
719.20 0.3289
719.30 0.3287
719.40 0.3286
719.50 0.3284
719.60 0.3283
719.70 0.3281
719.80 0.328
719.90 0.3279
720.00 0.3277
720.10 0.3276
720.20 0.3274
720.30 0.3273
720.40 0.3271
720.50 0.327
720.60 0.3268
720.70 0.3267
720.80 0.3265
720.90 0.3264
721.00 0.3262
721.10 0.3261
721.20 0.3259
721.30 0.3258
721.40 0.3257
721.50 0.3255
721.60 0.3254
721.70 0.3252
721.80 0.3251
721.90 0.3249
722.00 0.3248
722.10 0.3246
722.20 0.3245
722.30 0.3243
722.40 0.3242
722.50 0.324
722.60 0.3239
722.70 0.3238
722.80 0.3236
722.90 0.3235
723.00 0.3233
723.10 0.3232
723.20 0.323
723.30 0.3229
723.40 0.3227
723.50 0.3226
723.60 0.3224
723.70 0.3223
723.80 0.3222
723.90 0.322
724.00 0.3219
724.10 0.3217
724.20 0.3216
724.30 0.3214
724.40 0.3213
724.50 0.3211
724.60 0.321
724.70 0.3208
724.80 0.3207
724.90 0.3206
725.00 0.3204
725.10 0.3203
725.20 0.3201
725.30 0.32
725.40 0.3198
725.50 0.3197
725.60 0.3196
725.70 0.3194
725.80 0.3193
725.90 0.3191
726.00 0.319
726.10 0.3188
726.20 0.3187
726.30 0.3186
726.40 0.3184
726.50 0.3183
726.60 0.3181
726.70 0.318
726.80 0.3178
726.90 0.3177
727.00 0.3176
727.10 0.3174
727.20 0.3173
727.30 0.3171
727.40 0.317
727.50 0.3168
727.60 0.3167
727.70 0.3166
727.80 0.3164
727.90 0.3163
728.00 0.3161
728.10 0.316
728.20 0.3159
728.30 0.3157
728.40 0.3156
728.50 0.3154
728.60 0.3153
728.70 0.3151
728.80 0.315
728.90 0.3149
729.00 0.3147
729.10 0.3146
729.20 0.3144
729.30 0.3143
729.40 0.3142
729.50 0.314
729.60 0.3139
729.70 0.3137
729.80 0.3136
729.90 0.3135
730.00 0.3133
730.10 0.3132
730.20 0.313
730.30 0.3129
730.40 0.3128
730.50 0.3126
730.60 0.3125
730.70 0.3123
730.80 0.3122
730.90 0.3121
731.00 0.3119
731.10 0.3118
731.20 0.3116
731.30 0.3115
731.40 0.3114
731.50 0.3112
731.60 0.3111
731.70 0.311
731.80 0.3108
731.90 0.3107
732.00 0.3105
732.10 0.3104
732.20 0.3103
732.30 0.3101
732.40 0.31
732.50 0.3099
732.60 0.3097
732.70 0.3096
732.80 0.3094
732.90 0.3093
733.00 0.3092
733.10 0.309
733.20 0.3089
733.30 0.3088
733.40 0.3086
733.50 0.3085
733.60 0.3083
733.70 0.3082
733.80 0.3081
733.90 0.3079
734.00 0.3078
734.10 0.3077
734.20 0.3075
734.30 0.3074
734.40 0.3072
734.50 0.3071
734.60 0.307
734.70 0.3068
734.80 0.3067
734.90 0.3066
735.00 0.3064
735.10 0.3063
735.20 0.3062
735.30 0.306
735.40 0.3059
735.50 0.3058
735.60 0.3056
735.70 0.3055
735.80 0.3053
735.90 0.3052
736.00 0.3051
736.10 0.3049
736.20 0.3048
736.30 0.3047
736.40 0.3045
736.50 0.3044
736.60 0.3043
736.70 0.3041
736.80 0.304
736.90 0.3039
737.00 0.3037
737.10 0.3036
737.20 0.3035
737.30 0.3033
737.40 0.3032
737.50 0.303
737.60 0.3029
737.70 0.3028
737.80 0.3026
737.90 0.3025
738.00 0.3024
738.10 0.3022
738.20 0.3021
738.30 0.302
738.40 0.3018
738.50 0.3017
738.60 0.3016
738.70 0.3014
738.80 0.3013
738.90 0.3012
739.00 0.301
739.10 0.3009
739.20 0.3008
739.30 0.3006
739.40 0.3005
739.50 0.3004
739.60 0.3002
739.70 0.3001
739.80 0.3
739.90 0.2998
740.00 0.2997
740.10 0.2996
740.20 0.2994
740.30 0.2993
740.40 0.2992
740.50 0.299
740.60 0.2989
740.70 0.2988
740.80 0.2986
740.90 0.2985
741.00 0.2984
741.10 0.2983
741.20 0.2981
741.30 0.298
741.40 0.2979
741.50 0.2977
741.60 0.2976
741.70 0.2975
741.80 0.2973
741.90 0.2972
742.00 0.2971
742.10 0.2969
742.20 0.2968
742.30 0.2967
742.40 0.2966
742.50 0.2964
742.60 0.2963
742.70 0.2962
742.80 0.296
742.90 0.2959
743.00 0.2958
743.10 0.2956
743.20 0.2955
743.30 0.2954
743.40 0.2953
743.50 0.2951
743.60 0.295
743.70 0.2949
743.80 0.2947
743.90 0.2946
744.00 0.2945
744.10 0.2943
744.20 0.2942
744.30 0.2941
744.40 0.294
744.50 0.2938
744.60 0.2937
744.70 0.2936
744.80 0.2934
744.90 0.2933
745.00 0.2932
745.10 0.2931
745.20 0.2929
745.30 0.2928
745.40 0.2927
745.50 0.2925
745.60 0.2924
745.70 0.2923
745.80 0.2922
745.90 0.292
746.00 0.2919
746.10 0.2918
746.20 0.2916
746.30 0.2915
746.40 0.2914
746.50 0.2913
746.60 0.2911
746.70 0.291
746.80 0.2909
746.90 0.2907
747.00 0.2906
747.10 0.2905
747.20 0.2904
747.30 0.2902
747.40 0.2901
747.50 0.29
747.60 0.2899
747.70 0.2897
747.80 0.2896
747.90 0.2895
748.00 0.2893
748.10 0.2892
748.20 0.2891
748.30 0.289
748.40 0.2888
748.50 0.2887
748.60 0.2886
748.70 0.2885
748.80 0.2883
748.90 0.2882
749.00 0.2881
749.10 0.288
749.20 0.2878
749.30 0.2877
749.40 0.2876
749.50 0.2874
749.60 0.2873
749.70 0.2872
749.80 0.2871
749.90 0.2869
750.00 0.2868
750.10 0.2867
750.20 0.2866
750.30 0.2864
750.40 0.2863
750.50 0.2862
750.60 0.2861
750.70 0.2859
750.80 0.2858
750.90 0.2857
751.00 0.2856
751.10 0.2854
751.20 0.2853
751.30 0.2852
751.40 0.2851
751.50 0.285
751.60 0.2848
751.70 0.2847
751.80 0.2846
751.90 0.2845
752.00 0.2843
752.10 0.2842
752.20 0.2841
752.30 0.284
752.40 0.2838
752.50 0.2837
752.60 0.2836
752.70 0.2835
752.80 0.2833
752.90 0.2832
753.00 0.2831
753.10 0.283
753.20 0.2829
753.30 0.2827
753.40 0.2826
753.50 0.2825
753.60 0.2824
753.70 0.2822
753.80 0.2821
753.90 0.282
754.00 0.2819
754.10 0.2817
754.20 0.2816
754.30 0.2815
754.40 0.2814
754.50 0.2813
754.60 0.2811
754.70 0.281
754.80 0.2809
754.90 0.2808
755.00 0.2806
755.10 0.2805
755.20 0.2804
755.30 0.2803
755.40 0.2802
755.50 0.28
755.60 0.2799
755.70 0.2798
755.80 0.2797
755.90 0.2796
756.00 0.2794
756.10 0.2793
756.20 0.2792
756.30 0.2791
756.40 0.2789
756.50 0.2788
756.60 0.2787
756.70 0.2786
756.80 0.2785
756.90 0.2783
757.00 0.2782
757.10 0.2781
757.20 0.278
757.30 0.2779
757.40 0.2777
757.50 0.2776
757.60 0.2775
757.70 0.2774
757.80 0.2773
757.90 0.2771
758.00 0.277
758.10 0.2769
758.20 0.2768
758.30 0.2767
758.40 0.2765
758.50 0.2764
758.60 0.2763
758.70 0.2762
758.80 0.2761
758.90 0.2759
759.00 0.2758
759.10 0.2757
759.20 0.2756
759.30 0.2755
759.40 0.2753
759.50 0.2752
759.60 0.2751
759.70 0.275
759.80 0.2749
759.90 0.2747
760.00 0.2746
760.10 0.2745
760.20 0.2744
760.30 0.2743
760.40 0.2741
760.50 0.274
760.60 0.2739
760.70 0.2738
760.80 0.2737
760.90 0.2736
761.00 0.2734
761.10 0.2733
761.20 0.2732
761.30 0.2731
761.40 0.273
761.50 0.2729
761.60 0.2727
761.70 0.2726
761.80 0.2725
761.90 0.2724
762.00 0.2723
762.10 0.2722
762.20 0.272
762.30 0.2719
762.40 0.2718
762.50 0.2717
762.60 0.2716
762.70 0.2714
762.80 0.2713
762.90 0.2712
763.00 0.2711
763.10 0.271
763.20 0.2709
763.30 0.2708
763.40 0.2706
763.50 0.2705
763.60 0.2704
763.70 0.2703
763.80 0.2702
763.90 0.2701
764.00 0.2699
764.10 0.2698
764.20 0.2697
764.30 0.2696
764.40 0.2695
764.50 0.2694
764.60 0.2692
764.70 0.2691
764.80 0.269
764.90 0.2689
765.00 0.2688
765.10 0.2687
765.20 0.2685
765.30 0.2684
765.40 0.2683
765.50 0.2682
765.60 0.2681
765.70 0.268
765.80 0.2679
765.90 0.2677
766.00 0.2676
766.10 0.2675
766.20 0.2674
766.30 0.2673
766.40 0.2672
766.50 0.2671
766.60 0.2669
766.70 0.2668
766.80 0.2667
766.90 0.2666
767.00 0.2665
767.10 0.2664
767.20 0.2662
767.30 0.2661
767.40 0.266
767.50 0.2659
767.60 0.2658
767.70 0.2657
767.80 0.2656
767.90 0.2654
768.00 0.2653
768.10 0.2652
768.20 0.2651
768.30 0.265
768.40 0.2649
768.50 0.2648
768.60 0.2647
768.70 0.2645
768.80 0.2644
768.90 0.2643
769.00 0.2642
769.10 0.2641
769.20 0.264
769.30 0.2639
769.40 0.2637
769.50 0.2636
769.60 0.2635
769.70 0.2634
769.80 0.2633
769.90 0.2632
770.00 0.2631
770.10 0.263
770.20 0.2628
770.30 0.2627
770.40 0.2626
770.50 0.2625
770.60 0.2624
770.70 0.2623
770.80 0.2622
770.90 0.2621
771.00 0.2619
771.10 0.2618
771.20 0.2617
771.30 0.2616
771.40 0.2615
771.50 0.2614
771.60 0.2613
771.70 0.2612
771.80 0.2611
771.90 0.2609
772.00 0.2608
772.10 0.2607
772.20 0.2606
772.30 0.2605
772.40 0.2604
772.50 0.2603
772.60 0.2602
772.70 0.2601
772.80 0.2599
772.90 0.2598
773.00 0.2597
773.10 0.2596
773.20 0.2595
773.30 0.2594
773.40 0.2593
773.50 0.2592
773.60 0.2591
773.70 0.259
773.80 0.2588
773.90 0.2587
774.00 0.2586
774.10 0.2585
774.20 0.2584
774.30 0.2583
774.40 0.2582
774.50 0.2581
774.60 0.258
774.70 0.2579
774.80 0.2577
774.90 0.2576
775.00 0.2575
775.10 0.2574
775.20 0.2573
775.30 0.2572
775.40 0.2571
775.50 0.257
775.60 0.2569
775.70 0.2568
775.80 0.2567
775.90 0.2565
776.00 0.2564
776.10 0.2563
776.20 0.2562
776.30 0.2561
776.40 0.256
776.50 0.2559
776.60 0.2558
776.70 0.2557
776.80 0.2556
776.90 0.2555
777.00 0.2553
777.10 0.2552
777.20 0.2551
777.30 0.255
777.40 0.2549
777.50 0.2548
777.60 0.2547
777.70 0.2546
777.80 0.2545
777.90 0.2544
778.00 0.2543
778.10 0.2542
778.20 0.254
778.30 0.2539
778.40 0.2538
778.50 0.2537
778.60 0.2536
778.70 0.2535
778.80 0.2534
778.90 0.2533
779.00 0.2532
779.10 0.2531
779.20 0.253
779.30 0.2529
779.40 0.2528
779.50 0.2526
779.60 0.2525
779.70 0.2524
779.80 0.2523
779.90 0.2522
780.00 0.2521
780.10 0.252
780.20 0.2519
780.30 0.2518
780.40 0.2517
780.50 0.2516
780.60 0.2515
780.70 0.2514
780.80 0.2513
780.90 0.2512
781.00 0.2511
781.10 0.2509
781.20 0.2508
781.30 0.2507
781.40 0.2506
781.50 0.2505
781.60 0.2504
781.70 0.2503
781.80 0.2502
781.90 0.2501
782.00 0.25
782.10 0.2499
782.20 0.2498
782.30 0.2497
782.40 0.2496
782.50 0.2495
782.60 0.2494
782.70 0.2493
782.80 0.2492
782.90 0.2491
783.00 0.2489
783.10 0.2488
783.20 0.2487
783.30 0.2486
783.40 0.2485
783.50 0.2484
783.60 0.2483
783.70 0.2482
783.80 0.2481
783.90 0.248
784.00 0.2479
784.10 0.2478
784.20 0.2477
784.30 0.2476
784.40 0.2475
784.50 0.2474
784.60 0.2473
784.70 0.2472
784.80 0.2471
784.90 0.247
785.00 0.2469
785.10 0.2468
785.20 0.2467
785.30 0.2465
785.40 0.2464
785.50 0.2463
785.60 0.2462
785.70 0.2461
785.80 0.246
785.90 0.2459
786.00 0.2458
786.10 0.2457
786.20 0.2456
786.30 0.2455
786.40 0.2454
786.50 0.2453
786.60 0.2452
786.70 0.2451
786.80 0.245
786.90 0.2449
787.00 0.2448
787.10 0.2447
787.20 0.2446
787.30 0.2445
787.40 0.2444
787.50 0.2443
787.60 0.2442
787.70 0.2441
787.80 0.244
787.90 0.2439
788.00 0.2438
788.10 0.2437
788.20 0.2436
788.30 0.2435
788.40 0.2434
788.50 0.2433
788.60 0.2431
788.70 0.243
788.80 0.2429
788.90 0.2428
789.00 0.2427
789.10 0.2426
789.20 0.2425
789.30 0.2424
789.40 0.2423
789.50 0.2422
789.60 0.2421
789.70 0.242
789.80 0.2419
789.90 0.2418
790.00 0.2417
790.10 0.2416
790.20 0.2415
790.30 0.2414
790.40 0.2413
790.50 0.2412
790.60 0.2411
790.70 0.241
790.80 0.2409
790.90 0.2408
791.00 0.2407
791.10 0.2406
791.20 0.2405
791.30 0.2404
791.40 0.2403
791.50 0.2402
791.60 0.2401
791.70 0.24
791.80 0.2399
791.90 0.2398
792.00 0.2397
792.10 0.2396
792.20 0.2395
792.30 0.2394
792.40 0.2393
792.50 0.2392
792.60 0.2391
792.70 0.239
792.80 0.2389
792.90 0.2388
793.00 0.2387
793.10 0.2386
793.20 0.2385
793.30 0.2384
793.40 0.2383
793.50 0.2382
793.60 0.2381
793.70 0.238
793.80 0.2379
793.90 0.2378
794.00 0.2377
794.10 0.2376
794.20 0.2375
794.30 0.2374
794.40 0.2373
794.50 0.2372
794.60 0.2371
794.70 0.237
794.80 0.2369
794.90 0.2368
795.00 0.2367
795.10 0.2366
795.20 0.2365
795.30 0.2364
795.40 0.2363
795.50 0.2362
795.60 0.2362
795.70 0.2361
795.80 0.236
795.90 0.2359
796.00 0.2358
796.10 0.2357
796.20 0.2356
796.30 0.2355
796.40 0.2354
796.50 0.2353
796.60 0.2352
796.70 0.2351
796.80 0.235
796.90 0.2349
797.00 0.2348
797.10 0.2347
797.20 0.2346
797.30 0.2345
797.40 0.2344
797.50 0.2343
797.60 0.2342
797.70 0.2341
797.80 0.234
797.90 0.2339
798.00 0.2338
798.10 0.2337
798.20 0.2336
798.30 0.2335
798.40 0.2334
798.50 0.2333
798.60 0.2332
798.70 0.2331
798.80 0.233
798.90 0.2329
799.00 0.2328
799.10 0.2327
799.20 0.2326
799.30 0.2325
799.40 0.2324
799.50 0.2323
799.60 0.2323
799.70 0.2322
799.80 0.2321
799.90 0.232
800.00 0.2319
800.10 0.2318
800.20 0.2317
800.30 0.2316
800.40 0.2315
800.50 0.2314
800.60 0.2313
800.70 0.2312
800.80 0.2311
800.90 0.231
801.00 0.2309
801.10 0.2308
801.20 0.2307
801.30 0.2306
801.40 0.2305
801.50 0.2304
801.60 0.2303
801.70 0.2302
801.80 0.2302
801.90 0.2301
802.00 0.23
802.10 0.2299
802.20 0.2298
802.30 0.2297
802.40 0.2296
802.50 0.2295
802.60 0.2294
802.70 0.2293
802.80 0.2292
802.90 0.2291
803.00 0.229
803.10 0.2289
803.20 0.2288
803.30 0.2287
803.40 0.2286
803.50 0.2285
803.60 0.2285
803.70 0.2284
803.80 0.2283
803.90 0.2282
804.00 0.2281
804.10 0.228
804.20 0.2279
804.30 0.2278
804.40 0.2277
804.50 0.2276
804.60 0.2275
804.70 0.2274
804.80 0.2273
804.90 0.2272
805.00 0.2271
805.10 0.227
805.20 0.227
805.30 0.2269
805.40 0.2268
805.50 0.2267
805.60 0.2266
805.70 0.2265
805.80 0.2264
805.90 0.2263
806.00 0.2262
806.10 0.2261
806.20 0.226
806.30 0.2259
806.40 0.2258
806.50 0.2257
806.60 0.2256
806.70 0.2256
806.80 0.2255
806.90 0.2254
807.00 0.2253
807.10 0.2252
807.20 0.2251
807.30 0.225
807.40 0.2249
807.50 0.2248
807.60 0.2247
807.70 0.2246
807.80 0.2245
807.90 0.2244
808.00 0.2243
808.10 0.2243
808.20 0.2242
808.30 0.2241
808.40 0.224
808.50 0.2239
808.60 0.2238
808.70 0.2237
808.80 0.2236
808.90 0.2235
809.00 0.2234
809.10 0.2233
809.20 0.2232
809.30 0.2232
809.40 0.2231
809.50 0.223
809.60 0.2229
809.70 0.2228
809.80 0.2227
809.90 0.2226
810.00 0.2225
810.10 0.2224
810.20 0.2223
810.30 0.2222
810.40 0.2221
810.50 0.2221
810.60 0.222
810.70 0.2219
810.80 0.2218
810.90 0.2217
811.00 0.2216
811.10 0.2215
811.20 0.2214
811.30 0.2213
811.40 0.2212
811.50 0.2212
811.60 0.2211
811.70 0.221
811.80 0.2209
811.90 0.2208
812.00 0.2207
812.10 0.2206
812.20 0.2205
812.30 0.2204
812.40 0.2203
812.50 0.2203
812.60 0.2202
812.70 0.2201
812.80 0.22
812.90 0.2199
813.00 0.2198
813.10 0.2197
813.20 0.2196
813.30 0.2195
813.40 0.2194
813.50 0.2194
813.60 0.2193
813.70 0.2192
813.80 0.2191
813.90 0.219
814.00 0.2189
814.10 0.2188
814.20 0.2187
814.30 0.2186
814.40 0.2186
814.50 0.2185
814.60 0.2184
814.70 0.2183
814.80 0.2182
814.90 0.2181
815.00 0.218
815.10 0.2179
815.20 0.2178
815.30 0.2178
815.40 0.2177
815.50 0.2176
815.60 0.2175
815.70 0.2174
815.80 0.2173
815.90 0.2172
816.00 0.2171
816.10 0.217
816.20 0.217
816.30 0.2169
816.40 0.2168
816.50 0.2167
816.60 0.2166
816.70 0.2165
816.80 0.2164
816.90 0.2163
817.00 0.2162
817.10 0.2162
817.20 0.2161
817.30 0.216
817.40 0.2159
817.50 0.2158
817.60 0.2157
817.70 0.2156
817.80 0.2155
817.90 0.2155
818.00 0.2154
818.10 0.2153
818.20 0.2152
818.30 0.2151
818.40 0.215
818.50 0.2149
818.60 0.2148
818.70 0.2148
818.80 0.2147
818.90 0.2146
819.00 0.2145
819.10 0.2144
819.20 0.2143
819.30 0.2142
819.40 0.2141
819.50 0.2141
819.60 0.214
819.70 0.2139
819.80 0.2138
819.90 0.2137
820.00 0.2136
820.10 0.2135
820.20 0.2134
820.30 0.2134
820.40 0.2133
820.50 0.2132
820.60 0.2131
820.70 0.213
820.80 0.2129
820.90 0.2128
821.00 0.2128
821.10 0.2127
821.20 0.2126
821.30 0.2125
821.40 0.2124
821.50 0.2123
821.60 0.2122
821.70 0.2122
821.80 0.2121
821.90 0.212
822.00 0.2119
822.10 0.2118
822.20 0.2117
822.30 0.2116
822.40 0.2116
822.50 0.2115
822.60 0.2114
822.70 0.2113
822.80 0.2112
822.90 0.2111
823.00 0.211
823.10 0.211
823.20 0.2109
823.30 0.2108
823.40 0.2107
823.50 0.2106
823.60 0.2105
823.70 0.2104
823.80 0.2104
823.90 0.2103
824.00 0.2102
824.10 0.2101
824.20 0.21
824.30 0.2099
824.40 0.2099
824.50 0.2098
824.60 0.2097
824.70 0.2096
824.80 0.2095
824.90 0.2094
825.00 0.2093
825.10 0.2093
825.20 0.2092
825.30 0.2091
825.40 0.209
825.50 0.2089
825.60 0.2088
825.70 0.2088
825.80 0.2087
825.90 0.2086
826.00 0.2085
826.10 0.2084
826.20 0.2083
826.30 0.2082
826.40 0.2082
826.50 0.2081
826.60 0.208
826.70 0.2079
826.80 0.2078
826.90 0.2077
827.00 0.2077
827.10 0.2076
827.20 0.2075
827.30 0.2074
827.40 0.2073
827.50 0.2072
827.60 0.2072
827.70 0.2071
827.80 0.207
827.90 0.2069
828.00 0.2068
828.10 0.2067
828.20 0.2067
828.30 0.2066
828.40 0.2065
828.50 0.2064
828.60 0.2063
828.70 0.2062
828.80 0.2062
828.90 0.2061
829.00 0.206
829.10 0.2059
829.20 0.2058
829.30 0.2058
829.40 0.2057
829.50 0.2056
829.60 0.2055
829.70 0.2054
829.80 0.2053
829.90 0.2053
830.00 0.2052
830.10 0.2051
830.20 0.205
830.30 0.2049
830.40 0.2048
830.50 0.2048
830.60 0.2047
830.70 0.2046
830.80 0.2045
830.90 0.2044
831.00 0.2043
831.10 0.2043
831.20 0.2042
831.30 0.2041
831.40 0.204
831.50 0.2039
831.60 0.2039
831.70 0.2038
831.80 0.2037
831.90 0.2036
832.00 0.2035
832.10 0.2034
832.20 0.2034
832.30 0.2033
832.40 0.2032
832.50 0.2031
832.60 0.203
832.70 0.203
832.80 0.2029
832.90 0.2028
833.00 0.2027
833.10 0.2026
833.20 0.2026
833.30 0.2025
833.40 0.2024
833.50 0.2023
833.60 0.2022
833.70 0.2022
833.80 0.2021
833.90 0.202
834.00 0.2019
834.10 0.2018
834.20 0.2017
834.30 0.2017
834.40 0.2016
834.50 0.2015
834.60 0.2014
834.70 0.2013
834.80 0.2013
834.90 0.2012
835.00 0.2011
835.10 0.201
835.20 0.2009
835.30 0.2009
835.40 0.2008
835.50 0.2007
835.60 0.2006
835.70 0.2005
835.80 0.2005
835.90 0.2004
836.00 0.2003
836.10 0.2002
836.20 0.2001
836.30 0.2001
836.40 0.2
836.50 0.1999
836.60 0.1998
836.70 0.1997
836.80 0.1997
836.90 0.1996
837.00 0.1995
837.10 0.1994
837.20 0.1993
837.30 0.1993
837.40 0.1992
837.50 0.1991
837.60 0.199
837.70 0.1989
837.80 0.1989
837.90 0.1988
838.00 0.1987
838.10 0.1986
838.20 0.1986
838.30 0.1985
838.40 0.1984
838.50 0.1983
838.60 0.1982
838.70 0.1982
838.80 0.1981
838.90 0.198
839.00 0.1979
839.10 0.1978
839.20 0.1978
839.30 0.1977
839.40 0.1976
839.50 0.1975
839.60 0.1974
839.70 0.1974
839.80 0.1973
839.90 0.1972
840.00 0.1971
840.10 0.1971
840.20 0.197
840.30 0.1969
840.40 0.1968
840.50 0.1967
840.60 0.1967
840.70 0.1966
840.80 0.1965
840.90 0.1964
841.00 0.1964
841.10 0.1963
841.20 0.1962
841.30 0.1961
841.40 0.196
841.50 0.196
841.60 0.1959
841.70 0.1958
841.80 0.1957
841.90 0.1956
842.00 0.1956
842.10 0.1955
842.20 0.1954
842.30 0.1953
842.40 0.1953
842.50 0.1952
842.60 0.1951
842.70 0.195
842.80 0.1949
842.90 0.1949
843.00 0.1948
843.10 0.1947
843.20 0.1946
843.30 0.1945
843.40 0.1945
843.50 0.1944
843.60 0.1943
843.70 0.1942
843.80 0.1942
843.90 0.1941
844.00 0.194
844.10 0.1939
844.20 0.1938
844.30 0.1938
844.40 0.1937
844.50 0.1936
844.60 0.1935
844.70 0.1935
844.80 0.1934
844.90 0.1933
845.00 0.1932
845.10 0.1931
845.20 0.1931
845.30 0.193
845.40 0.1929
845.50 0.1928
845.60 0.1928
845.70 0.1927
845.80 0.1926
845.90 0.1925
846.00 0.1924
846.10 0.1924
846.20 0.1923
846.30 0.1922
846.40 0.1921
846.50 0.1921
846.60 0.192
846.70 0.1919
846.80 0.1918
846.90 0.1917
847.00 0.1917
847.10 0.1916
847.20 0.1916
847.30 0.1915
847.40 0.1915
847.50 0.1914
847.60 0.1914
847.70 0.1914
847.80 0.1913
847.90 0.1913
848.00 0.1912
848.10 0.1912
848.20 0.1911
848.30 0.1911
848.40 0.191
848.50 0.191
848.60 0.191
848.70 0.1909
848.80 0.1909
848.90 0.1908
849.00 0.1908
849.10 0.1907
849.20 0.1907
849.30 0.1906
849.40 0.1906
849.50 0.1906
849.60 0.1905
849.70 0.1905
849.80 0.1904
849.90 0.1904
850.00 0.1903
850.10 0.1903
850.20 0.1903
850.30 0.1902
850.40 0.1902
850.50 0.1901
850.60 0.1901
850.70 0.19
850.80 0.19
850.90 0.1899
851.00 0.1899
851.10 0.1899
851.20 0.1898
851.30 0.1898
851.40 0.1897
851.50 0.1897
851.60 0.1896
851.70 0.1896
851.80 0.1895
851.90 0.1895
852.00 0.1895
852.10 0.1894
852.20 0.1894
852.30 0.1893
852.40 0.1893
852.50 0.1892
852.60 0.1891
852.70 0.1891
852.80 0.189
852.90 0.189
853.00 0.1889
853.10 0.1889
853.20 0.1888
853.30 0.1888
853.40 0.1887
853.50 0.1887
853.60 0.1886
853.70 0.1886
853.80 0.1885
853.90 0.1885
854.00 0.1884
854.10 0.1884
854.20 0.1883
854.30 0.1883
854.40 0.1882
854.50 0.1882
854.60 0.1881
854.70 0.1881
854.80 0.188
854.90 0.1879
855.00 0.1879
855.10 0.1878
855.20 0.1878
855.30 0.1877
855.40 0.1877
855.50 0.1876
855.60 0.1876
855.70 0.1875
855.80 0.1875
855.90 0.1874
856.00 0.1874
856.10 0.1873
856.20 0.1873
856.30 0.1872
856.40 0.1872
856.50 0.1871
856.60 0.1871
856.70 0.187
856.80 0.187
856.90 0.1869
857.00 0.1869
857.10 0.1868
857.20 0.1868
857.30 0.1867
857.40 0.1867
857.50 0.1866
857.60 0.1866
857.70 0.1865
857.80 0.1865
857.90 0.1865
858.00 0.1864
858.10 0.1864
858.20 0.1863
858.30 0.1863
858.40 0.1862
858.50 0.1862
858.60 0.1861
858.70 0.1861
858.80 0.186
858.90 0.186
859.00 0.186
859.10 0.1859
859.20 0.1859
859.30 0.1858
859.40 0.1858
859.50 0.1857
859.60 0.1857
859.70 0.1856
859.80 0.1856
859.90 0.1855
860.00 0.1855
860.10 0.1855
860.20 0.1854
860.30 0.1854
860.40 0.1853
860.50 0.1853
860.60 0.1852
860.70 0.1852
860.80 0.1851
860.90 0.1851
861.00 0.1851
861.10 0.185
861.20 0.185
861.30 0.1849
861.40 0.1849
861.50 0.1848
861.60 0.1848
861.70 0.1847
861.80 0.1847
861.90 0.1846
862.00 0.1846
862.10 0.1845
862.20 0.1844
862.30 0.1843
862.40 0.1843
862.50 0.1842
862.60 0.1841
862.70 0.184
862.80 0.1839
862.90 0.1838
863.00 0.1838
863.10 0.1837
863.20 0.1836
863.30 0.1835
863.40 0.1834
863.50 0.1833
863.60 0.1832
863.70 0.1832
863.80 0.1831
863.90 0.183
864.00 0.1829
864.10 0.1828
864.20 0.1827
864.30 0.1827
864.40 0.1826
864.50 0.1825
864.60 0.1824
864.70 0.1823
864.80 0.1822
864.90 0.1821
865.00 0.1821
865.10 0.182
865.20 0.1819
865.30 0.1818
865.40 0.1817
865.50 0.1816
865.60 0.1816
865.70 0.1815
865.80 0.1814
865.90 0.1813
866.00 0.1812
866.10 0.1811
866.20 0.1811
866.30 0.181
866.40 0.1809
866.50 0.1808
866.60 0.1807
866.70 0.1806
866.80 0.1806
866.90 0.1805
867.00 0.1804
867.10 0.1804
867.20 0.1804
867.30 0.1804
867.40 0.1804
867.50 0.1804
867.60 0.1804
867.70 0.1804
867.80 0.1804
867.90 0.1804
868.00 0.1804
868.10 0.1804
868.20 0.1804
868.30 0.1804
868.40 0.1804
868.50 0.1804
868.60 0.1804
868.70 0.1804
868.80 0.1804
868.90 0.1804
869.00 0.1804
869.10 0.1804
869.20 0.1804
869.30 0.1804
869.40 0.1804
869.50 0.1804
869.60 0.1804
869.70 0.1804
869.80 0.1804
869.90 0.1804
870.00 0.1804
870.10 0.1804
870.20 0.1804
870.30 0.1804
870.40 0.1804
870.50 0.1804
870.60 0.1804
870.70 0.1804
870.80 0.1804
870.90 0.1804
871.00 0.1804
871.10 0.1804
871.20 0.1804
871.30 0.1804
871.40 0.1804
871.50 0.1804
871.60 0.1804
871.70 0.1804
871.80 0.1804
871.90 0.1804
872.00 0.1804
872.10 0.1803
872.20 0.1802
872.30 0.1801
872.40 0.18
872.50 0.1799
872.60 0.1797
872.70 0.1796
872.80 0.1795
872.90 0.1794
873.00 0.1793
873.10 0.1792
873.20 0.1791
873.30 0.1789
873.40 0.1788
873.50 0.1787
873.60 0.1786
873.70 0.1785
873.80 0.1784
873.90 0.1783
874.00 0.1781
874.10 0.178
874.20 0.1779
874.30 0.1778
874.40 0.1777
874.50 0.1776
874.60 0.1775
874.70 0.1773
874.80 0.1772
874.90 0.1771
875.00 0.177
875.10 0.1769
875.20 0.1768
875.30 0.1767
875.40 0.1765
875.50 0.1764
875.60 0.1763
875.70 0.1762
875.80 0.1761
875.90 0.176
876.00 0.1759
876.10 0.1758
876.20 0.1756
876.30 0.1755
876.40 0.1754
876.50 0.1753
876.60 0.1752
876.70 0.1751
876.80 0.175
876.90 0.1749
877.00 0.1747
877.10 0.1747
877.20 0.1748
877.30 0.1748
877.40 0.1748
877.50 0.1748
877.60 0.1748
877.70 0.1748
877.80 0.1748
877.90 0.1748
878.00 0.1748
878.10 0.1748
878.20 0.1748
878.30 0.1748
878.40 0.1749
878.50 0.1749
878.60 0.1749
878.70 0.1749
878.80 0.1749
878.90 0.1749
879.00 0.1749
879.10 0.1749
879.20 0.1749
879.30 0.1749
879.40 0.1749
879.50 0.1749
879.60 0.175
879.70 0.175
879.80 0.175
879.90 0.175
880.00 0.175
880.10 0.175
880.20 0.175
880.30 0.175
880.40 0.175
880.50 0.175
880.60 0.175
880.70 0.175
880.80 0.175
880.90 0.1751
881.00 0.1751
881.10 0.1751
881.20 0.1751
881.30 0.1751
881.40 0.1751
881.50 0.1751
881.60 0.1751
881.70 0.1751
881.80 0.1751
881.90 0.1751
882.00 0.1751
882.10 0.1748
882.20 0.1744
882.30 0.1741
882.40 0.1737
882.50 0.1734
882.60 0.173
882.70 0.1727
882.80 0.1723
882.90 0.172
883.00 0.1716
883.10 0.1713
883.20 0.1709
883.30 0.1706
883.40 0.1703
883.50 0.1699
883.60 0.1696
883.70 0.1692
883.80 0.1689
883.90 0.1685
884.00 0.1682
884.10 0.1678
884.20 0.1675
884.30 0.1671
884.40 0.1668
884.50 0.1664
884.60 0.1661
884.70 0.1657
884.80 0.1654
884.90 0.165
885.00 0.1647
885.10 0.1643
885.20 0.164
885.30 0.1637
885.40 0.1633
885.50 0.163
885.60 0.1626
885.70 0.1623
885.80 0.1619
885.90 0.1616
886.00 0.1612
886.10 0.1609
886.20 0.1606
886.30 0.1602
886.40 0.1599
886.50 0.1595
886.60 0.1592
886.70 0.1588
886.80 0.1585
886.90 0.1581
887.00 0.1578
887.10 0.158
887.20 0.1583
887.30 0.1585
887.40 0.1588
887.50 0.159
887.60 0.1593
887.70 0.1595
887.80 0.1597
887.90 0.16
888.00 0.1602
888.10 0.1605
888.20 0.1607
888.30 0.161
888.40 0.1612
888.50 0.1614
888.60 0.1617
888.70 0.1619
888.80 0.1622
888.90 0.1624
889.00 0.1626
889.10 0.1629
889.20 0.1631
889.30 0.1634
889.40 0.1636
889.50 0.1638
889.60 0.1641
889.70 0.1643
889.80 0.1646
889.90 0.1648
890.00 0.165
890.10 0.1653
890.20 0.1655
890.30 0.1658
890.40 0.166
890.50 0.1662
890.60 0.1665
890.70 0.1667
890.80 0.167
890.90 0.1672
891.00 0.1674
891.10 0.1677
891.20 0.1679
891.30 0.1682
891.40 0.1684
891.50 0.1686
891.60 0.1689
891.70 0.1691
891.80 0.1693
891.90 0.1696
892.00 0.1698
892.10 0.1697
892.20 0.1696
892.30 0.1695
892.40 0.1693
892.50 0.1692
892.60 0.1691
892.70 0.169
892.80 0.1689
892.90 0.1687
893.00 0.1686
893.10 0.1685
893.20 0.1684
893.30 0.1683
893.40 0.1681
893.50 0.168
893.60 0.1679
893.70 0.1678
893.80 0.1677
893.90 0.1675
894.00 0.1674
894.10 0.1673
894.20 0.1672
894.30 0.1671
894.40 0.167
894.50 0.1668
894.60 0.1667
894.70 0.1666
894.80 0.1665
894.90 0.1664
895.00 0.1662
895.10 0.1661
895.20 0.166
895.30 0.1659
895.40 0.1658
895.50 0.1656
895.60 0.1655
895.70 0.1654
895.80 0.1653
895.90 0.1652
896.00 0.1651
896.10 0.1649
896.20 0.1648
896.30 0.1647
896.40 0.1646
896.50 0.1645
896.60 0.1644
896.70 0.1642
896.80 0.1641
896.90 0.164
897.00 0.1639
897.10 0.1634
897.20 0.1628
897.30 0.1623
897.40 0.1618
897.50 0.1613
897.60 0.1608
897.70 0.1603
897.80 0.1598
897.90 0.1592
898.00 0.1587
898.10 0.1582
898.20 0.1577
898.30 0.1572
898.40 0.1567
898.50 0.1562
898.60 0.1556
898.70 0.1551
898.80 0.1546
898.90 0.1541
899.00 0.1536
899.10 0.1531
899.20 0.1526
899.30 0.152
899.40 0.1515
899.50 0.151
899.60 0.1505
899.70 0.15
899.80 0.1495
899.90 0.149
900.00 0.1485
900.10 0.148
900.20 0.1475
900.30 0.1469
900.40 0.1464
900.50 0.1459
900.60 0.1454
900.70 0.1449
900.80 0.1444
900.90 0.1439
901.00 0.1434
901.10 0.1429
901.20 0.1424
901.30 0.1419
901.40 0.1414
901.50 0.1408
901.60 0.1403
901.70 0.1398
901.80 0.1393
901.90 0.1388
902.00 0.1383
902.10 0.1387
902.20 0.139
902.30 0.1394
902.40 0.1397
902.50 0.1401
902.60 0.1405
902.70 0.1408
902.80 0.1412
902.90 0.1415
903.00 0.1419
903.10 0.1422
903.20 0.1426
903.30 0.143
903.40 0.1433
903.50 0.1437
903.60 0.144
903.70 0.1444
903.80 0.1447
903.90 0.1451
904.00 0.1455
904.10 0.1458
904.20 0.1462
904.30 0.1465
904.40 0.1469
904.50 0.1472
904.60 0.1476
904.70 0.1479
904.80 0.1483
904.90 0.1486
905.00 0.149
905.10 0.1494
905.20 0.1497
905.30 0.1501
905.40 0.1504
905.50 0.1508
905.60 0.1511
905.70 0.1515
905.80 0.1518
905.90 0.1522
906.00 0.1525
906.10 0.1529
906.20 0.1532
906.30 0.1536
906.40 0.1539
906.50 0.1543
906.60 0.1546
906.70 0.155
906.80 0.1553
906.90 0.1557
907.00 0.156
907.10 0.1561
907.20 0.1561
907.30 0.1562
907.40 0.1563
907.50 0.1563
907.60 0.1564
907.70 0.1564
907.80 0.1565
907.90 0.1565
908.00 0.1566
908.10 0.1566
908.20 0.1567
908.30 0.1567
908.40 0.1568
908.50 0.1568
908.60 0.1569
908.70 0.1569
908.80 0.157
908.90 0.157
909.00 0.1571
909.10 0.1571
909.20 0.1572
909.30 0.1572
909.40 0.1573
909.50 0.1574
909.60 0.1574
909.70 0.1575
909.80 0.1575
909.90 0.1576
910.00 0.1576
910.10 0.1577
910.20 0.1577
910.30 0.1578
910.40 0.1578
910.50 0.1579
910.60 0.1579
910.70 0.158
910.80 0.158
910.90 0.1581
911.00 0.1581
911.10 0.1582
911.20 0.1582
911.30 0.1583
911.40 0.1583
911.50 0.1584
911.60 0.1584
911.70 0.1585
911.80 0.1585
911.90 0.1586
912.00 0.1586
912.10 0.1584
912.20 0.1582
912.30 0.158
912.40 0.1578
912.50 0.1575
912.60 0.1573
912.70 0.1571
912.80 0.1569
912.90 0.1567
913.00 0.1564
913.10 0.1562
913.20 0.156
913.30 0.1558
913.40 0.1556
913.50 0.1553
913.60 0.1551
913.70 0.1549
913.80 0.1547
913.90 0.1545
914.00 0.1542
914.10 0.154
914.20 0.1538
914.30 0.1536
914.40 0.1534
914.50 0.1531
914.60 0.1529
914.70 0.1527
914.80 0.1525
914.90 0.1523
915.00 0.152
915.10 0.1518
915.20 0.1516
915.30 0.1514
915.40 0.1512
915.50 0.151
915.60 0.1507
915.70 0.1505
915.80 0.1503
915.90 0.1501
916.00 0.1499
916.10 0.1496
916.20 0.1494
916.30 0.1492
916.40 0.149
916.50 0.1488
916.60 0.1486
916.70 0.1483
916.80 0.1481
916.90 0.1479
917.00 0.1477
917.10 0.1471
917.20 0.1465
917.30 0.146
917.40 0.1454
917.50 0.1448
917.60 0.1442
917.70 0.1437
917.80 0.1431
917.90 0.1425
918.00 0.142
918.10 0.1414
918.20 0.1408
918.30 0.1402
918.40 0.1397
918.50 0.1391
918.60 0.1385
918.70 0.138
918.80 0.1374
918.90 0.1368
919.00 0.1362
919.10 0.1357
919.20 0.1351
919.30 0.1345
919.40 0.134
919.50 0.1334
919.60 0.1328
919.70 0.1323
919.80 0.1317
919.90 0.1311
920.00 0.1306
920.10 0.13
920.20 0.1294
920.30 0.1289
920.40 0.1283
920.50 0.1277
920.60 0.1272
920.70 0.1266
920.80 0.126
920.90 0.1255
921.00 0.1249
921.10 0.1243
921.20 0.1238
921.30 0.1232
921.40 0.1226
921.50 0.1221
921.60 0.1215
921.70 0.1209
921.80 0.1204
921.90 0.1198
922.00 0.1193
922.10 0.1196
922.20 0.1199
922.30 0.1202
922.40 0.1205
922.50 0.1208
922.60 0.1212
922.70 0.1215
922.80 0.1218
922.90 0.1221
923.00 0.1224
923.10 0.1227
923.20 0.1231
923.30 0.1234
923.40 0.1237
923.50 0.124
923.60 0.1243
923.70 0.1246
923.80 0.1249
923.90 0.1253
924.00 0.1256
924.10 0.1259
924.20 0.1262
924.30 0.1265
924.40 0.1268
924.50 0.1272
924.60 0.1275
924.70 0.1278
924.80 0.1281
924.90 0.1284
925.00 0.1287
925.10 0.129
925.20 0.1293
925.30 0.1297
925.40 0.13
925.50 0.1303
925.60 0.1306
925.70 0.1309
925.80 0.1312
925.90 0.1315
926.00 0.1319
926.10 0.1322
926.20 0.1325
926.30 0.1328
926.40 0.1331
926.50 0.1334
926.60 0.1337
926.70 0.134
926.80 0.1343
926.90 0.1347
927.00 0.135
927.10 0.1352
927.20 0.1354
927.30 0.1356
927.40 0.1358
927.50 0.136
927.60 0.1362
927.70 0.1365
927.80 0.1367
927.90 0.1369
928.00 0.1371
928.10 0.1373
928.20 0.1375
928.30 0.1377
928.40 0.138
928.50 0.1382
928.60 0.1384
928.70 0.1386
928.80 0.1388
928.90 0.139
929.00 0.1392
929.10 0.1394
929.20 0.1397
929.30 0.1399
929.40 0.1401
929.50 0.1403
929.60 0.1405
929.70 0.1407
929.80 0.1409
929.90 0.1411
930.00 0.1413
930.10 0.1416
930.20 0.1418
930.30 0.142
930.40 0.1422
930.50 0.1424
930.60 0.1426
930.70 0.1428
930.80 0.143
930.90 0.1432
931.00 0.1435
931.10 0.1437
931.20 0.1439
931.30 0.1441
931.40 0.1443
931.50 0.1445
931.60 0.1447
931.70 0.1449
931.80 0.1451
931.90 0.1453
932.00 0.1456
932.10 0.1456
932.20 0.1457
932.30 0.1457
932.40 0.1458
932.50 0.1459
932.60 0.1459
932.70 0.146
932.80 0.1461
932.90 0.1461
933.00 0.1462
933.10 0.1462
933.20 0.1463
933.30 0.1464
933.40 0.1464
933.50 0.1465
933.60 0.1465
933.70 0.1466
933.80 0.1467
933.90 0.1467
934.00 0.1468
934.10 0.1469
934.20 0.1469
934.30 0.147
934.40 0.147
934.50 0.147
934.60 0.147
934.70 0.147
934.80 0.147
934.90 0.147
935.00 0.147
935.10 0.147
935.20 0.147
935.30 0.147
935.40 0.147
935.50 0.147
935.60 0.147
935.70 0.147
935.80 0.147
935.90 0.147
936.00 0.147
936.10 0.147
936.20 0.147
936.30 0.147
936.40 0.147
936.50 0.147
936.60 0.147
936.70 0.147
936.80 0.147
936.90 0.147
937.00 0.147
937.10 0.147
937.20 0.1469
937.30 0.1469
937.40 0.1469
937.50 0.1468
937.60 0.1468
937.70 0.1468
937.80 0.1467
937.90 0.1467
938.00 0.1466
938.10 0.1466
938.20 0.1466
938.30 0.1465
938.40 0.1465
938.50 0.1464
938.60 0.1463
938.70 0.1463
938.80 0.1462
938.90 0.1461
939.00 0.146
939.10 0.146
939.20 0.1459
939.30 0.1458
939.40 0.1458
939.50 0.1457
939.60 0.1456
939.70 0.1456
939.80 0.1455
939.90 0.1454
940.00 0.1454
940.10 0.1453
940.20 0.1452
940.30 0.1452
940.40 0.145
940.50 0.1449
940.60 0.1448
940.70 0.1447
940.80 0.1446
940.90 0.1445
941.00 0.1444
941.10 0.1443
941.20 0.1442
941.30 0.1441
941.40 0.144
941.50 0.1439
941.60 0.1438
941.70 0.1437
941.80 0.1436
941.90 0.1434
942.00 0.1433
942.10 0.1432
942.20 0.1431
942.30 0.1429
942.40 0.1428
942.50 0.1426
942.60 0.1425
942.70 0.1423
942.80 0.1421
942.90 0.142
943.00 0.1418
943.10 0.1417
943.20 0.1415
943.30 0.1413
943.40 0.1412
943.50 0.141
943.60 0.1409
943.70 0.1407
943.80 0.1405
943.90 0.1404
944.00 0.1402
944.10 0.14
944.20 0.1399
944.30 0.1397
944.40 0.1395
944.50 0.1393
944.60 0.1391
944.70 0.1389
944.80 0.1387
944.90 0.1385
945.00 0.1383
945.10 0.1381
945.20 0.1379
945.30 0.1376
945.40 0.1374
945.50 0.1371
945.60 0.1369
945.70 0.1366
945.80 0.1363
945.90 0.1361
946.00 0.1358
946.10 0.1356
946.20 0.1353
946.30 0.1351
946.40 0.1348
946.50 0.1345
946.60 0.1343
946.70 0.134
946.80 0.1338
946.90 0.1335
947.00 0.1333
947.10 0.1329
947.20 0.1326
947.30 0.1323
947.40 0.132
947.50 0.1316
947.60 0.1313
947.70 0.1309
947.80 0.1305
947.90 0.1302
948.00 0.1298
948.10 0.1295
948.20 0.1291
948.30 0.1288
948.40 0.1284
948.50 0.128
948.60 0.1277
948.70 0.1273
948.80 0.127
948.90 0.1266
949.00 0.1263
949.10 0.1259
949.20 0.1255
949.30 0.1252
949.40 0.1247
949.50 0.1242
949.60 0.1238
949.70 0.1233
949.80 0.1228
949.90 0.1223
950.00 0.1219
950.10 0.1214
950.20 0.1209
950.30 0.1205
950.40 0.12
950.50 0.1195
950.60 0.119
950.70 0.1186
950.80 0.1181
950.90 0.1176
951.00 0.1172
951.10 0.1167
951.20 0.1162
951.30 0.1157
951.40 0.1152
951.50 0.1146
951.60 0.114
951.70 0.1135
951.80 0.1129
951.90 0.1124
952.00 0.1118
952.10 0.1112
952.20 0.1106
952.30 0.11
952.40 0.1094
952.50 0.1087
952.60 0.1081
952.70 0.1075
952.80 0.1069
952.90 0.1063
953.00 0.1057
953.10 0.105
953.20 0.1044
953.30 0.1038
953.40 0.1032
953.50 0.1026
953.60 0.102
953.70 0.1015
953.80 0.101
953.90 0.1005
954.00 0.1004
954.10 0.1002
954.20 0.1007
954.30 0.1026
954.40 0.1008
954.50 0.1001
954.60 0.1002
954.70 0.1002
954.80 0.1007
954.90 0.1011
955.00 0.1016
955.10 0.102
955.20 0.1026
955.30 0.1031
955.40 0.1037
955.50 0.1042
955.60 0.1048
955.70 0.1053
955.80 0.1059
955.90 0.1064
956.00 0.1069
956.10 0.1074
956.20 0.108
956.30 0.1085
956.40 0.109
956.50 0.1095
956.60 0.11
956.70 0.1105
956.80 0.111
956.90 0.1116
957.00 0.1121
957.10 0.1125
957.20 0.113
957.30 0.1134
957.40 0.1138
957.50 0.1142
957.60 0.1146
957.70 0.115
957.80 0.1153
957.90 0.1157
958.00 0.1161
958.10 0.1165
958.20 0.1168
958.30 0.1172
958.40 0.1176
958.50 0.1179
958.60 0.1183
958.70 0.1187
958.80 0.1191
958.90 0.1194
959.00 0.1198
959.10 0.1202
959.20 0.1206
959.30 0.1209
959.40 0.1212
959.50 0.1214
959.60 0.1217
959.70 0.1219
959.80 0.1222
959.90 0.1224
960.00 0.1227
960.10 0.1229
960.20 0.1232
960.30 0.1234
960.40 0.1237
960.50 0.124
960.60 0.1242
960.70 0.1245
960.80 0.1247
960.90 0.125
961.00 0.1252
961.10 0.1255
961.20 0.1257
961.30 0.126
961.40 0.1261
961.50 0.1263
961.60 0.1265
961.70 0.1267
961.80 0.1269
961.90 0.1271
962.00 0.1273
962.10 0.1274
962.20 0.1275
962.30 0.1277
962.40 0.1278
962.50 0.128
962.60 0.1281
962.70 0.1283
962.80 0.1284
962.90 0.1286
963.00 0.1287
963.10 0.1289
963.20 0.129
963.30 0.1292
963.40 0.1293
963.50 0.1294
963.60 0.1295
963.70 0.1296
963.80 0.1297
963.90 0.1298
964.00 0.1299
964.10 0.13
964.20 0.1302
964.30 0.1303
964.40 0.1303
964.50 0.1304
964.60 0.1305
964.70 0.1306
964.80 0.1306
964.90 0.1307
965.00 0.1308
965.10 0.1308
965.20 0.1309
965.30 0.131
965.40 0.1311
965.50 0.1311
965.60 0.1312
965.70 0.1313
965.80 0.1313
965.90 0.1314
966.00 0.1315
966.10 0.1316
966.20 0.1316
966.30 0.1317
966.40 0.1317
966.50 0.1318
966.60 0.1318
966.70 0.1319
966.80 0.1319
966.90 0.132
967.00 0.132
967.10 0.132
967.20 0.1321
967.30 0.1321
967.40 0.1321
967.50 0.1322
967.60 0.1322
967.70 0.1322
967.80 0.1323
967.90 0.1323
968.00 0.1323
968.10 0.1323
968.20 0.1324
968.30 0.1324
968.40 0.1324
968.50 0.1324
968.60 0.1324
968.70 0.1324
968.80 0.1325
968.90 0.1325
969.00 0.1325
969.10 0.1325
969.20 0.1325
969.30 0.1325
969.40 0.1325
969.50 0.1325
969.60 0.1325
969.70 0.1325
969.80 0.1326
969.90 0.1326
970.00 0.1326
970.10 0.1326
970.20 0.1326
970.30 0.1326
970.40 0.1326
970.50 0.1326
970.60 0.1326
970.70 0.1326
970.80 0.1326
970.90 0.1326
971.00 0.1325
971.10 0.1325
971.20 0.1325
971.30 0.1325
971.40 0.1325
971.50 0.1325
971.60 0.1325
971.70 0.1325
971.80 0.1325
971.90 0.1325
972.00 0.1325
972.10 0.1324
972.20 0.1324
972.30 0.1324
972.40 0.1324
972.50 0.1324
972.60 0.1323
972.70 0.1323
972.80 0.1323
972.90 0.1323
973.00 0.1323
973.10 0.1322
973.20 0.1322
973.30 0.1322
973.40 0.1322
973.50 0.1322
973.60 0.1321
973.70 0.1321
973.80 0.1321
973.90 0.1321
974.00 0.1321
974.10 0.132
974.20 0.132
974.30 0.132
974.40 0.132
974.50 0.1319
974.60 0.1319
974.70 0.1319
974.80 0.1318
974.90 0.1318
975.00 0.1318
975.10 0.1317
975.20 0.1317
975.30 0.1317
975.40 0.1316
975.50 0.1316
975.60 0.1316
975.70 0.1315
975.80 0.1315
975.90 0.1315
976.00 0.1314
976.10 0.1314
976.20 0.1314
976.30 0.1313
976.40 0.1313
976.50 0.1313
976.60 0.1312
976.70 0.1312
976.80 0.1312
976.90 0.1311
977.00 0.1311
977.10 0.1311
977.20 0.131
977.30 0.131
977.40 0.1309
977.50 0.1309
977.60 0.1308
977.70 0.1308
977.80 0.1307
977.90 0.1307
978.00 0.1306
978.10 0.1306
978.20 0.1305
978.30 0.1305
978.40 0.1305
978.50 0.1304
978.60 0.1304
978.70 0.1303
978.80 0.1303
978.90 0.1302
979.00 0.1302
979.10 0.1301
979.20 0.1301
979.30 0.13
979.40 0.13
979.50 0.1299
979.60 0.1299
979.70 0.1298
979.80 0.1298
979.90 0.1298
980.00 0.1297
980.10 0.1297
980.20 0.1296
980.30 0.1296
980.40 0.1295
980.50 0.1295
980.60 0.1294
980.70 0.1294
980.80 0.1293
980.90 0.1293
981.00 0.1292
981.10 0.1292
981.20 0.1292
981.30 0.1291
981.40 0.1291
981.50 0.129
981.60 0.129
981.70 0.1289
981.80 0.1289
981.90 0.1288
982.00 0.1288
982.10 0.1287
982.20 0.1287
982.30 0.1286
982.40 0.1285
982.50 0.1285
982.60 0.1284
982.70 0.1284
982.80 0.1283
982.90 0.1282
983.00 0.1282
983.10 0.1281
983.20 0.128
983.30 0.128
983.40 0.1279
983.50 0.1279
983.60 0.1278
983.70 0.1277
983.80 0.1277
983.90 0.1276
984.00 0.1276
984.10 0.1275
984.20 0.1274
984.30 0.1274
984.40 0.1273
984.50 0.1272
984.60 0.1272
984.70 0.1271
984.80 0.127
984.90 0.127
985.00 0.1269
985.10 0.1268
985.20 0.1267
985.30 0.1267
985.40 0.1266
985.50 0.1265
985.60 0.1265
985.70 0.1264
985.80 0.1263
985.90 0.1262
986.00 0.1262
986.10 0.1261
986.20 0.126
986.30 0.1259
986.40 0.1259
986.50 0.1258
986.60 0.1257
986.70 0.1256
986.80 0.1256
986.90 0.1255
987.00 0.1254
987.10 0.1253
987.20 0.1252
987.30 0.1252
987.40 0.1251
987.50 0.125
987.60 0.1249
987.70 0.1248
987.80 0.1247
987.90 0.1246
988.00 0.1246
988.10 0.1245
988.20 0.1244
988.30 0.1243
988.40 0.1242
988.50 0.1241
988.60 0.124
988.70 0.124
988.80 0.1238
988.90 0.1237
989.00 0.1236
989.10 0.1235
989.20 0.1234
989.30 0.1233
989.40 0.1232
989.50 0.1231
989.60 0.123
989.70 0.1229
989.80 0.1228
989.90 0.1227
990.00 0.1226
990.10 0.1225
990.20 0.1224
990.30 0.1223
990.40 0.1222
990.50 0.1221
990.60 0.122
990.70 0.1219
990.80 0.1218
990.90 0.1216
991.00 0.1215
991.10 0.1214
991.20 0.1213
991.30 0.1212
991.40 0.121
991.50 0.1209
991.60 0.1208
991.70 0.1207
991.80 0.1206
991.90 0.1204
992.00 0.1203
992.10 0.1202
992.20 0.1201
992.30 0.1199
992.40 0.1198
992.50 0.1196
992.60 0.1195
992.70 0.1193
992.80 0.1192
992.90 0.119
993.00 0.1189
993.10 0.1187
993.20 0.1186
993.30 0.1184
993.40 0.1182
993.50 0.1181
993.60 0.1179
993.70 0.1178
993.80 0.1176
993.90 0.1174
994.00 0.1173
994.10 0.1171
994.20 0.117
994.30 0.1168
994.40 0.1167
994.50 0.1165
994.60 0.1163
994.70 0.1162
994.80 0.116
994.90 0.1158
995.00 0.1156
995.10 0.1154
995.20 0.1152
995.30 0.115
995.40 0.1148
995.50 0.1147
995.60 0.1145
995.70 0.1143
995.80 0.114
995.90 0.1138
996.00 0.1136
996.10 0.1134
996.20 0.1132
996.30 0.1129
996.40 0.1127
996.50 0.1125
996.60 0.1123
996.70 0.1121
996.80 0.1118
996.90 0.1116
997.00 0.1114
997.10 0.1111
997.20 0.1109
997.30 0.1106
997.40 0.1104
997.50 0.1101
997.60 0.1099
997.70 0.1096
997.80 0.1093
997.90 0.109
998.00 0.1087
998.10 0.1084
998.20 0.1081
998.30 0.1078
998.40 0.1075
998.50 0.1072
998.60 0.1069
998.70 0.1066
998.80 0.1063
998.90 0.106
999.00 0.1057
999.10 0.1054
999.20 0.1051
999.30 0.1048
999.40 0.1045
999.50 0.1042
999.60 0.1039
999.70 0.1036
999.80 0.1032
999.90 0.1028
1000.00 0.1024
1000.10 0.102
1000.20 0.1016
1000.30 0.1012
1000.40 0.1008
1000.50 0.1004
1000.60 0.1001
1000.70 0.09966
1000.80 0.09928
1000.90 0.09889
1001.00 0.0985
1001.10 0.09811
1001.20 0.09772
1001.30 0.09734
1001.40 0.09695
1001.50 0.09656
1001.60 0.09618
1001.70 0.09574
1001.80 0.09528
1001.90 0.09483
1002.00 0.09437
1002.10 0.09387
1002.20 0.09336
1002.30 0.09286
1002.40 0.09235
1002.50 0.09185
1002.60 0.09135
1002.70 0.09084
1002.80 0.09034
1002.90 0.08984
1003.00 0.08933
1003.10 0.08883
1003.20 0.08827
1003.30 0.08768
1003.40 0.0871
1003.50 0.08652
1003.60 0.08593
1003.70 0.08535
1003.80 0.08477
1003.90 0.08412
1004.00 0.08346
1004.10 0.08279
1004.20 0.08213
1004.30 0.08142
1004.40 0.0807
1004.50 0.08008
1004.60 0.08044
1004.70 0.07992
1004.80 0.08028
1004.90 0.08095
1005.00 0.08162
1005.10 0.08224
1005.20 0.08285
1005.30 0.08347
1005.40 0.08408
1005.50 0.08462
1005.60 0.08515
1005.70 0.08568
1005.80 0.0862
1005.90 0.08673
1006.00 0.08725
1006.10 0.08777
1006.20 0.08824
1006.30 0.08869
1006.40 0.08914
1006.50 0.08959
1006.60 0.09004
1006.70 0.09048
1006.80 0.09093
1006.90 0.09138
1007.00 0.09183
1007.10 0.09222
1007.20 0.09261
1007.30 0.09301
1007.40 0.0934
1007.50 0.09379
1007.60 0.09418
1007.70 0.09452
1007.80 0.09483
1007.90 0.09515
1008.00 0.09546
1008.10 0.09577
1008.20 0.09609
1008.30 0.0964
1008.40 0.09671
1008.50 0.09703
1008.60 0.09734
1008.70 0.09765
1008.80 0.09797
1008.90 0.09828
1009.00 0.09859
1009.10 0.09891
1009.20 0.09922
1009.30 0.09953
1009.40 0.09984
1009.50 0.1002
1009.60 0.1005
1009.70 0.1007
1009.80 0.1009
1009.90 0.1011
1010.00 0.1014
1010.10 0.1016
1010.20 0.1018
1010.30 0.102
1010.40 0.1022
1010.50 0.1025
1010.60 0.1027
1010.70 0.1029
1010.80 0.1031
1010.90 0.1033
1011.00 0.1035
1011.10 0.1038
1011.20 0.104
1011.30 0.1042
1011.40 0.1044
1011.50 0.1046
1011.60 0.1048
1011.70 0.105
1011.80 0.1052
1011.90 0.1054
1012.00 0.1055
1012.10 0.1057
1012.20 0.1058
1012.30 0.106
1012.40 0.1061
1012.50 0.1062
1012.60 0.1064
1012.70 0.1065
1012.80 0.1067
1012.90 0.1068
1013.00 0.107
1013.10 0.1071
1013.20 0.1072
1013.30 0.1074
1013.40 0.1075
1013.50 0.1077
1013.60 0.1078
1013.70 0.1079
1013.80 0.108
1013.90 0.1081
1014.00 0.1082
1014.10 0.1083
1014.20 0.1084
1014.30 0.1085
1014.40 0.1086
1014.50 0.1087
1014.60 0.1088
1014.70 0.1089
1014.80 0.109
1014.90 0.1091
1015.00 0.1091
1015.10 0.1092
1015.20 0.1093
1015.30 0.1094
1015.40 0.1094
1015.50 0.1095
1015.60 0.1096
1015.70 0.1096
1015.80 0.1097
1015.90 0.1098
1016.00 0.1099
1016.10 0.1099
1016.20 0.11
1016.30 0.1101
1016.40 0.1102
1016.50 0.1102
1016.60 0.1103
1016.70 0.1104
1016.80 0.1104
1016.90 0.1105
1017.00 0.1105
1017.10 0.1106
1017.20 0.1106
1017.30 0.1106
1017.40 0.1107
1017.50 0.1107
1017.60 0.1107
1017.70 0.1108
1017.80 0.1108
1017.90 0.1109
1018.00 0.1109
1018.10 0.1109
1018.20 0.111
1018.30 0.111
1018.40 0.1111
1018.50 0.1111
1018.60 0.1111
1018.70 0.1112
1018.80 0.1112
1018.90 0.1112
1019.00 0.1112
1019.10 0.1112
1019.20 0.1113
1019.30 0.1113
1019.40 0.1113
1019.50 0.1113
1019.60 0.1113
1019.70 0.1114
1019.80 0.1114
1019.90 0.1114
1020.00 0.1114
1020.10 0.1114
1020.20 0.1115
1020.30 0.1115
1020.40 0.1115
1020.50 0.1115
1020.60 0.1115
1020.70 0.1115
1020.80 0.1115
1020.90 0.1115
1021.00 0.1115
1021.10 0.1116
1021.20 0.1116
1021.30 0.1116
1021.40 0.1116
1021.50 0.1116
1021.60 0.1116
1021.70 0.1116
1021.80 0.1116
1021.90 0.1116
1022.00 0.1116
1022.10 0.1116
1022.20 0.1116
1022.30 0.1116
1022.40 0.1116
1022.50 0.1116
1022.60 0.1116
1022.70 0.1115
1022.80 0.1115
1022.90 0.1115
1023.00 0.1115
1023.10 0.1115
1023.20 0.1115
1023.30 0.1115
1023.40 0.1115
1023.50 0.1115
1023.60 0.1115
1023.70 0.1115
1023.80 0.1115
1023.90 0.1115
1024.00 0.1115
1024.10 0.1115
1024.20 0.1115
1024.30 0.1115
1024.40 0.1114
1024.50 0.1114
1024.60 0.1114
1024.70 0.1114
1024.80 0.1114
1024.90 0.1114
1025.00 0.1114
1025.10 0.1114
1025.20 0.1113
1025.30 0.1113
1025.40 0.1113
1025.50 0.1113
1025.60 0.1113
1025.70 0.1113
1025.80 0.1112
1025.90 0.1112
1026.00 0.1112
1026.10 0.1112
1026.20 0.1112
1026.30 0.1112
1026.40 0.1111
1026.50 0.1111
1026.60 0.1111
1026.70 0.1111
1026.80 0.1111
1026.90 0.1111
1027.00 0.111
1027.10 0.111
1027.20 0.111
1027.30 0.111
1027.40 0.1109
1027.50 0.1109
1027.60 0.1109
1027.70 0.1109
1027.80 0.1108
1027.90 0.1108
1028.00 0.1108
1028.10 0.1108
1028.20 0.1107
1028.30 0.1107
1028.40 0.1107
1028.50 0.1107
1028.60 0.1106
1028.70 0.1106
1028.80 0.1106
1028.90 0.1106
1029.00 0.1105
1029.10 0.1105
1029.20 0.1105
1029.30 0.1105
1029.40 0.1104
1029.50 0.1104
1029.60 0.1104
1029.70 0.1104
1029.80 0.1103
1029.90 0.1103
1030.00 0.1103
1030.10 0.1103
1030.20 0.1102
1030.30 0.1102
1030.40 0.1102
1030.50 0.1102
1030.60 0.1101
1030.70 0.1101
1030.80 0.1101
1030.90 0.1101
1031.00 0.11
1031.10 0.11
1031.20 0.11
1031.30 0.11
1031.40 0.11
1031.50 0.1099
1031.60 0.1099
1031.70 0.1099
1031.80 0.1099
1031.90 0.1098
1032.00 0.1098
1032.10 0.1098
1032.20 0.1097
1032.30 0.1097
1032.40 0.1097
1032.50 0.1097
1032.60 0.1096
1032.70 0.1096
1032.80 0.1096
1032.90 0.1095
1033.00 0.1095
1033.10 0.1095
1033.20 0.1094
1033.30 0.1094
1033.40 0.1094
1033.50 0.1093
1033.60 0.1093
1033.70 0.1093
1033.80 0.1093
1033.90 0.1092
1034.00 0.1092
1034.10 0.1092
1034.20 0.1091
1034.30 0.1091
1034.40 0.1091
1034.50 0.109
1034.60 0.109
1034.70 0.109
1034.80 0.109
1034.90 0.1089
1035.00 0.1089
1035.10 0.1089
1035.20 0.1088
1035.30 0.1088
1035.40 0.1088
1035.50 0.1087
1035.60 0.1087
1035.70 0.1087
1035.80 0.1087
1035.90 0.1086
1036.00 0.1086
1036.10 0.1086
1036.20 0.1085
1036.30 0.1085
1036.40 0.1085
1036.50 0.1084
1036.60 0.1084
1036.70 0.1084
1036.80 0.1083
1036.90 0.1083
1037.00 0.1083
1037.10 0.1083
1037.20 0.1082
1037.30 0.1082
1037.40 0.1082
1037.50 0.1081
1037.60 0.1081
1037.70 0.1081
1037.80 0.108
1037.90 0.108
1038.00 0.108
1038.10 0.1079
1038.20 0.1079
1038.30 0.1079
1038.40 0.1078
1038.50 0.1078
1038.60 0.1078
1038.70 0.1077
1038.80 0.1077
1038.90 0.1077
1039.00 0.1076
1039.10 0.1076
1039.20 0.1076
1039.30 0.1075
1039.40 0.1075
1039.50 0.1075
1039.60 0.1074
1039.70 0.1074
1039.80 0.1074
1039.90 0.1073
1040.00 0.1073
1040.10 0.1073
1040.20 0.1072
1040.30 0.1072
1040.40 0.1072
1040.50 0.1071
1040.60 0.1071
1040.70 0.1071
1040.80 0.107
1040.90 0.107
1041.00 0.107
1041.10 0.1069
1041.20 0.1069
1041.30 0.1069
1041.40 0.1068
1041.50 0.1068
1041.60 0.1068
1041.70 0.1067
1041.80 0.1067
1041.90 0.1067
1042.00 0.1066
1042.10 0.1066
1042.20 0.1066
1042.30 0.1065
1042.40 0.1065
1042.50 0.1065
1042.60 0.1064
1042.70 0.1064
1042.80 0.1063
1042.90 0.1063
1043.00 0.1063
1043.10 0.1062
1043.20 0.1062
1043.30 0.1062
1043.40 0.1061
1043.50 0.1061
1043.60 0.1061
1043.70 0.106
1043.80 0.106
1043.90 0.106
1044.00 0.1059
1044.10 0.1059
1044.20 0.1059
1044.30 0.1058
1044.40 0.1058
1044.50 0.1058
1044.60 0.1057
1044.70 0.1057
1044.80 0.1057
1044.90 0.1056
1045.00 0.1056
1045.10 0.1056
1045.20 0.1055
1045.30 0.1055
1045.40 0.1055
1045.50 0.1054
1045.60 0.1054
1045.70 0.1054
1045.80 0.1053
1045.90 0.1053
1046.00 0.1053
1046.10 0.1052
1046.20 0.1052
1046.30 0.1051
1046.40 0.1051
1046.50 0.1051
1046.60 0.105
1046.70 0.105
1046.80 0.105
1046.90 0.1049
1047.00 0.1049
1047.10 0.1049
1047.20 0.1048
1047.30 0.1048
1047.40 0.1048
1047.50 0.1047
1047.60 0.1047
1047.70 0.1047
1047.80 0.1046
1047.90 0.1046
1048.00 0.1046
1048.10 0.1045
1048.20 0.1045
1048.30 0.1045
1048.40 0.1044
1048.50 0.1044
1048.60 0.1043
1048.70 0.1043
1048.80 0.1043
1048.90 0.1042
1049.00 0.1042
1049.10 0.1042
1049.20 0.1041
1049.30 0.1041
1049.40 0.1041
1049.50 0.104
1049.60 0.104
1049.70 0.104
1049.80 0.1039
1049.90 0.1039
1050.00 0.1039
1050.10 0.1038
1050.20 0.1038
1050.30 0.1038
1050.40 0.1037
1050.50 0.1037
1050.60 0.1036
1050.70 0.1036
1050.80 0.1036
1050.90 0.1035
1051.00 0.1035
1051.10 0.1035
1051.20 0.1034
1051.30 0.1034
1051.40 0.1034
1051.50 0.1033
1051.60 0.1033
1051.70 0.1033
1051.80 0.1032
1051.90 0.1032
1052.00 0.1032
1052.10 0.1031
1052.20 0.1031
1052.30 0.1031
1052.40 0.103
1052.50 0.103
1052.60 0.1029
1052.70 0.1029
1052.80 0.1029
1052.90 0.1028
1053.00 0.1028
1053.10 0.1028
1053.20 0.1027
1053.30 0.1027
1053.40 0.1027
1053.50 0.1026
1053.60 0.1026
1053.70 0.1026
1053.80 0.1025
1053.90 0.1025
1054.00 0.1024
1054.10 0.1024
1054.20 0.1024
1054.30 0.1023
1054.40 0.1023
1054.50 0.1023
1054.60 0.1022
1054.70 0.1022
1054.80 0.1022
1054.90 0.1021
1055.00 0.1021
1055.10 0.1021
1055.20 0.102
1055.30 0.102
1055.40 0.1019
1055.50 0.1019
1055.60 0.1019
1055.70 0.1018
1055.80 0.1018
1055.90 0.1018
1056.00 0.1017
1056.10 0.1017
1056.20 0.1017
1056.30 0.1016
1056.40 0.1016
1056.50 0.1016
1056.60 0.1015
1056.70 0.1015
1056.80 0.1015
1056.90 0.1014
1057.00 0.1014
1057.10 0.1013
1057.20 0.1013
1057.30 0.1013
1057.40 0.1012
1057.50 0.1012
1057.60 0.1012
1057.70 0.1011
1057.80 0.1011
1057.90 0.101
1058.00 0.101
1058.10 0.101
1058.20 0.1009
1058.30 0.1009
1058.40 0.1009
1058.50 0.1008
1058.60 0.1008
1058.70 0.1008
1058.80 0.1007
1058.90 0.1007
1059.00 0.1006
1059.10 0.1006
1059.20 0.1006
1059.30 0.1005
1059.40 0.1005
1059.50 0.1005
1059.60 0.1004
1059.70 0.1004
1059.80 0.1003
1059.90 0.1003
1060.00 0.1003
1060.10 0.1002
1060.20 0.1002
1060.30 0.1002
1060.40 0.1001
1060.50 0.1001
1060.60 0.1001
1060.70 0.1
1060.80 0.09998
1060.90 0.09995
1061.00 0.09991
1061.10 0.09987
1061.20 0.09984
1061.30 0.0998
1061.40 0.09976
1061.50 0.09973
1061.60 0.09969
1061.70 0.09965
1061.80 0.09962
1061.90 0.09958
1062.00 0.09954
1062.10 0.09951
1062.20 0.09947
1062.30 0.09943
1062.40 0.09939
1062.50 0.09935
1062.60 0.09931
1062.70 0.09927
1062.80 0.09923
1062.90 0.09919
1063.00 0.09915
1063.10 0.09911
1063.20 0.09907
1063.30 0.09903
1063.40 0.09899
1063.50 0.09895
1063.60 0.09891
1063.70 0.09888
1063.80 0.09884
1063.90 0.0988
1064.00 0.09876
1064.10 0.09872
1064.20 0.09868
1064.30 0.09864
1064.40 0.0986
1064.50 0.09856
1064.60 0.09852
1064.70 0.09848
1064.80 0.09844
1064.90 0.09841
1065.00 0.09837
1065.10 0.09833
1065.20 0.09829
1065.30 0.09825
1065.40 0.09821
1065.50 0.09817
1065.60 0.09813
1065.70 0.09809
1065.80 0.09805
1065.90 0.09802
1066.00 0.09798
1066.10 0.09794
1066.20 0.0979
1066.30 0.09786
1066.40 0.09782
1066.50 0.09778
1066.60 0.09774
1066.70 0.0977
1066.80 0.09767
1066.90 0.09763
1067.00 0.09759
1067.10 0.09754
1067.20 0.0975
1067.30 0.09745
1067.40 0.09741
1067.50 0.09736
1067.60 0.09732
1067.70 0.09727
1067.80 0.09723
1067.90 0.09718
1068.00 0.09714
1068.10 0.0971
1068.20 0.09705
1068.30 0.09701
1068.40 0.09696
1068.50 0.09692
1068.60 0.09687
1068.70 0.09683
1068.80 0.09678
1068.90 0.09674
1069.00 0.09669
1069.10 0.09665
1069.20 0.09661
1069.30 0.09656
1069.40 0.09652
1069.50 0.09647
1069.60 0.09643
1069.70 0.09638
1069.80 0.09634
1069.90 0.09629
1070.00 0.09625
1070.10 0.09621
1070.20 0.09616
1070.30 0.09612
1070.40 0.09607
1070.50 0.09603
1070.60 0.09598
1070.70 0.09594
1070.80 0.0959
1070.90 0.09585
1071.00 0.09581
1071.10 0.09576
1071.20 0.09572
1071.30 0.09567
1071.40 0.09563
1071.50 0.09559
1071.60 0.09554
1071.70 0.0955
1071.80 0.09545
1071.90 0.09541
1072.00 0.09537
1072.10 0.09532
1072.20 0.09527
1072.30 0.09522
1072.40 0.09517
1072.50 0.09512
1072.60 0.09507
1072.70 0.09502
1072.80 0.09497
1072.90 0.09492
1073.00 0.09487
1073.10 0.09482
1073.20 0.09477
1073.30 0.09472
1073.40 0.09467
1073.50 0.09462
1073.60 0.09456
1073.70 0.0945
1073.80 0.09444
1073.90 0.09439
1074.00 0.09433
1074.10 0.09427
1074.20 0.09421
1074.30 0.09415
1074.40 0.09409
1074.50 0.09403
1074.60 0.09397
1074.70 0.09392
1074.80 0.09386
1074.90 0.0938
1075.00 0.09374
1075.10 0.09368
1075.20 0.09362
1075.30 0.09356
1075.40 0.0935
1075.50 0.09345
1075.60 0.09339
1075.70 0.09333
1075.80 0.09327
1075.90 0.09321
1076.00 0.09315
1076.10 0.0931
1076.20 0.09304
1076.30 0.09298
1076.40 0.09292
1076.50 0.09286
1076.60 0.0928
1076.70 0.09275
1076.80 0.09269
1076.90 0.09263
1077.00 0.09257
1077.10 0.09251
1077.20 0.09244
1077.30 0.09237
1077.40 0.09231
1077.50 0.09224
1077.60 0.09216
1077.70 0.09209
1077.80 0.09201
1077.90 0.09194
1078.00 0.09186
1078.10 0.09179
1078.20 0.09171
1078.30 0.09164
1078.40 0.09156
1078.50 0.09149
1078.60 0.09141
1078.70 0.09134
1078.80 0.09126
1078.90 0.09119
1079.00 0.09111
1079.10 0.09104
1079.20 0.09096
1079.30 0.09089
1079.40 0.09081
1079.50 0.09073
1079.60 0.09065
1079.70 0.09056
1079.80 0.09047
1079.90 0.09038
1080.00 0.09029
1080.10 0.0902
1080.20 0.09012
1080.30 0.09003
1080.40 0.08994
1080.50 0.08985
1080.60 0.08976
1080.70 0.08968
1080.80 0.08959
1080.90 0.0895
1081.00 0.08941
1081.10 0.08933
1081.20 0.08924
1081.30 0.08915
1081.40 0.08906
1081.50 0.08897
1081.60 0.08886
1081.70 0.08875
1081.80 0.08864
1081.90 0.08853
1082.00 0.08842
1082.10 0.0883
1082.20 0.08819
1082.30 0.08808
1082.40 0.08796
1082.50 0.08785
1082.60 0.08774
1082.70 0.08763
1082.80 0.08751
1082.90 0.0874
1083.00 0.08729
1083.10 0.08717
1083.20 0.08706
1083.30 0.08695
1083.40 0.08684
1083.50 0.08672
1083.60 0.08658
1083.70 0.08645
1083.80 0.08631
1083.90 0.08618
1084.00 0.08604
1084.10 0.0859
1084.20 0.08577
1084.30 0.08563
1084.40 0.0855
1084.50 0.08536
1084.60 0.08519
1084.70 0.08503
1084.80 0.08487
1084.90 0.08471
1085.00 0.08455
1085.10 0.08439
1085.20 0.08423
1085.30 0.08407
1085.40 0.0839
1085.50 0.08374
1085.60 0.08358
1085.70 0.08342
1085.80 0.08326
1085.90 0.0831
1086.00 0.08294
1086.10 0.08278
1086.20 0.08262
1086.30 0.08246
1086.40 0.0823
1086.50 0.08213
1086.60 0.08194
1086.70 0.08176
1086.80 0.08157
1086.90 0.08139
1087.00 0.08121
1087.10 0.08099
1087.20 0.08078
1087.30 0.08056
1087.40 0.08035
1087.50 0.08013
1087.60 0.07992
1087.70 0.07971
1087.80 0.07949
1087.90 0.07928
1088.00 0.07906
1088.10 0.07885
1088.20 0.07864
1088.30 0.07842
1088.40 0.07821
1088.50 0.07798
1088.60 0.07771
1088.70 0.07744
1088.80 0.07717
1088.90 0.0769
1089.00 0.07663
1089.10 0.07636
1089.20 0.07609
1089.30 0.07582
1089.40 0.07555
1089.50 0.07528
1089.60 0.07501
1089.70 0.07474
1089.80 0.07447
1089.90 0.0742
1090.00 0.07393
1090.10 0.07366
1090.20 0.07339
1090.30 0.07312
1090.40 0.07285
1090.50 0.07256
1090.60 0.07221
1090.70 0.07186
1090.80 0.07151
1090.90 0.07117
1091.00 0.07082
1091.10 0.07047
1091.20 0.07013
1091.30 0.06978
1091.40 0.06943
1091.50 0.06909
1091.60 0.06874
1091.70 0.06839
1091.80 0.06805
1091.90 0.0677
1092.00 0.06734
1092.10 0.0669
1092.20 0.06646
1092.30 0.06602
1092.40 0.06558
1092.50 0.06514
1092.60 0.0647
1092.70 0.06421
1092.80 0.06362
1092.90 0.06303
1093.00 0.06243
1093.10 0.06174
1093.20 0.06084
1093.30 0.05991
1093.40 0.05885
1093.50 0.05869
1093.60 0.05947
1093.70 0.06043
1093.80 0.0613
1093.90 0.06207
1094.00 0.06262
1094.10 0.06318
1094.20 0.06373
1094.30 0.06424
1094.40 0.06463
1094.50 0.06503
1094.60 0.06543
1094.70 0.06582
1094.80 0.06622
1094.90 0.06661
1095.00 0.06698
1095.10 0.06728
1095.20 0.06758
1095.30 0.06788
1095.40 0.06818
1095.50 0.06848
1095.60 0.06878
1095.70 0.06908
1095.80 0.06938
1095.90 0.06968
1096.00 0.06998
1096.10 0.07028
1096.20 0.07058
1096.30 0.07088
1096.40 0.07118
1096.50 0.07146
1096.60 0.07171
1096.70 0.07196
1096.80 0.07221
1096.90 0.07246
1097.00 0.07271
1097.10 0.07292
1097.20 0.07312
1097.30 0.07333
1097.40 0.07353
1097.50 0.07374
1097.60 0.07395
1097.70 0.07415
1097.80 0.07436
1097.90 0.07456
1098.00 0.07477
1098.10 0.07498
1098.20 0.07518
1098.30 0.07539
1098.40 0.07559
1098.50 0.07578
1098.60 0.07593
1098.70 0.07608
1098.80 0.07623
1098.90 0.07638
1099.00 0.07653
1099.10 0.07668
1099.20 0.07683
1099.30 0.07698
1099.40 0.07713
1099.50 0.07727
1099.60 0.07742
1099.70 0.07757
1099.80 0.07772
1099.90 0.07787
1100.00 0.07802
1100.10 0.07817
1100.20 0.07832
1100.30 0.07847
1100.40 0.07862
1100.50 0.07875
1100.60 0.07886
1100.70 0.07897
1100.80 0.07907
1100.90 0.07918
1101.00 0.07929
1101.10 0.0794
1101.20 0.0795
1101.30 0.07961
1101.40 0.07972
1101.50 0.07983
1101.60 0.07993
1101.70 0.08004
1101.80 0.08015
1101.90 0.08025
1102.00 0.08036
1102.10 0.08044
1102.20 0.08053
1102.30 0.08061
1102.40 0.08069
1102.50 0.08077
1102.60 0.08085
1102.70 0.08092
1102.80 0.081
1102.90 0.08107
1103.00 0.08115
1103.10 0.08122
1103.20 0.0813
1103.30 0.08137
1103.40 0.08145
1103.50 0.08151
1103.60 0.08156
1103.70 0.08162
1103.80 0.08167
1103.90 0.08172
1104.00 0.08177
1104.10 0.08182
1104.20 0.08187
1104.30 0.08192
1104.40 0.08197
1104.50 0.08202
1104.60 0.08208
1104.70 0.08213
1104.80 0.08218
1104.90 0.08223
1105.00 0.08228
1105.10 0.08233
1105.20 0.08238
1105.30 0.08243
1105.40 0.08248
1105.50 0.08253
1105.60 0.08256
1105.70 0.08258
1105.80 0.08261
1105.90 0.08264
1106.00 0.08267
1106.10 0.0827
1106.20 0.08273
1106.30 0.08276
1106.40 0.08279
1106.50 0.08282
1106.60 0.08284
1106.70 0.08287
1106.80 0.0829
1106.90 0.08293
1107.00 0.08296
1107.10 0.08298
1107.20 0.083
1107.30 0.08302
1107.40 0.08304
1107.50 0.08306
1107.60 0.08307
1107.70 0.08309
1107.80 0.0831
1107.90 0.08312
1108.00 0.08313
1108.10 0.08314
1108.20 0.08316
1108.30 0.08317
1108.40 0.08319
1108.50 0.0832
1108.60 0.08322
1108.70 0.08323
1108.80 0.08324
1108.90 0.08326
1109.00 0.08327
1109.10 0.08329
1109.20 0.0833
1109.30 0.08331
1109.40 0.08333
1109.50 0.08334
1109.60 0.08334
1109.70 0.08334
1109.80 0.08334
1109.90 0.08335
1110.00 0.08335
1110.10 0.08335
1110.20 0.08335
1110.30 0.08335
1110.40 0.08336
1110.50 0.08336
1110.60 0.08336
1110.70 0.08336
1110.80 0.08337
1110.90 0.08337
1111.00 0.08337
1111.10 0.08337
1111.20 0.08337
1111.30 0.08338
1111.40 0.08338
1111.50 0.08338
1111.60 0.08338
1111.70 0.08338
1111.80 0.08339
1111.90 0.08339
1112.00 0.08339
1112.10 0.08338
1112.20 0.08338
1112.30 0.08337
1112.40 0.08336
1112.50 0.08335
1112.60 0.08335
1112.70 0.08334
1112.80 0.08333
1112.90 0.08332
1113.00 0.08332
1113.10 0.08331
1113.20 0.0833
1113.30 0.0833
1113.40 0.08329
1113.50 0.08328
1113.60 0.08327
1113.70 0.08325
1113.80 0.08324
1113.90 0.08323
1114.00 0.08322
1114.10 0.0832
1114.20 0.08319
1114.30 0.08318
1114.40 0.08317
1114.50 0.08315
1114.60 0.08314
1114.70 0.08313
1114.80 0.08312
1114.90 0.0831
1115.00 0.08309
1115.10 0.08308
1115.20 0.08307
1115.30 0.08305
1115.40 0.08304
1115.50 0.08303
1115.60 0.08301
1115.70 0.083
1115.80 0.08299
1115.90 0.08298
1116.00 0.08296
1116.10 0.08295
1116.20 0.08294
1116.30 0.08293
1116.40 0.08291
1116.50 0.0829
1116.60 0.08289
1116.70 0.08288
1116.80 0.08286
1116.90 0.08285
1117.00 0.08284
1117.10 0.08282
1117.20 0.0828
1117.30 0.08278
1117.40 0.08277
1117.50 0.08275
1117.60 0.08273
1117.70 0.08271
1117.80 0.08269
1117.90 0.08268
1118.00 0.08266
1118.10 0.08264
1118.20 0.08262
1118.30 0.0826
1118.40 0.08259
1118.50 0.08257
1118.60 0.08255
1118.70 0.08253
1118.80 0.08251
1118.90 0.0825
1119.00 0.08248
1119.10 0.08246
1119.20 0.08244
1119.30 0.08242
1119.40 0.08241
1119.50 0.08239
1119.60 0.08237
1119.70 0.08235
1119.80 0.08233
1119.90 0.08232
1120.00 0.0823
1120.10 0.08228
1120.20 0.08226
1120.30 0.08224
1120.40 0.08223
1120.50 0.08221
1120.60 0.08219
1120.70 0.08217
1120.80 0.08216
1120.90 0.08214
1121.00 0.08212
1121.10 0.0821
1121.20 0.08208
1121.30 0.08207
1121.40 0.08205
1121.50 0.08203
1121.60 0.08201
1121.70 0.08199
1121.80 0.08198
1121.90 0.08196
1122.00 0.08194
1122.10 0.08192
1122.20 0.0819
1122.30 0.08188
1122.40 0.08185
1122.50 0.08183
1122.60 0.08181
1122.70 0.08179
1122.80 0.08177
1122.90 0.08175
1123.00 0.08173
1123.10 0.0817
1123.20 0.08168
1123.30 0.08166
1123.40 0.08164
1123.50 0.08162
1123.60 0.0816
1123.70 0.08157
1123.80 0.08155
1123.90 0.08153
1124.00 0.08151
1124.10 0.08149
1124.20 0.08147
1124.30 0.08145
1124.40 0.08142
1124.50 0.0814
1124.60 0.08138
1124.70 0.08136
1124.80 0.08134
1124.90 0.08132
1125.00 0.0813
1125.10 0.08127
1125.20 0.08125
1125.30 0.08123
1125.40 0.08121
1125.50 0.08119
1125.60 0.08117
1125.70 0.08115
1125.80 0.08113
1125.90 0.0811
1126.00 0.08108
1126.10 0.08106
1126.20 0.08104
1126.30 0.08102
1126.40 0.081
1126.50 0.08098
1126.60 0.08096
1126.70 0.08093
1126.80 0.08091
1126.90 0.08089
1127.00 0.08087
1127.10 0.08085
1127.20 0.08082
1127.30 0.0808
1127.40 0.08078
1127.50 0.08076
1127.60 0.08073
1127.70 0.08071
1127.80 0.08069
1127.90 0.08066
1128.00 0.08064
1128.10 0.08062
1128.20 0.08059
1128.30 0.08057
1128.40 0.08055
1128.50 0.08053
1128.60 0.0805
1128.70 0.08048
1128.80 0.08046
1128.90 0.08043
1129.00 0.08041
1129.10 0.08039
1129.20 0.08037
1129.30 0.08034
1129.40 0.08032
1129.50 0.0803
1129.60 0.08027
1129.70 0.08025
1129.80 0.08023
1129.90 0.08021
1130.00 0.08018
1130.10 0.08016
1130.20 0.08014
1130.30 0.08012
1130.40 0.08009
1130.50 0.08007
1130.60 0.08005
1130.70 0.08002
1130.80 0.08
1130.90 0.07998
1131.00 0.07996
1131.10 0.07993
1131.20 0.07991
1131.30 0.07989
1131.40 0.07987
1131.50 0.07984
1131.60 0.07982
1131.70 0.0798
1131.80 0.07978
1131.90 0.07975
1132.00 0.07973
1132.10 0.07971
1132.20 0.07968
1132.30 0.07966
1132.40 0.07964
1132.50 0.07961
1132.60 0.07959
1132.70 0.07957
1132.80 0.07954
1132.90 0.07952
1133.00 0.0795
1133.10 0.07947
1133.20 0.07945
1133.30 0.07942
1133.40 0.0794
1133.50 0.07938
1133.60 0.07935
1133.70 0.07933
1133.80 0.07931
1133.90 0.07928
1134.00 0.07926
1134.10 0.07924
1134.20 0.07921
1134.30 0.07919
1134.40 0.07917
1134.50 0.07914
1134.60 0.07912
1134.70 0.0791
1134.80 0.07907
1134.90 0.07905
1135.00 0.07903
1135.10 0.079
1135.20 0.07898
1135.30 0.07896
1135.40 0.07893
1135.50 0.07891
1135.60 0.07889
1135.70 0.07886
1135.80 0.07884
1135.90 0.07882
1136.00 0.0788
1136.10 0.07877
1136.20 0.07875
1136.30 0.07873
1136.40 0.0787
1136.50 0.07868
1136.60 0.07866
1136.70 0.07863
1136.80 0.07861
1136.90 0.07859
1137.00 0.07856
1137.10 0.07854
1137.20 0.07852
1137.30 0.07849
1137.40 0.07847
1137.50 0.07845
1137.60 0.07842
1137.70 0.0784
1137.80 0.07837
1137.90 0.07835
1138.00 0.07833
1138.10 0.0783
1138.20 0.07828
1138.30 0.07826
1138.40 0.07823
1138.50 0.07821
1138.60 0.07819
1138.70 0.07816
1138.80 0.07814
1138.90 0.07812
1139.00 0.07809
1139.10 0.07807
1139.20 0.07805
1139.30 0.07802
1139.40 0.078
1139.50 0.07798
1139.60 0.07795
1139.70 0.07793
1139.80 0.07791
1139.90 0.07788
1140.00 0.07786
1140.10 0.07784
1140.20 0.07781
1140.30 0.07779
1140.40 0.07777
1140.50 0.07774
1140.60 0.07772
1140.70 0.0777
1140.80 0.07767
1140.90 0.07765
1141.00 0.07763
1141.10 0.0776
1141.20 0.07758
1141.30 0.07756
1141.40 0.07753
1141.50 0.07751
1141.60 0.07749
1141.70 0.07746
1141.80 0.07744
1141.90 0.07742
1142.00 0.07739
1142.10 0.07737
1142.20 0.07735
1142.30 0.07732
1142.40 0.0773
1142.50 0.07728
1142.60 0.07725
1142.70 0.07723
1142.80 0.07721
1142.90 0.07718
1143.00 0.07716
1143.10 0.07714
1143.20 0.07711
1143.30 0.07709
1143.40 0.07707
1143.50 0.07704
1143.60 0.07702
1143.70 0.077
1143.80 0.07697
1143.90 0.07695
1144.00 0.07693
1144.10 0.0769
1144.20 0.07688
1144.30 0.07686
1144.40 0.07683
1144.50 0.07681
1144.60 0.07679
1144.70 0.07676
1144.80 0.07674
1144.90 0.07672
1145.00 0.07669
1145.10 0.07667
1145.20 0.07665
1145.30 0.07662
1145.40 0.0766
1145.50 0.07658
1145.60 0.07655
1145.70 0.07653
1145.80 0.07651
1145.90 0.07649
1146.00 0.07646
1146.10 0.07644
1146.20 0.07642
1146.30 0.07639
1146.40 0.07637
1146.50 0.07635
1146.60 0.07632
1146.70 0.0763
1146.80 0.07628
1146.90 0.07625
1147.00 0.07623
1147.10 0.07621
1147.20 0.07618
1147.30 0.07616
1147.40 0.07614
1147.50 0.07612
1147.60 0.07609
1147.70 0.07607
1147.80 0.07605
1147.90 0.07602
1148.00 0.076
1148.10 0.07598
1148.20 0.07595
1148.30 0.07593
1148.40 0.07591
1148.50 0.07588
1148.60 0.07586
1148.70 0.07584
1148.80 0.07581
1148.90 0.07579
1149.00 0.07577
1149.10 0.07575
1149.20 0.07572
1149.30 0.0757
1149.40 0.07568
1149.50 0.07565
1149.60 0.07563
1149.70 0.07561
1149.80 0.07558
1149.90 0.07556
1150.00 0.07554
1150.10 0.07551
1150.20 0.07549
1150.30 0.07547
1150.40 0.07545
1150.50 0.07542
1150.60 0.0754
1150.70 0.07538
1150.80 0.07535
1150.90 0.07533
1151.00 0.07531
1151.10 0.07529
1151.20 0.07526
1151.30 0.07524
1151.40 0.07522
1151.50 0.07519
1151.60 0.07517
1151.70 0.07515
1151.80 0.07512
1151.90 0.0751
1152.00 0.07508
1152.10 0.07506
1152.20 0.07503
1152.30 0.07501
1152.40 0.07499
1152.50 0.07496
1152.60 0.07494
1152.70 0.07492
1152.80 0.0749
1152.90 0.07487
1153.00 0.07485
1153.10 0.07483
1153.20 0.0748
1153.30 0.07478
1153.40 0.07476
1153.50 0.07474
1153.60 0.07471
1153.70 0.07469
1153.80 0.07467
1153.90 0.07464
1154.00 0.07462
1154.10 0.0746
1154.20 0.07458
1154.30 0.07455
1154.40 0.07453
1154.50 0.07451
1154.60 0.07449
1154.70 0.07446
1154.80 0.07444
1154.90 0.07442
1155.00 0.07439
1155.10 0.07437
1155.20 0.07435
1155.30 0.07433
1155.40 0.0743
1155.50 0.07428
1155.60 0.07426
1155.70 0.07424
1155.80 0.07421
1155.90 0.07419
1156.00 0.07417
1156.10 0.07414
1156.20 0.07412
1156.30 0.0741
1156.40 0.07408
1156.50 0.07405
1156.60 0.07403
1156.70 0.07401
1156.80 0.07399
1156.90 0.07396
1157.00 0.07394
1157.10 0.07392
1157.20 0.0739
1157.30 0.07387
1157.40 0.07385
1157.50 0.07383
1157.60 0.07381
1157.70 0.07378
1157.80 0.07376
1157.90 0.07374
1158.00 0.07372
1158.10 0.07369
1158.20 0.07367
1158.30 0.07365
1158.40 0.07363
1158.50 0.0736
1158.60 0.07358
1158.70 0.07356
1158.80 0.07354
1158.90 0.07351
1159.00 0.07349
1159.10 0.07347
1159.20 0.07345
1159.30 0.07342
1159.40 0.0734
1159.50 0.07338
1159.60 0.07336
1159.70 0.07333
1159.80 0.07331
1159.90 0.07329
1160.00 0.07327
1160.10 0.07324
1160.20 0.07322
1160.30 0.0732
1160.40 0.07318
1160.50 0.07315
1160.60 0.07313
1160.70 0.07311
1160.80 0.07309
1160.90 0.07307
1161.00 0.07304
1161.10 0.07302
1161.20 0.073
1161.30 0.07298
1161.40 0.07295
1161.50 0.07293
1161.60 0.07291
1161.70 0.07289
1161.80 0.07286
1161.90 0.07284
1162.00 0.07282
1162.10 0.0728
1162.20 0.07278
1162.30 0.07275
1162.40 0.07273
1162.50 0.07271
1162.60 0.07269
1162.70 0.07267
1162.80 0.07264
1162.90 0.07262
1163.00 0.0726
1163.10 0.07258
1163.20 0.07255
1163.30 0.07253
1163.40 0.07251
1163.50 0.07249
1163.60 0.07247
1163.70 0.07244
1163.80 0.07242
1163.90 0.0724
1164.00 0.07238
1164.10 0.07236
1164.20 0.07233
1164.30 0.07231
1164.40 0.07229
1164.50 0.07227
1164.60 0.07225
1164.70 0.07222
1164.80 0.0722
1164.90 0.07218
1165.00 0.07216
1165.10 0.07214
1165.20 0.07211
1165.30 0.07209
1165.40 0.07207
1165.50 0.07205
1165.60 0.07203
1165.70 0.072
1165.80 0.07198
1165.90 0.07196
1166.00 0.07194
1166.10 0.07192
1166.20 0.07189
1166.30 0.07187
1166.40 0.07185
1166.50 0.07183
1166.60 0.07181
1166.70 0.07178
1166.80 0.07176
1166.90 0.07174
1167.00 0.07172
1167.10 0.0717
1167.20 0.07167
1167.30 0.07165
1167.40 0.07163
1167.50 0.07161
1167.60 0.07159
1167.70 0.07157
1167.80 0.07154
1167.90 0.07152
1168.00 0.0715
1168.10 0.07148
1168.20 0.07146
1168.30 0.07144
1168.40 0.07141
1168.50 0.07139
1168.60 0.07137
1168.70 0.07135
1168.80 0.07133
1168.90 0.0713
1169.00 0.07128
1169.10 0.07126
1169.20 0.07124
1169.30 0.07122
1169.40 0.0712
1169.50 0.07117
1169.60 0.07115
1169.70 0.07113
1169.80 0.07111
1169.90 0.07109
1170.00 0.07107
1170.10 0.07104
1170.20 0.07102
1170.30 0.071
1170.40 0.07098
1170.50 0.07096
1170.60 0.07094
1170.70 0.07092
1170.80 0.07089
1170.90 0.07087
1171.00 0.07085
1171.10 0.07083
1171.20 0.07081
1171.30 0.07079
1171.40 0.07076
1171.50 0.07074
1171.60 0.07072
1171.70 0.0707
1171.80 0.07068
1171.90 0.07066
1172.00 0.07064
1172.10 0.07061
1172.20 0.07059
1172.30 0.07057
1172.40 0.07055
1172.50 0.07053
1172.60 0.07051
1172.70 0.07048
1172.80 0.07046
1172.90 0.07044
1173.00 0.07042
1173.10 0.0704
1173.20 0.07038
1173.30 0.07036
1173.40 0.07033
1173.50 0.07031
1173.60 0.07029
1173.70 0.07027
1173.80 0.07025
1173.90 0.07023
1174.00 0.07021
1174.10 0.07018
1174.20 0.07016
1174.30 0.07014
1174.40 0.07012
1174.50 0.0701
1174.60 0.07008
1174.70 0.07006
1174.80 0.07004
1174.90 0.07001
1175.00 0.06999
1175.10 0.06997
1175.20 0.06995
1175.30 0.06993
1175.40 0.06991
1175.50 0.06989
1175.60 0.06986
1175.70 0.06984
1175.80 0.06982
1175.90 0.0698
1176.00 0.06978
1176.10 0.06976
1176.20 0.06974
1176.30 0.06972
1176.40 0.06969
1176.50 0.06967
1176.60 0.06965
1176.70 0.06963
1176.80 0.06961
1176.90 0.06959
1177.00 0.06957
1177.10 0.06955
1177.20 0.06953
1177.30 0.0695
1177.40 0.06948
1177.50 0.06946
1177.60 0.06944
1177.70 0.06942
1177.80 0.0694
1177.90 0.06938
1178.00 0.06936
1178.10 0.06934
1178.20 0.06931
1178.30 0.06929
1178.40 0.06927
1178.50 0.06925
1178.60 0.06923
1178.70 0.06921
1178.80 0.06919
1178.90 0.06917
1179.00 0.06915
1179.10 0.06912
1179.20 0.0691
1179.30 0.06908
1179.40 0.06906
1179.50 0.06904
1179.60 0.06902
1179.70 0.069
1179.80 0.06898
1179.90 0.06896
1180.00 0.06894
1180.10 0.06892
1180.20 0.06889
1180.30 0.06887
1180.40 0.06885
1180.50 0.06883
1180.60 0.06881
1180.70 0.06879
1180.80 0.06877
1180.90 0.06875
1181.00 0.06873
1181.10 0.06871
1181.20 0.06869
1181.30 0.06866
1181.40 0.06864
1181.50 0.06862
1181.60 0.0686
1181.70 0.06858
1181.80 0.06856
1181.90 0.06854
1182.00 0.06852
1182.10 0.0685
1182.20 0.06848
1182.30 0.06846
1182.40 0.06844
1182.50 0.06841
1182.60 0.06839
1182.70 0.06837
1182.80 0.06835
1182.90 0.06833
1183.00 0.06831
1183.10 0.06829
1183.20 0.06827
1183.30 0.06825
1183.40 0.06823
1183.50 0.06821
1183.60 0.06819
1183.70 0.06817
1183.80 0.06815
1183.90 0.06813
1184.00 0.0681
1184.10 0.06808
1184.20 0.06806
1184.30 0.06804
1184.40 0.06802
1184.50 0.068
1184.60 0.06798
1184.70 0.06796
1184.80 0.06794
1184.90 0.06792
1185.00 0.0679
1185.10 0.06788
1185.20 0.06786
1185.30 0.06784
1185.40 0.06782
1185.50 0.0678
1185.60 0.06778
1185.70 0.06776
1185.80 0.06773
1185.90 0.06771
1186.00 0.06769
1186.10 0.06767
1186.20 0.06765
1186.30 0.06763
1186.40 0.06761
1186.50 0.06759
1186.60 0.06757
1186.70 0.06755
1186.80 0.06753
1186.90 0.06751
1187.00 0.06749
1187.10 0.06747
1187.20 0.06745
1187.30 0.06743
1187.40 0.06741
1187.50 0.06739
1187.60 0.06737
1187.70 0.06735
1187.80 0.06733
1187.90 0.06731
1188.00 0.06728
1188.10 0.06726
1188.20 0.06724
1188.30 0.06722
1188.40 0.0672
1188.50 0.06718
1188.60 0.06716
1188.70 0.06714
1188.80 0.06712
1188.90 0.0671
1189.00 0.06708
1189.10 0.06706
1189.20 0.06704
1189.30 0.06702
1189.40 0.067
1189.50 0.06698
1189.60 0.06696
1189.70 0.06694
1189.80 0.06692
1189.90 0.0669
1190.00 0.06688
1190.10 0.06686
1190.20 0.06684
1190.30 0.06682
1190.40 0.0668
1190.50 0.06678
1190.60 0.06676
1190.70 0.06674
1190.80 0.06672
1190.90 0.0667
1191.00 0.06668
1191.10 0.06666
1191.20 0.06664
1191.30 0.06662
1191.40 0.0666
1191.50 0.06658
1191.60 0.06655
1191.70 0.06653
1191.80 0.06651
1191.90 0.06649
1192.00 0.06647
1192.10 0.06645
1192.20 0.06643
1192.30 0.06641
1192.40 0.06639
1192.50 0.06637
1192.60 0.06635
1192.70 0.06633
1192.80 0.06631
1192.90 0.06629
1193.00 0.06627
1193.10 0.06625
1193.20 0.06623
1193.30 0.06621
1193.40 0.06619
1193.50 0.06617
1193.60 0.06615
1193.70 0.06613
1193.80 0.06611
1193.90 0.06609
1194.00 0.06607
1194.10 0.06605
1194.20 0.06603
1194.30 0.06601
1194.40 0.06599
1194.50 0.06597
1194.60 0.06595
1194.70 0.06593
1194.80 0.06591
1194.90 0.06589
1195.00 0.06587
1195.10 0.06585
1195.20 0.06583
1195.30 0.06581
1195.40 0.06579
1195.50 0.06577
1195.60 0.06575
1195.70 0.06573
1195.80 0.06571
1195.90 0.0657
1196.00 0.06568
1196.10 0.06566
1196.20 0.06564
1196.30 0.06562
1196.40 0.0656
1196.50 0.06558
1196.60 0.06556
1196.70 0.06554
1196.80 0.06552
1196.90 0.0655
1197.00 0.06548
1197.10 0.06546
1197.20 0.06544
1197.30 0.06542
1197.40 0.0654
1197.50 0.06538
1197.60 0.06536
1197.70 0.06534
1197.80 0.06532
1197.90 0.0653
1198.00 0.06528
1198.10 0.06526
1198.20 0.06524
1198.30 0.06522
1198.40 0.0652
1198.50 0.06518
1198.60 0.06516
1198.70 0.06514
1198.80 0.06512
1198.90 0.0651
1199.00 0.06508
1199.10 0.06506
1199.20 0.06504
1199.30 0.06503
1199.40 0.06501
1199.50 0.06499
1199.60 0.06497
1199.70 0.06495
1199.80 0.06493
1199.90 0.06491
1200.00 0
