# Version 2.1 - nm, norm@500 to 1, cut digits, bergeron_30000_70.dat_30000
# Wavelength(nm)  Flambda(ergs/cm^s/s/nm)
300.00 4.914
300.10 4.908
300.20 4.903
300.30 4.897
300.40 4.892
300.50 4.886
300.60 4.881
300.70 4.875
300.80 4.87
300.90 4.864
301.00 4.859
301.10 4.853
301.20 4.848
301.30 4.842
301.40 4.837
301.50 4.832
301.60 4.826
301.70 4.821
301.80 4.815
301.90 4.81
302.00 4.804
302.10 4.799
302.20 4.794
302.30 4.788
302.40 4.783
302.50 4.778
302.60 4.772
302.70 4.767
302.80 4.762
302.90 4.756
303.00 4.751
303.10 4.746
303.20 4.74
303.30 4.735
303.40 4.73
303.50 4.724
303.60 4.719
303.70 4.714
303.80 4.709
303.90 4.703
304.00 4.698
304.10 4.693
304.20 4.688
304.30 4.682
304.40 4.677
304.50 4.672
304.60 4.667
304.70 4.662
304.80 4.656
304.90 4.651
305.00 4.646
305.10 4.641
305.20 4.636
305.30 4.631
305.40 4.625
305.50 4.62
305.60 4.615
305.70 4.61
305.80 4.605
305.90 4.6
306.00 4.595
306.10 4.59
306.20 4.585
306.30 4.579
306.40 4.574
306.50 4.569
306.60 4.564
306.70 4.559
306.80 4.554
306.90 4.549
307.00 4.544
307.10 4.539
307.20 4.534
307.30 4.529
307.40 4.524
307.50 4.519
307.60 4.514
307.70 4.509
307.80 4.504
307.90 4.499
308.00 4.494
308.10 4.489
308.20 4.484
308.30 4.479
308.40 4.474
308.50 4.47
308.60 4.465
308.70 4.46
308.80 4.455
308.90 4.45
309.00 4.445
309.10 4.44
309.20 4.435
309.30 4.43
309.40 4.426
309.50 4.421
309.60 4.416
309.70 4.411
309.80 4.406
309.90 4.401
310.00 4.396
310.10 4.392
310.20 4.387
310.30 4.382
310.40 4.377
310.50 4.372
310.60 4.368
310.70 4.363
310.80 4.358
310.90 4.353
311.00 4.349
311.10 4.344
311.20 4.339
311.30 4.334
311.40 4.33
311.50 4.325
311.60 4.32
311.70 4.316
311.80 4.311
311.90 4.306
312.00 4.301
312.10 4.297
312.20 4.292
312.30 4.287
312.40 4.283
312.50 4.278
312.60 4.273
312.70 4.269
312.80 4.264
312.90 4.259
313.00 4.255
313.10 4.25
313.20 4.246
313.30 4.241
313.40 4.236
313.50 4.232
313.60 4.227
313.70 4.223
313.80 4.218
313.90 4.214
314.00 4.209
314.10 4.204
314.20 4.2
314.30 4.195
314.40 4.191
314.50 4.186
314.60 4.182
314.70 4.177
314.80 4.173
314.90 4.168
315.00 4.164
315.10 4.159
315.20 4.155
315.30 4.15
315.40 4.146
315.50 4.141
315.60 4.137
315.70 4.132
315.80 4.128
315.90 4.123
316.00 4.119
316.10 4.115
316.20 4.11
316.30 4.106
316.40 4.101
316.50 4.097
316.60 4.092
316.70 4.088
316.80 4.084
316.90 4.079
317.00 4.075
317.10 4.071
317.20 4.066
317.30 4.062
317.40 4.057
317.50 4.053
317.60 4.049
317.70 4.044
317.80 4.04
317.90 4.036
318.00 4.031
318.10 4.027
318.20 4.023
318.30 4.019
318.40 4.014
318.50 4.01
318.60 4.006
318.70 4.001
318.80 3.997
318.90 3.993
319.00 3.989
319.10 3.984
319.20 3.98
319.30 3.976
319.40 3.972
319.50 3.967
319.60 3.963
319.70 3.959
319.80 3.955
319.90 3.95
320.00 3.946
320.10 3.942
320.20 3.938
320.30 3.934
320.40 3.93
320.50 3.925
320.60 3.921
320.70 3.917
320.80 3.913
320.90 3.909
321.00 3.905
321.10 3.9
321.20 3.896
321.30 3.892
321.40 3.888
321.50 3.884
321.60 3.88
321.70 3.876
321.80 3.872
321.90 3.867
322.00 3.863
322.10 3.859
322.20 3.855
322.30 3.851
322.40 3.847
322.50 3.843
322.60 3.839
322.70 3.835
322.80 3.831
322.90 3.827
323.00 3.823
323.10 3.819
323.20 3.815
323.30 3.811
323.40 3.807
323.50 3.803
323.60 3.799
323.70 3.795
323.80 3.791
323.90 3.787
324.00 3.783
324.10 3.779
324.20 3.775
324.30 3.771
324.40 3.767
324.50 3.763
324.60 3.759
324.70 3.755
324.80 3.751
324.90 3.747
325.00 3.743
325.10 3.739
325.20 3.735
325.30 3.731
325.40 3.727
325.50 3.724
325.60 3.72
325.70 3.716
325.80 3.712
325.90 3.708
326.00 3.704
326.10 3.7
326.20 3.696
326.30 3.692
326.40 3.689
326.50 3.685
326.60 3.681
326.70 3.677
326.80 3.673
326.90 3.669
327.00 3.666
327.10 3.662
327.20 3.658
327.30 3.654
327.40 3.65
327.50 3.646
327.60 3.643
327.70 3.639
327.80 3.635
327.90 3.631
328.00 3.628
328.10 3.624
328.20 3.62
328.30 3.616
328.40 3.612
328.50 3.609
328.60 3.605
328.70 3.601
328.80 3.597
328.90 3.594
329.00 3.59
329.10 3.586
329.20 3.583
329.30 3.579
329.40 3.575
329.50 3.571
329.60 3.568
329.70 3.564
329.80 3.56
329.90 3.557
330.00 3.553
330.10 3.549
330.20 3.546
330.30 3.542
330.40 3.538
330.50 3.535
330.60 3.531
330.70 3.527
330.80 3.524
330.90 3.52
331.00 3.516
331.10 3.513
331.20 3.509
331.30 3.506
331.40 3.502
331.50 3.498
331.60 3.495
331.70 3.491
331.80 3.488
331.90 3.484
332.00 3.48
332.10 3.477
332.20 3.473
332.30 3.47
332.40 3.466
332.50 3.463
332.60 3.459
332.70 3.455
332.80 3.452
332.90 3.448
333.00 3.445
333.10 3.441
333.20 3.438
333.30 3.434
333.40 3.431
333.50 3.427
333.60 3.424
333.70 3.42
333.80 3.417
333.90 3.413
334.00 3.41
334.10 3.406
334.20 3.403
334.30 3.399
334.40 3.396
334.50 3.392
334.60 3.389
334.70 3.385
334.80 3.382
334.90 3.378
335.00 3.375
335.10 3.372
335.20 3.368
335.30 3.365
335.40 3.361
335.50 3.358
335.60 3.354
335.70 3.351
335.80 3.348
335.90 3.344
336.00 3.341
336.10 3.337
336.20 3.334
336.30 3.331
336.40 3.327
336.50 3.324
336.60 3.32
336.70 3.317
336.80 3.314
336.90 3.31
337.00 3.307
337.10 3.304
337.20 3.3
337.30 3.297
337.40 3.294
337.50 3.29
337.60 3.287
337.70 3.283
337.80 3.28
337.90 3.277
338.00 3.273
338.10 3.27
338.20 3.267
338.30 3.264
338.40 3.26
338.50 3.257
338.60 3.254
338.70 3.25
338.80 3.247
338.90 3.244
339.00 3.241
339.10 3.237
339.20 3.234
339.30 3.231
339.40 3.228
339.50 3.224
339.60 3.221
339.70 3.218
339.80 3.215
339.90 3.211
340.00 3.208
340.10 3.205
340.20 3.202
340.30 3.198
340.40 3.195
340.50 3.192
340.60 3.189
340.70 3.186
340.80 3.182
340.90 3.179
341.00 3.176
341.10 3.173
341.20 3.17
341.30 3.166
341.40 3.163
341.50 3.16
341.60 3.157
341.70 3.154
341.80 3.151
341.90 3.147
342.00 3.144
342.10 3.141
342.20 3.138
342.30 3.135
342.40 3.132
342.50 3.129
342.60 3.125
342.70 3.122
342.80 3.119
342.90 3.116
343.00 3.113
343.10 3.11
343.20 3.107
343.30 3.104
343.40 3.101
343.50 3.097
343.60 3.094
343.70 3.091
343.80 3.088
343.90 3.085
344.00 3.082
344.10 3.079
344.20 3.076
344.30 3.073
344.40 3.07
344.50 3.067
344.60 3.064
344.70 3.061
344.80 3.058
344.90 3.055
345.00 3.051
345.10 3.048
345.20 3.045
345.30 3.042
345.40 3.039
345.50 3.036
345.60 3.033
345.70 3.03
345.80 3.027
345.90 3.024
346.00 3.021
346.10 3.018
346.20 3.015
346.30 3.012
346.40 3.009
346.50 3.006
346.60 3.003
346.70 3
346.80 2.997
346.90 2.995
347.00 2.992
347.10 2.989
347.20 2.986
347.30 2.983
347.40 2.98
347.50 2.977
347.60 2.974
347.70 2.971
347.80 2.968
347.90 2.965
348.00 2.962
348.10 2.959
348.20 2.956
348.30 2.953
348.40 2.951
348.50 2.948
348.60 2.945
348.70 2.942
348.80 2.939
348.90 2.936
349.00 2.933
349.10 2.93
349.20 2.927
349.30 2.924
349.40 2.922
349.50 2.919
349.60 2.916
349.70 2.913
349.80 2.91
349.90 2.907
350.00 2.904
350.10 2.902
350.20 2.899
350.30 2.896
350.40 2.893
350.50 2.89
350.60 2.887
350.70 2.885
350.80 2.882
350.90 2.879
351.00 2.876
351.10 2.873
351.20 2.871
351.30 2.868
351.40 2.865
351.50 2.862
351.60 2.859
351.70 2.856
351.80 2.854
351.90 2.851
352.00 2.848
352.10 2.845
352.20 2.843
352.30 2.84
352.40 2.837
352.50 2.834
352.60 2.832
352.70 2.829
352.80 2.826
352.90 2.823
353.00 2.821
353.10 2.818
353.20 2.815
353.30 2.812
353.40 2.81
353.50 2.807
353.60 2.804
353.70 2.801
353.80 2.799
353.90 2.796
354.00 2.793
354.10 2.79
354.20 2.788
354.30 2.785
354.40 2.782
354.50 2.78
354.60 2.777
354.70 2.774
354.80 2.772
354.90 2.769
355.00 2.766
355.10 2.764
355.20 2.761
355.30 2.758
355.40 2.756
355.50 2.753
355.60 2.75
355.70 2.748
355.80 2.745
355.90 2.742
356.00 2.74
356.10 2.737
356.20 2.734
356.30 2.732
356.40 2.729
356.50 2.726
356.60 2.724
356.70 2.721
356.80 2.719
356.90 2.716
357.00 2.713
357.10 2.711
357.20 2.708
357.30 2.706
357.40 2.703
357.50 2.7
357.60 2.698
357.70 2.695
357.80 2.693
357.90 2.69
358.00 2.687
358.10 2.685
358.20 2.682
358.30 2.68
358.40 2.677
358.50 2.674
358.60 2.672
358.70 2.669
358.80 2.667
358.90 2.664
359.00 2.662
359.10 2.659
359.20 2.657
359.30 2.654
359.40 2.651
359.50 2.649
359.60 2.646
359.70 2.644
359.80 2.641
359.90 2.639
360.00 2.636
360.10 2.634
360.20 2.631
360.30 2.629
360.40 2.626
360.50 2.624
360.60 2.621
360.70 2.619
360.80 2.616
360.90 2.614
361.00 2.611
361.10 2.609
361.20 2.606
361.30 2.604
361.40 2.601
361.50 2.599
361.60 2.596
361.70 2.594
361.80 2.591
361.90 2.589
362.00 2.586
362.10 2.584
362.20 2.582
362.30 2.579
362.40 2.577
362.50 2.574
362.60 2.572
362.70 2.569
362.80 2.567
362.90 2.564
363.00 2.562
363.10 2.56
363.20 2.557
363.30 2.555
363.40 2.552
363.50 2.55
363.60 2.547
363.70 2.545
363.80 2.543
363.90 2.54
364.00 2.538
364.10 2.535
364.20 2.533
364.30 2.531
364.40 2.528
364.50 2.526
364.60 2.523
364.70 2.521
364.80 2.519
364.90 2.516
365.00 2.514
365.10 2.512
365.20 2.509
365.30 2.507
365.40 2.504
365.50 2.502
365.60 2.5
365.70 2.497
365.80 2.495
365.90 2.493
366.00 2.49
366.10 2.488
366.20 2.485
366.30 2.482
366.40 2.48
366.50 2.477
366.60 2.474
366.70 2.472
366.80 2.469
366.90 2.466
367.00 2.464
367.10 2.461
367.20 2.458
367.30 2.456
367.40 2.453
367.50 2.451
367.60 2.448
367.70 2.445
367.80 2.443
367.90 2.44
368.00 2.437
368.10 2.435
368.20 2.432
368.30 2.43
368.40 2.427
368.50 2.425
368.60 2.422
368.70 2.42
368.80 2.417
368.90 2.415
369.00 2.412
369.10 2.41
369.20 2.407
369.30 2.405
369.40 2.402
369.50 2.4
369.60 2.397
369.70 2.395
369.80 2.392
369.90 2.39
370.00 2.387
370.10 2.385
370.20 2.382
370.30 2.38
370.40 2.378
370.50 2.375
370.60 2.373
370.70 2.371
370.80 2.368
370.90 2.366
371.00 2.364
371.10 2.361
371.20 2.359
371.30 2.357
371.40 2.354
371.50 2.352
371.60 2.35
371.70 2.348
371.80 2.345
371.90 2.343
372.00 2.341
372.10 2.339
372.20 2.337
372.30 2.335
372.40 2.333
372.50 2.332
372.60 2.33
372.70 2.328
372.80 2.326
372.90 2.324
373.00 2.323
373.10 2.321
373.20 2.319
373.30 2.317
373.40 2.315
373.50 2.314
373.60 2.312
373.70 2.31
373.80 2.308
373.90 2.307
374.00 2.305
374.10 2.303
374.20 2.302
374.30 2.3
374.40 2.299
374.50 2.298
374.60 2.296
374.70 2.295
374.80 2.293
374.90 2.292
375.00 2.29
375.10 2.289
375.20 2.288
375.30 2.286
375.40 2.285
375.50 2.283
375.60 2.282
375.70 2.28
375.80 2.279
375.90 2.278
376.00 2.276
376.10 2.272
376.20 2.269
376.30 2.265
376.40 2.261
376.50 2.258
376.60 2.254
376.70 2.25
376.80 2.247
376.90 2.243
377.00 2.239
377.10 2.241
377.20 2.242
377.30 2.244
377.40 2.246
377.50 2.247
377.60 2.249
377.70 2.25
377.80 2.252
377.90 2.254
378.00 2.255
378.10 2.251
378.20 2.248
378.30 2.244
378.40 2.24
378.50 2.237
378.60 2.233
378.70 2.229
378.80 2.226
378.90 2.222
379.00 2.219
379.10 2.213
379.20 2.208
379.30 2.203
379.40 2.197
379.50 2.192
379.60 2.187
379.70 2.181
379.80 2.176
379.90 2.171
380.00 2.165
380.10 2.172
380.20 2.178
380.30 2.185
380.40 2.191
380.50 2.198
380.60 2.204
380.70 2.211
380.80 2.217
380.90 2.224
381.00 2.23
381.10 2.231
381.20 2.231
381.30 2.231
381.40 2.232
381.50 2.232
381.60 2.229
381.70 2.226
381.80 2.221
381.90 2.215
382.00 2.208
382.10 2.2
382.20 2.19
382.30 2.175
382.40 2.159
382.50 2.143
382.60 2.128
382.70 2.112
382.80 2.096
382.90 2.081
383.00 2.065
383.10 2.049
383.20 2.034
383.30 2.014
383.40 1.994
383.50 1.978
383.60 1.981
383.70 1.997
383.80 2.015
383.90 2.034
384.00 2.053
384.10 2.071
384.20 2.088
384.30 2.105
384.40 2.121
384.50 2.135
384.60 2.149
384.70 2.161
384.80 2.173
384.90 2.183
385.00 2.192
385.10 2.2
385.20 2.208
385.30 2.214
385.40 2.219
385.50 2.223
385.60 2.227
385.70 2.229
385.80 2.23
385.90 2.231
386.00 2.23
386.10 2.228
386.20 2.226
386.30 2.222
386.40 2.217
386.50 2.211
386.60 2.204
386.70 2.196
386.80 2.187
386.90 2.177
387.00 2.165
387.10 2.153
387.20 2.138
387.30 2.123
387.40 2.107
387.50 2.089
387.60 2.069
387.70 2.049
387.80 2.026
387.90 2.003
388.00 1.978
388.10 1.95
388.20 1.922
388.30 1.892
388.40 1.861
388.50 1.828
388.60 1.795
388.70 1.762
388.80 1.736
388.90 1.716
389.00 1.732
389.10 1.755
389.20 1.785
389.30 1.816
389.40 1.846
389.50 1.876
389.60 1.903
389.70 1.929
389.80 1.955
389.90 1.978
390.00 2
390.10 2.021
390.20 2.04
390.30 2.058
390.40 2.075
390.50 2.091
390.60 2.105
390.70 2.119
390.80 2.132
390.90 2.143
391.00 2.154
391.10 2.164
391.20 2.173
391.30 2.181
391.40 2.188
391.50 2.195
391.60 2.201
391.70 2.206
391.80 2.211
391.90 2.215
392.00 2.218
392.10 2.221
392.20 2.223
392.30 2.225
392.40 2.226
392.50 2.226
392.60 2.226
392.70 2.226
392.80 2.225
392.90 2.223
393.00 2.221
393.10 2.218
393.20 2.215
393.30 2.211
393.40 2.206
393.50 2.201
393.60 2.196
393.70 2.19
393.80 2.183
393.90 2.175
394.00 2.167
394.10 2.158
394.20 2.149
394.30 2.138
394.40 2.127
394.50 2.115
394.60 2.103
394.70 2.089
394.80 2.074
394.90 2.059
395.00 2.042
395.10 2.024
395.20 2.006
395.30 1.985
395.40 1.964
395.50 1.942
395.60 1.918
395.70 1.892
395.80 1.866
395.90 1.837
396.00 1.807
396.10 1.776
396.20 1.742
396.30 1.707
396.40 1.671
396.50 1.631
396.60 1.589
396.70 1.547
396.80 1.501
396.90 1.455
397.00 1.409
397.10 1.449
397.20 1.49
397.30 1.533
397.40 1.574
397.50 1.613
397.60 1.651
397.70 1.685
397.80 1.717
397.90 1.748
398.00 1.777
398.10 1.804
398.20 1.83
398.30 1.853
398.40 1.875
398.50 1.897
398.60 1.916
398.70 1.934
398.80 1.952
398.90 1.968
399.00 1.983
399.10 1.997
399.20 2.01
399.30 2.022
399.40 2.033
399.50 2.043
399.60 2.053
399.70 2.062
399.80 2.07
399.90 2.078
400.00 2.085
400.10 2.091
400.20 2.097
400.30 2.103
400.40 2.107
400.50 2.112
400.60 2.116
400.70 2.12
400.80 2.123
400.90 2.126
401.00 2.129
401.10 2.131
401.20 2.134
401.30 2.135
401.40 2.137
401.50 2.138
401.60 2.139
401.70 2.14
401.80 2.141
401.90 2.141
402.00 2.142
402.10 2.142
402.20 2.142
402.30 2.142
402.40 2.141
402.50 2.141
402.60 2.14
402.70 2.14
402.80 2.139
402.90 2.138
403.00 2.137
403.10 2.135
403.20 2.134
403.30 2.132
403.40 2.131
403.50 2.129
403.60 2.127
403.70 2.125
403.80 2.123
403.90 2.121
404.00 2.119
404.10 2.116
404.20 2.114
404.30 2.111
404.40 2.108
404.50 2.105
404.60 2.102
404.70 2.099
404.80 2.096
404.90 2.092
405.00 2.089
405.10 2.085
405.20 2.081
405.30 2.077
405.40 2.072
405.50 2.068
405.60 2.063
405.70 2.058
405.80 2.053
405.90 2.047
406.00 2.042
406.10 2.036
406.20 2.029
406.30 2.023
406.40 2.016
406.50 2.009
406.60 2.001
406.70 1.993
406.80 1.985
406.90 1.976
407.00 1.966
407.10 1.957
407.20 1.946
407.30 1.935
407.40 1.924
407.50 1.912
407.60 1.899
407.70 1.886
407.80 1.872
407.90 1.857
408.00 1.841
408.10 1.825
408.20 1.807
408.30 1.788
408.40 1.769
408.50 1.748
408.60 1.727
408.70 1.704
408.80 1.679
408.90 1.654
409.00 1.627
409.10 1.598
409.20 1.568
409.30 1.537
409.40 1.502
409.50 1.466
409.60 1.428
409.70 1.387
409.80 1.342
409.90 1.295
410.00 1.243
410.10 1.201
410.20 1.171
410.30 1.218
410.40 1.266
410.50 1.315
410.60 1.358
410.70 1.398
410.80 1.436
410.90 1.47
411.00 1.502
411.10 1.533
411.20 1.56
411.30 1.587
411.40 1.612
411.50 1.635
411.60 1.656
411.70 1.677
411.80 1.696
411.90 1.714
412.00 1.73
412.10 1.746
412.20 1.76
412.30 1.774
412.40 1.787
412.50 1.798
412.60 1.81
412.70 1.82
412.80 1.829
412.90 1.838
413.00 1.846
413.10 1.854
413.20 1.861
413.30 1.868
413.40 1.874
413.50 1.879
413.60 1.884
413.70 1.889
413.80 1.894
413.90 1.897
414.00 1.901
414.10 1.904
414.20 1.907
414.30 1.91
414.40 1.913
414.50 1.915
414.60 1.917
414.70 1.919
414.80 1.92
414.90 1.922
415.00 1.923
415.10 1.924
415.20 1.925
415.30 1.926
415.40 1.926
415.50 1.927
415.60 1.927
415.70 1.928
415.80 1.928
415.90 1.928
416.00 1.928
416.10 1.928
416.20 1.927
416.30 1.927
416.40 1.927
416.50 1.926
416.60 1.926
416.70 1.925
416.80 1.925
416.90 1.924
417.00 1.923
417.10 1.923
417.20 1.922
417.30 1.921
417.40 1.92
417.50 1.919
417.60 1.918
417.70 1.917
417.80 1.916
417.90 1.915
418.00 1.914
418.10 1.913
418.20 1.912
418.30 1.911
418.40 1.91
418.50 1.909
418.60 1.907
418.70 1.906
418.80 1.905
418.90 1.904
419.00 1.902
419.10 1.901
419.20 1.9
419.30 1.898
419.40 1.897
419.50 1.896
419.60 1.894
419.70 1.893
419.80 1.892
419.90 1.89
420.00 1.889
420.10 1.887
420.20 1.886
420.30 1.884
420.40 1.883
420.50 1.881
420.60 1.88
420.70 1.878
420.80 1.877
420.90 1.875
421.00 1.874
421.10 1.872
421.20 1.871
421.30 1.869
421.40 1.868
421.50 1.866
421.60 1.865
421.70 1.863
421.80 1.861
421.90 1.86
422.00 1.858
422.10 1.857
422.20 1.855
422.30 1.853
422.40 1.852
422.50 1.85
422.60 1.848
422.70 1.847
422.80 1.845
422.90 1.843
423.00 1.842
423.10 1.84
423.20 1.838
423.30 1.837
423.40 1.835
423.50 1.833
423.60 1.832
423.70 1.83
423.80 1.828
423.90 1.826
424.00 1.825
424.10 1.823
424.20 1.821
424.30 1.819
424.40 1.817
424.50 1.816
424.60 1.814
424.70 1.812
424.80 1.81
424.90 1.808
425.00 1.806
425.10 1.805
425.20 1.803
425.30 1.801
425.40 1.799
425.50 1.797
425.60 1.795
425.70 1.793
425.80 1.791
425.90 1.789
426.00 1.787
426.10 1.785
426.20 1.783
426.30 1.781
426.40 1.778
426.50 1.776
426.60 1.774
426.70 1.772
426.80 1.77
426.90 1.767
427.00 1.765
427.10 1.763
427.20 1.76
427.30 1.758
427.40 1.755
427.50 1.753
427.60 1.75
427.70 1.748
427.80 1.745
427.90 1.742
428.00 1.74
428.10 1.737
428.20 1.734
428.30 1.731
428.40 1.728
428.50 1.725
428.60 1.722
428.70 1.718
428.80 1.715
428.90 1.711
429.00 1.708
429.10 1.704
429.20 1.7
429.30 1.696
429.40 1.692
429.50 1.688
429.60 1.684
429.70 1.679
429.80 1.674
429.90 1.669
430.00 1.664
430.10 1.659
430.20 1.653
430.30 1.647
430.40 1.641
430.50 1.635
430.60 1.628
430.70 1.621
430.80 1.613
430.90 1.606
431.00 1.598
431.10 1.589
431.20 1.58
431.30 1.571
431.40 1.561
431.50 1.551
431.60 1.539
431.70 1.528
431.80 1.516
431.90 1.503
432.00 1.489
432.10 1.475
432.20 1.46
432.30 1.443
432.40 1.427
432.50 1.409
432.60 1.39
432.70 1.37
432.80 1.348
432.90 1.326
433.00 1.302
433.10 1.277
433.20 1.25
433.30 1.222
433.40 1.191
433.50 1.157
433.60 1.122
433.70 1.082
433.80 1.038
433.90 0.9909
434.00 0.9365
434.10 0.9371
434.20 0.9926
434.30 1.038
434.40 1.079
434.50 1.118
434.60 1.151
434.70 1.182
434.80 1.211
434.90 1.237
435.00 1.261
435.10 1.285
435.20 1.306
435.30 1.326
435.40 1.345
435.50 1.362
435.60 1.378
435.70 1.394
435.80 1.408
435.90 1.421
436.00 1.434
436.10 1.445
436.20 1.456
436.30 1.466
436.40 1.475
436.50 1.484
436.60 1.492
436.70 1.5
436.80 1.506
436.90 1.513
437.00 1.519
437.10 1.524
437.20 1.53
437.30 1.534
437.40 1.539
437.50 1.543
437.60 1.546
437.70 1.55
437.80 1.553
437.90 1.556
438.00 1.558
438.10 1.561
438.20 1.563
438.30 1.565
438.40 1.567
438.50 1.568
438.60 1.57
438.70 1.571
438.80 1.572
438.90 1.573
439.00 1.574
439.10 1.575
439.20 1.575
439.30 1.576
439.40 1.576
439.50 1.576
439.60 1.577
439.70 1.577
439.80 1.577
439.90 1.577
440.00 1.577
440.10 1.577
440.20 1.577
440.30 1.576
440.40 1.576
440.50 1.576
440.60 1.575
440.70 1.575
440.80 1.574
440.90 1.574
441.00 1.573
441.10 1.573
441.20 1.572
441.30 1.572
441.40 1.571
441.50 1.57
441.60 1.57
441.70 1.569
441.80 1.568
441.90 1.567
442.00 1.566
442.10 1.566
442.20 1.565
442.30 1.564
442.40 1.563
442.50 1.562
442.60 1.561
442.70 1.56
442.80 1.559
442.90 1.558
443.00 1.557
443.10 1.556
443.20 1.556
443.30 1.555
443.40 1.554
443.50 1.553
443.60 1.551
443.70 1.55
443.80 1.549
443.90 1.548
444.00 1.547
444.10 1.546
444.20 1.545
444.30 1.544
444.40 1.543
444.50 1.542
444.60 1.541
444.70 1.54
444.80 1.539
444.90 1.538
445.00 1.536
445.10 1.535
445.20 1.534
445.30 1.533
445.40 1.532
445.50 1.531
445.60 1.53
445.70 1.529
445.80 1.527
445.90 1.526
446.00 1.525
446.10 1.524
446.20 1.523
446.30 1.522
446.40 1.521
446.50 1.519
446.60 1.518
446.70 1.517
446.80 1.516
446.90 1.515
447.00 1.514
447.10 1.512
447.20 1.511
447.30 1.51
447.40 1.509
447.50 1.508
447.60 1.507
447.70 1.505
447.80 1.504
447.90 1.503
448.00 1.502
448.10 1.501
448.20 1.5
448.30 1.498
448.40 1.497
448.50 1.496
448.60 1.495
448.70 1.494
448.80 1.493
448.90 1.491
449.00 1.49
449.10 1.489
449.20 1.488
449.30 1.487
449.40 1.486
449.50 1.484
449.60 1.483
449.70 1.482
449.80 1.481
449.90 1.48
450.00 1.478
450.10 1.477
450.20 1.476
450.30 1.475
450.40 1.474
450.50 1.473
450.60 1.471
450.70 1.47
450.80 1.469
450.90 1.468
451.00 1.467
451.10 1.466
451.20 1.464
451.30 1.463
451.40 1.462
451.50 1.461
451.60 1.46
451.70 1.459
451.80 1.457
451.90 1.456
452.00 1.455
452.10 1.454
452.20 1.453
452.30 1.452
452.40 1.45
452.50 1.449
452.60 1.448
452.70 1.447
452.80 1.446
452.90 1.445
453.00 1.443
453.10 1.442
453.20 1.441
453.30 1.44
453.40 1.439
453.50 1.438
453.60 1.436
453.70 1.435
453.80 1.434
453.90 1.433
454.00 1.432
454.10 1.431
454.20 1.43
454.30 1.428
454.40 1.427
454.50 1.426
454.60 1.425
454.70 1.424
454.80 1.423
454.90 1.422
455.00 1.42
455.10 1.419
455.20 1.418
455.30 1.417
455.40 1.416
455.50 1.415
455.60 1.414
455.70 1.412
455.80 1.411
455.90 1.41
456.00 1.409
456.10 1.408
456.20 1.407
456.30 1.406
456.40 1.404
456.50 1.403
456.60 1.402
456.70 1.401
456.80 1.4
456.90 1.399
457.00 1.398
457.10 1.397
457.20 1.395
457.30 1.394
457.40 1.393
457.50 1.392
457.60 1.391
457.70 1.39
457.80 1.389
457.90 1.388
458.00 1.386
458.10 1.385
458.20 1.384
458.30 1.383
458.40 1.382
458.50 1.381
458.60 1.38
458.70 1.379
458.80 1.378
458.90 1.376
459.00 1.375
459.10 1.374
459.20 1.373
459.30 1.372
459.40 1.371
459.50 1.37
459.60 1.369
459.70 1.368
459.80 1.366
459.90 1.365
460.00 1.364
460.10 1.363
460.20 1.362
460.30 1.361
460.40 1.36
460.50 1.359
460.60 1.358
460.70 1.357
460.80 1.355
460.90 1.354
461.00 1.353
461.10 1.352
461.20 1.351
461.30 1.35
461.40 1.349
461.50 1.348
461.60 1.347
461.70 1.346
461.80 1.345
461.90 1.344
462.00 1.342
462.10 1.341
462.20 1.34
462.30 1.339
462.40 1.338
462.50 1.337
462.60 1.336
462.70 1.335
462.80 1.334
462.90 1.333
463.00 1.332
463.10 1.331
463.20 1.33
463.30 1.328
463.40 1.327
463.50 1.326
463.60 1.325
463.70 1.324
463.80 1.323
463.90 1.322
464.00 1.321
464.10 1.32
464.20 1.319
464.30 1.318
464.40 1.317
464.50 1.316
464.60 1.315
464.70 1.314
464.80 1.312
464.90 1.311
465.00 1.31
465.10 1.309
465.20 1.308
465.30 1.307
465.40 1.306
465.50 1.305
465.60 1.304
465.70 1.303
465.80 1.302
465.90 1.301
466.00 1.3
466.10 1.299
466.20 1.298
466.30 1.297
466.40 1.296
466.50 1.295
466.60 1.293
466.70 1.292
466.80 1.291
466.90 1.29
467.00 1.289
467.10 1.288
467.20 1.287
467.30 1.286
467.40 1.285
467.50 1.284
467.60 1.283
467.70 1.282
467.80 1.281
467.90 1.28
468.00 1.279
468.10 1.278
468.20 1.277
468.30 1.276
468.40 1.275
468.50 1.274
468.60 1.273
468.70 1.272
468.80 1.271
468.90 1.27
469.00 1.268
469.10 1.267
469.20 1.266
469.30 1.265
469.40 1.264
469.50 1.263
469.60 1.262
469.70 1.261
469.80 1.26
469.90 1.259
470.00 1.258
470.10 1.257
470.20 1.256
470.30 1.255
470.40 1.254
470.50 1.253
470.60 1.252
470.70 1.251
470.80 1.25
470.90 1.249
471.00 1.248
471.10 1.247
471.20 1.246
471.30 1.245
471.40 1.244
471.50 1.243
471.60 1.242
471.70 1.24
471.80 1.239
471.90 1.238
472.00 1.237
472.10 1.236
472.20 1.235
472.30 1.234
472.40 1.233
472.50 1.232
472.60 1.231
472.70 1.23
472.80 1.229
472.90 1.228
473.00 1.227
473.10 1.226
473.20 1.225
473.30 1.224
473.40 1.223
473.50 1.222
473.60 1.221
473.70 1.22
473.80 1.218
473.90 1.217
474.00 1.216
474.10 1.215
474.20 1.214
474.30 1.213
474.40 1.212
474.50 1.211
474.60 1.21
474.70 1.209
474.80 1.208
474.90 1.207
475.00 1.206
475.10 1.205
475.20 1.203
475.30 1.202
475.40 1.201
475.50 1.2
475.60 1.199
475.70 1.198
475.80 1.197
475.90 1.196
476.00 1.194
476.10 1.193
476.20 1.192
476.30 1.191
476.40 1.19
476.50 1.189
476.60 1.188
476.70 1.186
476.80 1.185
476.90 1.184
477.00 1.183
477.10 1.182
477.20 1.18
477.30 1.179
477.40 1.178
477.50 1.177
477.60 1.175
477.70 1.174
477.80 1.173
477.90 1.172
478.00 1.17
478.10 1.169
478.20 1.168
478.30 1.166
478.40 1.165
478.50 1.164
478.60 1.162
478.70 1.161
478.80 1.159
478.90 1.158
479.00 1.157
479.10 1.155
479.20 1.154
479.30 1.152
479.40 1.15
479.50 1.149
479.60 1.147
479.70 1.145
479.80 1.144
479.90 1.142
480.00 1.14
480.10 1.139
480.20 1.137
480.30 1.135
480.40 1.133
480.50 1.131
480.60 1.129
480.70 1.127
480.80 1.124
480.90 1.122
481.00 1.12
481.10 1.118
481.20 1.116
481.30 1.113
481.40 1.11
481.50 1.107
481.60 1.104
481.70 1.102
481.80 1.099
481.90 1.096
482.00 1.093
482.10 1.09
482.20 1.087
482.30 1.083
482.40 1.078
482.50 1.074
482.60 1.07
482.70 1.066
482.80 1.062
482.90 1.058
483.00 1.053
483.10 1.049
483.20 1.043
483.30 1.037
483.40 1.03
483.50 1.023
483.60 1.017
483.70 1.01
483.80 1.003
483.90 0.9967
484.00 0.99
484.10 0.9834
484.20 0.9746
484.30 0.9649
484.40 0.9551
484.50 0.9454
484.60 0.9356
484.70 0.9238
484.80 0.9109
484.90 0.898
485.00 0.8852
485.10 0.8723
485.20 0.8573
485.30 0.8414
485.40 0.8238
485.50 0.8054
485.60 0.7847
485.70 0.7629
485.80 0.7374
485.90 0.7101
486.00 0.6788
486.10 0.626
486.20 0.6502
486.30 0.6891
486.40 0.7169
486.50 0.7432
486.60 0.7658
486.70 0.7865
486.80 0.8048
486.90 0.8219
487.00 0.8373
487.10 0.8519
487.20 0.8644
487.30 0.8759
487.40 0.8873
487.50 0.8988
487.60 0.9102
487.70 0.9194
487.80 0.9276
487.90 0.9358
488.00 0.9439
488.10 0.9521
488.20 0.9581
488.30 0.9631
488.40 0.968
488.50 0.973
488.60 0.978
488.70 0.9829
488.80 0.9879
488.90 0.9929
489.00 0.9978
489.10 1.003
489.20 1.006
489.30 1.008
489.40 1.011
489.50 1.013
489.60 1.016
489.70 1.018
489.80 1.02
489.90 1.023
490.00 1.025
490.10 1.027
490.20 1.029
490.30 1.03
490.40 1.031
490.50 1.032
490.60 1.033
490.70 1.034
490.80 1.035
490.90 1.036
491.00 1.037
491.10 1.038
491.20 1.039
491.30 1.039
491.40 1.039
491.50 1.039
491.60 1.04
491.70 1.04
491.80 1.04
491.90 1.04
492.00 1.041
492.10 1.041
492.20 1.041
492.30 1.041
492.40 1.041
492.50 1.041
492.60 1.04
492.70 1.04
492.80 1.04
492.90 1.04
493.00 1.04
493.10 1.04
493.20 1.04
493.30 1.039
493.40 1.039
493.50 1.038
493.60 1.038
493.70 1.038
493.80 1.037
493.90 1.037
494.00 1.037
494.10 1.036
494.20 1.036
494.30 1.035
494.40 1.035
494.50 1.034
494.60 1.034
494.70 1.033
494.80 1.033
494.90 1.032
495.00 1.032
495.10 1.031
495.20 1.031
495.30 1.03
495.40 1.03
495.50 1.029
495.60 1.029
495.70 1.028
495.80 1.027
495.90 1.027
496.00 1.026
496.10 1.026
496.20 1.025
496.30 1.024
496.40 1.024
496.50 1.023
496.60 1.023
496.70 1.022
496.80 1.021
496.90 1.021
497.00 1.02
497.10 1.019
497.20 1.019
497.30 1.018
497.40 1.018
497.50 1.017
497.60 1.016
497.70 1.016
497.80 1.015
497.90 1.014
498.00 1.014
498.10 1.013
498.20 1.012
498.30 1.012
498.40 1.011
498.50 1.01
498.60 1.01
498.70 1.009
498.80 1.008
498.90 1.008
499.00 1.007
499.10 1.006
499.20 1.006
499.30 1.005
499.40 1.004
499.50 1.003
499.60 1.003
499.70 1.002
499.80 1.001
499.90 1.001
500.00 1
500.10 0.9993
500.20 0.9986
500.30 0.9979
500.40 0.9972
500.50 0.9965
500.60 0.9958
500.70 0.9951
500.80 0.9945
500.90 0.9938
501.00 0.9931
501.10 0.9924
501.20 0.9917
501.30 0.991
501.40 0.9903
501.50 0.9896
501.60 0.9889
501.70 0.9882
501.80 0.9875
501.90 0.9868
502.00 0.9861
502.10 0.9854
502.20 0.9847
502.30 0.984
502.40 0.9833
502.50 0.9826
502.60 0.9819
502.70 0.9812
502.80 0.9805
502.90 0.9798
503.00 0.9791
503.10 0.9784
503.20 0.9777
503.30 0.977
503.40 0.9763
503.50 0.9756
503.60 0.9749
503.70 0.9742
503.80 0.9735
503.90 0.9728
504.00 0.9722
504.10 0.9715
504.20 0.9708
504.30 0.9701
504.40 0.9694
504.50 0.9687
504.60 0.968
504.70 0.9673
504.80 0.9666
504.90 0.9659
505.00 0.9652
505.10 0.9645
505.20 0.9638
505.30 0.9631
505.40 0.9624
505.50 0.9617
505.60 0.961
505.70 0.9604
505.80 0.9597
505.90 0.959
506.00 0.9583
506.10 0.9576
506.20 0.9569
506.30 0.9562
506.40 0.9555
506.50 0.9548
506.60 0.9542
506.70 0.9535
506.80 0.9528
506.90 0.9521
507.00 0.9514
507.10 0.9507
507.20 0.95
507.30 0.9494
507.40 0.9487
507.50 0.948
507.60 0.9473
507.70 0.9466
507.80 0.9459
507.90 0.9452
508.00 0.9446
508.10 0.9439
508.20 0.9432
508.30 0.9425
508.40 0.9418
508.50 0.9412
508.60 0.9405
508.70 0.9398
508.80 0.9391
508.90 0.9384
509.00 0.9378
509.10 0.9371
509.20 0.9364
509.30 0.9357
509.40 0.9351
509.50 0.9344
509.60 0.9337
509.70 0.933
509.80 0.9324
509.90 0.9317
510.00 0.931
510.10 0.9304
510.20 0.9297
510.30 0.929
510.40 0.9283
510.50 0.9277
510.60 0.927
510.70 0.9263
510.80 0.9257
510.90 0.925
511.00 0.9243
511.10 0.9237
511.20 0.923
511.30 0.9223
511.40 0.9217
511.50 0.921
511.60 0.9203
511.70 0.9197
511.80 0.919
511.90 0.9184
512.00 0.9177
512.10 0.917
512.20 0.9164
512.30 0.9157
512.40 0.915
512.50 0.9144
512.60 0.9137
512.70 0.9131
512.80 0.9124
512.90 0.9118
513.00 0.9111
513.10 0.9104
513.20 0.9098
513.30 0.9091
513.40 0.9085
513.50 0.9078
513.60 0.9072
513.70 0.9065
513.80 0.9059
513.90 0.9052
514.00 0.9046
514.10 0.9039
514.20 0.9033
514.30 0.9026
514.40 0.902
514.50 0.9013
514.60 0.9007
514.70 0.9
514.80 0.8994
514.90 0.8987
515.00 0.8981
515.10 0.8974
515.20 0.8968
515.30 0.8961
515.40 0.8955
515.50 0.8949
515.60 0.8942
515.70 0.8936
515.80 0.8929
515.90 0.8923
516.00 0.8917
516.10 0.891
516.20 0.8904
516.30 0.8897
516.40 0.8891
516.50 0.8885
516.60 0.8878
516.70 0.8872
516.80 0.8865
516.90 0.8859
517.00 0.8853
517.10 0.8846
517.20 0.884
517.30 0.8834
517.40 0.8827
517.50 0.8821
517.60 0.8815
517.70 0.8808
517.80 0.8802
517.90 0.8796
518.00 0.879
518.10 0.8783
518.20 0.8777
518.30 0.8771
518.40 0.8764
518.50 0.8758
518.60 0.8752
518.70 0.8746
518.80 0.8739
518.90 0.8733
519.00 0.8727
519.10 0.8721
519.20 0.8714
519.30 0.8708
519.40 0.8702
519.50 0.8696
519.60 0.869
519.70 0.8683
519.80 0.8677
519.90 0.8671
520.00 0.8665
520.10 0.8659
520.20 0.8652
520.30 0.8646
520.40 0.864
520.50 0.8634
520.60 0.8628
520.70 0.8622
520.80 0.8615
520.90 0.8609
521.00 0.8603
521.10 0.8597
521.20 0.8591
521.30 0.8585
521.40 0.8579
521.50 0.8573
521.60 0.8566
521.70 0.856
521.80 0.8554
521.90 0.8548
522.00 0.8542
522.10 0.8536
522.20 0.853
522.30 0.8524
522.40 0.8518
522.50 0.8512
522.60 0.8506
522.70 0.85
522.80 0.8494
522.90 0.8488
523.00 0.8482
523.10 0.8475
523.20 0.8469
523.30 0.8463
523.40 0.8457
523.50 0.8451
523.60 0.8445
523.70 0.8439
523.80 0.8433
523.90 0.8428
524.00 0.8422
524.10 0.8416
524.20 0.841
524.30 0.8404
524.40 0.8398
524.50 0.8392
524.60 0.8386
524.70 0.838
524.80 0.8374
524.90 0.8368
525.00 0.8362
525.10 0.8356
525.20 0.835
525.30 0.8344
525.40 0.8338
525.50 0.8332
525.60 0.8327
525.70 0.8321
525.80 0.8315
525.90 0.8309
526.00 0.8303
526.10 0.8297
526.20 0.8291
526.30 0.8285
526.40 0.828
526.50 0.8274
526.60 0.8268
526.70 0.8262
526.80 0.8256
526.90 0.825
527.00 0.8245
527.10 0.8239
527.20 0.8233
527.30 0.8227
527.40 0.8221
527.50 0.8216
527.60 0.821
527.70 0.8204
527.80 0.8198
527.90 0.8192
528.00 0.8187
528.10 0.8181
528.20 0.8175
528.30 0.8169
528.40 0.8164
528.50 0.8158
528.60 0.8152
528.70 0.8146
528.80 0.8141
528.90 0.8135
529.00 0.8129
529.10 0.8123
529.20 0.8118
529.30 0.8112
529.40 0.8106
529.50 0.8101
529.60 0.8095
529.70 0.8089
529.80 0.8084
529.90 0.8078
530.00 0.8072
530.10 0.8067
530.20 0.8061
530.30 0.8055
530.40 0.805
530.50 0.8044
530.60 0.8038
530.70 0.8033
530.80 0.8027
530.90 0.8021
531.00 0.8016
531.10 0.801
531.20 0.8004
531.30 0.7999
531.40 0.7993
531.50 0.7988
531.60 0.7982
531.70 0.7976
531.80 0.7971
531.90 0.7965
532.00 0.796
532.10 0.7954
532.20 0.7949
532.30 0.7943
532.40 0.7937
532.50 0.7932
532.60 0.7926
532.70 0.7921
532.80 0.7915
532.90 0.791
533.00 0.7904
533.10 0.7899
533.20 0.7893
533.30 0.7888
533.40 0.7882
533.50 0.7877
533.60 0.7871
533.70 0.7866
533.80 0.786
533.90 0.7855
534.00 0.7849
534.10 0.7844
534.20 0.7838
534.30 0.7833
534.40 0.7827
534.50 0.7822
534.60 0.7816
534.70 0.7811
534.80 0.7806
534.90 0.78
535.00 0.7795
535.10 0.7789
535.20 0.7784
535.30 0.7778
535.40 0.7773
535.50 0.7768
535.60 0.7762
535.70 0.7757
535.80 0.7751
535.90 0.7746
536.00 0.7741
536.10 0.7735
536.20 0.773
536.30 0.7724
536.40 0.7719
536.50 0.7714
536.60 0.7708
536.70 0.7703
536.80 0.7698
536.90 0.7692
537.00 0.7687
537.10 0.7682
537.20 0.7676
537.30 0.7671
537.40 0.7666
537.50 0.766
537.60 0.7655
537.70 0.765
537.80 0.7645
537.90 0.7639
538.00 0.7634
538.10 0.7629
538.20 0.7623
538.30 0.7618
538.40 0.7613
538.50 0.7608
538.60 0.7602
538.70 0.7597
538.80 0.7592
538.90 0.7586
539.00 0.7581
539.10 0.7576
539.20 0.7571
539.30 0.7565
539.40 0.756
539.50 0.7555
539.60 0.755
539.70 0.7545
539.80 0.7539
539.90 0.7534
540.00 0.7529
540.10 0.7524
540.20 0.7519
540.30 0.7513
540.40 0.7508
540.50 0.7503
540.60 0.7498
540.70 0.7493
540.80 0.7488
540.90 0.7482
541.00 0.7477
541.10 0.7472
541.20 0.7467
541.30 0.7462
541.40 0.7457
541.50 0.7452
541.60 0.7446
541.70 0.7441
541.80 0.7436
541.90 0.7431
542.00 0.7426
542.10 0.7421
542.20 0.7416
542.30 0.7411
542.40 0.7405
542.50 0.74
542.60 0.7395
542.70 0.739
542.80 0.7385
542.90 0.738
543.00 0.7375
543.10 0.737
543.20 0.7365
543.30 0.736
543.40 0.7355
543.50 0.735
543.60 0.7345
543.70 0.734
543.80 0.7335
543.90 0.733
544.00 0.7325
544.10 0.732
544.20 0.7314
544.30 0.7309
544.40 0.7304
544.50 0.7299
544.60 0.7294
544.70 0.7289
544.80 0.7284
544.90 0.7279
545.00 0.7275
545.10 0.727
545.20 0.7265
545.30 0.726
545.40 0.7255
545.50 0.725
545.60 0.7245
545.70 0.724
545.80 0.7235
545.90 0.723
546.00 0.7225
546.10 0.722
546.20 0.7215
546.30 0.721
546.40 0.7205
546.50 0.72
546.60 0.7195
546.70 0.719
546.80 0.7186
546.90 0.7181
547.00 0.7176
547.10 0.7171
547.20 0.7166
547.30 0.7161
547.40 0.7156
547.50 0.7151
547.60 0.7146
547.70 0.7142
547.80 0.7137
547.90 0.7132
548.00 0.7127
548.10 0.7122
548.20 0.7117
548.30 0.7112
548.40 0.7108
548.50 0.7103
548.60 0.7098
548.70 0.7093
548.80 0.7088
548.90 0.7083
549.00 0.7079
549.10 0.7074
549.20 0.7069
549.30 0.7064
549.40 0.7059
549.50 0.7055
549.60 0.705
549.70 0.7045
549.80 0.704
549.90 0.7035
550.00 0.7031
550.10 0.7026
550.20 0.7021
550.30 0.7016
550.40 0.7012
550.50 0.7007
550.60 0.7002
550.70 0.6997
550.80 0.6993
550.90 0.6988
551.00 0.6983
551.10 0.6978
551.20 0.6974
551.30 0.6969
551.40 0.6964
551.50 0.696
551.60 0.6955
551.70 0.695
551.80 0.6945
551.90 0.6941
552.00 0.6936
552.10 0.6931
552.20 0.6927
552.30 0.6922
552.40 0.6917
552.50 0.6913
552.60 0.6908
552.70 0.6903
552.80 0.6899
552.90 0.6894
553.00 0.6889
553.10 0.6885
553.20 0.688
553.30 0.6875
553.40 0.6871
553.50 0.6866
553.60 0.6861
553.70 0.6857
553.80 0.6852
553.90 0.6848
554.00 0.6843
554.10 0.6838
554.20 0.6834
554.30 0.6829
554.40 0.6824
554.50 0.682
554.60 0.6815
554.70 0.6811
554.80 0.6806
554.90 0.6802
555.00 0.6797
555.10 0.6792
555.20 0.6788
555.30 0.6783
555.40 0.6779
555.50 0.6774
555.60 0.677
555.70 0.6765
555.80 0.676
555.90 0.6756
556.00 0.6751
556.10 0.6747
556.20 0.6742
556.30 0.6738
556.40 0.6733
556.50 0.6729
556.60 0.6724
556.70 0.672
556.80 0.6715
556.90 0.6711
557.00 0.6706
557.10 0.6702
557.20 0.6697
557.30 0.6693
557.40 0.6688
557.50 0.6684
557.60 0.6679
557.70 0.6675
557.80 0.667
557.90 0.6666
558.00 0.6661
558.10 0.6657
558.20 0.6652
558.30 0.6648
558.40 0.6644
558.50 0.6639
558.60 0.6635
558.70 0.663
558.80 0.6626
558.90 0.6621
559.00 0.6617
559.10 0.6613
559.20 0.6608
559.30 0.6604
559.40 0.6599
559.50 0.6595
559.60 0.659
559.70 0.6586
559.80 0.6582
559.90 0.6577
560.00 0.6573
560.10 0.6569
560.20 0.6564
560.30 0.656
560.40 0.6555
560.50 0.6551
560.60 0.6547
560.70 0.6542
560.80 0.6538
560.90 0.6534
561.00 0.6529
561.10 0.6525
561.20 0.652
561.30 0.6516
561.40 0.6512
561.50 0.6507
561.60 0.6503
561.70 0.6499
561.80 0.6495
561.90 0.649
562.00 0.6486
562.10 0.6482
562.20 0.6477
562.30 0.6473
562.40 0.6469
562.50 0.6464
562.60 0.646
562.70 0.6456
562.80 0.6451
562.90 0.6447
563.00 0.6443
563.10 0.6439
563.20 0.6434
563.30 0.643
563.40 0.6426
563.50 0.6422
563.60 0.6417
563.70 0.6413
563.80 0.6409
563.90 0.6405
564.00 0.64
564.10 0.6396
564.20 0.6392
564.30 0.6388
564.40 0.6383
564.50 0.6379
564.60 0.6375
564.70 0.6371
564.80 0.6366
564.90 0.6362
565.00 0.6358
565.10 0.6354
565.20 0.635
565.30 0.6345
565.40 0.6341
565.50 0.6337
565.60 0.6333
565.70 0.6329
565.80 0.6324
565.90 0.632
566.00 0.6316
566.10 0.6312
566.20 0.6308
566.30 0.6304
566.40 0.6299
566.50 0.6295
566.60 0.6291
566.70 0.6287
566.80 0.6283
566.90 0.6279
567.00 0.6275
567.10 0.627
567.20 0.6266
567.30 0.6262
567.40 0.6258
567.50 0.6254
567.60 0.625
567.70 0.6246
567.80 0.6242
567.90 0.6237
568.00 0.6233
568.10 0.6229
568.20 0.6225
568.30 0.6221
568.40 0.6217
568.50 0.6213
568.60 0.6209
568.70 0.6205
568.80 0.6201
568.90 0.6196
569.00 0.6192
569.10 0.6188
569.20 0.6184
569.30 0.618
569.40 0.6176
569.50 0.6172
569.60 0.6168
569.70 0.6164
569.80 0.616
569.90 0.6156
570.00 0.6152
570.10 0.6148
570.20 0.6144
570.30 0.614
570.40 0.6136
570.50 0.6132
570.60 0.6128
570.70 0.6124
570.80 0.612
570.90 0.6116
571.00 0.6112
571.10 0.6108
571.20 0.6104
571.30 0.61
571.40 0.6096
571.50 0.6092
571.60 0.6088
571.70 0.6084
571.80 0.608
571.90 0.6076
572.00 0.6072
572.10 0.6068
572.20 0.6064
572.30 0.606
572.40 0.6056
572.50 0.6052
572.60 0.6048
572.70 0.6044
572.80 0.604
572.90 0.6036
573.00 0.6032
573.10 0.6028
573.20 0.6024
573.30 0.602
573.40 0.6016
573.50 0.6012
573.60 0.6009
573.70 0.6005
573.80 0.6001
573.90 0.5997
574.00 0.5993
574.10 0.5989
574.20 0.5985
574.30 0.5981
574.40 0.5977
574.50 0.5973
574.60 0.597
574.70 0.5966
574.80 0.5962
574.90 0.5958
575.00 0.5954
575.10 0.595
575.20 0.5946
575.30 0.5942
575.40 0.5938
575.50 0.5935
575.60 0.5931
575.70 0.5927
575.80 0.5923
575.90 0.5919
576.00 0.5915
576.10 0.5912
576.20 0.5908
576.30 0.5904
576.40 0.59
576.50 0.5896
576.60 0.5892
576.70 0.5889
576.80 0.5885
576.90 0.5881
577.00 0.5877
577.10 0.5873
577.20 0.5869
577.30 0.5866
577.40 0.5862
577.50 0.5858
577.60 0.5854
577.70 0.585
577.80 0.5847
577.90 0.5843
578.00 0.5839
578.10 0.5835
578.20 0.5831
578.30 0.5828
578.40 0.5824
578.50 0.582
578.60 0.5816
578.70 0.5813
578.80 0.5809
578.90 0.5805
579.00 0.5801
579.10 0.5798
579.20 0.5794
579.30 0.579
579.40 0.5786
579.50 0.5783
579.60 0.5779
579.70 0.5775
579.80 0.5771
579.90 0.5768
580.00 0.5764
580.10 0.576
580.20 0.5757
580.30 0.5753
580.40 0.5749
580.50 0.5745
580.60 0.5742
580.70 0.5738
580.80 0.5734
580.90 0.5731
581.00 0.5727
581.10 0.5723
581.20 0.572
581.30 0.5716
581.40 0.5712
581.50 0.5708
581.60 0.5705
581.70 0.5701
581.80 0.5697
581.90 0.5694
582.00 0.569
582.10 0.5686
582.20 0.5683
582.30 0.5679
582.40 0.5676
582.50 0.5672
582.60 0.5668
582.70 0.5665
582.80 0.5661
582.90 0.5657
583.00 0.5654
583.10 0.565
583.20 0.5646
583.30 0.5643
583.40 0.5639
583.50 0.5636
583.60 0.5632
583.70 0.5628
583.80 0.5625
583.90 0.5621
584.00 0.5617
584.10 0.5614
584.20 0.561
584.30 0.5607
584.40 0.5603
584.50 0.5599
584.60 0.5596
584.70 0.5592
584.80 0.5589
584.90 0.5585
585.00 0.5582
585.10 0.5578
585.20 0.5574
585.30 0.5571
585.40 0.5567
585.50 0.5564
585.60 0.556
585.70 0.5557
585.80 0.5553
585.90 0.5549
586.00 0.5546
586.10 0.5542
586.20 0.5539
586.30 0.5535
586.40 0.5532
586.50 0.5528
586.60 0.5525
586.70 0.5521
586.80 0.5518
586.90 0.5514
587.00 0.5511
587.10 0.5507
587.20 0.5504
587.30 0.55
587.40 0.5497
587.50 0.5493
587.60 0.549
587.70 0.5486
587.80 0.5483
587.90 0.5479
588.00 0.5476
588.10 0.5472
588.20 0.5469
588.30 0.5465
588.40 0.5462
588.50 0.5458
588.60 0.5455
588.70 0.5451
588.80 0.5448
588.90 0.5444
589.00 0.5441
589.10 0.5437
589.20 0.5434
589.30 0.543
589.40 0.5427
589.50 0.5423
589.60 0.542
589.70 0.5417
589.80 0.5413
589.90 0.541
590.00 0.5406
590.10 0.5403
590.20 0.5399
590.30 0.5396
590.40 0.5393
590.50 0.5389
590.60 0.5386
590.70 0.5382
590.80 0.5379
590.90 0.5375
591.00 0.5372
591.10 0.5369
591.20 0.5365
591.30 0.5362
591.40 0.5358
591.50 0.5355
591.60 0.5352
591.70 0.5348
591.80 0.5345
591.90 0.5341
592.00 0.5338
592.10 0.5335
592.20 0.5331
592.30 0.5328
592.40 0.5325
592.50 0.5321
592.60 0.5318
592.70 0.5314
592.80 0.5311
592.90 0.5308
593.00 0.5304
593.10 0.5301
593.20 0.5298
593.30 0.5294
593.40 0.5291
593.50 0.5288
593.60 0.5284
593.70 0.5281
593.80 0.5278
593.90 0.5274
594.00 0.5271
594.10 0.5268
594.20 0.5264
594.30 0.5261
594.40 0.5258
594.50 0.5254
594.60 0.5251
594.70 0.5248
594.80 0.5244
594.90 0.5241
595.00 0.5238
595.10 0.5235
595.20 0.5231
595.30 0.5228
595.40 0.5225
595.50 0.5221
595.60 0.5218
595.70 0.5215
595.80 0.5211
595.90 0.5208
596.00 0.5205
596.10 0.5202
596.20 0.5198
596.30 0.5195
596.40 0.5192
596.50 0.5189
596.60 0.5185
596.70 0.5182
596.80 0.5179
596.90 0.5176
597.00 0.5172
597.10 0.5169
597.20 0.5166
597.30 0.5163
597.40 0.5159
597.50 0.5156
597.60 0.5153
597.70 0.515
597.80 0.5146
597.90 0.5143
598.00 0.514
598.10 0.5137
598.20 0.5133
598.30 0.513
598.40 0.5127
598.50 0.5124
598.60 0.5121
598.70 0.5117
598.80 0.5114
598.90 0.5111
599.00 0.5108
599.10 0.5105
599.20 0.5101
599.30 0.5098
599.40 0.5095
599.50 0.5092
599.60 0.5089
599.70 0.5085
599.80 0.5082
599.90 0.5079
600.00 0.5076
600.10 0.5073
600.20 0.5069
600.30 0.5066
600.40 0.5063
600.50 0.506
600.60 0.5057
600.70 0.5054
600.80 0.505
600.90 0.5047
601.00 0.5044
601.10 0.5041
601.20 0.5038
601.30 0.5035
601.40 0.5032
601.50 0.5028
601.60 0.5025
601.70 0.5022
601.80 0.5019
601.90 0.5016
602.00 0.5013
602.10 0.501
602.20 0.5007
602.30 0.5003
602.40 0.5
602.50 0.4997
602.60 0.4994
602.70 0.4991
602.80 0.4988
602.90 0.4985
603.00 0.4982
603.10 0.4979
603.20 0.4975
603.30 0.4972
603.40 0.4969
603.50 0.4966
603.60 0.4963
603.70 0.496
603.80 0.4957
603.90 0.4954
604.00 0.4951
604.10 0.4948
604.20 0.4945
604.30 0.4942
604.40 0.4938
604.50 0.4935
604.60 0.4932
604.70 0.4929
604.80 0.4926
604.90 0.4923
605.00 0.492
605.10 0.4917
605.20 0.4914
605.30 0.4911
605.40 0.4908
605.50 0.4905
605.60 0.4902
605.70 0.4899
605.80 0.4896
605.90 0.4893
606.00 0.489
606.10 0.4887
606.20 0.4884
606.30 0.4881
606.40 0.4878
606.50 0.4874
606.60 0.4871
606.70 0.4868
606.80 0.4865
606.90 0.4862
607.00 0.4859
607.10 0.4856
607.20 0.4853
607.30 0.485
607.40 0.4847
607.50 0.4844
607.60 0.4841
607.70 0.4838
607.80 0.4835
607.90 0.4832
608.00 0.4829
608.10 0.4826
608.20 0.4823
608.30 0.482
608.40 0.4818
608.50 0.4815
608.60 0.4812
608.70 0.4809
608.80 0.4806
608.90 0.4803
609.00 0.48
609.10 0.4797
609.20 0.4794
609.30 0.4791
609.40 0.4788
609.50 0.4785
609.60 0.4782
609.70 0.4779
609.80 0.4776
609.90 0.4773
610.00 0.477
610.10 0.4767
610.20 0.4764
610.30 0.4761
610.40 0.4758
610.50 0.4756
610.60 0.4753
610.70 0.475
610.80 0.4747
610.90 0.4744
611.00 0.4741
611.10 0.4738
611.20 0.4735
611.30 0.4732
611.40 0.4729
611.50 0.4726
611.60 0.4723
611.70 0.472
611.80 0.4718
611.90 0.4715
612.00 0.4712
612.10 0.4709
612.20 0.4706
612.30 0.4703
612.40 0.47
612.50 0.4697
612.60 0.4694
612.70 0.4692
612.80 0.4689
612.90 0.4686
613.00 0.4683
613.10 0.468
613.20 0.4677
613.30 0.4674
613.40 0.4671
613.50 0.4669
613.60 0.4666
613.70 0.4663
613.80 0.466
613.90 0.4657
614.00 0.4654
614.10 0.4651
614.20 0.4649
614.30 0.4646
614.40 0.4643
614.50 0.464
614.60 0.4637
614.70 0.4634
614.80 0.4632
614.90 0.4629
615.00 0.4626
615.10 0.4623
615.20 0.462
615.30 0.4617
615.40 0.4615
615.50 0.4612
615.60 0.4609
615.70 0.4606
615.80 0.4603
615.90 0.46
616.00 0.4598
616.10 0.4595
616.20 0.4592
616.30 0.4589
616.40 0.4586
616.50 0.4584
616.60 0.4581
616.70 0.4578
616.80 0.4575
616.90 0.4572
617.00 0.457
617.10 0.4567
617.20 0.4564
617.30 0.4561
617.40 0.4559
617.50 0.4556
617.60 0.4553
617.70 0.455
617.80 0.4547
617.90 0.4545
618.00 0.4542
618.10 0.4539
618.20 0.4536
618.30 0.4534
618.40 0.4531
618.50 0.4528
618.60 0.4525
618.70 0.4523
618.80 0.452
618.90 0.4517
619.00 0.4514
619.10 0.4512
619.20 0.4509
619.30 0.4506
619.40 0.4503
619.50 0.4501
619.60 0.4498
619.70 0.4495
619.80 0.4492
619.90 0.449
620.00 0.4487
620.10 0.4484
620.20 0.4481
620.30 0.4479
620.40 0.4476
620.50 0.4473
620.60 0.4471
620.70 0.4468
620.80 0.4465
620.90 0.4462
621.00 0.446
621.10 0.4457
621.20 0.4454
621.30 0.4452
621.40 0.4449
621.50 0.4446
621.60 0.4443
621.70 0.4441
621.80 0.4438
621.90 0.4435
622.00 0.4433
622.10 0.443
622.20 0.4427
622.30 0.4425
622.40 0.4422
622.50 0.4419
622.60 0.4417
622.70 0.4414
622.80 0.4411
622.90 0.4409
623.00 0.4406
623.10 0.4403
623.20 0.4401
623.30 0.4398
623.40 0.4395
623.50 0.4393
623.60 0.439
623.70 0.4387
623.80 0.4385
623.90 0.4382
624.00 0.4379
624.10 0.4377
624.20 0.4374
624.30 0.4371
624.40 0.4369
624.50 0.4366
624.60 0.4363
624.70 0.4361
624.80 0.4358
624.90 0.4356
625.00 0.4353
625.10 0.435
625.20 0.4348
625.30 0.4345
625.40 0.4342
625.50 0.434
625.60 0.4337
625.70 0.4335
625.80 0.4332
625.90 0.4329
626.00 0.4327
626.10 0.4324
626.20 0.4321
626.30 0.4319
626.40 0.4316
626.50 0.4314
626.60 0.4311
626.70 0.4308
626.80 0.4306
626.90 0.4303
627.00 0.4301
627.10 0.4298
627.20 0.4295
627.30 0.4293
627.40 0.429
627.50 0.4288
627.60 0.4285
627.70 0.4282
627.80 0.428
627.90 0.4277
628.00 0.4275
628.10 0.4272
628.20 0.427
628.30 0.4267
628.40 0.4264
628.50 0.4262
628.60 0.4259
628.70 0.4257
628.80 0.4254
628.90 0.4252
629.00 0.4249
629.10 0.4246
629.20 0.4244
629.30 0.4241
629.40 0.4239
629.50 0.4236
629.60 0.4234
629.70 0.4231
629.80 0.4229
629.90 0.4226
630.00 0.4223
630.10 0.4221
630.20 0.4218
630.30 0.4216
630.40 0.4213
630.50 0.4211
630.60 0.4208
630.70 0.4206
630.80 0.4203
630.90 0.4201
631.00 0.4198
631.10 0.4196
631.20 0.4193
631.30 0.419
631.40 0.4188
631.50 0.4185
631.60 0.4183
631.70 0.418
631.80 0.4178
631.90 0.4175
632.00 0.4173
632.10 0.417
632.20 0.4168
632.30 0.4165
632.40 0.4163
632.50 0.416
632.60 0.4158
632.70 0.4155
632.80 0.4153
632.90 0.415
633.00 0.4148
633.10 0.4145
633.20 0.4143
633.30 0.414
633.40 0.4138
633.50 0.4135
633.60 0.4133
633.70 0.413
633.80 0.4128
633.90 0.4125
634.00 0.4123
634.10 0.412
634.20 0.4118
634.30 0.4115
634.40 0.4113
634.50 0.411
634.60 0.4108
634.70 0.4105
634.80 0.4103
634.90 0.41
635.00 0.4098
635.10 0.4096
635.20 0.4093
635.30 0.4091
635.40 0.4088
635.50 0.4086
635.60 0.4083
635.70 0.4081
635.80 0.4078
635.90 0.4076
636.00 0.4073
636.10 0.4071
636.20 0.4068
636.30 0.4066
636.40 0.4063
636.50 0.4061
636.60 0.4058
636.70 0.4056
636.80 0.4054
636.90 0.4051
637.00 0.4049
637.10 0.4046
637.20 0.4044
637.30 0.4041
637.40 0.4039
637.50 0.4036
637.60 0.4034
637.70 0.4031
637.80 0.4029
637.90 0.4027
638.00 0.4024
638.10 0.4022
638.20 0.4019
638.30 0.4017
638.40 0.4014
638.50 0.4012
638.60 0.4009
638.70 0.4007
638.80 0.4004
638.90 0.4002
639.00 0.4
639.10 0.3997
639.20 0.3995
639.30 0.3992
639.40 0.399
639.50 0.3987
639.60 0.3985
639.70 0.3982
639.80 0.398
639.90 0.3978
640.00 0.3975
640.10 0.3973
640.20 0.397
640.30 0.3968
640.40 0.3965
640.50 0.3963
640.60 0.396
640.70 0.3958
640.80 0.3955
640.90 0.3953
641.00 0.3951
641.10 0.3948
641.20 0.3946
641.30 0.3943
641.40 0.3941
641.50 0.3938
641.60 0.3936
641.70 0.3933
641.80 0.3931
641.90 0.3928
642.00 0.3926
642.10 0.3923
642.20 0.3921
642.30 0.3918
642.40 0.3916
642.50 0.3913
642.60 0.3911
642.70 0.3908
642.80 0.3906
642.90 0.3904
643.00 0.3901
643.10 0.3899
643.20 0.3896
643.30 0.3894
643.40 0.3891
643.50 0.3888
643.60 0.3886
643.70 0.3883
643.80 0.3881
643.90 0.3878
644.00 0.3876
644.10 0.3873
644.20 0.3871
644.30 0.3868
644.40 0.3866
644.50 0.3863
644.60 0.386
644.70 0.3858
644.80 0.3855
644.90 0.3853
645.00 0.385
645.10 0.3848
645.20 0.3845
645.30 0.3842
645.40 0.384
645.50 0.3837
645.60 0.3834
645.70 0.3832
645.80 0.3829
645.90 0.3826
646.00 0.3824
646.10 0.3821
646.20 0.3818
646.30 0.3816
646.40 0.3813
646.50 0.381
646.60 0.3807
646.70 0.3804
646.80 0.3801
646.90 0.3799
647.00 0.3796
647.10 0.3793
647.20 0.379
647.30 0.3787
647.40 0.3784
647.50 0.3781
647.60 0.3778
647.70 0.3775
647.80 0.3772
647.90 0.3769
648.00 0.3766
648.10 0.3763
648.20 0.376
648.30 0.3757
648.40 0.3753
648.50 0.375
648.60 0.3747
648.70 0.3743
648.80 0.374
648.90 0.3737
649.00 0.3733
649.10 0.373
649.20 0.3726
649.30 0.3723
649.40 0.3719
649.50 0.3715
649.60 0.3711
649.70 0.3707
649.80 0.3703
649.90 0.3699
650.00 0.3695
650.10 0.3691
650.20 0.3687
650.30 0.3683
650.40 0.3678
650.50 0.3673
650.60 0.3668
650.70 0.3663
650.80 0.3658
650.90 0.3653
651.00 0.3648
651.10 0.3644
651.20 0.3639
651.30 0.3633
651.40 0.3627
651.50 0.362
651.60 0.3613
651.70 0.3606
651.80 0.36
651.90 0.3593
652.00 0.3586
652.10 0.358
652.20 0.3573
652.30 0.3566
652.40 0.3556
652.50 0.3546
652.60 0.3536
652.70 0.3526
652.80 0.3516
652.90 0.3506
653.00 0.3496
653.10 0.3486
653.20 0.3476
653.30 0.3465
653.40 0.3449
653.50 0.3433
653.60 0.3416
653.70 0.34
653.80 0.3384
653.90 0.3368
654.00 0.3352
654.10 0.3336
654.20 0.332
654.30 0.3302
654.40 0.3278
654.50 0.3254
654.60 0.323
654.70 0.3206
654.80 0.3181
654.90 0.3148
655.00 0.3116
655.10 0.3084
655.20 0.3051
655.30 0.3017
655.40 0.2976
655.50 0.2934
655.60 0.2886
655.70 0.2837
655.80 0.278
655.90 0.272
656.00 0.2647
656.10 0.2571
656.20 0.2394
656.30 0.2005
656.40 0.249
656.50 0.2595
656.60 0.2666
656.70 0.2733
656.80 0.2787
656.90 0.2838
657.00 0.2883
657.10 0.2926
657.20 0.2963
657.30 0.2999
657.40 0.3028
657.50 0.3056
657.60 0.3085
657.70 0.3114
657.80 0.3141
657.90 0.3161
658.00 0.3181
658.10 0.3201
658.20 0.3221
658.30 0.3239
658.40 0.3251
658.50 0.3263
658.60 0.3275
658.70 0.3287
658.80 0.3299
658.90 0.3311
659.00 0.3323
659.10 0.3335
659.20 0.3347
659.30 0.3358
659.40 0.3363
659.50 0.3369
659.60 0.3375
659.70 0.338
659.80 0.3386
659.90 0.3392
660.00 0.3397
660.10 0.3403
660.20 0.3409
660.30 0.3414
660.40 0.3416
660.50 0.3418
660.60 0.3421
660.70 0.3423
660.80 0.3425
660.90 0.3428
661.00 0.343
661.10 0.3433
661.20 0.3435
661.30 0.3437
661.40 0.3438
661.50 0.3438
661.60 0.3439
661.70 0.344
661.80 0.344
661.90 0.3441
662.00 0.3442
662.10 0.3442
662.20 0.3443
662.30 0.3443
662.40 0.3443
662.50 0.3443
662.60 0.3442
662.70 0.3442
662.80 0.3442
662.90 0.3441
663.00 0.3441
663.10 0.3441
663.20 0.344
663.30 0.344
663.40 0.3439
663.50 0.3438
663.60 0.3437
663.70 0.3436
663.80 0.3435
663.90 0.3434
664.00 0.3434
664.10 0.3433
664.20 0.3432
664.30 0.3431
664.40 0.343
664.50 0.3428
664.60 0.3427
664.70 0.3426
664.80 0.3425
664.90 0.3424
665.00 0.3422
665.10 0.3421
665.20 0.342
665.30 0.3419
665.40 0.3417
665.50 0.3416
665.60 0.3414
665.70 0.3413
665.80 0.3411
665.90 0.341
666.00 0.3409
666.10 0.3407
666.20 0.3406
666.30 0.3404
666.40 0.3403
666.50 0.3401
666.60 0.34
666.70 0.3398
666.80 0.3397
666.90 0.3395
667.00 0.3393
667.10 0.3392
667.20 0.339
667.30 0.3389
667.40 0.3387
667.50 0.3385
667.60 0.3384
667.70 0.3382
667.80 0.3381
667.90 0.3379
668.00 0.3377
668.10 0.3376
668.20 0.3374
668.30 0.3372
668.40 0.3371
668.50 0.3369
668.60 0.3367
668.70 0.3366
668.80 0.3364
668.90 0.3362
669.00 0.3361
669.10 0.3359
669.20 0.3357
669.30 0.3355
669.40 0.3354
669.50 0.3352
669.60 0.335
669.70 0.3349
669.80 0.3347
669.90 0.3345
670.00 0.3343
670.10 0.3342
670.20 0.334
670.30 0.3338
670.40 0.3336
670.50 0.3335
670.60 0.3333
670.70 0.3331
670.80 0.3329
670.90 0.3328
671.00 0.3326
671.10 0.3324
671.20 0.3322
671.30 0.3321
671.40 0.3319
671.50 0.3317
671.60 0.3315
671.70 0.3314
671.80 0.3312
671.90 0.331
672.00 0.3308
672.10 0.3307
672.20 0.3305
672.30 0.3303
672.40 0.3301
672.50 0.3299
672.60 0.3298
672.70 0.3296
672.80 0.3294
672.90 0.3292
673.00 0.3291
673.10 0.3289
673.20 0.3287
673.30 0.3285
673.40 0.3284
673.50 0.3282
673.60 0.328
673.70 0.3278
673.80 0.3276
673.90 0.3275
674.00 0.3273
674.10 0.3271
674.20 0.3269
674.30 0.3268
674.40 0.3266
674.50 0.3264
674.60 0.3262
674.70 0.3261
674.80 0.3259
674.90 0.3257
675.00 0.3255
675.10 0.3253
675.20 0.3252
675.30 0.325
675.40 0.3248
675.50 0.3246
675.60 0.3245
675.70 0.3243
675.80 0.3241
675.90 0.3239
676.00 0.3238
676.10 0.3236
676.20 0.3234
676.30 0.3232
676.40 0.3231
676.50 0.3229
676.60 0.3227
676.70 0.3225
676.80 0.3223
676.90 0.3222
677.00 0.322
677.10 0.3218
677.20 0.3216
677.30 0.3215
677.40 0.3213
677.50 0.3211
677.60 0.3209
677.70 0.3208
677.80 0.3206
677.90 0.3204
678.00 0.3202
678.10 0.3201
678.20 0.3199
678.30 0.3197
678.40 0.3195
678.50 0.3194
678.60 0.3192
678.70 0.319
678.80 0.3188
678.90 0.3187
679.00 0.3185
679.10 0.3183
679.20 0.3181
679.30 0.318
679.40 0.3178
679.50 0.3176
679.60 0.3174
679.70 0.3173
679.80 0.3171
679.90 0.3169
680.00 0.3167
680.10 0.3166
680.20 0.3164
680.30 0.3162
680.40 0.3161
680.50 0.3159
680.60 0.3157
680.70 0.3155
680.80 0.3154
680.90 0.3152
681.00 0.315
681.10 0.3148
681.20 0.3147
681.30 0.3145
681.40 0.3143
681.50 0.3142
681.60 0.314
681.70 0.3138
681.80 0.3136
681.90 0.3135
682.00 0.3133
682.10 0.3131
682.20 0.3129
682.30 0.3128
682.40 0.3126
682.50 0.3124
682.60 0.3123
682.70 0.3121
682.80 0.3119
682.90 0.3117
683.00 0.3116
683.10 0.3114
683.20 0.3112
683.30 0.3111
683.40 0.3109
683.50 0.3107
683.60 0.3106
683.70 0.3104
683.80 0.3102
683.90 0.31
684.00 0.3099
684.10 0.3097
684.20 0.3095
684.30 0.3094
684.40 0.3092
684.50 0.309
684.60 0.3089
684.70 0.3087
684.80 0.3085
684.90 0.3083
685.00 0.3082
685.10 0.308
685.20 0.3078
685.30 0.3077
685.40 0.3075
685.50 0.3073
685.60 0.3072
685.70 0.307
685.80 0.3068
685.90 0.3067
686.00 0.3065
686.10 0.3063
686.20 0.3062
686.30 0.306
686.40 0.3058
686.50 0.3057
686.60 0.3055
686.70 0.3053
686.80 0.3052
686.90 0.305
687.00 0.3048
687.10 0.3047
687.20 0.3045
687.30 0.3043
687.40 0.3042
687.50 0.304
687.60 0.3038
687.70 0.3037
687.80 0.3035
687.90 0.3033
688.00 0.3032
688.10 0.303
688.20 0.3028
688.30 0.3027
688.40 0.3025
688.50 0.3023
688.60 0.3022
688.70 0.302
688.80 0.3018
688.90 0.3017
689.00 0.3015
689.10 0.3013
689.20 0.3012
689.30 0.301
689.40 0.3009
689.50 0.3007
689.60 0.3005
689.70 0.3004
689.80 0.3002
689.90 0.3
690.00 0.2999
690.10 0.2997
690.20 0.2995
690.30 0.2994
690.40 0.2992
690.50 0.2991
690.60 0.2989
690.70 0.2987
690.80 0.2986
690.90 0.2984
691.00 0.2982
691.10 0.2981
691.20 0.2979
691.30 0.2978
691.40 0.2976
691.50 0.2974
691.60 0.2973
691.70 0.2971
691.80 0.2969
691.90 0.2968
692.00 0.2966
692.10 0.2965
692.20 0.2963
692.30 0.2961
692.40 0.296
692.50 0.2958
692.60 0.2957
692.70 0.2955
692.80 0.2953
692.90 0.2952
693.00 0.295
693.10 0.2949
693.20 0.2947
693.30 0.2945
693.40 0.2944
693.50 0.2942
693.60 0.2941
693.70 0.2939
693.80 0.2937
693.90 0.2936
694.00 0.2934
694.10 0.2933
694.20 0.2931
694.30 0.2929
694.40 0.2928
694.50 0.2926
694.60 0.2925
694.70 0.2923
694.80 0.2921
694.90 0.292
695.00 0.2918
695.10 0.2917
695.20 0.2915
695.30 0.2913
695.40 0.2912
695.50 0.291
695.60 0.2909
695.70 0.2907
695.80 0.2906
695.90 0.2904
696.00 0.2902
696.10 0.2901
696.20 0.2899
696.30 0.2898
696.40 0.2896
696.50 0.2895
696.60 0.2893
696.70 0.2891
696.80 0.289
696.90 0.2888
697.00 0.2887
697.10 0.2885
697.20 0.2884
697.30 0.2882
697.40 0.2881
697.50 0.2879
697.60 0.2877
697.70 0.2876
697.80 0.2874
697.90 0.2873
698.00 0.2871
698.10 0.287
698.20 0.2868
698.30 0.2867
698.40 0.2865
698.50 0.2863
698.60 0.2862
698.70 0.286
698.80 0.2859
698.90 0.2857
699.00 0.2856
699.10 0.2854
699.20 0.2853
699.30 0.2851
699.40 0.285
699.50 0.2848
699.60 0.2846
699.70 0.2845
699.80 0.2843
699.90 0.2842
700.00 0.284
700.10 0.2839
700.20 0.2837
700.30 0.2836
700.40 0.2834
700.50 0.2833
700.60 0.2831
700.70 0.283
700.80 0.2828
700.90 0.2827
701.00 0.2825
701.10 0.2824
701.20 0.2822
701.30 0.2821
701.40 0.2819
701.50 0.2818
701.60 0.2816
701.70 0.2814
701.80 0.2813
701.90 0.2811
702.00 0.281
702.10 0.2808
702.20 0.2807
702.30 0.2805
702.40 0.2804
702.50 0.2802
702.60 0.2801
702.70 0.2799
702.80 0.2798
702.90 0.2796
703.00 0.2795
703.10 0.2793
703.20 0.2792
703.30 0.279
703.40 0.2789
703.50 0.2787
703.60 0.2786
703.70 0.2784
703.80 0.2783
703.90 0.2781
704.00 0.278
704.10 0.2778
704.20 0.2777
704.30 0.2775
704.40 0.2774
704.50 0.2772
704.60 0.2771
704.70 0.2769
704.80 0.2768
704.90 0.2766
705.00 0.2765
705.10 0.2763
705.20 0.2762
705.30 0.2761
705.40 0.2759
705.50 0.2758
705.60 0.2756
705.70 0.2755
705.80 0.2753
705.90 0.2752
706.00 0.275
706.10 0.2749
706.20 0.2747
706.30 0.2746
706.40 0.2744
706.50 0.2743
706.60 0.2741
706.70 0.274
706.80 0.2739
706.90 0.2737
707.00 0.2736
707.10 0.2734
707.20 0.2733
707.30 0.2731
707.40 0.273
707.50 0.2728
707.60 0.2727
707.70 0.2725
707.80 0.2724
707.90 0.2722
708.00 0.2721
708.10 0.272
708.20 0.2718
708.30 0.2717
708.40 0.2715
708.50 0.2714
708.60 0.2712
708.70 0.2711
708.80 0.2709
708.90 0.2708
709.00 0.2707
709.10 0.2705
709.20 0.2704
709.30 0.2702
709.40 0.2701
709.50 0.2699
709.60 0.2698
709.70 0.2696
709.80 0.2695
709.90 0.2694
710.00 0.2692
710.10 0.2691
710.20 0.2689
710.30 0.2688
710.40 0.2686
710.50 0.2685
710.60 0.2684
710.70 0.2682
710.80 0.2681
710.90 0.2679
711.00 0.2678
711.10 0.2676
711.20 0.2675
711.30 0.2674
711.40 0.2672
711.50 0.2671
711.60 0.2669
711.70 0.2668
711.80 0.2667
711.90 0.2665
712.00 0.2664
712.10 0.2662
712.20 0.2661
712.30 0.2659
712.40 0.2658
712.50 0.2657
712.60 0.2655
712.70 0.2654
712.80 0.2652
712.90 0.2651
713.00 0.265
713.10 0.2648
713.20 0.2647
713.30 0.2645
713.40 0.2644
713.50 0.2643
713.60 0.2641
713.70 0.264
713.80 0.2638
713.90 0.2637
714.00 0.2636
714.10 0.2634
714.20 0.2633
714.30 0.2631
714.40 0.263
714.50 0.2629
714.60 0.2627
714.70 0.2626
714.80 0.2624
714.90 0.2623
715.00 0.2622
715.10 0.262
715.20 0.2619
715.30 0.2617
715.40 0.2616
715.50 0.2615
715.60 0.2613
715.70 0.2612
715.80 0.2611
715.90 0.2609
716.00 0.2608
716.10 0.2606
716.20 0.2605
716.30 0.2604
716.40 0.2602
716.50 0.2601
716.60 0.26
716.70 0.2598
716.80 0.2597
716.90 0.2595
717.00 0.2594
717.10 0.2593
717.20 0.2591
717.30 0.259
717.40 0.2589
717.50 0.2587
717.60 0.2586
717.70 0.2585
717.80 0.2583
717.90 0.2582
718.00 0.258
718.10 0.2579
718.20 0.2578
718.30 0.2576
718.40 0.2575
718.50 0.2574
718.60 0.2572
718.70 0.2571
718.80 0.257
718.90 0.2568
719.00 0.2567
719.10 0.2566
719.20 0.2564
719.30 0.2563
719.40 0.2561
719.50 0.256
719.60 0.2559
719.70 0.2557
719.80 0.2556
719.90 0.2555
720.00 0.2553
720.10 0.2552
720.20 0.2551
720.30 0.2549
720.40 0.2548
720.50 0.2547
720.60 0.2545
720.70 0.2544
720.80 0.2543
720.90 0.2541
721.00 0.254
721.10 0.2539
721.20 0.2537
721.30 0.2536
721.40 0.2535
721.50 0.2533
721.60 0.2532
721.70 0.2531
721.80 0.2529
721.90 0.2528
722.00 0.2527
722.10 0.2525
722.20 0.2524
722.30 0.2523
722.40 0.2521
722.50 0.252
722.60 0.2519
722.70 0.2518
722.80 0.2516
722.90 0.2515
723.00 0.2514
723.10 0.2512
723.20 0.2511
723.30 0.251
723.40 0.2508
723.50 0.2507
723.60 0.2506
723.70 0.2504
723.80 0.2503
723.90 0.2502
724.00 0.25
724.10 0.2499
724.20 0.2498
724.30 0.2497
724.40 0.2495
724.50 0.2494
724.60 0.2493
724.70 0.2491
724.80 0.249
724.90 0.2489
725.00 0.2487
725.10 0.2486
725.20 0.2485
725.30 0.2483
725.40 0.2482
725.50 0.2481
725.60 0.248
725.70 0.2478
725.80 0.2477
725.90 0.2476
726.00 0.2474
726.10 0.2473
726.20 0.2472
726.30 0.2471
726.40 0.2469
726.50 0.2468
726.60 0.2467
726.70 0.2465
726.80 0.2464
726.90 0.2463
727.00 0.2462
727.10 0.246
727.20 0.2459
727.30 0.2458
727.40 0.2457
727.50 0.2455
727.60 0.2454
727.70 0.2453
727.80 0.2451
727.90 0.245
728.00 0.2449
728.10 0.2448
728.20 0.2446
728.30 0.2445
728.40 0.2444
728.50 0.2442
728.60 0.2441
728.70 0.244
728.80 0.2439
728.90 0.2437
729.00 0.2436
729.10 0.2435
729.20 0.2434
729.30 0.2432
729.40 0.2431
729.50 0.243
729.60 0.2429
729.70 0.2427
729.80 0.2426
729.90 0.2425
730.00 0.2423
730.10 0.2422
730.20 0.2421
730.30 0.242
730.40 0.2419
730.50 0.2417
730.60 0.2416
730.70 0.2415
730.80 0.2414
730.90 0.2412
731.00 0.2411
731.10 0.241
731.20 0.2409
731.30 0.2407
731.40 0.2406
731.50 0.2405
731.60 0.2404
731.70 0.2402
731.80 0.2401
731.90 0.24
732.00 0.2399
732.10 0.2397
732.20 0.2396
732.30 0.2395
732.40 0.2394
732.50 0.2393
732.60 0.2391
732.70 0.239
732.80 0.2389
732.90 0.2388
733.00 0.2386
733.10 0.2385
733.20 0.2384
733.30 0.2383
733.40 0.2381
733.50 0.238
733.60 0.2379
733.70 0.2378
733.80 0.2377
733.90 0.2375
734.00 0.2374
734.10 0.2373
734.20 0.2372
734.30 0.237
734.40 0.2369
734.50 0.2368
734.60 0.2367
734.70 0.2366
734.80 0.2364
734.90 0.2363
735.00 0.2362
735.10 0.2361
735.20 0.2359
735.30 0.2358
735.40 0.2357
735.50 0.2356
735.60 0.2355
735.70 0.2353
735.80 0.2352
735.90 0.2351
736.00 0.235
736.10 0.2349
736.20 0.2347
736.30 0.2346
736.40 0.2345
736.50 0.2344
736.60 0.2342
736.70 0.2341
736.80 0.234
736.90 0.2339
737.00 0.2338
737.10 0.2336
737.20 0.2335
737.30 0.2334
737.40 0.2333
737.50 0.2332
737.60 0.233
737.70 0.2329
737.80 0.2328
737.90 0.2327
738.00 0.2326
738.10 0.2324
738.20 0.2323
738.30 0.2322
738.40 0.2321
738.50 0.232
738.60 0.2318
738.70 0.2317
738.80 0.2316
738.90 0.2315
739.00 0.2314
739.10 0.2312
739.20 0.2311
739.30 0.231
739.40 0.2309
739.50 0.2308
739.60 0.2306
739.70 0.2305
739.80 0.2304
739.90 0.2303
740.00 0.2302
740.10 0.2301
740.20 0.2299
740.30 0.2298
740.40 0.2297
740.50 0.2296
740.60 0.2295
740.70 0.2294
740.80 0.2292
740.90 0.2291
741.00 0.229
741.10 0.2289
741.20 0.2288
741.30 0.2287
741.40 0.2285
741.50 0.2284
741.60 0.2283
741.70 0.2282
741.80 0.2281
741.90 0.228
742.00 0.2278
742.10 0.2277
742.20 0.2276
742.30 0.2275
742.40 0.2274
742.50 0.2273
742.60 0.2272
742.70 0.227
742.80 0.2269
742.90 0.2268
743.00 0.2267
743.10 0.2266
743.20 0.2265
743.30 0.2263
743.40 0.2262
743.50 0.2261
743.60 0.226
743.70 0.2259
743.80 0.2258
743.90 0.2257
744.00 0.2255
744.10 0.2254
744.20 0.2253
744.30 0.2252
744.40 0.2251
744.50 0.225
744.60 0.2249
744.70 0.2247
744.80 0.2246
744.90 0.2245
745.00 0.2244
745.10 0.2243
745.20 0.2242
745.30 0.2241
745.40 0.2239
745.50 0.2238
745.60 0.2237
745.70 0.2236
745.80 0.2235
745.90 0.2234
746.00 0.2233
746.10 0.2231
746.20 0.223
746.30 0.2229
746.40 0.2228
746.50 0.2227
746.60 0.2226
746.70 0.2225
746.80 0.2223
746.90 0.2222
747.00 0.2221
747.10 0.222
747.20 0.2219
747.30 0.2218
747.40 0.2217
747.50 0.2216
747.60 0.2214
747.70 0.2213
747.80 0.2212
747.90 0.2211
748.00 0.221
748.10 0.2209
748.20 0.2208
748.30 0.2207
748.40 0.2205
748.50 0.2204
748.60 0.2203
748.70 0.2202
748.80 0.2201
748.90 0.22
749.00 0.2199
749.10 0.2198
749.20 0.2196
749.30 0.2195
749.40 0.2194
749.50 0.2193
749.60 0.2192
749.70 0.2191
749.80 0.219
749.90 0.2189
750.00 0.2188
750.10 0.2186
750.20 0.2185
750.30 0.2184
750.40 0.2183
750.50 0.2182
750.60 0.2181
750.70 0.218
750.80 0.2179
750.90 0.2178
751.00 0.2177
751.10 0.2175
751.20 0.2174
751.30 0.2173
751.40 0.2172
751.50 0.2171
751.60 0.217
751.70 0.2169
751.80 0.2168
751.90 0.2167
752.00 0.2166
752.10 0.2165
752.20 0.2163
752.30 0.2162
752.40 0.2161
752.50 0.216
752.60 0.2159
752.70 0.2158
752.80 0.2157
752.90 0.2156
753.00 0.2155
753.10 0.2154
753.20 0.2153
753.30 0.2152
753.40 0.2151
753.50 0.2149
753.60 0.2148
753.70 0.2147
753.80 0.2146
753.90 0.2145
754.00 0.2144
754.10 0.2143
754.20 0.2142
754.30 0.2141
754.40 0.214
754.50 0.2139
754.60 0.2138
754.70 0.2137
754.80 0.2135
754.90 0.2134
755.00 0.2133
755.10 0.2132
755.20 0.2131
755.30 0.213
755.40 0.2129
755.50 0.2128
755.60 0.2127
755.70 0.2126
755.80 0.2125
755.90 0.2124
756.00 0.2123
756.10 0.2122
756.20 0.212
756.30 0.2119
756.40 0.2118
756.50 0.2117
756.60 0.2116
756.70 0.2115
756.80 0.2114
756.90 0.2113
757.00 0.2112
757.10 0.2111
757.20 0.211
757.30 0.2109
757.40 0.2108
757.50 0.2107
757.60 0.2106
757.70 0.2105
757.80 0.2103
757.90 0.2102
758.00 0.2101
758.10 0.21
758.20 0.2099
758.30 0.2098
758.40 0.2097
758.50 0.2096
758.60 0.2095
758.70 0.2094
758.80 0.2093
758.90 0.2092
759.00 0.2091
759.10 0.209
759.20 0.2089
759.30 0.2088
759.40 0.2087
759.50 0.2086
759.60 0.2085
759.70 0.2083
759.80 0.2082
759.90 0.2081
760.00 0.208
760.10 0.2079
760.20 0.2078
760.30 0.2077
760.40 0.2076
760.50 0.2075
760.60 0.2074
760.70 0.2073
760.80 0.2072
760.90 0.2071
761.00 0.207
761.10 0.2069
761.20 0.2068
761.30 0.2067
761.40 0.2066
761.50 0.2065
761.60 0.2064
761.70 0.2063
761.80 0.2062
761.90 0.2061
762.00 0.206
762.10 0.2059
762.20 0.2058
762.30 0.2057
762.40 0.2056
762.50 0.2055
762.60 0.2054
762.70 0.2053
762.80 0.2052
762.90 0.2051
763.00 0.205
763.10 0.2049
763.20 0.2048
763.30 0.2047
763.40 0.2046
763.50 0.2045
763.60 0.2044
763.70 0.2043
763.80 0.2042
763.90 0.204
764.00 0.2039
764.10 0.2038
764.20 0.2037
764.30 0.2036
764.40 0.2035
764.50 0.2034
764.60 0.2033
764.70 0.2032
764.80 0.2031
764.90 0.203
765.00 0.2029
765.10 0.2028
765.20 0.2027
765.30 0.2026
765.40 0.2025
765.50 0.2024
765.60 0.2023
765.70 0.2022
765.80 0.2021
765.90 0.202
766.00 0.2019
766.10 0.2018
766.20 0.2017
766.30 0.2016
766.40 0.2015
766.50 0.2014
766.60 0.2013
766.70 0.2012
766.80 0.2011
766.90 0.201
767.00 0.2009
767.10 0.2008
767.20 0.2007
767.30 0.2006
767.40 0.2005
767.50 0.2004
767.60 0.2003
767.70 0.2002
767.80 0.2001
767.90 0.2
768.00 0.1999
768.10 0.1998
768.20 0.1997
768.30 0.1996
768.40 0.1995
768.50 0.1994
768.60 0.1993
768.70 0.1992
768.80 0.1991
768.90 0.199
769.00 0.1989
769.10 0.1988
769.20 0.1987
769.30 0.1987
769.40 0.1986
769.50 0.1985
769.60 0.1984
769.70 0.1983
769.80 0.1982
769.90 0.1981
770.00 0.198
770.10 0.1979
770.20 0.1978
770.30 0.1977
770.40 0.1976
770.50 0.1975
770.60 0.1974
770.70 0.1973
770.80 0.1972
770.90 0.1971
771.00 0.197
771.10 0.1969
771.20 0.1968
771.30 0.1967
771.40 0.1966
771.50 0.1965
771.60 0.1964
771.70 0.1963
771.80 0.1962
771.90 0.1961
772.00 0.196
772.10 0.1959
772.20 0.1958
772.30 0.1957
772.40 0.1956
772.50 0.1956
772.60 0.1955
772.70 0.1954
772.80 0.1953
772.90 0.1952
773.00 0.1951
773.10 0.195
773.20 0.1949
773.30 0.1948
773.40 0.1947
773.50 0.1946
773.60 0.1945
773.70 0.1944
773.80 0.1943
773.90 0.1942
774.00 0.1941
774.10 0.194
774.20 0.1939
774.30 0.1938
774.40 0.1937
774.50 0.1936
774.60 0.1936
774.70 0.1935
774.80 0.1934
774.90 0.1933
775.00 0.1932
775.10 0.1931
775.20 0.193
775.30 0.1929
775.40 0.1928
775.50 0.1927
775.60 0.1926
775.70 0.1925
775.80 0.1924
775.90 0.1923
776.00 0.1922
776.10 0.1921
776.20 0.192
776.30 0.1919
776.40 0.1919
776.50 0.1918
776.60 0.1917
776.70 0.1916
776.80 0.1915
776.90 0.1914
777.00 0.1913
777.10 0.1912
777.20 0.1911
777.30 0.191
777.40 0.1909
777.50 0.1908
777.60 0.1907
777.70 0.1906
777.80 0.1905
777.90 0.1904
778.00 0.1904
778.10 0.1903
778.20 0.1902
778.30 0.1901
778.40 0.19
778.50 0.1899
778.60 0.1898
778.70 0.1897
778.80 0.1896
778.90 0.1895
779.00 0.1894
779.10 0.1893
779.20 0.1892
779.30 0.1891
779.40 0.189
779.50 0.189
779.60 0.1889
779.70 0.1888
779.80 0.1887
779.90 0.1886
780.00 0.1885
780.10 0.1884
780.20 0.1883
780.30 0.1882
780.40 0.1881
780.50 0.188
780.60 0.1879
780.70 0.1879
780.80 0.1878
780.90 0.1877
781.00 0.1876
781.10 0.1875
781.20 0.1874
781.30 0.1873
781.40 0.1872
781.50 0.1871
781.60 0.187
781.70 0.1869
781.80 0.1869
781.90 0.1868
782.00 0.1867
782.10 0.1866
782.20 0.1865
782.30 0.1864
782.40 0.1863
782.50 0.1862
782.60 0.1861
782.70 0.186
782.80 0.186
782.90 0.1859
783.00 0.1858
783.10 0.1857
783.20 0.1856
783.30 0.1855
783.40 0.1854
783.50 0.1853
783.60 0.1852
783.70 0.1851
783.80 0.1851
783.90 0.185
784.00 0.1849
784.10 0.1848
784.20 0.1847
784.30 0.1846
784.40 0.1845
784.50 0.1844
784.60 0.1843
784.70 0.1843
784.80 0.1842
784.90 0.1841
785.00 0.184
785.10 0.1839
785.20 0.1838
785.30 0.1837
785.40 0.1836
785.50 0.1835
785.60 0.1835
785.70 0.1834
785.80 0.1833
785.90 0.1832
786.00 0.1831
786.10 0.183
786.20 0.1829
786.30 0.1828
786.40 0.1827
786.50 0.1827
786.60 0.1826
786.70 0.1825
786.80 0.1824
786.90 0.1823
787.00 0.1822
787.10 0.1821
787.20 0.182
787.30 0.1819
787.40 0.1819
787.50 0.1818
787.60 0.1817
787.70 0.1816
787.80 0.1815
787.90 0.1814
788.00 0.1813
788.10 0.1812
788.20 0.1812
788.30 0.1811
788.40 0.181
788.50 0.1809
788.60 0.1808
788.70 0.1807
788.80 0.1806
788.90 0.1805
789.00 0.1805
789.10 0.1804
789.20 0.1803
789.30 0.1802
789.40 0.1801
789.50 0.18
789.60 0.1799
789.70 0.1798
789.80 0.1798
789.90 0.1797
790.00 0.1796
790.10 0.1795
790.20 0.1794
790.30 0.1793
790.40 0.1792
790.50 0.1792
790.60 0.1791
790.70 0.179
790.80 0.1789
790.90 0.1788
791.00 0.1787
791.10 0.1786
791.20 0.1786
791.30 0.1785
791.40 0.1784
791.50 0.1783
791.60 0.1782
791.70 0.1781
791.80 0.178
791.90 0.178
792.00 0.1779
792.10 0.1778
792.20 0.1777
792.30 0.1776
792.40 0.1775
792.50 0.1775
792.60 0.1774
792.70 0.1773
792.80 0.1772
792.90 0.1771
793.00 0.177
793.10 0.1769
793.20 0.1769
793.30 0.1768
793.40 0.1767
793.50 0.1766
793.60 0.1765
793.70 0.1764
793.80 0.1764
793.90 0.1763
794.00 0.1762
794.10 0.1761
794.20 0.176
794.30 0.1759
794.40 0.1758
794.50 0.1758
794.60 0.1757
794.70 0.1756
794.80 0.1755
794.90 0.1754
795.00 0.1753
795.10 0.1753
795.20 0.1752
795.30 0.1751
795.40 0.175
795.50 0.1749
795.60 0.1748
795.70 0.1748
795.80 0.1747
795.90 0.1746
796.00 0.1745
796.10 0.1744
796.20 0.1743
796.30 0.1743
796.40 0.1742
796.50 0.1741
796.60 0.174
796.70 0.1739
796.80 0.1738
796.90 0.1738
797.00 0.1737
797.10 0.1736
797.20 0.1735
797.30 0.1734
797.40 0.1733
797.50 0.1733
797.60 0.1732
797.70 0.1731
797.80 0.173
797.90 0.1729
798.00 0.1728
798.10 0.1728
798.20 0.1727
798.30 0.1726
798.40 0.1725
798.50 0.1724
798.60 0.1723
798.70 0.1723
798.80 0.1722
798.90 0.1721
799.00 0.172
799.10 0.1719
799.20 0.1719
799.30 0.1718
799.40 0.1717
799.50 0.1716
799.60 0.1715
799.70 0.1714
799.80 0.1714
799.90 0.1713
800.00 0.1712
800.10 0.1711
800.20 0.171
800.30 0.171
800.40 0.1709
800.50 0.1708
800.60 0.1707
800.70 0.1706
800.80 0.1705
800.90 0.1705
801.00 0.1704
801.10 0.1703
801.20 0.1702
801.30 0.1701
801.40 0.1701
801.50 0.17
801.60 0.1699
801.70 0.1698
801.80 0.1697
801.90 0.1697
802.00 0.1696
802.10 0.1695
802.20 0.1694
802.30 0.1693
802.40 0.1693
802.50 0.1692
802.60 0.1691
802.70 0.169
802.80 0.1689
802.90 0.1689
803.00 0.1688
803.10 0.1687
803.20 0.1686
803.30 0.1685
803.40 0.1685
803.50 0.1684
803.60 0.1683
803.70 0.1682
803.80 0.1682
803.90 0.1681
804.00 0.168
804.10 0.1679
804.20 0.1678
804.30 0.1678
804.40 0.1677
804.50 0.1676
804.60 0.1675
804.70 0.1674
804.80 0.1674
804.90 0.1673
805.00 0.1672
805.10 0.1671
805.20 0.167
805.30 0.167
805.40 0.1669
805.50 0.1668
805.60 0.1667
805.70 0.1666
805.80 0.1666
805.90 0.1665
806.00 0.1664
806.10 0.1663
806.20 0.1663
806.30 0.1662
806.40 0.1661
806.50 0.166
806.60 0.1659
806.70 0.1659
806.80 0.1658
806.90 0.1657
807.00 0.1656
807.10 0.1655
807.20 0.1655
807.30 0.1654
807.40 0.1653
807.50 0.1652
807.60 0.1652
807.70 0.1651
807.80 0.165
807.90 0.1649
808.00 0.1648
808.10 0.1648
808.20 0.1647
808.30 0.1646
808.40 0.1645
808.50 0.1645
808.60 0.1644
808.70 0.1643
808.80 0.1642
808.90 0.1641
809.00 0.1641
809.10 0.164
809.20 0.1639
809.30 0.1638
809.40 0.1638
809.50 0.1637
809.60 0.1636
809.70 0.1635
809.80 0.1634
809.90 0.1634
810.00 0.1633
810.10 0.1632
810.20 0.1631
810.30 0.1631
810.40 0.163
810.50 0.1629
810.60 0.1628
810.70 0.1628
810.80 0.1627
810.90 0.1626
811.00 0.1625
811.10 0.1625
811.20 0.1624
811.30 0.1623
811.40 0.1622
811.50 0.1622
811.60 0.1621
811.70 0.162
811.80 0.1619
811.90 0.1619
812.00 0.1618
812.10 0.1617
812.20 0.1616
812.30 0.1615
812.40 0.1615
812.50 0.1614
812.60 0.1613
812.70 0.1612
812.80 0.1612
812.90 0.1611
813.00 0.161
813.10 0.1609
813.20 0.1609
813.30 0.1608
813.40 0.1607
813.50 0.1606
813.60 0.1606
813.70 0.1605
813.80 0.1604
813.90 0.1603
814.00 0.1603
814.10 0.1602
814.20 0.1601
814.30 0.16
814.40 0.16
814.50 0.1599
814.60 0.1598
814.70 0.1597
814.80 0.1597
814.90 0.1596
815.00 0.1595
815.10 0.1595
815.20 0.1594
815.30 0.1593
815.40 0.1592
815.50 0.1592
815.60 0.1591
815.70 0.159
815.80 0.1589
815.90 0.1589
816.00 0.1588
816.10 0.1587
816.20 0.1586
816.30 0.1586
816.40 0.1585
816.50 0.1584
816.60 0.1583
816.70 0.1583
816.80 0.1582
816.90 0.1581
817.00 0.158
817.10 0.158
817.20 0.1579
817.30 0.1578
817.40 0.1577
817.50 0.1577
817.60 0.1576
817.70 0.1575
817.80 0.1575
817.90 0.1574
818.00 0.1573
818.10 0.1572
818.20 0.1572
818.30 0.1571
818.40 0.157
818.50 0.1569
818.60 0.1569
818.70 0.1568
818.80 0.1567
818.90 0.1566
819.00 0.1566
819.10 0.1565
819.20 0.1564
819.30 0.1564
819.40 0.1563
819.50 0.1562
819.60 0.1561
819.70 0.1561
819.80 0.156
819.90 0.1559
820.00 0.1558
820.10 0.1558
820.20 0.1557
820.30 0.1556
820.40 0.1556
820.50 0.1555
820.60 0.1554
820.70 0.1553
820.80 0.1553
820.90 0.1552
821.00 0.1551
821.10 0.155
821.20 0.155
821.30 0.1549
821.40 0.1548
821.50 0.1548
821.60 0.1547
821.70 0.1546
821.80 0.1545
821.90 0.1545
822.00 0.1544
822.10 0.1543
822.20 0.1543
822.30 0.1542
822.40 0.1541
822.50 0.154
822.60 0.154
822.70 0.1539
822.80 0.1538
822.90 0.1538
823.00 0.1537
823.10 0.1536
823.20 0.1535
823.30 0.1535
823.40 0.1534
823.50 0.1533
823.60 0.1533
823.70 0.1532
823.80 0.1531
823.90 0.1531
824.00 0.153
824.10 0.1529
824.20 0.1528
824.30 0.1528
824.40 0.1527
824.50 0.1526
824.60 0.1526
824.70 0.1525
824.80 0.1524
824.90 0.1523
825.00 0.1523
825.10 0.1522
825.20 0.1521
825.30 0.1521
825.40 0.152
825.50 0.1519
825.60 0.1519
825.70 0.1518
825.80 0.1517
825.90 0.1516
826.00 0.1516
826.10 0.1515
826.20 0.1514
826.30 0.1514
826.40 0.1513
826.50 0.1512
826.60 0.1512
826.70 0.1511
826.80 0.151
826.90 0.1509
827.00 0.1509
827.10 0.1508
827.20 0.1507
827.30 0.1507
827.40 0.1506
827.50 0.1505
827.60 0.1505
827.70 0.1504
827.80 0.1503
827.90 0.1502
828.00 0.1502
828.10 0.1501
828.20 0.15
828.30 0.15
828.40 0.1499
828.50 0.1498
828.60 0.1498
828.70 0.1497
828.80 0.1496
828.90 0.1496
829.00 0.1495
829.10 0.1494
829.20 0.1493
829.30 0.1493
829.40 0.1492
829.50 0.1491
829.60 0.1491
829.70 0.149
829.80 0.1489
829.90 0.1489
830.00 0.1488
830.10 0.1487
830.20 0.1487
830.30 0.1486
830.40 0.1485
830.50 0.1485
830.60 0.1484
830.70 0.1483
830.80 0.1482
830.90 0.1482
831.00 0.1481
831.10 0.148
831.20 0.148
831.30 0.1479
831.40 0.1478
831.50 0.1478
831.60 0.1477
831.70 0.1476
831.80 0.1476
831.90 0.1475
832.00 0.1474
832.10 0.1474
832.20 0.1473
832.30 0.1472
832.40 0.1472
832.50 0.1471
832.60 0.147
832.70 0.1469
832.80 0.1469
832.90 0.1468
833.00 0.1467
833.10 0.1467
833.20 0.1466
833.30 0.1465
833.40 0.1465
833.50 0.1464
833.60 0.1463
833.70 0.1463
833.80 0.1462
833.90 0.1461
834.00 0.1461
834.10 0.146
834.20 0.1459
834.30 0.1458
834.40 0.1458
834.50 0.1457
834.60 0.1456
834.70 0.1456
834.80 0.1455
834.90 0.1454
835.00 0.1454
835.10 0.1453
835.20 0.1452
835.30 0.1452
835.40 0.1451
835.50 0.145
835.60 0.145
835.70 0.1449
835.80 0.1448
835.90 0.1448
836.00 0.1447
836.10 0.1446
836.20 0.1446
836.30 0.1445
836.40 0.1444
836.50 0.1444
836.60 0.1443
836.70 0.1442
836.80 0.1441
836.90 0.1441
837.00 0.144
837.10 0.1439
837.20 0.1439
837.30 0.1438
837.40 0.1437
837.50 0.1437
837.60 0.1436
837.70 0.1436
837.80 0.1435
837.90 0.1434
838.00 0.1434
838.10 0.1433
838.20 0.1432
838.30 0.1432
838.40 0.1431
838.50 0.143
838.60 0.143
838.70 0.1429
838.80 0.1428
838.90 0.1428
839.00 0.1427
839.10 0.1426
839.20 0.1426
839.30 0.1425
839.40 0.1424
839.50 0.1424
839.60 0.1423
839.70 0.1422
839.80 0.1422
839.90 0.1421
840.00 0.142
840.10 0.142
840.20 0.1419
840.30 0.1418
840.40 0.1418
840.50 0.1417
840.60 0.1416
840.70 0.1416
840.80 0.1415
840.90 0.1415
841.00 0.1414
841.10 0.1413
841.20 0.1413
841.30 0.1412
841.40 0.1411
841.50 0.1411
841.60 0.141
841.70 0.1409
841.80 0.1409
841.90 0.1408
842.00 0.1407
842.10 0.1407
842.20 0.1406
842.30 0.1405
842.40 0.1405
842.50 0.1404
842.60 0.1403
842.70 0.1403
842.80 0.1402
842.90 0.1402
843.00 0.1401
843.10 0.14
843.20 0.14
843.30 0.1399
843.40 0.1398
843.50 0.1398
843.60 0.1397
843.70 0.1396
843.80 0.1396
843.90 0.1395
844.00 0.1395
844.10 0.1394
844.20 0.1393
844.30 0.1393
844.40 0.1392
844.50 0.1391
844.60 0.1391
844.70 0.139
844.80 0.1389
844.90 0.1389
845.00 0.1388
845.10 0.1388
845.20 0.1387
845.30 0.1386
845.40 0.1386
845.50 0.1385
845.60 0.1384
845.70 0.1384
845.80 0.1383
845.90 0.1382
846.00 0.1382
846.10 0.1381
846.20 0.1381
846.30 0.138
846.40 0.1379
846.50 0.1379
846.60 0.1378
846.70 0.1377
846.80 0.1377
846.90 0.1376
847.00 0.1376
847.10 0.1375
847.20 0.1374
847.30 0.1374
847.40 0.1373
847.50 0.1372
847.60 0.1372
847.70 0.1371
847.80 0.1371
847.90 0.137
848.00 0.1369
848.10 0.1369
848.20 0.1368
848.30 0.1367
848.40 0.1367
848.50 0.1366
848.60 0.1366
848.70 0.1365
848.80 0.1364
848.90 0.1364
849.00 0.1363
849.10 0.1363
849.20 0.1362
849.30 0.1361
849.40 0.1361
849.50 0.136
849.60 0.1359
849.70 0.1359
849.80 0.1358
849.90 0.1358
850.00 0.1357
850.10 0.1356
850.20 0.1356
850.30 0.1355
850.40 0.1355
850.50 0.1354
850.60 0.1353
850.70 0.1353
850.80 0.1352
850.90 0.1351
851.00 0.1351
851.10 0.135
851.20 0.135
851.30 0.1349
851.40 0.1348
851.50 0.1348
851.60 0.1347
851.70 0.1347
851.80 0.1346
851.90 0.1345
852.00 0.1345
852.10 0.1344
852.20 0.1344
852.30 0.1343
852.40 0.1342
852.50 0.1342
852.60 0.1341
852.70 0.1341
852.80 0.134
852.90 0.1339
853.00 0.1339
853.10 0.1338
853.20 0.1338
853.30 0.1337
853.40 0.1336
853.50 0.1336
853.60 0.1335
853.70 0.1335
853.80 0.1334
853.90 0.1333
854.00 0.1333
854.10 0.1332
854.20 0.1332
854.30 0.1331
854.40 0.133
854.50 0.133
854.60 0.1329
854.70 0.1329
854.80 0.1328
854.90 0.1327
855.00 0.1327
855.10 0.1326
855.20 0.1326
855.30 0.1325
855.40 0.1325
855.50 0.1324
855.60 0.1323
855.70 0.1323
855.80 0.1322
855.90 0.1322
856.00 0.1321
856.10 0.132
856.20 0.132
856.30 0.1319
856.40 0.1319
856.50 0.1318
856.60 0.1317
856.70 0.1317
856.80 0.1316
856.90 0.1316
857.00 0.1315
857.10 0.1315
857.20 0.1314
857.30 0.1313
857.40 0.1313
857.50 0.1312
857.60 0.1312
857.70 0.1311
857.80 0.1311
857.90 0.131
858.00 0.1309
858.10 0.1309
858.20 0.1308
858.30 0.1308
858.40 0.1307
858.50 0.1307
858.60 0.1306
858.70 0.1305
858.80 0.1305
858.90 0.1304
859.00 0.1304
859.10 0.1303
859.20 0.1303
859.30 0.1302
859.40 0.1301
859.50 0.1301
859.60 0.13
859.70 0.13
859.80 0.1299
859.90 0.1299
860.00 0.1298
860.10 0.1297
860.20 0.1297
860.30 0.1296
860.40 0.1296
860.50 0.1295
860.60 0.1295
860.70 0.1294
860.80 0.1294
860.90 0.1293
861.00 0.1292
861.10 0.1292
861.20 0.1291
861.30 0.1291
861.40 0.129
861.50 0.129
861.60 0.1289
861.70 0.1288
861.80 0.1288
861.90 0.1287
862.00 0.1287
862.10 0.1286
862.20 0.1286
862.30 0.1285
862.40 0.1285
862.50 0.1284
862.60 0.1283
862.70 0.1283
862.80 0.1282
862.90 0.1282
863.00 0.1281
863.10 0.1281
863.20 0.128
863.30 0.128
863.40 0.1279
863.50 0.1278
863.60 0.1278
863.70 0.1277
863.80 0.1277
863.90 0.1276
864.00 0.1276
864.10 0.1275
864.20 0.1275
864.30 0.1274
864.40 0.1273
864.50 0.1273
864.60 0.1272
864.70 0.1272
864.80 0.1271
864.90 0.1271
865.00 0.127
865.10 0.127
865.20 0.1269
865.30 0.1268
865.40 0.1268
865.50 0.1267
865.60 0.1267
865.70 0.1266
865.80 0.1266
865.90 0.1265
866.00 0.1265
866.10 0.1264
866.20 0.1263
866.30 0.1263
866.40 0.1262
866.50 0.1262
866.60 0.1261
866.70 0.1261
866.80 0.126
866.90 0.126
867.00 0.1259
867.10 0.1259
867.20 0.1258
867.30 0.1257
867.40 0.1257
867.50 0.1256
867.60 0.1256
867.70 0.1255
867.80 0.1255
867.90 0.1254
868.00 0.1254
868.10 0.1253
868.20 0.1253
868.30 0.1252
868.40 0.1252
868.50 0.1251
868.60 0.1251
868.70 0.125
868.80 0.125
868.90 0.1249
869.00 0.1248
869.10 0.1248
869.20 0.1247
869.30 0.1247
869.40 0.1246
869.50 0.1246
869.60 0.1245
869.70 0.1245
869.80 0.1244
869.90 0.1244
870.00 0.1243
870.10 0.1243
870.20 0.1242
870.30 0.1242
870.40 0.1241
870.50 0.1241
870.60 0.124
870.70 0.124
870.80 0.1239
870.90 0.1238
871.00 0.1238
871.10 0.1237
871.20 0.1237
871.30 0.1236
871.40 0.1236
871.50 0.1235
871.60 0.1235
871.70 0.1234
871.80 0.1234
871.90 0.1233
872.00 0.1233
872.10 0.1232
872.20 0.1232
872.30 0.1231
872.40 0.1231
872.50 0.123
872.60 0.123
872.70 0.1229
872.80 0.1229
872.90 0.1228
873.00 0.1228
873.10 0.1227
873.20 0.1227
873.30 0.1226
873.40 0.1225
873.50 0.1225
873.60 0.1224
873.70 0.1224
873.80 0.1223
873.90 0.1223
874.00 0.1222
874.10 0.1222
874.20 0.1221
874.30 0.1221
874.40 0.122
874.50 0.122
874.60 0.1219
874.70 0.1219
874.80 0.1218
874.90 0.1218
875.00 0.1217
875.10 0.1217
875.20 0.1216
875.30 0.1216
875.40 0.1215
875.50 0.1215
875.60 0.1214
875.70 0.1214
875.80 0.1213
875.90 0.1213
876.00 0.1212
876.10 0.1212
876.20 0.1211
876.30 0.1211
876.40 0.121
876.50 0.121
876.60 0.1209
876.70 0.1209
876.80 0.1208
876.90 0.1208
877.00 0.1207
877.10 0.1207
877.20 0.1206
877.30 0.1206
877.40 0.1205
877.50 0.1205
877.60 0.1204
877.70 0.1204
877.80 0.1203
877.90 0.1203
878.00 0.1202
878.10 0.1202
878.20 0.1201
878.30 0.1201
878.40 0.12
878.50 0.12
878.60 0.1199
878.70 0.1199
878.80 0.1198
878.90 0.1198
879.00 0.1197
879.10 0.1197
879.20 0.1196
879.30 0.1196
879.40 0.1195
879.50 0.1195
879.60 0.1194
879.70 0.1194
879.80 0.1193
879.90 0.1193
880.00 0.1192
880.10 0.1192
880.20 0.1191
880.30 0.1191
880.40 0.119
880.50 0.119
880.60 0.1189
880.70 0.1189
880.80 0.1188
880.90 0.1188
881.00 0.1187
881.10 0.1187
881.20 0.1186
881.30 0.1186
881.40 0.1185
881.50 0.1185
881.60 0.1184
881.70 0.1184
881.80 0.1183
881.90 0.1183
882.00 0.1182
882.10 0.1182
882.20 0.1181
882.30 0.118
882.40 0.118
882.50 0.1179
882.60 0.1179
882.70 0.1178
882.80 0.1178
882.90 0.1177
883.00 0.1176
883.10 0.1176
883.20 0.1175
883.30 0.1175
883.40 0.1174
883.50 0.1174
883.60 0.1173
883.70 0.1173
883.80 0.1172
883.90 0.1171
884.00 0.1171
884.10 0.117
884.20 0.117
884.30 0.1169
884.40 0.1169
884.50 0.1168
884.60 0.1168
884.70 0.1167
884.80 0.1166
884.90 0.1166
885.00 0.1165
885.10 0.1165
885.20 0.1164
885.30 0.1164
885.40 0.1163
885.50 0.1163
885.60 0.1162
885.70 0.1162
885.80 0.1161
885.90 0.116
886.00 0.116
886.10 0.1159
886.20 0.1159
886.30 0.1158
886.40 0.1158
886.50 0.1157
886.60 0.1157
886.70 0.1156
886.80 0.1155
886.90 0.1155
887.00 0.1154
887.10 0.1154
887.20 0.1154
887.30 0.1153
887.40 0.1153
887.50 0.1153
887.60 0.1152
887.70 0.1152
887.80 0.1151
887.90 0.1151
888.00 0.1151
888.10 0.115
888.20 0.115
888.30 0.115
888.40 0.1149
888.50 0.1149
888.60 0.1149
888.70 0.1148
888.80 0.1148
888.90 0.1147
889.00 0.1147
889.10 0.1147
889.20 0.1146
889.30 0.1146
889.40 0.1146
889.50 0.1145
889.60 0.1145
889.70 0.1145
889.80 0.1144
889.90 0.1144
890.00 0.1144
890.10 0.1143
890.20 0.1143
890.30 0.1142
890.40 0.1142
890.50 0.1142
890.60 0.1141
890.70 0.1141
890.80 0.1141
890.90 0.114
891.00 0.114
891.10 0.114
891.20 0.1139
891.30 0.1139
891.40 0.1139
891.50 0.1138
891.60 0.1138
891.70 0.1137
891.80 0.1137
891.90 0.1137
892.00 0.1136
892.10 0.1136
892.20 0.1135
892.30 0.1135
892.40 0.1134
892.50 0.1134
892.60 0.1133
892.70 0.1132
892.80 0.1132
892.90 0.1131
893.00 0.1131
893.10 0.113
893.20 0.113
893.30 0.1129
893.40 0.1128
893.50 0.1128
893.60 0.1127
893.70 0.1127
893.80 0.1126
893.90 0.1126
894.00 0.1125
894.10 0.1124
894.20 0.1124
894.30 0.1123
894.40 0.1123
894.50 0.1122
894.60 0.1122
894.70 0.1121
894.80 0.1121
894.90 0.112
895.00 0.1119
895.10 0.1119
895.20 0.1118
895.30 0.1118
895.40 0.1117
895.50 0.1117
895.60 0.1116
895.70 0.1115
895.80 0.1115
895.90 0.1114
896.00 0.1114
896.10 0.1113
896.20 0.1113
896.30 0.1112
896.40 0.1112
896.50 0.1111
896.60 0.111
896.70 0.111
896.80 0.1109
896.90 0.1109
897.00 0.1108
897.10 0.1107
897.20 0.1107
897.30 0.1106
897.40 0.1105
897.50 0.1105
897.60 0.1104
897.70 0.1103
897.80 0.1103
897.90 0.1102
898.00 0.1101
898.10 0.1101
898.20 0.11
898.30 0.1099
898.40 0.1098
898.50 0.1098
898.60 0.1097
898.70 0.1096
898.80 0.1096
898.90 0.1095
899.00 0.1094
899.10 0.1094
899.20 0.1093
899.30 0.1092
899.40 0.1091
899.50 0.1091
899.60 0.109
899.70 0.1089
899.80 0.1089
899.90 0.1088
900.00 0.1087
900.10 0.1087
900.20 0.1086
900.30 0.1085
900.40 0.1085
900.50 0.1084
900.60 0.1083
900.70 0.1083
900.80 0.1082
900.90 0.1081
901.00 0.108
901.10 0.108
901.20 0.1079
901.30 0.1078
901.40 0.1078
901.50 0.1077
901.60 0.1076
901.70 0.1076
901.80 0.1075
901.90 0.1074
902.00 0.1074
902.10 0.1074
902.20 0.1073
902.30 0.1073
902.40 0.1073
902.50 0.1073
902.60 0.1073
902.70 0.1073
902.80 0.1073
902.90 0.1073
903.00 0.1073
903.10 0.1072
903.20 0.1072
903.30 0.1072
903.40 0.1072
903.50 0.1072
903.60 0.1072
903.70 0.1072
903.80 0.1072
903.90 0.1072
904.00 0.1072
904.10 0.1071
904.20 0.1071
904.30 0.1071
904.40 0.1071
904.50 0.1071
904.60 0.1071
904.70 0.1071
904.80 0.1071
904.90 0.1071
905.00 0.1071
905.10 0.107
905.20 0.107
905.30 0.107
905.40 0.107
905.50 0.107
905.60 0.107
905.70 0.107
905.80 0.107
905.90 0.107
906.00 0.107
906.10 0.1069
906.20 0.1069
906.30 0.1069
906.40 0.1069
906.50 0.1069
906.60 0.1069
906.70 0.1069
906.80 0.1069
906.90 0.1069
907.00 0.1069
907.10 0.1068
907.20 0.1068
907.30 0.1068
907.40 0.1067
907.50 0.1067
907.60 0.1066
907.70 0.1066
907.80 0.1066
907.90 0.1065
908.00 0.1065
908.10 0.1065
908.20 0.1064
908.30 0.1064
908.40 0.1064
908.50 0.1063
908.60 0.1063
908.70 0.1063
908.80 0.1062
908.90 0.1062
909.00 0.1062
909.10 0.1061
909.20 0.1061
909.30 0.1061
909.40 0.106
909.50 0.106
909.60 0.106
909.70 0.1059
909.80 0.1059
909.90 0.1059
910.00 0.1058
910.10 0.1058
910.20 0.1058
910.30 0.1057
910.40 0.1057
910.50 0.1056
910.60 0.1056
910.70 0.1056
910.80 0.1055
910.90 0.1055
911.00 0.1055
911.10 0.1054
911.20 0.1054
911.30 0.1054
911.40 0.1053
911.50 0.1053
911.60 0.1053
911.70 0.1052
911.80 0.1052
911.90 0.1052
912.00 0.1051
912.10 0.1051
912.20 0.105
912.30 0.1049
912.40 0.1049
912.50 0.1048
912.60 0.1048
912.70 0.1047
912.80 0.1046
912.90 0.1046
913.00 0.1045
913.10 0.1044
913.20 0.1044
913.30 0.1043
913.40 0.1043
913.50 0.1042
913.60 0.1041
913.70 0.1041
913.80 0.104
913.90 0.1039
914.00 0.1039
914.10 0.1038
914.20 0.1038
914.30 0.1037
914.40 0.1036
914.50 0.1036
914.60 0.1035
914.70 0.1034
914.80 0.1034
914.90 0.1033
915.00 0.1033
915.10 0.1032
915.20 0.1031
915.30 0.1031
915.40 0.103
915.50 0.1029
915.60 0.1029
915.70 0.1028
915.80 0.1028
915.90 0.1027
916.00 0.1026
916.10 0.1026
916.20 0.1025
916.30 0.1024
916.40 0.1024
916.50 0.1023
916.60 0.1023
916.70 0.1022
916.80 0.1021
916.90 0.1021
917.00 0.102
917.10 0.1019
917.20 0.1018
917.30 0.1017
917.40 0.1016
917.50 0.1015
917.60 0.1014
917.70 0.1013
917.80 0.1012
917.90 0.1011
918.00 0.101
918.10 0.1009
918.20 0.1008
918.30 0.1007
918.40 0.1006
918.50 0.1005
918.60 0.1004
918.70 0.1003
918.80 0.1002
918.90 0.1001
919.00 0.1
919.10 0.0999
919.20 0.0998
919.30 0.0997
919.40 0.0996
919.50 0.0995
919.60 0.0994
919.70 0.0993
919.80 0.0992
919.90 0.0991
920.00 0.099
920.10 0.0989
920.20 0.0988
920.30 0.0987
920.40 0.0986
920.50 0.09851
920.60 0.09841
920.70 0.09831
920.80 0.09821
920.90 0.09811
921.00 0.09801
921.10 0.09791
921.20 0.09781
921.30 0.09771
921.40 0.09761
921.50 0.09751
921.60 0.09741
921.70 0.09731
921.80 0.09721
921.90 0.09711
922.00 0.09702
922.10 0.09702
922.20 0.09703
922.30 0.09703
922.40 0.09704
922.50 0.09705
922.60 0.09705
922.70 0.09706
922.80 0.09706
922.90 0.09707
923.00 0.09708
923.10 0.09708
923.20 0.09709
923.30 0.09709
923.40 0.0971
923.50 0.09711
923.60 0.09711
923.70 0.09712
923.80 0.09712
923.90 0.09713
924.00 0.09714
924.10 0.09714
924.20 0.09715
924.30 0.09715
924.40 0.09716
924.50 0.09716
924.60 0.09717
924.70 0.09718
924.80 0.09718
924.90 0.09719
925.00 0.09719
925.10 0.0972
925.20 0.09721
925.30 0.09721
925.40 0.09722
925.50 0.09722
925.60 0.09723
925.70 0.09724
925.80 0.09724
925.90 0.09725
926.00 0.09725
926.10 0.09726
926.20 0.09726
926.30 0.09727
926.40 0.09728
926.50 0.09728
926.60 0.09729
926.70 0.09729
926.80 0.0973
926.90 0.0973
927.00 0.09731
927.10 0.09731
927.20 0.09731
927.30 0.0973
927.40 0.0973
927.50 0.0973
927.60 0.0973
927.70 0.09729
927.80 0.09729
927.90 0.09729
928.00 0.09728
928.10 0.09728
928.20 0.09728
928.30 0.09728
928.40 0.09727
928.50 0.09727
928.60 0.09727
928.70 0.09727
928.80 0.09726
928.90 0.09726
929.00 0.09726
929.10 0.09726
929.20 0.09725
929.30 0.09725
929.40 0.09725
929.50 0.09725
929.60 0.09724
929.70 0.09724
929.80 0.09724
929.90 0.09723
930.00 0.09723
930.10 0.09723
930.20 0.09723
930.30 0.09722
930.40 0.09722
930.50 0.09722
930.60 0.09722
930.70 0.09721
930.80 0.09721
930.90 0.09721
931.00 0.09721
931.10 0.0972
931.20 0.0972
931.30 0.0972
931.40 0.09719
931.50 0.09719
931.60 0.09719
931.70 0.09719
931.80 0.09718
931.90 0.09718
932.00 0.09718
932.10 0.09716
932.20 0.09713
932.30 0.09711
932.40 0.09708
932.50 0.09706
932.60 0.09704
932.70 0.09701
932.80 0.09699
932.90 0.09697
933.00 0.09694
933.10 0.09692
933.20 0.0969
933.30 0.09687
933.40 0.09685
933.50 0.09683
933.60 0.0968
933.70 0.09678
933.80 0.09676
933.90 0.09673
934.00 0.09671
934.10 0.09669
934.20 0.09666
934.30 0.09664
934.40 0.09661
934.50 0.09657
934.60 0.09654
934.70 0.09651
934.80 0.09648
934.90 0.09645
935.00 0.09641
935.10 0.09638
935.20 0.09635
935.30 0.09632
935.40 0.09628
935.50 0.09625
935.60 0.09622
935.70 0.09619
935.80 0.09616
935.90 0.09612
936.00 0.09609
936.10 0.09606
936.20 0.09603
936.30 0.096
936.40 0.09596
936.50 0.09593
936.60 0.0959
936.70 0.09587
936.80 0.09584
936.90 0.0958
937.00 0.09577
937.10 0.09574
937.20 0.0957
937.30 0.09566
937.40 0.09562
937.50 0.09558
937.60 0.09555
937.70 0.09551
937.80 0.09547
937.90 0.09543
938.00 0.0954
938.10 0.09536
938.20 0.09532
938.30 0.09528
938.40 0.09524
938.50 0.0952
938.60 0.09516
938.70 0.09512
938.80 0.09507
938.90 0.09503
939.00 0.09499
939.10 0.09495
939.20 0.09491
939.30 0.09486
939.40 0.09482
939.50 0.09478
939.60 0.09474
939.70 0.0947
939.80 0.09466
939.90 0.09461
940.00 0.09457
940.10 0.09453
940.20 0.09449
940.30 0.09445
940.40 0.0944
940.50 0.09435
940.60 0.0943
940.70 0.09426
940.80 0.09421
940.90 0.09416
941.00 0.09412
941.10 0.09407
941.20 0.09402
941.30 0.09397
941.40 0.09393
941.50 0.09388
941.60 0.09383
941.70 0.09379
941.80 0.09374
941.90 0.09369
942.00 0.09364
942.10 0.09359
942.20 0.09354
942.30 0.09349
942.40 0.09344
942.50 0.09338
942.60 0.09333
942.70 0.09327
942.80 0.09322
942.90 0.09316
943.00 0.09311
943.10 0.09305
943.20 0.093
943.30 0.09294
943.40 0.09288
943.50 0.09283
943.60 0.09277
943.70 0.09272
943.80 0.09266
943.90 0.09261
944.00 0.09255
944.10 0.0925
944.20 0.09244
944.30 0.09239
944.40 0.09233
944.50 0.09226
944.60 0.0922
944.70 0.09214
944.80 0.09208
944.90 0.09202
945.00 0.09195
945.10 0.09189
945.20 0.09183
945.30 0.09177
945.40 0.09169
945.50 0.09162
945.60 0.09155
945.70 0.09148
945.80 0.09141
945.90 0.09134
946.00 0.09127
946.10 0.0912
946.20 0.09112
946.30 0.09105
946.40 0.09098
946.50 0.09091
946.60 0.09084
946.70 0.09077
946.80 0.0907
946.90 0.09063
947.00 0.09056
947.10 0.09048
947.20 0.0904
947.30 0.09032
947.40 0.09023
947.50 0.09014
947.60 0.09005
947.70 0.08995
947.80 0.08986
947.90 0.08977
948.00 0.08968
948.10 0.08959
948.20 0.0895
948.30 0.08941
948.40 0.08932
948.50 0.08923
948.60 0.08914
948.70 0.08905
948.80 0.08896
948.90 0.08887
949.00 0.08877
949.10 0.08868
949.20 0.08859
949.30 0.0885
949.40 0.08839
949.50 0.08827
949.60 0.08815
949.70 0.08803
949.80 0.08792
949.90 0.0878
950.00 0.08768
950.10 0.08756
950.20 0.08745
950.30 0.08733
950.40 0.08721
950.50 0.08709
950.60 0.08698
950.70 0.08686
950.80 0.08674
950.90 0.08663
951.00 0.08651
951.10 0.08639
951.20 0.08627
951.30 0.08616
951.40 0.08602
951.50 0.08588
951.60 0.08574
951.70 0.0856
951.80 0.08546
951.90 0.08532
952.00 0.08518
952.10 0.08503
952.20 0.08488
952.30 0.08473
952.40 0.08458
952.50 0.08442
952.60 0.08427
952.70 0.08412
952.80 0.08397
952.90 0.08381
953.00 0.08365
953.10 0.08349
953.20 0.08333
953.30 0.08317
953.40 0.08301
953.50 0.08285
953.60 0.08269
953.70 0.08253
953.80 0.08237
953.90 0.08221
954.00 0.08205
954.10 0.0819
954.20 0.08175
954.30 0.08161
954.40 0.08148
954.50 0.08137
954.60 0.08134
954.70 0.08131
954.80 0.08139
954.90 0.08146
955.00 0.08153
955.10 0.08161
955.20 0.0817
955.30 0.0818
955.40 0.08189
955.50 0.08199
955.60 0.08208
955.70 0.08218
955.80 0.08227
955.90 0.08237
956.00 0.08246
956.10 0.08255
956.20 0.08264
956.30 0.08273
956.40 0.08282
956.50 0.08291
956.60 0.083
956.70 0.08309
956.80 0.08318
956.90 0.08327
957.00 0.08336
957.10 0.08344
957.20 0.08352
957.30 0.0836
957.40 0.08366
957.50 0.08372
957.60 0.08377
957.70 0.08383
957.80 0.08389
957.90 0.08395
958.00 0.08401
958.10 0.08406
958.20 0.08412
958.30 0.08418
958.40 0.08424
958.50 0.08429
958.60 0.08435
958.70 0.08441
958.80 0.08447
958.90 0.08452
959.00 0.08458
959.10 0.08464
959.20 0.0847
959.30 0.08475
959.40 0.08478
959.50 0.08481
959.60 0.08483
959.70 0.08486
959.80 0.08489
959.90 0.08492
960.00 0.08494
960.10 0.08497
960.20 0.085
960.30 0.08502
960.40 0.08505
960.50 0.08508
960.60 0.0851
960.70 0.08513
960.80 0.08516
960.90 0.08519
961.00 0.08521
961.10 0.08524
961.20 0.08527
961.30 0.08529
961.40 0.0853
961.50 0.08532
961.60 0.08533
961.70 0.08534
961.80 0.08535
961.90 0.08536
962.00 0.08537
962.10 0.08538
962.20 0.08538
962.30 0.08538
962.40 0.08538
962.50 0.08539
962.60 0.08539
962.70 0.08539
962.80 0.0854
962.90 0.0854
963.00 0.0854
963.10 0.0854
963.20 0.08541
963.30 0.08541
963.40 0.0854
963.50 0.0854
963.60 0.08539
963.70 0.08539
963.80 0.08538
963.90 0.08538
964.00 0.08537
964.10 0.08537
964.20 0.08536
964.30 0.08536
964.40 0.08534
964.50 0.08533
964.60 0.08532
964.70 0.08531
964.80 0.08529
964.90 0.08528
965.00 0.08527
965.10 0.08526
965.20 0.08524
965.30 0.08523
965.40 0.08522
965.50 0.0852
965.60 0.08519
965.70 0.08518
965.80 0.08517
965.90 0.08515
966.00 0.08514
966.10 0.08513
966.20 0.08512
966.30 0.0851
966.40 0.08508
966.50 0.08507
966.60 0.08505
966.70 0.08503
966.80 0.08501
966.90 0.085
967.00 0.08498
967.10 0.08496
967.20 0.08494
967.30 0.08492
967.40 0.08489
967.50 0.08487
967.60 0.08485
967.70 0.08483
967.80 0.08481
967.90 0.08479
968.00 0.08477
968.10 0.08475
968.20 0.08473
968.30 0.08471
968.40 0.08468
968.50 0.08466
968.60 0.08464
968.70 0.08461
968.80 0.08459
968.90 0.08456
969.00 0.08454
969.10 0.08451
969.20 0.08449
969.30 0.08447
969.40 0.08444
969.50 0.08442
969.60 0.08439
969.70 0.08437
969.80 0.08434
969.90 0.08432
970.00 0.0843
970.10 0.08427
970.20 0.08425
970.30 0.08422
970.40 0.0842
970.50 0.08417
970.60 0.08414
970.70 0.08412
970.80 0.08409
970.90 0.08406
971.00 0.08404
971.10 0.08401
971.20 0.08398
971.30 0.08395
971.40 0.08393
971.50 0.0839
971.60 0.08387
971.70 0.08385
971.80 0.08382
971.90 0.08379
972.00 0.08377
972.10 0.08374
972.20 0.08371
972.30 0.08368
972.40 0.08365
972.50 0.08362
972.60 0.08359
972.70 0.08356
972.80 0.08353
972.90 0.08351
973.00 0.08348
973.10 0.08345
973.20 0.08342
973.30 0.08339
973.40 0.08336
973.50 0.08333
973.60 0.0833
973.70 0.08327
973.80 0.08325
973.90 0.08322
974.00 0.08319
974.10 0.08316
974.20 0.08313
974.30 0.0831
974.40 0.08307
974.50 0.08304
974.60 0.08301
974.70 0.08298
974.80 0.08295
974.90 0.08292
975.00 0.08289
975.10 0.08286
975.20 0.08283
975.30 0.0828
975.40 0.08276
975.50 0.08273
975.60 0.0827
975.70 0.08267
975.80 0.08264
975.90 0.08261
976.00 0.08258
976.10 0.08255
976.20 0.08252
976.30 0.08249
976.40 0.08246
976.50 0.08243
976.60 0.0824
976.70 0.08237
976.80 0.08234
976.90 0.08231
977.00 0.08228
977.10 0.08225
977.20 0.08221
977.30 0.08218
977.40 0.08215
977.50 0.08212
977.60 0.08208
977.70 0.08205
977.80 0.08202
977.90 0.08199
978.00 0.08195
978.10 0.08192
978.20 0.08189
978.30 0.08186
978.40 0.08183
978.50 0.08179
978.60 0.08176
978.70 0.08173
978.80 0.0817
978.90 0.08167
979.00 0.08163
979.10 0.0816
979.20 0.08157
979.30 0.08154
979.40 0.0815
979.50 0.08147
979.60 0.08144
979.70 0.08141
979.80 0.08138
979.90 0.08134
980.00 0.08131
980.10 0.08128
980.20 0.08125
980.30 0.08122
980.40 0.08118
980.50 0.08115
980.60 0.08112
980.70 0.08109
980.80 0.08106
980.90 0.08102
981.00 0.08099
981.10 0.08096
981.20 0.08093
981.30 0.0809
981.40 0.08087
981.50 0.08083
981.60 0.0808
981.70 0.08077
981.80 0.08074
981.90 0.08071
982.00 0.08067
982.10 0.08064
982.20 0.08061
982.30 0.08057
982.40 0.08054
982.50 0.08051
982.60 0.08047
982.70 0.08044
982.80 0.08041
982.90 0.08037
983.00 0.08034
983.10 0.0803
983.20 0.08027
983.30 0.08024
983.40 0.0802
983.50 0.08017
983.60 0.08014
983.70 0.0801
983.80 0.08007
983.90 0.08004
984.00 0.08
984.10 0.07997
984.20 0.07994
984.30 0.0799
984.40 0.07987
984.50 0.07983
984.60 0.0798
984.70 0.07977
984.80 0.07973
984.90 0.0797
985.00 0.07966
985.10 0.07963
985.20 0.07959
985.30 0.07956
985.40 0.07952
985.50 0.07949
985.60 0.07945
985.70 0.07942
985.80 0.07938
985.90 0.07935
986.00 0.07931
986.10 0.07928
986.20 0.07924
986.30 0.07921
986.40 0.07917
986.50 0.07914
986.60 0.0791
986.70 0.07907
986.80 0.07903
986.90 0.079
987.00 0.07896
987.10 0.07892
987.20 0.07889
987.30 0.07885
987.40 0.07881
987.50 0.07878
987.60 0.07874
987.70 0.0787
987.80 0.07867
987.90 0.07863
988.00 0.07859
988.10 0.07856
988.20 0.07852
988.30 0.07848
988.40 0.07845
988.50 0.07841
988.60 0.07837
988.70 0.07834
988.80 0.0783
988.90 0.07826
989.00 0.07822
989.10 0.07818
989.20 0.07814
989.30 0.0781
989.40 0.07806
989.50 0.07802
989.60 0.07798
989.70 0.07794
989.80 0.07791
989.90 0.07787
990.00 0.07783
990.10 0.07779
990.20 0.07775
990.30 0.07771
990.40 0.07767
990.50 0.07763
990.60 0.07759
990.70 0.07755
990.80 0.07751
990.90 0.07747
991.00 0.07743
991.10 0.07738
991.20 0.07734
991.30 0.0773
991.40 0.07726
991.50 0.07721
991.60 0.07717
991.70 0.07713
991.80 0.07709
991.90 0.07704
992.00 0.077
992.10 0.07696
992.20 0.07691
992.30 0.07687
992.40 0.07682
992.50 0.07678
992.60 0.07673
992.70 0.07669
992.80 0.07664
992.90 0.07659
993.00 0.07654
993.10 0.07649
993.20 0.07644
993.30 0.07639
993.40 0.07634
993.50 0.07629
993.60 0.07624
993.70 0.07619
993.80 0.07614
993.90 0.07609
994.00 0.07604
994.10 0.07599
994.20 0.07594
994.30 0.07589
994.40 0.07584
994.50 0.07579
994.60 0.07574
994.70 0.07569
994.80 0.07563
994.90 0.07558
995.00 0.07552
995.10 0.07546
995.20 0.0754
995.30 0.07535
995.40 0.07529
995.50 0.07523
995.60 0.07518
995.70 0.07511
995.80 0.07505
995.90 0.07498
996.00 0.07492
996.10 0.07485
996.20 0.07479
996.30 0.07472
996.40 0.07466
996.50 0.07459
996.60 0.07453
996.70 0.07446
996.80 0.0744
996.90 0.07433
997.00 0.07427
997.10 0.0742
997.20 0.07412
997.30 0.07405
997.40 0.07397
997.50 0.0739
997.60 0.07383
997.70 0.07374
997.80 0.07365
997.90 0.07356
998.00 0.07347
998.10 0.07338
998.20 0.07329
998.30 0.0732
998.40 0.07311
998.50 0.07302
998.60 0.07293
998.70 0.07283
998.80 0.07274
998.90 0.07265
999.00 0.07256
999.10 0.07247
999.20 0.07238
999.30 0.07229
999.40 0.0722
999.50 0.07211
999.60 0.07202
999.70 0.07191
999.80 0.07178
999.90 0.07165
1000.00 0.07152
1000.10 0.0714
1000.20 0.07127
1000.30 0.07114
1000.40 0.07101
1000.50 0.07089
1000.60 0.07076
1000.70 0.07063
1000.80 0.0705
1000.90 0.07038
1001.00 0.07025
1001.10 0.07012
1001.20 0.07
1001.30 0.06987
1001.40 0.06974
1001.50 0.06962
1001.60 0.06949
1001.70 0.06934
1001.80 0.06918
1001.90 0.06902
1002.00 0.06887
1002.10 0.06868
1002.20 0.0685
1002.30 0.06832
1002.40 0.06814
1002.50 0.06796
1002.60 0.06777
1002.70 0.06759
1002.80 0.06741
1002.90 0.06723
1003.00 0.06705
1003.10 0.06687
1003.20 0.06666
1003.30 0.06645
1003.40 0.06624
1003.50 0.06603
1003.60 0.06582
1003.70 0.06561
1003.80 0.0654
1003.90 0.06518
1004.00 0.06496
1004.10 0.06475
1004.20 0.06453
1004.30 0.06433
1004.40 0.06414
1004.50 0.06397
1004.60 0.06385
1004.70 0.06381
1004.80 0.06386
1004.90 0.06387
1005.00 0.06388
1005.10 0.06387
1005.20 0.06386
1005.30 0.06385
1005.40 0.06384
1005.50 0.06396
1005.60 0.06412
1005.70 0.06428
1005.80 0.06444
1005.90 0.0646
1006.00 0.06477
1006.10 0.06493
1006.20 0.06508
1006.30 0.06524
1006.40 0.0654
1006.50 0.06555
1006.60 0.06571
1006.70 0.06586
1006.80 0.06602
1006.90 0.06618
1007.00 0.06633
1007.10 0.06646
1007.20 0.06659
1007.30 0.06672
1007.40 0.06685
1007.50 0.06698
1007.60 0.06711
1007.70 0.0672
1007.80 0.06729
1007.90 0.06738
1008.00 0.06747
1008.10 0.06756
1008.20 0.06764
1008.30 0.06773
1008.40 0.06782
1008.50 0.06791
1008.60 0.068
1008.70 0.06808
1008.80 0.06817
1008.90 0.06826
1009.00 0.06835
1009.10 0.06844
1009.20 0.06852
1009.30 0.06861
1009.40 0.0687
1009.50 0.06879
1009.60 0.06887
1009.70 0.06893
1009.80 0.06897
1009.90 0.06901
1010.00 0.06906
1010.10 0.0691
1010.20 0.06914
1010.30 0.06918
1010.40 0.06923
1010.50 0.06927
1010.60 0.06931
1010.70 0.06936
1010.80 0.0694
1010.90 0.06944
1011.00 0.06949
1011.10 0.06953
1011.20 0.06957
1011.30 0.06961
1011.40 0.06966
1011.50 0.0697
1011.60 0.06974
1011.70 0.06977
1011.80 0.0698
1011.90 0.06982
1012.00 0.06985
1012.10 0.06986
1012.20 0.06987
1012.30 0.06989
1012.40 0.0699
1012.50 0.06991
1012.60 0.06993
1012.70 0.06994
1012.80 0.06996
1012.90 0.06997
1013.00 0.06998
1013.10 0.07
1013.20 0.07001
1013.30 0.07002
1013.40 0.07004
1013.50 0.07005
1013.60 0.07007
1013.70 0.07007
1013.80 0.07007
1013.90 0.07008
1014.00 0.07008
1014.10 0.07008
1014.20 0.07008
1014.30 0.07009
1014.40 0.07009
1014.50 0.07009
1014.60 0.07009
1014.70 0.07009
1014.80 0.07009
1014.90 0.07008
1015.00 0.07007
1015.10 0.07007
1015.20 0.07006
1015.30 0.07006
1015.40 0.07005
1015.50 0.07004
1015.60 0.07004
1015.70 0.07003
1015.80 0.07003
1015.90 0.07002
1016.00 0.07002
1016.10 0.07001
1016.20 0.07
1016.30 0.07
1016.40 0.06999
1016.50 0.06999
1016.60 0.06998
1016.70 0.06997
1016.80 0.06996
1016.90 0.06995
1017.00 0.06994
1017.10 0.06993
1017.20 0.06991
1017.30 0.0699
1017.40 0.06989
1017.50 0.06987
1017.60 0.06986
1017.70 0.06984
1017.80 0.06983
1017.90 0.06982
1018.00 0.0698
1018.10 0.06979
1018.20 0.06978
1018.30 0.06976
1018.40 0.06975
1018.50 0.06973
1018.60 0.06972
1018.70 0.0697
1018.80 0.06969
1018.90 0.06967
1019.00 0.06965
1019.10 0.06963
1019.20 0.06962
1019.30 0.0696
1019.40 0.06958
1019.50 0.06956
1019.60 0.06955
1019.70 0.06953
1019.80 0.06951
1019.90 0.06949
1020.00 0.06948
1020.10 0.06946
1020.20 0.06944
1020.30 0.06942
1020.40 0.06941
1020.50 0.06939
1020.60 0.06937
1020.70 0.06935
1020.80 0.06933
1020.90 0.06931
1021.00 0.06929
1021.10 0.06927
1021.20 0.06925
1021.30 0.06923
1021.40 0.06921
1021.50 0.06919
1021.60 0.06917
1021.70 0.06915
1021.80 0.06913
1021.90 0.06911
1022.00 0.06909
1022.10 0.06907
1022.20 0.06905
1022.30 0.06903
1022.40 0.06901
1022.50 0.06898
1022.60 0.06896
1022.70 0.06894
1022.80 0.06892
1022.90 0.0689
1023.00 0.06888
1023.10 0.06885
1023.20 0.06883
1023.30 0.06881
1023.40 0.06879
1023.50 0.06877
1023.60 0.06875
1023.70 0.06872
1023.80 0.0687
1023.90 0.06868
1024.00 0.06866
1024.10 0.06864
1024.20 0.06862
1024.30 0.0686
1024.40 0.06857
1024.50 0.06855
1024.60 0.06853
1024.70 0.06851
1024.80 0.06849
1024.90 0.06846
1025.00 0.06844
1025.10 0.06842
1025.20 0.06839
1025.30 0.06837
1025.40 0.06835
1025.50 0.06832
1025.60 0.0683
1025.70 0.06828
1025.80 0.06826
1025.90 0.06823
1026.00 0.06821
1026.10 0.06819
1026.20 0.06816
1026.30 0.06814
1026.40 0.06812
1026.50 0.0681
1026.60 0.06807
1026.70 0.06805
1026.80 0.06803
1026.90 0.06801
1027.00 0.06798
1027.10 0.06796
1027.20 0.06793
1027.30 0.06791
1027.40 0.06789
1027.50 0.06786
1027.60 0.06784
1027.70 0.06782
1027.80 0.06779
1027.90 0.06777
1028.00 0.06774
1028.10 0.06772
1028.20 0.0677
1028.30 0.06767
1028.40 0.06765
1028.50 0.06763
1028.60 0.0676
1028.70 0.06758
1028.80 0.06755
1028.90 0.06753
1029.00 0.06751
1029.10 0.06748
1029.20 0.06746
1029.30 0.06744
1029.40 0.06741
1029.50 0.06739
1029.60 0.06736
1029.70 0.06734
1029.80 0.06732
1029.90 0.06729
1030.00 0.06727
1030.10 0.06725
1030.20 0.06722
1030.30 0.0672
1030.40 0.06718
1030.50 0.06715
1030.60 0.06713
1030.70 0.0671
1030.80 0.06708
1030.90 0.06706
1031.00 0.06703
1031.10 0.06701
1031.20 0.06699
1031.30 0.06696
1031.40 0.06694
1031.50 0.06692
1031.60 0.06689
1031.70 0.06687
1031.80 0.06685
1031.90 0.06682
1032.00 0.0668
1032.10 0.06677
1032.20 0.06675
1032.30 0.06673
1032.40 0.0667
1032.50 0.06668
1032.60 0.06665
1032.70 0.06663
1032.80 0.06661
1032.90 0.06658
1033.00 0.06656
1033.10 0.06653
1033.20 0.06651
1033.30 0.06649
1033.40 0.06646
1033.50 0.06644
1033.60 0.06641
1033.70 0.06639
1033.80 0.06637
1033.90 0.06634
1034.00 0.06632
1034.10 0.06629
1034.20 0.06627
1034.30 0.06625
1034.40 0.06622
1034.50 0.0662
1034.60 0.06617
1034.70 0.06615
1034.80 0.06613
1034.90 0.0661
1035.00 0.06608
1035.10 0.06605
1035.20 0.06603
1035.30 0.06601
1035.40 0.06598
1035.50 0.06596
1035.60 0.06593
1035.70 0.06591
1035.80 0.06589
1035.90 0.06586
1036.00 0.06584
1036.10 0.06581
1036.20 0.06579
1036.30 0.06577
1036.40 0.06574
1036.50 0.06572
1036.60 0.0657
1036.70 0.06567
1036.80 0.06565
1036.90 0.06562
1037.00 0.0656
1037.10 0.06558
1037.20 0.06555
1037.30 0.06553
1037.40 0.0655
1037.50 0.06548
1037.60 0.06546
1037.70 0.06543
1037.80 0.06541
1037.90 0.06538
1038.00 0.06536
1038.10 0.06534
1038.20 0.06531
1038.30 0.06529
1038.40 0.06527
1038.50 0.06524
1038.60 0.06522
1038.70 0.06519
1038.80 0.06517
1038.90 0.06515
1039.00 0.06512
1039.10 0.0651
1039.20 0.06507
1039.30 0.06505
1039.40 0.06503
1039.50 0.065
1039.60 0.06498
1039.70 0.06496
1039.80 0.06493
1039.90 0.06491
1040.00 0.06488
1040.10 0.06486
1040.20 0.06484
1040.30 0.06481
1040.40 0.06479
1040.50 0.06476
1040.60 0.06474
1040.70 0.06472
1040.80 0.06469
1040.90 0.06467
1041.00 0.06465
1041.10 0.06462
1041.20 0.0646
1041.30 0.06458
1041.40 0.06455
1041.50 0.06453
1041.60 0.0645
1041.70 0.06448
1041.80 0.06446
1041.90 0.06443
1042.00 0.06441
1042.10 0.06439
1042.20 0.06436
1042.30 0.06434
1042.40 0.06431
1042.50 0.06429
1042.60 0.06427
1042.70 0.06424
1042.80 0.06422
1042.90 0.0642
1043.00 0.06417
1043.10 0.06415
1043.20 0.06413
1043.30 0.0641
1043.40 0.06408
1043.50 0.06406
1043.60 0.06403
1043.70 0.06401
1043.80 0.06398
1043.90 0.06396
1044.00 0.06394
1044.10 0.06391
1044.20 0.06389
1044.30 0.06387
1044.40 0.06384
1044.50 0.06382
1044.60 0.0638
1044.70 0.06377
1044.80 0.06375
1044.90 0.06373
1045.00 0.0637
1045.10 0.06368
1045.20 0.06366
1045.30 0.06363
1045.40 0.06361
1045.50 0.06359
1045.60 0.06356
1045.70 0.06354
1045.80 0.06352
1045.90 0.06349
1046.00 0.06347
1046.10 0.06345
1046.20 0.06342
1046.30 0.0634
1046.40 0.06338
1046.50 0.06335
1046.60 0.06333
1046.70 0.06331
1046.80 0.06328
1046.90 0.06326
1047.00 0.06324
1047.10 0.06321
1047.20 0.06319
1047.30 0.06317
1047.40 0.06314
1047.50 0.06312
1047.60 0.0631
1047.70 0.06307
1047.80 0.06305
1047.90 0.06303
1048.00 0.063
1048.10 0.06298
1048.20 0.06296
1048.30 0.06293
1048.40 0.06291
1048.50 0.06289
1048.60 0.06286
1048.70 0.06284
1048.80 0.06282
1048.90 0.06279
1049.00 0.06277
1049.10 0.06275
1049.20 0.06272
1049.30 0.0627
1049.40 0.06268
1049.50 0.06265
1049.60 0.06263
1049.70 0.06261
1049.80 0.06258
1049.90 0.06256
1050.00 0.06254
1050.10 0.06252
1050.20 0.06249
1050.30 0.06247
1050.40 0.06245
1050.50 0.06242
1050.60 0.0624
1050.70 0.06238
1050.80 0.06235
1050.90 0.06233
1051.00 0.06231
1051.10 0.06228
1051.20 0.06226
1051.30 0.06224
1051.40 0.06222
1051.50 0.06219
1051.60 0.06217
1051.70 0.06215
1051.80 0.06212
1051.90 0.0621
1052.00 0.06208
1052.10 0.06205
1052.20 0.06203
1052.30 0.06201
1052.40 0.06199
1052.50 0.06196
1052.60 0.06194
1052.70 0.06192
1052.80 0.06189
1052.90 0.06187
1053.00 0.06185
1053.10 0.06183
1053.20 0.0618
1053.30 0.06178
1053.40 0.06176
1053.50 0.06173
1053.60 0.06171
1053.70 0.06169
1053.80 0.06167
1053.90 0.06164
1054.00 0.06162
1054.10 0.0616
1054.20 0.06157
1054.30 0.06155
1054.40 0.06153
1054.50 0.06151
1054.60 0.06148
1054.70 0.06146
1054.80 0.06144
1054.90 0.06141
1055.00 0.06139
1055.10 0.06137
1055.20 0.06135
1055.30 0.06132
1055.40 0.0613
1055.50 0.06128
1055.60 0.06126
1055.70 0.06123
1055.80 0.06121
1055.90 0.06119
1056.00 0.06116
1056.10 0.06114
1056.20 0.06112
1056.30 0.0611
1056.40 0.06107
1056.50 0.06105
1056.60 0.06103
1056.70 0.06101
1056.80 0.06098
1056.90 0.06096
1057.00 0.06094
1057.10 0.06092
1057.20 0.06089
1057.30 0.06087
1057.40 0.06085
1057.50 0.06082
1057.60 0.0608
1057.70 0.06078
1057.80 0.06076
1057.90 0.06073
1058.00 0.06071
1058.10 0.06069
1058.20 0.06067
1058.30 0.06064
1058.40 0.06062
1058.50 0.0606
1058.60 0.06058
1058.70 0.06055
1058.80 0.06053
1058.90 0.06051
1059.00 0.06049
1059.10 0.06046
1059.20 0.06044
1059.30 0.06042
1059.40 0.06039
1059.50 0.06037
1059.60 0.06035
1059.70 0.06033
1059.80 0.0603
1059.90 0.06028
1060.00 0.06026
1060.10 0.06024
1060.20 0.06021
1060.30 0.06019
1060.40 0.06017
1060.50 0.06015
1060.60 0.06013
1060.70 0.0601
1060.80 0.06008
1060.90 0.06006
1061.00 0.06004
1061.10 0.06001
1061.20 0.05999
1061.30 0.05997
1061.40 0.05995
1061.50 0.05992
1061.60 0.0599
1061.70 0.05988
1061.80 0.05986
1061.90 0.05983
1062.00 0.05981
1062.10 0.05979
1062.20 0.05977
1062.30 0.05974
1062.40 0.05972
1062.50 0.0597
1062.60 0.05968
1062.70 0.05965
1062.80 0.05963
1062.90 0.05961
1063.00 0.05959
1063.10 0.05956
1063.20 0.05954
1063.30 0.05952
1063.40 0.0595
1063.50 0.05947
1063.60 0.05945
1063.70 0.05943
1063.80 0.05941
1063.90 0.05938
1064.00 0.05936
1064.10 0.05934
1064.20 0.05932
1064.30 0.05929
1064.40 0.05927
1064.50 0.05925
1064.60 0.05923
1064.70 0.0592
1064.80 0.05918
1064.90 0.05916
1065.00 0.05914
1065.10 0.05911
1065.20 0.05909
1065.30 0.05907
1065.40 0.05905
1065.50 0.05902
1065.60 0.059
1065.70 0.05898
1065.80 0.05896
1065.90 0.05894
1066.00 0.05891
1066.10 0.05889
1066.20 0.05887
1066.30 0.05885
1066.40 0.05882
1066.50 0.0588
1066.60 0.05878
1066.70 0.05876
1066.80 0.05873
1066.90 0.05871
1067.00 0.05869
1067.10 0.05867
1067.20 0.05864
1067.30 0.05862
1067.40 0.0586
1067.50 0.05858
1067.60 0.05855
1067.70 0.05853
1067.80 0.05851
1067.90 0.05848
1068.00 0.05846
1068.10 0.05844
1068.20 0.05842
1068.30 0.05839
1068.40 0.05837
1068.50 0.05835
1068.60 0.05832
1068.70 0.0583
1068.80 0.05828
1068.90 0.05826
1069.00 0.05823
1069.10 0.05821
1069.20 0.05819
1069.30 0.05817
1069.40 0.05814
1069.50 0.05812
1069.60 0.0581
1069.70 0.05807
1069.80 0.05805
1069.90 0.05803
1070.00 0.05801
1070.10 0.05798
1070.20 0.05796
1070.30 0.05794
1070.40 0.05792
1070.50 0.05789
1070.60 0.05787
1070.70 0.05785
1070.80 0.05783
1070.90 0.0578
1071.00 0.05778
1071.10 0.05776
1071.20 0.05773
1071.30 0.05771
1071.40 0.05769
1071.50 0.05767
1071.60 0.05764
1071.70 0.05762
1071.80 0.0576
1071.90 0.05758
1072.00 0.05755
1072.10 0.05753
1072.20 0.05751
1072.30 0.05748
1072.40 0.05746
1072.50 0.05744
1072.60 0.05741
1072.70 0.05739
1072.80 0.05737
1072.90 0.05734
1073.00 0.05732
1073.10 0.0573
1073.20 0.05727
1073.30 0.05725
1073.40 0.05723
1073.50 0.0572
1073.60 0.05718
1073.70 0.05715
1073.80 0.05713
1073.90 0.05711
1074.00 0.05708
1074.10 0.05706
1074.20 0.05703
1074.30 0.05701
1074.40 0.05698
1074.50 0.05696
1074.60 0.05693
1074.70 0.05691
1074.80 0.05689
1074.90 0.05686
1075.00 0.05684
1075.10 0.05681
1075.20 0.05679
1075.30 0.05676
1075.40 0.05674
1075.50 0.05671
1075.60 0.05669
1075.70 0.05667
1075.80 0.05664
1075.90 0.05662
1076.00 0.05659
1076.10 0.05657
1076.20 0.05654
1076.30 0.05652
1076.40 0.05649
1076.50 0.05647
1076.60 0.05645
1076.70 0.05642
1076.80 0.0564
1076.90 0.05637
1077.00 0.05635
1077.10 0.05632
1077.20 0.0563
1077.30 0.05627
1077.40 0.05625
1077.50 0.05622
1077.60 0.05619
1077.70 0.05617
1077.80 0.05614
1077.90 0.05611
1078.00 0.05608
1078.10 0.05606
1078.20 0.05603
1078.30 0.056
1078.40 0.05598
1078.50 0.05595
1078.60 0.05592
1078.70 0.0559
1078.80 0.05587
1078.90 0.05584
1079.00 0.05581
1079.10 0.05579
1079.20 0.05576
1079.30 0.05573
1079.40 0.05571
1079.50 0.05568
1079.60 0.05565
1079.70 0.05562
1079.80 0.05559
1079.90 0.05556
1080.00 0.05553
1080.10 0.0555
1080.20 0.05547
1080.30 0.05544
1080.40 0.05541
1080.50 0.05538
1080.60 0.05535
1080.70 0.05532
1080.80 0.05529
1080.90 0.05526
1081.00 0.05523
1081.10 0.0552
1081.20 0.05517
1081.30 0.05514
1081.40 0.05511
1081.50 0.05508
1081.60 0.05504
1081.70 0.05501
1081.80 0.05498
1081.90 0.05495
1082.00 0.05491
1082.10 0.05488
1082.20 0.05484
1082.30 0.0548
1082.40 0.05477
1082.50 0.05473
1082.60 0.0547
1082.70 0.05466
1082.80 0.05462
1082.90 0.05459
1083.00 0.05455
1083.10 0.05452
1083.20 0.05448
1083.30 0.05444
1083.40 0.05441
1083.50 0.05437
1083.60 0.05433
1083.70 0.05429
1083.80 0.05425
1083.90 0.05421
1084.00 0.05417
1084.10 0.05412
1084.20 0.05408
1084.30 0.05404
1084.40 0.054
1084.50 0.05396
1084.60 0.05391
1084.70 0.05386
1084.80 0.05381
1084.90 0.05376
1085.00 0.05371
1085.10 0.05366
1085.20 0.05361
1085.30 0.05356
1085.40 0.05351
1085.50 0.05346
1085.60 0.05341
1085.70 0.05336
1085.80 0.05331
1085.90 0.05326
1086.00 0.05321
1086.10 0.05316
1086.20 0.05311
1086.30 0.05306
1086.40 0.05301
1086.50 0.05295
1086.60 0.05289
1086.70 0.05283
1086.80 0.05277
1086.90 0.05271
1087.00 0.05265
1087.10 0.05258
1087.20 0.0525
1087.30 0.05243
1087.40 0.05236
1087.50 0.05229
1087.60 0.05221
1087.70 0.05214
1087.80 0.05207
1087.90 0.052
1088.00 0.05192
1088.10 0.05185
1088.20 0.05178
1088.30 0.05171
1088.40 0.05164
1088.50 0.05155
1088.60 0.05145
1088.70 0.05135
1088.80 0.05125
1088.90 0.05114
1089.00 0.05104
1089.10 0.05094
1089.20 0.05084
1089.30 0.05073
1089.40 0.05063
1089.50 0.05053
1089.60 0.05043
1089.70 0.05032
1089.80 0.05022
1089.90 0.05012
1090.00 0.05002
1090.10 0.04992
1090.20 0.04981
1090.30 0.04971
1090.40 0.04961
1090.50 0.04949
1090.60 0.04935
1090.70 0.0492
1090.80 0.04905
1090.90 0.0489
1091.00 0.04875
1091.10 0.0486
1091.20 0.04846
1091.30 0.04831
1091.40 0.04816
1091.50 0.04801
1091.60 0.04786
1091.70 0.04772
1091.80 0.04757
1091.90 0.04742
1092.00 0.04726
1092.10 0.04708
1092.20 0.0469
1092.30 0.04671
1092.40 0.04653
1092.50 0.04635
1092.60 0.04617
1092.70 0.04598
1092.80 0.04579
1092.90 0.0456
1093.00 0.04541
1093.10 0.04522
1093.20 0.04504
1093.30 0.04486
1093.40 0.04469
1093.50 0.04451
1093.60 0.04433
1093.70 0.0442
1093.80 0.04414
1093.90 0.04414
1094.00 0.04428
1094.10 0.04442
1094.20 0.04456
1094.30 0.0447
1094.40 0.04486
1094.50 0.04501
1094.60 0.04517
1094.70 0.04532
1094.80 0.04548
1094.90 0.04563
1095.00 0.04578
1095.10 0.04592
1095.20 0.04605
1095.30 0.04619
1095.40 0.04633
1095.50 0.04646
1095.60 0.0466
1095.70 0.04673
1095.80 0.04687
1095.90 0.047
1096.00 0.04714
1096.10 0.04728
1096.20 0.04741
1096.30 0.04755
1096.40 0.04768
1096.50 0.04781
1096.60 0.04791
1096.70 0.04801
1096.80 0.04811
1096.90 0.04821
1097.00 0.04832
1097.10 0.04839
1097.20 0.04846
1097.30 0.04854
1097.40 0.04861
1097.50 0.04869
1097.60 0.04876
1097.70 0.04884
1097.80 0.04891
1097.90 0.04898
1098.00 0.04906
1098.10 0.04913
1098.20 0.04921
1098.30 0.04928
1098.40 0.04936
1098.50 0.04942
1098.60 0.04946
1098.70 0.0495
1098.80 0.04954
1098.90 0.04958
1099.00 0.04962
1099.10 0.04966
1099.20 0.0497
1099.30 0.04974
1099.40 0.04978
1099.50 0.04982
1099.60 0.04987
1099.70 0.04991
1099.80 0.04995
1099.90 0.04999
1100.00 0.05003
1100.10 0.05007
1100.20 0.05011
1100.30 0.05015
1100.40 0.05019
1100.50 0.05022
1100.60 0.05024
1100.70 0.05026
1100.80 0.05028
1100.90 0.0503
1101.00 0.05032
1101.10 0.05034
1101.20 0.05035
1101.30 0.05037
1101.40 0.05039
1101.50 0.05041
1101.60 0.05043
1101.70 0.05045
1101.80 0.05047
1101.90 0.05049
1102.00 0.0505
1102.10 0.05051
1102.20 0.05052
1102.30 0.05053
1102.40 0.05055
1102.50 0.05055
1102.60 0.05056
1102.70 0.05057
1102.80 0.05057
1102.90 0.05058
1103.00 0.05058
1103.10 0.05059
1103.20 0.05059
1103.30 0.0506
1103.40 0.05061
1103.50 0.05061
1103.60 0.05061
1103.70 0.05061
1103.80 0.0506
1103.90 0.0506
1104.00 0.0506
1104.10 0.0506
1104.20 0.0506
1104.30 0.0506
1104.40 0.0506
1104.50 0.0506
1104.60 0.05059
1104.70 0.05059
1104.80 0.05059
1104.90 0.05059
1105.00 0.05059
1105.10 0.05059
1105.20 0.05059
1105.30 0.05058
1105.40 0.05058
1105.50 0.05058
1105.60 0.05057
1105.70 0.05057
1105.80 0.05056
1105.90 0.05055
1106.00 0.05055
1106.10 0.05054
1106.20 0.05053
1106.30 0.05053
1106.40 0.05052
1106.50 0.05051
1106.60 0.05051
1106.70 0.0505
1106.80 0.05049
1106.90 0.05049
1107.00 0.05048
1107.10 0.05047
1107.20 0.05046
1107.30 0.05045
1107.40 0.05044
1107.50 0.05043
1107.60 0.05042
1107.70 0.05041
1107.80 0.0504
1107.90 0.05039
1108.00 0.05038
1108.10 0.05037
1108.20 0.05036
1108.30 0.05035
1108.40 0.05034
1108.50 0.05032
1108.60 0.05031
1108.70 0.0503
1108.80 0.05029
1108.90 0.05028
1109.00 0.05027
1109.10 0.05026
1109.20 0.05025
1109.30 0.05024
1109.40 0.05023
1109.50 0.05022
1109.60 0.0502
1109.70 0.05019
1109.80 0.05018
1109.90 0.05016
1110.00 0.05015
1110.10 0.05014
1110.20 0.05012
1110.30 0.05011
1110.40 0.0501
1110.50 0.05008
1110.60 0.05007
1110.70 0.05006
1110.80 0.05005
1110.90 0.05003
1111.00 0.05002
1111.10 0.05001
1111.20 0.04999
1111.30 0.04998
1111.40 0.04997
1111.50 0.04995
1111.60 0.04994
1111.70 0.04993
1111.80 0.04991
1111.90 0.0499
1112.00 0.04989
1112.10 0.04987
1112.20 0.04986
1112.30 0.04984
1112.40 0.04983
1112.50 0.04982
1112.60 0.0498
1112.70 0.04979
1112.80 0.04977
1112.90 0.04976
1113.00 0.04974
1113.10 0.04973
1113.20 0.04972
1113.30 0.0497
1113.40 0.04969
1113.50 0.04967
1113.60 0.04966
1113.70 0.04964
1113.80 0.04963
1113.90 0.04961
1114.00 0.0496
1114.10 0.04958
1114.20 0.04957
1114.30 0.04955
1114.40 0.04954
1114.50 0.04952
1114.60 0.04951
1114.70 0.04949
1114.80 0.04947
1114.90 0.04946
1115.00 0.04944
1115.10 0.04943
1115.20 0.04941
1115.30 0.0494
1115.40 0.04938
1115.50 0.04937
1115.60 0.04935
1115.70 0.04934
1115.80 0.04932
1115.90 0.04931
1116.00 0.04929
1116.10 0.04928
1116.20 0.04926
1116.30 0.04925
1116.40 0.04923
1116.50 0.04922
1116.60 0.0492
1116.70 0.04919
1116.80 0.04917
1116.90 0.04916
1117.00 0.04914
1117.10 0.04913
1117.20 0.04911
1117.30 0.04909
1117.40 0.04908
1117.50 0.04906
1117.60 0.04905
1117.70 0.04903
1117.80 0.04901
1117.90 0.049
1118.00 0.04898
1118.10 0.04897
1118.20 0.04895
1118.30 0.04893
1118.40 0.04892
1118.50 0.0489
1118.60 0.04889
1118.70 0.04887
1118.80 0.04886
1118.90 0.04884
1119.00 0.04882
1119.10 0.04881
1119.20 0.04879
1119.30 0.04878
1119.40 0.04876
1119.50 0.04874
1119.60 0.04873
1119.70 0.04871
1119.80 0.0487
1119.90 0.04868
1120.00 0.04867
1120.10 0.04865
1120.20 0.04863
1120.30 0.04862
1120.40 0.0486
1120.50 0.04859
1120.60 0.04857
1120.70 0.04855
1120.80 0.04854
1120.90 0.04852
1121.00 0.04851
1121.10 0.04849
1121.20 0.04848
1121.30 0.04846
1121.40 0.04844
1121.50 0.04843
1121.60 0.04841
1121.70 0.0484
1121.80 0.04838
1121.90 0.04837
1122.00 0.04835
1122.10 0.04833
1122.20 0.04832
1122.30 0.0483
1122.40 0.04829
1122.50 0.04827
1122.60 0.04825
1122.70 0.04824
1122.80 0.04822
1122.90 0.04821
1123.00 0.04819
1123.10 0.04817
1123.20 0.04816
1123.30 0.04814
1123.40 0.04813
1123.50 0.04811
1123.60 0.04809
1123.70 0.04808
1123.80 0.04806
1123.90 0.04805
1124.00 0.04803
1124.10 0.04801
1124.20 0.048
1124.30 0.04798
1124.40 0.04797
1124.50 0.04795
1124.60 0.04793
1124.70 0.04792
1124.80 0.0479
1124.90 0.04789
1125.00 0.04787
1125.10 0.04785
1125.20 0.04784
1125.30 0.04782
1125.40 0.04781
1125.50 0.04779
1125.60 0.04777
1125.70 0.04776
1125.80 0.04774
1125.90 0.04773
1126.00 0.04771
1126.10 0.04769
1126.20 0.04768
1126.30 0.04766
1126.40 0.04765
1126.50 0.04763
1126.60 0.04761
1126.70 0.0476
1126.80 0.04758
1126.90 0.04757
1127.00 0.04755
1127.10 0.04754
1127.20 0.04752
1127.30 0.0475
1127.40 0.04749
1127.50 0.04747
1127.60 0.04746
1127.70 0.04744
1127.80 0.04742
1127.90 0.04741
1128.00 0.04739
1128.10 0.04738
1128.20 0.04736
1128.30 0.04734
1128.40 0.04733
1128.50 0.04731
1128.60 0.0473
1128.70 0.04728
1128.80 0.04726
1128.90 0.04725
1129.00 0.04723
1129.10 0.04722
1129.20 0.0472
1129.30 0.04718
1129.40 0.04717
1129.50 0.04715
1129.60 0.04714
1129.70 0.04712
1129.80 0.04711
1129.90 0.04709
1130.00 0.04707
1130.10 0.04706
1130.20 0.04704
1130.30 0.04703
1130.40 0.04701
1130.50 0.04699
1130.60 0.04698
1130.70 0.04696
1130.80 0.04695
1130.90 0.04693
1131.00 0.04692
1131.10 0.0469
1131.20 0.04688
1131.30 0.04687
1131.40 0.04685
1131.50 0.04684
1131.60 0.04682
1131.70 0.0468
1131.80 0.04679
1131.90 0.04677
1132.00 0.04676
1132.10 0.04674
1132.20 0.04673
1132.30 0.04671
1132.40 0.04669
1132.50 0.04668
1132.60 0.04666
1132.70 0.04665
1132.80 0.04663
1132.90 0.04662
1133.00 0.0466
1133.10 0.04658
1133.20 0.04657
1133.30 0.04655
1133.40 0.04654
1133.50 0.04652
1133.60 0.04651
1133.70 0.04649
1133.80 0.04647
1133.90 0.04646
1134.00 0.04644
1134.10 0.04643
1134.20 0.04641
1134.30 0.0464
1134.40 0.04638
1134.50 0.04636
1134.60 0.04635
1134.70 0.04633
1134.80 0.04632
1134.90 0.0463
1135.00 0.04629
1135.10 0.04627
1135.20 0.04625
1135.30 0.04624
1135.40 0.04622
1135.50 0.04621
1135.60 0.04619
1135.70 0.04618
1135.80 0.04616
1135.90 0.04615
1136.00 0.04613
1136.10 0.04611
1136.20 0.0461
1136.30 0.04608
1136.40 0.04607
1136.50 0.04605
1136.60 0.04604
1136.70 0.04602
1136.80 0.046
1136.90 0.04599
1137.00 0.04597
1137.10 0.04596
1137.20 0.04594
1137.30 0.04593
1137.40 0.04591
1137.50 0.0459
1137.60 0.04588
1137.70 0.04587
1137.80 0.04585
1137.90 0.04583
1138.00 0.04582
1138.10 0.0458
1138.20 0.04579
1138.30 0.04577
1138.40 0.04576
1138.50 0.04574
1138.60 0.04573
1138.70 0.04571
1138.80 0.0457
1138.90 0.04568
1139.00 0.04566
1139.10 0.04565
1139.20 0.04563
1139.30 0.04562
1139.40 0.0456
1139.50 0.04559
1139.60 0.04557
1139.70 0.04556
1139.80 0.04554
1139.90 0.04553
1140.00 0.04551
1140.10 0.04549
1140.20 0.04548
1140.30 0.04546
1140.40 0.04545
1140.50 0.04543
1140.60 0.04542
1140.70 0.0454
1140.80 0.04539
1140.90 0.04537
1141.00 0.04536
1141.10 0.04534
1141.20 0.04533
1141.30 0.04531
1141.40 0.0453
1141.50 0.04528
1141.60 0.04526
1141.70 0.04525
1141.80 0.04523
1141.90 0.04522
1142.00 0.0452
1142.10 0.04519
1142.20 0.04517
1142.30 0.04516
1142.40 0.04514
1142.50 0.04513
1142.60 0.04511
1142.70 0.0451
1142.80 0.04508
1142.90 0.04507
1143.00 0.04505
1143.10 0.04504
1143.20 0.04502
1143.30 0.04501
1143.40 0.04499
1143.50 0.04498
1143.60 0.04496
1143.70 0.04494
1143.80 0.04493
1143.90 0.04491
1144.00 0.0449
1144.10 0.04488
1144.20 0.04487
1144.30 0.04485
1144.40 0.04484
1144.50 0.04482
1144.60 0.04481
1144.70 0.04479
1144.80 0.04478
1144.90 0.04476
1145.00 0.04475
1145.10 0.04473
1145.20 0.04472
1145.30 0.0447
1145.40 0.04469
1145.50 0.04467
1145.60 0.04466
1145.70 0.04464
1145.80 0.04463
1145.90 0.04461
1146.00 0.0446
1146.10 0.04458
1146.20 0.04457
1146.30 0.04455
1146.40 0.04454
1146.50 0.04452
1146.60 0.04451
1146.70 0.04449
1146.80 0.04448
1146.90 0.04446
1147.00 0.04445
1147.10 0.04443
1147.20 0.04442
1147.30 0.0444
1147.40 0.04439
1147.50 0.04437
1147.60 0.04436
1147.70 0.04434
1147.80 0.04433
1147.90 0.04431
1148.00 0.0443
1148.10 0.04428
1148.20 0.04427
1148.30 0.04425
1148.40 0.04424
1148.50 0.04422
1148.60 0.04421
1148.70 0.04419
1148.80 0.04418
1148.90 0.04416
1149.00 0.04415
1149.10 0.04413
1149.20 0.04412
1149.30 0.0441
1149.40 0.04409
1149.50 0.04407
1149.60 0.04406
1149.70 0.04405
1149.80 0.04403
1149.90 0.04402
1150.00 0.044
1150.10 0.04399
1150.20 0.04397
1150.30 0.04396
1150.40 0.04394
1150.50 0.04393
1150.60 0.04391
1150.70 0.0439
1150.80 0.04388
1150.90 0.04387
1151.00 0.04385
1151.10 0.04384
1151.20 0.04382
1151.30 0.04381
1151.40 0.04379
1151.50 0.04378
1151.60 0.04376
1151.70 0.04375
1151.80 0.04373
1151.90 0.04372
1152.00 0.04371
1152.10 0.04369
1152.20 0.04368
1152.30 0.04366
1152.40 0.04365
1152.50 0.04363
1152.60 0.04362
1152.70 0.0436
1152.80 0.04359
1152.90 0.04357
1153.00 0.04356
1153.10 0.04354
1153.20 0.04353
1153.30 0.04352
1153.40 0.0435
1153.50 0.04349
1153.60 0.04347
1153.70 0.04346
1153.80 0.04344
1153.90 0.04343
1154.00 0.04341
1154.10 0.0434
1154.20 0.04338
1154.30 0.04337
1154.40 0.04335
1154.50 0.04334
1154.60 0.04333
1154.70 0.04331
1154.80 0.0433
1154.90 0.04328
1155.00 0.04327
1155.10 0.04325
1155.20 0.04324
1155.30 0.04322
1155.40 0.04321
1155.50 0.0432
1155.60 0.04318
1155.70 0.04317
1155.80 0.04315
1155.90 0.04314
1156.00 0.04312
1156.10 0.04311
1156.20 0.04309
1156.30 0.04308
1156.40 0.04306
1156.50 0.04305
1156.60 0.04304
1156.70 0.04302
1156.80 0.04301
1156.90 0.04299
1157.00 0.04298
1157.10 0.04296
1157.20 0.04295
1157.30 0.04293
1157.40 0.04292
1157.50 0.04291
1157.60 0.04289
1157.70 0.04288
1157.80 0.04286
1157.90 0.04285
1158.00 0.04283
1158.10 0.04282
1158.20 0.04281
1158.30 0.04279
1158.40 0.04278
1158.50 0.04276
1158.60 0.04275
1158.70 0.04273
1158.80 0.04272
1158.90 0.04271
1159.00 0.04269
1159.10 0.04268
1159.20 0.04266
1159.30 0.04265
1159.40 0.04263
1159.50 0.04262
1159.60 0.04261
1159.70 0.04259
1159.80 0.04258
1159.90 0.04256
1160.00 0.04255
1160.10 0.04253
1160.20 0.04252
1160.30 0.04251
1160.40 0.04249
1160.50 0.04248
1160.60 0.04246
1160.70 0.04245
1160.80 0.04244
1160.90 0.04242
1161.00 0.04241
1161.10 0.04239
1161.20 0.04238
1161.30 0.04236
1161.40 0.04235
1161.50 0.04234
1161.60 0.04232
1161.70 0.04231
1161.80 0.04229
1161.90 0.04228
1162.00 0.04227
1162.10 0.04225
1162.20 0.04224
1162.30 0.04222
1162.40 0.04221
1162.50 0.0422
1162.60 0.04218
1162.70 0.04217
1162.80 0.04215
1162.90 0.04214
1163.00 0.04212
1163.10 0.04211
1163.20 0.0421
1163.30 0.04208
1163.40 0.04207
1163.50 0.04205
1163.60 0.04204
1163.70 0.04203
1163.80 0.04201
1163.90 0.042
1164.00 0.04198
1164.10 0.04197
1164.20 0.04196
1164.30 0.04194
1164.40 0.04193
1164.50 0.04191
1164.60 0.0419
1164.70 0.04189
1164.80 0.04187
1164.90 0.04186
1165.00 0.04185
1165.10 0.04183
1165.20 0.04182
1165.30 0.0418
1165.40 0.04179
1165.50 0.04178
1165.60 0.04176
1165.70 0.04175
1165.80 0.04173
1165.90 0.04172
1166.00 0.04171
1166.10 0.04169
1166.20 0.04168
1166.30 0.04166
1166.40 0.04165
1166.50 0.04164
1166.60 0.04162
1166.70 0.04161
1166.80 0.04159
1166.90 0.04158
1167.00 0.04157
1167.10 0.04155
1167.20 0.04154
1167.30 0.04153
1167.40 0.04151
1167.50 0.0415
1167.60 0.04148
1167.70 0.04147
1167.80 0.04146
1167.90 0.04144
1168.00 0.04143
1168.10 0.04142
1168.20 0.0414
1168.30 0.04139
1168.40 0.04137
1168.50 0.04136
1168.60 0.04135
1168.70 0.04133
1168.80 0.04132
1168.90 0.04131
1169.00 0.04129
1169.10 0.04128
1169.20 0.04126
1169.30 0.04125
1169.40 0.04124
1169.50 0.04122
1169.60 0.04121
1169.70 0.0412
1169.80 0.04118
1169.90 0.04117
1170.00 0.04116
1170.10 0.04114
1170.20 0.04113
1170.30 0.04111
1170.40 0.0411
1170.50 0.04109
1170.60 0.04107
1170.70 0.04106
1170.80 0.04105
1170.90 0.04103
1171.00 0.04102
1171.10 0.04101
1171.20 0.04099
1171.30 0.04098
1171.40 0.04096
1171.50 0.04095
1171.60 0.04094
1171.70 0.04092
1171.80 0.04091
1171.90 0.0409
1172.00 0.04088
1172.10 0.04087
1172.20 0.04086
1172.30 0.04084
1172.40 0.04083
1172.50 0.04082
1172.60 0.0408
1172.70 0.04079
1172.80 0.04077
1172.90 0.04076
1173.00 0.04075
1173.10 0.04073
1173.20 0.04072
1173.30 0.04071
1173.40 0.04069
1173.50 0.04068
1173.60 0.04067
1173.70 0.04065
1173.80 0.04064
1173.90 0.04063
1174.00 0.04061
1174.10 0.0406
1174.20 0.04059
1174.30 0.04057
1174.40 0.04056
1174.50 0.04055
1174.60 0.04053
1174.70 0.04052
1174.80 0.04051
1174.90 0.04049
1175.00 0.04048
1175.10 0.04047
1175.20 0.04045
1175.30 0.04044
1175.40 0.04043
1175.50 0.04041
1175.60 0.0404
1175.70 0.04039
1175.80 0.04037
1175.90 0.04036
1176.00 0.04035
1176.10 0.04033
1176.20 0.04032
1176.30 0.04031
1176.40 0.04029
1176.50 0.04028
1176.60 0.04027
1176.70 0.04025
1176.80 0.04024
1176.90 0.04023
1177.00 0.04021
1177.10 0.0402
1177.20 0.04019
1177.30 0.04017
1177.40 0.04016
1177.50 0.04015
1177.60 0.04013
1177.70 0.04012
1177.80 0.04011
1177.90 0.04009
1178.00 0.04008
1178.10 0.04007
1178.20 0.04005
1178.30 0.04004
1178.40 0.04003
1178.50 0.04001
1178.60 0.04
1178.70 0.03999
1178.80 0.03997
1178.90 0.03996
1179.00 0.03995
1179.10 0.03994
1179.20 0.03992
1179.30 0.03991
1179.40 0.0399
1179.50 0.03988
1179.60 0.03987
1179.70 0.03986
1179.80 0.03984
1179.90 0.03983
1180.00 0.03982
1180.10 0.0398
1180.20 0.03979
1180.30 0.03978
1180.40 0.03976
1180.50 0.03975
1180.60 0.03974
1180.70 0.03973
1180.80 0.03971
1180.90 0.0397
1181.00 0.03969
1181.10 0.03967
1181.20 0.03966
1181.30 0.03965
1181.40 0.03963
1181.50 0.03962
1181.60 0.03961
1181.70 0.03959
1181.80 0.03958
1181.90 0.03957
1182.00 0.03956
1182.10 0.03954
1182.20 0.03953
1182.30 0.03952
1182.40 0.0395
1182.50 0.03949
1182.60 0.03948
1182.70 0.03946
1182.80 0.03945
1182.90 0.03944
1183.00 0.03943
1183.10 0.03941
1183.20 0.0394
1183.30 0.03939
1183.40 0.03937
1183.50 0.03936
1183.60 0.03935
1183.70 0.03934
1183.80 0.03932
1183.90 0.03931
1184.00 0.0393
1184.10 0.03928
1184.20 0.03927
1184.30 0.03926
1184.40 0.03924
1184.50 0.03923
1184.60 0.03922
1184.70 0.03921
1184.80 0.03919
1184.90 0.03918
1185.00 0.03917
1185.10 0.03915
1185.20 0.03914
1185.30 0.03913
1185.40 0.03912
1185.50 0.0391
1185.60 0.03909
1185.70 0.03908
1185.80 0.03906
1185.90 0.03905
1186.00 0.03904
1186.10 0.03903
1186.20 0.03901
1186.30 0.039
1186.40 0.03899
1186.50 0.03898
1186.60 0.03896
1186.70 0.03895
1186.80 0.03894
1186.90 0.03892
1187.00 0.03891
1187.10 0.0389
1187.20 0.03889
1187.30 0.03887
1187.40 0.03886
1187.50 0.03885
1187.60 0.03884
1187.70 0.03882
1187.80 0.03881
1187.90 0.0388
1188.00 0.03878
1188.10 0.03877
1188.20 0.03876
1188.30 0.03875
1188.40 0.03873
1188.50 0.03872
1188.60 0.03871
1188.70 0.0387
1188.80 0.03868
1188.90 0.03867
1189.00 0.03866
1189.10 0.03865
1189.20 0.03863
1189.30 0.03862
1189.40 0.03861
1189.50 0.03859
1189.60 0.03858
1189.70 0.03857
1189.80 0.03856
1189.90 0.03854
1190.00 0.03853
1190.10 0.03852
1190.20 0.03851
1190.30 0.03849
1190.40 0.03848
1190.50 0.03847
1190.60 0.03846
1190.70 0.03844
1190.80 0.03843
1190.90 0.03842
1191.00 0.03841
1191.10 0.03839
1191.20 0.03838
1191.30 0.03837
1191.40 0.03836
1191.50 0.03834
1191.60 0.03833
1191.70 0.03832
1191.80 0.03831
1191.90 0.03829
1192.00 0.03828
1192.10 0.03827
1192.20 0.03826
1192.30 0.03824
1192.40 0.03823
1192.50 0.03822
1192.60 0.03821
1192.70 0.03819
1192.80 0.03818
1192.90 0.03817
1193.00 0.03816
1193.10 0.03814
1193.20 0.03813
1193.30 0.03812
1193.40 0.03811
1193.50 0.03809
1193.60 0.03808
1193.70 0.03807
1193.80 0.03806
1193.90 0.03804
1194.00 0.03803
1194.10 0.03802
1194.20 0.03801
1194.30 0.03799
1194.40 0.03798
1194.50 0.03797
1194.60 0.03796
1194.70 0.03794
1194.80 0.03793
1194.90 0.03792
1195.00 0.03791
1195.10 0.0379
1195.20 0.03788
1195.30 0.03787
1195.40 0.03786
1195.50 0.03785
1195.60 0.03783
1195.70 0.03782
1195.80 0.03781
1195.90 0.0378
1196.00 0.03778
1196.10 0.03777
1196.20 0.03776
1196.30 0.03775
1196.40 0.03774
1196.50 0.03772
1196.60 0.03771
1196.70 0.0377
1196.80 0.03769
1196.90 0.03767
1197.00 0.03766
1197.10 0.03765
1197.20 0.03764
1197.30 0.03762
1197.40 0.03761
1197.50 0.0376
1197.60 0.03759
1197.70 0.03758
1197.80 0.03756
1197.90 0.03755
1198.00 0.03754
1198.10 0.03753
1198.20 0.03752
1198.30 0.0375
1198.40 0.03749
1198.50 0.03748
1198.60 0.03747
1198.70 0.03745
1198.80 0.03744
1198.90 0.03743
1199.00 0.03742
1199.10 0.03741
1199.20 0.03739
1199.30 0.03738
1199.40 0.03737
1199.50 0.03736
1199.60 0.03735
1199.70 0.03733
1199.80 0.03732
1199.90 0.03731
1200.00 0
