# Version 2.1 - nm, norm@500 to 1, cut digits, bergeron_110000_75.dat_110000
# Wavelength(nm)  Flambda(ergs/cm^s/s/nm)
300.00 6.896
300.10 6.887
300.20 6.879
300.30 6.87
300.40 6.861
300.50 6.853
300.60 6.844
300.70 6.835
300.80 6.827
300.90 6.818
301.00 6.81
301.10 6.801
301.20 6.793
301.30 6.784
301.40 6.776
301.50 6.767
301.60 6.759
301.70 6.75
301.80 6.742
301.90 6.733
302.00 6.725
302.10 6.716
302.20 6.708
302.30 6.7
302.40 6.691
302.50 6.683
302.60 6.674
302.70 6.666
302.80 6.658
302.90 6.649
303.00 6.641
303.10 6.633
303.20 6.625
303.30 6.616
303.40 6.608
303.50 6.6
303.60 6.592
303.70 6.583
303.80 6.575
303.90 6.567
304.00 6.559
304.10 6.551
304.20 6.543
304.30 6.534
304.40 6.526
304.50 6.518
304.60 6.51
304.70 6.502
304.80 6.494
304.90 6.486
305.00 6.478
305.10 6.47
305.20 6.462
305.30 6.454
305.40 6.446
305.50 6.438
305.60 6.43
305.70 6.422
305.80 6.414
305.90 6.406
306.00 6.398
306.10 6.39
306.20 6.382
306.30 6.374
306.40 6.367
306.50 6.359
306.60 6.351
306.70 6.343
306.80 6.335
306.90 6.327
307.00 6.32
307.10 6.312
307.20 6.304
307.30 6.296
307.40 6.289
307.50 6.281
307.60 6.273
307.70 6.265
307.80 6.258
307.90 6.25
308.00 6.242
308.10 6.235
308.20 6.227
308.30 6.219
308.40 6.212
308.50 6.204
308.60 6.196
308.70 6.189
308.80 6.181
308.90 6.174
309.00 6.166
309.10 6.159
309.20 6.151
309.30 6.144
309.40 6.136
309.50 6.128
309.60 6.121
309.70 6.114
309.80 6.106
309.90 6.099
310.00 6.091
310.10 6.084
310.20 6.076
310.30 6.069
310.40 6.061
310.50 6.054
310.60 6.047
310.70 6.039
310.80 6.032
310.90 6.025
311.00 6.017
311.10 6.01
311.20 6.003
311.30 5.995
311.40 5.988
311.50 5.981
311.60 5.973
311.70 5.966
311.80 5.959
311.90 5.952
312.00 5.945
312.10 5.937
312.20 5.93
312.30 5.923
312.40 5.916
312.50 5.909
312.60 5.901
312.70 5.894
312.80 5.887
312.90 5.88
313.00 5.873
313.10 5.866
313.20 5.859
313.30 5.852
313.40 5.845
313.50 5.838
313.60 5.831
313.70 5.823
313.80 5.816
313.90 5.809
314.00 5.802
314.10 5.795
314.20 5.788
314.30 5.781
314.40 5.774
314.50 5.767
314.60 5.761
314.70 5.754
314.80 5.747
314.90 5.74
315.00 5.733
315.10 5.726
315.20 5.719
315.30 5.712
315.40 5.705
315.50 5.699
315.60 5.692
315.70 5.685
315.80 5.678
315.90 5.671
316.00 5.664
316.10 5.658
316.20 5.651
316.30 5.644
316.40 5.637
316.50 5.631
316.60 5.624
316.70 5.617
316.80 5.61
316.90 5.604
317.00 5.597
317.10 5.59
317.20 5.584
317.30 5.577
317.40 5.57
317.50 5.564
317.60 5.557
317.70 5.55
317.80 5.544
317.90 5.537
318.00 5.531
318.10 5.524
318.20 5.517
318.30 5.511
318.40 5.504
318.50 5.498
318.60 5.491
318.70 5.485
318.80 5.478
318.90 5.472
319.00 5.465
319.10 5.459
319.20 5.452
319.30 5.446
319.40 5.439
319.50 5.433
319.60 5.426
319.70 5.42
319.80 5.414
319.90 5.407
320.00 5.401
320.10 5.394
320.20 5.388
320.30 5.382
320.40 5.375
320.50 5.369
320.60 5.362
320.70 5.356
320.80 5.35
320.90 5.344
321.00 5.337
321.10 5.331
321.20 5.325
321.30 5.318
321.40 5.312
321.50 5.306
321.60 5.3
321.70 5.293
321.80 5.287
321.90 5.281
322.00 5.275
322.10 5.268
322.20 5.262
322.30 5.256
322.40 5.25
322.50 5.244
322.60 5.238
322.70 5.231
322.80 5.225
322.90 5.219
323.00 5.213
323.10 5.207
323.20 5.201
323.30 5.195
323.40 5.189
323.50 5.182
323.60 5.176
323.70 5.17
323.80 5.164
323.90 5.158
324.00 5.152
324.10 5.146
324.20 5.14
324.30 5.134
324.40 5.128
324.50 5.122
324.60 5.116
324.70 5.11
324.80 5.104
324.90 5.098
325.00 5.092
325.10 5.086
325.20 5.08
325.30 5.074
325.40 5.069
325.50 5.063
325.60 5.057
325.70 5.051
325.80 5.045
325.90 5.039
326.00 5.033
326.10 5.027
326.20 5.022
326.30 5.016
326.40 5.01
326.50 5.004
326.60 4.998
326.70 4.992
326.80 4.987
326.90 4.981
327.00 4.975
327.10 4.969
327.20 4.964
327.30 4.958
327.40 4.952
327.50 4.946
327.60 4.941
327.70 4.935
327.80 4.929
327.90 4.924
328.00 4.918
328.10 4.912
328.20 4.906
328.30 4.901
328.40 4.895
328.50 4.889
328.60 4.884
328.70 4.878
328.80 4.873
328.90 4.867
329.00 4.861
329.10 4.856
329.20 4.85
329.30 4.845
329.40 4.839
329.50 4.833
329.60 4.828
329.70 4.822
329.80 4.817
329.90 4.811
330.00 4.806
330.10 4.8
330.20 4.795
330.30 4.789
330.40 4.784
330.50 4.778
330.60 4.773
330.70 4.767
330.80 4.762
330.90 4.756
331.00 4.751
331.10 4.745
331.20 4.74
331.30 4.735
331.40 4.729
331.50 4.724
331.60 4.718
331.70 4.713
331.80 4.707
331.90 4.702
332.00 4.697
332.10 4.691
332.20 4.686
332.30 4.681
332.40 4.675
332.50 4.67
332.60 4.665
332.70 4.659
332.80 4.654
332.90 4.649
333.00 4.643
333.10 4.638
333.20 4.633
333.30 4.628
333.40 4.622
333.50 4.617
333.60 4.612
333.70 4.607
333.80 4.601
333.90 4.596
334.00 4.591
334.10 4.586
334.20 4.58
334.30 4.575
334.40 4.57
334.50 4.565
334.60 4.56
334.70 4.554
334.80 4.549
334.90 4.544
335.00 4.539
335.10 4.534
335.20 4.529
335.30 4.524
335.40 4.518
335.50 4.513
335.60 4.508
335.70 4.503
335.80 4.498
335.90 4.493
336.00 4.488
336.10 4.483
336.20 4.478
336.30 4.473
336.40 4.468
336.50 4.463
336.60 4.458
336.70 4.453
336.80 4.448
336.90 4.443
337.00 4.438
337.10 4.433
337.20 4.428
337.30 4.423
337.40 4.418
337.50 4.413
337.60 4.408
337.70 4.403
337.80 4.398
337.90 4.393
338.00 4.388
338.10 4.383
338.20 4.378
338.30 4.373
338.40 4.368
338.50 4.363
338.60 4.358
338.70 4.354
338.80 4.349
338.90 4.344
339.00 4.339
339.10 4.334
339.20 4.329
339.30 4.324
339.40 4.32
339.50 4.315
339.60 4.31
339.70 4.305
339.80 4.3
339.90 4.295
340.00 4.291
340.10 4.286
340.20 4.281
340.30 4.276
340.40 4.271
340.50 4.267
340.60 4.262
340.70 4.257
340.80 4.252
340.90 4.248
341.00 4.243
341.10 4.238
341.20 4.234
341.30 4.229
341.40 4.224
341.50 4.219
341.60 4.215
341.70 4.21
341.80 4.205
341.90 4.201
342.00 4.196
342.10 4.191
342.20 4.187
342.30 4.182
342.40 4.177
342.50 4.173
342.60 4.168
342.70 4.164
342.80 4.159
342.90 4.154
343.00 4.15
343.10 4.145
343.20 4.141
343.30 4.136
343.40 4.131
343.50 4.127
343.60 4.122
343.70 4.118
343.80 4.113
343.90 4.109
344.00 4.104
344.10 4.099
344.20 4.095
344.30 4.09
344.40 4.086
344.50 4.081
344.60 4.077
344.70 4.072
344.80 4.068
344.90 4.063
345.00 4.059
345.10 4.055
345.20 4.05
345.30 4.046
345.40 4.041
345.50 4.037
345.60 4.032
345.70 4.028
345.80 4.023
345.90 4.019
346.00 4.015
346.10 4.01
346.20 4.006
346.30 4.001
346.40 3.997
346.50 3.993
346.60 3.988
346.70 3.984
346.80 3.979
346.90 3.975
347.00 3.971
347.10 3.966
347.20 3.962
347.30 3.958
347.40 3.953
347.50 3.949
347.60 3.945
347.70 3.94
347.80 3.936
347.90 3.932
348.00 3.927
348.10 3.923
348.20 3.919
348.30 3.915
348.40 3.91
348.50 3.906
348.60 3.902
348.70 3.898
348.80 3.893
348.90 3.889
349.00 3.885
349.10 3.881
349.20 3.876
349.30 3.872
349.40 3.868
349.50 3.864
349.60 3.86
349.70 3.855
349.80 3.851
349.90 3.847
350.00 3.843
350.10 3.839
350.20 3.834
350.30 3.83
350.40 3.826
350.50 3.822
350.60 3.818
350.70 3.814
350.80 3.81
350.90 3.806
351.00 3.801
351.10 3.797
351.20 3.793
351.30 3.789
351.40 3.785
351.50 3.781
351.60 3.777
351.70 3.773
351.80 3.769
351.90 3.764
352.00 3.76
352.10 3.756
352.20 3.752
352.30 3.748
352.40 3.744
352.50 3.74
352.60 3.736
352.70 3.732
352.80 3.728
352.90 3.724
353.00 3.72
353.10 3.716
353.20 3.712
353.30 3.708
353.40 3.704
353.50 3.7
353.60 3.696
353.70 3.692
353.80 3.688
353.90 3.684
354.00 3.68
354.10 3.676
354.20 3.672
354.30 3.668
354.40 3.664
354.50 3.661
354.60 3.657
354.70 3.653
354.80 3.649
354.90 3.645
355.00 3.641
355.10 3.637
355.20 3.633
355.30 3.629
355.40 3.625
355.50 3.621
355.60 3.618
355.70 3.614
355.80 3.61
355.90 3.606
356.00 3.602
356.10 3.598
356.20 3.594
356.30 3.591
356.40 3.587
356.50 3.583
356.60 3.579
356.70 3.575
356.80 3.572
356.90 3.568
357.00 3.564
357.10 3.56
357.20 3.556
357.30 3.553
357.40 3.549
357.50 3.545
357.60 3.541
357.70 3.537
357.80 3.534
357.90 3.53
358.00 3.526
358.10 3.522
358.20 3.519
358.30 3.515
358.40 3.511
358.50 3.507
358.60 3.504
358.70 3.5
358.80 3.496
358.90 3.493
359.00 3.489
359.10 3.485
359.20 3.482
359.30 3.478
359.40 3.474
359.50 3.47
359.60 3.467
359.70 3.463
359.80 3.459
359.90 3.456
360.00 3.452
360.10 3.448
360.20 3.445
360.30 3.441
360.40 3.438
360.50 3.434
360.60 3.43
360.70 3.427
360.80 3.423
360.90 3.419
361.00 3.416
361.10 3.412
361.20 3.409
361.30 3.405
361.40 3.401
361.50 3.398
361.60 3.394
361.70 3.391
361.80 3.387
361.90 3.384
362.00 3.38
362.10 3.376
362.20 3.373
362.30 3.369
362.40 3.366
362.50 3.362
362.60 3.359
362.70 3.355
362.80 3.352
362.90 3.348
363.00 3.345
363.10 3.341
363.20 3.338
363.30 3.334
363.40 3.331
363.50 3.327
363.60 3.324
363.70 3.32
363.80 3.317
363.90 3.313
364.00 3.31
364.10 3.306
364.20 3.303
364.30 3.299
364.40 3.296
364.50 3.293
364.60 3.289
364.70 3.286
364.80 3.282
364.90 3.279
365.00 3.275
365.10 3.272
365.20 3.269
365.30 3.265
365.40 3.262
365.50 3.258
365.60 3.255
365.70 3.252
365.80 3.248
365.90 3.245
366.00 3.241
366.10 3.238
366.20 3.235
366.30 3.231
366.40 3.228
366.50 3.224
366.60 3.221
366.70 3.218
366.80 3.214
366.90 3.211
367.00 3.208
367.10 3.204
367.20 3.201
367.30 3.198
367.40 3.194
367.50 3.191
367.60 3.187
367.70 3.184
367.80 3.181
367.90 3.177
368.00 3.174
368.10 3.171
368.20 3.167
368.30 3.164
368.40 3.161
368.50 3.157
368.60 3.154
368.70 3.151
368.80 3.148
368.90 3.144
369.00 3.141
369.10 3.138
369.20 3.134
369.30 3.131
369.40 3.128
369.50 3.125
369.60 3.121
369.70 3.118
369.80 3.115
369.90 3.111
370.00 3.108
370.10 3.105
370.20 3.102
370.30 3.099
370.40 3.095
370.50 3.092
370.60 3.089
370.70 3.086
370.80 3.082
370.90 3.079
371.00 3.076
371.10 3.073
371.20 3.07
371.30 3.066
371.40 3.063
371.50 3.06
371.60 3.057
371.70 3.054
371.80 3.051
371.90 3.047
372.00 3.044
372.10 3.041
372.20 3.038
372.30 3.035
372.40 3.032
372.50 3.029
372.60 3.025
372.70 3.022
372.80 3.019
372.90 3.016
373.00 3.013
373.10 3.01
373.20 3.007
373.30 3.004
373.40 3.001
373.50 2.998
373.60 2.994
373.70 2.991
373.80 2.988
373.90 2.985
374.00 2.982
374.10 2.979
374.20 2.976
374.30 2.973
374.40 2.97
374.50 2.967
374.60 2.964
374.70 2.961
374.80 2.958
374.90 2.955
375.00 2.952
375.10 2.949
375.20 2.946
375.30 2.943
375.40 2.94
375.50 2.937
375.60 2.934
375.70 2.931
375.80 2.928
375.90 2.925
376.00 2.922
376.10 2.919
376.20 2.916
376.30 2.913
376.40 2.91
376.50 2.907
376.60 2.904
376.70 2.901
376.80 2.898
376.90 2.895
377.00 2.892
377.10 2.889
377.20 2.887
377.30 2.884
377.40 2.881
377.50 2.878
377.60 2.875
377.70 2.872
377.80 2.869
377.90 2.867
378.00 2.864
378.10 2.861
378.20 2.858
378.30 2.855
378.40 2.852
378.50 2.849
378.60 2.847
378.70 2.844
378.80 2.841
378.90 2.838
379.00 2.835
379.10 2.832
379.20 2.83
379.30 2.827
379.40 2.824
379.50 2.821
379.60 2.819
379.70 2.816
379.80 2.813
379.90 2.81
380.00 2.807
380.10 2.805
380.20 2.802
380.30 2.799
380.40 2.797
380.50 2.794
380.60 2.792
380.70 2.789
380.80 2.786
380.90 2.784
381.00 2.781
381.10 2.778
381.20 2.776
381.30 2.773
381.40 2.77
381.50 2.767
381.60 2.765
381.70 2.762
381.80 2.759
381.90 2.756
382.00 2.754
382.10 2.751
382.20 2.748
382.30 2.745
382.40 2.742
382.50 2.739
382.60 2.737
382.70 2.734
382.80 2.731
382.90 2.728
383.00 2.725
383.10 2.722
383.20 2.72
383.30 2.717
383.40 2.714
383.50 2.712
383.60 2.709
383.70 2.707
383.80 2.704
383.90 2.702
384.00 2.7
384.10 2.697
384.20 2.695
384.30 2.693
384.40 2.691
384.50 2.688
384.60 2.686
384.70 2.684
384.80 2.682
384.90 2.679
385.00 2.677
385.10 2.675
385.20 2.672
385.30 2.67
385.40 2.667
385.50 2.665
385.60 2.662
385.70 2.66
385.80 2.657
385.90 2.654
386.00 2.652
386.10 2.649
386.20 2.646
386.30 2.644
386.40 2.641
386.50 2.638
386.60 2.635
386.70 2.632
386.80 2.629
386.90 2.626
387.00 2.623
387.10 2.62
387.20 2.617
387.30 2.614
387.40 2.611
387.50 2.607
387.60 2.604
387.70 2.601
387.80 2.597
387.90 2.594
388.00 2.591
388.10 2.588
388.20 2.584
388.30 2.581
388.40 2.578
388.50 2.575
388.60 2.571
388.70 2.569
388.80 2.566
388.90 2.564
389.00 2.562
389.10 2.559
389.20 2.557
389.30 2.556
389.40 2.554
389.50 2.553
389.60 2.552
389.70 2.55
389.80 2.549
389.90 2.548
390.00 2.546
390.10 2.545
390.20 2.543
390.30 2.542
390.40 2.541
390.50 2.539
390.60 2.537
390.70 2.536
390.80 2.534
390.90 2.533
391.00 2.531
391.10 2.529
391.20 2.527
391.30 2.526
391.40 2.524
391.50 2.522
391.60 2.52
391.70 2.518
391.80 2.516
391.90 2.514
392.00 2.511
392.10 2.509
392.20 2.507
392.30 2.505
392.40 2.502
392.50 2.5
392.60 2.498
392.70 2.495
392.80 2.493
392.90 2.49
393.00 2.487
393.10 2.485
393.20 2.482
393.30 2.479
393.40 2.476
393.50 2.473
393.60 2.471
393.70 2.468
393.80 2.464
393.90 2.461
394.00 2.458
394.10 2.455
394.20 2.451
394.30 2.448
394.40 2.445
394.50 2.441
394.60 2.438
394.70 2.434
394.80 2.43
394.90 2.426
395.00 2.422
395.10 2.418
395.20 2.414
395.30 2.41
395.40 2.406
395.50 2.402
395.60 2.397
395.70 2.393
395.80 2.388
395.90 2.384
396.00 2.379
396.10 2.375
396.20 2.37
396.30 2.365
396.40 2.36
396.50 2.355
396.60 2.351
396.70 2.346
396.80 2.341
396.90 2.337
397.00 2.333
397.10 2.333
397.20 2.332
397.30 2.333
397.40 2.333
397.50 2.334
397.60 2.334
397.70 2.335
397.80 2.335
397.90 2.335
398.00 2.336
398.10 2.336
398.20 2.336
398.30 2.336
398.40 2.337
398.50 2.337
398.60 2.336
398.70 2.336
398.80 2.336
398.90 2.336
399.00 2.336
399.10 2.335
399.20 2.335
399.30 2.334
399.40 2.333
399.50 2.333
399.60 2.332
399.70 2.331
399.80 2.33
399.90 2.329
400.00 2.328
400.10 2.327
400.20 2.326
400.30 2.325
400.40 2.323
400.50 2.322
400.60 2.321
400.70 2.319
400.80 2.318
400.90 2.317
401.00 2.315
401.10 2.314
401.20 2.312
401.30 2.31
401.40 2.309
401.50 2.307
401.60 2.305
401.70 2.304
401.80 2.302
401.90 2.3
402.00 2.298
402.10 2.296
402.20 2.295
402.30 2.293
402.40 2.291
402.50 2.289
402.60 2.287
402.70 2.285
402.80 2.283
402.90 2.281
403.00 2.279
403.10 2.277
403.20 2.275
403.30 2.272
403.40 2.27
403.50 2.268
403.60 2.266
403.70 2.264
403.80 2.262
403.90 2.259
404.00 2.257
404.10 2.255
404.20 2.252
404.30 2.25
404.40 2.248
404.50 2.245
404.60 2.243
404.70 2.24
404.80 2.238
404.90 2.236
405.00 2.233
405.10 2.23
405.20 2.228
405.30 2.225
405.40 2.223
405.50 2.22
405.60 2.217
405.70 2.214
405.80 2.211
405.90 2.209
406.00 2.206
406.10 2.203
406.20 2.2
406.30 2.197
406.40 2.193
406.50 2.19
406.60 2.187
406.70 2.184
406.80 2.18
406.90 2.177
407.00 2.173
407.10 2.17
407.20 2.166
407.30 2.162
407.40 2.158
407.50 2.154
407.60 2.15
407.70 2.146
407.80 2.141
407.90 2.137
408.00 2.132
408.10 2.128
408.20 2.123
408.30 2.118
408.40 2.113
408.50 2.107
408.60 2.102
408.70 2.096
408.80 2.09
408.90 2.084
409.00 2.078
409.10 2.072
409.20 2.066
409.30 2.059
409.40 2.053
409.50 2.046
409.60 2.039
409.70 2.033
409.80 2.026
409.90 2.02
410.00 2.017
410.10 2.016
410.20 2.017
410.30 2.013
410.40 2.011
410.50 2.011
410.60 2.014
410.70 2.017
410.80 2.02
410.90 2.023
411.00 2.026
411.10 2.029
411.20 2.031
411.30 2.034
411.40 2.036
411.50 2.038
411.60 2.04
411.70 2.042
411.80 2.043
411.90 2.045
412.00 2.046
412.10 2.047
412.20 2.048
412.30 2.049
412.40 2.05
412.50 2.051
412.60 2.051
412.70 2.051
412.80 2.052
412.90 2.052
413.00 2.052
413.10 2.052
413.20 2.051
413.30 2.051
413.40 2.051
413.50 2.05
413.60 2.05
413.70 2.049
413.80 2.049
413.90 2.048
414.00 2.047
414.10 2.046
414.20 2.045
414.30 2.044
414.40 2.043
414.50 2.042
414.60 2.041
414.70 2.04
414.80 2.039
414.90 2.038
415.00 2.036
415.10 2.035
415.20 2.034
415.30 2.033
415.40 2.031
415.50 2.03
415.60 2.028
415.70 2.027
415.80 2.026
415.90 2.024
416.00 2.023
416.10 2.021
416.20 2.02
416.30 2.018
416.40 2.016
416.50 2.015
416.60 2.013
416.70 2.012
416.80 2.01
416.90 2.009
417.00 2.007
417.10 2.005
417.20 2.004
417.30 2.002
417.40 2
417.50 1.999
417.60 1.997
417.70 1.995
417.80 1.994
417.90 1.992
418.00 1.99
418.10 1.989
418.20 1.987
418.30 1.985
418.40 1.984
418.50 1.982
418.60 1.98
418.70 1.978
418.80 1.977
418.90 1.975
419.00 1.973
419.10 1.972
419.20 1.97
419.30 1.968
419.40 1.966
419.50 1.965
419.60 1.963
419.70 1.961
419.80 1.959
419.90 1.958
420.00 1.956
420.10 1.954
420.20 1.953
420.30 1.951
420.40 1.949
420.50 1.947
420.60 1.946
420.70 1.944
420.80 1.942
420.90 1.94
421.00 1.939
421.10 1.937
421.20 1.935
421.30 1.933
421.40 1.932
421.50 1.93
421.60 1.928
421.70 1.926
421.80 1.925
421.90 1.923
422.00 1.921
422.10 1.919
422.20 1.918
422.30 1.916
422.40 1.914
422.50 1.912
422.60 1.911
422.70 1.909
422.80 1.907
422.90 1.905
423.00 1.904
423.10 1.902
423.20 1.9
423.30 1.898
423.40 1.897
423.50 1.895
423.60 1.893
423.70 1.891
423.80 1.89
423.90 1.888
424.00 1.886
424.10 1.884
424.20 1.883
424.30 1.881
424.40 1.879
424.50 1.877
424.60 1.876
424.70 1.874
424.80 1.872
424.90 1.87
425.00 1.868
425.10 1.867
425.20 1.865
425.30 1.863
425.40 1.861
425.50 1.86
425.60 1.858
425.70 1.856
425.80 1.854
425.90 1.852
426.00 1.851
426.10 1.849
426.20 1.847
426.30 1.845
426.40 1.843
426.50 1.842
426.60 1.84
426.70 1.838
426.80 1.836
426.90 1.834
427.00 1.832
427.10 1.831
427.20 1.829
427.30 1.827
427.40 1.825
427.50 1.823
427.60 1.821
427.70 1.819
427.80 1.817
427.90 1.816
428.00 1.814
428.10 1.812
428.20 1.81
428.30 1.808
428.40 1.806
428.50 1.804
428.60 1.802
428.70 1.8
428.80 1.797
428.90 1.795
429.00 1.793
429.10 1.791
429.20 1.789
429.30 1.787
429.40 1.784
429.50 1.782
429.60 1.78
429.70 1.777
429.80 1.775
429.90 1.773
430.00 1.77
430.10 1.768
430.20 1.765
430.30 1.762
430.40 1.76
430.50 1.757
430.60 1.754
430.70 1.751
430.80 1.748
430.90 1.745
431.00 1.742
431.10 1.738
431.20 1.735
431.30 1.731
431.40 1.728
431.50 1.724
431.60 1.72
431.70 1.716
431.80 1.712
431.90 1.707
432.00 1.703
432.10 1.698
432.20 1.693
432.30 1.688
432.40 1.683
432.50 1.677
432.60 1.671
432.70 1.666
432.80 1.659
432.90 1.653
433.00 1.647
433.10 1.64
433.20 1.633
433.30 1.626
433.40 1.619
433.50 1.612
433.60 1.605
433.70 1.597
433.80 1.59
433.90 1.583
434.00 1.576
434.10 1.575
434.20 1.579
434.30 1.584
434.40 1.588
434.50 1.593
434.60 1.597
434.70 1.602
434.80 1.606
434.90 1.61
435.00 1.614
435.10 1.618
435.20 1.621
435.30 1.625
435.40 1.628
435.50 1.631
435.60 1.633
435.70 1.636
435.80 1.638
435.90 1.64
436.00 1.642
436.10 1.644
436.20 1.645
436.30 1.646
436.40 1.648
436.50 1.649
436.60 1.649
436.70 1.65
436.80 1.651
436.90 1.651
437.00 1.651
437.10 1.652
437.20 1.652
437.30 1.652
437.40 1.652
437.50 1.652
437.60 1.651
437.70 1.651
437.80 1.651
437.90 1.65
438.00 1.65
438.10 1.649
438.20 1.649
438.30 1.648
438.40 1.647
438.50 1.646
438.60 1.646
438.70 1.645
438.80 1.644
438.90 1.643
439.00 1.642
439.10 1.641
439.20 1.64
439.30 1.639
439.40 1.638
439.50 1.637
439.60 1.636
439.70 1.635
439.80 1.634
439.90 1.633
440.00 1.632
440.10 1.63
440.20 1.629
440.30 1.628
440.40 1.627
440.50 1.626
440.60 1.625
440.70 1.623
440.80 1.622
440.90 1.621
441.00 1.62
441.10 1.618
441.20 1.617
441.30 1.616
441.40 1.615
441.50 1.613
441.60 1.612
441.70 1.611
441.80 1.61
441.90 1.608
442.00 1.607
442.10 1.606
442.20 1.604
442.30 1.603
442.40 1.602
442.50 1.601
442.60 1.599
442.70 1.598
442.80 1.597
442.90 1.595
443.00 1.594
443.10 1.593
443.20 1.591
443.30 1.59
443.40 1.589
443.50 1.587
443.60 1.586
443.70 1.585
443.80 1.583
443.90 1.582
444.00 1.581
444.10 1.58
444.20 1.578
444.30 1.577
444.40 1.576
444.50 1.574
444.60 1.573
444.70 1.572
444.80 1.57
444.90 1.569
445.00 1.568
445.10 1.566
445.20 1.565
445.30 1.564
445.40 1.562
445.50 1.561
445.60 1.56
445.70 1.558
445.80 1.557
445.90 1.556
446.00 1.554
446.10 1.553
446.20 1.552
446.30 1.55
446.40 1.549
446.50 1.548
446.60 1.547
446.70 1.545
446.80 1.544
446.90 1.543
447.00 1.541
447.10 1.54
447.20 1.539
447.30 1.537
447.40 1.536
447.50 1.535
447.60 1.533
447.70 1.532
447.80 1.531
447.90 1.53
448.00 1.528
448.10 1.527
448.20 1.526
448.30 1.524
448.40 1.523
448.50 1.522
448.60 1.52
448.70 1.519
448.80 1.518
448.90 1.517
449.00 1.515
449.10 1.514
449.20 1.513
449.30 1.511
449.40 1.51
449.50 1.509
449.60 1.508
449.70 1.506
449.80 1.505
449.90 1.504
450.00 1.502
450.10 1.501
450.20 1.5
450.30 1.499
450.40 1.497
450.50 1.496
450.60 1.495
450.70 1.493
450.80 1.492
450.90 1.491
451.00 1.49
451.10 1.488
451.20 1.487
451.30 1.486
451.40 1.485
451.50 1.483
451.60 1.482
451.70 1.481
451.80 1.48
451.90 1.478
452.00 1.477
452.10 1.476
452.20 1.475
452.30 1.473
452.40 1.472
452.50 1.471
452.60 1.47
452.70 1.468
452.80 1.467
452.90 1.466
453.00 1.465
453.10 1.463
453.20 1.462
453.30 1.461
453.40 1.46
453.50 1.458
453.60 1.457
453.70 1.456
453.80 1.455
453.90 1.453
454.00 1.452
454.10 1.451
454.20 1.45
454.30 1.448
454.40 1.447
454.50 1.446
454.60 1.445
454.70 1.444
454.80 1.442
454.90 1.441
455.00 1.44
455.10 1.439
455.20 1.437
455.30 1.436
455.40 1.435
455.50 1.434
455.60 1.433
455.70 1.431
455.80 1.43
455.90 1.429
456.00 1.428
456.10 1.427
456.20 1.425
456.30 1.424
456.40 1.423
456.50 1.422
456.60 1.421
456.70 1.419
456.80 1.418
456.90 1.417
457.00 1.416
457.10 1.415
457.20 1.413
457.30 1.412
457.40 1.411
457.50 1.41
457.60 1.409
457.70 1.407
457.80 1.406
457.90 1.405
458.00 1.404
458.10 1.403
458.20 1.402
458.30 1.4
458.40 1.399
458.50 1.398
458.60 1.397
458.70 1.396
458.80 1.394
458.90 1.393
459.00 1.392
459.10 1.391
459.20 1.39
459.30 1.389
459.40 1.387
459.50 1.386
459.60 1.385
459.70 1.384
459.80 1.383
459.90 1.382
460.00 1.38
460.10 1.379
460.20 1.378
460.30 1.377
460.40 1.376
460.50 1.375
460.60 1.374
460.70 1.372
460.80 1.371
460.90 1.37
461.00 1.369
461.10 1.368
461.20 1.367
461.30 1.366
461.40 1.364
461.50 1.363
461.60 1.362
461.70 1.361
461.80 1.36
461.90 1.359
462.00 1.358
462.10 1.356
462.20 1.355
462.30 1.354
462.40 1.353
462.50 1.352
462.60 1.351
462.70 1.35
462.80 1.348
462.90 1.347
463.00 1.346
463.10 1.345
463.20 1.344
463.30 1.343
463.40 1.342
463.50 1.341
463.60 1.34
463.70 1.338
463.80 1.337
463.90 1.336
464.00 1.335
464.10 1.334
464.20 1.333
464.30 1.332
464.40 1.331
464.50 1.329
464.60 1.328
464.70 1.327
464.80 1.326
464.90 1.325
465.00 1.324
465.10 1.323
465.20 1.322
465.30 1.321
465.40 1.32
465.50 1.318
465.60 1.317
465.70 1.316
465.80 1.315
465.90 1.314
466.00 1.313
466.10 1.312
466.20 1.311
466.30 1.31
466.40 1.309
466.50 1.308
466.60 1.306
466.70 1.305
466.80 1.304
466.90 1.303
467.00 1.302
467.10 1.301
467.20 1.3
467.30 1.299
467.40 1.298
467.50 1.297
467.60 1.296
467.70 1.295
467.80 1.294
467.90 1.292
468.00 1.291
468.10 1.29
468.20 1.289
468.30 1.288
468.40 1.287
468.50 1.286
468.60 1.285
468.70 1.284
468.80 1.283
468.90 1.282
469.00 1.281
469.10 1.28
469.20 1.279
469.30 1.278
469.40 1.276
469.50 1.275
469.60 1.274
469.70 1.273
469.80 1.272
469.90 1.271
470.00 1.27
470.10 1.269
470.20 1.268
470.30 1.267
470.40 1.266
470.50 1.265
470.60 1.264
470.70 1.263
470.80 1.262
470.90 1.261
471.00 1.26
471.10 1.259
471.20 1.258
471.30 1.256
471.40 1.255
471.50 1.254
471.60 1.253
471.70 1.252
471.80 1.251
471.90 1.25
472.00 1.249
472.10 1.248
472.20 1.247
472.30 1.246
472.40 1.245
472.50 1.244
472.60 1.243
472.70 1.242
472.80 1.241
472.90 1.24
473.00 1.239
473.10 1.238
473.20 1.237
473.30 1.236
473.40 1.235
473.50 1.234
473.60 1.233
473.70 1.232
473.80 1.231
473.90 1.23
474.00 1.229
474.10 1.228
474.20 1.227
474.30 1.226
474.40 1.225
474.50 1.223
474.60 1.222
474.70 1.221
474.80 1.22
474.90 1.219
475.00 1.218
475.10 1.217
475.20 1.216
475.30 1.215
475.40 1.214
475.50 1.213
475.60 1.212
475.70 1.211
475.80 1.21
475.90 1.209
476.00 1.208
476.10 1.207
476.20 1.206
476.30 1.205
476.40 1.204
476.50 1.203
476.60 1.202
476.70 1.201
476.80 1.2
476.90 1.199
477.00 1.198
477.10 1.197
477.20 1.196
477.30 1.195
477.40 1.194
477.50 1.193
477.60 1.192
477.70 1.191
477.80 1.19
477.90 1.189
478.00 1.188
478.10 1.187
478.20 1.185
478.30 1.184
478.40 1.183
478.50 1.182
478.60 1.181
478.70 1.18
478.80 1.179
478.90 1.178
479.00 1.177
479.10 1.176
479.20 1.175
479.30 1.174
479.40 1.173
479.50 1.171
479.60 1.17
479.70 1.169
479.80 1.168
479.90 1.167
480.00 1.166
480.10 1.165
480.20 1.164
480.30 1.162
480.40 1.161
480.50 1.16
480.60 1.159
480.70 1.158
480.80 1.156
480.90 1.155
481.00 1.154
481.10 1.153
481.20 1.152
481.30 1.15
481.40 1.149
481.50 1.147
481.60 1.146
481.70 1.145
481.80 1.143
481.90 1.142
482.00 1.141
482.10 1.139
482.20 1.138
482.30 1.136
482.40 1.134
482.50 1.132
482.60 1.131
482.70 1.129
482.80 1.127
482.90 1.125
483.00 1.124
483.10 1.122
483.20 1.12
483.30 1.117
483.40 1.115
483.50 1.112
483.60 1.11
483.70 1.107
483.80 1.105
483.90 1.103
484.00 1.1
484.10 1.098
484.20 1.095
484.30 1.091
484.40 1.088
484.50 1.085
484.60 1.081
484.70 1.078
484.80 1.074
484.90 1.069
485.00 1.065
485.10 1.061
485.20 1.057
485.30 1.052
485.40 1.047
485.50 1.042
485.60 1.037
485.70 1.031
485.80 1.025
485.90 1.018
486.00 1.013
486.10 1.022
486.20 1.016
486.30 1.012
486.40 1.016
486.50 1.021
486.60 1.026
486.70 1.03
486.80 1.033
486.90 1.037
487.00 1.04
487.10 1.043
487.20 1.045
487.30 1.048
487.40 1.05
487.50 1.052
487.60 1.055
487.70 1.057
487.80 1.058
487.90 1.06
488.00 1.061
488.10 1.063
488.20 1.064
488.30 1.064
488.40 1.065
488.50 1.066
488.60 1.066
488.70 1.067
488.80 1.068
488.90 1.068
489.00 1.069
489.10 1.07
489.20 1.07
489.30 1.07
489.40 1.07
489.50 1.07
489.60 1.07
489.70 1.07
489.80 1.07
489.90 1.069
490.00 1.069
490.10 1.069
490.20 1.069
490.30 1.069
490.40 1.068
490.50 1.068
490.60 1.067
490.70 1.067
490.80 1.066
490.90 1.066
491.00 1.066
491.10 1.065
491.20 1.065
491.30 1.064
491.40 1.063
491.50 1.063
491.60 1.062
491.70 1.062
491.80 1.061
491.90 1.06
492.00 1.06
492.10 1.059
492.20 1.059
492.30 1.058
492.40 1.057
492.50 1.057
492.60 1.056
492.70 1.055
492.80 1.054
492.90 1.054
493.00 1.053
493.10 1.052
493.20 1.052
493.30 1.051
493.40 1.05
493.50 1.05
493.60 1.049
493.70 1.048
493.80 1.047
493.90 1.047
494.00 1.046
494.10 1.045
494.20 1.044
494.30 1.044
494.40 1.043
494.50 1.042
494.60 1.041
494.70 1.041
494.80 1.04
494.90 1.039
495.00 1.038
495.10 1.038
495.20 1.037
495.30 1.036
495.40 1.035
495.50 1.035
495.60 1.034
495.70 1.033
495.80 1.032
495.90 1.031
496.00 1.031
496.10 1.03
496.20 1.029
496.30 1.028
496.40 1.028
496.50 1.027
496.60 1.026
496.70 1.025
496.80 1.025
496.90 1.024
497.00 1.023
497.10 1.022
497.20 1.021
497.30 1.021
497.40 1.02
497.50 1.019
497.60 1.018
497.70 1.018
497.80 1.017
497.90 1.016
498.00 1.015
498.10 1.015
498.20 1.014
498.30 1.013
498.40 1.012
498.50 1.011
498.60 1.011
498.70 1.01
498.80 1.009
498.90 1.008
499.00 1.008
499.10 1.007
499.20 1.006
499.30 1.005
499.40 1.005
499.50 1.004
499.60 1.003
499.70 1.002
499.80 1.002
499.90 1.001
500.00 1
500.10 0.9992
500.20 0.9985
500.30 0.9977
500.40 0.997
500.50 0.9962
500.60 0.9954
500.70 0.9947
500.80 0.9939
500.90 0.9932
501.00 0.9924
501.10 0.9916
501.20 0.9909
501.30 0.9901
501.40 0.9894
501.50 0.9886
501.60 0.9879
501.70 0.9871
501.80 0.9864
501.90 0.9856
502.00 0.9849
502.10 0.9841
502.20 0.9834
502.30 0.9826
502.40 0.9819
502.50 0.9811
502.60 0.9804
502.70 0.9796
502.80 0.9789
502.90 0.9781
503.00 0.9774
503.10 0.9766
503.20 0.9759
503.30 0.9751
503.40 0.9744
503.50 0.9736
503.60 0.9729
503.70 0.9722
503.80 0.9714
503.90 0.9707
504.00 0.9699
504.10 0.9692
504.20 0.9685
504.30 0.9677
504.40 0.967
504.50 0.9662
504.60 0.9655
504.70 0.9648
504.80 0.964
504.90 0.9633
505.00 0.9626
505.10 0.9618
505.20 0.9611
505.30 0.9604
505.40 0.9596
505.50 0.9589
505.60 0.9582
505.70 0.9574
505.80 0.9567
505.90 0.956
506.00 0.9553
506.10 0.9545
506.20 0.9538
506.30 0.9531
506.40 0.9524
506.50 0.9516
506.60 0.9509
506.70 0.9502
506.80 0.9495
506.90 0.9487
507.00 0.948
507.10 0.9473
507.20 0.9466
507.30 0.9459
507.40 0.9452
507.50 0.9444
507.60 0.9437
507.70 0.943
507.80 0.9423
507.90 0.9416
508.00 0.9409
508.10 0.9401
508.20 0.9394
508.30 0.9387
508.40 0.938
508.50 0.9373
508.60 0.9366
508.70 0.9359
508.80 0.9352
508.90 0.9345
509.00 0.9337
509.10 0.933
509.20 0.9323
509.30 0.9316
509.40 0.9309
509.50 0.9302
509.60 0.9295
509.70 0.9288
509.80 0.9281
509.90 0.9274
510.00 0.9267
510.10 0.926
510.20 0.9253
510.30 0.9246
510.40 0.9239
510.50 0.9232
510.60 0.9225
510.70 0.9218
510.80 0.9211
510.90 0.9204
511.00 0.9197
511.10 0.919
511.20 0.9183
511.30 0.9176
511.40 0.9169
511.50 0.9162
511.60 0.9156
511.70 0.9149
511.80 0.9142
511.90 0.9135
512.00 0.9128
512.10 0.9121
512.20 0.9114
512.30 0.9107
512.40 0.91
512.50 0.9094
512.60 0.9087
512.70 0.908
512.80 0.9073
512.90 0.9066
513.00 0.9059
513.10 0.9053
513.20 0.9046
513.30 0.9039
513.40 0.9032
513.50 0.9025
513.60 0.9019
513.70 0.9012
513.80 0.9005
513.90 0.8998
514.00 0.8991
514.10 0.8985
514.20 0.8978
514.30 0.8971
514.40 0.8965
514.50 0.8958
514.60 0.8951
514.70 0.8944
514.80 0.8938
514.90 0.8931
515.00 0.8924
515.10 0.8917
515.20 0.8911
515.30 0.8904
515.40 0.8897
515.50 0.8891
515.60 0.8884
515.70 0.8877
515.80 0.8871
515.90 0.8864
516.00 0.8858
516.10 0.8851
516.20 0.8844
516.30 0.8838
516.40 0.8831
516.50 0.8824
516.60 0.8818
516.70 0.8811
516.80 0.8805
516.90 0.8798
517.00 0.8791
517.10 0.8785
517.20 0.8778
517.30 0.8772
517.40 0.8765
517.50 0.8759
517.60 0.8752
517.70 0.8746
517.80 0.8739
517.90 0.8733
518.00 0.8726
518.10 0.872
518.20 0.8713
518.30 0.8707
518.40 0.87
518.50 0.8694
518.60 0.8687
518.70 0.8681
518.80 0.8674
518.90 0.8668
519.00 0.8661
519.10 0.8655
519.20 0.8648
519.30 0.8642
519.40 0.8636
519.50 0.8629
519.60 0.8623
519.70 0.8616
519.80 0.861
519.90 0.8603
520.00 0.8597
520.10 0.8591
520.20 0.8584
520.30 0.8578
520.40 0.8572
520.50 0.8565
520.60 0.8559
520.70 0.8552
520.80 0.8546
520.90 0.854
521.00 0.8533
521.10 0.8527
521.20 0.8521
521.30 0.8514
521.40 0.8508
521.50 0.8502
521.60 0.8495
521.70 0.8489
521.80 0.8483
521.90 0.8477
522.00 0.847
522.10 0.8464
522.20 0.8458
522.30 0.8452
522.40 0.8445
522.50 0.8439
522.60 0.8433
522.70 0.8427
522.80 0.842
522.90 0.8414
523.00 0.8408
523.10 0.8402
523.20 0.8395
523.30 0.8389
523.40 0.8383
523.50 0.8377
523.60 0.8371
523.70 0.8365
523.80 0.8358
523.90 0.8352
524.00 0.8346
524.10 0.834
524.20 0.8334
524.30 0.8328
524.40 0.8321
524.50 0.8315
524.60 0.8309
524.70 0.8303
524.80 0.8297
524.90 0.8291
525.00 0.8285
525.10 0.8278
525.20 0.8272
525.30 0.8266
525.40 0.826
525.50 0.8254
525.60 0.8248
525.70 0.8242
525.80 0.8236
525.90 0.823
526.00 0.8224
526.10 0.8218
526.20 0.8212
526.30 0.8206
526.40 0.82
526.50 0.8194
526.60 0.8188
526.70 0.8182
526.80 0.8176
526.90 0.817
527.00 0.8164
527.10 0.8158
527.20 0.8152
527.30 0.8146
527.40 0.814
527.50 0.8134
527.60 0.8128
527.70 0.8122
527.80 0.8116
527.90 0.811
528.00 0.8104
528.10 0.8098
528.20 0.8092
528.30 0.8086
528.40 0.808
528.50 0.8074
528.60 0.8068
528.70 0.8063
528.80 0.8057
528.90 0.8051
529.00 0.8045
529.10 0.8039
529.20 0.8033
529.30 0.8027
529.40 0.8021
529.50 0.8016
529.60 0.801
529.70 0.8004
529.80 0.7998
529.90 0.7992
530.00 0.7986
530.10 0.798
530.20 0.7975
530.30 0.7969
530.40 0.7963
530.50 0.7957
530.60 0.7951
530.70 0.7946
530.80 0.794
530.90 0.7934
531.00 0.7928
531.10 0.7922
531.20 0.7917
531.30 0.7911
531.40 0.7905
531.50 0.7899
531.60 0.7894
531.70 0.7888
531.80 0.7882
531.90 0.7876
532.00 0.7871
532.10 0.7865
532.20 0.7859
532.30 0.7854
532.40 0.7848
532.50 0.7842
532.60 0.7836
532.70 0.7831
532.80 0.7825
532.90 0.7819
533.00 0.7814
533.10 0.7808
533.20 0.7802
533.30 0.7797
533.40 0.7791
533.50 0.7785
533.60 0.778
533.70 0.7774
533.80 0.7768
533.90 0.7763
534.00 0.7757
534.10 0.7752
534.20 0.7746
534.30 0.774
534.40 0.7735
534.50 0.7729
534.60 0.7724
534.70 0.7718
534.80 0.7712
534.90 0.7707
535.00 0.7701
535.10 0.7696
535.20 0.769
535.30 0.7685
535.40 0.7679
535.50 0.7673
535.60 0.7668
535.70 0.7662
535.80 0.7657
535.90 0.7651
536.00 0.7646
536.10 0.764
536.20 0.7635
536.30 0.7629
536.40 0.7624
536.50 0.7618
536.60 0.7613
536.70 0.7607
536.80 0.7602
536.90 0.7596
537.00 0.7591
537.10 0.7585
537.20 0.758
537.30 0.7574
537.40 0.7569
537.50 0.7564
537.60 0.7558
537.70 0.7553
537.80 0.7547
537.90 0.7542
538.00 0.7536
538.10 0.7531
538.20 0.7526
538.30 0.752
538.40 0.7515
538.50 0.7509
538.60 0.7504
538.70 0.7499
538.80 0.7493
538.90 0.7488
539.00 0.7482
539.10 0.7477
539.20 0.7472
539.30 0.7466
539.40 0.7461
539.50 0.7456
539.60 0.745
539.70 0.7445
539.80 0.744
539.90 0.7434
540.00 0.7429
540.10 0.7424
540.20 0.7418
540.30 0.7413
540.40 0.7408
540.50 0.7402
540.60 0.7397
540.70 0.7392
540.80 0.7386
540.90 0.7381
541.00 0.7376
541.10 0.7371
541.20 0.7365
541.30 0.736
541.40 0.7355
541.50 0.7349
541.60 0.7344
541.70 0.7339
541.80 0.7334
541.90 0.7328
542.00 0.7323
542.10 0.7318
542.20 0.7313
542.30 0.7308
542.40 0.7302
542.50 0.7297
542.60 0.7292
542.70 0.7287
542.80 0.7282
542.90 0.7276
543.00 0.7271
543.10 0.7266
543.20 0.7261
543.30 0.7256
543.40 0.725
543.50 0.7245
543.60 0.724
543.70 0.7235
543.80 0.723
543.90 0.7225
544.00 0.722
544.10 0.7214
544.20 0.7209
544.30 0.7204
544.40 0.7199
544.50 0.7194
544.60 0.7189
544.70 0.7184
544.80 0.7179
544.90 0.7173
545.00 0.7168
545.10 0.7163
545.20 0.7158
545.30 0.7153
545.40 0.7148
545.50 0.7143
545.60 0.7138
545.70 0.7133
545.80 0.7128
545.90 0.7123
546.00 0.7118
546.10 0.7113
546.20 0.7108
546.30 0.7103
546.40 0.7098
546.50 0.7093
546.60 0.7087
546.70 0.7082
546.80 0.7077
546.90 0.7072
547.00 0.7067
547.10 0.7062
547.20 0.7057
547.30 0.7052
547.40 0.7047
547.50 0.7042
547.60 0.7037
547.70 0.7032
547.80 0.7028
547.90 0.7023
548.00 0.7018
548.10 0.7013
548.20 0.7008
548.30 0.7003
548.40 0.6998
548.50 0.6993
548.60 0.6988
548.70 0.6983
548.80 0.6978
548.90 0.6973
549.00 0.6968
549.10 0.6963
549.20 0.6958
549.30 0.6953
549.40 0.6949
549.50 0.6944
549.60 0.6939
549.70 0.6934
549.80 0.6929
549.90 0.6924
550.00 0.6919
550.10 0.6914
550.20 0.691
550.30 0.6905
550.40 0.69
550.50 0.6895
550.60 0.689
550.70 0.6885
550.80 0.688
550.90 0.6876
551.00 0.6871
551.10 0.6866
551.20 0.6861
551.30 0.6856
551.40 0.6852
551.50 0.6847
551.60 0.6842
551.70 0.6837
551.80 0.6832
551.90 0.6828
552.00 0.6823
552.10 0.6818
552.20 0.6813
552.30 0.6808
552.40 0.6804
552.50 0.6799
552.60 0.6794
552.70 0.6789
552.80 0.6785
552.90 0.678
553.00 0.6775
553.10 0.677
553.20 0.6766
553.30 0.6761
553.40 0.6756
553.50 0.6751
553.60 0.6747
553.70 0.6742
553.80 0.6737
553.90 0.6732
554.00 0.6728
554.10 0.6723
554.20 0.6718
554.30 0.6714
554.40 0.6709
554.50 0.6704
554.60 0.67
554.70 0.6695
554.80 0.669
554.90 0.6686
555.00 0.6681
555.10 0.6676
555.20 0.6672
555.30 0.6667
555.40 0.6662
555.50 0.6658
555.60 0.6653
555.70 0.6648
555.80 0.6644
555.90 0.6639
556.00 0.6634
556.10 0.663
556.20 0.6625
556.30 0.6621
556.40 0.6616
556.50 0.6611
556.60 0.6607
556.70 0.6602
556.80 0.6598
556.90 0.6593
557.00 0.6589
557.10 0.6584
557.20 0.6579
557.30 0.6575
557.40 0.657
557.50 0.6566
557.60 0.6561
557.70 0.6557
557.80 0.6552
557.90 0.6547
558.00 0.6543
558.10 0.6538
558.20 0.6534
558.30 0.6529
558.40 0.6525
558.50 0.652
558.60 0.6516
558.70 0.6511
558.80 0.6507
558.90 0.6502
559.00 0.6498
559.10 0.6493
559.20 0.6489
559.30 0.6484
559.40 0.648
559.50 0.6475
559.60 0.6471
559.70 0.6466
559.80 0.6462
559.90 0.6457
560.00 0.6453
560.10 0.6448
560.20 0.6444
560.30 0.6439
560.40 0.6435
560.50 0.6431
560.60 0.6426
560.70 0.6422
560.80 0.6417
560.90 0.6413
561.00 0.6408
561.10 0.6404
561.20 0.6399
561.30 0.6395
561.40 0.6391
561.50 0.6386
561.60 0.6382
561.70 0.6377
561.80 0.6373
561.90 0.6369
562.00 0.6364
562.10 0.636
562.20 0.6355
562.30 0.6351
562.40 0.6347
562.50 0.6342
562.60 0.6338
562.70 0.6334
562.80 0.6329
562.90 0.6325
563.00 0.6321
563.10 0.6316
563.20 0.6312
563.30 0.6308
563.40 0.6303
563.50 0.6299
563.60 0.6295
563.70 0.629
563.80 0.6286
563.90 0.6282
564.00 0.6277
564.10 0.6273
564.20 0.6269
564.30 0.6264
564.40 0.626
564.50 0.6256
564.60 0.6251
564.70 0.6247
564.80 0.6243
564.90 0.6239
565.00 0.6234
565.10 0.623
565.20 0.6226
565.30 0.6221
565.40 0.6217
565.50 0.6213
565.60 0.6209
565.70 0.6204
565.80 0.62
565.90 0.6196
566.00 0.6192
566.10 0.6187
566.20 0.6183
566.30 0.6179
566.40 0.6175
566.50 0.6171
566.60 0.6166
566.70 0.6162
566.80 0.6158
566.90 0.6154
567.00 0.615
567.10 0.6145
567.20 0.6141
567.30 0.6137
567.40 0.6133
567.50 0.6129
567.60 0.6124
567.70 0.612
567.80 0.6116
567.90 0.6112
568.00 0.6108
568.10 0.6103
568.20 0.6099
568.30 0.6095
568.40 0.6091
568.50 0.6087
568.60 0.6083
568.70 0.6079
568.80 0.6074
568.90 0.607
569.00 0.6066
569.10 0.6062
569.20 0.6058
569.30 0.6054
569.40 0.605
569.50 0.6046
569.60 0.6041
569.70 0.6037
569.80 0.6033
569.90 0.6029
570.00 0.6025
570.10 0.6021
570.20 0.6017
570.30 0.6013
570.40 0.6009
570.50 0.6005
570.60 0.6001
570.70 0.5996
570.80 0.5992
570.90 0.5988
571.00 0.5984
571.10 0.598
571.20 0.5976
571.30 0.5972
571.40 0.5968
571.50 0.5964
571.60 0.596
571.70 0.5956
571.80 0.5952
571.90 0.5948
572.00 0.5944
572.10 0.594
572.20 0.5936
572.30 0.5932
572.40 0.5928
572.50 0.5924
572.60 0.592
572.70 0.5916
572.80 0.5912
572.90 0.5908
573.00 0.5904
573.10 0.59
573.20 0.5896
573.30 0.5892
573.40 0.5888
573.50 0.5884
573.60 0.588
573.70 0.5876
573.80 0.5872
573.90 0.5868
574.00 0.5864
574.10 0.586
574.20 0.5856
574.30 0.5852
574.40 0.5848
574.50 0.5844
574.60 0.584
574.70 0.5836
574.80 0.5832
574.90 0.5828
575.00 0.5824
575.10 0.5821
575.20 0.5817
575.30 0.5813
575.40 0.5809
575.50 0.5805
575.60 0.5801
575.70 0.5797
575.80 0.5793
575.90 0.5789
576.00 0.5785
576.10 0.5781
576.20 0.5778
576.30 0.5774
576.40 0.577
576.50 0.5766
576.60 0.5762
576.70 0.5758
576.80 0.5754
576.90 0.575
577.00 0.5747
577.10 0.5743
577.20 0.5739
577.30 0.5735
577.40 0.5731
577.50 0.5727
577.60 0.5723
577.70 0.572
577.80 0.5716
577.90 0.5712
578.00 0.5708
578.10 0.5704
578.20 0.57
578.30 0.5697
578.40 0.5693
578.50 0.5689
578.60 0.5685
578.70 0.5681
578.80 0.5678
578.90 0.5674
579.00 0.567
579.10 0.5666
579.20 0.5662
579.30 0.5659
579.40 0.5655
579.50 0.5651
579.60 0.5647
579.70 0.5644
579.80 0.564
579.90 0.5636
580.00 0.5632
580.10 0.5628
580.20 0.5625
580.30 0.5621
580.40 0.5617
580.50 0.5613
580.60 0.561
580.70 0.5606
580.80 0.5602
580.90 0.5598
581.00 0.5595
581.10 0.5591
581.20 0.5587
581.30 0.5584
581.40 0.558
581.50 0.5576
581.60 0.5572
581.70 0.5569
581.80 0.5565
581.90 0.5561
582.00 0.5558
582.10 0.5554
582.20 0.555
582.30 0.5546
582.40 0.5543
582.50 0.5539
582.60 0.5535
582.70 0.5532
582.80 0.5528
582.90 0.5524
583.00 0.5521
583.10 0.5517
583.20 0.5513
583.30 0.551
583.40 0.5506
583.50 0.5502
583.60 0.5499
583.70 0.5495
583.80 0.5491
583.90 0.5488
584.00 0.5484
584.10 0.548
584.20 0.5477
584.30 0.5473
584.40 0.547
584.50 0.5466
584.60 0.5462
584.70 0.5459
584.80 0.5455
584.90 0.5451
585.00 0.5448
585.10 0.5444
585.20 0.5441
585.30 0.5437
585.40 0.5433
585.50 0.543
585.60 0.5426
585.70 0.5423
585.80 0.5419
585.90 0.5415
586.00 0.5412
586.10 0.5408
586.20 0.5405
586.30 0.5401
586.40 0.5398
586.50 0.5394
586.60 0.539
586.70 0.5387
586.80 0.5383
586.90 0.538
587.00 0.5376
587.10 0.5373
587.20 0.5369
587.30 0.5366
587.40 0.5362
587.50 0.5359
587.60 0.5355
587.70 0.5351
587.80 0.5348
587.90 0.5344
588.00 0.5341
588.10 0.5337
588.20 0.5334
588.30 0.533
588.40 0.5327
588.50 0.5323
588.60 0.532
588.70 0.5316
588.80 0.5313
588.90 0.5309
589.00 0.5306
589.10 0.5302
589.20 0.5299
589.30 0.5295
589.40 0.5292
589.50 0.5288
589.60 0.5285
589.70 0.5281
589.80 0.5278
589.90 0.5274
590.00 0.5271
590.10 0.5268
590.20 0.5264
590.30 0.5261
590.40 0.5257
590.50 0.5254
590.60 0.525
590.70 0.5247
590.80 0.5243
590.90 0.524
591.00 0.5236
591.10 0.5233
591.20 0.523
591.30 0.5226
591.40 0.5223
591.50 0.5219
591.60 0.5216
591.70 0.5212
591.80 0.5209
591.90 0.5206
592.00 0.5202
592.10 0.5199
592.20 0.5195
592.30 0.5192
592.40 0.5189
592.50 0.5185
592.60 0.5182
592.70 0.5178
592.80 0.5175
592.90 0.5172
593.00 0.5168
593.10 0.5165
593.20 0.5162
593.30 0.5158
593.40 0.5155
593.50 0.5151
593.60 0.5148
593.70 0.5145
593.80 0.5141
593.90 0.5138
594.00 0.5135
594.10 0.5131
594.20 0.5128
594.30 0.5125
594.40 0.5121
594.50 0.5118
594.60 0.5115
594.70 0.5111
594.80 0.5108
594.90 0.5105
595.00 0.5101
595.10 0.5098
595.20 0.5095
595.30 0.5091
595.40 0.5088
595.50 0.5085
595.60 0.5081
595.70 0.5078
595.80 0.5075
595.90 0.5071
596.00 0.5068
596.10 0.5065
596.20 0.5062
596.30 0.5058
596.40 0.5055
596.50 0.5052
596.60 0.5048
596.70 0.5045
596.80 0.5042
596.90 0.5039
597.00 0.5035
597.10 0.5032
597.20 0.5029
597.30 0.5025
597.40 0.5022
597.50 0.5019
597.60 0.5016
597.70 0.5012
597.80 0.5009
597.90 0.5006
598.00 0.5003
598.10 0.4999
598.20 0.4996
598.30 0.4993
598.40 0.499
598.50 0.4986
598.60 0.4983
598.70 0.498
598.80 0.4977
598.90 0.4974
599.00 0.497
599.10 0.4967
599.20 0.4964
599.30 0.4961
599.40 0.4957
599.50 0.4954
599.60 0.4951
599.70 0.4948
599.80 0.4945
599.90 0.4941
600.00 0.4938
600.10 0.4935
600.20 0.4932
600.30 0.4929
600.40 0.4926
600.50 0.4922
600.60 0.4919
600.70 0.4916
600.80 0.4913
600.90 0.491
601.00 0.4906
601.10 0.4903
601.20 0.49
601.30 0.4897
601.40 0.4894
601.50 0.4891
601.60 0.4888
601.70 0.4884
601.80 0.4881
601.90 0.4878
602.00 0.4875
602.10 0.4872
602.20 0.4869
602.30 0.4866
602.40 0.4862
602.50 0.4859
602.60 0.4856
602.70 0.4853
602.80 0.485
602.90 0.4847
603.00 0.4844
603.10 0.4841
603.20 0.4837
603.30 0.4834
603.40 0.4831
603.50 0.4828
603.60 0.4825
603.70 0.4822
603.80 0.4819
603.90 0.4816
604.00 0.4813
604.10 0.4809
604.20 0.4806
604.30 0.4803
604.40 0.48
604.50 0.4797
604.60 0.4794
604.70 0.4791
604.80 0.4788
604.90 0.4785
605.00 0.4782
605.10 0.4779
605.20 0.4776
605.30 0.4773
605.40 0.477
605.50 0.4767
605.60 0.4763
605.70 0.476
605.80 0.4757
605.90 0.4754
606.00 0.4751
606.10 0.4748
606.20 0.4745
606.30 0.4742
606.40 0.4739
606.50 0.4736
606.60 0.4733
606.70 0.473
606.80 0.4727
606.90 0.4724
607.00 0.4721
607.10 0.4718
607.20 0.4715
607.30 0.4712
607.40 0.4709
607.50 0.4706
607.60 0.4703
607.70 0.47
607.80 0.4697
607.90 0.4694
608.00 0.4691
608.10 0.4688
608.20 0.4685
608.30 0.4682
608.40 0.4679
608.50 0.4676
608.60 0.4673
608.70 0.467
608.80 0.4667
608.90 0.4664
609.00 0.4661
609.10 0.4658
609.20 0.4655
609.30 0.4652
609.40 0.4649
609.50 0.4646
609.60 0.4643
609.70 0.464
609.80 0.4637
609.90 0.4634
610.00 0.4632
610.10 0.4629
610.20 0.4626
610.30 0.4623
610.40 0.462
610.50 0.4617
610.60 0.4614
610.70 0.4611
610.80 0.4608
610.90 0.4605
611.00 0.4602
611.10 0.4599
611.20 0.4596
611.30 0.4593
611.40 0.459
611.50 0.4588
611.60 0.4585
611.70 0.4582
611.80 0.4579
611.90 0.4576
612.00 0.4573
612.10 0.457
612.20 0.4567
612.30 0.4564
612.40 0.4561
612.50 0.4559
612.60 0.4556
612.70 0.4553
612.80 0.455
612.90 0.4547
613.00 0.4544
613.10 0.4541
613.20 0.4538
613.30 0.4535
613.40 0.4533
613.50 0.453
613.60 0.4527
613.70 0.4524
613.80 0.4521
613.90 0.4518
614.00 0.4515
614.10 0.4513
614.20 0.451
614.30 0.4507
614.40 0.4504
614.50 0.4501
614.60 0.4498
614.70 0.4495
614.80 0.4493
614.90 0.449
615.00 0.4487
615.10 0.4484
615.20 0.4481
615.30 0.4478
615.40 0.4476
615.50 0.4473
615.60 0.447
615.70 0.4467
615.80 0.4464
615.90 0.4462
616.00 0.4459
616.10 0.4456
616.20 0.4453
616.30 0.445
616.40 0.4448
616.50 0.4445
616.60 0.4442
616.70 0.4439
616.80 0.4436
616.90 0.4434
617.00 0.4431
617.10 0.4428
617.20 0.4425
617.30 0.4422
617.40 0.442
617.50 0.4417
617.60 0.4414
617.70 0.4411
617.80 0.4409
617.90 0.4406
618.00 0.4403
618.10 0.44
618.20 0.4398
618.30 0.4395
618.40 0.4392
618.50 0.4389
618.60 0.4386
618.70 0.4384
618.80 0.4381
618.90 0.4378
619.00 0.4375
619.10 0.4373
619.20 0.437
619.30 0.4367
619.40 0.4365
619.50 0.4362
619.60 0.4359
619.70 0.4356
619.80 0.4354
619.90 0.4351
620.00 0.4348
620.10 0.4345
620.20 0.4343
620.30 0.434
620.40 0.4337
620.50 0.4335
620.60 0.4332
620.70 0.4329
620.80 0.4326
620.90 0.4324
621.00 0.4321
621.10 0.4318
621.20 0.4316
621.30 0.4313
621.40 0.431
621.50 0.4308
621.60 0.4305
621.70 0.4302
621.80 0.4299
621.90 0.4297
622.00 0.4294
622.10 0.4291
622.20 0.4289
622.30 0.4286
622.40 0.4283
622.50 0.4281
622.60 0.4278
622.70 0.4275
622.80 0.4273
622.90 0.427
623.00 0.4267
623.10 0.4265
623.20 0.4262
623.30 0.4259
623.40 0.4257
623.50 0.4254
623.60 0.4251
623.70 0.4249
623.80 0.4246
623.90 0.4243
624.00 0.4241
624.10 0.4238
624.20 0.4236
624.30 0.4233
624.40 0.423
624.50 0.4228
624.60 0.4225
624.70 0.4222
624.80 0.422
624.90 0.4217
625.00 0.4215
625.10 0.4212
625.20 0.4209
625.30 0.4207
625.40 0.4204
625.50 0.4201
625.60 0.4199
625.70 0.4196
625.80 0.4194
625.90 0.4191
626.00 0.4188
626.10 0.4186
626.20 0.4183
626.30 0.4181
626.40 0.4178
626.50 0.4175
626.60 0.4173
626.70 0.417
626.80 0.4168
626.90 0.4165
627.00 0.4163
627.10 0.416
627.20 0.4157
627.30 0.4155
627.40 0.4152
627.50 0.415
627.60 0.4147
627.70 0.4145
627.80 0.4142
627.90 0.4139
628.00 0.4137
628.10 0.4134
628.20 0.4132
628.30 0.4129
628.40 0.4127
628.50 0.4124
628.60 0.4122
628.70 0.4119
628.80 0.4116
628.90 0.4114
629.00 0.4111
629.10 0.4109
629.20 0.4106
629.30 0.4104
629.40 0.4101
629.50 0.4099
629.60 0.4096
629.70 0.4094
629.80 0.4091
629.90 0.4089
630.00 0.4086
630.10 0.4083
630.20 0.4081
630.30 0.4078
630.40 0.4076
630.50 0.4073
630.60 0.4071
630.70 0.4068
630.80 0.4066
630.90 0.4063
631.00 0.4061
631.10 0.4058
631.20 0.4056
631.30 0.4053
631.40 0.4051
631.50 0.4048
631.60 0.4046
631.70 0.4043
631.80 0.4041
631.90 0.4038
632.00 0.4036
632.10 0.4033
632.20 0.4031
632.30 0.4028
632.40 0.4026
632.50 0.4024
632.60 0.4021
632.70 0.4019
632.80 0.4016
632.90 0.4014
633.00 0.4011
633.10 0.4009
633.20 0.4006
633.30 0.4004
633.40 0.4001
633.50 0.3999
633.60 0.3996
633.70 0.3994
633.80 0.3991
633.90 0.3989
634.00 0.3987
634.10 0.3984
634.20 0.3982
634.30 0.3979
634.40 0.3977
634.50 0.3974
634.60 0.3972
634.70 0.3969
634.80 0.3967
634.90 0.3965
635.00 0.3962
635.10 0.396
635.20 0.3957
635.30 0.3955
635.40 0.3952
635.50 0.395
635.60 0.3948
635.70 0.3945
635.80 0.3943
635.90 0.394
636.00 0.3938
636.10 0.3936
636.20 0.3933
636.30 0.3931
636.40 0.3928
636.50 0.3926
636.60 0.3923
636.70 0.3921
636.80 0.3919
636.90 0.3916
637.00 0.3914
637.10 0.3911
637.20 0.3909
637.30 0.3907
637.40 0.3904
637.50 0.3902
637.60 0.39
637.70 0.3897
637.80 0.3895
637.90 0.3892
638.00 0.389
638.10 0.3888
638.20 0.3885
638.30 0.3883
638.40 0.388
638.50 0.3878
638.60 0.3876
638.70 0.3873
638.80 0.3871
638.90 0.3869
639.00 0.3866
639.10 0.3864
639.20 0.3862
639.30 0.3859
639.40 0.3857
639.50 0.3854
639.60 0.3852
639.70 0.385
639.80 0.3847
639.90 0.3845
640.00 0.3843
640.10 0.384
640.20 0.3838
640.30 0.3836
640.40 0.3833
640.50 0.3831
640.60 0.3829
640.70 0.3826
640.80 0.3824
640.90 0.3822
641.00 0.3819
641.10 0.3817
641.20 0.3815
641.30 0.3812
641.40 0.381
641.50 0.3808
641.60 0.3805
641.70 0.3803
641.80 0.3801
641.90 0.3798
642.00 0.3796
642.10 0.3794
642.20 0.3791
642.30 0.3789
642.40 0.3787
642.50 0.3784
642.60 0.3782
642.70 0.378
642.80 0.3777
642.90 0.3775
643.00 0.3773
643.10 0.377
643.20 0.3768
643.30 0.3766
643.40 0.3763
643.50 0.3761
643.60 0.3759
643.70 0.3756
643.80 0.3754
643.90 0.3752
644.00 0.3749
644.10 0.3747
644.20 0.3745
644.30 0.3743
644.40 0.374
644.50 0.3738
644.60 0.3736
644.70 0.3733
644.80 0.3731
644.90 0.3729
645.00 0.3726
645.10 0.3724
645.20 0.3722
645.30 0.3719
645.40 0.3717
645.50 0.3715
645.60 0.3712
645.70 0.371
645.80 0.3708
645.90 0.3706
646.00 0.3703
646.10 0.3701
646.20 0.3699
646.30 0.3696
646.40 0.3694
646.50 0.3692
646.60 0.3689
646.70 0.3687
646.80 0.3685
646.90 0.3682
647.00 0.368
647.10 0.3678
647.20 0.3675
647.30 0.3673
647.40 0.3671
647.50 0.3668
647.60 0.3666
647.70 0.3664
647.80 0.3661
647.90 0.3659
648.00 0.3657
648.10 0.3654
648.20 0.3652
648.30 0.3649
648.40 0.3647
648.50 0.3645
648.60 0.3642
648.70 0.364
648.80 0.3637
648.90 0.3635
649.00 0.3633
649.10 0.363
649.20 0.3628
649.30 0.3625
649.40 0.3623
649.50 0.362
649.60 0.3618
649.70 0.3615
649.80 0.3613
649.90 0.361
650.00 0.3608
650.10 0.3605
650.20 0.3603
650.30 0.36
650.40 0.3597
650.50 0.3595
650.60 0.3592
650.70 0.3589
650.80 0.3586
650.90 0.3584
651.00 0.3581
651.10 0.3578
651.20 0.3575
651.30 0.3573
651.40 0.3569
651.50 0.3566
651.60 0.3563
651.70 0.356
651.80 0.3557
651.90 0.3554
652.00 0.3551
652.10 0.3547
652.20 0.3544
652.30 0.3541
652.40 0.3537
652.50 0.3533
652.60 0.3529
652.70 0.3525
652.80 0.3521
652.90 0.3517
653.00 0.3513
653.10 0.3509
653.20 0.3505
653.30 0.3501
653.40 0.3495
653.50 0.3489
653.60 0.3483
653.70 0.3477
653.80 0.3472
653.90 0.3466
654.00 0.346
654.10 0.3454
654.20 0.3448
654.30 0.3442
654.40 0.3434
654.50 0.3425
654.60 0.3417
654.70 0.3409
654.80 0.34
654.90 0.3389
655.00 0.3378
655.10 0.3367
655.20 0.3356
655.30 0.3344
655.40 0.333
655.50 0.3316
655.60 0.3299
655.70 0.3281
655.80 0.3258
655.90 0.3233
656.00 0.3198
656.10 0.3165
656.20 0.3223
656.30 0.3334
656.40 0.317
656.50 0.3169
656.60 0.3199
656.70 0.3228
656.80 0.3247
656.90 0.3265
657.00 0.3278
657.10 0.329
657.20 0.33
657.30 0.331
657.40 0.3317
657.50 0.3324
657.60 0.3331
657.70 0.3338
657.80 0.3344
657.90 0.3348
658.00 0.3352
658.10 0.3357
658.20 0.3361
658.30 0.3365
658.40 0.3366
658.50 0.3368
658.60 0.337
658.70 0.3371
658.80 0.3373
658.90 0.3375
659.00 0.3376
659.10 0.3378
659.20 0.338
659.30 0.3381
659.40 0.3381
659.50 0.3381
659.60 0.338
659.70 0.338
659.80 0.338
659.90 0.338
660.00 0.338
660.10 0.3379
660.20 0.3379
660.30 0.3379
660.40 0.3378
660.50 0.3377
660.60 0.3376
660.70 0.3375
660.80 0.3374
660.90 0.3373
661.00 0.3372
661.10 0.3371
661.20 0.337
661.30 0.3369
661.40 0.3367
661.50 0.3366
661.60 0.3364
661.70 0.3363
661.80 0.3361
661.90 0.336
662.00 0.3359
662.10 0.3357
662.20 0.3356
662.30 0.3354
662.40 0.3353
662.50 0.3351
662.60 0.3349
662.70 0.3348
662.80 0.3346
662.90 0.3344
663.00 0.3343
663.10 0.3341
663.20 0.3339
663.30 0.3338
663.40 0.3336
663.50 0.3334
663.60 0.3333
663.70 0.3331
663.80 0.3329
663.90 0.3327
664.00 0.3326
664.10 0.3324
664.20 0.3322
664.30 0.332
664.40 0.3319
664.50 0.3317
664.60 0.3315
664.70 0.3313
664.80 0.3311
664.90 0.331
665.00 0.3308
665.10 0.3306
665.20 0.3304
665.30 0.3302
665.40 0.3301
665.50 0.3299
665.60 0.3297
665.70 0.3295
665.80 0.3293
665.90 0.3291
666.00 0.329
666.10 0.3288
666.20 0.3286
666.30 0.3284
666.40 0.3282
666.50 0.328
666.60 0.3279
666.70 0.3277
666.80 0.3275
666.90 0.3273
667.00 0.3271
667.10 0.3269
667.20 0.3268
667.30 0.3266
667.40 0.3264
667.50 0.3262
667.60 0.326
667.70 0.3258
667.80 0.3256
667.90 0.3255
668.00 0.3253
668.10 0.3251
668.20 0.3249
668.30 0.3247
668.40 0.3245
668.50 0.3244
668.60 0.3242
668.70 0.324
668.80 0.3238
668.90 0.3236
669.00 0.3234
669.10 0.3232
669.20 0.3231
669.30 0.3229
669.40 0.3227
669.50 0.3225
669.60 0.3223
669.70 0.3221
669.80 0.322
669.90 0.3218
670.00 0.3216
670.10 0.3214
670.20 0.3212
670.30 0.321
670.40 0.3209
670.50 0.3207
670.60 0.3205
670.70 0.3203
670.80 0.3201
670.90 0.3199
671.00 0.3198
671.10 0.3196
671.20 0.3194
671.30 0.3192
671.40 0.319
671.50 0.3188
671.60 0.3187
671.70 0.3185
671.80 0.3183
671.90 0.3181
672.00 0.3179
672.10 0.3178
672.20 0.3176
672.30 0.3174
672.40 0.3172
672.50 0.317
672.60 0.3168
672.70 0.3167
672.80 0.3165
672.90 0.3163
673.00 0.3161
673.10 0.3159
673.20 0.3158
673.30 0.3156
673.40 0.3154
673.50 0.3152
673.60 0.315
673.70 0.3149
673.80 0.3147
673.90 0.3145
674.00 0.3143
674.10 0.3141
674.20 0.314
674.30 0.3138
674.40 0.3136
674.50 0.3134
674.60 0.3132
674.70 0.3131
674.80 0.3129
674.90 0.3127
675.00 0.3125
675.10 0.3123
675.20 0.3122
675.30 0.312
675.40 0.3118
675.50 0.3116
675.60 0.3114
675.70 0.3113
675.80 0.3111
675.90 0.3109
676.00 0.3107
676.10 0.3106
676.20 0.3104
676.30 0.3102
676.40 0.31
676.50 0.3098
676.60 0.3097
676.70 0.3095
676.80 0.3093
676.90 0.3091
677.00 0.309
677.10 0.3088
677.20 0.3086
677.30 0.3084
677.40 0.3083
677.50 0.3081
677.60 0.3079
677.70 0.3077
677.80 0.3075
677.90 0.3074
678.00 0.3072
678.10 0.307
678.20 0.3068
678.30 0.3067
678.40 0.3065
678.50 0.3063
678.60 0.3061
678.70 0.306
678.80 0.3058
678.90 0.3056
679.00 0.3054
679.10 0.3053
679.20 0.3051
679.30 0.3049
679.40 0.3047
679.50 0.3046
679.60 0.3044
679.70 0.3042
679.80 0.3041
679.90 0.3039
680.00 0.3037
680.10 0.3035
680.20 0.3034
680.30 0.3032
680.40 0.303
680.50 0.3028
680.60 0.3027
680.70 0.3025
680.80 0.3023
680.90 0.3022
681.00 0.302
681.10 0.3018
681.20 0.3016
681.30 0.3015
681.40 0.3013
681.50 0.3011
681.60 0.301
681.70 0.3008
681.80 0.3006
681.90 0.3004
682.00 0.3003
682.10 0.3001
682.20 0.2999
682.30 0.2998
682.40 0.2996
682.50 0.2994
682.60 0.2992
682.70 0.2991
682.80 0.2989
682.90 0.2987
683.00 0.2986
683.10 0.2984
683.20 0.2982
683.30 0.2981
683.40 0.2979
683.50 0.2977
683.60 0.2975
683.70 0.2974
683.80 0.2972
683.90 0.297
684.00 0.2969
684.10 0.2967
684.20 0.2965
684.30 0.2964
684.40 0.2962
684.50 0.296
684.60 0.2959
684.70 0.2957
684.80 0.2955
684.90 0.2954
685.00 0.2952
685.10 0.295
685.20 0.2949
685.30 0.2947
685.40 0.2945
685.50 0.2944
685.60 0.2942
685.70 0.294
685.80 0.2939
685.90 0.2937
686.00 0.2935
686.10 0.2934
686.20 0.2932
686.30 0.293
686.40 0.2929
686.50 0.2927
686.60 0.2925
686.70 0.2924
686.80 0.2922
686.90 0.292
687.00 0.2919
687.10 0.2917
687.20 0.2915
687.30 0.2914
687.40 0.2912
687.50 0.291
687.60 0.2909
687.70 0.2907
687.80 0.2906
687.90 0.2904
688.00 0.2902
688.10 0.2901
688.20 0.2899
688.30 0.2897
688.40 0.2896
688.50 0.2894
688.60 0.2892
688.70 0.2891
688.80 0.2889
688.90 0.2888
689.00 0.2886
689.10 0.2884
689.20 0.2883
689.30 0.2881
689.40 0.2879
689.50 0.2878
689.60 0.2876
689.70 0.2875
689.80 0.2873
689.90 0.2871
690.00 0.287
690.10 0.2868
690.20 0.2867
690.30 0.2865
690.40 0.2863
690.50 0.2862
690.60 0.286
690.70 0.2859
690.80 0.2857
690.90 0.2855
691.00 0.2854
691.10 0.2852
691.20 0.2851
691.30 0.2849
691.40 0.2847
691.50 0.2846
691.60 0.2844
691.70 0.2843
691.80 0.2841
691.90 0.2839
692.00 0.2838
692.10 0.2836
692.20 0.2835
692.30 0.2833
692.40 0.2831
692.50 0.283
692.60 0.2828
692.70 0.2827
692.80 0.2825
692.90 0.2823
693.00 0.2822
693.10 0.282
693.20 0.2819
693.30 0.2817
693.40 0.2816
693.50 0.2814
693.60 0.2812
693.70 0.2811
693.80 0.2809
693.90 0.2808
694.00 0.2806
694.10 0.2804
694.20 0.2803
694.30 0.2801
694.40 0.28
694.50 0.2798
694.60 0.2797
694.70 0.2795
694.80 0.2793
694.90 0.2792
695.00 0.279
695.10 0.2789
695.20 0.2787
695.30 0.2786
695.40 0.2784
695.50 0.2783
695.60 0.2781
695.70 0.2779
695.80 0.2778
695.90 0.2776
696.00 0.2775
696.10 0.2773
696.20 0.2772
696.30 0.277
696.40 0.2769
696.50 0.2767
696.60 0.2766
696.70 0.2764
696.80 0.2763
696.90 0.2761
697.00 0.2759
697.10 0.2758
697.20 0.2756
697.30 0.2755
697.40 0.2753
697.50 0.2752
697.60 0.275
697.70 0.2749
697.80 0.2747
697.90 0.2746
698.00 0.2744
698.10 0.2743
698.20 0.2741
698.30 0.274
698.40 0.2738
698.50 0.2736
698.60 0.2735
698.70 0.2733
698.80 0.2732
698.90 0.273
699.00 0.2729
699.10 0.2727
699.20 0.2726
699.30 0.2724
699.40 0.2723
699.50 0.2721
699.60 0.272
699.70 0.2718
699.80 0.2717
699.90 0.2715
700.00 0.2714
700.10 0.2712
700.20 0.2711
700.30 0.2709
700.40 0.2708
700.50 0.2706
700.60 0.2705
700.70 0.2703
700.80 0.2702
700.90 0.27
701.00 0.2699
701.10 0.2697
701.20 0.2696
701.30 0.2694
701.40 0.2693
701.50 0.2691
701.60 0.269
701.70 0.2688
701.80 0.2687
701.90 0.2685
702.00 0.2684
702.10 0.2682
702.20 0.2681
702.30 0.2679
702.40 0.2678
702.50 0.2676
702.60 0.2675
702.70 0.2673
702.80 0.2672
702.90 0.267
703.00 0.2669
703.10 0.2668
703.20 0.2666
703.30 0.2665
703.40 0.2663
703.50 0.2662
703.60 0.266
703.70 0.2659
703.80 0.2657
703.90 0.2656
704.00 0.2654
704.10 0.2653
704.20 0.2651
704.30 0.265
704.40 0.2648
704.50 0.2647
704.60 0.2645
704.70 0.2644
704.80 0.2643
704.90 0.2641
705.00 0.264
705.10 0.2638
705.20 0.2637
705.30 0.2635
705.40 0.2634
705.50 0.2632
705.60 0.2631
705.70 0.2629
705.80 0.2628
705.90 0.2627
706.00 0.2625
706.10 0.2624
706.20 0.2622
706.30 0.2621
706.40 0.2619
706.50 0.2618
706.60 0.2616
706.70 0.2615
706.80 0.2614
706.90 0.2612
707.00 0.2611
707.10 0.2609
707.20 0.2608
707.30 0.2606
707.40 0.2605
707.50 0.2604
707.60 0.2602
707.70 0.2601
707.80 0.2599
707.90 0.2598
708.00 0.2596
708.10 0.2595
708.20 0.2594
708.30 0.2592
708.40 0.2591
708.50 0.2589
708.60 0.2588
708.70 0.2586
708.80 0.2585
708.90 0.2584
709.00 0.2582
709.10 0.2581
709.20 0.2579
709.30 0.2578
709.40 0.2577
709.50 0.2575
709.60 0.2574
709.70 0.2572
709.80 0.2571
709.90 0.2569
710.00 0.2568
710.10 0.2567
710.20 0.2565
710.30 0.2564
710.40 0.2562
710.50 0.2561
710.60 0.256
710.70 0.2558
710.80 0.2557
710.90 0.2555
711.00 0.2554
711.10 0.2553
711.20 0.2551
711.30 0.255
711.40 0.2549
711.50 0.2547
711.60 0.2546
711.70 0.2544
711.80 0.2543
711.90 0.2542
712.00 0.254
712.10 0.2539
712.20 0.2537
712.30 0.2536
712.40 0.2535
712.50 0.2533
712.60 0.2532
712.70 0.253
712.80 0.2529
712.90 0.2528
713.00 0.2526
713.10 0.2525
713.20 0.2524
713.30 0.2522
713.40 0.2521
713.50 0.2519
713.60 0.2518
713.70 0.2517
713.80 0.2515
713.90 0.2514
714.00 0.2513
714.10 0.2511
714.20 0.251
714.30 0.2508
714.40 0.2507
714.50 0.2506
714.60 0.2504
714.70 0.2503
714.80 0.2502
714.90 0.25
715.00 0.2499
715.10 0.2498
715.20 0.2496
715.30 0.2495
715.40 0.2493
715.50 0.2492
715.60 0.2491
715.70 0.2489
715.80 0.2488
715.90 0.2487
716.00 0.2485
716.10 0.2484
716.20 0.2483
716.30 0.2481
716.40 0.248
716.50 0.2479
716.60 0.2477
716.70 0.2476
716.80 0.2475
716.90 0.2473
717.00 0.2472
717.10 0.2471
717.20 0.2469
717.30 0.2468
717.40 0.2467
717.50 0.2465
717.60 0.2464
717.70 0.2463
717.80 0.2461
717.90 0.246
718.00 0.2459
718.10 0.2457
718.20 0.2456
718.30 0.2455
718.40 0.2453
718.50 0.2452
718.60 0.2451
718.70 0.2449
718.80 0.2448
718.90 0.2447
719.00 0.2445
719.10 0.2444
719.20 0.2443
719.30 0.2441
719.40 0.244
719.50 0.2439
719.60 0.2437
719.70 0.2436
719.80 0.2435
719.90 0.2433
720.00 0.2432
720.10 0.2431
720.20 0.2429
720.30 0.2428
720.40 0.2427
720.50 0.2426
720.60 0.2424
720.70 0.2423
720.80 0.2422
720.90 0.242
721.00 0.2419
721.10 0.2418
721.20 0.2416
721.30 0.2415
721.40 0.2414
721.50 0.2413
721.60 0.2411
721.70 0.241
721.80 0.2409
721.90 0.2407
722.00 0.2406
722.10 0.2405
722.20 0.2403
722.30 0.2402
722.40 0.2401
722.50 0.24
722.60 0.2398
722.70 0.2397
722.80 0.2396
722.90 0.2394
723.00 0.2393
723.10 0.2392
723.20 0.2391
723.30 0.2389
723.40 0.2388
723.50 0.2387
723.60 0.2385
723.70 0.2384
723.80 0.2383
723.90 0.2382
724.00 0.238
724.10 0.2379
724.20 0.2378
724.30 0.2376
724.40 0.2375
724.50 0.2374
724.60 0.2373
724.70 0.2371
724.80 0.237
724.90 0.2369
725.00 0.2367
725.10 0.2366
725.20 0.2365
725.30 0.2364
725.40 0.2362
725.50 0.2361
725.60 0.236
725.70 0.2359
725.80 0.2357
725.90 0.2356
726.00 0.2355
726.10 0.2354
726.20 0.2352
726.30 0.2351
726.40 0.235
726.50 0.2349
726.60 0.2347
726.70 0.2346
726.80 0.2345
726.90 0.2344
727.00 0.2342
727.10 0.2341
727.20 0.234
727.30 0.2339
727.40 0.2337
727.50 0.2336
727.60 0.2335
727.70 0.2334
727.80 0.2332
727.90 0.2331
728.00 0.233
728.10 0.2329
728.20 0.2327
728.30 0.2326
728.40 0.2325
728.50 0.2324
728.60 0.2322
728.70 0.2321
728.80 0.232
728.90 0.2319
729.00 0.2317
729.10 0.2316
729.20 0.2315
729.30 0.2314
729.40 0.2312
729.50 0.2311
729.60 0.231
729.70 0.2309
729.80 0.2307
729.90 0.2306
730.00 0.2305
730.10 0.2304
730.20 0.2303
730.30 0.2301
730.40 0.23
730.50 0.2299
730.60 0.2298
730.70 0.2296
730.80 0.2295
730.90 0.2294
731.00 0.2293
731.10 0.2292
731.20 0.229
731.30 0.2289
731.40 0.2288
731.50 0.2287
731.60 0.2286
731.70 0.2284
731.80 0.2283
731.90 0.2282
732.00 0.2281
732.10 0.228
732.20 0.2278
732.30 0.2277
732.40 0.2276
732.50 0.2275
732.60 0.2274
732.70 0.2272
732.80 0.2271
732.90 0.227
733.00 0.2269
733.10 0.2268
733.20 0.2266
733.30 0.2265
733.40 0.2264
733.50 0.2263
733.60 0.2262
733.70 0.226
733.80 0.2259
733.90 0.2258
734.00 0.2257
734.10 0.2256
734.20 0.2254
734.30 0.2253
734.40 0.2252
734.50 0.2251
734.60 0.225
734.70 0.2248
734.80 0.2247
734.90 0.2246
735.00 0.2245
735.10 0.2244
735.20 0.2242
735.30 0.2241
735.40 0.224
735.50 0.2239
735.60 0.2238
735.70 0.2237
735.80 0.2235
735.90 0.2234
736.00 0.2233
736.10 0.2232
736.20 0.2231
736.30 0.2229
736.40 0.2228
736.50 0.2227
736.60 0.2226
736.70 0.2225
736.80 0.2224
736.90 0.2222
737.00 0.2221
737.10 0.222
737.20 0.2219
737.30 0.2218
737.40 0.2216
737.50 0.2215
737.60 0.2214
737.70 0.2213
737.80 0.2212
737.90 0.2211
738.00 0.2209
738.10 0.2208
738.20 0.2207
738.30 0.2206
738.40 0.2205
738.50 0.2204
738.60 0.2202
738.70 0.2201
738.80 0.22
738.90 0.2199
739.00 0.2198
739.10 0.2197
739.20 0.2195
739.30 0.2194
739.40 0.2193
739.50 0.2192
739.60 0.2191
739.70 0.219
739.80 0.2188
739.90 0.2187
740.00 0.2186
740.10 0.2185
740.20 0.2184
740.30 0.2183
740.40 0.2182
740.50 0.218
740.60 0.2179
740.70 0.2178
740.80 0.2177
740.90 0.2176
741.00 0.2175
741.10 0.2174
741.20 0.2173
741.30 0.2171
741.40 0.217
741.50 0.2169
741.60 0.2168
741.70 0.2167
741.80 0.2166
741.90 0.2165
742.00 0.2163
742.10 0.2162
742.20 0.2161
742.30 0.216
742.40 0.2159
742.50 0.2158
742.60 0.2157
742.70 0.2156
742.80 0.2154
742.90 0.2153
743.00 0.2152
743.10 0.2151
743.20 0.215
743.30 0.2149
743.40 0.2148
743.50 0.2147
743.60 0.2145
743.70 0.2144
743.80 0.2143
743.90 0.2142
744.00 0.2141
744.10 0.214
744.20 0.2139
744.30 0.2138
744.40 0.2137
744.50 0.2135
744.60 0.2134
744.70 0.2133
744.80 0.2132
744.90 0.2131
745.00 0.213
745.10 0.2129
745.20 0.2128
745.30 0.2127
745.40 0.2125
745.50 0.2124
745.60 0.2123
745.70 0.2122
745.80 0.2121
745.90 0.212
746.00 0.2119
746.10 0.2118
746.20 0.2117
746.30 0.2115
746.40 0.2114
746.50 0.2113
746.60 0.2112
746.70 0.2111
746.80 0.211
746.90 0.2109
747.00 0.2108
747.10 0.2107
747.20 0.2105
747.30 0.2104
747.40 0.2103
747.50 0.2102
747.60 0.2101
747.70 0.21
747.80 0.2099
747.90 0.2098
748.00 0.2097
748.10 0.2096
748.20 0.2094
748.30 0.2093
748.40 0.2092
748.50 0.2091
748.60 0.209
748.70 0.2089
748.80 0.2088
748.90 0.2087
749.00 0.2086
749.10 0.2085
749.20 0.2084
749.30 0.2082
749.40 0.2081
749.50 0.208
749.60 0.2079
749.70 0.2078
749.80 0.2077
749.90 0.2076
750.00 0.2075
750.10 0.2074
750.20 0.2073
750.30 0.2072
750.40 0.2071
750.50 0.207
750.60 0.2068
750.70 0.2067
750.80 0.2066
750.90 0.2065
751.00 0.2064
751.10 0.2063
751.20 0.2062
751.30 0.2061
751.40 0.206
751.50 0.2059
751.60 0.2058
751.70 0.2057
751.80 0.2056
751.90 0.2055
752.00 0.2054
752.10 0.2053
752.20 0.2051
752.30 0.205
752.40 0.2049
752.50 0.2048
752.60 0.2047
752.70 0.2046
752.80 0.2045
752.90 0.2044
753.00 0.2043
753.10 0.2042
753.20 0.2041
753.30 0.204
753.40 0.2039
753.50 0.2038
753.60 0.2037
753.70 0.2036
753.80 0.2035
753.90 0.2034
754.00 0.2033
754.10 0.2032
754.20 0.203
754.30 0.2029
754.40 0.2028
754.50 0.2027
754.60 0.2026
754.70 0.2025
754.80 0.2024
754.90 0.2023
755.00 0.2022
755.10 0.2021
755.20 0.202
755.30 0.2019
755.40 0.2018
755.50 0.2017
755.60 0.2016
755.70 0.2015
755.80 0.2014
755.90 0.2013
756.00 0.2012
756.10 0.2011
756.20 0.201
756.30 0.2009
756.40 0.2008
756.50 0.2007
756.60 0.2005
756.70 0.2004
756.80 0.2003
756.90 0.2002
757.00 0.2001
757.10 0.2
757.20 0.1999
757.30 0.1998
757.40 0.1997
757.50 0.1996
757.60 0.1995
757.70 0.1994
757.80 0.1993
757.90 0.1992
758.00 0.1991
758.10 0.199
758.20 0.1989
758.30 0.1988
758.40 0.1987
758.50 0.1986
758.60 0.1985
758.70 0.1984
758.80 0.1983
758.90 0.1982
759.00 0.1981
759.10 0.198
759.20 0.1979
759.30 0.1978
759.40 0.1977
759.50 0.1976
759.60 0.1975
759.70 0.1974
759.80 0.1973
759.90 0.1972
760.00 0.1971
760.10 0.197
760.20 0.1969
760.30 0.1968
760.40 0.1967
760.50 0.1966
760.60 0.1965
760.70 0.1964
760.80 0.1963
760.90 0.1962
761.00 0.1961
761.10 0.196
761.20 0.1959
761.30 0.1958
761.40 0.1957
761.50 0.1956
761.60 0.1955
761.70 0.1954
761.80 0.1953
761.90 0.1952
762.00 0.1951
762.10 0.195
762.20 0.1949
762.30 0.1948
762.40 0.1947
762.50 0.1946
762.60 0.1945
762.70 0.1944
762.80 0.1943
762.90 0.1942
763.00 0.1941
763.10 0.194
763.20 0.1939
763.30 0.1938
763.40 0.1937
763.50 0.1936
763.60 0.1935
763.70 0.1934
763.80 0.1933
763.90 0.1932
764.00 0.1931
764.10 0.193
764.20 0.1929
764.30 0.1928
764.40 0.1927
764.50 0.1926
764.60 0.1925
764.70 0.1924
764.80 0.1923
764.90 0.1922
765.00 0.1921
765.10 0.192
765.20 0.1919
765.30 0.1918
765.40 0.1917
765.50 0.1916
765.60 0.1915
765.70 0.1914
765.80 0.1913
765.90 0.1912
766.00 0.1911
766.10 0.191
766.20 0.1909
766.30 0.1908
766.40 0.1907
766.50 0.1907
766.60 0.1906
766.70 0.1905
766.80 0.1904
766.90 0.1903
767.00 0.1902
767.10 0.1901
767.20 0.19
767.30 0.1899
767.40 0.1898
767.50 0.1897
767.60 0.1896
767.70 0.1895
767.80 0.1894
767.90 0.1893
768.00 0.1892
768.10 0.1891
768.20 0.189
768.30 0.1889
768.40 0.1888
768.50 0.1887
768.60 0.1886
768.70 0.1885
768.80 0.1884
768.90 0.1883
769.00 0.1882
769.10 0.1881
769.20 0.188
769.30 0.1879
769.40 0.1879
769.50 0.1878
769.60 0.1877
769.70 0.1876
769.80 0.1875
769.90 0.1874
770.00 0.1873
770.10 0.1872
770.20 0.1871
770.30 0.187
770.40 0.1869
770.50 0.1868
770.60 0.1867
770.70 0.1866
770.80 0.1865
770.90 0.1864
771.00 0.1863
771.10 0.1862
771.20 0.1862
771.30 0.1861
771.40 0.186
771.50 0.1859
771.60 0.1858
771.70 0.1857
771.80 0.1856
771.90 0.1855
772.00 0.1854
772.10 0.1853
772.20 0.1852
772.30 0.1851
772.40 0.185
772.50 0.1849
772.60 0.1849
772.70 0.1848
772.80 0.1847
772.90 0.1846
773.00 0.1845
773.10 0.1844
773.20 0.1843
773.30 0.1842
773.40 0.1841
773.50 0.184
773.60 0.1839
773.70 0.1838
773.80 0.1837
773.90 0.1837
774.00 0.1836
774.10 0.1835
774.20 0.1834
774.30 0.1833
774.40 0.1832
774.50 0.1831
774.60 0.183
774.70 0.1829
774.80 0.1828
774.90 0.1827
775.00 0.1826
775.10 0.1825
775.20 0.1825
775.30 0.1824
775.40 0.1823
775.50 0.1822
775.60 0.1821
775.70 0.182
775.80 0.1819
775.90 0.1818
776.00 0.1817
776.10 0.1816
776.20 0.1815
776.30 0.1814
776.40 0.1814
776.50 0.1813
776.60 0.1812
776.70 0.1811
776.80 0.181
776.90 0.1809
777.00 0.1808
777.10 0.1807
777.20 0.1806
777.30 0.1805
777.40 0.1804
777.50 0.1804
777.60 0.1803
777.70 0.1802
777.80 0.1801
777.90 0.18
778.00 0.1799
778.10 0.1798
778.20 0.1797
778.30 0.1796
778.40 0.1795
778.50 0.1795
778.60 0.1794
778.70 0.1793
778.80 0.1792
778.90 0.1791
779.00 0.179
779.10 0.1789
779.20 0.1788
779.30 0.1787
779.40 0.1786
779.50 0.1785
779.60 0.1785
779.70 0.1784
779.80 0.1783
779.90 0.1782
780.00 0.1781
780.10 0.178
780.20 0.1779
780.30 0.1778
780.40 0.1777
780.50 0.1777
780.60 0.1776
780.70 0.1775
780.80 0.1774
780.90 0.1773
781.00 0.1772
781.10 0.1771
781.20 0.177
781.30 0.177
781.40 0.1769
781.50 0.1768
781.60 0.1767
781.70 0.1766
781.80 0.1765
781.90 0.1764
782.00 0.1763
782.10 0.1763
782.20 0.1762
782.30 0.1761
782.40 0.176
782.50 0.1759
782.60 0.1758
782.70 0.1757
782.80 0.1756
782.90 0.1756
783.00 0.1755
783.10 0.1754
783.20 0.1753
783.30 0.1752
783.40 0.1751
783.50 0.175
783.60 0.175
783.70 0.1749
783.80 0.1748
783.90 0.1747
784.00 0.1746
784.10 0.1745
784.20 0.1744
784.30 0.1743
784.40 0.1743
784.50 0.1742
784.60 0.1741
784.70 0.174
784.80 0.1739
784.90 0.1738
785.00 0.1737
785.10 0.1737
785.20 0.1736
785.30 0.1735
785.40 0.1734
785.50 0.1733
785.60 0.1732
785.70 0.1731
785.80 0.1731
785.90 0.173
786.00 0.1729
786.10 0.1728
786.20 0.1727
786.30 0.1726
786.40 0.1725
786.50 0.1725
786.60 0.1724
786.70 0.1723
786.80 0.1722
786.90 0.1721
787.00 0.172
787.10 0.1719
787.20 0.1719
787.30 0.1718
787.40 0.1717
787.50 0.1716
787.60 0.1715
787.70 0.1714
787.80 0.1713
787.90 0.1713
788.00 0.1712
788.10 0.1711
788.20 0.171
788.30 0.1709
788.40 0.1708
788.50 0.1707
788.60 0.1707
788.70 0.1706
788.80 0.1705
788.90 0.1704
789.00 0.1703
789.10 0.1702
789.20 0.1702
789.30 0.1701
789.40 0.17
789.50 0.1699
789.60 0.1698
789.70 0.1697
789.80 0.1696
789.90 0.1696
790.00 0.1695
790.10 0.1694
790.20 0.1693
790.30 0.1692
790.40 0.1691
790.50 0.1691
790.60 0.169
790.70 0.1689
790.80 0.1688
790.90 0.1687
791.00 0.1687
791.10 0.1686
791.20 0.1685
791.30 0.1684
791.40 0.1683
791.50 0.1682
791.60 0.1682
791.70 0.1681
791.80 0.168
791.90 0.1679
792.00 0.1678
792.10 0.1677
792.20 0.1677
792.30 0.1676
792.40 0.1675
792.50 0.1674
792.60 0.1673
792.70 0.1673
792.80 0.1672
792.90 0.1671
793.00 0.167
793.10 0.1669
793.20 0.1668
793.30 0.1668
793.40 0.1667
793.50 0.1666
793.60 0.1665
793.70 0.1664
793.80 0.1664
793.90 0.1663
794.00 0.1662
794.10 0.1661
794.20 0.166
794.30 0.166
794.40 0.1659
794.50 0.1658
794.60 0.1657
794.70 0.1656
794.80 0.1655
794.90 0.1655
795.00 0.1654
795.10 0.1653
795.20 0.1652
795.30 0.1651
795.40 0.1651
795.50 0.165
795.60 0.1649
795.70 0.1648
795.80 0.1647
795.90 0.1647
796.00 0.1646
796.10 0.1645
796.20 0.1644
796.30 0.1643
796.40 0.1643
796.50 0.1642
796.60 0.1641
796.70 0.164
796.80 0.1639
796.90 0.1638
797.00 0.1638
797.10 0.1637
797.20 0.1636
797.30 0.1635
797.40 0.1634
797.50 0.1634
797.60 0.1633
797.70 0.1632
797.80 0.1631
797.90 0.163
798.00 0.163
798.10 0.1629
798.20 0.1628
798.30 0.1627
798.40 0.1626
798.50 0.1626
798.60 0.1625
798.70 0.1624
798.80 0.1623
798.90 0.1622
799.00 0.1622
799.10 0.1621
799.20 0.162
799.30 0.1619
799.40 0.1619
799.50 0.1618
799.60 0.1617
799.70 0.1616
799.80 0.1615
799.90 0.1615
800.00 0.1614
800.10 0.1613
800.20 0.1612
800.30 0.1611
800.40 0.1611
800.50 0.161
800.60 0.1609
800.70 0.1608
800.80 0.1608
800.90 0.1607
801.00 0.1606
801.10 0.1605
801.20 0.1604
801.30 0.1604
801.40 0.1603
801.50 0.1602
801.60 0.1601
801.70 0.1601
801.80 0.16
801.90 0.1599
802.00 0.1598
802.10 0.1597
802.20 0.1597
802.30 0.1596
802.40 0.1595
802.50 0.1594
802.60 0.1594
802.70 0.1593
802.80 0.1592
802.90 0.1591
803.00 0.1591
803.10 0.159
803.20 0.1589
803.30 0.1588
803.40 0.1587
803.50 0.1587
803.60 0.1586
803.70 0.1585
803.80 0.1584
803.90 0.1584
804.00 0.1583
804.10 0.1582
804.20 0.1581
804.30 0.1581
804.40 0.158
804.50 0.1579
804.60 0.1578
804.70 0.1577
804.80 0.1577
804.90 0.1576
805.00 0.1575
805.10 0.1574
805.20 0.1574
805.30 0.1573
805.40 0.1572
805.50 0.1571
805.60 0.1571
805.70 0.157
805.80 0.1569
805.90 0.1568
806.00 0.1568
806.10 0.1567
806.20 0.1566
806.30 0.1565
806.40 0.1565
806.50 0.1564
806.60 0.1563
806.70 0.1562
806.80 0.1562
806.90 0.1561
807.00 0.156
807.10 0.1559
807.20 0.1559
807.30 0.1558
807.40 0.1557
807.50 0.1556
807.60 0.1555
807.70 0.1555
807.80 0.1554
807.90 0.1553
808.00 0.1552
808.10 0.1552
808.20 0.1551
808.30 0.155
808.40 0.1549
808.50 0.1549
808.60 0.1548
808.70 0.1547
808.80 0.1546
808.90 0.1546
809.00 0.1545
809.10 0.1544
809.20 0.1543
809.30 0.1543
809.40 0.1542
809.50 0.1541
809.60 0.154
809.70 0.154
809.80 0.1539
809.90 0.1538
810.00 0.1537
810.10 0.1537
810.20 0.1536
810.30 0.1535
810.40 0.1535
810.50 0.1534
810.60 0.1533
810.70 0.1532
810.80 0.1532
810.90 0.1531
811.00 0.153
811.10 0.1529
811.20 0.1529
811.30 0.1528
811.40 0.1527
811.50 0.1527
811.60 0.1526
811.70 0.1525
811.80 0.1524
811.90 0.1524
812.00 0.1523
812.10 0.1522
812.20 0.1521
812.30 0.1521
812.40 0.152
812.50 0.1519
812.60 0.1519
812.70 0.1518
812.80 0.1517
812.90 0.1516
813.00 0.1516
813.10 0.1515
813.20 0.1514
813.30 0.1513
813.40 0.1513
813.50 0.1512
813.60 0.1511
813.70 0.1511
813.80 0.151
813.90 0.1509
814.00 0.1508
814.10 0.1508
814.20 0.1507
814.30 0.1506
814.40 0.1506
814.50 0.1505
814.60 0.1504
814.70 0.1503
814.80 0.1503
814.90 0.1502
815.00 0.1501
815.10 0.1501
815.20 0.15
815.30 0.1499
815.40 0.1498
815.50 0.1498
815.60 0.1497
815.70 0.1496
815.80 0.1495
815.90 0.1495
816.00 0.1494
816.10 0.1493
816.20 0.1493
816.30 0.1492
816.40 0.1491
816.50 0.149
816.60 0.149
816.70 0.1489
816.80 0.1488
816.90 0.1488
817.00 0.1487
817.10 0.1486
817.20 0.1486
817.30 0.1485
817.40 0.1484
817.50 0.1483
817.60 0.1483
817.70 0.1482
817.80 0.1481
817.90 0.1481
818.00 0.148
818.10 0.1479
818.20 0.1478
818.30 0.1478
818.40 0.1477
818.50 0.1476
818.60 0.1476
818.70 0.1475
818.80 0.1474
818.90 0.1473
819.00 0.1473
819.10 0.1472
819.20 0.1471
819.30 0.1471
819.40 0.147
819.50 0.1469
819.60 0.1469
819.70 0.1468
819.80 0.1467
819.90 0.1466
820.00 0.1466
820.10 0.1465
820.20 0.1464
820.30 0.1464
820.40 0.1463
820.50 0.1462
820.60 0.1462
820.70 0.1461
820.80 0.146
820.90 0.1459
821.00 0.1459
821.10 0.1458
821.20 0.1457
821.30 0.1457
821.40 0.1456
821.50 0.1455
821.60 0.1455
821.70 0.1454
821.80 0.1453
821.90 0.1453
822.00 0.1452
822.10 0.1451
822.20 0.145
822.30 0.145
822.40 0.1449
822.50 0.1448
822.60 0.1448
822.70 0.1447
822.80 0.1446
822.90 0.1446
823.00 0.1445
823.10 0.1444
823.20 0.1444
823.30 0.1443
823.40 0.1442
823.50 0.1442
823.60 0.1441
823.70 0.144
823.80 0.144
823.90 0.1439
824.00 0.1438
824.10 0.1438
824.20 0.1437
824.30 0.1436
824.40 0.1435
824.50 0.1435
824.60 0.1434
824.70 0.1433
824.80 0.1433
824.90 0.1432
825.00 0.1431
825.10 0.1431
825.20 0.143
825.30 0.1429
825.40 0.1429
825.50 0.1428
825.60 0.1427
825.70 0.1427
825.80 0.1426
825.90 0.1425
826.00 0.1425
826.10 0.1424
826.20 0.1423
826.30 0.1423
826.40 0.1422
826.50 0.1421
826.60 0.1421
826.70 0.142
826.80 0.1419
826.90 0.1419
827.00 0.1418
827.10 0.1417
827.20 0.1417
827.30 0.1416
827.40 0.1415
827.50 0.1415
827.60 0.1414
827.70 0.1413
827.80 0.1413
827.90 0.1412
828.00 0.1411
828.10 0.1411
828.20 0.141
828.30 0.1409
828.40 0.1409
828.50 0.1408
828.60 0.1407
828.70 0.1407
828.80 0.1406
828.90 0.1405
829.00 0.1405
829.10 0.1404
829.20 0.1403
829.30 0.1403
829.40 0.1402
829.50 0.1401
829.60 0.1401
829.70 0.14
829.80 0.1399
829.90 0.1399
830.00 0.1398
830.10 0.1397
830.20 0.1397
830.30 0.1396
830.40 0.1395
830.50 0.1395
830.60 0.1394
830.70 0.1394
830.80 0.1393
830.90 0.1392
831.00 0.1392
831.10 0.1391
831.20 0.139
831.30 0.139
831.40 0.1389
831.50 0.1388
831.60 0.1388
831.70 0.1387
831.80 0.1386
831.90 0.1386
832.00 0.1385
832.10 0.1384
832.20 0.1384
832.30 0.1383
832.40 0.1382
832.50 0.1382
832.60 0.1381
832.70 0.138
832.80 0.138
832.90 0.1379
833.00 0.1379
833.10 0.1378
833.20 0.1377
833.30 0.1377
833.40 0.1376
833.50 0.1375
833.60 0.1375
833.70 0.1374
833.80 0.1373
833.90 0.1373
834.00 0.1372
834.10 0.1371
834.20 0.1371
834.30 0.137
834.40 0.137
834.50 0.1369
834.60 0.1368
834.70 0.1368
834.80 0.1367
834.90 0.1366
835.00 0.1366
835.10 0.1365
835.20 0.1364
835.30 0.1364
835.40 0.1363
835.50 0.1363
835.60 0.1362
835.70 0.1361
835.80 0.1361
835.90 0.136
836.00 0.1359
836.10 0.1359
836.20 0.1358
836.30 0.1357
836.40 0.1357
836.50 0.1356
836.60 0.1356
836.70 0.1355
836.80 0.1354
836.90 0.1354
837.00 0.1353
837.10 0.1352
837.20 0.1352
837.30 0.1351
837.40 0.135
837.50 0.135
837.60 0.1349
837.70 0.1349
837.80 0.1348
837.90 0.1347
838.00 0.1347
838.10 0.1346
838.20 0.1345
838.30 0.1345
838.40 0.1344
838.50 0.1344
838.60 0.1343
838.70 0.1342
838.80 0.1342
838.90 0.1341
839.00 0.134
839.10 0.134
839.20 0.1339
839.30 0.1339
839.40 0.1338
839.50 0.1337
839.60 0.1337
839.70 0.1336
839.80 0.1336
839.90 0.1335
840.00 0.1334
840.10 0.1334
840.20 0.1333
840.30 0.1332
840.40 0.1332
840.50 0.1331
840.60 0.1331
840.70 0.133
840.80 0.1329
840.90 0.1329
841.00 0.1328
841.10 0.1327
841.20 0.1327
841.30 0.1326
841.40 0.1326
841.50 0.1325
841.60 0.1324
841.70 0.1324
841.80 0.1323
841.90 0.1323
842.00 0.1322
842.10 0.1321
842.20 0.1321
842.30 0.132
842.40 0.1319
842.50 0.1319
842.60 0.1318
842.70 0.1318
842.80 0.1317
842.90 0.1316
843.00 0.1316
843.10 0.1315
843.20 0.1315
843.30 0.1314
843.40 0.1313
843.50 0.1313
843.60 0.1312
843.70 0.1312
843.80 0.1311
843.90 0.131
844.00 0.131
844.10 0.1309
844.20 0.1309
844.30 0.1308
844.40 0.1307
844.50 0.1307
844.60 0.1306
844.70 0.1306
844.80 0.1305
844.90 0.1304
845.00 0.1304
845.10 0.1303
845.20 0.1303
845.30 0.1302
845.40 0.1301
845.50 0.1301
845.60 0.13
845.70 0.13
845.80 0.1299
845.90 0.1298
846.00 0.1298
846.10 0.1297
846.20 0.1297
846.30 0.1296
846.40 0.1295
846.50 0.1295
846.60 0.1294
846.70 0.1294
846.80 0.1293
846.90 0.1292
847.00 0.1292
847.10 0.1291
847.20 0.1291
847.30 0.129
847.40 0.1289
847.50 0.1289
847.60 0.1288
847.70 0.1288
847.80 0.1287
847.90 0.1286
848.00 0.1286
848.10 0.1285
848.20 0.1285
848.30 0.1284
848.40 0.1283
848.50 0.1283
848.60 0.1282
848.70 0.1282
848.80 0.1281
848.90 0.1281
849.00 0.128
849.10 0.1279
849.20 0.1279
849.30 0.1278
849.40 0.1278
849.50 0.1277
849.60 0.1276
849.70 0.1276
849.80 0.1275
849.90 0.1275
850.00 0.1274
850.10 0.1273
850.20 0.1273
850.30 0.1272
850.40 0.1272
850.50 0.1271
850.60 0.1271
850.70 0.127
850.80 0.1269
850.90 0.1269
851.00 0.1268
851.10 0.1268
851.20 0.1267
851.30 0.1266
851.40 0.1266
851.50 0.1265
851.60 0.1265
851.70 0.1264
851.80 0.1264
851.90 0.1263
852.00 0.1262
852.10 0.1262
852.20 0.1261
852.30 0.1261
852.40 0.126
852.50 0.126
852.60 0.1259
852.70 0.1258
852.80 0.1258
852.90 0.1257
853.00 0.1257
853.10 0.1256
853.20 0.1256
853.30 0.1255
853.40 0.1254
853.50 0.1254
853.60 0.1253
853.70 0.1253
853.80 0.1252
853.90 0.1252
854.00 0.1251
854.10 0.125
854.20 0.125
854.30 0.1249
854.40 0.1249
854.50 0.1248
854.60 0.1248
854.70 0.1247
854.80 0.1246
854.90 0.1246
855.00 0.1245
855.10 0.1245
855.20 0.1244
855.30 0.1244
855.40 0.1243
855.50 0.1242
855.60 0.1242
855.70 0.1241
855.80 0.1241
855.90 0.124
856.00 0.124
856.10 0.1239
856.20 0.1238
856.30 0.1238
856.40 0.1237
856.50 0.1237
856.60 0.1236
856.70 0.1236
856.80 0.1235
856.90 0.1234
857.00 0.1234
857.10 0.1233
857.20 0.1233
857.30 0.1232
857.40 0.1232
857.50 0.1231
857.60 0.1231
857.70 0.123
857.80 0.1229
857.90 0.1229
858.00 0.1228
858.10 0.1228
858.20 0.1227
858.30 0.1227
858.40 0.1226
858.50 0.1226
858.60 0.1225
858.70 0.1224
858.80 0.1224
858.90 0.1223
859.00 0.1223
859.10 0.1222
859.20 0.1222
859.30 0.1221
859.40 0.1221
859.50 0.122
859.60 0.1219
859.70 0.1219
859.80 0.1218
859.90 0.1218
860.00 0.1217
860.10 0.1217
860.20 0.1216
860.30 0.1216
860.40 0.1215
860.50 0.1214
860.60 0.1214
860.70 0.1213
860.80 0.1213
860.90 0.1212
861.00 0.1212
861.10 0.1211
861.20 0.1211
861.30 0.121
861.40 0.121
861.50 0.1209
861.60 0.1208
861.70 0.1208
861.80 0.1207
861.90 0.1207
862.00 0.1206
862.10 0.1206
862.20 0.1205
862.30 0.1205
862.40 0.1204
862.50 0.1203
862.60 0.1203
862.70 0.1202
862.80 0.1202
862.90 0.1201
863.00 0.1201
863.10 0.12
863.20 0.12
863.30 0.1199
863.40 0.1199
863.50 0.1198
863.60 0.1198
863.70 0.1197
863.80 0.1196
863.90 0.1196
864.00 0.1195
864.10 0.1195
864.20 0.1194
864.30 0.1194
864.40 0.1193
864.50 0.1193
864.60 0.1192
864.70 0.1192
864.80 0.1191
864.90 0.1191
865.00 0.119
865.10 0.1189
865.20 0.1189
865.30 0.1188
865.40 0.1188
865.50 0.1187
865.60 0.1187
865.70 0.1186
865.80 0.1186
865.90 0.1185
866.00 0.1185
866.10 0.1184
866.20 0.1184
866.30 0.1183
866.40 0.1182
866.50 0.1182
866.60 0.1181
866.70 0.1181
866.80 0.118
866.90 0.118
867.00 0.1179
867.10 0.1179
867.20 0.1178
867.30 0.1178
867.40 0.1177
867.50 0.1177
867.60 0.1176
867.70 0.1176
867.80 0.1175
867.90 0.1175
868.00 0.1174
868.10 0.1173
868.20 0.1173
868.30 0.1172
868.40 0.1172
868.50 0.1171
868.60 0.1171
868.70 0.117
868.80 0.117
868.90 0.1169
869.00 0.1169
869.10 0.1168
869.20 0.1168
869.30 0.1167
869.40 0.1167
869.50 0.1166
869.60 0.1166
869.70 0.1165
869.80 0.1165
869.90 0.1164
870.00 0.1164
870.10 0.1163
870.20 0.1162
870.30 0.1162
870.40 0.1161
870.50 0.1161
870.60 0.116
870.70 0.116
870.80 0.1159
870.90 0.1159
871.00 0.1158
871.10 0.1158
871.20 0.1157
871.30 0.1157
871.40 0.1156
871.50 0.1156
871.60 0.1155
871.70 0.1155
871.80 0.1154
871.90 0.1154
872.00 0.1153
872.10 0.1153
872.20 0.1152
872.30 0.1152
872.40 0.1151
872.50 0.1151
872.60 0.115
872.70 0.115
872.80 0.1149
872.90 0.1149
873.00 0.1148
873.10 0.1147
873.20 0.1147
873.30 0.1146
873.40 0.1146
873.50 0.1145
873.60 0.1145
873.70 0.1144
873.80 0.1144
873.90 0.1143
874.00 0.1143
874.10 0.1142
874.20 0.1142
874.30 0.1141
874.40 0.1141
874.50 0.114
874.60 0.114
874.70 0.1139
874.80 0.1139
874.90 0.1138
875.00 0.1138
875.10 0.1137
875.20 0.1137
875.30 0.1136
875.40 0.1136
875.50 0.1135
875.60 0.1135
875.70 0.1134
875.80 0.1134
875.90 0.1133
876.00 0.1133
876.10 0.1132
876.20 0.1132
876.30 0.1131
876.40 0.1131
876.50 0.113
876.60 0.113
876.70 0.1129
876.80 0.1129
876.90 0.1128
877.00 0.1128
877.10 0.1127
877.20 0.1127
877.30 0.1126
877.40 0.1126
877.50 0.1125
877.60 0.1125
877.70 0.1124
877.80 0.1124
877.90 0.1123
878.00 0.1123
878.10 0.1122
878.20 0.1122
878.30 0.1121
878.40 0.1121
878.50 0.112
878.60 0.112
878.70 0.1119
878.80 0.1119
878.90 0.1118
879.00 0.1118
879.10 0.1117
879.20 0.1117
879.30 0.1116
879.40 0.1116
879.50 0.1115
879.60 0.1115
879.70 0.1114
879.80 0.1114
879.90 0.1113
880.00 0.1113
880.10 0.1112
880.20 0.1112
880.30 0.1111
880.40 0.1111
880.50 0.111
880.60 0.111
880.70 0.1109
880.80 0.1109
880.90 0.1108
881.00 0.1108
881.10 0.1107
881.20 0.1107
881.30 0.1106
881.40 0.1106
881.50 0.1105
881.60 0.1105
881.70 0.1104
881.80 0.1104
881.90 0.1103
882.00 0.1103
882.10 0.1102
882.20 0.1102
882.30 0.1102
882.40 0.1101
882.50 0.1101
882.60 0.11
882.70 0.11
882.80 0.1099
882.90 0.1099
883.00 0.1098
883.10 0.1098
883.20 0.1097
883.30 0.1097
883.40 0.1096
883.50 0.1096
883.60 0.1095
883.70 0.1095
883.80 0.1094
883.90 0.1094
884.00 0.1093
884.10 0.1093
884.20 0.1092
884.30 0.1092
884.40 0.1091
884.50 0.1091
884.60 0.109
884.70 0.109
884.80 0.1089
884.90 0.1089
885.00 0.1089
885.10 0.1088
885.20 0.1088
885.30 0.1087
885.40 0.1087
885.50 0.1086
885.60 0.1086
885.70 0.1085
885.80 0.1085
885.90 0.1084
886.00 0.1084
886.10 0.1083
886.20 0.1083
886.30 0.1082
886.40 0.1082
886.50 0.1081
886.60 0.1081
886.70 0.108
886.80 0.108
886.90 0.1079
887.00 0.1079
887.10 0.1079
887.20 0.1078
887.30 0.1078
887.40 0.1077
887.50 0.1077
887.60 0.1076
887.70 0.1076
887.80 0.1075
887.90 0.1075
888.00 0.1074
888.10 0.1074
888.20 0.1073
888.30 0.1073
888.40 0.1072
888.50 0.1072
888.60 0.1071
888.70 0.1071
888.80 0.107
888.90 0.107
889.00 0.107
889.10 0.1069
889.20 0.1069
889.30 0.1068
889.40 0.1068
889.50 0.1067
889.60 0.1067
889.70 0.1066
889.80 0.1066
889.90 0.1065
890.00 0.1065
890.10 0.1064
890.20 0.1064
890.30 0.1063
890.40 0.1063
890.50 0.1063
890.60 0.1062
890.70 0.1062
890.80 0.1061
890.90 0.1061
891.00 0.106
891.10 0.106
891.20 0.1059
891.30 0.1059
891.40 0.1058
891.50 0.1058
891.60 0.1057
891.70 0.1057
891.80 0.1056
891.90 0.1056
892.00 0.1056
892.10 0.1055
892.20 0.1055
892.30 0.1054
892.40 0.1054
892.50 0.1053
892.60 0.1053
892.70 0.1052
892.80 0.1052
892.90 0.1051
893.00 0.1051
893.10 0.105
893.20 0.105
893.30 0.105
893.40 0.1049
893.50 0.1049
893.60 0.1048
893.70 0.1048
893.80 0.1047
893.90 0.1047
894.00 0.1046
894.10 0.1046
894.20 0.1045
894.30 0.1045
894.40 0.1045
894.50 0.1044
894.60 0.1044
894.70 0.1043
894.80 0.1043
894.90 0.1042
895.00 0.1042
895.10 0.1041
895.20 0.1041
895.30 0.104
895.40 0.104
895.50 0.104
895.60 0.1039
895.70 0.1039
895.80 0.1038
895.90 0.1038
896.00 0.1037
896.10 0.1037
896.20 0.1036
896.30 0.1036
896.40 0.1035
896.50 0.1035
896.60 0.1035
896.70 0.1034
896.80 0.1034
896.90 0.1033
897.00 0.1033
897.10 0.1032
897.20 0.1032
897.30 0.1031
897.40 0.1031
897.50 0.1031
897.60 0.103
897.70 0.103
897.80 0.1029
897.90 0.1029
898.00 0.1028
898.10 0.1028
898.20 0.1027
898.30 0.1027
898.40 0.1027
898.50 0.1026
898.60 0.1026
898.70 0.1025
898.80 0.1025
898.90 0.1024
899.00 0.1024
899.10 0.1024
899.20 0.1023
899.30 0.1023
899.40 0.1022
899.50 0.1022
899.60 0.1021
899.70 0.1021
899.80 0.102
899.90 0.102
900.00 0.102
900.10 0.1019
900.20 0.1019
900.30 0.1018
900.40 0.1018
900.50 0.1017
900.60 0.1017
900.70 0.1017
900.80 0.1016
900.90 0.1016
901.00 0.1015
901.10 0.1015
901.20 0.1014
901.30 0.1014
901.40 0.1013
901.50 0.1013
901.60 0.1013
901.70 0.1012
901.80 0.1012
901.90 0.1011
902.00 0.1011
902.10 0.101
902.20 0.101
902.30 0.101
902.40 0.1009
902.50 0.1009
902.60 0.1008
902.70 0.1008
902.80 0.1007
902.90 0.1007
903.00 0.1006
903.10 0.1006
903.20 0.1006
903.30 0.1005
903.40 0.1005
903.50 0.1004
903.60 0.1004
903.70 0.1003
903.80 0.1003
903.90 0.1003
904.00 0.1002
904.10 0.1002
904.20 0.1001
904.30 0.1001
904.40 0.1
904.50 0.09999
904.60 0.09995
904.70 0.09991
904.80 0.09986
904.90 0.09982
905.00 0.09978
905.10 0.09973
905.20 0.09969
905.30 0.09965
905.40 0.0996
905.50 0.09956
905.60 0.09952
905.70 0.09947
905.80 0.09943
905.90 0.09939
906.00 0.09934
906.10 0.0993
906.20 0.09926
906.30 0.09921
906.40 0.09917
906.50 0.09913
906.60 0.09909
906.70 0.09904
906.80 0.099
906.90 0.09896
907.00 0.09891
907.10 0.09887
907.20 0.09883
907.30 0.09879
907.40 0.09874
907.50 0.0987
907.60 0.09866
907.70 0.09862
907.80 0.09857
907.90 0.09853
908.00 0.09849
908.10 0.09845
908.20 0.09841
908.30 0.09836
908.40 0.09832
908.50 0.09828
908.60 0.09824
908.70 0.09819
908.80 0.09815
908.90 0.09811
909.00 0.09807
909.10 0.09803
909.20 0.09798
909.30 0.09794
909.40 0.0979
909.50 0.09786
909.60 0.09782
909.70 0.09777
909.80 0.09773
909.90 0.09769
910.00 0.09765
910.10 0.09761
910.20 0.09756
910.30 0.09752
910.40 0.09748
910.50 0.09744
910.60 0.0974
910.70 0.09735
910.80 0.09731
910.90 0.09727
911.00 0.09723
911.10 0.09719
911.20 0.09715
911.30 0.0971
911.40 0.09706
911.50 0.09702
911.60 0.09698
911.70 0.09694
911.80 0.0969
911.90 0.09685
912.00 0.09681
912.10 0.09677
912.20 0.09673
912.30 0.09669
912.40 0.09665
912.50 0.09661
912.60 0.09656
912.70 0.09652
912.80 0.09648
912.90 0.09644
913.00 0.0964
913.10 0.09636
913.20 0.09632
913.30 0.09628
913.40 0.09623
913.50 0.09619
913.60 0.09615
913.70 0.09611
913.80 0.09607
913.90 0.09603
914.00 0.09599
914.10 0.09595
914.20 0.09591
914.30 0.09587
914.40 0.09582
914.50 0.09578
914.60 0.09574
914.70 0.0957
914.80 0.09566
914.90 0.09562
915.00 0.09558
915.10 0.09554
915.20 0.0955
915.30 0.09546
915.40 0.09542
915.50 0.09537
915.60 0.09533
915.70 0.09529
915.80 0.09525
915.90 0.09521
916.00 0.09517
916.10 0.09513
916.20 0.09509
916.30 0.09505
916.40 0.09501
916.50 0.09497
916.60 0.09493
916.70 0.09489
916.80 0.09485
916.90 0.0948
917.00 0.09476
917.10 0.09472
917.20 0.09468
917.30 0.09465
917.40 0.09461
917.50 0.09457
917.60 0.09453
917.70 0.09449
917.80 0.09445
917.90 0.09441
918.00 0.09437
918.10 0.09433
918.20 0.09429
918.30 0.09425
918.40 0.09421
918.50 0.09417
918.60 0.09413
918.70 0.09409
918.80 0.09405
918.90 0.09401
919.00 0.09397
919.10 0.09394
919.20 0.0939
919.30 0.09386
919.40 0.09382
919.50 0.09378
919.60 0.09374
919.70 0.0937
919.80 0.09366
919.90 0.09362
920.00 0.09358
920.10 0.09354
920.20 0.0935
920.30 0.09347
920.40 0.09343
920.50 0.09339
920.60 0.09335
920.70 0.09331
920.80 0.09327
920.90 0.09323
921.00 0.09319
921.10 0.09315
921.20 0.09311
921.30 0.09307
921.40 0.09304
921.50 0.093
921.60 0.09296
921.70 0.09292
921.80 0.09288
921.90 0.09284
922.00 0.0928
922.10 0.09276
922.20 0.09272
922.30 0.09268
922.40 0.09264
922.50 0.09261
922.60 0.09257
922.70 0.09253
922.80 0.09249
922.90 0.09245
923.00 0.09241
923.10 0.09237
923.20 0.09233
923.30 0.09229
923.40 0.09225
923.50 0.09221
923.60 0.09217
923.70 0.09213
923.80 0.09209
923.90 0.09206
924.00 0.09202
924.10 0.09198
924.20 0.09194
924.30 0.0919
924.40 0.09186
924.50 0.09182
924.60 0.09178
924.70 0.09174
924.80 0.0917
924.90 0.09166
925.00 0.09163
925.10 0.09159
925.20 0.09155
925.30 0.09151
925.40 0.09147
925.50 0.09143
925.60 0.09139
925.70 0.09135
925.80 0.09131
925.90 0.09128
926.00 0.09124
926.10 0.0912
926.20 0.09116
926.30 0.09112
926.40 0.09108
926.50 0.09104
926.60 0.091
926.70 0.09096
926.80 0.09093
926.90 0.09089
927.00 0.09085
927.10 0.09081
927.20 0.09077
927.30 0.09074
927.40 0.0907
927.50 0.09066
927.60 0.09062
927.70 0.09058
927.80 0.09055
927.90 0.09051
928.00 0.09047
928.10 0.09043
928.20 0.0904
928.30 0.09036
928.40 0.09032
928.50 0.09028
928.60 0.09025
928.70 0.09021
928.80 0.09017
928.90 0.09013
929.00 0.09009
929.10 0.09006
929.20 0.09002
929.30 0.08998
929.40 0.08994
929.50 0.08991
929.60 0.08987
929.70 0.08983
929.80 0.08979
929.90 0.08976
930.00 0.08972
930.10 0.08968
930.20 0.08964
930.30 0.08961
930.40 0.08957
930.50 0.08953
930.60 0.0895
930.70 0.08946
930.80 0.08942
930.90 0.08938
931.00 0.08935
931.10 0.08931
931.20 0.08927
931.30 0.08923
931.40 0.0892
931.50 0.08916
931.60 0.08912
931.70 0.08909
931.80 0.08905
931.90 0.08901
932.00 0.08897
932.10 0.08894
932.20 0.0889
932.30 0.08886
932.40 0.08883
932.50 0.08879
932.60 0.08875
932.70 0.08872
932.80 0.08868
932.90 0.08864
933.00 0.08861
933.10 0.08857
933.20 0.08853
933.30 0.08849
933.40 0.08846
933.50 0.08842
933.60 0.08838
933.70 0.08835
933.80 0.08831
933.90 0.08827
934.00 0.08824
934.10 0.0882
934.20 0.08816
934.30 0.08813
934.40 0.08809
934.50 0.08805
934.60 0.08802
934.70 0.08798
934.80 0.08794
934.90 0.08791
935.00 0.08787
935.10 0.08783
935.20 0.0878
935.30 0.08776
935.40 0.08772
935.50 0.08769
935.60 0.08765
935.70 0.08761
935.80 0.08758
935.90 0.08754
936.00 0.08751
936.10 0.08747
936.20 0.08743
936.30 0.0874
936.40 0.08736
936.50 0.08732
936.60 0.08729
936.70 0.08725
936.80 0.08721
936.90 0.08718
937.00 0.08714
937.10 0.0871
937.20 0.08707
937.30 0.08703
937.40 0.087
937.50 0.08696
937.60 0.08692
937.70 0.08689
937.80 0.08685
937.90 0.08681
938.00 0.08678
938.10 0.08674
938.20 0.08671
938.30 0.08667
938.40 0.08663
938.50 0.0866
938.60 0.08656
938.70 0.08652
938.80 0.08649
938.90 0.08645
939.00 0.08642
939.10 0.08638
939.20 0.08634
939.30 0.08631
939.40 0.08627
939.50 0.08624
939.60 0.0862
939.70 0.08616
939.80 0.08613
939.90 0.08609
940.00 0.08605
940.10 0.08602
940.20 0.08598
940.30 0.08595
940.40 0.08591
940.50 0.08587
940.60 0.08584
940.70 0.0858
940.80 0.08577
940.90 0.08573
941.00 0.0857
941.10 0.08566
941.20 0.08562
941.30 0.08559
941.40 0.08555
941.50 0.08552
941.60 0.08548
941.70 0.08544
941.80 0.08541
941.90 0.08537
942.00 0.08534
942.10 0.0853
942.20 0.08526
942.30 0.08523
942.40 0.08519
942.50 0.08516
942.60 0.08512
942.70 0.08509
942.80 0.08505
942.90 0.08501
943.00 0.08498
943.10 0.08494
943.20 0.08491
943.30 0.08487
943.40 0.08484
943.50 0.0848
943.60 0.08476
943.70 0.08473
943.80 0.08469
943.90 0.08466
944.00 0.08462
944.10 0.08459
944.20 0.08455
944.30 0.08451
944.40 0.08448
944.50 0.08444
944.60 0.08441
944.70 0.08437
944.80 0.08434
944.90 0.0843
945.00 0.08427
945.10 0.08423
945.20 0.08419
945.30 0.08416
945.40 0.08412
945.50 0.08409
945.60 0.08405
945.70 0.08402
945.80 0.08398
945.90 0.08395
946.00 0.08391
946.10 0.08388
946.20 0.08384
946.30 0.0838
946.40 0.08377
946.50 0.08373
946.60 0.0837
946.70 0.08366
946.80 0.08363
946.90 0.08359
947.00 0.08356
947.10 0.08352
947.20 0.08349
947.30 0.08345
947.40 0.08342
947.50 0.08338
947.60 0.08335
947.70 0.08331
947.80 0.08328
947.90 0.08324
948.00 0.08321
948.10 0.08317
948.20 0.08314
948.30 0.0831
948.40 0.08307
948.50 0.08303
948.60 0.083
948.70 0.08296
948.80 0.08293
948.90 0.08289
949.00 0.08286
949.10 0.08282
949.20 0.08279
949.30 0.08275
949.40 0.08272
949.50 0.08268
949.60 0.08265
949.70 0.08261
949.80 0.08258
949.90 0.08255
950.00 0.08251
950.10 0.08248
950.20 0.08244
950.30 0.08241
950.40 0.08237
950.50 0.08234
950.60 0.0823
950.70 0.08227
950.80 0.08224
950.90 0.0822
951.00 0.08217
951.10 0.08213
951.20 0.0821
951.30 0.08207
951.40 0.08203
951.50 0.082
951.60 0.08196
951.70 0.08193
951.80 0.0819
951.90 0.08186
952.00 0.08183
952.10 0.0818
952.20 0.08177
952.30 0.08173
952.40 0.0817
952.50 0.08167
952.60 0.08164
952.70 0.0816
952.80 0.08157
952.90 0.08154
953.00 0.08151
953.10 0.08148
953.20 0.08145
953.30 0.08141
953.40 0.08138
953.50 0.08135
953.60 0.08132
953.70 0.08129
953.80 0.08126
953.90 0.08123
954.00 0.0812
954.10 0.08117
954.20 0.08114
954.30 0.08111
954.40 0.08109
954.50 0.08106
954.60 0.08103
954.70 0.08099
954.80 0.08095
954.90 0.08092
955.00 0.08088
955.10 0.08084
955.20 0.0808
955.30 0.08077
955.40 0.08073
955.50 0.0807
955.60 0.08066
955.70 0.08063
955.80 0.08059
955.90 0.08056
956.00 0.08052
956.10 0.08049
956.20 0.08045
956.30 0.08042
956.40 0.08039
956.50 0.08035
956.60 0.08032
956.70 0.08028
956.80 0.08025
956.90 0.08022
957.00 0.08018
957.10 0.08015
957.20 0.08012
957.30 0.08008
957.40 0.08005
957.50 0.08002
957.60 0.07999
957.70 0.07995
957.80 0.07992
957.90 0.07989
958.00 0.07986
958.10 0.07983
958.20 0.07979
958.30 0.07976
958.40 0.07973
958.50 0.0797
958.60 0.07967
958.70 0.07963
958.80 0.0796
958.90 0.07957
959.00 0.07954
959.10 0.07951
959.20 0.07947
959.30 0.07944
959.40 0.07941
959.50 0.07938
959.60 0.07935
959.70 0.07932
959.80 0.07929
959.90 0.07925
960.00 0.07922
960.10 0.07919
960.20 0.07916
960.30 0.07913
960.40 0.0791
960.50 0.07907
960.60 0.07904
960.70 0.079
960.80 0.07897
960.90 0.07894
961.00 0.07891
961.10 0.07888
961.20 0.07885
961.30 0.07882
961.40 0.07879
961.50 0.07876
961.60 0.07872
961.70 0.07869
961.80 0.07866
961.90 0.07863
962.00 0.0786
962.10 0.07857
962.20 0.07854
962.30 0.07851
962.40 0.07848
962.50 0.07845
962.60 0.07842
962.70 0.07838
962.80 0.07835
962.90 0.07832
963.00 0.07829
963.10 0.07826
963.20 0.07823
963.30 0.0782
963.40 0.07817
963.50 0.07814
963.60 0.07811
963.70 0.07808
963.80 0.07805
963.90 0.07801
964.00 0.07798
964.10 0.07795
964.20 0.07792
964.30 0.07789
964.40 0.07786
964.50 0.07783
964.60 0.0778
964.70 0.07777
964.80 0.07774
964.90 0.07771
965.00 0.07768
965.10 0.07765
965.20 0.07762
965.30 0.07759
965.40 0.07756
965.50 0.07752
965.60 0.07749
965.70 0.07746
965.80 0.07743
965.90 0.0774
966.00 0.07737
966.10 0.07734
966.20 0.07731
966.30 0.07728
966.40 0.07725
966.50 0.07722
966.60 0.07719
966.70 0.07716
966.80 0.07713
966.90 0.0771
967.00 0.07707
967.10 0.07704
967.20 0.07701
967.30 0.07698
967.40 0.07695
967.50 0.07691
967.60 0.07688
967.70 0.07685
967.80 0.07682
967.90 0.07679
968.00 0.07676
968.10 0.07673
968.20 0.0767
968.30 0.07667
968.40 0.07664
968.50 0.07661
968.60 0.07658
968.70 0.07655
968.80 0.07652
968.90 0.07649
969.00 0.07646
969.10 0.07643
969.20 0.0764
969.30 0.07637
969.40 0.07634
969.50 0.07631
969.60 0.07628
969.70 0.07625
969.80 0.07622
969.90 0.07619
970.00 0.07616
970.10 0.07613
970.20 0.0761
970.30 0.07607
970.40 0.07604
970.50 0.07601
970.60 0.07598
970.70 0.07595
970.80 0.07592
970.90 0.07589
971.00 0.07586
971.10 0.07583
971.20 0.0758
971.30 0.07577
971.40 0.07573
971.50 0.0757
971.60 0.07567
971.70 0.07564
971.80 0.07561
971.90 0.07558
972.00 0.07555
972.10 0.07552
972.20 0.07549
972.30 0.07546
972.40 0.07543
972.50 0.0754
972.60 0.07537
972.70 0.07534
972.80 0.07531
972.90 0.07528
973.00 0.07525
973.10 0.07522
973.20 0.07519
973.30 0.07516
973.40 0.07514
973.50 0.07511
973.60 0.07508
973.70 0.07505
973.80 0.07502
973.90 0.07499
974.00 0.07496
974.10 0.07493
974.20 0.0749
974.30 0.07487
974.40 0.07484
974.50 0.07481
974.60 0.07478
974.70 0.07475
974.80 0.07472
974.90 0.07469
975.00 0.07466
975.10 0.07463
975.20 0.0746
975.30 0.07457
975.40 0.07454
975.50 0.07451
975.60 0.07448
975.70 0.07445
975.80 0.07442
975.90 0.07439
976.00 0.07436
976.10 0.07433
976.20 0.0743
976.30 0.07427
976.40 0.07424
976.50 0.07421
976.60 0.07418
976.70 0.07415
976.80 0.07412
976.90 0.07409
977.00 0.07406
977.10 0.07404
977.20 0.07401
977.30 0.07398
977.40 0.07395
977.50 0.07392
977.60 0.07389
977.70 0.07386
977.80 0.07383
977.90 0.0738
978.00 0.07377
978.10 0.07374
978.20 0.07371
978.30 0.07368
978.40 0.07365
978.50 0.07362
978.60 0.07359
978.70 0.07356
978.80 0.07353
978.90 0.07351
979.00 0.07348
979.10 0.07345
979.20 0.07342
979.30 0.07339
979.40 0.07336
979.50 0.07333
979.60 0.0733
979.70 0.07327
979.80 0.07324
979.90 0.07321
980.00 0.07318
980.10 0.07315
980.20 0.07312
980.30 0.0731
980.40 0.07307
980.50 0.07304
980.60 0.07301
980.70 0.07298
980.80 0.07295
980.90 0.07292
981.00 0.07289
981.10 0.07286
981.20 0.07283
981.30 0.0728
981.40 0.07277
981.50 0.07275
981.60 0.07272
981.70 0.07269
981.80 0.07266
981.90 0.07263
982.00 0.0726
982.10 0.07257
982.20 0.07254
982.30 0.07251
982.40 0.07248
982.50 0.07246
982.60 0.07243
982.70 0.0724
982.80 0.07237
982.90 0.07234
983.00 0.07231
983.10 0.07228
983.20 0.07225
983.30 0.07222
983.40 0.07219
983.50 0.07217
983.60 0.07214
983.70 0.07211
983.80 0.07208
983.90 0.07205
984.00 0.07202
984.10 0.07199
984.20 0.07196
984.30 0.07193
984.40 0.07191
984.50 0.07188
984.60 0.07185
984.70 0.07182
984.80 0.07179
984.90 0.07176
985.00 0.07173
985.10 0.0717
985.20 0.07167
985.30 0.07165
985.40 0.07162
985.50 0.07159
985.60 0.07156
985.70 0.07153
985.80 0.0715
985.90 0.07147
986.00 0.07144
986.10 0.07142
986.20 0.07139
986.30 0.07136
986.40 0.07133
986.50 0.0713
986.60 0.07127
986.70 0.07124
986.80 0.07122
986.90 0.07119
987.00 0.07116
987.10 0.07113
987.20 0.0711
987.30 0.07107
987.40 0.07104
987.50 0.07101
987.60 0.07099
987.70 0.07096
987.80 0.07093
987.90 0.0709
988.00 0.07087
988.10 0.07084
988.20 0.07081
988.30 0.07079
988.40 0.07076
988.50 0.07073
988.60 0.0707
988.70 0.07067
988.80 0.07064
988.90 0.07061
989.00 0.07059
989.10 0.07056
989.20 0.07053
989.30 0.0705
989.40 0.07047
989.50 0.07044
989.60 0.07041
989.70 0.07039
989.80 0.07036
989.90 0.07033
990.00 0.0703
990.10 0.07027
990.20 0.07024
990.30 0.07021
990.40 0.07019
990.50 0.07016
990.60 0.07013
990.70 0.0701
990.80 0.07007
990.90 0.07004
991.00 0.07002
991.10 0.06999
991.20 0.06996
991.30 0.06993
991.40 0.0699
991.50 0.06987
991.60 0.06984
991.70 0.06982
991.80 0.06979
991.90 0.06976
992.00 0.06973
992.10 0.0697
992.20 0.06967
992.30 0.06964
992.40 0.06962
992.50 0.06959
992.60 0.06956
992.70 0.06953
992.80 0.0695
992.90 0.06947
993.00 0.06944
993.10 0.06942
993.20 0.06939
993.30 0.06936
993.40 0.06933
993.50 0.0693
993.60 0.06927
993.70 0.06924
993.80 0.06922
993.90 0.06919
994.00 0.06916
994.10 0.06913
994.20 0.0691
994.30 0.06907
994.40 0.06904
994.50 0.06902
994.60 0.06899
994.70 0.06896
994.80 0.06893
994.90 0.0689
995.00 0.06887
995.10 0.06884
995.20 0.06882
995.30 0.06879
995.40 0.06876
995.50 0.06873
995.60 0.0687
995.70 0.06867
995.80 0.06864
995.90 0.06862
996.00 0.06859
996.10 0.06856
996.20 0.06853
996.30 0.0685
996.40 0.06847
996.50 0.06844
996.60 0.06841
996.70 0.06839
996.80 0.06836
996.90 0.06833
997.00 0.0683
997.10 0.06827
997.20 0.06824
997.30 0.06821
997.40 0.06818
997.50 0.06816
997.60 0.06813
997.70 0.0681
997.80 0.06807
997.90 0.06804
998.00 0.06801
998.10 0.06798
998.20 0.06795
998.30 0.06793
998.40 0.0679
998.50 0.06787
998.60 0.06784
998.70 0.06781
998.80 0.06778
998.90 0.06775
999.00 0.06772
999.10 0.0677
999.20 0.06767
999.30 0.06764
999.40 0.06761
999.50 0.06758
999.60 0.06755
999.70 0.06752
999.80 0.06749
999.90 0.06747
1000.00 0.06744
1000.10 0.06741
1000.20 0.06738
1000.30 0.06735
1000.40 0.06732
1000.50 0.06729
1000.60 0.06726
1000.70 0.06723
1000.80 0.06721
1000.90 0.06718
1001.00 0.06715
1001.10 0.06712
1001.20 0.06709
1001.30 0.06706
1001.40 0.06703
1001.50 0.067
1001.60 0.06697
1001.70 0.06695
1001.80 0.06692
1001.90 0.06689
1002.00 0.06687
1002.10 0.06684
1002.20 0.06682
1002.30 0.06679
1002.40 0.06677
1002.50 0.06674
1002.60 0.06671
1002.70 0.06669
1002.80 0.06666
1002.90 0.06664
1003.00 0.06661
1003.10 0.06659
1003.20 0.06657
1003.30 0.06655
1003.40 0.06652
1003.50 0.0665
1003.60 0.06648
1003.70 0.06646
1003.80 0.06644
1003.90 0.06642
1004.00 0.06641
1004.10 0.06639
1004.20 0.06638
1004.30 0.06636
1004.40 0.06635
1004.50 0.06634
1004.60 0.06632
1004.70 0.06631
1004.80 0.06628
1004.90 0.06626
1005.00 0.06623
1005.10 0.0662
1005.20 0.06617
1005.30 0.06613
1005.40 0.0661
1005.50 0.06606
1005.60 0.06603
1005.70 0.06599
1005.80 0.06596
1005.90 0.06592
1006.00 0.06588
1006.10 0.06585
1006.20 0.06582
1006.30 0.06579
1006.40 0.06576
1006.50 0.06573
1006.60 0.0657
1006.70 0.06567
1006.80 0.06564
1006.90 0.06561
1007.00 0.06559
1007.10 0.06556
1007.20 0.06553
1007.30 0.06551
1007.40 0.06548
1007.50 0.06546
1007.60 0.06543
1007.70 0.06541
1007.80 0.06538
1007.90 0.06536
1008.00 0.06533
1008.10 0.06531
1008.20 0.06529
1008.30 0.06526
1008.40 0.06524
1008.50 0.06522
1008.60 0.06519
1008.70 0.06517
1008.80 0.06514
1008.90 0.06512
1009.00 0.0651
1009.10 0.06507
1009.20 0.06505
1009.30 0.06503
1009.40 0.065
1009.50 0.06498
1009.60 0.06496
1009.70 0.06493
1009.80 0.06491
1009.90 0.06489
1010.00 0.06486
1010.10 0.06484
1010.20 0.06482
1010.30 0.06479
1010.40 0.06477
1010.50 0.06475
1010.60 0.06473
1010.70 0.0647
1010.80 0.06468
1010.90 0.06466
1011.00 0.06463
1011.10 0.06461
1011.20 0.06459
1011.30 0.06457
1011.40 0.06454
1011.50 0.06452
1011.60 0.0645
1011.70 0.06447
1011.80 0.06445
1011.90 0.06443
1012.00 0.06441
1012.10 0.06438
1012.20 0.06436
1012.30 0.06434
1012.40 0.06431
1012.50 0.06429
1012.60 0.06427
1012.70 0.06425
1012.80 0.06422
1012.90 0.0642
1013.00 0.06418
1013.10 0.06415
1013.20 0.06413
1013.30 0.06411
1013.40 0.06408
1013.50 0.06406
1013.60 0.06404
1013.70 0.06402
1013.80 0.06399
1013.90 0.06397
1014.00 0.06395
1014.10 0.06392
1014.20 0.0639
1014.30 0.06388
1014.40 0.06385
1014.50 0.06383
1014.60 0.06381
1014.70 0.06379
1014.80 0.06376
1014.90 0.06374
1015.00 0.06372
1015.10 0.06369
1015.20 0.06367
1015.30 0.06365
1015.40 0.06362
1015.50 0.0636
1015.60 0.06358
1015.70 0.06355
1015.80 0.06353
1015.90 0.06351
1016.00 0.06348
1016.10 0.06346
1016.20 0.06344
1016.30 0.06341
1016.40 0.06339
1016.50 0.06337
1016.60 0.06334
1016.70 0.06332
1016.80 0.0633
1016.90 0.06327
1017.00 0.06325
1017.10 0.06323
1017.20 0.0632
1017.30 0.06318
1017.40 0.06316
1017.50 0.06313
1017.60 0.06311
1017.70 0.06309
1017.80 0.06307
1017.90 0.06304
1018.00 0.06302
1018.10 0.063
1018.20 0.06297
1018.30 0.06295
1018.40 0.06293
1018.50 0.0629
1018.60 0.06288
1018.70 0.06286
1018.80 0.06283
1018.90 0.06281
1019.00 0.06279
1019.10 0.06276
1019.20 0.06274
1019.30 0.06272
1019.40 0.06269
1019.50 0.06267
1019.60 0.06265
1019.70 0.06262
1019.80 0.0626
1019.90 0.06258
1020.00 0.06255
1020.10 0.06253
1020.20 0.06251
1020.30 0.06248
1020.40 0.06246
1020.50 0.06244
1020.60 0.06241
1020.70 0.06239
1020.80 0.06237
1020.90 0.06234
1021.00 0.06232
1021.10 0.0623
1021.20 0.06227
1021.30 0.06225
1021.40 0.06223
1021.50 0.0622
1021.60 0.06218
1021.70 0.06216
1021.80 0.06213
1021.90 0.06211
1022.00 0.06209
1022.10 0.06206
1022.20 0.06204
1022.30 0.06202
1022.40 0.06199
1022.50 0.06197
1022.60 0.06195
1022.70 0.06192
1022.80 0.0619
1022.90 0.06188
1023.00 0.06185
1023.10 0.06183
1023.20 0.06181
1023.30 0.06179
1023.40 0.06176
1023.50 0.06174
1023.60 0.06172
1023.70 0.06169
1023.80 0.06167
1023.90 0.06165
1024.00 0.06162
1024.10 0.0616
1024.20 0.06158
1024.30 0.06155
1024.40 0.06153
1024.50 0.06151
1024.60 0.06148
1024.70 0.06146
1024.80 0.06144
1024.90 0.06142
1025.00 0.06139
1025.10 0.06137
1025.20 0.06135
1025.30 0.06132
1025.40 0.0613
1025.50 0.06128
1025.60 0.06125
1025.70 0.06123
1025.80 0.06121
1025.90 0.06118
1026.00 0.06116
1026.10 0.06114
1026.20 0.06112
1026.30 0.06109
1026.40 0.06107
1026.50 0.06105
1026.60 0.06102
1026.70 0.061
1026.80 0.06098
1026.90 0.06095
1027.00 0.06093
1027.10 0.06091
1027.20 0.06089
1027.30 0.06086
1027.40 0.06084
1027.50 0.06082
1027.60 0.06079
1027.70 0.06077
1027.80 0.06075
1027.90 0.06073
1028.00 0.0607
1028.10 0.06068
1028.20 0.06066
1028.30 0.06063
1028.40 0.06061
1028.50 0.06059
1028.60 0.06057
1028.70 0.06054
1028.80 0.06052
1028.90 0.0605
1029.00 0.06048
1029.10 0.06045
1029.20 0.06043
1029.30 0.06041
1029.40 0.06038
1029.50 0.06036
1029.60 0.06034
1029.70 0.06032
1029.80 0.06029
1029.90 0.06027
1030.00 0.06025
1030.10 0.06023
1030.20 0.0602
1030.30 0.06018
1030.40 0.06016
1030.50 0.06013
1030.60 0.06011
1030.70 0.06009
1030.80 0.06007
1030.90 0.06004
1031.00 0.06002
1031.10 0.06
1031.20 0.05998
1031.30 0.05995
1031.40 0.05993
1031.50 0.05991
1031.60 0.05989
1031.70 0.05986
1031.80 0.05984
1031.90 0.05982
1032.00 0.0598
1032.10 0.05977
1032.20 0.05975
1032.30 0.05973
1032.40 0.05971
1032.50 0.05968
1032.60 0.05966
1032.70 0.05964
1032.80 0.05962
1032.90 0.05959
1033.00 0.05957
1033.10 0.05955
1033.20 0.05953
1033.30 0.0595
1033.40 0.05948
1033.50 0.05946
1033.60 0.05944
1033.70 0.05941
1033.80 0.05939
1033.90 0.05937
1034.00 0.05935
1034.10 0.05933
1034.20 0.0593
1034.30 0.05928
1034.40 0.05926
1034.50 0.05924
1034.60 0.05921
1034.70 0.05919
1034.80 0.05917
1034.90 0.05915
1035.00 0.05912
1035.10 0.0591
1035.20 0.05908
1035.30 0.05906
1035.40 0.05904
1035.50 0.05901
1035.60 0.05899
1035.70 0.05897
1035.80 0.05895
1035.90 0.05892
1036.00 0.0589
1036.10 0.05888
1036.20 0.05886
1036.30 0.05884
1036.40 0.05881
1036.50 0.05879
1036.60 0.05877
1036.70 0.05875
1036.80 0.05873
1036.90 0.0587
1037.00 0.05868
1037.10 0.05866
1037.20 0.05864
1037.30 0.05861
1037.40 0.05859
1037.50 0.05857
1037.60 0.05855
1037.70 0.05853
1037.80 0.05851
1037.90 0.05848
1038.00 0.05846
1038.10 0.05844
1038.20 0.05842
1038.30 0.0584
1038.40 0.05837
1038.50 0.05835
1038.60 0.05833
1038.70 0.05831
1038.80 0.05829
1038.90 0.05826
1039.00 0.05824
1039.10 0.05822
1039.20 0.0582
1039.30 0.05818
1039.40 0.05816
1039.50 0.05813
1039.60 0.05811
1039.70 0.05809
1039.80 0.05807
1039.90 0.05805
1040.00 0.05802
1040.10 0.058
1040.20 0.05798
1040.30 0.05796
1040.40 0.05794
1040.50 0.05792
1040.60 0.05789
1040.70 0.05787
1040.80 0.05785
1040.90 0.05783
1041.00 0.05781
1041.10 0.05779
1041.20 0.05776
1041.30 0.05774
1041.40 0.05772
1041.50 0.0577
1041.60 0.05768
1041.70 0.05766
1041.80 0.05763
1041.90 0.05761
1042.00 0.05759
1042.10 0.05757
1042.20 0.05755
1042.30 0.05753
1042.40 0.0575
1042.50 0.05748
1042.60 0.05746
1042.70 0.05744
1042.80 0.05742
1042.90 0.0574
1043.00 0.05738
1043.10 0.05735
1043.20 0.05733
1043.30 0.05731
1043.40 0.05729
1043.50 0.05727
1043.60 0.05725
1043.70 0.05723
1043.80 0.0572
1043.90 0.05718
1044.00 0.05716
1044.10 0.05714
1044.20 0.05712
1044.30 0.0571
1044.40 0.05708
1044.50 0.05705
1044.60 0.05703
1044.70 0.05701
1044.80 0.05699
1044.90 0.05697
1045.00 0.05695
1045.10 0.05693
1045.20 0.05691
1045.30 0.05688
1045.40 0.05686
1045.50 0.05684
1045.60 0.05682
1045.70 0.0568
1045.80 0.05678
1045.90 0.05676
1046.00 0.05674
1046.10 0.05671
1046.20 0.05669
1046.30 0.05667
1046.40 0.05665
1046.50 0.05663
1046.60 0.05661
1046.70 0.05659
1046.80 0.05657
1046.90 0.05654
1047.00 0.05652
1047.10 0.0565
1047.20 0.05648
1047.30 0.05646
1047.40 0.05644
1047.50 0.05642
1047.60 0.0564
1047.70 0.05638
1047.80 0.05636
1047.90 0.05633
1048.00 0.05631
1048.10 0.05629
1048.20 0.05627
1048.30 0.05625
1048.40 0.05623
1048.50 0.05621
1048.60 0.05619
1048.70 0.05617
1048.80 0.05615
1048.90 0.05613
1049.00 0.0561
1049.10 0.05608
1049.20 0.05606
1049.30 0.05604
1049.40 0.05602
1049.50 0.056
1049.60 0.05598
1049.70 0.05596
1049.80 0.05594
1049.90 0.05592
1050.00 0.0559
1050.10 0.05588
1050.20 0.05585
1050.30 0.05583
1050.40 0.05581
1050.50 0.05579
1050.60 0.05577
1050.70 0.05575
1050.80 0.05573
1050.90 0.05571
1051.00 0.05569
1051.10 0.05567
1051.20 0.05565
1051.30 0.05563
1051.40 0.0556
1051.50 0.05558
1051.60 0.05556
1051.70 0.05554
1051.80 0.05552
1051.90 0.0555
1052.00 0.05548
1052.10 0.05546
1052.20 0.05544
1052.30 0.05542
1052.40 0.0554
1052.50 0.05538
1052.60 0.05536
1052.70 0.05534
1052.80 0.05532
1052.90 0.0553
1053.00 0.05528
1053.10 0.05525
1053.20 0.05523
1053.30 0.05521
1053.40 0.05519
1053.50 0.05517
1053.60 0.05515
1053.70 0.05513
1053.80 0.05511
1053.90 0.05509
1054.00 0.05507
1054.10 0.05505
1054.20 0.05503
1054.30 0.05501
1054.40 0.05499
1054.50 0.05497
1054.60 0.05495
1054.70 0.05493
1054.80 0.05491
1054.90 0.05489
1055.00 0.05487
1055.10 0.05485
1055.20 0.05483
1055.30 0.05481
1055.40 0.05479
1055.50 0.05476
1055.60 0.05474
1055.70 0.05472
1055.80 0.0547
1055.90 0.05468
1056.00 0.05466
1056.10 0.05464
1056.20 0.05462
1056.30 0.0546
1056.40 0.05458
1056.50 0.05456
1056.60 0.05454
1056.70 0.05452
1056.80 0.0545
1056.90 0.05448
1057.00 0.05446
1057.10 0.05444
1057.20 0.05442
1057.30 0.0544
1057.40 0.05438
1057.50 0.05436
1057.60 0.05434
1057.70 0.05432
1057.80 0.0543
1057.90 0.05428
1058.00 0.05426
1058.10 0.05424
1058.20 0.05422
1058.30 0.0542
1058.40 0.05418
1058.50 0.05416
1058.60 0.05414
1058.70 0.05412
1058.80 0.0541
1058.90 0.05408
1059.00 0.05406
1059.10 0.05404
1059.20 0.05402
1059.30 0.054
1059.40 0.05398
1059.50 0.05396
1059.60 0.05394
1059.70 0.05392
1059.80 0.0539
1059.90 0.05388
1060.00 0.05386
1060.10 0.05384
1060.20 0.05382
1060.30 0.0538
1060.40 0.05378
1060.50 0.05376
1060.60 0.05374
1060.70 0.05372
1060.80 0.0537
1060.90 0.05368
1061.00 0.05366
1061.10 0.05364
1061.20 0.05362
1061.30 0.0536
1061.40 0.05358
1061.50 0.05356
1061.60 0.05354
1061.70 0.05352
1061.80 0.0535
1061.90 0.05348
1062.00 0.05346
1062.10 0.05344
1062.20 0.05342
1062.30 0.0534
1062.40 0.05338
1062.50 0.05336
1062.60 0.05334
1062.70 0.05332
1062.80 0.05331
1062.90 0.05329
1063.00 0.05327
1063.10 0.05325
1063.20 0.05323
1063.30 0.05321
1063.40 0.05319
1063.50 0.05317
1063.60 0.05315
1063.70 0.05313
1063.80 0.05311
1063.90 0.05309
1064.00 0.05307
1064.10 0.05305
1064.20 0.05303
1064.30 0.05301
1064.40 0.05299
1064.50 0.05297
1064.60 0.05295
1064.70 0.05293
1064.80 0.05291
1064.90 0.05289
1065.00 0.05287
1065.10 0.05285
1065.20 0.05284
1065.30 0.05282
1065.40 0.0528
1065.50 0.05278
1065.60 0.05276
1065.70 0.05274
1065.80 0.05272
1065.90 0.0527
1066.00 0.05268
1066.10 0.05266
1066.20 0.05264
1066.30 0.05262
1066.40 0.0526
1066.50 0.05258
1066.60 0.05256
1066.70 0.05254
1066.80 0.05252
1066.90 0.0525
1067.00 0.05248
1067.10 0.05247
1067.20 0.05245
1067.30 0.05243
1067.40 0.05241
1067.50 0.05239
1067.60 0.05237
1067.70 0.05235
1067.80 0.05233
1067.90 0.05231
1068.00 0.05229
1068.10 0.05227
1068.20 0.05225
1068.30 0.05223
1068.40 0.05221
1068.50 0.0522
1068.60 0.05218
1068.70 0.05216
1068.80 0.05214
1068.90 0.05212
1069.00 0.0521
1069.10 0.05208
1069.20 0.05206
1069.30 0.05204
1069.40 0.05202
1069.50 0.052
1069.60 0.05198
1069.70 0.05196
1069.80 0.05195
1069.90 0.05193
1070.00 0.05191
1070.10 0.05189
1070.20 0.05187
1070.30 0.05185
1070.40 0.05183
1070.50 0.05181
1070.60 0.05179
1070.70 0.05177
1070.80 0.05175
1070.90 0.05173
1071.00 0.05172
1071.10 0.0517
1071.20 0.05168
1071.30 0.05166
1071.40 0.05164
1071.50 0.05162
1071.60 0.0516
1071.70 0.05158
1071.80 0.05156
1071.90 0.05154
1072.00 0.05153
1072.10 0.05151
1072.20 0.05149
1072.30 0.05147
1072.40 0.05145
1072.50 0.05143
1072.60 0.05141
1072.70 0.05139
1072.80 0.05137
1072.90 0.05135
1073.00 0.05133
1073.10 0.05132
1073.20 0.0513
1073.30 0.05128
1073.40 0.05126
1073.50 0.05124
1073.60 0.05122
1073.70 0.0512
1073.80 0.05118
1073.90 0.05116
1074.00 0.05114
1074.10 0.05113
1074.20 0.05111
1074.30 0.05109
1074.40 0.05107
1074.50 0.05105
1074.60 0.05103
1074.70 0.05101
1074.80 0.05099
1074.90 0.05097
1075.00 0.05096
1075.10 0.05094
1075.20 0.05092
1075.30 0.0509
1075.40 0.05088
1075.50 0.05086
1075.60 0.05084
1075.70 0.05082
1075.80 0.0508
1075.90 0.05078
1076.00 0.05077
1076.10 0.05075
1076.20 0.05073
1076.30 0.05071
1076.40 0.05069
1076.50 0.05067
1076.60 0.05065
1076.70 0.05063
1076.80 0.05061
1076.90 0.0506
1077.00 0.05058
1077.10 0.05056
1077.20 0.05054
1077.30 0.05052
1077.40 0.0505
1077.50 0.05048
1077.60 0.05046
1077.70 0.05044
1077.80 0.05043
1077.90 0.05041
1078.00 0.05039
1078.10 0.05037
1078.20 0.05035
1078.30 0.05033
1078.40 0.05031
1078.50 0.05029
1078.60 0.05027
1078.70 0.05026
1078.80 0.05024
1078.90 0.05022
1079.00 0.0502
1079.10 0.05018
1079.20 0.05016
1079.30 0.05014
1079.40 0.05012
1079.50 0.0501
1079.60 0.05009
1079.70 0.05007
1079.80 0.05005
1079.90 0.05003
1080.00 0.05001
1080.10 0.04999
1080.20 0.04997
1080.30 0.04995
1080.40 0.04993
1080.50 0.04991
1080.60 0.04989
1080.70 0.04988
1080.80 0.04986
1080.90 0.04984
1081.00 0.04982
1081.10 0.0498
1081.20 0.04978
1081.30 0.04976
1081.40 0.04974
1081.50 0.04972
1081.60 0.0497
1081.70 0.04969
1081.80 0.04967
1081.90 0.04965
1082.00 0.04963
1082.10 0.04961
1082.20 0.04959
1082.30 0.04957
1082.40 0.04955
1082.50 0.04953
1082.60 0.04951
1082.70 0.04949
1082.80 0.04947
1082.90 0.04945
1083.00 0.04943
1083.10 0.04942
1083.20 0.0494
1083.30 0.04938
1083.40 0.04936
1083.50 0.04934
1083.60 0.04932
1083.70 0.0493
1083.80 0.04928
1083.90 0.04926
1084.00 0.04924
1084.10 0.04922
1084.20 0.0492
1084.30 0.04918
1084.40 0.04916
1084.50 0.04914
1084.60 0.04912
1084.70 0.0491
1084.80 0.04908
1084.90 0.04906
1085.00 0.04904
1085.10 0.04902
1085.20 0.049
1085.30 0.04898
1085.40 0.04896
1085.50 0.04894
1085.60 0.04892
1085.70 0.0489
1085.80 0.04888
1085.90 0.04886
1086.00 0.04884
1086.10 0.04882
1086.20 0.0488
1086.30 0.04879
1086.40 0.04877
1086.50 0.04875
1086.60 0.04873
1086.70 0.04871
1086.80 0.04868
1086.90 0.04866
1087.00 0.04864
1087.10 0.04862
1087.20 0.0486
1087.30 0.04858
1087.40 0.04856
1087.50 0.04854
1087.60 0.04852
1087.70 0.0485
1087.80 0.04848
1087.90 0.04846
1088.00 0.04844
1088.10 0.04842
1088.20 0.0484
1088.30 0.04838
1088.40 0.04836
1088.50 0.04834
1088.60 0.04832
1088.70 0.0483
1088.80 0.04828
1088.90 0.04826
1089.00 0.04824
1089.10 0.04822
1089.20 0.0482
1089.30 0.04818
1089.40 0.04816
1089.50 0.04814
1089.60 0.04812
1089.70 0.0481
1089.80 0.04808
1089.90 0.04806
1090.00 0.04804
1090.10 0.04802
1090.20 0.048
1090.30 0.04798
1090.40 0.04796
1090.50 0.04794
1090.60 0.04792
1090.70 0.04791
1090.80 0.04789
1090.90 0.04787
1091.00 0.04786
1091.10 0.04784
1091.20 0.04782
1091.30 0.04781
1091.40 0.04779
1091.50 0.04777
1091.60 0.04776
1091.70 0.04774
1091.80 0.04772
1091.90 0.04771
1092.00 0.04769
1092.10 0.04768
1092.20 0.04767
1092.30 0.04766
1092.40 0.04765
1092.50 0.04764
1092.60 0.04763
1092.70 0.04762
1092.80 0.04761
1092.90 0.0476
1093.00 0.0476
1093.10 0.04759
1093.20 0.04759
1093.30 0.04759
1093.40 0.04759
1093.50 0.04761
1093.60 0.04764
1093.70 0.04766
1093.80 0.04767
1093.90 0.04765
1094.00 0.04759
1094.10 0.04753
1094.20 0.04747
1094.30 0.04743
1094.40 0.0474
1094.50 0.04737
1094.60 0.04734
1094.70 0.04731
1094.80 0.04728
1094.90 0.04725
1095.00 0.04722
1095.10 0.0472
1095.20 0.04718
1095.30 0.04716
1095.40 0.04714
1095.50 0.04712
1095.60 0.0471
1095.70 0.04708
1095.80 0.04706
1095.90 0.04704
1096.00 0.04702
1096.10 0.047
1096.20 0.04698
1096.30 0.04696
1096.40 0.04694
1096.50 0.04692
1096.60 0.04691
1096.70 0.04689
1096.80 0.04687
1096.90 0.04686
1097.00 0.04684
1097.10 0.04683
1097.20 0.04681
1097.30 0.0468
1097.40 0.04679
1097.50 0.04677
1097.60 0.04676
1097.70 0.04674
1097.80 0.04673
1097.90 0.04672
1098.00 0.0467
1098.10 0.04669
1098.20 0.04667
1098.30 0.04666
1098.40 0.04664
1098.50 0.04663
1098.60 0.04662
1098.70 0.0466
1098.80 0.04659
1098.90 0.04658
1099.00 0.04656
1099.10 0.04655
1099.20 0.04654
1099.30 0.04652
1099.40 0.04651
1099.50 0.04649
1099.60 0.04648
1099.70 0.04647
1099.80 0.04645
1099.90 0.04644
1100.00 0.04643
1100.10 0.04641
1100.20 0.0464
1100.30 0.04639
1100.40 0.04637
1100.50 0.04636
1100.60 0.04634
1100.70 0.04633
1100.80 0.04632
1100.90 0.0463
1101.00 0.04629
1101.10 0.04627
1101.20 0.04626
1101.30 0.04625
1101.40 0.04623
1101.50 0.04622
1101.60 0.0462
1101.70 0.04619
1101.80 0.04618
1101.90 0.04616
1102.00 0.04615
1102.10 0.04613
1102.20 0.04612
1102.30 0.04611
1102.40 0.04609
1102.50 0.04608
1102.60 0.04606
1102.70 0.04605
1102.80 0.04603
1102.90 0.04602
1103.00 0.046
1103.10 0.04599
1103.20 0.04598
1103.30 0.04596
1103.40 0.04595
1103.50 0.04593
1103.60 0.04592
1103.70 0.0459
1103.80 0.04589
1103.90 0.04587
1104.00 0.04586
1104.10 0.04584
1104.20 0.04583
1104.30 0.04581
1104.40 0.0458
1104.50 0.04578
1104.60 0.04577
1104.70 0.04575
1104.80 0.04574
1104.90 0.04572
1105.00 0.04571
1105.10 0.04569
1105.20 0.04568
1105.30 0.04567
1105.40 0.04565
1105.50 0.04564
1105.60 0.04562
1105.70 0.04561
1105.80 0.04559
1105.90 0.04558
1106.00 0.04556
1106.10 0.04554
1106.20 0.04553
1106.30 0.04551
1106.40 0.0455
1106.50 0.04548
1106.60 0.04547
1106.70 0.04545
1106.80 0.04544
1106.90 0.04542
1107.00 0.04541
1107.10 0.04539
1107.20 0.04538
1107.30 0.04536
1107.40 0.04535
1107.50 0.04533
1107.60 0.04532
1107.70 0.0453
1107.80 0.04529
1107.90 0.04527
1108.00 0.04526
1108.10 0.04524
1108.20 0.04523
1108.30 0.04521
1108.40 0.0452
1108.50 0.04518
1108.60 0.04517
1108.70 0.04515
1108.80 0.04513
1108.90 0.04512
1109.00 0.0451
1109.10 0.04509
1109.20 0.04507
1109.30 0.04506
1109.40 0.04504
1109.50 0.04503
1109.60 0.04501
1109.70 0.045
1109.80 0.04498
1109.90 0.04497
1110.00 0.04495
1110.10 0.04494
1110.20 0.04492
1110.30 0.0449
1110.40 0.04489
1110.50 0.04487
1110.60 0.04486
1110.70 0.04484
1110.80 0.04483
1110.90 0.04481
1111.00 0.0448
1111.10 0.04478
1111.20 0.04477
1111.30 0.04475
1111.40 0.04474
1111.50 0.04472
1111.60 0.04471
1111.70 0.04469
1111.80 0.04468
1111.90 0.04466
1112.00 0.04464
1112.10 0.04463
1112.20 0.04461
1112.30 0.0446
1112.40 0.04458
1112.50 0.04457
1112.60 0.04455
1112.70 0.04454
1112.80 0.04452
1112.90 0.04451
1113.00 0.04449
1113.10 0.04448
1113.20 0.04446
1113.30 0.04445
1113.40 0.04443
1113.50 0.04441
1113.60 0.0444
1113.70 0.04438
1113.80 0.04437
1113.90 0.04435
1114.00 0.04434
1114.10 0.04432
1114.20 0.04431
1114.30 0.04429
1114.40 0.04428
1114.50 0.04426
1114.60 0.04425
1114.70 0.04423
1114.80 0.04422
1114.90 0.0442
1115.00 0.04418
1115.10 0.04417
1115.20 0.04415
1115.30 0.04414
1115.40 0.04412
1115.50 0.04411
1115.60 0.04409
1115.70 0.04408
1115.80 0.04406
1115.90 0.04405
1116.00 0.04403
1116.10 0.04402
1116.20 0.044
1116.30 0.04399
1116.40 0.04397
1116.50 0.04396
1116.60 0.04394
1116.70 0.04393
1116.80 0.04391
1116.90 0.0439
1117.00 0.04388
1117.10 0.04387
1117.20 0.04385
1117.30 0.04383
1117.40 0.04382
1117.50 0.0438
1117.60 0.04379
1117.70 0.04377
1117.80 0.04376
1117.90 0.04374
1118.00 0.04373
1118.10 0.04371
1118.20 0.0437
1118.30 0.04368
1118.40 0.04367
1118.50 0.04365
1118.60 0.04364
1118.70 0.04362
1118.80 0.04361
1118.90 0.04359
1119.00 0.04358
1119.10 0.04356
1119.20 0.04355
1119.30 0.04353
1119.40 0.04352
1119.50 0.0435
1119.60 0.04349
1119.70 0.04347
1119.80 0.04346
1119.90 0.04344
1120.00 0.04343
1120.10 0.04341
1120.20 0.0434
1120.30 0.04338
1120.40 0.04337
1120.50 0.04335
1120.60 0.04334
1120.70 0.04332
1120.80 0.04331
1120.90 0.04329
1121.00 0.04328
1121.10 0.04326
1121.20 0.04325
1121.30 0.04323
1121.40 0.04322
1121.50 0.0432
1121.60 0.04319
1121.70 0.04317
1121.80 0.04316
1121.90 0.04314
1122.00 0.04313
1122.10 0.04311
1122.20 0.0431
1122.30 0.04308
1122.40 0.04307
1122.50 0.04305
1122.60 0.04304
1122.70 0.04302
1122.80 0.04301
1122.90 0.04299
1123.00 0.04298
1123.10 0.04296
1123.20 0.04295
1123.30 0.04293
1123.40 0.04292
1123.50 0.0429
1123.60 0.04289
1123.70 0.04287
1123.80 0.04286
1123.90 0.04284
1124.00 0.04283
1124.10 0.04281
1124.20 0.0428
1124.30 0.04278
1124.40 0.04277
1124.50 0.04275
1124.60 0.04274
1124.70 0.04273
1124.80 0.04271
1124.90 0.0427
1125.00 0.04268
1125.10 0.04267
1125.20 0.04265
1125.30 0.04264
1125.40 0.04262
1125.50 0.04261
1125.60 0.04259
1125.70 0.04258
1125.80 0.04256
1125.90 0.04255
1126.00 0.04253
1126.10 0.04252
1126.20 0.0425
1126.30 0.04249
1126.40 0.04247
1126.50 0.04246
1126.60 0.04244
1126.70 0.04243
1126.80 0.04242
1126.90 0.0424
1127.00 0.04239
1127.10 0.04237
1127.20 0.04236
1127.30 0.04234
1127.40 0.04233
1127.50 0.04231
1127.60 0.0423
1127.70 0.04228
1127.80 0.04227
1127.90 0.04225
1128.00 0.04224
1128.10 0.04223
1128.20 0.04221
1128.30 0.0422
1128.40 0.04218
1128.50 0.04217
1128.60 0.04215
1128.70 0.04214
1128.80 0.04212
1128.90 0.04211
1129.00 0.04209
1129.10 0.04208
1129.20 0.04207
1129.30 0.04205
1129.40 0.04204
1129.50 0.04202
1129.60 0.04201
1129.70 0.04199
1129.80 0.04198
1129.90 0.04196
1130.00 0.04195
1130.10 0.04193
1130.20 0.04192
1130.30 0.04191
1130.40 0.04189
1130.50 0.04188
1130.60 0.04186
1130.70 0.04185
1130.80 0.04183
1130.90 0.04182
1131.00 0.0418
1131.10 0.04179
1131.20 0.04178
1131.30 0.04176
1131.40 0.04175
1131.50 0.04173
1131.60 0.04172
1131.70 0.0417
1131.80 0.04169
1131.90 0.04167
1132.00 0.04166
1132.10 0.04165
1132.20 0.04163
1132.30 0.04162
1132.40 0.0416
1132.50 0.04159
1132.60 0.04157
1132.70 0.04156
1132.80 0.04155
1132.90 0.04153
1133.00 0.04152
1133.10 0.0415
1133.20 0.04149
1133.30 0.04147
1133.40 0.04146
1133.50 0.04145
1133.60 0.04143
1133.70 0.04142
1133.80 0.0414
1133.90 0.04139
1134.00 0.04137
1134.10 0.04136
1134.20 0.04135
1134.30 0.04133
1134.40 0.04132
1134.50 0.0413
1134.60 0.04129
1134.70 0.04128
1134.80 0.04126
1134.90 0.04125
1135.00 0.04123
1135.10 0.04122
1135.20 0.0412
1135.30 0.04119
1135.40 0.04118
1135.50 0.04116
1135.60 0.04115
1135.70 0.04113
1135.80 0.04112
1135.90 0.0411
1136.00 0.04109
1136.10 0.04108
1136.20 0.04106
1136.30 0.04105
1136.40 0.04103
1136.50 0.04102
1136.60 0.04101
1136.70 0.04099
1136.80 0.04098
1136.90 0.04096
1137.00 0.04095
1137.10 0.04094
1137.20 0.04092
1137.30 0.04091
1137.40 0.04089
1137.50 0.04088
1137.60 0.04087
1137.70 0.04085
1137.80 0.04084
1137.90 0.04082
1138.00 0.04081
1138.10 0.0408
1138.20 0.04078
1138.30 0.04077
1138.40 0.04075
1138.50 0.04074
1138.60 0.04073
1138.70 0.04071
1138.80 0.0407
1138.90 0.04068
1139.00 0.04067
1139.10 0.04066
1139.20 0.04064
1139.30 0.04063
1139.40 0.04061
1139.50 0.0406
1139.60 0.04059
1139.70 0.04057
1139.80 0.04056
1139.90 0.04054
1140.00 0.04053
1140.10 0.04052
1140.20 0.0405
1140.30 0.04049
1140.40 0.04047
1140.50 0.04046
1140.60 0.04045
1140.70 0.04043
1140.80 0.04042
1140.90 0.04041
1141.00 0.04039
1141.10 0.04038
1141.20 0.04036
1141.30 0.04035
1141.40 0.04034
1141.50 0.04032
1141.60 0.04031
1141.70 0.04029
1141.80 0.04028
1141.90 0.04027
1142.00 0.04025
1142.10 0.04024
1142.20 0.04023
1142.30 0.04021
1142.40 0.0402
1142.50 0.04018
1142.60 0.04017
1142.70 0.04016
1142.80 0.04014
1142.90 0.04013
1143.00 0.04012
1143.10 0.0401
1143.20 0.04009
1143.30 0.04008
1143.40 0.04006
1143.50 0.04005
1143.60 0.04003
1143.70 0.04002
1143.80 0.04001
1143.90 0.03999
1144.00 0.03998
1144.10 0.03997
1144.20 0.03995
1144.30 0.03994
1144.40 0.03992
1144.50 0.03991
1144.60 0.0399
1144.70 0.03988
1144.80 0.03987
1144.90 0.03986
1145.00 0.03984
1145.10 0.03983
1145.20 0.03982
1145.30 0.0398
1145.40 0.03979
1145.50 0.03978
1145.60 0.03976
1145.70 0.03975
1145.80 0.03973
1145.90 0.03972
1146.00 0.03971
1146.10 0.03969
1146.20 0.03968
1146.30 0.03967
1146.40 0.03965
1146.50 0.03964
1146.60 0.03963
1146.70 0.03961
1146.80 0.0396
1146.90 0.03959
1147.00 0.03957
1147.10 0.03956
1147.20 0.03954
1147.30 0.03953
1147.40 0.03952
1147.50 0.0395
1147.60 0.03949
1147.70 0.03948
1147.80 0.03946
1147.90 0.03945
1148.00 0.03944
1148.10 0.03942
1148.20 0.03941
1148.30 0.0394
1148.40 0.03938
1148.50 0.03937
1148.60 0.03936
1148.70 0.03934
1148.80 0.03933
1148.90 0.03932
1149.00 0.0393
1149.10 0.03929
1149.20 0.03928
1149.30 0.03926
1149.40 0.03925
1149.50 0.03924
1149.60 0.03922
1149.70 0.03921
1149.80 0.0392
1149.90 0.03918
1150.00 0.03917
1150.10 0.03916
1150.20 0.03914
1150.30 0.03913
1150.40 0.03912
1150.50 0.0391
1150.60 0.03909
1150.70 0.03908
1150.80 0.03906
1150.90 0.03905
1151.00 0.03904
1151.10 0.03902
1151.20 0.03901
1151.30 0.039
1151.40 0.03898
1151.50 0.03897
1151.60 0.03896
1151.70 0.03894
1151.80 0.03893
1151.90 0.03892
1152.00 0.0389
1152.10 0.03889
1152.20 0.03888
1152.30 0.03886
1152.40 0.03885
1152.50 0.03884
1152.60 0.03883
1152.70 0.03881
1152.80 0.0388
1152.90 0.03879
1153.00 0.03877
1153.10 0.03876
1153.20 0.03875
1153.30 0.03873
1153.40 0.03872
1153.50 0.03871
1153.60 0.03869
1153.70 0.03868
1153.80 0.03867
1153.90 0.03865
1154.00 0.03864
1154.10 0.03863
1154.20 0.03862
1154.30 0.0386
1154.40 0.03859
1154.50 0.03858
1154.60 0.03856
1154.70 0.03855
1154.80 0.03854
1154.90 0.03852
1155.00 0.03851
1155.10 0.0385
1155.20 0.03849
1155.30 0.03847
1155.40 0.03846
1155.50 0.03845
1155.60 0.03843
1155.70 0.03842
1155.80 0.03841
1155.90 0.03839
1156.00 0.03838
1156.10 0.03837
1156.20 0.03835
1156.30 0.03834
1156.40 0.03833
1156.50 0.03832
1156.60 0.0383
1156.70 0.03829
1156.80 0.03828
1156.90 0.03826
1157.00 0.03825
1157.10 0.03824
1157.20 0.03823
1157.30 0.03821
1157.40 0.0382
1157.50 0.03819
1157.60 0.03817
1157.70 0.03816
1157.80 0.03815
1157.90 0.03814
1158.00 0.03812
1158.10 0.03811
1158.20 0.0381
1158.30 0.03808
1158.40 0.03807
1158.50 0.03806
1158.60 0.03805
1158.70 0.03803
1158.80 0.03802
1158.90 0.03801
1159.00 0.03799
1159.10 0.03798
1159.20 0.03797
1159.30 0.03796
1159.40 0.03794
1159.50 0.03793
1159.60 0.03792
1159.70 0.0379
1159.80 0.03789
1159.90 0.03788
1160.00 0.03787
1160.10 0.03785
1160.20 0.03784
1160.30 0.03783
1160.40 0.03781
1160.50 0.0378
1160.60 0.03779
1160.70 0.03778
1160.80 0.03776
1160.90 0.03775
1161.00 0.03774
1161.10 0.03773
1161.20 0.03771
1161.30 0.0377
1161.40 0.03769
1161.50 0.03767
1161.60 0.03766
1161.70 0.03765
1161.80 0.03764
1161.90 0.03762
1162.00 0.03761
1162.10 0.0376
1162.20 0.03759
1162.30 0.03757
1162.40 0.03756
1162.50 0.03755
1162.60 0.03754
1162.70 0.03752
1162.80 0.03751
1162.90 0.0375
1163.00 0.03749
1163.10 0.03747
1163.20 0.03746
1163.30 0.03745
1163.40 0.03743
1163.50 0.03742
1163.60 0.03741
1163.70 0.0374
1163.80 0.03738
1163.90 0.03737
1164.00 0.03736
1164.10 0.03735
1164.20 0.03733
1164.30 0.03732
1164.40 0.03731
1164.50 0.0373
1164.60 0.03728
1164.70 0.03727
1164.80 0.03726
1164.90 0.03725
1165.00 0.03723
1165.10 0.03722
1165.20 0.03721
1165.30 0.0372
1165.40 0.03718
1165.50 0.03717
1165.60 0.03716
1165.70 0.03715
1165.80 0.03713
1165.90 0.03712
1166.00 0.03711
1166.10 0.0371
1166.20 0.03708
1166.30 0.03707
1166.40 0.03706
1166.50 0.03705
1166.60 0.03703
1166.70 0.03702
1166.80 0.03701
1166.90 0.037
1167.00 0.03698
1167.10 0.03697
1167.20 0.03696
1167.30 0.03695
1167.40 0.03694
1167.50 0.03692
1167.60 0.03691
1167.70 0.0369
1167.80 0.03689
1167.90 0.03687
1168.00 0.03686
1168.10 0.03685
1168.20 0.03684
1168.30 0.03682
1168.40 0.03681
1168.50 0.0368
1168.60 0.03679
1168.70 0.03678
1168.80 0.03676
1168.90 0.03675
1169.00 0.03674
1169.10 0.03673
1169.20 0.03671
1169.30 0.0367
1169.40 0.03669
1169.50 0.03668
1169.60 0.03666
1169.70 0.03665
1169.80 0.03664
1169.90 0.03663
1170.00 0.03662
1170.10 0.0366
1170.20 0.03659
1170.30 0.03658
1170.40 0.03657
1170.50 0.03655
1170.60 0.03654
1170.70 0.03653
1170.80 0.03652
1170.90 0.03651
1171.00 0.03649
1171.10 0.03648
1171.20 0.03647
1171.30 0.03646
1171.40 0.03644
1171.50 0.03643
1171.60 0.03642
1171.70 0.03641
1171.80 0.0364
1171.90 0.03638
1172.00 0.03637
1172.10 0.03636
1172.20 0.03635
1172.30 0.03634
1172.40 0.03632
1172.50 0.03631
1172.60 0.0363
1172.70 0.03629
1172.80 0.03627
1172.90 0.03626
1173.00 0.03625
1173.10 0.03624
1173.20 0.03623
1173.30 0.03621
1173.40 0.0362
1173.50 0.03619
1173.60 0.03618
1173.70 0.03617
1173.80 0.03615
1173.90 0.03614
1174.00 0.03613
1174.10 0.03612
1174.20 0.03611
1174.30 0.03609
1174.40 0.03608
1174.50 0.03607
1174.60 0.03606
1174.70 0.03605
1174.80 0.03603
1174.90 0.03602
1175.00 0.03601
1175.10 0.036
1175.20 0.03599
1175.30 0.03597
1175.40 0.03596
1175.50 0.03595
1175.60 0.03594
1175.70 0.03593
1175.80 0.03591
1175.90 0.0359
1176.00 0.03589
1176.10 0.03588
1176.20 0.03587
1176.30 0.03585
1176.40 0.03584
1176.50 0.03583
1176.60 0.03582
1176.70 0.03581
1176.80 0.03579
1176.90 0.03578
1177.00 0.03577
1177.10 0.03576
1177.20 0.03575
1177.30 0.03573
1177.40 0.03572
1177.50 0.03571
1177.60 0.0357
1177.70 0.03569
1177.80 0.03568
1177.90 0.03566
1178.00 0.03565
1178.10 0.03564
1178.20 0.03563
1178.30 0.03562
1178.40 0.0356
1178.50 0.03559
1178.60 0.03558
1178.70 0.03557
1178.80 0.03556
1178.90 0.03555
1179.00 0.03553
1179.10 0.03552
1179.20 0.03551
1179.30 0.0355
1179.40 0.03549
1179.50 0.03548
1179.60 0.03546
1179.70 0.03545
1179.80 0.03544
1179.90 0.03543
1180.00 0.03542
1180.10 0.0354
1180.20 0.03539
1180.30 0.03538
1180.40 0.03537
1180.50 0.03536
1180.60 0.03535
1180.70 0.03533
1180.80 0.03532
1180.90 0.03531
1181.00 0.0353
1181.10 0.03529
1181.20 0.03528
1181.30 0.03526
1181.40 0.03525
1181.50 0.03524
1181.60 0.03523
1181.70 0.03522
1181.80 0.03521
1181.90 0.03519
1182.00 0.03518
1182.10 0.03517
1182.20 0.03516
1182.30 0.03515
1182.40 0.03514
1182.50 0.03512
1182.60 0.03511
1182.70 0.0351
1182.80 0.03509
1182.90 0.03508
1183.00 0.03507
1183.10 0.03505
1183.20 0.03504
1183.30 0.03503
1183.40 0.03502
1183.50 0.03501
1183.60 0.035
1183.70 0.03499
1183.80 0.03497
1183.90 0.03496
1184.00 0.03495
1184.10 0.03494
1184.20 0.03493
1184.30 0.03492
1184.40 0.0349
1184.50 0.03489
1184.60 0.03488
1184.70 0.03487
1184.80 0.03486
1184.90 0.03485
1185.00 0.03484
1185.10 0.03482
1185.20 0.03481
1185.30 0.0348
1185.40 0.03479
1185.50 0.03478
1185.60 0.03477
1185.70 0.03475
1185.80 0.03474
1185.90 0.03473
1186.00 0.03472
1186.10 0.03471
1186.20 0.0347
1186.30 0.03469
1186.40 0.03467
1186.50 0.03466
1186.60 0.03465
1186.70 0.03464
1186.80 0.03463
1186.90 0.03462
1187.00 0.03461
1187.10 0.03459
1187.20 0.03458
1187.30 0.03457
1187.40 0.03456
1187.50 0.03455
1187.60 0.03454
1187.70 0.03453
1187.80 0.03451
1187.90 0.0345
1188.00 0.03449
1188.10 0.03448
1188.20 0.03447
1188.30 0.03446
1188.40 0.03445
1188.50 0.03444
1188.60 0.03442
1188.70 0.03441
1188.80 0.0344
1188.90 0.03439
1189.00 0.03438
1189.10 0.03437
1189.20 0.03436
1189.30 0.03434
1189.40 0.03433
1189.50 0.03432
1189.60 0.03431
1189.70 0.0343
1189.80 0.03429
1189.90 0.03428
1190.00 0.03427
1190.10 0.03425
1190.20 0.03424
1190.30 0.03423
1190.40 0.03422
1190.50 0.03421
1190.60 0.0342
1190.70 0.03419
1190.80 0.03418
1190.90 0.03416
1191.00 0.03415
1191.10 0.03414
1191.20 0.03413
1191.30 0.03412
1191.40 0.03411
1191.50 0.0341
1191.60 0.03409
1191.70 0.03407
1191.80 0.03406
1191.90 0.03405
1192.00 0.03404
1192.10 0.03403
1192.20 0.03402
1192.30 0.03401
1192.40 0.034
1192.50 0.03399
1192.60 0.03397
1192.70 0.03396
1192.80 0.03395
1192.90 0.03394
1193.00 0.03393
1193.10 0.03392
1193.20 0.03391
1193.30 0.0339
1193.40 0.03389
1193.50 0.03387
1193.60 0.03386
1193.70 0.03385
1193.80 0.03384
1193.90 0.03383
1194.00 0.03382
1194.10 0.03381
1194.20 0.0338
1194.30 0.03379
1194.40 0.03377
1194.50 0.03376
1194.60 0.03375
1194.70 0.03374
1194.80 0.03373
1194.90 0.03372
1195.00 0.03371
1195.10 0.0337
1195.20 0.03369
1195.30 0.03368
1195.40 0.03366
1195.50 0.03365
1195.60 0.03364
1195.70 0.03363
1195.80 0.03362
1195.90 0.03361
1196.00 0.0336
1196.10 0.03359
1196.20 0.03358
1196.30 0.03356
1196.40 0.03355
1196.50 0.03354
1196.60 0.03353
1196.70 0.03352
1196.80 0.03351
1196.90 0.0335
1197.00 0.03349
1197.10 0.03348
1197.20 0.03347
1197.30 0.03346
1197.40 0.03344
1197.50 0.03343
1197.60 0.03342
1197.70 0.03341
1197.80 0.0334
1197.90 0.03339
1198.00 0.03338
1198.10 0.03337
1198.20 0.03336
1198.30 0.03335
1198.40 0.03334
1198.50 0.03332
1198.60 0.03331
1198.70 0.0333
1198.80 0.03329
1198.90 0.03328
1199.00 0.03327
1199.10 0.03326
1199.20 0.03325
1199.30 0.03324
1199.40 0.03323
1199.50 0.03322
1199.60 0.03321
1199.70 0.03319
1199.80 0.03318
1199.90 0.03317
1200.00 0
