# Version 2.1 - nm, norm@500 to 1, cut digits, bergeron_55000_80.dat_55000
# Wavelength(nm)  Flambda(ergs/cm^s/s/nm)
300.00 6.308
300.10 6.3
300.20 6.292
300.30 6.285
300.40 6.277
300.50 6.269
300.60 6.262
300.70 6.254
300.80 6.247
300.90 6.239
301.00 6.232
301.10 6.224
301.20 6.216
301.30 6.209
301.40 6.201
301.50 6.194
301.60 6.186
301.70 6.179
301.80 6.171
301.90 6.164
302.00 6.157
302.10 6.149
302.20 6.142
302.30 6.134
302.40 6.127
302.50 6.12
302.60 6.112
302.70 6.105
302.80 6.097
302.90 6.09
303.00 6.083
303.10 6.075
303.20 6.068
303.30 6.061
303.40 6.054
303.50 6.046
303.60 6.039
303.70 6.032
303.80 6.025
303.90 6.017
304.00 6.01
304.10 6.003
304.20 5.996
304.30 5.988
304.40 5.981
304.50 5.974
304.60 5.967
304.70 5.96
304.80 5.953
304.90 5.946
305.00 5.938
305.10 5.931
305.20 5.924
305.30 5.917
305.40 5.91
305.50 5.903
305.60 5.896
305.70 5.889
305.80 5.882
305.90 5.875
306.00 5.868
306.10 5.861
306.20 5.854
306.30 5.847
306.40 5.84
306.50 5.833
306.60 5.826
306.70 5.819
306.80 5.812
306.90 5.805
307.00 5.798
307.10 5.792
307.20 5.785
307.30 5.778
307.40 5.771
307.50 5.764
307.60 5.757
307.70 5.75
307.80 5.744
307.90 5.737
308.00 5.73
308.10 5.723
308.20 5.716
308.30 5.71
308.40 5.703
308.50 5.696
308.60 5.689
308.70 5.683
308.80 5.676
308.90 5.669
309.00 5.662
309.10 5.656
309.20 5.649
309.30 5.642
309.40 5.636
309.50 5.629
309.60 5.622
309.70 5.616
309.80 5.609
309.90 5.603
310.00 5.596
310.10 5.589
310.20 5.583
310.30 5.576
310.40 5.57
310.50 5.563
310.60 5.557
310.70 5.55
310.80 5.544
310.90 5.537
311.00 5.53
311.10 5.524
311.20 5.518
311.30 5.511
311.40 5.505
311.50 5.498
311.60 5.492
311.70 5.485
311.80 5.479
311.90 5.472
312.00 5.466
312.10 5.46
312.20 5.453
312.30 5.447
312.40 5.44
312.50 5.434
312.60 5.428
312.70 5.421
312.80 5.415
312.90 5.409
313.00 5.402
313.10 5.396
313.20 5.39
313.30 5.383
313.40 5.377
313.50 5.371
313.60 5.365
313.70 5.358
313.80 5.352
313.90 5.346
314.00 5.34
314.10 5.333
314.20 5.327
314.30 5.321
314.40 5.315
314.50 5.309
314.60 5.302
314.70 5.296
314.80 5.29
314.90 5.284
315.00 5.278
315.10 5.272
315.20 5.266
315.30 5.26
315.40 5.253
315.50 5.247
315.60 5.241
315.70 5.235
315.80 5.229
315.90 5.223
316.00 5.217
316.10 5.211
316.20 5.205
316.30 5.199
316.40 5.193
316.50 5.187
316.60 5.181
316.70 5.175
316.80 5.169
316.90 5.163
317.00 5.157
317.10 5.151
317.20 5.145
317.30 5.139
317.40 5.133
317.50 5.127
317.60 5.121
317.70 5.116
317.80 5.11
317.90 5.104
318.00 5.098
318.10 5.092
318.20 5.086
318.30 5.08
318.40 5.075
318.50 5.069
318.60 5.063
318.70 5.057
318.80 5.051
318.90 5.045
319.00 5.04
319.10 5.034
319.20 5.028
319.30 5.022
319.40 5.017
319.50 5.011
319.60 5.005
319.70 4.999
319.80 4.994
319.90 4.988
320.00 4.982
320.10 4.977
320.20 4.971
320.30 4.965
320.40 4.959
320.50 4.954
320.60 4.948
320.70 4.942
320.80 4.937
320.90 4.931
321.00 4.926
321.10 4.92
321.20 4.914
321.30 4.909
321.40 4.903
321.50 4.898
321.60 4.892
321.70 4.886
321.80 4.881
321.90 4.875
322.00 4.87
322.10 4.864
322.20 4.859
322.30 4.853
322.40 4.848
322.50 4.842
322.60 4.837
322.70 4.831
322.80 4.826
322.90 4.82
323.00 4.815
323.10 4.809
323.20 4.804
323.30 4.798
323.40 4.793
323.50 4.788
323.60 4.782
323.70 4.777
323.80 4.771
323.90 4.766
324.00 4.76
324.10 4.755
324.20 4.75
324.30 4.744
324.40 4.739
324.50 4.734
324.60 4.728
324.70 4.723
324.80 4.718
324.90 4.712
325.00 4.707
325.10 4.702
325.20 4.696
325.30 4.691
325.40 4.686
325.50 4.681
325.60 4.675
325.70 4.67
325.80 4.665
325.90 4.66
326.00 4.654
326.10 4.649
326.20 4.644
326.30 4.639
326.40 4.633
326.50 4.628
326.60 4.623
326.70 4.618
326.80 4.613
326.90 4.607
327.00 4.602
327.10 4.597
327.20 4.592
327.30 4.587
327.40 4.582
327.50 4.577
327.60 4.571
327.70 4.566
327.80 4.561
327.90 4.556
328.00 4.551
328.10 4.546
328.20 4.541
328.30 4.536
328.40 4.531
328.50 4.526
328.60 4.521
328.70 4.516
328.80 4.511
328.90 4.505
329.00 4.5
329.10 4.495
329.20 4.49
329.30 4.485
329.40 4.48
329.50 4.475
329.60 4.47
329.70 4.465
329.80 4.46
329.90 4.456
330.00 4.451
330.10 4.446
330.20 4.441
330.30 4.436
330.40 4.431
330.50 4.426
330.60 4.421
330.70 4.416
330.80 4.411
330.90 4.406
331.00 4.401
331.10 4.397
331.20 4.392
331.30 4.387
331.40 4.382
331.50 4.377
331.60 4.372
331.70 4.367
331.80 4.363
331.90 4.358
332.00 4.353
332.10 4.348
332.20 4.343
332.30 4.339
332.40 4.334
332.50 4.329
332.60 4.324
332.70 4.319
332.80 4.315
332.90 4.31
333.00 4.305
333.10 4.3
333.20 4.296
333.30 4.291
333.40 4.286
333.50 4.282
333.60 4.277
333.70 4.272
333.80 4.267
333.90 4.263
334.00 4.258
334.10 4.253
334.20 4.249
334.30 4.244
334.40 4.239
334.50 4.235
334.60 4.23
334.70 4.225
334.80 4.221
334.90 4.216
335.00 4.212
335.10 4.207
335.20 4.202
335.30 4.198
335.40 4.193
335.50 4.188
335.60 4.184
335.70 4.179
335.80 4.175
335.90 4.17
336.00 4.166
336.10 4.161
336.20 4.157
336.30 4.152
336.40 4.147
336.50 4.143
336.60 4.138
336.70 4.134
336.80 4.129
336.90 4.125
337.00 4.12
337.10 4.116
337.20 4.111
337.30 4.107
337.40 4.102
337.50 4.098
337.60 4.094
337.70 4.089
337.80 4.085
337.90 4.08
338.00 4.076
338.10 4.071
338.20 4.067
338.30 4.062
338.40 4.058
338.50 4.054
338.60 4.049
338.70 4.045
338.80 4.04
338.90 4.036
339.00 4.032
339.10 4.027
339.20 4.023
339.30 4.019
339.40 4.014
339.50 4.01
339.60 4.006
339.70 4.001
339.80 3.997
339.90 3.993
340.00 3.988
340.10 3.984
340.20 3.98
340.30 3.975
340.40 3.971
340.50 3.967
340.60 3.963
340.70 3.958
340.80 3.954
340.90 3.95
341.00 3.945
341.10 3.941
341.20 3.937
341.30 3.933
341.40 3.928
341.50 3.924
341.60 3.92
341.70 3.916
341.80 3.912
341.90 3.907
342.00 3.903
342.10 3.899
342.20 3.895
342.30 3.891
342.40 3.886
342.50 3.882
342.60 3.878
342.70 3.874
342.80 3.87
342.90 3.866
343.00 3.861
343.10 3.857
343.20 3.853
343.30 3.849
343.40 3.845
343.50 3.841
343.60 3.837
343.70 3.833
343.80 3.828
343.90 3.824
344.00 3.82
344.10 3.816
344.20 3.812
344.30 3.808
344.40 3.804
344.50 3.8
344.60 3.796
344.70 3.792
344.80 3.788
344.90 3.784
345.00 3.78
345.10 3.776
345.20 3.772
345.30 3.768
345.40 3.764
345.50 3.76
345.60 3.756
345.70 3.752
345.80 3.748
345.90 3.744
346.00 3.74
346.10 3.736
346.20 3.732
346.30 3.728
346.40 3.724
346.50 3.72
346.60 3.716
346.70 3.712
346.80 3.708
346.90 3.704
347.00 3.7
347.10 3.696
347.20 3.692
347.30 3.688
347.40 3.684
347.50 3.681
347.60 3.677
347.70 3.673
347.80 3.669
347.90 3.665
348.00 3.661
348.10 3.657
348.20 3.653
348.30 3.649
348.40 3.646
348.50 3.642
348.60 3.638
348.70 3.634
348.80 3.63
348.90 3.626
349.00 3.623
349.10 3.619
349.20 3.615
349.30 3.611
349.40 3.607
349.50 3.604
349.60 3.6
349.70 3.596
349.80 3.592
349.90 3.588
350.00 3.585
350.10 3.581
350.20 3.577
350.30 3.573
350.40 3.57
350.50 3.566
350.60 3.562
350.70 3.558
350.80 3.555
350.90 3.551
351.00 3.547
351.10 3.543
351.20 3.54
351.30 3.536
351.40 3.532
351.50 3.529
351.60 3.525
351.70 3.521
351.80 3.517
351.90 3.514
352.00 3.51
352.10 3.506
352.20 3.503
352.30 3.499
352.40 3.495
352.50 3.492
352.60 3.488
352.70 3.485
352.80 3.481
352.90 3.477
353.00 3.474
353.10 3.47
353.20 3.466
353.30 3.463
353.40 3.459
353.50 3.456
353.60 3.452
353.70 3.448
353.80 3.445
353.90 3.441
354.00 3.437
354.10 3.434
354.20 3.43
354.30 3.427
354.40 3.423
354.50 3.42
354.60 3.416
354.70 3.413
354.80 3.409
354.90 3.406
355.00 3.402
355.10 3.398
355.20 3.395
355.30 3.391
355.40 3.388
355.50 3.384
355.60 3.381
355.70 3.377
355.80 3.374
355.90 3.37
356.00 3.367
356.10 3.363
356.20 3.36
356.30 3.356
356.40 3.353
356.50 3.349
356.60 3.346
356.70 3.343
356.80 3.339
356.90 3.336
357.00 3.332
357.10 3.329
357.20 3.325
357.30 3.322
357.40 3.318
357.50 3.315
357.60 3.312
357.70 3.308
357.80 3.305
357.90 3.301
358.00 3.298
358.10 3.295
358.20 3.291
358.30 3.288
358.40 3.284
358.50 3.281
358.60 3.278
358.70 3.274
358.80 3.271
358.90 3.268
359.00 3.264
359.10 3.261
359.20 3.258
359.30 3.254
359.40 3.251
359.50 3.247
359.60 3.244
359.70 3.241
359.80 3.237
359.90 3.234
360.00 3.231
360.10 3.228
360.20 3.224
360.30 3.221
360.40 3.218
360.50 3.214
360.60 3.211
360.70 3.208
360.80 3.205
360.90 3.201
361.00 3.198
361.10 3.195
361.20 3.191
361.30 3.188
361.40 3.185
361.50 3.182
361.60 3.178
361.70 3.175
361.80 3.172
361.90 3.169
362.00 3.165
362.10 3.162
362.20 3.159
362.30 3.156
362.40 3.153
362.50 3.149
362.60 3.146
362.70 3.143
362.80 3.14
362.90 3.137
363.00 3.133
363.10 3.13
363.20 3.127
363.30 3.124
363.40 3.121
363.50 3.117
363.60 3.114
363.70 3.111
363.80 3.108
363.90 3.105
364.00 3.102
364.10 3.099
364.20 3.095
364.30 3.092
364.40 3.089
364.50 3.086
364.60 3.083
364.70 3.08
364.80 3.077
364.90 3.074
365.00 3.07
365.10 3.067
365.20 3.064
365.30 3.061
365.40 3.058
365.50 3.055
365.60 3.052
365.70 3.049
365.80 3.046
365.90 3.043
366.00 3.04
366.10 3.036
366.20 3.033
366.30 3.03
366.40 3.027
366.50 3.024
366.60 3.021
366.70 3.018
366.80 3.014
366.90 3.011
367.00 3.008
367.10 3.005
367.20 3.002
367.30 2.999
367.40 2.996
367.50 2.993
367.60 2.99
367.70 2.986
367.80 2.983
367.90 2.98
368.00 2.977
368.10 2.974
368.20 2.971
368.30 2.968
368.40 2.965
368.50 2.962
368.60 2.959
368.70 2.956
368.80 2.952
368.90 2.949
369.00 2.946
369.10 2.943
369.20 2.94
369.30 2.937
369.40 2.934
369.50 2.931
369.60 2.928
369.70 2.925
369.80 2.922
369.90 2.919
370.00 2.916
370.10 2.913
370.20 2.91
370.30 2.907
370.40 2.904
370.50 2.901
370.60 2.898
370.70 2.895
370.80 2.892
370.90 2.889
371.00 2.886
371.10 2.883
371.20 2.88
371.30 2.877
371.40 2.874
371.50 2.871
371.60 2.868
371.70 2.865
371.80 2.862
371.90 2.859
372.00 2.856
372.10 2.853
372.20 2.851
372.30 2.848
372.40 2.845
372.50 2.842
372.60 2.839
372.70 2.836
372.80 2.833
372.90 2.831
373.00 2.828
373.10 2.825
373.20 2.822
373.30 2.819
373.40 2.816
373.50 2.813
373.60 2.811
373.70 2.808
373.80 2.805
373.90 2.802
374.00 2.799
374.10 2.796
374.20 2.794
374.30 2.791
374.40 2.788
374.50 2.785
374.60 2.782
374.70 2.78
374.80 2.777
374.90 2.774
375.00 2.771
375.10 2.769
375.20 2.766
375.30 2.763
375.40 2.76
375.50 2.757
375.60 2.755
375.70 2.752
375.80 2.749
375.90 2.746
376.00 2.744
376.10 2.741
376.20 2.738
376.30 2.736
376.40 2.733
376.50 2.73
376.60 2.727
376.70 2.725
376.80 2.722
376.90 2.719
377.00 2.717
377.10 2.714
377.20 2.712
377.30 2.709
377.40 2.706
377.50 2.704
377.60 2.701
377.70 2.699
377.80 2.696
377.90 2.694
378.00 2.691
378.10 2.689
378.20 2.686
378.30 2.683
378.40 2.681
378.50 2.678
378.60 2.676
378.70 2.673
378.80 2.671
378.90 2.668
379.00 2.666
379.10 2.663
379.20 2.661
379.30 2.658
379.40 2.656
379.50 2.653
379.60 2.651
379.70 2.648
379.80 2.646
379.90 2.643
380.00 2.641
380.10 2.639
380.20 2.636
380.30 2.634
380.40 2.632
380.50 2.629
380.60 2.627
380.70 2.625
380.80 2.623
380.90 2.62
381.00 2.618
381.10 2.616
381.20 2.613
381.30 2.611
381.40 2.608
381.50 2.606
381.60 2.604
381.70 2.601
381.80 2.599
381.90 2.596
382.00 2.594
382.10 2.591
382.20 2.589
382.30 2.586
382.40 2.583
382.50 2.581
382.60 2.578
382.70 2.576
382.80 2.573
382.90 2.57
383.00 2.568
383.10 2.565
383.20 2.563
383.30 2.56
383.40 2.558
383.50 2.556
383.60 2.553
383.70 2.551
383.80 2.55
383.90 2.548
384.00 2.546
384.10 2.544
384.20 2.543
384.30 2.541
384.40 2.539
384.50 2.538
384.60 2.536
384.70 2.534
384.80 2.532
384.90 2.53
385.00 2.528
385.10 2.526
385.20 2.524
385.30 2.522
385.40 2.52
385.50 2.518
385.60 2.516
385.70 2.514
385.80 2.511
385.90 2.509
386.00 2.506
386.10 2.504
386.20 2.501
386.30 2.499
386.40 2.496
386.50 2.493
386.60 2.49
386.70 2.487
386.80 2.485
386.90 2.481
387.00 2.478
387.10 2.475
387.20 2.472
387.30 2.469
387.40 2.465
387.50 2.462
387.60 2.459
387.70 2.455
387.80 2.452
387.90 2.448
388.00 2.445
388.10 2.441
388.20 2.438
388.30 2.434
388.40 2.431
388.50 2.428
388.60 2.425
388.70 2.422
388.80 2.42
388.90 2.418
389.00 2.416
389.10 2.414
389.20 2.413
389.30 2.412
389.40 2.412
389.50 2.411
389.60 2.411
389.70 2.411
389.80 2.41
389.90 2.41
390.00 2.41
390.10 2.409
390.20 2.409
390.30 2.409
390.40 2.408
390.50 2.408
390.60 2.407
390.70 2.406
390.80 2.406
390.90 2.405
391.00 2.404
391.10 2.403
391.20 2.402
391.30 2.401
391.40 2.4
391.50 2.398
391.60 2.397
391.70 2.396
391.80 2.394
391.90 2.392
392.00 2.391
392.10 2.389
392.20 2.387
392.30 2.385
392.40 2.383
392.50 2.38
392.60 2.378
392.70 2.376
392.80 2.373
392.90 2.371
393.00 2.368
393.10 2.365
393.20 2.362
393.30 2.359
393.40 2.356
393.50 2.352
393.60 2.349
393.70 2.346
393.80 2.342
393.90 2.338
394.00 2.334
394.10 2.33
394.20 2.326
394.30 2.322
394.40 2.318
394.50 2.313
394.60 2.309
394.70 2.304
394.80 2.299
394.90 2.294
395.00 2.289
395.10 2.284
395.20 2.279
395.30 2.273
395.40 2.267
395.50 2.262
395.60 2.256
395.70 2.25
395.80 2.244
395.90 2.238
396.00 2.232
396.10 2.226
396.20 2.22
396.30 2.213
396.40 2.207
396.50 2.201
396.60 2.195
396.70 2.189
396.80 2.183
396.90 2.178
397.00 2.173
397.10 2.174
397.20 2.176
397.30 2.178
397.40 2.18
397.50 2.182
397.60 2.185
397.70 2.188
397.80 2.19
397.90 2.193
398.00 2.195
398.10 2.198
398.20 2.2
398.30 2.203
398.40 2.205
398.50 2.207
398.60 2.209
398.70 2.211
398.80 2.213
398.90 2.215
399.00 2.216
399.10 2.218
399.20 2.219
399.30 2.221
399.40 2.222
399.50 2.223
399.60 2.224
399.70 2.225
399.80 2.226
399.90 2.226
400.00 2.227
400.10 2.227
400.20 2.227
400.30 2.228
400.40 2.228
400.50 2.228
400.60 2.228
400.70 2.228
400.80 2.227
400.90 2.227
401.00 2.227
401.10 2.226
401.20 2.226
401.30 2.225
401.40 2.224
401.50 2.223
401.60 2.222
401.70 2.221
401.80 2.22
401.90 2.219
402.00 2.218
402.10 2.217
402.20 2.216
402.30 2.214
402.40 2.213
402.50 2.211
402.60 2.21
402.70 2.208
402.80 2.206
402.90 2.205
403.00 2.203
403.10 2.201
403.20 2.199
403.30 2.197
403.40 2.195
403.50 2.193
403.60 2.191
403.70 2.189
403.80 2.186
403.90 2.184
404.00 2.181
404.10 2.179
404.20 2.176
404.30 2.174
404.40 2.171
404.50 2.168
404.60 2.165
404.70 2.162
404.80 2.16
404.90 2.156
405.00 2.153
405.10 2.15
405.20 2.147
405.30 2.143
405.40 2.14
405.50 2.136
405.60 2.133
405.70 2.129
405.80 2.125
405.90 2.121
406.00 2.117
406.10 2.113
406.20 2.108
406.30 2.104
406.40 2.099
406.50 2.095
406.60 2.09
406.70 2.085
406.80 2.08
406.90 2.075
407.00 2.069
407.10 2.064
407.20 2.058
407.30 2.052
407.40 2.046
407.50 2.04
407.60 2.034
407.70 2.027
407.80 2.021
407.90 2.014
408.00 2.007
408.10 1.999
408.20 1.992
408.30 1.984
408.40 1.976
408.50 1.968
408.60 1.96
408.70 1.952
408.80 1.943
408.90 1.934
409.00 1.925
409.10 1.916
409.20 1.907
409.30 1.897
409.40 1.888
409.50 1.879
409.60 1.869
409.70 1.861
409.80 1.853
409.90 1.845
410.00 1.842
410.10 1.841
410.20 1.843
410.30 1.838
410.40 1.837
410.50 1.839
410.60 1.843
410.70 1.849
410.80 1.855
410.90 1.861
411.00 1.867
411.10 1.873
411.20 1.879
411.30 1.885
411.40 1.89
411.50 1.896
411.60 1.901
411.70 1.906
411.80 1.911
411.90 1.916
412.00 1.92
412.10 1.924
412.20 1.928
412.30 1.932
412.40 1.936
412.50 1.939
412.60 1.942
412.70 1.945
412.80 1.948
412.90 1.951
413.00 1.953
413.10 1.956
413.20 1.958
413.30 1.96
413.40 1.962
413.50 1.963
413.60 1.965
413.70 1.966
413.80 1.968
413.90 1.969
414.00 1.97
414.10 1.971
414.20 1.972
414.30 1.972
414.40 1.973
414.50 1.973
414.60 1.974
414.70 1.974
414.80 1.974
414.90 1.975
415.00 1.975
415.10 1.975
415.20 1.975
415.30 1.974
415.40 1.974
415.50 1.974
415.60 1.974
415.70 1.973
415.80 1.973
415.90 1.972
416.00 1.972
416.10 1.971
416.20 1.97
416.30 1.97
416.40 1.969
416.50 1.968
416.60 1.967
416.70 1.967
416.80 1.966
416.90 1.965
417.00 1.964
417.10 1.963
417.20 1.962
417.30 1.961
417.40 1.96
417.50 1.958
417.60 1.957
417.70 1.956
417.80 1.955
417.90 1.954
418.00 1.953
418.10 1.951
418.20 1.95
418.30 1.949
418.40 1.947
418.50 1.946
418.60 1.945
418.70 1.943
418.80 1.942
418.90 1.941
419.00 1.939
419.10 1.938
419.20 1.936
419.30 1.935
419.40 1.934
419.50 1.932
419.60 1.931
419.70 1.929
419.80 1.928
419.90 1.926
420.00 1.925
420.10 1.923
420.20 1.922
420.30 1.92
420.40 1.918
420.50 1.917
420.60 1.915
420.70 1.914
420.80 1.912
420.90 1.911
421.00 1.909
421.10 1.907
421.20 1.906
421.30 1.904
421.40 1.902
421.50 1.901
421.60 1.899
421.70 1.897
421.80 1.896
421.90 1.894
422.00 1.892
422.10 1.891
422.20 1.889
422.30 1.887
422.40 1.886
422.50 1.884
422.60 1.882
422.70 1.881
422.80 1.879
422.90 1.877
423.00 1.875
423.10 1.874
423.20 1.872
423.30 1.87
423.40 1.868
423.50 1.866
423.60 1.865
423.70 1.863
423.80 1.861
423.90 1.859
424.00 1.857
424.10 1.856
424.20 1.854
424.30 1.852
424.40 1.85
424.50 1.848
424.60 1.846
424.70 1.844
424.80 1.842
424.90 1.84
425.00 1.839
425.10 1.837
425.20 1.835
425.30 1.833
425.40 1.831
425.50 1.829
425.60 1.827
425.70 1.825
425.80 1.823
425.90 1.821
426.00 1.818
426.10 1.816
426.20 1.814
426.30 1.812
426.40 1.81
426.50 1.808
426.60 1.806
426.70 1.803
426.80 1.801
426.90 1.799
427.00 1.797
427.10 1.794
427.20 1.792
427.30 1.789
427.40 1.787
427.50 1.785
427.60 1.782
427.70 1.78
427.80 1.777
427.90 1.774
428.00 1.772
428.10 1.769
428.20 1.766
428.30 1.764
428.40 1.761
428.50 1.758
428.60 1.755
428.70 1.752
428.80 1.749
428.90 1.746
429.00 1.743
429.10 1.739
429.20 1.736
429.30 1.733
429.40 1.729
429.50 1.726
429.60 1.722
429.70 1.718
429.80 1.714
429.90 1.71
430.00 1.706
430.10 1.702
430.20 1.698
430.30 1.694
430.40 1.689
430.50 1.684
430.60 1.68
430.70 1.675
430.80 1.67
430.90 1.665
431.00 1.659
431.10 1.654
431.20 1.648
431.30 1.642
431.40 1.636
431.50 1.63
431.60 1.623
431.70 1.616
431.80 1.61
431.90 1.602
432.00 1.595
432.10 1.588
432.20 1.58
432.30 1.572
432.40 1.564
432.50 1.555
432.60 1.546
432.70 1.537
432.80 1.528
432.90 1.519
433.00 1.51
433.10 1.5
433.20 1.49
433.30 1.48
433.40 1.471
433.50 1.461
433.60 1.452
433.70 1.443
433.80 1.434
433.90 1.425
434.00 1.417
434.10 1.416
434.20 1.422
434.30 1.429
434.40 1.435
434.50 1.442
434.60 1.449
434.70 1.456
434.80 1.463
434.90 1.47
435.00 1.478
435.10 1.485
435.20 1.492
435.30 1.498
435.40 1.505
435.50 1.511
435.60 1.517
435.70 1.523
435.80 1.528
435.90 1.533
436.00 1.538
436.10 1.543
436.20 1.547
436.30 1.552
436.40 1.556
436.50 1.56
436.60 1.563
436.70 1.566
436.80 1.57
436.90 1.573
437.00 1.575
437.10 1.578
437.20 1.58
437.30 1.583
437.40 1.585
437.50 1.587
437.60 1.588
437.70 1.59
437.80 1.592
437.90 1.593
438.00 1.594
438.10 1.595
438.20 1.596
438.30 1.597
438.40 1.598
438.50 1.599
438.60 1.599
438.70 1.6
438.80 1.6
438.90 1.601
439.00 1.601
439.10 1.601
439.20 1.601
439.30 1.601
439.40 1.601
439.50 1.601
439.60 1.601
439.70 1.601
439.80 1.601
439.90 1.601
440.00 1.6
440.10 1.6
440.20 1.6
440.30 1.599
440.40 1.599
440.50 1.598
440.60 1.598
440.70 1.597
440.80 1.596
440.90 1.596
441.00 1.595
441.10 1.594
441.20 1.594
441.30 1.593
441.40 1.592
441.50 1.591
441.60 1.591
441.70 1.59
441.80 1.589
441.90 1.588
442.00 1.587
442.10 1.586
442.20 1.585
442.30 1.584
442.40 1.583
442.50 1.582
442.60 1.581
442.70 1.58
442.80 1.579
442.90 1.578
443.00 1.577
443.10 1.576
443.20 1.575
443.30 1.574
443.40 1.573
443.50 1.572
443.60 1.571
443.70 1.57
443.80 1.569
443.90 1.568
444.00 1.567
444.10 1.566
444.20 1.564
444.30 1.563
444.40 1.562
444.50 1.561
444.60 1.56
444.70 1.559
444.80 1.558
444.90 1.556
445.00 1.555
445.10 1.554
445.20 1.553
445.30 1.552
445.40 1.551
445.50 1.549
445.60 1.548
445.70 1.547
445.80 1.546
445.90 1.545
446.00 1.543
446.10 1.542
446.20 1.541
446.30 1.54
446.40 1.539
446.50 1.538
446.60 1.536
446.70 1.535
446.80 1.534
446.90 1.533
447.00 1.531
447.10 1.53
447.20 1.529
447.30 1.528
447.40 1.527
447.50 1.525
447.60 1.524
447.70 1.523
447.80 1.522
447.90 1.521
448.00 1.519
448.10 1.518
448.20 1.517
448.30 1.516
448.40 1.514
448.50 1.513
448.60 1.512
448.70 1.511
448.80 1.51
448.90 1.508
449.00 1.507
449.10 1.506
449.20 1.505
449.30 1.503
449.40 1.502
449.50 1.501
449.60 1.5
449.70 1.499
449.80 1.497
449.90 1.496
450.00 1.495
450.10 1.494
450.20 1.492
450.30 1.491
450.40 1.49
450.50 1.489
450.60 1.488
450.70 1.486
450.80 1.485
450.90 1.484
451.00 1.483
451.10 1.481
451.20 1.48
451.30 1.479
451.40 1.478
451.50 1.477
451.60 1.475
451.70 1.474
451.80 1.473
451.90 1.472
452.00 1.47
452.10 1.469
452.20 1.468
452.30 1.467
452.40 1.466
452.50 1.464
452.60 1.463
452.70 1.462
452.80 1.461
452.90 1.46
453.00 1.458
453.10 1.457
453.20 1.456
453.30 1.455
453.40 1.454
453.50 1.452
453.60 1.451
453.70 1.45
453.80 1.449
453.90 1.448
454.00 1.446
454.10 1.445
454.20 1.444
454.30 1.443
454.40 1.442
454.50 1.44
454.60 1.439
454.70 1.438
454.80 1.437
454.90 1.436
455.00 1.434
455.10 1.433
455.20 1.432
455.30 1.431
455.40 1.43
455.50 1.429
455.60 1.427
455.70 1.426
455.80 1.425
455.90 1.424
456.00 1.423
456.10 1.421
456.20 1.42
456.30 1.419
456.40 1.418
456.50 1.417
456.60 1.416
456.70 1.414
456.80 1.413
456.90 1.412
457.00 1.411
457.10 1.41
457.20 1.409
457.30 1.407
457.40 1.406
457.50 1.405
457.60 1.404
457.70 1.403
457.80 1.402
457.90 1.4
458.00 1.399
458.10 1.398
458.20 1.397
458.30 1.396
458.40 1.395
458.50 1.393
458.60 1.392
458.70 1.391
458.80 1.39
458.90 1.389
459.00 1.388
459.10 1.386
459.20 1.385
459.30 1.384
459.40 1.383
459.50 1.382
459.60 1.381
459.70 1.38
459.80 1.378
459.90 1.377
460.00 1.376
460.10 1.375
460.20 1.374
460.30 1.373
460.40 1.372
460.50 1.37
460.60 1.369
460.70 1.368
460.80 1.367
460.90 1.366
461.00 1.365
461.10 1.364
461.20 1.363
461.30 1.361
461.40 1.36
461.50 1.359
461.60 1.358
461.70 1.357
461.80 1.356
461.90 1.355
462.00 1.354
462.10 1.352
462.20 1.351
462.30 1.35
462.40 1.349
462.50 1.348
462.60 1.347
462.70 1.346
462.80 1.345
462.90 1.343
463.00 1.342
463.10 1.341
463.20 1.34
463.30 1.339
463.40 1.338
463.50 1.337
463.60 1.336
463.70 1.335
463.80 1.333
463.90 1.332
464.00 1.331
464.10 1.33
464.20 1.329
464.30 1.328
464.40 1.327
464.50 1.326
464.60 1.325
464.70 1.324
464.80 1.322
464.90 1.321
465.00 1.32
465.10 1.319
465.20 1.318
465.30 1.317
465.40 1.316
465.50 1.315
465.60 1.314
465.70 1.313
465.80 1.311
465.90 1.31
466.00 1.309
466.10 1.308
466.20 1.307
466.30 1.306
466.40 1.305
466.50 1.304
466.60 1.303
466.70 1.302
466.80 1.301
466.90 1.3
467.00 1.298
467.10 1.297
467.20 1.296
467.30 1.295
467.40 1.294
467.50 1.293
467.60 1.292
467.70 1.291
467.80 1.29
467.90 1.289
468.00 1.288
468.10 1.287
468.20 1.286
468.30 1.284
468.40 1.283
468.50 1.282
468.60 1.281
468.70 1.28
468.80 1.279
468.90 1.278
469.00 1.277
469.10 1.276
469.20 1.275
469.30 1.274
469.40 1.273
469.50 1.272
469.60 1.27
469.70 1.269
469.80 1.268
469.90 1.267
470.00 1.266
470.10 1.265
470.20 1.264
470.30 1.263
470.40 1.262
470.50 1.261
470.60 1.26
470.70 1.259
470.80 1.258
470.90 1.257
471.00 1.256
471.10 1.254
471.20 1.253
471.30 1.252
471.40 1.251
471.50 1.25
471.60 1.249
471.70 1.248
471.80 1.247
471.90 1.246
472.00 1.245
472.10 1.244
472.20 1.243
472.30 1.242
472.40 1.241
472.50 1.239
472.60 1.238
472.70 1.237
472.80 1.236
472.90 1.235
473.00 1.234
473.10 1.233
473.20 1.232
473.30 1.231
473.40 1.23
473.50 1.229
473.60 1.228
473.70 1.226
473.80 1.225
473.90 1.224
474.00 1.223
474.10 1.222
474.20 1.221
474.30 1.22
474.40 1.219
474.50 1.218
474.60 1.217
474.70 1.216
474.80 1.214
474.90 1.213
475.00 1.212
475.10 1.211
475.20 1.21
475.30 1.209
475.40 1.208
475.50 1.207
475.60 1.205
475.70 1.204
475.80 1.203
475.90 1.202
476.00 1.201
476.10 1.2
476.20 1.199
476.30 1.197
476.40 1.196
476.50 1.195
476.60 1.194
476.70 1.193
476.80 1.192
476.90 1.19
477.00 1.189
477.10 1.188
477.20 1.187
477.30 1.186
477.40 1.184
477.50 1.183
477.60 1.182
477.70 1.181
477.80 1.179
477.90 1.178
478.00 1.177
478.10 1.176
478.20 1.174
478.30 1.173
478.40 1.171
478.50 1.17
478.60 1.169
478.70 1.167
478.80 1.166
478.90 1.165
479.00 1.163
479.10 1.162
479.20 1.161
479.30 1.159
479.40 1.157
479.50 1.156
479.60 1.154
479.70 1.153
479.80 1.151
479.90 1.15
480.00 1.148
480.10 1.147
480.20 1.145
480.30 1.143
480.40 1.141
480.50 1.139
480.60 1.138
480.70 1.136
480.80 1.134
480.90 1.132
481.00 1.13
481.10 1.129
481.20 1.126
481.30 1.124
481.40 1.122
481.50 1.12
481.60 1.117
481.70 1.115
481.80 1.113
481.90 1.111
482.00 1.108
482.10 1.106
482.20 1.103
482.30 1.1
482.40 1.097
482.50 1.094
482.60 1.091
482.70 1.088
482.80 1.085
482.90 1.082
483.00 1.08
483.10 1.077
483.20 1.073
483.30 1.069
483.40 1.065
483.50 1.061
483.60 1.057
483.70 1.052
483.80 1.048
483.90 1.044
484.00 1.04
484.10 1.036
484.20 1.031
484.30 1.026
484.40 1.021
484.50 1.016
484.60 1.011
484.70 1.005
484.80 0.9993
484.90 0.9934
485.00 0.9876
485.10 0.9817
485.20 0.9755
485.30 0.9691
485.40 0.9627
485.50 0.9562
485.60 0.9499
485.70 0.9435
485.80 0.9377
485.90 0.9322
486.00 0.9289
486.10 0.939
486.20 0.9321
486.30 0.927
486.40 0.9305
486.50 0.9346
486.60 0.9393
486.70 0.9442
486.80 0.9492
486.90 0.9541
487.00 0.959
487.10 0.9639
487.20 0.9684
487.30 0.9727
487.40 0.9771
487.50 0.9814
487.60 0.9858
487.70 0.9896
487.80 0.9931
487.90 0.9966
488.00 1
488.10 1.004
488.20 1.006
488.30 1.009
488.40 1.011
488.50 1.013
488.60 1.016
488.70 1.018
488.80 1.021
488.90 1.023
489.00 1.025
489.10 1.028
489.20 1.029
489.30 1.03
489.40 1.032
489.50 1.033
489.60 1.034
489.70 1.035
489.80 1.036
489.90 1.038
490.00 1.039
490.10 1.04
490.20 1.041
490.30 1.041
490.40 1.042
490.50 1.042
490.60 1.043
490.70 1.043
490.80 1.044
490.90 1.044
491.00 1.045
491.10 1.045
491.20 1.045
491.30 1.045
491.40 1.045
491.50 1.045
491.60 1.045
491.70 1.045
491.80 1.045
491.90 1.045
492.00 1.045
492.10 1.045
492.20 1.045
492.30 1.045
492.40 1.045
492.50 1.044
492.60 1.044
492.70 1.044
492.80 1.043
492.90 1.043
493.00 1.043
493.10 1.043
493.20 1.042
493.30 1.042
493.40 1.041
493.50 1.041
493.60 1.041
493.70 1.04
493.80 1.04
493.90 1.039
494.00 1.039
494.10 1.038
494.20 1.038
494.30 1.037
494.40 1.037
494.50 1.036
494.60 1.036
494.70 1.035
494.80 1.035
494.90 1.034
495.00 1.033
495.10 1.033
495.20 1.032
495.30 1.032
495.40 1.031
495.50 1.03
495.60 1.03
495.70 1.029
495.80 1.029
495.90 1.028
496.00 1.027
496.10 1.027
496.20 1.026
496.30 1.025
496.40 1.025
496.50 1.024
496.60 1.023
496.70 1.023
496.80 1.022
496.90 1.022
497.00 1.021
497.10 1.02
497.20 1.02
497.30 1.019
497.40 1.018
497.50 1.017
497.60 1.017
497.70 1.016
497.80 1.015
497.90 1.015
498.00 1.014
498.10 1.013
498.20 1.013
498.30 1.012
498.40 1.011
498.50 1.011
498.60 1.01
498.70 1.009
498.80 1.008
498.90 1.008
499.00 1.007
499.10 1.006
499.20 1.006
499.30 1.005
499.40 1.004
499.50 1.004
499.60 1.003
499.70 1.002
499.80 1.001
499.90 1.001
500.00 1
500.10 0.9993
500.20 0.9986
500.30 0.9979
500.40 0.9971
500.50 0.9964
500.60 0.9957
500.70 0.995
500.80 0.9943
500.90 0.9936
501.00 0.9928
501.10 0.9921
501.20 0.9914
501.30 0.9907
501.40 0.99
501.50 0.9893
501.60 0.9885
501.70 0.9878
501.80 0.9871
501.90 0.9864
502.00 0.9857
502.10 0.985
502.20 0.9842
502.30 0.9835
502.40 0.9828
502.50 0.9821
502.60 0.9814
502.70 0.9806
502.80 0.9799
502.90 0.9792
503.00 0.9785
503.10 0.9778
503.20 0.9771
503.30 0.9763
503.40 0.9756
503.50 0.9749
503.60 0.9742
503.70 0.9735
503.80 0.9728
503.90 0.972
504.00 0.9713
504.10 0.9706
504.20 0.9699
504.30 0.9692
504.40 0.9685
504.50 0.9678
504.60 0.967
504.70 0.9663
504.80 0.9656
504.90 0.9649
505.00 0.9642
505.10 0.9635
505.20 0.9628
505.30 0.9621
505.40 0.9613
505.50 0.9606
505.60 0.9599
505.70 0.9592
505.80 0.9585
505.90 0.9578
506.00 0.9571
506.10 0.9564
506.20 0.9557
506.30 0.955
506.40 0.9543
506.50 0.9535
506.60 0.9528
506.70 0.9521
506.80 0.9514
506.90 0.9507
507.00 0.95
507.10 0.9493
507.20 0.9486
507.30 0.9479
507.40 0.9472
507.50 0.9465
507.60 0.9458
507.70 0.9451
507.80 0.9444
507.90 0.9437
508.00 0.943
508.10 0.9423
508.20 0.9416
508.30 0.9409
508.40 0.9402
508.50 0.9395
508.60 0.9388
508.70 0.9381
508.80 0.9374
508.90 0.9367
509.00 0.936
509.10 0.9353
509.20 0.9346
509.30 0.934
509.40 0.9333
509.50 0.9326
509.60 0.9319
509.70 0.9312
509.80 0.9305
509.90 0.9298
510.00 0.9291
510.10 0.9284
510.20 0.9277
510.30 0.9271
510.40 0.9264
510.50 0.9257
510.60 0.925
510.70 0.9243
510.80 0.9236
510.90 0.9229
511.00 0.9223
511.10 0.9216
511.20 0.9209
511.30 0.9202
511.40 0.9195
511.50 0.9188
511.60 0.9182
511.70 0.9175
511.80 0.9168
511.90 0.9161
512.00 0.9154
512.10 0.9148
512.20 0.9141
512.30 0.9134
512.40 0.9127
512.50 0.9121
512.60 0.9114
512.70 0.9107
512.80 0.91
512.90 0.9094
513.00 0.9087
513.10 0.908
513.20 0.9073
513.30 0.9067
513.40 0.906
513.50 0.9053
513.60 0.9047
513.70 0.904
513.80 0.9033
513.90 0.9027
514.00 0.902
514.10 0.9013
514.20 0.9007
514.30 0.9
514.40 0.8993
514.50 0.8987
514.60 0.898
514.70 0.8973
514.80 0.8967
514.90 0.896
515.00 0.8954
515.10 0.8947
515.20 0.894
515.30 0.8934
515.40 0.8927
515.50 0.8921
515.60 0.8914
515.70 0.8907
515.80 0.8901
515.90 0.8894
516.00 0.8888
516.10 0.8881
516.20 0.8875
516.30 0.8868
516.40 0.8862
516.50 0.8855
516.60 0.8849
516.70 0.8842
516.80 0.8835
516.90 0.8829
517.00 0.8822
517.10 0.8816
517.20 0.8809
517.30 0.8803
517.40 0.8797
517.50 0.879
517.60 0.8784
517.70 0.8777
517.80 0.8771
517.90 0.8764
518.00 0.8758
518.10 0.8751
518.20 0.8745
518.30 0.8739
518.40 0.8732
518.50 0.8726
518.60 0.8719
518.70 0.8713
518.80 0.8706
518.90 0.87
519.00 0.8694
519.10 0.8687
519.20 0.8681
519.30 0.8675
519.40 0.8668
519.50 0.8662
519.60 0.8655
519.70 0.8649
519.80 0.8643
519.90 0.8636
520.00 0.863
520.10 0.8624
520.20 0.8617
520.30 0.8611
520.40 0.8605
520.50 0.8599
520.60 0.8592
520.70 0.8586
520.80 0.858
520.90 0.8573
521.00 0.8567
521.10 0.8561
521.20 0.8555
521.30 0.8548
521.40 0.8542
521.50 0.8536
521.60 0.853
521.70 0.8523
521.80 0.8517
521.90 0.8511
522.00 0.8505
522.10 0.8498
522.20 0.8492
522.30 0.8486
522.40 0.848
522.50 0.8474
522.60 0.8468
522.70 0.8461
522.80 0.8455
522.90 0.8449
523.00 0.8443
523.10 0.8437
523.20 0.8431
523.30 0.8424
523.40 0.8418
523.50 0.8412
523.60 0.8406
523.70 0.84
523.80 0.8394
523.90 0.8388
524.00 0.8381
524.10 0.8375
524.20 0.8369
524.30 0.8363
524.40 0.8357
524.50 0.8351
524.60 0.8345
524.70 0.8339
524.80 0.8333
524.90 0.8327
525.00 0.8321
525.10 0.8315
525.20 0.8309
525.30 0.8303
525.40 0.8297
525.50 0.8291
525.60 0.8284
525.70 0.8278
525.80 0.8272
525.90 0.8266
526.00 0.826
526.10 0.8254
526.20 0.8248
526.30 0.8242
526.40 0.8236
526.50 0.8231
526.60 0.8225
526.70 0.8219
526.80 0.8213
526.90 0.8207
527.00 0.8201
527.10 0.8195
527.20 0.8189
527.30 0.8183
527.40 0.8177
527.50 0.8171
527.60 0.8165
527.70 0.8159
527.80 0.8153
527.90 0.8147
528.00 0.8142
528.10 0.8136
528.20 0.813
528.30 0.8124
528.40 0.8118
528.50 0.8112
528.60 0.8106
528.70 0.81
528.80 0.8095
528.90 0.8089
529.00 0.8083
529.10 0.8077
529.20 0.8071
529.30 0.8065
529.40 0.806
529.50 0.8054
529.60 0.8048
529.70 0.8042
529.80 0.8036
529.90 0.8031
530.00 0.8025
530.10 0.8019
530.20 0.8013
530.30 0.8007
530.40 0.8002
530.50 0.7996
530.60 0.799
530.70 0.7984
530.80 0.7979
530.90 0.7973
531.00 0.7967
531.10 0.7961
531.20 0.7956
531.30 0.795
531.40 0.7944
531.50 0.7939
531.60 0.7933
531.70 0.7927
531.80 0.7921
531.90 0.7916
532.00 0.791
532.10 0.7904
532.20 0.7899
532.30 0.7893
532.40 0.7887
532.50 0.7882
532.60 0.7876
532.70 0.787
532.80 0.7865
532.90 0.7859
533.00 0.7853
533.10 0.7848
533.20 0.7842
533.30 0.7837
533.40 0.7831
533.50 0.7825
533.60 0.782
533.70 0.7814
533.80 0.7809
533.90 0.7803
534.00 0.7797
534.10 0.7792
534.20 0.7786
534.30 0.7781
534.40 0.7775
534.50 0.777
534.60 0.7764
534.70 0.7758
534.80 0.7753
534.90 0.7747
535.00 0.7742
535.10 0.7736
535.20 0.7731
535.30 0.7725
535.40 0.772
535.50 0.7714
535.60 0.7709
535.70 0.7703
535.80 0.7698
535.90 0.7692
536.00 0.7687
536.10 0.7681
536.20 0.7676
536.30 0.767
536.40 0.7665
536.50 0.7659
536.60 0.7654
536.70 0.7648
536.80 0.7643
536.90 0.7638
537.00 0.7632
537.10 0.7627
537.20 0.7621
537.30 0.7616
537.40 0.761
537.50 0.7605
537.60 0.76
537.70 0.7594
537.80 0.7589
537.90 0.7583
538.00 0.7578
538.10 0.7573
538.20 0.7567
538.30 0.7562
538.40 0.7556
538.50 0.7551
538.60 0.7546
538.70 0.754
538.80 0.7535
538.90 0.753
539.00 0.7524
539.10 0.7519
539.20 0.7514
539.30 0.7508
539.40 0.7503
539.50 0.7498
539.60 0.7492
539.70 0.7487
539.80 0.7482
539.90 0.7476
540.00 0.7471
540.10 0.7466
540.20 0.7461
540.30 0.7455
540.40 0.745
540.50 0.7445
540.60 0.7439
540.70 0.7434
540.80 0.7429
540.90 0.7424
541.00 0.7418
541.10 0.7413
541.20 0.7408
541.30 0.7403
541.40 0.7397
541.50 0.7392
541.60 0.7387
541.70 0.7382
541.80 0.7377
541.90 0.7371
542.00 0.7366
542.10 0.7361
542.20 0.7356
542.30 0.7351
542.40 0.7345
542.50 0.734
542.60 0.7335
542.70 0.733
542.80 0.7325
542.90 0.7319
543.00 0.7314
543.10 0.7309
543.20 0.7304
543.30 0.7299
543.40 0.7294
543.50 0.7289
543.60 0.7283
543.70 0.7278
543.80 0.7273
543.90 0.7268
544.00 0.7263
544.10 0.7258
544.20 0.7253
544.30 0.7248
544.40 0.7243
544.50 0.7238
544.60 0.7232
544.70 0.7227
544.80 0.7222
544.90 0.7217
545.00 0.7212
545.10 0.7207
545.20 0.7202
545.30 0.7197
545.40 0.7192
545.50 0.7187
545.60 0.7182
545.70 0.7177
545.80 0.7172
545.90 0.7167
546.00 0.7162
546.10 0.7157
546.20 0.7152
546.30 0.7147
546.40 0.7142
546.50 0.7137
546.60 0.7132
546.70 0.7127
546.80 0.7122
546.90 0.7117
547.00 0.7112
547.10 0.7107
547.20 0.7102
547.30 0.7097
547.40 0.7092
547.50 0.7087
547.60 0.7082
547.70 0.7077
547.80 0.7072
547.90 0.7067
548.00 0.7062
548.10 0.7057
548.20 0.7052
548.30 0.7047
548.40 0.7042
548.50 0.7037
548.60 0.7033
548.70 0.7028
548.80 0.7023
548.90 0.7018
549.00 0.7013
549.10 0.7008
549.20 0.7003
549.30 0.6998
549.40 0.6993
549.50 0.6989
549.60 0.6984
549.70 0.6979
549.80 0.6974
549.90 0.6969
550.00 0.6964
550.10 0.6959
550.20 0.6955
550.30 0.695
550.40 0.6945
550.50 0.694
550.60 0.6935
550.70 0.693
550.80 0.6926
550.90 0.6921
551.00 0.6916
551.10 0.6911
551.20 0.6906
551.30 0.6902
551.40 0.6897
551.50 0.6892
551.60 0.6887
551.70 0.6882
551.80 0.6878
551.90 0.6873
552.00 0.6868
552.10 0.6863
552.20 0.6859
552.30 0.6854
552.40 0.6849
552.50 0.6844
552.60 0.684
552.70 0.6835
552.80 0.683
552.90 0.6825
553.00 0.6821
553.10 0.6816
553.20 0.6811
553.30 0.6806
553.40 0.6802
553.50 0.6797
553.60 0.6792
553.70 0.6788
553.80 0.6783
553.90 0.6778
554.00 0.6774
554.10 0.6769
554.20 0.6764
554.30 0.676
554.40 0.6755
554.50 0.675
554.60 0.6746
554.70 0.6741
554.80 0.6736
554.90 0.6732
555.00 0.6727
555.10 0.6722
555.20 0.6718
555.30 0.6713
555.40 0.6708
555.50 0.6704
555.60 0.6699
555.70 0.6694
555.80 0.669
555.90 0.6685
556.00 0.6681
556.10 0.6676
556.20 0.6671
556.30 0.6667
556.40 0.6662
556.50 0.6658
556.60 0.6653
556.70 0.6649
556.80 0.6644
556.90 0.6639
557.00 0.6635
557.10 0.663
557.20 0.6626
557.30 0.6621
557.40 0.6617
557.50 0.6612
557.60 0.6607
557.70 0.6603
557.80 0.6598
557.90 0.6594
558.00 0.6589
558.10 0.6585
558.20 0.658
558.30 0.6576
558.40 0.6571
558.50 0.6567
558.60 0.6562
558.70 0.6558
558.80 0.6553
558.90 0.6549
559.00 0.6544
559.10 0.654
559.20 0.6535
559.30 0.6531
559.40 0.6526
559.50 0.6522
559.60 0.6517
559.70 0.6513
559.80 0.6509
559.90 0.6504
560.00 0.65
560.10 0.6495
560.20 0.6491
560.30 0.6486
560.40 0.6482
560.50 0.6477
560.60 0.6473
560.70 0.6469
560.80 0.6464
560.90 0.646
561.00 0.6455
561.10 0.6451
561.20 0.6446
561.30 0.6442
561.40 0.6438
561.50 0.6433
561.60 0.6429
561.70 0.6425
561.80 0.642
561.90 0.6416
562.00 0.6411
562.10 0.6407
562.20 0.6403
562.30 0.6398
562.40 0.6394
562.50 0.639
562.60 0.6385
562.70 0.6381
562.80 0.6377
562.90 0.6372
563.00 0.6368
563.10 0.6363
563.20 0.6359
563.30 0.6355
563.40 0.6351
563.50 0.6346
563.60 0.6342
563.70 0.6338
563.80 0.6333
563.90 0.6329
564.00 0.6325
564.10 0.632
564.20 0.6316
564.30 0.6312
564.40 0.6307
564.50 0.6303
564.60 0.6299
564.70 0.6295
564.80 0.629
564.90 0.6286
565.00 0.6282
565.10 0.6278
565.20 0.6273
565.30 0.6269
565.40 0.6265
565.50 0.6261
565.60 0.6256
565.70 0.6252
565.80 0.6248
565.90 0.6244
566.00 0.6239
566.10 0.6235
566.20 0.6231
566.30 0.6227
566.40 0.6222
566.50 0.6218
566.60 0.6214
566.70 0.621
566.80 0.6206
566.90 0.6201
567.00 0.6197
567.10 0.6193
567.20 0.6189
567.30 0.6185
567.40 0.6181
567.50 0.6176
567.60 0.6172
567.70 0.6168
567.80 0.6164
567.90 0.616
568.00 0.6156
568.10 0.6151
568.20 0.6147
568.30 0.6143
568.40 0.6139
568.50 0.6135
568.60 0.6131
568.70 0.6127
568.80 0.6122
568.90 0.6118
569.00 0.6114
569.10 0.611
569.20 0.6106
569.30 0.6102
569.40 0.6098
569.50 0.6094
569.60 0.6089
569.70 0.6085
569.80 0.6081
569.90 0.6077
570.00 0.6073
570.10 0.6069
570.20 0.6065
570.30 0.6061
570.40 0.6057
570.50 0.6053
570.60 0.6049
570.70 0.6045
570.80 0.6041
570.90 0.6036
571.00 0.6032
571.10 0.6028
571.20 0.6024
571.30 0.602
571.40 0.6016
571.50 0.6012
571.60 0.6008
571.70 0.6004
571.80 0.6
571.90 0.5996
572.00 0.5992
572.10 0.5988
572.20 0.5984
572.30 0.598
572.40 0.5976
572.50 0.5972
572.60 0.5968
572.70 0.5964
572.80 0.596
572.90 0.5956
573.00 0.5952
573.10 0.5948
573.20 0.5944
573.30 0.594
573.40 0.5936
573.50 0.5932
573.60 0.5928
573.70 0.5924
573.80 0.592
573.90 0.5916
574.00 0.5912
574.10 0.5908
574.20 0.5904
574.30 0.59
574.40 0.5897
574.50 0.5893
574.60 0.5889
574.70 0.5885
574.80 0.5881
574.90 0.5877
575.00 0.5873
575.10 0.5869
575.20 0.5865
575.30 0.5861
575.40 0.5857
575.50 0.5853
575.60 0.585
575.70 0.5846
575.80 0.5842
575.90 0.5838
576.00 0.5834
576.10 0.583
576.20 0.5826
576.30 0.5822
576.40 0.5818
576.50 0.5815
576.60 0.5811
576.70 0.5807
576.80 0.5803
576.90 0.5799
577.00 0.5795
577.10 0.5791
577.20 0.5788
577.30 0.5784
577.40 0.578
577.50 0.5776
577.60 0.5772
577.70 0.5768
577.80 0.5765
577.90 0.5761
578.00 0.5757
578.10 0.5753
578.20 0.5749
578.30 0.5745
578.40 0.5742
578.50 0.5738
578.60 0.5734
578.70 0.573
578.80 0.5726
578.90 0.5723
579.00 0.5719
579.10 0.5715
579.20 0.5711
579.30 0.5707
579.40 0.5704
579.50 0.57
579.60 0.5696
579.70 0.5692
579.80 0.5689
579.90 0.5685
580.00 0.5681
580.10 0.5677
580.20 0.5674
580.30 0.567
580.40 0.5666
580.50 0.5662
580.60 0.5659
580.70 0.5655
580.80 0.5651
580.90 0.5647
581.00 0.5644
581.10 0.564
581.20 0.5636
581.30 0.5632
581.40 0.5629
581.50 0.5625
581.60 0.5621
581.70 0.5618
581.80 0.5614
581.90 0.561
582.00 0.5606
582.10 0.5603
582.20 0.5599
582.30 0.5595
582.40 0.5592
582.50 0.5588
582.60 0.5584
582.70 0.5581
582.80 0.5577
582.90 0.5573
583.00 0.557
583.10 0.5566
583.20 0.5562
583.30 0.5559
583.40 0.5555
583.50 0.5551
583.60 0.5548
583.70 0.5544
583.80 0.554
583.90 0.5537
584.00 0.5533
584.10 0.5529
584.20 0.5526
584.30 0.5522
584.40 0.5519
584.50 0.5515
584.60 0.5511
584.70 0.5508
584.80 0.5504
584.90 0.55
585.00 0.5497
585.10 0.5493
585.20 0.549
585.30 0.5486
585.40 0.5482
585.50 0.5479
585.60 0.5475
585.70 0.5472
585.80 0.5468
585.90 0.5465
586.00 0.5461
586.10 0.5457
586.20 0.5454
586.30 0.545
586.40 0.5447
586.50 0.5443
586.60 0.544
586.70 0.5436
586.80 0.5432
586.90 0.5429
587.00 0.5425
587.10 0.5422
587.20 0.5418
587.30 0.5415
587.40 0.5411
587.50 0.5408
587.60 0.5404
587.70 0.5401
587.80 0.5397
587.90 0.5393
588.00 0.539
588.10 0.5386
588.20 0.5383
588.30 0.5379
588.40 0.5376
588.50 0.5372
588.60 0.5369
588.70 0.5365
588.80 0.5362
588.90 0.5358
589.00 0.5355
589.10 0.5351
589.20 0.5348
589.30 0.5344
589.40 0.5341
589.50 0.5337
589.60 0.5334
589.70 0.533
589.80 0.5327
589.90 0.5324
590.00 0.532
590.10 0.5317
590.20 0.5313
590.30 0.531
590.40 0.5306
590.50 0.5303
590.60 0.5299
590.70 0.5296
590.80 0.5292
590.90 0.5289
591.00 0.5286
591.10 0.5282
591.20 0.5279
591.30 0.5275
591.40 0.5272
591.50 0.5268
591.60 0.5265
591.70 0.5262
591.80 0.5258
591.90 0.5255
592.00 0.5251
592.10 0.5248
592.20 0.5245
592.30 0.5241
592.40 0.5238
592.50 0.5234
592.60 0.5231
592.70 0.5228
592.80 0.5224
592.90 0.5221
593.00 0.5217
593.10 0.5214
593.20 0.5211
593.30 0.5207
593.40 0.5204
593.50 0.5201
593.60 0.5197
593.70 0.5194
593.80 0.519
593.90 0.5187
594.00 0.5184
594.10 0.518
594.20 0.5177
594.30 0.5174
594.40 0.517
594.50 0.5167
594.60 0.5164
594.70 0.516
594.80 0.5157
594.90 0.5154
595.00 0.515
595.10 0.5147
595.20 0.5144
595.30 0.514
595.40 0.5137
595.50 0.5134
595.60 0.513
595.70 0.5127
595.80 0.5124
595.90 0.5121
596.00 0.5117
596.10 0.5114
596.20 0.5111
596.30 0.5107
596.40 0.5104
596.50 0.5101
596.60 0.5097
596.70 0.5094
596.80 0.5091
596.90 0.5088
597.00 0.5084
597.10 0.5081
597.20 0.5078
597.30 0.5075
597.40 0.5071
597.50 0.5068
597.60 0.5065
597.70 0.5062
597.80 0.5058
597.90 0.5055
598.00 0.5052
598.10 0.5048
598.20 0.5045
598.30 0.5042
598.40 0.5039
598.50 0.5036
598.60 0.5032
598.70 0.5029
598.80 0.5026
598.90 0.5023
599.00 0.5019
599.10 0.5016
599.20 0.5013
599.30 0.501
599.40 0.5007
599.50 0.5003
599.60 0.5
599.70 0.4997
599.80 0.4994
599.90 0.4991
600.00 0.4987
600.10 0.4984
600.20 0.4981
600.30 0.4978
600.40 0.4975
600.50 0.4971
600.60 0.4968
600.70 0.4965
600.80 0.4962
600.90 0.4959
601.00 0.4955
601.10 0.4952
601.20 0.4949
601.30 0.4946
601.40 0.4943
601.50 0.494
601.60 0.4937
601.70 0.4933
601.80 0.493
601.90 0.4927
602.00 0.4924
602.10 0.4921
602.20 0.4918
602.30 0.4914
602.40 0.4911
602.50 0.4908
602.60 0.4905
602.70 0.4902
602.80 0.4899
602.90 0.4896
603.00 0.4893
603.10 0.4889
603.20 0.4886
603.30 0.4883
603.40 0.488
603.50 0.4877
603.60 0.4874
603.70 0.4871
603.80 0.4868
603.90 0.4865
604.00 0.4861
604.10 0.4858
604.20 0.4855
604.30 0.4852
604.40 0.4849
604.50 0.4846
604.60 0.4843
604.70 0.484
604.80 0.4837
604.90 0.4834
605.00 0.4831
605.10 0.4828
605.20 0.4825
605.30 0.4821
605.40 0.4818
605.50 0.4815
605.60 0.4812
605.70 0.4809
605.80 0.4806
605.90 0.4803
606.00 0.48
606.10 0.4797
606.20 0.4794
606.30 0.4791
606.40 0.4788
606.50 0.4785
606.60 0.4782
606.70 0.4779
606.80 0.4776
606.90 0.4773
607.00 0.477
607.10 0.4767
607.20 0.4764
607.30 0.4761
607.40 0.4758
607.50 0.4755
607.60 0.4752
607.70 0.4749
607.80 0.4746
607.90 0.4743
608.00 0.474
608.10 0.4737
608.20 0.4734
608.30 0.4731
608.40 0.4728
608.50 0.4725
608.60 0.4722
608.70 0.4719
608.80 0.4716
608.90 0.4713
609.00 0.471
609.10 0.4707
609.20 0.4704
609.30 0.4701
609.40 0.4698
609.50 0.4695
609.60 0.4692
609.70 0.4689
609.80 0.4686
609.90 0.4683
610.00 0.468
610.10 0.4677
610.20 0.4674
610.30 0.4671
610.40 0.4668
610.50 0.4665
610.60 0.4662
610.70 0.4659
610.80 0.4657
610.90 0.4654
611.00 0.4651
611.10 0.4648
611.20 0.4645
611.30 0.4642
611.40 0.4639
611.50 0.4636
611.60 0.4633
611.70 0.463
611.80 0.4627
611.90 0.4624
612.00 0.4621
612.10 0.4619
612.20 0.4616
612.30 0.4613
612.40 0.461
612.50 0.4607
612.60 0.4604
612.70 0.4601
612.80 0.4598
612.90 0.4595
613.00 0.4593
613.10 0.459
613.20 0.4587
613.30 0.4584
613.40 0.4581
613.50 0.4578
613.60 0.4575
613.70 0.4572
613.80 0.4569
613.90 0.4567
614.00 0.4564
614.10 0.4561
614.20 0.4558
614.30 0.4555
614.40 0.4552
614.50 0.4549
614.60 0.4547
614.70 0.4544
614.80 0.4541
614.90 0.4538
615.00 0.4535
615.10 0.4532
615.20 0.453
615.30 0.4527
615.40 0.4524
615.50 0.4521
615.60 0.4518
615.70 0.4515
615.80 0.4513
615.90 0.451
616.00 0.4507
616.10 0.4504
616.20 0.4501
616.30 0.4498
616.40 0.4496
616.50 0.4493
616.60 0.449
616.70 0.4487
616.80 0.4484
616.90 0.4482
617.00 0.4479
617.10 0.4476
617.20 0.4473
617.30 0.447
617.40 0.4468
617.50 0.4465
617.60 0.4462
617.70 0.4459
617.80 0.4457
617.90 0.4454
618.00 0.4451
618.10 0.4448
618.20 0.4445
618.30 0.4443
618.40 0.444
618.50 0.4437
618.60 0.4434
618.70 0.4432
618.80 0.4429
618.90 0.4426
619.00 0.4423
619.10 0.4421
619.20 0.4418
619.30 0.4415
619.40 0.4412
619.50 0.441
619.60 0.4407
619.70 0.4404
619.80 0.4401
619.90 0.4399
620.00 0.4396
620.10 0.4393
620.20 0.439
620.30 0.4388
620.40 0.4385
620.50 0.4382
620.60 0.4379
620.70 0.4377
620.80 0.4374
620.90 0.4371
621.00 0.4369
621.10 0.4366
621.20 0.4363
621.30 0.436
621.40 0.4358
621.50 0.4355
621.60 0.4352
621.70 0.435
621.80 0.4347
621.90 0.4344
622.00 0.4342
622.10 0.4339
622.20 0.4336
622.30 0.4333
622.40 0.4331
622.50 0.4328
622.60 0.4325
622.70 0.4323
622.80 0.432
622.90 0.4317
623.00 0.4315
623.10 0.4312
623.20 0.4309
623.30 0.4307
623.40 0.4304
623.50 0.4301
623.60 0.4299
623.70 0.4296
623.80 0.4293
623.90 0.4291
624.00 0.4288
624.10 0.4285
624.20 0.4283
624.30 0.428
624.40 0.4277
624.50 0.4275
624.60 0.4272
624.70 0.427
624.80 0.4267
624.90 0.4264
625.00 0.4262
625.10 0.4259
625.20 0.4256
625.30 0.4254
625.40 0.4251
625.50 0.4248
625.60 0.4246
625.70 0.4243
625.80 0.4241
625.90 0.4238
626.00 0.4235
626.10 0.4233
626.20 0.423
626.30 0.4228
626.40 0.4225
626.50 0.4222
626.60 0.422
626.70 0.4217
626.80 0.4214
626.90 0.4212
627.00 0.4209
627.10 0.4207
627.20 0.4204
627.30 0.4201
627.40 0.4199
627.50 0.4196
627.60 0.4194
627.70 0.4191
627.80 0.4189
627.90 0.4186
628.00 0.4183
628.10 0.4181
628.20 0.4178
628.30 0.4176
628.40 0.4173
628.50 0.4171
628.60 0.4168
628.70 0.4165
628.80 0.4163
628.90 0.416
629.00 0.4158
629.10 0.4155
629.20 0.4153
629.30 0.415
629.40 0.4147
629.50 0.4145
629.60 0.4142
629.70 0.414
629.80 0.4137
629.90 0.4135
630.00 0.4132
630.10 0.413
630.20 0.4127
630.30 0.4124
630.40 0.4122
630.50 0.4119
630.60 0.4117
630.70 0.4114
630.80 0.4112
630.90 0.4109
631.00 0.4107
631.10 0.4104
631.20 0.4102
631.30 0.4099
631.40 0.4097
631.50 0.4094
631.60 0.4092
631.70 0.4089
631.80 0.4087
631.90 0.4084
632.00 0.4082
632.10 0.4079
632.20 0.4076
632.30 0.4074
632.40 0.4071
632.50 0.4069
632.60 0.4066
632.70 0.4064
632.80 0.4061
632.90 0.4059
633.00 0.4056
633.10 0.4054
633.20 0.4051
633.30 0.4049
633.40 0.4046
633.50 0.4044
633.60 0.4041
633.70 0.4039
633.80 0.4037
633.90 0.4034
634.00 0.4032
634.10 0.4029
634.20 0.4027
634.30 0.4024
634.40 0.4022
634.50 0.4019
634.60 0.4017
634.70 0.4014
634.80 0.4012
634.90 0.4009
635.00 0.4007
635.10 0.4004
635.20 0.4002
635.30 0.3999
635.40 0.3997
635.50 0.3994
635.60 0.3992
635.70 0.3989
635.80 0.3987
635.90 0.3985
636.00 0.3982
636.10 0.398
636.20 0.3977
636.30 0.3975
636.40 0.3972
636.50 0.397
636.60 0.3967
636.70 0.3965
636.80 0.3962
636.90 0.396
637.00 0.3958
637.10 0.3955
637.20 0.3953
637.30 0.395
637.40 0.3948
637.50 0.3945
637.60 0.3943
637.70 0.394
637.80 0.3938
637.90 0.3936
638.00 0.3933
638.10 0.3931
638.20 0.3928
638.30 0.3926
638.40 0.3923
638.50 0.3921
638.60 0.3918
638.70 0.3916
638.80 0.3914
638.90 0.3911
639.00 0.3909
639.10 0.3906
639.20 0.3904
639.30 0.3901
639.40 0.3899
639.50 0.3897
639.60 0.3894
639.70 0.3892
639.80 0.3889
639.90 0.3887
640.00 0.3884
640.10 0.3882
640.20 0.3879
640.30 0.3877
640.40 0.3875
640.50 0.3872
640.60 0.387
640.70 0.3867
640.80 0.3865
640.90 0.3862
641.00 0.386
641.10 0.3858
641.20 0.3855
641.30 0.3853
641.40 0.385
641.50 0.3848
641.60 0.3845
641.70 0.3843
641.80 0.384
641.90 0.3838
642.00 0.3836
642.10 0.3833
642.20 0.3831
642.30 0.3828
642.40 0.3826
642.50 0.3823
642.60 0.3821
642.70 0.3818
642.80 0.3816
642.90 0.3813
643.00 0.3811
643.10 0.3809
643.20 0.3806
643.30 0.3804
643.40 0.3801
643.50 0.3799
643.60 0.3796
643.70 0.3794
643.80 0.3791
643.90 0.3789
644.00 0.3786
644.10 0.3784
644.20 0.3781
644.30 0.3779
644.40 0.3776
644.50 0.3774
644.60 0.3771
644.70 0.3769
644.80 0.3766
644.90 0.3764
645.00 0.3761
645.10 0.3759
645.20 0.3756
645.30 0.3753
645.40 0.3751
645.50 0.3748
645.60 0.3746
645.70 0.3743
645.80 0.374
645.90 0.3738
646.00 0.3735
646.10 0.3733
646.20 0.373
646.30 0.3727
646.40 0.3725
646.50 0.3722
646.60 0.3719
646.70 0.3717
646.80 0.3714
646.90 0.3711
647.00 0.3709
647.10 0.3706
647.20 0.3703
647.30 0.37
647.40 0.3698
647.50 0.3695
647.60 0.3692
647.70 0.3689
647.80 0.3686
647.90 0.3683
648.00 0.368
648.10 0.3678
648.20 0.3675
648.30 0.3672
648.40 0.3669
648.50 0.3666
648.60 0.3662
648.70 0.3659
648.80 0.3656
648.90 0.3653
649.00 0.365
649.10 0.3647
649.20 0.3644
649.30 0.3641
649.40 0.3637
649.50 0.3634
649.60 0.363
649.70 0.3627
649.80 0.3623
649.90 0.362
650.00 0.3616
650.10 0.3613
650.20 0.3609
650.30 0.3605
650.40 0.3601
650.50 0.3597
650.60 0.3593
650.70 0.3589
650.80 0.3585
650.90 0.3581
651.00 0.3576
651.10 0.3572
651.20 0.3568
651.30 0.3564
651.40 0.3559
651.50 0.3554
651.60 0.3548
651.70 0.3543
651.80 0.3538
651.90 0.3533
652.00 0.3528
652.10 0.3523
652.20 0.3517
652.30 0.3512
652.40 0.3505
652.50 0.3498
652.60 0.3491
652.70 0.3485
652.80 0.3478
652.90 0.3471
653.00 0.3464
653.10 0.3457
653.20 0.3451
653.30 0.3443
653.40 0.3434
653.50 0.3424
653.60 0.3415
653.70 0.3406
653.80 0.3396
653.90 0.3387
654.00 0.3377
654.10 0.3368
654.20 0.3359
654.30 0.3349
654.40 0.3337
654.50 0.3325
654.60 0.3313
654.70 0.3301
654.80 0.3288
654.90 0.3274
655.00 0.326
655.10 0.3247
655.20 0.3233
655.30 0.3219
655.40 0.3204
655.50 0.3188
655.60 0.3173
655.70 0.3157
655.80 0.3141
655.90 0.3124
656.00 0.3107
656.10 0.309
656.20 0.3128
656.30 0.3263
656.40 0.3091
656.50 0.3088
656.60 0.3102
656.70 0.3116
656.80 0.3128
656.90 0.3141
657.00 0.3153
657.10 0.3165
657.20 0.3176
657.30 0.3187
657.40 0.3197
657.50 0.3207
657.60 0.3218
657.70 0.3228
657.80 0.3237
657.90 0.3245
658.00 0.3253
658.10 0.3262
658.20 0.327
658.30 0.3277
658.40 0.3282
658.50 0.3288
658.60 0.3293
658.70 0.3299
658.80 0.3304
658.90 0.3309
659.00 0.3315
659.10 0.332
659.20 0.3325
659.30 0.333
659.40 0.3333
659.50 0.3335
659.60 0.3338
659.70 0.3341
659.80 0.3343
659.90 0.3346
660.00 0.3349
660.10 0.3351
660.20 0.3354
660.30 0.3356
660.40 0.3357
660.50 0.3358
660.60 0.3359
660.70 0.336
660.80 0.3361
660.90 0.3362
661.00 0.3363
661.10 0.3364
661.20 0.3365
661.30 0.3365
661.40 0.3365
661.50 0.3365
661.60 0.3365
661.70 0.3365
661.80 0.3365
661.90 0.3365
662.00 0.3365
662.10 0.3365
662.20 0.3365
662.30 0.3364
662.40 0.3364
662.50 0.3363
662.60 0.3362
662.70 0.3361
662.80 0.3361
662.90 0.336
663.00 0.3359
663.10 0.3358
663.20 0.3358
663.30 0.3357
663.40 0.3356
663.50 0.3355
663.60 0.3354
663.70 0.3352
663.80 0.3351
663.90 0.335
664.00 0.3349
664.10 0.3348
664.20 0.3347
664.30 0.3346
664.40 0.3344
664.50 0.3343
664.60 0.3342
664.70 0.334
664.80 0.3339
664.90 0.3338
665.00 0.3336
665.10 0.3335
665.20 0.3333
665.30 0.3332
665.40 0.3331
665.50 0.3329
665.60 0.3328
665.70 0.3326
665.80 0.3325
665.90 0.3323
666.00 0.3321
666.10 0.332
666.20 0.3318
666.30 0.3317
666.40 0.3315
666.50 0.3314
666.60 0.3312
666.70 0.331
666.80 0.3309
666.90 0.3307
667.00 0.3306
667.10 0.3304
667.20 0.3302
667.30 0.3301
667.40 0.3299
667.50 0.3297
667.60 0.3296
667.70 0.3294
667.80 0.3292
667.90 0.3291
668.00 0.3289
668.10 0.3287
668.20 0.3286
668.30 0.3284
668.40 0.3282
668.50 0.3281
668.60 0.3279
668.70 0.3277
668.80 0.3276
668.90 0.3274
669.00 0.3272
669.10 0.327
669.20 0.3269
669.30 0.3267
669.40 0.3265
669.50 0.3263
669.60 0.3262
669.70 0.326
669.80 0.3258
669.90 0.3256
670.00 0.3255
670.10 0.3253
670.20 0.3251
670.30 0.325
670.40 0.3248
670.50 0.3246
670.60 0.3244
670.70 0.3242
670.80 0.3241
670.90 0.3239
671.00 0.3237
671.10 0.3235
671.20 0.3234
671.30 0.3232
671.40 0.323
671.50 0.3228
671.60 0.3227
671.70 0.3225
671.80 0.3223
671.90 0.3221
672.00 0.322
672.10 0.3218
672.20 0.3216
672.30 0.3214
672.40 0.3213
672.50 0.3211
672.60 0.3209
672.70 0.3207
672.80 0.3205
672.90 0.3204
673.00 0.3202
673.10 0.32
673.20 0.3198
673.30 0.3197
673.40 0.3195
673.50 0.3193
673.60 0.3191
673.70 0.319
673.80 0.3188
673.90 0.3186
674.00 0.3184
674.10 0.3182
674.20 0.3181
674.30 0.3179
674.40 0.3177
674.50 0.3175
674.60 0.3174
674.70 0.3172
674.80 0.317
674.90 0.3168
675.00 0.3167
675.10 0.3165
675.20 0.3163
675.30 0.3161
675.40 0.316
675.50 0.3158
675.60 0.3156
675.70 0.3154
675.80 0.3152
675.90 0.3151
676.00 0.3149
676.10 0.3147
676.20 0.3145
676.30 0.3144
676.40 0.3142
676.50 0.314
676.60 0.3138
676.70 0.3137
676.80 0.3135
676.90 0.3133
677.00 0.3131
677.10 0.313
677.20 0.3128
677.30 0.3126
677.40 0.3124
677.50 0.3123
677.60 0.3121
677.70 0.3119
677.80 0.3117
677.90 0.3116
678.00 0.3114
678.10 0.3112
678.20 0.311
678.30 0.3109
678.40 0.3107
678.50 0.3105
678.60 0.3103
678.70 0.3102
678.80 0.31
678.90 0.3098
679.00 0.3096
679.10 0.3095
679.20 0.3093
679.30 0.3091
679.40 0.309
679.50 0.3088
679.60 0.3086
679.70 0.3084
679.80 0.3083
679.90 0.3081
680.00 0.3079
680.10 0.3077
680.20 0.3076
680.30 0.3074
680.40 0.3072
680.50 0.3071
680.60 0.3069
680.70 0.3067
680.80 0.3065
680.90 0.3064
681.00 0.3062
681.10 0.306
681.20 0.3059
681.30 0.3057
681.40 0.3055
681.50 0.3053
681.60 0.3052
681.70 0.305
681.80 0.3048
681.90 0.3047
682.00 0.3045
682.10 0.3043
682.20 0.3041
682.30 0.304
682.40 0.3038
682.50 0.3036
682.60 0.3035
682.70 0.3033
682.80 0.3031
682.90 0.3029
683.00 0.3028
683.10 0.3026
683.20 0.3024
683.30 0.3023
683.40 0.3021
683.50 0.3019
683.60 0.3018
683.70 0.3016
683.80 0.3014
683.90 0.3013
684.00 0.3011
684.10 0.3009
684.20 0.3007
684.30 0.3006
684.40 0.3004
684.50 0.3002
684.60 0.3001
684.70 0.2999
684.80 0.2997
684.90 0.2996
685.00 0.2994
685.10 0.2992
685.20 0.2991
685.30 0.2989
685.40 0.2987
685.50 0.2986
685.60 0.2984
685.70 0.2982
685.80 0.2981
685.90 0.2979
686.00 0.2977
686.10 0.2976
686.20 0.2974
686.30 0.2972
686.40 0.2971
686.50 0.2969
686.60 0.2967
686.70 0.2966
686.80 0.2964
686.90 0.2962
687.00 0.2961
687.10 0.2959
687.20 0.2957
687.30 0.2956
687.40 0.2954
687.50 0.2952
687.60 0.2951
687.70 0.2949
687.80 0.2948
687.90 0.2946
688.00 0.2944
688.10 0.2943
688.20 0.2941
688.30 0.2939
688.40 0.2938
688.50 0.2936
688.60 0.2934
688.70 0.2933
688.80 0.2931
688.90 0.2929
689.00 0.2928
689.10 0.2926
689.20 0.2925
689.30 0.2923
689.40 0.2921
689.50 0.292
689.60 0.2918
689.70 0.2916
689.80 0.2915
689.90 0.2913
690.00 0.2912
690.10 0.291
690.20 0.2908
690.30 0.2907
690.40 0.2905
690.50 0.2904
690.60 0.2902
690.70 0.29
690.80 0.2899
690.90 0.2897
691.00 0.2895
691.10 0.2894
691.20 0.2892
691.30 0.2891
691.40 0.2889
691.50 0.2887
691.60 0.2886
691.70 0.2884
691.80 0.2883
691.90 0.2881
692.00 0.2879
692.10 0.2878
692.20 0.2876
692.30 0.2875
692.40 0.2873
692.50 0.2871
692.60 0.287
692.70 0.2868
692.80 0.2867
692.90 0.2865
693.00 0.2863
693.10 0.2862
693.20 0.286
693.30 0.2859
693.40 0.2857
693.50 0.2856
693.60 0.2854
693.70 0.2852
693.80 0.2851
693.90 0.2849
694.00 0.2848
694.10 0.2846
694.20 0.2844
694.30 0.2843
694.40 0.2841
694.50 0.284
694.60 0.2838
694.70 0.2837
694.80 0.2835
694.90 0.2833
695.00 0.2832
695.10 0.283
695.20 0.2829
695.30 0.2827
695.40 0.2826
695.50 0.2824
695.60 0.2822
695.70 0.2821
695.80 0.2819
695.90 0.2818
696.00 0.2816
696.10 0.2815
696.20 0.2813
696.30 0.2812
696.40 0.281
696.50 0.2808
696.60 0.2807
696.70 0.2805
696.80 0.2804
696.90 0.2802
697.00 0.2801
697.10 0.2799
697.20 0.2798
697.30 0.2796
697.40 0.2795
697.50 0.2793
697.60 0.2791
697.70 0.279
697.80 0.2788
697.90 0.2787
698.00 0.2785
698.10 0.2784
698.20 0.2782
698.30 0.2781
698.40 0.2779
698.50 0.2778
698.60 0.2776
698.70 0.2775
698.80 0.2773
698.90 0.2771
699.00 0.277
699.10 0.2768
699.20 0.2767
699.30 0.2765
699.40 0.2764
699.50 0.2762
699.60 0.2761
699.70 0.2759
699.80 0.2758
699.90 0.2756
700.00 0.2755
700.10 0.2753
700.20 0.2752
700.30 0.275
700.40 0.2749
700.50 0.2747
700.60 0.2746
700.70 0.2744
700.80 0.2743
700.90 0.2741
701.00 0.274
701.10 0.2738
701.20 0.2737
701.30 0.2735
701.40 0.2734
701.50 0.2732
701.60 0.2731
701.70 0.2729
701.80 0.2728
701.90 0.2726
702.00 0.2725
702.10 0.2723
702.20 0.2722
702.30 0.272
702.40 0.2719
702.50 0.2717
702.60 0.2716
702.70 0.2714
702.80 0.2713
702.90 0.2711
703.00 0.271
703.10 0.2708
703.20 0.2707
703.30 0.2705
703.40 0.2704
703.50 0.2702
703.60 0.2701
703.70 0.2699
703.80 0.2698
703.90 0.2696
704.00 0.2695
704.10 0.2693
704.20 0.2692
704.30 0.269
704.40 0.2689
704.50 0.2687
704.60 0.2686
704.70 0.2684
704.80 0.2683
704.90 0.2682
705.00 0.268
705.10 0.2679
705.20 0.2677
705.30 0.2676
705.40 0.2674
705.50 0.2673
705.60 0.2671
705.70 0.267
705.80 0.2668
705.90 0.2667
706.00 0.2666
706.10 0.2664
706.20 0.2663
706.30 0.2661
706.40 0.266
706.50 0.2658
706.60 0.2657
706.70 0.2655
706.80 0.2654
706.90 0.2652
707.00 0.2651
707.10 0.265
707.20 0.2648
707.30 0.2647
707.40 0.2645
707.50 0.2644
707.60 0.2642
707.70 0.2641
707.80 0.2639
707.90 0.2638
708.00 0.2637
708.10 0.2635
708.20 0.2634
708.30 0.2632
708.40 0.2631
708.50 0.2629
708.60 0.2628
708.70 0.2627
708.80 0.2625
708.90 0.2624
709.00 0.2622
709.10 0.2621
709.20 0.2619
709.30 0.2618
709.40 0.2617
709.50 0.2615
709.60 0.2614
709.70 0.2612
709.80 0.2611
709.90 0.2609
710.00 0.2608
710.10 0.2607
710.20 0.2605
710.30 0.2604
710.40 0.2602
710.50 0.2601
710.60 0.26
710.70 0.2598
710.80 0.2597
710.90 0.2595
711.00 0.2594
711.10 0.2593
711.20 0.2591
711.30 0.259
711.40 0.2588
711.50 0.2587
711.60 0.2586
711.70 0.2584
711.80 0.2583
711.90 0.2581
712.00 0.258
712.10 0.2579
712.20 0.2577
712.30 0.2576
712.40 0.2574
712.50 0.2573
712.60 0.2572
712.70 0.257
712.80 0.2569
712.90 0.2567
713.00 0.2566
713.10 0.2565
713.20 0.2563
713.30 0.2562
713.40 0.256
713.50 0.2559
713.60 0.2558
713.70 0.2556
713.80 0.2555
713.90 0.2553
714.00 0.2552
714.10 0.2551
714.20 0.2549
714.30 0.2548
714.40 0.2547
714.50 0.2545
714.60 0.2544
714.70 0.2542
714.80 0.2541
714.90 0.254
715.00 0.2538
715.10 0.2537
715.20 0.2536
715.30 0.2534
715.40 0.2533
715.50 0.2531
715.60 0.253
715.70 0.2529
715.80 0.2527
715.90 0.2526
716.00 0.2525
716.10 0.2523
716.20 0.2522
716.30 0.2521
716.40 0.2519
716.50 0.2518
716.60 0.2517
716.70 0.2515
716.80 0.2514
716.90 0.2513
717.00 0.2511
717.10 0.251
717.20 0.2508
717.30 0.2507
717.40 0.2506
717.50 0.2504
717.60 0.2503
717.70 0.2502
717.80 0.25
717.90 0.2499
718.00 0.2498
718.10 0.2496
718.20 0.2495
718.30 0.2494
718.40 0.2492
718.50 0.2491
718.60 0.249
718.70 0.2488
718.80 0.2487
718.90 0.2486
719.00 0.2484
719.10 0.2483
719.20 0.2482
719.30 0.248
719.40 0.2479
719.50 0.2478
719.60 0.2476
719.70 0.2475
719.80 0.2474
719.90 0.2472
720.00 0.2471
720.10 0.247
720.20 0.2468
720.30 0.2467
720.40 0.2466
720.50 0.2464
720.60 0.2463
720.70 0.2462
720.80 0.246
720.90 0.2459
721.00 0.2458
721.10 0.2456
721.20 0.2455
721.30 0.2454
721.40 0.2453
721.50 0.2451
721.60 0.245
721.70 0.2449
721.80 0.2447
721.90 0.2446
722.00 0.2445
722.10 0.2443
722.20 0.2442
722.30 0.2441
722.40 0.2439
722.50 0.2438
722.60 0.2437
722.70 0.2436
722.80 0.2434
722.90 0.2433
723.00 0.2432
723.10 0.243
723.20 0.2429
723.30 0.2428
723.40 0.2426
723.50 0.2425
723.60 0.2424
723.70 0.2423
723.80 0.2421
723.90 0.242
724.00 0.2419
724.10 0.2417
724.20 0.2416
724.30 0.2415
724.40 0.2413
724.50 0.2412
724.60 0.2411
724.70 0.241
724.80 0.2408
724.90 0.2407
725.00 0.2406
725.10 0.2404
725.20 0.2403
725.30 0.2402
725.40 0.2401
725.50 0.2399
725.60 0.2398
725.70 0.2397
725.80 0.2396
725.90 0.2394
726.00 0.2393
726.10 0.2392
726.20 0.239
726.30 0.2389
726.40 0.2388
726.50 0.2387
726.60 0.2385
726.70 0.2384
726.80 0.2383
726.90 0.2382
727.00 0.238
727.10 0.2379
727.20 0.2378
727.30 0.2377
727.40 0.2375
727.50 0.2374
727.60 0.2373
727.70 0.2372
727.80 0.237
727.90 0.2369
728.00 0.2368
728.10 0.2367
728.20 0.2365
728.30 0.2364
728.40 0.2363
728.50 0.2361
728.60 0.236
728.70 0.2359
728.80 0.2358
728.90 0.2356
729.00 0.2355
729.10 0.2354
729.20 0.2353
729.30 0.2351
729.40 0.235
729.50 0.2349
729.60 0.2348
729.70 0.2346
729.80 0.2345
729.90 0.2344
730.00 0.2343
730.10 0.2342
730.20 0.234
730.30 0.2339
730.40 0.2338
730.50 0.2337
730.60 0.2335
730.70 0.2334
730.80 0.2333
730.90 0.2332
731.00 0.233
731.10 0.2329
731.20 0.2328
731.30 0.2327
731.40 0.2326
731.50 0.2324
731.60 0.2323
731.70 0.2322
731.80 0.2321
731.90 0.232
732.00 0.2318
732.10 0.2317
732.20 0.2316
732.30 0.2315
732.40 0.2313
732.50 0.2312
732.60 0.2311
732.70 0.231
732.80 0.2309
732.90 0.2307
733.00 0.2306
733.10 0.2305
733.20 0.2304
733.30 0.2303
733.40 0.2301
733.50 0.23
733.60 0.2299
733.70 0.2298
733.80 0.2296
733.90 0.2295
734.00 0.2294
734.10 0.2293
734.20 0.2292
734.30 0.229
734.40 0.2289
734.50 0.2288
734.60 0.2287
734.70 0.2286
734.80 0.2284
734.90 0.2283
735.00 0.2282
735.10 0.2281
735.20 0.228
735.30 0.2278
735.40 0.2277
735.50 0.2276
735.60 0.2275
735.70 0.2274
735.80 0.2272
735.90 0.2271
736.00 0.227
736.10 0.2269
736.20 0.2268
736.30 0.2266
736.40 0.2265
736.50 0.2264
736.60 0.2263
736.70 0.2262
736.80 0.2261
736.90 0.2259
737.00 0.2258
737.10 0.2257
737.20 0.2256
737.30 0.2255
737.40 0.2253
737.50 0.2252
737.60 0.2251
737.70 0.225
737.80 0.2249
737.90 0.2247
738.00 0.2246
738.10 0.2245
738.20 0.2244
738.30 0.2243
738.40 0.2242
738.50 0.224
738.60 0.2239
738.70 0.2238
738.80 0.2237
738.90 0.2236
739.00 0.2235
739.10 0.2233
739.20 0.2232
739.30 0.2231
739.40 0.223
739.50 0.2229
739.60 0.2227
739.70 0.2226
739.80 0.2225
739.90 0.2224
740.00 0.2223
740.10 0.2222
740.20 0.222
740.30 0.2219
740.40 0.2218
740.50 0.2217
740.60 0.2216
740.70 0.2215
740.80 0.2214
740.90 0.2212
741.00 0.2211
741.10 0.221
741.20 0.2209
741.30 0.2208
741.40 0.2207
741.50 0.2206
741.60 0.2204
741.70 0.2203
741.80 0.2202
741.90 0.2201
742.00 0.22
742.10 0.2199
742.20 0.2198
742.30 0.2196
742.40 0.2195
742.50 0.2194
742.60 0.2193
742.70 0.2192
742.80 0.2191
742.90 0.219
743.00 0.2188
743.10 0.2187
743.20 0.2186
743.30 0.2185
743.40 0.2184
743.50 0.2183
743.60 0.2182
743.70 0.2181
743.80 0.2179
743.90 0.2178
744.00 0.2177
744.10 0.2176
744.20 0.2175
744.30 0.2174
744.40 0.2173
744.50 0.2172
744.60 0.217
744.70 0.2169
744.80 0.2168
744.90 0.2167
745.00 0.2166
745.10 0.2165
745.20 0.2164
745.30 0.2163
745.40 0.2161
745.50 0.216
745.60 0.2159
745.70 0.2158
745.80 0.2157
745.90 0.2156
746.00 0.2155
746.10 0.2154
746.20 0.2152
746.30 0.2151
746.40 0.215
746.50 0.2149
746.60 0.2148
746.70 0.2147
746.80 0.2146
746.90 0.2145
747.00 0.2144
747.10 0.2142
747.20 0.2141
747.30 0.214
747.40 0.2139
747.50 0.2138
747.60 0.2137
747.70 0.2136
747.80 0.2135
747.90 0.2134
748.00 0.2132
748.10 0.2131
748.20 0.213
748.30 0.2129
748.40 0.2128
748.50 0.2127
748.60 0.2126
748.70 0.2125
748.80 0.2124
748.90 0.2122
749.00 0.2121
749.10 0.212
749.20 0.2119
749.30 0.2118
749.40 0.2117
749.50 0.2116
749.60 0.2115
749.70 0.2114
749.80 0.2113
749.90 0.2111
750.00 0.211
750.10 0.2109
750.20 0.2108
750.30 0.2107
750.40 0.2106
750.50 0.2105
750.60 0.2104
750.70 0.2103
750.80 0.2102
750.90 0.2101
751.00 0.21
751.10 0.2099
751.20 0.2097
751.30 0.2096
751.40 0.2095
751.50 0.2094
751.60 0.2093
751.70 0.2092
751.80 0.2091
751.90 0.209
752.00 0.2089
752.10 0.2088
752.20 0.2087
752.30 0.2086
752.40 0.2085
752.50 0.2084
752.60 0.2082
752.70 0.2081
752.80 0.208
752.90 0.2079
753.00 0.2078
753.10 0.2077
753.20 0.2076
753.30 0.2075
753.40 0.2074
753.50 0.2073
753.60 0.2072
753.70 0.2071
753.80 0.207
753.90 0.2069
754.00 0.2068
754.10 0.2067
754.20 0.2066
754.30 0.2064
754.40 0.2063
754.50 0.2062
754.60 0.2061
754.70 0.206
754.80 0.2059
754.90 0.2058
755.00 0.2057
755.10 0.2056
755.20 0.2055
755.30 0.2054
755.40 0.2053
755.50 0.2052
755.60 0.2051
755.70 0.205
755.80 0.2049
755.90 0.2048
756.00 0.2047
756.10 0.2046
756.20 0.2044
756.30 0.2043
756.40 0.2042
756.50 0.2041
756.60 0.204
756.70 0.2039
756.80 0.2038
756.90 0.2037
757.00 0.2036
757.10 0.2035
757.20 0.2034
757.30 0.2033
757.40 0.2032
757.50 0.2031
757.60 0.203
757.70 0.2029
757.80 0.2028
757.90 0.2027
758.00 0.2026
758.10 0.2025
758.20 0.2024
758.30 0.2023
758.40 0.2022
758.50 0.202
758.60 0.2019
758.70 0.2018
758.80 0.2017
758.90 0.2016
759.00 0.2015
759.10 0.2014
759.20 0.2013
759.30 0.2012
759.40 0.2011
759.50 0.201
759.60 0.2009
759.70 0.2008
759.80 0.2007
759.90 0.2006
760.00 0.2005
760.10 0.2004
760.20 0.2003
760.30 0.2002
760.40 0.2001
760.50 0.2
760.60 0.1999
760.70 0.1998
760.80 0.1997
760.90 0.1996
761.00 0.1995
761.10 0.1994
761.20 0.1993
761.30 0.1992
761.40 0.1991
761.50 0.199
761.60 0.1989
761.70 0.1988
761.80 0.1987
761.90 0.1986
762.00 0.1985
762.10 0.1984
762.20 0.1983
762.30 0.1982
762.40 0.1981
762.50 0.198
762.60 0.1979
762.70 0.1978
762.80 0.1977
762.90 0.1976
763.00 0.1975
763.10 0.1974
763.20 0.1973
763.30 0.1972
763.40 0.1971
763.50 0.197
763.60 0.1969
763.70 0.1968
763.80 0.1967
763.90 0.1966
764.00 0.1965
764.10 0.1964
764.20 0.1963
764.30 0.1962
764.40 0.1961
764.50 0.196
764.60 0.1959
764.70 0.1958
764.80 0.1957
764.90 0.1956
765.00 0.1955
765.10 0.1954
765.20 0.1953
765.30 0.1952
765.40 0.1951
765.50 0.195
765.60 0.1949
765.70 0.1948
765.80 0.1947
765.90 0.1946
766.00 0.1945
766.10 0.1944
766.20 0.1943
766.30 0.1942
766.40 0.1941
766.50 0.194
766.60 0.1939
766.70 0.1938
766.80 0.1937
766.90 0.1936
767.00 0.1935
767.10 0.1934
767.20 0.1933
767.30 0.1932
767.40 0.1931
767.50 0.193
767.60 0.1929
767.70 0.1928
767.80 0.1927
767.90 0.1927
768.00 0.1926
768.10 0.1925
768.20 0.1924
768.30 0.1923
768.40 0.1922
768.50 0.1921
768.60 0.192
768.70 0.1919
768.80 0.1918
768.90 0.1917
769.00 0.1916
769.10 0.1915
769.20 0.1914
769.30 0.1913
769.40 0.1912
769.50 0.1911
769.60 0.191
769.70 0.1909
769.80 0.1908
769.90 0.1907
770.00 0.1906
770.10 0.1905
770.20 0.1904
770.30 0.1903
770.40 0.1902
770.50 0.1901
770.60 0.19
770.70 0.1899
770.80 0.1899
770.90 0.1898
771.00 0.1897
771.10 0.1896
771.20 0.1895
771.30 0.1894
771.40 0.1893
771.50 0.1892
771.60 0.1891
771.70 0.189
771.80 0.1889
771.90 0.1888
772.00 0.1887
772.10 0.1886
772.20 0.1885
772.30 0.1884
772.40 0.1883
772.50 0.1883
772.60 0.1882
772.70 0.1881
772.80 0.188
772.90 0.1879
773.00 0.1878
773.10 0.1877
773.20 0.1876
773.30 0.1875
773.40 0.1874
773.50 0.1873
773.60 0.1872
773.70 0.1871
773.80 0.187
773.90 0.1869
774.00 0.1868
774.10 0.1868
774.20 0.1867
774.30 0.1866
774.40 0.1865
774.50 0.1864
774.60 0.1863
774.70 0.1862
774.80 0.1861
774.90 0.186
775.00 0.1859
775.10 0.1858
775.20 0.1857
775.30 0.1856
775.40 0.1855
775.50 0.1855
775.60 0.1854
775.70 0.1853
775.80 0.1852
775.90 0.1851
776.00 0.185
776.10 0.1849
776.20 0.1848
776.30 0.1847
776.40 0.1846
776.50 0.1845
776.60 0.1844
776.70 0.1843
776.80 0.1843
776.90 0.1842
777.00 0.1841
777.10 0.184
777.20 0.1839
777.30 0.1838
777.40 0.1837
777.50 0.1836
777.60 0.1835
777.70 0.1834
777.80 0.1833
777.90 0.1832
778.00 0.1832
778.10 0.1831
778.20 0.183
778.30 0.1829
778.40 0.1828
778.50 0.1827
778.60 0.1826
778.70 0.1825
778.80 0.1824
778.90 0.1823
779.00 0.1822
779.10 0.1821
779.20 0.1821
779.30 0.182
779.40 0.1819
779.50 0.1818
779.60 0.1817
779.70 0.1816
779.80 0.1815
779.90 0.1814
780.00 0.1813
780.10 0.1812
780.20 0.1811
780.30 0.1811
780.40 0.181
780.50 0.1809
780.60 0.1808
780.70 0.1807
780.80 0.1806
780.90 0.1805
781.00 0.1804
781.10 0.1803
781.20 0.1803
781.30 0.1802
781.40 0.1801
781.50 0.18
781.60 0.1799
781.70 0.1798
781.80 0.1797
781.90 0.1796
782.00 0.1796
782.10 0.1795
782.20 0.1794
782.30 0.1793
782.40 0.1792
782.50 0.1791
782.60 0.179
782.70 0.1789
782.80 0.1788
782.90 0.1788
783.00 0.1787
783.10 0.1786
783.20 0.1785
783.30 0.1784
783.40 0.1783
783.50 0.1782
783.60 0.1781
783.70 0.1781
783.80 0.178
783.90 0.1779
784.00 0.1778
784.10 0.1777
784.20 0.1776
784.30 0.1775
784.40 0.1774
784.50 0.1774
784.60 0.1773
784.70 0.1772
784.80 0.1771
784.90 0.177
785.00 0.1769
785.10 0.1768
785.20 0.1767
785.30 0.1767
785.40 0.1766
785.50 0.1765
785.60 0.1764
785.70 0.1763
785.80 0.1762
785.90 0.1761
786.00 0.176
786.10 0.176
786.20 0.1759
786.30 0.1758
786.40 0.1757
786.50 0.1756
786.60 0.1755
786.70 0.1754
786.80 0.1754
786.90 0.1753
787.00 0.1752
787.10 0.1751
787.20 0.175
787.30 0.1749
787.40 0.1748
787.50 0.1747
787.60 0.1747
787.70 0.1746
787.80 0.1745
787.90 0.1744
788.00 0.1743
788.10 0.1742
788.20 0.1741
788.30 0.1741
788.40 0.174
788.50 0.1739
788.60 0.1738
788.70 0.1737
788.80 0.1736
788.90 0.1735
789.00 0.1735
789.10 0.1734
789.20 0.1733
789.30 0.1732
789.40 0.1731
789.50 0.173
789.60 0.1729
789.70 0.1729
789.80 0.1728
789.90 0.1727
790.00 0.1726
790.10 0.1725
790.20 0.1724
790.30 0.1724
790.40 0.1723
790.50 0.1722
790.60 0.1721
790.70 0.172
790.80 0.1719
790.90 0.1719
791.00 0.1718
791.10 0.1717
791.20 0.1716
791.30 0.1715
791.40 0.1714
791.50 0.1713
791.60 0.1713
791.70 0.1712
791.80 0.1711
791.90 0.171
792.00 0.1709
792.10 0.1709
792.20 0.1708
792.30 0.1707
792.40 0.1706
792.50 0.1705
792.60 0.1704
792.70 0.1704
792.80 0.1703
792.90 0.1702
793.00 0.1701
793.10 0.17
793.20 0.1699
793.30 0.1699
793.40 0.1698
793.50 0.1697
793.60 0.1696
793.70 0.1695
793.80 0.1694
793.90 0.1694
794.00 0.1693
794.10 0.1692
794.20 0.1691
794.30 0.169
794.40 0.1689
794.50 0.1689
794.60 0.1688
794.70 0.1687
794.80 0.1686
794.90 0.1685
795.00 0.1685
795.10 0.1684
795.20 0.1683
795.30 0.1682
795.40 0.1681
795.50 0.168
795.60 0.168
795.70 0.1679
795.80 0.1678
795.90 0.1677
796.00 0.1676
796.10 0.1676
796.20 0.1675
796.30 0.1674
796.40 0.1673
796.50 0.1672
796.60 0.1671
796.70 0.1671
796.80 0.167
796.90 0.1669
797.00 0.1668
797.10 0.1667
797.20 0.1667
797.30 0.1666
797.40 0.1665
797.50 0.1664
797.60 0.1663
797.70 0.1663
797.80 0.1662
797.90 0.1661
798.00 0.166
798.10 0.1659
798.20 0.1658
798.30 0.1658
798.40 0.1657
798.50 0.1656
798.60 0.1655
798.70 0.1654
798.80 0.1654
798.90 0.1653
799.00 0.1652
799.10 0.1651
799.20 0.165
799.30 0.165
799.40 0.1649
799.50 0.1648
799.60 0.1647
799.70 0.1646
799.80 0.1646
799.90 0.1645
800.00 0.1644
800.10 0.1643
800.20 0.1642
800.30 0.1642
800.40 0.1641
800.50 0.164
800.60 0.1639
800.70 0.1638
800.80 0.1638
800.90 0.1637
801.00 0.1636
801.10 0.1635
801.20 0.1635
801.30 0.1634
801.40 0.1633
801.50 0.1632
801.60 0.1631
801.70 0.1631
801.80 0.163
801.90 0.1629
802.00 0.1628
802.10 0.1627
802.20 0.1627
802.30 0.1626
802.40 0.1625
802.50 0.1624
802.60 0.1624
802.70 0.1623
802.80 0.1622
802.90 0.1621
803.00 0.162
803.10 0.162
803.20 0.1619
803.30 0.1618
803.40 0.1617
803.50 0.1617
803.60 0.1616
803.70 0.1615
803.80 0.1614
803.90 0.1613
804.00 0.1613
804.10 0.1612
804.20 0.1611
804.30 0.161
804.40 0.161
804.50 0.1609
804.60 0.1608
804.70 0.1607
804.80 0.1606
804.90 0.1606
805.00 0.1605
805.10 0.1604
805.20 0.1603
805.30 0.1603
805.40 0.1602
805.50 0.1601
805.60 0.16
805.70 0.16
805.80 0.1599
805.90 0.1598
806.00 0.1597
806.10 0.1596
806.20 0.1596
806.30 0.1595
806.40 0.1594
806.50 0.1593
806.60 0.1593
806.70 0.1592
806.80 0.1591
806.90 0.159
807.00 0.159
807.10 0.1589
807.20 0.1588
807.30 0.1587
807.40 0.1587
807.50 0.1586
807.60 0.1585
807.70 0.1584
807.80 0.1583
807.90 0.1583
808.00 0.1582
808.10 0.1581
808.20 0.158
808.30 0.158
808.40 0.1579
808.50 0.1578
808.60 0.1577
808.70 0.1577
808.80 0.1576
808.90 0.1575
809.00 0.1574
809.10 0.1574
809.20 0.1573
809.30 0.1572
809.40 0.1571
809.50 0.1571
809.60 0.157
809.70 0.1569
809.80 0.1568
809.90 0.1568
810.00 0.1567
810.10 0.1566
810.20 0.1565
810.30 0.1565
810.40 0.1564
810.50 0.1563
810.60 0.1562
810.70 0.1562
810.80 0.1561
810.90 0.156
811.00 0.1559
811.10 0.1559
811.20 0.1558
811.30 0.1557
811.40 0.1556
811.50 0.1556
811.60 0.1555
811.70 0.1554
811.80 0.1553
811.90 0.1553
812.00 0.1552
812.10 0.1551
812.20 0.155
812.30 0.155
812.40 0.1549
812.50 0.1548
812.60 0.1548
812.70 0.1547
812.80 0.1546
812.90 0.1545
813.00 0.1545
813.10 0.1544
813.20 0.1543
813.30 0.1542
813.40 0.1542
813.50 0.1541
813.60 0.154
813.70 0.1539
813.80 0.1539
813.90 0.1538
814.00 0.1537
814.10 0.1537
814.20 0.1536
814.30 0.1535
814.40 0.1534
814.50 0.1534
814.60 0.1533
814.70 0.1532
814.80 0.1531
814.90 0.1531
815.00 0.153
815.10 0.1529
815.20 0.1529
815.30 0.1528
815.40 0.1527
815.50 0.1526
815.60 0.1526
815.70 0.1525
815.80 0.1524
815.90 0.1523
816.00 0.1523
816.10 0.1522
816.20 0.1521
816.30 0.1521
816.40 0.152
816.50 0.1519
816.60 0.1518
816.70 0.1518
816.80 0.1517
816.90 0.1516
817.00 0.1516
817.10 0.1515
817.20 0.1514
817.30 0.1513
817.40 0.1513
817.50 0.1512
817.60 0.1511
817.70 0.151
817.80 0.151
817.90 0.1509
818.00 0.1508
818.10 0.1508
818.20 0.1507
818.30 0.1506
818.40 0.1505
818.50 0.1505
818.60 0.1504
818.70 0.1503
818.80 0.1503
818.90 0.1502
819.00 0.1501
819.10 0.15
819.20 0.15
819.30 0.1499
819.40 0.1498
819.50 0.1498
819.60 0.1497
819.70 0.1496
819.80 0.1495
819.90 0.1495
820.00 0.1494
820.10 0.1493
820.20 0.1493
820.30 0.1492
820.40 0.1491
820.50 0.149
820.60 0.149
820.70 0.1489
820.80 0.1488
820.90 0.1488
821.00 0.1487
821.10 0.1486
821.20 0.1486
821.30 0.1485
821.40 0.1484
821.50 0.1483
821.60 0.1483
821.70 0.1482
821.80 0.1481
821.90 0.1481
822.00 0.148
822.10 0.1479
822.20 0.1479
822.30 0.1478
822.40 0.1477
822.50 0.1476
822.60 0.1476
822.70 0.1475
822.80 0.1474
822.90 0.1474
823.00 0.1473
823.10 0.1472
823.20 0.1472
823.30 0.1471
823.40 0.147
823.50 0.147
823.60 0.1469
823.70 0.1468
823.80 0.1467
823.90 0.1467
824.00 0.1466
824.10 0.1465
824.20 0.1465
824.30 0.1464
824.40 0.1463
824.50 0.1463
824.60 0.1462
824.70 0.1461
824.80 0.1461
824.90 0.146
825.00 0.1459
825.10 0.1459
825.20 0.1458
825.30 0.1457
825.40 0.1457
825.50 0.1456
825.60 0.1455
825.70 0.1454
825.80 0.1454
825.90 0.1453
826.00 0.1452
826.10 0.1452
826.20 0.1451
826.30 0.145
826.40 0.145
826.50 0.1449
826.60 0.1448
826.70 0.1448
826.80 0.1447
826.90 0.1446
827.00 0.1446
827.10 0.1445
827.20 0.1444
827.30 0.1444
827.40 0.1443
827.50 0.1442
827.60 0.1442
827.70 0.1441
827.80 0.144
827.90 0.144
828.00 0.1439
828.10 0.1438
828.20 0.1438
828.30 0.1437
828.40 0.1436
828.50 0.1435
828.60 0.1435
828.70 0.1434
828.80 0.1433
828.90 0.1433
829.00 0.1432
829.10 0.1431
829.20 0.1431
829.30 0.143
829.40 0.1429
829.50 0.1429
829.60 0.1428
829.70 0.1427
829.80 0.1427
829.90 0.1426
830.00 0.1425
830.10 0.1425
830.20 0.1424
830.30 0.1423
830.40 0.1423
830.50 0.1422
830.60 0.1421
830.70 0.1421
830.80 0.142
830.90 0.1419
831.00 0.1419
831.10 0.1418
831.20 0.1417
831.30 0.1417
831.40 0.1416
831.50 0.1415
831.60 0.1415
831.70 0.1414
831.80 0.1414
831.90 0.1413
832.00 0.1412
832.10 0.1412
832.20 0.1411
832.30 0.141
832.40 0.141
832.50 0.1409
832.60 0.1408
832.70 0.1408
832.80 0.1407
832.90 0.1406
833.00 0.1406
833.10 0.1405
833.20 0.1404
833.30 0.1404
833.40 0.1403
833.50 0.1402
833.60 0.1402
833.70 0.1401
833.80 0.14
833.90 0.14
834.00 0.1399
834.10 0.1398
834.20 0.1398
834.30 0.1397
834.40 0.1396
834.50 0.1396
834.60 0.1395
834.70 0.1395
834.80 0.1394
834.90 0.1393
835.00 0.1393
835.10 0.1392
835.20 0.1391
835.30 0.1391
835.40 0.139
835.50 0.1389
835.60 0.1389
835.70 0.1388
835.80 0.1387
835.90 0.1387
836.00 0.1386
836.10 0.1385
836.20 0.1385
836.30 0.1384
836.40 0.1383
836.50 0.1383
836.60 0.1382
836.70 0.1382
836.80 0.1381
836.90 0.138
837.00 0.138
837.10 0.1379
837.20 0.1378
837.30 0.1378
837.40 0.1377
837.50 0.1376
837.60 0.1376
837.70 0.1375
837.80 0.1375
837.90 0.1374
838.00 0.1373
838.10 0.1373
838.20 0.1372
838.30 0.1371
838.40 0.1371
838.50 0.137
838.60 0.1369
838.70 0.1369
838.80 0.1368
838.90 0.1368
839.00 0.1367
839.10 0.1366
839.20 0.1366
839.30 0.1365
839.40 0.1364
839.50 0.1364
839.60 0.1363
839.70 0.1362
839.80 0.1362
839.90 0.1361
840.00 0.1361
840.10 0.136
840.20 0.1359
840.30 0.1359
840.40 0.1358
840.50 0.1357
840.60 0.1357
840.70 0.1356
840.80 0.1356
840.90 0.1355
841.00 0.1354
841.10 0.1354
841.20 0.1353
841.30 0.1352
841.40 0.1352
841.50 0.1351
841.60 0.1351
841.70 0.135
841.80 0.1349
841.90 0.1349
842.00 0.1348
842.10 0.1347
842.20 0.1347
842.30 0.1346
842.40 0.1346
842.50 0.1345
842.60 0.1344
842.70 0.1344
842.80 0.1343
842.90 0.1342
843.00 0.1342
843.10 0.1341
843.20 0.1341
843.30 0.134
843.40 0.1339
843.50 0.1339
843.60 0.1338
843.70 0.1337
843.80 0.1337
843.90 0.1336
844.00 0.1336
844.10 0.1335
844.20 0.1334
844.30 0.1334
844.40 0.1333
844.50 0.1333
844.60 0.1332
844.70 0.1331
844.80 0.1331
844.90 0.133
845.00 0.133
845.10 0.1329
845.20 0.1328
845.30 0.1328
845.40 0.1327
845.50 0.1326
845.60 0.1326
845.70 0.1325
845.80 0.1325
845.90 0.1324
846.00 0.1323
846.10 0.1323
846.20 0.1322
846.30 0.1322
846.40 0.1321
846.50 0.132
846.60 0.132
846.70 0.1319
846.80 0.1319
846.90 0.1318
847.00 0.1317
847.10 0.1317
847.20 0.1316
847.30 0.1315
847.40 0.1315
847.50 0.1314
847.60 0.1314
847.70 0.1313
847.80 0.1312
847.90 0.1312
848.00 0.1311
848.10 0.1311
848.20 0.131
848.30 0.1309
848.40 0.1309
848.50 0.1308
848.60 0.1308
848.70 0.1307
848.80 0.1306
848.90 0.1306
849.00 0.1305
849.10 0.1305
849.20 0.1304
849.30 0.1303
849.40 0.1303
849.50 0.1302
849.60 0.1302
849.70 0.1301
849.80 0.1301
849.90 0.13
850.00 0.1299
850.10 0.1299
850.20 0.1298
850.30 0.1298
850.40 0.1297
850.50 0.1296
850.60 0.1296
850.70 0.1295
850.80 0.1295
850.90 0.1294
851.00 0.1293
851.10 0.1293
851.20 0.1292
851.30 0.1292
851.40 0.1291
851.50 0.129
851.60 0.129
851.70 0.1289
851.80 0.1289
851.90 0.1288
852.00 0.1287
852.10 0.1287
852.20 0.1286
852.30 0.1286
852.40 0.1285
852.50 0.1285
852.60 0.1284
852.70 0.1283
852.80 0.1283
852.90 0.1282
853.00 0.1282
853.10 0.1281
853.20 0.128
853.30 0.128
853.40 0.1279
853.50 0.1279
853.60 0.1278
853.70 0.1278
853.80 0.1277
853.90 0.1276
854.00 0.1276
854.10 0.1275
854.20 0.1275
854.30 0.1274
854.40 0.1273
854.50 0.1273
854.60 0.1272
854.70 0.1272
854.80 0.1271
854.90 0.1271
855.00 0.127
855.10 0.1269
855.20 0.1269
855.30 0.1268
855.40 0.1268
855.50 0.1267
855.60 0.1267
855.70 0.1266
855.80 0.1265
855.90 0.1265
856.00 0.1264
856.10 0.1264
856.20 0.1263
856.30 0.1262
856.40 0.1262
856.50 0.1261
856.60 0.1261
856.70 0.126
856.80 0.126
856.90 0.1259
857.00 0.1258
857.10 0.1258
857.20 0.1257
857.30 0.1257
857.40 0.1256
857.50 0.1256
857.60 0.1255
857.70 0.1254
857.80 0.1254
857.90 0.1253
858.00 0.1253
858.10 0.1252
858.20 0.1252
858.30 0.1251
858.40 0.1251
858.50 0.125
858.60 0.1249
858.70 0.1249
858.80 0.1248
858.90 0.1248
859.00 0.1247
859.10 0.1247
859.20 0.1246
859.30 0.1245
859.40 0.1245
859.50 0.1244
859.60 0.1244
859.70 0.1243
859.80 0.1243
859.90 0.1242
860.00 0.1242
860.10 0.1241
860.20 0.124
860.30 0.124
860.40 0.1239
860.50 0.1239
860.60 0.1238
860.70 0.1238
860.80 0.1237
860.90 0.1237
861.00 0.1236
861.10 0.1235
861.20 0.1235
861.30 0.1234
861.40 0.1234
861.50 0.1233
861.60 0.1233
861.70 0.1232
861.80 0.1231
861.90 0.1231
862.00 0.123
862.10 0.123
862.20 0.1229
862.30 0.1229
862.40 0.1228
862.50 0.1228
862.60 0.1227
862.70 0.1227
862.80 0.1226
862.90 0.1225
863.00 0.1225
863.10 0.1224
863.20 0.1224
863.30 0.1223
863.40 0.1223
863.50 0.1222
863.60 0.1222
863.70 0.1221
863.80 0.122
863.90 0.122
864.00 0.1219
864.10 0.1219
864.20 0.1218
864.30 0.1218
864.40 0.1217
864.50 0.1217
864.60 0.1216
864.70 0.1216
864.80 0.1215
864.90 0.1214
865.00 0.1214
865.10 0.1213
865.20 0.1213
865.30 0.1212
865.40 0.1212
865.50 0.1211
865.60 0.1211
865.70 0.121
865.80 0.121
865.90 0.1209
866.00 0.1208
866.10 0.1208
866.20 0.1207
866.30 0.1207
866.40 0.1206
866.50 0.1206
866.60 0.1205
866.70 0.1205
866.80 0.1204
866.90 0.1204
867.00 0.1203
867.10 0.1202
867.20 0.1202
867.30 0.1201
867.40 0.1201
867.50 0.12
867.60 0.12
867.70 0.1199
867.80 0.1199
867.90 0.1198
868.00 0.1198
868.10 0.1197
868.20 0.1197
868.30 0.1196
868.40 0.1195
868.50 0.1195
868.60 0.1194
868.70 0.1194
868.80 0.1193
868.90 0.1193
869.00 0.1192
869.10 0.1192
869.20 0.1191
869.30 0.1191
869.40 0.119
869.50 0.119
869.60 0.1189
869.70 0.1189
869.80 0.1188
869.90 0.1188
870.00 0.1187
870.10 0.1186
870.20 0.1186
870.30 0.1185
870.40 0.1185
870.50 0.1184
870.60 0.1184
870.70 0.1183
870.80 0.1183
870.90 0.1182
871.00 0.1182
871.10 0.1181
871.20 0.1181
871.30 0.118
871.40 0.118
871.50 0.1179
871.60 0.1179
871.70 0.1178
871.80 0.1177
871.90 0.1177
872.00 0.1176
872.10 0.1176
872.20 0.1175
872.30 0.1175
872.40 0.1174
872.50 0.1174
872.60 0.1173
872.70 0.1173
872.80 0.1172
872.90 0.1172
873.00 0.1171
873.10 0.1171
873.20 0.117
873.30 0.117
873.40 0.1169
873.50 0.1169
873.60 0.1168
873.70 0.1168
873.80 0.1167
873.90 0.1167
874.00 0.1166
874.10 0.1166
874.20 0.1165
874.30 0.1164
874.40 0.1164
874.50 0.1163
874.60 0.1163
874.70 0.1162
874.80 0.1162
874.90 0.1161
875.00 0.1161
875.10 0.116
875.20 0.116
875.30 0.1159
875.40 0.1159
875.50 0.1158
875.60 0.1158
875.70 0.1157
875.80 0.1157
875.90 0.1156
876.00 0.1156
876.10 0.1155
876.20 0.1155
876.30 0.1154
876.40 0.1154
876.50 0.1153
876.60 0.1153
876.70 0.1152
876.80 0.1152
876.90 0.1151
877.00 0.1151
877.10 0.115
877.20 0.115
877.30 0.1149
877.40 0.1149
877.50 0.1148
877.60 0.1148
877.70 0.1147
877.80 0.1147
877.90 0.1146
878.00 0.1146
878.10 0.1145
878.20 0.1145
878.30 0.1144
878.40 0.1144
878.50 0.1143
878.60 0.1143
878.70 0.1142
878.80 0.1142
878.90 0.1141
879.00 0.1141
879.10 0.114
879.20 0.114
879.30 0.1139
879.40 0.1138
879.50 0.1138
879.60 0.1137
879.70 0.1137
879.80 0.1136
879.90 0.1136
880.00 0.1135
880.10 0.1135
880.20 0.1134
880.30 0.1134
880.40 0.1133
880.50 0.1133
880.60 0.1132
880.70 0.1132
880.80 0.1131
880.90 0.1131
881.00 0.113
881.10 0.113
881.20 0.113
881.30 0.1129
881.40 0.1129
881.50 0.1128
881.60 0.1128
881.70 0.1127
881.80 0.1127
881.90 0.1126
882.00 0.1126
882.10 0.1125
882.20 0.1125
882.30 0.1124
882.40 0.1124
882.50 0.1123
882.60 0.1123
882.70 0.1122
882.80 0.1122
882.90 0.1121
883.00 0.1121
883.10 0.112
883.20 0.112
883.30 0.1119
883.40 0.1119
883.50 0.1118
883.60 0.1118
883.70 0.1117
883.80 0.1117
883.90 0.1116
884.00 0.1116
884.10 0.1115
884.20 0.1115
884.30 0.1114
884.40 0.1114
884.50 0.1113
884.60 0.1113
884.70 0.1112
884.80 0.1112
884.90 0.1111
885.00 0.1111
885.10 0.111
885.20 0.111
885.30 0.1109
885.40 0.1109
885.50 0.1108
885.60 0.1108
885.70 0.1107
885.80 0.1107
885.90 0.1107
886.00 0.1106
886.10 0.1106
886.20 0.1105
886.30 0.1105
886.40 0.1104
886.50 0.1104
886.60 0.1103
886.70 0.1103
886.80 0.1102
886.90 0.1102
887.00 0.1101
887.10 0.1101
887.20 0.11
887.30 0.11
887.40 0.1099
887.50 0.1099
887.60 0.1098
887.70 0.1098
887.80 0.1097
887.90 0.1097
888.00 0.1096
888.10 0.1096
888.20 0.1095
888.30 0.1095
888.40 0.1095
888.50 0.1094
888.60 0.1094
888.70 0.1093
888.80 0.1093
888.90 0.1092
889.00 0.1092
889.10 0.1091
889.20 0.1091
889.30 0.109
889.40 0.109
889.50 0.1089
889.60 0.1089
889.70 0.1088
889.80 0.1088
889.90 0.1087
890.00 0.1087
890.10 0.1086
890.20 0.1086
890.30 0.1086
890.40 0.1085
890.50 0.1085
890.60 0.1084
890.70 0.1084
890.80 0.1083
890.90 0.1083
891.00 0.1082
891.10 0.1082
891.20 0.1081
891.30 0.1081
891.40 0.108
891.50 0.108
891.60 0.1079
891.70 0.1079
891.80 0.1078
891.90 0.1078
892.00 0.1077
892.10 0.1077
892.20 0.1077
892.30 0.1076
892.40 0.1076
892.50 0.1075
892.60 0.1075
892.70 0.1074
892.80 0.1074
892.90 0.1073
893.00 0.1073
893.10 0.1072
893.20 0.1072
893.30 0.1071
893.40 0.1071
893.50 0.1071
893.60 0.107
893.70 0.107
893.80 0.1069
893.90 0.1069
894.00 0.1068
894.10 0.1068
894.20 0.1067
894.30 0.1067
894.40 0.1066
894.50 0.1066
894.60 0.1065
894.70 0.1065
894.80 0.1065
894.90 0.1064
895.00 0.1064
895.10 0.1063
895.20 0.1063
895.30 0.1062
895.40 0.1062
895.50 0.1061
895.60 0.1061
895.70 0.106
895.80 0.106
895.90 0.1059
896.00 0.1059
896.10 0.1059
896.20 0.1058
896.30 0.1058
896.40 0.1057
896.50 0.1057
896.60 0.1056
896.70 0.1056
896.80 0.1055
896.90 0.1055
897.00 0.1054
897.10 0.1054
897.20 0.1054
897.30 0.1053
897.40 0.1053
897.50 0.1052
897.60 0.1052
897.70 0.1051
897.80 0.1051
897.90 0.105
898.00 0.105
898.10 0.1049
898.20 0.1049
898.30 0.1049
898.40 0.1048
898.50 0.1048
898.60 0.1047
898.70 0.1047
898.80 0.1046
898.90 0.1046
899.00 0.1045
899.10 0.1045
899.20 0.1045
899.30 0.1044
899.40 0.1044
899.50 0.1043
899.60 0.1043
899.70 0.1042
899.80 0.1042
899.90 0.1041
900.00 0.1041
900.10 0.1041
900.20 0.104
900.30 0.104
900.40 0.1039
900.50 0.1039
900.60 0.1038
900.70 0.1038
900.80 0.1037
900.90 0.1037
901.00 0.1037
901.10 0.1036
901.20 0.1036
901.30 0.1035
901.40 0.1035
901.50 0.1034
901.60 0.1034
901.70 0.1033
901.80 0.1033
901.90 0.1033
902.00 0.1032
902.10 0.1032
902.20 0.1031
902.30 0.1031
902.40 0.103
902.50 0.103
902.60 0.103
902.70 0.1029
902.80 0.1029
902.90 0.1028
903.00 0.1028
903.10 0.1027
903.20 0.1027
903.30 0.1026
903.40 0.1026
903.50 0.1026
903.60 0.1025
903.70 0.1025
903.80 0.1024
903.90 0.1024
904.00 0.1023
904.10 0.1023
904.20 0.1023
904.30 0.1022
904.40 0.1022
904.50 0.1021
904.60 0.1021
904.70 0.102
904.80 0.102
904.90 0.1019
905.00 0.1019
905.10 0.1019
905.20 0.1018
905.30 0.1018
905.40 0.1017
905.50 0.1017
905.60 0.1016
905.70 0.1016
905.80 0.1016
905.90 0.1015
906.00 0.1015
906.10 0.1014
906.20 0.1014
906.30 0.1013
906.40 0.1013
906.50 0.1013
906.60 0.1012
906.70 0.1012
906.80 0.1011
906.90 0.1011
907.00 0.101
907.10 0.101
907.20 0.101
907.30 0.1009
907.40 0.1009
907.50 0.1008
907.60 0.1008
907.70 0.1007
907.80 0.1007
907.90 0.1007
908.00 0.1006
908.10 0.1006
908.20 0.1005
908.30 0.1005
908.40 0.1004
908.50 0.1004
908.60 0.1004
908.70 0.1003
908.80 0.1003
908.90 0.1002
909.00 0.1002
909.10 0.1001
909.20 0.1001
909.30 0.1001
909.40 0.1
909.50 0.09997
909.60 0.09993
909.70 0.09989
909.80 0.09984
909.90 0.0998
910.00 0.09976
910.10 0.09972
910.20 0.09967
910.30 0.09963
910.40 0.09959
910.50 0.09955
910.60 0.0995
910.70 0.09946
910.80 0.09942
910.90 0.09938
911.00 0.09933
911.10 0.09929
911.20 0.09925
911.30 0.09921
911.40 0.09917
911.50 0.09912
911.60 0.09908
911.70 0.09904
911.80 0.099
911.90 0.09896
912.00 0.09891
912.10 0.09887
912.20 0.09883
912.30 0.09879
912.40 0.09874
912.50 0.0987
912.60 0.09866
912.70 0.09862
912.80 0.09857
912.90 0.09853
913.00 0.09849
913.10 0.09845
913.20 0.09841
913.30 0.09836
913.40 0.09832
913.50 0.09828
913.60 0.09824
913.70 0.0982
913.80 0.09815
913.90 0.09811
914.00 0.09807
914.10 0.09803
914.20 0.09798
914.30 0.09794
914.40 0.0979
914.50 0.09786
914.60 0.09782
914.70 0.09777
914.80 0.09773
914.90 0.09769
915.00 0.09765
915.10 0.09761
915.20 0.09757
915.30 0.09752
915.40 0.09748
915.50 0.09744
915.60 0.0974
915.70 0.09736
915.80 0.09731
915.90 0.09727
916.00 0.09723
916.10 0.09719
916.20 0.09715
916.30 0.09711
916.40 0.09706
916.50 0.09702
916.60 0.09698
916.70 0.09694
916.80 0.0969
916.90 0.09686
917.00 0.09681
917.10 0.09677
917.20 0.09673
917.30 0.09669
917.40 0.09665
917.50 0.09661
917.60 0.09657
917.70 0.09653
917.80 0.09649
917.90 0.09645
918.00 0.09641
918.10 0.09636
918.20 0.09632
918.30 0.09628
918.40 0.09624
918.50 0.0962
918.60 0.09616
918.70 0.09612
918.80 0.09608
918.90 0.09604
919.00 0.096
919.10 0.09596
919.20 0.09592
919.30 0.09588
919.40 0.09584
919.50 0.0958
919.60 0.09575
919.70 0.09571
919.80 0.09567
919.90 0.09563
920.00 0.09559
920.10 0.09555
920.20 0.09551
920.30 0.09547
920.40 0.09543
920.50 0.09539
920.60 0.09535
920.70 0.09531
920.80 0.09527
920.90 0.09523
921.00 0.09519
921.10 0.09515
921.20 0.09511
921.30 0.09507
921.40 0.09503
921.50 0.09499
921.60 0.09495
921.70 0.09491
921.80 0.09487
921.90 0.09483
922.00 0.09479
922.10 0.09475
922.20 0.09471
922.30 0.09467
922.40 0.09463
922.50 0.09459
922.60 0.09455
922.70 0.09451
922.80 0.09447
922.90 0.09444
923.00 0.0944
923.10 0.09436
923.20 0.09432
923.30 0.09428
923.40 0.09424
923.50 0.0942
923.60 0.09416
923.70 0.09413
923.80 0.09409
923.90 0.09405
924.00 0.09401
924.10 0.09397
924.20 0.09393
924.30 0.09389
924.40 0.09385
924.50 0.09382
924.60 0.09378
924.70 0.09374
924.80 0.0937
924.90 0.09366
925.00 0.09362
925.10 0.09358
925.20 0.09355
925.30 0.09351
925.40 0.09347
925.50 0.09343
925.60 0.09339
925.70 0.09335
925.80 0.09332
925.90 0.09328
926.00 0.09324
926.10 0.0932
926.20 0.09316
926.30 0.09312
926.40 0.09308
926.50 0.09305
926.60 0.09301
926.70 0.09297
926.80 0.09293
926.90 0.09289
927.00 0.09286
927.10 0.09282
927.20 0.09278
927.30 0.09274
927.40 0.09271
927.50 0.09267
927.60 0.09263
927.70 0.09259
927.80 0.09256
927.90 0.09252
928.00 0.09248
928.10 0.09244
928.20 0.09241
928.30 0.09237
928.40 0.09233
928.50 0.0923
928.60 0.09226
928.70 0.09222
928.80 0.09218
928.90 0.09215
929.00 0.09211
929.10 0.09207
929.20 0.09204
929.30 0.092
929.40 0.09196
929.50 0.09193
929.60 0.09189
929.70 0.09185
929.80 0.09181
929.90 0.09178
930.00 0.09174
930.10 0.0917
930.20 0.09167
930.30 0.09163
930.40 0.09159
930.50 0.09156
930.60 0.09152
930.70 0.09148
930.80 0.09145
930.90 0.09141
931.00 0.09137
931.10 0.09133
931.20 0.0913
931.30 0.09126
931.40 0.09122
931.50 0.09119
931.60 0.09115
931.70 0.09111
931.80 0.09108
931.90 0.09104
932.00 0.091
932.10 0.09097
932.20 0.09093
932.30 0.09089
932.40 0.09086
932.50 0.09082
932.60 0.09078
932.70 0.09074
932.80 0.09071
932.90 0.09067
933.00 0.09063
933.10 0.0906
933.20 0.09056
933.30 0.09052
933.40 0.09049
933.50 0.09045
933.60 0.09041
933.70 0.09038
933.80 0.09034
933.90 0.0903
934.00 0.09026
934.10 0.09023
934.20 0.09019
934.30 0.09015
934.40 0.09012
934.50 0.09008
934.60 0.09004
934.70 0.09001
934.80 0.08997
934.90 0.08993
935.00 0.08989
935.10 0.08986
935.20 0.08982
935.30 0.08978
935.40 0.08974
935.50 0.08971
935.60 0.08967
935.70 0.08963
935.80 0.0896
935.90 0.08956
936.00 0.08952
936.10 0.08949
936.20 0.08945
936.30 0.08941
936.40 0.08937
936.50 0.08934
936.60 0.0893
936.70 0.08926
936.80 0.08923
936.90 0.08919
937.00 0.08915
937.10 0.08912
937.20 0.08908
937.30 0.08904
937.40 0.089
937.50 0.08897
937.60 0.08893
937.70 0.08889
937.80 0.08885
937.90 0.08882
938.00 0.08878
938.10 0.08874
938.20 0.08871
938.30 0.08867
938.40 0.08863
938.50 0.08859
938.60 0.08856
938.70 0.08852
938.80 0.08848
938.90 0.08844
939.00 0.08841
939.10 0.08837
939.20 0.08833
939.30 0.08829
939.40 0.08826
939.50 0.08822
939.60 0.08818
939.70 0.08814
939.80 0.08811
939.90 0.08807
940.00 0.08803
940.10 0.088
940.20 0.08796
940.30 0.08792
940.40 0.08788
940.50 0.08785
940.60 0.08781
940.70 0.08777
940.80 0.08773
940.90 0.08769
941.00 0.08766
941.10 0.08762
941.20 0.08758
941.30 0.08754
941.40 0.08751
941.50 0.08747
941.60 0.08743
941.70 0.08739
941.80 0.08736
941.90 0.08732
942.00 0.08728
942.10 0.08724
942.20 0.08721
942.30 0.08717
942.40 0.08713
942.50 0.08709
942.60 0.08706
942.70 0.08702
942.80 0.08698
942.90 0.08694
943.00 0.0869
943.10 0.08687
943.20 0.08683
943.30 0.08679
943.40 0.08675
943.50 0.08672
943.60 0.08668
943.70 0.08664
943.80 0.0866
943.90 0.08656
944.00 0.08653
944.10 0.08649
944.20 0.08645
944.30 0.08641
944.40 0.08638
944.50 0.08634
944.60 0.0863
944.70 0.08626
944.80 0.08622
944.90 0.08619
945.00 0.08615
945.10 0.08611
945.20 0.08607
945.30 0.08603
945.40 0.086
945.50 0.08596
945.60 0.08592
945.70 0.08588
945.80 0.08584
945.90 0.08581
946.00 0.08577
946.10 0.08573
946.20 0.08569
946.30 0.08565
946.40 0.08562
946.50 0.08558
946.60 0.08554
946.70 0.0855
946.80 0.08546
946.90 0.08543
947.00 0.08539
947.10 0.08535
947.20 0.08531
947.30 0.08527
947.40 0.08524
947.50 0.0852
947.60 0.08516
947.70 0.08512
947.80 0.08508
947.90 0.08504
948.00 0.08501
948.10 0.08497
948.20 0.08493
948.30 0.08489
948.40 0.08485
948.50 0.08482
948.60 0.08478
948.70 0.08474
948.80 0.0847
948.90 0.08466
949.00 0.08463
949.10 0.08459
949.20 0.08455
949.30 0.08451
949.40 0.08448
949.50 0.08444
949.60 0.0844
949.70 0.08436
949.80 0.08432
949.90 0.08429
950.00 0.08425
950.10 0.08421
950.20 0.08417
950.30 0.08414
950.40 0.0841
950.50 0.08406
950.60 0.08402
950.70 0.08399
950.80 0.08395
950.90 0.08391
951.00 0.08387
951.10 0.08384
951.20 0.0838
951.30 0.08376
951.40 0.08372
951.50 0.08369
951.60 0.08365
951.70 0.08361
951.80 0.08358
951.90 0.08354
952.00 0.0835
952.10 0.08347
952.20 0.08343
952.30 0.0834
952.40 0.08336
952.50 0.08332
952.60 0.08329
952.70 0.08325
952.80 0.08322
952.90 0.08318
953.00 0.08315
953.10 0.08311
953.20 0.08308
953.30 0.08304
953.40 0.08301
953.50 0.08297
953.60 0.08294
953.70 0.08291
953.80 0.08287
953.90 0.08284
954.00 0.08281
954.10 0.08277
954.20 0.08274
954.30 0.08271
954.40 0.08268
954.50 0.08265
954.60 0.08262
954.70 0.08258
954.80 0.08255
954.90 0.08251
955.00 0.08248
955.10 0.08244
955.20 0.08241
955.30 0.08238
955.40 0.08234
955.50 0.08231
955.60 0.08228
955.70 0.08224
955.80 0.08221
955.90 0.08218
956.00 0.08215
956.10 0.08212
956.20 0.08209
956.30 0.08206
956.40 0.08203
956.50 0.082
956.60 0.08197
956.70 0.08193
956.80 0.0819
956.90 0.08187
957.00 0.08184
957.10 0.08181
957.20 0.08178
957.30 0.08175
957.40 0.08172
957.50 0.08169
957.60 0.08166
957.70 0.08164
957.80 0.08161
957.90 0.08158
958.00 0.08155
958.10 0.08152
958.20 0.08149
958.30 0.08146
958.40 0.08143
958.50 0.0814
958.60 0.08137
958.70 0.08134
958.80 0.08132
958.90 0.08129
959.00 0.08126
959.10 0.08123
959.20 0.0812
959.30 0.08117
959.40 0.08114
959.50 0.08111
959.60 0.08108
959.70 0.08106
959.80 0.08103
959.90 0.081
960.00 0.08097
960.10 0.08094
960.20 0.08091
960.30 0.08088
960.40 0.08085
960.50 0.08083
960.60 0.0808
960.70 0.08077
960.80 0.08074
960.90 0.08071
961.00 0.08068
961.10 0.08065
961.20 0.08063
961.30 0.0806
961.40 0.08057
961.50 0.08054
961.60 0.08051
961.70 0.08048
961.80 0.08045
961.90 0.08043
962.00 0.0804
962.10 0.08037
962.20 0.08034
962.30 0.08031
962.40 0.08028
962.50 0.08025
962.60 0.08022
962.70 0.0802
962.80 0.08017
962.90 0.08014
963.00 0.08011
963.10 0.08008
963.20 0.08005
963.30 0.08002
963.40 0.07999
963.50 0.07997
963.60 0.07994
963.70 0.07991
963.80 0.07988
963.90 0.07985
964.00 0.07982
964.10 0.07979
964.20 0.07976
964.30 0.07974
964.40 0.07971
964.50 0.07968
964.60 0.07965
964.70 0.07962
964.80 0.07959
964.90 0.07956
965.00 0.07953
965.10 0.0795
965.20 0.07947
965.30 0.07944
965.40 0.07942
965.50 0.07939
965.60 0.07936
965.70 0.07933
965.80 0.0793
965.90 0.07927
966.00 0.07924
966.10 0.07921
966.20 0.07918
966.30 0.07915
966.40 0.07913
966.50 0.0791
966.60 0.07907
966.70 0.07904
966.80 0.07901
966.90 0.07898
967.00 0.07895
967.10 0.07892
967.20 0.07889
967.30 0.07886
967.40 0.07883
967.50 0.0788
967.60 0.07877
967.70 0.07874
967.80 0.07872
967.90 0.07869
968.00 0.07866
968.10 0.07863
968.20 0.0786
968.30 0.07857
968.40 0.07854
968.50 0.07851
968.60 0.07848
968.70 0.07845
968.80 0.07842
968.90 0.07839
969.00 0.07836
969.10 0.07833
969.20 0.0783
969.30 0.07827
969.40 0.07824
969.50 0.07821
969.60 0.07818
969.70 0.07816
969.80 0.07813
969.90 0.0781
970.00 0.07807
970.10 0.07804
970.20 0.07801
970.30 0.07798
970.40 0.07795
970.50 0.07792
970.60 0.07789
970.70 0.07786
970.80 0.07783
970.90 0.0778
971.00 0.07777
971.10 0.07774
971.20 0.07771
971.30 0.07768
971.40 0.07765
971.50 0.07762
971.60 0.07759
971.70 0.07756
971.80 0.07753
971.90 0.0775
972.00 0.07747
972.10 0.07744
972.20 0.07741
972.30 0.07738
972.40 0.07735
972.50 0.07732
972.60 0.07729
972.70 0.07726
972.80 0.07723
972.90 0.0772
973.00 0.07717
973.10 0.07714
973.20 0.07711
973.30 0.07709
973.40 0.07706
973.50 0.07703
973.60 0.077
973.70 0.07697
973.80 0.07694
973.90 0.07691
974.00 0.07688
974.10 0.07685
974.20 0.07682
974.30 0.07679
974.40 0.07676
974.50 0.07673
974.60 0.0767
974.70 0.07667
974.80 0.07664
974.90 0.07661
975.00 0.07658
975.10 0.07655
975.20 0.07652
975.30 0.07649
975.40 0.07646
975.50 0.07643
975.60 0.0764
975.70 0.07637
975.80 0.07634
975.90 0.07631
976.00 0.07628
976.10 0.07625
976.20 0.07622
976.30 0.07619
976.40 0.07616
976.50 0.07613
976.60 0.0761
976.70 0.07607
976.80 0.07604
976.90 0.07601
977.00 0.07598
977.10 0.07595
977.20 0.07592
977.30 0.07589
977.40 0.07586
977.50 0.07583
977.60 0.07579
977.70 0.07576
977.80 0.07573
977.90 0.0757
978.00 0.07567
978.10 0.07564
978.20 0.07561
978.30 0.07558
978.40 0.07555
978.50 0.07552
978.60 0.07549
978.70 0.07546
978.80 0.07543
978.90 0.0754
979.00 0.07537
979.10 0.07534
979.20 0.07531
979.30 0.07528
979.40 0.07525
979.50 0.07522
979.60 0.07519
979.70 0.07516
979.80 0.07513
979.90 0.0751
980.00 0.07507
980.10 0.07504
980.20 0.07501
980.30 0.07498
980.40 0.07495
980.50 0.07492
980.60 0.07489
980.70 0.07486
980.80 0.07483
980.90 0.0748
981.00 0.07477
981.10 0.07474
981.20 0.07471
981.30 0.07468
981.40 0.07465
981.50 0.07462
981.60 0.07459
981.70 0.07456
981.80 0.07453
981.90 0.0745
982.00 0.07447
982.10 0.07444
982.20 0.07441
982.30 0.07438
982.40 0.07434
982.50 0.07431
982.60 0.07428
982.70 0.07425
982.80 0.07422
982.90 0.07419
983.00 0.07416
983.10 0.07413
983.20 0.0741
983.30 0.07407
983.40 0.07404
983.50 0.07401
983.60 0.07398
983.70 0.07395
983.80 0.07392
983.90 0.07389
984.00 0.07386
984.10 0.07383
984.20 0.0738
984.30 0.07376
984.40 0.07373
984.50 0.0737
984.60 0.07367
984.70 0.07364
984.80 0.07361
984.90 0.07358
985.00 0.07355
985.10 0.07352
985.20 0.07349
985.30 0.07346
985.40 0.07343
985.50 0.0734
985.60 0.07336
985.70 0.07333
985.80 0.0733
985.90 0.07327
986.00 0.07324
986.10 0.07321
986.20 0.07318
986.30 0.07315
986.40 0.07312
986.50 0.07309
986.60 0.07306
986.70 0.07303
986.80 0.073
986.90 0.07296
987.00 0.07293
987.10 0.0729
987.20 0.07287
987.30 0.07284
987.40 0.07281
987.50 0.07278
987.60 0.07275
987.70 0.07272
987.80 0.07268
987.90 0.07265
988.00 0.07262
988.10 0.07259
988.20 0.07256
988.30 0.07253
988.40 0.0725
988.50 0.07247
988.60 0.07243
988.70 0.0724
988.80 0.07237
988.90 0.07234
989.00 0.07231
989.10 0.07228
989.20 0.07224
989.30 0.07221
989.40 0.07218
989.50 0.07215
989.60 0.07212
989.70 0.07209
989.80 0.07206
989.90 0.07202
990.00 0.07199
990.10 0.07196
990.20 0.07193
990.30 0.0719
990.40 0.07187
990.50 0.07183
990.60 0.0718
990.70 0.07177
990.80 0.07174
990.90 0.07171
991.00 0.07167
991.10 0.07164
991.20 0.07161
991.30 0.07158
991.40 0.07155
991.50 0.07151
991.60 0.07148
991.70 0.07145
991.80 0.07142
991.90 0.07139
992.00 0.07135
992.10 0.07132
992.20 0.07129
992.30 0.07126
992.40 0.07122
992.50 0.07119
992.60 0.07116
992.70 0.07113
992.80 0.07109
992.90 0.07106
993.00 0.07103
993.10 0.07099
993.20 0.07096
993.30 0.07093
993.40 0.07089
993.50 0.07086
993.60 0.07083
993.70 0.0708
993.80 0.07076
993.90 0.07073
994.00 0.0707
994.10 0.07066
994.20 0.07063
994.30 0.0706
994.40 0.07056
994.50 0.07053
994.60 0.0705
994.70 0.07047
994.80 0.07043
994.90 0.0704
995.00 0.07036
995.10 0.07033
995.20 0.0703
995.30 0.07026
995.40 0.07023
995.50 0.0702
995.60 0.07016
995.70 0.07013
995.80 0.07009
995.90 0.07006
996.00 0.07003
996.10 0.06999
996.20 0.06996
996.30 0.06992
996.40 0.06989
996.50 0.06985
996.60 0.06982
996.70 0.06979
996.80 0.06975
996.90 0.06972
997.00 0.06968
997.10 0.06965
997.20 0.06961
997.30 0.06958
997.40 0.06954
997.50 0.06951
997.60 0.06947
997.70 0.06944
997.80 0.0694
997.90 0.06937
998.00 0.06933
998.10 0.0693
998.20 0.06926
998.30 0.06923
998.40 0.06919
998.50 0.06916
998.60 0.06912
998.70 0.06909
998.80 0.06905
998.90 0.06902
999.00 0.06898
999.10 0.06894
999.20 0.06891
999.30 0.06887
999.40 0.06884
999.50 0.0688
999.60 0.06877
999.70 0.06873
999.80 0.0687
999.90 0.06866
1000.00 0.06862
1000.10 0.06859
1000.20 0.06855
1000.30 0.06851
1000.40 0.06848
1000.50 0.06844
1000.60 0.0684
1000.70 0.06837
1000.80 0.06833
1000.90 0.06829
1001.00 0.06826
1001.10 0.06822
1001.20 0.06819
1001.30 0.06815
1001.40 0.06811
1001.50 0.06808
1001.60 0.06804
1001.70 0.06801
1001.80 0.06797
1001.90 0.06794
1002.00 0.0679
1002.10 0.06787
1002.20 0.06784
1002.30 0.06781
1002.40 0.06777
1002.50 0.06774
1002.60 0.06771
1002.70 0.06768
1002.80 0.06765
1002.90 0.06761
1003.00 0.06758
1003.10 0.06755
1003.20 0.06752
1003.30 0.0675
1003.40 0.06747
1003.50 0.06744
1003.60 0.06742
1003.70 0.06739
1003.80 0.06737
1003.90 0.06735
1004.00 0.06733
1004.10 0.06731
1004.20 0.06729
1004.30 0.06727
1004.40 0.06726
1004.50 0.06725
1004.60 0.06724
1004.70 0.06722
1004.80 0.06721
1004.90 0.06718
1005.00 0.06716
1005.10 0.06712
1005.20 0.06709
1005.30 0.06705
1005.40 0.06701
1005.50 0.06698
1005.60 0.06694
1005.70 0.06691
1005.80 0.06688
1005.90 0.06684
1006.00 0.06681
1006.10 0.06678
1006.20 0.06675
1006.30 0.06673
1006.40 0.0667
1006.50 0.06668
1006.60 0.06666
1006.70 0.06663
1006.80 0.06661
1006.90 0.06659
1007.00 0.06656
1007.10 0.06654
1007.20 0.06652
1007.30 0.06651
1007.40 0.06649
1007.50 0.06647
1007.60 0.06645
1007.70 0.06643
1007.80 0.06641
1007.90 0.0664
1008.00 0.06638
1008.10 0.06636
1008.20 0.06635
1008.30 0.06633
1008.40 0.06631
1008.50 0.0663
1008.60 0.06628
1008.70 0.06626
1008.80 0.06625
1008.90 0.06623
1009.00 0.06621
1009.10 0.06619
1009.20 0.06618
1009.30 0.06616
1009.40 0.06614
1009.50 0.06613
1009.60 0.06611
1009.70 0.06609
1009.80 0.06608
1009.90 0.06606
1010.00 0.06604
1010.10 0.06603
1010.20 0.06601
1010.30 0.06599
1010.40 0.06598
1010.50 0.06596
1010.60 0.06594
1010.70 0.06593
1010.80 0.06591
1010.90 0.06589
1011.00 0.06588
1011.10 0.06586
1011.20 0.06584
1011.30 0.06583
1011.40 0.06581
1011.50 0.06579
1011.60 0.06578
1011.70 0.06576
1011.80 0.06574
1011.90 0.06572
1012.00 0.06571
1012.10 0.06569
1012.20 0.06567
1012.30 0.06565
1012.40 0.06563
1012.50 0.06562
1012.60 0.0656
1012.70 0.06558
1012.80 0.06556
1012.90 0.06555
1013.00 0.06553
1013.10 0.06551
1013.20 0.06549
1013.30 0.06547
1013.40 0.06546
1013.50 0.06544
1013.60 0.06542
1013.70 0.0654
1013.80 0.06538
1013.90 0.06536
1014.00 0.06534
1014.10 0.06533
1014.20 0.06531
1014.30 0.06529
1014.40 0.06527
1014.50 0.06525
1014.60 0.06523
1014.70 0.06521
1014.80 0.06519
1014.90 0.06517
1015.00 0.06515
1015.10 0.06513
1015.20 0.06512
1015.30 0.0651
1015.40 0.06508
1015.50 0.06506
1015.60 0.06504
1015.70 0.06502
1015.80 0.065
1015.90 0.06498
1016.00 0.06496
1016.10 0.06494
1016.20 0.06492
1016.30 0.0649
1016.40 0.06488
1016.50 0.06486
1016.60 0.06484
1016.70 0.06482
1016.80 0.0648
1016.90 0.06478
1017.00 0.06476
1017.10 0.06474
1017.20 0.06472
1017.30 0.0647
1017.40 0.06468
1017.50 0.06466
1017.60 0.06464
1017.70 0.06462
1017.80 0.0646
1017.90 0.06458
1018.00 0.06456
1018.10 0.06453
1018.20 0.06451
1018.30 0.06449
1018.40 0.06447
1018.50 0.06445
1018.60 0.06443
1018.70 0.06441
1018.80 0.06439
1018.90 0.06437
1019.00 0.06435
1019.10 0.06433
1019.20 0.0643
1019.30 0.06428
1019.40 0.06426
1019.50 0.06424
1019.60 0.06422
1019.70 0.0642
1019.80 0.06418
1019.90 0.06416
1020.00 0.06414
1020.10 0.06411
1020.20 0.06409
1020.30 0.06407
1020.40 0.06405
1020.50 0.06403
1020.60 0.06401
1020.70 0.06399
1020.80 0.06397
1020.90 0.06394
1021.00 0.06392
1021.10 0.0639
1021.20 0.06388
1021.30 0.06386
1021.40 0.06384
1021.50 0.06381
1021.60 0.06379
1021.70 0.06377
1021.80 0.06375
1021.90 0.06373
1022.00 0.06371
1022.10 0.06368
1022.20 0.06366
1022.30 0.06364
1022.40 0.06362
1022.50 0.0636
1022.60 0.06357
1022.70 0.06355
1022.80 0.06353
1022.90 0.06351
1023.00 0.06349
1023.10 0.06346
1023.20 0.06344
1023.30 0.06342
1023.40 0.0634
1023.50 0.06338
1023.60 0.06335
1023.70 0.06333
1023.80 0.06331
1023.90 0.06329
1024.00 0.06327
1024.10 0.06324
1024.20 0.06322
1024.30 0.0632
1024.40 0.06318
1024.50 0.06316
1024.60 0.06313
1024.70 0.06311
1024.80 0.06309
1024.90 0.06307
1025.00 0.06304
1025.10 0.06302
1025.20 0.063
1025.30 0.06298
1025.40 0.06296
1025.50 0.06293
1025.60 0.06291
1025.70 0.06289
1025.80 0.06287
1025.90 0.06284
1026.00 0.06282
1026.10 0.0628
1026.20 0.06278
1026.30 0.06275
1026.40 0.06273
1026.50 0.06271
1026.60 0.06269
1026.70 0.06267
1026.80 0.06264
1026.90 0.06262
1027.00 0.0626
1027.10 0.06258
1027.20 0.06255
1027.30 0.06253
1027.40 0.06251
1027.50 0.06249
1027.60 0.06246
1027.70 0.06244
1027.80 0.06242
1027.90 0.0624
1028.00 0.06237
1028.10 0.06235
1028.20 0.06233
1028.30 0.06231
1028.40 0.06228
1028.50 0.06226
1028.60 0.06224
1028.70 0.06221
1028.80 0.06219
1028.90 0.06217
1029.00 0.06215
1029.10 0.06212
1029.20 0.0621
1029.30 0.06208
1029.40 0.06206
1029.50 0.06203
1029.60 0.06201
1029.70 0.06199
1029.80 0.06197
1029.90 0.06195
1030.00 0.06192
1030.10 0.0619
1030.20 0.06188
1030.30 0.06186
1030.40 0.06183
1030.50 0.06181
1030.60 0.06179
1030.70 0.06177
1030.80 0.06174
1030.90 0.06172
1031.00 0.0617
1031.10 0.06168
1031.20 0.06165
1031.30 0.06163
1031.40 0.06161
1031.50 0.06159
1031.60 0.06156
1031.70 0.06154
1031.80 0.06152
1031.90 0.0615
1032.00 0.06148
1032.10 0.06145
1032.20 0.06143
1032.30 0.06141
1032.40 0.06139
1032.50 0.06136
1032.60 0.06134
1032.70 0.06132
1032.80 0.0613
1032.90 0.06127
1033.00 0.06125
1033.10 0.06123
1033.20 0.06121
1033.30 0.06118
1033.40 0.06116
1033.50 0.06114
1033.60 0.06112
1033.70 0.06109
1033.80 0.06107
1033.90 0.06105
1034.00 0.06103
1034.10 0.061
1034.20 0.06098
1034.30 0.06096
1034.40 0.06094
1034.50 0.06091
1034.60 0.06089
1034.70 0.06087
1034.80 0.06085
1034.90 0.06082
1035.00 0.0608
1035.10 0.06078
1035.20 0.06076
1035.30 0.06073
1035.40 0.06071
1035.50 0.06069
1035.60 0.06067
1035.70 0.06065
1035.80 0.06062
1035.90 0.0606
1036.00 0.06058
1036.10 0.06056
1036.20 0.06053
1036.30 0.06051
1036.40 0.06049
1036.50 0.06047
1036.60 0.06044
1036.70 0.06042
1036.80 0.0604
1036.90 0.06038
1037.00 0.06036
1037.10 0.06033
1037.20 0.06031
1037.30 0.06029
1037.40 0.06027
1037.50 0.06024
1037.60 0.06022
1037.70 0.0602
1037.80 0.06018
1037.90 0.06015
1038.00 0.06013
1038.10 0.06011
1038.20 0.06009
1038.30 0.06007
1038.40 0.06004
1038.50 0.06002
1038.60 0.06
1038.70 0.05998
1038.80 0.05995
1038.90 0.05993
1039.00 0.05991
1039.10 0.05989
1039.20 0.05987
1039.30 0.05984
1039.40 0.05982
1039.50 0.0598
1039.60 0.05978
1039.70 0.05976
1039.80 0.05973
1039.90 0.05971
1040.00 0.05969
1040.10 0.05967
1040.20 0.05964
1040.30 0.05962
1040.40 0.0596
1040.50 0.05958
1040.60 0.05956
1040.70 0.05953
1040.80 0.05951
1040.90 0.05949
1041.00 0.05947
1041.10 0.05945
1041.20 0.05942
1041.30 0.0594
1041.40 0.05938
1041.50 0.05936
1041.60 0.05934
1041.70 0.05931
1041.80 0.05929
1041.90 0.05927
1042.00 0.05925
1042.10 0.05923
1042.20 0.0592
1042.30 0.05918
1042.40 0.05916
1042.50 0.05914
1042.60 0.05912
1042.70 0.05909
1042.80 0.05907
1042.90 0.05905
1043.00 0.05903
1043.10 0.05901
1043.20 0.05898
1043.30 0.05896
1043.40 0.05894
1043.50 0.05892
1043.60 0.0589
1043.70 0.05888
1043.80 0.05885
1043.90 0.05883
1044.00 0.05881
1044.10 0.05879
1044.20 0.05877
1044.30 0.05874
1044.40 0.05872
1044.50 0.0587
1044.60 0.05868
1044.70 0.05866
1044.80 0.05863
1044.90 0.05861
1045.00 0.05859
1045.10 0.05857
1045.20 0.05855
1045.30 0.05853
1045.40 0.0585
1045.50 0.05848
1045.60 0.05846
1045.70 0.05844
1045.80 0.05842
1045.90 0.0584
1046.00 0.05837
1046.10 0.05835
1046.20 0.05833
1046.30 0.05831
1046.40 0.05829
1046.50 0.05827
1046.60 0.05824
1046.70 0.05822
1046.80 0.0582
1046.90 0.05818
1047.00 0.05816
1047.10 0.05814
1047.20 0.05811
1047.30 0.05809
1047.40 0.05807
1047.50 0.05805
1047.60 0.05803
1047.70 0.05801
1047.80 0.05798
1047.90 0.05796
1048.00 0.05794
1048.10 0.05792
1048.20 0.0579
1048.30 0.05788
1048.40 0.05785
1048.50 0.05783
1048.60 0.05781
1048.70 0.05779
1048.80 0.05777
1048.90 0.05775
1049.00 0.05773
1049.10 0.0577
1049.20 0.05768
1049.30 0.05766
1049.40 0.05764
1049.50 0.05762
1049.60 0.0576
1049.70 0.05758
1049.80 0.05755
1049.90 0.05753
1050.00 0.05751
1050.10 0.05749
1050.20 0.05747
1050.30 0.05745
1050.40 0.05743
1050.50 0.0574
1050.60 0.05738
1050.70 0.05736
1050.80 0.05734
1050.90 0.05732
1051.00 0.0573
1051.10 0.05728
1051.20 0.05725
1051.30 0.05723
1051.40 0.05721
1051.50 0.05719
1051.60 0.05717
1051.70 0.05715
1051.80 0.05713
1051.90 0.05711
1052.00 0.05708
1052.10 0.05706
1052.20 0.05704
1052.30 0.05702
1052.40 0.057
1052.50 0.05698
1052.60 0.05696
1052.70 0.05694
1052.80 0.05691
1052.90 0.05689
1053.00 0.05687
1053.10 0.05685
1053.20 0.05683
1053.30 0.05681
1053.40 0.05679
1053.50 0.05677
1053.60 0.05674
1053.70 0.05672
1053.80 0.0567
1053.90 0.05668
1054.00 0.05666
1054.10 0.05664
1054.20 0.05662
1054.30 0.0566
1054.40 0.05658
1054.50 0.05655
1054.60 0.05653
1054.70 0.05651
1054.80 0.05649
1054.90 0.05647
1055.00 0.05645
1055.10 0.05643
1055.20 0.05641
1055.30 0.05639
1055.40 0.05636
1055.50 0.05634
1055.60 0.05632
1055.70 0.0563
1055.80 0.05628
1055.90 0.05626
1056.00 0.05624
1056.10 0.05622
1056.20 0.0562
1056.30 0.05618
1056.40 0.05615
1056.50 0.05613
1056.60 0.05611
1056.70 0.05609
1056.80 0.05607
1056.90 0.05605
1057.00 0.05603
1057.10 0.05601
1057.20 0.05599
1057.30 0.05597
1057.40 0.05594
1057.50 0.05592
1057.60 0.0559
1057.70 0.05588
1057.80 0.05586
1057.90 0.05584
1058.00 0.05582
1058.10 0.0558
1058.20 0.05578
1058.30 0.05576
1058.40 0.05574
1058.50 0.05571
1058.60 0.05569
1058.70 0.05567
1058.80 0.05565
1058.90 0.05563
1059.00 0.05561
1059.10 0.05559
1059.20 0.05557
1059.30 0.05555
1059.40 0.05553
1059.50 0.05551
1059.60 0.05548
1059.70 0.05546
1059.80 0.05544
1059.90 0.05542
1060.00 0.0554
1060.10 0.05538
1060.20 0.05536
1060.30 0.05534
1060.40 0.05532
1060.50 0.0553
1060.60 0.05528
1060.70 0.05526
1060.80 0.05524
1060.90 0.05521
1061.00 0.05519
1061.10 0.05517
1061.20 0.05515
1061.30 0.05513
1061.40 0.05511
1061.50 0.05509
1061.60 0.05507
1061.70 0.05505
1061.80 0.05503
1061.90 0.05501
1062.00 0.05499
1062.10 0.05497
1062.20 0.05495
1062.30 0.05492
1062.40 0.0549
1062.50 0.05488
1062.60 0.05486
1062.70 0.05484
1062.80 0.05482
1062.90 0.0548
1063.00 0.05478
1063.10 0.05476
1063.20 0.05474
1063.30 0.05472
1063.40 0.0547
1063.50 0.05468
1063.60 0.05466
1063.70 0.05463
1063.80 0.05461
1063.90 0.05459
1064.00 0.05457
1064.10 0.05455
1064.20 0.05453
1064.30 0.05451
1064.40 0.05449
1064.50 0.05447
1064.60 0.05445
1064.70 0.05443
1064.80 0.05441
1064.90 0.05439
1065.00 0.05437
1065.10 0.05435
1065.20 0.05432
1065.30 0.0543
1065.40 0.05428
1065.50 0.05426
1065.60 0.05424
1065.70 0.05422
1065.80 0.0542
1065.90 0.05418
1066.00 0.05416
1066.10 0.05414
1066.20 0.05412
1066.30 0.0541
1066.40 0.05408
1066.50 0.05406
1066.60 0.05404
1066.70 0.05402
1066.80 0.054
1066.90 0.05398
1067.00 0.05395
1067.10 0.05393
1067.20 0.05391
1067.30 0.05389
1067.40 0.05387
1067.50 0.05385
1067.60 0.05383
1067.70 0.05381
1067.80 0.05379
1067.90 0.05377
1068.00 0.05375
1068.10 0.05373
1068.20 0.0537
1068.30 0.05368
1068.40 0.05366
1068.50 0.05364
1068.60 0.05362
1068.70 0.0536
1068.80 0.05358
1068.90 0.05356
1069.00 0.05354
1069.10 0.05352
1069.20 0.0535
1069.30 0.05348
1069.40 0.05346
1069.50 0.05343
1069.60 0.05341
1069.70 0.05339
1069.80 0.05337
1069.90 0.05335
1070.00 0.05333
1070.10 0.05331
1070.20 0.05329
1070.30 0.05327
1070.40 0.05325
1070.50 0.05323
1070.60 0.05321
1070.70 0.05319
1070.80 0.05317
1070.90 0.05315
1071.00 0.05312
1071.10 0.0531
1071.20 0.05308
1071.30 0.05306
1071.40 0.05304
1071.50 0.05302
1071.60 0.053
1071.70 0.05298
1071.80 0.05296
1071.90 0.05294
1072.00 0.05292
1072.10 0.0529
1072.20 0.05288
1072.30 0.05286
1072.40 0.05283
1072.50 0.05281
1072.60 0.05279
1072.70 0.05277
1072.80 0.05275
1072.90 0.05273
1073.00 0.05271
1073.10 0.05269
1073.20 0.05267
1073.30 0.05265
1073.40 0.05262
1073.50 0.0526
1073.60 0.05258
1073.70 0.05256
1073.80 0.05254
1073.90 0.05252
1074.00 0.0525
1074.10 0.05247
1074.20 0.05245
1074.30 0.05243
1074.40 0.05241
1074.50 0.05239
1074.60 0.05237
1074.70 0.05235
1074.80 0.05232
1074.90 0.0523
1075.00 0.05228
1075.10 0.05226
1075.20 0.05224
1075.30 0.05222
1075.40 0.0522
1075.50 0.05218
1075.60 0.05215
1075.70 0.05213
1075.80 0.05211
1075.90 0.05209
1076.00 0.05207
1076.10 0.05205
1076.20 0.05203
1076.30 0.052
1076.40 0.05198
1076.50 0.05196
1076.60 0.05194
1076.70 0.05192
1076.80 0.0519
1076.90 0.05188
1077.00 0.05186
1077.10 0.05183
1077.20 0.05181
1077.30 0.05179
1077.40 0.05177
1077.50 0.05175
1077.60 0.05172
1077.70 0.0517
1077.80 0.05168
1077.90 0.05166
1078.00 0.05163
1078.10 0.05161
1078.20 0.05159
1078.30 0.05157
1078.40 0.05154
1078.50 0.05152
1078.60 0.0515
1078.70 0.05148
1078.80 0.05146
1078.90 0.05143
1079.00 0.05141
1079.10 0.05139
1079.20 0.05137
1079.30 0.05134
1079.40 0.05132
1079.50 0.0513
1079.60 0.05128
1079.70 0.05125
1079.80 0.05123
1079.90 0.05121
1080.00 0.05118
1080.10 0.05116
1080.20 0.05114
1080.30 0.05111
1080.40 0.05109
1080.50 0.05107
1080.60 0.05104
1080.70 0.05102
1080.80 0.051
1080.90 0.05097
1081.00 0.05095
1081.10 0.05093
1081.20 0.0509
1081.30 0.05088
1081.40 0.05086
1081.50 0.05083
1081.60 0.05081
1081.70 0.05079
1081.80 0.05076
1081.90 0.05074
1082.00 0.05071
1082.10 0.05069
1082.20 0.05067
1082.30 0.05064
1082.40 0.05062
1082.50 0.05059
1082.60 0.05057
1082.70 0.05054
1082.80 0.05052
1082.90 0.05049
1083.00 0.05047
1083.10 0.05044
1083.20 0.05042
1083.30 0.05039
1083.40 0.05037
1083.50 0.05035
1083.60 0.05032
1083.70 0.05029
1083.80 0.05027
1083.90 0.05024
1084.00 0.05022
1084.10 0.05019
1084.20 0.05017
1084.30 0.05014
1084.40 0.05012
1084.50 0.05009
1084.60 0.05006
1084.70 0.05004
1084.80 0.05001
1084.90 0.04998
1085.00 0.04995
1085.10 0.04993
1085.20 0.0499
1085.30 0.04987
1085.40 0.04985
1085.50 0.04982
1085.60 0.04979
1085.70 0.04977
1085.80 0.04974
1085.90 0.04971
1086.00 0.04969
1086.10 0.04966
1086.20 0.04963
1086.30 0.04961
1086.40 0.04958
1086.50 0.04955
1086.60 0.04952
1086.70 0.0495
1086.80 0.04947
1086.90 0.04944
1087.00 0.04941
1087.10 0.04938
1087.20 0.04936
1087.30 0.04933
1087.40 0.0493
1087.50 0.04927
1087.60 0.04924
1087.70 0.04921
1087.80 0.04918
1087.90 0.04915
1088.00 0.04913
1088.10 0.0491
1088.20 0.04907
1088.30 0.04904
1088.40 0.04901
1088.50 0.04898
1088.60 0.04895
1088.70 0.04892
1088.80 0.0489
1088.90 0.04887
1089.00 0.04884
1089.10 0.04881
1089.20 0.04878
1089.30 0.04875
1089.40 0.04872
1089.50 0.04869
1089.60 0.04866
1089.70 0.04863
1089.80 0.0486
1089.90 0.04858
1090.00 0.04855
1090.10 0.04852
1090.20 0.04849
1090.30 0.04846
1090.40 0.04843
1090.50 0.0484
1090.60 0.04838
1090.70 0.04835
1090.80 0.04832
1090.90 0.04829
1091.00 0.04827
1091.10 0.04824
1091.20 0.04821
1091.30 0.04818
1091.40 0.04816
1091.50 0.04813
1091.60 0.0481
1091.70 0.04807
1091.80 0.04805
1091.90 0.04802
1092.00 0.04799
1092.10 0.04797
1092.20 0.04794
1092.30 0.04792
1092.40 0.0479
1092.50 0.04787
1092.60 0.04785
1092.70 0.04782
1092.80 0.0478
1092.90 0.04777
1093.00 0.04775
1093.10 0.04773
1093.20 0.0477
1093.30 0.04768
1093.40 0.04766
1093.50 0.04765
1093.60 0.04765
1093.70 0.04765
1093.80 0.04765
1093.90 0.04764
1094.00 0.04761
1094.10 0.04758
1094.20 0.04754
1094.30 0.04752
1094.40 0.04751
1094.50 0.0475
1094.60 0.04749
1094.70 0.04748
1094.80 0.04747
1094.90 0.04746
1095.00 0.04745
1095.10 0.04744
1095.20 0.04743
1095.30 0.04742
1095.40 0.04742
1095.50 0.04741
1095.60 0.0474
1095.70 0.04739
1095.80 0.04738
1095.90 0.04738
1096.00 0.04737
1096.10 0.04736
1096.20 0.04735
1096.30 0.04735
1096.40 0.04734
1096.50 0.04733
1096.60 0.04733
1096.70 0.04732
1096.80 0.04731
1096.90 0.04731
1097.00 0.0473
1097.10 0.0473
1097.20 0.04729
1097.30 0.04729
1097.40 0.04728
1097.50 0.04728
1097.60 0.04727
1097.70 0.04727
1097.80 0.04726
1097.90 0.04726
1098.00 0.04725
1098.10 0.04725
1098.20 0.04724
1098.30 0.04724
1098.40 0.04723
1098.50 0.04723
1098.60 0.04722
1098.70 0.04721
1098.80 0.04721
1098.90 0.0472
1099.00 0.0472
1099.10 0.04719
1099.20 0.04719
1099.30 0.04718
1099.40 0.04718
1099.50 0.04717
1099.60 0.04716
1099.70 0.04716
1099.80 0.04715
1099.90 0.04715
1100.00 0.04714
1100.10 0.04714
1100.20 0.04713
1100.30 0.04713
1100.40 0.04712
1100.50 0.04711
1100.60 0.04711
1100.70 0.0471
1100.80 0.04709
1100.90 0.04708
1101.00 0.04708
1101.10 0.04707
1101.20 0.04706
1101.30 0.04706
1101.40 0.04705
1101.50 0.04704
1101.60 0.04703
1101.70 0.04703
1101.80 0.04702
1101.90 0.04701
1102.00 0.04701
1102.10 0.047
1102.20 0.04699
1102.30 0.04698
1102.40 0.04697
1102.50 0.04696
1102.60 0.04696
1102.70 0.04695
1102.80 0.04694
1102.90 0.04693
1103.00 0.04692
1103.10 0.04691
1103.20 0.0469
1103.30 0.04689
1103.40 0.04688
1103.50 0.04687
1103.60 0.04686
1103.70 0.04685
1103.80 0.04684
1103.90 0.04683
1104.00 0.04682
1104.10 0.04681
1104.20 0.0468
1104.30 0.04679
1104.40 0.04678
1104.50 0.04677
1104.60 0.04676
1104.70 0.04675
1104.80 0.04674
1104.90 0.04673
1105.00 0.04672
1105.10 0.04671
1105.20 0.0467
1105.30 0.04669
1105.40 0.04668
1105.50 0.04667
1105.60 0.04666
1105.70 0.04665
1105.80 0.04663
1105.90 0.04662
1106.00 0.04661
1106.10 0.0466
1106.20 0.04659
1106.30 0.04658
1106.40 0.04657
1106.50 0.04655
1106.60 0.04654
1106.70 0.04653
1106.80 0.04652
1106.90 0.04651
1107.00 0.0465
1107.10 0.04648
1107.20 0.04647
1107.30 0.04646
1107.40 0.04645
1107.50 0.04644
1107.60 0.04642
1107.70 0.04641
1107.80 0.0464
1107.90 0.04638
1108.00 0.04637
1108.10 0.04636
1108.20 0.04635
1108.30 0.04633
1108.40 0.04632
1108.50 0.04631
1108.60 0.04629
1108.70 0.04628
1108.80 0.04627
1108.90 0.04626
1109.00 0.04624
1109.10 0.04623
1109.20 0.04622
1109.30 0.04621
1109.40 0.04619
1109.50 0.04618
1109.60 0.04617
1109.70 0.04615
1109.80 0.04614
1109.90 0.04613
1110.00 0.04611
1110.10 0.0461
1110.20 0.04608
1110.30 0.04607
1110.40 0.04606
1110.50 0.04604
1110.60 0.04603
1110.70 0.04602
1110.80 0.046
1110.90 0.04599
1111.00 0.04598
1111.10 0.04596
1111.20 0.04595
1111.30 0.04594
1111.40 0.04592
1111.50 0.04591
1111.60 0.04589
1111.70 0.04588
1111.80 0.04587
1111.90 0.04585
1112.00 0.04584
1112.10 0.04583
1112.20 0.04581
1112.30 0.0458
1112.40 0.04578
1112.50 0.04577
1112.60 0.04576
1112.70 0.04574
1112.80 0.04573
1112.90 0.04571
1113.00 0.0457
1113.10 0.04568
1113.20 0.04567
1113.30 0.04566
1113.40 0.04564
1113.50 0.04563
1113.60 0.04561
1113.70 0.0456
1113.80 0.04558
1113.90 0.04557
1114.00 0.04556
1114.10 0.04554
1114.20 0.04553
1114.30 0.04551
1114.40 0.0455
1114.50 0.04548
1114.60 0.04547
1114.70 0.04545
1114.80 0.04544
1114.90 0.04542
1115.00 0.04541
1115.10 0.0454
1115.20 0.04538
1115.30 0.04537
1115.40 0.04535
1115.50 0.04534
1115.60 0.04532
1115.70 0.04531
1115.80 0.04529
1115.90 0.04528
1116.00 0.04527
1116.10 0.04525
1116.20 0.04524
1116.30 0.04522
1116.40 0.04521
1116.50 0.04519
1116.60 0.04518
1116.70 0.04516
1116.80 0.04515
1116.90 0.04514
1117.00 0.04512
1117.10 0.04511
1117.20 0.04509
1117.30 0.04508
1117.40 0.04506
1117.50 0.04505
1117.60 0.04503
1117.70 0.04502
1117.80 0.045
1117.90 0.04499
1118.00 0.04497
1118.10 0.04496
1118.20 0.04494
1118.30 0.04493
1118.40 0.04491
1118.50 0.0449
1118.60 0.04488
1118.70 0.04487
1118.80 0.04485
1118.90 0.04484
1119.00 0.04482
1119.10 0.04481
1119.20 0.04479
1119.30 0.04478
1119.40 0.04476
1119.50 0.04475
1119.60 0.04474
1119.70 0.04472
1119.80 0.04471
1119.90 0.04469
1120.00 0.04468
1120.10 0.04466
1120.20 0.04465
1120.30 0.04463
1120.40 0.04462
1120.50 0.0446
1120.60 0.04459
1120.70 0.04457
1120.80 0.04456
1120.90 0.04454
1121.00 0.04453
1121.10 0.04451
1121.20 0.0445
1121.30 0.04448
1121.40 0.04447
1121.50 0.04445
1121.60 0.04444
1121.70 0.04443
1121.80 0.04441
1121.90 0.0444
1122.00 0.04438
1122.10 0.04437
1122.20 0.04435
1122.30 0.04434
1122.40 0.04432
1122.50 0.04431
1122.60 0.04429
1122.70 0.04428
1122.80 0.04426
1122.90 0.04425
1123.00 0.04423
1123.10 0.04422
1123.20 0.0442
1123.30 0.04419
1123.40 0.04417
1123.50 0.04416
1123.60 0.04414
1123.70 0.04413
1123.80 0.04411
1123.90 0.0441
1124.00 0.04408
1124.10 0.04407
1124.20 0.04405
1124.30 0.04404
1124.40 0.04402
1124.50 0.04401
1124.60 0.04399
1124.70 0.04398
1124.80 0.04396
1124.90 0.04395
1125.00 0.04394
1125.10 0.04392
1125.20 0.04391
1125.30 0.04389
1125.40 0.04388
1125.50 0.04386
1125.60 0.04385
1125.70 0.04383
1125.80 0.04382
1125.90 0.0438
1126.00 0.04379
1126.10 0.04377
1126.20 0.04376
1126.30 0.04374
1126.40 0.04373
1126.50 0.04371
1126.60 0.0437
1126.70 0.04368
1126.80 0.04367
1126.90 0.04365
1127.00 0.04364
1127.10 0.04362
1127.20 0.04361
1127.30 0.0436
1127.40 0.04358
1127.50 0.04357
1127.60 0.04355
1127.70 0.04354
1127.80 0.04352
1127.90 0.04351
1128.00 0.04349
1128.10 0.04348
1128.20 0.04346
1128.30 0.04345
1128.40 0.04343
1128.50 0.04342
1128.60 0.0434
1128.70 0.04339
1128.80 0.04337
1128.90 0.04336
1129.00 0.04334
1129.10 0.04333
1129.20 0.04331
1129.30 0.0433
1129.40 0.04329
1129.50 0.04327
1129.60 0.04326
1129.70 0.04324
1129.80 0.04323
1129.90 0.04321
1130.00 0.0432
1130.10 0.04318
1130.20 0.04317
1130.30 0.04315
1130.40 0.04314
1130.50 0.04312
1130.60 0.04311
1130.70 0.04309
1130.80 0.04308
1130.90 0.04307
1131.00 0.04305
1131.10 0.04304
1131.20 0.04302
1131.30 0.04301
1131.40 0.04299
1131.50 0.04298
1131.60 0.04296
1131.70 0.04295
1131.80 0.04293
1131.90 0.04292
1132.00 0.0429
1132.10 0.04289
1132.20 0.04288
1132.30 0.04286
1132.40 0.04285
1132.50 0.04283
1132.60 0.04282
1132.70 0.0428
1132.80 0.04279
1132.90 0.04277
1133.00 0.04276
1133.10 0.04274
1133.20 0.04273
1133.30 0.04272
1133.40 0.0427
1133.50 0.04269
1133.60 0.04267
1133.70 0.04266
1133.80 0.04264
1133.90 0.04263
1134.00 0.04261
1134.10 0.0426
1134.20 0.04258
1134.30 0.04257
1134.40 0.04256
1134.50 0.04254
1134.60 0.04253
1134.70 0.04251
1134.80 0.0425
1134.90 0.04248
1135.00 0.04247
1135.10 0.04245
1135.20 0.04244
1135.30 0.04243
1135.40 0.04241
1135.50 0.0424
1135.60 0.04238
1135.70 0.04237
1135.80 0.04235
1135.90 0.04234
1136.00 0.04232
1136.10 0.04231
1136.20 0.0423
1136.30 0.04228
1136.40 0.04227
1136.50 0.04225
1136.60 0.04224
1136.70 0.04222
1136.80 0.04221
1136.90 0.04219
1137.00 0.04218
1137.10 0.04217
1137.20 0.04215
1137.30 0.04214
1137.40 0.04212
1137.50 0.04211
1137.60 0.04209
1137.70 0.04208
1137.80 0.04207
1137.90 0.04205
1138.00 0.04204
1138.10 0.04202
1138.20 0.04201
1138.30 0.04199
1138.40 0.04198
1138.50 0.04197
1138.60 0.04195
1138.70 0.04194
1138.80 0.04192
1138.90 0.04191
1139.00 0.04189
1139.10 0.04188
1139.20 0.04187
1139.30 0.04185
1139.40 0.04184
1139.50 0.04182
1139.60 0.04181
1139.70 0.04179
1139.80 0.04178
1139.90 0.04177
1140.00 0.04175
1140.10 0.04174
1140.20 0.04172
1140.30 0.04171
1140.40 0.0417
1140.50 0.04168
1140.60 0.04167
1140.70 0.04165
1140.80 0.04164
1140.90 0.04162
1141.00 0.04161
1141.10 0.0416
1141.20 0.04158
1141.30 0.04157
1141.40 0.04155
1141.50 0.04154
1141.60 0.04153
1141.70 0.04151
1141.80 0.0415
1141.90 0.04148
1142.00 0.04147
1142.10 0.04145
1142.20 0.04144
1142.30 0.04143
1142.40 0.04141
1142.50 0.0414
1142.60 0.04138
1142.70 0.04137
1142.80 0.04136
1142.90 0.04134
1143.00 0.04133
1143.10 0.04131
1143.20 0.0413
1143.30 0.04129
1143.40 0.04127
1143.50 0.04126
1143.60 0.04124
1143.70 0.04123
1143.80 0.04122
1143.90 0.0412
1144.00 0.04119
1144.10 0.04117
1144.20 0.04116
1144.30 0.04115
1144.40 0.04113
1144.50 0.04112
1144.60 0.0411
1144.70 0.04109
1144.80 0.04108
1144.90 0.04106
1145.00 0.04105
1145.10 0.04103
1145.20 0.04102
1145.30 0.04101
1145.40 0.04099
1145.50 0.04098
1145.60 0.04096
1145.70 0.04095
1145.80 0.04094
1145.90 0.04092
1146.00 0.04091
1146.10 0.04089
1146.20 0.04088
1146.30 0.04087
1146.40 0.04085
1146.50 0.04084
1146.60 0.04083
1146.70 0.04081
1146.80 0.0408
1146.90 0.04078
1147.00 0.04077
1147.10 0.04076
1147.20 0.04074
1147.30 0.04073
1147.40 0.04071
1147.50 0.0407
1147.60 0.04069
1147.70 0.04067
1147.80 0.04066
1147.90 0.04065
1148.00 0.04063
1148.10 0.04062
1148.20 0.0406
1148.30 0.04059
1148.40 0.04058
1148.50 0.04056
1148.60 0.04055
1148.70 0.04054
1148.80 0.04052
1148.90 0.04051
1149.00 0.04049
1149.10 0.04048
1149.20 0.04047
1149.30 0.04045
1149.40 0.04044
1149.50 0.04043
1149.60 0.04041
1149.70 0.0404
1149.80 0.04039
1149.90 0.04037
1150.00 0.04036
1150.10 0.04034
1150.20 0.04033
1150.30 0.04032
1150.40 0.0403
1150.50 0.04029
1150.60 0.04028
1150.70 0.04026
1150.80 0.04025
1150.90 0.04023
1151.00 0.04022
1151.10 0.04021
1151.20 0.04019
1151.30 0.04018
1151.40 0.04017
1151.50 0.04015
1151.60 0.04014
1151.70 0.04013
1151.80 0.04011
1151.90 0.0401
1152.00 0.04009
1152.10 0.04007
1152.20 0.04006
1152.30 0.04004
1152.40 0.04003
1152.50 0.04002
1152.60 0.04
1152.70 0.03999
1152.80 0.03998
1152.90 0.03996
1153.00 0.03995
1153.10 0.03994
1153.20 0.03992
1153.30 0.03991
1153.40 0.0399
1153.50 0.03988
1153.60 0.03987
1153.70 0.03986
1153.80 0.03984
1153.90 0.03983
1154.00 0.03982
1154.10 0.0398
1154.20 0.03979
1154.30 0.03978
1154.40 0.03976
1154.50 0.03975
1154.60 0.03973
1154.70 0.03972
1154.80 0.03971
1154.90 0.03969
1155.00 0.03968
1155.10 0.03967
1155.20 0.03965
1155.30 0.03964
1155.40 0.03963
1155.50 0.03961
1155.60 0.0396
1155.70 0.03959
1155.80 0.03957
1155.90 0.03956
1156.00 0.03955
1156.10 0.03953
1156.20 0.03952
1156.30 0.03951
1156.40 0.03949
1156.50 0.03948
1156.60 0.03947
1156.70 0.03945
1156.80 0.03944
1156.90 0.03943
1157.00 0.03941
1157.10 0.0394
1157.20 0.03939
1157.30 0.03937
1157.40 0.03936
1157.50 0.03935
1157.60 0.03933
1157.70 0.03932
1157.80 0.03931
1157.90 0.03929
1158.00 0.03928
1158.10 0.03927
1158.20 0.03925
1158.30 0.03924
1158.40 0.03923
1158.50 0.03922
1158.60 0.0392
1158.70 0.03919
1158.80 0.03918
1158.90 0.03916
1159.00 0.03915
1159.10 0.03914
1159.20 0.03912
1159.30 0.03911
1159.40 0.0391
1159.50 0.03908
1159.60 0.03907
1159.70 0.03906
1159.80 0.03904
1159.90 0.03903
1160.00 0.03902
1160.10 0.039
1160.20 0.03899
1160.30 0.03898
1160.40 0.03897
1160.50 0.03895
1160.60 0.03894
1160.70 0.03893
1160.80 0.03891
1160.90 0.0389
1161.00 0.03889
1161.10 0.03887
1161.20 0.03886
1161.30 0.03885
1161.40 0.03883
1161.50 0.03882
1161.60 0.03881
1161.70 0.0388
1161.80 0.03878
1161.90 0.03877
1162.00 0.03876
1162.10 0.03874
1162.20 0.03873
1162.30 0.03872
1162.40 0.0387
1162.50 0.03869
1162.60 0.03868
1162.70 0.03867
1162.80 0.03865
1162.90 0.03864
1163.00 0.03863
1163.10 0.03861
1163.20 0.0386
1163.30 0.03859
1163.40 0.03857
1163.50 0.03856
1163.60 0.03855
1163.70 0.03854
1163.80 0.03852
1163.90 0.03851
1164.00 0.0385
1164.10 0.03848
1164.20 0.03847
1164.30 0.03846
1164.40 0.03845
1164.50 0.03843
1164.60 0.03842
1164.70 0.03841
1164.80 0.03839
1164.90 0.03838
1165.00 0.03837
1165.10 0.03836
1165.20 0.03834
1165.30 0.03833
1165.40 0.03832
1165.50 0.0383
1165.60 0.03829
1165.70 0.03828
1165.80 0.03827
1165.90 0.03825
1166.00 0.03824
1166.10 0.03823
1166.20 0.03821
1166.30 0.0382
1166.40 0.03819
1166.50 0.03818
1166.60 0.03816
1166.70 0.03815
1166.80 0.03814
1166.90 0.03812
1167.00 0.03811
1167.10 0.0381
1167.20 0.03809
1167.30 0.03807
1167.40 0.03806
1167.50 0.03805
1167.60 0.03804
1167.70 0.03802
1167.80 0.03801
1167.90 0.038
1168.00 0.03798
1168.10 0.03797
1168.20 0.03796
1168.30 0.03795
1168.40 0.03793
1168.50 0.03792
1168.60 0.03791
1168.70 0.0379
1168.80 0.03788
1168.90 0.03787
1169.00 0.03786
1169.10 0.03785
1169.20 0.03783
1169.30 0.03782
1169.40 0.03781
1169.50 0.03779
1169.60 0.03778
1169.70 0.03777
1169.80 0.03776
1169.90 0.03774
1170.00 0.03773
1170.10 0.03772
1170.20 0.03771
1170.30 0.03769
1170.40 0.03768
1170.50 0.03767
1170.60 0.03766
1170.70 0.03764
1170.80 0.03763
1170.90 0.03762
1171.00 0.03761
1171.10 0.03759
1171.20 0.03758
1171.30 0.03757
1171.40 0.03756
1171.50 0.03754
1171.60 0.03753
1171.70 0.03752
1171.80 0.03751
1171.90 0.03749
1172.00 0.03748
1172.10 0.03747
1172.20 0.03746
1172.30 0.03744
1172.40 0.03743
1172.50 0.03742
1172.60 0.03741
1172.70 0.03739
1172.80 0.03738
1172.90 0.03737
1173.00 0.03736
1173.10 0.03734
1173.20 0.03733
1173.30 0.03732
1173.40 0.03731
1173.50 0.03729
1173.60 0.03728
1173.70 0.03727
1173.80 0.03726
1173.90 0.03724
1174.00 0.03723
1174.10 0.03722
1174.20 0.03721
1174.30 0.03719
1174.40 0.03718
1174.50 0.03717
1174.60 0.03716
1174.70 0.03715
1174.80 0.03713
1174.90 0.03712
1175.00 0.03711
1175.10 0.0371
1175.20 0.03708
1175.30 0.03707
1175.40 0.03706
1175.50 0.03705
1175.60 0.03703
1175.70 0.03702
1175.80 0.03701
1175.90 0.037
1176.00 0.03698
1176.10 0.03697
1176.20 0.03696
1176.30 0.03695
1176.40 0.03694
1176.50 0.03692
1176.60 0.03691
1176.70 0.0369
1176.80 0.03689
1176.90 0.03687
1177.00 0.03686
1177.10 0.03685
1177.20 0.03684
1177.30 0.03683
1177.40 0.03681
1177.50 0.0368
1177.60 0.03679
1177.70 0.03678
1177.80 0.03676
1177.90 0.03675
1178.00 0.03674
1178.10 0.03673
1178.20 0.03672
1178.30 0.0367
1178.40 0.03669
1178.50 0.03668
1178.60 0.03667
1178.70 0.03665
1178.80 0.03664
1178.90 0.03663
1179.00 0.03662
1179.10 0.03661
1179.20 0.03659
1179.30 0.03658
1179.40 0.03657
1179.50 0.03656
1179.60 0.03655
1179.70 0.03653
1179.80 0.03652
1179.90 0.03651
1180.00 0.0365
1180.10 0.03648
1180.20 0.03647
1180.30 0.03646
1180.40 0.03645
1180.50 0.03644
1180.60 0.03642
1180.70 0.03641
1180.80 0.0364
1180.90 0.03639
1181.00 0.03638
1181.10 0.03636
1181.20 0.03635
1181.30 0.03634
1181.40 0.03633
1181.50 0.03632
1181.60 0.0363
1181.70 0.03629
1181.80 0.03628
1181.90 0.03627
1182.00 0.03626
1182.10 0.03624
1182.20 0.03623
1182.30 0.03622
1182.40 0.03621
1182.50 0.0362
1182.60 0.03618
1182.70 0.03617
1182.80 0.03616
1182.90 0.03615
1183.00 0.03614
1183.10 0.03612
1183.20 0.03611
1183.30 0.0361
1183.40 0.03609
1183.50 0.03608
1183.60 0.03606
1183.70 0.03605
1183.80 0.03604
1183.90 0.03603
1184.00 0.03602
1184.10 0.03601
1184.20 0.03599
1184.30 0.03598
1184.40 0.03597
1184.50 0.03596
1184.60 0.03595
1184.70 0.03593
1184.80 0.03592
1184.90 0.03591
1185.00 0.0359
1185.10 0.03589
1185.20 0.03587
1185.30 0.03586
1185.40 0.03585
1185.50 0.03584
1185.60 0.03583
1185.70 0.03582
1185.80 0.0358
1185.90 0.03579
1186.00 0.03578
1186.10 0.03577
1186.20 0.03576
1186.30 0.03574
1186.40 0.03573
1186.50 0.03572
1186.60 0.03571
1186.70 0.0357
1186.80 0.03569
1186.90 0.03567
1187.00 0.03566
1187.10 0.03565
1187.20 0.03564
1187.30 0.03563
1187.40 0.03562
1187.50 0.0356
1187.60 0.03559
1187.70 0.03558
1187.80 0.03557
1187.90 0.03556
1188.00 0.03555
1188.10 0.03553
1188.20 0.03552
1188.30 0.03551
1188.40 0.0355
1188.50 0.03549
1188.60 0.03547
1188.70 0.03546
1188.80 0.03545
1188.90 0.03544
1189.00 0.03543
1189.10 0.03542
1189.20 0.03541
1189.30 0.03539
1189.40 0.03538
1189.50 0.03537
1189.60 0.03536
1189.70 0.03535
1189.80 0.03534
1189.90 0.03532
1190.00 0.03531
1190.10 0.0353
1190.20 0.03529
1190.30 0.03528
1190.40 0.03527
1190.50 0.03525
1190.60 0.03524
1190.70 0.03523
1190.80 0.03522
1190.90 0.03521
1191.00 0.0352
1191.10 0.03518
1191.20 0.03517
1191.30 0.03516
1191.40 0.03515
1191.50 0.03514
1191.60 0.03513
1191.70 0.03511
1191.80 0.0351
1191.90 0.03509
1192.00 0.03508
1192.10 0.03507
1192.20 0.03506
1192.30 0.03505
1192.40 0.03503
1192.50 0.03502
1192.60 0.03501
1192.70 0.035
1192.80 0.03499
1192.90 0.03498
1193.00 0.03497
1193.10 0.03495
1193.20 0.03494
1193.30 0.03493
1193.40 0.03492
1193.50 0.03491
1193.60 0.0349
1193.70 0.03489
1193.80 0.03487
1193.90 0.03486
1194.00 0.03485
1194.10 0.03484
1194.20 0.03483
1194.30 0.03482
1194.40 0.03481
1194.50 0.03479
1194.60 0.03478
1194.70 0.03477
1194.80 0.03476
1194.90 0.03475
1195.00 0.03474
1195.10 0.03473
1195.20 0.03471
1195.30 0.0347
1195.40 0.03469
1195.50 0.03468
1195.60 0.03467
1195.70 0.03466
1195.80 0.03465
1195.90 0.03463
1196.00 0.03462
1196.10 0.03461
1196.20 0.0346
1196.30 0.03459
1196.40 0.03458
1196.50 0.03457
1196.60 0.03456
1196.70 0.03454
1196.80 0.03453
1196.90 0.03452
1197.00 0.03451
1197.10 0.0345
1197.20 0.03449
1197.30 0.03448
1197.40 0.03447
1197.50 0.03445
1197.60 0.03444
1197.70 0.03443
1197.80 0.03442
1197.90 0.03441
1198.00 0.0344
1198.10 0.03439
1198.20 0.03438
1198.30 0.03436
1198.40 0.03435
1198.50 0.03434
1198.60 0.03433
1198.70 0.03432
1198.80 0.03431
1198.90 0.0343
1199.00 0.03429
1199.10 0.03427
1199.20 0.03426
1199.30 0.03425
1199.40 0.03424
1199.50 0.03423
1199.60 0.03422
1199.70 0.03421
1199.80 0.0342
1199.90 0.03419
1200.00 0
