# Version 2.1 - nm, norm@500 to 1, cut digits, bergeron_90000_70.dat_90000
# Wavelength(nm)  Flambda(ergs/cm^s/s/nm)
300.00 6.751
300.10 6.743
300.20 6.734
300.30 6.726
300.40 6.717
300.50 6.709
300.60 6.701
300.70 6.692
300.80 6.684
300.90 6.676
301.00 6.667
301.10 6.659
301.20 6.651
301.30 6.643
301.40 6.634
301.50 6.626
301.60 6.618
301.70 6.61
301.80 6.601
301.90 6.593
302.00 6.585
302.10 6.577
302.20 6.569
302.30 6.561
302.40 6.552
302.50 6.544
302.60 6.536
302.70 6.528
302.80 6.52
302.90 6.512
303.00 6.504
303.10 6.496
303.20 6.488
303.30 6.48
303.40 6.472
303.50 6.464
303.60 6.456
303.70 6.448
303.80 6.44
303.90 6.432
304.00 6.424
304.10 6.416
304.20 6.408
304.30 6.4
304.40 6.393
304.50 6.385
304.60 6.377
304.70 6.369
304.80 6.361
304.90 6.353
305.00 6.346
305.10 6.338
305.20 6.33
305.30 6.322
305.40 6.314
305.50 6.307
305.60 6.299
305.70 6.291
305.80 6.284
305.90 6.276
306.00 6.268
306.10 6.26
306.20 6.253
306.30 6.245
306.40 6.238
306.50 6.23
306.60 6.222
306.70 6.215
306.80 6.207
306.90 6.199
307.00 6.192
307.10 6.184
307.20 6.177
307.30 6.169
307.40 6.162
307.50 6.154
307.60 6.147
307.70 6.139
307.80 6.132
307.90 6.124
308.00 6.117
308.10 6.109
308.20 6.102
308.30 6.095
308.40 6.087
308.50 6.08
308.60 6.072
308.70 6.065
308.80 6.058
308.90 6.05
309.00 6.043
309.10 6.036
309.20 6.028
309.30 6.021
309.40 6.014
309.50 6.006
309.60 5.999
309.70 5.992
309.80 5.985
309.90 5.977
310.00 5.97
310.10 5.963
310.20 5.956
310.30 5.948
310.40 5.941
310.50 5.934
310.60 5.927
310.70 5.92
310.80 5.913
310.90 5.906
311.00 5.898
311.10 5.891
311.20 5.884
311.30 5.877
311.40 5.87
311.50 5.863
311.60 5.856
311.70 5.849
311.80 5.842
311.90 5.835
312.00 5.828
312.10 5.821
312.20 5.814
312.30 5.807
312.40 5.8
312.50 5.793
312.60 5.786
312.70 5.779
312.80 5.772
312.90 5.765
313.00 5.758
313.10 5.751
313.20 5.744
313.30 5.737
313.40 5.731
313.50 5.724
313.60 5.717
313.70 5.71
313.80 5.703
313.90 5.696
314.00 5.69
314.10 5.683
314.20 5.676
314.30 5.669
314.40 5.662
314.50 5.656
314.60 5.649
314.70 5.642
314.80 5.636
314.90 5.629
315.00 5.622
315.10 5.615
315.20 5.609
315.30 5.602
315.40 5.595
315.50 5.589
315.60 5.582
315.70 5.575
315.80 5.569
315.90 5.562
316.00 5.556
316.10 5.549
316.20 5.542
316.30 5.536
316.40 5.529
316.50 5.523
316.60 5.516
316.70 5.51
316.80 5.503
316.90 5.497
317.00 5.49
317.10 5.484
317.20 5.477
317.30 5.471
317.40 5.464
317.50 5.458
317.60 5.451
317.70 5.445
317.80 5.438
317.90 5.432
318.00 5.425
318.10 5.419
318.20 5.413
318.30 5.406
318.40 5.4
318.50 5.394
318.60 5.387
318.70 5.381
318.80 5.375
318.90 5.368
319.00 5.362
319.10 5.356
319.20 5.349
319.30 5.343
319.40 5.337
319.50 5.33
319.60 5.324
319.70 5.318
319.80 5.312
319.90 5.305
320.00 5.299
320.10 5.293
320.20 5.287
320.30 5.281
320.40 5.274
320.50 5.268
320.60 5.262
320.70 5.256
320.80 5.25
320.90 5.244
321.00 5.237
321.10 5.231
321.20 5.225
321.30 5.219
321.40 5.213
321.50 5.207
321.60 5.201
321.70 5.195
321.80 5.189
321.90 5.183
322.00 5.177
322.10 5.17
322.20 5.164
322.30 5.158
322.40 5.152
322.50 5.146
322.60 5.14
322.70 5.134
322.80 5.128
322.90 5.122
323.00 5.117
323.10 5.111
323.20 5.105
323.30 5.099
323.40 5.093
323.50 5.087
323.60 5.081
323.70 5.075
323.80 5.069
323.90 5.063
324.00 5.057
324.10 5.052
324.20 5.046
324.30 5.04
324.40 5.034
324.50 5.028
324.60 5.022
324.70 5.017
324.80 5.011
324.90 5.005
325.00 4.999
325.10 4.993
325.20 4.988
325.30 4.982
325.40 4.976
325.50 4.97
325.60 4.965
325.70 4.959
325.80 4.953
325.90 4.947
326.00 4.942
326.10 4.936
326.20 4.93
326.30 4.925
326.40 4.919
326.50 4.913
326.60 4.908
326.70 4.902
326.80 4.896
326.90 4.891
327.00 4.885
327.10 4.88
327.20 4.874
327.30 4.868
327.40 4.863
327.50 4.857
327.60 4.852
327.70 4.846
327.80 4.84
327.90 4.835
328.00 4.829
328.10 4.824
328.20 4.818
328.30 4.813
328.40 4.807
328.50 4.802
328.60 4.796
328.70 4.791
328.80 4.785
328.90 4.78
329.00 4.774
329.10 4.769
329.20 4.763
329.30 4.758
329.40 4.753
329.50 4.747
329.60 4.742
329.70 4.736
329.80 4.731
329.90 4.726
330.00 4.72
330.10 4.715
330.20 4.709
330.30 4.704
330.40 4.699
330.50 4.693
330.60 4.688
330.70 4.683
330.80 4.677
330.90 4.672
331.00 4.667
331.10 4.661
331.20 4.656
331.30 4.651
331.40 4.646
331.50 4.64
331.60 4.635
331.70 4.63
331.80 4.625
331.90 4.619
332.00 4.614
332.10 4.609
332.20 4.604
332.30 4.598
332.40 4.593
332.50 4.588
332.60 4.583
332.70 4.578
332.80 4.572
332.90 4.567
333.00 4.562
333.10 4.557
333.20 4.552
333.30 4.547
333.40 4.542
333.50 4.536
333.60 4.531
333.70 4.526
333.80 4.521
333.90 4.516
334.00 4.511
334.10 4.506
334.20 4.501
334.30 4.496
334.40 4.491
334.50 4.486
334.60 4.481
334.70 4.475
334.80 4.47
334.90 4.465
335.00 4.46
335.10 4.455
335.20 4.45
335.30 4.445
335.40 4.44
335.50 4.435
335.60 4.43
335.70 4.425
335.80 4.42
335.90 4.416
336.00 4.411
336.10 4.406
336.20 4.401
336.30 4.396
336.40 4.391
336.50 4.386
336.60 4.381
336.70 4.376
336.80 4.371
336.90 4.366
337.00 4.362
337.10 4.357
337.20 4.352
337.30 4.347
337.40 4.342
337.50 4.337
337.60 4.332
337.70 4.328
337.80 4.323
337.90 4.318
338.00 4.313
338.10 4.308
338.20 4.303
338.30 4.299
338.40 4.294
338.50 4.289
338.60 4.284
338.70 4.28
338.80 4.275
338.90 4.27
339.00 4.265
339.10 4.261
339.20 4.256
339.30 4.251
339.40 4.246
339.50 4.242
339.60 4.237
339.70 4.232
339.80 4.228
339.90 4.223
340.00 4.218
340.10 4.214
340.20 4.209
340.30 4.204
340.40 4.2
340.50 4.195
340.60 4.19
340.70 4.186
340.80 4.181
340.90 4.176
341.00 4.172
341.10 4.167
341.20 4.163
341.30 4.158
341.40 4.153
341.50 4.149
341.60 4.144
341.70 4.14
341.80 4.135
341.90 4.131
342.00 4.126
342.10 4.121
342.20 4.117
342.30 4.112
342.40 4.108
342.50 4.103
342.60 4.099
342.70 4.094
342.80 4.09
342.90 4.085
343.00 4.081
343.10 4.076
343.20 4.072
343.30 4.067
343.40 4.063
343.50 4.059
343.60 4.054
343.70 4.05
343.80 4.045
343.90 4.041
344.00 4.036
344.10 4.032
344.20 4.027
344.30 4.023
344.40 4.019
344.50 4.014
344.60 4.01
344.70 4.006
344.80 4.001
344.90 3.997
345.00 3.992
345.10 3.988
345.20 3.984
345.30 3.979
345.40 3.975
345.50 3.971
345.60 3.966
345.70 3.962
345.80 3.958
345.90 3.953
346.00 3.949
346.10 3.945
346.20 3.94
346.30 3.936
346.40 3.932
346.50 3.928
346.60 3.923
346.70 3.919
346.80 3.915
346.90 3.911
347.00 3.906
347.10 3.902
347.20 3.898
347.30 3.894
347.40 3.889
347.50 3.885
347.60 3.881
347.70 3.877
347.80 3.873
347.90 3.868
348.00 3.864
348.10 3.86
348.20 3.856
348.30 3.852
348.40 3.847
348.50 3.843
348.60 3.839
348.70 3.835
348.80 3.831
348.90 3.827
349.00 3.823
349.10 3.818
349.20 3.814
349.30 3.81
349.40 3.806
349.50 3.802
349.60 3.798
349.70 3.794
349.80 3.79
349.90 3.786
350.00 3.781
350.10 3.777
350.20 3.773
350.30 3.769
350.40 3.765
350.50 3.761
350.60 3.757
350.70 3.753
350.80 3.749
350.90 3.745
351.00 3.741
351.10 3.737
351.20 3.733
351.30 3.729
351.40 3.725
351.50 3.721
351.60 3.717
351.70 3.713
351.80 3.709
351.90 3.705
352.00 3.701
352.10 3.697
352.20 3.693
352.30 3.689
352.40 3.685
352.50 3.681
352.60 3.677
352.70 3.673
352.80 3.67
352.90 3.666
353.00 3.662
353.10 3.658
353.20 3.654
353.30 3.65
353.40 3.646
353.50 3.642
353.60 3.638
353.70 3.634
353.80 3.63
353.90 3.627
354.00 3.623
354.10 3.619
354.20 3.615
354.30 3.611
354.40 3.607
354.50 3.603
354.60 3.6
354.70 3.596
354.80 3.592
354.90 3.588
355.00 3.584
355.10 3.581
355.20 3.577
355.30 3.573
355.40 3.569
355.50 3.565
355.60 3.562
355.70 3.558
355.80 3.554
355.90 3.55
356.00 3.546
356.10 3.543
356.20 3.539
356.30 3.535
356.40 3.531
356.50 3.528
356.60 3.524
356.70 3.52
356.80 3.517
356.90 3.513
357.00 3.509
357.10 3.505
357.20 3.502
357.30 3.498
357.40 3.494
357.50 3.491
357.60 3.487
357.70 3.483
357.80 3.48
357.90 3.476
358.00 3.472
358.10 3.469
358.20 3.465
358.30 3.461
358.40 3.458
358.50 3.454
358.60 3.45
358.70 3.447
358.80 3.443
358.90 3.439
359.00 3.436
359.10 3.432
359.20 3.429
359.30 3.425
359.40 3.421
359.50 3.418
359.60 3.414
359.70 3.411
359.80 3.407
359.90 3.403
360.00 3.4
360.10 3.396
360.20 3.393
360.30 3.389
360.40 3.386
360.50 3.382
360.60 3.379
360.70 3.375
360.80 3.372
360.90 3.368
361.00 3.365
361.10 3.361
361.20 3.357
361.30 3.354
361.40 3.35
361.50 3.347
361.60 3.343
361.70 3.34
361.80 3.336
361.90 3.333
362.00 3.329
362.10 3.326
362.20 3.323
362.30 3.319
362.40 3.316
362.50 3.312
362.60 3.309
362.70 3.305
362.80 3.302
362.90 3.298
363.00 3.295
363.10 3.292
363.20 3.288
363.30 3.285
363.40 3.281
363.50 3.278
363.60 3.274
363.70 3.271
363.80 3.268
363.90 3.264
364.00 3.261
364.10 3.257
364.20 3.254
364.30 3.251
364.40 3.247
364.50 3.244
364.60 3.241
364.70 3.237
364.80 3.234
364.90 3.231
365.00 3.227
365.10 3.224
365.20 3.221
365.30 3.217
365.40 3.214
365.50 3.211
365.60 3.207
365.70 3.204
365.80 3.201
365.90 3.197
366.00 3.194
366.10 3.191
366.20 3.187
366.30 3.184
366.40 3.181
366.50 3.177
366.60 3.174
366.70 3.171
366.80 3.167
366.90 3.164
367.00 3.161
367.10 3.157
367.20 3.154
367.30 3.151
367.40 3.147
367.50 3.144
367.60 3.141
367.70 3.137
367.80 3.134
367.90 3.131
368.00 3.128
368.10 3.124
368.20 3.121
368.30 3.118
368.40 3.115
368.50 3.111
368.60 3.108
368.70 3.105
368.80 3.102
368.90 3.098
369.00 3.095
369.10 3.092
369.20 3.089
369.30 3.085
369.40 3.082
369.50 3.079
369.60 3.076
369.70 3.073
369.80 3.069
369.90 3.066
370.00 3.063
370.10 3.06
370.20 3.057
370.30 3.053
370.40 3.05
370.50 3.047
370.60 3.044
370.70 3.041
370.80 3.038
370.90 3.035
371.00 3.031
371.10 3.028
371.20 3.025
371.30 3.022
371.40 3.019
371.50 3.016
371.60 3.013
371.70 3.009
371.80 3.006
371.90 3.003
372.00 3
372.10 2.997
372.20 2.994
372.30 2.991
372.40 2.988
372.50 2.985
372.60 2.982
372.70 2.979
372.80 2.976
372.90 2.973
373.00 2.97
373.10 2.967
373.20 2.964
373.30 2.961
373.40 2.958
373.50 2.954
373.60 2.951
373.70 2.948
373.80 2.945
373.90 2.942
374.00 2.939
374.10 2.937
374.20 2.934
374.30 2.931
374.40 2.928
374.50 2.925
374.60 2.922
374.70 2.919
374.80 2.916
374.90 2.913
375.00 2.91
375.10 2.907
375.20 2.904
375.30 2.902
375.40 2.899
375.50 2.896
375.60 2.893
375.70 2.89
375.80 2.887
375.90 2.884
376.00 2.881
376.10 2.879
376.20 2.876
376.30 2.873
376.40 2.87
376.50 2.867
376.60 2.864
376.70 2.861
376.80 2.858
376.90 2.856
377.00 2.853
377.10 2.85
377.20 2.847
377.30 2.845
377.40 2.842
377.50 2.84
377.60 2.837
377.70 2.834
377.80 2.832
377.90 2.829
378.00 2.826
378.10 2.824
378.20 2.821
378.30 2.818
378.40 2.815
378.50 2.812
378.60 2.809
378.70 2.807
378.80 2.804
378.90 2.801
379.00 2.798
379.10 2.795
379.20 2.793
379.30 2.79
379.40 2.787
379.50 2.784
379.60 2.781
379.70 2.779
379.80 2.776
379.90 2.773
380.00 2.77
380.10 2.768
380.20 2.766
380.30 2.764
380.40 2.761
380.50 2.759
380.60 2.757
380.70 2.755
380.80 2.753
380.90 2.751
381.00 2.748
381.10 2.746
381.20 2.743
381.30 2.741
381.40 2.738
381.50 2.735
381.60 2.733
381.70 2.73
381.80 2.727
381.90 2.724
382.00 2.721
382.10 2.718
382.20 2.714
382.30 2.711
382.40 2.707
382.50 2.703
382.60 2.7
382.70 2.696
382.80 2.693
382.90 2.689
383.00 2.685
383.10 2.682
383.20 2.678
383.30 2.675
383.40 2.671
383.50 2.668
383.60 2.666
383.70 2.664
383.80 2.663
383.90 2.662
384.00 2.661
384.10 2.66
384.20 2.659
384.30 2.658
384.40 2.657
384.50 2.656
384.60 2.655
384.70 2.654
384.80 2.652
384.90 2.651
385.00 2.649
385.10 2.648
385.20 2.646
385.30 2.644
385.40 2.642
385.50 2.64
385.60 2.638
385.70 2.636
385.80 2.633
385.90 2.631
386.00 2.628
386.10 2.625
386.20 2.622
386.30 2.619
386.40 2.616
386.50 2.613
386.60 2.61
386.70 2.606
386.80 2.603
386.90 2.599
387.00 2.595
387.10 2.591
387.20 2.587
387.30 2.582
387.40 2.578
387.50 2.573
387.60 2.569
387.70 2.564
387.80 2.559
387.90 2.553
388.00 2.548
388.10 2.542
388.20 2.537
388.30 2.531
388.40 2.525
388.50 2.52
388.60 2.514
388.70 2.509
388.80 2.506
388.90 2.503
389.00 2.501
389.10 2.5
389.20 2.501
389.30 2.502
389.40 2.503
389.50 2.504
389.60 2.505
389.70 2.507
389.80 2.508
389.90 2.509
390.00 2.509
390.10 2.51
390.20 2.511
390.30 2.511
390.40 2.511
390.50 2.511
390.60 2.511
390.70 2.511
390.80 2.511
390.90 2.51
391.00 2.51
391.10 2.509
391.20 2.508
391.30 2.507
391.40 2.506
391.50 2.505
391.60 2.504
391.70 2.503
391.80 2.501
391.90 2.5
392.00 2.498
392.10 2.496
392.20 2.494
392.30 2.493
392.40 2.491
392.50 2.488
392.60 2.486
392.70 2.484
392.80 2.482
392.90 2.479
393.00 2.477
393.10 2.474
393.20 2.471
393.30 2.468
393.40 2.466
393.50 2.462
393.60 2.459
393.70 2.456
393.80 2.453
393.90 2.449
394.00 2.446
394.10 2.442
394.20 2.438
394.30 2.434
394.40 2.43
394.50 2.425
394.60 2.421
394.70 2.416
394.80 2.411
394.90 2.406
395.00 2.401
395.10 2.396
395.20 2.39
395.30 2.384
395.40 2.378
395.50 2.372
395.60 2.365
395.70 2.358
395.80 2.351
395.90 2.343
396.00 2.336
396.10 2.328
396.20 2.319
396.30 2.311
396.40 2.302
396.50 2.293
396.60 2.284
396.70 2.274
396.80 2.265
396.90 2.255
397.00 2.247
397.10 2.251
397.20 2.255
397.30 2.261
397.40 2.266
397.50 2.271
397.60 2.276
397.70 2.281
397.80 2.285
397.90 2.289
398.00 2.293
398.10 2.296
398.20 2.299
398.30 2.302
398.40 2.305
398.50 2.307
398.60 2.309
398.70 2.311
398.80 2.313
398.90 2.314
399.00 2.315
399.10 2.316
399.20 2.317
399.30 2.317
399.40 2.318
399.50 2.318
399.60 2.318
399.70 2.318
399.80 2.318
399.90 2.318
400.00 2.317
400.10 2.317
400.20 2.316
400.30 2.315
400.40 2.314
400.50 2.313
400.60 2.312
400.70 2.311
400.80 2.31
400.90 2.309
401.00 2.307
401.10 2.306
401.20 2.305
401.30 2.303
401.40 2.302
401.50 2.3
401.60 2.299
401.70 2.297
401.80 2.295
401.90 2.294
402.00 2.292
402.10 2.29
402.20 2.288
402.30 2.286
402.40 2.285
402.50 2.283
402.60 2.281
402.70 2.279
402.80 2.277
402.90 2.275
403.00 2.273
403.10 2.271
403.20 2.269
403.30 2.267
403.40 2.265
403.50 2.262
403.60 2.26
403.70 2.258
403.80 2.256
403.90 2.254
404.00 2.252
404.10 2.249
404.20 2.247
404.30 2.245
404.40 2.242
404.50 2.24
404.60 2.238
404.70 2.235
404.80 2.233
404.90 2.231
405.00 2.228
405.10 2.226
405.20 2.223
405.30 2.221
405.40 2.218
405.50 2.215
405.60 2.213
405.70 2.21
405.80 2.207
405.90 2.204
406.00 2.201
406.10 2.198
406.20 2.195
406.30 2.192
406.40 2.189
406.50 2.186
406.60 2.183
406.70 2.179
406.80 2.176
406.90 2.172
407.00 2.168
407.10 2.165
407.20 2.161
407.30 2.156
407.40 2.152
407.50 2.148
407.60 2.143
407.70 2.138
407.80 2.133
407.90 2.128
408.00 2.122
408.10 2.117
408.20 2.111
408.30 2.104
408.40 2.098
408.50 2.091
408.60 2.084
408.70 2.076
408.80 2.068
408.90 2.059
409.00 2.051
409.10 2.041
409.20 2.032
409.30 2.021
409.40 2.01
409.50 1.999
409.60 1.987
409.70 1.975
409.80 1.962
409.90 1.948
410.00 1.936
410.10 1.93
410.20 1.93
410.30 1.93
410.40 1.934
410.50 1.944
410.60 1.954
410.70 1.963
410.80 1.972
410.90 1.979
411.00 1.987
411.10 1.994
411.20 2
411.30 2.005
411.40 2.011
411.50 2.015
411.60 2.02
411.70 2.024
411.80 2.027
411.90 2.03
412.00 2.033
412.10 2.036
412.20 2.038
412.30 2.04
412.40 2.041
412.50 2.043
412.60 2.044
412.70 2.045
412.80 2.046
412.90 2.046
413.00 2.047
413.10 2.047
413.20 2.047
413.30 2.047
413.40 2.047
413.50 2.046
413.60 2.046
413.70 2.045
413.80 2.045
413.90 2.044
414.00 2.043
414.10 2.042
414.20 2.042
414.30 2.041
414.40 2.04
414.50 2.038
414.60 2.037
414.70 2.036
414.80 2.035
414.90 2.034
415.00 2.032
415.10 2.031
415.20 2.03
415.30 2.028
415.40 2.027
415.50 2.025
415.60 2.024
415.70 2.022
415.80 2.021
415.90 2.019
416.00 2.018
416.10 2.016
416.20 2.015
416.30 2.013
416.40 2.012
416.50 2.01
416.60 2.008
416.70 2.007
416.80 2.005
416.90 2.003
417.00 2.002
417.10 2
417.20 1.998
417.30 1.997
417.40 1.995
417.50 1.993
417.60 1.992
417.70 1.99
417.80 1.988
417.90 1.987
418.00 1.985
418.10 1.983
418.20 1.981
418.30 1.98
418.40 1.978
418.50 1.976
418.60 1.975
418.70 1.973
418.80 1.971
418.90 1.969
419.00 1.968
419.10 1.966
419.20 1.964
419.30 1.962
419.40 1.961
419.50 1.959
419.60 1.957
419.70 1.956
419.80 1.954
419.90 1.952
420.00 1.95
420.10 1.949
420.20 1.947
420.30 1.945
420.40 1.943
420.50 1.942
420.60 1.94
420.70 1.938
420.80 1.936
420.90 1.935
421.00 1.933
421.10 1.931
421.20 1.929
421.30 1.928
421.40 1.926
421.50 1.924
421.60 1.922
421.70 1.921
421.80 1.919
421.90 1.917
422.00 1.916
422.10 1.914
422.20 1.912
422.30 1.91
422.40 1.909
422.50 1.907
422.60 1.905
422.70 1.903
422.80 1.902
422.90 1.9
423.00 1.898
423.10 1.896
423.20 1.895
423.30 1.893
423.40 1.891
423.50 1.89
423.60 1.888
423.70 1.886
423.80 1.884
423.90 1.883
424.00 1.881
424.10 1.879
424.20 1.877
424.30 1.876
424.40 1.874
424.50 1.872
424.60 1.871
424.70 1.869
424.80 1.867
424.90 1.865
425.00 1.864
425.10 1.862
425.20 1.86
425.30 1.858
425.40 1.857
425.50 1.855
425.60 1.853
425.70 1.851
425.80 1.85
425.90 1.848
426.00 1.846
426.10 1.844
426.20 1.843
426.30 1.841
426.40 1.839
426.50 1.837
426.60 1.836
426.70 1.834
426.80 1.832
426.90 1.83
427.00 1.829
427.10 1.827
427.20 1.825
427.30 1.823
427.40 1.821
427.50 1.82
427.60 1.818
427.70 1.816
427.80 1.814
427.90 1.812
428.00 1.81
428.10 1.808
428.20 1.807
428.30 1.805
428.40 1.803
428.50 1.801
428.60 1.799
428.70 1.797
428.80 1.795
428.90 1.793
429.00 1.791
429.10 1.789
429.20 1.787
429.30 1.785
429.40 1.783
429.50 1.781
429.60 1.778
429.70 1.776
429.80 1.774
429.90 1.772
430.00 1.769
430.10 1.767
430.20 1.764
430.30 1.762
430.40 1.759
430.50 1.757
430.60 1.754
430.70 1.751
430.80 1.748
430.90 1.745
431.00 1.742
431.10 1.739
431.20 1.735
431.30 1.732
431.40 1.728
431.50 1.724
431.60 1.72
431.70 1.716
431.80 1.711
431.90 1.707
432.00 1.702
432.10 1.696
432.20 1.691
432.30 1.685
432.40 1.679
432.50 1.672
432.60 1.665
432.70 1.657
432.80 1.649
432.90 1.641
433.00 1.632
433.10 1.622
433.20 1.612
433.30 1.602
433.40 1.591
433.50 1.579
433.60 1.566
433.70 1.552
433.80 1.537
433.90 1.52
434.00 1.506
434.10 1.505
434.20 1.517
434.30 1.531
434.40 1.544
434.50 1.555
434.60 1.565
434.70 1.574
434.80 1.582
434.90 1.59
435.00 1.597
435.10 1.604
435.20 1.61
435.30 1.615
435.40 1.62
435.50 1.624
435.60 1.628
435.70 1.632
435.80 1.635
435.90 1.638
436.00 1.641
436.10 1.643
436.20 1.645
436.30 1.647
436.40 1.648
436.50 1.649
436.60 1.65
436.70 1.651
436.80 1.651
436.90 1.652
437.00 1.652
437.10 1.652
437.20 1.652
437.30 1.652
437.40 1.652
437.50 1.652
437.60 1.651
437.70 1.651
437.80 1.651
437.90 1.65
438.00 1.649
438.10 1.649
438.20 1.648
438.30 1.647
438.40 1.646
438.50 1.645
438.60 1.644
438.70 1.644
438.80 1.643
438.90 1.642
439.00 1.641
439.10 1.64
439.20 1.638
439.30 1.637
439.40 1.636
439.50 1.635
439.60 1.634
439.70 1.633
439.80 1.632
439.90 1.63
440.00 1.629
440.10 1.628
440.20 1.627
440.30 1.626
440.40 1.624
440.50 1.623
440.60 1.622
440.70 1.621
440.80 1.619
440.90 1.618
441.00 1.617
441.10 1.616
441.20 1.614
441.30 1.613
441.40 1.612
441.50 1.61
441.60 1.609
441.70 1.608
441.80 1.607
441.90 1.605
442.00 1.604
442.10 1.603
442.20 1.601
442.30 1.6
442.40 1.599
442.50 1.597
442.60 1.596
442.70 1.595
442.80 1.593
442.90 1.592
443.00 1.591
443.10 1.589
443.20 1.588
443.30 1.587
443.40 1.585
443.50 1.584
443.60 1.583
443.70 1.582
443.80 1.58
443.90 1.579
444.00 1.578
444.10 1.576
444.20 1.575
444.30 1.574
444.40 1.572
444.50 1.571
444.60 1.57
444.70 1.568
444.80 1.567
444.90 1.566
445.00 1.564
445.10 1.563
445.20 1.562
445.30 1.56
445.40 1.559
445.50 1.558
445.60 1.556
445.70 1.555
445.80 1.554
445.90 1.552
446.00 1.551
446.10 1.55
446.20 1.548
446.30 1.547
446.40 1.546
446.50 1.545
446.60 1.543
446.70 1.542
446.80 1.541
446.90 1.539
447.00 1.538
447.10 1.537
447.20 1.535
447.30 1.534
447.40 1.533
447.50 1.531
447.60 1.53
447.70 1.529
447.80 1.528
447.90 1.526
448.00 1.525
448.10 1.524
448.20 1.522
448.30 1.521
448.40 1.52
448.50 1.519
448.60 1.517
448.70 1.516
448.80 1.515
448.90 1.513
449.00 1.512
449.10 1.511
449.20 1.51
449.30 1.508
449.40 1.507
449.50 1.506
449.60 1.504
449.70 1.503
449.80 1.502
449.90 1.501
450.00 1.499
450.10 1.498
450.20 1.497
450.30 1.495
450.40 1.494
450.50 1.493
450.60 1.492
450.70 1.49
450.80 1.489
450.90 1.488
451.00 1.487
451.10 1.485
451.20 1.484
451.30 1.483
451.40 1.482
451.50 1.48
451.60 1.479
451.70 1.478
451.80 1.477
451.90 1.475
452.00 1.474
452.10 1.473
452.20 1.472
452.30 1.47
452.40 1.469
452.50 1.468
452.60 1.467
452.70 1.465
452.80 1.464
452.90 1.463
453.00 1.462
453.10 1.46
453.20 1.459
453.30 1.458
453.40 1.457
453.50 1.456
453.60 1.454
453.70 1.453
453.80 1.452
453.90 1.451
454.00 1.449
454.10 1.448
454.20 1.447
454.30 1.446
454.40 1.444
454.50 1.443
454.60 1.442
454.70 1.441
454.80 1.44
454.90 1.438
455.00 1.437
455.10 1.436
455.20 1.435
455.30 1.434
455.40 1.432
455.50 1.431
455.60 1.43
455.70 1.429
455.80 1.428
455.90 1.426
456.00 1.425
456.10 1.424
456.20 1.423
456.30 1.422
456.40 1.42
456.50 1.419
456.60 1.418
456.70 1.417
456.80 1.416
456.90 1.414
457.00 1.413
457.10 1.412
457.20 1.411
457.30 1.41
457.40 1.408
457.50 1.407
457.60 1.406
457.70 1.405
457.80 1.404
457.90 1.403
458.00 1.401
458.10 1.4
458.20 1.399
458.30 1.398
458.40 1.397
458.50 1.396
458.60 1.394
458.70 1.393
458.80 1.392
458.90 1.391
459.00 1.39
459.10 1.389
459.20 1.387
459.30 1.386
459.40 1.385
459.50 1.384
459.60 1.383
459.70 1.382
459.80 1.38
459.90 1.379
460.00 1.378
460.10 1.377
460.20 1.376
460.30 1.375
460.40 1.374
460.50 1.372
460.60 1.371
460.70 1.37
460.80 1.369
460.90 1.368
461.00 1.367
461.10 1.366
461.20 1.364
461.30 1.363
461.40 1.362
461.50 1.361
461.60 1.36
461.70 1.359
461.80 1.358
461.90 1.357
462.00 1.355
462.10 1.354
462.20 1.353
462.30 1.352
462.40 1.351
462.50 1.35
462.60 1.349
462.70 1.348
462.80 1.346
462.90 1.345
463.00 1.344
463.10 1.343
463.20 1.342
463.30 1.341
463.40 1.34
463.50 1.339
463.60 1.337
463.70 1.336
463.80 1.335
463.90 1.334
464.00 1.333
464.10 1.332
464.20 1.331
464.30 1.33
464.40 1.329
464.50 1.328
464.60 1.326
464.70 1.325
464.80 1.324
464.90 1.323
465.00 1.322
465.10 1.321
465.20 1.32
465.30 1.319
465.40 1.318
465.50 1.317
465.60 1.316
465.70 1.314
465.80 1.313
465.90 1.312
466.00 1.311
466.10 1.31
466.20 1.309
466.30 1.308
466.40 1.307
466.50 1.306
466.60 1.305
466.70 1.304
466.80 1.303
466.90 1.301
467.00 1.3
467.10 1.299
467.20 1.298
467.30 1.297
467.40 1.296
467.50 1.295
467.60 1.294
467.70 1.293
467.80 1.292
467.90 1.291
468.00 1.29
468.10 1.289
468.20 1.288
468.30 1.287
468.40 1.285
468.50 1.284
468.60 1.283
468.70 1.282
468.80 1.281
468.90 1.28
469.00 1.279
469.10 1.278
469.20 1.277
469.30 1.276
469.40 1.275
469.50 1.274
469.60 1.273
469.70 1.272
469.80 1.271
469.90 1.27
470.00 1.269
470.10 1.268
470.20 1.267
470.30 1.265
470.40 1.264
470.50 1.263
470.60 1.262
470.70 1.261
470.80 1.26
470.90 1.259
471.00 1.258
471.10 1.257
471.20 1.256
471.30 1.255
471.40 1.254
471.50 1.253
471.60 1.252
471.70 1.251
471.80 1.25
471.90 1.249
472.00 1.248
472.10 1.247
472.20 1.246
472.30 1.245
472.40 1.244
472.50 1.243
472.60 1.242
472.70 1.241
472.80 1.24
472.90 1.239
473.00 1.238
473.10 1.237
473.20 1.236
473.30 1.235
473.40 1.234
473.50 1.233
473.60 1.232
473.70 1.231
473.80 1.23
473.90 1.229
474.00 1.228
474.10 1.227
474.20 1.226
474.30 1.225
474.40 1.223
474.50 1.222
474.60 1.221
474.70 1.22
474.80 1.219
474.90 1.218
475.00 1.217
475.10 1.216
475.20 1.215
475.30 1.214
475.40 1.213
475.50 1.212
475.60 1.211
475.70 1.21
475.80 1.209
475.90 1.208
476.00 1.207
476.10 1.206
476.20 1.205
476.30 1.204
476.40 1.203
476.50 1.202
476.60 1.201
476.70 1.2
476.80 1.199
476.90 1.198
477.00 1.197
477.10 1.196
477.20 1.195
477.30 1.194
477.40 1.193
477.50 1.192
477.60 1.191
477.70 1.19
477.80 1.189
477.90 1.188
478.00 1.187
478.10 1.186
478.20 1.185
478.30 1.184
478.40 1.183
478.50 1.182
478.60 1.181
478.70 1.18
478.80 1.179
478.90 1.178
479.00 1.177
479.10 1.176
479.20 1.175
479.30 1.174
479.40 1.173
479.50 1.172
479.60 1.171
479.70 1.169
479.80 1.168
479.90 1.167
480.00 1.166
480.10 1.165
480.20 1.164
480.30 1.163
480.40 1.162
480.50 1.161
480.60 1.16
480.70 1.158
480.80 1.157
480.90 1.156
481.00 1.155
481.10 1.154
481.20 1.153
481.30 1.151
481.40 1.15
481.50 1.149
481.60 1.147
481.70 1.146
481.80 1.145
481.90 1.143
482.00 1.142
482.10 1.141
482.20 1.139
482.30 1.138
482.40 1.136
482.50 1.134
482.60 1.133
482.70 1.131
482.80 1.129
482.90 1.128
483.00 1.126
483.10 1.125
483.20 1.122
483.30 1.12
483.40 1.117
483.50 1.115
483.60 1.112
483.70 1.11
483.80 1.107
483.90 1.105
484.00 1.103
484.10 1.1
484.20 1.097
484.30 1.093
484.40 1.089
484.50 1.086
484.60 1.082
484.70 1.077
484.80 1.072
484.90 1.067
485.00 1.062
485.10 1.057
485.20 1.051
485.30 1.045
485.40 1.038
485.50 1.03
485.60 1.022
485.70 1.013
485.80 1.001
485.90 0.9869
486.00 0.9691
486.10 0.9655
486.20 0.9606
486.30 0.9734
486.40 0.9873
486.50 0.9995
486.60 1.009
486.70 1.016
486.80 1.022
486.90 1.028
487.00 1.033
487.10 1.038
487.20 1.042
487.30 1.045
487.40 1.048
487.50 1.052
487.60 1.055
487.70 1.057
487.80 1.059
487.90 1.061
488.00 1.063
488.10 1.065
488.20 1.066
488.30 1.067
488.40 1.068
488.50 1.068
488.60 1.069
488.70 1.07
488.80 1.07
488.90 1.071
489.00 1.072
489.10 1.072
489.20 1.073
489.30 1.072
489.40 1.072
489.50 1.072
489.60 1.072
489.70 1.072
489.80 1.072
489.90 1.072
490.00 1.071
490.10 1.071
490.20 1.071
490.30 1.07
490.40 1.07
490.50 1.069
490.60 1.069
490.70 1.068
490.80 1.068
490.90 1.067
491.00 1.067
491.10 1.066
491.20 1.066
491.30 1.065
491.40 1.065
491.50 1.064
491.60 1.063
491.70 1.063
491.80 1.062
491.90 1.061
492.00 1.061
492.10 1.06
492.20 1.059
492.30 1.059
492.40 1.058
492.50 1.057
492.60 1.056
492.70 1.056
492.80 1.055
492.90 1.054
493.00 1.054
493.10 1.053
493.20 1.052
493.30 1.051
493.40 1.051
493.50 1.05
493.60 1.049
493.70 1.048
493.80 1.048
493.90 1.047
494.00 1.046
494.10 1.045
494.20 1.045
494.30 1.044
494.40 1.043
494.50 1.042
494.60 1.042
494.70 1.041
494.80 1.04
494.90 1.039
495.00 1.038
495.10 1.038
495.20 1.037
495.30 1.036
495.40 1.035
495.50 1.035
495.60 1.034
495.70 1.033
495.80 1.032
495.90 1.032
496.00 1.031
496.10 1.03
496.20 1.029
496.30 1.028
496.40 1.028
496.50 1.027
496.60 1.026
496.70 1.025
496.80 1.025
496.90 1.024
497.00 1.023
497.10 1.022
497.20 1.022
497.30 1.021
497.40 1.02
497.50 1.019
497.60 1.018
497.70 1.018
497.80 1.017
497.90 1.016
498.00 1.015
498.10 1.015
498.20 1.014
498.30 1.013
498.40 1.012
498.50 1.011
498.60 1.011
498.70 1.01
498.80 1.009
498.90 1.008
499.00 1.008
499.10 1.007
499.20 1.006
499.30 1.005
499.40 1.005
499.50 1.004
499.60 1.003
499.70 1.002
499.80 1.002
499.90 1.001
500.00 1
500.10 0.9992
500.20 0.9985
500.30 0.9977
500.40 0.997
500.50 0.9962
500.60 0.9954
500.70 0.9947
500.80 0.9939
500.90 0.9932
501.00 0.9924
501.10 0.9917
501.20 0.9909
501.30 0.9901
501.40 0.9894
501.50 0.9886
501.60 0.9879
501.70 0.9871
501.80 0.9864
501.90 0.9856
502.00 0.9849
502.10 0.9841
502.20 0.9834
502.30 0.9826
502.40 0.9819
502.50 0.9811
502.60 0.9804
502.70 0.9797
502.80 0.9789
502.90 0.9782
503.00 0.9774
503.10 0.9767
503.20 0.9759
503.30 0.9752
503.40 0.9744
503.50 0.9737
503.60 0.973
503.70 0.9722
503.80 0.9715
503.90 0.9707
504.00 0.97
504.10 0.9693
504.20 0.9685
504.30 0.9678
504.40 0.9671
504.50 0.9663
504.60 0.9656
504.70 0.9649
504.80 0.9641
504.90 0.9634
505.00 0.9627
505.10 0.9619
505.20 0.9612
505.30 0.9605
505.40 0.9597
505.50 0.959
505.60 0.9583
505.70 0.9576
505.80 0.9568
505.90 0.9561
506.00 0.9554
506.10 0.9547
506.20 0.9539
506.30 0.9532
506.40 0.9525
506.50 0.9518
506.60 0.951
506.70 0.9503
506.80 0.9496
506.90 0.9489
507.00 0.9482
507.10 0.9475
507.20 0.9467
507.30 0.946
507.40 0.9453
507.50 0.9446
507.60 0.9439
507.70 0.9432
507.80 0.9424
507.90 0.9417
508.00 0.941
508.10 0.9403
508.20 0.9396
508.30 0.9389
508.40 0.9382
508.50 0.9375
508.60 0.9368
508.70 0.9361
508.80 0.9354
508.90 0.9346
509.00 0.9339
509.10 0.9332
509.20 0.9325
509.30 0.9318
509.40 0.9311
509.50 0.9304
509.60 0.9297
509.70 0.929
509.80 0.9283
509.90 0.9276
510.00 0.9269
510.10 0.9262
510.20 0.9255
510.30 0.9248
510.40 0.9241
510.50 0.9234
510.60 0.9227
510.70 0.922
510.80 0.9214
510.90 0.9207
511.00 0.92
511.10 0.9193
511.20 0.9186
511.30 0.9179
511.40 0.9172
511.50 0.9165
511.60 0.9158
511.70 0.9151
511.80 0.9145
511.90 0.9138
512.00 0.9131
512.10 0.9124
512.20 0.9117
512.30 0.911
512.40 0.9103
512.50 0.9097
512.60 0.909
512.70 0.9083
512.80 0.9076
512.90 0.9069
513.00 0.9062
513.10 0.9056
513.20 0.9049
513.30 0.9042
513.40 0.9035
513.50 0.9029
513.60 0.9022
513.70 0.9015
513.80 0.9008
513.90 0.9002
514.00 0.8995
514.10 0.8988
514.20 0.8981
514.30 0.8975
514.40 0.8968
514.50 0.8961
514.60 0.8955
514.70 0.8948
514.80 0.8941
514.90 0.8934
515.00 0.8928
515.10 0.8921
515.20 0.8915
515.30 0.8908
515.40 0.8901
515.50 0.8895
515.60 0.8888
515.70 0.8881
515.80 0.8875
515.90 0.8868
516.00 0.8861
516.10 0.8855
516.20 0.8848
516.30 0.8842
516.40 0.8835
516.50 0.8829
516.60 0.8822
516.70 0.8815
516.80 0.8809
516.90 0.8802
517.00 0.8796
517.10 0.8789
517.20 0.8783
517.30 0.8776
517.40 0.877
517.50 0.8763
517.60 0.8757
517.70 0.875
517.80 0.8743
517.90 0.8737
518.00 0.873
518.10 0.8724
518.20 0.8718
518.30 0.8711
518.40 0.8705
518.50 0.8698
518.60 0.8692
518.70 0.8685
518.80 0.8679
518.90 0.8672
519.00 0.8666
519.10 0.8659
519.20 0.8653
519.30 0.8647
519.40 0.864
519.50 0.8634
519.60 0.8627
519.70 0.8621
519.80 0.8615
519.90 0.8608
520.00 0.8602
520.10 0.8596
520.20 0.8589
520.30 0.8583
520.40 0.8576
520.50 0.857
520.60 0.8564
520.70 0.8557
520.80 0.8551
520.90 0.8545
521.00 0.8539
521.10 0.8532
521.20 0.8526
521.30 0.852
521.40 0.8513
521.50 0.8507
521.60 0.8501
521.70 0.8495
521.80 0.8488
521.90 0.8482
522.00 0.8476
522.10 0.8469
522.20 0.8463
522.30 0.8457
522.40 0.8451
522.50 0.8445
522.60 0.8438
522.70 0.8432
522.80 0.8426
522.90 0.842
523.00 0.8413
523.10 0.8407
523.20 0.8401
523.30 0.8395
523.40 0.8389
523.50 0.8383
523.60 0.8376
523.70 0.837
523.80 0.8364
523.90 0.8358
524.00 0.8352
524.10 0.8346
524.20 0.834
524.30 0.8333
524.40 0.8327
524.50 0.8321
524.60 0.8315
524.70 0.8309
524.80 0.8303
524.90 0.8297
525.00 0.8291
525.10 0.8285
525.20 0.8279
525.30 0.8273
525.40 0.8266
525.50 0.826
525.60 0.8254
525.70 0.8248
525.80 0.8242
525.90 0.8236
526.00 0.823
526.10 0.8224
526.20 0.8218
526.30 0.8212
526.40 0.8206
526.50 0.82
526.60 0.8194
526.70 0.8188
526.80 0.8182
526.90 0.8176
527.00 0.817
527.10 0.8164
527.20 0.8158
527.30 0.8152
527.40 0.8146
527.50 0.814
527.60 0.8134
527.70 0.8128
527.80 0.8123
527.90 0.8117
528.00 0.8111
528.10 0.8105
528.20 0.8099
528.30 0.8093
528.40 0.8087
528.50 0.8081
528.60 0.8075
528.70 0.8069
528.80 0.8064
528.90 0.8058
529.00 0.8052
529.10 0.8046
529.20 0.804
529.30 0.8034
529.40 0.8028
529.50 0.8023
529.60 0.8017
529.70 0.8011
529.80 0.8005
529.90 0.7999
530.00 0.7993
530.10 0.7988
530.20 0.7982
530.30 0.7976
530.40 0.797
530.50 0.7964
530.60 0.7959
530.70 0.7953
530.80 0.7947
530.90 0.7941
531.00 0.7936
531.10 0.793
531.20 0.7924
531.30 0.7918
531.40 0.7913
531.50 0.7907
531.60 0.7901
531.70 0.7895
531.80 0.789
531.90 0.7884
532.00 0.7878
532.10 0.7873
532.20 0.7867
532.30 0.7861
532.40 0.7856
532.50 0.785
532.60 0.7844
532.70 0.7838
532.80 0.7833
532.90 0.7827
533.00 0.7821
533.10 0.7816
533.20 0.781
533.30 0.7805
533.40 0.7799
533.50 0.7793
533.60 0.7788
533.70 0.7782
533.80 0.7776
533.90 0.7771
534.00 0.7765
534.10 0.776
534.20 0.7754
534.30 0.7748
534.40 0.7743
534.50 0.7737
534.60 0.7732
534.70 0.7726
534.80 0.7721
534.90 0.7715
535.00 0.7709
535.10 0.7704
535.20 0.7698
535.30 0.7693
535.40 0.7687
535.50 0.7682
535.60 0.7676
535.70 0.7671
535.80 0.7665
535.90 0.766
536.00 0.7654
536.10 0.7649
536.20 0.7643
536.30 0.7638
536.40 0.7632
536.50 0.7627
536.60 0.7621
536.70 0.7616
536.80 0.761
536.90 0.7605
537.00 0.7599
537.10 0.7594
537.20 0.7588
537.30 0.7583
537.40 0.7578
537.50 0.7572
537.60 0.7567
537.70 0.7561
537.80 0.7556
537.90 0.755
538.00 0.7545
538.10 0.754
538.20 0.7534
538.30 0.7529
538.40 0.7523
538.50 0.7518
538.60 0.7513
538.70 0.7507
538.80 0.7502
538.90 0.7497
539.00 0.7491
539.10 0.7486
539.20 0.7481
539.30 0.7475
539.40 0.747
539.50 0.7465
539.60 0.7459
539.70 0.7454
539.80 0.7449
539.90 0.7443
540.00 0.7438
540.10 0.7433
540.20 0.7427
540.30 0.7422
540.40 0.7417
540.50 0.7411
540.60 0.7406
540.70 0.7401
540.80 0.7396
540.90 0.739
541.00 0.7385
541.10 0.738
541.20 0.7375
541.30 0.7369
541.40 0.7364
541.50 0.7359
541.60 0.7354
541.70 0.7348
541.80 0.7343
541.90 0.7338
542.00 0.7333
542.10 0.7327
542.20 0.7322
542.30 0.7317
542.40 0.7312
542.50 0.7307
542.60 0.7301
542.70 0.7296
542.80 0.7291
542.90 0.7286
543.00 0.7281
543.10 0.7276
543.20 0.727
543.30 0.7265
543.40 0.726
543.50 0.7255
543.60 0.725
543.70 0.7245
543.80 0.724
543.90 0.7234
544.00 0.7229
544.10 0.7224
544.20 0.7219
544.30 0.7214
544.40 0.7209
544.50 0.7204
544.60 0.7199
544.70 0.7194
544.80 0.7188
544.90 0.7183
545.00 0.7178
545.10 0.7173
545.20 0.7168
545.30 0.7163
545.40 0.7158
545.50 0.7153
545.60 0.7148
545.70 0.7143
545.80 0.7138
545.90 0.7133
546.00 0.7128
546.10 0.7123
546.20 0.7118
546.30 0.7113
546.40 0.7108
546.50 0.7103
546.60 0.7098
546.70 0.7093
546.80 0.7088
546.90 0.7083
547.00 0.7078
547.10 0.7073
547.20 0.7068
547.30 0.7063
547.40 0.7058
547.50 0.7053
547.60 0.7048
547.70 0.7043
547.80 0.7038
547.90 0.7033
548.00 0.7028
548.10 0.7023
548.20 0.7018
548.30 0.7013
548.40 0.7008
548.50 0.7003
548.60 0.6998
548.70 0.6993
548.80 0.6988
548.90 0.6984
549.00 0.6979
549.10 0.6974
549.20 0.6969
549.30 0.6964
549.40 0.6959
549.50 0.6954
549.60 0.6949
549.70 0.6944
549.80 0.694
549.90 0.6935
550.00 0.693
550.10 0.6925
550.20 0.692
550.30 0.6915
550.40 0.691
550.50 0.6906
550.60 0.6901
550.70 0.6896
550.80 0.6891
550.90 0.6886
551.00 0.6882
551.10 0.6877
551.20 0.6872
551.30 0.6867
551.40 0.6862
551.50 0.6858
551.60 0.6853
551.70 0.6848
551.80 0.6843
551.90 0.6838
552.00 0.6834
552.10 0.6829
552.20 0.6824
552.30 0.6819
552.40 0.6814
552.50 0.681
552.60 0.6805
552.70 0.68
552.80 0.6795
552.90 0.6791
553.00 0.6786
553.10 0.6781
553.20 0.6777
553.30 0.6772
553.40 0.6767
553.50 0.6762
553.60 0.6758
553.70 0.6753
553.80 0.6748
553.90 0.6744
554.00 0.6739
554.10 0.6734
554.20 0.6729
554.30 0.6725
554.40 0.672
554.50 0.6715
554.60 0.6711
554.70 0.6706
554.80 0.6701
554.90 0.6697
555.00 0.6692
555.10 0.6688
555.20 0.6683
555.30 0.6678
555.40 0.6674
555.50 0.6669
555.60 0.6664
555.70 0.666
555.80 0.6655
555.90 0.665
556.00 0.6646
556.10 0.6641
556.20 0.6637
556.30 0.6632
556.40 0.6627
556.50 0.6623
556.60 0.6618
556.70 0.6614
556.80 0.6609
556.90 0.6605
557.00 0.66
557.10 0.6595
557.20 0.6591
557.30 0.6586
557.40 0.6582
557.50 0.6577
557.60 0.6573
557.70 0.6568
557.80 0.6564
557.90 0.6559
558.00 0.6554
558.10 0.655
558.20 0.6545
558.30 0.6541
558.40 0.6536
558.50 0.6532
558.60 0.6527
558.70 0.6523
558.80 0.6518
558.90 0.6514
559.00 0.6509
559.10 0.6505
559.20 0.65
559.30 0.6496
559.40 0.6491
559.50 0.6487
559.60 0.6482
559.70 0.6478
559.80 0.6474
559.90 0.6469
560.00 0.6465
560.10 0.646
560.20 0.6456
560.30 0.6451
560.40 0.6447
560.50 0.6442
560.60 0.6438
560.70 0.6433
560.80 0.6429
560.90 0.6425
561.00 0.642
561.10 0.6416
561.20 0.6411
561.30 0.6407
561.40 0.6403
561.50 0.6398
561.60 0.6394
561.70 0.6389
561.80 0.6385
561.90 0.6381
562.00 0.6376
562.10 0.6372
562.20 0.6368
562.30 0.6363
562.40 0.6359
562.50 0.6354
562.60 0.635
562.70 0.6346
562.80 0.6341
562.90 0.6337
563.00 0.6333
563.10 0.6328
563.20 0.6324
563.30 0.632
563.40 0.6315
563.50 0.6311
563.60 0.6307
563.70 0.6302
563.80 0.6298
563.90 0.6294
564.00 0.6289
564.10 0.6285
564.20 0.6281
564.30 0.6277
564.40 0.6272
564.50 0.6268
564.60 0.6264
564.70 0.6259
564.80 0.6255
564.90 0.6251
565.00 0.6247
565.10 0.6242
565.20 0.6238
565.30 0.6234
565.40 0.623
565.50 0.6225
565.60 0.6221
565.70 0.6217
565.80 0.6213
565.90 0.6208
566.00 0.6204
566.10 0.62
566.20 0.6196
566.30 0.6191
566.40 0.6187
566.50 0.6183
566.60 0.6179
566.70 0.6175
566.80 0.617
566.90 0.6166
567.00 0.6162
567.10 0.6158
567.20 0.6154
567.30 0.6149
567.40 0.6145
567.50 0.6141
567.60 0.6137
567.70 0.6133
567.80 0.6129
567.90 0.6124
568.00 0.612
568.10 0.6116
568.20 0.6112
568.30 0.6108
568.40 0.6104
568.50 0.61
568.60 0.6095
568.70 0.6091
568.80 0.6087
568.90 0.6083
569.00 0.6079
569.10 0.6075
569.20 0.6071
569.30 0.6066
569.40 0.6062
569.50 0.6058
569.60 0.6054
569.70 0.605
569.80 0.6046
569.90 0.6042
570.00 0.6038
570.10 0.6034
570.20 0.603
570.30 0.6026
570.40 0.6021
570.50 0.6017
570.60 0.6013
570.70 0.6009
570.80 0.6005
570.90 0.6001
571.00 0.5997
571.10 0.5993
571.20 0.5989
571.30 0.5985
571.40 0.5981
571.50 0.5977
571.60 0.5973
571.70 0.5969
571.80 0.5965
571.90 0.5961
572.00 0.5957
572.10 0.5953
572.20 0.5949
572.30 0.5945
572.40 0.5941
572.50 0.5937
572.60 0.5933
572.70 0.5929
572.80 0.5925
572.90 0.5921
573.00 0.5917
573.10 0.5913
573.20 0.5909
573.30 0.5905
573.40 0.5901
573.50 0.5897
573.60 0.5893
573.70 0.5889
573.80 0.5885
573.90 0.5881
574.00 0.5877
574.10 0.5873
574.20 0.5869
574.30 0.5865
574.40 0.5861
574.50 0.5857
574.60 0.5853
574.70 0.5849
574.80 0.5845
574.90 0.5842
575.00 0.5838
575.10 0.5834
575.20 0.583
575.30 0.5826
575.40 0.5822
575.50 0.5818
575.60 0.5814
575.70 0.581
575.80 0.5806
575.90 0.5802
576.00 0.5799
576.10 0.5795
576.20 0.5791
576.30 0.5787
576.40 0.5783
576.50 0.5779
576.60 0.5775
576.70 0.5771
576.80 0.5768
576.90 0.5764
577.00 0.576
577.10 0.5756
577.20 0.5752
577.30 0.5748
577.40 0.5744
577.50 0.5741
577.60 0.5737
577.70 0.5733
577.80 0.5729
577.90 0.5725
578.00 0.5722
578.10 0.5718
578.20 0.5714
578.30 0.571
578.40 0.5706
578.50 0.5702
578.60 0.5699
578.70 0.5695
578.80 0.5691
578.90 0.5687
579.00 0.5683
579.10 0.568
579.20 0.5676
579.30 0.5672
579.40 0.5668
579.50 0.5665
579.60 0.5661
579.70 0.5657
579.80 0.5653
579.90 0.5649
580.00 0.5646
580.10 0.5642
580.20 0.5638
580.30 0.5634
580.40 0.5631
580.50 0.5627
580.60 0.5623
580.70 0.5619
580.80 0.5616
580.90 0.5612
581.00 0.5608
581.10 0.5605
581.20 0.5601
581.30 0.5597
581.40 0.5593
581.50 0.559
581.60 0.5586
581.70 0.5582
581.80 0.5579
581.90 0.5575
582.00 0.5571
582.10 0.5567
582.20 0.5564
582.30 0.556
582.40 0.5556
582.50 0.5553
582.60 0.5549
582.70 0.5545
582.80 0.5542
582.90 0.5538
583.00 0.5534
583.10 0.5531
583.20 0.5527
583.30 0.5523
583.40 0.552
583.50 0.5516
583.60 0.5512
583.70 0.5509
583.80 0.5505
583.90 0.5501
584.00 0.5498
584.10 0.5494
584.20 0.5491
584.30 0.5487
584.40 0.5483
584.50 0.548
584.60 0.5476
584.70 0.5472
584.80 0.5469
584.90 0.5465
585.00 0.5462
585.10 0.5458
585.20 0.5454
585.30 0.5451
585.40 0.5447
585.50 0.5444
585.60 0.544
585.70 0.5436
585.80 0.5433
585.90 0.5429
586.00 0.5426
586.10 0.5422
586.20 0.5419
586.30 0.5415
586.40 0.5411
586.50 0.5408
586.60 0.5404
586.70 0.5401
586.80 0.5397
586.90 0.5394
587.00 0.539
587.10 0.5387
587.20 0.5383
587.30 0.538
587.40 0.5376
587.50 0.5372
587.60 0.5369
587.70 0.5365
587.80 0.5362
587.90 0.5358
588.00 0.5355
588.10 0.5351
588.20 0.5348
588.30 0.5344
588.40 0.5341
588.50 0.5337
588.60 0.5334
588.70 0.533
588.80 0.5327
588.90 0.5323
589.00 0.532
589.10 0.5316
589.20 0.5313
589.30 0.5309
589.40 0.5306
589.50 0.5302
589.60 0.5299
589.70 0.5295
589.80 0.5292
589.90 0.5288
590.00 0.5285
590.10 0.5282
590.20 0.5278
590.30 0.5275
590.40 0.5271
590.50 0.5268
590.60 0.5264
590.70 0.5261
590.80 0.5257
590.90 0.5254
591.00 0.5251
591.10 0.5247
591.20 0.5244
591.30 0.524
591.40 0.5237
591.50 0.5233
591.60 0.523
591.70 0.5227
591.80 0.5223
591.90 0.522
592.00 0.5216
592.10 0.5213
592.20 0.521
592.30 0.5206
592.40 0.5203
592.50 0.5199
592.60 0.5196
592.70 0.5193
592.80 0.5189
592.90 0.5186
593.00 0.5182
593.10 0.5179
593.20 0.5176
593.30 0.5172
593.40 0.5169
593.50 0.5166
593.60 0.5162
593.70 0.5159
593.80 0.5156
593.90 0.5152
594.00 0.5149
594.10 0.5146
594.20 0.5142
594.30 0.5139
594.40 0.5135
594.50 0.5132
594.60 0.5129
594.70 0.5125
594.80 0.5122
594.90 0.5119
595.00 0.5116
595.10 0.5112
595.20 0.5109
595.30 0.5106
595.40 0.5102
595.50 0.5099
595.60 0.5096
595.70 0.5092
595.80 0.5089
595.90 0.5086
596.00 0.5082
596.10 0.5079
596.20 0.5076
596.30 0.5073
596.40 0.5069
596.50 0.5066
596.60 0.5063
596.70 0.5059
596.80 0.5056
596.90 0.5053
597.00 0.505
597.10 0.5046
597.20 0.5043
597.30 0.504
597.40 0.5037
597.50 0.5033
597.60 0.503
597.70 0.5027
597.80 0.5024
597.90 0.502
598.00 0.5017
598.10 0.5014
598.20 0.5011
598.30 0.5007
598.40 0.5004
598.50 0.5001
598.60 0.4998
598.70 0.4994
598.80 0.4991
598.90 0.4988
599.00 0.4985
599.10 0.4982
599.20 0.4978
599.30 0.4975
599.40 0.4972
599.50 0.4969
599.60 0.4966
599.70 0.4962
599.80 0.4959
599.90 0.4956
600.00 0.4953
600.10 0.495
600.20 0.4946
600.30 0.4943
600.40 0.494
600.50 0.4937
600.60 0.4934
600.70 0.493
600.80 0.4927
600.90 0.4924
601.00 0.4921
601.10 0.4918
601.20 0.4915
601.30 0.4912
601.40 0.4908
601.50 0.4905
601.60 0.4902
601.70 0.4899
601.80 0.4896
601.90 0.4893
602.00 0.4889
602.10 0.4886
602.20 0.4883
602.30 0.488
602.40 0.4877
602.50 0.4874
602.60 0.4871
602.70 0.4868
602.80 0.4864
602.90 0.4861
603.00 0.4858
603.10 0.4855
603.20 0.4852
603.30 0.4849
603.40 0.4846
603.50 0.4843
603.60 0.484
603.70 0.4836
603.80 0.4833
603.90 0.483
604.00 0.4827
604.10 0.4824
604.20 0.4821
604.30 0.4818
604.40 0.4815
604.50 0.4812
604.60 0.4809
604.70 0.4806
604.80 0.4803
604.90 0.4799
605.00 0.4796
605.10 0.4793
605.20 0.479
605.30 0.4787
605.40 0.4784
605.50 0.4781
605.60 0.4778
605.70 0.4775
605.80 0.4772
605.90 0.4769
606.00 0.4766
606.10 0.4763
606.20 0.476
606.30 0.4757
606.40 0.4754
606.50 0.4751
606.60 0.4748
606.70 0.4745
606.80 0.4742
606.90 0.4739
607.00 0.4736
607.10 0.4733
607.20 0.473
607.30 0.4727
607.40 0.4724
607.50 0.4721
607.60 0.4718
607.70 0.4715
607.80 0.4712
607.90 0.4709
608.00 0.4706
608.10 0.4703
608.20 0.47
608.30 0.4697
608.40 0.4694
608.50 0.4691
608.60 0.4688
608.70 0.4685
608.80 0.4682
608.90 0.4679
609.00 0.4676
609.10 0.4673
609.20 0.467
609.30 0.4667
609.40 0.4664
609.50 0.4661
609.60 0.4658
609.70 0.4655
609.80 0.4652
609.90 0.4649
610.00 0.4646
610.10 0.4643
610.20 0.464
610.30 0.4637
610.40 0.4634
610.50 0.4632
610.60 0.4629
610.70 0.4626
610.80 0.4623
610.90 0.462
611.00 0.4617
611.10 0.4614
611.20 0.4611
611.30 0.4608
611.40 0.4605
611.50 0.4602
611.60 0.4599
611.70 0.4597
611.80 0.4594
611.90 0.4591
612.00 0.4588
612.10 0.4585
612.20 0.4582
612.30 0.4579
612.40 0.4576
612.50 0.4573
612.60 0.457
612.70 0.4568
612.80 0.4565
612.90 0.4562
613.00 0.4559
613.10 0.4556
613.20 0.4553
613.30 0.455
613.40 0.4547
613.50 0.4545
613.60 0.4542
613.70 0.4539
613.80 0.4536
613.90 0.4533
614.00 0.453
614.10 0.4527
614.20 0.4525
614.30 0.4522
614.40 0.4519
614.50 0.4516
614.60 0.4513
614.70 0.451
614.80 0.4508
614.90 0.4505
615.00 0.4502
615.10 0.4499
615.20 0.4496
615.30 0.4493
615.40 0.4491
615.50 0.4488
615.60 0.4485
615.70 0.4482
615.80 0.4479
615.90 0.4476
616.00 0.4474
616.10 0.4471
616.20 0.4468
616.30 0.4465
616.40 0.4462
616.50 0.446
616.60 0.4457
616.70 0.4454
616.80 0.4451
616.90 0.4448
617.00 0.4446
617.10 0.4443
617.20 0.444
617.30 0.4437
617.40 0.4435
617.50 0.4432
617.60 0.4429
617.70 0.4426
617.80 0.4423
617.90 0.4421
618.00 0.4418
618.10 0.4415
618.20 0.4412
618.30 0.441
618.40 0.4407
618.50 0.4404
618.60 0.4401
618.70 0.4399
618.80 0.4396
618.90 0.4393
619.00 0.439
619.10 0.4388
619.20 0.4385
619.30 0.4382
619.40 0.4379
619.50 0.4377
619.60 0.4374
619.70 0.4371
619.80 0.4369
619.90 0.4366
620.00 0.4363
620.10 0.436
620.20 0.4358
620.30 0.4355
620.40 0.4352
620.50 0.4349
620.60 0.4347
620.70 0.4344
620.80 0.4341
620.90 0.4339
621.00 0.4336
621.10 0.4333
621.20 0.4331
621.30 0.4328
621.40 0.4325
621.50 0.4322
621.60 0.432
621.70 0.4317
621.80 0.4314
621.90 0.4312
622.00 0.4309
622.10 0.4306
622.20 0.4304
622.30 0.4301
622.40 0.4298
622.50 0.4296
622.60 0.4293
622.70 0.429
622.80 0.4288
622.90 0.4285
623.00 0.4282
623.10 0.428
623.20 0.4277
623.30 0.4274
623.40 0.4272
623.50 0.4269
623.60 0.4266
623.70 0.4264
623.80 0.4261
623.90 0.4258
624.00 0.4256
624.10 0.4253
624.20 0.4251
624.30 0.4248
624.40 0.4245
624.50 0.4243
624.60 0.424
624.70 0.4237
624.80 0.4235
624.90 0.4232
625.00 0.423
625.10 0.4227
625.20 0.4224
625.30 0.4222
625.40 0.4219
625.50 0.4216
625.60 0.4214
625.70 0.4211
625.80 0.4209
625.90 0.4206
626.00 0.4203
626.10 0.4201
626.20 0.4198
626.30 0.4196
626.40 0.4193
626.50 0.419
626.60 0.4188
626.70 0.4185
626.80 0.4183
626.90 0.418
627.00 0.4178
627.10 0.4175
627.20 0.4172
627.30 0.417
627.40 0.4167
627.50 0.4165
627.60 0.4162
627.70 0.416
627.80 0.4157
627.90 0.4154
628.00 0.4152
628.10 0.4149
628.20 0.4147
628.30 0.4144
628.40 0.4142
628.50 0.4139
628.60 0.4137
628.70 0.4134
628.80 0.4131
628.90 0.4129
629.00 0.4126
629.10 0.4124
629.20 0.4121
629.30 0.4119
629.40 0.4116
629.50 0.4114
629.60 0.4111
629.70 0.4109
629.80 0.4106
629.90 0.4104
630.00 0.4101
630.10 0.4099
630.20 0.4096
630.30 0.4094
630.40 0.4091
630.50 0.4088
630.60 0.4086
630.70 0.4083
630.80 0.4081
630.90 0.4078
631.00 0.4076
631.10 0.4073
631.20 0.4071
631.30 0.4068
631.40 0.4066
631.50 0.4063
631.60 0.4061
631.70 0.4058
631.80 0.4056
631.90 0.4053
632.00 0.4051
632.10 0.4049
632.20 0.4046
632.30 0.4044
632.40 0.4041
632.50 0.4039
632.60 0.4036
632.70 0.4034
632.80 0.4031
632.90 0.4029
633.00 0.4026
633.10 0.4024
633.20 0.4021
633.30 0.4019
633.40 0.4016
633.50 0.4014
633.60 0.4011
633.70 0.4009
633.80 0.4007
633.90 0.4004
634.00 0.4002
634.10 0.3999
634.20 0.3997
634.30 0.3994
634.40 0.3992
634.50 0.3989
634.60 0.3987
634.70 0.3985
634.80 0.3982
634.90 0.398
635.00 0.3977
635.10 0.3975
635.20 0.3972
635.30 0.397
635.40 0.3968
635.50 0.3965
635.60 0.3963
635.70 0.396
635.80 0.3958
635.90 0.3956
636.00 0.3953
636.10 0.3951
636.20 0.3948
636.30 0.3946
636.40 0.3943
636.50 0.3941
636.60 0.3939
636.70 0.3936
636.80 0.3934
636.90 0.3931
637.00 0.3929
637.10 0.3927
637.20 0.3924
637.30 0.3922
637.40 0.3919
637.50 0.3917
637.60 0.3915
637.70 0.3912
637.80 0.391
637.90 0.3908
638.00 0.3905
638.10 0.3903
638.20 0.39
638.30 0.3898
638.40 0.3896
638.50 0.3893
638.60 0.3891
638.70 0.3889
638.80 0.3886
638.90 0.3884
639.00 0.3881
639.10 0.3879
639.20 0.3877
639.30 0.3874
639.40 0.3872
639.50 0.387
639.60 0.3867
639.70 0.3865
639.80 0.3863
639.90 0.386
640.00 0.3858
640.10 0.3856
640.20 0.3853
640.30 0.3851
640.40 0.3849
640.50 0.3846
640.60 0.3844
640.70 0.3841
640.80 0.3839
640.90 0.3837
641.00 0.3834
641.10 0.3832
641.20 0.383
641.30 0.3827
641.40 0.3825
641.50 0.3823
641.60 0.382
641.70 0.3818
641.80 0.3816
641.90 0.3814
642.00 0.3811
642.10 0.3809
642.20 0.3807
642.30 0.3804
642.40 0.3802
642.50 0.38
642.60 0.3797
642.70 0.3795
642.80 0.3793
642.90 0.379
643.00 0.3788
643.10 0.3786
643.20 0.3783
643.30 0.3781
643.40 0.3779
643.50 0.3776
643.60 0.3774
643.70 0.3772
643.80 0.377
643.90 0.3767
644.00 0.3765
644.10 0.3763
644.20 0.376
644.30 0.3758
644.40 0.3756
644.50 0.3753
644.60 0.3751
644.70 0.3749
644.80 0.3747
644.90 0.3744
645.00 0.3742
645.10 0.374
645.20 0.3737
645.30 0.3735
645.40 0.3733
645.50 0.373
645.60 0.3728
645.70 0.3726
645.80 0.3724
645.90 0.3721
646.00 0.3719
646.10 0.3717
646.20 0.3714
646.30 0.3712
646.40 0.371
646.50 0.3707
646.60 0.3705
646.70 0.3703
646.80 0.3701
646.90 0.3698
647.00 0.3696
647.10 0.3694
647.20 0.3691
647.30 0.3689
647.40 0.3687
647.50 0.3684
647.60 0.3682
647.70 0.368
647.80 0.3677
647.90 0.3675
648.00 0.3673
648.10 0.367
648.20 0.3668
648.30 0.3666
648.40 0.3663
648.50 0.3661
648.60 0.3659
648.70 0.3656
648.80 0.3654
648.90 0.3652
649.00 0.3649
649.10 0.3647
649.20 0.3644
649.30 0.3642
649.40 0.364
649.50 0.3637
649.60 0.3635
649.70 0.3632
649.80 0.363
649.90 0.3627
650.00 0.3625
650.10 0.3622
650.20 0.362
650.30 0.3617
650.40 0.3615
650.50 0.3612
650.60 0.3609
650.70 0.3607
650.80 0.3604
650.90 0.3602
651.00 0.3599
651.10 0.3596
651.20 0.3594
651.30 0.3591
651.40 0.3588
651.50 0.3585
651.60 0.3582
651.70 0.3579
651.80 0.3576
651.90 0.3573
652.00 0.357
652.10 0.3567
652.20 0.3564
652.30 0.3561
652.40 0.3557
652.50 0.3553
652.60 0.3549
652.70 0.3545
652.80 0.3541
652.90 0.3537
653.00 0.3533
653.10 0.353
653.20 0.3526
653.30 0.3521
653.40 0.3515
653.50 0.3509
653.60 0.3503
653.70 0.3497
653.80 0.3491
653.90 0.3485
654.00 0.3479
654.10 0.3473
654.20 0.3467
654.30 0.3461
654.40 0.3451
654.50 0.3442
654.60 0.3432
654.70 0.3423
654.80 0.3412
654.90 0.3399
655.00 0.3385
655.10 0.3371
655.20 0.3357
655.30 0.3342
655.40 0.3323
655.50 0.3303
655.60 0.3279
655.70 0.3252
655.80 0.3217
655.90 0.3175
656.00 0.3107
656.10 0.3031
656.20 0.3008
656.30 0.3143
656.40 0.2978
656.50 0.3054
656.60 0.3121
656.70 0.318
656.80 0.3211
656.90 0.324
657.00 0.3261
657.10 0.328
657.20 0.3295
657.30 0.3309
657.40 0.3319
657.50 0.3329
657.60 0.3339
657.70 0.3348
657.80 0.3357
657.90 0.3363
658.00 0.3368
658.10 0.3373
658.20 0.3379
658.30 0.3383
658.40 0.3385
658.50 0.3387
658.60 0.3389
658.70 0.3391
658.80 0.3392
658.90 0.3394
659.00 0.3396
659.10 0.3398
659.20 0.34
659.30 0.3401
659.40 0.3401
659.50 0.3401
659.60 0.34
659.70 0.34
659.80 0.34
659.90 0.3399
660.00 0.3399
660.10 0.3399
660.20 0.3398
660.30 0.3398
660.40 0.3397
660.50 0.3396
660.60 0.3394
660.70 0.3393
660.80 0.3392
660.90 0.3391
661.00 0.339
661.10 0.3389
661.20 0.3388
661.30 0.3386
661.40 0.3385
661.50 0.3383
661.60 0.3382
661.70 0.338
661.80 0.3379
661.90 0.3377
662.00 0.3376
662.10 0.3374
662.20 0.3373
662.30 0.3371
662.40 0.3369
662.50 0.3368
662.60 0.3366
662.70 0.3364
662.80 0.3363
662.90 0.3361
663.00 0.3359
663.10 0.3357
663.20 0.3356
663.30 0.3354
663.40 0.3352
663.50 0.335
663.60 0.3349
663.70 0.3347
663.80 0.3345
663.90 0.3343
664.00 0.3342
664.10 0.334
664.20 0.3338
664.30 0.3336
664.40 0.3334
664.50 0.3333
664.60 0.3331
664.70 0.3329
664.80 0.3327
664.90 0.3325
665.00 0.3323
665.10 0.3322
665.20 0.332
665.30 0.3318
665.40 0.3316
665.50 0.3314
665.60 0.3312
665.70 0.331
665.80 0.3309
665.90 0.3307
666.00 0.3305
666.10 0.3303
666.20 0.3301
666.30 0.3299
666.40 0.3298
666.50 0.3296
666.60 0.3294
666.70 0.3292
666.80 0.329
666.90 0.3288
667.00 0.3286
667.10 0.3285
667.20 0.3283
667.30 0.3281
667.40 0.3279
667.50 0.3277
667.60 0.3275
667.70 0.3273
667.80 0.3272
667.90 0.327
668.00 0.3268
668.10 0.3266
668.20 0.3264
668.30 0.3262
668.40 0.326
668.50 0.3259
668.60 0.3257
668.70 0.3255
668.80 0.3253
668.90 0.3251
669.00 0.3249
669.10 0.3247
669.20 0.3246
669.30 0.3244
669.40 0.3242
669.50 0.324
669.60 0.3238
669.70 0.3236
669.80 0.3235
669.90 0.3233
670.00 0.3231
670.10 0.3229
670.20 0.3227
670.30 0.3225
670.40 0.3223
670.50 0.3222
670.60 0.322
670.70 0.3218
670.80 0.3216
670.90 0.3214
671.00 0.3212
671.10 0.3211
671.20 0.3209
671.30 0.3207
671.40 0.3205
671.50 0.3203
671.60 0.3201
671.70 0.32
671.80 0.3198
671.90 0.3196
672.00 0.3194
672.10 0.3192
672.20 0.319
672.30 0.3189
672.40 0.3187
672.50 0.3185
672.60 0.3183
672.70 0.3181
672.80 0.3179
672.90 0.3178
673.00 0.3176
673.10 0.3174
673.20 0.3172
673.30 0.317
673.40 0.3169
673.50 0.3167
673.60 0.3165
673.70 0.3163
673.80 0.3161
673.90 0.316
674.00 0.3158
674.10 0.3156
674.20 0.3154
674.30 0.3152
674.40 0.3151
674.50 0.3149
674.60 0.3147
674.70 0.3145
674.80 0.3143
674.90 0.3142
675.00 0.314
675.10 0.3138
675.20 0.3136
675.30 0.3134
675.40 0.3133
675.50 0.3131
675.60 0.3129
675.70 0.3127
675.80 0.3125
675.90 0.3124
676.00 0.3122
676.10 0.312
676.20 0.3118
676.30 0.3117
676.40 0.3115
676.50 0.3113
676.60 0.3111
676.70 0.3109
676.80 0.3108
676.90 0.3106
677.00 0.3104
677.10 0.3102
677.20 0.3101
677.30 0.3099
677.40 0.3097
677.50 0.3095
677.60 0.3093
677.70 0.3092
677.80 0.309
677.90 0.3088
678.00 0.3086
678.10 0.3085
678.20 0.3083
678.30 0.3081
678.40 0.3079
678.50 0.3078
678.60 0.3076
678.70 0.3074
678.80 0.3072
678.90 0.3071
679.00 0.3069
679.10 0.3067
679.20 0.3065
679.30 0.3064
679.40 0.3062
679.50 0.306
679.60 0.3058
679.70 0.3057
679.80 0.3055
679.90 0.3053
680.00 0.3051
680.10 0.305
680.20 0.3048
680.30 0.3046
680.40 0.3045
680.50 0.3043
680.60 0.3041
680.70 0.3039
680.80 0.3038
680.90 0.3036
681.00 0.3034
681.10 0.3032
681.20 0.3031
681.30 0.3029
681.40 0.3027
681.50 0.3026
681.60 0.3024
681.70 0.3022
681.80 0.302
681.90 0.3019
682.00 0.3017
682.10 0.3015
682.20 0.3014
682.30 0.3012
682.40 0.301
682.50 0.3008
682.60 0.3007
682.70 0.3005
682.80 0.3003
682.90 0.3002
683.00 0.3
683.10 0.2998
683.20 0.2997
683.30 0.2995
683.40 0.2993
683.50 0.2991
683.60 0.299
683.70 0.2988
683.80 0.2986
683.90 0.2985
684.00 0.2983
684.10 0.2981
684.20 0.298
684.30 0.2978
684.40 0.2976
684.50 0.2975
684.60 0.2973
684.70 0.2971
684.80 0.297
684.90 0.2968
685.00 0.2966
685.10 0.2965
685.20 0.2963
685.30 0.2961
685.40 0.296
685.50 0.2958
685.60 0.2956
685.70 0.2955
685.80 0.2953
685.90 0.2951
686.00 0.295
686.10 0.2948
686.20 0.2946
686.30 0.2945
686.40 0.2943
686.50 0.2941
686.60 0.294
686.70 0.2938
686.80 0.2936
686.90 0.2935
687.00 0.2933
687.10 0.2931
687.20 0.293
687.30 0.2928
687.40 0.2926
687.50 0.2925
687.60 0.2923
687.70 0.2921
687.80 0.292
687.90 0.2918
688.00 0.2916
688.10 0.2915
688.20 0.2913
688.30 0.2912
688.40 0.291
688.50 0.2908
688.60 0.2907
688.70 0.2905
688.80 0.2903
688.90 0.2902
689.00 0.29
689.10 0.2898
689.20 0.2897
689.30 0.2895
689.40 0.2894
689.50 0.2892
689.60 0.289
689.70 0.2889
689.80 0.2887
689.90 0.2886
690.00 0.2884
690.10 0.2882
690.20 0.2881
690.30 0.2879
690.40 0.2877
690.50 0.2876
690.60 0.2874
690.70 0.2873
690.80 0.2871
690.90 0.2869
691.00 0.2868
691.10 0.2866
691.20 0.2865
691.30 0.2863
691.40 0.2861
691.50 0.286
691.60 0.2858
691.70 0.2857
691.80 0.2855
691.90 0.2853
692.00 0.2852
692.10 0.285
692.20 0.2849
692.30 0.2847
692.40 0.2845
692.50 0.2844
692.60 0.2842
692.70 0.2841
692.80 0.2839
692.90 0.2838
693.00 0.2836
693.10 0.2834
693.20 0.2833
693.30 0.2831
693.40 0.283
693.50 0.2828
693.60 0.2826
693.70 0.2825
693.80 0.2823
693.90 0.2822
694.00 0.282
694.10 0.2819
694.20 0.2817
694.30 0.2815
694.40 0.2814
694.50 0.2812
694.60 0.2811
694.70 0.2809
694.80 0.2807
694.90 0.2806
695.00 0.2804
695.10 0.2803
695.20 0.2801
695.30 0.28
695.40 0.2798
695.50 0.2797
695.60 0.2795
695.70 0.2793
695.80 0.2792
695.90 0.279
696.00 0.2789
696.10 0.2787
696.20 0.2786
696.30 0.2784
696.40 0.2783
696.50 0.2781
696.60 0.278
696.70 0.2778
696.80 0.2776
696.90 0.2775
697.00 0.2773
697.10 0.2772
697.20 0.277
697.30 0.2769
697.40 0.2767
697.50 0.2766
697.60 0.2764
697.70 0.2763
697.80 0.2761
697.90 0.276
698.00 0.2758
698.10 0.2756
698.20 0.2755
698.30 0.2753
698.40 0.2752
698.50 0.275
698.60 0.2749
698.70 0.2747
698.80 0.2746
698.90 0.2744
699.00 0.2743
699.10 0.2741
699.20 0.274
699.30 0.2738
699.40 0.2737
699.50 0.2735
699.60 0.2734
699.70 0.2732
699.80 0.2731
699.90 0.2729
700.00 0.2728
700.10 0.2726
700.20 0.2725
700.30 0.2723
700.40 0.2722
700.50 0.272
700.60 0.2719
700.70 0.2717
700.80 0.2716
700.90 0.2714
701.00 0.2713
701.10 0.2711
701.20 0.271
701.30 0.2708
701.40 0.2707
701.50 0.2705
701.60 0.2704
701.70 0.2702
701.80 0.2701
701.90 0.2699
702.00 0.2698
702.10 0.2696
702.20 0.2695
702.30 0.2693
702.40 0.2692
702.50 0.269
702.60 0.2689
702.70 0.2687
702.80 0.2686
702.90 0.2684
703.00 0.2683
703.10 0.2681
703.20 0.268
703.30 0.2678
703.40 0.2677
703.50 0.2675
703.60 0.2674
703.70 0.2672
703.80 0.2671
703.90 0.2669
704.00 0.2668
704.10 0.2667
704.20 0.2665
704.30 0.2664
704.40 0.2662
704.50 0.2661
704.60 0.2659
704.70 0.2658
704.80 0.2656
704.90 0.2655
705.00 0.2653
705.10 0.2652
705.20 0.265
705.30 0.2649
705.40 0.2648
705.50 0.2646
705.60 0.2645
705.70 0.2643
705.80 0.2642
705.90 0.264
706.00 0.2639
706.10 0.2637
706.20 0.2636
706.30 0.2634
706.40 0.2633
706.50 0.2632
706.60 0.263
706.70 0.2629
706.80 0.2627
706.90 0.2626
707.00 0.2624
707.10 0.2623
707.20 0.2622
707.30 0.262
707.40 0.2619
707.50 0.2617
707.60 0.2616
707.70 0.2614
707.80 0.2613
707.90 0.2612
708.00 0.261
708.10 0.2609
708.20 0.2607
708.30 0.2606
708.40 0.2604
708.50 0.2603
708.60 0.2602
708.70 0.26
708.80 0.2599
708.90 0.2597
709.00 0.2596
709.10 0.2594
709.20 0.2593
709.30 0.2592
709.40 0.259
709.50 0.2589
709.60 0.2587
709.70 0.2586
709.80 0.2584
709.90 0.2583
710.00 0.2582
710.10 0.258
710.20 0.2579
710.30 0.2577
710.40 0.2576
710.50 0.2575
710.60 0.2573
710.70 0.2572
710.80 0.257
710.90 0.2569
711.00 0.2568
711.10 0.2566
711.20 0.2565
711.30 0.2563
711.40 0.2562
711.50 0.2561
711.60 0.2559
711.70 0.2558
711.80 0.2556
711.90 0.2555
712.00 0.2554
712.10 0.2552
712.20 0.2551
712.30 0.255
712.40 0.2548
712.50 0.2547
712.60 0.2545
712.70 0.2544
712.80 0.2543
712.90 0.2541
713.00 0.254
713.10 0.2538
713.20 0.2537
713.30 0.2536
713.40 0.2534
713.50 0.2533
713.60 0.2532
713.70 0.253
713.80 0.2529
713.90 0.2527
714.00 0.2526
714.10 0.2525
714.20 0.2523
714.30 0.2522
714.40 0.2521
714.50 0.2519
714.60 0.2518
714.70 0.2516
714.80 0.2515
714.90 0.2514
715.00 0.2512
715.10 0.2511
715.20 0.251
715.30 0.2508
715.40 0.2507
715.50 0.2506
715.60 0.2504
715.70 0.2503
715.80 0.2502
715.90 0.25
716.00 0.2499
716.10 0.2497
716.20 0.2496
716.30 0.2495
716.40 0.2493
716.50 0.2492
716.60 0.2491
716.70 0.2489
716.80 0.2488
716.90 0.2487
717.00 0.2485
717.10 0.2484
717.20 0.2483
717.30 0.2481
717.40 0.248
717.50 0.2479
717.60 0.2477
717.70 0.2476
717.80 0.2475
717.90 0.2473
718.00 0.2472
718.10 0.2471
718.20 0.2469
718.30 0.2468
718.40 0.2467
718.50 0.2465
718.60 0.2464
718.70 0.2463
718.80 0.2461
718.90 0.246
719.00 0.2459
719.10 0.2457
719.20 0.2456
719.30 0.2455
719.40 0.2453
719.50 0.2452
719.60 0.2451
719.70 0.2449
719.80 0.2448
719.90 0.2447
720.00 0.2445
720.10 0.2444
720.20 0.2443
720.30 0.2441
720.40 0.244
720.50 0.2439
720.60 0.2437
720.70 0.2436
720.80 0.2435
720.90 0.2434
721.00 0.2432
721.10 0.2431
721.20 0.243
721.30 0.2428
721.40 0.2427
721.50 0.2426
721.60 0.2424
721.70 0.2423
721.80 0.2422
721.90 0.2421
722.00 0.2419
722.10 0.2418
722.20 0.2417
722.30 0.2415
722.40 0.2414
722.50 0.2413
722.60 0.2411
722.70 0.241
722.80 0.2409
722.90 0.2408
723.00 0.2406
723.10 0.2405
723.20 0.2404
723.30 0.2402
723.40 0.2401
723.50 0.24
723.60 0.2399
723.70 0.2397
723.80 0.2396
723.90 0.2395
724.00 0.2393
724.10 0.2392
724.20 0.2391
724.30 0.239
724.40 0.2388
724.50 0.2387
724.60 0.2386
724.70 0.2384
724.80 0.2383
724.90 0.2382
725.00 0.2381
725.10 0.2379
725.20 0.2378
725.30 0.2377
725.40 0.2376
725.50 0.2374
725.60 0.2373
725.70 0.2372
725.80 0.237
725.90 0.2369
726.00 0.2368
726.10 0.2367
726.20 0.2365
726.30 0.2364
726.40 0.2363
726.50 0.2362
726.60 0.236
726.70 0.2359
726.80 0.2358
726.90 0.2357
727.00 0.2355
727.10 0.2354
727.20 0.2353
727.30 0.2352
727.40 0.235
727.50 0.2349
727.60 0.2348
727.70 0.2347
727.80 0.2345
727.90 0.2344
728.00 0.2343
728.10 0.2342
728.20 0.234
728.30 0.2339
728.40 0.2338
728.50 0.2337
728.60 0.2335
728.70 0.2334
728.80 0.2333
728.90 0.2332
729.00 0.233
729.10 0.2329
729.20 0.2328
729.30 0.2327
729.40 0.2325
729.50 0.2324
729.60 0.2323
729.70 0.2322
729.80 0.232
729.90 0.2319
730.00 0.2318
730.10 0.2317
730.20 0.2316
730.30 0.2314
730.40 0.2313
730.50 0.2312
730.60 0.2311
730.70 0.2309
730.80 0.2308
730.90 0.2307
731.00 0.2306
731.10 0.2305
731.20 0.2303
731.30 0.2302
731.40 0.2301
731.50 0.23
731.60 0.2299
731.70 0.2297
731.80 0.2296
731.90 0.2295
732.00 0.2294
732.10 0.2292
732.20 0.2291
732.30 0.229
732.40 0.2289
732.50 0.2288
732.60 0.2286
732.70 0.2285
732.80 0.2284
732.90 0.2283
733.00 0.2282
733.10 0.228
733.20 0.2279
733.30 0.2278
733.40 0.2277
733.50 0.2276
733.60 0.2274
733.70 0.2273
733.80 0.2272
733.90 0.2271
734.00 0.227
734.10 0.2268
734.20 0.2267
734.30 0.2266
734.40 0.2265
734.50 0.2264
734.60 0.2262
734.70 0.2261
734.80 0.226
734.90 0.2259
735.00 0.2258
735.10 0.2257
735.20 0.2255
735.30 0.2254
735.40 0.2253
735.50 0.2252
735.60 0.2251
735.70 0.2249
735.80 0.2248
735.90 0.2247
736.00 0.2246
736.10 0.2245
736.20 0.2243
736.30 0.2242
736.40 0.2241
736.50 0.224
736.60 0.2239
736.70 0.2238
736.80 0.2236
736.90 0.2235
737.00 0.2234
737.10 0.2233
737.20 0.2232
737.30 0.223
737.40 0.2229
737.50 0.2228
737.60 0.2227
737.70 0.2226
737.80 0.2225
737.90 0.2223
738.00 0.2222
738.10 0.2221
738.20 0.222
738.30 0.2219
738.40 0.2218
738.50 0.2216
738.60 0.2215
738.70 0.2214
738.80 0.2213
738.90 0.2212
739.00 0.221
739.10 0.2209
739.20 0.2208
739.30 0.2207
739.40 0.2206
739.50 0.2205
739.60 0.2203
739.70 0.2202
739.80 0.2201
739.90 0.22
740.00 0.2199
740.10 0.2198
740.20 0.2197
740.30 0.2195
740.40 0.2194
740.50 0.2193
740.60 0.2192
740.70 0.2191
740.80 0.219
740.90 0.2189
741.00 0.2187
741.10 0.2186
741.20 0.2185
741.30 0.2184
741.40 0.2183
741.50 0.2182
741.60 0.2181
741.70 0.2179
741.80 0.2178
741.90 0.2177
742.00 0.2176
742.10 0.2175
742.20 0.2174
742.30 0.2173
742.40 0.2172
742.50 0.217
742.60 0.2169
742.70 0.2168
742.80 0.2167
742.90 0.2166
743.00 0.2165
743.10 0.2164
743.20 0.2163
743.30 0.2161
743.40 0.216
743.50 0.2159
743.60 0.2158
743.70 0.2157
743.80 0.2156
743.90 0.2155
744.00 0.2154
744.10 0.2152
744.20 0.2151
744.30 0.215
744.40 0.2149
744.50 0.2148
744.60 0.2147
744.70 0.2146
744.80 0.2145
744.90 0.2143
745.00 0.2142
745.10 0.2141
745.20 0.214
745.30 0.2139
745.40 0.2138
745.50 0.2137
745.60 0.2136
745.70 0.2135
745.80 0.2133
745.90 0.2132
746.00 0.2131
746.10 0.213
746.20 0.2129
746.30 0.2128
746.40 0.2127
746.50 0.2126
746.60 0.2125
746.70 0.2123
746.80 0.2122
746.90 0.2121
747.00 0.212
747.10 0.2119
747.20 0.2118
747.30 0.2117
747.40 0.2116
747.50 0.2115
747.60 0.2114
747.70 0.2112
747.80 0.2111
747.90 0.211
748.00 0.2109
748.10 0.2108
748.20 0.2107
748.30 0.2106
748.40 0.2105
748.50 0.2104
748.60 0.2103
748.70 0.2101
748.80 0.21
748.90 0.2099
749.00 0.2098
749.10 0.2097
749.20 0.2096
749.30 0.2095
749.40 0.2094
749.50 0.2093
749.60 0.2092
749.70 0.209
749.80 0.2089
749.90 0.2088
750.00 0.2087
750.10 0.2086
750.20 0.2085
750.30 0.2084
750.40 0.2083
750.50 0.2082
750.60 0.2081
750.70 0.208
750.80 0.2079
750.90 0.2078
751.00 0.2077
751.10 0.2075
751.20 0.2074
751.30 0.2073
751.40 0.2072
751.50 0.2071
751.60 0.207
751.70 0.2069
751.80 0.2068
751.90 0.2067
752.00 0.2066
752.10 0.2065
752.20 0.2064
752.30 0.2063
752.40 0.2062
752.50 0.2061
752.60 0.206
752.70 0.2059
752.80 0.2057
752.90 0.2056
753.00 0.2055
753.10 0.2054
753.20 0.2053
753.30 0.2052
753.40 0.2051
753.50 0.205
753.60 0.2049
753.70 0.2048
753.80 0.2047
753.90 0.2046
754.00 0.2045
754.10 0.2044
754.20 0.2043
754.30 0.2042
754.40 0.2041
754.50 0.204
754.60 0.2039
754.70 0.2037
754.80 0.2036
754.90 0.2035
755.00 0.2034
755.10 0.2033
755.20 0.2032
755.30 0.2031
755.40 0.203
755.50 0.2029
755.60 0.2028
755.70 0.2027
755.80 0.2026
755.90 0.2025
756.00 0.2024
756.10 0.2023
756.20 0.2022
756.30 0.2021
756.40 0.202
756.50 0.2019
756.60 0.2018
756.70 0.2017
756.80 0.2016
756.90 0.2015
757.00 0.2014
757.10 0.2012
757.20 0.2011
757.30 0.201
757.40 0.2009
757.50 0.2008
757.60 0.2007
757.70 0.2006
757.80 0.2005
757.90 0.2004
758.00 0.2003
758.10 0.2002
758.20 0.2001
758.30 0.2
758.40 0.1999
758.50 0.1998
758.60 0.1997
758.70 0.1996
758.80 0.1995
758.90 0.1994
759.00 0.1993
759.10 0.1992
759.20 0.1991
759.30 0.199
759.40 0.1989
759.50 0.1988
759.60 0.1987
759.70 0.1986
759.80 0.1985
759.90 0.1984
760.00 0.1983
760.10 0.1982
760.20 0.1981
760.30 0.198
760.40 0.1979
760.50 0.1978
760.60 0.1977
760.70 0.1976
760.80 0.1975
760.90 0.1974
761.00 0.1973
761.10 0.1972
761.20 0.1971
761.30 0.197
761.40 0.1969
761.50 0.1968
761.60 0.1967
761.70 0.1966
761.80 0.1965
761.90 0.1964
762.00 0.1963
762.10 0.1962
762.20 0.1961
762.30 0.196
762.40 0.1959
762.50 0.1958
762.60 0.1957
762.70 0.1956
762.80 0.1955
762.90 0.1954
763.00 0.1953
763.10 0.1952
763.20 0.1951
763.30 0.195
763.40 0.1949
763.50 0.1948
763.60 0.1947
763.70 0.1946
763.80 0.1945
763.90 0.1944
764.00 0.1943
764.10 0.1942
764.20 0.1941
764.30 0.194
764.40 0.1939
764.50 0.1938
764.60 0.1937
764.70 0.1936
764.80 0.1935
764.90 0.1934
765.00 0.1933
765.10 0.1932
765.20 0.1931
765.30 0.193
765.40 0.1929
765.50 0.1928
765.60 0.1927
765.70 0.1926
765.80 0.1925
765.90 0.1924
766.00 0.1923
766.10 0.1922
766.20 0.1921
766.30 0.192
766.40 0.1919
766.50 0.1918
766.60 0.1917
766.70 0.1916
766.80 0.1915
766.90 0.1914
767.00 0.1914
767.10 0.1913
767.20 0.1912
767.30 0.1911
767.40 0.191
767.50 0.1909
767.60 0.1908
767.70 0.1907
767.80 0.1906
767.90 0.1905
768.00 0.1904
768.10 0.1903
768.20 0.1902
768.30 0.1901
768.40 0.19
768.50 0.1899
768.60 0.1898
768.70 0.1897
768.80 0.1896
768.90 0.1895
769.00 0.1894
769.10 0.1893
769.20 0.1892
769.30 0.1891
769.40 0.189
769.50 0.1889
769.60 0.1888
769.70 0.1887
769.80 0.1886
769.90 0.1885
770.00 0.1885
770.10 0.1884
770.20 0.1883
770.30 0.1882
770.40 0.1881
770.50 0.188
770.60 0.1879
770.70 0.1878
770.80 0.1877
770.90 0.1876
771.00 0.1875
771.10 0.1874
771.20 0.1873
771.30 0.1872
771.40 0.1871
771.50 0.187
771.60 0.187
771.70 0.1869
771.80 0.1868
771.90 0.1867
772.00 0.1866
772.10 0.1865
772.20 0.1864
772.30 0.1863
772.40 0.1862
772.50 0.1861
772.60 0.186
772.70 0.1859
772.80 0.1858
772.90 0.1857
773.00 0.1856
773.10 0.1856
773.20 0.1855
773.30 0.1854
773.40 0.1853
773.50 0.1852
773.60 0.1851
773.70 0.185
773.80 0.1849
773.90 0.1848
774.00 0.1847
774.10 0.1846
774.20 0.1845
774.30 0.1844
774.40 0.1844
774.50 0.1843
774.60 0.1842
774.70 0.1841
774.80 0.184
774.90 0.1839
775.00 0.1838
775.10 0.1837
775.20 0.1836
775.30 0.1835
775.40 0.1834
775.50 0.1833
775.60 0.1832
775.70 0.1832
775.80 0.1831
775.90 0.183
776.00 0.1829
776.10 0.1828
776.20 0.1827
776.30 0.1826
776.40 0.1825
776.50 0.1824
776.60 0.1823
776.70 0.1822
776.80 0.1821
776.90 0.1821
777.00 0.182
777.10 0.1819
777.20 0.1818
777.30 0.1817
777.40 0.1816
777.50 0.1815
777.60 0.1814
777.70 0.1813
777.80 0.1812
777.90 0.1811
778.00 0.1811
778.10 0.181
778.20 0.1809
778.30 0.1808
778.40 0.1807
778.50 0.1806
778.60 0.1805
778.70 0.1804
778.80 0.1803
778.90 0.1802
779.00 0.1801
779.10 0.1801
779.20 0.18
779.30 0.1799
779.40 0.1798
779.50 0.1797
779.60 0.1796
779.70 0.1795
779.80 0.1794
779.90 0.1793
780.00 0.1792
780.10 0.1792
780.20 0.1791
780.30 0.179
780.40 0.1789
780.50 0.1788
780.60 0.1787
780.70 0.1786
780.80 0.1785
780.90 0.1784
781.00 0.1784
781.10 0.1783
781.20 0.1782
781.30 0.1781
781.40 0.178
781.50 0.1779
781.60 0.1778
781.70 0.1777
781.80 0.1777
781.90 0.1776
782.00 0.1775
782.10 0.1774
782.20 0.1773
782.30 0.1772
782.40 0.1771
782.50 0.177
782.60 0.177
782.70 0.1769
782.80 0.1768
782.90 0.1767
783.00 0.1766
783.10 0.1765
783.20 0.1764
783.30 0.1763
783.40 0.1763
783.50 0.1762
783.60 0.1761
783.70 0.176
783.80 0.1759
783.90 0.1758
784.00 0.1757
784.10 0.1756
784.20 0.1756
784.30 0.1755
784.40 0.1754
784.50 0.1753
784.60 0.1752
784.70 0.1751
784.80 0.175
784.90 0.175
785.00 0.1749
785.10 0.1748
785.20 0.1747
785.30 0.1746
785.40 0.1745
785.50 0.1744
785.60 0.1744
785.70 0.1743
785.80 0.1742
785.90 0.1741
786.00 0.174
786.10 0.1739
786.20 0.1738
786.30 0.1737
786.40 0.1737
786.50 0.1736
786.60 0.1735
786.70 0.1734
786.80 0.1733
786.90 0.1732
787.00 0.1731
787.10 0.1731
787.20 0.173
787.30 0.1729
787.40 0.1728
787.50 0.1727
787.60 0.1726
787.70 0.1725
787.80 0.1725
787.90 0.1724
788.00 0.1723
788.10 0.1722
788.20 0.1721
788.30 0.172
788.40 0.172
788.50 0.1719
788.60 0.1718
788.70 0.1717
788.80 0.1716
788.90 0.1715
789.00 0.1714
789.10 0.1714
789.20 0.1713
789.30 0.1712
789.40 0.1711
789.50 0.171
789.60 0.1709
789.70 0.1708
789.80 0.1708
789.90 0.1707
790.00 0.1706
790.10 0.1705
790.20 0.1704
790.30 0.1703
790.40 0.1703
790.50 0.1702
790.60 0.1701
790.70 0.17
790.80 0.1699
790.90 0.1698
791.00 0.1698
791.10 0.1697
791.20 0.1696
791.30 0.1695
791.40 0.1694
791.50 0.1693
791.60 0.1693
791.70 0.1692
791.80 0.1691
791.90 0.169
792.00 0.1689
792.10 0.1689
792.20 0.1688
792.30 0.1687
792.40 0.1686
792.50 0.1685
792.60 0.1684
792.70 0.1684
792.80 0.1683
792.90 0.1682
793.00 0.1681
793.10 0.168
793.20 0.1679
793.30 0.1679
793.40 0.1678
793.50 0.1677
793.60 0.1676
793.70 0.1675
793.80 0.1675
793.90 0.1674
794.00 0.1673
794.10 0.1672
794.20 0.1671
794.30 0.167
794.40 0.167
794.50 0.1669
794.60 0.1668
794.70 0.1667
794.80 0.1666
794.90 0.1666
795.00 0.1665
795.10 0.1664
795.20 0.1663
795.30 0.1662
795.40 0.1662
795.50 0.1661
795.60 0.166
795.70 0.1659
795.80 0.1658
795.90 0.1657
796.00 0.1657
796.10 0.1656
796.20 0.1655
796.30 0.1654
796.40 0.1653
796.50 0.1653
796.60 0.1652
796.70 0.1651
796.80 0.165
796.90 0.1649
797.00 0.1649
797.10 0.1648
797.20 0.1647
797.30 0.1646
797.40 0.1645
797.50 0.1645
797.60 0.1644
797.70 0.1643
797.80 0.1642
797.90 0.1641
798.00 0.1641
798.10 0.164
798.20 0.1639
798.30 0.1638
798.40 0.1637
798.50 0.1637
798.60 0.1636
798.70 0.1635
798.80 0.1634
798.90 0.1633
799.00 0.1633
799.10 0.1632
799.20 0.1631
799.30 0.163
799.40 0.1629
799.50 0.1629
799.60 0.1628
799.70 0.1627
799.80 0.1626
799.90 0.1625
800.00 0.1625
800.10 0.1624
800.20 0.1623
800.30 0.1622
800.40 0.1621
800.50 0.1621
800.60 0.162
800.70 0.1619
800.80 0.1618
800.90 0.1618
801.00 0.1617
801.10 0.1616
801.20 0.1615
801.30 0.1614
801.40 0.1614
801.50 0.1613
801.60 0.1612
801.70 0.1611
801.80 0.1611
801.90 0.161
802.00 0.1609
802.10 0.1608
802.20 0.1607
802.30 0.1607
802.40 0.1606
802.50 0.1605
802.60 0.1604
802.70 0.1604
802.80 0.1603
802.90 0.1602
803.00 0.1601
803.10 0.16
803.20 0.16
803.30 0.1599
803.40 0.1598
803.50 0.1597
803.60 0.1597
803.70 0.1596
803.80 0.1595
803.90 0.1594
804.00 0.1594
804.10 0.1593
804.20 0.1592
804.30 0.1591
804.40 0.159
804.50 0.159
804.60 0.1589
804.70 0.1588
804.80 0.1587
804.90 0.1587
805.00 0.1586
805.10 0.1585
805.20 0.1584
805.30 0.1584
805.40 0.1583
805.50 0.1582
805.60 0.1581
805.70 0.1581
805.80 0.158
805.90 0.1579
806.00 0.1578
806.10 0.1577
806.20 0.1577
806.30 0.1576
806.40 0.1575
806.50 0.1574
806.60 0.1574
806.70 0.1573
806.80 0.1572
806.90 0.1571
807.00 0.1571
807.10 0.157
807.20 0.1569
807.30 0.1568
807.40 0.1568
807.50 0.1567
807.60 0.1566
807.70 0.1565
807.80 0.1565
807.90 0.1564
808.00 0.1563
808.10 0.1562
808.20 0.1562
808.30 0.1561
808.40 0.156
808.50 0.1559
808.60 0.1559
808.70 0.1558
808.80 0.1557
808.90 0.1556
809.00 0.1556
809.10 0.1555
809.20 0.1554
809.30 0.1553
809.40 0.1553
809.50 0.1552
809.60 0.1551
809.70 0.155
809.80 0.155
809.90 0.1549
810.00 0.1548
810.10 0.1547
810.20 0.1547
810.30 0.1546
810.40 0.1545
810.50 0.1544
810.60 0.1544
810.70 0.1543
810.80 0.1542
810.90 0.1541
811.00 0.1541
811.10 0.154
811.20 0.1539
811.30 0.1538
811.40 0.1538
811.50 0.1537
811.60 0.1536
811.70 0.1536
811.80 0.1535
811.90 0.1534
812.00 0.1533
812.10 0.1533
812.20 0.1532
812.30 0.1531
812.40 0.153
812.50 0.153
812.60 0.1529
812.70 0.1528
812.80 0.1528
812.90 0.1527
813.00 0.1526
813.10 0.1525
813.20 0.1525
813.30 0.1524
813.40 0.1523
813.50 0.1522
813.60 0.1522
813.70 0.1521
813.80 0.152
813.90 0.152
814.00 0.1519
814.10 0.1518
814.20 0.1517
814.30 0.1517
814.40 0.1516
814.50 0.1515
814.60 0.1514
814.70 0.1514
814.80 0.1513
814.90 0.1512
815.00 0.1512
815.10 0.1511
815.20 0.151
815.30 0.1509
815.40 0.1509
815.50 0.1508
815.60 0.1507
815.70 0.1507
815.80 0.1506
815.90 0.1505
816.00 0.1504
816.10 0.1504
816.20 0.1503
816.30 0.1502
816.40 0.1502
816.50 0.1501
816.60 0.15
816.70 0.1499
816.80 0.1499
816.90 0.1498
817.00 0.1497
817.10 0.1497
817.20 0.1496
817.30 0.1495
817.40 0.1494
817.50 0.1494
817.60 0.1493
817.70 0.1492
817.80 0.1492
817.90 0.1491
818.00 0.149
818.10 0.1489
818.20 0.1489
818.30 0.1488
818.40 0.1487
818.50 0.1487
818.60 0.1486
818.70 0.1485
818.80 0.1484
818.90 0.1484
819.00 0.1483
819.10 0.1482
819.20 0.1482
819.30 0.1481
819.40 0.148
819.50 0.1479
819.60 0.1479
819.70 0.1478
819.80 0.1477
819.90 0.1477
820.00 0.1476
820.10 0.1475
820.20 0.1475
820.30 0.1474
820.40 0.1473
820.50 0.1472
820.60 0.1472
820.70 0.1471
820.80 0.147
820.90 0.147
821.00 0.1469
821.10 0.1468
821.20 0.1468
821.30 0.1467
821.40 0.1466
821.50 0.1465
821.60 0.1465
821.70 0.1464
821.80 0.1463
821.90 0.1463
822.00 0.1462
822.10 0.1461
822.20 0.1461
822.30 0.146
822.40 0.1459
822.50 0.1459
822.60 0.1458
822.70 0.1457
822.80 0.1457
822.90 0.1456
823.00 0.1455
823.10 0.1454
823.20 0.1454
823.30 0.1453
823.40 0.1452
823.50 0.1452
823.60 0.1451
823.70 0.145
823.80 0.145
823.90 0.1449
824.00 0.1448
824.10 0.1448
824.20 0.1447
824.30 0.1446
824.40 0.1446
824.50 0.1445
824.60 0.1444
824.70 0.1444
824.80 0.1443
824.90 0.1442
825.00 0.1441
825.10 0.1441
825.20 0.144
825.30 0.1439
825.40 0.1439
825.50 0.1438
825.60 0.1437
825.70 0.1437
825.80 0.1436
825.90 0.1435
826.00 0.1435
826.10 0.1434
826.20 0.1433
826.30 0.1433
826.40 0.1432
826.50 0.1431
826.60 0.1431
826.70 0.143
826.80 0.1429
826.90 0.1429
827.00 0.1428
827.10 0.1427
827.20 0.1427
827.30 0.1426
827.40 0.1425
827.50 0.1425
827.60 0.1424
827.70 0.1423
827.80 0.1423
827.90 0.1422
828.00 0.1421
828.10 0.1421
828.20 0.142
828.30 0.1419
828.40 0.1419
828.50 0.1418
828.60 0.1417
828.70 0.1417
828.80 0.1416
828.90 0.1415
829.00 0.1415
829.10 0.1414
829.20 0.1413
829.30 0.1413
829.40 0.1412
829.50 0.1411
829.60 0.1411
829.70 0.141
829.80 0.1409
829.90 0.1409
830.00 0.1408
830.10 0.1407
830.20 0.1407
830.30 0.1406
830.40 0.1405
830.50 0.1405
830.60 0.1404
830.70 0.1403
830.80 0.1403
830.90 0.1402
831.00 0.1401
831.10 0.1401
831.20 0.14
831.30 0.1399
831.40 0.1399
831.50 0.1398
831.60 0.1397
831.70 0.1397
831.80 0.1396
831.90 0.1396
832.00 0.1395
832.10 0.1394
832.20 0.1394
832.30 0.1393
832.40 0.1392
832.50 0.1392
832.60 0.1391
832.70 0.139
832.80 0.139
832.90 0.1389
833.00 0.1388
833.10 0.1388
833.20 0.1387
833.30 0.1386
833.40 0.1386
833.50 0.1385
833.60 0.1385
833.70 0.1384
833.80 0.1383
833.90 0.1383
834.00 0.1382
834.10 0.1381
834.20 0.1381
834.30 0.138
834.40 0.1379
834.50 0.1379
834.60 0.1378
834.70 0.1377
834.80 0.1377
834.90 0.1376
835.00 0.1375
835.10 0.1375
835.20 0.1374
835.30 0.1374
835.40 0.1373
835.50 0.1372
835.60 0.1372
835.70 0.1371
835.80 0.137
835.90 0.137
836.00 0.1369
836.10 0.1368
836.20 0.1368
836.30 0.1367
836.40 0.1367
836.50 0.1366
836.60 0.1365
836.70 0.1365
836.80 0.1364
836.90 0.1363
837.00 0.1363
837.10 0.1362
837.20 0.1361
837.30 0.1361
837.40 0.136
837.50 0.136
837.60 0.1359
837.70 0.1358
837.80 0.1358
837.90 0.1357
838.00 0.1356
838.10 0.1356
838.20 0.1355
838.30 0.1355
838.40 0.1354
838.50 0.1353
838.60 0.1353
838.70 0.1352
838.80 0.1351
838.90 0.1351
839.00 0.135
839.10 0.135
839.20 0.1349
839.30 0.1348
839.40 0.1348
839.50 0.1347
839.60 0.1346
839.70 0.1346
839.80 0.1345
839.90 0.1345
840.00 0.1344
840.10 0.1343
840.20 0.1343
840.30 0.1342
840.40 0.1341
840.50 0.1341
840.60 0.134
840.70 0.134
840.80 0.1339
840.90 0.1338
841.00 0.1338
841.10 0.1337
841.20 0.1336
841.30 0.1336
841.40 0.1335
841.50 0.1335
841.60 0.1334
841.70 0.1333
841.80 0.1333
841.90 0.1332
842.00 0.1331
842.10 0.1331
842.20 0.133
842.30 0.133
842.40 0.1329
842.50 0.1328
842.60 0.1328
842.70 0.1327
842.80 0.1327
842.90 0.1326
843.00 0.1325
843.10 0.1325
843.20 0.1324
843.30 0.1324
843.40 0.1323
843.50 0.1322
843.60 0.1322
843.70 0.1321
843.80 0.132
843.90 0.132
844.00 0.1319
844.10 0.1319
844.20 0.1318
844.30 0.1317
844.40 0.1317
844.50 0.1316
844.60 0.1316
844.70 0.1315
844.80 0.1314
844.90 0.1314
845.00 0.1313
845.10 0.1313
845.20 0.1312
845.30 0.1311
845.40 0.1311
845.50 0.131
845.60 0.131
845.70 0.1309
845.80 0.1308
845.90 0.1308
846.00 0.1307
846.10 0.1307
846.20 0.1306
846.30 0.1305
846.40 0.1305
846.50 0.1304
846.60 0.1304
846.70 0.1303
846.80 0.1302
846.90 0.1302
847.00 0.1301
847.10 0.1301
847.20 0.13
847.30 0.1299
847.40 0.1299
847.50 0.1298
847.60 0.1298
847.70 0.1297
847.80 0.1296
847.90 0.1296
848.00 0.1295
848.10 0.1295
848.20 0.1294
848.30 0.1293
848.40 0.1293
848.50 0.1292
848.60 0.1292
848.70 0.1291
848.80 0.129
848.90 0.129
849.00 0.1289
849.10 0.1289
849.20 0.1288
849.30 0.1287
849.40 0.1287
849.50 0.1286
849.60 0.1286
849.70 0.1285
849.80 0.1285
849.90 0.1284
850.00 0.1283
850.10 0.1283
850.20 0.1282
850.30 0.1282
850.40 0.1281
850.50 0.128
850.60 0.128
850.70 0.1279
850.80 0.1279
850.90 0.1278
851.00 0.1277
851.10 0.1277
851.20 0.1276
851.30 0.1276
851.40 0.1275
851.50 0.1275
851.60 0.1274
851.70 0.1273
851.80 0.1273
851.90 0.1272
852.00 0.1272
852.10 0.1271
852.20 0.127
852.30 0.127
852.40 0.1269
852.50 0.1269
852.60 0.1268
852.70 0.1268
852.80 0.1267
852.90 0.1266
853.00 0.1266
853.10 0.1265
853.20 0.1265
853.30 0.1264
853.40 0.1264
853.50 0.1263
853.60 0.1262
853.70 0.1262
853.80 0.1261
853.90 0.1261
854.00 0.126
854.10 0.126
854.20 0.1259
854.30 0.1258
854.40 0.1258
854.50 0.1257
854.60 0.1257
854.70 0.1256
854.80 0.1256
854.90 0.1255
855.00 0.1254
855.10 0.1254
855.20 0.1253
855.30 0.1253
855.40 0.1252
855.50 0.1252
855.60 0.1251
855.70 0.125
855.80 0.125
855.90 0.1249
856.00 0.1249
856.10 0.1248
856.20 0.1248
856.30 0.1247
856.40 0.1246
856.50 0.1246
856.60 0.1245
856.70 0.1245
856.80 0.1244
856.90 0.1244
857.00 0.1243
857.10 0.1242
857.20 0.1242
857.30 0.1241
857.40 0.1241
857.50 0.124
857.60 0.124
857.70 0.1239
857.80 0.1238
857.90 0.1238
858.00 0.1237
858.10 0.1237
858.20 0.1236
858.30 0.1236
858.40 0.1235
858.50 0.1235
858.60 0.1234
858.70 0.1233
858.80 0.1233
858.90 0.1232
859.00 0.1232
859.10 0.1231
859.20 0.1231
859.30 0.123
859.40 0.123
859.50 0.1229
859.60 0.1228
859.70 0.1228
859.80 0.1227
859.90 0.1227
860.00 0.1226
860.10 0.1226
860.20 0.1225
860.30 0.1225
860.40 0.1224
860.50 0.1223
860.60 0.1223
860.70 0.1222
860.80 0.1222
860.90 0.1221
861.00 0.1221
861.10 0.122
861.20 0.122
861.30 0.1219
861.40 0.1218
861.50 0.1218
861.60 0.1217
861.70 0.1217
861.80 0.1216
861.90 0.1216
862.00 0.1215
862.10 0.1215
862.20 0.1214
862.30 0.1214
862.40 0.1213
862.50 0.1212
862.60 0.1212
862.70 0.1211
862.80 0.1211
862.90 0.121
863.00 0.121
863.10 0.1209
863.20 0.1209
863.30 0.1208
863.40 0.1208
863.50 0.1207
863.60 0.1206
863.70 0.1206
863.80 0.1205
863.90 0.1205
864.00 0.1204
864.10 0.1204
864.20 0.1203
864.30 0.1203
864.40 0.1202
864.50 0.1202
864.60 0.1201
864.70 0.1201
864.80 0.12
864.90 0.1199
865.00 0.1199
865.10 0.1198
865.20 0.1198
865.30 0.1197
865.40 0.1197
865.50 0.1196
865.60 0.1196
865.70 0.1195
865.80 0.1195
865.90 0.1194
866.00 0.1194
866.10 0.1193
866.20 0.1192
866.30 0.1192
866.40 0.1191
866.50 0.1191
866.60 0.119
866.70 0.119
866.80 0.1189
866.90 0.1189
867.00 0.1188
867.10 0.1188
867.20 0.1187
867.30 0.1187
867.40 0.1186
867.50 0.1186
867.60 0.1185
867.70 0.1184
867.80 0.1184
867.90 0.1183
868.00 0.1183
868.10 0.1182
868.20 0.1182
868.30 0.1181
868.40 0.1181
868.50 0.118
868.60 0.118
868.70 0.1179
868.80 0.1179
868.90 0.1178
869.00 0.1178
869.10 0.1177
869.20 0.1177
869.30 0.1176
869.40 0.1175
869.50 0.1175
869.60 0.1174
869.70 0.1174
869.80 0.1173
869.90 0.1173
870.00 0.1172
870.10 0.1172
870.20 0.1171
870.30 0.1171
870.40 0.117
870.50 0.117
870.60 0.1169
870.70 0.1169
870.80 0.1168
870.90 0.1168
871.00 0.1167
871.10 0.1167
871.20 0.1166
871.30 0.1166
871.40 0.1165
871.50 0.1164
871.60 0.1164
871.70 0.1163
871.80 0.1163
871.90 0.1162
872.00 0.1162
872.10 0.1161
872.20 0.1161
872.30 0.116
872.40 0.116
872.50 0.1159
872.60 0.1159
872.70 0.1158
872.80 0.1158
872.90 0.1157
873.00 0.1157
873.10 0.1156
873.20 0.1156
873.30 0.1155
873.40 0.1155
873.50 0.1154
873.60 0.1154
873.70 0.1153
873.80 0.1153
873.90 0.1152
874.00 0.1152
874.10 0.1151
874.20 0.1151
874.30 0.115
874.40 0.115
874.50 0.1149
874.60 0.1149
874.70 0.1148
874.80 0.1148
874.90 0.1147
875.00 0.1146
875.10 0.1146
875.20 0.1145
875.30 0.1145
875.40 0.1144
875.50 0.1144
875.60 0.1143
875.70 0.1143
875.80 0.1142
875.90 0.1142
876.00 0.1141
876.10 0.1141
876.20 0.114
876.30 0.114
876.40 0.1139
876.50 0.1139
876.60 0.1138
876.70 0.1138
876.80 0.1137
876.90 0.1137
877.00 0.1136
877.10 0.1136
877.20 0.1135
877.30 0.1135
877.40 0.1134
877.50 0.1134
877.60 0.1133
877.70 0.1133
877.80 0.1132
877.90 0.1132
878.00 0.1131
878.10 0.1131
878.20 0.113
878.30 0.113
878.40 0.1129
878.50 0.1129
878.60 0.1128
878.70 0.1128
878.80 0.1127
878.90 0.1127
879.00 0.1126
879.10 0.1126
879.20 0.1125
879.30 0.1125
879.40 0.1124
879.50 0.1124
879.60 0.1123
879.70 0.1123
879.80 0.1122
879.90 0.1122
880.00 0.1121
880.10 0.1121
880.20 0.112
880.30 0.112
880.40 0.1119
880.50 0.1119
880.60 0.1118
880.70 0.1118
880.80 0.1117
880.90 0.1117
881.00 0.1116
881.10 0.1116
881.20 0.1115
881.30 0.1115
881.40 0.1114
881.50 0.1114
881.60 0.1113
881.70 0.1113
881.80 0.1112
881.90 0.1112
882.00 0.1112
882.10 0.1111
882.20 0.1111
882.30 0.111
882.40 0.111
882.50 0.1109
882.60 0.1109
882.70 0.1108
882.80 0.1108
882.90 0.1107
883.00 0.1107
883.10 0.1106
883.20 0.1106
883.30 0.1105
883.40 0.1105
883.50 0.1104
883.60 0.1104
883.70 0.1103
883.80 0.1103
883.90 0.1102
884.00 0.1102
884.10 0.1101
884.20 0.1101
884.30 0.11
884.40 0.11
884.50 0.1099
884.60 0.1099
884.70 0.1099
884.80 0.1098
884.90 0.1098
885.00 0.1097
885.10 0.1097
885.20 0.1096
885.30 0.1096
885.40 0.1095
885.50 0.1095
885.60 0.1094
885.70 0.1094
885.80 0.1093
885.90 0.1093
886.00 0.1092
886.10 0.1092
886.20 0.1091
886.30 0.1091
886.40 0.109
886.50 0.109
886.60 0.1089
886.70 0.1089
886.80 0.1088
886.90 0.1088
887.00 0.1088
887.10 0.1087
887.20 0.1087
887.30 0.1086
887.40 0.1086
887.50 0.1085
887.60 0.1085
887.70 0.1084
887.80 0.1084
887.90 0.1083
888.00 0.1083
888.10 0.1082
888.20 0.1082
888.30 0.1081
888.40 0.1081
888.50 0.108
888.60 0.108
888.70 0.1079
888.80 0.1079
888.90 0.1079
889.00 0.1078
889.10 0.1078
889.20 0.1077
889.30 0.1077
889.40 0.1076
889.50 0.1076
889.60 0.1075
889.70 0.1075
889.80 0.1074
889.90 0.1074
890.00 0.1073
890.10 0.1073
890.20 0.1072
890.30 0.1072
890.40 0.1071
890.50 0.1071
890.60 0.107
890.70 0.107
890.80 0.107
890.90 0.1069
891.00 0.1069
891.10 0.1068
891.20 0.1068
891.30 0.1067
891.40 0.1067
891.50 0.1066
891.60 0.1066
891.70 0.1065
891.80 0.1065
891.90 0.1064
892.00 0.1064
892.10 0.1063
892.20 0.1063
892.30 0.1063
892.40 0.1062
892.50 0.1062
892.60 0.1061
892.70 0.1061
892.80 0.106
892.90 0.106
893.00 0.1059
893.10 0.1059
893.20 0.1058
893.30 0.1058
893.40 0.1057
893.50 0.1057
893.60 0.1057
893.70 0.1056
893.80 0.1056
893.90 0.1055
894.00 0.1055
894.10 0.1054
894.20 0.1054
894.30 0.1053
894.40 0.1053
894.50 0.1052
894.60 0.1052
894.70 0.1051
894.80 0.1051
894.90 0.1051
895.00 0.105
895.10 0.105
895.20 0.1049
895.30 0.1049
895.40 0.1048
895.50 0.1048
895.60 0.1047
895.70 0.1047
895.80 0.1046
895.90 0.1046
896.00 0.1046
896.10 0.1045
896.20 0.1045
896.30 0.1044
896.40 0.1044
896.50 0.1043
896.60 0.1043
896.70 0.1042
896.80 0.1042
896.90 0.1041
897.00 0.1041
897.10 0.1041
897.20 0.104
897.30 0.104
897.40 0.1039
897.50 0.1039
897.60 0.1038
897.70 0.1038
897.80 0.1037
897.90 0.1037
898.00 0.1037
898.10 0.1036
898.20 0.1036
898.30 0.1035
898.40 0.1035
898.50 0.1034
898.60 0.1034
898.70 0.1033
898.80 0.1033
898.90 0.1033
899.00 0.1032
899.10 0.1032
899.20 0.1031
899.30 0.1031
899.40 0.103
899.50 0.103
899.60 0.1029
899.70 0.1029
899.80 0.1029
899.90 0.1028
900.00 0.1028
900.10 0.1027
900.20 0.1027
900.30 0.1026
900.40 0.1026
900.50 0.1025
900.60 0.1025
900.70 0.1025
900.80 0.1024
900.90 0.1024
901.00 0.1023
901.10 0.1023
901.20 0.1022
901.30 0.1022
901.40 0.1022
901.50 0.1021
901.60 0.1021
901.70 0.102
901.80 0.102
901.90 0.1019
902.00 0.1019
902.10 0.1018
902.20 0.1018
902.30 0.1018
902.40 0.1017
902.50 0.1017
902.60 0.1016
902.70 0.1016
902.80 0.1015
902.90 0.1015
903.00 0.1015
903.10 0.1014
903.20 0.1014
903.30 0.1013
903.40 0.1013
903.50 0.1012
903.60 0.1012
903.70 0.1012
903.80 0.1011
903.90 0.1011
904.00 0.101
904.10 0.101
904.20 0.1009
904.30 0.1009
904.40 0.1008
904.50 0.1008
904.60 0.1008
904.70 0.1007
904.80 0.1007
904.90 0.1006
905.00 0.1006
905.10 0.1005
905.20 0.1005
905.30 0.1005
905.40 0.1004
905.50 0.1004
905.60 0.1003
905.70 0.1003
905.80 0.1002
905.90 0.1002
906.00 0.1002
906.10 0.1001
906.20 0.1001
906.30 0.1
906.40 0.09999
906.50 0.09994
906.60 0.0999
906.70 0.09986
906.80 0.09981
906.90 0.09977
907.00 0.09973
907.10 0.09969
907.20 0.09964
907.30 0.0996
907.40 0.09956
907.50 0.09952
907.60 0.09947
907.70 0.09943
907.80 0.09939
907.90 0.09935
908.00 0.09931
908.10 0.09926
908.20 0.09922
908.30 0.09918
908.40 0.09914
908.50 0.09909
908.60 0.09905
908.70 0.09901
908.80 0.09897
908.90 0.09893
909.00 0.09888
909.10 0.09884
909.20 0.0988
909.30 0.09876
909.40 0.09871
909.50 0.09867
909.60 0.09863
909.70 0.09859
909.80 0.09855
909.90 0.0985
910.00 0.09846
910.10 0.09842
910.20 0.09838
910.30 0.09834
910.40 0.0983
910.50 0.09825
910.60 0.09821
910.70 0.09817
910.80 0.09813
910.90 0.09809
911.00 0.09804
911.10 0.098
911.20 0.09796
911.30 0.09792
911.40 0.09788
911.50 0.09784
911.60 0.09779
911.70 0.09775
911.80 0.09771
911.90 0.09767
912.00 0.09763
912.10 0.09758
912.20 0.09754
912.30 0.0975
912.40 0.09746
912.50 0.09741
912.60 0.09737
912.70 0.09733
912.80 0.09729
912.90 0.09725
913.00 0.0972
913.10 0.09716
913.20 0.09712
913.30 0.09708
913.40 0.09703
913.50 0.09699
913.60 0.09695
913.70 0.09691
913.80 0.09687
913.90 0.09682
914.00 0.09678
914.10 0.09674
914.20 0.0967
914.30 0.09665
914.40 0.09661
914.50 0.09657
914.60 0.09653
914.70 0.09649
914.80 0.09644
914.90 0.0964
915.00 0.09636
915.10 0.09632
915.20 0.09628
915.30 0.09623
915.40 0.09619
915.50 0.09615
915.60 0.09611
915.70 0.09607
915.80 0.09603
915.90 0.09598
916.00 0.09594
916.10 0.0959
916.20 0.09586
916.30 0.09582
916.40 0.09577
916.50 0.09573
916.60 0.09569
916.70 0.09565
916.80 0.09561
916.90 0.09557
917.00 0.09552
917.10 0.09548
917.20 0.09544
917.30 0.0954
917.40 0.09536
917.50 0.09532
917.60 0.09528
917.70 0.09524
917.80 0.0952
917.90 0.09515
918.00 0.09511
918.10 0.09507
918.20 0.09503
918.30 0.09499
918.40 0.09495
918.50 0.09491
918.60 0.09487
918.70 0.09483
918.80 0.09479
918.90 0.09474
919.00 0.0947
919.10 0.09466
919.20 0.09462
919.30 0.09458
919.40 0.09454
919.50 0.0945
919.60 0.09446
919.70 0.09442
919.80 0.09438
919.90 0.09434
920.00 0.0943
920.10 0.09425
920.20 0.09421
920.30 0.09417
920.40 0.09413
920.50 0.09409
920.60 0.09405
920.70 0.09401
920.80 0.09397
920.90 0.09393
921.00 0.09389
921.10 0.09385
921.20 0.09381
921.30 0.09377
921.40 0.09373
921.50 0.09369
921.60 0.09365
921.70 0.09361
921.80 0.09357
921.90 0.09352
922.00 0.09348
922.10 0.09345
922.20 0.09341
922.30 0.09337
922.40 0.09333
922.50 0.09329
922.60 0.09325
922.70 0.09321
922.80 0.09318
922.90 0.09314
923.00 0.0931
923.10 0.09306
923.20 0.09302
923.30 0.09298
923.40 0.09294
923.50 0.09291
923.60 0.09287
923.70 0.09283
923.80 0.09279
923.90 0.09275
924.00 0.09271
924.10 0.09268
924.20 0.09264
924.30 0.0926
924.40 0.09256
924.50 0.09252
924.60 0.09248
924.70 0.09245
924.80 0.09241
924.90 0.09237
925.00 0.09233
925.10 0.09229
925.20 0.09225
925.30 0.09222
925.40 0.09218
925.50 0.09214
925.60 0.0921
925.70 0.09206
925.80 0.09203
925.90 0.09199
926.00 0.09195
926.10 0.09191
926.20 0.09187
926.30 0.09184
926.40 0.0918
926.50 0.09176
926.60 0.09172
926.70 0.09168
926.80 0.09165
926.90 0.09161
927.00 0.09157
927.10 0.09153
927.20 0.0915
927.30 0.09146
927.40 0.09142
927.50 0.09139
927.60 0.09135
927.70 0.09131
927.80 0.09128
927.90 0.09124
928.00 0.0912
928.10 0.09117
928.20 0.09113
928.30 0.0911
928.40 0.09106
928.50 0.09102
928.60 0.09099
928.70 0.09095
928.80 0.09091
928.90 0.09088
929.00 0.09084
929.10 0.0908
929.20 0.09077
929.30 0.09073
929.40 0.0907
929.50 0.09066
929.60 0.09062
929.70 0.09059
929.80 0.09055
929.90 0.09052
930.00 0.09048
930.10 0.09044
930.20 0.09041
930.30 0.09037
930.40 0.09033
930.50 0.0903
930.60 0.09026
930.70 0.09023
930.80 0.09019
930.90 0.09015
931.00 0.09012
931.10 0.09008
931.20 0.09005
931.30 0.09001
931.40 0.08997
931.50 0.08994
931.60 0.0899
931.70 0.08987
931.80 0.08983
931.90 0.08979
932.00 0.08976
932.10 0.08972
932.20 0.08969
932.30 0.08965
932.40 0.08961
932.50 0.08958
932.60 0.08954
932.70 0.0895
932.80 0.08947
932.90 0.08943
933.00 0.08939
933.10 0.08936
933.20 0.08932
933.30 0.08929
933.40 0.08925
933.50 0.08921
933.60 0.08918
933.70 0.08914
933.80 0.0891
933.90 0.08907
934.00 0.08903
934.10 0.089
934.20 0.08896
934.30 0.08892
934.40 0.08889
934.50 0.08885
934.60 0.08881
934.70 0.08878
934.80 0.08874
934.90 0.0887
935.00 0.08867
935.10 0.08863
935.20 0.08859
935.30 0.08856
935.40 0.08852
935.50 0.08849
935.60 0.08845
935.70 0.08841
935.80 0.08838
935.90 0.08834
936.00 0.0883
936.10 0.08827
936.20 0.08823
936.30 0.08819
936.40 0.08816
936.50 0.08812
936.60 0.08809
936.70 0.08805
936.80 0.08801
936.90 0.08798
937.00 0.08794
937.10 0.0879
937.20 0.08787
937.30 0.08783
937.40 0.08779
937.50 0.08776
937.60 0.08772
937.70 0.08769
937.80 0.08765
937.90 0.08761
938.00 0.08758
938.10 0.08754
938.20 0.0875
938.30 0.08747
938.40 0.08743
938.50 0.08739
938.60 0.08736
938.70 0.08732
938.80 0.08728
938.90 0.08725
939.00 0.08721
939.10 0.08717
939.20 0.08714
939.30 0.0871
939.40 0.08706
939.50 0.08703
939.60 0.08699
939.70 0.08696
939.80 0.08692
939.90 0.08688
940.00 0.08685
940.10 0.08681
940.20 0.08677
940.30 0.08674
940.40 0.0867
940.50 0.08666
940.60 0.08663
940.70 0.08659
940.80 0.08655
940.90 0.08652
941.00 0.08648
941.10 0.08644
941.20 0.08641
941.30 0.08637
941.40 0.08633
941.50 0.0863
941.60 0.08626
941.70 0.08622
941.80 0.08619
941.90 0.08615
942.00 0.08612
942.10 0.08608
942.20 0.08604
942.30 0.08601
942.40 0.08597
942.50 0.08593
942.60 0.08589
942.70 0.08586
942.80 0.08582
942.90 0.08578
943.00 0.08575
943.10 0.08571
943.20 0.08567
943.30 0.08564
943.40 0.0856
943.50 0.08556
943.60 0.08553
943.70 0.08549
943.80 0.08545
943.90 0.08542
944.00 0.08538
944.10 0.08534
944.20 0.08531
944.30 0.08527
944.40 0.08523
944.50 0.0852
944.60 0.08516
944.70 0.08512
944.80 0.08508
944.90 0.08505
945.00 0.08501
945.10 0.08497
945.20 0.08494
945.30 0.0849
945.40 0.08486
945.50 0.08482
945.60 0.08479
945.70 0.08475
945.80 0.08471
945.90 0.08467
946.00 0.08464
946.10 0.0846
946.20 0.08456
946.30 0.08453
946.40 0.08449
946.50 0.08445
946.60 0.08441
946.70 0.08438
946.80 0.08434
946.90 0.0843
947.00 0.08426
947.10 0.08423
947.20 0.08419
947.30 0.08415
947.40 0.08411
947.50 0.08408
947.60 0.08404
947.70 0.084
947.80 0.08396
947.90 0.08392
948.00 0.08389
948.10 0.08385
948.20 0.08381
948.30 0.08377
948.40 0.08374
948.50 0.0837
948.60 0.08366
948.70 0.08362
948.80 0.08358
948.90 0.08355
949.00 0.08351
949.10 0.08347
949.20 0.08343
949.30 0.0834
949.40 0.08336
949.50 0.08332
949.60 0.08328
949.70 0.08324
949.80 0.0832
949.90 0.08317
950.00 0.08313
950.10 0.08309
950.20 0.08305
950.30 0.08301
950.40 0.08298
950.50 0.08294
950.60 0.0829
950.70 0.08286
950.80 0.08282
950.90 0.08279
951.00 0.08275
951.10 0.08271
951.20 0.08267
951.30 0.08263
951.40 0.0826
951.50 0.08256
951.60 0.08252
951.70 0.08248
951.80 0.08245
951.90 0.08241
952.00 0.08237
952.10 0.08233
952.20 0.0823
952.30 0.08226
952.40 0.08222
952.50 0.08219
952.60 0.08215
952.70 0.08212
952.80 0.08208
952.90 0.08204
953.00 0.08201
953.10 0.08198
953.20 0.08194
953.30 0.08191
953.40 0.08188
953.50 0.08184
953.60 0.08181
953.70 0.08178
953.80 0.08175
953.90 0.08172
954.00 0.08169
954.10 0.08167
954.20 0.08164
954.30 0.08162
954.40 0.08159
954.50 0.08157
954.60 0.08154
954.70 0.08151
954.80 0.08146
954.90 0.08142
955.00 0.08138
955.10 0.08133
955.20 0.0813
955.30 0.08126
955.40 0.08123
955.50 0.08119
955.60 0.08115
955.70 0.08112
955.80 0.08108
955.90 0.08105
956.00 0.08102
956.10 0.08099
956.20 0.08096
956.30 0.08093
956.40 0.08089
956.50 0.08086
956.60 0.08083
956.70 0.0808
956.80 0.08077
956.90 0.08074
957.00 0.08071
957.10 0.08068
957.20 0.08065
957.30 0.08062
957.40 0.08059
957.50 0.08056
957.60 0.08054
957.70 0.08051
957.80 0.08048
957.90 0.08045
958.00 0.08042
958.10 0.08039
958.20 0.08036
958.30 0.08034
958.40 0.08031
958.50 0.08028
958.60 0.08025
958.70 0.08022
958.80 0.08019
958.90 0.08017
959.00 0.08014
959.10 0.08011
959.20 0.08008
959.30 0.08005
959.40 0.08002
959.50 0.08
959.60 0.07997
959.70 0.07994
959.80 0.07991
959.90 0.07988
960.00 0.07985
960.10 0.07982
960.20 0.0798
960.30 0.07977
960.40 0.07974
960.50 0.07971
960.60 0.07968
960.70 0.07965
960.80 0.07962
960.90 0.0796
961.00 0.07957
961.10 0.07954
961.20 0.07951
961.30 0.07948
961.40 0.07945
961.50 0.07942
961.60 0.07939
961.70 0.07936
961.80 0.07934
961.90 0.07931
962.00 0.07928
962.10 0.07925
962.20 0.07922
962.30 0.07919
962.40 0.07916
962.50 0.07913
962.60 0.0791
962.70 0.07907
962.80 0.07904
962.90 0.07901
963.00 0.07898
963.10 0.07896
963.20 0.07893
963.30 0.0789
963.40 0.07887
963.50 0.07884
963.60 0.07881
963.70 0.07878
963.80 0.07875
963.90 0.07872
964.00 0.07869
964.10 0.07866
964.20 0.07863
964.30 0.0786
964.40 0.07857
964.50 0.07854
964.60 0.07851
964.70 0.07848
964.80 0.07845
964.90 0.07842
965.00 0.07839
965.10 0.07836
965.20 0.07833
965.30 0.0783
965.40 0.07827
965.50 0.07824
965.60 0.07821
965.70 0.07818
965.80 0.07815
965.90 0.07812
966.00 0.07809
966.10 0.07806
966.20 0.07803
966.30 0.078
966.40 0.07797
966.50 0.07794
966.60 0.07791
966.70 0.07788
966.80 0.07785
966.90 0.07782
967.00 0.07779
967.10 0.07776
967.20 0.07773
967.30 0.0777
967.40 0.07767
967.50 0.07764
967.60 0.07761
967.70 0.07758
967.80 0.07755
967.90 0.07752
968.00 0.07749
968.10 0.07746
968.20 0.07743
968.30 0.0774
968.40 0.07737
968.50 0.07734
968.60 0.07731
968.70 0.07728
968.80 0.07725
968.90 0.07722
969.00 0.07719
969.10 0.07716
969.20 0.07713
969.30 0.0771
969.40 0.07707
969.50 0.07704
969.60 0.07701
969.70 0.07698
969.80 0.07695
969.90 0.07692
970.00 0.07689
970.10 0.07686
970.20 0.07683
970.30 0.0768
970.40 0.07677
970.50 0.07674
970.60 0.07671
970.70 0.07668
970.80 0.07665
970.90 0.07662
971.00 0.07659
971.10 0.07656
971.20 0.07653
971.30 0.0765
971.40 0.07647
971.50 0.07644
971.60 0.07641
971.70 0.07638
971.80 0.07635
971.90 0.07632
972.00 0.07629
972.10 0.07626
972.20 0.07623
972.30 0.0762
972.40 0.07617
972.50 0.07614
972.60 0.07611
972.70 0.07608
972.80 0.07605
972.90 0.07602
973.00 0.07599
973.10 0.07596
973.20 0.07593
973.30 0.0759
973.40 0.07587
973.50 0.07584
973.60 0.07581
973.70 0.07578
973.80 0.07575
973.90 0.07572
974.00 0.07569
974.10 0.07566
974.20 0.07563
974.30 0.0756
974.40 0.07557
974.50 0.07554
974.60 0.07551
974.70 0.07548
974.80 0.07545
974.90 0.07542
975.00 0.07539
975.10 0.07536
975.20 0.07533
975.30 0.0753
975.40 0.07527
975.50 0.07524
975.60 0.07521
975.70 0.07518
975.80 0.07515
975.90 0.07512
976.00 0.07509
976.10 0.07506
976.20 0.07503
976.30 0.075
976.40 0.07497
976.50 0.07494
976.60 0.07491
976.70 0.07488
976.80 0.07485
976.90 0.07482
977.00 0.07479
977.10 0.07476
977.20 0.07473
977.30 0.0747
977.40 0.07467
977.50 0.07464
977.60 0.07461
977.70 0.07458
977.80 0.07455
977.90 0.07452
978.00 0.07449
978.10 0.07446
978.20 0.07443
978.30 0.07441
978.40 0.07438
978.50 0.07435
978.60 0.07432
978.70 0.07429
978.80 0.07426
978.90 0.07423
979.00 0.0742
979.10 0.07417
979.20 0.07414
979.30 0.07411
979.40 0.07408
979.50 0.07405
979.60 0.07402
979.70 0.07399
979.80 0.07396
979.90 0.07393
980.00 0.0739
980.10 0.07387
980.20 0.07384
980.30 0.07382
980.40 0.07379
980.50 0.07376
980.60 0.07373
980.70 0.0737
980.80 0.07367
980.90 0.07364
981.00 0.07361
981.10 0.07358
981.20 0.07355
981.30 0.07352
981.40 0.07349
981.50 0.07346
981.60 0.07343
981.70 0.0734
981.80 0.07338
981.90 0.07335
982.00 0.07332
982.10 0.07329
982.20 0.07326
982.30 0.07323
982.40 0.0732
982.50 0.07317
982.60 0.07314
982.70 0.07311
982.80 0.07308
982.90 0.07305
983.00 0.07302
983.10 0.073
983.20 0.07297
983.30 0.07294
983.40 0.07291
983.50 0.07288
983.60 0.07285
983.70 0.07282
983.80 0.07279
983.90 0.07276
984.00 0.07273
984.10 0.0727
984.20 0.07267
984.30 0.07265
984.40 0.07262
984.50 0.07259
984.60 0.07256
984.70 0.07253
984.80 0.0725
984.90 0.07247
985.00 0.07244
985.10 0.07241
985.20 0.07238
985.30 0.07236
985.40 0.07233
985.50 0.0723
985.60 0.07227
985.70 0.07224
985.80 0.07221
985.90 0.07218
986.00 0.07215
986.10 0.07212
986.20 0.07209
986.30 0.07207
986.40 0.07204
986.50 0.07201
986.60 0.07198
986.70 0.07195
986.80 0.07192
986.90 0.07189
987.00 0.07186
987.10 0.07183
987.20 0.07181
987.30 0.07178
987.40 0.07175
987.50 0.07172
987.60 0.07169
987.70 0.07166
987.80 0.07163
987.90 0.0716
988.00 0.07157
988.10 0.07154
988.20 0.07152
988.30 0.07149
988.40 0.07146
988.50 0.07143
988.60 0.0714
988.70 0.07137
988.80 0.07134
988.90 0.07131
989.00 0.07128
989.10 0.07126
989.20 0.07123
989.30 0.0712
989.40 0.07117
989.50 0.07114
989.60 0.07111
989.70 0.07108
989.80 0.07105
989.90 0.07102
990.00 0.07099
990.10 0.07097
990.20 0.07094
990.30 0.07091
990.40 0.07088
990.50 0.07085
990.60 0.07082
990.70 0.07079
990.80 0.07076
990.90 0.07073
991.00 0.07071
991.10 0.07068
991.20 0.07065
991.30 0.07062
991.40 0.07059
991.50 0.07056
991.60 0.07053
991.70 0.0705
991.80 0.07047
991.90 0.07044
992.00 0.07041
992.10 0.07039
992.20 0.07036
992.30 0.07033
992.40 0.0703
992.50 0.07027
992.60 0.07024
992.70 0.07021
992.80 0.07018
992.90 0.07015
993.00 0.07012
993.10 0.07009
993.20 0.07006
993.30 0.07003
993.40 0.07
993.50 0.06997
993.60 0.06994
993.70 0.06991
993.80 0.06989
993.90 0.06986
994.00 0.06983
994.10 0.0698
994.20 0.06977
994.30 0.06974
994.40 0.06971
994.50 0.06968
994.60 0.06965
994.70 0.06962
994.80 0.06959
994.90 0.06956
995.00 0.06953
995.10 0.0695
995.20 0.06947
995.30 0.06944
995.40 0.06941
995.50 0.06938
995.60 0.06935
995.70 0.06932
995.80 0.06929
995.90 0.06926
996.00 0.06923
996.10 0.0692
996.20 0.06917
996.30 0.06914
996.40 0.06911
996.50 0.06907
996.60 0.06904
996.70 0.06901
996.80 0.06898
996.90 0.06895
997.00 0.06892
997.10 0.06889
997.20 0.06886
997.30 0.06883
997.40 0.0688
997.50 0.06877
997.60 0.06873
997.70 0.0687
997.80 0.06867
997.90 0.06864
998.00 0.06861
998.10 0.06857
998.20 0.06854
998.30 0.06851
998.40 0.06848
998.50 0.06844
998.60 0.06841
998.70 0.06838
998.80 0.06835
998.90 0.06831
999.00 0.06828
999.10 0.06825
999.20 0.06822
999.30 0.06819
999.40 0.06815
999.50 0.06812
999.60 0.06809
999.70 0.06805
999.80 0.06802
999.90 0.06799
1000.00 0.06795
1000.10 0.06792
1000.20 0.06788
1000.30 0.06785
1000.40 0.06781
1000.50 0.06778
1000.60 0.06774
1000.70 0.06771
1000.80 0.06767
1000.90 0.06764
1001.00 0.0676
1001.10 0.06757
1001.20 0.06753
1001.30 0.0675
1001.40 0.06746
1001.50 0.06743
1001.60 0.0674
1001.70 0.06736
1001.80 0.06733
1001.90 0.06729
1002.00 0.06726
1002.10 0.06722
1002.20 0.06719
1002.30 0.06716
1002.40 0.06712
1002.50 0.06709
1002.60 0.06705
1002.70 0.06702
1002.80 0.06699
1002.90 0.06695
1003.00 0.06692
1003.10 0.06689
1003.20 0.06686
1003.30 0.06683
1003.40 0.0668
1003.50 0.06677
1003.60 0.06674
1003.70 0.06672
1003.80 0.06669
1003.90 0.06667
1004.00 0.06665
1004.10 0.06664
1004.20 0.06662
1004.30 0.06661
1004.40 0.06661
1004.50 0.06661
1004.60 0.06662
1004.70 0.06664
1004.80 0.06664
1004.90 0.06662
1005.00 0.0666
1005.10 0.06655
1005.20 0.06649
1005.30 0.06643
1005.40 0.06637
1005.50 0.06633
1005.60 0.06629
1005.70 0.06625
1005.80 0.06621
1005.90 0.06618
1006.00 0.06614
1006.10 0.0661
1006.20 0.06607
1006.30 0.06605
1006.40 0.06603
1006.50 0.06601
1006.60 0.06599
1006.70 0.06597
1006.80 0.06594
1006.90 0.06592
1007.00 0.0659
1007.10 0.06588
1007.20 0.06587
1007.30 0.06585
1007.40 0.06583
1007.50 0.06581
1007.60 0.0658
1007.70 0.06578
1007.80 0.06576
1007.90 0.06574
1008.00 0.06573
1008.10 0.06571
1008.20 0.06569
1008.30 0.06568
1008.40 0.06566
1008.50 0.06564
1008.60 0.06562
1008.70 0.06561
1008.80 0.06559
1008.90 0.06557
1009.00 0.06555
1009.10 0.06554
1009.20 0.06552
1009.30 0.0655
1009.40 0.06548
1009.50 0.06547
1009.60 0.06545
1009.70 0.06543
1009.80 0.06541
1009.90 0.06539
1010.00 0.06537
1010.10 0.06535
1010.20 0.06533
1010.30 0.06532
1010.40 0.0653
1010.50 0.06528
1010.60 0.06526
1010.70 0.06524
1010.80 0.06522
1010.90 0.0652
1011.00 0.06518
1011.10 0.06516
1011.20 0.06514
1011.30 0.06512
1011.40 0.0651
1011.50 0.06508
1011.60 0.06506
1011.70 0.06504
1011.80 0.06502
1011.90 0.065
1012.00 0.06498
1012.10 0.06496
1012.20 0.06494
1012.30 0.06492
1012.40 0.0649
1012.50 0.06488
1012.60 0.06486
1012.70 0.06483
1012.80 0.06481
1012.90 0.06479
1013.00 0.06477
1013.10 0.06475
1013.20 0.06473
1013.30 0.06471
1013.40 0.06469
1013.50 0.06466
1013.60 0.06464
1013.70 0.06462
1013.80 0.0646
1013.90 0.06458
1014.00 0.06455
1014.10 0.06453
1014.20 0.06451
1014.30 0.06449
1014.40 0.06447
1014.50 0.06444
1014.60 0.06442
1014.70 0.0644
1014.80 0.06438
1014.90 0.06435
1015.00 0.06433
1015.10 0.06431
1015.20 0.06429
1015.30 0.06426
1015.40 0.06424
1015.50 0.06422
1015.60 0.0642
1015.70 0.06417
1015.80 0.06415
1015.90 0.06413
1016.00 0.06411
1016.10 0.06408
1016.20 0.06406
1016.30 0.06404
1016.40 0.06402
1016.50 0.06399
1016.60 0.06397
1016.70 0.06395
1016.80 0.06392
1016.90 0.0639
1017.00 0.06388
1017.10 0.06386
1017.20 0.06383
1017.30 0.06381
1017.40 0.06379
1017.50 0.06376
1017.60 0.06374
1017.70 0.06372
1017.80 0.06369
1017.90 0.06367
1018.00 0.06365
1018.10 0.06362
1018.20 0.0636
1018.30 0.06358
1018.40 0.06355
1018.50 0.06353
1018.60 0.06351
1018.70 0.06348
1018.80 0.06346
1018.90 0.06344
1019.00 0.06341
1019.10 0.06339
1019.20 0.06337
1019.30 0.06334
1019.40 0.06332
1019.50 0.0633
1019.60 0.06327
1019.70 0.06325
1019.80 0.06323
1019.90 0.0632
1020.00 0.06318
1020.10 0.06316
1020.20 0.06313
1020.30 0.06311
1020.40 0.06309
1020.50 0.06306
1020.60 0.06304
1020.70 0.06302
1020.80 0.06299
1020.90 0.06297
1021.00 0.06295
1021.10 0.06292
1021.20 0.0629
1021.30 0.06288
1021.40 0.06285
1021.50 0.06283
1021.60 0.06281
1021.70 0.06278
1021.80 0.06276
1021.90 0.06274
1022.00 0.06271
1022.10 0.06269
1022.20 0.06267
1022.30 0.06264
1022.40 0.06262
1022.50 0.0626
1022.60 0.06257
1022.70 0.06255
1022.80 0.06253
1022.90 0.0625
1023.00 0.06248
1023.10 0.06246
1023.20 0.06243
1023.30 0.06241
1023.40 0.06239
1023.50 0.06236
1023.60 0.06234
1023.70 0.06232
1023.80 0.06229
1023.90 0.06227
1024.00 0.06225
1024.10 0.06222
1024.20 0.0622
1024.30 0.06218
1024.40 0.06215
1024.50 0.06213
1024.60 0.06211
1024.70 0.06208
1024.80 0.06206
1024.90 0.06204
1025.00 0.06201
1025.10 0.06199
1025.20 0.06197
1025.30 0.06194
1025.40 0.06192
1025.50 0.0619
1025.60 0.06187
1025.70 0.06185
1025.80 0.06183
1025.90 0.0618
1026.00 0.06178
1026.10 0.06176
1026.20 0.06173
1026.30 0.06171
1026.40 0.06169
1026.50 0.06167
1026.60 0.06164
1026.70 0.06162
1026.80 0.0616
1026.90 0.06157
1027.00 0.06155
1027.10 0.06153
1027.20 0.0615
1027.30 0.06148
1027.40 0.06146
1027.50 0.06143
1027.60 0.06141
1027.70 0.06139
1027.80 0.06136
1027.90 0.06134
1028.00 0.06132
1028.10 0.0613
1028.20 0.06127
1028.30 0.06125
1028.40 0.06123
1028.50 0.0612
1028.60 0.06118
1028.70 0.06116
1028.80 0.06113
1028.90 0.06111
1029.00 0.06109
1029.10 0.06107
1029.20 0.06104
1029.30 0.06102
1029.40 0.061
1029.50 0.06097
1029.60 0.06095
1029.70 0.06093
1029.80 0.0609
1029.90 0.06088
1030.00 0.06086
1030.10 0.06084
1030.20 0.06081
1030.30 0.06079
1030.40 0.06077
1030.50 0.06074
1030.60 0.06072
1030.70 0.0607
1030.80 0.06068
1030.90 0.06065
1031.00 0.06063
1031.10 0.06061
1031.20 0.06058
1031.30 0.06056
1031.40 0.06054
1031.50 0.06052
1031.60 0.06049
1031.70 0.06047
1031.80 0.06045
1031.90 0.06043
1032.00 0.0604
1032.10 0.06038
1032.20 0.06036
1032.30 0.06033
1032.40 0.06031
1032.50 0.06029
1032.60 0.06027
1032.70 0.06024
1032.80 0.06022
1032.90 0.0602
1033.00 0.06018
1033.10 0.06015
1033.20 0.06013
1033.30 0.06011
1033.40 0.06009
1033.50 0.06006
1033.60 0.06004
1033.70 0.06002
1033.80 0.06
1033.90 0.05997
1034.00 0.05995
1034.10 0.05993
1034.20 0.05991
1034.30 0.05988
1034.40 0.05986
1034.50 0.05984
1034.60 0.05982
1034.70 0.05979
1034.80 0.05977
1034.90 0.05975
1035.00 0.05973
1035.10 0.0597
1035.20 0.05968
1035.30 0.05966
1035.40 0.05964
1035.50 0.05961
1035.60 0.05959
1035.70 0.05957
1035.80 0.05955
1035.90 0.05952
1036.00 0.0595
1036.10 0.05948
1036.20 0.05946
1036.30 0.05943
1036.40 0.05941
1036.50 0.05939
1036.60 0.05937
1036.70 0.05935
1036.80 0.05932
1036.90 0.0593
1037.00 0.05928
1037.10 0.05926
1037.20 0.05923
1037.30 0.05921
1037.40 0.05919
1037.50 0.05917
1037.60 0.05915
1037.70 0.05912
1037.80 0.0591
1037.90 0.05908
1038.00 0.05906
1038.10 0.05903
1038.20 0.05901
1038.30 0.05899
1038.40 0.05897
1038.50 0.05895
1038.60 0.05892
1038.70 0.0589
1038.80 0.05888
1038.90 0.05886
1039.00 0.05884
1039.10 0.05881
1039.20 0.05879
1039.30 0.05877
1039.40 0.05875
1039.50 0.05873
1039.60 0.0587
1039.70 0.05868
1039.80 0.05866
1039.90 0.05864
1040.00 0.05862
1040.10 0.05859
1040.20 0.05857
1040.30 0.05855
1040.40 0.05853
1040.50 0.05851
1040.60 0.05848
1040.70 0.05846
1040.80 0.05844
1040.90 0.05842
1041.00 0.0584
1041.10 0.05838
1041.20 0.05835
1041.30 0.05833
1041.40 0.05831
1041.50 0.05829
1041.60 0.05827
1041.70 0.05824
1041.80 0.05822
1041.90 0.0582
1042.00 0.05818
1042.10 0.05816
1042.20 0.05814
1042.30 0.05811
1042.40 0.05809
1042.50 0.05807
1042.60 0.05805
1042.70 0.05803
1042.80 0.05801
1042.90 0.05798
1043.00 0.05796
1043.10 0.05794
1043.20 0.05792
1043.30 0.0579
1043.40 0.05788
1043.50 0.05785
1043.60 0.05783
1043.70 0.05781
1043.80 0.05779
1043.90 0.05777
1044.00 0.05775
1044.10 0.05772
1044.20 0.0577
1044.30 0.05768
1044.40 0.05766
1044.50 0.05764
1044.60 0.05762
1044.70 0.0576
1044.80 0.05757
1044.90 0.05755
1045.00 0.05753
1045.10 0.05751
1045.20 0.05749
1045.30 0.05747
1045.40 0.05744
1045.50 0.05742
1045.60 0.0574
1045.70 0.05738
1045.80 0.05736
1045.90 0.05734
1046.00 0.05732
1046.10 0.05729
1046.20 0.05727
1046.30 0.05725
1046.40 0.05723
1046.50 0.05721
1046.60 0.05719
1046.70 0.05717
1046.80 0.05715
1046.90 0.05712
1047.00 0.0571
1047.10 0.05708
1047.20 0.05706
1047.30 0.05704
1047.40 0.05702
1047.50 0.057
1047.60 0.05698
1047.70 0.05695
1047.80 0.05693
1047.90 0.05691
1048.00 0.05689
1048.10 0.05687
1048.20 0.05685
1048.30 0.05683
1048.40 0.05681
1048.50 0.05679
1048.60 0.05676
1048.70 0.05674
1048.80 0.05672
1048.90 0.0567
1049.00 0.05668
1049.10 0.05666
1049.20 0.05664
1049.30 0.05662
1049.40 0.0566
1049.50 0.05657
1049.60 0.05655
1049.70 0.05653
1049.80 0.05651
1049.90 0.05649
1050.00 0.05647
1050.10 0.05645
1050.20 0.05643
1050.30 0.05641
1050.40 0.05639
1050.50 0.05636
1050.60 0.05634
1050.70 0.05632
1050.80 0.0563
1050.90 0.05628
1051.00 0.05626
1051.10 0.05624
1051.20 0.05622
1051.30 0.0562
1051.40 0.05618
1051.50 0.05616
1051.60 0.05613
1051.70 0.05611
1051.80 0.05609
1051.90 0.05607
1052.00 0.05605
1052.10 0.05603
1052.20 0.05601
1052.30 0.05599
1052.40 0.05597
1052.50 0.05595
1052.60 0.05593
1052.70 0.05591
1052.80 0.05589
1052.90 0.05586
1053.00 0.05584
1053.10 0.05582
1053.20 0.0558
1053.30 0.05578
1053.40 0.05576
1053.50 0.05574
1053.60 0.05572
1053.70 0.0557
1053.80 0.05568
1053.90 0.05566
1054.00 0.05564
1054.10 0.05562
1054.20 0.0556
1054.30 0.05558
1054.40 0.05556
1054.50 0.05553
1054.60 0.05551
1054.70 0.05549
1054.80 0.05547
1054.90 0.05545
1055.00 0.05543
1055.10 0.05541
1055.20 0.05539
1055.30 0.05537
1055.40 0.05535
1055.50 0.05533
1055.60 0.05531
1055.70 0.05529
1055.80 0.05527
1055.90 0.05525
1056.00 0.05523
1056.10 0.05521
1056.20 0.05519
1056.30 0.05517
1056.40 0.05514
1056.50 0.05512
1056.60 0.0551
1056.70 0.05508
1056.80 0.05506
1056.90 0.05504
1057.00 0.05502
1057.10 0.055
1057.20 0.05498
1057.30 0.05496
1057.40 0.05494
1057.50 0.05492
1057.60 0.0549
1057.70 0.05488
1057.80 0.05486
1057.90 0.05484
1058.00 0.05482
1058.10 0.0548
1058.20 0.05478
1058.30 0.05476
1058.40 0.05474
1058.50 0.05472
1058.60 0.0547
1058.70 0.05468
1058.80 0.05466
1058.90 0.05464
1059.00 0.05462
1059.10 0.0546
1059.20 0.05458
1059.30 0.05456
1059.40 0.05454
1059.50 0.05452
1059.60 0.0545
1059.70 0.05448
1059.80 0.05446
1059.90 0.05444
1060.00 0.05442
1060.10 0.0544
1060.20 0.05438
1060.30 0.05436
1060.40 0.05434
1060.50 0.05432
1060.60 0.0543
1060.70 0.05428
1060.80 0.05426
1060.90 0.05424
1061.00 0.05422
1061.10 0.0542
1061.20 0.05418
1061.30 0.05416
1061.40 0.05414
1061.50 0.05412
1061.60 0.0541
1061.70 0.05408
1061.80 0.05406
1061.90 0.05404
1062.00 0.05402
1062.10 0.054
1062.20 0.05398
1062.30 0.05396
1062.40 0.05394
1062.50 0.05392
1062.60 0.0539
1062.70 0.05388
1062.80 0.05386
1062.90 0.05384
1063.00 0.05382
1063.10 0.0538
1063.20 0.05378
1063.30 0.05376
1063.40 0.05374
1063.50 0.05372
1063.60 0.0537
1063.70 0.05368
1063.80 0.05366
1063.90 0.05364
1064.00 0.05362
1064.10 0.0536
1064.20 0.05358
1064.30 0.05356
1064.40 0.05354
1064.50 0.05352
1064.60 0.0535
1064.70 0.05348
1064.80 0.05346
1064.90 0.05344
1065.00 0.05342
1065.10 0.0534
1065.20 0.05338
1065.30 0.05336
1065.40 0.05334
1065.50 0.05333
1065.60 0.05331
1065.70 0.05329
1065.80 0.05327
1065.90 0.05325
1066.00 0.05323
1066.10 0.05321
1066.20 0.05319
1066.30 0.05317
1066.40 0.05315
1066.50 0.05313
1066.60 0.05311
1066.70 0.05309
1066.80 0.05307
1066.90 0.05305
1067.00 0.05303
1067.10 0.05301
1067.20 0.05299
1067.30 0.05297
1067.40 0.05295
1067.50 0.05293
1067.60 0.05291
1067.70 0.05289
1067.80 0.05288
1067.90 0.05286
1068.00 0.05284
1068.10 0.05282
1068.20 0.0528
1068.30 0.05278
1068.40 0.05276
1068.50 0.05274
1068.60 0.05272
1068.70 0.0527
1068.80 0.05268
1068.90 0.05266
1069.00 0.05264
1069.10 0.05262
1069.20 0.0526
1069.30 0.05258
1069.40 0.05257
1069.50 0.05255
1069.60 0.05253
1069.70 0.05251
1069.80 0.05249
1069.90 0.05247
1070.00 0.05245
1070.10 0.05243
1070.20 0.05241
1070.30 0.05239
1070.40 0.05237
1070.50 0.05235
1070.60 0.05233
1070.70 0.05231
1070.80 0.05229
1070.90 0.05228
1071.00 0.05226
1071.10 0.05224
1071.20 0.05222
1071.30 0.0522
1071.40 0.05218
1071.50 0.05216
1071.60 0.05214
1071.70 0.05212
1071.80 0.0521
1071.90 0.05208
1072.00 0.05206
1072.10 0.05205
1072.20 0.05203
1072.30 0.05201
1072.40 0.05199
1072.50 0.05197
1072.60 0.05195
1072.70 0.05193
1072.80 0.05191
1072.90 0.05189
1073.00 0.05187
1073.10 0.05185
1073.20 0.05183
1073.30 0.05182
1073.40 0.0518
1073.50 0.05178
1073.60 0.05176
1073.70 0.05174
1073.80 0.05172
1073.90 0.0517
1074.00 0.05168
1074.10 0.05166
1074.20 0.05164
1074.30 0.05162
1074.40 0.0516
1074.50 0.05159
1074.60 0.05157
1074.70 0.05155
1074.80 0.05153
1074.90 0.05151
1075.00 0.05149
1075.10 0.05147
1075.20 0.05145
1075.30 0.05143
1075.40 0.05141
1075.50 0.05139
1075.60 0.05138
1075.70 0.05136
1075.80 0.05134
1075.90 0.05132
1076.00 0.0513
1076.10 0.05128
1076.20 0.05126
1076.30 0.05124
1076.40 0.05122
1076.50 0.0512
1076.60 0.05119
1076.70 0.05117
1076.80 0.05115
1076.90 0.05113
1077.00 0.05111
1077.10 0.05109
1077.20 0.05107
1077.30 0.05105
1077.40 0.05103
1077.50 0.05101
1077.60 0.051
1077.70 0.05098
1077.80 0.05096
1077.90 0.05094
1078.00 0.05092
1078.10 0.0509
1078.20 0.05088
1078.30 0.05086
1078.40 0.05084
1078.50 0.05082
1078.60 0.0508
1078.70 0.05078
1078.80 0.05077
1078.90 0.05075
1079.00 0.05073
1079.10 0.05071
1079.20 0.05069
1079.30 0.05067
1079.40 0.05065
1079.50 0.05063
1079.60 0.05061
1079.70 0.05059
1079.80 0.05057
1079.90 0.05055
1080.00 0.05054
1080.10 0.05052
1080.20 0.0505
1080.30 0.05048
1080.40 0.05046
1080.50 0.05044
1080.60 0.05042
1080.70 0.0504
1080.80 0.05038
1080.90 0.05036
1081.00 0.05034
1081.10 0.05032
1081.20 0.0503
1081.30 0.05028
1081.40 0.05027
1081.50 0.05025
1081.60 0.05023
1081.70 0.05021
1081.80 0.05019
1081.90 0.05017
1082.00 0.05015
1082.10 0.05013
1082.20 0.05011
1082.30 0.05009
1082.40 0.05007
1082.50 0.05005
1082.60 0.05003
1082.70 0.05001
1082.80 0.04999
1082.90 0.04997
1083.00 0.04995
1083.10 0.04993
1083.20 0.04991
1083.30 0.04989
1083.40 0.04987
1083.50 0.04985
1083.60 0.04983
1083.70 0.04981
1083.80 0.04979
1083.90 0.04977
1084.00 0.04975
1084.10 0.04973
1084.20 0.04971
1084.30 0.04969
1084.40 0.04967
1084.50 0.04965
1084.60 0.04963
1084.70 0.04961
1084.80 0.04958
1084.90 0.04956
1085.00 0.04954
1085.10 0.04952
1085.20 0.0495
1085.30 0.04948
1085.40 0.04946
1085.50 0.04944
1085.60 0.04941
1085.70 0.04939
1085.80 0.04937
1085.90 0.04935
1086.00 0.04933
1086.10 0.04931
1086.20 0.04929
1086.30 0.04927
1086.40 0.04924
1086.50 0.04922
1086.60 0.0492
1086.70 0.04918
1086.80 0.04916
1086.90 0.04913
1087.00 0.04911
1087.10 0.04909
1087.20 0.04906
1087.30 0.04904
1087.40 0.04902
1087.50 0.04899
1087.60 0.04897
1087.70 0.04894
1087.80 0.04892
1087.90 0.0489
1088.00 0.04887
1088.10 0.04885
1088.20 0.04883
1088.30 0.0488
1088.40 0.04878
1088.50 0.04875
1088.60 0.04873
1088.70 0.0487
1088.80 0.04868
1088.90 0.04865
1089.00 0.04862
1089.10 0.0486
1089.20 0.04857
1089.30 0.04854
1089.40 0.04852
1089.50 0.04849
1089.60 0.04847
1089.70 0.04844
1089.80 0.04841
1089.90 0.04839
1090.00 0.04836
1090.10 0.04833
1090.20 0.04831
1090.30 0.04828
1090.40 0.04826
1090.50 0.04823
1090.60 0.0482
1090.70 0.04818
1090.80 0.04815
1090.90 0.04812
1091.00 0.04809
1091.10 0.04807
1091.20 0.04804
1091.30 0.04801
1091.40 0.04799
1091.50 0.04796
1091.60 0.04793
1091.70 0.04791
1091.80 0.04788
1091.90 0.04785
1092.00 0.04783
1092.10 0.04781
1092.20 0.04779
1092.30 0.04777
1092.40 0.04775
1092.50 0.04773
1092.60 0.04772
1092.70 0.0477
1092.80 0.04769
1092.90 0.04769
1093.00 0.04768
1093.10 0.04768
1093.20 0.04769
1093.30 0.0477
1093.40 0.04771
1093.50 0.04774
1093.60 0.04779
1093.70 0.04783
1093.80 0.04785
1093.90 0.04784
1094.00 0.04776
1094.10 0.04768
1094.20 0.0476
1094.30 0.04753
1094.40 0.0475
1094.50 0.04747
1094.60 0.04744
1094.70 0.0474
1094.80 0.04737
1094.90 0.04734
1095.00 0.04731
1095.10 0.0473
1095.20 0.04729
1095.30 0.04728
1095.40 0.04727
1095.50 0.04726
1095.60 0.04725
1095.70 0.04724
1095.80 0.04722
1095.90 0.04721
1096.00 0.0472
1096.10 0.04719
1096.20 0.04718
1096.30 0.04717
1096.40 0.04716
1096.50 0.04715
1096.60 0.04714
1096.70 0.04714
1096.80 0.04713
1096.90 0.04713
1097.00 0.04712
1097.10 0.04711
1097.20 0.0471
1097.30 0.0471
1097.40 0.04709
1097.50 0.04708
1097.60 0.04708
1097.70 0.04707
1097.80 0.04706
1097.90 0.04705
1098.00 0.04705
1098.10 0.04704
1098.20 0.04703
1098.30 0.04702
1098.40 0.04702
1098.50 0.04701
1098.60 0.047
1098.70 0.04699
1098.80 0.04698
1098.90 0.04697
1099.00 0.04696
1099.10 0.04695
1099.20 0.04694
1099.30 0.04693
1099.40 0.04692
1099.50 0.04691
1099.60 0.0469
1099.70 0.04689
1099.80 0.04688
1099.90 0.04687
1100.00 0.04686
1100.10 0.04685
1100.20 0.04684
1100.30 0.04683
1100.40 0.04682
1100.50 0.04681
1100.60 0.04679
1100.70 0.04678
1100.80 0.04677
1100.90 0.04676
1101.00 0.04674
1101.10 0.04673
1101.20 0.04672
1101.30 0.04671
1101.40 0.04669
1101.50 0.04668
1101.60 0.04667
1101.70 0.04666
1101.80 0.04664
1101.90 0.04663
1102.00 0.04662
1102.10 0.04661
1102.20 0.04659
1102.30 0.04658
1102.40 0.04656
1102.50 0.04655
1102.60 0.04654
1102.70 0.04652
1102.80 0.04651
1102.90 0.0465
1103.00 0.04648
1103.10 0.04647
1103.20 0.04645
1103.30 0.04644
1103.40 0.04643
1103.50 0.04641
1103.60 0.0464
1103.70 0.04638
1103.80 0.04637
1103.90 0.04635
1104.00 0.04634
1104.10 0.04632
1104.20 0.04631
1104.30 0.0463
1104.40 0.04628
1104.50 0.04627
1104.60 0.04625
1104.70 0.04624
1104.80 0.04622
1104.90 0.04621
1105.00 0.04619
1105.10 0.04618
1105.20 0.04616
1105.30 0.04615
1105.40 0.04614
1105.50 0.04612
1105.60 0.04611
1105.70 0.04609
1105.80 0.04608
1105.90 0.04606
1106.00 0.04605
1106.10 0.04603
1106.20 0.04601
1106.30 0.046
1106.40 0.04598
1106.50 0.04597
1106.60 0.04595
1106.70 0.04594
1106.80 0.04592
1106.90 0.04591
1107.00 0.04589
1107.10 0.04588
1107.20 0.04586
1107.30 0.04585
1107.40 0.04583
1107.50 0.04582
1107.60 0.0458
1107.70 0.04579
1107.80 0.04577
1107.90 0.04576
1108.00 0.04574
1108.10 0.04573
1108.20 0.04571
1108.30 0.04569
1108.40 0.04568
1108.50 0.04566
1108.60 0.04565
1108.70 0.04563
1108.80 0.04562
1108.90 0.0456
1109.00 0.04559
1109.10 0.04557
1109.20 0.04556
1109.30 0.04554
1109.40 0.04553
1109.50 0.04551
1109.60 0.04549
1109.70 0.04548
1109.80 0.04546
1109.90 0.04545
1110.00 0.04543
1110.10 0.04542
1110.20 0.0454
1110.30 0.04539
1110.40 0.04537
1110.50 0.04535
1110.60 0.04534
1110.70 0.04532
1110.80 0.04531
1110.90 0.04529
1111.00 0.04528
1111.10 0.04526
1111.20 0.04525
1111.30 0.04523
1111.40 0.04522
1111.50 0.0452
1111.60 0.04518
1111.70 0.04517
1111.80 0.04515
1111.90 0.04514
1112.00 0.04512
1112.10 0.04511
1112.20 0.04509
1112.30 0.04508
1112.40 0.04506
1112.50 0.04505
1112.60 0.04503
1112.70 0.04501
1112.80 0.045
1112.90 0.04498
1113.00 0.04497
1113.10 0.04495
1113.20 0.04494
1113.30 0.04492
1113.40 0.04491
1113.50 0.04489
1113.60 0.04487
1113.70 0.04486
1113.80 0.04484
1113.90 0.04483
1114.00 0.04481
1114.10 0.0448
1114.20 0.04478
1114.30 0.04477
1114.40 0.04475
1114.50 0.04474
1114.60 0.04472
1114.70 0.0447
1114.80 0.04469
1114.90 0.04467
1115.00 0.04466
1115.10 0.04464
1115.20 0.04463
1115.30 0.04461
1115.40 0.0446
1115.50 0.04458
1115.60 0.04457
1115.70 0.04455
1115.80 0.04453
1115.90 0.04452
1116.00 0.0445
1116.10 0.04449
1116.20 0.04447
1116.30 0.04446
1116.40 0.04444
1116.50 0.04443
1116.60 0.04441
1116.70 0.0444
1116.80 0.04438
1116.90 0.04437
1117.00 0.04435
1117.10 0.04434
1117.20 0.04432
1117.30 0.0443
1117.40 0.04429
1117.50 0.04427
1117.60 0.04426
1117.70 0.04424
1117.80 0.04423
1117.90 0.04421
1118.00 0.0442
1118.10 0.04418
1118.20 0.04417
1118.30 0.04415
1118.40 0.04414
1118.50 0.04412
1118.60 0.04411
1118.70 0.04409
1118.80 0.04407
1118.90 0.04406
1119.00 0.04404
1119.10 0.04403
1119.20 0.04401
1119.30 0.044
1119.40 0.04398
1119.50 0.04397
1119.60 0.04395
1119.70 0.04394
1119.80 0.04392
1119.90 0.04391
1120.00 0.04389
1120.10 0.04388
1120.20 0.04386
1120.30 0.04385
1120.40 0.04383
1120.50 0.04382
1120.60 0.0438
1120.70 0.04379
1120.80 0.04377
1120.90 0.04376
1121.00 0.04374
1121.10 0.04373
1121.20 0.04371
1121.30 0.04369
1121.40 0.04368
1121.50 0.04366
1121.60 0.04365
1121.70 0.04363
1121.80 0.04362
1121.90 0.0436
1122.00 0.04359
1122.10 0.04357
1122.20 0.04356
1122.30 0.04354
1122.40 0.04353
1122.50 0.04351
1122.60 0.0435
1122.70 0.04348
1122.80 0.04347
1122.90 0.04345
1123.00 0.04344
1123.10 0.04342
1123.20 0.04341
1123.30 0.04339
1123.40 0.04338
1123.50 0.04336
1123.60 0.04335
1123.70 0.04333
1123.80 0.04332
1123.90 0.0433
1124.00 0.04329
1124.10 0.04327
1124.20 0.04326
1124.30 0.04324
1124.40 0.04323
1124.50 0.04321
1124.60 0.0432
1124.70 0.04318
1124.80 0.04317
1124.90 0.04315
1125.00 0.04314
1125.10 0.04312
1125.20 0.04311
1125.30 0.04309
1125.40 0.04308
1125.50 0.04306
1125.60 0.04305
1125.70 0.04303
1125.80 0.04302
1125.90 0.043
1126.00 0.04299
1126.10 0.04298
1126.20 0.04296
1126.30 0.04295
1126.40 0.04293
1126.50 0.04292
1126.60 0.0429
1126.70 0.04289
1126.80 0.04287
1126.90 0.04286
1127.00 0.04284
1127.10 0.04283
1127.20 0.04281
1127.30 0.0428
1127.40 0.04278
1127.50 0.04277
1127.60 0.04275
1127.70 0.04274
1127.80 0.04272
1127.90 0.04271
1128.00 0.04269
1128.10 0.04268
1128.20 0.04266
1128.30 0.04265
1128.40 0.04264
1128.50 0.04262
1128.60 0.04261
1128.70 0.04259
1128.80 0.04258
1128.90 0.04256
1129.00 0.04255
1129.10 0.04253
1129.20 0.04252
1129.30 0.0425
1129.40 0.04249
1129.50 0.04247
1129.60 0.04246
1129.70 0.04244
1129.80 0.04243
1129.90 0.04241
1130.00 0.0424
1130.10 0.04239
1130.20 0.04237
1130.30 0.04236
1130.40 0.04234
1130.50 0.04233
1130.60 0.04231
1130.70 0.0423
1130.80 0.04228
1130.90 0.04227
1131.00 0.04225
1131.10 0.04224
1131.20 0.04223
1131.30 0.04221
1131.40 0.0422
1131.50 0.04218
1131.60 0.04217
1131.70 0.04215
1131.80 0.04214
1131.90 0.04212
1132.00 0.04211
1132.10 0.04209
1132.20 0.04208
1132.30 0.04207
1132.40 0.04205
1132.50 0.04204
1132.60 0.04202
1132.70 0.04201
1132.80 0.04199
1132.90 0.04198
1133.00 0.04196
1133.10 0.04195
1133.20 0.04194
1133.30 0.04192
1133.40 0.04191
1133.50 0.04189
1133.60 0.04188
1133.70 0.04186
1133.80 0.04185
1133.90 0.04183
1134.00 0.04182
1134.10 0.04181
1134.20 0.04179
1134.30 0.04178
1134.40 0.04176
1134.50 0.04175
1134.60 0.04173
1134.70 0.04172
1134.80 0.04171
1134.90 0.04169
1135.00 0.04168
1135.10 0.04166
1135.20 0.04165
1135.30 0.04163
1135.40 0.04162
1135.50 0.04161
1135.60 0.04159
1135.70 0.04158
1135.80 0.04156
1135.90 0.04155
1136.00 0.04153
1136.10 0.04152
1136.20 0.04151
1136.30 0.04149
1136.40 0.04148
1136.50 0.04146
1136.60 0.04145
1136.70 0.04143
1136.80 0.04142
1136.90 0.04141
1137.00 0.04139
1137.10 0.04138
1137.20 0.04136
1137.30 0.04135
1137.40 0.04133
1137.50 0.04132
1137.60 0.04131
1137.70 0.04129
1137.80 0.04128
1137.90 0.04126
1138.00 0.04125
1138.10 0.04124
1138.20 0.04122
1138.30 0.04121
1138.40 0.04119
1138.50 0.04118
1138.60 0.04116
1138.70 0.04115
1138.80 0.04114
1138.90 0.04112
1139.00 0.04111
1139.10 0.04109
1139.20 0.04108
1139.30 0.04107
1139.40 0.04105
1139.50 0.04104
1139.60 0.04102
1139.70 0.04101
1139.80 0.041
1139.90 0.04098
1140.00 0.04097
1140.10 0.04095
1140.20 0.04094
1140.30 0.04093
1140.40 0.04091
1140.50 0.0409
1140.60 0.04088
1140.70 0.04087
1140.80 0.04086
1140.90 0.04084
1141.00 0.04083
1141.10 0.04081
1141.20 0.0408
1141.30 0.04079
1141.40 0.04077
1141.50 0.04076
1141.60 0.04074
1141.70 0.04073
1141.80 0.04072
1141.90 0.0407
1142.00 0.04069
1142.10 0.04067
1142.20 0.04066
1142.30 0.04065
1142.40 0.04063
1142.50 0.04062
1142.60 0.04061
1142.70 0.04059
1142.80 0.04058
1142.90 0.04056
1143.00 0.04055
1143.10 0.04054
1143.20 0.04052
1143.30 0.04051
1143.40 0.04049
1143.50 0.04048
1143.60 0.04047
1143.70 0.04045
1143.80 0.04044
1143.90 0.04043
1144.00 0.04041
1144.10 0.0404
1144.20 0.04038
1144.30 0.04037
1144.40 0.04036
1144.50 0.04034
1144.60 0.04033
1144.70 0.04032
1144.80 0.0403
1144.90 0.04029
1145.00 0.04027
1145.10 0.04026
1145.20 0.04025
1145.30 0.04023
1145.40 0.04022
1145.50 0.04021
1145.60 0.04019
1145.70 0.04018
1145.80 0.04016
1145.90 0.04015
1146.00 0.04014
1146.10 0.04012
1146.20 0.04011
1146.30 0.0401
1146.40 0.04008
1146.50 0.04007
1146.60 0.04006
1146.70 0.04004
1146.80 0.04003
1146.90 0.04001
1147.00 0.04
1147.10 0.03999
1147.20 0.03997
1147.30 0.03996
1147.40 0.03995
1147.50 0.03993
1147.60 0.03992
1147.70 0.03991
1147.80 0.03989
1147.90 0.03988
1148.00 0.03986
1148.10 0.03985
1148.20 0.03984
1148.30 0.03982
1148.40 0.03981
1148.50 0.0398
1148.60 0.03978
1148.70 0.03977
1148.80 0.03976
1148.90 0.03974
1149.00 0.03973
1149.10 0.03972
1149.20 0.0397
1149.30 0.03969
1149.40 0.03968
1149.50 0.03966
1149.60 0.03965
1149.70 0.03964
1149.80 0.03962
1149.90 0.03961
1150.00 0.0396
1150.10 0.03958
1150.20 0.03957
1150.30 0.03955
1150.40 0.03954
1150.50 0.03953
1150.60 0.03951
1150.70 0.0395
1150.80 0.03949
1150.90 0.03947
1151.00 0.03946
1151.10 0.03945
1151.20 0.03943
1151.30 0.03942
1151.40 0.03941
1151.50 0.03939
1151.60 0.03938
1151.70 0.03937
1151.80 0.03935
1151.90 0.03934
1152.00 0.03933
1152.10 0.03931
1152.20 0.0393
1152.30 0.03929
1152.40 0.03927
1152.50 0.03926
1152.60 0.03925
1152.70 0.03923
1152.80 0.03922
1152.90 0.03921
1153.00 0.03919
1153.10 0.03918
1153.20 0.03917
1153.30 0.03915
1153.40 0.03914
1153.50 0.03913
1153.60 0.03911
1153.70 0.0391
1153.80 0.03909
1153.90 0.03908
1154.00 0.03906
1154.10 0.03905
1154.20 0.03904
1154.30 0.03902
1154.40 0.03901
1154.50 0.039
1154.60 0.03898
1154.70 0.03897
1154.80 0.03896
1154.90 0.03894
1155.00 0.03893
1155.10 0.03892
1155.20 0.0389
1155.30 0.03889
1155.40 0.03888
1155.50 0.03886
1155.60 0.03885
1155.70 0.03884
1155.80 0.03882
1155.90 0.03881
1156.00 0.0388
1156.10 0.03879
1156.20 0.03877
1156.30 0.03876
1156.40 0.03875
1156.50 0.03873
1156.60 0.03872
1156.70 0.03871
1156.80 0.03869
1156.90 0.03868
1157.00 0.03867
1157.10 0.03865
1157.20 0.03864
1157.30 0.03863
1157.40 0.03862
1157.50 0.0386
1157.60 0.03859
1157.70 0.03858
1157.80 0.03856
1157.90 0.03855
1158.00 0.03854
1158.10 0.03852
1158.20 0.03851
1158.30 0.0385
1158.40 0.03849
1158.50 0.03847
1158.60 0.03846
1158.70 0.03845
1158.80 0.03843
1158.90 0.03842
1159.00 0.03841
1159.10 0.0384
1159.20 0.03838
1159.30 0.03837
1159.40 0.03836
1159.50 0.03834
1159.60 0.03833
1159.70 0.03832
1159.80 0.0383
1159.90 0.03829
1160.00 0.03828
1160.10 0.03827
1160.20 0.03825
1160.30 0.03824
1160.40 0.03823
1160.50 0.03821
1160.60 0.0382
1160.70 0.03819
1160.80 0.03818
1160.90 0.03816
1161.00 0.03815
1161.10 0.03814
1161.20 0.03812
1161.30 0.03811
1161.40 0.0381
1161.50 0.03809
1161.60 0.03807
1161.70 0.03806
1161.80 0.03805
1161.90 0.03803
1162.00 0.03802
1162.10 0.03801
1162.20 0.038
1162.30 0.03798
1162.40 0.03797
1162.50 0.03796
1162.60 0.03795
1162.70 0.03793
1162.80 0.03792
1162.90 0.03791
1163.00 0.03789
1163.10 0.03788
1163.20 0.03787
1163.30 0.03786
1163.40 0.03784
1163.50 0.03783
1163.60 0.03782
1163.70 0.03781
1163.80 0.03779
1163.90 0.03778
1164.00 0.03777
1164.10 0.03775
1164.20 0.03774
1164.30 0.03773
1164.40 0.03772
1164.50 0.0377
1164.60 0.03769
1164.70 0.03768
1164.80 0.03767
1164.90 0.03765
1165.00 0.03764
1165.10 0.03763
1165.20 0.03762
1165.30 0.0376
1165.40 0.03759
1165.50 0.03758
1165.60 0.03757
1165.70 0.03755
1165.80 0.03754
1165.90 0.03753
1166.00 0.03752
1166.10 0.0375
1166.20 0.03749
1166.30 0.03748
1166.40 0.03746
1166.50 0.03745
1166.60 0.03744
1166.70 0.03743
1166.80 0.03741
1166.90 0.0374
1167.00 0.03739
1167.10 0.03738
1167.20 0.03736
1167.30 0.03735
1167.40 0.03734
1167.50 0.03733
1167.60 0.03731
1167.70 0.0373
1167.80 0.03729
1167.90 0.03728
1168.00 0.03726
1168.10 0.03725
1168.20 0.03724
1168.30 0.03723
1168.40 0.03721
1168.50 0.0372
1168.60 0.03719
1168.70 0.03718
1168.80 0.03717
1168.90 0.03715
1169.00 0.03714
1169.10 0.03713
1169.20 0.03712
1169.30 0.0371
1169.40 0.03709
1169.50 0.03708
1169.60 0.03707
1169.70 0.03705
1169.80 0.03704
1169.90 0.03703
1170.00 0.03702
1170.10 0.037
1170.20 0.03699
1170.30 0.03698
1170.40 0.03697
1170.50 0.03695
1170.60 0.03694
1170.70 0.03693
1170.80 0.03692
1170.90 0.03691
1171.00 0.03689
1171.10 0.03688
1171.20 0.03687
1171.30 0.03686
1171.40 0.03684
1171.50 0.03683
1171.60 0.03682
1171.70 0.03681
1171.80 0.03679
1171.90 0.03678
1172.00 0.03677
1172.10 0.03676
1172.20 0.03675
1172.30 0.03673
1172.40 0.03672
1172.50 0.03671
1172.60 0.0367
1172.70 0.03668
1172.80 0.03667
1172.90 0.03666
1173.00 0.03665
1173.10 0.03664
1173.20 0.03662
1173.30 0.03661
1173.40 0.0366
1173.50 0.03659
1173.60 0.03658
1173.70 0.03656
1173.80 0.03655
1173.90 0.03654
1174.00 0.03653
1174.10 0.03651
1174.20 0.0365
1174.30 0.03649
1174.40 0.03648
1174.50 0.03647
1174.60 0.03645
1174.70 0.03644
1174.80 0.03643
1174.90 0.03642
1175.00 0.03641
1175.10 0.03639
1175.20 0.03638
1175.30 0.03637
1175.40 0.03636
1175.50 0.03634
1175.60 0.03633
1175.70 0.03632
1175.80 0.03631
1175.90 0.0363
1176.00 0.03628
1176.10 0.03627
1176.20 0.03626
1176.30 0.03625
1176.40 0.03624
1176.50 0.03622
1176.60 0.03621
1176.70 0.0362
1176.80 0.03619
1176.90 0.03618
1177.00 0.03616
1177.10 0.03615
1177.20 0.03614
1177.30 0.03613
1177.40 0.03612
1177.50 0.0361
1177.60 0.03609
1177.70 0.03608
1177.80 0.03607
1177.90 0.03606
1178.00 0.03604
1178.10 0.03603
1178.20 0.03602
1178.30 0.03601
1178.40 0.036
1178.50 0.03598
1178.60 0.03597
1178.70 0.03596
1178.80 0.03595
1178.90 0.03594
1179.00 0.03593
1179.10 0.03591
1179.20 0.0359
1179.30 0.03589
1179.40 0.03588
1179.50 0.03587
1179.60 0.03585
1179.70 0.03584
1179.80 0.03583
1179.90 0.03582
1180.00 0.03581
1180.10 0.03579
1180.20 0.03578
1180.30 0.03577
1180.40 0.03576
1180.50 0.03575
1180.60 0.03574
1180.70 0.03572
1180.80 0.03571
1180.90 0.0357
1181.00 0.03569
1181.10 0.03568
1181.20 0.03566
1181.30 0.03565
1181.40 0.03564
1181.50 0.03563
1181.60 0.03562
1181.70 0.03561
1181.80 0.03559
1181.90 0.03558
1182.00 0.03557
1182.10 0.03556
1182.20 0.03555
1182.30 0.03553
1182.40 0.03552
1182.50 0.03551
1182.60 0.0355
1182.70 0.03549
1182.80 0.03548
1182.90 0.03546
1183.00 0.03545
1183.10 0.03544
1183.20 0.03543
1183.30 0.03542
1183.40 0.03541
1183.50 0.03539
1183.60 0.03538
1183.70 0.03537
1183.80 0.03536
1183.90 0.03535
1184.00 0.03534
1184.10 0.03532
1184.20 0.03531
1184.30 0.0353
1184.40 0.03529
1184.50 0.03528
1184.60 0.03527
1184.70 0.03525
1184.80 0.03524
1184.90 0.03523
1185.00 0.03522
1185.10 0.03521
1185.20 0.0352
1185.30 0.03518
1185.40 0.03517
1185.50 0.03516
1185.60 0.03515
1185.70 0.03514
1185.80 0.03513
1185.90 0.03512
1186.00 0.0351
1186.10 0.03509
1186.20 0.03508
1186.30 0.03507
1186.40 0.03506
1186.50 0.03505
1186.60 0.03503
1186.70 0.03502
1186.80 0.03501
1186.90 0.035
1187.00 0.03499
1187.10 0.03498
1187.20 0.03496
1187.30 0.03495
1187.40 0.03494
1187.50 0.03493
1187.60 0.03492
1187.70 0.03491
1187.80 0.0349
1187.90 0.03488
1188.00 0.03487
1188.10 0.03486
1188.20 0.03485
1188.30 0.03484
1188.40 0.03483
1188.50 0.03482
1188.60 0.0348
1188.70 0.03479
1188.80 0.03478
1188.90 0.03477
1189.00 0.03476
1189.10 0.03475
1189.20 0.03474
1189.30 0.03472
1189.40 0.03471
1189.50 0.0347
1189.60 0.03469
1189.70 0.03468
1189.80 0.03467
1189.90 0.03466
1190.00 0.03465
1190.10 0.03463
1190.20 0.03462
1190.30 0.03461
1190.40 0.0346
1190.50 0.03459
1190.60 0.03458
1190.70 0.03457
1190.80 0.03455
1190.90 0.03454
1191.00 0.03453
1191.10 0.03452
1191.20 0.03451
1191.30 0.0345
1191.40 0.03449
1191.50 0.03447
1191.60 0.03446
1191.70 0.03445
1191.80 0.03444
1191.90 0.03443
1192.00 0.03442
1192.10 0.03441
1192.20 0.0344
1192.30 0.03438
1192.40 0.03437
1192.50 0.03436
1192.60 0.03435
1192.70 0.03434
1192.80 0.03433
1192.90 0.03432
1193.00 0.03431
1193.10 0.03429
1193.20 0.03428
1193.30 0.03427
1193.40 0.03426
1193.50 0.03425
1193.60 0.03424
1193.70 0.03423
1193.80 0.03422
1193.90 0.0342
1194.00 0.03419
1194.10 0.03418
1194.20 0.03417
1194.30 0.03416
1194.40 0.03415
1194.50 0.03414
1194.60 0.03413
1194.70 0.03412
1194.80 0.0341
1194.90 0.03409
1195.00 0.03408
1195.10 0.03407
1195.20 0.03406
1195.30 0.03405
1195.40 0.03404
1195.50 0.03403
1195.60 0.03402
1195.70 0.034
1195.80 0.03399
1195.90 0.03398
1196.00 0.03397
1196.10 0.03396
1196.20 0.03395
1196.30 0.03394
1196.40 0.03393
1196.50 0.03392
1196.60 0.0339
1196.70 0.03389
1196.80 0.03388
1196.90 0.03387
1197.00 0.03386
1197.10 0.03385
1197.20 0.03384
1197.30 0.03383
1197.40 0.03382
1197.50 0.0338
1197.60 0.03379
1197.70 0.03378
1197.80 0.03377
1197.90 0.03376
1198.00 0.03375
1198.10 0.03374
1198.20 0.03373
1198.30 0.03372
1198.40 0.03371
1198.50 0.03369
1198.60 0.03368
1198.70 0.03367
1198.80 0.03366
1198.90 0.03365
1199.00 0.03364
1199.10 0.03363
1199.20 0.03362
1199.30 0.03361
1199.40 0.0336
1199.50 0.03359
1199.60 0.03357
1199.70 0.03356
1199.80 0.03355
1199.90 0.03354
1200.00 0
