# Version 2.1 - nm, norm@500 to 1, cut digits, bergeron_65000_70.dat_65000
# Wavelength(nm)  Flambda(ergs/cm^s/s/nm)
300.00 6.471
300.10 6.463
300.20 6.455
300.30 6.447
300.40 6.44
300.50 6.432
300.60 6.424
300.70 6.416
300.80 6.408
300.90 6.4
301.00 6.392
301.10 6.385
301.20 6.377
301.30 6.369
301.40 6.361
301.50 6.354
301.60 6.346
301.70 6.338
301.80 6.33
301.90 6.323
302.00 6.315
302.10 6.307
302.20 6.299
302.30 6.292
302.40 6.284
302.50 6.277
302.60 6.269
302.70 6.261
302.80 6.254
302.90 6.246
303.00 6.238
303.10 6.231
303.20 6.223
303.30 6.216
303.40 6.208
303.50 6.201
303.60 6.193
303.70 6.186
303.80 6.178
303.90 6.171
304.00 6.163
304.10 6.156
304.20 6.148
304.30 6.141
304.40 6.133
304.50 6.126
304.60 6.119
304.70 6.111
304.80 6.104
304.90 6.096
305.00 6.089
305.10 6.082
305.20 6.074
305.30 6.067
305.40 6.06
305.50 6.052
305.60 6.045
305.70 6.038
305.80 6.031
305.90 6.023
306.00 6.016
306.10 6.009
306.20 6.002
306.30 5.994
306.40 5.987
306.50 5.98
306.60 5.973
306.70 5.966
306.80 5.958
306.90 5.951
307.00 5.944
307.10 5.937
307.20 5.93
307.30 5.923
307.40 5.916
307.50 5.909
307.60 5.902
307.70 5.894
307.80 5.887
307.90 5.88
308.00 5.873
308.10 5.866
308.20 5.859
308.30 5.852
308.40 5.845
308.50 5.838
308.60 5.831
308.70 5.824
308.80 5.817
308.90 5.811
309.00 5.804
309.10 5.797
309.20 5.79
309.30 5.783
309.40 5.776
309.50 5.769
309.60 5.762
309.70 5.755
309.80 5.748
309.90 5.742
310.00 5.735
310.10 5.728
310.20 5.721
310.30 5.714
310.40 5.708
310.50 5.701
310.60 5.694
310.70 5.687
310.80 5.681
310.90 5.674
311.00 5.667
311.10 5.66
311.20 5.654
311.30 5.647
311.40 5.64
311.50 5.634
311.60 5.627
311.70 5.62
311.80 5.614
311.90 5.607
312.00 5.6
312.10 5.594
312.20 5.587
312.30 5.581
312.40 5.574
312.50 5.567
312.60 5.561
312.70 5.554
312.80 5.548
312.90 5.541
313.00 5.535
313.10 5.528
313.20 5.522
313.30 5.515
313.40 5.509
313.50 5.502
313.60 5.496
313.70 5.489
313.80 5.483
313.90 5.476
314.00 5.47
314.10 5.463
314.20 5.457
314.30 5.451
314.40 5.444
314.50 5.438
314.60 5.431
314.70 5.425
314.80 5.419
314.90 5.412
315.00 5.406
315.10 5.4
315.20 5.393
315.30 5.387
315.40 5.381
315.50 5.374
315.60 5.368
315.70 5.362
315.80 5.356
315.90 5.349
316.00 5.343
316.10 5.337
316.20 5.331
316.30 5.324
316.40 5.318
316.50 5.312
316.60 5.306
316.70 5.3
316.80 5.293
316.90 5.287
317.00 5.281
317.10 5.275
317.20 5.269
317.30 5.263
317.40 5.257
317.50 5.25
317.60 5.244
317.70 5.238
317.80 5.232
317.90 5.226
318.00 5.22
318.10 5.214
318.20 5.208
318.30 5.202
318.40 5.196
318.50 5.19
318.60 5.184
318.70 5.178
318.80 5.172
318.90 5.166
319.00 5.16
319.10 5.154
319.20 5.148
319.30 5.142
319.40 5.136
319.50 5.13
319.60 5.124
319.70 5.118
319.80 5.112
319.90 5.106
320.00 5.1
320.10 5.095
320.20 5.089
320.30 5.083
320.40 5.077
320.50 5.071
320.60 5.065
320.70 5.059
320.80 5.054
320.90 5.048
321.00 5.042
321.10 5.036
321.20 5.03
321.30 5.025
321.40 5.019
321.50 5.013
321.60 5.007
321.70 5.002
321.80 4.996
321.90 4.99
322.00 4.984
322.10 4.979
322.20 4.973
322.30 4.967
322.40 4.962
322.50 4.956
322.60 4.95
322.70 4.945
322.80 4.939
322.90 4.933
323.00 4.928
323.10 4.922
323.20 4.916
323.30 4.911
323.40 4.905
323.50 4.899
323.60 4.894
323.70 4.888
323.80 4.883
323.90 4.877
324.00 4.872
324.10 4.866
324.20 4.86
324.30 4.855
324.40 4.849
324.50 4.844
324.60 4.838
324.70 4.833
324.80 4.827
324.90 4.822
325.00 4.816
325.10 4.811
325.20 4.805
325.30 4.8
325.40 4.794
325.50 4.789
325.60 4.784
325.70 4.778
325.80 4.773
325.90 4.767
326.00 4.762
326.10 4.757
326.20 4.751
326.30 4.746
326.40 4.74
326.50 4.735
326.60 4.73
326.70 4.724
326.80 4.719
326.90 4.714
327.00 4.708
327.10 4.703
327.20 4.698
327.30 4.692
327.40 4.687
327.50 4.682
327.60 4.676
327.70 4.671
327.80 4.666
327.90 4.661
328.00 4.655
328.10 4.65
328.20 4.645
328.30 4.64
328.40 4.634
328.50 4.629
328.60 4.624
328.70 4.619
328.80 4.614
328.90 4.608
329.00 4.603
329.10 4.598
329.20 4.593
329.30 4.588
329.40 4.583
329.50 4.577
329.60 4.572
329.70 4.567
329.80 4.562
329.90 4.557
330.00 4.552
330.10 4.547
330.20 4.542
330.30 4.536
330.40 4.531
330.50 4.526
330.60 4.521
330.70 4.516
330.80 4.511
330.90 4.506
331.00 4.501
331.10 4.496
331.20 4.491
331.30 4.486
331.40 4.481
331.50 4.476
331.60 4.471
331.70 4.466
331.80 4.461
331.90 4.456
332.00 4.451
332.10 4.446
332.20 4.441
332.30 4.436
332.40 4.431
332.50 4.426
332.60 4.421
332.70 4.417
332.80 4.412
332.90 4.407
333.00 4.402
333.10 4.397
333.20 4.392
333.30 4.387
333.40 4.382
333.50 4.377
333.60 4.373
333.70 4.368
333.80 4.363
333.90 4.358
334.00 4.353
334.10 4.348
334.20 4.343
334.30 4.339
334.40 4.334
334.50 4.329
334.60 4.324
334.70 4.32
334.80 4.315
334.90 4.31
335.00 4.305
335.10 4.3
335.20 4.296
335.30 4.291
335.40 4.286
335.50 4.281
335.60 4.277
335.70 4.272
335.80 4.267
335.90 4.263
336.00 4.258
336.10 4.253
336.20 4.248
336.30 4.244
336.40 4.239
336.50 4.234
336.60 4.23
336.70 4.225
336.80 4.221
336.90 4.216
337.00 4.211
337.10 4.207
337.20 4.202
337.30 4.197
337.40 4.193
337.50 4.188
337.60 4.184
337.70 4.179
337.80 4.174
337.90 4.17
338.00 4.165
338.10 4.161
338.20 4.156
338.30 4.152
338.40 4.147
338.50 4.142
338.60 4.138
338.70 4.133
338.80 4.129
338.90 4.124
339.00 4.12
339.10 4.115
339.20 4.111
339.30 4.106
339.40 4.102
339.50 4.097
339.60 4.093
339.70 4.088
339.80 4.084
339.90 4.079
340.00 4.075
340.10 4.071
340.20 4.066
340.30 4.062
340.40 4.057
340.50 4.053
340.60 4.049
340.70 4.044
340.80 4.04
340.90 4.035
341.00 4.031
341.10 4.027
341.20 4.022
341.30 4.018
341.40 4.013
341.50 4.009
341.60 4.005
341.70 4
341.80 3.996
341.90 3.992
342.00 3.987
342.10 3.983
342.20 3.979
342.30 3.974
342.40 3.97
342.50 3.966
342.60 3.962
342.70 3.957
342.80 3.953
342.90 3.949
343.00 3.944
343.10 3.94
343.20 3.936
343.30 3.932
343.40 3.927
343.50 3.923
343.60 3.919
343.70 3.915
343.80 3.91
343.90 3.906
344.00 3.902
344.10 3.898
344.20 3.894
344.30 3.889
344.40 3.885
344.50 3.881
344.60 3.877
344.70 3.873
344.80 3.869
344.90 3.864
345.00 3.86
345.10 3.856
345.20 3.852
345.30 3.848
345.40 3.844
345.50 3.839
345.60 3.835
345.70 3.831
345.80 3.827
345.90 3.823
346.00 3.819
346.10 3.815
346.20 3.811
346.30 3.807
346.40 3.803
346.50 3.799
346.60 3.794
346.70 3.79
346.80 3.786
346.90 3.782
347.00 3.778
347.10 3.774
347.20 3.77
347.30 3.766
347.40 3.762
347.50 3.758
347.60 3.754
347.70 3.75
347.80 3.746
347.90 3.742
348.00 3.738
348.10 3.734
348.20 3.73
348.30 3.726
348.40 3.722
348.50 3.718
348.60 3.714
348.70 3.71
348.80 3.706
348.90 3.702
349.00 3.698
349.10 3.695
349.20 3.691
349.30 3.687
349.40 3.683
349.50 3.679
349.60 3.675
349.70 3.671
349.80 3.667
349.90 3.663
350.00 3.659
350.10 3.655
350.20 3.652
350.30 3.648
350.40 3.644
350.50 3.64
350.60 3.636
350.70 3.632
350.80 3.628
350.90 3.625
351.00 3.621
351.10 3.617
351.20 3.613
351.30 3.609
351.40 3.605
351.50 3.602
351.60 3.598
351.70 3.594
351.80 3.59
351.90 3.586
352.00 3.583
352.10 3.579
352.20 3.575
352.30 3.571
352.40 3.568
352.50 3.564
352.60 3.56
352.70 3.556
352.80 3.553
352.90 3.549
353.00 3.545
353.10 3.541
353.20 3.538
353.30 3.534
353.40 3.53
353.50 3.526
353.60 3.523
353.70 3.519
353.80 3.515
353.90 3.512
354.00 3.508
354.10 3.504
354.20 3.501
354.30 3.497
354.40 3.493
354.50 3.49
354.60 3.486
354.70 3.482
354.80 3.479
354.90 3.475
355.00 3.471
355.10 3.468
355.20 3.464
355.30 3.46
355.40 3.457
355.50 3.453
355.60 3.45
355.70 3.446
355.80 3.442
355.90 3.439
356.00 3.435
356.10 3.432
356.20 3.428
356.30 3.424
356.40 3.421
356.50 3.417
356.60 3.414
356.70 3.41
356.80 3.407
356.90 3.403
357.00 3.4
357.10 3.396
357.20 3.393
357.30 3.389
357.40 3.385
357.50 3.382
357.60 3.378
357.70 3.375
357.80 3.371
357.90 3.368
358.00 3.364
358.10 3.361
358.20 3.357
358.30 3.354
358.40 3.35
358.50 3.347
358.60 3.344
358.70 3.34
358.80 3.337
358.90 3.333
359.00 3.33
359.10 3.326
359.20 3.323
359.30 3.319
359.40 3.316
359.50 3.312
359.60 3.309
359.70 3.306
359.80 3.302
359.90 3.299
360.00 3.295
360.10 3.292
360.20 3.289
360.30 3.285
360.40 3.282
360.50 3.278
360.60 3.275
360.70 3.272
360.80 3.268
360.90 3.265
361.00 3.262
361.10 3.258
361.20 3.255
361.30 3.251
361.40 3.248
361.50 3.245
361.60 3.241
361.70 3.238
361.80 3.235
361.90 3.231
362.00 3.228
362.10 3.225
362.20 3.221
362.30 3.218
362.40 3.215
362.50 3.212
362.60 3.208
362.70 3.205
362.80 3.202
362.90 3.198
363.00 3.195
363.10 3.192
363.20 3.189
363.30 3.185
363.40 3.182
363.50 3.179
363.60 3.176
363.70 3.172
363.80 3.169
363.90 3.166
364.00 3.163
364.10 3.159
364.20 3.156
364.30 3.153
364.40 3.15
364.50 3.146
364.60 3.143
364.70 3.14
364.80 3.137
364.90 3.134
365.00 3.13
365.10 3.127
365.20 3.124
365.30 3.121
365.40 3.118
365.50 3.114
365.60 3.111
365.70 3.108
365.80 3.105
365.90 3.102
366.00 3.099
366.10 3.095
366.20 3.092
366.30 3.089
366.40 3.086
366.50 3.082
366.60 3.079
366.70 3.076
366.80 3.073
366.90 3.07
367.00 3.066
367.10 3.063
367.20 3.06
367.30 3.057
367.40 3.054
367.50 3.05
367.60 3.047
367.70 3.044
367.80 3.041
367.90 3.038
368.00 3.034
368.10 3.031
368.20 3.028
368.30 3.025
368.40 3.022
368.50 3.019
368.60 3.016
368.70 3.012
368.80 3.009
368.90 3.006
369.00 3.003
369.10 3
369.20 2.997
369.30 2.994
369.40 2.991
369.50 2.987
369.60 2.984
369.70 2.981
369.80 2.978
369.90 2.975
370.00 2.972
370.10 2.969
370.20 2.966
370.30 2.963
370.40 2.96
370.50 2.957
370.60 2.954
370.70 2.951
370.80 2.948
370.90 2.945
371.00 2.941
371.10 2.938
371.20 2.935
371.30 2.932
371.40 2.929
371.50 2.926
371.60 2.923
371.70 2.92
371.80 2.917
371.90 2.914
372.00 2.911
372.10 2.908
372.20 2.905
372.30 2.903
372.40 2.9
372.50 2.897
372.60 2.894
372.70 2.891
372.80 2.888
372.90 2.885
373.00 2.882
373.10 2.879
373.20 2.876
373.30 2.874
373.40 2.871
373.50 2.868
373.60 2.865
373.70 2.862
373.80 2.859
373.90 2.856
374.00 2.853
374.10 2.851
374.20 2.848
374.30 2.845
374.40 2.843
374.50 2.84
374.60 2.837
374.70 2.834
374.80 2.832
374.90 2.829
375.00 2.826
375.10 2.823
375.20 2.821
375.30 2.818
375.40 2.815
375.50 2.813
375.60 2.81
375.70 2.807
375.80 2.804
375.90 2.802
376.00 2.799
376.10 2.796
376.20 2.794
376.30 2.791
376.40 2.788
376.50 2.785
376.60 2.783
376.70 2.78
376.80 2.777
376.90 2.774
377.00 2.772
377.10 2.769
377.20 2.767
377.30 2.765
377.40 2.762
377.50 2.76
377.60 2.758
377.70 2.755
377.80 2.753
377.90 2.751
378.00 2.748
378.10 2.746
378.20 2.743
378.30 2.74
378.40 2.737
378.50 2.735
378.60 2.732
378.70 2.729
378.80 2.726
378.90 2.724
379.00 2.721
379.10 2.718
379.20 2.716
379.30 2.713
379.40 2.71
379.50 2.707
379.60 2.705
379.70 2.702
379.80 2.699
379.90 2.696
380.00 2.694
380.10 2.692
380.20 2.69
380.30 2.689
380.40 2.687
380.50 2.685
380.60 2.684
380.70 2.682
380.80 2.68
380.90 2.679
381.00 2.677
381.10 2.675
381.20 2.672
381.30 2.67
381.40 2.668
381.50 2.665
381.60 2.662
381.70 2.66
381.80 2.656
381.90 2.653
382.00 2.65
382.10 2.646
382.20 2.643
382.30 2.638
382.40 2.634
382.50 2.63
382.60 2.625
382.70 2.621
382.80 2.617
382.90 2.612
383.00 2.608
383.10 2.604
383.20 2.6
383.30 2.595
383.40 2.591
383.50 2.588
383.60 2.586
383.70 2.585
383.80 2.585
383.90 2.586
384.00 2.586
384.10 2.587
384.20 2.587
384.30 2.588
384.40 2.588
384.50 2.588
384.60 2.588
384.70 2.588
384.80 2.588
384.90 2.587
385.00 2.586
385.10 2.586
385.20 2.585
385.30 2.584
385.40 2.582
385.50 2.581
385.60 2.579
385.70 2.577
385.80 2.575
385.90 2.573
386.00 2.57
386.10 2.567
386.20 2.565
386.30 2.561
386.40 2.558
386.50 2.555
386.60 2.551
386.70 2.547
386.80 2.543
386.90 2.538
387.00 2.533
387.10 2.528
387.20 2.523
387.30 2.518
387.40 2.512
387.50 2.506
387.60 2.499
387.70 2.493
387.80 2.486
387.90 2.479
388.00 2.472
388.10 2.464
388.20 2.456
388.30 2.449
388.40 2.441
388.50 2.433
388.60 2.425
388.70 2.418
388.80 2.414
388.90 2.41
389.00 2.409
389.10 2.41
389.20 2.413
389.30 2.416
389.40 2.42
389.50 2.424
389.60 2.427
389.70 2.431
389.80 2.435
389.90 2.438
390.00 2.441
390.10 2.444
390.20 2.447
390.30 2.449
390.40 2.451
390.50 2.453
390.60 2.455
390.70 2.456
390.80 2.457
390.90 2.458
391.00 2.459
391.10 2.46
391.20 2.46
391.30 2.46
391.40 2.46
391.50 2.46
391.60 2.46
391.70 2.459
391.80 2.458
391.90 2.457
392.00 2.456
392.10 2.455
392.20 2.454
392.30 2.452
392.40 2.451
392.50 2.449
392.60 2.447
392.70 2.445
392.80 2.443
392.90 2.44
393.00 2.438
393.10 2.435
393.20 2.432
393.30 2.429
393.40 2.426
393.50 2.423
393.60 2.419
393.70 2.416
393.80 2.412
393.90 2.408
394.00 2.404
394.10 2.399
394.20 2.395
394.30 2.39
394.40 2.385
394.50 2.379
394.60 2.374
394.70 2.368
394.80 2.362
394.90 2.355
395.00 2.348
395.10 2.341
395.20 2.334
395.30 2.326
395.40 2.318
395.50 2.309
395.60 2.3
395.70 2.291
395.80 2.281
395.90 2.271
396.00 2.26
396.10 2.249
396.20 2.237
396.30 2.225
396.40 2.213
396.50 2.201
396.60 2.188
396.70 2.175
396.80 2.162
396.90 2.15
397.00 2.138
397.10 2.145
397.20 2.153
397.30 2.162
397.40 2.171
397.50 2.18
397.60 2.189
397.70 2.197
397.80 2.205
397.90 2.212
398.00 2.219
398.10 2.226
398.20 2.232
398.30 2.238
398.40 2.243
398.50 2.248
398.60 2.253
398.70 2.257
398.80 2.261
398.90 2.264
399.00 2.267
399.10 2.27
399.20 2.272
399.30 2.274
399.40 2.276
399.50 2.278
399.60 2.279
399.70 2.281
399.80 2.281
399.90 2.282
400.00 2.283
400.10 2.283
400.20 2.283
400.30 2.283
400.40 2.283
400.50 2.283
400.60 2.283
400.70 2.282
400.80 2.282
400.90 2.281
401.00 2.28
401.10 2.279
401.20 2.279
401.30 2.277
401.40 2.276
401.50 2.275
401.60 2.274
401.70 2.273
401.80 2.271
401.90 2.27
402.00 2.268
402.10 2.267
402.20 2.265
402.30 2.264
402.40 2.262
402.50 2.26
402.60 2.259
402.70 2.257
402.80 2.255
402.90 2.253
403.00 2.251
403.10 2.249
403.20 2.247
403.30 2.245
403.40 2.243
403.50 2.241
403.60 2.239
403.70 2.237
403.80 2.235
403.90 2.233
404.00 2.23
404.10 2.228
404.20 2.226
404.30 2.224
404.40 2.221
404.50 2.219
404.60 2.216
404.70 2.214
404.80 2.211
404.90 2.209
405.00 2.206
405.10 2.204
405.20 2.201
405.30 2.198
405.40 2.195
405.50 2.192
405.60 2.189
405.70 2.187
405.80 2.183
405.90 2.18
406.00 2.177
406.10 2.174
406.20 2.17
406.30 2.167
406.40 2.163
406.50 2.159
406.60 2.155
406.70 2.151
406.80 2.147
406.90 2.143
407.00 2.138
407.10 2.134
407.20 2.129
407.30 2.124
407.40 2.119
407.50 2.113
407.60 2.107
407.70 2.101
407.80 2.095
407.90 2.088
408.00 2.081
408.10 2.074
408.20 2.066
408.30 2.058
408.40 2.049
408.50 2.04
408.60 2.03
408.70 2.02
408.80 2.01
408.90 1.998
409.00 1.987
409.10 1.975
409.20 1.962
409.30 1.948
409.40 1.934
409.50 1.919
409.60 1.904
409.70 1.888
409.80 1.871
409.90 1.854
410.00 1.838
410.10 1.83
410.20 1.828
410.30 1.831
410.40 1.839
410.50 1.853
410.60 1.866
410.70 1.879
410.80 1.892
410.90 1.903
411.00 1.914
411.10 1.924
411.20 1.934
411.30 1.943
411.40 1.951
411.50 1.959
411.60 1.966
411.70 1.972
411.80 1.978
411.90 1.984
412.00 1.989
412.10 1.993
412.20 1.997
412.30 2.001
412.40 2.004
412.50 2.007
412.60 2.01
412.70 2.012
412.80 2.014
412.90 2.016
413.00 2.017
413.10 2.019
413.20 2.02
413.30 2.021
413.40 2.021
413.50 2.022
413.60 2.022
413.70 2.022
413.80 2.022
413.90 2.022
414.00 2.022
414.10 2.022
414.20 2.021
414.30 2.021
414.40 2.02
414.50 2.02
414.60 2.019
414.70 2.018
414.80 2.017
414.90 2.016
415.00 2.015
415.10 2.014
415.20 2.013
415.30 2.012
415.40 2.011
415.50 2.01
415.60 2.008
415.70 2.007
415.80 2.006
415.90 2.005
416.00 2.003
416.10 2.002
416.20 2
416.30 1.999
416.40 1.998
416.50 1.996
416.60 1.995
416.70 1.993
416.80 1.992
416.90 1.99
417.00 1.989
417.10 1.987
417.20 1.986
417.30 1.984
417.40 1.982
417.50 1.981
417.60 1.979
417.70 1.978
417.80 1.976
417.90 1.974
418.00 1.973
418.10 1.971
418.20 1.97
418.30 1.968
418.40 1.966
418.50 1.965
418.60 1.963
418.70 1.961
418.80 1.96
418.90 1.958
419.00 1.956
419.10 1.955
419.20 1.953
419.30 1.951
419.40 1.95
419.50 1.948
419.60 1.946
419.70 1.945
419.80 1.943
419.90 1.941
420.00 1.939
420.10 1.938
420.20 1.936
420.30 1.934
420.40 1.933
420.50 1.931
420.60 1.929
420.70 1.928
420.80 1.926
420.90 1.924
421.00 1.922
421.10 1.921
421.20 1.919
421.30 1.917
421.40 1.916
421.50 1.914
421.60 1.912
421.70 1.911
421.80 1.909
421.90 1.907
422.00 1.905
422.10 1.904
422.20 1.902
422.30 1.9
422.40 1.899
422.50 1.897
422.60 1.895
422.70 1.893
422.80 1.892
422.90 1.89
423.00 1.888
423.10 1.887
423.20 1.885
423.30 1.883
423.40 1.881
423.50 1.88
423.60 1.878
423.70 1.876
423.80 1.874
423.90 1.873
424.00 1.871
424.10 1.869
424.20 1.868
424.30 1.866
424.40 1.864
424.50 1.862
424.60 1.861
424.70 1.859
424.80 1.857
424.90 1.855
425.00 1.854
425.10 1.852
425.20 1.85
425.30 1.848
425.40 1.847
425.50 1.845
425.60 1.843
425.70 1.841
425.80 1.84
425.90 1.838
426.00 1.836
426.10 1.834
426.20 1.833
426.30 1.831
426.40 1.829
426.50 1.827
426.60 1.825
426.70 1.824
426.80 1.822
426.90 1.82
427.00 1.818
427.10 1.816
427.20 1.814
427.30 1.813
427.40 1.811
427.50 1.809
427.60 1.807
427.70 1.805
427.80 1.803
427.90 1.801
428.00 1.799
428.10 1.797
428.20 1.795
428.30 1.793
428.40 1.791
428.50 1.789
428.60 1.787
428.70 1.785
428.80 1.783
428.90 1.781
429.00 1.778
429.10 1.776
429.20 1.774
429.30 1.772
429.40 1.769
429.50 1.767
429.60 1.764
429.70 1.762
429.80 1.759
429.90 1.757
430.00 1.754
430.10 1.751
430.20 1.748
430.30 1.745
430.40 1.742
430.50 1.739
430.60 1.736
430.70 1.732
430.80 1.729
430.90 1.725
431.00 1.721
431.10 1.717
431.20 1.713
431.30 1.709
431.40 1.704
431.50 1.699
431.60 1.694
431.70 1.689
431.80 1.683
431.90 1.677
432.00 1.671
432.10 1.664
432.20 1.657
432.30 1.65
432.40 1.642
432.50 1.633
432.60 1.624
432.70 1.615
432.80 1.605
432.90 1.594
433.00 1.583
433.10 1.571
433.20 1.558
433.30 1.545
433.40 1.531
433.50 1.517
433.60 1.502
433.70 1.486
433.80 1.469
433.90 1.45
434.00 1.435
434.10 1.434
434.20 1.448
434.30 1.464
434.40 1.478
434.50 1.492
434.60 1.504
434.70 1.516
434.80 1.527
434.90 1.537
435.00 1.547
435.10 1.556
435.20 1.564
435.30 1.572
435.40 1.58
435.50 1.586
435.60 1.592
435.70 1.598
435.80 1.602
435.90 1.607
436.00 1.611
436.10 1.615
436.20 1.618
436.30 1.621
436.40 1.623
436.50 1.626
436.60 1.628
436.70 1.63
436.80 1.631
436.90 1.632
437.00 1.633
437.10 1.634
437.20 1.635
437.30 1.636
437.40 1.636
437.50 1.636
437.60 1.637
437.70 1.637
437.80 1.637
437.90 1.636
438.00 1.636
438.10 1.636
438.20 1.636
438.30 1.635
438.40 1.635
438.50 1.634
438.60 1.633
438.70 1.633
438.80 1.632
438.90 1.631
439.00 1.631
439.10 1.63
439.20 1.629
439.30 1.628
439.40 1.627
439.50 1.626
439.60 1.625
439.70 1.624
439.80 1.623
439.90 1.622
440.00 1.621
440.10 1.62
440.20 1.619
440.30 1.618
440.40 1.617
440.50 1.616
440.60 1.614
440.70 1.613
440.80 1.612
440.90 1.611
441.00 1.61
441.10 1.609
441.20 1.607
441.30 1.606
441.40 1.605
441.50 1.604
441.60 1.603
441.70 1.601
441.80 1.6
441.90 1.599
442.00 1.598
442.10 1.596
442.20 1.595
442.30 1.594
442.40 1.593
442.50 1.591
442.60 1.59
442.70 1.589
442.80 1.587
442.90 1.586
443.00 1.585
443.10 1.584
443.20 1.582
443.30 1.581
443.40 1.58
443.50 1.579
443.60 1.577
443.70 1.576
443.80 1.575
443.90 1.573
444.00 1.572
444.10 1.571
444.20 1.57
444.30 1.568
444.40 1.567
444.50 1.566
444.60 1.564
444.70 1.563
444.80 1.562
444.90 1.56
445.00 1.559
445.10 1.558
445.20 1.557
445.30 1.555
445.40 1.554
445.50 1.553
445.60 1.551
445.70 1.55
445.80 1.549
445.90 1.548
446.00 1.546
446.10 1.545
446.20 1.544
446.30 1.542
446.40 1.541
446.50 1.54
446.60 1.539
446.70 1.537
446.80 1.536
446.90 1.535
447.00 1.533
447.10 1.532
447.20 1.531
447.30 1.53
447.40 1.528
447.50 1.527
447.60 1.526
447.70 1.524
447.80 1.523
447.90 1.522
448.00 1.521
448.10 1.519
448.20 1.518
448.30 1.517
448.40 1.515
448.50 1.514
448.60 1.513
448.70 1.512
448.80 1.51
448.90 1.509
449.00 1.508
449.10 1.507
449.20 1.505
449.30 1.504
449.40 1.503
449.50 1.502
449.60 1.5
449.70 1.499
449.80 1.498
449.90 1.496
450.00 1.495
450.10 1.494
450.20 1.493
450.30 1.491
450.40 1.49
450.50 1.489
450.60 1.488
450.70 1.486
450.80 1.485
450.90 1.484
451.00 1.483
451.10 1.481
451.20 1.48
451.30 1.479
451.40 1.478
451.50 1.477
451.60 1.475
451.70 1.474
451.80 1.473
451.90 1.472
452.00 1.47
452.10 1.469
452.20 1.468
452.30 1.467
452.40 1.465
452.50 1.464
452.60 1.463
452.70 1.462
452.80 1.461
452.90 1.459
453.00 1.458
453.10 1.457
453.20 1.456
453.30 1.454
453.40 1.453
453.50 1.452
453.60 1.451
453.70 1.45
453.80 1.448
453.90 1.447
454.00 1.446
454.10 1.445
454.20 1.443
454.30 1.442
454.40 1.441
454.50 1.44
454.60 1.439
454.70 1.437
454.80 1.436
454.90 1.435
455.00 1.434
455.10 1.433
455.20 1.431
455.30 1.43
455.40 1.429
455.50 1.428
455.60 1.427
455.70 1.425
455.80 1.424
455.90 1.423
456.00 1.422
456.10 1.421
456.20 1.42
456.30 1.418
456.40 1.417
456.50 1.416
456.60 1.415
456.70 1.414
456.80 1.412
456.90 1.411
457.00 1.41
457.10 1.409
457.20 1.408
457.30 1.407
457.40 1.405
457.50 1.404
457.60 1.403
457.70 1.402
457.80 1.401
457.90 1.4
458.00 1.398
458.10 1.397
458.20 1.396
458.30 1.395
458.40 1.394
458.50 1.393
458.60 1.391
458.70 1.39
458.80 1.389
458.90 1.388
459.00 1.387
459.10 1.386
459.20 1.385
459.30 1.383
459.40 1.382
459.50 1.381
459.60 1.38
459.70 1.379
459.80 1.378
459.90 1.377
460.00 1.375
460.10 1.374
460.20 1.373
460.30 1.372
460.40 1.371
460.50 1.37
460.60 1.369
460.70 1.367
460.80 1.366
460.90 1.365
461.00 1.364
461.10 1.363
461.20 1.362
461.30 1.361
461.40 1.36
461.50 1.358
461.60 1.357
461.70 1.356
461.80 1.355
461.90 1.354
462.00 1.353
462.10 1.352
462.20 1.351
462.30 1.349
462.40 1.348
462.50 1.347
462.60 1.346
462.70 1.345
462.80 1.344
462.90 1.343
463.00 1.342
463.10 1.341
463.20 1.339
463.30 1.338
463.40 1.337
463.50 1.336
463.60 1.335
463.70 1.334
463.80 1.333
463.90 1.332
464.00 1.331
464.10 1.33
464.20 1.328
464.30 1.327
464.40 1.326
464.50 1.325
464.60 1.324
464.70 1.323
464.80 1.322
464.90 1.321
465.00 1.32
465.10 1.319
465.20 1.318
465.30 1.316
465.40 1.315
465.50 1.314
465.60 1.313
465.70 1.312
465.80 1.311
465.90 1.31
466.00 1.309
466.10 1.308
466.20 1.307
466.30 1.306
466.40 1.305
466.50 1.304
466.60 1.302
466.70 1.301
466.80 1.3
466.90 1.299
467.00 1.298
467.10 1.297
467.20 1.296
467.30 1.295
467.40 1.294
467.50 1.293
467.60 1.292
467.70 1.291
467.80 1.29
467.90 1.289
468.00 1.288
468.10 1.287
468.20 1.285
468.30 1.284
468.40 1.283
468.50 1.282
468.60 1.281
468.70 1.28
468.80 1.279
468.90 1.278
469.00 1.277
469.10 1.276
469.20 1.275
469.30 1.274
469.40 1.273
469.50 1.272
469.60 1.271
469.70 1.27
469.80 1.269
469.90 1.268
470.00 1.267
470.10 1.266
470.20 1.265
470.30 1.264
470.40 1.262
470.50 1.261
470.60 1.26
470.70 1.259
470.80 1.258
470.90 1.257
471.00 1.256
471.10 1.255
471.20 1.254
471.30 1.253
471.40 1.252
471.50 1.251
471.60 1.25
471.70 1.249
471.80 1.248
471.90 1.247
472.00 1.246
472.10 1.245
472.20 1.244
472.30 1.243
472.40 1.242
472.50 1.241
472.60 1.24
472.70 1.239
472.80 1.238
472.90 1.237
473.00 1.236
473.10 1.235
473.20 1.234
473.30 1.233
473.40 1.232
473.50 1.231
473.60 1.23
473.70 1.229
473.80 1.228
473.90 1.227
474.00 1.226
474.10 1.225
474.20 1.224
474.30 1.223
474.40 1.222
474.50 1.221
474.60 1.22
474.70 1.219
474.80 1.218
474.90 1.216
475.00 1.215
475.10 1.214
475.20 1.213
475.30 1.212
475.40 1.211
475.50 1.21
475.60 1.209
475.70 1.208
475.80 1.207
475.90 1.206
476.00 1.205
476.10 1.204
476.20 1.203
476.30 1.202
476.40 1.201
476.50 1.2
476.60 1.199
476.70 1.198
476.80 1.197
476.90 1.196
477.00 1.195
477.10 1.194
477.20 1.193
477.30 1.192
477.40 1.191
477.50 1.19
477.60 1.189
477.70 1.188
477.80 1.187
477.90 1.186
478.00 1.185
478.10 1.184
478.20 1.183
478.30 1.182
478.40 1.181
478.50 1.179
478.60 1.178
478.70 1.177
478.80 1.176
478.90 1.175
479.00 1.174
479.10 1.173
479.20 1.172
479.30 1.171
479.40 1.17
479.50 1.169
479.60 1.167
479.70 1.166
479.80 1.165
479.90 1.164
480.00 1.163
480.10 1.162
480.20 1.161
480.30 1.159
480.40 1.158
480.50 1.157
480.60 1.156
480.70 1.154
480.80 1.153
480.90 1.152
481.00 1.151
481.10 1.149
481.20 1.148
481.30 1.147
481.40 1.145
481.50 1.144
481.60 1.142
481.70 1.141
481.80 1.139
481.90 1.138
482.00 1.136
482.10 1.135
482.20 1.133
482.30 1.131
482.40 1.129
482.50 1.127
482.60 1.125
482.70 1.123
482.80 1.121
482.90 1.119
483.00 1.117
483.10 1.115
483.20 1.112
483.30 1.109
483.40 1.106
483.50 1.103
483.60 1.1
483.70 1.097
483.80 1.094
483.90 1.091
484.00 1.088
484.10 1.085
484.20 1.08
484.30 1.076
484.40 1.071
484.50 1.067
484.60 1.062
484.70 1.056
484.80 1.05
484.90 1.044
485.00 1.038
485.10 1.031
485.20 1.024
485.30 1.017
485.40 1.008
485.50 1
485.60 0.9907
485.70 0.9811
485.80 0.9692
485.90 0.9563
486.00 0.9389
486.10 0.9297
486.20 0.9269
486.30 0.9435
486.40 0.9567
486.50 0.9682
486.60 0.9775
486.70 0.9857
486.80 0.993
486.90 0.9999
487.00 1.006
487.10 1.012
487.20 1.017
487.30 1.022
487.40 1.026
487.50 1.031
487.60 1.035
487.70 1.039
487.80 1.042
487.90 1.045
488.00 1.047
488.10 1.05
488.20 1.052
488.30 1.053
488.40 1.055
488.50 1.056
488.60 1.057
488.70 1.059
488.80 1.06
488.90 1.061
489.00 1.063
489.10 1.064
489.20 1.064
489.30 1.065
489.40 1.065
489.50 1.065
489.60 1.065
489.70 1.065
489.80 1.065
489.90 1.066
490.00 1.066
490.10 1.066
490.20 1.066
490.30 1.066
490.40 1.065
490.50 1.065
490.60 1.065
490.70 1.064
490.80 1.064
490.90 1.064
491.00 1.063
491.10 1.063
491.20 1.063
491.30 1.062
491.40 1.062
491.50 1.061
491.60 1.06
491.70 1.06
491.80 1.059
491.90 1.059
492.00 1.058
492.10 1.058
492.20 1.057
492.30 1.057
492.40 1.056
492.50 1.055
492.60 1.055
492.70 1.054
492.80 1.053
492.90 1.053
493.00 1.052
493.10 1.051
493.20 1.051
493.30 1.05
493.40 1.049
493.50 1.049
493.60 1.048
493.70 1.047
493.80 1.046
493.90 1.046
494.00 1.045
494.10 1.044
494.20 1.044
494.30 1.043
494.40 1.042
494.50 1.041
494.60 1.041
494.70 1.04
494.80 1.039
494.90 1.038
495.00 1.038
495.10 1.037
495.20 1.036
495.30 1.035
495.40 1.035
495.50 1.034
495.60 1.033
495.70 1.032
495.80 1.032
495.90 1.031
496.00 1.03
496.10 1.029
496.20 1.029
496.30 1.028
496.40 1.027
496.50 1.026
496.60 1.026
496.70 1.025
496.80 1.024
496.90 1.023
497.00 1.023
497.10 1.022
497.20 1.021
497.30 1.02
497.40 1.02
497.50 1.019
497.60 1.018
497.70 1.017
497.80 1.017
497.90 1.016
498.00 1.015
498.10 1.014
498.20 1.014
498.30 1.013
498.40 1.012
498.50 1.011
498.60 1.011
498.70 1.01
498.80 1.009
498.90 1.008
499.00 1.008
499.10 1.007
499.20 1.006
499.30 1.005
499.40 1.005
499.50 1.004
499.60 1.003
499.70 1.002
499.80 1.002
499.90 1.001
500.00 1
500.10 0.9992
500.20 0.9985
500.30 0.9977
500.40 0.997
500.50 0.9962
500.60 0.9955
500.70 0.9947
500.80 0.994
500.90 0.9932
501.00 0.9925
501.10 0.9918
501.20 0.991
501.30 0.9903
501.40 0.9895
501.50 0.9888
501.60 0.988
501.70 0.9873
501.80 0.9865
501.90 0.9858
502.00 0.9851
502.10 0.9843
502.20 0.9836
502.30 0.9828
502.40 0.9821
502.50 0.9813
502.60 0.9806
502.70 0.9799
502.80 0.9791
502.90 0.9784
503.00 0.9777
503.10 0.9769
503.20 0.9762
503.30 0.9754
503.40 0.9747
503.50 0.974
503.60 0.9732
503.70 0.9725
503.80 0.9718
503.90 0.971
504.00 0.9703
504.10 0.9696
504.20 0.9688
504.30 0.9681
504.40 0.9674
504.50 0.9667
504.60 0.9659
504.70 0.9652
504.80 0.9645
504.90 0.9638
505.00 0.963
505.10 0.9623
505.20 0.9616
505.30 0.9609
505.40 0.9601
505.50 0.9594
505.60 0.9587
505.70 0.958
505.80 0.9572
505.90 0.9565
506.00 0.9558
506.10 0.9551
506.20 0.9544
506.30 0.9536
506.40 0.9529
506.50 0.9522
506.60 0.9515
506.70 0.9508
506.80 0.9501
506.90 0.9494
507.00 0.9486
507.10 0.9479
507.20 0.9472
507.30 0.9465
507.40 0.9458
507.50 0.9451
507.60 0.9444
507.70 0.9437
507.80 0.943
507.90 0.9423
508.00 0.9415
508.10 0.9408
508.20 0.9401
508.30 0.9394
508.40 0.9387
508.50 0.938
508.60 0.9373
508.70 0.9366
508.80 0.9359
508.90 0.9352
509.00 0.9345
509.10 0.9338
509.20 0.9331
509.30 0.9324
509.40 0.9317
509.50 0.931
509.60 0.9303
509.70 0.9296
509.80 0.9289
509.90 0.9282
510.00 0.9275
510.10 0.9268
510.20 0.9261
510.30 0.9255
510.40 0.9248
510.50 0.9241
510.60 0.9234
510.70 0.9227
510.80 0.922
510.90 0.9213
511.00 0.9206
511.10 0.9199
511.20 0.9193
511.30 0.9186
511.40 0.9179
511.50 0.9172
511.60 0.9165
511.70 0.9158
511.80 0.9151
511.90 0.9145
512.00 0.9138
512.10 0.9131
512.20 0.9124
512.30 0.9117
512.40 0.9111
512.50 0.9104
512.60 0.9097
512.70 0.909
512.80 0.9083
512.90 0.9077
513.00 0.907
513.10 0.9063
513.20 0.9056
513.30 0.905
513.40 0.9043
513.50 0.9036
513.60 0.903
513.70 0.9023
513.80 0.9016
513.90 0.9009
514.00 0.9003
514.10 0.8996
514.20 0.8989
514.30 0.8983
514.40 0.8976
514.50 0.8969
514.60 0.8963
514.70 0.8956
514.80 0.8949
514.90 0.8943
515.00 0.8936
515.10 0.8929
515.20 0.8923
515.30 0.8916
515.40 0.891
515.50 0.8903
515.60 0.8896
515.70 0.889
515.80 0.8883
515.90 0.8877
516.00 0.887
516.10 0.8863
516.20 0.8857
516.30 0.885
516.40 0.8844
516.50 0.8837
516.60 0.8831
516.70 0.8824
516.80 0.8818
516.90 0.8811
517.00 0.8805
517.10 0.8798
517.20 0.8792
517.30 0.8785
517.40 0.8779
517.50 0.8772
517.60 0.8766
517.70 0.8759
517.80 0.8753
517.90 0.8746
518.00 0.874
518.10 0.8733
518.20 0.8727
518.30 0.872
518.40 0.8714
518.50 0.8708
518.60 0.8701
518.70 0.8695
518.80 0.8688
518.90 0.8682
519.00 0.8676
519.10 0.8669
519.20 0.8663
519.30 0.8656
519.40 0.865
519.50 0.8644
519.60 0.8637
519.70 0.8631
519.80 0.8625
519.90 0.8618
520.00 0.8612
520.10 0.8606
520.20 0.8599
520.30 0.8593
520.40 0.8587
520.50 0.858
520.60 0.8574
520.70 0.8568
520.80 0.8561
520.90 0.8555
521.00 0.8549
521.10 0.8543
521.20 0.8536
521.30 0.853
521.40 0.8524
521.50 0.8518
521.60 0.8511
521.70 0.8505
521.80 0.8499
521.90 0.8493
522.00 0.8486
522.10 0.848
522.20 0.8474
522.30 0.8468
522.40 0.8462
522.50 0.8455
522.60 0.8449
522.70 0.8443
522.80 0.8437
522.90 0.8431
523.00 0.8424
523.10 0.8418
523.20 0.8412
523.30 0.8406
523.40 0.84
523.50 0.8394
523.60 0.8388
523.70 0.8381
523.80 0.8375
523.90 0.8369
524.00 0.8363
524.10 0.8357
524.20 0.8351
524.30 0.8345
524.40 0.8339
524.50 0.8333
524.60 0.8327
524.70 0.832
524.80 0.8314
524.90 0.8308
525.00 0.8302
525.10 0.8296
525.20 0.829
525.30 0.8284
525.40 0.8278
525.50 0.8272
525.60 0.8266
525.70 0.826
525.80 0.8254
525.90 0.8248
526.00 0.8242
526.10 0.8236
526.20 0.823
526.30 0.8224
526.40 0.8218
526.50 0.8212
526.60 0.8206
526.70 0.82
526.80 0.8194
526.90 0.8188
527.00 0.8182
527.10 0.8176
527.20 0.817
527.30 0.8164
527.40 0.8159
527.50 0.8153
527.60 0.8147
527.70 0.8141
527.80 0.8135
527.90 0.8129
528.00 0.8123
528.10 0.8117
528.20 0.8111
528.30 0.8105
528.40 0.81
528.50 0.8094
528.60 0.8088
528.70 0.8082
528.80 0.8076
528.90 0.807
529.00 0.8064
529.10 0.8059
529.20 0.8053
529.30 0.8047
529.40 0.8041
529.50 0.8035
529.60 0.803
529.70 0.8024
529.80 0.8018
529.90 0.8012
530.00 0.8006
530.10 0.8001
530.20 0.7995
530.30 0.7989
530.40 0.7983
530.50 0.7978
530.60 0.7972
530.70 0.7966
530.80 0.796
530.90 0.7955
531.00 0.7949
531.10 0.7943
531.20 0.7937
531.30 0.7932
531.40 0.7926
531.50 0.792
531.60 0.7914
531.70 0.7909
531.80 0.7903
531.90 0.7897
532.00 0.7892
532.10 0.7886
532.20 0.788
532.30 0.7875
532.40 0.7869
532.50 0.7863
532.60 0.7858
532.70 0.7852
532.80 0.7846
532.90 0.7841
533.00 0.7835
533.10 0.783
533.20 0.7824
533.30 0.7818
533.40 0.7813
533.50 0.7807
533.60 0.7801
533.70 0.7796
533.80 0.779
533.90 0.7785
534.00 0.7779
534.10 0.7774
534.20 0.7768
534.30 0.7762
534.40 0.7757
534.50 0.7751
534.60 0.7746
534.70 0.774
534.80 0.7735
534.90 0.7729
535.00 0.7724
535.10 0.7718
535.20 0.7712
535.30 0.7707
535.40 0.7701
535.50 0.7696
535.60 0.769
535.70 0.7685
535.80 0.7679
535.90 0.7674
536.00 0.7668
536.10 0.7663
536.20 0.7658
536.30 0.7652
536.40 0.7647
536.50 0.7641
536.60 0.7636
536.70 0.763
536.80 0.7625
536.90 0.7619
537.00 0.7614
537.10 0.7608
537.20 0.7603
537.30 0.7598
537.40 0.7592
537.50 0.7587
537.60 0.7581
537.70 0.7576
537.80 0.7571
537.90 0.7565
538.00 0.756
538.10 0.7554
538.20 0.7549
538.30 0.7544
538.40 0.7538
538.50 0.7533
538.60 0.7528
538.70 0.7522
538.80 0.7517
538.90 0.7512
539.00 0.7506
539.10 0.7501
539.20 0.7496
539.30 0.749
539.40 0.7485
539.50 0.748
539.60 0.7474
539.70 0.7469
539.80 0.7464
539.90 0.7458
540.00 0.7453
540.10 0.7448
540.20 0.7443
540.30 0.7437
540.40 0.7432
540.50 0.7427
540.60 0.7421
540.70 0.7416
540.80 0.7411
540.90 0.7406
541.00 0.74
541.10 0.7395
541.20 0.739
541.30 0.7385
541.40 0.738
541.50 0.7374
541.60 0.7369
541.70 0.7364
541.80 0.7359
541.90 0.7353
542.00 0.7348
542.10 0.7343
542.20 0.7338
542.30 0.7333
542.40 0.7327
542.50 0.7322
542.60 0.7317
542.70 0.7312
542.80 0.7307
542.90 0.7302
543.00 0.7297
543.10 0.7291
543.20 0.7286
543.30 0.7281
543.40 0.7276
543.50 0.7271
543.60 0.7266
543.70 0.7261
543.80 0.7255
543.90 0.725
544.00 0.7245
544.10 0.724
544.20 0.7235
544.30 0.723
544.40 0.7225
544.50 0.722
544.60 0.7215
544.70 0.721
544.80 0.7205
544.90 0.7199
545.00 0.7194
545.10 0.7189
545.20 0.7184
545.30 0.7179
545.40 0.7174
545.50 0.7169
545.60 0.7164
545.70 0.7159
545.80 0.7154
545.90 0.7149
546.00 0.7144
546.10 0.7139
546.20 0.7134
546.30 0.7129
546.40 0.7124
546.50 0.7119
546.60 0.7114
546.70 0.7109
546.80 0.7104
546.90 0.7099
547.00 0.7094
547.10 0.7089
547.20 0.7084
547.30 0.7079
547.40 0.7074
547.50 0.7069
547.60 0.7064
547.70 0.7059
547.80 0.7054
547.90 0.705
548.00 0.7045
548.10 0.704
548.20 0.7035
548.30 0.703
548.40 0.7025
548.50 0.702
548.60 0.7015
548.70 0.701
548.80 0.7005
548.90 0.7
549.00 0.6996
549.10 0.6991
549.20 0.6986
549.30 0.6981
549.40 0.6976
549.50 0.6971
549.60 0.6966
549.70 0.6961
549.80 0.6957
549.90 0.6952
550.00 0.6947
550.10 0.6942
550.20 0.6937
550.30 0.6932
550.40 0.6928
550.50 0.6923
550.60 0.6918
550.70 0.6913
550.80 0.6908
550.90 0.6903
551.00 0.6899
551.10 0.6894
551.20 0.6889
551.30 0.6884
551.40 0.6879
551.50 0.6875
551.60 0.687
551.70 0.6865
551.80 0.686
551.90 0.6856
552.00 0.6851
552.10 0.6846
552.20 0.6841
552.30 0.6837
552.40 0.6832
552.50 0.6827
552.60 0.6822
552.70 0.6818
552.80 0.6813
552.90 0.6808
553.00 0.6803
553.10 0.6799
553.20 0.6794
553.30 0.6789
553.40 0.6785
553.50 0.678
553.60 0.6775
553.70 0.6771
553.80 0.6766
553.90 0.6761
554.00 0.6756
554.10 0.6752
554.20 0.6747
554.30 0.6742
554.40 0.6738
554.50 0.6733
554.60 0.6728
554.70 0.6724
554.80 0.6719
554.90 0.6715
555.00 0.671
555.10 0.6705
555.20 0.6701
555.30 0.6696
555.40 0.6691
555.50 0.6687
555.60 0.6682
555.70 0.6678
555.80 0.6673
555.90 0.6668
556.00 0.6664
556.10 0.6659
556.20 0.6655
556.30 0.665
556.40 0.6645
556.50 0.6641
556.60 0.6636
556.70 0.6632
556.80 0.6627
556.90 0.6623
557.00 0.6618
557.10 0.6613
557.20 0.6609
557.30 0.6604
557.40 0.66
557.50 0.6595
557.60 0.6591
557.70 0.6586
557.80 0.6582
557.90 0.6577
558.00 0.6573
558.10 0.6568
558.20 0.6564
558.30 0.6559
558.40 0.6555
558.50 0.655
558.60 0.6546
558.70 0.6541
558.80 0.6537
558.90 0.6532
559.00 0.6528
559.10 0.6523
559.20 0.6519
559.30 0.6514
559.40 0.651
559.50 0.6505
559.60 0.6501
559.70 0.6496
559.80 0.6492
559.90 0.6487
560.00 0.6483
560.10 0.6479
560.20 0.6474
560.30 0.647
560.40 0.6465
560.50 0.6461
560.60 0.6456
560.70 0.6452
560.80 0.6448
560.90 0.6443
561.00 0.6439
561.10 0.6434
561.20 0.643
561.30 0.6426
561.40 0.6421
561.50 0.6417
561.60 0.6412
561.70 0.6408
561.80 0.6404
561.90 0.6399
562.00 0.6395
562.10 0.6391
562.20 0.6386
562.30 0.6382
562.40 0.6377
562.50 0.6373
562.60 0.6369
562.70 0.6364
562.80 0.636
562.90 0.6356
563.00 0.6351
563.10 0.6347
563.20 0.6343
563.30 0.6338
563.40 0.6334
563.50 0.633
563.60 0.6326
563.70 0.6321
563.80 0.6317
563.90 0.6313
564.00 0.6308
564.10 0.6304
564.20 0.63
564.30 0.6295
564.40 0.6291
564.50 0.6287
564.60 0.6283
564.70 0.6278
564.80 0.6274
564.90 0.627
565.00 0.6266
565.10 0.6261
565.20 0.6257
565.30 0.6253
565.40 0.6249
565.50 0.6244
565.60 0.624
565.70 0.6236
565.80 0.6232
565.90 0.6227
566.00 0.6223
566.10 0.6219
566.20 0.6215
566.30 0.6211
566.40 0.6206
566.50 0.6202
566.60 0.6198
566.70 0.6194
566.80 0.619
566.90 0.6185
567.00 0.6181
567.10 0.6177
567.20 0.6173
567.30 0.6169
567.40 0.6164
567.50 0.616
567.60 0.6156
567.70 0.6152
567.80 0.6148
567.90 0.6144
568.00 0.614
568.10 0.6135
568.20 0.6131
568.30 0.6127
568.40 0.6123
568.50 0.6119
568.60 0.6115
568.70 0.6111
568.80 0.6106
568.90 0.6102
569.00 0.6098
569.10 0.6094
569.20 0.609
569.30 0.6086
569.40 0.6082
569.50 0.6078
569.60 0.6074
569.70 0.607
569.80 0.6065
569.90 0.6061
570.00 0.6057
570.10 0.6053
570.20 0.6049
570.30 0.6045
570.40 0.6041
570.50 0.6037
570.60 0.6033
570.70 0.6029
570.80 0.6025
570.90 0.6021
571.00 0.6017
571.10 0.6013
571.20 0.6009
571.30 0.6005
571.40 0.6
571.50 0.5996
571.60 0.5992
571.70 0.5988
571.80 0.5984
571.90 0.598
572.00 0.5976
572.10 0.5972
572.20 0.5968
572.30 0.5964
572.40 0.596
572.50 0.5956
572.60 0.5952
572.70 0.5948
572.80 0.5944
572.90 0.594
573.00 0.5936
573.10 0.5932
573.20 0.5928
573.30 0.5924
573.40 0.5921
573.50 0.5917
573.60 0.5913
573.70 0.5909
573.80 0.5905
573.90 0.5901
574.00 0.5897
574.10 0.5893
574.20 0.5889
574.30 0.5885
574.40 0.5881
574.50 0.5877
574.60 0.5873
574.70 0.5869
574.80 0.5865
574.90 0.5861
575.00 0.5858
575.10 0.5854
575.20 0.585
575.30 0.5846
575.40 0.5842
575.50 0.5838
575.60 0.5834
575.70 0.583
575.80 0.5826
575.90 0.5822
576.00 0.5819
576.10 0.5815
576.20 0.5811
576.30 0.5807
576.40 0.5803
576.50 0.5799
576.60 0.5795
576.70 0.5791
576.80 0.5788
576.90 0.5784
577.00 0.578
577.10 0.5776
577.20 0.5772
577.30 0.5768
577.40 0.5765
577.50 0.5761
577.60 0.5757
577.70 0.5753
577.80 0.5749
577.90 0.5745
578.00 0.5742
578.10 0.5738
578.20 0.5734
578.30 0.573
578.40 0.5726
578.50 0.5723
578.60 0.5719
578.70 0.5715
578.80 0.5711
578.90 0.5707
579.00 0.5704
579.10 0.57
579.20 0.5696
579.30 0.5692
579.40 0.5689
579.50 0.5685
579.60 0.5681
579.70 0.5677
579.80 0.5673
579.90 0.567
580.00 0.5666
580.10 0.5662
580.20 0.5658
580.30 0.5655
580.40 0.5651
580.50 0.5647
580.60 0.5644
580.70 0.564
580.80 0.5636
580.90 0.5632
581.00 0.5629
581.10 0.5625
581.20 0.5621
581.30 0.5617
581.40 0.5614
581.50 0.561
581.60 0.5606
581.70 0.5603
581.80 0.5599
581.90 0.5595
582.00 0.5592
582.10 0.5588
582.20 0.5584
582.30 0.558
582.40 0.5577
582.50 0.5573
582.60 0.5569
582.70 0.5566
582.80 0.5562
582.90 0.5558
583.00 0.5555
583.10 0.5551
583.20 0.5547
583.30 0.5544
583.40 0.554
583.50 0.5537
583.60 0.5533
583.70 0.5529
583.80 0.5526
583.90 0.5522
584.00 0.5518
584.10 0.5515
584.20 0.5511
584.30 0.5507
584.40 0.5504
584.50 0.55
584.60 0.5497
584.70 0.5493
584.80 0.5489
584.90 0.5486
585.00 0.5482
585.10 0.5479
585.20 0.5475
585.30 0.5471
585.40 0.5468
585.50 0.5464
585.60 0.5461
585.70 0.5457
585.80 0.5453
585.90 0.545
586.00 0.5446
586.10 0.5443
586.20 0.5439
586.30 0.5436
586.40 0.5432
586.50 0.5429
586.60 0.5425
586.70 0.5421
586.80 0.5418
586.90 0.5414
587.00 0.5411
587.10 0.5407
587.20 0.5404
587.30 0.54
587.40 0.5397
587.50 0.5393
587.60 0.539
587.70 0.5386
587.80 0.5383
587.90 0.5379
588.00 0.5376
588.10 0.5372
588.20 0.5368
588.30 0.5365
588.40 0.5361
588.50 0.5358
588.60 0.5354
588.70 0.5351
588.80 0.5348
588.90 0.5344
589.00 0.5341
589.10 0.5337
589.20 0.5334
589.30 0.533
589.40 0.5327
589.50 0.5323
589.60 0.532
589.70 0.5316
589.80 0.5313
589.90 0.5309
590.00 0.5306
590.10 0.5302
590.20 0.5299
590.30 0.5295
590.40 0.5292
590.50 0.5289
590.60 0.5285
590.70 0.5282
590.80 0.5278
590.90 0.5275
591.00 0.5271
591.10 0.5268
591.20 0.5265
591.30 0.5261
591.40 0.5258
591.50 0.5254
591.60 0.5251
591.70 0.5247
591.80 0.5244
591.90 0.5241
592.00 0.5237
592.10 0.5234
592.20 0.523
592.30 0.5227
592.40 0.5224
592.50 0.522
592.60 0.5217
592.70 0.5214
592.80 0.521
592.90 0.5207
593.00 0.5203
593.10 0.52
593.20 0.5197
593.30 0.5193
593.40 0.519
593.50 0.5187
593.60 0.5183
593.70 0.518
593.80 0.5177
593.90 0.5173
594.00 0.517
594.10 0.5166
594.20 0.5163
594.30 0.516
594.40 0.5156
594.50 0.5153
594.60 0.515
594.70 0.5146
594.80 0.5143
594.90 0.514
595.00 0.5137
595.10 0.5133
595.20 0.513
595.30 0.5127
595.40 0.5123
595.50 0.512
595.60 0.5117
595.70 0.5113
595.80 0.511
595.90 0.5107
596.00 0.5103
596.10 0.51
596.20 0.5097
596.30 0.5094
596.40 0.509
596.50 0.5087
596.60 0.5084
596.70 0.508
596.80 0.5077
596.90 0.5074
597.00 0.5071
597.10 0.5067
597.20 0.5064
597.30 0.5061
597.40 0.5058
597.50 0.5054
597.60 0.5051
597.70 0.5048
597.80 0.5045
597.90 0.5041
598.00 0.5038
598.10 0.5035
598.20 0.5032
598.30 0.5028
598.40 0.5025
598.50 0.5022
598.60 0.5019
598.70 0.5016
598.80 0.5012
598.90 0.5009
599.00 0.5006
599.10 0.5003
599.20 0.4999
599.30 0.4996
599.40 0.4993
599.50 0.499
599.60 0.4987
599.70 0.4983
599.80 0.498
599.90 0.4977
600.00 0.4974
600.10 0.4971
600.20 0.4968
600.30 0.4964
600.40 0.4961
600.50 0.4958
600.60 0.4955
600.70 0.4952
600.80 0.4948
600.90 0.4945
601.00 0.4942
601.10 0.4939
601.20 0.4936
601.30 0.4933
601.40 0.493
601.50 0.4926
601.60 0.4923
601.70 0.492
601.80 0.4917
601.90 0.4914
602.00 0.4911
602.10 0.4908
602.20 0.4904
602.30 0.4901
602.40 0.4898
602.50 0.4895
602.60 0.4892
602.70 0.4889
602.80 0.4886
602.90 0.4883
603.00 0.4879
603.10 0.4876
603.20 0.4873
603.30 0.487
603.40 0.4867
603.50 0.4864
603.60 0.4861
603.70 0.4858
603.80 0.4855
603.90 0.4852
604.00 0.4848
604.10 0.4845
604.20 0.4842
604.30 0.4839
604.40 0.4836
604.50 0.4833
604.60 0.483
604.70 0.4827
604.80 0.4824
604.90 0.4821
605.00 0.4818
605.10 0.4815
605.20 0.4812
605.30 0.4808
605.40 0.4805
605.50 0.4802
605.60 0.4799
605.70 0.4796
605.80 0.4793
605.90 0.479
606.00 0.4787
606.10 0.4784
606.20 0.4781
606.30 0.4778
606.40 0.4775
606.50 0.4772
606.60 0.4769
606.70 0.4766
606.80 0.4763
606.90 0.476
607.00 0.4757
607.10 0.4754
607.20 0.4751
607.30 0.4748
607.40 0.4745
607.50 0.4742
607.60 0.4739
607.70 0.4736
607.80 0.4733
607.90 0.473
608.00 0.4727
608.10 0.4724
608.20 0.4721
608.30 0.4718
608.40 0.4715
608.50 0.4712
608.60 0.4709
608.70 0.4706
608.80 0.4703
608.90 0.47
609.00 0.4697
609.10 0.4694
609.20 0.4691
609.30 0.4688
609.40 0.4685
609.50 0.4682
609.60 0.4679
609.70 0.4676
609.80 0.4673
609.90 0.467
610.00 0.4668
610.10 0.4665
610.20 0.4662
610.30 0.4659
610.40 0.4656
610.50 0.4653
610.60 0.465
610.70 0.4647
610.80 0.4644
610.90 0.4641
611.00 0.4638
611.10 0.4635
611.20 0.4632
611.30 0.4629
611.40 0.4627
611.50 0.4624
611.60 0.4621
611.70 0.4618
611.80 0.4615
611.90 0.4612
612.00 0.4609
612.10 0.4606
612.20 0.4603
612.30 0.46
612.40 0.4598
612.50 0.4595
612.60 0.4592
612.70 0.4589
612.80 0.4586
612.90 0.4583
613.00 0.458
613.10 0.4577
613.20 0.4575
613.30 0.4572
613.40 0.4569
613.50 0.4566
613.60 0.4563
613.70 0.456
613.80 0.4557
613.90 0.4554
614.00 0.4552
614.10 0.4549
614.20 0.4546
614.30 0.4543
614.40 0.454
614.50 0.4537
614.60 0.4535
614.70 0.4532
614.80 0.4529
614.90 0.4526
615.00 0.4523
615.10 0.452
615.20 0.4518
615.30 0.4515
615.40 0.4512
615.50 0.4509
615.60 0.4506
615.70 0.4503
615.80 0.4501
615.90 0.4498
616.00 0.4495
616.10 0.4492
616.20 0.4489
616.30 0.4487
616.40 0.4484
616.50 0.4481
616.60 0.4478
616.70 0.4475
616.80 0.4473
616.90 0.447
617.00 0.4467
617.10 0.4464
617.20 0.4461
617.30 0.4459
617.40 0.4456
617.50 0.4453
617.60 0.445
617.70 0.4448
617.80 0.4445
617.90 0.4442
618.00 0.4439
618.10 0.4437
618.20 0.4434
618.30 0.4431
618.40 0.4428
618.50 0.4425
618.60 0.4423
618.70 0.442
618.80 0.4417
618.90 0.4414
619.00 0.4412
619.10 0.4409
619.20 0.4406
619.30 0.4404
619.40 0.4401
619.50 0.4398
619.60 0.4395
619.70 0.4393
619.80 0.439
619.90 0.4387
620.00 0.4384
620.10 0.4382
620.20 0.4379
620.30 0.4376
620.40 0.4374
620.50 0.4371
620.60 0.4368
620.70 0.4365
620.80 0.4363
620.90 0.436
621.00 0.4357
621.10 0.4355
621.20 0.4352
621.30 0.4349
621.40 0.4346
621.50 0.4344
621.60 0.4341
621.70 0.4338
621.80 0.4336
621.90 0.4333
622.00 0.433
622.10 0.4328
622.20 0.4325
622.30 0.4322
622.40 0.432
622.50 0.4317
622.60 0.4314
622.70 0.4312
622.80 0.4309
622.90 0.4306
623.00 0.4304
623.10 0.4301
623.20 0.4298
623.30 0.4296
623.40 0.4293
623.50 0.429
623.60 0.4288
623.70 0.4285
623.80 0.4282
623.90 0.428
624.00 0.4277
624.10 0.4274
624.20 0.4272
624.30 0.4269
624.40 0.4267
624.50 0.4264
624.60 0.4261
624.70 0.4259
624.80 0.4256
624.90 0.4253
625.00 0.4251
625.10 0.4248
625.20 0.4246
625.30 0.4243
625.40 0.424
625.50 0.4238
625.60 0.4235
625.70 0.4233
625.80 0.423
625.90 0.4227
626.00 0.4225
626.10 0.4222
626.20 0.422
626.30 0.4217
626.40 0.4214
626.50 0.4212
626.60 0.4209
626.70 0.4207
626.80 0.4204
626.90 0.4201
627.00 0.4199
627.10 0.4196
627.20 0.4194
627.30 0.4191
627.40 0.4189
627.50 0.4186
627.60 0.4183
627.70 0.4181
627.80 0.4178
627.90 0.4176
628.00 0.4173
628.10 0.4171
628.20 0.4168
628.30 0.4165
628.40 0.4163
628.50 0.416
628.60 0.4158
628.70 0.4155
628.80 0.4153
628.90 0.415
629.00 0.4148
629.10 0.4145
629.20 0.4142
629.30 0.414
629.40 0.4137
629.50 0.4135
629.60 0.4132
629.70 0.413
629.80 0.4127
629.90 0.4125
630.00 0.4122
630.10 0.412
630.20 0.4117
630.30 0.4115
630.40 0.4112
630.50 0.411
630.60 0.4107
630.70 0.4105
630.80 0.4102
630.90 0.41
631.00 0.4097
631.10 0.4095
631.20 0.4092
631.30 0.409
631.40 0.4087
631.50 0.4085
631.60 0.4082
631.70 0.408
631.80 0.4077
631.90 0.4075
632.00 0.4072
632.10 0.407
632.20 0.4067
632.30 0.4065
632.40 0.4062
632.50 0.406
632.60 0.4057
632.70 0.4055
632.80 0.4052
632.90 0.405
633.00 0.4047
633.10 0.4045
633.20 0.4042
633.30 0.404
633.40 0.4037
633.50 0.4035
633.60 0.4033
633.70 0.403
633.80 0.4028
633.90 0.4025
634.00 0.4023
634.10 0.402
634.20 0.4018
634.30 0.4015
634.40 0.4013
634.50 0.401
634.60 0.4008
634.70 0.4006
634.80 0.4003
634.90 0.4001
635.00 0.3998
635.10 0.3996
635.20 0.3993
635.30 0.3991
635.40 0.3989
635.50 0.3986
635.60 0.3984
635.70 0.3981
635.80 0.3979
635.90 0.3976
636.00 0.3974
636.10 0.3972
636.20 0.3969
636.30 0.3967
636.40 0.3964
636.50 0.3962
636.60 0.396
636.70 0.3957
636.80 0.3955
636.90 0.3952
637.00 0.395
637.10 0.3948
637.20 0.3945
637.30 0.3943
637.40 0.394
637.50 0.3938
637.60 0.3936
637.70 0.3933
637.80 0.3931
637.90 0.3928
638.00 0.3926
638.10 0.3924
638.20 0.3921
638.30 0.3919
638.40 0.3916
638.50 0.3914
638.60 0.3912
638.70 0.3909
638.80 0.3907
638.90 0.3905
639.00 0.3902
639.10 0.39
639.20 0.3897
639.30 0.3895
639.40 0.3893
639.50 0.389
639.60 0.3888
639.70 0.3886
639.80 0.3883
639.90 0.3881
640.00 0.3879
640.10 0.3876
640.20 0.3874
640.30 0.3871
640.40 0.3869
640.50 0.3867
640.60 0.3864
640.70 0.3862
640.80 0.386
640.90 0.3857
641.00 0.3855
641.10 0.3853
641.20 0.385
641.30 0.3848
641.40 0.3846
641.50 0.3843
641.60 0.3841
641.70 0.3839
641.80 0.3836
641.90 0.3834
642.00 0.3832
642.10 0.3829
642.20 0.3827
642.30 0.3825
642.40 0.3822
642.50 0.382
642.60 0.3818
642.70 0.3815
642.80 0.3813
642.90 0.3811
643.00 0.3808
643.10 0.3806
643.20 0.3804
643.30 0.3801
643.40 0.3799
643.50 0.3797
643.60 0.3794
643.70 0.3792
643.80 0.379
643.90 0.3787
644.00 0.3785
644.10 0.3783
644.20 0.378
644.30 0.3778
644.40 0.3776
644.50 0.3773
644.60 0.3771
644.70 0.3769
644.80 0.3766
644.90 0.3764
645.00 0.3762
645.10 0.3759
645.20 0.3757
645.30 0.3755
645.40 0.3752
645.50 0.375
645.60 0.3748
645.70 0.3745
645.80 0.3743
645.90 0.3741
646.00 0.3738
646.10 0.3736
646.20 0.3734
646.30 0.3731
646.40 0.3729
646.50 0.3727
646.60 0.3724
646.70 0.3722
646.80 0.372
646.90 0.3717
647.00 0.3715
647.10 0.3713
647.20 0.371
647.30 0.3708
647.40 0.3705
647.50 0.3703
647.60 0.3701
647.70 0.3698
647.80 0.3696
647.90 0.3693
648.00 0.3691
648.10 0.3689
648.20 0.3686
648.30 0.3684
648.40 0.3681
648.50 0.3679
648.60 0.3676
648.70 0.3674
648.80 0.3671
648.90 0.3669
649.00 0.3667
649.10 0.3664
649.20 0.3662
649.30 0.3659
649.40 0.3656
649.50 0.3654
649.60 0.3651
649.70 0.3649
649.80 0.3646
649.90 0.3643
650.00 0.3641
650.10 0.3638
650.20 0.3636
650.30 0.3633
650.40 0.363
650.50 0.3627
650.60 0.3624
650.70 0.3621
650.80 0.3618
650.90 0.3616
651.00 0.3613
651.10 0.361
651.20 0.3607
651.30 0.3604
651.40 0.3601
651.50 0.3597
651.60 0.3594
651.70 0.359
651.80 0.3587
651.90 0.3583
652.00 0.358
652.10 0.3577
652.20 0.3573
652.30 0.357
652.40 0.3565
652.50 0.356
652.60 0.3556
652.70 0.3551
652.80 0.3547
652.90 0.3542
653.00 0.3537
653.10 0.3533
653.20 0.3528
653.30 0.3523
653.40 0.3516
653.50 0.3509
653.60 0.3501
653.70 0.3494
653.80 0.3487
653.90 0.348
654.00 0.3472
654.10 0.3465
654.20 0.3458
654.30 0.345
654.40 0.3439
654.50 0.3428
654.60 0.3417
654.70 0.3405
654.80 0.3393
654.90 0.3378
655.00 0.3362
655.10 0.3347
655.20 0.3331
655.30 0.3315
655.40 0.3295
655.50 0.3274
655.60 0.325
655.70 0.3225
655.80 0.3193
655.90 0.3156
656.00 0.3097
656.10 0.303
656.20 0.2946
656.30 0.3063
656.40 0.2954
656.50 0.3051
656.60 0.3108
656.70 0.3158
656.80 0.3186
656.90 0.3213
657.00 0.3233
657.10 0.3252
657.20 0.3268
657.30 0.3283
657.40 0.3295
657.50 0.3306
657.60 0.3318
657.70 0.3329
657.80 0.334
657.90 0.3347
658.00 0.3354
658.10 0.3361
658.20 0.3368
658.30 0.3374
658.40 0.3377
658.50 0.3381
658.60 0.3384
658.70 0.3387
658.80 0.339
658.90 0.3393
659.00 0.3396
659.10 0.3399
659.20 0.3402
659.30 0.3404
659.40 0.3405
659.50 0.3405
659.60 0.3406
659.70 0.3406
659.80 0.3406
659.90 0.3407
660.00 0.3407
660.10 0.3407
660.20 0.3408
660.30 0.3408
660.40 0.3407
660.50 0.3406
660.60 0.3406
660.70 0.3405
660.80 0.3404
660.90 0.3403
661.00 0.3403
661.10 0.3402
661.20 0.3401
661.30 0.34
661.40 0.3399
661.50 0.3398
661.60 0.3396
661.70 0.3395
661.80 0.3394
661.90 0.3392
662.00 0.3391
662.10 0.339
662.20 0.3388
662.30 0.3387
662.40 0.3386
662.50 0.3384
662.60 0.3382
662.70 0.3381
662.80 0.3379
662.90 0.3378
663.00 0.3376
663.10 0.3375
663.20 0.3373
663.30 0.3371
663.40 0.337
663.50 0.3368
663.60 0.3366
663.70 0.3365
663.80 0.3363
663.90 0.3361
664.00 0.336
664.10 0.3358
664.20 0.3356
664.30 0.3354
664.40 0.3353
664.50 0.3351
664.60 0.3349
664.70 0.3347
664.80 0.3346
664.90 0.3344
665.00 0.3342
665.10 0.334
665.20 0.3338
665.30 0.3337
665.40 0.3335
665.50 0.3333
665.60 0.3331
665.70 0.3329
665.80 0.3328
665.90 0.3326
666.00 0.3324
666.10 0.3322
666.20 0.332
666.30 0.3319
666.40 0.3317
666.50 0.3315
666.60 0.3313
666.70 0.3311
666.80 0.3309
666.90 0.3308
667.00 0.3306
667.10 0.3304
667.20 0.3302
667.30 0.33
667.40 0.3298
667.50 0.3297
667.60 0.3295
667.70 0.3293
667.80 0.3291
667.90 0.3289
668.00 0.3287
668.10 0.3286
668.20 0.3284
668.30 0.3282
668.40 0.328
668.50 0.3278
668.60 0.3276
668.70 0.3275
668.80 0.3273
668.90 0.3271
669.00 0.3269
669.10 0.3267
669.20 0.3265
669.30 0.3264
669.40 0.3262
669.50 0.326
669.60 0.3258
669.70 0.3256
669.80 0.3254
669.90 0.3252
670.00 0.3251
670.10 0.3249
670.20 0.3247
670.30 0.3245
670.40 0.3243
670.50 0.3241
670.60 0.324
670.70 0.3238
670.80 0.3236
670.90 0.3234
671.00 0.3232
671.10 0.323
671.20 0.3229
671.30 0.3227
671.40 0.3225
671.50 0.3223
671.60 0.3221
671.70 0.3219
671.80 0.3218
671.90 0.3216
672.00 0.3214
672.10 0.3212
672.20 0.321
672.30 0.3209
672.40 0.3207
672.50 0.3205
672.60 0.3203
672.70 0.3201
672.80 0.3199
672.90 0.3198
673.00 0.3196
673.10 0.3194
673.20 0.3192
673.30 0.319
673.40 0.3189
673.50 0.3187
673.60 0.3185
673.70 0.3183
673.80 0.3181
673.90 0.318
674.00 0.3178
674.10 0.3176
674.20 0.3174
674.30 0.3172
674.40 0.3171
674.50 0.3169
674.60 0.3167
674.70 0.3165
674.80 0.3163
674.90 0.3162
675.00 0.316
675.10 0.3158
675.20 0.3156
675.30 0.3154
675.40 0.3153
675.50 0.3151
675.60 0.3149
675.70 0.3147
675.80 0.3145
675.90 0.3144
676.00 0.3142
676.10 0.314
676.20 0.3138
676.30 0.3137
676.40 0.3135
676.50 0.3133
676.60 0.3131
676.70 0.3129
676.80 0.3128
676.90 0.3126
677.00 0.3124
677.10 0.3122
677.20 0.3121
677.30 0.3119
677.40 0.3117
677.50 0.3115
677.60 0.3113
677.70 0.3112
677.80 0.311
677.90 0.3108
678.00 0.3106
678.10 0.3105
678.20 0.3103
678.30 0.3101
678.40 0.3099
678.50 0.3098
678.60 0.3096
678.70 0.3094
678.80 0.3092
678.90 0.3091
679.00 0.3089
679.10 0.3087
679.20 0.3085
679.30 0.3084
679.40 0.3082
679.50 0.308
679.60 0.3078
679.70 0.3077
679.80 0.3075
679.90 0.3073
680.00 0.3071
680.10 0.307
680.20 0.3068
680.30 0.3066
680.40 0.3065
680.50 0.3063
680.60 0.3061
680.70 0.3059
680.80 0.3058
680.90 0.3056
681.00 0.3054
681.10 0.3052
681.20 0.3051
681.30 0.3049
681.40 0.3047
681.50 0.3046
681.60 0.3044
681.70 0.3042
681.80 0.304
681.90 0.3039
682.00 0.3037
682.10 0.3035
682.20 0.3034
682.30 0.3032
682.40 0.303
682.50 0.3028
682.60 0.3027
682.70 0.3025
682.80 0.3023
682.90 0.3022
683.00 0.302
683.10 0.3018
683.20 0.3016
683.30 0.3015
683.40 0.3013
683.50 0.3011
683.60 0.301
683.70 0.3008
683.80 0.3006
683.90 0.3005
684.00 0.3003
684.10 0.3001
684.20 0.3
684.30 0.2998
684.40 0.2996
684.50 0.2994
684.60 0.2993
684.70 0.2991
684.80 0.2989
684.90 0.2988
685.00 0.2986
685.10 0.2984
685.20 0.2983
685.30 0.2981
685.40 0.2979
685.50 0.2978
685.60 0.2976
685.70 0.2974
685.80 0.2973
685.90 0.2971
686.00 0.2969
686.10 0.2968
686.20 0.2966
686.30 0.2964
686.40 0.2963
686.50 0.2961
686.60 0.2959
686.70 0.2958
686.80 0.2956
686.90 0.2954
687.00 0.2953
687.10 0.2951
687.20 0.2949
687.30 0.2948
687.40 0.2946
687.50 0.2944
687.60 0.2943
687.70 0.2941
687.80 0.294
687.90 0.2938
688.00 0.2936
688.10 0.2935
688.20 0.2933
688.30 0.2931
688.40 0.293
688.50 0.2928
688.60 0.2926
688.70 0.2925
688.80 0.2923
688.90 0.2921
689.00 0.292
689.10 0.2918
689.20 0.2917
689.30 0.2915
689.40 0.2913
689.50 0.2912
689.60 0.291
689.70 0.2908
689.80 0.2907
689.90 0.2905
690.00 0.2904
690.10 0.2902
690.20 0.29
690.30 0.2899
690.40 0.2897
690.50 0.2896
690.60 0.2894
690.70 0.2892
690.80 0.2891
690.90 0.2889
691.00 0.2887
691.10 0.2886
691.20 0.2884
691.30 0.2883
691.40 0.2881
691.50 0.2879
691.60 0.2878
691.70 0.2876
691.80 0.2875
691.90 0.2873
692.00 0.2871
692.10 0.287
692.20 0.2868
692.30 0.2867
692.40 0.2865
692.50 0.2863
692.60 0.2862
692.70 0.286
692.80 0.2859
692.90 0.2857
693.00 0.2856
693.10 0.2854
693.20 0.2852
693.30 0.2851
693.40 0.2849
693.50 0.2848
693.60 0.2846
693.70 0.2844
693.80 0.2843
693.90 0.2841
694.00 0.284
694.10 0.2838
694.20 0.2836
694.30 0.2835
694.40 0.2833
694.50 0.2832
694.60 0.283
694.70 0.2829
694.80 0.2827
694.90 0.2825
695.00 0.2824
695.10 0.2822
695.20 0.2821
695.30 0.2819
695.40 0.2818
695.50 0.2816
695.60 0.2814
695.70 0.2813
695.80 0.2811
695.90 0.281
696.00 0.2808
696.10 0.2807
696.20 0.2805
696.30 0.2804
696.40 0.2802
696.50 0.2801
696.60 0.2799
696.70 0.2797
696.80 0.2796
696.90 0.2794
697.00 0.2793
697.10 0.2791
697.20 0.279
697.30 0.2788
697.40 0.2787
697.50 0.2785
697.60 0.2784
697.70 0.2782
697.80 0.278
697.90 0.2779
698.00 0.2777
698.10 0.2776
698.20 0.2774
698.30 0.2773
698.40 0.2771
698.50 0.277
698.60 0.2768
698.70 0.2767
698.80 0.2765
698.90 0.2764
699.00 0.2762
699.10 0.2761
699.20 0.2759
699.30 0.2757
699.40 0.2756
699.50 0.2754
699.60 0.2753
699.70 0.2751
699.80 0.275
699.90 0.2748
700.00 0.2747
700.10 0.2745
700.20 0.2744
700.30 0.2742
700.40 0.2741
700.50 0.2739
700.60 0.2738
700.70 0.2736
700.80 0.2735
700.90 0.2733
701.00 0.2732
701.10 0.273
701.20 0.2729
701.30 0.2727
701.40 0.2726
701.50 0.2724
701.60 0.2723
701.70 0.2721
701.80 0.272
701.90 0.2718
702.00 0.2717
702.10 0.2715
702.20 0.2714
702.30 0.2712
702.40 0.2711
702.50 0.2709
702.60 0.2708
702.70 0.2706
702.80 0.2705
702.90 0.2703
703.00 0.2702
703.10 0.27
703.20 0.2699
703.30 0.2698
703.40 0.2696
703.50 0.2695
703.60 0.2693
703.70 0.2692
703.80 0.269
703.90 0.2689
704.00 0.2687
704.10 0.2686
704.20 0.2684
704.30 0.2683
704.40 0.2681
704.50 0.268
704.60 0.2678
704.70 0.2677
704.80 0.2675
704.90 0.2674
705.00 0.2672
705.10 0.2671
705.20 0.267
705.30 0.2668
705.40 0.2667
705.50 0.2665
705.60 0.2664
705.70 0.2662
705.80 0.2661
705.90 0.2659
706.00 0.2658
706.10 0.2656
706.20 0.2655
706.30 0.2654
706.40 0.2652
706.50 0.2651
706.60 0.2649
706.70 0.2648
706.80 0.2646
706.90 0.2645
707.00 0.2643
707.10 0.2642
707.20 0.2641
707.30 0.2639
707.40 0.2638
707.50 0.2636
707.60 0.2635
707.70 0.2633
707.80 0.2632
707.90 0.263
708.00 0.2629
708.10 0.2628
708.20 0.2626
708.30 0.2625
708.40 0.2623
708.50 0.2622
708.60 0.262
708.70 0.2619
708.80 0.2618
708.90 0.2616
709.00 0.2615
709.10 0.2613
709.20 0.2612
709.30 0.261
709.40 0.2609
709.50 0.2608
709.60 0.2606
709.70 0.2605
709.80 0.2603
709.90 0.2602
710.00 0.2601
710.10 0.2599
710.20 0.2598
710.30 0.2596
710.40 0.2595
710.50 0.2593
710.60 0.2592
710.70 0.2591
710.80 0.2589
710.90 0.2588
711.00 0.2586
711.10 0.2585
711.20 0.2584
711.30 0.2582
711.40 0.2581
711.50 0.2579
711.60 0.2578
711.70 0.2577
711.80 0.2575
711.90 0.2574
712.00 0.2572
712.10 0.2571
712.20 0.257
712.30 0.2568
712.40 0.2567
712.50 0.2566
712.60 0.2564
712.70 0.2563
712.80 0.2561
712.90 0.256
713.00 0.2559
713.10 0.2557
713.20 0.2556
713.30 0.2554
713.40 0.2553
713.50 0.2552
713.60 0.255
713.70 0.2549
713.80 0.2548
713.90 0.2546
714.00 0.2545
714.10 0.2543
714.20 0.2542
714.30 0.2541
714.40 0.2539
714.50 0.2538
714.60 0.2536
714.70 0.2535
714.80 0.2534
714.90 0.2532
715.00 0.2531
715.10 0.253
715.20 0.2528
715.30 0.2527
715.40 0.2526
715.50 0.2524
715.60 0.2523
715.70 0.2521
715.80 0.252
715.90 0.2519
716.00 0.2517
716.10 0.2516
716.20 0.2515
716.30 0.2513
716.40 0.2512
716.50 0.2511
716.60 0.2509
716.70 0.2508
716.80 0.2507
716.90 0.2505
717.00 0.2504
717.10 0.2503
717.20 0.2501
717.30 0.25
717.40 0.2499
717.50 0.2497
717.60 0.2496
717.70 0.2495
717.80 0.2493
717.90 0.2492
718.00 0.249
718.10 0.2489
718.20 0.2488
718.30 0.2486
718.40 0.2485
718.50 0.2484
718.60 0.2482
718.70 0.2481
718.80 0.248
718.90 0.2478
719.00 0.2477
719.10 0.2476
719.20 0.2474
719.30 0.2473
719.40 0.2472
719.50 0.247
719.60 0.2469
719.70 0.2468
719.80 0.2466
719.90 0.2465
720.00 0.2464
720.10 0.2462
720.20 0.2461
720.30 0.246
720.40 0.2459
720.50 0.2457
720.60 0.2456
720.70 0.2455
720.80 0.2453
720.90 0.2452
721.00 0.2451
721.10 0.2449
721.20 0.2448
721.30 0.2447
721.40 0.2445
721.50 0.2444
721.60 0.2443
721.70 0.2442
721.80 0.244
721.90 0.2439
722.00 0.2438
722.10 0.2436
722.20 0.2435
722.30 0.2434
722.40 0.2432
722.50 0.2431
722.60 0.243
722.70 0.2429
722.80 0.2427
722.90 0.2426
723.00 0.2425
723.10 0.2423
723.20 0.2422
723.30 0.2421
723.40 0.2419
723.50 0.2418
723.60 0.2417
723.70 0.2416
723.80 0.2414
723.90 0.2413
724.00 0.2412
724.10 0.241
724.20 0.2409
724.30 0.2408
724.40 0.2407
724.50 0.2405
724.60 0.2404
724.70 0.2403
724.80 0.2401
724.90 0.24
725.00 0.2399
725.10 0.2398
725.20 0.2396
725.30 0.2395
725.40 0.2394
725.50 0.2392
725.60 0.2391
725.70 0.239
725.80 0.2389
725.90 0.2387
726.00 0.2386
726.10 0.2385
726.20 0.2384
726.30 0.2382
726.40 0.2381
726.50 0.238
726.60 0.2379
726.70 0.2377
726.80 0.2376
726.90 0.2375
727.00 0.2374
727.10 0.2372
727.20 0.2371
727.30 0.237
727.40 0.2368
727.50 0.2367
727.60 0.2366
727.70 0.2365
727.80 0.2363
727.90 0.2362
728.00 0.2361
728.10 0.236
728.20 0.2358
728.30 0.2357
728.40 0.2356
728.50 0.2355
728.60 0.2353
728.70 0.2352
728.80 0.2351
728.90 0.235
729.00 0.2348
729.10 0.2347
729.20 0.2346
729.30 0.2345
729.40 0.2343
729.50 0.2342
729.60 0.2341
729.70 0.234
729.80 0.2338
729.90 0.2337
730.00 0.2336
730.10 0.2335
730.20 0.2334
730.30 0.2332
730.40 0.2331
730.50 0.233
730.60 0.2329
730.70 0.2327
730.80 0.2326
730.90 0.2325
731.00 0.2324
731.10 0.2323
731.20 0.2321
731.30 0.232
731.40 0.2319
731.50 0.2318
731.60 0.2316
731.70 0.2315
731.80 0.2314
731.90 0.2313
732.00 0.2312
732.10 0.231
732.20 0.2309
732.30 0.2308
732.40 0.2307
732.50 0.2306
732.60 0.2304
732.70 0.2303
732.80 0.2302
732.90 0.2301
733.00 0.23
733.10 0.2298
733.20 0.2297
733.30 0.2296
733.40 0.2295
733.50 0.2293
733.60 0.2292
733.70 0.2291
733.80 0.229
733.90 0.2289
734.00 0.2287
734.10 0.2286
734.20 0.2285
734.30 0.2284
734.40 0.2283
734.50 0.2281
734.60 0.228
734.70 0.2279
734.80 0.2278
734.90 0.2277
735.00 0.2275
735.10 0.2274
735.20 0.2273
735.30 0.2272
735.40 0.2271
735.50 0.2269
735.60 0.2268
735.70 0.2267
735.80 0.2266
735.90 0.2265
736.00 0.2264
736.10 0.2262
736.20 0.2261
736.30 0.226
736.40 0.2259
736.50 0.2258
736.60 0.2256
736.70 0.2255
736.80 0.2254
736.90 0.2253
737.00 0.2252
737.10 0.225
737.20 0.2249
737.30 0.2248
737.40 0.2247
737.50 0.2246
737.60 0.2245
737.70 0.2243
737.80 0.2242
737.90 0.2241
738.00 0.224
738.10 0.2239
738.20 0.2237
738.30 0.2236
738.40 0.2235
738.50 0.2234
738.60 0.2233
738.70 0.2232
738.80 0.223
738.90 0.2229
739.00 0.2228
739.10 0.2227
739.20 0.2226
739.30 0.2225
739.40 0.2223
739.50 0.2222
739.60 0.2221
739.70 0.222
739.80 0.2219
739.90 0.2218
740.00 0.2216
740.10 0.2215
740.20 0.2214
740.30 0.2213
740.40 0.2212
740.50 0.2211
740.60 0.2209
740.70 0.2208
740.80 0.2207
740.90 0.2206
741.00 0.2205
741.10 0.2204
741.20 0.2203
741.30 0.2202
741.40 0.22
741.50 0.2199
741.60 0.2198
741.70 0.2197
741.80 0.2196
741.90 0.2195
742.00 0.2194
742.10 0.2192
742.20 0.2191
742.30 0.219
742.40 0.2189
742.50 0.2188
742.60 0.2187
742.70 0.2186
742.80 0.2184
742.90 0.2183
743.00 0.2182
743.10 0.2181
743.20 0.218
743.30 0.2179
743.40 0.2178
743.50 0.2177
743.60 0.2175
743.70 0.2174
743.80 0.2173
743.90 0.2172
744.00 0.2171
744.10 0.217
744.20 0.2169
744.30 0.2168
744.40 0.2166
744.50 0.2165
744.60 0.2164
744.70 0.2163
744.80 0.2162
744.90 0.2161
745.00 0.216
745.10 0.2159
745.20 0.2157
745.30 0.2156
745.40 0.2155
745.50 0.2154
745.60 0.2153
745.70 0.2152
745.80 0.2151
745.90 0.215
746.00 0.2149
746.10 0.2147
746.20 0.2146
746.30 0.2145
746.40 0.2144
746.50 0.2143
746.60 0.2142
746.70 0.2141
746.80 0.214
746.90 0.2138
747.00 0.2137
747.10 0.2136
747.20 0.2135
747.30 0.2134
747.40 0.2133
747.50 0.2132
747.60 0.2131
747.70 0.213
747.80 0.2129
747.90 0.2127
748.00 0.2126
748.10 0.2125
748.20 0.2124
748.30 0.2123
748.40 0.2122
748.50 0.2121
748.60 0.212
748.70 0.2119
748.80 0.2117
748.90 0.2116
749.00 0.2115
749.10 0.2114
749.20 0.2113
749.30 0.2112
749.40 0.2111
749.50 0.211
749.60 0.2109
749.70 0.2108
749.80 0.2107
749.90 0.2105
750.00 0.2104
750.10 0.2103
750.20 0.2102
750.30 0.2101
750.40 0.21
750.50 0.2099
750.60 0.2098
750.70 0.2097
750.80 0.2096
750.90 0.2095
751.00 0.2094
751.10 0.2093
751.20 0.2091
751.30 0.209
751.40 0.2089
751.50 0.2088
751.60 0.2087
751.70 0.2086
751.80 0.2085
751.90 0.2084
752.00 0.2083
752.10 0.2082
752.20 0.2081
752.30 0.208
752.40 0.2079
752.50 0.2078
752.60 0.2077
752.70 0.2075
752.80 0.2074
752.90 0.2073
753.00 0.2072
753.10 0.2071
753.20 0.207
753.30 0.2069
753.40 0.2068
753.50 0.2067
753.60 0.2066
753.70 0.2065
753.80 0.2064
753.90 0.2063
754.00 0.2062
754.10 0.2061
754.20 0.206
754.30 0.2059
754.40 0.2057
754.50 0.2056
754.60 0.2055
754.70 0.2054
754.80 0.2053
754.90 0.2052
755.00 0.2051
755.10 0.205
755.20 0.2049
755.30 0.2048
755.40 0.2047
755.50 0.2046
755.60 0.2045
755.70 0.2044
755.80 0.2043
755.90 0.2042
756.00 0.2041
756.10 0.204
756.20 0.2039
756.30 0.2038
756.40 0.2037
756.50 0.2035
756.60 0.2034
756.70 0.2033
756.80 0.2032
756.90 0.2031
757.00 0.203
757.10 0.2029
757.20 0.2028
757.30 0.2027
757.40 0.2026
757.50 0.2025
757.60 0.2024
757.70 0.2023
757.80 0.2022
757.90 0.2021
758.00 0.202
758.10 0.2019
758.20 0.2018
758.30 0.2017
758.40 0.2016
758.50 0.2015
758.60 0.2014
758.70 0.2013
758.80 0.2012
758.90 0.2011
759.00 0.201
759.10 0.2009
759.20 0.2007
759.30 0.2006
759.40 0.2005
759.50 0.2004
759.60 0.2003
759.70 0.2002
759.80 0.2001
759.90 0.2
760.00 0.1999
760.10 0.1998
760.20 0.1997
760.30 0.1996
760.40 0.1995
760.50 0.1994
760.60 0.1993
760.70 0.1992
760.80 0.1991
760.90 0.199
761.00 0.1989
761.10 0.1988
761.20 0.1987
761.30 0.1986
761.40 0.1985
761.50 0.1984
761.60 0.1983
761.70 0.1982
761.80 0.1981
761.90 0.198
762.00 0.1979
762.10 0.1978
762.20 0.1977
762.30 0.1976
762.40 0.1975
762.50 0.1974
762.60 0.1973
762.70 0.1972
762.80 0.1971
762.90 0.197
763.00 0.1969
763.10 0.1968
763.20 0.1967
763.30 0.1966
763.40 0.1965
763.50 0.1964
763.60 0.1963
763.70 0.1962
763.80 0.1961
763.90 0.196
764.00 0.1959
764.10 0.1958
764.20 0.1957
764.30 0.1956
764.40 0.1955
764.50 0.1954
764.60 0.1953
764.70 0.1952
764.80 0.1951
764.90 0.195
765.00 0.1949
765.10 0.1948
765.20 0.1947
765.30 0.1946
765.40 0.1945
765.50 0.1945
765.60 0.1944
765.70 0.1943
765.80 0.1942
765.90 0.1941
766.00 0.194
766.10 0.1939
766.20 0.1938
766.30 0.1937
766.40 0.1936
766.50 0.1935
766.60 0.1934
766.70 0.1933
766.80 0.1932
766.90 0.1931
767.00 0.193
767.10 0.1929
767.20 0.1928
767.30 0.1927
767.40 0.1926
767.50 0.1925
767.60 0.1924
767.70 0.1923
767.80 0.1922
767.90 0.1921
768.00 0.192
768.10 0.1919
768.20 0.1918
768.30 0.1917
768.40 0.1916
768.50 0.1915
768.60 0.1914
768.70 0.1913
768.80 0.1912
768.90 0.1911
769.00 0.191
769.10 0.1909
769.20 0.1908
769.30 0.1907
769.40 0.1907
769.50 0.1906
769.60 0.1905
769.70 0.1904
769.80 0.1903
769.90 0.1902
770.00 0.1901
770.10 0.19
770.20 0.1899
770.30 0.1898
770.40 0.1897
770.50 0.1896
770.60 0.1895
770.70 0.1894
770.80 0.1893
770.90 0.1892
771.00 0.1891
771.10 0.189
771.20 0.1889
771.30 0.1888
771.40 0.1888
771.50 0.1887
771.60 0.1886
771.70 0.1885
771.80 0.1884
771.90 0.1883
772.00 0.1882
772.10 0.1881
772.20 0.188
772.30 0.1879
772.40 0.1878
772.50 0.1877
772.60 0.1876
772.70 0.1875
772.80 0.1874
772.90 0.1873
773.00 0.1873
773.10 0.1872
773.20 0.1871
773.30 0.187
773.40 0.1869
773.50 0.1868
773.60 0.1867
773.70 0.1866
773.80 0.1865
773.90 0.1864
774.00 0.1863
774.10 0.1862
774.20 0.1861
774.30 0.186
774.40 0.1859
774.50 0.1859
774.60 0.1858
774.70 0.1857
774.80 0.1856
774.90 0.1855
775.00 0.1854
775.10 0.1853
775.20 0.1852
775.30 0.1851
775.40 0.185
775.50 0.1849
775.60 0.1848
775.70 0.1847
775.80 0.1847
775.90 0.1846
776.00 0.1845
776.10 0.1844
776.20 0.1843
776.30 0.1842
776.40 0.1841
776.50 0.184
776.60 0.1839
776.70 0.1838
776.80 0.1837
776.90 0.1836
777.00 0.1836
777.10 0.1835
777.20 0.1834
777.30 0.1833
777.40 0.1832
777.50 0.1831
777.60 0.183
777.70 0.1829
777.80 0.1828
777.90 0.1827
778.00 0.1826
778.10 0.1825
778.20 0.1825
778.30 0.1824
778.40 0.1823
778.50 0.1822
778.60 0.1821
778.70 0.182
778.80 0.1819
778.90 0.1818
779.00 0.1817
779.10 0.1816
779.20 0.1815
779.30 0.1815
779.40 0.1814
779.50 0.1813
779.60 0.1812
779.70 0.1811
779.80 0.181
779.90 0.1809
780.00 0.1808
780.10 0.1807
780.20 0.1806
780.30 0.1806
780.40 0.1805
780.50 0.1804
780.60 0.1803
780.70 0.1802
780.80 0.1801
780.90 0.18
781.00 0.1799
781.10 0.1798
781.20 0.1798
781.30 0.1797
781.40 0.1796
781.50 0.1795
781.60 0.1794
781.70 0.1793
781.80 0.1792
781.90 0.1791
782.00 0.179
782.10 0.179
782.20 0.1789
782.30 0.1788
782.40 0.1787
782.50 0.1786
782.60 0.1785
782.70 0.1784
782.80 0.1783
782.90 0.1783
783.00 0.1782
783.10 0.1781
783.20 0.178
783.30 0.1779
783.40 0.1778
783.50 0.1777
783.60 0.1776
783.70 0.1776
783.80 0.1775
783.90 0.1774
784.00 0.1773
784.10 0.1772
784.20 0.1771
784.30 0.177
784.40 0.1769
784.50 0.1769
784.60 0.1768
784.70 0.1767
784.80 0.1766
784.90 0.1765
785.00 0.1764
785.10 0.1763
785.20 0.1762
785.30 0.1762
785.40 0.1761
785.50 0.176
785.60 0.1759
785.70 0.1758
785.80 0.1757
785.90 0.1756
786.00 0.1756
786.10 0.1755
786.20 0.1754
786.30 0.1753
786.40 0.1752
786.50 0.1751
786.60 0.175
786.70 0.1749
786.80 0.1749
786.90 0.1748
787.00 0.1747
787.10 0.1746
787.20 0.1745
787.30 0.1744
787.40 0.1743
787.50 0.1743
787.60 0.1742
787.70 0.1741
787.80 0.174
787.90 0.1739
788.00 0.1738
788.10 0.1737
788.20 0.1737
788.30 0.1736
788.40 0.1735
788.50 0.1734
788.60 0.1733
788.70 0.1732
788.80 0.1731
788.90 0.1731
789.00 0.173
789.10 0.1729
789.20 0.1728
789.30 0.1727
789.40 0.1726
789.50 0.1725
789.60 0.1725
789.70 0.1724
789.80 0.1723
789.90 0.1722
790.00 0.1721
790.10 0.172
790.20 0.172
790.30 0.1719
790.40 0.1718
790.50 0.1717
790.60 0.1716
790.70 0.1715
790.80 0.1715
790.90 0.1714
791.00 0.1713
791.10 0.1712
791.20 0.1711
791.30 0.171
791.40 0.171
791.50 0.1709
791.60 0.1708
791.70 0.1707
791.80 0.1706
791.90 0.1705
792.00 0.1705
792.10 0.1704
792.20 0.1703
792.30 0.1702
792.40 0.1701
792.50 0.17
792.60 0.17
792.70 0.1699
792.80 0.1698
792.90 0.1697
793.00 0.1696
793.10 0.1695
793.20 0.1695
793.30 0.1694
793.40 0.1693
793.50 0.1692
793.60 0.1691
793.70 0.1691
793.80 0.169
793.90 0.1689
794.00 0.1688
794.10 0.1687
794.20 0.1686
794.30 0.1686
794.40 0.1685
794.50 0.1684
794.60 0.1683
794.70 0.1682
794.80 0.1682
794.90 0.1681
795.00 0.168
795.10 0.1679
795.20 0.1678
795.30 0.1677
795.40 0.1677
795.50 0.1676
795.60 0.1675
795.70 0.1674
795.80 0.1673
795.90 0.1673
796.00 0.1672
796.10 0.1671
796.20 0.167
796.30 0.1669
796.40 0.1668
796.50 0.1668
796.60 0.1667
796.70 0.1666
796.80 0.1665
796.90 0.1664
797.00 0.1664
797.10 0.1663
797.20 0.1662
797.30 0.1661
797.40 0.166
797.50 0.166
797.60 0.1659
797.70 0.1658
797.80 0.1657
797.90 0.1656
798.00 0.1655
798.10 0.1655
798.20 0.1654
798.30 0.1653
798.40 0.1652
798.50 0.1651
798.60 0.1651
798.70 0.165
798.80 0.1649
798.90 0.1648
799.00 0.1647
799.10 0.1647
799.20 0.1646
799.30 0.1645
799.40 0.1644
799.50 0.1643
799.60 0.1643
799.70 0.1642
799.80 0.1641
799.90 0.164
800.00 0.1639
800.10 0.1639
800.20 0.1638
800.30 0.1637
800.40 0.1636
800.50 0.1635
800.60 0.1635
800.70 0.1634
800.80 0.1633
800.90 0.1632
801.00 0.1632
801.10 0.1631
801.20 0.163
801.30 0.1629
801.40 0.1628
801.50 0.1628
801.60 0.1627
801.70 0.1626
801.80 0.1625
801.90 0.1625
802.00 0.1624
802.10 0.1623
802.20 0.1622
802.30 0.1621
802.40 0.1621
802.50 0.162
802.60 0.1619
802.70 0.1618
802.80 0.1618
802.90 0.1617
803.00 0.1616
803.10 0.1615
803.20 0.1614
803.30 0.1614
803.40 0.1613
803.50 0.1612
803.60 0.1611
803.70 0.1611
803.80 0.161
803.90 0.1609
804.00 0.1608
804.10 0.1607
804.20 0.1607
804.30 0.1606
804.40 0.1605
804.50 0.1604
804.60 0.1604
804.70 0.1603
804.80 0.1602
804.90 0.1601
805.00 0.1601
805.10 0.16
805.20 0.1599
805.30 0.1598
805.40 0.1597
805.50 0.1597
805.60 0.1596
805.70 0.1595
805.80 0.1594
805.90 0.1594
806.00 0.1593
806.10 0.1592
806.20 0.1591
806.30 0.1591
806.40 0.159
806.50 0.1589
806.60 0.1588
806.70 0.1587
806.80 0.1587
806.90 0.1586
807.00 0.1585
807.10 0.1584
807.20 0.1584
807.30 0.1583
807.40 0.1582
807.50 0.1581
807.60 0.1581
807.70 0.158
807.80 0.1579
807.90 0.1578
808.00 0.1578
808.10 0.1577
808.20 0.1576
808.30 0.1575
808.40 0.1575
808.50 0.1574
808.60 0.1573
808.70 0.1572
808.80 0.1571
808.90 0.1571
809.00 0.157
809.10 0.1569
809.20 0.1568
809.30 0.1568
809.40 0.1567
809.50 0.1566
809.60 0.1565
809.70 0.1565
809.80 0.1564
809.90 0.1563
810.00 0.1562
810.10 0.1562
810.20 0.1561
810.30 0.156
810.40 0.1559
810.50 0.1559
810.60 0.1558
810.70 0.1557
810.80 0.1557
810.90 0.1556
811.00 0.1555
811.10 0.1554
811.20 0.1554
811.30 0.1553
811.40 0.1552
811.50 0.1551
811.60 0.1551
811.70 0.155
811.80 0.1549
811.90 0.1548
812.00 0.1548
812.10 0.1547
812.20 0.1546
812.30 0.1545
812.40 0.1545
812.50 0.1544
812.60 0.1543
812.70 0.1543
812.80 0.1542
812.90 0.1541
813.00 0.154
813.10 0.154
813.20 0.1539
813.30 0.1538
813.40 0.1537
813.50 0.1537
813.60 0.1536
813.70 0.1535
813.80 0.1535
813.90 0.1534
814.00 0.1533
814.10 0.1532
814.20 0.1532
814.30 0.1531
814.40 0.153
814.50 0.1529
814.60 0.1529
814.70 0.1528
814.80 0.1527
814.90 0.1527
815.00 0.1526
815.10 0.1525
815.20 0.1524
815.30 0.1524
815.40 0.1523
815.50 0.1522
815.60 0.1521
815.70 0.1521
815.80 0.152
815.90 0.1519
816.00 0.1519
816.10 0.1518
816.20 0.1517
816.30 0.1516
816.40 0.1516
816.50 0.1515
816.60 0.1514
816.70 0.1514
816.80 0.1513
816.90 0.1512
817.00 0.1511
817.10 0.1511
817.20 0.151
817.30 0.1509
817.40 0.1508
817.50 0.1508
817.60 0.1507
817.70 0.1506
817.80 0.1506
817.90 0.1505
818.00 0.1504
818.10 0.1503
818.20 0.1503
818.30 0.1502
818.40 0.1501
818.50 0.1501
818.60 0.15
818.70 0.1499
818.80 0.1498
818.90 0.1498
819.00 0.1497
819.10 0.1496
819.20 0.1496
819.30 0.1495
819.40 0.1494
819.50 0.1493
819.60 0.1493
819.70 0.1492
819.80 0.1491
819.90 0.1491
820.00 0.149
820.10 0.1489
820.20 0.1489
820.30 0.1488
820.40 0.1487
820.50 0.1486
820.60 0.1486
820.70 0.1485
820.80 0.1484
820.90 0.1484
821.00 0.1483
821.10 0.1482
821.20 0.1482
821.30 0.1481
821.40 0.148
821.50 0.1479
821.60 0.1479
821.70 0.1478
821.80 0.1477
821.90 0.1477
822.00 0.1476
822.10 0.1475
822.20 0.1475
822.30 0.1474
822.40 0.1473
822.50 0.1472
822.60 0.1472
822.70 0.1471
822.80 0.147
822.90 0.147
823.00 0.1469
823.10 0.1468
823.20 0.1468
823.30 0.1467
823.40 0.1466
823.50 0.1466
823.60 0.1465
823.70 0.1464
823.80 0.1464
823.90 0.1463
824.00 0.1462
824.10 0.1461
824.20 0.1461
824.30 0.146
824.40 0.1459
824.50 0.1459
824.60 0.1458
824.70 0.1457
824.80 0.1457
824.90 0.1456
825.00 0.1455
825.10 0.1455
825.20 0.1454
825.30 0.1453
825.40 0.1453
825.50 0.1452
825.60 0.1451
825.70 0.1451
825.80 0.145
825.90 0.1449
826.00 0.1448
826.10 0.1448
826.20 0.1447
826.30 0.1446
826.40 0.1446
826.50 0.1445
826.60 0.1444
826.70 0.1444
826.80 0.1443
826.90 0.1442
827.00 0.1442
827.10 0.1441
827.20 0.144
827.30 0.144
827.40 0.1439
827.50 0.1438
827.60 0.1438
827.70 0.1437
827.80 0.1436
827.90 0.1436
828.00 0.1435
828.10 0.1434
828.20 0.1434
828.30 0.1433
828.40 0.1432
828.50 0.1432
828.60 0.1431
828.70 0.143
828.80 0.143
828.90 0.1429
829.00 0.1428
829.10 0.1428
829.20 0.1427
829.30 0.1426
829.40 0.1426
829.50 0.1425
829.60 0.1424
829.70 0.1424
829.80 0.1423
829.90 0.1422
830.00 0.1422
830.10 0.1421
830.20 0.142
830.30 0.142
830.40 0.1419
830.50 0.1418
830.60 0.1418
830.70 0.1417
830.80 0.1416
830.90 0.1416
831.00 0.1415
831.10 0.1414
831.20 0.1414
831.30 0.1413
831.40 0.1412
831.50 0.1412
831.60 0.1411
831.70 0.141
831.80 0.141
831.90 0.1409
832.00 0.1408
832.10 0.1408
832.20 0.1407
832.30 0.1406
832.40 0.1406
832.50 0.1405
832.60 0.1404
832.70 0.1404
832.80 0.1403
832.90 0.1402
833.00 0.1402
833.10 0.1401
833.20 0.1401
833.30 0.14
833.40 0.1399
833.50 0.1399
833.60 0.1398
833.70 0.1397
833.80 0.1397
833.90 0.1396
834.00 0.1395
834.10 0.1395
834.20 0.1394
834.30 0.1393
834.40 0.1393
834.50 0.1392
834.60 0.1391
834.70 0.1391
834.80 0.139
834.90 0.1389
835.00 0.1389
835.10 0.1388
835.20 0.1388
835.30 0.1387
835.40 0.1386
835.50 0.1386
835.60 0.1385
835.70 0.1384
835.80 0.1384
835.90 0.1383
836.00 0.1382
836.10 0.1382
836.20 0.1381
836.30 0.138
836.40 0.138
836.50 0.1379
836.60 0.1379
836.70 0.1378
836.80 0.1377
836.90 0.1377
837.00 0.1376
837.10 0.1375
837.20 0.1375
837.30 0.1374
837.40 0.1373
837.50 0.1373
837.60 0.1372
837.70 0.1371
837.80 0.1371
837.90 0.137
838.00 0.137
838.10 0.1369
838.20 0.1368
838.30 0.1368
838.40 0.1367
838.50 0.1366
838.60 0.1366
838.70 0.1365
838.80 0.1365
838.90 0.1364
839.00 0.1363
839.10 0.1363
839.20 0.1362
839.30 0.1361
839.40 0.1361
839.50 0.136
839.60 0.1359
839.70 0.1359
839.80 0.1358
839.90 0.1358
840.00 0.1357
840.10 0.1356
840.20 0.1356
840.30 0.1355
840.40 0.1354
840.50 0.1354
840.60 0.1353
840.70 0.1353
840.80 0.1352
840.90 0.1351
841.00 0.1351
841.10 0.135
841.20 0.1349
841.30 0.1349
841.40 0.1348
841.50 0.1348
841.60 0.1347
841.70 0.1346
841.80 0.1346
841.90 0.1345
842.00 0.1344
842.10 0.1344
842.20 0.1343
842.30 0.1343
842.40 0.1342
842.50 0.1341
842.60 0.1341
842.70 0.134
842.80 0.134
842.90 0.1339
843.00 0.1338
843.10 0.1338
843.20 0.1337
843.30 0.1336
843.40 0.1336
843.50 0.1335
843.60 0.1335
843.70 0.1334
843.80 0.1333
843.90 0.1333
844.00 0.1332
844.10 0.1332
844.20 0.1331
844.30 0.133
844.40 0.133
844.50 0.1329
844.60 0.1328
844.70 0.1328
844.80 0.1327
844.90 0.1327
845.00 0.1326
845.10 0.1325
845.20 0.1325
845.30 0.1324
845.40 0.1324
845.50 0.1323
845.60 0.1322
845.70 0.1322
845.80 0.1321
845.90 0.1321
846.00 0.132
846.10 0.1319
846.20 0.1319
846.30 0.1318
846.40 0.1318
846.50 0.1317
846.60 0.1316
846.70 0.1316
846.80 0.1315
846.90 0.1314
847.00 0.1314
847.10 0.1313
847.20 0.1313
847.30 0.1312
847.40 0.1311
847.50 0.1311
847.60 0.131
847.70 0.131
847.80 0.1309
847.90 0.1308
848.00 0.1308
848.10 0.1307
848.20 0.1307
848.30 0.1306
848.40 0.1306
848.50 0.1305
848.60 0.1304
848.70 0.1304
848.80 0.1303
848.90 0.1303
849.00 0.1302
849.10 0.1301
849.20 0.1301
849.30 0.13
849.40 0.13
849.50 0.1299
849.60 0.1298
849.70 0.1298
849.80 0.1297
849.90 0.1297
850.00 0.1296
850.10 0.1295
850.20 0.1295
850.30 0.1294
850.40 0.1294
850.50 0.1293
850.60 0.1292
850.70 0.1292
850.80 0.1291
850.90 0.1291
851.00 0.129
851.10 0.1289
851.20 0.1289
851.30 0.1288
851.40 0.1288
851.50 0.1287
851.60 0.1287
851.70 0.1286
851.80 0.1285
851.90 0.1285
852.00 0.1284
852.10 0.1284
852.20 0.1283
852.30 0.1282
852.40 0.1282
852.50 0.1281
852.60 0.1281
852.70 0.128
852.80 0.128
852.90 0.1279
853.00 0.1278
853.10 0.1278
853.20 0.1277
853.30 0.1277
853.40 0.1276
853.50 0.1275
853.60 0.1275
853.70 0.1274
853.80 0.1274
853.90 0.1273
854.00 0.1273
854.10 0.1272
854.20 0.1271
854.30 0.1271
854.40 0.127
854.50 0.127
854.60 0.1269
854.70 0.1269
854.80 0.1268
854.90 0.1267
855.00 0.1267
855.10 0.1266
855.20 0.1266
855.30 0.1265
855.40 0.1264
855.50 0.1264
855.60 0.1263
855.70 0.1263
855.80 0.1262
855.90 0.1262
856.00 0.1261
856.10 0.126
856.20 0.126
856.30 0.1259
856.40 0.1259
856.50 0.1258
856.60 0.1258
856.70 0.1257
856.80 0.1256
856.90 0.1256
857.00 0.1255
857.10 0.1255
857.20 0.1254
857.30 0.1254
857.40 0.1253
857.50 0.1252
857.60 0.1252
857.70 0.1251
857.80 0.1251
857.90 0.125
858.00 0.125
858.10 0.1249
858.20 0.1249
858.30 0.1248
858.40 0.1247
858.50 0.1247
858.60 0.1246
858.70 0.1246
858.80 0.1245
858.90 0.1245
859.00 0.1244
859.10 0.1243
859.20 0.1243
859.30 0.1242
859.40 0.1242
859.50 0.1241
859.60 0.1241
859.70 0.124
859.80 0.124
859.90 0.1239
860.00 0.1238
860.10 0.1238
860.20 0.1237
860.30 0.1237
860.40 0.1236
860.50 0.1236
860.60 0.1235
860.70 0.1235
860.80 0.1234
860.90 0.1233
861.00 0.1233
861.10 0.1232
861.20 0.1232
861.30 0.1231
861.40 0.1231
861.50 0.123
861.60 0.123
861.70 0.1229
861.80 0.1228
861.90 0.1228
862.00 0.1227
862.10 0.1227
862.20 0.1226
862.30 0.1226
862.40 0.1225
862.50 0.1225
862.60 0.1224
862.70 0.1223
862.80 0.1223
862.90 0.1222
863.00 0.1222
863.10 0.1221
863.20 0.1221
863.30 0.122
863.40 0.122
863.50 0.1219
863.60 0.1219
863.70 0.1218
863.80 0.1217
863.90 0.1217
864.00 0.1216
864.10 0.1216
864.20 0.1215
864.30 0.1215
864.40 0.1214
864.50 0.1214
864.60 0.1213
864.70 0.1213
864.80 0.1212
864.90 0.1212
865.00 0.1211
865.10 0.121
865.20 0.121
865.30 0.1209
865.40 0.1209
865.50 0.1208
865.60 0.1208
865.70 0.1207
865.80 0.1207
865.90 0.1206
866.00 0.1206
866.10 0.1205
866.20 0.1204
866.30 0.1204
866.40 0.1203
866.50 0.1203
866.60 0.1202
866.70 0.1202
866.80 0.1201
866.90 0.1201
867.00 0.12
867.10 0.12
867.20 0.1199
867.30 0.1199
867.40 0.1198
867.50 0.1198
867.60 0.1197
867.70 0.1196
867.80 0.1196
867.90 0.1195
868.00 0.1195
868.10 0.1194
868.20 0.1194
868.30 0.1193
868.40 0.1193
868.50 0.1192
868.60 0.1192
868.70 0.1191
868.80 0.1191
868.90 0.119
869.00 0.119
869.10 0.1189
869.20 0.1188
869.30 0.1188
869.40 0.1187
869.50 0.1187
869.60 0.1186
869.70 0.1186
869.80 0.1185
869.90 0.1185
870.00 0.1184
870.10 0.1184
870.20 0.1183
870.30 0.1183
870.40 0.1182
870.50 0.1182
870.60 0.1181
870.70 0.1181
870.80 0.118
870.90 0.118
871.00 0.1179
871.10 0.1178
871.20 0.1178
871.30 0.1177
871.40 0.1177
871.50 0.1176
871.60 0.1176
871.70 0.1175
871.80 0.1175
871.90 0.1174
872.00 0.1174
872.10 0.1173
872.20 0.1173
872.30 0.1172
872.40 0.1172
872.50 0.1171
872.60 0.1171
872.70 0.117
872.80 0.117
872.90 0.1169
873.00 0.1169
873.10 0.1168
873.20 0.1168
873.30 0.1167
873.40 0.1167
873.50 0.1166
873.60 0.1165
873.70 0.1165
873.80 0.1164
873.90 0.1164
874.00 0.1163
874.10 0.1163
874.20 0.1162
874.30 0.1162
874.40 0.1161
874.50 0.1161
874.60 0.116
874.70 0.116
874.80 0.1159
874.90 0.1159
875.00 0.1158
875.10 0.1158
875.20 0.1157
875.30 0.1157
875.40 0.1156
875.50 0.1156
875.60 0.1155
875.70 0.1155
875.80 0.1154
875.90 0.1154
876.00 0.1153
876.10 0.1153
876.20 0.1152
876.30 0.1152
876.40 0.1151
876.50 0.1151
876.60 0.115
876.70 0.115
876.80 0.1149
876.90 0.1149
877.00 0.1148
877.10 0.1148
877.20 0.1147
877.30 0.1147
877.40 0.1146
877.50 0.1146
877.60 0.1145
877.70 0.1145
877.80 0.1144
877.90 0.1144
878.00 0.1143
878.10 0.1143
878.20 0.1142
878.30 0.1142
878.40 0.1141
878.50 0.1141
878.60 0.114
878.70 0.114
878.80 0.1139
878.90 0.1139
879.00 0.1138
879.10 0.1138
879.20 0.1137
879.30 0.1137
879.40 0.1136
879.50 0.1136
879.60 0.1135
879.70 0.1135
879.80 0.1134
879.90 0.1134
880.00 0.1133
880.10 0.1133
880.20 0.1132
880.30 0.1132
880.40 0.1131
880.50 0.1131
880.60 0.113
880.70 0.113
880.80 0.1129
880.90 0.1129
881.00 0.1128
881.10 0.1128
881.20 0.1127
881.30 0.1127
881.40 0.1126
881.50 0.1126
881.60 0.1125
881.70 0.1125
881.80 0.1124
881.90 0.1124
882.00 0.1123
882.10 0.1123
882.20 0.1122
882.30 0.1122
882.40 0.1121
882.50 0.1121
882.60 0.112
882.70 0.112
882.80 0.1119
882.90 0.1119
883.00 0.1118
883.10 0.1118
883.20 0.1117
883.30 0.1117
883.40 0.1116
883.50 0.1116
883.60 0.1115
883.70 0.1115
883.80 0.1114
883.90 0.1114
884.00 0.1113
884.10 0.1113
884.20 0.1113
884.30 0.1112
884.40 0.1112
884.50 0.1111
884.60 0.1111
884.70 0.111
884.80 0.111
884.90 0.1109
885.00 0.1109
885.10 0.1108
885.20 0.1108
885.30 0.1107
885.40 0.1107
885.50 0.1106
885.60 0.1106
885.70 0.1105
885.80 0.1105
885.90 0.1104
886.00 0.1104
886.10 0.1103
886.20 0.1103
886.30 0.1102
886.40 0.1102
886.50 0.1101
886.60 0.1101
886.70 0.1101
886.80 0.11
886.90 0.11
887.00 0.1099
887.10 0.1099
887.20 0.1098
887.30 0.1098
887.40 0.1097
887.50 0.1097
887.60 0.1096
887.70 0.1096
887.80 0.1095
887.90 0.1095
888.00 0.1094
888.10 0.1094
888.20 0.1093
888.30 0.1093
888.40 0.1092
888.50 0.1092
888.60 0.1091
888.70 0.1091
888.80 0.1091
888.90 0.109
889.00 0.109
889.10 0.1089
889.20 0.1089
889.30 0.1088
889.40 0.1088
889.50 0.1087
889.60 0.1087
889.70 0.1086
889.80 0.1086
889.90 0.1085
890.00 0.1085
890.10 0.1084
890.20 0.1084
890.30 0.1083
890.40 0.1083
890.50 0.1082
890.60 0.1082
890.70 0.1082
890.80 0.1081
890.90 0.1081
891.00 0.108
891.10 0.108
891.20 0.1079
891.30 0.1079
891.40 0.1078
891.50 0.1078
891.60 0.1077
891.70 0.1077
891.80 0.1076
891.90 0.1076
892.00 0.1075
892.10 0.1075
892.20 0.1075
892.30 0.1074
892.40 0.1074
892.50 0.1073
892.60 0.1073
892.70 0.1072
892.80 0.1072
892.90 0.1071
893.00 0.1071
893.10 0.107
893.20 0.107
893.30 0.1069
893.40 0.1069
893.50 0.1068
893.60 0.1068
893.70 0.1067
893.80 0.1067
893.90 0.1067
894.00 0.1066
894.10 0.1066
894.20 0.1065
894.30 0.1065
894.40 0.1064
894.50 0.1064
894.60 0.1063
894.70 0.1063
894.80 0.1062
894.90 0.1062
895.00 0.1061
895.10 0.1061
895.20 0.106
895.30 0.106
895.40 0.106
895.50 0.1059
895.60 0.1059
895.70 0.1058
895.80 0.1058
895.90 0.1057
896.00 0.1057
896.10 0.1056
896.20 0.1056
896.30 0.1055
896.40 0.1055
896.50 0.1054
896.60 0.1054
896.70 0.1054
896.80 0.1053
896.90 0.1053
897.00 0.1052
897.10 0.1052
897.20 0.1051
897.30 0.1051
897.40 0.105
897.50 0.105
897.60 0.1049
897.70 0.1049
897.80 0.1049
897.90 0.1048
898.00 0.1048
898.10 0.1047
898.20 0.1047
898.30 0.1046
898.40 0.1046
898.50 0.1045
898.60 0.1045
898.70 0.1044
898.80 0.1044
898.90 0.1044
899.00 0.1043
899.10 0.1043
899.20 0.1042
899.30 0.1042
899.40 0.1041
899.50 0.1041
899.60 0.104
899.70 0.104
899.80 0.1039
899.90 0.1039
900.00 0.1039
900.10 0.1038
900.20 0.1038
900.30 0.1037
900.40 0.1037
900.50 0.1036
900.60 0.1036
900.70 0.1035
900.80 0.1035
900.90 0.1035
901.00 0.1034
901.10 0.1034
901.20 0.1033
901.30 0.1033
901.40 0.1032
901.50 0.1032
901.60 0.1031
901.70 0.1031
901.80 0.1031
901.90 0.103
902.00 0.103
902.10 0.1029
902.20 0.1029
902.30 0.1028
902.40 0.1028
902.50 0.1028
902.60 0.1027
902.70 0.1027
902.80 0.1026
902.90 0.1026
903.00 0.1025
903.10 0.1025
903.20 0.1025
903.30 0.1024
903.40 0.1024
903.50 0.1023
903.60 0.1023
903.70 0.1022
903.80 0.1022
903.90 0.1022
904.00 0.1021
904.10 0.1021
904.20 0.102
904.30 0.102
904.40 0.1019
904.50 0.1019
904.60 0.1019
904.70 0.1018
904.80 0.1018
904.90 0.1017
905.00 0.1017
905.10 0.1016
905.20 0.1016
905.30 0.1016
905.40 0.1015
905.50 0.1015
905.60 0.1014
905.70 0.1014
905.80 0.1014
905.90 0.1013
906.00 0.1013
906.10 0.1012
906.20 0.1012
906.30 0.1011
906.40 0.1011
906.50 0.1011
906.60 0.101
906.70 0.101
906.80 0.1009
906.90 0.1009
907.00 0.1008
907.10 0.1008
907.20 0.1008
907.30 0.1007
907.40 0.1007
907.50 0.1006
907.60 0.1006
907.70 0.1006
907.80 0.1005
907.90 0.1005
908.00 0.1004
908.10 0.1004
908.20 0.1003
908.30 0.1003
908.40 0.1003
908.50 0.1002
908.60 0.1002
908.70 0.1001
908.80 0.1001
908.90 0.1
909.00 0.1
909.10 0.09996
909.20 0.09992
909.30 0.09988
909.40 0.09984
909.50 0.09979
909.60 0.09975
909.70 0.09971
909.80 0.09967
909.90 0.09963
910.00 0.09958
910.10 0.09954
910.20 0.0995
910.30 0.09946
910.40 0.09942
910.50 0.09937
910.60 0.09933
910.70 0.09929
910.80 0.09925
910.90 0.09921
911.00 0.09917
911.10 0.09912
911.20 0.09908
911.30 0.09904
911.40 0.099
911.50 0.09896
911.60 0.09892
911.70 0.09887
911.80 0.09883
911.90 0.09879
912.00 0.09875
912.10 0.09871
912.20 0.09866
912.30 0.09862
912.40 0.09857
912.50 0.09853
912.60 0.09849
912.70 0.09844
912.80 0.0984
912.90 0.09835
913.00 0.09831
913.10 0.09827
913.20 0.09822
913.30 0.09818
913.40 0.09814
913.50 0.09809
913.60 0.09805
913.70 0.098
913.80 0.09796
913.90 0.09792
914.00 0.09787
914.10 0.09783
914.20 0.09779
914.30 0.09774
914.40 0.0977
914.50 0.09766
914.60 0.09761
914.70 0.09757
914.80 0.09752
914.90 0.09748
915.00 0.09744
915.10 0.09739
915.20 0.09735
915.30 0.09731
915.40 0.09726
915.50 0.09722
915.60 0.09718
915.70 0.09713
915.80 0.09709
915.90 0.09705
916.00 0.097
916.10 0.09696
916.20 0.09692
916.30 0.09687
916.40 0.09683
916.50 0.09679
916.60 0.09674
916.70 0.0967
916.80 0.09666
916.90 0.09662
917.00 0.09657
917.10 0.09653
917.20 0.09648
917.30 0.09644
917.40 0.0964
917.50 0.09635
917.60 0.09631
917.70 0.09627
917.80 0.09622
917.90 0.09618
918.00 0.09613
918.10 0.09609
918.20 0.09605
918.30 0.096
918.40 0.09596
918.50 0.09592
918.60 0.09587
918.70 0.09583
918.80 0.09578
918.90 0.09574
919.00 0.0957
919.10 0.09565
919.20 0.09561
919.30 0.09557
919.40 0.09552
919.50 0.09548
919.60 0.09544
919.70 0.09539
919.80 0.09535
919.90 0.09531
920.00 0.09526
920.10 0.09522
920.20 0.09518
920.30 0.09513
920.40 0.09509
920.50 0.09505
920.60 0.095
920.70 0.09496
920.80 0.09492
920.90 0.09487
921.00 0.09483
921.10 0.09479
921.20 0.09474
921.30 0.0947
921.40 0.09466
921.50 0.09461
921.60 0.09457
921.70 0.09453
921.80 0.09448
921.90 0.09444
922.00 0.0944
922.10 0.09436
922.20 0.09432
922.30 0.09429
922.40 0.09425
922.50 0.09421
922.60 0.09418
922.70 0.09414
922.80 0.0941
922.90 0.09407
923.00 0.09403
923.10 0.09399
923.20 0.09396
923.30 0.09392
923.40 0.09388
923.50 0.09385
923.60 0.09381
923.70 0.09377
923.80 0.09373
923.90 0.0937
924.00 0.09366
924.10 0.09362
924.20 0.09359
924.30 0.09355
924.40 0.09351
924.50 0.09348
924.60 0.09344
924.70 0.0934
924.80 0.09337
924.90 0.09333
925.00 0.0933
925.10 0.09326
925.20 0.09322
925.30 0.09319
925.40 0.09315
925.50 0.09311
925.60 0.09308
925.70 0.09304
925.80 0.093
925.90 0.09297
926.00 0.09293
926.10 0.09289
926.20 0.09286
926.30 0.09282
926.40 0.09278
926.50 0.09275
926.60 0.09271
926.70 0.09268
926.80 0.09264
926.90 0.0926
927.00 0.09257
927.10 0.09253
927.20 0.0925
927.30 0.09246
927.40 0.09243
927.50 0.09239
927.60 0.09236
927.70 0.09232
927.80 0.09229
927.90 0.09225
928.00 0.09222
928.10 0.09219
928.20 0.09215
928.30 0.09212
928.40 0.09208
928.50 0.09205
928.60 0.09201
928.70 0.09198
928.80 0.09194
928.90 0.09191
929.00 0.09188
929.10 0.09184
929.20 0.09181
929.30 0.09177
929.40 0.09174
929.50 0.0917
929.60 0.09167
929.70 0.09163
929.80 0.0916
929.90 0.09157
930.00 0.09153
930.10 0.0915
930.20 0.09146
930.30 0.09143
930.40 0.09139
930.50 0.09136
930.60 0.09133
930.70 0.09129
930.80 0.09126
930.90 0.09122
931.00 0.09119
931.10 0.09116
931.20 0.09112
931.30 0.09109
931.40 0.09105
931.50 0.09102
931.60 0.09098
931.70 0.09095
931.80 0.09092
931.90 0.09088
932.00 0.09085
932.10 0.09081
932.20 0.09078
932.30 0.09074
932.40 0.09071
932.50 0.09067
932.60 0.09063
932.70 0.0906
932.80 0.09056
932.90 0.09053
933.00 0.09049
933.10 0.09046
933.20 0.09042
933.30 0.09039
933.40 0.09035
933.50 0.09031
933.60 0.09028
933.70 0.09024
933.80 0.09021
933.90 0.09017
934.00 0.09014
934.10 0.0901
934.20 0.09007
934.30 0.09003
934.40 0.08999
934.50 0.08996
934.60 0.08992
934.70 0.08988
934.80 0.08985
934.90 0.08981
935.00 0.08978
935.10 0.08974
935.20 0.0897
935.30 0.08967
935.40 0.08963
935.50 0.08959
935.60 0.08956
935.70 0.08952
935.80 0.08949
935.90 0.08945
936.00 0.08941
936.10 0.08938
936.20 0.08934
936.30 0.0893
936.40 0.08927
936.50 0.08923
936.60 0.0892
936.70 0.08916
936.80 0.08912
936.90 0.08909
937.00 0.08905
937.10 0.08901
937.20 0.08898
937.30 0.08894
937.40 0.0889
937.50 0.08887
937.60 0.08883
937.70 0.08879
937.80 0.08876
937.90 0.08872
938.00 0.08868
938.10 0.08865
938.20 0.08861
938.30 0.08857
938.40 0.08854
938.50 0.0885
938.60 0.08846
938.70 0.08842
938.80 0.08839
938.90 0.08835
939.00 0.08831
939.10 0.08828
939.20 0.08824
939.30 0.0882
939.40 0.08816
939.50 0.08813
939.60 0.08809
939.70 0.08805
939.80 0.08802
939.90 0.08798
940.00 0.08794
940.10 0.08791
940.20 0.08787
940.30 0.08783
940.40 0.08779
940.50 0.08776
940.60 0.08772
940.70 0.08768
940.80 0.08764
940.90 0.0876
941.00 0.08757
941.10 0.08753
941.20 0.08749
941.30 0.08745
941.40 0.08742
941.50 0.08738
941.60 0.08734
941.70 0.0873
941.80 0.08727
941.90 0.08723
942.00 0.08719
942.10 0.08715
942.20 0.08711
942.30 0.08708
942.40 0.08704
942.50 0.087
942.60 0.08696
942.70 0.08692
942.80 0.08688
942.90 0.08684
943.00 0.08681
943.10 0.08677
943.20 0.08673
943.30 0.08669
943.40 0.08665
943.50 0.08661
943.60 0.08657
943.70 0.08654
943.80 0.0865
943.90 0.08646
944.00 0.08642
944.10 0.08638
944.20 0.08634
944.30 0.08631
944.40 0.08627
944.50 0.08623
944.60 0.08619
944.70 0.08615
944.80 0.08611
944.90 0.08607
945.00 0.08603
945.10 0.08599
945.20 0.08595
945.30 0.08591
945.40 0.08587
945.50 0.08583
945.60 0.08579
945.70 0.08575
945.80 0.08571
945.90 0.08567
946.00 0.08563
946.10 0.08559
946.20 0.08555
946.30 0.08551
946.40 0.08547
946.50 0.08543
946.60 0.08539
946.70 0.08535
946.80 0.08531
946.90 0.08527
947.00 0.08523
947.10 0.08519
947.20 0.08515
947.30 0.08511
947.40 0.08507
947.50 0.08502
947.60 0.08498
947.70 0.08494
947.80 0.0849
947.90 0.08486
948.00 0.08481
948.10 0.08477
948.20 0.08473
948.30 0.08469
948.40 0.08465
948.50 0.0846
948.60 0.08456
948.70 0.08452
948.80 0.08448
948.90 0.08444
949.00 0.0844
949.10 0.08435
949.20 0.08431
949.30 0.08427
949.40 0.08423
949.50 0.08418
949.60 0.08414
949.70 0.0841
949.80 0.08405
949.90 0.08401
950.00 0.08397
950.10 0.08392
950.20 0.08388
950.30 0.08384
950.40 0.08379
950.50 0.08375
950.60 0.08371
950.70 0.08366
950.80 0.08362
950.90 0.08358
951.00 0.08353
951.10 0.08349
951.20 0.08345
951.30 0.0834
951.40 0.08336
951.50 0.08332
951.60 0.08327
951.70 0.08323
951.80 0.08319
951.90 0.08314
952.00 0.0831
952.10 0.08306
952.20 0.08302
952.30 0.08297
952.40 0.08293
952.50 0.08289
952.60 0.08285
952.70 0.0828
952.80 0.08276
952.90 0.08272
953.00 0.08268
953.10 0.08265
953.20 0.08261
953.30 0.08257
953.40 0.08253
953.50 0.08249
953.60 0.08245
953.70 0.08242
953.80 0.08239
953.90 0.08235
954.00 0.08232
954.10 0.08229
954.20 0.08226
954.30 0.08224
954.40 0.08222
954.50 0.0822
954.60 0.08216
954.70 0.08213
954.80 0.08209
954.90 0.08205
955.00 0.082
955.10 0.08196
955.20 0.08193
955.30 0.0819
955.40 0.08186
955.50 0.08183
955.60 0.0818
955.70 0.08177
955.80 0.08173
955.90 0.08171
956.00 0.08168
956.10 0.08166
956.20 0.08163
956.30 0.08161
956.40 0.08158
956.50 0.08155
956.60 0.08153
956.70 0.0815
956.80 0.08148
956.90 0.08145
957.00 0.08143
957.10 0.0814
957.20 0.08138
957.30 0.08136
957.40 0.08133
957.50 0.08131
957.60 0.08129
957.70 0.08126
957.80 0.08124
957.90 0.08122
958.00 0.08119
958.10 0.08117
958.20 0.08115
958.30 0.08112
958.40 0.0811
958.50 0.08108
958.60 0.08105
958.70 0.08103
958.80 0.08101
958.90 0.08098
959.00 0.08096
959.10 0.08094
959.20 0.08091
959.30 0.08089
959.40 0.08086
959.50 0.08084
959.60 0.08081
959.70 0.08079
959.80 0.08077
959.90 0.08074
960.00 0.08072
960.10 0.08069
960.20 0.08067
960.30 0.08064
960.40 0.08062
960.50 0.08059
960.60 0.08057
960.70 0.08054
960.80 0.08052
960.90 0.08049
961.00 0.08047
961.10 0.08044
961.20 0.08042
961.30 0.08039
961.40 0.08037
961.50 0.08034
961.60 0.08032
961.70 0.08029
961.80 0.08026
961.90 0.08024
962.00 0.08021
962.10 0.08018
962.20 0.08016
962.30 0.08013
962.40 0.0801
962.50 0.08008
962.60 0.08005
962.70 0.08002
962.80 0.08
962.90 0.07997
963.00 0.07994
963.10 0.07992
963.20 0.07989
963.30 0.07986
963.40 0.07983
963.50 0.07981
963.60 0.07978
963.70 0.07975
963.80 0.07972
963.90 0.0797
964.00 0.07967
964.10 0.07964
964.20 0.07961
964.30 0.07959
964.40 0.07956
964.50 0.07953
964.60 0.0795
964.70 0.07947
964.80 0.07944
964.90 0.07941
965.00 0.07939
965.10 0.07936
965.20 0.07933
965.30 0.0793
965.40 0.07927
965.50 0.07924
965.60 0.07921
965.70 0.07919
965.80 0.07916
965.90 0.07913
966.00 0.0791
966.10 0.07907
966.20 0.07904
966.30 0.07902
966.40 0.07899
966.50 0.07896
966.60 0.07893
966.70 0.0789
966.80 0.07887
966.90 0.07884
967.00 0.07881
967.10 0.07878
967.20 0.07875
967.30 0.07872
967.40 0.07869
967.50 0.07866
967.60 0.07864
967.70 0.07861
967.80 0.07858
967.90 0.07855
968.00 0.07852
968.10 0.07849
968.20 0.07846
968.30 0.07843
968.40 0.0784
968.50 0.07837
968.60 0.07834
968.70 0.07831
968.80 0.07828
968.90 0.07825
969.00 0.07822
969.10 0.07819
969.20 0.07816
969.30 0.07813
969.40 0.0781
969.50 0.07807
969.60 0.07804
969.70 0.07801
969.80 0.07798
969.90 0.07795
970.00 0.07792
970.10 0.0779
970.20 0.07787
970.30 0.07784
970.40 0.07781
970.50 0.07778
970.60 0.07775
970.70 0.07772
970.80 0.07769
970.90 0.07766
971.00 0.07763
971.10 0.0776
971.20 0.07757
971.30 0.07754
971.40 0.07751
971.50 0.07748
971.60 0.07745
971.70 0.07742
971.80 0.07739
971.90 0.07736
972.00 0.07733
972.10 0.0773
972.20 0.07727
972.30 0.07724
972.40 0.07721
972.50 0.07718
972.60 0.07715
972.70 0.07712
972.80 0.07709
972.90 0.07706
973.00 0.07703
973.10 0.077
973.20 0.07697
973.30 0.07694
973.40 0.07691
973.50 0.07688
973.60 0.07685
973.70 0.07682
973.80 0.07679
973.90 0.07676
974.00 0.07673
974.10 0.0767
974.20 0.07667
974.30 0.07664
974.40 0.07661
974.50 0.07658
974.60 0.07655
974.70 0.07652
974.80 0.07649
974.90 0.07646
975.00 0.07643
975.10 0.0764
975.20 0.07637
975.30 0.07634
975.40 0.07631
975.50 0.07628
975.60 0.07625
975.70 0.07622
975.80 0.07619
975.90 0.07616
976.00 0.07613
976.10 0.0761
976.20 0.07607
976.30 0.07604
976.40 0.07601
976.50 0.07598
976.60 0.07595
976.70 0.07592
976.80 0.07589
976.90 0.07586
977.00 0.07583
977.10 0.0758
977.20 0.07577
977.30 0.07574
977.40 0.07571
977.50 0.07568
977.60 0.07565
977.70 0.07562
977.80 0.07559
977.90 0.07556
978.00 0.07553
978.10 0.0755
978.20 0.07547
978.30 0.07544
978.40 0.07541
978.50 0.07538
978.60 0.07535
978.70 0.07532
978.80 0.07529
978.90 0.07526
979.00 0.07523
979.10 0.0752
979.20 0.07517
979.30 0.07514
979.40 0.07511
979.50 0.07508
979.60 0.07505
979.70 0.07502
979.80 0.07499
979.90 0.07496
980.00 0.07493
980.10 0.0749
980.20 0.07487
980.30 0.07484
980.40 0.07481
980.50 0.07478
980.60 0.07475
980.70 0.07472
980.80 0.07469
980.90 0.07466
981.00 0.07463
981.10 0.0746
981.20 0.07457
981.30 0.07454
981.40 0.07451
981.50 0.07448
981.60 0.07445
981.70 0.07442
981.80 0.0744
981.90 0.07437
982.00 0.07434
982.10 0.07431
982.20 0.07428
982.30 0.07425
982.40 0.07422
982.50 0.07419
982.60 0.07416
982.70 0.07413
982.80 0.0741
982.90 0.07407
983.00 0.07404
983.10 0.07401
983.20 0.07398
983.30 0.07395
983.40 0.07392
983.50 0.07389
983.60 0.07386
983.70 0.07383
983.80 0.0738
983.90 0.07377
984.00 0.07374
984.10 0.07371
984.20 0.07368
984.30 0.07365
984.40 0.07362
984.50 0.07359
984.60 0.07356
984.70 0.07353
984.80 0.0735
984.90 0.07348
985.00 0.07345
985.10 0.07342
985.20 0.07339
985.30 0.07336
985.40 0.07333
985.50 0.0733
985.60 0.07327
985.70 0.07324
985.80 0.07321
985.90 0.07318
986.00 0.07315
986.10 0.07312
986.20 0.07309
986.30 0.07306
986.40 0.07303
986.50 0.073
986.60 0.07297
986.70 0.07294
986.80 0.07291
986.90 0.07288
987.00 0.07285
987.10 0.07282
987.20 0.07279
987.30 0.07276
987.40 0.07273
987.50 0.0727
987.60 0.07267
987.70 0.07264
987.80 0.07261
987.90 0.07258
988.00 0.07255
988.10 0.07252
988.20 0.07249
988.30 0.07246
988.40 0.07243
988.50 0.07241
988.60 0.07238
988.70 0.07235
988.80 0.07232
988.90 0.07229
989.00 0.07226
989.10 0.07223
989.20 0.0722
989.30 0.07216
989.40 0.07213
989.50 0.0721
989.60 0.07207
989.70 0.07204
989.80 0.07201
989.90 0.07198
990.00 0.07195
990.10 0.07192
990.20 0.07189
990.30 0.07186
990.40 0.07183
990.50 0.0718
990.60 0.07178
990.70 0.07174
990.80 0.07171
990.90 0.07168
991.00 0.07165
991.10 0.07162
991.20 0.07159
991.30 0.07156
991.40 0.07153
991.50 0.0715
991.60 0.07147
991.70 0.07144
991.80 0.07141
991.90 0.07138
992.00 0.07135
992.10 0.07132
992.20 0.07129
992.30 0.07126
992.40 0.07123
992.50 0.07119
992.60 0.07116
992.70 0.07113
992.80 0.0711
992.90 0.07107
993.00 0.07104
993.10 0.07101
993.20 0.07097
993.30 0.07094
993.40 0.07091
993.50 0.07088
993.60 0.07085
993.70 0.07082
993.80 0.07079
993.90 0.07075
994.00 0.07072
994.10 0.07069
994.20 0.07066
994.30 0.07063
994.40 0.0706
994.50 0.07056
994.60 0.07053
994.70 0.0705
994.80 0.07047
994.90 0.07044
995.00 0.0704
995.10 0.07037
995.20 0.07034
995.30 0.0703
995.40 0.07027
995.50 0.07024
995.60 0.07021
995.70 0.07017
995.80 0.07014
995.90 0.0701
996.00 0.07007
996.10 0.07004
996.20 0.07
996.30 0.06997
996.40 0.06993
996.50 0.0699
996.60 0.06987
996.70 0.06983
996.80 0.0698
996.90 0.06977
997.00 0.06973
997.10 0.0697
997.20 0.06966
997.30 0.06963
997.40 0.06959
997.50 0.06956
997.60 0.06952
997.70 0.06948
997.80 0.06945
997.90 0.06941
998.00 0.06937
998.10 0.06933
998.20 0.06929
998.30 0.06926
998.40 0.06922
998.50 0.06918
998.60 0.06914
998.70 0.06911
998.80 0.06907
998.90 0.06903
999.00 0.06899
999.10 0.06896
999.20 0.06892
999.30 0.06888
999.40 0.06884
999.50 0.06881
999.60 0.06877
999.70 0.06873
999.80 0.06869
999.90 0.06864
1000.00 0.0686
1000.10 0.06856
1000.20 0.06852
1000.30 0.06847
1000.40 0.06843
1000.50 0.06839
1000.60 0.06835
1000.70 0.0683
1000.80 0.06826
1000.90 0.06822
1001.00 0.06818
1001.10 0.06813
1001.20 0.06809
1001.30 0.06805
1001.40 0.06801
1001.50 0.06797
1001.60 0.06792
1001.70 0.06788
1001.80 0.06784
1001.90 0.06779
1002.00 0.06775
1002.10 0.0677
1002.20 0.06766
1002.30 0.06762
1002.40 0.06757
1002.50 0.06753
1002.60 0.06749
1002.70 0.06744
1002.80 0.0674
1002.90 0.06736
1003.00 0.06731
1003.10 0.06727
1003.20 0.06723
1003.30 0.06719
1003.40 0.06716
1003.50 0.06712
1003.60 0.06708
1003.70 0.06704
1003.80 0.06701
1003.90 0.06698
1004.00 0.06696
1004.10 0.06694
1004.20 0.06691
1004.30 0.06691
1004.40 0.06691
1004.50 0.06691
1004.60 0.06693
1004.70 0.06696
1004.80 0.06699
1004.90 0.06697
1005.00 0.06696
1005.10 0.06689
1005.20 0.06682
1005.30 0.06675
1005.40 0.06667
1005.50 0.06663
1005.60 0.06659
1005.70 0.06656
1005.80 0.06653
1005.90 0.06649
1006.00 0.06646
1006.10 0.06642
1006.20 0.06641
1006.30 0.0664
1006.40 0.06638
1006.50 0.06637
1006.60 0.06636
1006.70 0.06635
1006.80 0.06634
1006.90 0.06632
1007.00 0.06631
1007.10 0.06631
1007.20 0.0663
1007.30 0.06629
1007.40 0.06628
1007.50 0.06627
1007.60 0.06627
1007.70 0.06626
1007.80 0.06625
1007.90 0.06624
1008.00 0.06623
1008.10 0.06622
1008.20 0.06621
1008.30 0.0662
1008.40 0.06619
1008.50 0.06618
1008.60 0.06617
1008.70 0.06616
1008.80 0.06615
1008.90 0.06614
1009.00 0.06613
1009.10 0.06612
1009.20 0.06611
1009.30 0.06611
1009.40 0.0661
1009.50 0.06609
1009.60 0.06608
1009.70 0.06606
1009.80 0.06605
1009.90 0.06604
1010.00 0.06602
1010.10 0.06601
1010.20 0.06599
1010.30 0.06598
1010.40 0.06597
1010.50 0.06595
1010.60 0.06594
1010.70 0.06592
1010.80 0.06591
1010.90 0.0659
1011.00 0.06588
1011.10 0.06587
1011.20 0.06585
1011.30 0.06584
1011.40 0.06583
1011.50 0.06581
1011.60 0.0658
1011.70 0.06578
1011.80 0.06576
1011.90 0.06575
1012.00 0.06573
1012.10 0.06571
1012.20 0.0657
1012.30 0.06568
1012.40 0.06566
1012.50 0.06564
1012.60 0.06562
1012.70 0.0656
1012.80 0.06559
1012.90 0.06557
1013.00 0.06555
1013.10 0.06553
1013.20 0.06551
1013.30 0.0655
1013.40 0.06548
1013.50 0.06546
1013.60 0.06544
1013.70 0.06542
1013.80 0.0654
1013.90 0.06538
1014.00 0.06536
1014.10 0.06534
1014.20 0.06532
1014.30 0.0653
1014.40 0.06528
1014.50 0.06526
1014.60 0.06524
1014.70 0.06522
1014.80 0.0652
1014.90 0.06518
1015.00 0.06516
1015.10 0.06514
1015.20 0.06512
1015.30 0.0651
1015.40 0.06508
1015.50 0.06505
1015.60 0.06503
1015.70 0.06501
1015.80 0.06499
1015.90 0.06497
1016.00 0.06495
1016.10 0.06493
1016.20 0.06491
1016.30 0.06489
1016.40 0.06486
1016.50 0.06484
1016.60 0.06482
1016.70 0.0648
1016.80 0.06478
1016.90 0.06476
1017.00 0.06474
1017.10 0.06471
1017.20 0.06469
1017.30 0.06467
1017.40 0.06465
1017.50 0.06462
1017.60 0.0646
1017.70 0.06458
1017.80 0.06456
1017.90 0.06453
1018.00 0.06451
1018.10 0.06449
1018.20 0.06447
1018.30 0.06445
1018.40 0.06442
1018.50 0.0644
1018.60 0.06438
1018.70 0.06436
1018.80 0.06433
1018.90 0.06431
1019.00 0.06429
1019.10 0.06426
1019.20 0.06424
1019.30 0.06422
1019.40 0.0642
1019.50 0.06417
1019.60 0.06415
1019.70 0.06413
1019.80 0.0641
1019.90 0.06408
1020.00 0.06406
1020.10 0.06404
1020.20 0.06401
1020.30 0.06399
1020.40 0.06397
1020.50 0.06394
1020.60 0.06392
1020.70 0.0639
1020.80 0.06388
1020.90 0.06385
1021.00 0.06383
1021.10 0.06381
1021.20 0.06378
1021.30 0.06376
1021.40 0.06374
1021.50 0.06371
1021.60 0.06369
1021.70 0.06367
1021.80 0.06364
1021.90 0.06362
1022.00 0.0636
1022.10 0.06357
1022.20 0.06355
1022.30 0.06353
1022.40 0.0635
1022.50 0.06348
1022.60 0.06346
1022.70 0.06343
1022.80 0.06341
1022.90 0.06339
1023.00 0.06336
1023.10 0.06334
1023.20 0.06332
1023.30 0.06329
1023.40 0.06327
1023.50 0.06325
1023.60 0.06323
1023.70 0.0632
1023.80 0.06318
1023.90 0.06316
1024.00 0.06313
1024.10 0.06311
1024.20 0.06309
1024.30 0.06306
1024.40 0.06304
1024.50 0.06302
1024.60 0.06299
1024.70 0.06297
1024.80 0.06295
1024.90 0.06292
1025.00 0.0629
1025.10 0.06288
1025.20 0.06285
1025.30 0.06283
1025.40 0.06281
1025.50 0.06278
1025.60 0.06276
1025.70 0.06274
1025.80 0.06271
1025.90 0.06269
1026.00 0.06267
1026.10 0.06264
1026.20 0.06262
1026.30 0.0626
1026.40 0.06257
1026.50 0.06255
1026.60 0.06253
1026.70 0.0625
1026.80 0.06248
1026.90 0.06246
1027.00 0.06243
1027.10 0.06241
1027.20 0.06239
1027.30 0.06236
1027.40 0.06234
1027.50 0.06232
1027.60 0.0623
1027.70 0.06227
1027.80 0.06225
1027.90 0.06223
1028.00 0.0622
1028.10 0.06218
1028.20 0.06216
1028.30 0.06213
1028.40 0.06211
1028.50 0.06209
1028.60 0.06206
1028.70 0.06204
1028.80 0.06202
1028.90 0.06199
1029.00 0.06197
1029.10 0.06195
1029.20 0.06192
1029.30 0.0619
1029.40 0.06188
1029.50 0.06186
1029.60 0.06183
1029.70 0.06181
1029.80 0.06179
1029.90 0.06176
1030.00 0.06174
1030.10 0.06172
1030.20 0.06169
1030.30 0.06167
1030.40 0.06165
1030.50 0.06162
1030.60 0.0616
1030.70 0.06158
1030.80 0.06156
1030.90 0.06153
1031.00 0.06151
1031.10 0.06149
1031.20 0.06146
1031.30 0.06144
1031.40 0.06142
1031.50 0.06139
1031.60 0.06137
1031.70 0.06135
1031.80 0.06133
1031.90 0.0613
1032.00 0.06128
1032.10 0.06126
1032.20 0.06123
1032.30 0.06121
1032.40 0.06119
1032.50 0.06117
1032.60 0.06114
1032.70 0.06112
1032.80 0.0611
1032.90 0.06107
1033.00 0.06105
1033.10 0.06103
1033.20 0.06101
1033.30 0.06098
1033.40 0.06096
1033.50 0.06094
1033.60 0.06091
1033.70 0.06089
1033.80 0.06087
1033.90 0.06085
1034.00 0.06082
1034.10 0.0608
1034.20 0.06078
1034.30 0.06076
1034.40 0.06073
1034.50 0.06071
1034.60 0.06069
1034.70 0.06066
1034.80 0.06064
1034.90 0.06062
1035.00 0.0606
1035.10 0.06057
1035.20 0.06055
1035.30 0.06053
1035.40 0.06051
1035.50 0.06048
1035.60 0.06046
1035.70 0.06044
1035.80 0.06042
1035.90 0.06039
1036.00 0.06037
1036.10 0.06035
1036.20 0.06033
1036.30 0.0603
1036.40 0.06028
1036.50 0.06026
1036.60 0.06024
1036.70 0.06021
1036.80 0.06019
1036.90 0.06017
1037.00 0.06015
1037.10 0.06012
1037.20 0.0601
1037.30 0.06008
1037.40 0.06006
1037.50 0.06003
1037.60 0.06001
1037.70 0.05999
1037.80 0.05997
1037.90 0.05994
1038.00 0.05992
1038.10 0.0599
1038.20 0.05988
1038.30 0.05985
1038.40 0.05983
1038.50 0.05981
1038.60 0.05979
1038.70 0.05976
1038.80 0.05974
1038.90 0.05972
1039.00 0.0597
1039.10 0.05968
1039.20 0.05965
1039.30 0.05963
1039.40 0.05961
1039.50 0.05959
1039.60 0.05956
1039.70 0.05954
1039.80 0.05952
1039.90 0.0595
1040.00 0.05948
1040.10 0.05945
1040.20 0.05943
1040.30 0.05941
1040.40 0.05939
1040.50 0.05936
1040.60 0.05934
1040.70 0.05932
1040.80 0.0593
1040.90 0.05928
1041.00 0.05925
1041.10 0.05923
1041.20 0.05921
1041.30 0.05919
1041.40 0.05916
1041.50 0.05914
1041.60 0.05912
1041.70 0.0591
1041.80 0.05908
1041.90 0.05905
1042.00 0.05903
1042.10 0.05901
1042.20 0.05899
1042.30 0.05897
1042.40 0.05894
1042.50 0.05892
1042.60 0.0589
1042.70 0.05888
1042.80 0.05886
1042.90 0.05884
1043.00 0.05881
1043.10 0.05879
1043.20 0.05877
1043.30 0.05875
1043.40 0.05873
1043.50 0.0587
1043.60 0.05868
1043.70 0.05866
1043.80 0.05864
1043.90 0.05862
1044.00 0.05859
1044.10 0.05857
1044.20 0.05855
1044.30 0.05853
1044.40 0.05851
1044.50 0.05849
1044.60 0.05846
1044.70 0.05844
1044.80 0.05842
1044.90 0.0584
1045.00 0.05838
1045.10 0.05836
1045.20 0.05833
1045.30 0.05831
1045.40 0.05829
1045.50 0.05827
1045.60 0.05825
1045.70 0.05822
1045.80 0.0582
1045.90 0.05818
1046.00 0.05816
1046.10 0.05814
1046.20 0.05812
1046.30 0.05809
1046.40 0.05807
1046.50 0.05805
1046.60 0.05803
1046.70 0.05801
1046.80 0.05799
1046.90 0.05797
1047.00 0.05794
1047.10 0.05792
1047.20 0.0579
1047.30 0.05788
1047.40 0.05786
1047.50 0.05784
1047.60 0.05781
1047.70 0.05779
1047.80 0.05777
1047.90 0.05775
1048.00 0.05773
1048.10 0.05771
1048.20 0.05769
1048.30 0.05766
1048.40 0.05764
1048.50 0.05762
1048.60 0.0576
1048.70 0.05758
1048.80 0.05756
1048.90 0.05754
1049.00 0.05752
1049.10 0.05749
1049.20 0.05747
1049.30 0.05745
1049.40 0.05743
1049.50 0.05741
1049.60 0.05739
1049.70 0.05737
1049.80 0.05734
1049.90 0.05732
1050.00 0.0573
1050.10 0.05728
1050.20 0.05726
1050.30 0.05724
1050.40 0.05722
1050.50 0.0572
1050.60 0.05717
1050.70 0.05715
1050.80 0.05713
1050.90 0.05711
1051.00 0.05709
1051.10 0.05707
1051.20 0.05705
1051.30 0.05703
1051.40 0.057
1051.50 0.05698
1051.60 0.05696
1051.70 0.05694
1051.80 0.05692
1051.90 0.0569
1052.00 0.05688
1052.10 0.05686
1052.20 0.05684
1052.30 0.05682
1052.40 0.05679
1052.50 0.05677
1052.60 0.05675
1052.70 0.05673
1052.80 0.05671
1052.90 0.05669
1053.00 0.05667
1053.10 0.05665
1053.20 0.05663
1053.30 0.05661
1053.40 0.05658
1053.50 0.05656
1053.60 0.05654
1053.70 0.05652
1053.80 0.0565
1053.90 0.05648
1054.00 0.05646
1054.10 0.05644
1054.20 0.05642
1054.30 0.0564
1054.40 0.05638
1054.50 0.05635
1054.60 0.05633
1054.70 0.05631
1054.80 0.05629
1054.90 0.05627
1055.00 0.05625
1055.10 0.05623
1055.20 0.05621
1055.30 0.05619
1055.40 0.05617
1055.50 0.05615
1055.60 0.05613
1055.70 0.0561
1055.80 0.05608
1055.90 0.05606
1056.00 0.05604
1056.10 0.05602
1056.20 0.056
1056.30 0.05598
1056.40 0.05596
1056.50 0.05594
1056.60 0.05592
1056.70 0.0559
1056.80 0.05588
1056.90 0.05586
1057.00 0.05584
1057.10 0.05581
1057.20 0.05579
1057.30 0.05577
1057.40 0.05575
1057.50 0.05573
1057.60 0.05571
1057.70 0.05569
1057.80 0.05567
1057.90 0.05565
1058.00 0.05563
1058.10 0.05561
1058.20 0.05559
1058.30 0.05557
1058.40 0.05555
1058.50 0.05553
1058.60 0.05551
1058.70 0.05549
1058.80 0.05547
1058.90 0.05545
1059.00 0.05542
1059.10 0.0554
1059.20 0.05538
1059.30 0.05536
1059.40 0.05534
1059.50 0.05532
1059.60 0.0553
1059.70 0.05528
1059.80 0.05526
1059.90 0.05524
1060.00 0.05522
1060.10 0.0552
1060.20 0.05518
1060.30 0.05516
1060.40 0.05514
1060.50 0.05512
1060.60 0.0551
1060.70 0.05508
1060.80 0.05506
1060.90 0.05504
1061.00 0.05502
1061.10 0.055
1061.20 0.05498
1061.30 0.05496
1061.40 0.05494
1061.50 0.05492
1061.60 0.0549
1061.70 0.05488
1061.80 0.05485
1061.90 0.05483
1062.00 0.05481
1062.10 0.05479
1062.20 0.05477
1062.30 0.05475
1062.40 0.05473
1062.50 0.05471
1062.60 0.05469
1062.70 0.05467
1062.80 0.05465
1062.90 0.05463
1063.00 0.05461
1063.10 0.05459
1063.20 0.05457
1063.30 0.05455
1063.40 0.05453
1063.50 0.05451
1063.60 0.05449
1063.70 0.05447
1063.80 0.05445
1063.90 0.05443
1064.00 0.05441
1064.10 0.05439
1064.20 0.05437
1064.30 0.05435
1064.40 0.05433
1064.50 0.05431
1064.60 0.05429
1064.70 0.05427
1064.80 0.05425
1064.90 0.05423
1065.00 0.05421
1065.10 0.05419
1065.20 0.05417
1065.30 0.05415
1065.40 0.05413
1065.50 0.05411
1065.60 0.05409
1065.70 0.05407
1065.80 0.05405
1065.90 0.05403
1066.00 0.05401
1066.10 0.05399
1066.20 0.05397
1066.30 0.05395
1066.40 0.05393
1066.50 0.05391
1066.60 0.05389
1066.70 0.05387
1066.80 0.05385
1066.90 0.05383
1067.00 0.05381
1067.10 0.05379
1067.20 0.05377
1067.30 0.05375
1067.40 0.05373
1067.50 0.05371
1067.60 0.05369
1067.70 0.05367
1067.80 0.05365
1067.90 0.05363
1068.00 0.05361
1068.10 0.05359
1068.20 0.05357
1068.30 0.05355
1068.40 0.05353
1068.50 0.05351
1068.60 0.0535
1068.70 0.05348
1068.80 0.05346
1068.90 0.05344
1069.00 0.05342
1069.10 0.0534
1069.20 0.05338
1069.30 0.05336
1069.40 0.05334
1069.50 0.05332
1069.60 0.0533
1069.70 0.05328
1069.80 0.05326
1069.90 0.05324
1070.00 0.05322
1070.10 0.0532
1070.20 0.05318
1070.30 0.05316
1070.40 0.05314
1070.50 0.05312
1070.60 0.0531
1070.70 0.05308
1070.80 0.05306
1070.90 0.05304
1071.00 0.05302
1071.10 0.053
1071.20 0.05298
1071.30 0.05296
1071.40 0.05294
1071.50 0.05292
1071.60 0.0529
1071.70 0.05288
1071.80 0.05287
1071.90 0.05285
1072.00 0.05283
1072.10 0.05281
1072.20 0.05279
1072.30 0.05277
1072.40 0.05275
1072.50 0.05273
1072.60 0.05271
1072.70 0.05269
1072.80 0.05267
1072.90 0.05265
1073.00 0.05263
1073.10 0.05261
1073.20 0.05259
1073.30 0.05257
1073.40 0.05255
1073.50 0.05253
1073.60 0.05251
1073.70 0.05249
1073.80 0.05247
1073.90 0.05245
1074.00 0.05243
1074.10 0.05241
1074.20 0.05239
1074.30 0.05237
1074.40 0.05235
1074.50 0.05233
1074.60 0.05231
1074.70 0.0523
1074.80 0.05228
1074.90 0.05226
1075.00 0.05224
1075.10 0.05222
1075.20 0.0522
1075.30 0.05218
1075.40 0.05216
1075.50 0.05214
1075.60 0.05212
1075.70 0.0521
1075.80 0.05208
1075.90 0.05206
1076.00 0.05204
1076.10 0.05202
1076.20 0.052
1076.30 0.05198
1076.40 0.05196
1076.50 0.05194
1076.60 0.05192
1076.70 0.0519
1076.80 0.05188
1076.90 0.05186
1077.00 0.05184
1077.10 0.05182
1077.20 0.0518
1077.30 0.05178
1077.40 0.05177
1077.50 0.05175
1077.60 0.05173
1077.70 0.05171
1077.80 0.05169
1077.90 0.05167
1078.00 0.05165
1078.10 0.05163
1078.20 0.05161
1078.30 0.05159
1078.40 0.05157
1078.50 0.05155
1078.60 0.05153
1078.70 0.05151
1078.80 0.05149
1078.90 0.05147
1079.00 0.05145
1079.10 0.05143
1079.20 0.05141
1079.30 0.05139
1079.40 0.05137
1079.50 0.05135
1079.60 0.05133
1079.70 0.05131
1079.80 0.05128
1079.90 0.05126
1080.00 0.05124
1080.10 0.05122
1080.20 0.0512
1080.30 0.05118
1080.40 0.05116
1080.50 0.05114
1080.60 0.05112
1080.70 0.0511
1080.80 0.05108
1080.90 0.05106
1081.00 0.05104
1081.10 0.05102
1081.20 0.051
1081.30 0.05098
1081.40 0.05096
1081.50 0.05094
1081.60 0.05092
1081.70 0.0509
1081.80 0.05088
1081.90 0.05085
1082.00 0.05083
1082.10 0.05081
1082.20 0.05079
1082.30 0.05077
1082.40 0.05075
1082.50 0.05073
1082.60 0.0507
1082.70 0.05068
1082.80 0.05066
1082.90 0.05064
1083.00 0.05062
1083.10 0.0506
1083.20 0.05058
1083.30 0.05055
1083.40 0.05053
1083.50 0.05051
1083.60 0.05049
1083.70 0.05047
1083.80 0.05044
1083.90 0.05042
1084.00 0.0504
1084.10 0.05038
1084.20 0.05035
1084.30 0.05033
1084.40 0.05031
1084.50 0.05029
1084.60 0.05026
1084.70 0.05024
1084.80 0.05021
1084.90 0.05019
1085.00 0.05017
1085.10 0.05014
1085.20 0.05012
1085.30 0.05009
1085.40 0.05007
1085.50 0.05004
1085.60 0.05002
1085.70 0.05
1085.80 0.04997
1085.90 0.04995
1086.00 0.04992
1086.10 0.0499
1086.20 0.04987
1086.30 0.04985
1086.40 0.04983
1086.50 0.0498
1086.60 0.04978
1086.70 0.04975
1086.80 0.04972
1086.90 0.0497
1087.00 0.04967
1087.10 0.04964
1087.20 0.04961
1087.30 0.04959
1087.40 0.04956
1087.50 0.04953
1087.60 0.0495
1087.70 0.04947
1087.80 0.04944
1087.90 0.04941
1088.00 0.04939
1088.10 0.04936
1088.20 0.04933
1088.30 0.0493
1088.40 0.04927
1088.50 0.04924
1088.60 0.04921
1088.70 0.04918
1088.80 0.04914
1088.90 0.04911
1089.00 0.04908
1089.10 0.04904
1089.20 0.04901
1089.30 0.04898
1089.40 0.04894
1089.50 0.04891
1089.60 0.04888
1089.70 0.04885
1089.80 0.04881
1089.90 0.04878
1090.00 0.04875
1090.10 0.04871
1090.20 0.04868
1090.30 0.04865
1090.40 0.04862
1090.50 0.04858
1090.60 0.04855
1090.70 0.04851
1090.80 0.04848
1090.90 0.04844
1091.00 0.0484
1091.10 0.04837
1091.20 0.04833
1091.30 0.0483
1091.40 0.04826
1091.50 0.04823
1091.60 0.04819
1091.70 0.04816
1091.80 0.04812
1091.90 0.04809
1092.00 0.04805
1092.10 0.04803
1092.20 0.048
1092.30 0.04797
1092.40 0.04795
1092.50 0.04792
1092.60 0.04789
1092.70 0.04787
1092.80 0.04786
1092.90 0.04785
1093.00 0.04784
1093.10 0.04783
1093.20 0.04784
1093.30 0.04784
1093.40 0.04786
1093.50 0.04789
1093.60 0.04795
1093.70 0.04801
1093.80 0.04804
1093.90 0.04803
1094.00 0.04794
1094.10 0.04785
1094.20 0.04776
1094.30 0.04768
1094.40 0.04765
1094.50 0.04763
1094.60 0.0476
1094.70 0.04757
1094.80 0.04754
1094.90 0.04751
1095.00 0.04749
1095.10 0.04749
1095.20 0.04748
1095.30 0.04748
1095.40 0.04748
1095.50 0.04748
1095.60 0.04747
1095.70 0.04747
1095.80 0.04747
1095.90 0.04747
1096.00 0.04747
1096.10 0.04746
1096.20 0.04746
1096.30 0.04746
1096.40 0.04746
1096.50 0.04746
1096.60 0.04746
1096.70 0.04746
1096.80 0.04746
1096.90 0.04746
1097.00 0.04746
1097.10 0.04746
1097.20 0.04746
1097.30 0.04746
1097.40 0.04746
1097.50 0.04746
1097.60 0.04746
1097.70 0.04746
1097.80 0.04746
1097.90 0.04746
1098.00 0.04746
1098.10 0.04746
1098.20 0.04746
1098.30 0.04746
1098.40 0.04746
1098.50 0.04746
1098.60 0.04745
1098.70 0.04744
1098.80 0.04744
1098.90 0.04743
1099.00 0.04743
1099.10 0.04742
1099.20 0.04742
1099.30 0.04741
1099.40 0.04741
1099.50 0.0474
1099.60 0.0474
1099.70 0.04739
1099.80 0.04739
1099.90 0.04738
1100.00 0.04737
1100.10 0.04737
1100.20 0.04736
1100.30 0.04736
1100.40 0.04735
1100.50 0.04735
1100.60 0.04734
1100.70 0.04733
1100.80 0.04732
1100.90 0.04731
1101.00 0.0473
1101.10 0.04729
1101.20 0.04728
1101.30 0.04727
1101.40 0.04726
1101.50 0.04725
1101.60 0.04724
1101.70 0.04723
1101.80 0.04722
1101.90 0.04721
1102.00 0.04721
1102.10 0.04719
1102.20 0.04718
1102.30 0.04717
1102.40 0.04716
1102.50 0.04715
1102.60 0.04714
1102.70 0.04713
1102.80 0.04711
1102.90 0.0471
1103.00 0.04709
1103.10 0.04708
1103.20 0.04707
1103.30 0.04705
1103.40 0.04704
1103.50 0.04703
1103.60 0.04702
1103.70 0.047
1103.80 0.04699
1103.90 0.04698
1104.00 0.04696
1104.10 0.04695
1104.20 0.04694
1104.30 0.04692
1104.40 0.04691
1104.50 0.0469
1104.60 0.04688
1104.70 0.04687
1104.80 0.04686
1104.90 0.04684
1105.00 0.04683
1105.10 0.04682
1105.20 0.0468
1105.30 0.04679
1105.40 0.04678
1105.50 0.04676
1105.60 0.04675
1105.70 0.04673
1105.80 0.04672
1105.90 0.0467
1106.00 0.04669
1106.10 0.04668
1106.20 0.04666
1106.30 0.04665
1106.40 0.04663
1106.50 0.04662
1106.60 0.0466
1106.70 0.04659
1106.80 0.04658
1106.90 0.04656
1107.00 0.04655
1107.10 0.04653
1107.20 0.04652
1107.30 0.0465
1107.40 0.04649
1107.50 0.04647
1107.60 0.04646
1107.70 0.04644
1107.80 0.04643
1107.90 0.04641
1108.00 0.0464
1108.10 0.04638
1108.20 0.04637
1108.30 0.04635
1108.40 0.04634
1108.50 0.04632
1108.60 0.04631
1108.70 0.04629
1108.80 0.04628
1108.90 0.04626
1109.00 0.04625
1109.10 0.04623
1109.20 0.04622
1109.30 0.0462
1109.40 0.04619
1109.50 0.04617
1109.60 0.04616
1109.70 0.04614
1109.80 0.04613
1109.90 0.04611
1110.00 0.0461
1110.10 0.04608
1110.20 0.04607
1110.30 0.04605
1110.40 0.04604
1110.50 0.04602
1110.60 0.046
1110.70 0.04599
1110.80 0.04597
1110.90 0.04596
1111.00 0.04594
1111.10 0.04593
1111.20 0.04591
1111.30 0.0459
1111.40 0.04588
1111.50 0.04587
1111.60 0.04585
1111.70 0.04584
1111.80 0.04582
1111.90 0.04581
1112.00 0.04579
1112.10 0.04577
1112.20 0.04576
1112.30 0.04574
1112.40 0.04573
1112.50 0.04571
1112.60 0.0457
1112.70 0.04568
1112.80 0.04567
1112.90 0.04565
1113.00 0.04564
1113.10 0.04562
1113.20 0.0456
1113.30 0.04559
1113.40 0.04557
1113.50 0.04556
1113.60 0.04554
1113.70 0.04553
1113.80 0.04551
1113.90 0.0455
1114.00 0.04548
1114.10 0.04547
1114.20 0.04545
1114.30 0.04543
1114.40 0.04542
1114.50 0.0454
1114.60 0.04539
1114.70 0.04537
1114.80 0.04536
1114.90 0.04534
1115.00 0.04533
1115.10 0.04531
1115.20 0.04529
1115.30 0.04528
1115.40 0.04526
1115.50 0.04525
1115.60 0.04523
1115.70 0.04522
1115.80 0.0452
1115.90 0.04519
1116.00 0.04517
1116.10 0.04516
1116.20 0.04514
1116.30 0.04512
1116.40 0.04511
1116.50 0.04509
1116.60 0.04508
1116.70 0.04506
1116.80 0.04505
1116.90 0.04503
1117.00 0.04502
1117.10 0.045
1117.20 0.04499
1117.30 0.04497
1117.40 0.04496
1117.50 0.04494
1117.60 0.04492
1117.70 0.04491
1117.80 0.04489
1117.90 0.04488
1118.00 0.04486
1118.10 0.04485
1118.20 0.04483
1118.30 0.04482
1118.40 0.0448
1118.50 0.04479
1118.60 0.04477
1118.70 0.04475
1118.80 0.04474
1118.90 0.04472
1119.00 0.04471
1119.10 0.04469
1119.20 0.04468
1119.30 0.04466
1119.40 0.04465
1119.50 0.04463
1119.60 0.04462
1119.70 0.0446
1119.80 0.04459
1119.90 0.04457
1120.00 0.04456
1120.10 0.04454
1120.20 0.04452
1120.30 0.04451
1120.40 0.04449
1120.50 0.04448
1120.60 0.04446
1120.70 0.04445
1120.80 0.04443
1120.90 0.04442
1121.00 0.0444
1121.10 0.04439
1121.20 0.04437
1121.30 0.04436
1121.40 0.04434
1121.50 0.04433
1121.60 0.04431
1121.70 0.0443
1121.80 0.04428
1121.90 0.04426
1122.00 0.04425
1122.10 0.04423
1122.20 0.04422
1122.30 0.0442
1122.40 0.04419
1122.50 0.04417
1122.60 0.04416
1122.70 0.04414
1122.80 0.04413
1122.90 0.04411
1123.00 0.0441
1123.10 0.04408
1123.20 0.04407
1123.30 0.04405
1123.40 0.04404
1123.50 0.04402
1123.60 0.04401
1123.70 0.04399
1123.80 0.04398
1123.90 0.04396
1124.00 0.04395
1124.10 0.04393
1124.20 0.04392
1124.30 0.0439
1124.40 0.04389
1124.50 0.04387
1124.60 0.04386
1124.70 0.04384
1124.80 0.04383
1124.90 0.04381
1125.00 0.04379
1125.10 0.04378
1125.20 0.04376
1125.30 0.04375
1125.40 0.04373
1125.50 0.04372
1125.60 0.0437
1125.70 0.04369
1125.80 0.04367
1125.90 0.04366
1126.00 0.04364
1126.10 0.04363
1126.20 0.04361
1126.30 0.0436
1126.40 0.04358
1126.50 0.04357
1126.60 0.04355
1126.70 0.04354
1126.80 0.04352
1126.90 0.04351
1127.00 0.04349
1127.10 0.04348
1127.20 0.04346
1127.30 0.04345
1127.40 0.04343
1127.50 0.04342
1127.60 0.0434
1127.70 0.04339
1127.80 0.04337
1127.90 0.04336
1128.00 0.04334
1128.10 0.04333
1128.20 0.04332
1128.30 0.0433
1128.40 0.04329
1128.50 0.04327
1128.60 0.04326
1128.70 0.04324
1128.80 0.04323
1128.90 0.04321
1129.00 0.0432
1129.10 0.04318
1129.20 0.04317
1129.30 0.04315
1129.40 0.04314
1129.50 0.04312
1129.60 0.04311
1129.70 0.04309
1129.80 0.04308
1129.90 0.04306
1130.00 0.04305
1130.10 0.04303
1130.20 0.04302
1130.30 0.043
1130.40 0.04299
1130.50 0.04297
1130.60 0.04296
1130.70 0.04294
1130.80 0.04293
1130.90 0.04291
1131.00 0.0429
1131.10 0.04289
1131.20 0.04287
1131.30 0.04286
1131.40 0.04284
1131.50 0.04283
1131.60 0.04281
1131.70 0.0428
1131.80 0.04278
1131.90 0.04277
1132.00 0.04275
1132.10 0.04274
1132.20 0.04272
1132.30 0.04271
1132.40 0.04269
1132.50 0.04268
1132.60 0.04266
1132.70 0.04265
1132.80 0.04264
1132.90 0.04262
1133.00 0.04261
1133.10 0.04259
1133.20 0.04258
1133.30 0.04256
1133.40 0.04255
1133.50 0.04253
1133.60 0.04252
1133.70 0.0425
1133.80 0.04249
1133.90 0.04248
1134.00 0.04246
1134.10 0.04245
1134.20 0.04243
1134.30 0.04242
1134.40 0.0424
1134.50 0.04239
1134.60 0.04237
1134.70 0.04236
1134.80 0.04234
1134.90 0.04233
1135.00 0.04232
1135.10 0.0423
1135.20 0.04229
1135.30 0.04227
1135.40 0.04226
1135.50 0.04224
1135.60 0.04223
1135.70 0.04221
1135.80 0.0422
1135.90 0.04218
1136.00 0.04217
1136.10 0.04216
1136.20 0.04214
1136.30 0.04213
1136.40 0.04211
1136.50 0.0421
1136.60 0.04208
1136.70 0.04207
1136.80 0.04205
1136.90 0.04204
1137.00 0.04203
1137.10 0.04201
1137.20 0.042
1137.30 0.04198
1137.40 0.04197
1137.50 0.04195
1137.60 0.04194
1137.70 0.04193
1137.80 0.04191
1137.90 0.0419
1138.00 0.04188
1138.10 0.04187
1138.20 0.04185
1138.30 0.04184
1138.40 0.04183
1138.50 0.04181
1138.60 0.0418
1138.70 0.04178
1138.80 0.04177
1138.90 0.04175
1139.00 0.04174
1139.10 0.04173
1139.20 0.04171
1139.30 0.0417
1139.40 0.04168
1139.50 0.04167
1139.60 0.04165
1139.70 0.04164
1139.80 0.04163
1139.90 0.04161
1140.00 0.0416
1140.10 0.04158
1140.20 0.04157
1140.30 0.04155
1140.40 0.04154
1140.50 0.04153
1140.60 0.04151
1140.70 0.0415
1140.80 0.04148
1140.90 0.04147
1141.00 0.04146
1141.10 0.04144
1141.20 0.04143
1141.30 0.04141
1141.40 0.0414
1141.50 0.04138
1141.60 0.04137
1141.70 0.04136
1141.80 0.04134
1141.90 0.04133
1142.00 0.04131
1142.10 0.0413
1142.20 0.04129
1142.30 0.04127
1142.40 0.04126
1142.50 0.04124
1142.60 0.04123
1142.70 0.04122
1142.80 0.0412
1142.90 0.04119
1143.00 0.04117
1143.10 0.04116
1143.20 0.04115
1143.30 0.04113
1143.40 0.04112
1143.50 0.0411
1143.60 0.04109
1143.70 0.04108
1143.80 0.04106
1143.90 0.04105
1144.00 0.04103
1144.10 0.04102
1144.20 0.04101
1144.30 0.04099
1144.40 0.04098
1144.50 0.04096
1144.60 0.04095
1144.70 0.04094
1144.80 0.04092
1144.90 0.04091
1145.00 0.04089
1145.10 0.04088
1145.20 0.04087
1145.30 0.04085
1145.40 0.04084
1145.50 0.04083
1145.60 0.04081
1145.70 0.0408
1145.80 0.04078
1145.90 0.04077
1146.00 0.04076
1146.10 0.04074
1146.20 0.04073
1146.30 0.04071
1146.40 0.0407
1146.50 0.04069
1146.60 0.04067
1146.70 0.04066
1146.80 0.04064
1146.90 0.04063
1147.00 0.04062
1147.10 0.0406
1147.20 0.04059
1147.30 0.04058
1147.40 0.04056
1147.50 0.04055
1147.60 0.04053
1147.70 0.04052
1147.80 0.04051
1147.90 0.04049
1148.00 0.04048
1148.10 0.04047
1148.20 0.04045
1148.30 0.04044
1148.40 0.04042
1148.50 0.04041
1148.60 0.0404
1148.70 0.04038
1148.80 0.04037
1148.90 0.04036
1149.00 0.04034
1149.10 0.04033
1149.20 0.04032
1149.30 0.0403
1149.40 0.04029
1149.50 0.04027
1149.60 0.04026
1149.70 0.04025
1149.80 0.04023
1149.90 0.04022
1150.00 0.04021
1150.10 0.04019
1150.20 0.04018
1150.30 0.04017
1150.40 0.04015
1150.50 0.04014
1150.60 0.04012
1150.70 0.04011
1150.80 0.0401
1150.90 0.04008
1151.00 0.04007
1151.10 0.04006
1151.20 0.04004
1151.30 0.04003
1151.40 0.04002
1151.50 0.04
1151.60 0.03999
1151.70 0.03997
1151.80 0.03996
1151.90 0.03995
1152.00 0.03993
1152.10 0.03992
1152.20 0.03991
1152.30 0.03989
1152.40 0.03988
1152.50 0.03987
1152.60 0.03985
1152.70 0.03984
1152.80 0.03983
1152.90 0.03981
1153.00 0.0398
1153.10 0.03979
1153.20 0.03977
1153.30 0.03976
1153.40 0.03975
1153.50 0.03973
1153.60 0.03972
1153.70 0.03971
1153.80 0.03969
1153.90 0.03968
1154.00 0.03967
1154.10 0.03965
1154.20 0.03964
1154.30 0.03963
1154.40 0.03961
1154.50 0.0396
1154.60 0.03959
1154.70 0.03957
1154.80 0.03956
1154.90 0.03955
1155.00 0.03953
1155.10 0.03952
1155.20 0.03951
1155.30 0.03949
1155.40 0.03948
1155.50 0.03947
1155.60 0.03945
1155.70 0.03944
1155.80 0.03943
1155.90 0.03941
1156.00 0.0394
1156.10 0.03939
1156.20 0.03937
1156.30 0.03936
1156.40 0.03935
1156.50 0.03933
1156.60 0.03932
1156.70 0.03931
1156.80 0.03929
1156.90 0.03928
1157.00 0.03927
1157.10 0.03925
1157.20 0.03924
1157.30 0.03923
1157.40 0.03921
1157.50 0.0392
1157.60 0.03919
1157.70 0.03917
1157.80 0.03916
1157.90 0.03915
1158.00 0.03913
1158.10 0.03912
1158.20 0.03911
1158.30 0.03909
1158.40 0.03908
1158.50 0.03907
1158.60 0.03906
1158.70 0.03904
1158.80 0.03903
1158.90 0.03902
1159.00 0.039
1159.10 0.03899
1159.20 0.03898
1159.30 0.03896
1159.40 0.03895
1159.50 0.03894
1159.60 0.03892
1159.70 0.03891
1159.80 0.0389
1159.90 0.03888
1160.00 0.03887
1160.10 0.03886
1160.20 0.03885
1160.30 0.03883
1160.40 0.03882
1160.50 0.03881
1160.60 0.03879
1160.70 0.03878
1160.80 0.03877
1160.90 0.03875
1161.00 0.03874
1161.10 0.03873
1161.20 0.03872
1161.30 0.0387
1161.40 0.03869
1161.50 0.03868
1161.60 0.03866
1161.70 0.03865
1161.80 0.03864
1161.90 0.03862
1162.00 0.03861
1162.10 0.0386
1162.20 0.03859
1162.30 0.03857
1162.40 0.03856
1162.50 0.03855
1162.60 0.03853
1162.70 0.03852
1162.80 0.03851
1162.90 0.03849
1163.00 0.03848
1163.10 0.03847
1163.20 0.03846
1163.30 0.03844
1163.40 0.03843
1163.50 0.03842
1163.60 0.0384
1163.70 0.03839
1163.80 0.03838
1163.90 0.03837
1164.00 0.03835
1164.10 0.03834
1164.20 0.03833
1164.30 0.03831
1164.40 0.0383
1164.50 0.03829
1164.60 0.03828
1164.70 0.03826
1164.80 0.03825
1164.90 0.03824
1165.00 0.03823
1165.10 0.03821
1165.20 0.0382
1165.30 0.03819
1165.40 0.03817
1165.50 0.03816
1165.60 0.03815
1165.70 0.03814
1165.80 0.03812
1165.90 0.03811
1166.00 0.0381
1166.10 0.03808
1166.20 0.03807
1166.30 0.03806
1166.40 0.03805
1166.50 0.03803
1166.60 0.03802
1166.70 0.03801
1166.80 0.038
1166.90 0.03798
1167.00 0.03797
1167.10 0.03796
1167.20 0.03794
1167.30 0.03793
1167.40 0.03792
1167.50 0.03791
1167.60 0.03789
1167.70 0.03788
1167.80 0.03787
1167.90 0.03786
1168.00 0.03784
1168.10 0.03783
1168.20 0.03782
1168.30 0.03781
1168.40 0.03779
1168.50 0.03778
1168.60 0.03777
1168.70 0.03776
1168.80 0.03774
1168.90 0.03773
1169.00 0.03772
1169.10 0.03771
1169.20 0.03769
1169.30 0.03768
1169.40 0.03767
1169.50 0.03765
1169.60 0.03764
1169.70 0.03763
1169.80 0.03762
1169.90 0.0376
1170.00 0.03759
1170.10 0.03758
1170.20 0.03757
1170.30 0.03755
1170.40 0.03754
1170.50 0.03753
1170.60 0.03752
1170.70 0.0375
1170.80 0.03749
1170.90 0.03748
1171.00 0.03747
1171.10 0.03745
1171.20 0.03744
1171.30 0.03743
1171.40 0.03742
1171.50 0.0374
1171.60 0.03739
1171.70 0.03738
1171.80 0.03737
1171.90 0.03735
1172.00 0.03734
1172.10 0.03733
1172.20 0.03732
1172.30 0.0373
1172.40 0.03729
1172.50 0.03728
1172.60 0.03727
1172.70 0.03726
1172.80 0.03724
1172.90 0.03723
1173.00 0.03722
1173.10 0.03721
1173.20 0.03719
1173.30 0.03718
1173.40 0.03717
1173.50 0.03716
1173.60 0.03714
1173.70 0.03713
1173.80 0.03712
1173.90 0.03711
1174.00 0.0371
1174.10 0.03708
1174.20 0.03707
1174.30 0.03706
1174.40 0.03705
1174.50 0.03703
1174.60 0.03702
1174.70 0.03701
1174.80 0.037
1174.90 0.03698
1175.00 0.03697
1175.10 0.03696
1175.20 0.03695
1175.30 0.03694
1175.40 0.03692
1175.50 0.03691
1175.60 0.0369
1175.70 0.03689
1175.80 0.03687
1175.90 0.03686
1176.00 0.03685
1176.10 0.03684
1176.20 0.03682
1176.30 0.03681
1176.40 0.0368
1176.50 0.03679
1176.60 0.03678
1176.70 0.03676
1176.80 0.03675
1176.90 0.03674
1177.00 0.03673
1177.10 0.03671
1177.20 0.0367
1177.30 0.03669
1177.40 0.03668
1177.50 0.03667
1177.60 0.03665
1177.70 0.03664
1177.80 0.03663
1177.90 0.03662
1178.00 0.03661
1178.10 0.03659
1178.20 0.03658
1178.30 0.03657
1178.40 0.03656
1178.50 0.03655
1178.60 0.03653
1178.70 0.03652
1178.80 0.03651
1178.90 0.0365
1179.00 0.03649
1179.10 0.03647
1179.20 0.03646
1179.30 0.03645
1179.40 0.03644
1179.50 0.03642
1179.60 0.03641
1179.70 0.0364
1179.80 0.03639
1179.90 0.03638
1180.00 0.03636
1180.10 0.03635
1180.20 0.03634
1180.30 0.03633
1180.40 0.03632
1180.50 0.0363
1180.60 0.03629
1180.70 0.03628
1180.80 0.03627
1180.90 0.03626
1181.00 0.03624
1181.10 0.03623
1181.20 0.03622
1181.30 0.03621
1181.40 0.0362
1181.50 0.03618
1181.60 0.03617
1181.70 0.03616
1181.80 0.03615
1181.90 0.03614
1182.00 0.03612
1182.10 0.03611
1182.20 0.0361
1182.30 0.03609
1182.40 0.03608
1182.50 0.03607
1182.60 0.03605
1182.70 0.03604
1182.80 0.03603
1182.90 0.03602
1183.00 0.03601
1183.10 0.03599
1183.20 0.03598
1183.30 0.03597
1183.40 0.03596
1183.50 0.03595
1183.60 0.03593
1183.70 0.03592
1183.80 0.03591
1183.90 0.0359
1184.00 0.03589
1184.10 0.03588
1184.20 0.03586
1184.30 0.03585
1184.40 0.03584
1184.50 0.03583
1184.60 0.03582
1184.70 0.0358
1184.80 0.03579
1184.90 0.03578
1185.00 0.03577
1185.10 0.03576
1185.20 0.03575
1185.30 0.03573
1185.40 0.03572
1185.50 0.03571
1185.60 0.0357
1185.70 0.03569
1185.80 0.03568
1185.90 0.03566
1186.00 0.03565
1186.10 0.03564
1186.20 0.03563
1186.30 0.03562
1186.40 0.0356
1186.50 0.03559
1186.60 0.03558
1186.70 0.03557
1186.80 0.03556
1186.90 0.03555
1187.00 0.03553
1187.10 0.03552
1187.20 0.03551
1187.30 0.0355
1187.40 0.03549
1187.50 0.03548
1187.60 0.03546
1187.70 0.03545
1187.80 0.03544
1187.90 0.03543
1188.00 0.03542
1188.10 0.03541
1188.20 0.0354
1188.30 0.03538
1188.40 0.03537
1188.50 0.03536
1188.60 0.03535
1188.70 0.03534
1188.80 0.03533
1188.90 0.03531
1189.00 0.0353
1189.10 0.03529
1189.20 0.03528
1189.30 0.03527
1189.40 0.03526
1189.50 0.03524
1189.60 0.03523
1189.70 0.03522
1189.80 0.03521
1189.90 0.0352
1190.00 0.03519
1190.10 0.03518
1190.20 0.03516
1190.30 0.03515
1190.40 0.03514
1190.50 0.03513
1190.60 0.03512
1190.70 0.03511
1190.80 0.03509
1190.90 0.03508
1191.00 0.03507
1191.10 0.03506
1191.20 0.03505
1191.30 0.03504
1191.40 0.03503
1191.50 0.03501
1191.60 0.035
1191.70 0.03499
1191.80 0.03498
1191.90 0.03497
1192.00 0.03496
1192.10 0.03495
1192.20 0.03493
1192.30 0.03492
1192.40 0.03491
1192.50 0.0349
1192.60 0.03489
1192.70 0.03488
1192.80 0.03487
1192.90 0.03485
1193.00 0.03484
1193.10 0.03483
1193.20 0.03482
1193.30 0.03481
1193.40 0.0348
1193.50 0.03479
1193.60 0.03477
1193.70 0.03476
1193.80 0.03475
1193.90 0.03474
1194.00 0.03473
1194.10 0.03472
1194.20 0.03471
1194.30 0.03469
1194.40 0.03468
1194.50 0.03467
1194.60 0.03466
1194.70 0.03465
1194.80 0.03464
1194.90 0.03463
1195.00 0.03462
1195.10 0.0346
1195.20 0.03459
1195.30 0.03458
1195.40 0.03457
1195.50 0.03456
1195.60 0.03455
1195.70 0.03454
1195.80 0.03453
1195.90 0.03451
1196.00 0.0345
1196.10 0.03449
1196.20 0.03448
1196.30 0.03447
1196.40 0.03446
1196.50 0.03445
1196.60 0.03444
1196.70 0.03442
1196.80 0.03441
1196.90 0.0344
1197.00 0.03439
1197.10 0.03438
1197.20 0.03437
1197.30 0.03436
1197.40 0.03435
1197.50 0.03433
1197.60 0.03432
1197.70 0.03431
1197.80 0.0343
1197.90 0.03429
1198.00 0.03428
1198.10 0.03427
1198.20 0.03426
1198.30 0.03425
1198.40 0.03423
1198.50 0.03422
1198.60 0.03421
1198.70 0.0342
1198.80 0.03419
1198.90 0.03418
1199.00 0.03417
1199.10 0.03416
1199.20 0.03414
1199.30 0.03413
1199.40 0.03412
1199.50 0.03411
1199.60 0.0341
1199.70 0.03409
1199.80 0.03408
1199.90 0.03407
1200.00 0
