# Version 2.1 - nm, norm@500 to 1, cut digits, bergeron_2000_75.dat_2000
# Wavelength(nm)  Flambda(ergs/cm^s/s/nm)
300.00 0.02828
300.10 0.02839
300.20 0.0285
300.30 0.0286
300.40 0.02871
300.50 0.02882
300.60 0.02893
300.70 0.02904
300.80 0.02915
300.90 0.02925
301.00 0.02936
301.10 0.02947
301.20 0.02958
301.30 0.02968
301.40 0.02979
301.50 0.0299
301.60 0.03001
301.70 0.03011
301.80 0.03022
301.90 0.03033
302.00 0.03044
302.10 0.03055
302.20 0.03066
302.30 0.03078
302.40 0.03089
302.50 0.03101
302.60 0.03112
302.70 0.03123
302.80 0.03135
302.90 0.03146
303.00 0.03158
303.10 0.03169
303.20 0.0318
303.30 0.03192
303.40 0.03203
303.50 0.03214
303.60 0.03225
303.70 0.03237
303.80 0.03248
303.90 0.03259
304.00 0.03271
304.10 0.03283
304.20 0.03295
304.30 0.03307
304.40 0.03319
304.50 0.03331
304.60 0.03343
304.70 0.03355
304.80 0.03367
304.90 0.03379
305.00 0.03391
305.10 0.03403
305.20 0.03415
305.30 0.03427
305.40 0.03439
305.50 0.03451
305.60 0.03463
305.70 0.03474
305.80 0.03486
305.90 0.03498
306.00 0.0351
306.10 0.03523
306.20 0.03535
306.30 0.03548
306.40 0.03561
306.50 0.03574
306.60 0.03586
306.70 0.03599
306.80 0.03611
306.90 0.03624
307.00 0.03637
307.10 0.03649
307.20 0.03662
307.30 0.03674
307.40 0.03687
307.50 0.03699
307.60 0.03712
307.70 0.03724
307.80 0.03737
307.90 0.03749
308.00 0.03762
308.10 0.03775
308.20 0.03789
308.30 0.03802
308.40 0.03815
308.50 0.03829
308.60 0.03842
308.70 0.03855
308.80 0.03869
308.90 0.03882
309.00 0.03895
309.10 0.03908
309.20 0.03921
309.30 0.03935
309.40 0.03948
309.50 0.03961
309.60 0.03974
309.70 0.03987
309.80 0.04
309.90 0.04014
310.00 0.04027
310.10 0.04041
310.20 0.04055
310.30 0.04069
310.40 0.04083
310.50 0.04097
310.60 0.04111
310.70 0.04125
310.80 0.04139
310.90 0.04153
311.00 0.04167
311.10 0.04181
311.20 0.04195
311.30 0.04209
311.40 0.04223
311.50 0.04237
311.60 0.0425
311.70 0.04264
311.80 0.04278
311.90 0.04292
312.00 0.04306
312.10 0.04319
312.20 0.04334
312.30 0.04348
312.40 0.04363
312.50 0.04377
312.60 0.04392
312.70 0.04407
312.80 0.04422
312.90 0.04436
313.00 0.04451
313.10 0.04465
313.20 0.0448
313.30 0.04495
313.40 0.04509
313.50 0.04524
313.60 0.04538
313.70 0.04553
313.80 0.04567
313.90 0.04582
314.00 0.04597
314.10 0.04612
314.20 0.04627
314.30 0.04643
314.40 0.04658
314.50 0.04673
314.60 0.04689
314.70 0.04704
314.80 0.04719
314.90 0.04735
315.00 0.0475
315.10 0.04765
315.20 0.0478
315.30 0.04796
315.40 0.04811
315.50 0.04826
315.60 0.04841
315.70 0.04856
315.80 0.04872
315.90 0.04887
316.00 0.04902
316.10 0.04918
316.20 0.04934
316.30 0.0495
316.40 0.04966
316.50 0.04982
316.60 0.04998
316.70 0.05014
316.80 0.05031
316.90 0.05047
317.00 0.05063
317.10 0.05078
317.20 0.05094
317.30 0.0511
317.40 0.05126
317.50 0.05142
317.60 0.05158
317.70 0.05174
317.80 0.0519
317.90 0.05206
318.00 0.05222
318.10 0.05238
318.20 0.05255
318.30 0.05272
318.40 0.05289
318.50 0.05306
318.60 0.05322
318.70 0.05339
318.80 0.05356
318.90 0.05373
319.00 0.05389
319.10 0.05406
319.20 0.05423
319.30 0.0544
319.40 0.05456
319.50 0.05473
319.60 0.05489
319.70 0.05506
319.80 0.05523
319.90 0.05539
320.00 0.05556
320.10 0.05574
320.20 0.05591
320.30 0.05608
320.40 0.05626
320.50 0.05644
320.60 0.05661
320.70 0.05679
320.80 0.05696
320.90 0.05714
321.00 0.05731
321.10 0.05749
321.20 0.05766
321.30 0.05783
321.40 0.05801
321.50 0.05818
321.60 0.05835
321.70 0.05853
321.80 0.0587
321.90 0.05887
322.00 0.05905
322.10 0.05923
322.20 0.05941
322.30 0.0596
322.40 0.05978
322.50 0.05996
322.60 0.06015
322.70 0.06033
322.80 0.06051
322.90 0.06069
323.00 0.06088
323.10 0.06106
323.20 0.06124
323.30 0.06142
323.40 0.0616
323.50 0.06178
323.60 0.06196
323.70 0.06215
323.80 0.06233
323.90 0.06251
324.00 0.06269
324.10 0.06288
324.20 0.06307
324.30 0.06326
324.40 0.06345
324.50 0.06364
324.60 0.06383
324.70 0.06403
324.80 0.06422
324.90 0.06441
325.00 0.0646
325.10 0.06479
325.20 0.06498
325.30 0.06516
325.40 0.06535
325.50 0.06554
325.60 0.06573
325.70 0.06592
325.80 0.06611
325.90 0.0663
326.00 0.06649
326.10 0.06668
326.20 0.06688
326.30 0.06708
326.40 0.06728
326.50 0.06748
326.60 0.06768
326.70 0.06788
326.80 0.06807
326.90 0.06827
327.00 0.06847
327.10 0.06867
327.20 0.06886
327.30 0.06906
327.40 0.06926
327.50 0.06945
327.60 0.06965
327.70 0.06985
327.80 0.07004
327.90 0.07024
328.00 0.07044
328.10 0.07064
328.20 0.07085
328.30 0.07106
328.40 0.07126
328.50 0.07147
328.60 0.07168
328.70 0.07188
328.80 0.07209
328.90 0.0723
329.00 0.0725
329.10 0.07271
329.20 0.07291
329.30 0.07312
329.40 0.07332
329.50 0.07353
329.60 0.07373
329.70 0.07394
329.80 0.07414
329.90 0.07434
330.00 0.07455
330.10 0.07476
330.20 0.07498
330.30 0.07519
330.40 0.07541
330.50 0.07562
330.60 0.07584
330.70 0.07605
330.80 0.07627
330.90 0.07648
331.00 0.0767
331.10 0.07691
331.20 0.07712
331.30 0.07734
331.40 0.07755
331.50 0.07776
331.60 0.07797
331.70 0.07818
331.80 0.0784
331.90 0.07861
332.00 0.07882
332.10 0.07904
332.20 0.07927
332.30 0.07949
332.40 0.07971
332.50 0.07994
332.60 0.08016
332.70 0.08038
332.80 0.08061
332.90 0.08083
333.00 0.08105
333.10 0.08127
333.20 0.08149
333.30 0.08171
333.40 0.08194
333.50 0.08216
333.60 0.08238
333.70 0.0826
333.80 0.08282
333.90 0.08304
334.00 0.08326
334.10 0.08349
334.20 0.08372
334.30 0.08395
334.40 0.08419
334.50 0.08442
334.60 0.08465
334.70 0.08488
334.80 0.08511
334.90 0.08534
335.00 0.08557
335.10 0.0858
335.20 0.08603
335.30 0.08626
335.40 0.08649
335.50 0.08672
335.60 0.08695
335.70 0.08718
335.80 0.08741
335.90 0.08763
336.00 0.08786
336.10 0.0881
336.20 0.08834
336.30 0.08858
336.40 0.08882
336.50 0.08906
336.60 0.0893
336.70 0.08954
336.80 0.08978
336.90 0.09002
337.00 0.09026
337.10 0.0905
337.20 0.09074
337.30 0.09098
337.40 0.09121
337.50 0.09145
337.60 0.09169
337.70 0.09192
337.80 0.09216
337.90 0.0924
338.00 0.09263
338.10 0.09288
338.20 0.09313
338.30 0.09338
338.40 0.09363
338.50 0.09388
338.60 0.09413
338.70 0.09438
338.80 0.09462
338.90 0.09487
339.00 0.09512
339.10 0.09537
339.20 0.09561
339.30 0.09586
339.40 0.0961
339.50 0.09635
339.60 0.0966
339.70 0.09684
339.80 0.09709
339.90 0.09733
340.00 0.09757
340.10 0.09783
340.20 0.09809
340.30 0.09835
340.40 0.09861
340.50 0.09887
340.60 0.09912
340.70 0.09938
340.80 0.09964
340.90 0.09989
341.00 0.1001
341.10 0.1004
341.20 0.1007
341.30 0.1009
341.40 0.1012
341.50 0.1014
341.60 0.1017
341.70 0.1019
341.80 0.1022
341.90 0.1024
342.00 0.1027
342.10 0.103
342.20 0.1032
342.30 0.1035
342.40 0.1038
342.50 0.104
342.60 0.1043
342.70 0.1046
342.80 0.1048
342.90 0.1051
343.00 0.1054
343.10 0.1056
343.20 0.1059
343.30 0.1061
343.40 0.1064
343.50 0.1067
343.60 0.1069
343.70 0.1072
343.80 0.1075
343.90 0.1077
344.00 0.108
344.10 0.1083
344.20 0.1085
344.30 0.1088
344.40 0.1091
344.50 0.1094
344.60 0.1096
344.70 0.1099
344.80 0.1102
344.90 0.1105
345.00 0.1107
345.10 0.111
345.20 0.1113
345.30 0.1115
345.40 0.1118
345.50 0.1121
345.60 0.1124
345.70 0.1126
345.80 0.1129
345.90 0.1132
346.00 0.1134
346.10 0.1137
346.20 0.114
346.30 0.1143
346.40 0.1146
346.50 0.1149
346.60 0.1152
346.70 0.1154
346.80 0.1157
346.90 0.116
347.00 0.1163
347.10 0.1166
347.20 0.1168
347.30 0.1171
347.40 0.1174
347.50 0.1177
347.60 0.118
347.70 0.1183
347.80 0.1185
347.90 0.1188
348.00 0.1191
348.10 0.1194
348.20 0.1197
348.30 0.12
348.40 0.1203
348.50 0.1206
348.60 0.1209
348.70 0.1211
348.80 0.1214
348.90 0.1217
349.00 0.122
349.10 0.1223
349.20 0.1226
349.30 0.1229
349.40 0.1232
349.50 0.1235
349.60 0.1238
349.70 0.124
349.80 0.1243
349.90 0.1246
350.00 0.1249
350.10 0.1252
350.20 0.1255
350.30 0.1258
350.40 0.1261
350.50 0.1264
350.60 0.1267
350.70 0.127
350.80 0.1273
350.90 0.1276
351.00 0.1279
351.10 0.1282
351.20 0.1285
351.30 0.1288
351.40 0.1291
351.50 0.1294
351.60 0.1297
351.70 0.13
351.80 0.1303
351.90 0.1306
352.00 0.1309
352.10 0.1312
352.20 0.1315
352.30 0.1318
352.40 0.1322
352.50 0.1325
352.60 0.1328
352.70 0.1331
352.80 0.1334
352.90 0.1337
353.00 0.134
353.10 0.1343
353.20 0.1346
353.30 0.1349
353.40 0.1353
353.50 0.1356
353.60 0.1359
353.70 0.1362
353.80 0.1365
353.90 0.1368
354.00 0.1371
354.10 0.1374
354.20 0.1377
354.30 0.1381
354.40 0.1384
354.50 0.1387
354.60 0.139
354.70 0.1393
354.80 0.1397
354.90 0.14
355.00 0.1403
355.10 0.1406
355.20 0.1409
355.30 0.1413
355.40 0.1416
355.50 0.1419
355.60 0.1422
355.70 0.1425
355.80 0.1428
355.90 0.1431
356.00 0.1435
356.10 0.1438
356.20 0.1441
356.30 0.1445
356.40 0.1448
356.50 0.1451
356.60 0.1454
356.70 0.1458
356.80 0.1461
356.90 0.1464
357.00 0.1468
357.10 0.1471
357.20 0.1474
357.30 0.1477
357.40 0.1481
357.50 0.1484
357.60 0.1487
357.70 0.149
357.80 0.1494
357.90 0.1497
358.00 0.15
358.10 0.1503
358.20 0.1507
358.30 0.151
358.40 0.1514
358.50 0.1517
358.60 0.152
358.70 0.1524
358.80 0.1527
358.90 0.1531
359.00 0.1534
359.10 0.1537
359.20 0.1541
359.30 0.1544
359.40 0.1547
359.50 0.1551
359.60 0.1554
359.70 0.1557
359.80 0.1561
359.90 0.1564
360.00 0.1567
360.10 0.1571
360.20 0.1574
360.30 0.1578
360.40 0.1581
360.50 0.1585
360.60 0.1588
360.70 0.1592
360.80 0.1595
360.90 0.1599
361.00 0.1602
361.10 0.1606
361.20 0.1609
361.30 0.1613
361.40 0.1616
361.50 0.1619
361.60 0.1623
361.70 0.1626
361.80 0.163
361.90 0.1633
362.00 0.1637
362.10 0.164
362.20 0.1644
362.30 0.1647
362.40 0.1651
362.50 0.1654
362.60 0.1658
362.70 0.1661
362.80 0.1665
362.90 0.1668
363.00 0.1672
363.10 0.1675
363.20 0.1679
363.30 0.1683
363.40 0.1686
363.50 0.169
363.60 0.1693
363.70 0.1697
363.80 0.1701
363.90 0.1704
364.00 0.1708
364.10 0.1711
364.20 0.1715
364.30 0.1718
364.40 0.1722
364.50 0.1726
364.60 0.1729
364.70 0.1733
364.80 0.1737
364.90 0.174
365.00 0.1744
365.10 0.1748
365.20 0.1751
365.30 0.1755
365.40 0.1759
365.50 0.1762
365.60 0.1766
365.70 0.1769
365.80 0.1773
365.90 0.1777
366.00 0.178
366.10 0.1784
366.20 0.1788
366.30 0.1792
366.40 0.1795
366.50 0.1799
366.60 0.1803
366.70 0.1807
366.80 0.181
366.90 0.1814
367.00 0.1818
367.10 0.1822
367.20 0.1825
367.30 0.1829
367.40 0.1833
367.50 0.1837
367.60 0.184
367.70 0.1844
367.80 0.1848
367.90 0.1851
368.00 0.1855
368.10 0.1859
368.20 0.1863
368.30 0.1867
368.40 0.1871
368.50 0.1874
368.60 0.1878
368.70 0.1882
368.80 0.1886
368.90 0.189
369.00 0.1894
369.10 0.1897
369.20 0.1901
369.30 0.1905
369.40 0.1909
369.50 0.1913
369.60 0.1916
369.70 0.192
369.80 0.1924
369.90 0.1928
370.00 0.1932
370.10 0.1936
370.20 0.194
370.30 0.1944
370.40 0.1947
370.50 0.1951
370.60 0.1955
370.70 0.1959
370.80 0.1963
370.90 0.1967
371.00 0.1971
371.10 0.1975
371.20 0.1979
371.30 0.1983
371.40 0.1987
371.50 0.1991
371.60 0.1994
371.70 0.1998
371.80 0.2002
371.90 0.2006
372.00 0.201
372.10 0.2014
372.20 0.2018
372.30 0.2022
372.40 0.2026
372.50 0.203
372.60 0.2034
372.70 0.2038
372.80 0.2042
372.90 0.2046
373.00 0.205
373.10 0.2054
373.20 0.2058
373.30 0.2062
373.40 0.2066
373.50 0.207
373.60 0.2074
373.70 0.2078
373.80 0.2082
373.90 0.2086
374.00 0.209
374.10 0.2094
374.20 0.2099
374.30 0.2103
374.40 0.2107
374.50 0.2111
374.60 0.2115
374.70 0.2119
374.80 0.2123
374.90 0.2127
375.00 0.2131
375.10 0.2136
375.20 0.214
375.30 0.2144
375.40 0.2148
375.50 0.2152
375.60 0.2156
375.70 0.216
375.80 0.2164
375.90 0.2168
376.00 0.2172
376.10 0.2176
376.20 0.2181
376.30 0.2185
376.40 0.2189
376.50 0.2193
376.60 0.2197
376.70 0.2201
376.80 0.2206
376.90 0.221
377.00 0.2214
377.10 0.2218
377.20 0.2222
377.30 0.2227
377.40 0.2231
377.50 0.2235
377.60 0.2239
377.70 0.2244
377.80 0.2248
377.90 0.2252
378.00 0.2256
378.10 0.226
378.20 0.2265
378.30 0.2269
378.40 0.2273
378.50 0.2277
378.60 0.2282
378.70 0.2286
378.80 0.229
378.90 0.2295
379.00 0.2299
379.10 0.2303
379.20 0.2307
379.30 0.2312
379.40 0.2316
379.50 0.232
379.60 0.2325
379.70 0.2329
379.80 0.2333
379.90 0.2338
380.00 0.2342
380.10 0.2346
380.20 0.2351
380.30 0.2355
380.40 0.2359
380.50 0.2364
380.60 0.2368
380.70 0.2372
380.80 0.2377
380.90 0.2381
381.00 0.2385
381.10 0.239
381.20 0.2394
381.30 0.2399
381.40 0.2403
381.50 0.2407
381.60 0.2412
381.70 0.2416
381.80 0.242
381.90 0.2425
382.00 0.2429
382.10 0.2434
382.20 0.2438
382.30 0.2443
382.40 0.2447
382.50 0.2452
382.60 0.2456
382.70 0.2461
382.80 0.2465
382.90 0.2469
383.00 0.2474
383.10 0.2478
383.20 0.2483
383.30 0.2487
383.40 0.2492
383.50 0.2496
383.60 0.2501
383.70 0.2505
383.80 0.251
383.90 0.2514
384.00 0.2519
384.10 0.2523
384.20 0.2528
384.30 0.2532
384.40 0.2537
384.50 0.2541
384.60 0.2546
384.70 0.255
384.80 0.2555
384.90 0.256
385.00 0.2564
385.10 0.2569
385.20 0.2573
385.30 0.2578
385.40 0.2582
385.50 0.2587
385.60 0.2592
385.70 0.2596
385.80 0.2601
385.90 0.2605
386.00 0.261
386.10 0.2615
386.20 0.2619
386.30 0.2624
386.40 0.2628
386.50 0.2633
386.60 0.2638
386.70 0.2642
386.80 0.2647
386.90 0.2652
387.00 0.2656
387.10 0.2661
387.20 0.2665
387.30 0.267
387.40 0.2675
387.50 0.2679
387.60 0.2684
387.70 0.2689
387.80 0.2693
387.90 0.2698
388.00 0.2703
388.10 0.2708
388.20 0.2712
388.30 0.2717
388.40 0.2722
388.50 0.2726
388.60 0.2731
388.70 0.2736
388.80 0.274
388.90 0.2745
389.00 0.275
389.10 0.2755
389.20 0.2759
389.30 0.2764
389.40 0.2769
389.50 0.2774
389.60 0.2778
389.70 0.2783
389.80 0.2788
389.90 0.2793
390.00 0.2798
390.10 0.2802
390.20 0.2807
390.30 0.2812
390.40 0.2817
390.50 0.2821
390.60 0.2826
390.70 0.2831
390.80 0.2836
390.90 0.2841
391.00 0.2846
391.10 0.285
391.20 0.2855
391.30 0.286
391.40 0.2865
391.50 0.287
391.60 0.2874
391.70 0.2879
391.80 0.2884
391.90 0.2889
392.00 0.2894
392.10 0.2899
392.20 0.2904
392.30 0.2909
392.40 0.2914
392.50 0.2918
392.60 0.2923
392.70 0.2928
392.80 0.2933
392.90 0.2938
393.00 0.2943
393.10 0.2948
393.20 0.2953
393.30 0.2958
393.40 0.2963
393.50 0.2967
393.60 0.2972
393.70 0.2977
393.80 0.2982
393.90 0.2987
394.00 0.2992
394.10 0.2997
394.20 0.3002
394.30 0.3007
394.40 0.3012
394.50 0.3017
394.60 0.3022
394.70 0.3027
394.80 0.3032
394.90 0.3037
395.00 0.3042
395.10 0.3047
395.20 0.3052
395.30 0.3057
395.40 0.3062
395.50 0.3067
395.60 0.3072
395.70 0.3077
395.80 0.3082
395.90 0.3087
396.00 0.3092
396.10 0.3097
396.20 0.3102
396.30 0.3107
396.40 0.3112
396.50 0.3117
396.60 0.3122
396.70 0.3128
396.80 0.3133
396.90 0.3138
397.00 0.3143
397.10 0.3148
397.20 0.3153
397.30 0.3158
397.40 0.3163
397.50 0.3168
397.60 0.3173
397.70 0.3178
397.80 0.3184
397.90 0.3189
398.00 0.3194
398.10 0.3199
398.20 0.3204
398.30 0.3209
398.40 0.3214
398.50 0.3219
398.60 0.3225
398.70 0.323
398.80 0.3235
398.90 0.324
399.00 0.3245
399.10 0.325
399.20 0.3256
399.30 0.3261
399.40 0.3266
399.50 0.3271
399.60 0.3276
399.70 0.3281
399.80 0.3287
399.90 0.3292
400.00 0.3297
400.10 0.3302
400.20 0.3308
400.30 0.3313
400.40 0.3318
400.50 0.3323
400.60 0.3328
400.70 0.3334
400.80 0.3339
400.90 0.3344
401.00 0.3349
401.10 0.3355
401.20 0.336
401.30 0.3365
401.40 0.337
401.50 0.3376
401.60 0.3381
401.70 0.3386
401.80 0.3391
401.90 0.3397
402.00 0.3402
402.10 0.3407
402.20 0.3413
402.30 0.3418
402.40 0.3423
402.50 0.3429
402.60 0.3434
402.70 0.3439
402.80 0.3445
402.90 0.345
403.00 0.3455
403.10 0.3461
403.20 0.3466
403.30 0.3471
403.40 0.3477
403.50 0.3482
403.60 0.3487
403.70 0.3493
403.80 0.3498
403.90 0.3503
404.00 0.3509
404.10 0.3514
404.20 0.3519
404.30 0.3525
404.40 0.353
404.50 0.3536
404.60 0.3541
404.70 0.3546
404.80 0.3552
404.90 0.3557
405.00 0.3563
405.10 0.3568
405.20 0.3574
405.30 0.3579
405.40 0.3584
405.50 0.359
405.60 0.3595
405.70 0.3601
405.80 0.3606
405.90 0.3612
406.00 0.3617
406.10 0.3622
406.20 0.3628
406.30 0.3633
406.40 0.3639
406.50 0.3644
406.60 0.365
406.70 0.3655
406.80 0.3661
406.90 0.3666
407.00 0.3672
407.10 0.3677
407.20 0.3683
407.30 0.3688
407.40 0.3694
407.50 0.3699
407.60 0.3705
407.70 0.371
407.80 0.3716
407.90 0.3721
408.00 0.3727
408.10 0.3732
408.20 0.3738
408.30 0.3743
408.40 0.3749
408.50 0.3755
408.60 0.376
408.70 0.3766
408.80 0.3771
408.90 0.3777
409.00 0.3782
409.10 0.3788
409.20 0.3794
409.30 0.3799
409.40 0.3805
409.50 0.381
409.60 0.3816
409.70 0.3822
409.80 0.3827
409.90 0.3833
410.00 0.3838
410.10 0.3844
410.20 0.385
410.30 0.3855
410.40 0.3861
410.50 0.3866
410.60 0.3872
410.70 0.3878
410.80 0.3883
410.90 0.3889
411.00 0.3895
411.10 0.39
411.20 0.3906
411.30 0.3912
411.40 0.3917
411.50 0.3923
411.60 0.3929
411.70 0.3934
411.80 0.394
411.90 0.3946
412.00 0.3951
412.10 0.3957
412.20 0.3963
412.30 0.3969
412.40 0.3974
412.50 0.398
412.60 0.3986
412.70 0.3991
412.80 0.3997
412.90 0.4003
413.00 0.4009
413.10 0.4014
413.20 0.402
413.30 0.4026
413.40 0.4031
413.50 0.4037
413.60 0.4043
413.70 0.4049
413.80 0.4054
413.90 0.406
414.00 0.4066
414.10 0.4072
414.20 0.4078
414.30 0.4083
414.40 0.4089
414.50 0.4095
414.60 0.4101
414.70 0.4106
414.80 0.4112
414.90 0.4118
415.00 0.4124
415.10 0.413
415.20 0.4135
415.30 0.4141
415.40 0.4147
415.50 0.4153
415.60 0.4159
415.70 0.4165
415.80 0.417
415.90 0.4176
416.00 0.4182
416.10 0.4188
416.20 0.4194
416.30 0.42
416.40 0.4205
416.50 0.4211
416.60 0.4217
416.70 0.4223
416.80 0.4229
416.90 0.4235
417.00 0.4241
417.10 0.4247
417.20 0.4252
417.30 0.4258
417.40 0.4264
417.50 0.427
417.60 0.4276
417.70 0.4282
417.80 0.4288
417.90 0.4294
418.00 0.43
418.10 0.4305
418.20 0.4311
418.30 0.4317
418.40 0.4323
418.50 0.4329
418.60 0.4335
418.70 0.4341
418.80 0.4347
418.90 0.4353
419.00 0.4359
419.10 0.4365
419.20 0.4371
419.30 0.4377
419.40 0.4383
419.50 0.4389
419.60 0.4395
419.70 0.4401
419.80 0.4407
419.90 0.4413
420.00 0.4419
420.10 0.4425
420.20 0.4431
420.30 0.4437
420.40 0.4443
420.50 0.4449
420.60 0.4455
420.70 0.4461
420.80 0.4467
420.90 0.4473
421.00 0.4479
421.10 0.4485
421.20 0.4491
421.30 0.4497
421.40 0.4503
421.50 0.4509
421.60 0.4515
421.70 0.4521
421.80 0.4527
421.90 0.4533
422.00 0.4539
422.10 0.4545
422.20 0.4551
422.30 0.4557
422.40 0.4563
422.50 0.4569
422.60 0.4575
422.70 0.4582
422.80 0.4588
422.90 0.4594
423.00 0.46
423.10 0.4606
423.20 0.4612
423.30 0.4618
423.40 0.4624
423.50 0.463
423.60 0.4636
423.70 0.4643
423.80 0.4649
423.90 0.4655
424.00 0.4661
424.10 0.4667
424.20 0.4673
424.30 0.4679
424.40 0.4685
424.50 0.4692
424.60 0.4698
424.70 0.4704
424.80 0.471
424.90 0.4716
425.00 0.4722
425.10 0.4729
425.20 0.4735
425.30 0.4741
425.40 0.4747
425.50 0.4753
425.60 0.4759
425.70 0.4766
425.80 0.4772
425.90 0.4778
426.00 0.4784
426.10 0.479
426.20 0.4796
426.30 0.4803
426.40 0.4809
426.50 0.4815
426.60 0.4821
426.70 0.4828
426.80 0.4834
426.90 0.484
427.00 0.4846
427.10 0.4852
427.20 0.4859
427.30 0.4865
427.40 0.4871
427.50 0.4877
427.60 0.4884
427.70 0.489
427.80 0.4896
427.90 0.4902
428.00 0.4909
428.10 0.4915
428.20 0.4921
428.30 0.4927
428.40 0.4934
428.50 0.494
428.60 0.4946
428.70 0.4953
428.80 0.4959
428.90 0.4965
429.00 0.4971
429.10 0.4978
429.20 0.4984
429.30 0.499
429.40 0.4997
429.50 0.5003
429.60 0.5009
429.70 0.5016
429.80 0.5022
429.90 0.5028
430.00 0.5035
430.10 0.5041
430.20 0.5047
430.30 0.5054
430.40 0.506
430.50 0.5066
430.60 0.5073
430.70 0.5079
430.80 0.5085
430.90 0.5092
431.00 0.5098
431.10 0.5104
431.20 0.5111
431.30 0.5117
431.40 0.5123
431.50 0.513
431.60 0.5136
431.70 0.5142
431.80 0.5149
431.90 0.5155
432.00 0.5162
432.10 0.5168
432.20 0.5174
432.30 0.5181
432.40 0.5187
432.50 0.5194
432.60 0.52
432.70 0.5206
432.80 0.5213
432.90 0.5219
433.00 0.5226
433.10 0.5232
433.20 0.5239
433.30 0.5245
433.40 0.5251
433.50 0.5258
433.60 0.5264
433.70 0.5271
433.80 0.5277
433.90 0.5284
434.00 0.529
434.10 0.5297
434.20 0.5303
434.30 0.5309
434.40 0.5316
434.50 0.5322
434.60 0.5329
434.70 0.5335
434.80 0.5342
434.90 0.5348
435.00 0.5355
435.10 0.5361
435.20 0.5368
435.30 0.5374
435.40 0.5381
435.50 0.5387
435.60 0.5394
435.70 0.54
435.80 0.5407
435.90 0.5413
436.00 0.542
436.10 0.5426
436.20 0.5433
436.30 0.5439
436.40 0.5446
436.50 0.5452
436.60 0.5459
436.70 0.5465
436.80 0.5472
436.90 0.5478
437.00 0.5485
437.10 0.5491
437.20 0.5498
437.30 0.5505
437.40 0.5511
437.50 0.5518
437.60 0.5524
437.70 0.5531
437.80 0.5537
437.90 0.5544
438.00 0.555
438.10 0.5557
438.20 0.5564
438.30 0.557
438.40 0.5577
438.50 0.5583
438.60 0.559
438.70 0.5597
438.80 0.5603
438.90 0.561
439.00 0.5616
439.10 0.5623
439.20 0.563
439.30 0.5636
439.40 0.5643
439.50 0.5649
439.60 0.5656
439.70 0.5663
439.80 0.5669
439.90 0.5676
440.00 0.5682
440.10 0.5689
440.20 0.5696
440.30 0.5702
440.40 0.5709
440.50 0.5716
440.60 0.5722
440.70 0.5729
440.80 0.5736
440.90 0.5742
441.00 0.5749
441.10 0.5755
441.20 0.5762
441.30 0.5769
441.40 0.5775
441.50 0.5782
441.60 0.5789
441.70 0.5795
441.80 0.5802
441.90 0.5809
442.00 0.5815
442.10 0.5822
442.20 0.5829
442.30 0.5836
442.40 0.5842
442.50 0.5849
442.60 0.5856
442.70 0.5862
442.80 0.5869
442.90 0.5876
443.00 0.5882
443.10 0.5889
443.20 0.5896
443.30 0.5903
443.40 0.5909
443.50 0.5916
443.60 0.5923
443.70 0.5929
443.80 0.5936
443.90 0.5943
444.00 0.595
444.10 0.5956
444.20 0.5963
444.30 0.597
444.40 0.5977
444.50 0.5983
444.60 0.599
444.70 0.5997
444.80 0.6004
444.90 0.601
445.00 0.6017
445.10 0.6024
445.20 0.6031
445.30 0.6037
445.40 0.6044
445.50 0.6051
445.60 0.6058
445.70 0.6064
445.80 0.6071
445.90 0.6078
446.00 0.6085
446.10 0.6092
446.20 0.6098
446.30 0.6105
446.40 0.6112
446.50 0.6119
446.60 0.6126
446.70 0.6132
446.80 0.6139
446.90 0.6146
447.00 0.6153
447.10 0.616
447.20 0.6166
447.30 0.6173
447.40 0.618
447.50 0.6187
447.60 0.6194
447.70 0.6201
447.80 0.6207
447.90 0.6214
448.00 0.6221
448.10 0.6228
448.20 0.6235
448.30 0.6242
448.40 0.6248
448.50 0.6255
448.60 0.6262
448.70 0.6269
448.80 0.6276
448.90 0.6283
449.00 0.629
449.10 0.6296
449.20 0.6303
449.30 0.631
449.40 0.6317
449.50 0.6324
449.60 0.6331
449.70 0.6338
449.80 0.6344
449.90 0.6351
450.00 0.6358
450.10 0.6365
450.20 0.6372
450.30 0.6379
450.40 0.6386
450.50 0.6393
450.60 0.64
450.70 0.6406
450.80 0.6413
450.90 0.642
451.00 0.6427
451.10 0.6434
451.20 0.6441
451.30 0.6448
451.40 0.6455
451.50 0.6462
451.60 0.6469
451.70 0.6476
451.80 0.6483
451.90 0.6489
452.00 0.6496
452.10 0.6503
452.20 0.651
452.30 0.6517
452.40 0.6524
452.50 0.6531
452.60 0.6538
452.70 0.6545
452.80 0.6552
452.90 0.6559
453.00 0.6566
453.10 0.6573
453.20 0.658
453.30 0.6587
453.40 0.6594
453.50 0.6601
453.60 0.6608
453.70 0.6615
453.80 0.6622
453.90 0.6629
454.00 0.6636
454.10 0.6642
454.20 0.6649
454.30 0.6656
454.40 0.6663
454.50 0.667
454.60 0.6677
454.70 0.6684
454.80 0.6691
454.90 0.6698
455.00 0.6705
455.10 0.6712
455.20 0.6719
455.30 0.6726
455.40 0.6733
455.50 0.674
455.60 0.6747
455.70 0.6754
455.80 0.6761
455.90 0.6768
456.00 0.6775
456.10 0.6782
456.20 0.6789
456.30 0.6796
456.40 0.6803
456.50 0.6811
456.60 0.6818
456.70 0.6825
456.80 0.6832
456.90 0.6839
457.00 0.6846
457.10 0.6853
457.20 0.686
457.30 0.6867
457.40 0.6874
457.50 0.6881
457.60 0.6888
457.70 0.6895
457.80 0.6902
457.90 0.6909
458.00 0.6916
458.10 0.6923
458.20 0.693
458.30 0.6937
458.40 0.6944
458.50 0.6951
458.60 0.6959
458.70 0.6966
458.80 0.6973
458.90 0.698
459.00 0.6987
459.10 0.6994
459.20 0.7001
459.30 0.7008
459.40 0.7015
459.50 0.7022
459.60 0.7029
459.70 0.7036
459.80 0.7043
459.90 0.7051
460.00 0.7058
460.10 0.7065
460.20 0.7072
460.30 0.7079
460.40 0.7086
460.50 0.7093
460.60 0.71
460.70 0.7107
460.80 0.7115
460.90 0.7122
461.00 0.7129
461.10 0.7136
461.20 0.7143
461.30 0.715
461.40 0.7157
461.50 0.7164
461.60 0.7172
461.70 0.7179
461.80 0.7186
461.90 0.7193
462.00 0.72
462.10 0.7207
462.20 0.7214
462.30 0.7221
462.40 0.7229
462.50 0.7236
462.60 0.7243
462.70 0.725
462.80 0.7257
462.90 0.7264
463.00 0.7271
463.10 0.7279
463.20 0.7286
463.30 0.7293
463.40 0.73
463.50 0.7307
463.60 0.7314
463.70 0.7322
463.80 0.7329
463.90 0.7336
464.00 0.7343
464.10 0.735
464.20 0.7357
464.30 0.7365
464.40 0.7372
464.50 0.7379
464.60 0.7386
464.70 0.7393
464.80 0.7401
464.90 0.7408
465.00 0.7415
465.10 0.7422
465.20 0.7429
465.30 0.7436
465.40 0.7444
465.50 0.7451
465.60 0.7458
465.70 0.7465
465.80 0.7472
465.90 0.748
466.00 0.7487
466.10 0.7494
466.20 0.7501
466.30 0.7508
466.40 0.7516
466.50 0.7523
466.60 0.753
466.70 0.7537
466.80 0.7545
466.90 0.7552
467.00 0.7559
467.10 0.7566
467.20 0.7573
467.30 0.7581
467.40 0.7588
467.50 0.7595
467.60 0.7602
467.70 0.761
467.80 0.7617
467.90 0.7624
468.00 0.7631
468.10 0.7638
468.20 0.7646
468.30 0.7653
468.40 0.766
468.50 0.7668
468.60 0.7675
468.70 0.7682
468.80 0.7689
468.90 0.7697
469.00 0.7704
469.10 0.7711
469.20 0.7718
469.30 0.7725
469.40 0.7733
469.50 0.774
469.60 0.7747
469.70 0.7755
469.80 0.7762
469.90 0.7769
470.00 0.7776
470.10 0.7783
470.20 0.7791
470.30 0.7798
470.40 0.7805
470.50 0.7813
470.60 0.782
470.70 0.7827
470.80 0.7834
470.90 0.7842
471.00 0.7849
471.10 0.7856
471.20 0.7864
471.30 0.7871
471.40 0.7878
471.50 0.7885
471.60 0.7893
471.70 0.79
471.80 0.7907
471.90 0.7915
472.00 0.7922
472.10 0.7929
472.20 0.7936
472.30 0.7944
472.40 0.7951
472.50 0.7958
472.60 0.7966
472.70 0.7973
472.80 0.798
472.90 0.7988
473.00 0.7995
473.10 0.8002
473.20 0.801
473.30 0.8017
473.40 0.8024
473.50 0.8032
473.60 0.8039
473.70 0.8046
473.80 0.8053
473.90 0.8061
474.00 0.8068
474.10 0.8075
474.20 0.8083
474.30 0.809
474.40 0.8097
474.50 0.8105
474.60 0.8112
474.70 0.8119
474.80 0.8127
474.90 0.8134
475.00 0.8141
475.10 0.8149
475.20 0.8156
475.30 0.8163
475.40 0.8171
475.50 0.8178
475.60 0.8185
475.70 0.8193
475.80 0.82
475.90 0.8207
476.00 0.8215
476.10 0.8222
476.20 0.8229
476.30 0.8237
476.40 0.8244
476.50 0.8251
476.60 0.8259
476.70 0.8266
476.80 0.8274
476.90 0.8281
477.00 0.8288
477.10 0.8296
477.20 0.8303
477.30 0.831
477.40 0.8318
477.50 0.8325
477.60 0.8332
477.70 0.834
477.80 0.8347
477.90 0.8354
478.00 0.8362
478.10 0.8369
478.20 0.8377
478.30 0.8384
478.40 0.8391
478.50 0.8399
478.60 0.8406
478.70 0.8413
478.80 0.8421
478.90 0.8428
479.00 0.8436
479.10 0.8443
479.20 0.845
479.30 0.8458
479.40 0.8465
479.50 0.8472
479.60 0.848
479.70 0.8487
479.80 0.8495
479.90 0.8502
480.00 0.8509
480.10 0.8517
480.20 0.8524
480.30 0.8531
480.40 0.8539
480.50 0.8546
480.60 0.8554
480.70 0.8561
480.80 0.8569
480.90 0.8576
481.00 0.8583
481.10 0.8591
481.20 0.8598
481.30 0.8606
481.40 0.8613
481.50 0.8621
481.60 0.8628
481.70 0.8635
481.80 0.8643
481.90 0.865
482.00 0.8657
482.10 0.8665
482.20 0.8672
482.30 0.868
482.40 0.8687
482.50 0.8695
482.60 0.8702
482.70 0.8709
482.80 0.8717
482.90 0.8724
483.00 0.8732
483.10 0.8739
483.20 0.8746
483.30 0.8754
483.40 0.8761
483.50 0.8769
483.60 0.8776
483.70 0.8784
483.80 0.8791
483.90 0.8798
484.00 0.8806
484.10 0.8813
484.20 0.8821
484.30 0.8828
484.40 0.8835
484.50 0.8843
484.60 0.885
484.70 0.8857
484.80 0.8865
484.90 0.8872
485.00 0.888
485.10 0.8887
485.20 0.8895
485.30 0.8902
485.40 0.8909
485.50 0.8917
485.60 0.8924
485.70 0.8932
485.80 0.8939
485.90 0.8946
486.00 0.8954
486.10 0.8961
486.20 0.8969
486.30 0.8977
486.40 0.8984
486.50 0.8991
486.60 0.8999
486.70 0.9006
486.80 0.9014
486.90 0.9021
487.00 0.9028
487.10 0.9036
487.20 0.9043
487.30 0.9051
487.40 0.9058
487.50 0.9066
487.60 0.9073
487.70 0.9081
487.80 0.9088
487.90 0.9096
488.00 0.9103
488.10 0.9111
488.20 0.9118
488.30 0.9126
488.40 0.9133
488.50 0.914
488.60 0.9148
488.70 0.9155
488.80 0.9163
488.90 0.917
489.00 0.9177
489.10 0.9185
489.20 0.9192
489.30 0.92
489.40 0.9207
489.50 0.9215
489.60 0.9222
489.70 0.923
489.80 0.9237
489.90 0.9245
490.00 0.9252
490.10 0.926
490.20 0.9267
490.30 0.9275
490.40 0.9282
490.50 0.929
490.60 0.9297
490.70 0.9305
490.80 0.9312
490.90 0.9319
491.00 0.9327
491.10 0.9334
491.20 0.9342
491.30 0.9349
491.40 0.9357
491.50 0.9364
491.60 0.9372
491.70 0.9379
491.80 0.9387
491.90 0.9394
492.00 0.9402
492.10 0.9409
492.20 0.9416
492.30 0.9424
492.40 0.9431
492.50 0.9439
492.60 0.9446
492.70 0.9454
492.80 0.9461
492.90 0.9469
493.00 0.9476
493.10 0.9483
493.20 0.9491
493.30 0.9498
493.40 0.9506
493.50 0.9513
493.60 0.9521
493.70 0.9528
493.80 0.9536
493.90 0.9543
494.00 0.9551
494.10 0.9558
494.20 0.9566
494.30 0.9573
494.40 0.9581
494.50 0.9588
494.60 0.9596
494.70 0.9603
494.80 0.9611
494.90 0.9618
495.00 0.9626
495.10 0.9633
495.20 0.964
495.30 0.9648
495.40 0.9656
495.50 0.9663
495.60 0.9671
495.70 0.9678
495.80 0.9686
495.90 0.9693
496.00 0.97
496.10 0.9708
496.20 0.9715
496.30 0.9723
496.40 0.9731
496.50 0.9738
496.60 0.9746
496.70 0.9753
496.80 0.9761
496.90 0.9768
497.00 0.9776
497.10 0.9783
497.20 0.9791
497.30 0.9798
497.40 0.9805
497.50 0.9813
497.60 0.982
497.70 0.9828
497.80 0.9835
497.90 0.9843
498.00 0.985
498.10 0.9857
498.20 0.9865
498.30 0.9873
498.40 0.988
498.50 0.9888
498.60 0.9895
498.70 0.9903
498.80 0.991
498.90 0.9918
499.00 0.9925
499.10 0.9933
499.20 0.994
499.30 0.9948
499.40 0.9955
499.50 0.9963
499.60 0.997
499.70 0.9978
499.80 0.9985
499.90 0.9993
500.00 1
500.10 1.001
500.20 1.001
500.30 1.002
500.40 1.003
500.50 1.004
500.60 1.004
500.70 1.005
500.80 1.006
500.90 1.007
501.00 1.007
501.10 1.008
501.20 1.009
501.30 1.01
501.40 1.01
501.50 1.011
501.60 1.012
501.70 1.013
501.80 1.013
501.90 1.014
502.00 1.015
502.10 1.016
502.20 1.016
502.30 1.017
502.40 1.018
502.50 1.019
502.60 1.019
502.70 1.02
502.80 1.021
502.90 1.022
503.00 1.022
503.10 1.023
503.20 1.024
503.30 1.025
503.40 1.025
503.50 1.026
503.60 1.027
503.70 1.028
503.80 1.028
503.90 1.029
504.00 1.03
504.10 1.031
504.20 1.031
504.30 1.032
504.40 1.033
504.50 1.034
504.60 1.034
504.70 1.035
504.80 1.036
504.90 1.037
505.00 1.037
505.10 1.038
505.20 1.039
505.30 1.04
505.40 1.04
505.50 1.041
505.60 1.042
505.70 1.043
505.80 1.043
505.90 1.044
506.00 1.045
506.10 1.046
506.20 1.046
506.30 1.047
506.40 1.048
506.50 1.049
506.60 1.049
506.70 1.05
506.80 1.051
506.90 1.052
507.00 1.052
507.10 1.053
507.20 1.054
507.30 1.055
507.40 1.055
507.50 1.056
507.60 1.057
507.70 1.058
507.80 1.058
507.90 1.059
508.00 1.06
508.10 1.061
508.20 1.061
508.30 1.062
508.40 1.063
508.50 1.063
508.60 1.064
508.70 1.065
508.80 1.066
508.90 1.066
509.00 1.067
509.10 1.068
509.20 1.069
509.30 1.069
509.40 1.07
509.50 1.071
509.60 1.072
509.70 1.072
509.80 1.073
509.90 1.074
510.00 1.075
510.10 1.075
510.20 1.076
510.30 1.077
510.40 1.078
510.50 1.078
510.60 1.079
510.70 1.08
510.80 1.081
510.90 1.081
511.00 1.082
511.10 1.083
511.20 1.084
511.30 1.084
511.40 1.085
511.50 1.086
511.60 1.087
511.70 1.087
511.80 1.088
511.90 1.089
512.00 1.09
512.10 1.09
512.20 1.091
512.30 1.092
512.40 1.092
512.50 1.093
512.60 1.094
512.70 1.095
512.80 1.095
512.90 1.096
513.00 1.097
513.10 1.098
513.20 1.098
513.30 1.099
513.40 1.1
513.50 1.101
513.60 1.101
513.70 1.102
513.80 1.103
513.90 1.104
514.00 1.104
514.10 1.105
514.20 1.106
514.30 1.107
514.40 1.107
514.50 1.108
514.60 1.109
514.70 1.11
514.80 1.11
514.90 1.111
515.00 1.112
515.10 1.113
515.20 1.113
515.30 1.114
515.40 1.115
515.50 1.116
515.60 1.116
515.70 1.117
515.80 1.118
515.90 1.119
516.00 1.119
516.10 1.12
516.20 1.121
516.30 1.121
516.40 1.122
516.50 1.123
516.60 1.124
516.70 1.124
516.80 1.125
516.90 1.126
517.00 1.127
517.10 1.127
517.20 1.128
517.30 1.129
517.40 1.13
517.50 1.13
517.60 1.131
517.70 1.132
517.80 1.133
517.90 1.133
518.00 1.134
518.10 1.135
518.20 1.135
518.30 1.136
518.40 1.137
518.50 1.138
518.60 1.138
518.70 1.139
518.80 1.14
518.90 1.141
519.00 1.141
519.10 1.142
519.20 1.143
519.30 1.144
519.40 1.144
519.50 1.145
519.60 1.146
519.70 1.147
519.80 1.147
519.90 1.148
520.00 1.149
520.10 1.149
520.20 1.15
520.30 1.151
520.40 1.152
520.50 1.152
520.60 1.153
520.70 1.154
520.80 1.155
520.90 1.155
521.00 1.156
521.10 1.157
521.20 1.158
521.30 1.158
521.40 1.159
521.50 1.16
521.60 1.161
521.70 1.161
521.80 1.162
521.90 1.163
522.00 1.163
522.10 1.164
522.20 1.165
522.30 1.166
522.40 1.166
522.50 1.167
522.60 1.168
522.70 1.169
522.80 1.169
522.90 1.17
523.00 1.171
523.10 1.172
523.20 1.172
523.30 1.173
523.40 1.174
523.50 1.174
523.60 1.175
523.70 1.176
523.80 1.177
523.90 1.177
524.00 1.178
524.10 1.179
524.20 1.18
524.30 1.18
524.40 1.181
524.50 1.182
524.60 1.182
524.70 1.183
524.80 1.184
524.90 1.185
525.00 1.185
525.10 1.186
525.20 1.187
525.30 1.188
525.40 1.188
525.50 1.189
525.60 1.19
525.70 1.19
525.80 1.191
525.90 1.192
526.00 1.193
526.10 1.193
526.20 1.194
526.30 1.195
526.40 1.196
526.50 1.196
526.60 1.197
526.70 1.198
526.80 1.199
526.90 1.199
527.00 1.2
527.10 1.201
527.20 1.201
527.30 1.202
527.40 1.203
527.50 1.204
527.60 1.204
527.70 1.205
527.80 1.206
527.90 1.206
528.00 1.207
528.10 1.208
528.20 1.209
528.30 1.209
528.40 1.21
528.50 1.211
528.60 1.212
528.70 1.212
528.80 1.213
528.90 1.214
529.00 1.214
529.10 1.215
529.20 1.216
529.30 1.217
529.40 1.217
529.50 1.218
529.60 1.219
529.70 1.219
529.80 1.22
529.90 1.221
530.00 1.222
530.10 1.222
530.20 1.223
530.30 1.224
530.40 1.225
530.50 1.225
530.60 1.226
530.70 1.227
530.80 1.227
530.90 1.228
531.00 1.229
531.10 1.23
531.20 1.23
531.30 1.231
531.40 1.232
531.50 1.232
531.60 1.233
531.70 1.234
531.80 1.235
531.90 1.235
532.00 1.236
532.10 1.237
532.20 1.237
532.30 1.238
532.40 1.239
532.50 1.24
532.60 1.24
532.70 1.241
532.80 1.242
532.90 1.242
533.00 1.243
533.10 1.244
533.20 1.245
533.30 1.245
533.40 1.246
533.50 1.247
533.60 1.247
533.70 1.248
533.80 1.249
533.90 1.25
534.00 1.25
534.10 1.251
534.20 1.252
534.30 1.252
534.40 1.253
534.50 1.254
534.60 1.255
534.70 1.255
534.80 1.256
534.90 1.257
535.00 1.257
535.10 1.258
535.20 1.259
535.30 1.26
535.40 1.26
535.50 1.261
535.60 1.262
535.70 1.262
535.80 1.263
535.90 1.264
536.00 1.264
536.10 1.265
536.20 1.266
536.30 1.267
536.40 1.267
536.50 1.268
536.60 1.269
536.70 1.269
536.80 1.27
536.90 1.271
537.00 1.272
537.10 1.272
537.20 1.273
537.30 1.274
537.40 1.274
537.50 1.275
537.60 1.276
537.70 1.276
537.80 1.277
537.90 1.278
538.00 1.279
538.10 1.279
538.20 1.28
538.30 1.281
538.40 1.281
538.50 1.282
538.60 1.283
538.70 1.283
538.80 1.284
538.90 1.285
539.00 1.286
539.10 1.286
539.20 1.287
539.30 1.288
539.40 1.288
539.50 1.289
539.60 1.29
539.70 1.29
539.80 1.291
539.90 1.292
540.00 1.292
540.10 1.293
540.20 1.294
540.30 1.295
540.40 1.295
540.50 1.296
540.60 1.297
540.70 1.297
540.80 1.298
540.90 1.299
541.00 1.299
541.10 1.3
541.20 1.301
541.30 1.301
541.40 1.302
541.50 1.303
541.60 1.304
541.70 1.304
541.80 1.305
541.90 1.306
542.00 1.306
542.10 1.307
542.20 1.308
542.30 1.308
542.40 1.309
542.50 1.31
542.60 1.31
542.70 1.311
542.80 1.312
542.90 1.312
543.00 1.313
543.10 1.314
543.20 1.315
543.30 1.315
543.40 1.316
543.50 1.317
543.60 1.317
543.70 1.318
543.80 1.319
543.90 1.319
544.00 1.32
544.10 1.321
544.20 1.321
544.30 1.322
544.40 1.323
544.50 1.323
544.60 1.324
544.70 1.325
544.80 1.325
544.90 1.326
545.00 1.327
545.10 1.327
545.20 1.328
545.30 1.329
545.40 1.33
545.50 1.33
545.60 1.331
545.70 1.332
545.80 1.332
545.90 1.333
546.00 1.334
546.10 1.334
546.20 1.335
546.30 1.336
546.40 1.336
546.50 1.337
546.60 1.338
546.70 1.338
546.80 1.339
546.90 1.34
547.00 1.34
547.10 1.341
547.20 1.342
547.30 1.342
547.40 1.343
547.50 1.344
547.60 1.344
547.70 1.345
547.80 1.346
547.90 1.346
548.00 1.347
548.10 1.348
548.20 1.348
548.30 1.349
548.40 1.35
548.50 1.35
548.60 1.351
548.70 1.352
548.80 1.352
548.90 1.353
549.00 1.354
549.10 1.354
549.20 1.355
549.30 1.356
549.40 1.356
549.50 1.357
549.60 1.358
549.70 1.358
549.80 1.359
549.90 1.36
550.00 1.36
550.10 1.361
550.20 1.362
550.30 1.362
550.40 1.363
550.50 1.364
550.60 1.364
550.70 1.365
550.80 1.366
550.90 1.366
551.00 1.367
551.10 1.368
551.20 1.368
551.30 1.369
551.40 1.37
551.50 1.37
551.60 1.371
551.70 1.371
551.80 1.372
551.90 1.373
552.00 1.373
552.10 1.374
552.20 1.375
552.30 1.375
552.40 1.376
552.50 1.377
552.60 1.377
552.70 1.378
552.80 1.379
552.90 1.379
553.00 1.38
553.10 1.381
553.20 1.381
553.30 1.382
553.40 1.382
553.50 1.383
553.60 1.384
553.70 1.384
553.80 1.385
553.90 1.386
554.00 1.386
554.10 1.387
554.20 1.388
554.30 1.388
554.40 1.389
554.50 1.389
554.60 1.39
554.70 1.391
554.80 1.391
554.90 1.392
555.00 1.393
555.10 1.393
555.20 1.394
555.30 1.395
555.40 1.395
555.50 1.396
555.60 1.396
555.70 1.397
555.80 1.398
555.90 1.398
556.00 1.399
556.10 1.4
556.20 1.4
556.30 1.401
556.40 1.402
556.50 1.402
556.60 1.403
556.70 1.403
556.80 1.404
556.90 1.405
557.00 1.405
557.10 1.406
557.20 1.406
557.30 1.407
557.40 1.408
557.50 1.408
557.60 1.409
557.70 1.41
557.80 1.41
557.90 1.411
558.00 1.411
558.10 1.412
558.20 1.413
558.30 1.413
558.40 1.414
558.50 1.415
558.60 1.415
558.70 1.416
558.80 1.416
558.90 1.417
559.00 1.418
559.10 1.418
559.20 1.419
559.30 1.419
559.40 1.42
559.50 1.421
559.60 1.421
559.70 1.422
559.80 1.423
559.90 1.423
560.00 1.424
560.10 1.424
560.20 1.425
560.30 1.426
560.40 1.426
560.50 1.427
560.60 1.427
560.70 1.428
560.80 1.429
560.90 1.429
561.00 1.43
561.10 1.43
561.20 1.431
561.30 1.432
561.40 1.432
561.50 1.433
561.60 1.433
561.70 1.434
561.80 1.435
561.90 1.435
562.00 1.436
562.10 1.436
562.20 1.437
562.30 1.438
562.40 1.438
562.50 1.439
562.60 1.439
562.70 1.44
562.80 1.441
562.90 1.441
563.00 1.442
563.10 1.442
563.20 1.443
563.30 1.444
563.40 1.444
563.50 1.445
563.60 1.445
563.70 1.446
563.80 1.447
563.90 1.447
564.00 1.448
564.10 1.448
564.20 1.449
564.30 1.449
564.40 1.45
564.50 1.451
564.60 1.451
564.70 1.452
564.80 1.452
564.90 1.453
565.00 1.454
565.10 1.454
565.20 1.455
565.30 1.455
565.40 1.456
565.50 1.456
565.60 1.457
565.70 1.458
565.80 1.458
565.90 1.459
566.00 1.459
566.10 1.46
566.20 1.46
566.30 1.461
566.40 1.462
566.50 1.462
566.60 1.463
566.70 1.463
566.80 1.464
566.90 1.464
567.00 1.465
567.10 1.465
567.20 1.466
567.30 1.467
567.40 1.467
567.50 1.468
567.60 1.468
567.70 1.469
567.80 1.469
567.90 1.47
568.00 1.471
568.10 1.471
568.20 1.472
568.30 1.472
568.40 1.473
568.50 1.473
568.60 1.474
568.70 1.474
568.80 1.475
568.90 1.475
569.00 1.476
569.10 1.477
569.20 1.477
569.30 1.478
569.40 1.478
569.50 1.479
569.60 1.479
569.70 1.48
569.80 1.48
569.90 1.481
570.00 1.481
570.10 1.482
570.20 1.482
570.30 1.483
570.40 1.484
570.50 1.484
570.60 1.485
570.70 1.485
570.80 1.486
570.90 1.486
571.00 1.487
571.10 1.487
571.20 1.488
571.30 1.488
571.40 1.489
571.50 1.489
571.60 1.49
571.70 1.49
571.80 1.491
571.90 1.491
572.00 1.492
572.10 1.493
572.20 1.493
572.30 1.494
572.40 1.494
572.50 1.495
572.60 1.495
572.70 1.496
572.80 1.496
572.90 1.497
573.00 1.497
573.10 1.498
573.20 1.498
573.30 1.499
573.40 1.499
573.50 1.5
573.60 1.5
573.70 1.501
573.80 1.501
573.90 1.502
574.00 1.502
574.10 1.503
574.20 1.503
574.30 1.504
574.40 1.504
574.50 1.505
574.60 1.505
574.70 1.506
574.80 1.506
574.90 1.507
575.00 1.507
575.10 1.508
575.20 1.508
575.30 1.509
575.40 1.509
575.50 1.51
575.60 1.51
575.70 1.511
575.80 1.511
575.90 1.512
576.00 1.512
576.10 1.513
576.20 1.513
576.30 1.514
576.40 1.514
576.50 1.515
576.60 1.515
576.70 1.516
576.80 1.516
576.90 1.517
577.00 1.517
577.10 1.518
577.20 1.518
577.30 1.519
577.40 1.519
577.50 1.52
577.60 1.52
577.70 1.52
577.80 1.521
577.90 1.521
578.00 1.522
578.10 1.522
578.20 1.523
578.30 1.523
578.40 1.524
578.50 1.524
578.60 1.525
578.70 1.525
578.80 1.526
578.90 1.526
579.00 1.527
579.10 1.527
579.20 1.528
579.30 1.528
579.40 1.528
579.50 1.529
579.60 1.529
579.70 1.53
579.80 1.53
579.90 1.531
580.00 1.531
580.10 1.532
580.20 1.532
580.30 1.533
580.40 1.533
580.50 1.533
580.60 1.534
580.70 1.534
580.80 1.535
580.90 1.535
581.00 1.536
581.10 1.536
581.20 1.537
581.30 1.537
581.40 1.537
581.50 1.538
581.60 1.538
581.70 1.539
581.80 1.539
581.90 1.54
582.00 1.54
582.10 1.541
582.20 1.541
582.30 1.541
582.40 1.542
582.50 1.542
582.60 1.543
582.70 1.543
582.80 1.543
582.90 1.544
583.00 1.544
583.10 1.545
583.20 1.545
583.30 1.546
583.40 1.546
583.50 1.546
583.60 1.547
583.70 1.547
583.80 1.548
583.90 1.548
584.00 1.549
584.10 1.549
584.20 1.549
584.30 1.55
584.40 1.55
584.50 1.551
584.60 1.551
584.70 1.551
584.80 1.552
584.90 1.552
585.00 1.553
585.10 1.553
585.20 1.553
585.30 1.554
585.40 1.554
585.50 1.555
585.60 1.555
585.70 1.555
585.80 1.556
585.90 1.556
586.00 1.556
586.10 1.557
586.20 1.557
586.30 1.558
586.40 1.558
586.50 1.558
586.60 1.559
586.70 1.559
586.80 1.56
586.90 1.56
587.00 1.56
587.10 1.561
587.20 1.561
587.30 1.561
587.40 1.562
587.50 1.562
587.60 1.562
587.70 1.563
587.80 1.563
587.90 1.564
588.00 1.564
588.10 1.564
588.20 1.565
588.30 1.565
588.40 1.565
588.50 1.566
588.60 1.566
588.70 1.566
588.80 1.567
588.90 1.567
589.00 1.567
589.10 1.568
589.20 1.568
589.30 1.568
589.40 1.569
589.50 1.569
589.60 1.569
589.70 1.57
589.80 1.57
589.90 1.57
590.00 1.571
590.10 1.571
590.20 1.571
590.30 1.572
590.40 1.572
590.50 1.572
590.60 1.573
590.70 1.573
590.80 1.573
590.90 1.574
591.00 1.574
591.10 1.574
591.20 1.575
591.30 1.575
591.40 1.575
591.50 1.575
591.60 1.576
591.70 1.576
591.80 1.576
591.90 1.577
592.00 1.577
592.10 1.577
592.20 1.578
592.30 1.578
592.40 1.578
592.50 1.579
592.60 1.579
592.70 1.579
592.80 1.579
592.90 1.58
593.00 1.58
593.10 1.58
593.20 1.581
593.30 1.581
593.40 1.581
593.50 1.581
593.60 1.582
593.70 1.582
593.80 1.582
593.90 1.583
594.00 1.583
594.10 1.583
594.20 1.583
594.30 1.584
594.40 1.584
594.50 1.584
594.60 1.585
594.70 1.585
594.80 1.585
594.90 1.585
595.00 1.586
595.10 1.586
595.20 1.586
595.30 1.586
595.40 1.587
595.50 1.587
595.60 1.587
595.70 1.587
595.80 1.588
595.90 1.588
596.00 1.588
596.10 1.588
596.20 1.589
596.30 1.589
596.40 1.589
596.50 1.589
596.60 1.59
596.70 1.59
596.80 1.59
596.90 1.59
597.00 1.591
597.10 1.591
597.20 1.591
597.30 1.591
597.40 1.592
597.50 1.592
597.60 1.592
597.70 1.592
597.80 1.593
597.90 1.593
598.00 1.593
598.10 1.593
598.20 1.593
598.30 1.594
598.40 1.594
598.50 1.594
598.60 1.594
598.70 1.595
598.80 1.595
598.90 1.595
599.00 1.595
599.10 1.595
599.20 1.596
599.30 1.596
599.40 1.596
599.50 1.596
599.60 1.596
599.70 1.597
599.80 1.597
599.90 1.597
600.00 1.597
600.10 1.597
600.20 1.598
600.30 1.598
600.40 1.598
600.50 1.598
600.60 1.598
600.70 1.598
600.80 1.599
600.90 1.599
601.00 1.599
601.10 1.599
601.20 1.599
601.30 1.6
601.40 1.6
601.50 1.6
601.60 1.6
601.70 1.6
601.80 1.6
601.90 1.601
602.00 1.601
602.10 1.601
602.20 1.601
602.30 1.601
602.40 1.601
602.50 1.601
602.60 1.602
602.70 1.602
602.80 1.602
602.90 1.602
603.00 1.602
603.10 1.602
603.20 1.602
603.30 1.603
603.40 1.603
603.50 1.603
603.60 1.603
603.70 1.603
603.80 1.603
603.90 1.603
604.00 1.604
604.10 1.604
604.20 1.604
604.30 1.604
604.40 1.604
604.50 1.604
604.60 1.604
604.70 1.604
604.80 1.604
604.90 1.605
605.00 1.605
605.10 1.605
605.20 1.605
605.30 1.605
605.40 1.605
605.50 1.605
605.60 1.605
605.70 1.605
605.80 1.605
605.90 1.606
606.00 1.606
606.10 1.606
606.20 1.606
606.30 1.606
606.40 1.606
606.50 1.606
606.60 1.606
606.70 1.606
606.80 1.606
606.90 1.606
607.00 1.606
607.10 1.607
607.20 1.607
607.30 1.607
607.40 1.607
607.50 1.607
607.60 1.607
607.70 1.607
607.80 1.607
607.90 1.607
608.00 1.607
608.10 1.607
608.20 1.607
608.30 1.607
608.40 1.607
608.50 1.607
608.60 1.607
608.70 1.607
608.80 1.607
608.90 1.607
609.00 1.608
609.10 1.608
609.20 1.608
609.30 1.608
609.40 1.608
609.50 1.608
609.60 1.608
609.70 1.608
609.80 1.608
609.90 1.608
610.00 1.608
610.10 1.608
610.20 1.608
610.30 1.608
610.40 1.608
610.50 1.608
610.60 1.608
610.70 1.608
610.80 1.608
610.90 1.608
611.00 1.608
611.10 1.608
611.20 1.608
611.30 1.608
611.40 1.608
611.50 1.608
611.60 1.608
611.70 1.608
611.80 1.608
611.90 1.608
612.00 1.608
612.10 1.608
612.20 1.608
612.30 1.608
612.40 1.607
612.50 1.607
612.60 1.607
612.70 1.607
612.80 1.607
612.90 1.607
613.00 1.607
613.10 1.607
613.20 1.607
613.30 1.607
613.40 1.607
613.50 1.607
613.60 1.607
613.70 1.607
613.80 1.607
613.90 1.607
614.00 1.607
614.10 1.607
614.20 1.607
614.30 1.606
614.40 1.606
614.50 1.606
614.60 1.606
614.70 1.606
614.80 1.606
614.90 1.606
615.00 1.606
615.10 1.606
615.20 1.606
615.30 1.606
615.40 1.605
615.50 1.605
615.60 1.605
615.70 1.605
615.80 1.605
615.90 1.605
616.00 1.605
616.10 1.605
616.20 1.604
616.30 1.604
616.40 1.604
616.50 1.604
616.60 1.604
616.70 1.604
616.80 1.604
616.90 1.604
617.00 1.603
617.10 1.603
617.20 1.603
617.30 1.603
617.40 1.603
617.50 1.603
617.60 1.603
617.70 1.602
617.80 1.602
617.90 1.602
618.00 1.602
618.10 1.602
618.20 1.602
618.30 1.601
618.40 1.601
618.50 1.601
618.60 1.601
618.70 1.601
618.80 1.601
618.90 1.6
619.00 1.6
619.10 1.6
619.20 1.6
619.30 1.6
619.40 1.599
619.50 1.599
619.60 1.599
619.70 1.599
619.80 1.599
619.90 1.598
620.00 1.598
620.10 1.598
620.20 1.598
620.30 1.598
620.40 1.597
620.50 1.597
620.60 1.597
620.70 1.597
620.80 1.596
620.90 1.596
621.00 1.596
621.10 1.596
621.20 1.596
621.30 1.595
621.40 1.595
621.50 1.595
621.60 1.595
621.70 1.594
621.80 1.594
621.90 1.594
622.00 1.594
622.10 1.593
622.20 1.593
622.30 1.593
622.40 1.593
622.50 1.592
622.60 1.592
622.70 1.592
622.80 1.592
622.90 1.591
623.00 1.591
623.10 1.591
623.20 1.591
623.30 1.59
623.40 1.59
623.50 1.59
623.60 1.589
623.70 1.589
623.80 1.589
623.90 1.589
624.00 1.588
624.10 1.588
624.20 1.588
624.30 1.587
624.40 1.587
624.50 1.587
624.60 1.586
624.70 1.586
624.80 1.586
624.90 1.586
625.00 1.585
625.10 1.585
625.20 1.585
625.30 1.584
625.40 1.584
625.50 1.584
625.60 1.583
625.70 1.583
625.80 1.583
625.90 1.582
626.00 1.582
626.10 1.582
626.20 1.581
626.30 1.581
626.40 1.58
626.50 1.58
626.60 1.58
626.70 1.579
626.80 1.579
626.90 1.579
627.00 1.578
627.10 1.578
627.20 1.578
627.30 1.577
627.40 1.577
627.50 1.576
627.60 1.576
627.70 1.576
627.80 1.575
627.90 1.575
628.00 1.574
628.10 1.574
628.20 1.574
628.30 1.573
628.40 1.573
628.50 1.572
628.60 1.572
628.70 1.572
628.80 1.571
628.90 1.571
629.00 1.57
629.10 1.57
629.20 1.57
629.30 1.569
629.40 1.569
629.50 1.568
629.60 1.568
629.70 1.567
629.80 1.567
629.90 1.567
630.00 1.566
630.10 1.566
630.20 1.565
630.30 1.565
630.40 1.564
630.50 1.564
630.60 1.563
630.70 1.563
630.80 1.563
630.90 1.562
631.00 1.562
631.10 1.561
631.20 1.561
631.30 1.56
631.40 1.56
631.50 1.559
631.60 1.559
631.70 1.558
631.80 1.558
631.90 1.557
632.00 1.557
632.10 1.556
632.20 1.556
632.30 1.555
632.40 1.555
632.50 1.554
632.60 1.554
632.70 1.553
632.80 1.553
632.90 1.552
633.00 1.552
633.10 1.551
633.20 1.551
633.30 1.55
633.40 1.55
633.50 1.549
633.60 1.549
633.70 1.548
633.80 1.548
633.90 1.547
634.00 1.547
634.10 1.546
634.20 1.545
634.30 1.545
634.40 1.544
634.50 1.544
634.60 1.543
634.70 1.543
634.80 1.542
634.90 1.541
635.00 1.541
635.10 1.54
635.20 1.54
635.30 1.539
635.40 1.539
635.50 1.538
635.60 1.537
635.70 1.537
635.80 1.536
635.90 1.536
636.00 1.535
636.10 1.535
636.20 1.534
636.30 1.533
636.40 1.533
636.50 1.532
636.60 1.532
636.70 1.531
636.80 1.53
636.90 1.53
637.00 1.529
637.10 1.528
637.20 1.528
637.30 1.527
637.40 1.527
637.50 1.526
637.60 1.525
637.70 1.525
637.80 1.524
637.90 1.523
638.00 1.523
638.10 1.522
638.20 1.521
638.30 1.521
638.40 1.52
638.50 1.519
638.60 1.519
638.70 1.518
638.80 1.518
638.90 1.517
639.00 1.516
639.10 1.516
639.20 1.515
639.30 1.514
639.40 1.514
639.50 1.513
639.60 1.512
639.70 1.511
639.80 1.511
639.90 1.51
640.00 1.509
640.10 1.509
640.20 1.508
640.30 1.507
640.40 1.507
640.50 1.506
640.60 1.505
640.70 1.504
640.80 1.504
640.90 1.503
641.00 1.502
641.10 1.501
641.20 1.501
641.30 1.5
641.40 1.499
641.50 1.499
641.60 1.498
641.70 1.497
641.80 1.496
641.90 1.495
642.00 1.495
642.10 1.494
642.20 1.493
642.30 1.492
642.40 1.492
642.50 1.491
642.60 1.49
642.70 1.489
642.80 1.488
642.90 1.488
643.00 1.487
643.10 1.486
643.20 1.485
643.30 1.484
643.40 1.484
643.50 1.483
643.60 1.482
643.70 1.481
643.80 1.48
643.90 1.48
644.00 1.479
644.10 1.478
644.20 1.477
644.30 1.476
644.40 1.475
644.50 1.475
644.60 1.474
644.70 1.473
644.80 1.472
644.90 1.471
645.00 1.47
645.10 1.47
645.20 1.469
645.30 1.468
645.40 1.467
645.50 1.466
645.60 1.465
645.70 1.464
645.80 1.464
645.90 1.463
646.00 1.462
646.10 1.461
646.20 1.46
646.30 1.459
646.40 1.458
646.50 1.457
646.60 1.457
646.70 1.456
646.80 1.455
646.90 1.454
647.00 1.453
647.10 1.452
647.20 1.451
647.30 1.45
647.40 1.45
647.50 1.449
647.60 1.448
647.70 1.447
647.80 1.446
647.90 1.445
648.00 1.444
648.10 1.443
648.20 1.442
648.30 1.441
648.40 1.44
648.50 1.439
648.60 1.439
648.70 1.438
648.80 1.437
648.90 1.436
649.00 1.435
649.10 1.434
649.20 1.433
649.30 1.432
649.40 1.431
649.50 1.43
649.60 1.429
649.70 1.428
649.80 1.427
649.90 1.426
650.00 1.425
650.10 1.424
650.20 1.423
650.30 1.422
650.40 1.421
650.50 1.42
650.60 1.419
650.70 1.418
650.80 1.417
650.90 1.416
651.00 1.415
651.10 1.414
651.20 1.413
651.30 1.412
651.40 1.411
651.50 1.41
651.60 1.409
651.70 1.408
651.80 1.407
651.90 1.406
652.00 1.405
652.10 1.404
652.20 1.403
652.30 1.402
652.40 1.401
652.50 1.4
652.60 1.399
652.70 1.398
652.80 1.397
652.90 1.396
653.00 1.395
653.10 1.394
653.20 1.393
653.30 1.392
653.40 1.391
653.50 1.39
653.60 1.389
653.70 1.388
653.80 1.386
653.90 1.385
654.00 1.384
654.10 1.383
654.20 1.382
654.30 1.381
654.40 1.38
654.50 1.379
654.60 1.378
654.70 1.377
654.80 1.376
654.90 1.375
655.00 1.374
655.10 1.372
655.20 1.371
655.30 1.37
655.40 1.369
655.50 1.368
655.60 1.367
655.70 1.366
655.80 1.365
655.90 1.364
656.00 1.362
656.10 1.361
656.20 1.36
656.30 1.359
656.40 1.358
656.50 1.357
656.60 1.356
656.70 1.355
656.80 1.353
656.90 1.352
657.00 1.351
657.10 1.35
657.20 1.349
657.30 1.348
657.40 1.347
657.50 1.345
657.60 1.344
657.70 1.343
657.80 1.342
657.90 1.341
658.00 1.34
658.10 1.338
658.20 1.337
658.30 1.336
658.40 1.335
658.50 1.334
658.60 1.333
658.70 1.331
658.80 1.33
658.90 1.329
659.00 1.328
659.10 1.327
659.20 1.325
659.30 1.324
659.40 1.323
659.50 1.322
659.60 1.321
659.70 1.319
659.80 1.318
659.90 1.317
660.00 1.316
660.10 1.315
660.20 1.313
660.30 1.312
660.40 1.311
660.50 1.31
660.60 1.309
660.70 1.307
660.80 1.306
660.90 1.305
661.00 1.304
661.10 1.302
661.20 1.301
661.30 1.3
661.40 1.299
661.50 1.297
661.60 1.296
661.70 1.295
661.80 1.294
661.90 1.292
662.00 1.291
662.10 1.29
662.20 1.289
662.30 1.287
662.40 1.286
662.50 1.285
662.60 1.284
662.70 1.282
662.80 1.281
662.90 1.28
663.00 1.278
663.10 1.277
663.20 1.276
663.30 1.275
663.40 1.273
663.50 1.272
663.60 1.271
663.70 1.269
663.80 1.268
663.90 1.267
664.00 1.265
664.10 1.264
664.20 1.263
664.30 1.262
664.40 1.26
664.50 1.259
664.60 1.258
664.70 1.256
664.80 1.255
664.90 1.254
665.00 1.252
665.10 1.251
665.20 1.25
665.30 1.248
665.40 1.247
665.50 1.246
665.60 1.244
665.70 1.243
665.80 1.242
665.90 1.24
666.00 1.239
666.10 1.238
666.20 1.236
666.30 1.235
666.40 1.234
666.50 1.232
666.60 1.231
666.70 1.23
666.80 1.228
666.90 1.227
667.00 1.225
667.10 1.224
667.20 1.223
667.30 1.221
667.40 1.22
667.50 1.219
667.60 1.217
667.70 1.216
667.80 1.214
667.90 1.213
668.00 1.212
668.10 1.21
668.20 1.209
668.30 1.208
668.40 1.206
668.50 1.205
668.60 1.203
668.70 1.202
668.80 1.201
668.90 1.199
669.00 1.198
669.10 1.196
669.20 1.195
669.30 1.194
669.40 1.192
669.50 1.191
669.60 1.189
669.70 1.188
669.80 1.186
669.90 1.185
670.00 1.184
670.10 1.182
670.20 1.181
670.30 1.179
670.40 1.178
670.50 1.176
670.60 1.175
670.70 1.174
670.80 1.172
670.90 1.171
671.00 1.169
671.10 1.168
671.20 1.166
671.30 1.165
671.40 1.164
671.50 1.162
671.60 1.161
671.70 1.159
671.80 1.158
671.90 1.156
672.00 1.155
672.10 1.153
672.20 1.152
672.30 1.15
672.40 1.149
672.50 1.147
672.60 1.146
672.70 1.144
672.80 1.143
672.90 1.142
673.00 1.14
673.10 1.139
673.20 1.137
673.30 1.136
673.40 1.134
673.50 1.133
673.60 1.131
673.70 1.13
673.80 1.128
673.90 1.127
674.00 1.125
674.10 1.124
674.20 1.122
674.30 1.121
674.40 1.119
674.50 1.118
674.60 1.116
674.70 1.115
674.80 1.113
674.90 1.112
675.00 1.11
675.10 1.109
675.20 1.107
675.30 1.106
675.40 1.104
675.50 1.103
675.60 1.101
675.70 1.1
675.80 1.098
675.90 1.097
676.00 1.095
676.10 1.094
676.20 1.092
676.30 1.091
676.40 1.089
676.50 1.087
676.60 1.086
676.70 1.084
676.80 1.083
676.90 1.081
677.00 1.08
677.10 1.078
677.20 1.077
677.30 1.075
677.40 1.074
677.50 1.072
677.60 1.071
677.70 1.069
677.80 1.068
677.90 1.066
678.00 1.064
678.10 1.063
678.20 1.061
678.30 1.06
678.40 1.058
678.50 1.057
678.60 1.055
678.70 1.054
678.80 1.052
678.90 1.05
679.00 1.049
679.10 1.047
679.20 1.046
679.30 1.044
679.40 1.043
679.50 1.041
679.60 1.04
679.70 1.038
679.80 1.036
679.90 1.035
680.00 1.033
680.10 1.032
680.20 1.03
680.30 1.029
680.40 1.027
680.50 1.025
680.60 1.024
680.70 1.022
680.80 1.021
680.90 1.019
681.00 1.017
681.10 1.016
681.20 1.014
681.30 1.013
681.40 1.011
681.50 1.01
681.60 1.008
681.70 1.006
681.80 1.005
681.90 1.003
682.00 1.002
682.10 1
682.20 0.9985
682.30 0.9969
682.40 0.9953
682.50 0.9937
682.60 0.9921
682.70 0.9905
682.80 0.9889
682.90 0.9873
683.00 0.9857
683.10 0.9841
683.20 0.9825
683.30 0.9809
683.40 0.9793
683.50 0.9776
683.60 0.976
683.70 0.9744
683.80 0.9728
683.90 0.9712
684.00 0.9696
684.10 0.968
684.20 0.9664
684.30 0.9648
684.40 0.9632
684.50 0.9616
684.60 0.96
684.70 0.9584
684.80 0.9567
684.90 0.9551
685.00 0.9535
685.10 0.9519
685.20 0.9503
685.30 0.9487
685.40 0.9471
685.50 0.9455
685.60 0.9438
685.70 0.9422
685.80 0.9406
685.90 0.939
686.00 0.9374
686.10 0.9358
686.20 0.9342
686.30 0.9325
686.40 0.9309
686.50 0.9293
686.60 0.9277
686.70 0.926
686.80 0.9244
686.90 0.9228
687.00 0.9212
687.10 0.9196
687.20 0.9179
687.30 0.9163
687.40 0.9147
687.50 0.9131
687.60 0.9114
687.70 0.9098
687.80 0.9082
687.90 0.9066
688.00 0.9049
688.10 0.9033
688.20 0.9017
688.30 0.9001
688.40 0.8985
688.50 0.8968
688.60 0.8952
688.70 0.8936
688.80 0.892
688.90 0.8904
689.00 0.8887
689.10 0.8871
689.20 0.8855
689.30 0.8839
689.40 0.8822
689.50 0.8806
689.60 0.879
689.70 0.8773
689.80 0.8757
689.90 0.874
690.00 0.8724
690.10 0.8708
690.20 0.8691
690.30 0.8675
690.40 0.8659
690.50 0.8642
690.60 0.8626
690.70 0.861
690.80 0.8593
690.90 0.8577
691.00 0.8561
691.10 0.8545
691.20 0.8528
691.30 0.8512
691.40 0.8496
691.50 0.848
691.60 0.8464
691.70 0.8447
691.80 0.8431
691.90 0.8415
692.00 0.8399
692.10 0.8383
692.20 0.8366
692.30 0.835
692.40 0.8334
692.50 0.8318
692.60 0.8302
692.70 0.8286
692.80 0.827
692.90 0.8254
693.00 0.8238
693.10 0.8221
693.20 0.8205
693.30 0.8189
693.40 0.8173
693.50 0.8157
693.60 0.8141
693.70 0.8125
693.80 0.8109
693.90 0.8093
694.00 0.8077
694.10 0.8061
694.20 0.8045
694.30 0.8029
694.40 0.8013
694.50 0.7997
694.60 0.7981
694.70 0.7965
694.80 0.795
694.90 0.7934
695.00 0.7918
695.10 0.7902
695.20 0.7886
695.30 0.787
695.40 0.7854
695.50 0.7839
695.60 0.7823
695.70 0.7807
695.80 0.7791
695.90 0.7775
696.00 0.776
696.10 0.7744
696.20 0.7728
696.30 0.7712
696.40 0.7697
696.50 0.7681
696.60 0.7665
696.70 0.7649
696.80 0.7634
696.90 0.7618
697.00 0.7602
697.10 0.7587
697.20 0.7571
697.30 0.7555
697.40 0.754
697.50 0.7524
697.60 0.7508
697.70 0.7493
697.80 0.7477
697.90 0.7462
698.00 0.7446
698.10 0.743
698.20 0.7415
698.30 0.7399
698.40 0.7384
698.50 0.7368
698.60 0.7353
698.70 0.7337
698.80 0.7322
698.90 0.7306
699.00 0.729
699.10 0.7275
699.20 0.7259
699.30 0.7244
699.40 0.7229
699.50 0.7213
699.60 0.7198
699.70 0.7182
699.80 0.7167
699.90 0.7151
700.00 0.7136
700.10 0.7121
700.20 0.7106
700.30 0.7091
700.40 0.7076
700.50 0.7061
700.60 0.7046
700.70 0.7031
700.80 0.7016
700.90 0.7001
701.00 0.6986
701.10 0.6971
701.20 0.6956
701.30 0.6941
701.40 0.6926
701.50 0.6911
701.60 0.6896
701.70 0.6881
701.80 0.6866
701.90 0.6851
702.00 0.6836
702.10 0.6821
702.20 0.6806
702.30 0.6791
702.40 0.6777
702.50 0.6762
702.60 0.6747
702.70 0.6732
702.80 0.6717
702.90 0.6702
703.00 0.6687
703.10 0.6673
703.20 0.6658
703.30 0.6643
703.40 0.6628
703.50 0.6613
703.60 0.6599
703.70 0.6584
703.80 0.6569
703.90 0.6554
704.00 0.654
704.10 0.6525
704.20 0.651
704.30 0.6495
704.40 0.6481
704.50 0.6466
704.60 0.6451
704.70 0.6437
704.80 0.6422
704.90 0.6407
705.00 0.6393
705.10 0.6379
705.20 0.6365
705.30 0.6351
705.40 0.6337
705.50 0.6323
705.60 0.6309
705.70 0.6295
705.80 0.6282
705.90 0.6268
706.00 0.6254
706.10 0.624
706.20 0.6226
706.30 0.6213
706.40 0.6199
706.50 0.6185
706.60 0.6171
706.70 0.6157
706.80 0.6144
706.90 0.613
707.00 0.6116
707.10 0.6102
707.20 0.6089
707.30 0.6075
707.40 0.6061
707.50 0.6047
707.60 0.6034
707.70 0.602
707.80 0.6006
707.90 0.5993
708.00 0.5979
708.10 0.5965
708.20 0.5952
708.30 0.5938
708.40 0.5924
708.50 0.5911
708.60 0.5897
708.70 0.5883
708.80 0.587
708.90 0.5856
709.00 0.5843
709.10 0.5829
709.20 0.5815
709.30 0.5802
709.40 0.5788
709.50 0.5775
709.60 0.5761
709.70 0.5748
709.80 0.5734
709.90 0.572
710.00 0.5707
710.10 0.5694
710.20 0.5682
710.30 0.5669
710.40 0.5657
710.50 0.5644
710.60 0.5631
710.70 0.5619
710.80 0.5606
710.90 0.5594
711.00 0.5581
711.10 0.5569
711.20 0.5556
711.30 0.5544
711.40 0.5531
711.50 0.5519
711.60 0.5506
711.70 0.5494
711.80 0.5481
711.90 0.5469
712.00 0.5456
712.10 0.5444
712.20 0.5431
712.30 0.5419
712.40 0.5406
712.50 0.5394
712.60 0.5382
712.70 0.5369
712.80 0.5357
712.90 0.5344
713.00 0.5332
713.10 0.5319
713.20 0.5307
713.30 0.5295
713.40 0.5282
713.50 0.527
713.60 0.5258
713.70 0.5245
713.80 0.5233
713.90 0.5221
714.00 0.5208
714.10 0.5196
714.20 0.5184
714.30 0.5171
714.40 0.5159
714.50 0.5147
714.60 0.5134
714.70 0.5122
714.80 0.511
714.90 0.5097
715.00 0.5085
715.10 0.5074
715.20 0.5063
715.30 0.5052
715.40 0.504
715.50 0.5029
715.60 0.5018
715.70 0.5007
715.80 0.4996
715.90 0.4985
716.00 0.4974
716.10 0.4962
716.20 0.4951
716.30 0.494
716.40 0.4929
716.50 0.4918
716.60 0.4907
716.70 0.4896
716.80 0.4885
716.90 0.4874
717.00 0.4863
717.10 0.4852
717.20 0.484
717.30 0.4829
717.40 0.4818
717.50 0.4807
717.60 0.4796
717.70 0.4785
717.80 0.4774
717.90 0.4763
718.00 0.4752
718.10 0.4741
718.20 0.473
718.30 0.4719
718.40 0.4708
718.50 0.4697
718.60 0.4686
718.70 0.4675
718.80 0.4664
718.90 0.4653
719.00 0.4642
719.10 0.4631
719.20 0.462
719.30 0.461
719.40 0.4599
719.50 0.4588
719.60 0.4577
719.70 0.4566
719.80 0.4555
719.90 0.4544
720.00 0.4533
720.10 0.4523
720.20 0.4514
720.30 0.4504
720.40 0.4494
720.50 0.4485
720.60 0.4475
720.70 0.4465
720.80 0.4456
720.90 0.4446
721.00 0.4437
721.10 0.4427
721.20 0.4417
721.30 0.4408
721.40 0.4398
721.50 0.4389
721.60 0.4379
721.70 0.4369
721.80 0.436
721.90 0.435
722.00 0.4341
722.10 0.4331
722.20 0.4321
722.30 0.4312
722.40 0.4302
722.50 0.4293
722.60 0.4283
722.70 0.4274
722.80 0.4264
722.90 0.4255
723.00 0.4245
723.10 0.4236
723.20 0.4226
723.30 0.4217
723.40 0.4207
723.50 0.4198
723.60 0.4188
723.70 0.4179
723.80 0.4169
723.90 0.416
724.00 0.415
724.10 0.4141
724.20 0.4131
724.30 0.4122
724.40 0.4112
724.50 0.4103
724.60 0.4093
724.70 0.4084
724.80 0.4075
724.90 0.4065
725.00 0.4056
725.10 0.4047
725.20 0.4039
725.30 0.4031
725.40 0.4023
725.50 0.4015
725.60 0.4007
725.70 0.3998
725.80 0.399
725.90 0.3982
726.00 0.3974
726.10 0.3966
726.20 0.3958
726.30 0.3949
726.40 0.3941
726.50 0.3933
726.60 0.3925
726.70 0.3917
726.80 0.3909
726.90 0.3901
727.00 0.3893
727.10 0.3884
727.20 0.3876
727.30 0.3868
727.40 0.386
727.50 0.3852
727.60 0.3844
727.70 0.3836
727.80 0.3828
727.90 0.382
728.00 0.3812
728.10 0.3803
728.20 0.3795
728.30 0.3787
728.40 0.3779
728.50 0.3771
728.60 0.3763
728.70 0.3755
728.80 0.3747
728.90 0.3739
729.00 0.3731
729.10 0.3723
729.20 0.3715
729.30 0.3707
729.40 0.3699
729.50 0.3691
729.60 0.3683
729.70 0.3675
729.80 0.3667
729.90 0.3659
730.00 0.3651
730.10 0.3645
730.20 0.3639
730.30 0.3633
730.40 0.3627
730.50 0.3621
730.60 0.3615
730.70 0.3609
730.80 0.3603
730.90 0.3597
731.00 0.3591
731.10 0.3585
731.20 0.3579
731.30 0.3574
731.40 0.3568
731.50 0.3562
731.60 0.3556
731.70 0.355
731.80 0.3544
731.90 0.3538
732.00 0.3532
732.10 0.3526
732.20 0.352
732.30 0.3514
732.40 0.3508
732.50 0.3503
732.60 0.3497
732.70 0.3491
732.80 0.3485
732.90 0.3479
733.00 0.3473
733.10 0.3467
733.20 0.3461
733.30 0.3455
733.40 0.345
733.50 0.3444
733.60 0.3438
733.70 0.3432
733.80 0.3426
733.90 0.342
734.00 0.3414
734.10 0.3409
734.20 0.3403
734.30 0.3397
734.40 0.3391
734.50 0.3385
734.60 0.3379
734.70 0.3374
734.80 0.3368
734.90 0.3362
735.00 0.3356
735.10 0.335
735.20 0.3344
735.30 0.3339
735.40 0.3333
735.50 0.3327
735.60 0.3321
735.70 0.3315
735.80 0.331
735.90 0.3304
736.00 0.3298
736.10 0.3292
736.20 0.3286
736.30 0.3281
736.40 0.3275
736.50 0.3269
736.60 0.3263
736.70 0.3258
736.80 0.3252
736.90 0.3246
737.00 0.324
737.10 0.3234
737.20 0.3229
737.30 0.3223
737.40 0.3217
737.50 0.3211
737.60 0.3206
737.70 0.32
737.80 0.3194
737.90 0.3189
738.00 0.3183
738.10 0.3177
738.20 0.3171
738.30 0.3166
738.40 0.316
738.50 0.3154
738.60 0.3148
738.70 0.3143
738.80 0.3137
738.90 0.3131
739.00 0.3126
739.10 0.312
739.20 0.3114
739.30 0.3109
739.40 0.3103
739.50 0.3097
739.60 0.3091
739.70 0.3086
739.80 0.308
739.90 0.3074
740.00 0.3069
740.10 0.3065
740.20 0.3062
740.30 0.3058
740.40 0.3055
740.50 0.3051
740.60 0.3047
740.70 0.3044
740.80 0.304
740.90 0.3037
741.00 0.3033
741.10 0.303
741.20 0.3026
741.30 0.3023
741.40 0.3019
741.50 0.3015
741.60 0.3012
741.70 0.3008
741.80 0.3005
741.90 0.3001
742.00 0.2998
742.10 0.2994
742.20 0.2991
742.30 0.2987
742.40 0.2984
742.50 0.298
742.60 0.2977
742.70 0.2973
742.80 0.297
742.90 0.2966
743.00 0.2963
743.10 0.2959
743.20 0.2956
743.30 0.2952
743.40 0.2948
743.50 0.2945
743.60 0.2941
743.70 0.2938
743.80 0.2934
743.90 0.2931
744.00 0.2927
744.10 0.2924
744.20 0.292
744.30 0.2917
744.40 0.2913
744.50 0.291
744.60 0.2907
744.70 0.2903
744.80 0.29
744.90 0.2896
745.00 0.2893
745.10 0.2889
745.20 0.2886
745.30 0.2882
745.40 0.2879
745.50 0.2875
745.60 0.2872
745.70 0.2868
745.80 0.2865
745.90 0.2861
746.00 0.2858
746.10 0.2854
746.20 0.2851
746.30 0.2848
746.40 0.2844
746.50 0.2841
746.60 0.2837
746.70 0.2834
746.80 0.283
746.90 0.2827
747.00 0.2823
747.10 0.282
747.20 0.2816
747.30 0.2813
747.40 0.281
747.50 0.2806
747.60 0.2803
747.70 0.2799
747.80 0.2796
747.90 0.2792
748.00 0.2789
748.10 0.2786
748.20 0.2782
748.30 0.2779
748.40 0.2775
748.50 0.2772
748.60 0.2768
748.70 0.2765
748.80 0.2762
748.90 0.2758
749.00 0.2755
749.10 0.2751
749.20 0.2748
749.30 0.2745
749.40 0.2741
749.50 0.2738
749.60 0.2734
749.70 0.2731
749.80 0.2728
749.90 0.2724
750.00 0.2721
750.10 0.2719
750.20 0.2716
750.30 0.2714
750.40 0.2712
750.50 0.271
750.60 0.2708
750.70 0.2705
750.80 0.2703
750.90 0.2701
751.00 0.2699
751.10 0.2697
751.20 0.2694
751.30 0.2692
751.40 0.269
751.50 0.2688
751.60 0.2686
751.70 0.2683
751.80 0.2681
751.90 0.2679
752.00 0.2677
752.10 0.2675
752.20 0.2673
752.30 0.267
752.40 0.2668
752.50 0.2666
752.60 0.2664
752.70 0.2662
752.80 0.2659
752.90 0.2657
753.00 0.2655
753.10 0.2653
753.20 0.2651
753.30 0.2649
753.40 0.2646
753.50 0.2644
753.60 0.2642
753.70 0.264
753.80 0.2638
753.90 0.2636
754.00 0.2633
754.10 0.2631
754.20 0.2629
754.30 0.2627
754.40 0.2625
754.50 0.2623
754.60 0.262
754.70 0.2618
754.80 0.2616
754.90 0.2614
755.00 0.2612
755.10 0.261
755.20 0.2608
755.30 0.2605
755.40 0.2603
755.50 0.2601
755.60 0.2599
755.70 0.2597
755.80 0.2595
755.90 0.2593
756.00 0.259
756.10 0.2588
756.20 0.2586
756.30 0.2584
756.40 0.2582
756.50 0.258
756.60 0.2578
756.70 0.2575
756.80 0.2573
756.90 0.2571
757.00 0.2569
757.10 0.2567
757.20 0.2565
757.30 0.2563
757.40 0.2561
757.50 0.2558
757.60 0.2556
757.70 0.2554
757.80 0.2552
757.90 0.255
758.00 0.2548
758.10 0.2546
758.20 0.2544
758.30 0.2541
758.40 0.2539
758.50 0.2537
758.60 0.2535
758.70 0.2533
758.80 0.2531
758.90 0.2529
759.00 0.2527
759.10 0.2525
759.20 0.2522
759.30 0.252
759.40 0.2518
759.50 0.2516
759.60 0.2514
759.70 0.2512
759.80 0.251
759.90 0.2508
760.00 0.2506
760.10 0.2504
760.20 0.2503
760.30 0.2501
760.40 0.25
760.50 0.2498
760.60 0.2497
760.70 0.2495
760.80 0.2494
760.90 0.2493
761.00 0.2491
761.10 0.249
761.20 0.2488
761.30 0.2487
761.40 0.2485
761.50 0.2484
761.60 0.2483
761.70 0.2481
761.80 0.248
761.90 0.2478
762.00 0.2477
762.10 0.2475
762.20 0.2474
762.30 0.2473
762.40 0.2471
762.50 0.247
762.60 0.2468
762.70 0.2467
762.80 0.2465
762.90 0.2464
763.00 0.2463
763.10 0.2461
763.20 0.246
763.30 0.2458
763.40 0.2457
763.50 0.2455
763.60 0.2454
763.70 0.2453
763.80 0.2451
763.90 0.245
764.00 0.2448
764.10 0.2447
764.20 0.2445
764.30 0.2444
764.40 0.2443
764.50 0.2441
764.60 0.244
764.70 0.2438
764.80 0.2437
764.90 0.2436
765.00 0.2434
765.10 0.2433
765.20 0.2431
765.30 0.243
765.40 0.2428
765.50 0.2427
765.60 0.2426
765.70 0.2424
765.80 0.2423
765.90 0.2421
766.00 0.242
766.10 0.2419
766.20 0.2417
766.30 0.2416
766.40 0.2414
766.50 0.2413
766.60 0.2412
766.70 0.241
766.80 0.2409
766.90 0.2407
767.00 0.2406
767.10 0.2405
767.20 0.2403
767.30 0.2402
767.40 0.24
767.50 0.2399
767.60 0.2398
767.70 0.2396
767.80 0.2395
767.90 0.2393
768.00 0.2392
768.10 0.2391
768.20 0.2389
768.30 0.2388
768.40 0.2387
768.50 0.2385
768.60 0.2384
768.70 0.2382
768.80 0.2381
768.90 0.238
769.00 0.2378
769.10 0.2377
769.20 0.2375
769.30 0.2374
769.40 0.2373
769.50 0.2371
769.60 0.237
769.70 0.2369
769.80 0.2367
769.90 0.2366
770.00 0.2364
770.10 0.2364
770.20 0.2363
770.30 0.2362
770.40 0.2362
770.50 0.2361
770.60 0.236
770.70 0.236
770.80 0.2359
770.90 0.2358
771.00 0.2357
771.10 0.2357
771.20 0.2356
771.30 0.2355
771.40 0.2355
771.50 0.2354
771.60 0.2353
771.70 0.2353
771.80 0.2352
771.90 0.2351
772.00 0.2351
772.10 0.235
772.20 0.2349
772.30 0.2349
772.40 0.2348
772.50 0.2347
772.60 0.2347
772.70 0.2346
772.80 0.2345
772.90 0.2344
773.00 0.2344
773.10 0.2343
773.20 0.2342
773.30 0.2342
773.40 0.2341
773.50 0.234
773.60 0.234
773.70 0.2339
773.80 0.2338
773.90 0.2338
774.00 0.2337
774.10 0.2336
774.20 0.2336
774.30 0.2335
774.40 0.2334
774.50 0.2334
774.60 0.2333
774.70 0.2332
774.80 0.2332
774.90 0.2331
775.00 0.233
775.10 0.233
775.20 0.2329
775.30 0.2328
775.40 0.2327
775.50 0.2327
775.60 0.2326
775.70 0.2325
775.80 0.2325
775.90 0.2324
776.00 0.2323
776.10 0.2323
776.20 0.2322
776.30 0.2321
776.40 0.2321
776.50 0.232
776.60 0.2319
776.70 0.2319
776.80 0.2318
776.90 0.2317
777.00 0.2317
777.10 0.2316
777.20 0.2315
777.30 0.2315
777.40 0.2314
777.50 0.2313
777.60 0.2313
777.70 0.2312
777.80 0.2311
777.90 0.2311
778.00 0.231
778.10 0.2309
778.20 0.2309
778.30 0.2308
778.40 0.2307
778.50 0.2307
778.60 0.2306
778.70 0.2305
778.80 0.2305
778.90 0.2304
779.00 0.2303
779.10 0.2303
779.20 0.2302
779.30 0.2301
779.40 0.2301
779.50 0.23
779.60 0.2299
779.70 0.2299
779.80 0.2298
779.90 0.2297
780.00 0.2297
780.10 0.2297
780.20 0.2297
780.30 0.2298
780.40 0.2298
780.50 0.2298
780.60 0.2299
780.70 0.2299
780.80 0.2299
780.90 0.23
781.00 0.23
781.10 0.2301
781.20 0.2301
781.30 0.2301
781.40 0.2302
781.50 0.2302
781.60 0.2302
781.70 0.2303
781.80 0.2303
781.90 0.2303
782.00 0.2304
782.10 0.2304
782.20 0.2304
782.30 0.2305
782.40 0.2305
782.50 0.2305
782.60 0.2306
782.70 0.2306
782.80 0.2306
782.90 0.2307
783.00 0.2307
783.10 0.2307
783.20 0.2308
783.30 0.2308
783.40 0.2308
783.50 0.2309
783.60 0.2309
783.70 0.2309
783.80 0.231
783.90 0.231
784.00 0.231
784.10 0.2311
784.20 0.2311
784.30 0.2311
784.40 0.2312
784.50 0.2312
784.60 0.2312
784.70 0.2313
784.80 0.2313
784.90 0.2313
785.00 0.2314
785.10 0.2314
785.20 0.2314
785.30 0.2315
785.40 0.2315
785.50 0.2315
785.60 0.2316
785.70 0.2316
785.80 0.2316
785.90 0.2317
786.00 0.2317
786.10 0.2317
786.20 0.2318
786.30 0.2318
786.40 0.2318
786.50 0.2319
786.60 0.2319
786.70 0.2319
786.80 0.232
786.90 0.232
787.00 0.232
787.10 0.2321
787.20 0.2321
787.30 0.2321
787.40 0.2322
787.50 0.2322
787.60 0.2322
787.70 0.2323
787.80 0.2323
787.90 0.2323
788.00 0.2324
788.10 0.2324
788.20 0.2324
788.30 0.2325
788.40 0.2325
788.50 0.2325
788.60 0.2326
788.70 0.2326
788.80 0.2326
788.90 0.2327
789.00 0.2327
789.10 0.2327
789.20 0.2328
789.30 0.2328
789.40 0.2328
789.50 0.2329
789.60 0.2329
789.70 0.2329
789.80 0.233
789.90 0.233
790.00 0.233
790.10 0.2331
790.20 0.2332
790.30 0.2333
790.40 0.2334
790.50 0.2334
790.60 0.2335
790.70 0.2336
790.80 0.2337
790.90 0.2338
791.00 0.2339
791.10 0.2339
791.20 0.234
791.30 0.2341
791.40 0.2342
791.50 0.2343
791.60 0.2344
791.70 0.2345
791.80 0.2345
791.90 0.2346
792.00 0.2347
792.10 0.2348
792.20 0.2349
792.30 0.235
792.40 0.235
792.50 0.2351
792.60 0.2352
792.70 0.2353
792.80 0.2354
792.90 0.2355
793.00 0.2355
793.10 0.2356
793.20 0.2357
793.30 0.2358
793.40 0.2359
793.50 0.236
793.60 0.236
793.70 0.2361
793.80 0.2362
793.90 0.2363
794.00 0.2364
794.10 0.2365
794.20 0.2365
794.30 0.2366
794.40 0.2367
794.50 0.2368
794.60 0.2369
794.70 0.237
794.80 0.237
794.90 0.2371
795.00 0.2372
795.10 0.2373
795.20 0.2374
795.30 0.2375
795.40 0.2375
795.50 0.2376
795.60 0.2377
795.70 0.2378
795.80 0.2379
795.90 0.2379
796.00 0.238
796.10 0.2381
796.20 0.2382
796.30 0.2383
796.40 0.2384
796.50 0.2384
796.60 0.2385
796.70 0.2386
796.80 0.2387
796.90 0.2388
797.00 0.2388
797.10 0.2389
797.20 0.239
797.30 0.2391
797.40 0.2392
797.50 0.2393
797.60 0.2393
797.70 0.2394
797.80 0.2395
797.90 0.2396
798.00 0.2397
798.10 0.2397
798.20 0.2398
798.30 0.2399
798.40 0.24
798.50 0.2401
798.60 0.2401
798.70 0.2402
798.80 0.2403
798.90 0.2404
799.00 0.2405
799.10 0.2405
799.20 0.2406
799.30 0.2407
799.40 0.2408
799.50 0.2409
799.60 0.241
799.70 0.241
799.80 0.2411
799.90 0.2412
800.00 0.2413
800.10 0.2413
800.20 0.2414
800.30 0.2414
800.40 0.2414
800.50 0.2415
800.60 0.2415
800.70 0.2416
800.80 0.2416
800.90 0.2417
801.00 0.2417
801.10 0.2417
801.20 0.2418
801.30 0.2418
801.40 0.2419
801.50 0.2419
801.60 0.242
801.70 0.242
801.80 0.242
801.90 0.2421
802.00 0.2421
802.10 0.2422
802.20 0.2422
802.30 0.2422
802.40 0.2423
802.50 0.2423
802.60 0.2424
802.70 0.2424
802.80 0.2425
802.90 0.2425
803.00 0.2425
803.10 0.2426
803.20 0.2426
803.30 0.2427
803.40 0.2427
803.50 0.2427
803.60 0.2428
803.70 0.2428
803.80 0.2429
803.90 0.2429
804.00 0.243
804.10 0.243
804.20 0.243
804.30 0.2431
804.40 0.2431
804.50 0.2432
804.60 0.2432
804.70 0.2432
804.80 0.2433
804.90 0.2433
805.00 0.2434
805.10 0.2434
805.20 0.2435
805.30 0.2435
805.40 0.2435
805.50 0.2436
805.60 0.2436
805.70 0.2437
805.80 0.2437
805.90 0.2437
806.00 0.2438
806.10 0.2438
806.20 0.2439
806.30 0.2439
806.40 0.2439
806.50 0.244
806.60 0.244
806.70 0.2441
806.80 0.2441
806.90 0.2441
807.00 0.2442
807.10 0.2442
807.20 0.2443
807.30 0.2443
807.40 0.2443
807.50 0.2444
807.60 0.2444
807.70 0.2445
807.80 0.2445
807.90 0.2446
808.00 0.2446
808.10 0.2446
808.20 0.2447
808.30 0.2447
808.40 0.2448
808.50 0.2448
808.60 0.2448
808.70 0.2449
808.80 0.2449
808.90 0.245
809.00 0.245
809.10 0.245
809.20 0.2451
809.30 0.2451
809.40 0.2452
809.50 0.2452
809.60 0.2452
809.70 0.2453
809.80 0.2453
809.90 0.2454
810.00 0.2454
810.10 0.2454
810.20 0.2454
810.30 0.2454
810.40 0.2454
810.50 0.2454
810.60 0.2454
810.70 0.2454
810.80 0.2454
810.90 0.2454
811.00 0.2454
811.10 0.2454
811.20 0.2454
811.30 0.2454
811.40 0.2454
811.50 0.2454
811.60 0.2454
811.70 0.2454
811.80 0.2454
811.90 0.2454
812.00 0.2454
812.10 0.2454
812.20 0.2454
812.30 0.2454
812.40 0.2454
812.50 0.2453
812.60 0.2453
812.70 0.2453
812.80 0.2453
812.90 0.2453
813.00 0.2453
813.10 0.2453
813.20 0.2453
813.30 0.2453
813.40 0.2453
813.50 0.2453
813.60 0.2453
813.70 0.2453
813.80 0.2453
813.90 0.2453
814.00 0.2453
814.10 0.2453
814.20 0.2453
814.30 0.2453
814.40 0.2453
814.50 0.2453
814.60 0.2453
814.70 0.2453
814.80 0.2453
814.90 0.2453
815.00 0.2453
815.10 0.2453
815.20 0.2453
815.30 0.2453
815.40 0.2453
815.50 0.2453
815.60 0.2453
815.70 0.2453
815.80 0.2453
815.90 0.2453
816.00 0.2453
816.10 0.2453
816.20 0.2453
816.30 0.2453
816.40 0.2453
816.50 0.2453
816.60 0.2453
816.70 0.2453
816.80 0.2453
816.90 0.2453
817.00 0.2453
817.10 0.2453
817.20 0.2452
817.30 0.2452
817.40 0.2452
817.50 0.2452
817.60 0.2452
817.70 0.2452
817.80 0.2452
817.90 0.2452
818.00 0.2452
818.10 0.2452
818.20 0.2452
818.30 0.2452
818.40 0.2452
818.50 0.2452
818.60 0.2452
818.70 0.2452
818.80 0.2452
818.90 0.2452
819.00 0.2452
819.10 0.2452
819.20 0.2452
819.30 0.2452
819.40 0.2452
819.50 0.2452
819.60 0.2452
819.70 0.2452
819.80 0.2452
819.90 0.2452
820.00 0.2452
820.10 0.2452
820.20 0.2452
820.30 0.2452
820.40 0.2452
820.50 0.2452
820.60 0.2452
820.70 0.2452
820.80 0.2452
820.90 0.2452
821.00 0.2452
821.10 0.2452
821.20 0.2452
821.30 0.2452
821.40 0.2452
821.50 0.2453
821.60 0.2453
821.70 0.2453
821.80 0.2453
821.90 0.2453
822.00 0.2453
822.10 0.2453
822.20 0.2453
822.30 0.2453
822.40 0.2453
822.50 0.2453
822.60 0.2453
822.70 0.2454
822.80 0.2454
822.90 0.2454
823.00 0.2454
823.10 0.2454
823.20 0.2454
823.30 0.2454
823.40 0.2454
823.50 0.2455
823.60 0.2455
823.70 0.2455
823.80 0.2455
823.90 0.2455
824.00 0.2455
824.10 0.2455
824.20 0.2455
824.30 0.2456
824.40 0.2456
824.50 0.2456
824.60 0.2456
824.70 0.2456
824.80 0.2456
824.90 0.2456
825.00 0.2456
825.10 0.2456
825.20 0.2457
825.30 0.2457
825.40 0.2457
825.50 0.2457
825.60 0.2457
825.70 0.2457
825.80 0.2457
825.90 0.2457
826.00 0.2457
826.10 0.2458
826.20 0.2458
826.30 0.2458
826.40 0.2458
826.50 0.2458
826.60 0.2458
826.70 0.2458
826.80 0.2458
826.90 0.2459
827.00 0.2459
827.10 0.2459
827.20 0.2459
827.30 0.2459
827.40 0.2459
827.50 0.246
827.60 0.246
827.70 0.246
827.80 0.246
827.90 0.246
828.00 0.246
828.10 0.2461
828.20 0.2461
828.30 0.2461
828.40 0.2461
828.50 0.2461
828.60 0.2461
828.70 0.2462
828.80 0.2462
828.90 0.2462
829.00 0.2462
829.10 0.2462
829.20 0.2463
829.30 0.2463
829.40 0.2463
829.50 0.2463
829.60 0.2463
829.70 0.2463
829.80 0.2464
829.90 0.2464
830.00 0.2464
830.10 0.2464
830.20 0.2464
830.30 0.2464
830.40 0.2465
830.50 0.2465
830.60 0.2465
830.70 0.2465
830.80 0.2465
830.90 0.2465
831.00 0.2466
831.10 0.2466
831.20 0.2466
831.30 0.2466
831.40 0.2466
831.50 0.2466
831.60 0.2467
831.70 0.2467
831.80 0.2467
831.90 0.2467
832.00 0.2467
832.10 0.2467
832.20 0.2468
832.30 0.2468
832.40 0.2468
832.50 0.2468
832.60 0.2468
832.70 0.2468
832.80 0.2468
832.90 0.2468
833.00 0.2468
833.10 0.2468
833.20 0.2469
833.30 0.2469
833.40 0.2469
833.50 0.2469
833.60 0.2469
833.70 0.2469
833.80 0.2469
833.90 0.2469
834.00 0.2469
834.10 0.247
834.20 0.247
834.30 0.247
834.40 0.247
834.50 0.247
834.60 0.247
834.70 0.247
834.80 0.247
834.90 0.247
835.00 0.247
835.10 0.2471
835.20 0.2471
835.30 0.2471
835.40 0.2471
835.50 0.2471
835.60 0.2471
835.70 0.2471
835.80 0.2471
835.90 0.2471
836.00 0.2471
836.10 0.2472
836.20 0.2472
836.30 0.2472
836.40 0.2472
836.50 0.2472
836.60 0.2472
836.70 0.2472
836.80 0.2472
836.90 0.2472
837.00 0.2472
837.10 0.2473
837.20 0.2473
837.30 0.2473
837.40 0.2473
837.50 0.2473
837.60 0.2473
837.70 0.2473
837.80 0.2473
837.90 0.2473
838.00 0.2473
838.10 0.2473
838.20 0.2473
838.30 0.2473
838.40 0.2473
838.50 0.2473
838.60 0.2473
838.70 0.2473
838.80 0.2473
838.90 0.2473
839.00 0.2473
839.10 0.2473
839.20 0.2473
839.30 0.2473
839.40 0.2474
839.50 0.2474
839.60 0.2474
839.70 0.2474
839.80 0.2474
839.90 0.2474
840.00 0.2474
840.10 0.2474
840.20 0.2474
840.30 0.2474
840.40 0.2474
840.50 0.2474
840.60 0.2474
840.70 0.2474
840.80 0.2474
840.90 0.2474
841.00 0.2474
841.10 0.2474
841.20 0.2474
841.30 0.2474
841.40 0.2474
841.50 0.2474
841.60 0.2474
841.70 0.2474
841.80 0.2475
841.90 0.2475
842.00 0.2475
842.10 0.2475
842.20 0.2475
842.30 0.2475
842.40 0.2475
842.50 0.2475
842.60 0.2475
842.70 0.2474
842.80 0.2474
842.90 0.2474
843.00 0.2474
843.10 0.2474
843.20 0.2474
843.30 0.2474
843.40 0.2474
843.50 0.2474
843.60 0.2474
843.70 0.2474
843.80 0.2474
843.90 0.2474
844.00 0.2474
844.10 0.2474
844.20 0.2474
844.30 0.2474
844.40 0.2474
844.50 0.2474
844.60 0.2474
844.70 0.2474
844.80 0.2474
844.90 0.2474
845.00 0.2474
845.10 0.2474
845.20 0.2474
845.30 0.2474
845.40 0.2474
845.50 0.2474
845.60 0.2474
845.70 0.2474
845.80 0.2474
845.90 0.2474
846.00 0.2474
846.10 0.2474
846.20 0.2474
846.30 0.2474
846.40 0.2474
846.50 0.2474
846.60 0.2474
846.70 0.2474
846.80 0.2474
846.90 0.2474
847.00 0.2474
847.10 0.2474
847.20 0.2474
847.30 0.2474
847.40 0.2474
847.50 0.2474
847.60 0.2473
847.70 0.2473
847.80 0.2473
847.90 0.2473
848.00 0.2473
848.10 0.2473
848.20 0.2473
848.30 0.2473
848.40 0.2473
848.50 0.2473
848.60 0.2473
848.70 0.2473
848.80 0.2473
848.90 0.2473
849.00 0.2473
849.10 0.2473
849.20 0.2473
849.30 0.2473
849.40 0.2473
849.50 0.2473
849.60 0.2473
849.70 0.2473
849.80 0.2473
849.90 0.2472
850.00 0.2472
850.10 0.2472
850.20 0.2472
850.30 0.2472
850.40 0.2472
850.50 0.2472
850.60 0.2472
850.70 0.2472
850.80 0.2472
850.90 0.2472
851.00 0.2472
851.10 0.2472
851.20 0.2472
851.30 0.2472
851.40 0.2472
851.50 0.2472
851.60 0.2472
851.70 0.2472
851.80 0.2472
851.90 0.2472
852.00 0.2472
852.10 0.2471
852.20 0.2471
852.30 0.2471
852.40 0.2471
852.50 0.2471
852.60 0.2471
852.70 0.2471
852.80 0.2471
852.90 0.2471
853.00 0.2471
853.10 0.2471
853.20 0.2471
853.30 0.2471
853.40 0.2471
853.50 0.2471
853.60 0.2471
853.70 0.2471
853.80 0.2471
853.90 0.247
854.00 0.247
854.10 0.247
854.20 0.247
854.30 0.247
854.40 0.247
854.50 0.247
854.60 0.247
854.70 0.247
854.80 0.247
854.90 0.247
855.00 0.247
855.10 0.247
855.20 0.247
855.30 0.247
855.40 0.247
855.50 0.247
855.60 0.247
855.70 0.2469
855.80 0.2469
855.90 0.2469
856.00 0.2469
856.10 0.2469
856.20 0.2469
856.30 0.2469
856.40 0.2469
856.50 0.2469
856.60 0.2469
856.70 0.2469
856.80 0.2469
856.90 0.2469
857.00 0.2469
857.10 0.2469
857.20 0.2469
857.30 0.2469
857.40 0.2468
857.50 0.2468
857.60 0.2468
857.70 0.2468
857.80 0.2468
857.90 0.2468
858.00 0.2468
858.10 0.2468
858.20 0.2468
858.30 0.2468
858.40 0.2468
858.50 0.2468
858.60 0.2468
858.70 0.2468
858.80 0.2468
858.90 0.2468
859.00 0.2467
859.10 0.2467
859.20 0.2467
859.30 0.2467
859.40 0.2467
859.50 0.2467
859.60 0.2467
859.70 0.2467
859.80 0.2467
859.90 0.2467
860.00 0.2467
860.10 0.2467
860.20 0.2467
860.30 0.2467
860.40 0.2467
860.50 0.2466
860.60 0.2466
860.70 0.2466
860.80 0.2466
860.90 0.2466
861.00 0.2466
861.10 0.2466
861.20 0.2466
861.30 0.2466
861.40 0.2466
861.50 0.2466
861.60 0.2466
861.70 0.2466
861.80 0.2466
861.90 0.2466
862.00 0.2465
862.10 0.2465
862.20 0.2465
862.30 0.2465
862.40 0.2465
862.50 0.2465
862.60 0.2465
862.70 0.2465
862.80 0.2465
862.90 0.2465
863.00 0.2465
863.10 0.2465
863.20 0.2465
863.30 0.2465
863.40 0.2465
863.50 0.2465
863.60 0.2465
863.70 0.2465
863.80 0.2465
863.90 0.2465
864.00 0.2465
864.10 0.2464
864.20 0.2464
864.30 0.2464
864.40 0.2464
864.50 0.2464
864.60 0.2464
864.70 0.2464
864.80 0.2464
864.90 0.2464
865.00 0.2464
865.10 0.2464
865.20 0.2464
865.30 0.2464
865.40 0.2464
865.50 0.2464
865.60 0.2464
865.70 0.2464
865.80 0.2464
865.90 0.2464
866.00 0.2464
866.10 0.2464
866.20 0.2463
866.30 0.2463
866.40 0.2463
866.50 0.2463
866.60 0.2463
866.70 0.2463
866.80 0.2463
866.90 0.2463
867.00 0.2463
867.10 0.2463
867.20 0.2463
867.30 0.2462
867.40 0.2462
867.50 0.2462
867.60 0.2462
867.70 0.2462
867.80 0.2462
867.90 0.2461
868.00 0.2461
868.10 0.2461
868.20 0.2461
868.30 0.2461
868.40 0.246
868.50 0.246
868.60 0.246
868.70 0.246
868.80 0.246
868.90 0.2459
869.00 0.2459
869.10 0.2459
869.20 0.2459
869.30 0.2459
869.40 0.2458
869.50 0.2458
869.60 0.2458
869.70 0.2458
869.80 0.2458
869.90 0.2457
870.00 0.2457
870.10 0.2457
870.20 0.2457
870.30 0.2457
870.40 0.2456
870.50 0.2456
870.60 0.2456
870.70 0.2456
870.80 0.2456
870.90 0.2455
871.00 0.2455
871.10 0.2455
871.20 0.2455
871.30 0.2455
871.40 0.2454
871.50 0.2454
871.60 0.2454
871.70 0.2454
871.80 0.2454
871.90 0.2453
872.00 0.2453
872.10 0.2453
872.20 0.2453
872.30 0.2452
872.40 0.2452
872.50 0.2452
872.60 0.2451
872.70 0.2451
872.80 0.2451
872.90 0.245
873.00 0.245
873.10 0.245
873.20 0.2449
873.30 0.2449
873.40 0.2449
873.50 0.2448
873.60 0.2448
873.70 0.2448
873.80 0.2447
873.90 0.2447
874.00 0.2447
874.10 0.2446
874.20 0.2446
874.30 0.2446
874.40 0.2445
874.50 0.2445
874.60 0.2445
874.70 0.2444
874.80 0.2444
874.90 0.2444
875.00 0.2443
875.10 0.2443
875.20 0.2443
875.30 0.2442
875.40 0.2442
875.50 0.2442
875.60 0.2441
875.70 0.2441
875.80 0.2441
875.90 0.244
876.00 0.244
876.10 0.244
876.20 0.2439
876.30 0.2439
876.40 0.2439
876.50 0.2438
876.60 0.2438
876.70 0.2438
876.80 0.2437
876.90 0.2437
877.00 0.2437
877.10 0.2436
877.20 0.2435
877.30 0.2435
877.40 0.2434
877.50 0.2434
877.60 0.2433
877.70 0.2432
877.80 0.2432
877.90 0.2431
878.00 0.2431
878.10 0.243
878.20 0.2429
878.30 0.2429
878.40 0.2428
878.50 0.2428
878.60 0.2427
878.70 0.2426
878.80 0.2426
878.90 0.2425
879.00 0.2425
879.10 0.2424
879.20 0.2423
879.30 0.2423
879.40 0.2422
879.50 0.2422
879.60 0.2421
879.70 0.242
879.80 0.242
879.90 0.2419
880.00 0.2419
880.10 0.2418
880.20 0.2417
880.30 0.2417
880.40 0.2416
880.50 0.2416
880.60 0.2415
880.70 0.2414
880.80 0.2414
880.90 0.2413
881.00 0.2413
881.10 0.2412
881.20 0.2411
881.30 0.2411
881.40 0.241
881.50 0.241
881.60 0.2409
881.70 0.2408
881.80 0.2408
881.90 0.2407
882.00 0.2407
882.10 0.2406
882.20 0.2405
882.30 0.2404
882.40 0.2403
882.50 0.2402
882.60 0.2402
882.70 0.2401
882.80 0.24
882.90 0.2399
883.00 0.2398
883.10 0.2397
883.20 0.2397
883.30 0.2396
883.40 0.2395
883.50 0.2394
883.60 0.2393
883.70 0.2393
883.80 0.2392
883.90 0.2391
884.00 0.239
884.10 0.2389
884.20 0.2388
884.30 0.2388
884.40 0.2387
884.50 0.2386
884.60 0.2385
884.70 0.2384
884.80 0.2384
884.90 0.2383
885.00 0.2382
885.10 0.2381
885.20 0.238
885.30 0.2379
885.40 0.2379
885.50 0.2378
885.60 0.2377
885.70 0.2376
885.80 0.2375
885.90 0.2375
886.00 0.2374
886.10 0.2373
886.20 0.2372
886.30 0.2371
886.40 0.237
886.50 0.237
886.60 0.2369
886.70 0.2368
886.80 0.2367
886.90 0.2366
887.00 0.2366
887.10 0.2365
887.20 0.2364
887.30 0.2362
887.40 0.2361
887.50 0.236
887.60 0.2359
887.70 0.2358
887.80 0.2357
887.90 0.2356
888.00 0.2355
888.10 0.2354
888.20 0.2353
888.30 0.2352
888.40 0.2351
888.50 0.235
888.60 0.2349
888.70 0.2348
888.80 0.2347
888.90 0.2346
889.00 0.2345
889.10 0.2344
889.20 0.2343
889.30 0.2342
889.40 0.2341
889.50 0.234
889.60 0.2339
889.70 0.2338
889.80 0.2337
889.90 0.2336
890.00 0.2335
890.10 0.2334
890.20 0.2333
890.30 0.2332
890.40 0.2331
890.50 0.233
890.60 0.2329
890.70 0.2328
890.80 0.2327
890.90 0.2326
891.00 0.2325
891.10 0.2324
891.20 0.2323
891.30 0.2322
891.40 0.2321
891.50 0.232
891.60 0.2319
891.70 0.2318
891.80 0.2317
891.90 0.2316
892.00 0.2315
892.10 0.2313
892.20 0.2312
892.30 0.2311
892.40 0.231
892.50 0.2309
892.60 0.2308
892.70 0.2306
892.80 0.2305
892.90 0.2304
893.00 0.2303
893.10 0.2302
893.20 0.23
893.30 0.2299
893.40 0.2298
893.50 0.2297
893.60 0.2296
893.70 0.2294
893.80 0.2293
893.90 0.2292
894.00 0.2291
894.10 0.229
894.20 0.2289
894.30 0.2287
894.40 0.2286
894.50 0.2285
894.60 0.2284
894.70 0.2283
894.80 0.2282
894.90 0.228
895.00 0.2279
895.10 0.2278
895.20 0.2277
895.30 0.2276
895.40 0.2274
895.50 0.2273
895.60 0.2272
895.70 0.2271
895.80 0.227
895.90 0.2269
896.00 0.2267
896.10 0.2266
896.20 0.2265
896.30 0.2264
896.40 0.2263
896.50 0.2262
896.60 0.226
896.70 0.2259
896.80 0.2258
896.90 0.2257
897.00 0.2256
897.10 0.2254
897.20 0.2253
897.30 0.2252
897.40 0.225
897.50 0.2249
897.60 0.2248
897.70 0.2247
897.80 0.2245
897.90 0.2244
898.00 0.2243
898.10 0.2241
898.20 0.224
898.30 0.2239
898.40 0.2237
898.50 0.2236
898.60 0.2235
898.70 0.2234
898.80 0.2232
898.90 0.2231
899.00 0.223
899.10 0.2228
899.20 0.2227
899.30 0.2226
899.40 0.2224
899.50 0.2223
899.60 0.2222
899.70 0.2221
899.80 0.2219
899.90 0.2218
900.00 0.2217
900.10 0.2215
900.20 0.2214
900.30 0.2213
900.40 0.2211
900.50 0.221
900.60 0.2209
900.70 0.2208
900.80 0.2206
900.90 0.2205
901.00 0.2204
901.10 0.2202
901.20 0.2201
901.30 0.22
901.40 0.2199
901.50 0.2197
901.60 0.2196
901.70 0.2195
901.80 0.2193
901.90 0.2192
902.00 0.2191
902.10 0.2189
902.20 0.2188
902.30 0.2187
902.40 0.2185
902.50 0.2184
902.60 0.2182
902.70 0.2181
902.80 0.218
902.90 0.2178
903.00 0.2177
903.10 0.2175
903.20 0.2174
903.30 0.2173
903.40 0.2171
903.50 0.217
903.60 0.2168
903.70 0.2167
903.80 0.2166
903.90 0.2164
904.00 0.2163
904.10 0.2162
904.20 0.216
904.30 0.2159
904.40 0.2157
904.50 0.2156
904.60 0.2155
904.70 0.2153
904.80 0.2152
904.90 0.215
905.00 0.2149
905.10 0.2148
905.20 0.2146
905.30 0.2145
905.40 0.2144
905.50 0.2142
905.60 0.2141
905.70 0.2139
905.80 0.2138
905.90 0.2137
906.00 0.2135
906.10 0.2134
906.20 0.2133
906.30 0.2131
906.40 0.213
906.50 0.2128
906.60 0.2127
906.70 0.2126
906.80 0.2124
906.90 0.2123
907.00 0.2122
907.10 0.212
907.20 0.2118
907.30 0.2117
907.40 0.2115
907.50 0.2114
907.60 0.2112
907.70 0.211
907.80 0.2109
907.90 0.2107
908.00 0.2106
908.10 0.2104
908.20 0.2103
908.30 0.2101
908.40 0.2099
908.50 0.2098
908.60 0.2096
908.70 0.2095
908.80 0.2093
908.90 0.2092
909.00 0.209
909.10 0.2089
909.20 0.2087
909.30 0.2085
909.40 0.2084
909.50 0.2082
909.60 0.2081
909.70 0.2079
909.80 0.2078
909.90 0.2076
910.00 0.2074
910.10 0.2073
910.20 0.2071
910.30 0.207
910.40 0.2068
910.50 0.2067
910.60 0.2065
910.70 0.2064
910.80 0.2062
910.90 0.206
911.00 0.2059
911.10 0.2057
911.20 0.2056
911.30 0.2054
911.40 0.2053
911.50 0.2051
911.60 0.205
911.70 0.2048
911.80 0.2047
911.90 0.2045
912.00 0.2043
912.10 0.2042
912.20 0.204
912.30 0.2038
912.40 0.2037
912.50 0.2035
912.60 0.2033
912.70 0.2031
912.80 0.203
912.90 0.2028
913.00 0.2026
913.10 0.2025
913.20 0.2023
913.30 0.2021
913.40 0.202
913.50 0.2018
913.60 0.2016
913.70 0.2014
913.80 0.2013
913.90 0.2011
914.00 0.2009
914.10 0.2008
914.20 0.2006
914.30 0.2004
914.40 0.2003
914.50 0.2001
914.60 0.1999
914.70 0.1997
914.80 0.1996
914.90 0.1994
915.00 0.1992
915.10 0.1991
915.20 0.1989
915.30 0.1987
915.40 0.1986
915.50 0.1984
915.60 0.1982
915.70 0.1981
915.80 0.1979
915.90 0.1977
916.00 0.1975
916.10 0.1974
916.20 0.1972
916.30 0.197
916.40 0.1969
916.50 0.1967
916.60 0.1965
916.70 0.1964
916.80 0.1962
916.90 0.196
917.00 0.1959
917.10 0.1957
917.20 0.1955
917.30 0.1953
917.40 0.1951
917.50 0.195
917.60 0.1948
917.70 0.1946
917.80 0.1944
917.90 0.1942
918.00 0.1941
918.10 0.1939
918.20 0.1937
918.30 0.1935
918.40 0.1934
918.50 0.1932
918.60 0.193
918.70 0.1928
918.80 0.1926
918.90 0.1925
919.00 0.1923
919.10 0.1921
919.20 0.1919
919.30 0.1917
919.40 0.1916
919.50 0.1914
919.60 0.1912
919.70 0.191
919.80 0.1909
919.90 0.1907
920.00 0.1905
920.10 0.1903
920.20 0.1901
920.30 0.19
920.40 0.1898
920.50 0.1896
920.60 0.1894
920.70 0.1893
920.80 0.1891
920.90 0.1889
921.00 0.1887
921.10 0.1886
921.20 0.1884
921.30 0.1882
921.40 0.188
921.50 0.1878
921.60 0.1877
921.70 0.1875
921.80 0.1873
921.90 0.1871
922.00 0.187
922.10 0.1868
922.20 0.1866
922.30 0.1864
922.40 0.1862
922.50 0.186
922.60 0.1858
922.70 0.1857
922.80 0.1855
922.90 0.1853
923.00 0.1851
923.10 0.1849
923.20 0.1847
923.30 0.1845
923.40 0.1844
923.50 0.1842
923.60 0.184
923.70 0.1838
923.80 0.1836
923.90 0.1834
924.00 0.1832
924.10 0.1831
924.20 0.1829
924.30 0.1827
924.40 0.1825
924.50 0.1823
924.60 0.1821
924.70 0.182
924.80 0.1818
924.90 0.1816
925.00 0.1814
925.10 0.1812
925.20 0.181
925.30 0.1809
925.40 0.1807
925.50 0.1805
925.60 0.1803
925.70 0.1801
925.80 0.1799
925.90 0.1798
926.00 0.1796
926.10 0.1794
926.20 0.1792
926.30 0.179
926.40 0.1788
926.50 0.1787
926.60 0.1785
926.70 0.1783
926.80 0.1781
926.90 0.1779
927.00 0.1777
927.10 0.1775
927.20 0.1774
927.30 0.1772
927.40 0.177
927.50 0.1768
927.60 0.1766
927.70 0.1764
927.80 0.1762
927.90 0.176
928.00 0.1758
928.10 0.1756
928.20 0.1754
928.30 0.1752
928.40 0.1751
928.50 0.1749
928.60 0.1747
928.70 0.1745
928.80 0.1743
928.90 0.1741
929.00 0.1739
929.10 0.1737
929.20 0.1735
929.30 0.1733
929.40 0.1731
929.50 0.173
929.60 0.1728
929.70 0.1726
929.80 0.1724
929.90 0.1722
930.00 0.172
930.10 0.1718
930.20 0.1716
930.30 0.1714
930.40 0.1712
930.50 0.1711
930.60 0.1709
930.70 0.1707
930.80 0.1705
930.90 0.1703
931.00 0.1701
931.10 0.1699
931.20 0.1697
931.30 0.1695
931.40 0.1694
931.50 0.1692
931.60 0.169
931.70 0.1688
931.80 0.1686
931.90 0.1684
932.00 0.1682
932.10 0.168
932.20 0.1678
932.30 0.1677
932.40 0.1675
932.50 0.1673
932.60 0.1671
932.70 0.1669
932.80 0.1667
932.90 0.1665
933.00 0.1663
933.10 0.1661
933.20 0.1659
933.30 0.1657
933.40 0.1656
933.50 0.1654
933.60 0.1652
933.70 0.165
933.80 0.1648
933.90 0.1646
934.00 0.1644
934.10 0.1642
934.20 0.164
934.30 0.1638
934.40 0.1637
934.50 0.1635
934.60 0.1633
934.70 0.1631
934.80 0.1629
934.90 0.1627
935.00 0.1625
935.10 0.1623
935.20 0.1621
935.30 0.1619
935.40 0.1617
935.50 0.1616
935.60 0.1614
935.70 0.1612
935.80 0.161
935.90 0.1608
936.00 0.1606
936.10 0.1604
936.20 0.1602
936.30 0.16
936.40 0.1598
936.50 0.1597
936.60 0.1595
936.70 0.1593
936.80 0.1591
936.90 0.1589
937.00 0.1587
937.10 0.1585
937.20 0.1583
937.30 0.1581
937.40 0.1579
937.50 0.1578
937.60 0.1576
937.70 0.1574
937.80 0.1572
937.90 0.157
938.00 0.1568
938.10 0.1566
938.20 0.1564
938.30 0.1562
938.40 0.156
938.50 0.1558
938.60 0.1557
938.70 0.1555
938.80 0.1553
938.90 0.1551
939.00 0.1549
939.10 0.1547
939.20 0.1545
939.30 0.1543
939.40 0.1541
939.50 0.1539
939.60 0.1537
939.70 0.1535
939.80 0.1533
939.90 0.1532
940.00 0.153
940.10 0.1528
940.20 0.1526
940.30 0.1524
940.40 0.1522
940.50 0.152
940.60 0.1518
940.70 0.1516
940.80 0.1514
940.90 0.1513
941.00 0.1511
941.10 0.1509
941.20 0.1507
941.30 0.1505
941.40 0.1503
941.50 0.1501
941.60 0.1499
941.70 0.1498
941.80 0.1496
941.90 0.1494
942.00 0.1492
942.10 0.149
942.20 0.1488
942.30 0.1486
942.40 0.1484
942.50 0.1483
942.60 0.1481
942.70 0.1479
942.80 0.1477
942.90 0.1475
943.00 0.1473
943.10 0.1471
943.20 0.1469
943.30 0.1468
943.40 0.1466
943.50 0.1464
943.60 0.1462
943.70 0.146
943.80 0.1458
943.90 0.1456
944.00 0.1454
944.10 0.1453
944.20 0.1451
944.30 0.1449
944.40 0.1447
944.50 0.1445
944.60 0.1443
944.70 0.1441
944.80 0.144
944.90 0.1438
945.00 0.1436
945.10 0.1434
945.20 0.1432
945.30 0.143
945.40 0.1429
945.50 0.1427
945.60 0.1425
945.70 0.1423
945.80 0.1421
945.90 0.1419
946.00 0.1417
946.10 0.1416
946.20 0.1414
946.30 0.1412
946.40 0.141
946.50 0.1408
946.60 0.1406
946.70 0.1405
946.80 0.1403
946.90 0.1401
947.00 0.1399
947.10 0.1397
947.20 0.1395
947.30 0.1394
947.40 0.1392
947.50 0.139
947.60 0.1388
947.70 0.1386
947.80 0.1384
947.90 0.1382
948.00 0.1381
948.10 0.1379
948.20 0.1377
948.30 0.1375
948.40 0.1373
948.50 0.1371
948.60 0.137
948.70 0.1368
948.80 0.1366
948.90 0.1364
949.00 0.1362
949.10 0.1361
949.20 0.1359
949.30 0.1357
949.40 0.1355
949.50 0.1353
949.60 0.1351
949.70 0.135
949.80 0.1348
949.90 0.1346
950.00 0.1344
950.10 0.1342
950.20 0.1341
950.30 0.1339
950.40 0.1337
950.50 0.1335
950.60 0.1333
950.70 0.1332
950.80 0.133
950.90 0.1328
951.00 0.1326
951.10 0.1324
951.20 0.1323
951.30 0.1321
951.40 0.1319
951.50 0.1317
951.60 0.1315
951.70 0.1314
951.80 0.1312
951.90 0.131
952.00 0.1308
952.10 0.1307
952.20 0.1305
952.30 0.1303
952.40 0.1301
952.50 0.1299
952.60 0.1298
952.70 0.1296
952.80 0.1294
952.90 0.1292
953.00 0.1291
953.10 0.1289
953.20 0.1287
953.30 0.1285
953.40 0.1283
953.50 0.1282
953.60 0.128
953.70 0.1278
953.80 0.1276
953.90 0.1275
954.00 0.1273
954.10 0.1271
954.20 0.1269
954.30 0.1268
954.40 0.1266
954.50 0.1264
954.60 0.1262
954.70 0.126
954.80 0.1259
954.90 0.1257
955.00 0.1255
955.10 0.1253
955.20 0.1252
955.30 0.125
955.40 0.1248
955.50 0.1246
955.60 0.1245
955.70 0.1243
955.80 0.1241
955.90 0.1239
956.00 0.1238
956.10 0.1236
956.20 0.1234
956.30 0.1232
956.40 0.1231
956.50 0.1229
956.60 0.1227
956.70 0.1225
956.80 0.1223
956.90 0.1222
957.00 0.122
957.10 0.1218
957.20 0.1216
957.30 0.1215
957.40 0.1213
957.50 0.1211
957.60 0.121
957.70 0.1208
957.80 0.1206
957.90 0.1204
958.00 0.1203
958.10 0.1201
958.20 0.1199
958.30 0.1198
958.40 0.1196
958.50 0.1194
958.60 0.1192
958.70 0.1191
958.80 0.1189
958.90 0.1187
959.00 0.1186
959.10 0.1184
959.20 0.1182
959.30 0.1181
959.40 0.1179
959.50 0.1177
959.60 0.1175
959.70 0.1174
959.80 0.1172
959.90 0.117
960.00 0.1169
960.10 0.1167
960.20 0.1165
960.30 0.1164
960.40 0.1162
960.50 0.116
960.60 0.1159
960.70 0.1157
960.80 0.1155
960.90 0.1154
961.00 0.1152
961.10 0.115
961.20 0.1149
961.30 0.1147
961.40 0.1145
961.50 0.1144
961.60 0.1142
961.70 0.114
961.80 0.1139
961.90 0.1137
962.00 0.1135
962.10 0.1134
962.20 0.1132
962.30 0.113
962.40 0.1129
962.50 0.1127
962.60 0.1125
962.70 0.1124
962.80 0.1122
962.90 0.112
963.00 0.1119
963.10 0.1117
963.20 0.1116
963.30 0.1114
963.40 0.1112
963.50 0.1111
963.60 0.1109
963.70 0.1107
963.80 0.1106
963.90 0.1104
964.00 0.1102
964.10 0.1101
964.20 0.1099
964.30 0.1098
964.40 0.1096
964.50 0.1094
964.60 0.1093
964.70 0.1091
964.80 0.1089
964.90 0.1088
965.00 0.1086
965.10 0.1084
965.20 0.1083
965.30 0.1081
965.40 0.1079
965.50 0.1078
965.60 0.1076
965.70 0.1074
965.80 0.1073
965.90 0.1071
966.00 0.1069
966.10 0.1068
966.20 0.1066
966.30 0.1064
966.40 0.1063
966.50 0.1061
966.60 0.106
966.70 0.1058
966.80 0.1057
966.90 0.1055
967.00 0.1053
967.10 0.1052
967.20 0.105
967.30 0.1049
967.40 0.1047
967.50 0.1045
967.60 0.1044
967.70 0.1042
967.80 0.1041
967.90 0.1039
968.00 0.1038
968.10 0.1036
968.20 0.1035
968.30 0.1033
968.40 0.1031
968.50 0.103
968.60 0.1028
968.70 0.1027
968.80 0.1025
968.90 0.1024
969.00 0.1022
969.10 0.1021
969.20 0.1019
969.30 0.1018
969.40 0.1016
969.50 0.1014
969.60 0.1013
969.70 0.1011
969.80 0.101
969.90 0.1008
970.00 0.1007
970.10 0.1005
970.20 0.1004
970.30 0.1002
970.40 0.1001
970.50 0.09992
970.60 0.09977
970.70 0.09962
970.80 0.09947
970.90 0.09932
971.00 0.09917
971.10 0.09902
971.20 0.09887
971.30 0.09872
971.40 0.09857
971.50 0.09842
971.60 0.09827
971.70 0.09812
971.80 0.09797
971.90 0.09782
972.00 0.09767
972.10 0.09752
972.20 0.09737
972.30 0.09722
972.40 0.09708
972.50 0.09693
972.60 0.09678
972.70 0.09664
972.80 0.09649
972.90 0.09634
973.00 0.0962
973.10 0.09605
973.20 0.0959
973.30 0.09576
973.40 0.09561
973.50 0.09546
973.60 0.09532
973.70 0.09517
973.80 0.09502
973.90 0.09488
974.00 0.09473
974.10 0.09458
974.20 0.09444
974.30 0.09429
974.40 0.09415
974.50 0.094
974.60 0.09386
974.70 0.09371
974.80 0.09357
974.90 0.09343
975.00 0.09328
975.10 0.09314
975.20 0.09299
975.30 0.09285
975.40 0.09271
975.50 0.09256
975.60 0.09242
975.70 0.09227
975.80 0.09213
975.90 0.09199
976.00 0.09184
976.10 0.0917
976.20 0.09156
976.30 0.09141
976.40 0.09127
976.50 0.09112
976.60 0.09098
976.70 0.09084
976.80 0.09069
976.90 0.09055
977.00 0.09041
977.10 0.09027
977.20 0.09014
977.30 0.09
977.40 0.08987
977.50 0.08973
977.60 0.08959
977.70 0.08946
977.80 0.08932
977.90 0.08919
978.00 0.08905
978.10 0.08892
978.20 0.08878
978.30 0.08865
978.40 0.08851
978.50 0.08838
978.60 0.08824
978.70 0.08811
978.80 0.08797
978.90 0.08784
979.00 0.0877
979.10 0.08757
979.20 0.08743
979.30 0.0873
979.40 0.08716
979.50 0.08703
979.60 0.08689
979.70 0.08676
979.80 0.08663
979.90 0.08649
980.00 0.08636
980.10 0.08622
980.20 0.08609
980.30 0.08595
980.40 0.08582
980.50 0.08569
980.60 0.08555
980.70 0.08542
980.80 0.08529
980.90 0.08515
981.00 0.08502
981.10 0.08488
981.20 0.08475
981.30 0.08462
981.40 0.08448
981.50 0.08435
981.60 0.08422
981.70 0.08408
981.80 0.08395
981.90 0.08382
982.00 0.08368
982.10 0.08356
982.20 0.08343
982.30 0.0833
982.40 0.08317
982.50 0.08304
982.60 0.08292
982.70 0.08279
982.80 0.08266
982.90 0.08253
983.00 0.0824
983.10 0.08228
983.20 0.08215
983.30 0.08202
983.40 0.08189
983.50 0.08177
983.60 0.08164
983.70 0.08151
983.80 0.08139
983.90 0.08126
984.00 0.08113
984.10 0.081
984.20 0.08088
984.30 0.08075
984.40 0.08062
984.50 0.0805
984.60 0.08037
984.70 0.08025
984.80 0.08013
984.90 0.08001
985.00 0.07989
985.10 0.07977
985.20 0.07965
985.30 0.07954
985.40 0.07942
985.50 0.0793
985.60 0.07918
985.70 0.07906
985.80 0.07894
985.90 0.07882
986.00 0.07871
986.10 0.07859
986.20 0.07847
986.30 0.07835
986.40 0.07823
986.50 0.07811
986.60 0.078
986.70 0.07788
986.80 0.07776
986.90 0.07764
987.00 0.07752
987.10 0.0774
987.20 0.07728
987.30 0.07715
987.40 0.07703
987.50 0.07691
987.60 0.07679
987.70 0.07666
987.80 0.07654
987.90 0.07642
988.00 0.07629
988.10 0.07617
988.20 0.07605
988.30 0.07593
988.40 0.0758
988.50 0.07568
988.60 0.07556
988.70 0.07544
988.80 0.07531
988.90 0.07519
989.00 0.07507
989.10 0.07495
989.20 0.07483
989.30 0.07471
989.40 0.07458
989.50 0.07446
989.60 0.07434
989.70 0.07422
989.80 0.0741
989.90 0.07398
990.00 0.07385
990.10 0.07373
990.20 0.07361
990.30 0.07349
990.40 0.07337
990.50 0.07325
990.60 0.07313
990.70 0.07301
990.80 0.07288
990.90 0.07276
991.00 0.07264
991.10 0.07252
991.20 0.0724
991.30 0.07228
991.40 0.07216
991.50 0.07204
991.60 0.07192
991.70 0.0718
991.80 0.07168
991.90 0.07156
992.00 0.07144
992.10 0.07132
992.20 0.0712
992.30 0.07108
992.40 0.07096
992.50 0.07084
992.60 0.07072
992.70 0.0706
992.80 0.07048
992.90 0.07036
993.00 0.07024
993.10 0.07012
993.20 0.07
993.30 0.06988
993.40 0.06976
993.50 0.06964
993.60 0.06952
993.70 0.0694
993.80 0.06928
993.90 0.06916
994.00 0.06905
994.10 0.06893
994.20 0.06881
994.30 0.06869
994.40 0.06857
994.50 0.06845
994.60 0.06833
994.70 0.06819
994.80 0.06805
994.90 0.0679
995.00 0.06775
995.10 0.06761
995.20 0.06746
995.30 0.06731
995.40 0.06717
995.50 0.06702
995.60 0.06687
995.70 0.06675
995.80 0.06664
995.90 0.06652
996.00 0.06641
996.10 0.06629
996.20 0.06618
996.30 0.06606
996.40 0.06595
996.50 0.06584
996.60 0.06572
996.70 0.06561
996.80 0.06549
996.90 0.06538
997.00 0.06526
997.10 0.06515
997.20 0.06504
997.30 0.06493
997.40 0.06482
997.50 0.06471
997.60 0.0646
997.70 0.06449
997.80 0.06438
997.90 0.06427
998.00 0.06416
998.10 0.06405
998.20 0.06395
998.30 0.06384
998.40 0.06373
998.50 0.06362
998.60 0.06351
998.70 0.06341
998.80 0.0633
998.90 0.06319
999.00 0.06308
999.10 0.06298
999.20 0.06287
999.30 0.06276
999.40 0.06265
999.50 0.06255
999.60 0.06244
999.70 0.06233
999.80 0.06223
999.90 0.06213
1000.00 0.06203
1000.10 0.06192
1000.20 0.06182
1000.30 0.06172
1000.40 0.06161
1000.50 0.06151
1000.60 0.06141
1000.70 0.06131
1000.80 0.0612
1000.90 0.0611
1001.00 0.061
1001.10 0.0609
1001.20 0.06079
1001.30 0.06069
1001.40 0.06059
1001.50 0.06049
1001.60 0.06039
1001.70 0.06029
1001.80 0.06019
1001.90 0.06009
1002.00 0.05999
1002.10 0.05989
1002.20 0.05979
1002.30 0.05969
1002.40 0.05959
1002.50 0.0595
1002.60 0.0594
1002.70 0.0593
1002.80 0.0592
1002.90 0.05911
1003.00 0.05901
1003.10 0.05891
1003.20 0.05882
1003.30 0.05872
1003.40 0.05862
1003.50 0.05853
1003.60 0.05843
1003.70 0.05834
1003.80 0.05824
1003.90 0.05815
1004.00 0.05805
1004.10 0.05796
1004.20 0.05786
1004.30 0.05777
1004.40 0.05768
1004.50 0.05758
1004.60 0.05749
1004.70 0.0574
1004.80 0.05731
1004.90 0.05718
1005.00 0.05705
1005.10 0.05695
1005.20 0.05686
1005.30 0.05677
1005.40 0.05668
1005.50 0.05659
1005.60 0.0565
1005.70 0.05641
1005.80 0.05632
1005.90 0.05623
1006.00 0.05614
1006.10 0.05605
1006.20 0.05596
1006.30 0.05587
1006.40 0.05579
1006.50 0.0557
1006.60 0.05561
1006.70 0.05552
1006.80 0.05544
1006.90 0.05535
1007.00 0.05526
1007.10 0.05518
1007.20 0.05509
1007.30 0.05501
1007.40 0.05492
1007.50 0.05483
1007.60 0.05475
1007.70 0.05467
1007.80 0.05458
1007.90 0.0545
1008.00 0.05442
1008.10 0.05434
1008.20 0.05425
1008.30 0.05417
1008.40 0.05409
1008.50 0.05401
1008.60 0.05393
1008.70 0.05384
1008.80 0.05376
1008.90 0.05368
1009.00 0.0536
1009.10 0.05352
1009.20 0.05343
1009.30 0.05335
1009.40 0.05327
1009.50 0.05319
1009.60 0.05311
1009.70 0.05303
1009.80 0.05295
1009.90 0.05288
1010.00 0.0528
1010.10 0.05272
1010.20 0.05264
1010.30 0.05257
1010.40 0.05249
1010.50 0.05241
1010.60 0.05234
1010.70 0.05226
1010.80 0.05218
1010.90 0.05211
1011.00 0.05203
1011.10 0.05195
1011.20 0.05188
1011.30 0.0518
1011.40 0.05172
1011.50 0.05165
1011.60 0.05157
1011.70 0.05149
1011.80 0.05142
1011.90 0.05135
1012.00 0.05127
1012.10 0.0512
1012.20 0.05113
1012.30 0.05106
1012.40 0.05099
1012.50 0.05091
1012.60 0.05084
1012.70 0.05077
1012.80 0.0507
1012.90 0.05063
1013.00 0.05055
1013.10 0.05048
1013.20 0.05041
1013.30 0.05034
1013.40 0.05027
1013.50 0.0502
1013.60 0.05013
1013.70 0.05006
1013.80 0.04999
1013.90 0.04992
1014.00 0.04985
1014.10 0.04978
1014.20 0.04971
1014.30 0.04964
1014.40 0.04958
1014.50 0.04951
1014.60 0.04944
1014.70 0.04938
1014.80 0.04932
1014.90 0.04926
1015.00 0.0492
1015.10 0.04914
1015.20 0.04908
1015.30 0.04902
1015.40 0.04896
1015.50 0.0489
1015.60 0.04885
1015.70 0.04879
1015.80 0.04873
1015.90 0.04867
1016.00 0.04861
1016.10 0.04855
1016.20 0.04849
1016.30 0.04843
1016.40 0.04837
1016.50 0.04831
1016.60 0.04826
1016.70 0.04819
1016.80 0.04813
1016.90 0.04806
1017.00 0.048
1017.10 0.04794
1017.20 0.04787
1017.30 0.04781
1017.40 0.04775
1017.50 0.04768
1017.60 0.04762
1017.70 0.04756
1017.80 0.04749
1017.90 0.04743
1018.00 0.04737
1018.10 0.0473
1018.20 0.04724
1018.30 0.04718
1018.40 0.04711
1018.50 0.04705
1018.60 0.04699
1018.70 0.04692
1018.80 0.04686
1018.90 0.0468
1019.00 0.04674
1019.10 0.04668
1019.20 0.04662
1019.30 0.04656
1019.40 0.04649
1019.50 0.04643
1019.60 0.04637
1019.70 0.04631
1019.80 0.04625
1019.90 0.04619
1020.00 0.04613
1020.10 0.04607
1020.20 0.046
1020.30 0.04594
1020.40 0.04588
1020.50 0.04582
1020.60 0.04576
1020.70 0.0457
1020.80 0.04564
1020.90 0.04558
1021.00 0.04552
1021.10 0.04546
1021.20 0.0454
1021.30 0.04534
1021.40 0.04528
1021.50 0.04522
1021.60 0.04516
1021.70 0.0451
1021.80 0.04505
1021.90 0.04499
1022.00 0.04493
1022.10 0.04487
1022.20 0.04481
1022.30 0.04475
1022.40 0.0447
1022.50 0.04464
1022.60 0.04458
1022.70 0.04452
1022.80 0.04447
1022.90 0.04441
1023.00 0.04435
1023.10 0.04429
1023.20 0.04424
1023.30 0.04418
1023.40 0.04412
1023.50 0.04406
1023.60 0.04401
1023.70 0.04395
1023.80 0.04389
1023.90 0.04383
1024.00 0.04378
1024.10 0.04372
1024.20 0.04366
1024.30 0.0436
1024.40 0.04355
1024.50 0.04349
1024.60 0.04343
1024.70 0.04338
1024.80 0.04332
1024.90 0.04326
1025.00 0.04321
1025.10 0.04315
1025.20 0.04309
1025.30 0.04304
1025.40 0.04298
1025.50 0.04292
1025.60 0.04287
1025.70 0.04281
1025.80 0.04275
1025.90 0.0427
1026.00 0.04264
1026.10 0.04258
1026.20 0.04253
1026.30 0.04247
1026.40 0.04242
1026.50 0.04236
1026.60 0.0423
1026.70 0.04225
1026.80 0.04219
1026.90 0.04213
1027.00 0.04208
1027.10 0.04203
1027.20 0.04198
1027.30 0.04192
1027.40 0.04187
1027.50 0.04182
1027.60 0.04177
1027.70 0.04172
1027.80 0.04167
1027.90 0.04162
1028.00 0.04157
1028.10 0.04152
1028.20 0.04146
1028.30 0.04141
1028.40 0.04136
1028.50 0.04131
1028.60 0.04126
1028.70 0.04121
1028.80 0.04116
1028.90 0.04111
1029.00 0.04106
1029.10 0.04101
1029.20 0.04096
1029.30 0.0409
1029.40 0.04085
1029.50 0.0408
1029.60 0.04075
1029.70 0.0407
1029.80 0.04065
1029.90 0.0406
1030.00 0.04055
1030.10 0.0405
1030.20 0.04045
1030.30 0.0404
1030.40 0.04035
1030.50 0.0403
1030.60 0.04025
1030.70 0.04019
1030.80 0.04014
1030.90 0.04009
1031.00 0.04004
1031.10 0.03999
1031.20 0.03994
1031.30 0.03989
1031.40 0.03984
1031.50 0.03979
1031.60 0.03974
1031.70 0.03969
1031.80 0.03964
1031.90 0.03959
1032.00 0.03954
1032.10 0.03949
1032.20 0.03945
1032.30 0.0394
1032.40 0.03935
1032.50 0.03931
1032.60 0.03926
1032.70 0.03922
1032.80 0.03917
1032.90 0.03912
1033.00 0.03908
1033.10 0.03903
1033.20 0.03898
1033.30 0.03894
1033.40 0.03889
1033.50 0.03885
1033.60 0.0388
1033.70 0.03875
1033.80 0.03871
1033.90 0.03866
1034.00 0.03862
1034.10 0.03857
1034.20 0.03852
1034.30 0.03848
1034.40 0.03843
1034.50 0.03839
1034.60 0.03834
1034.70 0.03829
1034.80 0.03825
1034.90 0.0382
1035.00 0.03816
1035.10 0.03811
1035.20 0.03806
1035.30 0.03802
1035.40 0.03797
1035.50 0.03793
1035.60 0.03788
1035.70 0.03783
1035.80 0.03779
1035.90 0.03774
1036.00 0.0377
1036.10 0.03765
1036.20 0.03761
1036.30 0.03756
1036.40 0.03751
1036.50 0.03747
1036.60 0.03742
1036.70 0.03738
1036.80 0.03733
1036.90 0.03729
1037.00 0.03724
1037.10 0.0372
1037.20 0.03716
1037.30 0.03712
1037.40 0.03708
1037.50 0.03704
1037.60 0.037
1037.70 0.03696
1037.80 0.03692
1037.90 0.03688
1038.00 0.03684
1038.10 0.0368
1038.20 0.03676
1038.30 0.03672
1038.40 0.03668
1038.50 0.03664
1038.60 0.0366
1038.70 0.03656
1038.80 0.03652
1038.90 0.03648
1039.00 0.03644
1039.10 0.0364
1039.20 0.03636
1039.30 0.03632
1039.40 0.03627
1039.50 0.03623
1039.60 0.03619
1039.70 0.03615
1039.80 0.03611
1039.90 0.03607
1040.00 0.03603
1040.10 0.03599
1040.20 0.03595
1040.30 0.03591
1040.40 0.03587
1040.50 0.03583
1040.60 0.0358
1040.70 0.03576
1040.80 0.03572
1040.90 0.03568
1041.00 0.03564
1041.10 0.0356
1041.20 0.03556
1041.30 0.03552
1041.40 0.03548
1041.50 0.03544
1041.60 0.0354
1041.70 0.03536
1041.80 0.03532
1041.90 0.03528
1042.00 0.03524
1042.10 0.0352
1042.20 0.03517
1042.30 0.03513
1042.40 0.0351
1042.50 0.03506
1042.60 0.03503
1042.70 0.03499
1042.80 0.03496
1042.90 0.03492
1043.00 0.03489
1043.10 0.03485
1043.20 0.03482
1043.30 0.03478
1043.40 0.03475
1043.50 0.03471
1043.60 0.03468
1043.70 0.03464
1043.80 0.03461
1043.90 0.03457
1044.00 0.03454
1044.10 0.0345
1044.20 0.03447
1044.30 0.03443
1044.40 0.0344
1044.50 0.03436
1044.60 0.03433
1044.70 0.03429
1044.80 0.03426
1044.90 0.03422
1045.00 0.03419
1045.10 0.03415
1045.20 0.03412
1045.30 0.03408
1045.40 0.03405
1045.50 0.03401
1045.60 0.03398
1045.70 0.03394
1045.80 0.03391
1045.90 0.03387
1046.00 0.03384
1046.10 0.03381
1046.20 0.03377
1046.30 0.03374
1046.40 0.0337
1046.50 0.03367
1046.60 0.03363
1046.70 0.0336
1046.80 0.03356
1046.90 0.03353
1047.00 0.03349
1047.10 0.03346
1047.20 0.03343
1047.30 0.0334
1047.40 0.03337
1047.50 0.03334
1047.60 0.03331
1047.70 0.03328
1047.80 0.03325
1047.90 0.03322
1048.00 0.03319
1048.10 0.03316
1048.20 0.03313
1048.30 0.0331
1048.40 0.03307
1048.50 0.03304
1048.60 0.03301
1048.70 0.03298
1048.80 0.03295
1048.90 0.03292
1049.00 0.03289
1049.10 0.03286
1049.20 0.03283
1049.30 0.0328
1049.40 0.03277
1049.50 0.03274
1049.60 0.03271
1049.70 0.03268
1049.80 0.03265
1049.90 0.03262
1050.00 0.03259
1050.10 0.03256
1050.20 0.03253
1050.30 0.0325
1050.40 0.03247
1050.50 0.03244
1050.60 0.03241
1050.70 0.03238
1050.80 0.03235
1050.90 0.03232
1051.00 0.03229
1051.10 0.03226
1051.20 0.03223
1051.30 0.0322
1051.40 0.03217
1051.50 0.03214
1051.60 0.03211
1051.70 0.03208
1051.80 0.03205
1051.90 0.03202
1052.00 0.03199
1052.10 0.03196
1052.20 0.03194
1052.30 0.03191
1052.40 0.03188
1052.50 0.03186
1052.60 0.03183
1052.70 0.0318
1052.80 0.03177
1052.90 0.03175
1053.00 0.03172
1053.10 0.03169
1053.20 0.03167
1053.30 0.03164
1053.40 0.03161
1053.50 0.03158
1053.60 0.03156
1053.70 0.03153
1053.80 0.0315
1053.90 0.03148
1054.00 0.03145
1054.10 0.03142
1054.20 0.0314
1054.30 0.03137
1054.40 0.03134
1054.50 0.03132
1054.60 0.03129
1054.70 0.03126
1054.80 0.03123
1054.90 0.03121
1055.00 0.03118
1055.10 0.03115
1055.20 0.03113
1055.30 0.0311
1055.40 0.03107
1055.50 0.03105
1055.60 0.03102
1055.70 0.03099
1055.80 0.03097
1055.90 0.03094
1056.00 0.03091
1056.10 0.03089
1056.20 0.03086
1056.30 0.03083
1056.40 0.03081
1056.50 0.03078
1056.60 0.03075
1056.70 0.03073
1056.80 0.0307
1056.90 0.03067
1057.00 0.03065
1057.10 0.03062
1057.20 0.0306
1057.30 0.03057
1057.40 0.03055
1057.50 0.03053
1057.60 0.0305
1057.70 0.03048
1057.80 0.03045
1057.90 0.03043
1058.00 0.03041
1058.10 0.03038
1058.20 0.03036
1058.30 0.03034
1058.40 0.03031
1058.50 0.03029
1058.60 0.03026
1058.70 0.03024
1058.80 0.03022
1058.90 0.03019
1059.00 0.03017
1059.10 0.03015
1059.20 0.03012
1059.30 0.0301
1059.40 0.03007
1059.50 0.03005
1059.60 0.03003
1059.70 0.03
1059.80 0.02998
1059.90 0.02996
1060.00 0.02993
1060.10 0.02991
1060.20 0.02989
1060.30 0.02986
1060.40 0.02984
1060.50 0.02981
1060.60 0.02979
1060.70 0.02977
1060.80 0.02974
1060.90 0.02972
1061.00 0.0297
1061.10 0.02967
1061.20 0.02965
1061.30 0.02963
1061.40 0.0296
1061.50 0.02958
1061.60 0.02956
1061.70 0.02953
1061.80 0.02951
1061.90 0.02949
1062.00 0.02946
1062.10 0.02944
1062.20 0.02942
1062.30 0.0294
1062.40 0.02938
1062.50 0.02936
1062.60 0.02934
1062.70 0.02932
1062.80 0.0293
1062.90 0.02928
1063.00 0.02926
1063.10 0.02924
1063.20 0.02921
1063.30 0.02919
1063.40 0.02917
1063.50 0.02915
1063.60 0.02913
1063.70 0.02911
1063.80 0.02909
1063.90 0.02907
1064.00 0.02905
1064.10 0.02903
1064.20 0.02901
1064.30 0.02899
1064.40 0.02897
1064.50 0.02895
1064.60 0.02893
1064.70 0.02891
1064.80 0.02889
1064.90 0.02887
1065.00 0.02885
1065.10 0.02883
1065.20 0.02881
1065.30 0.02879
1065.40 0.02876
1065.50 0.02874
1065.60 0.02872
1065.70 0.0287
1065.80 0.02868
1065.90 0.02866
1066.00 0.02864
1066.10 0.02862
1066.20 0.0286
1066.30 0.02858
1066.40 0.02856
1066.50 0.02854
1066.60 0.02852
1066.70 0.0285
1066.80 0.02848
1066.90 0.02846
1067.00 0.02844
1067.10 0.02842
1067.20 0.0284
1067.30 0.02838
1067.40 0.02837
1067.50 0.02835
1067.60 0.02833
1067.70 0.02831
1067.80 0.02829
1067.90 0.02827
1068.00 0.02825
1068.10 0.02824
1068.20 0.02822
1068.30 0.0282
1068.40 0.02818
1068.50 0.02816
1068.60 0.02814
1068.70 0.02813
1068.80 0.02811
1068.90 0.02809
1069.00 0.02807
1069.10 0.02805
1069.20 0.02803
1069.30 0.02802
1069.40 0.028
1069.50 0.02798
1069.60 0.02796
1069.70 0.02794
1069.80 0.02792
1069.90 0.02791
1070.00 0.02789
1070.10 0.02787
1070.20 0.02785
1070.30 0.02783
1070.40 0.02781
1070.50 0.0278
1070.60 0.02778
1070.70 0.02776
1070.80 0.02774
1070.90 0.02772
1071.00 0.0277
1071.10 0.02769
1071.20 0.02767
1071.30 0.02765
1071.40 0.02763
1071.50 0.02761
1071.60 0.02759
1071.70 0.02758
1071.80 0.02756
1071.90 0.02754
1072.00 0.02752
1072.10 0.02751
1072.20 0.02749
1072.30 0.02748
1072.40 0.02746
1072.50 0.02745
1072.60 0.02743
1072.70 0.02742
1072.80 0.0274
1072.90 0.02739
1073.00 0.02737
1073.10 0.02736
1073.20 0.02734
1073.30 0.02733
1073.40 0.02731
1073.50 0.0273
1073.60 0.02729
1073.70 0.02727
1073.80 0.02726
1073.90 0.02725
1074.00 0.02724
1074.10 0.02722
1074.20 0.02721
1074.30 0.0272
1074.40 0.02719
1074.50 0.02717
1074.60 0.02716
1074.70 0.02715
1074.80 0.02713
1074.90 0.02712
1075.00 0.02711
1075.10 0.0271
1075.20 0.02708
1075.30 0.02707
1075.40 0.02706
1075.50 0.02705
1075.60 0.02703
1075.70 0.02702
1075.80 0.02701
1075.90 0.02699
1076.00 0.02698
1076.10 0.02697
1076.20 0.02696
1076.30 0.02694
1076.40 0.02693
1076.50 0.02692
1076.60 0.02691
1076.70 0.02689
1076.80 0.02688
1076.90 0.02687
1077.00 0.02686
1077.10 0.02684
1077.20 0.02683
1077.30 0.02682
1077.40 0.02681
1077.50 0.0268
1077.60 0.02679
1077.70 0.02678
1077.80 0.02677
1077.90 0.02676
1078.00 0.02675
1078.10 0.02674
1078.20 0.02673
1078.30 0.02672
1078.40 0.02671
1078.50 0.0267
1078.60 0.02669
1078.70 0.02668
1078.80 0.02667
1078.90 0.02666
1079.00 0.02665
1079.10 0.02664
1079.20 0.02663
1079.30 0.02662
1079.40 0.02661
1079.50 0.0266
1079.60 0.02659
1079.70 0.02658
1079.80 0.02657
1079.90 0.02657
1080.00 0.02656
1080.10 0.02655
1080.20 0.02654
1080.30 0.02654
1080.40 0.02653
1080.50 0.02652
1080.60 0.02651
1080.70 0.02651
1080.80 0.0265
1080.90 0.02649
1081.00 0.02648
1081.10 0.02648
1081.20 0.02647
1081.30 0.02646
1081.40 0.02645
1081.50 0.02645
1081.60 0.02644
1081.70 0.02643
1081.80 0.02642
1081.90 0.02642
1082.00 0.02641
1082.10 0.0264
1082.20 0.02639
1082.30 0.02639
1082.40 0.02638
1082.50 0.02637
1082.60 0.02637
1082.70 0.02636
1082.80 0.02635
1082.90 0.02635
1083.00 0.02634
1083.10 0.02633
1083.20 0.02632
1083.30 0.02632
1083.40 0.02631
1083.50 0.0263
1083.60 0.0263
1083.70 0.02629
1083.80 0.02628
1083.90 0.02628
1084.00 0.02627
1084.10 0.02627
1084.20 0.02626
1084.30 0.02625
1084.40 0.02625
1084.50 0.02624
1084.60 0.02624
1084.70 0.02623
1084.80 0.02623
1084.90 0.02622
1085.00 0.02622
1085.10 0.02621
1085.20 0.0262
1085.30 0.0262
1085.40 0.02619
1085.50 0.02619
1085.60 0.02618
1085.70 0.02618
1085.80 0.02617
1085.90 0.02617
1086.00 0.02616
1086.10 0.02616
1086.20 0.02615
1086.30 0.02615
1086.40 0.02614
1086.50 0.02614
1086.60 0.02613
1086.70 0.02613
1086.80 0.02612
1086.90 0.02612
1087.00 0.02611
1087.10 0.02611
1087.20 0.02611
1087.30 0.0261
1087.40 0.0261
1087.50 0.02609
1087.60 0.02609
1087.70 0.02609
1087.80 0.02608
1087.90 0.02608
1088.00 0.02608
1088.10 0.02607
1088.20 0.02607
1088.30 0.02606
1088.40 0.02606
1088.50 0.02606
1088.60 0.02605
1088.70 0.02605
1088.80 0.02605
1088.90 0.02605
1089.00 0.02604
1089.10 0.02604
1089.20 0.02604
1089.30 0.02603
1089.40 0.02603
1089.50 0.02603
1089.60 0.02603
1089.70 0.02602
1089.80 0.02602
1089.90 0.02602
1090.00 0.02602
1090.10 0.02601
1090.20 0.02601
1090.30 0.02601
1090.40 0.02601
1090.50 0.026
1090.60 0.026
1090.70 0.026
1090.80 0.026
1090.90 0.026
1091.00 0.02599
1091.10 0.02599
1091.20 0.02599
1091.30 0.02599
1091.40 0.02599
1091.50 0.02599
1091.60 0.02598
1091.70 0.02598
1091.80 0.02598
1091.90 0.02598
1092.00 0.02598
1092.10 0.02598
1092.20 0.02598
1092.30 0.02597
1092.40 0.02597
1092.50 0.02597
1092.60 0.02597
1092.70 0.02598
1092.80 0.02599
1092.90 0.026
1093.00 0.02602
1093.10 0.02603
1093.20 0.02603
1093.30 0.02602
1093.40 0.02602
1093.50 0.02602
1093.60 0.02602
1093.70 0.02602
1093.80 0.02602
1093.90 0.02602
1094.00 0.02602
1094.10 0.02602
1094.20 0.02602
1094.30 0.02602
1094.40 0.02602
1094.50 0.02602
1094.60 0.02602
1094.70 0.02602
1094.80 0.02602
1094.90 0.02602
1095.00 0.02602
1095.10 0.02602
1095.20 0.02602
1095.30 0.02602
1095.40 0.02602
1095.50 0.02602
1095.60 0.02602
1095.70 0.02602
1095.80 0.02602
1095.90 0.02602
1096.00 0.02602
1096.10 0.02602
1096.20 0.02602
1096.30 0.02602
1096.40 0.02602
1096.50 0.02602
1096.60 0.02602
1096.70 0.02603
1096.80 0.02603
1096.90 0.02603
1097.00 0.02603
1097.10 0.02603
1097.20 0.02603
1097.30 0.02603
1097.40 0.02603
1097.50 0.02603
1097.60 0.02603
1097.70 0.02603
1097.80 0.02603
1097.90 0.02603
1098.00 0.02603
1098.10 0.02604
1098.20 0.02604
1098.30 0.02604
1098.40 0.02604
1098.50 0.02604
1098.60 0.02604
1098.70 0.02604
1098.80 0.02604
1098.90 0.02604
1099.00 0.02604
1099.10 0.02605
1099.20 0.02605
1099.30 0.02605
1099.40 0.02605
1099.50 0.02605
1099.60 0.02605
1099.70 0.02605
1099.80 0.02605
1099.90 0.02606
1100.00 0.02606
1100.10 0.02606
1100.20 0.02606
1100.30 0.02606
1100.40 0.02606
1100.50 0.02606
1100.60 0.02607
1100.70 0.02607
1100.80 0.02607
1100.90 0.02607
1101.00 0.02607
1101.10 0.02607
1101.20 0.02608
1101.30 0.02608
1101.40 0.02608
1101.50 0.02608
1101.60 0.02608
1101.70 0.02609
1101.80 0.02609
1101.90 0.02609
1102.00 0.02609
1102.10 0.02609
1102.20 0.0261
1102.30 0.0261
1102.40 0.0261
1102.50 0.0261
1102.60 0.0261
1102.70 0.02611
1102.80 0.02611
1102.90 0.02611
1103.00 0.02611
1103.10 0.02611
1103.20 0.02612
1103.30 0.02612
1103.40 0.02612
1103.50 0.02612
1103.60 0.02613
1103.70 0.02613
1103.80 0.02613
1103.90 0.02613
1104.00 0.02614
1104.10 0.02614
1104.20 0.02614
1104.30 0.02614
1104.40 0.02615
1104.50 0.02615
1104.60 0.02615
1104.70 0.02615
1104.80 0.02615
1104.90 0.02616
1105.00 0.02616
1105.10 0.02616
1105.20 0.02616
1105.30 0.02617
1105.40 0.02617
1105.50 0.02617
1105.60 0.02618
1105.70 0.02618
1105.80 0.02618
1105.90 0.02618
1106.00 0.02619
1106.10 0.02619
1106.20 0.02619
1106.30 0.0262
1106.40 0.0262
1106.50 0.0262
1106.60 0.02621
1106.70 0.02621
1106.80 0.02621
1106.90 0.02622
1107.00 0.02622
1107.10 0.02622
1107.20 0.02623
1107.30 0.02623
1107.40 0.02624
1107.50 0.02624
1107.60 0.02624
1107.70 0.02625
1107.80 0.02625
1107.90 0.02625
1108.00 0.02626
1108.10 0.02626
1108.20 0.02627
1108.30 0.02627
1108.40 0.02627
1108.50 0.02628
1108.60 0.02628
1108.70 0.02629
1108.80 0.02629
1108.90 0.02629
1109.00 0.0263
1109.10 0.0263
1109.20 0.0263
1109.30 0.02631
1109.40 0.02631
1109.50 0.02632
1109.60 0.02632
1109.70 0.02633
1109.80 0.02633
1109.90 0.02634
1110.00 0.02634
1110.10 0.02634
1110.20 0.02635
1110.30 0.02635
1110.40 0.02636
1110.50 0.02636
1110.60 0.02637
1110.70 0.02637
1110.80 0.02638
1110.90 0.02638
1111.00 0.02639
1111.10 0.02639
1111.20 0.02639
1111.30 0.0264
1111.40 0.0264
1111.50 0.02641
1111.60 0.02641
1111.70 0.02642
1111.80 0.02642
1111.90 0.02643
1112.00 0.02643
1112.10 0.02644
1112.20 0.02644
1112.30 0.02645
1112.40 0.02645
1112.50 0.02646
1112.60 0.02646
1112.70 0.02647
1112.80 0.02647
1112.90 0.02648
1113.00 0.02648
1113.10 0.02649
1113.20 0.02649
1113.30 0.0265
1113.40 0.02651
1113.50 0.02651
1113.60 0.02652
1113.70 0.02652
1113.80 0.02653
1113.90 0.02653
1114.00 0.02654
1114.10 0.02655
1114.20 0.02655
1114.30 0.02656
1114.40 0.02656
1114.50 0.02657
1114.60 0.02658
1114.70 0.02658
1114.80 0.02659
1114.90 0.02659
1115.00 0.0266
1115.10 0.02661
1115.20 0.02661
1115.30 0.02662
1115.40 0.02662
1115.50 0.02663
1115.60 0.02664
1115.70 0.02664
1115.80 0.02665
1115.90 0.02665
1116.00 0.02666
1116.10 0.02667
1116.20 0.02667
1116.30 0.02668
1116.40 0.02668
1116.50 0.02669
1116.60 0.0267
1116.70 0.0267
1116.80 0.02671
1116.90 0.02671
1117.00 0.02672
1117.10 0.02673
1117.20 0.02673
1117.30 0.02674
1117.40 0.02675
1117.50 0.02675
1117.60 0.02676
1117.70 0.02677
1117.80 0.02678
1117.90 0.02678
1118.00 0.02679
1118.10 0.0268
1118.20 0.0268
1118.30 0.02681
1118.40 0.02682
1118.50 0.02683
1118.60 0.02683
1118.70 0.02684
1118.80 0.02685
1118.90 0.02685
1119.00 0.02686
1119.10 0.02687
1119.20 0.02687
1119.30 0.02688
1119.40 0.02689
1119.50 0.0269
1119.60 0.0269
1119.70 0.02691
1119.80 0.02692
1119.90 0.02692
1120.00 0.02693
1120.10 0.02694
1120.20 0.02694
1120.30 0.02695
1120.40 0.02696
1120.50 0.02697
1120.60 0.02697
1120.70 0.02698
1120.80 0.02699
1120.90 0.02699
1121.00 0.027
1121.10 0.02701
1121.20 0.02701
1121.30 0.02702
1121.40 0.02703
1121.50 0.02704
1121.60 0.02704
1121.70 0.02705
1121.80 0.02706
1121.90 0.02706
1122.00 0.02707
1122.10 0.02708
1122.20 0.02709
1122.30 0.0271
1122.40 0.02711
1122.50 0.02712
1122.60 0.02713
1122.70 0.02714
1122.80 0.02715
1122.90 0.02716
1123.00 0.02717
1123.10 0.02718
1123.20 0.02719
1123.30 0.0272
1123.40 0.02721
1123.50 0.02722
1123.60 0.02723
1123.70 0.02724
1123.80 0.02725
1123.90 0.02726
1124.00 0.02727
1124.10 0.02728
1124.20 0.02729
1124.30 0.0273
1124.40 0.02731
1124.50 0.02732
1124.60 0.02733
1124.70 0.02734
1124.80 0.02735
1124.90 0.02736
1125.00 0.02737
1125.10 0.02738
1125.20 0.02739
1125.30 0.0274
1125.40 0.02741
1125.50 0.02742
1125.60 0.02743
1125.70 0.02744
1125.80 0.02745
1125.90 0.02746
1126.00 0.02747
1126.10 0.02748
1126.20 0.02749
1126.30 0.0275
1126.40 0.02751
1126.50 0.02752
1126.60 0.02753
1126.70 0.02754
1126.80 0.02755
1126.90 0.02756
1127.00 0.02757
1127.10 0.02759
1127.20 0.0276
1127.30 0.02761
1127.40 0.02763
1127.50 0.02764
1127.60 0.02765
1127.70 0.02767
1127.80 0.02768
1127.90 0.02769
1128.00 0.02771
1128.10 0.02772
1128.20 0.02774
1128.30 0.02775
1128.40 0.02776
1128.50 0.02778
1128.60 0.02779
1128.70 0.0278
1128.80 0.02782
1128.90 0.02783
1129.00 0.02784
1129.10 0.02786
1129.20 0.02787
1129.30 0.02788
1129.40 0.0279
1129.50 0.02791
1129.60 0.02792
1129.70 0.02794
1129.80 0.02795
1129.90 0.02796
1130.00 0.02798
1130.10 0.02799
1130.20 0.02801
1130.30 0.02802
1130.40 0.02803
1130.50 0.02805
1130.60 0.02806
1130.70 0.02807
1130.80 0.02809
1130.90 0.0281
1131.00 0.02811
1131.10 0.02813
1131.20 0.02814
1131.30 0.02815
1131.40 0.02817
1131.50 0.02818
1131.60 0.02819
1131.70 0.02821
1131.80 0.02822
1131.90 0.02823
1132.00 0.02825
1132.10 0.02826
1132.20 0.02827
1132.30 0.02829
1132.40 0.0283
1132.50 0.02832
1132.60 0.02833
1132.70 0.02834
1132.80 0.02836
1132.90 0.02837
1133.00 0.02838
1133.10 0.0284
1133.20 0.02841
1133.30 0.02843
1133.40 0.02844
1133.50 0.02845
1133.60 0.02847
1133.70 0.02848
1133.80 0.0285
1133.90 0.02851
1134.00 0.02852
1134.10 0.02854
1134.20 0.02855
1134.30 0.02856
1134.40 0.02858
1134.50 0.02859
1134.60 0.02861
1134.70 0.02862
1134.80 0.02863
1134.90 0.02865
1135.00 0.02866
1135.10 0.02867
1135.20 0.02869
1135.30 0.0287
1135.40 0.02871
1135.50 0.02873
1135.60 0.02874
1135.70 0.02876
1135.80 0.02877
1135.90 0.02878
1136.00 0.0288
1136.10 0.02881
1136.20 0.02882
1136.30 0.02884
1136.40 0.02885
1136.50 0.02887
1136.60 0.02888
1136.70 0.02889
1136.80 0.02891
1136.90 0.02892
1137.00 0.02893
1137.10 0.02895
1137.20 0.02896
1137.30 0.02898
1137.40 0.02899
1137.50 0.02901
1137.60 0.02902
1137.70 0.02904
1137.80 0.02905
1137.90 0.02907
1138.00 0.02908
1138.10 0.0291
1138.20 0.02911
1138.30 0.02913
1138.40 0.02914
1138.50 0.02916
1138.60 0.02917
1138.70 0.02919
1138.80 0.0292
1138.90 0.02922
1139.00 0.02923
1139.10 0.02925
1139.20 0.02926
1139.30 0.02928
1139.40 0.02929
1139.50 0.02931
1139.60 0.02932
1139.70 0.02934
1139.80 0.02935
1139.90 0.02937
1140.00 0.02938
1140.10 0.0294
1140.20 0.02941
1140.30 0.02943
1140.40 0.02944
1140.50 0.02945
1140.60 0.02947
1140.70 0.02948
1140.80 0.0295
1140.90 0.02951
1141.00 0.02953
1141.10 0.02954
1141.20 0.02956
1141.30 0.02957
1141.40 0.02959
1141.50 0.0296
1141.60 0.02962
1141.70 0.02963
1141.80 0.02965
1141.90 0.02966
1142.00 0.02968
1142.10 0.02969
1142.20 0.02971
1142.30 0.02973
1142.40 0.02974
1142.50 0.02976
1142.60 0.02978
1142.70 0.0298
1142.80 0.02981
1142.90 0.02983
1143.00 0.02985
1143.10 0.02986
1143.20 0.02988
1143.30 0.0299
1143.40 0.02991
1143.50 0.02993
1143.60 0.02995
1143.70 0.02997
1143.80 0.02998
1143.90 0.03
1144.00 0.03002
1144.10 0.03003
1144.20 0.03005
1144.30 0.03007
1144.40 0.03008
1144.50 0.0301
1144.60 0.03012
1144.70 0.03014
1144.80 0.03015
1144.90 0.03017
1145.00 0.03019
1145.10 0.0302
1145.20 0.03022
1145.30 0.03024
1145.40 0.03025
1145.50 0.03027
1145.60 0.03029
1145.70 0.0303
1145.80 0.03032
1145.90 0.03034
1146.00 0.03035
1146.10 0.03037
1146.20 0.03039
1146.30 0.03041
1146.40 0.03042
1146.50 0.03044
1146.60 0.03046
1146.70 0.03047
1146.80 0.03049
1146.90 0.03051
1147.00 0.03052
1147.10 0.03054
1147.20 0.03055
1147.30 0.03057
1147.40 0.03058
1147.50 0.0306
1147.60 0.03061
1147.70 0.03063
1147.80 0.03064
1147.90 0.03066
1148.00 0.03067
1148.10 0.03069
1148.20 0.0307
1148.30 0.03072
1148.40 0.03073
1148.50 0.03074
1148.60 0.03076
1148.70 0.03077
1148.80 0.03079
1148.90 0.0308
1149.00 0.03082
1149.10 0.03083
1149.20 0.03085
1149.30 0.03086
1149.40 0.03088
1149.50 0.03089
1149.60 0.03091
1149.70 0.03092
1149.80 0.03094
1149.90 0.03095
1150.00 0.03097
1150.10 0.03098
1150.20 0.031
1150.30 0.03101
1150.40 0.03102
1150.50 0.03104
1150.60 0.03105
1150.70 0.03107
1150.80 0.03108
1150.90 0.0311
1151.00 0.03111
1151.10 0.03113
1151.20 0.03114
1151.30 0.03116
1151.40 0.03117
1151.50 0.03119
1151.60 0.0312
1151.70 0.03122
1151.80 0.03123
1151.90 0.03124
1152.00 0.03126
1152.10 0.03127
1152.20 0.03129
1152.30 0.0313
1152.40 0.03132
1152.50 0.03134
1152.60 0.03135
1152.70 0.03137
1152.80 0.03138
1152.90 0.0314
1153.00 0.03141
1153.10 0.03143
1153.20 0.03144
1153.30 0.03146
1153.40 0.03147
1153.50 0.03149
1153.60 0.0315
1153.70 0.03152
1153.80 0.03153
1153.90 0.03155
1154.00 0.03156
1154.10 0.03158
1154.20 0.03159
1154.30 0.03161
1154.40 0.03163
1154.50 0.03164
1154.60 0.03166
1154.70 0.03167
1154.80 0.03169
1154.90 0.0317
1155.00 0.03172
1155.10 0.03173
1155.20 0.03175
1155.30 0.03176
1155.40 0.03178
1155.50 0.03179
1155.60 0.03181
1155.70 0.03182
1155.80 0.03184
1155.90 0.03185
1156.00 0.03187
1156.10 0.03188
1156.20 0.0319
1156.30 0.03191
1156.40 0.03193
1156.50 0.03194
1156.60 0.03196
1156.70 0.03197
1156.80 0.03199
1156.90 0.032
1157.00 0.03202
1157.10 0.03203
1157.20 0.03204
1157.30 0.03206
1157.40 0.03207
1157.50 0.03208
1157.60 0.03209
1157.70 0.03211
1157.80 0.03212
1157.90 0.03213
1158.00 0.03214
1158.10 0.03216
1158.20 0.03217
1158.30 0.03218
1158.40 0.03219
1158.50 0.0322
1158.60 0.03222
1158.70 0.03223
1158.80 0.03224
1158.90 0.03225
1159.00 0.03227
1159.10 0.03228
1159.20 0.03229
1159.30 0.0323
1159.40 0.03232
1159.50 0.03233
1159.60 0.03234
1159.70 0.03235
1159.80 0.03237
1159.90 0.03238
1160.00 0.03239
1160.10 0.0324
1160.20 0.03242
1160.30 0.03243
1160.40 0.03244
1160.50 0.03245
1160.60 0.03246
1160.70 0.03248
1160.80 0.03249
1160.90 0.0325
1161.00 0.03251
1161.10 0.03253
1161.20 0.03254
1161.30 0.03255
1161.40 0.03256
1161.50 0.03258
1161.60 0.03259
1161.70 0.0326
1161.80 0.03261
1161.90 0.03262
1162.00 0.03264
1162.10 0.03265
1162.20 0.03266
1162.30 0.03267
1162.40 0.03268
1162.50 0.03269
1162.60 0.0327
1162.70 0.03271
1162.80 0.03272
1162.90 0.03273
1163.00 0.03274
1163.10 0.03275
1163.20 0.03276
1163.30 0.03277
1163.40 0.03278
1163.50 0.03279
1163.60 0.0328
1163.70 0.03281
1163.80 0.03282
1163.90 0.03283
1164.00 0.03284
1164.10 0.03285
1164.20 0.03286
1164.30 0.03287
1164.40 0.03288
1164.50 0.03289
1164.60 0.0329
1164.70 0.03292
1164.80 0.03293
1164.90 0.03294
1165.00 0.03295
1165.10 0.03296
1165.20 0.03297
1165.30 0.03298
1165.40 0.03299
1165.50 0.033
1165.60 0.03301
1165.70 0.03302
1165.80 0.03303
1165.90 0.03304
1166.00 0.03305
1166.10 0.03306
1166.20 0.03307
1166.30 0.03308
1166.40 0.03309
1166.50 0.0331
1166.60 0.03311
1166.70 0.03312
1166.80 0.03313
1166.90 0.03314
1167.00 0.03315
1167.10 0.03316
1167.20 0.03317
1167.30 0.03318
1167.40 0.03319
1167.50 0.0332
1167.60 0.03321
1167.70 0.03322
1167.80 0.03323
1167.90 0.03324
1168.00 0.03325
1168.10 0.03326
1168.20 0.03327
1168.30 0.03328
1168.40 0.03329
1168.50 0.0333
1168.60 0.03331
1168.70 0.03332
1168.80 0.03333
1168.90 0.03334
1169.00 0.03335
1169.10 0.03336
1169.20 0.03337
1169.30 0.03337
1169.40 0.03338
1169.50 0.03339
1169.60 0.0334
1169.70 0.03341
1169.80 0.03342
1169.90 0.03343
1170.00 0.03344
1170.10 0.03345
1170.20 0.03346
1170.30 0.03347
1170.40 0.03348
1170.50 0.03349
1170.60 0.0335
1170.70 0.03351
1170.80 0.03352
1170.90 0.03353
1171.00 0.03354
1171.10 0.03355
1171.20 0.03356
1171.30 0.03357
1171.40 0.03358
1171.50 0.03359
1171.60 0.0336
1171.70 0.03361
1171.80 0.03362
1171.90 0.03363
1172.00 0.03364
1172.10 0.03364
1172.20 0.03364
1172.30 0.03365
1172.40 0.03365
1172.50 0.03366
1172.60 0.03366
1172.70 0.03367
1172.80 0.03367
1172.90 0.03368
1173.00 0.03368
1173.10 0.03368
1173.20 0.03369
1173.30 0.03369
1173.40 0.0337
1173.50 0.0337
1173.60 0.03371
1173.70 0.03371
1173.80 0.03371
1173.90 0.03372
1174.00 0.03372
1174.10 0.03373
1174.20 0.03373
1174.30 0.03374
1174.40 0.03374
1174.50 0.03374
1174.60 0.03375
1174.70 0.03375
1174.80 0.03376
1174.90 0.03376
1175.00 0.03377
1175.10 0.03377
1175.20 0.03377
1175.30 0.03378
1175.40 0.03378
1175.50 0.03379
1175.60 0.03379
1175.70 0.0338
1175.80 0.0338
1175.90 0.0338
1176.00 0.03381
1176.10 0.03381
1176.20 0.03382
1176.30 0.03382
1176.40 0.03383
1176.50 0.03383
1176.60 0.03383
1176.70 0.03384
1176.80 0.03384
1176.90 0.03385
1177.00 0.03385
1177.10 0.03385
1177.20 0.03385
1177.30 0.03385
1177.40 0.03385
1177.50 0.03385
1177.60 0.03385
1177.70 0.03385
1177.80 0.03386
1177.90 0.03386
1178.00 0.03386
1178.10 0.03386
1178.20 0.03386
1178.30 0.03386
1178.40 0.03386
1178.50 0.03386
1178.60 0.03386
1178.70 0.03386
1178.80 0.03386
1178.90 0.03386
1179.00 0.03386
1179.10 0.03386
1179.20 0.03386
1179.30 0.03386
1179.40 0.03386
1179.50 0.03386
1179.60 0.03386
1179.70 0.03386
1179.80 0.03386
1179.90 0.03386
1180.00 0.03387
1180.10 0.03387
1180.20 0.03387
1180.30 0.03387
1180.40 0.03387
1180.50 0.03387
1180.60 0.03387
1180.70 0.03387
1180.80 0.03387
1180.90 0.03387
1181.00 0.03387
1181.10 0.03387
1181.20 0.03387
1181.30 0.03387
1181.40 0.03387
1181.50 0.03387
1181.60 0.03387
1181.70 0.03387
1181.80 0.03387
1181.90 0.03387
1182.00 0.03387
1182.10 0.03387
1182.20 0.03386
1182.30 0.03386
1182.40 0.03385
1182.50 0.03385
1182.60 0.03384
1182.70 0.03384
1182.80 0.03383
1182.90 0.03383
1183.00 0.03382
1183.10 0.03382
1183.20 0.03381
1183.30 0.03381
1183.40 0.0338
1183.50 0.0338
1183.60 0.03379
1183.70 0.03378
1183.80 0.03378
1183.90 0.03377
1184.00 0.03377
1184.10 0.03376
1184.20 0.03376
1184.30 0.03375
1184.40 0.03375
1184.50 0.03374
1184.60 0.03374
1184.70 0.03373
1184.80 0.03373
1184.90 0.03372
1185.00 0.03372
1185.10 0.03371
1185.20 0.03371
1185.30 0.0337
1185.40 0.0337
1185.50 0.03369
1185.60 0.03368
1185.70 0.03368
1185.80 0.03367
1185.90 0.03367
1186.00 0.03366
1186.10 0.03366
1186.20 0.03365
1186.30 0.03365
1186.40 0.03364
1186.50 0.03364
1186.60 0.03363
1186.70 0.03363
1186.80 0.03362
1186.90 0.03362
1187.00 0.03361
1187.10 0.03361
1187.20 0.0336
1187.30 0.0336
1187.40 0.0336
1187.50 0.03359
1187.60 0.03359
1187.70 0.03359
1187.80 0.03358
1187.90 0.03358
1188.00 0.03357
1188.10 0.03357
1188.20 0.03357
1188.30 0.03356
1188.40 0.03356
1188.50 0.03356
1188.60 0.03355
1188.70 0.03355
1188.80 0.03354
1188.90 0.03354
1189.00 0.03354
1189.10 0.03353
1189.20 0.03353
1189.30 0.03353
1189.40 0.03352
1189.50 0.03352
1189.60 0.03351
1189.70 0.03351
1189.80 0.03351
1189.90 0.0335
1190.00 0.0335
1190.10 0.0335
1190.20 0.03349
1190.30 0.03349
1190.40 0.03348
1190.50 0.03348
1190.60 0.03348
1190.70 0.03347
1190.80 0.03347
1190.90 0.03347
1191.00 0.03346
1191.10 0.03346
1191.20 0.03346
1191.30 0.03345
1191.40 0.03345
1191.50 0.03344
1191.60 0.03344
1191.70 0.03344
1191.80 0.03343
1191.90 0.03343
1192.00 0.03343
1192.10 0.03342
1192.20 0.03342
1192.30 0.03341
1192.40 0.03341
1192.50 0.0334
1192.60 0.0334
1192.70 0.03339
1192.80 0.03339
1192.90 0.03338
1193.00 0.03338
1193.10 0.03337
1193.20 0.03337
1193.30 0.03336
1193.40 0.03336
1193.50 0.03335
1193.60 0.03335
1193.70 0.03334
1193.80 0.03334
1193.90 0.03334
1194.00 0.03333
1194.10 0.03333
1194.20 0.03332
1194.30 0.03332
1194.40 0.03331
1194.50 0.03331
1194.60 0.0333
1194.70 0.0333
1194.80 0.03329
1194.90 0.03329
1195.00 0.03328
1195.10 0.03328
1195.20 0.03327
1195.30 0.03327
1195.40 0.03326
1195.50 0.03326
1195.60 0.03326
1195.70 0.03325
1195.80 0.03325
1195.90 0.03324
1196.00 0.03324
1196.10 0.03323
1196.20 0.03323
1196.30 0.03322
1196.40 0.03322
1196.50 0.03321
1196.60 0.03321
1196.70 0.0332
1196.80 0.0332
1196.90 0.03319
1197.00 0.03319
1197.10 0.03318
1197.20 0.03317
1197.30 0.03316
1197.40 0.03316
1197.50 0.03315
1197.60 0.03314
1197.70 0.03313
1197.80 0.03312
1197.90 0.03312
1198.00 0.03311
1198.10 0.0331
1198.20 0.03309
1198.30 0.03308
1198.40 0.03307
1198.50 0.03307
1198.60 0.03306
1198.70 0.03305
1198.80 0.03304
1198.90 0.03303
1199.00 0.03303
1199.10 0.03302
1199.20 0.03301
1199.30 0.033
1199.40 0.03299
1199.50 0.03298
1199.60 0.03298
1199.70 0.03297
1199.80 0.03296
1199.90 0.03295
1200.00 0
