# Version 2.1 - nm, norm@500 to 1, cut digits, bergeron_20000_90.dat_20000
# Wavelength(nm)  Flambda(ergs/cm^s/s/nm)
300.00 3.485
300.10 3.482
300.20 3.479
300.30 3.475
300.40 3.472
300.50 3.469
300.60 3.465
300.70 3.462
300.80 3.458
300.90 3.455
301.00 3.452
301.10 3.448
301.20 3.445
301.30 3.442
301.40 3.438
301.50 3.435
301.60 3.432
301.70 3.428
301.80 3.425
301.90 3.422
302.00 3.418
302.10 3.415
302.20 3.412
302.30 3.408
302.40 3.405
302.50 3.402
302.60 3.398
302.70 3.395
302.80 3.392
302.90 3.389
303.00 3.385
303.10 3.382
303.20 3.379
303.30 3.376
303.40 3.372
303.50 3.369
303.60 3.366
303.70 3.363
303.80 3.359
303.90 3.356
304.00 3.353
304.10 3.35
304.20 3.346
304.30 3.343
304.40 3.34
304.50 3.337
304.60 3.333
304.70 3.33
304.80 3.327
304.90 3.324
305.00 3.321
305.10 3.317
305.20 3.314
305.30 3.311
305.40 3.308
305.50 3.305
305.60 3.302
305.70 3.298
305.80 3.295
305.90 3.292
306.00 3.289
306.10 3.286
306.20 3.283
306.30 3.28
306.40 3.276
306.50 3.273
306.60 3.27
306.70 3.267
306.80 3.264
306.90 3.261
307.00 3.258
307.10 3.255
307.20 3.251
307.30 3.248
307.40 3.245
307.50 3.242
307.60 3.239
307.70 3.236
307.80 3.233
307.90 3.23
308.00 3.227
308.10 3.224
308.20 3.221
308.30 3.217
308.40 3.214
308.50 3.211
308.60 3.208
308.70 3.205
308.80 3.202
308.90 3.199
309.00 3.196
309.10 3.193
309.20 3.19
309.30 3.187
309.40 3.184
309.50 3.181
309.60 3.178
309.70 3.175
309.80 3.172
309.90 3.169
310.00 3.166
310.10 3.163
310.20 3.16
310.30 3.157
310.40 3.154
310.50 3.151
310.60 3.148
310.70 3.145
310.80 3.142
310.90 3.139
311.00 3.136
311.10 3.133
311.20 3.13
311.30 3.127
311.40 3.124
311.50 3.121
311.60 3.118
311.70 3.115
311.80 3.113
311.90 3.11
312.00 3.107
312.10 3.104
312.20 3.101
312.30 3.098
312.40 3.095
312.50 3.092
312.60 3.089
312.70 3.086
312.80 3.083
312.90 3.08
313.00 3.078
313.10 3.075
313.20 3.072
313.30 3.069
313.40 3.066
313.50 3.063
313.60 3.06
313.70 3.057
313.80 3.055
313.90 3.052
314.00 3.049
314.10 3.046
314.20 3.043
314.30 3.04
314.40 3.037
314.50 3.035
314.60 3.032
314.70 3.029
314.80 3.026
314.90 3.023
315.00 3.02
315.10 3.018
315.20 3.015
315.30 3.012
315.40 3.009
315.50 3.006
315.60 3.004
315.70 3.001
315.80 2.998
315.90 2.995
316.00 2.992
316.10 2.99
316.20 2.987
316.30 2.984
316.40 2.981
316.50 2.978
316.60 2.976
316.70 2.973
316.80 2.97
316.90 2.967
317.00 2.965
317.10 2.962
317.20 2.959
317.30 2.956
317.40 2.954
317.50 2.951
317.60 2.948
317.70 2.945
317.80 2.943
317.90 2.94
318.00 2.937
318.10 2.935
318.20 2.932
318.30 2.929
318.40 2.926
318.50 2.924
318.60 2.921
318.70 2.918
318.80 2.916
318.90 2.913
319.00 2.91
319.10 2.908
319.20 2.905
319.30 2.902
319.40 2.9
319.50 2.897
319.60 2.894
319.70 2.892
319.80 2.889
319.90 2.886
320.00 2.884
320.10 2.881
320.20 2.878
320.30 2.876
320.40 2.873
320.50 2.87
320.60 2.868
320.70 2.865
320.80 2.862
320.90 2.86
321.00 2.857
321.10 2.855
321.20 2.852
321.30 2.849
321.40 2.847
321.50 2.844
321.60 2.841
321.70 2.839
321.80 2.836
321.90 2.834
322.00 2.831
322.10 2.828
322.20 2.826
322.30 2.823
322.40 2.821
322.50 2.818
322.60 2.816
322.70 2.813
322.80 2.81
322.90 2.808
323.00 2.805
323.10 2.803
323.20 2.8
323.30 2.798
323.40 2.795
323.50 2.792
323.60 2.79
323.70 2.787
323.80 2.785
323.90 2.782
324.00 2.78
324.10 2.777
324.20 2.775
324.30 2.772
324.40 2.77
324.50 2.767
324.60 2.765
324.70 2.762
324.80 2.76
324.90 2.757
325.00 2.755
325.10 2.752
325.20 2.75
325.30 2.747
325.40 2.745
325.50 2.742
325.60 2.74
325.70 2.737
325.80 2.735
325.90 2.732
326.00 2.73
326.10 2.727
326.20 2.725
326.30 2.722
326.40 2.72
326.50 2.717
326.60 2.715
326.70 2.712
326.80 2.71
326.90 2.708
327.00 2.705
327.10 2.703
327.20 2.7
327.30 2.698
327.40 2.695
327.50 2.693
327.60 2.691
327.70 2.688
327.80 2.686
327.90 2.683
328.00 2.681
328.10 2.678
328.20 2.676
328.30 2.674
328.40 2.671
328.50 2.669
328.60 2.666
328.70 2.664
328.80 2.662
328.90 2.659
329.00 2.657
329.10 2.654
329.20 2.652
329.30 2.65
329.40 2.647
329.50 2.645
329.60 2.643
329.70 2.64
329.80 2.638
329.90 2.635
330.00 2.633
330.10 2.631
330.20 2.628
330.30 2.626
330.40 2.624
330.50 2.621
330.60 2.619
330.70 2.617
330.80 2.614
330.90 2.612
331.00 2.61
331.10 2.607
331.20 2.605
331.30 2.603
331.40 2.6
331.50 2.598
331.60 2.596
331.70 2.593
331.80 2.591
331.90 2.589
332.00 2.586
332.10 2.584
332.20 2.582
332.30 2.579
332.40 2.577
332.50 2.575
332.60 2.573
332.70 2.57
332.80 2.568
332.90 2.566
333.00 2.563
333.10 2.561
333.20 2.559
333.30 2.557
333.40 2.554
333.50 2.552
333.60 2.55
333.70 2.548
333.80 2.545
333.90 2.543
334.00 2.541
334.10 2.539
334.20 2.536
334.30 2.534
334.40 2.532
334.50 2.53
334.60 2.527
334.70 2.525
334.80 2.523
334.90 2.521
335.00 2.518
335.10 2.516
335.20 2.514
335.30 2.512
335.40 2.51
335.50 2.507
335.60 2.505
335.70 2.503
335.80 2.501
335.90 2.498
336.00 2.496
336.10 2.494
336.20 2.492
336.30 2.49
336.40 2.487
336.50 2.485
336.60 2.483
336.70 2.481
336.80 2.479
336.90 2.477
337.00 2.474
337.10 2.472
337.20 2.47
337.30 2.468
337.40 2.466
337.50 2.463
337.60 2.461
337.70 2.459
337.80 2.457
337.90 2.455
338.00 2.453
338.10 2.451
338.20 2.448
338.30 2.446
338.40 2.444
338.50 2.442
338.60 2.44
338.70 2.438
338.80 2.436
338.90 2.433
339.00 2.431
339.10 2.429
339.20 2.427
339.30 2.425
339.40 2.423
339.50 2.421
339.60 2.419
339.70 2.416
339.80 2.414
339.90 2.412
340.00 2.41
340.10 2.408
340.20 2.406
340.30 2.404
340.40 2.402
340.50 2.4
340.60 2.398
340.70 2.395
340.80 2.393
340.90 2.391
341.00 2.389
341.10 2.387
341.20 2.385
341.30 2.383
341.40 2.381
341.50 2.379
341.60 2.377
341.70 2.375
341.80 2.373
341.90 2.371
342.00 2.369
342.10 2.366
342.20 2.364
342.30 2.362
342.40 2.36
342.50 2.358
342.60 2.356
342.70 2.354
342.80 2.352
342.90 2.35
343.00 2.348
343.10 2.346
343.20 2.344
343.30 2.342
343.40 2.34
343.50 2.338
343.60 2.336
343.70 2.334
343.80 2.332
343.90 2.33
344.00 2.328
344.10 2.326
344.20 2.324
344.30 2.322
344.40 2.32
344.50 2.318
344.60 2.316
344.70 2.314
344.80 2.312
344.90 2.31
345.00 2.308
345.10 2.306
345.20 2.304
345.30 2.302
345.40 2.3
345.50 2.298
345.60 2.296
345.70 2.294
345.80 2.292
345.90 2.29
346.00 2.288
346.10 2.286
346.20 2.284
346.30 2.282
346.40 2.28
346.50 2.278
346.60 2.276
346.70 2.274
346.80 2.272
346.90 2.27
347.00 2.268
347.10 2.267
347.20 2.265
347.30 2.263
347.40 2.261
347.50 2.259
347.60 2.257
347.70 2.255
347.80 2.253
347.90 2.251
348.00 2.249
348.10 2.247
348.20 2.245
348.30 2.243
348.40 2.241
348.50 2.24
348.60 2.238
348.70 2.236
348.80 2.234
348.90 2.232
349.00 2.23
349.10 2.228
349.20 2.226
349.30 2.224
349.40 2.222
349.50 2.22
349.60 2.219
349.70 2.217
349.80 2.215
349.90 2.213
350.00 2.211
350.10 2.209
350.20 2.207
350.30 2.205
350.40 2.204
350.50 2.202
350.60 2.2
350.70 2.198
350.80 2.196
350.90 2.194
351.00 2.192
351.10 2.19
351.20 2.189
351.30 2.187
351.40 2.185
351.50 2.183
351.60 2.181
351.70 2.179
351.80 2.177
351.90 2.176
352.00 2.174
352.10 2.172
352.20 2.17
352.30 2.168
352.40 2.166
352.50 2.165
352.60 2.163
352.70 2.161
352.80 2.159
352.90 2.157
353.00 2.155
353.10 2.154
353.20 2.152
353.30 2.15
353.40 2.148
353.50 2.146
353.60 2.145
353.70 2.143
353.80 2.141
353.90 2.139
354.00 2.137
354.10 2.136
354.20 2.134
354.30 2.132
354.40 2.13
354.50 2.128
354.60 2.127
354.70 2.125
354.80 2.123
354.90 2.121
355.00 2.119
355.10 2.118
355.20 2.116
355.30 2.114
355.40 2.112
355.50 2.111
355.60 2.109
355.70 2.107
355.80 2.105
355.90 2.103
356.00 2.102
356.10 2.1
356.20 2.098
356.30 2.096
356.40 2.095
356.50 2.093
356.60 2.091
356.70 2.089
356.80 2.088
356.90 2.086
357.00 2.084
357.10 2.082
357.20 2.081
357.30 2.079
357.40 2.077
357.50 2.075
357.60 2.074
357.70 2.072
357.80 2.07
357.90 2.069
358.00 2.067
358.10 2.065
358.20 2.063
358.30 2.062
358.40 2.06
358.50 2.058
358.60 2.057
358.70 2.055
358.80 2.053
358.90 2.051
359.00 2.05
359.10 2.048
359.20 2.046
359.30 2.045
359.40 2.043
359.50 2.041
359.60 2.039
359.70 2.038
359.80 2.036
359.90 2.034
360.00 2.033
360.10 2.031
360.20 2.029
360.30 2.028
360.40 2.026
360.50 2.024
360.60 2.023
360.70 2.021
360.80 2.019
360.90 2.018
361.00 2.016
361.10 2.014
361.20 2.013
361.30 2.011
361.40 2.009
361.50 2.008
361.60 2.006
361.70 2.004
361.80 2.003
361.90 2.001
362.00 1.999
362.10 1.998
362.20 1.996
362.30 1.994
362.40 1.993
362.50 1.991
362.60 1.989
362.70 1.988
362.80 1.986
362.90 1.984
363.00 1.983
363.10 1.981
363.20 1.98
363.30 1.978
363.40 1.976
363.50 1.975
363.60 1.973
363.70 1.971
363.80 1.97
363.90 1.968
364.00 1.967
364.10 1.965
364.20 1.963
364.30 1.962
364.40 1.96
364.50 1.958
364.60 1.957
364.70 1.955
364.80 1.954
364.90 1.952
365.00 1.95
365.10 1.949
365.20 1.947
365.30 1.946
365.40 1.944
365.50 1.942
365.60 1.941
365.70 1.939
365.80 1.938
365.90 1.936
366.00 1.935
366.10 1.933
366.20 1.931
366.30 1.929
366.40 1.927
366.50 1.925
366.60 1.924
366.70 1.922
366.80 1.92
366.90 1.918
367.00 1.916
367.10 1.915
367.20 1.913
367.30 1.911
367.40 1.909
367.50 1.907
367.60 1.906
367.70 1.904
367.80 1.902
367.90 1.9
368.00 1.898
368.10 1.896
368.20 1.895
368.30 1.893
368.40 1.891
368.50 1.889
368.60 1.887
368.70 1.885
368.80 1.883
368.90 1.881
369.00 1.88
369.10 1.878
369.20 1.876
369.30 1.874
369.40 1.872
369.50 1.87
369.60 1.868
369.70 1.867
369.80 1.865
369.90 1.863
370.00 1.861
370.10 1.859
370.20 1.858
370.30 1.856
370.40 1.854
370.50 1.852
370.60 1.851
370.70 1.849
370.80 1.847
370.90 1.845
371.00 1.844
371.10 1.842
371.20 1.84
371.30 1.838
371.40 1.837
371.50 1.835
371.60 1.833
371.70 1.831
371.80 1.83
371.90 1.828
372.00 1.826
372.10 1.825
372.20 1.823
372.30 1.821
372.40 1.82
372.50 1.818
372.60 1.817
372.70 1.815
372.80 1.814
372.90 1.812
373.00 1.811
373.10 1.809
373.20 1.808
373.30 1.806
373.40 1.805
373.50 1.803
373.60 1.802
373.70 1.8
373.80 1.798
373.90 1.797
374.00 1.795
374.10 1.794
374.20 1.792
374.30 1.791
374.40 1.789
374.50 1.788
374.60 1.786
374.70 1.785
374.80 1.783
374.90 1.782
375.00 1.78
375.10 1.779
375.20 1.777
375.30 1.776
375.40 1.774
375.50 1.773
375.60 1.771
375.70 1.77
375.80 1.768
375.90 1.767
376.00 1.765
376.10 1.764
376.20 1.762
376.30 1.761
376.40 1.759
376.50 1.758
376.60 1.756
376.70 1.755
376.80 1.753
376.90 1.752
377.00 1.75
377.10 1.749
377.20 1.748
377.30 1.747
377.40 1.746
377.50 1.745
377.60 1.744
377.70 1.743
377.80 1.742
377.90 1.741
378.00 1.74
378.10 1.739
378.20 1.738
378.30 1.737
378.40 1.735
378.50 1.734
378.60 1.733
378.70 1.732
378.80 1.73
378.90 1.729
379.00 1.728
379.10 1.727
379.20 1.725
379.30 1.724
379.40 1.723
379.50 1.722
379.60 1.72
379.70 1.719
379.80 1.718
379.90 1.717
380.00 1.715
380.10 1.715
380.20 1.715
380.30 1.714
380.40 1.714
380.50 1.713
380.60 1.713
380.70 1.713
380.80 1.712
380.90 1.712
381.00 1.712
381.10 1.711
381.20 1.71
381.30 1.709
381.40 1.708
381.50 1.707
381.60 1.706
381.70 1.705
381.80 1.703
381.90 1.702
382.00 1.7
382.10 1.698
382.20 1.697
382.30 1.694
382.40 1.692
382.50 1.69
382.60 1.687
382.70 1.685
382.80 1.683
382.90 1.681
383.00 1.678
383.10 1.676
383.20 1.674
383.30 1.671
383.40 1.669
383.50 1.667
383.60 1.667
383.70 1.668
383.80 1.67
383.90 1.671
384.00 1.673
384.10 1.674
384.20 1.676
384.30 1.677
384.40 1.678
384.50 1.68
384.60 1.681
384.70 1.682
384.80 1.683
384.90 1.683
385.00 1.684
385.10 1.684
385.20 1.684
385.30 1.684
385.40 1.684
385.50 1.684
385.60 1.683
385.70 1.683
385.80 1.682
385.90 1.681
386.00 1.679
386.10 1.678
386.20 1.676
386.30 1.674
386.40 1.672
386.50 1.67
386.60 1.667
386.70 1.664
386.80 1.662
386.90 1.658
387.00 1.655
387.10 1.651
387.20 1.648
387.30 1.644
387.40 1.64
387.50 1.635
387.60 1.631
387.70 1.626
387.80 1.621
387.90 1.616
388.00 1.611
388.10 1.606
388.20 1.6
388.30 1.595
388.40 1.59
388.50 1.585
388.60 1.579
388.70 1.575
388.80 1.571
388.90 1.568
389.00 1.571
389.10 1.574
389.20 1.578
389.30 1.582
389.40 1.587
389.50 1.592
389.60 1.597
389.70 1.602
389.80 1.607
389.90 1.612
390.00 1.616
390.10 1.621
390.20 1.625
390.30 1.63
390.40 1.634
390.50 1.637
390.60 1.641
390.70 1.645
390.80 1.648
390.90 1.651
391.00 1.654
391.10 1.656
391.20 1.658
391.30 1.66
391.40 1.662
391.50 1.664
391.60 1.665
391.70 1.666
391.80 1.667
391.90 1.667
392.00 1.667
392.10 1.667
392.20 1.667
392.30 1.666
392.40 1.665
392.50 1.664
392.60 1.663
392.70 1.661
392.80 1.659
392.90 1.657
393.00 1.654
393.10 1.651
393.20 1.648
393.30 1.644
393.40 1.641
393.50 1.636
393.60 1.632
393.70 1.627
393.80 1.622
393.90 1.617
394.00 1.611
394.10 1.605
394.20 1.599
394.30 1.593
394.40 1.586
394.50 1.578
394.60 1.571
394.70 1.563
394.80 1.555
394.90 1.547
395.00 1.538
395.10 1.529
395.20 1.519
395.30 1.51
395.40 1.5
395.50 1.49
395.60 1.479
395.70 1.469
395.80 1.458
395.90 1.446
396.00 1.435
396.10 1.423
396.20 1.411
396.30 1.399
396.40 1.387
396.50 1.374
396.60 1.362
396.70 1.349
396.80 1.336
396.90 1.323
397.00 1.31
397.10 1.321
397.20 1.332
397.30 1.344
397.40 1.356
397.50 1.368
397.60 1.38
397.70 1.391
397.80 1.402
397.90 1.414
398.00 1.425
398.10 1.435
398.20 1.446
398.30 1.456
398.40 1.466
398.50 1.476
398.60 1.486
398.70 1.495
398.80 1.505
398.90 1.514
399.00 1.522
399.10 1.531
399.20 1.539
399.30 1.547
399.40 1.555
399.50 1.563
399.60 1.57
399.70 1.577
399.80 1.584
399.90 1.59
400.00 1.597
400.10 1.603
400.20 1.609
400.30 1.614
400.40 1.62
400.50 1.625
400.60 1.63
400.70 1.634
400.80 1.639
400.90 1.643
401.00 1.647
401.10 1.65
401.20 1.654
401.30 1.657
401.40 1.66
401.50 1.663
401.60 1.665
401.70 1.667
401.80 1.669
401.90 1.671
402.00 1.673
402.10 1.674
402.20 1.675
402.30 1.676
402.40 1.677
402.50 1.677
402.60 1.677
402.70 1.677
402.80 1.677
402.90 1.676
403.00 1.676
403.10 1.674
403.20 1.673
403.30 1.672
403.40 1.67
403.50 1.668
403.60 1.666
403.70 1.664
403.80 1.661
403.90 1.659
404.00 1.655
404.10 1.652
404.20 1.649
404.30 1.645
404.40 1.641
404.50 1.637
404.60 1.632
404.70 1.627
404.80 1.623
404.90 1.617
405.00 1.612
405.10 1.606
405.20 1.6
405.30 1.594
405.40 1.588
405.50 1.581
405.60 1.574
405.70 1.567
405.80 1.56
405.90 1.552
406.00 1.544
406.10 1.536
406.20 1.528
406.30 1.519
406.40 1.51
406.50 1.501
406.60 1.492
406.70 1.482
406.80 1.472
406.90 1.462
407.00 1.452
407.10 1.441
407.20 1.43
407.30 1.419
407.40 1.408
407.50 1.396
407.60 1.384
407.70 1.372
407.80 1.36
407.90 1.347
408.00 1.335
408.10 1.322
408.20 1.308
408.30 1.295
408.40 1.281
408.50 1.267
408.60 1.253
408.70 1.239
408.80 1.224
408.90 1.209
409.00 1.194
409.10 1.179
409.20 1.163
409.30 1.147
409.40 1.131
409.50 1.115
409.60 1.098
409.70 1.081
409.80 1.064
409.90 1.048
410.00 1.032
410.10 1.022
410.20 1.017
410.30 1.026
410.40 1.038
410.50 1.053
410.60 1.069
410.70 1.084
410.80 1.099
410.90 1.114
411.00 1.129
411.10 1.144
411.20 1.158
411.30 1.172
411.40 1.186
411.50 1.2
411.60 1.213
411.70 1.226
411.80 1.239
411.90 1.251
412.00 1.263
412.10 1.275
412.20 1.287
412.30 1.299
412.40 1.31
412.50 1.321
412.60 1.332
412.70 1.343
412.80 1.353
412.90 1.364
413.00 1.374
413.10 1.384
413.20 1.393
413.30 1.403
413.40 1.412
413.50 1.421
413.60 1.43
413.70 1.438
413.80 1.447
413.90 1.455
414.00 1.463
414.10 1.471
414.20 1.478
414.30 1.485
414.40 1.493
414.50 1.5
414.60 1.507
414.70 1.513
414.80 1.52
414.90 1.526
415.00 1.532
415.10 1.538
415.20 1.544
415.30 1.55
415.40 1.555
415.50 1.56
415.60 1.565
415.70 1.57
415.80 1.575
415.90 1.58
416.00 1.584
416.10 1.589
416.20 1.593
416.30 1.597
416.40 1.601
416.50 1.605
416.60 1.608
416.70 1.612
416.80 1.615
416.90 1.619
417.00 1.622
417.10 1.625
417.20 1.628
417.30 1.631
417.40 1.633
417.50 1.636
417.60 1.638
417.70 1.641
417.80 1.643
417.90 1.645
418.00 1.647
418.10 1.649
418.20 1.651
418.30 1.653
418.40 1.654
418.50 1.656
418.60 1.657
418.70 1.658
418.80 1.66
418.90 1.661
419.00 1.662
419.10 1.663
419.20 1.664
419.30 1.665
419.40 1.665
419.50 1.666
419.60 1.666
419.70 1.667
419.80 1.667
419.90 1.668
420.00 1.668
420.10 1.668
420.20 1.668
420.30 1.668
420.40 1.668
420.50 1.668
420.60 1.668
420.70 1.667
420.80 1.667
420.90 1.667
421.00 1.666
421.10 1.665
421.20 1.665
421.30 1.664
421.40 1.663
421.50 1.662
421.60 1.661
421.70 1.66
421.80 1.659
421.90 1.658
422.00 1.657
422.10 1.656
422.20 1.654
422.30 1.653
422.40 1.651
422.50 1.65
422.60 1.648
422.70 1.647
422.80 1.645
422.90 1.643
423.00 1.641
423.10 1.639
423.20 1.637
423.30 1.635
423.40 1.633
423.50 1.63
423.60 1.628
423.70 1.626
423.80 1.623
423.90 1.62
424.00 1.618
424.10 1.615
424.20 1.612
424.30 1.609
424.40 1.606
424.50 1.603
424.60 1.6
424.70 1.597
424.80 1.593
424.90 1.59
425.00 1.587
425.10 1.583
425.20 1.579
425.30 1.576
425.40 1.572
425.50 1.568
425.60 1.564
425.70 1.56
425.80 1.555
425.90 1.551
426.00 1.547
426.10 1.542
426.20 1.538
426.30 1.533
426.40 1.528
426.50 1.523
426.60 1.518
426.70 1.513
426.80 1.508
426.90 1.502
427.00 1.497
427.10 1.491
427.20 1.486
427.30 1.48
427.40 1.474
427.50 1.468
427.60 1.462
427.70 1.455
427.80 1.449
427.90 1.442
428.00 1.436
428.10 1.429
428.20 1.422
428.30 1.415
428.40 1.408
428.50 1.401
428.60 1.393
428.70 1.386
428.80 1.378
428.90 1.37
429.00 1.363
429.10 1.355
429.20 1.346
429.30 1.338
429.40 1.33
429.50 1.321
429.60 1.313
429.70 1.304
429.80 1.295
429.90 1.286
430.00 1.277
430.10 1.268
430.20 1.258
430.30 1.249
430.40 1.239
430.50 1.229
430.60 1.219
430.70 1.209
430.80 1.199
430.90 1.189
431.00 1.178
431.10 1.167
431.20 1.157
431.30 1.146
431.40 1.135
431.50 1.124
431.60 1.112
431.70 1.101
431.80 1.089
431.90 1.077
432.00 1.065
432.10 1.053
432.20 1.041
432.30 1.028
432.40 1.016
432.50 1.003
432.60 0.9895
432.70 0.9762
432.80 0.9626
432.90 0.9487
433.00 0.9347
433.10 0.9201
433.20 0.9052
433.30 0.8898
433.40 0.8737
433.50 0.8568
433.60 0.8392
433.70 0.8194
433.80 0.7972
433.90 0.7724
434.00 0.731
434.10 0.7313
434.20 0.7734
434.30 0.7968
434.40 0.8178
434.50 0.8365
434.60 0.8529
434.70 0.8687
434.80 0.8837
434.90 0.8978
435.00 0.9116
435.10 0.9249
435.20 0.9377
435.30 0.9503
435.40 0.9626
435.50 0.9745
435.60 0.9862
435.70 0.9977
435.80 1.009
435.90 1.02
436.00 1.031
436.10 1.042
436.20 1.052
436.30 1.062
436.40 1.072
436.50 1.082
436.60 1.092
436.70 1.102
436.80 1.111
436.90 1.12
437.00 1.129
437.10 1.138
437.20 1.147
437.30 1.155
437.40 1.164
437.50 1.172
437.60 1.18
437.70 1.188
437.80 1.196
437.90 1.204
438.00 1.212
438.10 1.219
438.20 1.226
438.30 1.233
438.40 1.24
438.50 1.247
438.60 1.254
438.70 1.261
438.80 1.267
438.90 1.273
439.00 1.28
439.10 1.286
439.20 1.292
439.30 1.297
439.40 1.303
439.50 1.309
439.60 1.314
439.70 1.319
439.80 1.325
439.90 1.33
440.00 1.335
440.10 1.339
440.20 1.344
440.30 1.349
440.40 1.353
440.50 1.358
440.60 1.362
440.70 1.366
440.80 1.37
440.90 1.374
441.00 1.378
441.10 1.382
441.20 1.385
441.30 1.389
441.40 1.392
441.50 1.395
441.60 1.399
441.70 1.402
441.80 1.405
441.90 1.408
442.00 1.41
442.10 1.413
442.20 1.416
442.30 1.418
442.40 1.421
442.50 1.423
442.60 1.426
442.70 1.428
442.80 1.43
442.90 1.432
443.00 1.434
443.10 1.436
443.20 1.438
443.30 1.44
443.40 1.442
443.50 1.443
443.60 1.445
443.70 1.447
443.80 1.448
443.90 1.449
444.00 1.451
444.10 1.452
444.20 1.453
444.30 1.455
444.40 1.456
444.50 1.457
444.60 1.458
444.70 1.459
444.80 1.46
444.90 1.461
445.00 1.462
445.10 1.462
445.20 1.463
445.30 1.464
445.40 1.465
445.50 1.465
445.60 1.466
445.70 1.466
445.80 1.467
445.90 1.468
446.00 1.468
446.10 1.468
446.20 1.469
446.30 1.469
446.40 1.469
446.50 1.47
446.60 1.47
446.70 1.47
446.80 1.47
446.90 1.471
447.00 1.471
447.10 1.471
447.20 1.471
447.30 1.471
447.40 1.471
447.50 1.471
447.60 1.471
447.70 1.471
447.80 1.471
447.90 1.471
448.00 1.471
448.10 1.47
448.20 1.47
448.30 1.47
448.40 1.47
448.50 1.47
448.60 1.47
448.70 1.469
448.80 1.469
448.90 1.469
449.00 1.468
449.10 1.468
449.20 1.468
449.30 1.467
449.40 1.467
449.50 1.467
449.60 1.466
449.70 1.466
449.80 1.465
449.90 1.465
450.00 1.464
450.10 1.464
450.20 1.463
450.30 1.463
450.40 1.462
450.50 1.462
450.60 1.461
450.70 1.461
450.80 1.46
450.90 1.46
451.00 1.459
451.10 1.458
451.20 1.458
451.30 1.457
451.40 1.457
451.50 1.456
451.60 1.455
451.70 1.455
451.80 1.454
451.90 1.453
452.00 1.453
452.10 1.452
452.20 1.451
452.30 1.45
452.40 1.45
452.50 1.449
452.60 1.448
452.70 1.447
452.80 1.447
452.90 1.446
453.00 1.445
453.10 1.444
453.20 1.444
453.30 1.443
453.40 1.442
453.50 1.441
453.60 1.44
453.70 1.44
453.80 1.439
453.90 1.438
454.00 1.437
454.10 1.436
454.20 1.435
454.30 1.435
454.40 1.434
454.50 1.433
454.60 1.432
454.70 1.431
454.80 1.43
454.90 1.429
455.00 1.428
455.10 1.427
455.20 1.426
455.30 1.426
455.40 1.425
455.50 1.424
455.60 1.423
455.70 1.422
455.80 1.421
455.90 1.42
456.00 1.419
456.10 1.418
456.20 1.417
456.30 1.416
456.40 1.415
456.50 1.414
456.60 1.413
456.70 1.412
456.80 1.411
456.90 1.41
457.00 1.409
457.10 1.408
457.20 1.407
457.30 1.406
457.40 1.405
457.50 1.404
457.60 1.403
457.70 1.402
457.80 1.401
457.90 1.4
458.00 1.399
458.10 1.398
458.20 1.397
458.30 1.396
458.40 1.395
458.50 1.394
458.60 1.393
458.70 1.392
458.80 1.391
458.90 1.389
459.00 1.388
459.10 1.387
459.20 1.386
459.30 1.385
459.40 1.384
459.50 1.383
459.60 1.382
459.70 1.381
459.80 1.38
459.90 1.379
460.00 1.377
460.10 1.376
460.20 1.375
460.30 1.374
460.40 1.373
460.50 1.372
460.60 1.371
460.70 1.37
460.80 1.368
460.90 1.367
461.00 1.366
461.10 1.365
461.20 1.364
461.30 1.363
461.40 1.362
461.50 1.36
461.60 1.359
461.70 1.358
461.80 1.357
461.90 1.356
462.00 1.355
462.10 1.353
462.20 1.352
462.30 1.351
462.40 1.35
462.50 1.349
462.60 1.347
462.70 1.346
462.80 1.345
462.90 1.344
463.00 1.343
463.10 1.341
463.20 1.34
463.30 1.339
463.40 1.338
463.50 1.336
463.60 1.335
463.70 1.334
463.80 1.333
463.90 1.331
464.00 1.33
464.10 1.329
464.20 1.328
464.30 1.326
464.40 1.325
464.50 1.324
464.60 1.323
464.70 1.321
464.80 1.32
464.90 1.319
465.00 1.317
465.10 1.316
465.20 1.315
465.30 1.313
465.40 1.312
465.50 1.311
465.60 1.309
465.70 1.308
465.80 1.307
465.90 1.305
466.00 1.304
466.10 1.303
466.20 1.301
466.30 1.3
466.40 1.299
466.50 1.297
466.60 1.296
466.70 1.295
466.80 1.293
466.90 1.292
467.00 1.29
467.10 1.289
467.20 1.288
467.30 1.286
467.40 1.285
467.50 1.283
467.60 1.282
467.70 1.28
467.80 1.279
467.90 1.277
468.00 1.276
468.10 1.275
468.20 1.273
468.30 1.271
468.40 1.27
468.50 1.268
468.60 1.267
468.70 1.265
468.80 1.264
468.90 1.262
469.00 1.261
469.10 1.259
469.20 1.258
469.30 1.256
469.40 1.254
469.50 1.253
469.60 1.251
469.70 1.25
469.80 1.248
469.90 1.246
470.00 1.245
470.10 1.243
470.20 1.242
470.30 1.24
470.40 1.238
470.50 1.236
470.60 1.235
470.70 1.233
470.80 1.231
470.90 1.23
471.00 1.228
471.10 1.226
471.20 1.224
471.30 1.222
471.40 1.221
471.50 1.219
471.60 1.217
471.70 1.215
471.80 1.213
471.90 1.211
472.00 1.21
472.10 1.208
472.20 1.206
472.30 1.204
472.40 1.202
472.50 1.2
472.60 1.198
472.70 1.196
472.80 1.194
472.90 1.192
473.00 1.19
473.10 1.188
473.20 1.186
473.30 1.184
473.40 1.181
473.50 1.179
473.60 1.177
473.70 1.175
473.80 1.173
473.90 1.171
474.00 1.168
474.10 1.166
474.20 1.164
474.30 1.161
474.40 1.159
474.50 1.157
474.60 1.154
474.70 1.152
474.80 1.15
474.90 1.147
475.00 1.145
475.10 1.142
475.20 1.14
475.30 1.137
475.40 1.135
475.50 1.132
475.60 1.129
475.70 1.127
475.80 1.124
475.90 1.121
476.00 1.119
476.10 1.116
476.20 1.113
476.30 1.11
476.40 1.107
476.50 1.104
476.60 1.101
476.70 1.098
476.80 1.095
476.90 1.093
477.00 1.09
477.10 1.087
477.20 1.083
477.30 1.08
477.40 1.077
477.50 1.074
477.60 1.07
477.70 1.067
477.80 1.064
477.90 1.06
478.00 1.057
478.10 1.054
478.20 1.05
478.30 1.046
478.40 1.043
478.50 1.039
478.60 1.035
478.70 1.031
478.80 1.028
478.90 1.024
479.00 1.02
479.10 1.016
479.20 1.012
479.30 1.008
479.40 1.004
479.50 0.9997
479.60 0.9955
479.70 0.9913
479.80 0.987
479.90 0.9828
480.00 0.9786
480.10 0.9744
480.20 0.9698
480.30 0.965
480.40 0.9602
480.50 0.9555
480.60 0.9507
480.70 0.9459
480.80 0.9412
480.90 0.9364
481.00 0.9316
481.10 0.9269
481.20 0.9217
481.30 0.9163
481.40 0.9109
481.50 0.9054
481.60 0.9
481.70 0.8947
481.80 0.8893
481.90 0.8839
482.00 0.8785
482.10 0.8731
482.20 0.8672
482.30 0.8611
482.40 0.855
482.50 0.8489
482.60 0.8428
482.70 0.8367
482.80 0.8306
482.90 0.8245
483.00 0.8184
483.10 0.8124
483.20 0.8057
483.30 0.7987
483.40 0.7918
483.50 0.7848
483.60 0.7779
483.70 0.7709
483.80 0.764
483.90 0.7571
484.00 0.7502
484.10 0.7432
484.20 0.7357
484.30 0.7279
484.40 0.7201
484.50 0.7124
484.60 0.7046
484.70 0.6961
484.80 0.6874
484.90 0.6786
485.00 0.6699
485.10 0.6612
485.20 0.6516
485.30 0.6416
485.40 0.6307
485.50 0.6194
485.60 0.6063
485.70 0.5924
485.80 0.5739
485.90 0.5533
486.00 0.5247
486.10 0.4822
486.20 0.4958
486.30 0.5357
486.40 0.5586
486.50 0.5788
486.60 0.5943
486.70 0.6076
486.80 0.619
486.90 0.6295
487.00 0.6392
487.10 0.6483
487.20 0.6566
487.30 0.6646
487.40 0.6725
487.50 0.6804
487.60 0.6883
487.70 0.6954
487.80 0.7023
487.90 0.7091
488.00 0.7159
488.10 0.7228
488.20 0.729
488.30 0.7348
488.40 0.7407
488.50 0.7466
488.60 0.7524
488.70 0.7583
488.80 0.7641
488.90 0.77
489.00 0.7758
489.10 0.7816
489.20 0.7868
489.30 0.7917
489.40 0.7966
489.50 0.8014
489.60 0.8063
489.70 0.8112
489.80 0.816
489.90 0.8209
490.00 0.8257
490.10 0.8305
490.20 0.8348
490.30 0.8389
490.40 0.8429
490.50 0.8469
490.60 0.851
490.70 0.855
490.80 0.859
490.90 0.863
491.00 0.867
491.10 0.8711
491.20 0.8746
491.30 0.8779
491.40 0.8812
491.50 0.8845
491.60 0.8878
491.70 0.891
491.80 0.8943
491.90 0.8976
492.00 0.9009
492.10 0.9042
492.20 0.907
492.30 0.9096
492.40 0.9123
492.50 0.9149
492.60 0.9176
492.70 0.9202
492.80 0.9228
492.90 0.9255
493.00 0.9281
493.10 0.9307
493.20 0.933
493.30 0.9351
493.40 0.9372
493.50 0.9392
493.60 0.9413
493.70 0.9434
493.80 0.9455
493.90 0.9475
494.00 0.9496
494.10 0.9517
494.20 0.9534
494.30 0.955
494.40 0.9566
494.50 0.9582
494.60 0.9598
494.70 0.9614
494.80 0.963
494.90 0.9646
495.00 0.9662
495.10 0.9678
495.20 0.9691
495.30 0.9703
495.40 0.9715
495.50 0.9727
495.60 0.9739
495.70 0.9751
495.80 0.9763
495.90 0.9775
496.00 0.9787
496.10 0.9799
496.20 0.9808
496.30 0.9817
496.40 0.9826
496.50 0.9834
496.60 0.9843
496.70 0.9852
496.80 0.986
496.90 0.9869
497.00 0.9877
497.10 0.9886
497.20 0.9893
497.30 0.9899
497.40 0.9905
497.50 0.9911
497.60 0.9916
497.70 0.9922
497.80 0.9928
497.90 0.9934
498.00 0.994
498.10 0.9946
498.20 0.995
498.30 0.9954
498.40 0.9957
498.50 0.9961
498.60 0.9965
498.70 0.9968
498.80 0.9972
498.90 0.9976
499.00 0.9979
499.10 0.9983
499.20 0.9985
499.30 0.9987
499.40 0.9989
499.50 0.9991
499.60 0.9993
499.70 0.9995
499.80 0.9996
499.90 0.9998
500.00 1
500.10 1
500.20 1
500.30 1
500.40 1
500.50 1
500.60 1
500.70 1
500.80 1
500.90 1.001
501.00 1.001
501.10 1.001
501.20 1.001
501.30 1
501.40 1
501.50 1
501.60 1
501.70 1
501.80 1
501.90 0.9999
502.00 0.9998
502.10 0.9998
502.20 0.9996
502.30 0.9994
502.40 0.9992
502.50 0.999
502.60 0.9989
502.70 0.9987
502.80 0.9985
502.90 0.9983
503.00 0.9981
503.10 0.9979
503.20 0.9977
503.30 0.9974
503.40 0.9972
503.50 0.9969
503.60 0.9967
503.70 0.9964
503.80 0.9961
503.90 0.9959
504.00 0.9956
504.10 0.9953
504.20 0.995
504.30 0.9947
504.40 0.9944
504.50 0.9941
504.60 0.9937
504.70 0.9934
504.80 0.9931
504.90 0.9927
505.00 0.9924
505.10 0.9921
505.20 0.9917
505.30 0.9914
505.40 0.991
505.50 0.9906
505.60 0.9902
505.70 0.9898
505.80 0.9895
505.90 0.9891
506.00 0.9887
506.10 0.9883
506.20 0.9879
506.30 0.9875
506.40 0.9871
506.50 0.9866
506.60 0.9862
506.70 0.9858
506.80 0.9854
506.90 0.985
507.00 0.9845
507.10 0.9841
507.20 0.9837
507.30 0.9832
507.40 0.9828
507.50 0.9823
507.60 0.9819
507.70 0.9814
507.80 0.9809
507.90 0.9805
508.00 0.98
508.10 0.9796
508.20 0.9791
508.30 0.9786
508.40 0.9781
508.50 0.9777
508.60 0.9772
508.70 0.9767
508.80 0.9762
508.90 0.9757
509.00 0.9752
509.10 0.9748
509.20 0.9743
509.30 0.9738
509.40 0.9732
509.50 0.9727
509.60 0.9722
509.70 0.9717
509.80 0.9712
509.90 0.9707
510.00 0.9702
510.10 0.9697
510.20 0.9692
510.30 0.9687
510.40 0.9681
510.50 0.9676
510.60 0.9671
510.70 0.9666
510.80 0.9661
510.90 0.9655
511.00 0.965
511.10 0.9645
511.20 0.964
511.30 0.9634
511.40 0.9629
511.50 0.9623
511.60 0.9618
511.70 0.9613
511.80 0.9607
511.90 0.9602
512.00 0.9597
512.10 0.9591
512.20 0.9586
512.30 0.958
512.40 0.9575
512.50 0.9569
512.60 0.9564
512.70 0.9558
512.80 0.9553
512.90 0.9547
513.00 0.9542
513.10 0.9536
513.20 0.9531
513.30 0.9525
513.40 0.952
513.50 0.9514
513.60 0.9508
513.70 0.9503
513.80 0.9497
513.90 0.9492
514.00 0.9486
514.10 0.948
514.20 0.9475
514.30 0.9469
514.40 0.9464
514.50 0.9458
514.60 0.9452
514.70 0.9447
514.80 0.9441
514.90 0.9435
515.00 0.943
515.10 0.9424
515.20 0.9418
515.30 0.9413
515.40 0.9407
515.50 0.9401
515.60 0.9396
515.70 0.939
515.80 0.9384
515.90 0.9378
516.00 0.9373
516.10 0.9367
516.20 0.9361
516.30 0.9356
516.40 0.935
516.50 0.9344
516.60 0.9338
516.70 0.9333
516.80 0.9327
516.90 0.9321
517.00 0.9315
517.10 0.931
517.20 0.9304
517.30 0.9298
517.40 0.9292
517.50 0.9287
517.60 0.9281
517.70 0.9275
517.80 0.9269
517.90 0.9264
518.00 0.9258
518.10 0.9252
518.20 0.9246
518.30 0.9241
518.40 0.9235
518.50 0.9229
518.60 0.9223
518.70 0.9217
518.80 0.9212
518.90 0.9206
519.00 0.92
519.10 0.9194
519.20 0.9188
519.30 0.9183
519.40 0.9177
519.50 0.9171
519.60 0.9165
519.70 0.916
519.80 0.9154
519.90 0.9148
520.00 0.9142
520.10 0.9136
520.20 0.9131
520.30 0.9125
520.40 0.9119
520.50 0.9113
520.60 0.9107
520.70 0.9102
520.80 0.9096
520.90 0.909
521.00 0.9084
521.10 0.9079
521.20 0.9073
521.30 0.9067
521.40 0.9061
521.50 0.9055
521.60 0.905
521.70 0.9044
521.80 0.9038
521.90 0.9032
522.00 0.9026
522.10 0.9021
522.20 0.9015
522.30 0.9009
522.40 0.9003
522.50 0.8998
522.60 0.8992
522.70 0.8986
522.80 0.898
522.90 0.8975
523.00 0.8969
523.10 0.8963
523.20 0.8957
523.30 0.8952
523.40 0.8946
523.50 0.894
523.60 0.8934
523.70 0.8928
523.80 0.8923
523.90 0.8917
524.00 0.8911
524.10 0.8906
524.20 0.89
524.30 0.8894
524.40 0.8888
524.50 0.8883
524.60 0.8877
524.70 0.8871
524.80 0.8865
524.90 0.886
525.00 0.8854
525.10 0.8848
525.20 0.8842
525.30 0.8837
525.40 0.8831
525.50 0.8825
525.60 0.882
525.70 0.8814
525.80 0.8808
525.90 0.8802
526.00 0.8797
526.10 0.8791
526.20 0.8785
526.30 0.878
526.40 0.8774
526.50 0.8768
526.60 0.8763
526.70 0.8757
526.80 0.8751
526.90 0.8745
527.00 0.874
527.10 0.8734
527.20 0.8728
527.30 0.8723
527.40 0.8717
527.50 0.8711
527.60 0.8706
527.70 0.87
527.80 0.8694
527.90 0.8689
528.00 0.8683
528.10 0.8678
528.20 0.8672
528.30 0.8666
528.40 0.8661
528.50 0.8655
528.60 0.8649
528.70 0.8644
528.80 0.8638
528.90 0.8632
529.00 0.8627
529.10 0.8621
529.20 0.8616
529.30 0.861
529.40 0.8604
529.50 0.8599
529.60 0.8593
529.70 0.8588
529.80 0.8582
529.90 0.8576
530.00 0.8571
530.10 0.8565
530.20 0.856
530.30 0.8554
530.40 0.8548
530.50 0.8543
530.60 0.8537
530.70 0.8532
530.80 0.8526
530.90 0.8521
531.00 0.8515
531.10 0.8509
531.20 0.8504
531.30 0.8498
531.40 0.8493
531.50 0.8487
531.60 0.8482
531.70 0.8476
531.80 0.8471
531.90 0.8465
532.00 0.846
532.10 0.8454
532.20 0.8449
532.30 0.8443
532.40 0.8438
532.50 0.8432
532.60 0.8427
532.70 0.8421
532.80 0.8416
532.90 0.841
533.00 0.8405
533.10 0.8399
533.20 0.8394
533.30 0.8388
533.40 0.8383
533.50 0.8377
533.60 0.8372
533.70 0.8366
533.80 0.8361
533.90 0.8355
534.00 0.835
534.10 0.8344
534.20 0.8339
534.30 0.8334
534.40 0.8328
534.50 0.8323
534.60 0.8317
534.70 0.8312
534.80 0.8306
534.90 0.8301
535.00 0.8296
535.10 0.829
535.20 0.8285
535.30 0.8279
535.40 0.8274
535.50 0.8269
535.60 0.8263
535.70 0.8258
535.80 0.8252
535.90 0.8247
536.00 0.8242
536.10 0.8236
536.20 0.8231
536.30 0.8225
536.40 0.822
536.50 0.8215
536.60 0.8209
536.70 0.8204
536.80 0.8199
536.90 0.8193
537.00 0.8188
537.10 0.8183
537.20 0.8177
537.30 0.8172
537.40 0.8167
537.50 0.8161
537.60 0.8156
537.70 0.8151
537.80 0.8145
537.90 0.814
538.00 0.8135
538.10 0.8129
538.20 0.8124
538.30 0.8119
538.40 0.8114
538.50 0.8108
538.60 0.8103
538.70 0.8098
538.80 0.8092
538.90 0.8087
539.00 0.8082
539.10 0.8077
539.20 0.8071
539.30 0.8066
539.40 0.8061
539.50 0.8056
539.60 0.805
539.70 0.8045
539.80 0.804
539.90 0.8035
540.00 0.8029
540.10 0.8024
540.20 0.8019
540.30 0.8014
540.40 0.8008
540.50 0.8003
540.60 0.7998
540.70 0.7993
540.80 0.7988
540.90 0.7982
541.00 0.7977
541.10 0.7972
541.20 0.7967
541.30 0.7962
541.40 0.7956
541.50 0.7951
541.60 0.7946
541.70 0.7941
541.80 0.7936
541.90 0.7931
542.00 0.7925
542.10 0.792
542.20 0.7915
542.30 0.791
542.40 0.7905
542.50 0.79
542.60 0.7895
542.70 0.7889
542.80 0.7884
542.90 0.7879
543.00 0.7874
543.10 0.7869
543.20 0.7864
543.30 0.7859
543.40 0.7854
543.50 0.7849
543.60 0.7843
543.70 0.7838
543.80 0.7833
543.90 0.7828
544.00 0.7823
544.10 0.7818
544.20 0.7813
544.30 0.7808
544.40 0.7803
544.50 0.7798
544.60 0.7793
544.70 0.7788
544.80 0.7783
544.90 0.7778
545.00 0.7773
545.10 0.7767
545.20 0.7762
545.30 0.7757
545.40 0.7752
545.50 0.7747
545.60 0.7742
545.70 0.7737
545.80 0.7732
545.90 0.7727
546.00 0.7722
546.10 0.7717
546.20 0.7712
546.30 0.7707
546.40 0.7702
546.50 0.7697
546.60 0.7692
546.70 0.7687
546.80 0.7682
546.90 0.7677
547.00 0.7672
547.10 0.7667
547.20 0.7663
547.30 0.7658
547.40 0.7653
547.50 0.7648
547.60 0.7643
547.70 0.7638
547.80 0.7633
547.90 0.7628
548.00 0.7623
548.10 0.7618
548.20 0.7613
548.30 0.7608
548.40 0.7603
548.50 0.7598
548.60 0.7593
548.70 0.7589
548.80 0.7584
548.90 0.7579
549.00 0.7574
549.10 0.7569
549.20 0.7564
549.30 0.7559
549.40 0.7554
549.50 0.7549
549.60 0.7545
549.70 0.754
549.80 0.7535
549.90 0.753
550.00 0.7525
550.10 0.752
550.20 0.7515
550.30 0.7511
550.40 0.7506
550.50 0.7501
550.60 0.7496
550.70 0.7491
550.80 0.7486
550.90 0.7482
551.00 0.7477
551.10 0.7472
551.20 0.7467
551.30 0.7462
551.40 0.7458
551.50 0.7453
551.60 0.7448
551.70 0.7443
551.80 0.7438
551.90 0.7434
552.00 0.7429
552.10 0.7424
552.20 0.7419
552.30 0.7414
552.40 0.741
552.50 0.7405
552.60 0.74
552.70 0.7395
552.80 0.7391
552.90 0.7386
553.00 0.7381
553.10 0.7376
553.20 0.7372
553.30 0.7367
553.40 0.7362
553.50 0.7357
553.60 0.7353
553.70 0.7348
553.80 0.7343
553.90 0.7339
554.00 0.7334
554.10 0.7329
554.20 0.7324
554.30 0.732
554.40 0.7315
554.50 0.731
554.60 0.7306
554.70 0.7301
554.80 0.7296
554.90 0.7292
555.00 0.7287
555.10 0.7282
555.20 0.7278
555.30 0.7273
555.40 0.7268
555.50 0.7264
555.60 0.7259
555.70 0.7254
555.80 0.725
555.90 0.7245
556.00 0.724
556.10 0.7236
556.20 0.7231
556.30 0.7226
556.40 0.7222
556.50 0.7217
556.60 0.7213
556.70 0.7208
556.80 0.7203
556.90 0.7199
557.00 0.7194
557.10 0.719
557.20 0.7185
557.30 0.718
557.40 0.7176
557.50 0.7171
557.60 0.7167
557.70 0.7162
557.80 0.7157
557.90 0.7153
558.00 0.7148
558.10 0.7144
558.20 0.7139
558.30 0.7135
558.40 0.713
558.50 0.7126
558.60 0.7121
558.70 0.7116
558.80 0.7112
558.90 0.7107
559.00 0.7103
559.10 0.7098
559.20 0.7094
559.30 0.7089
559.40 0.7085
559.50 0.708
559.60 0.7076
559.70 0.7071
559.80 0.7067
559.90 0.7062
560.00 0.7058
560.10 0.7053
560.20 0.7049
560.30 0.7044
560.40 0.704
560.50 0.7035
560.60 0.7031
560.70 0.7026
560.80 0.7022
560.90 0.7017
561.00 0.7013
561.10 0.7008
561.20 0.7004
561.30 0.7
561.40 0.6995
561.50 0.6991
561.60 0.6986
561.70 0.6982
561.80 0.6977
561.90 0.6973
562.00 0.6969
562.10 0.6964
562.20 0.696
562.30 0.6955
562.40 0.6951
562.50 0.6946
562.60 0.6942
562.70 0.6938
562.80 0.6933
562.90 0.6929
563.00 0.6924
563.10 0.692
563.20 0.6916
563.30 0.6911
563.40 0.6907
563.50 0.6902
563.60 0.6898
563.70 0.6894
563.80 0.6889
563.90 0.6885
564.00 0.6881
564.10 0.6876
564.20 0.6872
564.30 0.6868
564.40 0.6863
564.50 0.6859
564.60 0.6855
564.70 0.685
564.80 0.6846
564.90 0.6842
565.00 0.6837
565.10 0.6833
565.20 0.6829
565.30 0.6824
565.40 0.682
565.50 0.6816
565.60 0.6811
565.70 0.6807
565.80 0.6803
565.90 0.6798
566.00 0.6794
566.10 0.679
566.20 0.6785
566.30 0.6781
566.40 0.6777
566.50 0.6773
566.60 0.6768
566.70 0.6764
566.80 0.676
566.90 0.6756
567.00 0.6751
567.10 0.6747
567.20 0.6743
567.30 0.6739
567.40 0.6734
567.50 0.673
567.60 0.6726
567.70 0.6722
567.80 0.6717
567.90 0.6713
568.00 0.6709
568.10 0.6705
568.20 0.67
568.30 0.6696
568.40 0.6692
568.50 0.6688
568.60 0.6684
568.70 0.6679
568.80 0.6675
568.90 0.6671
569.00 0.6667
569.10 0.6662
569.20 0.6658
569.30 0.6654
569.40 0.665
569.50 0.6646
569.60 0.6642
569.70 0.6637
569.80 0.6633
569.90 0.6629
570.00 0.6625
570.10 0.6621
570.20 0.6617
570.30 0.6612
570.40 0.6608
570.50 0.6604
570.60 0.66
570.70 0.6596
570.80 0.6592
570.90 0.6588
571.00 0.6583
571.10 0.6579
571.20 0.6575
571.30 0.6571
571.40 0.6567
571.50 0.6563
571.60 0.6559
571.70 0.6555
571.80 0.655
571.90 0.6546
572.00 0.6542
572.10 0.6538
572.20 0.6534
572.30 0.653
572.40 0.6526
572.50 0.6522
572.60 0.6518
572.70 0.6514
572.80 0.651
572.90 0.6505
573.00 0.6501
573.10 0.6497
573.20 0.6493
573.30 0.6489
573.40 0.6485
573.50 0.6481
573.60 0.6477
573.70 0.6473
573.80 0.6469
573.90 0.6465
574.00 0.6461
574.10 0.6457
574.20 0.6453
574.30 0.6449
574.40 0.6445
574.50 0.6441
574.60 0.6437
574.70 0.6433
574.80 0.6429
574.90 0.6425
575.00 0.6421
575.10 0.6417
575.20 0.6413
575.30 0.6409
575.40 0.6405
575.50 0.6401
575.60 0.6397
575.70 0.6393
575.80 0.6389
575.90 0.6385
576.00 0.6381
576.10 0.6377
576.20 0.6373
576.30 0.6369
576.40 0.6365
576.50 0.6361
576.60 0.6357
576.70 0.6353
576.80 0.6349
576.90 0.6345
577.00 0.6341
577.10 0.6337
577.20 0.6333
577.30 0.6329
577.40 0.6325
577.50 0.6321
577.60 0.6317
577.70 0.6313
577.80 0.6309
577.90 0.6306
578.00 0.6302
578.10 0.6298
578.20 0.6294
578.30 0.629
578.40 0.6286
578.50 0.6282
578.60 0.6278
578.70 0.6274
578.80 0.627
578.90 0.6266
579.00 0.6263
579.10 0.6259
579.20 0.6255
579.30 0.6251
579.40 0.6247
579.50 0.6243
579.60 0.6239
579.70 0.6235
579.80 0.6231
579.90 0.6228
580.00 0.6224
580.10 0.622
580.20 0.6216
580.30 0.6212
580.40 0.6208
580.50 0.6204
580.60 0.6201
580.70 0.6197
580.80 0.6193
580.90 0.6189
581.00 0.6185
581.10 0.6181
581.20 0.6178
581.30 0.6174
581.40 0.617
581.50 0.6166
581.60 0.6162
581.70 0.6159
581.80 0.6155
581.90 0.6151
582.00 0.6147
582.10 0.6143
582.20 0.6139
582.30 0.6136
582.40 0.6132
582.50 0.6128
582.60 0.6124
582.70 0.6121
582.80 0.6117
582.90 0.6113
583.00 0.6109
583.10 0.6105
583.20 0.6102
583.30 0.6098
583.40 0.6094
583.50 0.609
583.60 0.6087
583.70 0.6083
583.80 0.6079
583.90 0.6075
584.00 0.6072
584.10 0.6068
584.20 0.6064
584.30 0.606
584.40 0.6057
584.50 0.6053
584.60 0.6049
584.70 0.6045
584.80 0.6042
584.90 0.6038
585.00 0.6034
585.10 0.603
585.20 0.6027
585.30 0.6023
585.40 0.6019
585.50 0.6016
585.60 0.6012
585.70 0.6008
585.80 0.6004
585.90 0.6001
586.00 0.5997
586.10 0.5993
586.20 0.599
586.30 0.5986
586.40 0.5982
586.50 0.5979
586.60 0.5975
586.70 0.5971
586.80 0.5968
586.90 0.5964
587.00 0.596
587.10 0.5957
587.20 0.5953
587.30 0.5949
587.40 0.5946
587.50 0.5942
587.60 0.5938
587.70 0.5935
587.80 0.5931
587.90 0.5927
588.00 0.5924
588.10 0.592
588.20 0.5916
588.30 0.5913
588.40 0.5909
588.50 0.5905
588.60 0.5902
588.70 0.5898
588.80 0.5895
588.90 0.5891
589.00 0.5887
589.10 0.5884
589.20 0.588
589.30 0.5877
589.40 0.5873
589.50 0.5869
589.60 0.5866
589.70 0.5862
589.80 0.5859
589.90 0.5855
590.00 0.5851
590.10 0.5848
590.20 0.5844
590.30 0.5841
590.40 0.5837
590.50 0.5833
590.60 0.583
590.70 0.5826
590.80 0.5823
590.90 0.5819
591.00 0.5816
591.10 0.5812
591.20 0.5808
591.30 0.5805
591.40 0.5801
591.50 0.5798
591.60 0.5794
591.70 0.5791
591.80 0.5787
591.90 0.5784
592.00 0.578
592.10 0.5776
592.20 0.5773
592.30 0.5769
592.40 0.5766
592.50 0.5762
592.60 0.5759
592.70 0.5755
592.80 0.5752
592.90 0.5748
593.00 0.5745
593.10 0.5741
593.20 0.5738
593.30 0.5734
593.40 0.5731
593.50 0.5727
593.60 0.5724
593.70 0.572
593.80 0.5717
593.90 0.5713
594.00 0.571
594.10 0.5706
594.20 0.5703
594.30 0.5699
594.40 0.5696
594.50 0.5692
594.60 0.5689
594.70 0.5685
594.80 0.5682
594.90 0.5678
595.00 0.5675
595.10 0.5672
595.20 0.5668
595.30 0.5665
595.40 0.5661
595.50 0.5658
595.60 0.5654
595.70 0.5651
595.80 0.5647
595.90 0.5644
596.00 0.564
596.10 0.5637
596.20 0.5634
596.30 0.563
596.40 0.5627
596.50 0.5623
596.60 0.562
596.70 0.5616
596.80 0.5613
596.90 0.561
597.00 0.5606
597.10 0.5603
597.20 0.5599
597.30 0.5596
597.40 0.5592
597.50 0.5589
597.60 0.5586
597.70 0.5582
597.80 0.5579
597.90 0.5575
598.00 0.5572
598.10 0.5569
598.20 0.5565
598.30 0.5562
598.40 0.5558
598.50 0.5555
598.60 0.5552
598.70 0.5548
598.80 0.5545
598.90 0.5541
599.00 0.5538
599.10 0.5535
599.20 0.5531
599.30 0.5528
599.40 0.5525
599.50 0.5521
599.60 0.5518
599.70 0.5515
599.80 0.5511
599.90 0.5508
600.00 0.5504
600.10 0.5501
600.20 0.5498
600.30 0.5494
600.40 0.5491
600.50 0.5488
600.60 0.5484
600.70 0.5481
600.80 0.5478
600.90 0.5474
601.00 0.5471
601.10 0.5468
601.20 0.5464
601.30 0.5461
601.40 0.5458
601.50 0.5454
601.60 0.5451
601.70 0.5448
601.80 0.5444
601.90 0.5441
602.00 0.5438
602.10 0.5435
602.20 0.5431
602.30 0.5428
602.40 0.5425
602.50 0.5421
602.60 0.5418
602.70 0.5415
602.80 0.5411
602.90 0.5408
603.00 0.5405
603.10 0.5402
603.20 0.5398
603.30 0.5395
603.40 0.5392
603.50 0.5388
603.60 0.5385
603.70 0.5382
603.80 0.5379
603.90 0.5375
604.00 0.5372
604.10 0.5369
604.20 0.5366
604.30 0.5362
604.40 0.5359
604.50 0.5356
604.60 0.5353
604.70 0.5349
604.80 0.5346
604.90 0.5343
605.00 0.534
605.10 0.5336
605.20 0.5333
605.30 0.533
605.40 0.5327
605.50 0.5323
605.60 0.532
605.70 0.5317
605.80 0.5314
605.90 0.531
606.00 0.5307
606.10 0.5304
606.20 0.5301
606.30 0.5297
606.40 0.5294
606.50 0.5291
606.60 0.5288
606.70 0.5285
606.80 0.5281
606.90 0.5278
607.00 0.5275
607.10 0.5272
607.20 0.5269
607.30 0.5265
607.40 0.5262
607.50 0.5259
607.60 0.5256
607.70 0.5252
607.80 0.5249
607.90 0.5246
608.00 0.5243
608.10 0.524
608.20 0.5237
608.30 0.5233
608.40 0.523
608.50 0.5227
608.60 0.5224
608.70 0.5221
608.80 0.5217
608.90 0.5214
609.00 0.5211
609.10 0.5208
609.20 0.5205
609.30 0.5202
609.40 0.5198
609.50 0.5195
609.60 0.5192
609.70 0.5189
609.80 0.5186
609.90 0.5183
610.00 0.5179
610.10 0.5176
610.20 0.5173
610.30 0.517
610.40 0.5167
610.50 0.5164
610.60 0.5161
610.70 0.5157
610.80 0.5154
610.90 0.5151
611.00 0.5148
611.10 0.5145
611.20 0.5142
611.30 0.5139
611.40 0.5135
611.50 0.5132
611.60 0.5129
611.70 0.5126
611.80 0.5123
611.90 0.512
612.00 0.5117
612.10 0.5113
612.20 0.511
612.30 0.5107
612.40 0.5104
612.50 0.5101
612.60 0.5098
612.70 0.5095
612.80 0.5092
612.90 0.5088
613.00 0.5085
613.10 0.5082
613.20 0.5079
613.30 0.5076
613.40 0.5073
613.50 0.507
613.60 0.5067
613.70 0.5064
613.80 0.5061
613.90 0.5057
614.00 0.5054
614.10 0.5051
614.20 0.5048
614.30 0.5045
614.40 0.5042
614.50 0.5039
614.60 0.5036
614.70 0.5033
614.80 0.503
614.90 0.5027
615.00 0.5023
615.10 0.502
615.20 0.5017
615.30 0.5014
615.40 0.5011
615.50 0.5008
615.60 0.5005
615.70 0.5002
615.80 0.4999
615.90 0.4996
616.00 0.4993
616.10 0.499
616.20 0.4986
616.30 0.4983
616.40 0.498
616.50 0.4977
616.60 0.4974
616.70 0.4971
616.80 0.4968
616.90 0.4965
617.00 0.4962
617.10 0.4959
617.20 0.4956
617.30 0.4953
617.40 0.495
617.50 0.4947
617.60 0.4944
617.70 0.494
617.80 0.4937
617.90 0.4934
618.00 0.4931
618.10 0.4928
618.20 0.4925
618.30 0.4922
618.40 0.4919
618.50 0.4916
618.60 0.4913
618.70 0.491
618.80 0.4907
618.90 0.4904
619.00 0.4901
619.10 0.4898
619.20 0.4895
619.30 0.4892
619.40 0.4889
619.50 0.4886
619.60 0.4883
619.70 0.4879
619.80 0.4876
619.90 0.4873
620.00 0.487
620.10 0.4867
620.20 0.4864
620.30 0.4861
620.40 0.4858
620.50 0.4855
620.60 0.4852
620.70 0.4849
620.80 0.4846
620.90 0.4843
621.00 0.484
621.10 0.4837
621.20 0.4834
621.30 0.4831
621.40 0.4828
621.50 0.4825
621.60 0.4822
621.70 0.4819
621.80 0.4816
621.90 0.4813
622.00 0.481
622.10 0.4807
622.20 0.4804
622.30 0.48
622.40 0.4797
622.50 0.4794
622.60 0.4791
622.70 0.4788
622.80 0.4785
622.90 0.4782
623.00 0.4779
623.10 0.4776
623.20 0.4773
623.30 0.477
623.40 0.4767
623.50 0.4764
623.60 0.4761
623.70 0.4758
623.80 0.4755
623.90 0.4752
624.00 0.4749
624.10 0.4746
624.20 0.4743
624.30 0.474
624.40 0.4737
624.50 0.4734
624.60 0.473
624.70 0.4727
624.80 0.4724
624.90 0.4721
625.00 0.4718
625.10 0.4715
625.20 0.4712
625.30 0.4709
625.40 0.4706
625.50 0.4703
625.60 0.47
625.70 0.4697
625.80 0.4694
625.90 0.4691
626.00 0.4688
626.10 0.4685
626.20 0.4682
626.30 0.4679
626.40 0.4675
626.50 0.4672
626.60 0.4669
626.70 0.4666
626.80 0.4663
626.90 0.466
627.00 0.4657
627.10 0.4654
627.20 0.4651
627.30 0.4648
627.40 0.4645
627.50 0.4642
627.60 0.4639
627.70 0.4635
627.80 0.4632
627.90 0.4629
628.00 0.4626
628.10 0.4623
628.20 0.462
628.30 0.4617
628.40 0.4614
628.50 0.4611
628.60 0.4608
628.70 0.4605
628.80 0.4601
628.90 0.4598
629.00 0.4595
629.10 0.4592
629.20 0.4589
629.30 0.4586
629.40 0.4583
629.50 0.458
629.60 0.4576
629.70 0.4573
629.80 0.457
629.90 0.4567
630.00 0.4564
630.10 0.4561
630.20 0.4558
630.30 0.4554
630.40 0.4551
630.50 0.4548
630.60 0.4545
630.70 0.4542
630.80 0.4538
630.90 0.4535
631.00 0.4532
631.10 0.4529
631.20 0.4526
631.30 0.4523
631.40 0.4519
631.50 0.4516
631.60 0.4513
631.70 0.451
631.80 0.4506
631.90 0.4503
632.00 0.45
632.10 0.4497
632.20 0.4494
632.30 0.449
632.40 0.4487
632.50 0.4484
632.60 0.448
632.70 0.4477
632.80 0.4474
632.90 0.4471
633.00 0.4467
633.10 0.4464
633.20 0.4461
633.30 0.4457
633.40 0.4454
633.50 0.4451
633.60 0.4447
633.70 0.4444
633.80 0.4441
633.90 0.4437
634.00 0.4434
634.10 0.4431
634.20 0.4427
634.30 0.4424
634.40 0.442
634.50 0.4417
634.60 0.4414
634.70 0.441
634.80 0.4407
634.90 0.4403
635.00 0.44
635.10 0.4396
635.20 0.4393
635.30 0.439
635.40 0.4386
635.50 0.4382
635.60 0.4379
635.70 0.4375
635.80 0.4372
635.90 0.4368
636.00 0.4365
636.10 0.4361
636.20 0.4358
636.30 0.4354
636.40 0.4351
636.50 0.4347
636.60 0.4343
636.70 0.434
636.80 0.4336
636.90 0.4332
637.00 0.4329
637.10 0.4325
637.20 0.4321
637.30 0.4318
637.40 0.4314
637.50 0.431
637.60 0.4306
637.70 0.4302
637.80 0.4299
637.90 0.4295
638.00 0.4291
638.10 0.4287
638.20 0.4283
638.30 0.428
638.40 0.4276
638.50 0.4272
638.60 0.4268
638.70 0.4264
638.80 0.426
638.90 0.4256
639.00 0.4252
639.10 0.4248
639.20 0.4244
639.30 0.424
639.40 0.4236
639.50 0.4232
639.60 0.4227
639.70 0.4223
639.80 0.4219
639.90 0.4215
640.00 0.4211
640.10 0.4207
640.20 0.4202
640.30 0.4198
640.40 0.4194
640.50 0.4189
640.60 0.4185
640.70 0.418
640.80 0.4176
640.90 0.4172
641.00 0.4167
641.10 0.4163
641.20 0.4158
641.30 0.4154
641.40 0.4149
641.50 0.4144
641.60 0.414
641.70 0.4135
641.80 0.413
641.90 0.4125
642.00 0.4121
642.10 0.4116
642.20 0.4111
642.30 0.4107
642.40 0.4101
642.50 0.4096
642.60 0.4091
642.70 0.4086
642.80 0.4081
642.90 0.4076
643.00 0.4071
643.10 0.4066
643.20 0.4061
643.30 0.4056
643.40 0.405
643.50 0.4045
643.60 0.4039
643.70 0.4034
643.80 0.4028
643.90 0.4023
644.00 0.4017
644.10 0.4012
644.20 0.4006
644.30 0.4
644.40 0.3994
644.50 0.3988
644.60 0.3982
644.70 0.3976
644.80 0.397
644.90 0.3964
645.00 0.3958
645.10 0.3952
645.20 0.3946
645.30 0.394
645.40 0.3933
645.50 0.3927
645.60 0.392
645.70 0.3913
645.80 0.3907
645.90 0.39
646.00 0.3894
646.10 0.3887
646.20 0.388
646.30 0.3874
646.40 0.3866
646.50 0.3859
646.60 0.3851
646.70 0.3844
646.80 0.3837
646.90 0.3829
647.00 0.3822
647.10 0.3815
647.20 0.3807
647.30 0.38
647.40 0.3791
647.50 0.3783
647.60 0.3775
647.70 0.3767
647.80 0.3758
647.90 0.375
648.00 0.3742
648.10 0.3734
648.20 0.3726
648.30 0.3717
648.40 0.3708
648.50 0.3699
648.60 0.3689
648.70 0.368
648.80 0.3671
648.90 0.3662
649.00 0.3652
649.10 0.3643
649.20 0.3634
649.30 0.3625
649.40 0.3614
649.50 0.3604
649.60 0.3593
649.70 0.3583
649.80 0.3572
649.90 0.3562
650.00 0.3552
650.10 0.3541
650.20 0.3531
650.30 0.352
650.40 0.3508
650.50 0.3496
650.60 0.3484
650.70 0.3473
650.80 0.3461
650.90 0.3449
651.00 0.3437
651.10 0.3425
651.20 0.3414
651.30 0.3401
651.40 0.3388
651.50 0.3374
651.60 0.3361
651.70 0.3347
651.80 0.3334
651.90 0.3321
652.00 0.3307
652.10 0.3294
652.20 0.328
652.30 0.3266
652.40 0.3251
652.50 0.3235
652.60 0.322
652.70 0.3204
652.80 0.3189
652.90 0.3174
653.00 0.3158
653.10 0.3143
653.20 0.3127
653.30 0.3111
653.40 0.3093
653.50 0.3075
653.60 0.3057
653.70 0.3039
653.80 0.3021
653.90 0.3003
654.00 0.2985
654.10 0.2967
654.20 0.2949
654.30 0.293
654.40 0.2909
654.50 0.2888
654.60 0.2866
654.70 0.2845
654.80 0.2823
654.90 0.2798
655.00 0.2773
655.10 0.2748
655.20 0.2723
655.30 0.2697
655.40 0.2666
655.50 0.2634
655.60 0.2597
655.70 0.2558
655.80 0.2509
655.90 0.2454
656.00 0.2373
656.10 0.2285
656.20 0.2092
656.30 0.1784
656.40 0.2182
656.50 0.2317
656.60 0.2396
656.70 0.2469
656.80 0.2516
656.90 0.256
657.00 0.2594
657.10 0.2627
657.20 0.2655
657.30 0.2682
657.40 0.2704
657.50 0.2727
657.60 0.2749
657.70 0.2771
657.80 0.2793
657.90 0.2811
658.00 0.2829
658.10 0.2848
658.20 0.2866
658.30 0.2883
658.40 0.2898
658.50 0.2913
658.60 0.2928
658.70 0.2943
658.80 0.2957
658.90 0.2972
659.00 0.2987
659.10 0.3002
659.20 0.3017
659.30 0.3031
659.40 0.3043
659.50 0.3055
659.60 0.3067
659.70 0.3079
659.80 0.3091
659.90 0.3102
660.00 0.3114
660.10 0.3126
660.20 0.3138
660.30 0.315
660.40 0.3159
660.50 0.3169
660.60 0.3179
660.70 0.3188
660.80 0.3198
660.90 0.3208
661.00 0.3218
661.10 0.3227
661.20 0.3237
661.30 0.3246
661.40 0.3254
661.50 0.3262
661.60 0.327
661.70 0.3277
661.80 0.3285
661.90 0.3293
662.00 0.3301
662.10 0.3309
662.20 0.3317
662.30 0.3324
662.40 0.333
662.50 0.3337
662.60 0.3343
662.70 0.3349
662.80 0.3355
662.90 0.3362
663.00 0.3368
663.10 0.3374
663.20 0.338
663.30 0.3386
663.40 0.3391
663.50 0.3396
663.60 0.3401
663.70 0.3406
663.80 0.3411
663.90 0.3416
664.00 0.3421
664.10 0.3426
664.20 0.3431
664.30 0.3435
664.40 0.3439
664.50 0.3443
664.60 0.3447
664.70 0.345
664.80 0.3454
664.90 0.3458
665.00 0.3462
665.10 0.3466
665.20 0.3469
665.30 0.3473
665.40 0.3476
665.50 0.3479
665.60 0.3482
665.70 0.3484
665.80 0.3487
665.90 0.349
666.00 0.3493
666.10 0.3496
666.20 0.3499
666.30 0.3501
666.40 0.3503
666.50 0.3505
666.60 0.3507
666.70 0.351
666.80 0.3512
666.90 0.3514
667.00 0.3516
667.10 0.3518
667.20 0.352
667.30 0.3522
667.40 0.3523
667.50 0.3525
667.60 0.3526
667.70 0.3527
667.80 0.3529
667.90 0.353
668.00 0.3532
668.10 0.3533
668.20 0.3534
668.30 0.3536
668.40 0.3536
668.50 0.3537
668.60 0.3538
668.70 0.3539
668.80 0.354
668.90 0.3541
669.00 0.3542
669.10 0.3543
669.20 0.3543
669.30 0.3544
669.40 0.3545
669.50 0.3545
669.60 0.3545
669.70 0.3546
669.80 0.3546
669.90 0.3547
670.00 0.3547
670.10 0.3547
670.20 0.3548
670.30 0.3548
670.40 0.3548
670.50 0.3548
670.60 0.3548
670.70 0.3548
670.80 0.3548
670.90 0.3548
671.00 0.3548
671.10 0.3549
671.20 0.3549
671.30 0.3549
671.40 0.3548
671.50 0.3548
671.60 0.3548
671.70 0.3548
671.80 0.3547
671.90 0.3547
672.00 0.3547
672.10 0.3546
672.20 0.3546
672.30 0.3546
672.40 0.3545
672.50 0.3545
672.60 0.3544
672.70 0.3544
672.80 0.3543
672.90 0.3543
673.00 0.3542
673.10 0.3542
673.20 0.3541
673.30 0.3541
673.40 0.354
673.50 0.3539
673.60 0.3539
673.70 0.3538
673.80 0.3537
673.90 0.3537
674.00 0.3536
674.10 0.3535
674.20 0.3534
674.30 0.3534
674.40 0.3533
674.50 0.3532
674.60 0.3531
674.70 0.353
674.80 0.3529
674.90 0.3528
675.00 0.3528
675.10 0.3527
675.20 0.3526
675.30 0.3525
675.40 0.3524
675.50 0.3523
675.60 0.3522
675.70 0.3521
675.80 0.352
675.90 0.3519
676.00 0.3518
676.10 0.3517
676.20 0.3516
676.30 0.3515
676.40 0.3514
676.50 0.3513
676.60 0.3511
676.70 0.351
676.80 0.3509
676.90 0.3508
677.00 0.3507
677.10 0.3506
677.20 0.3505
677.30 0.3504
677.40 0.3502
677.50 0.3501
677.60 0.35
677.70 0.3499
677.80 0.3497
677.90 0.3496
678.00 0.3495
678.10 0.3494
678.20 0.3493
678.30 0.3491
678.40 0.349
678.50 0.3489
678.60 0.3487
678.70 0.3486
678.80 0.3485
678.90 0.3484
679.00 0.3482
679.10 0.3481
679.20 0.348
679.30 0.3478
679.40 0.3477
679.50 0.3476
679.60 0.3474
679.70 0.3473
679.80 0.3472
679.90 0.347
680.00 0.3469
680.10 0.3467
680.20 0.3466
680.30 0.3465
680.40 0.3463
680.50 0.3462
680.60 0.3461
680.70 0.3459
680.80 0.3458
680.90 0.3456
681.00 0.3455
681.10 0.3453
681.20 0.3452
681.30 0.3451
681.40 0.3449
681.50 0.3448
681.60 0.3446
681.70 0.3445
681.80 0.3443
681.90 0.3442
682.00 0.344
682.10 0.3439
682.20 0.3438
682.30 0.3436
682.40 0.3435
682.50 0.3433
682.60 0.3432
682.70 0.343
682.80 0.3429
682.90 0.3427
683.00 0.3426
683.10 0.3424
683.20 0.3423
683.30 0.3421
683.40 0.342
683.50 0.3418
683.60 0.3417
683.70 0.3415
683.80 0.3414
683.90 0.3412
684.00 0.3411
684.10 0.3409
684.20 0.3408
684.30 0.3406
684.40 0.3404
684.50 0.3403
684.60 0.3401
684.70 0.34
684.80 0.3398
684.90 0.3397
685.00 0.3395
685.10 0.3394
685.20 0.3392
685.30 0.3391
685.40 0.3389
685.50 0.3388
685.60 0.3386
685.70 0.3384
685.80 0.3383
685.90 0.3381
686.00 0.338
686.10 0.3378
686.20 0.3377
686.30 0.3375
686.40 0.3373
686.50 0.3372
686.60 0.337
686.70 0.3369
686.80 0.3367
686.90 0.3366
687.00 0.3364
687.10 0.3362
687.20 0.3361
687.30 0.3359
687.40 0.3358
687.50 0.3356
687.60 0.3355
687.70 0.3353
687.80 0.3351
687.90 0.335
688.00 0.3348
688.10 0.3347
688.20 0.3345
688.30 0.3343
688.40 0.3342
688.50 0.334
688.60 0.3339
688.70 0.3337
688.80 0.3336
688.90 0.3334
689.00 0.3332
689.10 0.3331
689.20 0.3329
689.30 0.3328
689.40 0.3326
689.50 0.3324
689.60 0.3323
689.70 0.3321
689.80 0.3319
689.90 0.3318
690.00 0.3316
690.10 0.3315
690.20 0.3313
690.30 0.3311
690.40 0.331
690.50 0.3308
690.60 0.3306
690.70 0.3305
690.80 0.3303
690.90 0.3302
691.00 0.33
691.10 0.3298
691.20 0.3297
691.30 0.3295
691.40 0.3294
691.50 0.3292
691.60 0.329
691.70 0.3289
691.80 0.3287
691.90 0.3286
692.00 0.3284
692.10 0.3282
692.20 0.3281
692.30 0.3279
692.40 0.3278
692.50 0.3276
692.60 0.3274
692.70 0.3273
692.80 0.3271
692.90 0.327
693.00 0.3268
693.10 0.3266
693.20 0.3265
693.30 0.3263
693.40 0.3262
693.50 0.326
693.60 0.3258
693.70 0.3257
693.80 0.3255
693.90 0.3254
694.00 0.3252
694.10 0.325
694.20 0.3249
694.30 0.3247
694.40 0.3246
694.50 0.3244
694.60 0.3243
694.70 0.3241
694.80 0.3239
694.90 0.3238
695.00 0.3236
695.10 0.3235
695.20 0.3233
695.30 0.3231
695.40 0.323
695.50 0.3228
695.60 0.3227
695.70 0.3225
695.80 0.3223
695.90 0.3222
696.00 0.322
696.10 0.3218
696.20 0.3217
696.30 0.3215
696.40 0.3214
696.50 0.3212
696.60 0.321
696.70 0.3209
696.80 0.3207
696.90 0.3206
697.00 0.3204
697.10 0.3202
697.20 0.3201
697.30 0.3199
697.40 0.3198
697.50 0.3196
697.60 0.3195
697.70 0.3193
697.80 0.3191
697.90 0.319
698.00 0.3188
698.10 0.3187
698.20 0.3185
698.30 0.3183
698.40 0.3182
698.50 0.318
698.60 0.3179
698.70 0.3177
698.80 0.3175
698.90 0.3174
699.00 0.3172
699.10 0.3171
699.20 0.3169
699.30 0.3168
699.40 0.3166
699.50 0.3164
699.60 0.3163
699.70 0.3161
699.80 0.316
699.90 0.3158
700.00 0.3157
700.10 0.3155
700.20 0.3153
700.30 0.3152
700.40 0.315
700.50 0.3149
700.60 0.3147
700.70 0.3145
700.80 0.3144
700.90 0.3142
701.00 0.3141
701.10 0.3139
701.20 0.3138
701.30 0.3136
701.40 0.3134
701.50 0.3133
701.60 0.3131
701.70 0.313
701.80 0.3128
701.90 0.3127
702.00 0.3125
702.10 0.3123
702.20 0.3122
702.30 0.312
702.40 0.3119
702.50 0.3117
702.60 0.3116
702.70 0.3114
702.80 0.3112
702.90 0.3111
703.00 0.3109
703.10 0.3108
703.20 0.3106
703.30 0.3105
703.40 0.3103
703.50 0.3102
703.60 0.31
703.70 0.3098
703.80 0.3097
703.90 0.3095
704.00 0.3094
704.10 0.3092
704.20 0.3091
704.30 0.3089
704.40 0.3088
704.50 0.3086
704.60 0.3084
704.70 0.3083
704.80 0.3081
704.90 0.308
705.00 0.3078
705.10 0.3077
705.20 0.3075
705.30 0.3074
705.40 0.3072
705.50 0.3071
705.60 0.3069
705.70 0.3067
705.80 0.3066
705.90 0.3064
706.00 0.3063
706.10 0.3061
706.20 0.306
706.30 0.3058
706.40 0.3057
706.50 0.3055
706.60 0.3054
706.70 0.3052
706.80 0.305
706.90 0.3049
707.00 0.3047
707.10 0.3046
707.20 0.3044
707.30 0.3043
707.40 0.3041
707.50 0.304
707.60 0.3038
707.70 0.3037
707.80 0.3035
707.90 0.3034
708.00 0.3032
708.10 0.3031
708.20 0.3029
708.30 0.3028
708.40 0.3026
708.50 0.3024
708.60 0.3023
708.70 0.3021
708.80 0.302
708.90 0.3018
709.00 0.3017
709.10 0.3015
709.20 0.3014
709.30 0.3012
709.40 0.3011
709.50 0.3009
709.60 0.3008
709.70 0.3006
709.80 0.3005
709.90 0.3003
710.00 0.3002
710.10 0.3
710.20 0.2999
710.30 0.2997
710.40 0.2996
710.50 0.2994
710.60 0.2993
710.70 0.2991
710.80 0.299
710.90 0.2988
711.00 0.2987
711.10 0.2985
711.20 0.2984
711.30 0.2982
711.40 0.2981
711.50 0.2979
711.60 0.2978
711.70 0.2976
711.80 0.2975
711.90 0.2973
712.00 0.2972
712.10 0.297
712.20 0.2969
712.30 0.2967
712.40 0.2966
712.50 0.2964
712.60 0.2963
712.70 0.2961
712.80 0.296
712.90 0.2958
713.00 0.2957
713.10 0.2955
713.20 0.2954
713.30 0.2952
713.40 0.2951
713.50 0.2949
713.60 0.2948
713.70 0.2946
713.80 0.2945
713.90 0.2943
714.00 0.2942
714.10 0.294
714.20 0.2939
714.30 0.2937
714.40 0.2936
714.50 0.2935
714.60 0.2933
714.70 0.2932
714.80 0.293
714.90 0.2929
715.00 0.2927
715.10 0.2926
715.20 0.2924
715.30 0.2923
715.40 0.2921
715.50 0.292
715.60 0.2918
715.70 0.2917
715.80 0.2915
715.90 0.2914
716.00 0.2913
716.10 0.2911
716.20 0.291
716.30 0.2908
716.40 0.2907
716.50 0.2905
716.60 0.2904
716.70 0.2902
716.80 0.2901
716.90 0.2899
717.00 0.2898
717.10 0.2897
717.20 0.2895
717.30 0.2894
717.40 0.2892
717.50 0.2891
717.60 0.2889
717.70 0.2888
717.80 0.2886
717.90 0.2885
718.00 0.2883
718.10 0.2882
718.20 0.2881
718.30 0.2879
718.40 0.2878
718.50 0.2876
718.60 0.2875
718.70 0.2873
718.80 0.2872
718.90 0.287
719.00 0.2869
719.10 0.2868
719.20 0.2866
719.30 0.2865
719.40 0.2863
719.50 0.2862
719.60 0.286
719.70 0.2859
719.80 0.2858
719.90 0.2856
720.00 0.2855
720.10 0.2853
720.20 0.2852
720.30 0.285
720.40 0.2849
720.50 0.2848
720.60 0.2846
720.70 0.2845
720.80 0.2843
720.90 0.2842
721.00 0.284
721.10 0.2839
721.20 0.2838
721.30 0.2836
721.40 0.2835
721.50 0.2833
721.60 0.2832
721.70 0.2831
721.80 0.2829
721.90 0.2828
722.00 0.2826
722.10 0.2825
722.20 0.2823
722.30 0.2822
722.40 0.2821
722.50 0.2819
722.60 0.2818
722.70 0.2816
722.80 0.2815
722.90 0.2814
723.00 0.2812
723.10 0.2811
723.20 0.2809
723.30 0.2808
723.40 0.2807
723.50 0.2805
723.60 0.2804
723.70 0.2802
723.80 0.2801
723.90 0.28
724.00 0.2798
724.10 0.2797
724.20 0.2795
724.30 0.2794
724.40 0.2793
724.50 0.2791
724.60 0.279
724.70 0.2788
724.80 0.2787
724.90 0.2786
725.00 0.2784
725.10 0.2783
725.20 0.2781
725.30 0.278
725.40 0.2779
725.50 0.2777
725.60 0.2776
725.70 0.2775
725.80 0.2773
725.90 0.2772
726.00 0.277
726.10 0.2769
726.20 0.2768
726.30 0.2766
726.40 0.2765
726.50 0.2764
726.60 0.2762
726.70 0.2761
726.80 0.2759
726.90 0.2758
727.00 0.2757
727.10 0.2755
727.20 0.2754
727.30 0.2753
727.40 0.2751
727.50 0.275
727.60 0.2748
727.70 0.2747
727.80 0.2746
727.90 0.2744
728.00 0.2743
728.10 0.2742
728.20 0.274
728.30 0.2739
728.40 0.2738
728.50 0.2736
728.60 0.2735
728.70 0.2734
728.80 0.2732
728.90 0.2731
729.00 0.2729
729.10 0.2728
729.20 0.2727
729.30 0.2725
729.40 0.2724
729.50 0.2723
729.60 0.2721
729.70 0.272
729.80 0.2719
729.90 0.2717
730.00 0.2716
730.10 0.2715
730.20 0.2713
730.30 0.2712
730.40 0.2711
730.50 0.2709
730.60 0.2708
730.70 0.2707
730.80 0.2705
730.90 0.2704
731.00 0.2703
731.10 0.2701
731.20 0.27
731.30 0.2699
731.40 0.2697
731.50 0.2696
731.60 0.2695
731.70 0.2693
731.80 0.2692
731.90 0.2691
732.00 0.2689
732.10 0.2688
732.20 0.2687
732.30 0.2685
732.40 0.2684
732.50 0.2683
732.60 0.2681
732.70 0.268
732.80 0.2679
732.90 0.2677
733.00 0.2676
733.10 0.2675
733.20 0.2673
733.30 0.2672
733.40 0.2671
733.50 0.2669
733.60 0.2668
733.70 0.2667
733.80 0.2665
733.90 0.2664
734.00 0.2663
734.10 0.2662
734.20 0.266
734.30 0.2659
734.40 0.2658
734.50 0.2656
734.60 0.2655
734.70 0.2654
734.80 0.2652
734.90 0.2651
735.00 0.265
735.10 0.2648
735.20 0.2647
735.30 0.2646
735.40 0.2645
735.50 0.2643
735.60 0.2642
735.70 0.2641
735.80 0.2639
735.90 0.2638
736.00 0.2637
736.10 0.2635
736.20 0.2634
736.30 0.2633
736.40 0.2631
736.50 0.263
736.60 0.2629
736.70 0.2628
736.80 0.2626
736.90 0.2625
737.00 0.2624
737.10 0.2622
737.20 0.2621
737.30 0.262
737.40 0.2619
737.50 0.2617
737.60 0.2616
737.70 0.2615
737.80 0.2613
737.90 0.2612
738.00 0.2611
738.10 0.2609
738.20 0.2608
738.30 0.2607
738.40 0.2606
738.50 0.2604
738.60 0.2603
738.70 0.2602
738.80 0.26
738.90 0.2599
739.00 0.2598
739.10 0.2597
739.20 0.2595
739.30 0.2594
739.40 0.2593
739.50 0.2592
739.60 0.259
739.70 0.2589
739.80 0.2588
739.90 0.2586
740.00 0.2585
740.10 0.2584
740.20 0.2583
740.30 0.2581
740.40 0.258
740.50 0.2579
740.60 0.2578
740.70 0.2576
740.80 0.2575
740.90 0.2574
741.00 0.2573
741.10 0.2571
741.20 0.257
741.30 0.2569
741.40 0.2568
741.50 0.2566
741.60 0.2565
741.70 0.2564
741.80 0.2563
741.90 0.2561
742.00 0.256
742.10 0.2559
742.20 0.2558
742.30 0.2556
742.40 0.2555
742.50 0.2554
742.60 0.2553
742.70 0.2551
742.80 0.255
742.90 0.2549
743.00 0.2548
743.10 0.2546
743.20 0.2545
743.30 0.2544
743.40 0.2543
743.50 0.2541
743.60 0.254
743.70 0.2539
743.80 0.2538
743.90 0.2536
744.00 0.2535
744.10 0.2534
744.20 0.2533
744.30 0.2531
744.40 0.253
744.50 0.2529
744.60 0.2528
744.70 0.2527
744.80 0.2525
744.90 0.2524
745.00 0.2523
745.10 0.2522
745.20 0.252
745.30 0.2519
745.40 0.2518
745.50 0.2517
745.60 0.2515
745.70 0.2514
745.80 0.2513
745.90 0.2512
746.00 0.2511
746.10 0.2509
746.20 0.2508
746.30 0.2507
746.40 0.2506
746.50 0.2504
746.60 0.2503
746.70 0.2502
746.80 0.2501
746.90 0.25
747.00 0.2498
747.10 0.2497
747.20 0.2496
747.30 0.2495
747.40 0.2493
747.50 0.2492
747.60 0.2491
747.70 0.249
747.80 0.2489
747.90 0.2487
748.00 0.2486
748.10 0.2485
748.20 0.2484
748.30 0.2483
748.40 0.2481
748.50 0.248
748.60 0.2479
748.70 0.2478
748.80 0.2476
748.90 0.2475
749.00 0.2474
749.10 0.2473
749.20 0.2472
749.30 0.247
749.40 0.2469
749.50 0.2468
749.60 0.2467
749.70 0.2466
749.80 0.2464
749.90 0.2463
750.00 0.2462
750.10 0.2461
750.20 0.246
750.30 0.2458
750.40 0.2457
750.50 0.2456
750.60 0.2455
750.70 0.2454
750.80 0.2453
750.90 0.2451
751.00 0.245
751.10 0.2449
751.20 0.2448
751.30 0.2447
751.40 0.2445
751.50 0.2444
751.60 0.2443
751.70 0.2442
751.80 0.2441
751.90 0.244
752.00 0.2438
752.10 0.2437
752.20 0.2436
752.30 0.2435
752.40 0.2434
752.50 0.2433
752.60 0.2431
752.70 0.243
752.80 0.2429
752.90 0.2428
753.00 0.2427
753.10 0.2425
753.20 0.2424
753.30 0.2423
753.40 0.2422
753.50 0.2421
753.60 0.242
753.70 0.2418
753.80 0.2417
753.90 0.2416
754.00 0.2415
754.10 0.2414
754.20 0.2413
754.30 0.2411
754.40 0.241
754.50 0.2409
754.60 0.2408
754.70 0.2407
754.80 0.2406
754.90 0.2405
755.00 0.2403
755.10 0.2402
755.20 0.2401
755.30 0.24
755.40 0.2399
755.50 0.2398
755.60 0.2396
755.70 0.2395
755.80 0.2394
755.90 0.2393
756.00 0.2392
756.10 0.2391
756.20 0.2389
756.30 0.2388
756.40 0.2387
756.50 0.2386
756.60 0.2385
756.70 0.2384
756.80 0.2383
756.90 0.2381
757.00 0.238
757.10 0.2379
757.20 0.2378
757.30 0.2377
757.40 0.2376
757.50 0.2375
757.60 0.2373
757.70 0.2372
757.80 0.2371
757.90 0.237
758.00 0.2369
758.10 0.2368
758.20 0.2367
758.30 0.2365
758.40 0.2364
758.50 0.2363
758.60 0.2362
758.70 0.2361
758.80 0.236
758.90 0.2359
759.00 0.2357
759.10 0.2356
759.20 0.2355
759.30 0.2354
759.40 0.2353
759.50 0.2352
759.60 0.2351
759.70 0.2349
759.80 0.2348
759.90 0.2347
760.00 0.2346
760.10 0.2345
760.20 0.2344
760.30 0.2343
760.40 0.2342
760.50 0.234
760.60 0.2339
760.70 0.2338
760.80 0.2337
760.90 0.2336
761.00 0.2335
761.10 0.2334
761.20 0.2333
761.30 0.2332
761.40 0.233
761.50 0.2329
761.60 0.2328
761.70 0.2327
761.80 0.2326
761.90 0.2325
762.00 0.2324
762.10 0.2323
762.20 0.2322
762.30 0.2321
762.40 0.2319
762.50 0.2318
762.60 0.2317
762.70 0.2316
762.80 0.2315
762.90 0.2314
763.00 0.2313
763.10 0.2312
763.20 0.2311
763.30 0.2309
763.40 0.2308
763.50 0.2307
763.60 0.2306
763.70 0.2305
763.80 0.2304
763.90 0.2303
764.00 0.2302
764.10 0.2301
764.20 0.23
764.30 0.2299
764.40 0.2297
764.50 0.2296
764.60 0.2295
764.70 0.2294
764.80 0.2293
764.90 0.2292
765.00 0.2291
765.10 0.229
765.20 0.2289
765.30 0.2288
765.40 0.2286
765.50 0.2285
765.60 0.2284
765.70 0.2283
765.80 0.2282
765.90 0.2281
766.00 0.228
766.10 0.2279
766.20 0.2278
766.30 0.2277
766.40 0.2276
766.50 0.2275
766.60 0.2273
766.70 0.2272
766.80 0.2271
766.90 0.227
767.00 0.2269
767.10 0.2268
767.20 0.2267
767.30 0.2266
767.40 0.2265
767.50 0.2264
767.60 0.2263
767.70 0.2262
767.80 0.226
767.90 0.2259
768.00 0.2258
768.10 0.2257
768.20 0.2256
768.30 0.2255
768.40 0.2254
768.50 0.2253
768.60 0.2252
768.70 0.2251
768.80 0.225
768.90 0.2249
769.00 0.2248
769.10 0.2246
769.20 0.2245
769.30 0.2244
769.40 0.2243
769.50 0.2242
769.60 0.2241
769.70 0.224
769.80 0.2239
769.90 0.2238
770.00 0.2237
770.10 0.2236
770.20 0.2235
770.30 0.2234
770.40 0.2233
770.50 0.2232
770.60 0.2231
770.70 0.223
770.80 0.2228
770.90 0.2227
771.00 0.2226
771.10 0.2225
771.20 0.2224
771.30 0.2223
771.40 0.2222
771.50 0.2221
771.60 0.222
771.70 0.2219
771.80 0.2218
771.90 0.2217
772.00 0.2216
772.10 0.2215
772.20 0.2214
772.30 0.2213
772.40 0.2212
772.50 0.2211
772.60 0.221
772.70 0.2209
772.80 0.2208
772.90 0.2207
773.00 0.2205
773.10 0.2204
773.20 0.2203
773.30 0.2202
773.40 0.2201
773.50 0.22
773.60 0.2199
773.70 0.2198
773.80 0.2197
773.90 0.2196
774.00 0.2195
774.10 0.2194
774.20 0.2193
774.30 0.2192
774.40 0.2191
774.50 0.219
774.60 0.2189
774.70 0.2188
774.80 0.2187
774.90 0.2186
775.00 0.2185
775.10 0.2184
775.20 0.2183
775.30 0.2182
775.40 0.2181
775.50 0.218
775.60 0.2179
775.70 0.2178
775.80 0.2177
775.90 0.2176
776.00 0.2175
776.10 0.2174
776.20 0.2172
776.30 0.2171
776.40 0.217
776.50 0.2169
776.60 0.2168
776.70 0.2167
776.80 0.2166
776.90 0.2165
777.00 0.2164
777.10 0.2163
777.20 0.2162
777.30 0.2161
777.40 0.216
777.50 0.2159
777.60 0.2158
777.70 0.2157
777.80 0.2156
777.90 0.2155
778.00 0.2154
778.10 0.2153
778.20 0.2152
778.30 0.2151
778.40 0.215
778.50 0.2149
778.60 0.2148
778.70 0.2147
778.80 0.2146
778.90 0.2145
779.00 0.2144
779.10 0.2143
779.20 0.2142
779.30 0.2141
779.40 0.214
779.50 0.2139
779.60 0.2138
779.70 0.2137
779.80 0.2136
779.90 0.2135
780.00 0.2134
780.10 0.2133
780.20 0.2132
780.30 0.2131
780.40 0.213
780.50 0.2129
780.60 0.2128
780.70 0.2127
780.80 0.2126
780.90 0.2125
781.00 0.2124
781.10 0.2123
781.20 0.2122
781.30 0.2121
781.40 0.212
781.50 0.2119
781.60 0.2118
781.70 0.2117
781.80 0.2116
781.90 0.2115
782.00 0.2114
782.10 0.2113
782.20 0.2112
782.30 0.2111
782.40 0.211
782.50 0.2109
782.60 0.2108
782.70 0.2107
782.80 0.2106
782.90 0.2105
783.00 0.2104
783.10 0.2103
783.20 0.2102
783.30 0.2101
783.40 0.21
783.50 0.2099
783.60 0.2098
783.70 0.2098
783.80 0.2097
783.90 0.2096
784.00 0.2095
784.10 0.2094
784.20 0.2093
784.30 0.2092
784.40 0.2091
784.50 0.209
784.60 0.2089
784.70 0.2088
784.80 0.2087
784.90 0.2086
785.00 0.2085
785.10 0.2084
785.20 0.2083
785.30 0.2082
785.40 0.2081
785.50 0.208
785.60 0.2079
785.70 0.2078
785.80 0.2077
785.90 0.2076
786.00 0.2075
786.10 0.2074
786.20 0.2073
786.30 0.2072
786.40 0.2071
786.50 0.207
786.60 0.2069
786.70 0.2068
786.80 0.2067
786.90 0.2066
787.00 0.2066
787.10 0.2065
787.20 0.2064
787.30 0.2063
787.40 0.2062
787.50 0.2061
787.60 0.206
787.70 0.2059
787.80 0.2058
787.90 0.2057
788.00 0.2056
788.10 0.2055
788.20 0.2054
788.30 0.2053
788.40 0.2052
788.50 0.2051
788.60 0.205
788.70 0.2049
788.80 0.2048
788.90 0.2047
789.00 0.2046
789.10 0.2045
789.20 0.2044
789.30 0.2044
789.40 0.2043
789.50 0.2042
789.60 0.2041
789.70 0.204
789.80 0.2039
789.90 0.2038
790.00 0.2037
790.10 0.2036
790.20 0.2035
790.30 0.2034
790.40 0.2033
790.50 0.2032
790.60 0.2031
790.70 0.203
790.80 0.2029
790.90 0.2028
791.00 0.2028
791.10 0.2027
791.20 0.2026
791.30 0.2025
791.40 0.2024
791.50 0.2023
791.60 0.2022
791.70 0.2021
791.80 0.202
791.90 0.2019
792.00 0.2018
792.10 0.2017
792.20 0.2016
792.30 0.2015
792.40 0.2015
792.50 0.2014
792.60 0.2013
792.70 0.2012
792.80 0.2011
792.90 0.201
793.00 0.2009
793.10 0.2008
793.20 0.2007
793.30 0.2006
793.40 0.2005
793.50 0.2004
793.60 0.2003
793.70 0.2002
793.80 0.2002
793.90 0.2001
794.00 0.2
794.10 0.1999
794.20 0.1998
794.30 0.1997
794.40 0.1996
794.50 0.1995
794.60 0.1994
794.70 0.1993
794.80 0.1992
794.90 0.1991
795.00 0.1991
795.10 0.199
795.20 0.1989
795.30 0.1988
795.40 0.1987
795.50 0.1986
795.60 0.1985
795.70 0.1984
795.80 0.1983
795.90 0.1982
796.00 0.1981
796.10 0.1981
796.20 0.198
796.30 0.1979
796.40 0.1978
796.50 0.1977
796.60 0.1976
796.70 0.1975
796.80 0.1974
796.90 0.1973
797.00 0.1972
797.10 0.1971
797.20 0.1971
797.30 0.197
797.40 0.1969
797.50 0.1968
797.60 0.1967
797.70 0.1966
797.80 0.1965
797.90 0.1964
798.00 0.1963
798.10 0.1962
798.20 0.1961
798.30 0.1961
798.40 0.196
798.50 0.1959
798.60 0.1958
798.70 0.1957
798.80 0.1956
798.90 0.1955
799.00 0.1954
799.10 0.1953
799.20 0.1952
799.30 0.1952
799.40 0.1951
799.50 0.195
799.60 0.1949
799.70 0.1948
799.80 0.1947
799.90 0.1946
800.00 0.1945
800.10 0.1944
800.20 0.1943
800.30 0.1943
800.40 0.1942
800.50 0.1941
800.60 0.194
800.70 0.1939
800.80 0.1938
800.90 0.1937
801.00 0.1936
801.10 0.1936
801.20 0.1935
801.30 0.1934
801.40 0.1933
801.50 0.1932
801.60 0.1931
801.70 0.193
801.80 0.1929
801.90 0.1929
802.00 0.1928
802.10 0.1927
802.20 0.1926
802.30 0.1925
802.40 0.1924
802.50 0.1923
802.60 0.1922
802.70 0.1922
802.80 0.1921
802.90 0.192
803.00 0.1919
803.10 0.1918
803.20 0.1917
803.30 0.1916
803.40 0.1915
803.50 0.1915
803.60 0.1914
803.70 0.1913
803.80 0.1912
803.90 0.1911
804.00 0.191
804.10 0.1909
804.20 0.1908
804.30 0.1908
804.40 0.1907
804.50 0.1906
804.60 0.1905
804.70 0.1904
804.80 0.1903
804.90 0.1902
805.00 0.1902
805.10 0.1901
805.20 0.19
805.30 0.1899
805.40 0.1898
805.50 0.1897
805.60 0.1896
805.70 0.1895
805.80 0.1895
805.90 0.1894
806.00 0.1893
806.10 0.1892
806.20 0.1891
806.30 0.189
806.40 0.1889
806.50 0.1889
806.60 0.1888
806.70 0.1887
806.80 0.1886
806.90 0.1885
807.00 0.1884
807.10 0.1883
807.20 0.1883
807.30 0.1882
807.40 0.1881
807.50 0.188
807.60 0.1879
807.70 0.1878
807.80 0.1877
807.90 0.1877
808.00 0.1876
808.10 0.1875
808.20 0.1874
808.30 0.1873
808.40 0.1872
808.50 0.1871
808.60 0.1871
808.70 0.187
808.80 0.1869
808.90 0.1868
809.00 0.1867
809.10 0.1866
809.20 0.1866
809.30 0.1865
809.40 0.1864
809.50 0.1863
809.60 0.1862
809.70 0.1861
809.80 0.186
809.90 0.186
810.00 0.1859
810.10 0.1858
810.20 0.1857
810.30 0.1856
810.40 0.1855
810.50 0.1855
810.60 0.1854
810.70 0.1853
810.80 0.1852
810.90 0.1851
811.00 0.185
811.10 0.185
811.20 0.1849
811.30 0.1848
811.40 0.1847
811.50 0.1846
811.60 0.1845
811.70 0.1845
811.80 0.1844
811.90 0.1843
812.00 0.1842
812.10 0.1841
812.20 0.184
812.30 0.184
812.40 0.1839
812.50 0.1838
812.60 0.1837
812.70 0.1836
812.80 0.1836
812.90 0.1835
813.00 0.1834
813.10 0.1833
813.20 0.1832
813.30 0.1831
813.40 0.1831
813.50 0.183
813.60 0.1829
813.70 0.1828
813.80 0.1827
813.90 0.1827
814.00 0.1826
814.10 0.1825
814.20 0.1824
814.30 0.1823
814.40 0.1822
814.50 0.1822
814.60 0.1821
814.70 0.182
814.80 0.1819
814.90 0.1818
815.00 0.1818
815.10 0.1817
815.20 0.1816
815.30 0.1815
815.40 0.1814
815.50 0.1813
815.60 0.1813
815.70 0.1812
815.80 0.1811
815.90 0.181
816.00 0.1809
816.10 0.1809
816.20 0.1808
816.30 0.1807
816.40 0.1806
816.50 0.1805
816.60 0.1804
816.70 0.1804
816.80 0.1803
816.90 0.1802
817.00 0.1801
817.10 0.18
817.20 0.18
817.30 0.1799
817.40 0.1798
817.50 0.1797
817.60 0.1796
817.70 0.1796
817.80 0.1795
817.90 0.1794
818.00 0.1793
818.10 0.1792
818.20 0.1792
818.30 0.1791
818.40 0.179
818.50 0.1789
818.60 0.1788
818.70 0.1788
818.80 0.1787
818.90 0.1786
819.00 0.1785
819.10 0.1784
819.20 0.1784
819.30 0.1783
819.40 0.1782
819.50 0.1781
819.60 0.178
819.70 0.178
819.80 0.1779
819.90 0.1778
820.00 0.1777
820.10 0.1776
820.20 0.1776
820.30 0.1775
820.40 0.1774
820.50 0.1773
820.60 0.1772
820.70 0.1772
820.80 0.1771
820.90 0.177
821.00 0.1769
821.10 0.1768
821.20 0.1768
821.30 0.1767
821.40 0.1766
821.50 0.1765
821.60 0.1764
821.70 0.1764
821.80 0.1763
821.90 0.1762
822.00 0.1761
822.10 0.1761
822.20 0.176
822.30 0.1759
822.40 0.1758
822.50 0.1757
822.60 0.1757
822.70 0.1756
822.80 0.1755
822.90 0.1754
823.00 0.1753
823.10 0.1753
823.20 0.1752
823.30 0.1751
823.40 0.175
823.50 0.175
823.60 0.1749
823.70 0.1748
823.80 0.1747
823.90 0.1746
824.00 0.1746
824.10 0.1745
824.20 0.1744
824.30 0.1743
824.40 0.1743
824.50 0.1742
824.60 0.1741
824.70 0.174
824.80 0.174
824.90 0.1739
825.00 0.1738
825.10 0.1737
825.20 0.1736
825.30 0.1736
825.40 0.1735
825.50 0.1734
825.60 0.1733
825.70 0.1733
825.80 0.1732
825.90 0.1731
826.00 0.173
826.10 0.1729
826.20 0.1729
826.30 0.1728
826.40 0.1727
826.50 0.1726
826.60 0.1726
826.70 0.1725
826.80 0.1724
826.90 0.1723
827.00 0.1723
827.10 0.1722
827.20 0.1721
827.30 0.172
827.40 0.172
827.50 0.1719
827.60 0.1718
827.70 0.1717
827.80 0.1716
827.90 0.1716
828.00 0.1715
828.10 0.1714
828.20 0.1713
828.30 0.1713
828.40 0.1712
828.50 0.1711
828.60 0.171
828.70 0.171
828.80 0.1709
828.90 0.1708
829.00 0.1707
829.10 0.1707
829.20 0.1706
829.30 0.1705
829.40 0.1704
829.50 0.1704
829.60 0.1703
829.70 0.1702
829.80 0.1701
829.90 0.1701
830.00 0.17
830.10 0.1699
830.20 0.1698
830.30 0.1698
830.40 0.1697
830.50 0.1696
830.60 0.1695
830.70 0.1695
830.80 0.1694
830.90 0.1693
831.00 0.1692
831.10 0.1692
831.20 0.1691
831.30 0.169
831.40 0.1689
831.50 0.1689
831.60 0.1688
831.70 0.1687
831.80 0.1686
831.90 0.1686
832.00 0.1685
832.10 0.1684
832.20 0.1683
832.30 0.1683
832.40 0.1682
832.50 0.1681
832.60 0.168
832.70 0.168
832.80 0.1679
832.90 0.1678
833.00 0.1677
833.10 0.1677
833.20 0.1676
833.30 0.1675
833.40 0.1674
833.50 0.1673
833.60 0.1673
833.70 0.1672
833.80 0.1671
833.90 0.167
834.00 0.167
834.10 0.1669
834.20 0.1668
834.30 0.1667
834.40 0.1667
834.50 0.1666
834.60 0.1665
834.70 0.1664
834.80 0.1664
834.90 0.1663
835.00 0.1662
835.10 0.1661
835.20 0.1661
835.30 0.166
835.40 0.1659
835.50 0.1658
835.60 0.1658
835.70 0.1657
835.80 0.1656
835.90 0.1655
836.00 0.1655
836.10 0.1654
836.20 0.1653
836.30 0.1653
836.40 0.1652
836.50 0.1651
836.60 0.165
836.70 0.165
836.80 0.1649
836.90 0.1648
837.00 0.1647
837.10 0.1647
837.20 0.1646
837.30 0.1645
837.40 0.1644
837.50 0.1644
837.60 0.1643
837.70 0.1642
837.80 0.1641
837.90 0.1641
838.00 0.164
838.10 0.1639
838.20 0.1638
838.30 0.1638
838.40 0.1637
838.50 0.1636
838.60 0.1636
838.70 0.1635
838.80 0.1634
838.90 0.1633
839.00 0.1633
839.10 0.1632
839.20 0.1631
839.30 0.163
839.40 0.163
839.50 0.1629
839.60 0.1628
839.70 0.1628
839.80 0.1627
839.90 0.1626
840.00 0.1625
840.10 0.1625
840.20 0.1624
840.30 0.1623
840.40 0.1622
840.50 0.1622
840.60 0.1621
840.70 0.162
840.80 0.1619
840.90 0.1619
841.00 0.1618
841.10 0.1617
841.20 0.1617
841.30 0.1616
841.40 0.1615
841.50 0.1614
841.60 0.1614
841.70 0.1613
841.80 0.1612
841.90 0.1612
842.00 0.1611
842.10 0.161
842.20 0.1609
842.30 0.1609
842.40 0.1608
842.50 0.1607
842.60 0.1606
842.70 0.1606
842.80 0.1605
842.90 0.1604
843.00 0.1604
843.10 0.1603
843.20 0.1602
843.30 0.1601
843.40 0.1601
843.50 0.16
843.60 0.1599
843.70 0.1599
843.80 0.1598
843.90 0.1597
844.00 0.1596
844.10 0.1596
844.20 0.1595
844.30 0.1594
844.40 0.1594
844.50 0.1593
844.60 0.1592
844.70 0.1591
844.80 0.1591
844.90 0.159
845.00 0.1589
845.10 0.1589
845.20 0.1588
845.30 0.1587
845.40 0.1586
845.50 0.1586
845.60 0.1585
845.70 0.1584
845.80 0.1584
845.90 0.1583
846.00 0.1582
846.10 0.1581
846.20 0.1581
846.30 0.158
846.40 0.1579
846.50 0.1579
846.60 0.1578
846.70 0.1577
846.80 0.1576
846.90 0.1576
847.00 0.1575
847.10 0.1574
847.20 0.1574
847.30 0.1573
847.40 0.1572
847.50 0.1572
847.60 0.1571
847.70 0.157
847.80 0.1569
847.90 0.1569
848.00 0.1568
848.10 0.1567
848.20 0.1567
848.30 0.1566
848.40 0.1565
848.50 0.1565
848.60 0.1564
848.70 0.1563
848.80 0.1562
848.90 0.1562
849.00 0.1561
849.10 0.156
849.20 0.156
849.30 0.1559
849.40 0.1558
849.50 0.1558
849.60 0.1557
849.70 0.1556
849.80 0.1556
849.90 0.1555
850.00 0.1554
850.10 0.1553
850.20 0.1553
850.30 0.1552
850.40 0.1551
850.50 0.1551
850.60 0.155
850.70 0.1549
850.80 0.1549
850.90 0.1548
851.00 0.1547
851.10 0.1547
851.20 0.1546
851.30 0.1545
851.40 0.1544
851.50 0.1544
851.60 0.1543
851.70 0.1542
851.80 0.1542
851.90 0.1541
852.00 0.154
852.10 0.154
852.20 0.1539
852.30 0.1538
852.40 0.1538
852.50 0.1537
852.60 0.1536
852.70 0.1536
852.80 0.1535
852.90 0.1534
853.00 0.1534
853.10 0.1533
853.20 0.1532
853.30 0.1532
853.40 0.1531
853.50 0.153
853.60 0.153
853.70 0.1529
853.80 0.1528
853.90 0.1528
854.00 0.1527
854.10 0.1526
854.20 0.1526
854.30 0.1525
854.40 0.1524
854.50 0.1523
854.60 0.1523
854.70 0.1522
854.80 0.1521
854.90 0.1521
855.00 0.152
855.10 0.1519
855.20 0.1519
855.30 0.1518
855.40 0.1517
855.50 0.1517
855.60 0.1516
855.70 0.1515
855.80 0.1515
855.90 0.1514
856.00 0.1513
856.10 0.1513
856.20 0.1512
856.30 0.1511
856.40 0.1511
856.50 0.151
856.60 0.1509
856.70 0.1509
856.80 0.1508
856.90 0.1507
857.00 0.1507
857.10 0.1506
857.20 0.1506
857.30 0.1505
857.40 0.1504
857.50 0.1504
857.60 0.1503
857.70 0.1502
857.80 0.1502
857.90 0.1501
858.00 0.15
858.10 0.15
858.20 0.1499
858.30 0.1499
858.40 0.1498
858.50 0.1497
858.60 0.1497
858.70 0.1496
858.80 0.1495
858.90 0.1495
859.00 0.1494
859.10 0.1494
859.20 0.1493
859.30 0.1492
859.40 0.1492
859.50 0.1491
859.60 0.149
859.70 0.149
859.80 0.1489
859.90 0.1489
860.00 0.1488
860.10 0.1487
860.20 0.1487
860.30 0.1486
860.40 0.1485
860.50 0.1485
860.60 0.1484
860.70 0.1484
860.80 0.1483
860.90 0.1482
861.00 0.1482
861.10 0.1481
861.20 0.148
861.30 0.148
861.40 0.1479
861.50 0.1479
861.60 0.1478
861.70 0.1477
861.80 0.1477
861.90 0.1476
862.00 0.1475
862.10 0.1475
862.20 0.1474
862.30 0.1474
862.40 0.1473
862.50 0.1472
862.60 0.1472
862.70 0.1471
862.80 0.147
862.90 0.147
863.00 0.1469
863.10 0.1468
863.20 0.1468
863.30 0.1467
863.40 0.1466
863.50 0.1466
863.60 0.1465
863.70 0.1464
863.80 0.1464
863.90 0.1463
864.00 0.1463
864.10 0.1462
864.20 0.1461
864.30 0.1461
864.40 0.146
864.50 0.1459
864.60 0.1459
864.70 0.1458
864.80 0.1457
864.90 0.1457
865.00 0.1456
865.10 0.1456
865.20 0.1455
865.30 0.1454
865.40 0.1454
865.50 0.1453
865.60 0.1452
865.70 0.1452
865.80 0.1451
865.90 0.145
866.00 0.145
866.10 0.1449
866.20 0.1449
866.30 0.1448
866.40 0.1447
866.50 0.1447
866.60 0.1446
866.70 0.1445
866.80 0.1445
866.90 0.1444
867.00 0.1443
867.10 0.1443
867.20 0.1442
867.30 0.1442
867.40 0.1441
867.50 0.144
867.60 0.144
867.70 0.1439
867.80 0.1439
867.90 0.1438
868.00 0.1437
868.10 0.1437
868.20 0.1436
868.30 0.1435
868.40 0.1435
868.50 0.1434
868.60 0.1434
868.70 0.1433
868.80 0.1432
868.90 0.1432
869.00 0.1431
869.10 0.1431
869.20 0.143
869.30 0.1429
869.40 0.1429
869.50 0.1428
869.60 0.1428
869.70 0.1427
869.80 0.1426
869.90 0.1426
870.00 0.1425
870.10 0.1425
870.20 0.1424
870.30 0.1423
870.40 0.1423
870.50 0.1422
870.60 0.1421
870.70 0.1421
870.80 0.142
870.90 0.142
871.00 0.1419
871.10 0.1418
871.20 0.1418
871.30 0.1417
871.40 0.1417
871.50 0.1416
871.60 0.1415
871.70 0.1415
871.80 0.1414
871.90 0.1414
872.00 0.1413
872.10 0.1412
872.20 0.1412
872.30 0.1411
872.40 0.1411
872.50 0.141
872.60 0.1409
872.70 0.1409
872.80 0.1408
872.90 0.1408
873.00 0.1407
873.10 0.1406
873.20 0.1406
873.30 0.1405
873.40 0.1405
873.50 0.1404
873.60 0.1403
873.70 0.1403
873.80 0.1402
873.90 0.1402
874.00 0.1401
874.10 0.14
874.20 0.14
874.30 0.1399
874.40 0.1399
874.50 0.1398
874.60 0.1397
874.70 0.1397
874.80 0.1396
874.90 0.1396
875.00 0.1395
875.10 0.1395
875.20 0.1394
875.30 0.1393
875.40 0.1393
875.50 0.1392
875.60 0.1392
875.70 0.1391
875.80 0.139
875.90 0.139
876.00 0.1389
876.10 0.1389
876.20 0.1388
876.30 0.1387
876.40 0.1387
876.50 0.1386
876.60 0.1386
876.70 0.1385
876.80 0.1384
876.90 0.1384
877.00 0.1383
877.10 0.1383
877.20 0.1382
877.30 0.1382
877.40 0.1381
877.50 0.138
877.60 0.138
877.70 0.1379
877.80 0.1379
877.90 0.1378
878.00 0.1378
878.10 0.1377
878.20 0.1376
878.30 0.1376
878.40 0.1375
878.50 0.1375
878.60 0.1374
878.70 0.1374
878.80 0.1373
878.90 0.1372
879.00 0.1372
879.10 0.1371
879.20 0.1371
879.30 0.137
879.40 0.137
879.50 0.1369
879.60 0.1368
879.70 0.1368
879.80 0.1367
879.90 0.1367
880.00 0.1366
880.10 0.1366
880.20 0.1365
880.30 0.1364
880.40 0.1364
880.50 0.1363
880.60 0.1363
880.70 0.1362
880.80 0.1362
880.90 0.1361
881.00 0.136
881.10 0.136
881.20 0.1359
881.30 0.1359
881.40 0.1358
881.50 0.1358
881.60 0.1357
881.70 0.1356
881.80 0.1356
881.90 0.1355
882.00 0.1355
882.10 0.1354
882.20 0.1354
882.30 0.1353
882.40 0.1353
882.50 0.1352
882.60 0.1351
882.70 0.1351
882.80 0.135
882.90 0.135
883.00 0.1349
883.10 0.1349
883.20 0.1348
883.30 0.1347
883.40 0.1347
883.50 0.1346
883.60 0.1346
883.70 0.1345
883.80 0.1345
883.90 0.1344
884.00 0.1344
884.10 0.1343
884.20 0.1342
884.30 0.1342
884.40 0.1341
884.50 0.1341
884.60 0.134
884.70 0.134
884.80 0.1339
884.90 0.1339
885.00 0.1338
885.10 0.1337
885.20 0.1337
885.30 0.1336
885.40 0.1336
885.50 0.1335
885.60 0.1335
885.70 0.1334
885.80 0.1334
885.90 0.1333
886.00 0.1332
886.10 0.1332
886.20 0.1331
886.30 0.1331
886.40 0.133
886.50 0.133
886.60 0.1329
886.70 0.1329
886.80 0.1328
886.90 0.1327
887.00 0.1327
887.10 0.1326
887.20 0.1326
887.30 0.1325
887.40 0.1325
887.50 0.1324
887.60 0.1324
887.70 0.1323
887.80 0.1323
887.90 0.1322
888.00 0.1322
888.10 0.1321
888.20 0.1321
888.30 0.132
888.40 0.1319
888.50 0.1319
888.60 0.1318
888.70 0.1318
888.80 0.1317
888.90 0.1317
889.00 0.1316
889.10 0.1316
889.20 0.1315
889.30 0.1315
889.40 0.1314
889.50 0.1314
889.60 0.1313
889.70 0.1313
889.80 0.1312
889.90 0.1312
890.00 0.1311
890.10 0.1311
890.20 0.131
890.30 0.131
890.40 0.1309
890.50 0.1308
890.60 0.1308
890.70 0.1307
890.80 0.1307
890.90 0.1306
891.00 0.1306
891.10 0.1305
891.20 0.1305
891.30 0.1304
891.40 0.1304
891.50 0.1303
891.60 0.1303
891.70 0.1302
891.80 0.1302
891.90 0.1301
892.00 0.1301
892.10 0.13
892.20 0.13
892.30 0.1299
892.40 0.1299
892.50 0.1298
892.60 0.1297
892.70 0.1297
892.80 0.1296
892.90 0.1296
893.00 0.1295
893.10 0.1295
893.20 0.1294
893.30 0.1294
893.40 0.1293
893.50 0.1293
893.60 0.1292
893.70 0.1292
893.80 0.1291
893.90 0.1291
894.00 0.129
894.10 0.129
894.20 0.1289
894.30 0.1288
894.40 0.1288
894.50 0.1287
894.60 0.1287
894.70 0.1286
894.80 0.1286
894.90 0.1285
895.00 0.1285
895.10 0.1284
895.20 0.1284
895.30 0.1283
895.40 0.1283
895.50 0.1282
895.60 0.1282
895.70 0.1281
895.80 0.1281
895.90 0.128
896.00 0.128
896.10 0.1279
896.20 0.1278
896.30 0.1278
896.40 0.1277
896.50 0.1277
896.60 0.1276
896.70 0.1276
896.80 0.1275
896.90 0.1275
897.00 0.1274
897.10 0.1274
897.20 0.1273
897.30 0.1273
897.40 0.1272
897.50 0.1272
897.60 0.1271
897.70 0.1271
897.80 0.127
897.90 0.127
898.00 0.1269
898.10 0.1269
898.20 0.1268
898.30 0.1267
898.40 0.1267
898.50 0.1266
898.60 0.1266
898.70 0.1265
898.80 0.1265
898.90 0.1264
899.00 0.1264
899.10 0.1263
899.20 0.1263
899.30 0.1262
899.40 0.1262
899.50 0.1261
899.60 0.1261
899.70 0.126
899.80 0.126
899.90 0.1259
900.00 0.1259
900.10 0.1258
900.20 0.1258
900.30 0.1257
900.40 0.1257
900.50 0.1256
900.60 0.1256
900.70 0.1255
900.80 0.1254
900.90 0.1254
901.00 0.1253
901.10 0.1253
901.20 0.1252
901.30 0.1252
901.40 0.1251
901.50 0.1251
901.60 0.125
901.70 0.125
901.80 0.1249
901.90 0.1249
902.00 0.1248
902.10 0.1248
902.20 0.1247
902.30 0.1247
902.40 0.1246
902.50 0.1246
902.60 0.1246
902.70 0.1245
902.80 0.1245
902.90 0.1244
903.00 0.1244
903.10 0.1243
903.20 0.1243
903.30 0.1242
903.40 0.1242
903.50 0.1241
903.60 0.1241
903.70 0.1241
903.80 0.124
903.90 0.124
904.00 0.1239
904.10 0.1239
904.20 0.1238
904.30 0.1238
904.40 0.1237
904.50 0.1237
904.60 0.1236
904.70 0.1236
904.80 0.1235
904.90 0.1235
905.00 0.1235
905.10 0.1234
905.20 0.1234
905.30 0.1233
905.40 0.1233
905.50 0.1232
905.60 0.1232
905.70 0.1231
905.80 0.1231
905.90 0.1231
906.00 0.123
906.10 0.123
906.20 0.1229
906.30 0.1229
906.40 0.1228
906.50 0.1228
906.60 0.1227
906.70 0.1227
906.80 0.1226
906.90 0.1226
907.00 0.1226
907.10 0.1225
907.20 0.1225
907.30 0.1224
907.40 0.1224
907.50 0.1223
907.60 0.1223
907.70 0.1222
907.80 0.1222
907.90 0.1221
908.00 0.1221
908.10 0.122
908.20 0.122
908.30 0.1219
908.40 0.1219
908.50 0.1218
908.60 0.1218
908.70 0.1217
908.80 0.1217
908.90 0.1216
909.00 0.1216
909.10 0.1216
909.20 0.1215
909.30 0.1215
909.40 0.1214
909.50 0.1214
909.60 0.1213
909.70 0.1213
909.80 0.1212
909.90 0.1212
910.00 0.1211
910.10 0.1211
910.20 0.121
910.30 0.121
910.40 0.1209
910.50 0.1209
910.60 0.1208
910.70 0.1208
910.80 0.1208
910.90 0.1207
911.00 0.1207
911.10 0.1206
911.20 0.1206
911.30 0.1205
911.40 0.1205
911.50 0.1204
911.60 0.1204
911.70 0.1203
911.80 0.1203
911.90 0.1202
912.00 0.1202
912.10 0.1201
912.20 0.1201
912.30 0.12
912.40 0.12
912.50 0.1199
912.60 0.1199
912.70 0.1198
912.80 0.1198
912.90 0.1197
913.00 0.1197
913.10 0.1196
913.20 0.1196
913.30 0.1195
913.40 0.1195
913.50 0.1194
913.60 0.1194
913.70 0.1193
913.80 0.1193
913.90 0.1192
914.00 0.1192
914.10 0.1191
914.20 0.1191
914.30 0.119
914.40 0.119
914.50 0.1189
914.60 0.1189
914.70 0.1188
914.80 0.1188
914.90 0.1187
915.00 0.1187
915.10 0.1186
915.20 0.1186
915.30 0.1185
915.40 0.1185
915.50 0.1184
915.60 0.1184
915.70 0.1183
915.80 0.1183
915.90 0.1182
916.00 0.1182
916.10 0.1181
916.20 0.1181
916.30 0.118
916.40 0.118
916.50 0.1179
916.60 0.1179
916.70 0.1178
916.80 0.1178
916.90 0.1177
917.00 0.1177
917.10 0.1176
917.20 0.1176
917.30 0.1175
917.40 0.1175
917.50 0.1174
917.60 0.1174
917.70 0.1173
917.80 0.1173
917.90 0.1172
918.00 0.1172
918.10 0.1171
918.20 0.1171
918.30 0.117
918.40 0.117
918.50 0.1169
918.60 0.1169
918.70 0.1168
918.80 0.1168
918.90 0.1167
919.00 0.1167
919.10 0.1166
919.20 0.1165
919.30 0.1165
919.40 0.1164
919.50 0.1164
919.60 0.1163
919.70 0.1163
919.80 0.1162
919.90 0.1162
920.00 0.1161
920.10 0.1161
920.20 0.116
920.30 0.116
920.40 0.1159
920.50 0.1159
920.60 0.1158
920.70 0.1158
920.80 0.1157
920.90 0.1157
921.00 0.1156
921.10 0.1156
921.20 0.1155
921.30 0.1155
921.40 0.1154
921.50 0.1154
921.60 0.1153
921.70 0.1153
921.80 0.1152
921.90 0.1152
922.00 0.1151
922.10 0.1151
922.20 0.115
922.30 0.115
922.40 0.115
922.50 0.1149
922.60 0.1149
922.70 0.1149
922.80 0.1148
922.90 0.1148
923.00 0.1147
923.10 0.1147
923.20 0.1147
923.30 0.1146
923.40 0.1146
923.50 0.1146
923.60 0.1145
923.70 0.1145
923.80 0.1144
923.90 0.1144
924.00 0.1144
924.10 0.1143
924.20 0.1143
924.30 0.1143
924.40 0.1142
924.50 0.1142
924.60 0.1142
924.70 0.1141
924.80 0.1141
924.90 0.114
925.00 0.114
925.10 0.114
925.20 0.1139
925.30 0.1139
925.40 0.1139
925.50 0.1138
925.60 0.1138
925.70 0.1137
925.80 0.1137
925.90 0.1137
926.00 0.1136
926.10 0.1136
926.20 0.1136
926.30 0.1135
926.40 0.1135
926.50 0.1134
926.60 0.1134
926.70 0.1134
926.80 0.1133
926.90 0.1133
927.00 0.1133
927.10 0.1132
927.20 0.1132
927.30 0.1132
927.40 0.1131
927.50 0.1131
927.60 0.113
927.70 0.113
927.80 0.113
927.90 0.1129
928.00 0.1129
928.10 0.1129
928.20 0.1128
928.30 0.1128
928.40 0.1128
928.50 0.1127
928.60 0.1127
928.70 0.1127
928.80 0.1126
928.90 0.1126
929.00 0.1125
929.10 0.1125
929.20 0.1125
929.30 0.1124
929.40 0.1124
929.50 0.1124
929.60 0.1123
929.70 0.1123
929.80 0.1123
929.90 0.1122
930.00 0.1122
930.10 0.1122
930.20 0.1121
930.30 0.1121
930.40 0.1121
930.50 0.112
930.60 0.112
930.70 0.1119
930.80 0.1119
930.90 0.1119
931.00 0.1118
931.10 0.1118
931.20 0.1118
931.30 0.1117
931.40 0.1117
931.50 0.1117
931.60 0.1116
931.70 0.1116
931.80 0.1116
931.90 0.1115
932.00 0.1115
932.10 0.1114
932.20 0.1114
932.30 0.1114
932.40 0.1113
932.50 0.1113
932.60 0.1112
932.70 0.1112
932.80 0.1112
932.90 0.1111
933.00 0.1111
933.10 0.1111
933.20 0.111
933.30 0.111
933.40 0.1109
933.50 0.1109
933.60 0.1109
933.70 0.1108
933.80 0.1108
933.90 0.1107
934.00 0.1107
934.10 0.1107
934.20 0.1106
934.30 0.1106
934.40 0.1105
934.50 0.1105
934.60 0.1105
934.70 0.1104
934.80 0.1104
934.90 0.1103
935.00 0.1103
935.10 0.1103
935.20 0.1102
935.30 0.1102
935.40 0.1101
935.50 0.1101
935.60 0.11
935.70 0.11
935.80 0.11
935.90 0.1099
936.00 0.1099
936.10 0.1098
936.20 0.1098
936.30 0.1097
936.40 0.1097
936.50 0.1097
936.60 0.1096
936.70 0.1096
936.80 0.1095
936.90 0.1095
937.00 0.1095
937.10 0.1094
937.20 0.1094
937.30 0.1093
937.40 0.1093
937.50 0.1092
937.60 0.1092
937.70 0.1091
937.80 0.1091
937.90 0.1091
938.00 0.109
938.10 0.109
938.20 0.1089
938.30 0.1089
938.40 0.1088
938.50 0.1088
938.60 0.1087
938.70 0.1087
938.80 0.1087
938.90 0.1086
939.00 0.1086
939.10 0.1085
939.20 0.1085
939.30 0.1084
939.40 0.1084
939.50 0.1083
939.60 0.1083
939.70 0.1082
939.80 0.1082
939.90 0.1081
940.00 0.1081
940.10 0.1081
940.20 0.108
940.30 0.108
940.40 0.1079
940.50 0.1079
940.60 0.1078
940.70 0.1078
940.80 0.1077
940.90 0.1077
941.00 0.1076
941.10 0.1076
941.20 0.1075
941.30 0.1075
941.40 0.1074
941.50 0.1074
941.60 0.1073
941.70 0.1073
941.80 0.1072
941.90 0.1072
942.00 0.1071
942.10 0.1071
942.20 0.107
942.30 0.107
942.40 0.1069
942.50 0.1069
942.60 0.1068
942.70 0.1068
942.80 0.1067
942.90 0.1067
943.00 0.1066
943.10 0.1066
943.20 0.1065
943.30 0.1065
943.40 0.1064
943.50 0.1064
943.60 0.1063
943.70 0.1063
943.80 0.1062
943.90 0.1062
944.00 0.1061
944.10 0.1061
944.20 0.106
944.30 0.106
944.40 0.1059
944.50 0.1059
944.60 0.1058
944.70 0.1058
944.80 0.1057
944.90 0.1056
945.00 0.1056
945.10 0.1055
945.20 0.1055
945.30 0.1054
945.40 0.1054
945.50 0.1053
945.60 0.1053
945.70 0.1052
945.80 0.1052
945.90 0.1051
946.00 0.1051
946.10 0.105
946.20 0.1049
946.30 0.1049
946.40 0.1048
946.50 0.1048
946.60 0.1047
946.70 0.1047
946.80 0.1046
946.90 0.1046
947.00 0.1045
947.10 0.1044
947.20 0.1044
947.30 0.1043
947.40 0.1043
947.50 0.1042
947.60 0.1042
947.70 0.1041
947.80 0.1041
947.90 0.104
948.00 0.1039
948.10 0.1039
948.20 0.1038
948.30 0.1038
948.40 0.1037
948.50 0.1037
948.60 0.1036
948.70 0.1035
948.80 0.1035
948.90 0.1034
949.00 0.1034
949.10 0.1033
949.20 0.1033
949.30 0.1032
949.40 0.1031
949.50 0.1031
949.60 0.103
949.70 0.103
949.80 0.1029
949.90 0.1028
950.00 0.1028
950.10 0.1027
950.20 0.1027
950.30 0.1026
950.40 0.1025
950.50 0.1025
950.60 0.1024
950.70 0.1024
950.80 0.1023
950.90 0.1023
951.00 0.1022
951.10 0.1021
951.20 0.1021
951.30 0.102
951.40 0.102
951.50 0.1019
951.60 0.1018
951.70 0.1018
951.80 0.1017
951.90 0.1017
952.00 0.1016
952.10 0.1015
952.20 0.1015
952.30 0.1014
952.40 0.1014
952.50 0.1013
952.60 0.1012
952.70 0.1012
952.80 0.1011
952.90 0.1011
953.00 0.101
953.10 0.101
953.20 0.1009
953.30 0.1008
953.40 0.1008
953.50 0.1007
953.60 0.1007
953.70 0.1006
953.80 0.1006
953.90 0.1005
954.00 0.1004
954.10 0.1004
954.20 0.1003
954.30 0.1003
954.40 0.1002
954.50 0.1002
954.60 0.1002
954.70 0.1001
954.80 0.1001
954.90 0.1001
955.00 0.1001
955.10 0.1
955.20 0.1
955.30 0.1
955.40 0.09999
955.50 0.09998
955.60 0.09997
955.70 0.09995
955.80 0.09994
955.90 0.09992
956.00 0.09991
956.10 0.0999
956.20 0.09989
956.30 0.09988
956.40 0.09986
956.50 0.09985
956.60 0.09984
956.70 0.09983
956.80 0.09982
956.90 0.09981
957.00 0.09979
957.10 0.09978
957.20 0.09977
957.30 0.09976
957.40 0.09975
957.50 0.09973
957.60 0.09972
957.70 0.09971
957.80 0.0997
957.90 0.09969
958.00 0.09967
958.10 0.09966
958.20 0.09965
958.30 0.09964
958.40 0.09962
958.50 0.09961
958.60 0.0996
958.70 0.09959
958.80 0.09957
958.90 0.09956
959.00 0.09955
959.10 0.09954
959.20 0.09953
959.30 0.09951
959.40 0.0995
959.50 0.09948
959.60 0.09947
959.70 0.09946
959.80 0.09944
959.90 0.09943
960.00 0.09941
960.10 0.0994
960.20 0.09938
960.30 0.09937
960.40 0.09935
960.50 0.09934
960.60 0.09933
960.70 0.09931
960.80 0.0993
960.90 0.09928
961.00 0.09927
961.10 0.09925
961.20 0.09924
961.30 0.09923
961.40 0.09921
961.50 0.09919
961.60 0.09918
961.70 0.09916
961.80 0.09914
961.90 0.09913
962.00 0.09911
962.10 0.09909
962.20 0.09908
962.30 0.09906
962.40 0.09904
962.50 0.09902
962.60 0.09901
962.70 0.09899
962.80 0.09897
962.90 0.09895
963.00 0.09894
963.10 0.09892
963.20 0.0989
963.30 0.09888
963.40 0.09886
963.50 0.09884
963.60 0.09883
963.70 0.09881
963.80 0.09879
963.90 0.09877
964.00 0.09875
964.10 0.09873
964.20 0.09871
964.30 0.09869
964.40 0.09867
964.50 0.09865
964.60 0.09863
964.70 0.09861
964.80 0.09858
964.90 0.09856
965.00 0.09854
965.10 0.09852
965.20 0.0985
965.30 0.09848
965.40 0.09846
965.50 0.09843
965.60 0.09841
965.70 0.09839
965.80 0.09837
965.90 0.09835
966.00 0.09833
966.10 0.09831
966.20 0.09829
966.30 0.09826
966.40 0.09824
966.50 0.09822
966.60 0.09819
966.70 0.09817
966.80 0.09815
966.90 0.09812
967.00 0.0981
967.10 0.09808
967.20 0.09805
967.30 0.09803
967.40 0.098
967.50 0.09798
967.60 0.09795
967.70 0.09793
967.80 0.0979
967.90 0.09788
968.00 0.09785
968.10 0.09783
968.20 0.09781
968.30 0.09778
968.40 0.09775
968.50 0.09773
968.60 0.0977
968.70 0.09767
968.80 0.09765
968.90 0.09762
969.00 0.09759
969.10 0.09757
969.20 0.09754
969.30 0.09751
969.40 0.09749
969.50 0.09746
969.60 0.09743
969.70 0.09741
969.80 0.09738
969.90 0.09735
970.00 0.09733
970.10 0.0973
970.20 0.09727
970.30 0.09724
970.40 0.09722
970.50 0.09719
970.60 0.09716
970.70 0.09713
970.80 0.0971
970.90 0.09707
971.00 0.09704
971.10 0.09701
971.20 0.09698
971.30 0.09695
971.40 0.09692
971.50 0.09689
971.60 0.09686
971.70 0.09684
971.80 0.09681
971.90 0.09678
972.00 0.09675
972.10 0.09672
972.20 0.09668
972.30 0.09665
972.40 0.09662
972.50 0.09659
972.60 0.09656
972.70 0.09653
972.80 0.09649
972.90 0.09646
973.00 0.09643
973.10 0.0964
973.20 0.09637
973.30 0.09634
973.40 0.0963
973.50 0.09627
973.60 0.09624
973.70 0.09621
973.80 0.09618
973.90 0.09615
974.00 0.09611
974.10 0.09608
974.20 0.09605
974.30 0.09602
974.40 0.09598
974.50 0.09595
974.60 0.09592
974.70 0.09588
974.80 0.09585
974.90 0.09581
975.00 0.09578
975.10 0.09574
975.20 0.09571
975.30 0.09567
975.40 0.09564
975.50 0.0956
975.60 0.09557
975.70 0.09553
975.80 0.0955
975.90 0.09546
976.00 0.09543
976.10 0.09539
976.20 0.09536
976.30 0.09533
976.40 0.09529
976.50 0.09526
976.60 0.09522
976.70 0.09519
976.80 0.09515
976.90 0.09512
977.00 0.09508
977.10 0.09504
977.20 0.095
977.30 0.09496
977.40 0.09492
977.50 0.09489
977.60 0.09485
977.70 0.09481
977.80 0.09477
977.90 0.09473
978.00 0.09469
978.10 0.09465
978.20 0.09461
978.30 0.09457
978.40 0.09453
978.50 0.09449
978.60 0.09445
978.70 0.09441
978.80 0.09437
978.90 0.09433
979.00 0.09429
979.10 0.09425
979.20 0.09421
979.30 0.09417
979.40 0.09413
979.50 0.0941
979.60 0.09406
979.70 0.09402
979.80 0.09398
979.90 0.09394
980.00 0.0939
980.10 0.09386
980.20 0.09382
980.30 0.09378
980.40 0.09374
980.50 0.0937
980.60 0.09366
980.70 0.09362
980.80 0.09359
980.90 0.09355
981.00 0.09351
981.10 0.09347
981.20 0.09343
981.30 0.09339
981.40 0.09335
981.50 0.09331
981.60 0.09327
981.70 0.09323
981.80 0.09319
981.90 0.09316
982.00 0.09312
982.10 0.09307
982.20 0.09303
982.30 0.09298
982.40 0.09294
982.50 0.09289
982.60 0.09285
982.70 0.09281
982.80 0.09276
982.90 0.09272
983.00 0.09267
983.10 0.09263
983.20 0.09258
983.30 0.09254
983.40 0.09249
983.50 0.09245
983.60 0.09241
983.70 0.09236
983.80 0.09232
983.90 0.09227
984.00 0.09223
984.10 0.09219
984.20 0.09214
984.30 0.0921
984.40 0.09205
984.50 0.09201
984.60 0.09197
984.70 0.09192
984.80 0.09187
984.90 0.09182
985.00 0.09177
985.10 0.09173
985.20 0.09168
985.30 0.09163
985.40 0.09158
985.50 0.09153
985.60 0.09149
985.70 0.09144
985.80 0.09139
985.90 0.09134
986.00 0.09129
986.10 0.09125
986.20 0.0912
986.30 0.09115
986.40 0.0911
986.50 0.09106
986.60 0.09101
986.70 0.09096
986.80 0.09091
986.90 0.09087
987.00 0.09082
987.10 0.09077
987.20 0.09072
987.30 0.09066
987.40 0.09061
987.50 0.09056
987.60 0.09051
987.70 0.09046
987.80 0.09041
987.90 0.09036
988.00 0.09031
988.10 0.09026
988.20 0.0902
988.30 0.09015
988.40 0.0901
988.50 0.09005
988.60 0.09
988.70 0.08995
988.80 0.08989
988.90 0.08984
989.00 0.08978
989.10 0.08973
989.20 0.08968
989.30 0.08962
989.40 0.08957
989.50 0.08951
989.60 0.08946
989.70 0.0894
989.80 0.08935
989.90 0.0893
990.00 0.08924
990.10 0.08919
990.20 0.08913
990.30 0.08908
990.40 0.08903
990.50 0.08897
990.60 0.08892
990.70 0.08886
990.80 0.0888
990.90 0.08875
991.00 0.08869
991.10 0.08863
991.20 0.08857
991.30 0.08852
991.40 0.08846
991.50 0.0884
991.60 0.08835
991.70 0.08829
991.80 0.08823
991.90 0.08817
992.00 0.08812
992.10 0.08806
992.20 0.088
992.30 0.08794
992.40 0.08788
992.50 0.08782
992.60 0.08776
992.70 0.0877
992.80 0.08764
992.90 0.08757
993.00 0.08751
993.10 0.08745
993.20 0.08739
993.30 0.08732
993.40 0.08726
993.50 0.0872
993.60 0.08714
993.70 0.08708
993.80 0.08701
993.90 0.08695
994.00 0.08689
994.10 0.08683
994.20 0.08677
994.30 0.0867
994.40 0.08664
994.50 0.08658
994.60 0.08652
994.70 0.08645
994.80 0.08639
994.90 0.08632
995.00 0.08626
995.10 0.08619
995.20 0.08613
995.30 0.08606
995.40 0.086
995.50 0.08593
995.60 0.08586
995.70 0.0858
995.80 0.08573
995.90 0.08566
996.00 0.08559
996.10 0.08552
996.20 0.08546
996.30 0.08539
996.40 0.08532
996.50 0.08525
996.60 0.08518
996.70 0.08512
996.80 0.08505
996.90 0.08498
997.00 0.08491
997.10 0.08484
997.20 0.08477
997.30 0.0847
997.40 0.08463
997.50 0.08456
997.60 0.08449
997.70 0.08442
997.80 0.08434
997.90 0.08427
998.00 0.0842
998.10 0.08412
998.20 0.08405
998.30 0.08398
998.40 0.0839
998.50 0.08383
998.60 0.08376
998.70 0.08369
998.80 0.08361
998.90 0.08354
999.00 0.08347
999.10 0.08339
999.20 0.08332
999.30 0.08325
999.40 0.08317
999.50 0.0831
999.60 0.08303
999.70 0.08295
999.80 0.08288
999.90 0.0828
1000.00 0.08273
1000.10 0.08265
1000.20 0.08258
1000.30 0.0825
1000.40 0.08242
1000.50 0.08235
1000.60 0.08227
1000.70 0.0822
1000.80 0.08212
1000.90 0.08205
1001.00 0.08197
1001.10 0.0819
1001.20 0.08182
1001.30 0.08174
1001.40 0.08167
1001.50 0.08159
1001.60 0.08152
1001.70 0.08144
1001.80 0.08137
1001.90 0.08129
1002.00 0.08122
1002.10 0.08114
1002.20 0.08107
1002.30 0.081
1002.40 0.08092
1002.50 0.08085
1002.60 0.08078
1002.70 0.0807
1002.80 0.08063
1002.90 0.08056
1003.00 0.08049
1003.10 0.08041
1003.20 0.08034
1003.30 0.08028
1003.40 0.08021
1003.50 0.08015
1003.60 0.08008
1003.70 0.08002
1003.80 0.07995
1003.90 0.07989
1004.00 0.07984
1004.10 0.07978
1004.20 0.07973
1004.30 0.07968
1004.40 0.07964
1004.50 0.0796
1004.60 0.07957
1004.70 0.07955
1004.80 0.07954
1004.90 0.07951
1005.00 0.07949
1005.10 0.07946
1005.20 0.07943
1005.30 0.07939
1005.40 0.07936
1005.50 0.07935
1005.60 0.07935
1005.70 0.07935
1005.80 0.07935
1005.90 0.07935
1006.00 0.07934
1006.10 0.07934
1006.20 0.07935
1006.30 0.07937
1006.40 0.07938
1006.50 0.07939
1006.60 0.0794
1006.70 0.07942
1006.80 0.07943
1006.90 0.07944
1007.00 0.07945
1007.10 0.07947
1007.20 0.07949
1007.30 0.07951
1007.40 0.07953
1007.50 0.07954
1007.60 0.07956
1007.70 0.07958
1007.80 0.0796
1007.90 0.07962
1008.00 0.07964
1008.10 0.07966
1008.20 0.07968
1008.30 0.0797
1008.40 0.07972
1008.50 0.07974
1008.60 0.07976
1008.70 0.07978
1008.80 0.0798
1008.90 0.07982
1009.00 0.07984
1009.10 0.07985
1009.20 0.07987
1009.30 0.07989
1009.40 0.07991
1009.50 0.07993
1009.60 0.07995
1009.70 0.07997
1009.80 0.07999
1009.90 0.08
1010.00 0.08002
1010.10 0.08003
1010.20 0.08005
1010.30 0.08007
1010.40 0.08008
1010.50 0.0801
1010.60 0.08012
1010.70 0.08013
1010.80 0.08015
1010.90 0.08017
1011.00 0.08018
1011.10 0.0802
1011.20 0.08022
1011.30 0.08023
1011.40 0.08025
1011.50 0.08026
1011.60 0.08028
1011.70 0.08029
1011.80 0.08031
1011.90 0.08032
1012.00 0.08034
1012.10 0.08035
1012.20 0.08036
1012.30 0.08037
1012.40 0.08038
1012.50 0.08039
1012.60 0.0804
1012.70 0.08041
1012.80 0.08042
1012.90 0.08043
1013.00 0.08044
1013.10 0.08045
1013.20 0.08047
1013.30 0.08048
1013.40 0.08049
1013.50 0.0805
1013.60 0.08051
1013.70 0.08052
1013.80 0.08052
1013.90 0.08053
1014.00 0.08054
1014.10 0.08055
1014.20 0.08055
1014.30 0.08056
1014.40 0.08057
1014.50 0.08058
1014.60 0.08058
1014.70 0.08059
1014.80 0.08059
1014.90 0.08059
1015.00 0.0806
1015.10 0.0806
1015.20 0.0806
1015.30 0.08061
1015.40 0.08061
1015.50 0.08062
1015.60 0.08062
1015.70 0.08062
1015.80 0.08063
1015.90 0.08063
1016.00 0.08063
1016.10 0.08064
1016.20 0.08064
1016.30 0.08064
1016.40 0.08065
1016.50 0.08065
1016.60 0.08065
1016.70 0.08066
1016.80 0.08066
1016.90 0.08066
1017.00 0.08066
1017.10 0.08066
1017.20 0.08065
1017.30 0.08065
1017.40 0.08065
1017.50 0.08065
1017.60 0.08065
1017.70 0.08065
1017.80 0.08065
1017.90 0.08064
1018.00 0.08064
1018.10 0.08064
1018.20 0.08064
1018.30 0.08064
1018.40 0.08064
1018.50 0.08063
1018.60 0.08063
1018.70 0.08063
1018.80 0.08062
1018.90 0.08062
1019.00 0.08061
1019.10 0.08061
1019.20 0.0806
1019.30 0.0806
1019.40 0.08059
1019.50 0.08059
1019.60 0.08058
1019.70 0.08058
1019.80 0.08057
1019.90 0.08057
1020.00 0.08056
1020.10 0.08056
1020.20 0.08055
1020.30 0.08055
1020.40 0.08054
1020.50 0.08054
1020.60 0.08053
1020.70 0.08052
1020.80 0.08051
1020.90 0.08051
1021.00 0.0805
1021.10 0.08049
1021.20 0.08048
1021.30 0.08047
1021.40 0.08046
1021.50 0.08046
1021.60 0.08045
1021.70 0.08044
1021.80 0.08043
1021.90 0.08042
1022.00 0.08042
1022.10 0.0804
1022.20 0.08039
1022.30 0.08038
1022.40 0.08037
1022.50 0.08036
1022.60 0.08035
1022.70 0.08034
1022.80 0.08033
1022.90 0.08031
1023.00 0.0803
1023.10 0.08029
1023.20 0.08028
1023.30 0.08027
1023.40 0.08026
1023.50 0.08025
1023.60 0.08023
1023.70 0.08022
1023.80 0.08021
1023.90 0.0802
1024.00 0.08019
1024.10 0.08018
1024.20 0.08017
1024.30 0.08016
1024.40 0.08014
1024.50 0.08013
1024.60 0.08012
1024.70 0.08011
1024.80 0.08009
1024.90 0.08008
1025.00 0.08006
1025.10 0.08005
1025.20 0.08003
1025.30 0.08002
1025.40 0.08001
1025.50 0.07999
1025.60 0.07998
1025.70 0.07996
1025.80 0.07995
1025.90 0.07993
1026.00 0.07992
1026.10 0.0799
1026.20 0.07989
1026.30 0.07987
1026.40 0.07986
1026.50 0.07985
1026.60 0.07983
1026.70 0.07982
1026.80 0.0798
1026.90 0.07979
1027.00 0.07977
1027.10 0.07975
1027.20 0.07974
1027.30 0.07972
1027.40 0.0797
1027.50 0.07968
1027.60 0.07966
1027.70 0.07964
1027.80 0.07963
1027.90 0.07961
1028.00 0.07959
1028.10 0.07957
1028.20 0.07955
1028.30 0.07953
1028.40 0.07952
1028.50 0.0795
1028.60 0.07948
1028.70 0.07946
1028.80 0.07944
1028.90 0.07942
1029.00 0.07941
1029.10 0.07939
1029.20 0.07937
1029.30 0.07935
1029.40 0.07933
1029.50 0.07931
1029.60 0.0793
1029.70 0.07928
1029.80 0.07926
1029.90 0.07924
1030.00 0.07922
1030.10 0.07921
1030.20 0.07919
1030.30 0.07917
1030.40 0.07915
1030.50 0.07913
1030.60 0.07911
1030.70 0.0791
1030.80 0.07908
1030.90 0.07906
1031.00 0.07904
1031.10 0.07902
1031.20 0.07901
1031.30 0.07899
1031.40 0.07897
1031.50 0.07895
1031.60 0.07893
1031.70 0.07891
1031.80 0.0789
1031.90 0.07888
1032.00 0.07886
1032.10 0.07884
1032.20 0.07882
1032.30 0.07879
1032.40 0.07877
1032.50 0.07875
1032.60 0.07873
1032.70 0.07871
1032.80 0.07868
1032.90 0.07866
1033.00 0.07864
1033.10 0.07862
1033.20 0.0786
1033.30 0.07857
1033.40 0.07855
1033.50 0.07853
1033.60 0.07851
1033.70 0.07849
1033.80 0.07846
1033.90 0.07844
1034.00 0.07842
1034.10 0.0784
1034.20 0.07838
1034.30 0.07836
1034.40 0.07833
1034.50 0.07831
1034.60 0.07829
1034.70 0.07827
1034.80 0.07825
1034.90 0.07822
1035.00 0.0782
1035.10 0.07818
1035.20 0.07816
1035.30 0.07814
1035.40 0.07812
1035.50 0.07809
1035.60 0.07807
1035.70 0.07805
1035.80 0.07803
1035.90 0.07801
1036.00 0.07798
1036.10 0.07796
1036.20 0.07794
1036.30 0.07792
1036.40 0.0779
1036.50 0.07788
1036.60 0.07785
1036.70 0.07783
1036.80 0.07781
1036.90 0.07779
1037.00 0.07777
1037.10 0.07774
1037.20 0.07772
1037.30 0.07769
1037.40 0.07767
1037.50 0.07764
1037.60 0.07762
1037.70 0.0776
1037.80 0.07757
1037.90 0.07755
1038.00 0.07752
1038.10 0.0775
1038.20 0.07747
1038.30 0.07745
1038.40 0.07742
1038.50 0.0774
1038.60 0.07738
1038.70 0.07735
1038.80 0.07733
1038.90 0.0773
1039.00 0.07728
1039.10 0.07725
1039.20 0.07723
1039.30 0.0772
1039.40 0.07718
1039.50 0.07716
1039.60 0.07713
1039.70 0.07711
1039.80 0.07708
1039.90 0.07706
1040.00 0.07703
1040.10 0.07701
1040.20 0.07699
1040.30 0.07696
1040.40 0.07694
1040.50 0.07691
1040.60 0.07689
1040.70 0.07686
1040.80 0.07684
1040.90 0.07682
1041.00 0.07679
1041.10 0.07677
1041.20 0.07674
1041.30 0.07672
1041.40 0.0767
1041.50 0.07667
1041.60 0.07665
1041.70 0.07662
1041.80 0.0766
1041.90 0.07657
1042.00 0.07655
1042.10 0.07652
1042.20 0.0765
1042.30 0.07647
1042.40 0.07644
1042.50 0.07642
1042.60 0.07639
1042.70 0.07637
1042.80 0.07634
1042.90 0.07631
1043.00 0.07629
1043.10 0.07626
1043.20 0.07623
1043.30 0.07621
1043.40 0.07618
1043.50 0.07615
1043.60 0.07613
1043.70 0.0761
1043.80 0.07608
1043.90 0.07605
1044.00 0.07602
1044.10 0.076
1044.20 0.07597
1044.30 0.07594
1044.40 0.07592
1044.50 0.07589
1044.60 0.07587
1044.70 0.07584
1044.80 0.07581
1044.90 0.07579
1045.00 0.07576
1045.10 0.07574
1045.20 0.07571
1045.30 0.07568
1045.40 0.07566
1045.50 0.07563
1045.60 0.0756
1045.70 0.07558
1045.80 0.07555
1045.90 0.07553
1046.00 0.0755
1046.10 0.07547
1046.20 0.07545
1046.30 0.07542
1046.40 0.0754
1046.50 0.07537
1046.60 0.07534
1046.70 0.07532
1046.80 0.07529
1046.90 0.07527
1047.00 0.07524
1047.10 0.07521
1047.20 0.07518
1047.30 0.07516
1047.40 0.07513
1047.50 0.0751
1047.60 0.07507
1047.70 0.07504
1047.80 0.07502
1047.90 0.07499
1048.00 0.07496
1048.10 0.07493
1048.20 0.0749
1048.30 0.07488
1048.40 0.07485
1048.50 0.07482
1048.60 0.07479
1048.70 0.07477
1048.80 0.07474
1048.90 0.07471
1049.00 0.07468
1049.10 0.07465
1049.20 0.07463
1049.30 0.0746
1049.40 0.07457
1049.50 0.07454
1049.60 0.07451
1049.70 0.07449
1049.80 0.07446
1049.90 0.07443
1050.00 0.0744
1050.10 0.07438
1050.20 0.07435
1050.30 0.07432
1050.40 0.07429
1050.50 0.07427
1050.60 0.07424
1050.70 0.07421
1050.80 0.07418
1050.90 0.07415
1051.00 0.07413
1051.10 0.0741
1051.20 0.07407
1051.30 0.07404
1051.40 0.07402
1051.50 0.07399
1051.60 0.07396
1051.70 0.07393
1051.80 0.07391
1051.90 0.07388
1052.00 0.07385
1052.10 0.07382
1052.20 0.07379
1052.30 0.07376
1052.40 0.07373
1052.50 0.0737
1052.60 0.07367
1052.70 0.07364
1052.80 0.07361
1052.90 0.07358
1053.00 0.07355
1053.10 0.07353
1053.20 0.0735
1053.30 0.07347
1053.40 0.07344
1053.50 0.07341
1053.60 0.07338
1053.70 0.07335
1053.80 0.07332
1053.90 0.07329
1054.00 0.07326
1054.10 0.07323
1054.20 0.0732
1054.30 0.07317
1054.40 0.07314
1054.50 0.07311
1054.60 0.07308
1054.70 0.07305
1054.80 0.07302
1054.90 0.07299
1055.00 0.07296
1055.10 0.07294
1055.20 0.07291
1055.30 0.07288
1055.40 0.07285
1055.50 0.07282
1055.60 0.07279
1055.70 0.07276
1055.80 0.07273
1055.90 0.0727
1056.00 0.07267
1056.10 0.07264
1056.20 0.07261
1056.30 0.07258
1056.40 0.07255
1056.50 0.07253
1056.60 0.0725
1056.70 0.07247
1056.80 0.07244
1056.90 0.07241
1057.00 0.07238
1057.10 0.07235
1057.20 0.07232
1057.30 0.07228
1057.40 0.07225
1057.50 0.07222
1057.60 0.07219
1057.70 0.07216
1057.80 0.07213
1057.90 0.07209
1058.00 0.07206
1058.10 0.07203
1058.20 0.072
1058.30 0.07197
1058.40 0.07194
1058.50 0.0719
1058.60 0.07187
1058.70 0.07184
1058.80 0.07181
1058.90 0.07178
1059.00 0.07175
1059.10 0.07172
1059.20 0.07168
1059.30 0.07165
1059.40 0.07162
1059.50 0.07159
1059.60 0.07156
1059.70 0.07153
1059.80 0.07149
1059.90 0.07146
1060.00 0.07143
1060.10 0.0714
1060.20 0.07137
1060.30 0.07134
1060.40 0.07131
1060.50 0.07128
1060.60 0.07124
1060.70 0.07121
1060.80 0.07118
1060.90 0.07115
1061.00 0.07112
1061.10 0.07109
1061.20 0.07106
1061.30 0.07102
1061.40 0.07099
1061.50 0.07096
1061.60 0.07093
1061.70 0.0709
1061.80 0.07087
1061.90 0.07084
1062.00 0.07081
1062.10 0.07077
1062.20 0.07074
1062.30 0.0707
1062.40 0.07067
1062.50 0.07063
1062.60 0.0706
1062.70 0.07056
1062.80 0.07053
1062.90 0.0705
1063.00 0.07046
1063.10 0.07043
1063.20 0.07039
1063.30 0.07036
1063.40 0.07032
1063.50 0.07029
1063.60 0.07026
1063.70 0.07022
1063.80 0.07019
1063.90 0.07015
1064.00 0.07012
1064.10 0.07008
1064.20 0.07005
1064.30 0.07002
1064.40 0.06998
1064.50 0.06995
1064.60 0.06991
1064.70 0.06988
1064.80 0.06984
1064.90 0.06981
1065.00 0.06978
1065.10 0.06974
1065.20 0.06971
1065.30 0.06967
1065.40 0.06964
1065.50 0.0696
1065.60 0.06957
1065.70 0.06954
1065.80 0.0695
1065.90 0.06947
1066.00 0.06943
1066.10 0.0694
1066.20 0.06937
1066.30 0.06933
1066.40 0.0693
1066.50 0.06926
1066.60 0.06923
1066.70 0.0692
1066.80 0.06916
1066.90 0.06913
1067.00 0.06909
1067.10 0.06906
1067.20 0.06902
1067.30 0.06898
1067.40 0.06894
1067.50 0.0689
1067.60 0.06886
1067.70 0.06882
1067.80 0.06879
1067.90 0.06875
1068.00 0.06871
1068.10 0.06867
1068.20 0.06863
1068.30 0.06859
1068.40 0.06856
1068.50 0.06852
1068.60 0.06848
1068.70 0.06844
1068.80 0.0684
1068.90 0.06836
1069.00 0.06833
1069.10 0.06829
1069.20 0.06825
1069.30 0.06821
1069.40 0.06817
1069.50 0.06813
1069.60 0.0681
1069.70 0.06806
1069.80 0.06802
1069.90 0.06798
1070.00 0.06794
1070.10 0.06791
1070.20 0.06787
1070.30 0.06783
1070.40 0.06779
1070.50 0.06775
1070.60 0.06771
1070.70 0.06768
1070.80 0.06764
1070.90 0.0676
1071.00 0.06756
1071.10 0.06752
1071.20 0.06749
1071.30 0.06745
1071.40 0.06741
1071.50 0.06737
1071.60 0.06733
1071.70 0.0673
1071.80 0.06726
1071.90 0.06722
1072.00 0.06718
1072.10 0.06714
1072.20 0.0671
1072.30 0.06706
1072.40 0.06702
1072.50 0.06697
1072.60 0.06693
1072.70 0.06689
1072.80 0.06685
1072.90 0.06681
1073.00 0.06677
1073.10 0.06672
1073.20 0.06668
1073.30 0.06664
1073.40 0.0666
1073.50 0.06656
1073.60 0.06651
1073.70 0.06647
1073.80 0.06642
1073.90 0.06638
1074.00 0.06633
1074.10 0.06628
1074.20 0.06624
1074.30 0.06619
1074.40 0.06615
1074.50 0.0661
1074.60 0.06606
1074.70 0.06601
1074.80 0.06597
1074.90 0.06592
1075.00 0.06588
1075.10 0.06583
1075.20 0.06579
1075.30 0.06574
1075.40 0.0657
1075.50 0.06565
1075.60 0.06561
1075.70 0.06556
1075.80 0.06552
1075.90 0.06547
1076.00 0.06543
1076.10 0.06538
1076.20 0.06534
1076.30 0.06529
1076.40 0.06525
1076.50 0.0652
1076.60 0.06516
1076.70 0.06511
1076.80 0.06507
1076.90 0.06502
1077.00 0.06498
1077.10 0.06493
1077.20 0.06488
1077.30 0.06484
1077.40 0.06479
1077.50 0.06474
1077.60 0.06469
1077.70 0.06464
1077.80 0.06459
1077.90 0.06454
1078.00 0.06449
1078.10 0.06444
1078.20 0.06439
1078.30 0.06434
1078.40 0.06429
1078.50 0.06424
1078.60 0.06418
1078.70 0.06413
1078.80 0.06408
1078.90 0.06403
1079.00 0.06398
1079.10 0.06393
1079.20 0.06388
1079.30 0.06383
1079.40 0.06378
1079.50 0.06373
1079.60 0.06368
1079.70 0.06362
1079.80 0.06357
1079.90 0.06351
1080.00 0.06346
1080.10 0.06341
1080.20 0.06335
1080.30 0.0633
1080.40 0.06324
1080.50 0.06319
1080.60 0.06313
1080.70 0.06308
1080.80 0.06303
1080.90 0.06297
1081.00 0.06292
1081.10 0.06286
1081.20 0.06281
1081.30 0.06276
1081.40 0.0627
1081.50 0.06265
1081.60 0.06259
1081.70 0.06253
1081.80 0.06248
1081.90 0.06242
1082.00 0.06236
1082.10 0.0623
1082.20 0.06224
1082.30 0.06218
1082.40 0.06213
1082.50 0.06207
1082.60 0.06201
1082.70 0.06195
1082.80 0.06189
1082.90 0.06183
1083.00 0.06177
1083.10 0.06171
1083.20 0.06165
1083.30 0.06159
1083.40 0.06153
1083.50 0.06147
1083.60 0.06141
1083.70 0.06135
1083.80 0.06129
1083.90 0.06122
1084.00 0.06116
1084.10 0.0611
1084.20 0.06104
1084.30 0.06098
1084.40 0.06091
1084.50 0.06085
1084.60 0.06078
1084.70 0.06072
1084.80 0.06065
1084.90 0.06058
1085.00 0.06052
1085.10 0.06045
1085.20 0.06038
1085.30 0.06032
1085.40 0.06025
1085.50 0.06019
1085.60 0.06012
1085.70 0.06005
1085.80 0.05999
1085.90 0.05992
1086.00 0.05985
1086.10 0.05979
1086.20 0.05972
1086.30 0.05966
1086.40 0.05959
1086.50 0.05952
1086.60 0.05945
1086.70 0.05938
1086.80 0.05931
1086.90 0.05924
1087.00 0.05917
1087.10 0.0591
1087.20 0.05903
1087.30 0.05895
1087.40 0.05888
1087.50 0.05881
1087.60 0.05873
1087.70 0.05866
1087.80 0.05859
1087.90 0.05851
1088.00 0.05844
1088.10 0.05837
1088.20 0.05829
1088.30 0.05822
1088.40 0.05815
1088.50 0.05807
1088.60 0.05799
1088.70 0.05791
1088.80 0.05783
1088.90 0.05775
1089.00 0.05767
1089.10 0.05759
1089.20 0.05751
1089.30 0.05743
1089.40 0.05735
1089.50 0.05727
1089.60 0.05719
1089.70 0.05711
1089.80 0.05703
1089.90 0.05695
1090.00 0.05687
1090.10 0.05679
1090.20 0.05671
1090.30 0.05663
1090.40 0.05655
1090.50 0.05647
1090.60 0.05638
1090.70 0.05629
1090.80 0.05619
1090.90 0.0561
1091.00 0.05601
1091.10 0.05592
1091.20 0.05583
1091.30 0.05573
1091.40 0.05564
1091.50 0.05555
1091.60 0.05546
1091.70 0.05537
1091.80 0.05527
1091.90 0.05518
1092.00 0.05509
1092.10 0.05498
1092.20 0.05487
1092.30 0.05476
1092.40 0.05465
1092.50 0.05454
1092.60 0.05443
1092.70 0.05432
1092.80 0.05419
1092.90 0.05406
1093.00 0.05394
1093.10 0.0538
1093.20 0.05366
1093.30 0.05351
1093.40 0.05336
1093.50 0.05319
1093.60 0.05301
1093.70 0.05288
1093.80 0.0528
1093.90 0.05279
1094.00 0.05293
1094.10 0.05307
1094.20 0.05321
1094.30 0.05334
1094.40 0.05344
1094.50 0.05354
1094.60 0.05364
1094.70 0.05374
1094.80 0.05384
1094.90 0.05393
1095.00 0.05402
1095.10 0.05409
1095.20 0.05416
1095.30 0.05422
1095.40 0.05429
1095.50 0.05435
1095.60 0.05442
1095.70 0.05449
1095.80 0.05455
1095.90 0.05462
1096.00 0.05468
1096.10 0.05475
1096.20 0.05481
1096.30 0.05488
1096.40 0.05495
1096.50 0.05501
1096.60 0.05506
1096.70 0.05511
1096.80 0.05516
1096.90 0.05521
1097.00 0.05527
1097.10 0.05531
1097.20 0.05536
1097.30 0.0554
1097.40 0.05544
1097.50 0.05549
1097.60 0.05553
1097.70 0.05558
1097.80 0.05562
1097.90 0.05567
1098.00 0.05571
1098.10 0.05576
1098.20 0.0558
1098.30 0.05585
1098.40 0.05589
1098.50 0.05593
1098.60 0.05597
1098.70 0.056
1098.80 0.05604
1098.90 0.05608
1099.00 0.05611
1099.10 0.05615
1099.20 0.05618
1099.30 0.05622
1099.40 0.05626
1099.50 0.05629
1099.60 0.05633
1099.70 0.05636
1099.80 0.0564
1099.90 0.05643
1100.00 0.05647
1100.10 0.05651
1100.20 0.05654
1100.30 0.05658
1100.40 0.05661
1100.50 0.05665
1100.60 0.05668
1100.70 0.05671
1100.80 0.05673
1100.90 0.05676
1101.00 0.05679
1101.10 0.05682
1101.20 0.05685
1101.30 0.05688
1101.40 0.05691
1101.50 0.05694
1101.60 0.05697
1101.70 0.057
1101.80 0.05702
1101.90 0.05705
1102.00 0.05708
1102.10 0.05711
1102.20 0.05713
1102.30 0.05716
1102.40 0.05718
1102.50 0.05721
1102.60 0.05723
1102.70 0.05725
1102.80 0.05728
1102.90 0.0573
1103.00 0.05732
1103.10 0.05735
1103.20 0.05737
1103.30 0.05739
1103.40 0.05742
1103.50 0.05744
1103.60 0.05746
1103.70 0.05747
1103.80 0.05749
1103.90 0.05751
1104.00 0.05753
1104.10 0.05755
1104.20 0.05757
1104.30 0.05759
1104.40 0.0576
1104.50 0.05762
1104.60 0.05764
1104.70 0.05766
1104.80 0.05768
1104.90 0.0577
1105.00 0.05772
1105.10 0.05773
1105.20 0.05775
1105.30 0.05777
1105.40 0.05779
1105.50 0.05781
1105.60 0.05782
1105.70 0.05783
1105.80 0.05785
1105.90 0.05786
1106.00 0.05787
1106.10 0.05789
1106.20 0.0579
1106.30 0.05792
1106.40 0.05793
1106.50 0.05794
1106.60 0.05796
1106.70 0.05797
1106.80 0.05798
1106.90 0.058
1107.00 0.05801
1107.10 0.05802
1107.20 0.05803
1107.30 0.05804
1107.40 0.05806
1107.50 0.05807
1107.60 0.05807
1107.70 0.05808
1107.80 0.05809
1107.90 0.0581
1108.00 0.05811
1108.10 0.05812
1108.20 0.05812
1108.30 0.05813
1108.40 0.05814
1108.50 0.05815
1108.60 0.05816
1108.70 0.05817
1108.80 0.05817
1108.90 0.05818
1109.00 0.05819
1109.10 0.0582
1109.20 0.05821
1109.30 0.05822
1109.40 0.05822
1109.50 0.05823
1109.60 0.05823
1109.70 0.05824
1109.80 0.05824
1109.90 0.05825
1110.00 0.05825
1110.10 0.05825
1110.20 0.05826
1110.30 0.05826
1110.40 0.05826
1110.50 0.05827
1110.60 0.05827
1110.70 0.05828
1110.80 0.05828
1110.90 0.05828
1111.00 0.05829
1111.10 0.05829
1111.20 0.05829
1111.30 0.0583
1111.40 0.0583
1111.50 0.05831
1111.60 0.05831
1111.70 0.05831
1111.80 0.05832
1111.90 0.05832
1112.00 0.05832
1112.10 0.05832
1112.20 0.05832
1112.30 0.05832
1112.40 0.05832
1112.50 0.05832
1112.60 0.05833
1112.70 0.05833
1112.80 0.05833
1112.90 0.05833
1113.00 0.05833
1113.10 0.05833
1113.20 0.05833
1113.30 0.05833
1113.40 0.05833
1113.50 0.05833
1113.60 0.05832
1113.70 0.05832
1113.80 0.05832
1113.90 0.05831
1114.00 0.05831
1114.10 0.05831
1114.20 0.0583
1114.30 0.0583
1114.40 0.0583
1114.50 0.05829
1114.60 0.05829
1114.70 0.05829
1114.80 0.05828
1114.90 0.05828
1115.00 0.05828
1115.10 0.05827
1115.20 0.05827
1115.30 0.05827
1115.40 0.05826
1115.50 0.05826
1115.60 0.05826
1115.70 0.05825
1115.80 0.05825
1115.90 0.05825
1116.00 0.05824
1116.10 0.05824
1116.20 0.05824
1116.30 0.05823
1116.40 0.05823
1116.50 0.05823
1116.60 0.05822
1116.70 0.05822
1116.80 0.05822
1116.90 0.05821
1117.00 0.05821
1117.10 0.0582
1117.20 0.05819
1117.30 0.05819
1117.40 0.05818
1117.50 0.05817
1117.60 0.05816
1117.70 0.05816
1117.80 0.05815
1117.90 0.05814
1118.00 0.05813
1118.10 0.05812
1118.20 0.05812
1118.30 0.05811
1118.40 0.0581
1118.50 0.05809
1118.60 0.05808
1118.70 0.05808
1118.80 0.05807
1118.90 0.05806
1119.00 0.05805
1119.10 0.05804
1119.20 0.05804
1119.30 0.05803
1119.40 0.05802
1119.50 0.05801
1119.60 0.058
1119.70 0.058
1119.80 0.05799
1119.90 0.05798
1120.00 0.05797
1120.10 0.05797
1120.20 0.05796
1120.30 0.05795
1120.40 0.05794
1120.50 0.05793
1120.60 0.05793
1120.70 0.05792
1120.80 0.05791
1120.90 0.0579
1121.00 0.05789
1121.10 0.05789
1121.20 0.05788
1121.30 0.05787
1121.40 0.05786
1121.50 0.05785
1121.60 0.05785
1121.70 0.05784
1121.80 0.05783
1121.90 0.05782
1122.00 0.05782
1122.10 0.0578
1122.20 0.05779
1122.30 0.05778
1122.40 0.05777
1122.50 0.05776
1122.60 0.05775
1122.70 0.05773
1122.80 0.05772
1122.90 0.05771
1123.00 0.0577
1123.10 0.05769
1123.20 0.05768
1123.30 0.05767
1123.40 0.05765
1123.50 0.05764
1123.60 0.05763
1123.70 0.05762
1123.80 0.05761
1123.90 0.0576
1124.00 0.05758
1124.10 0.05757
1124.20 0.05756
1124.30 0.05755
1124.40 0.05754
1124.50 0.05753
1124.60 0.05752
1124.70 0.0575
1124.80 0.05749
1124.90 0.05748
1125.00 0.05747
1125.10 0.05746
1125.20 0.05745
1125.30 0.05744
1125.40 0.05742
1125.50 0.05741
1125.60 0.0574
1125.70 0.05739
1125.80 0.05738
1125.90 0.05737
1126.00 0.05735
1126.10 0.05734
1126.20 0.05733
1126.30 0.05732
1126.40 0.05731
1126.50 0.0573
1126.60 0.05729
1126.70 0.05727
1126.80 0.05726
1126.90 0.05725
1127.00 0.05724
1127.10 0.05723
1127.20 0.05721
1127.30 0.0572
1127.40 0.05719
1127.50 0.05717
1127.60 0.05716
1127.70 0.05714
1127.80 0.05713
1127.90 0.05712
1128.00 0.0571
1128.10 0.05709
1128.20 0.05707
1128.30 0.05706
1128.40 0.05705
1128.50 0.05703
1128.60 0.05702
1128.70 0.05701
1128.80 0.05699
1128.90 0.05698
1129.00 0.05696
1129.10 0.05695
1129.20 0.05694
1129.30 0.05692
1129.40 0.05691
1129.50 0.0569
1129.60 0.05688
1129.70 0.05687
1129.80 0.05685
1129.90 0.05684
1130.00 0.05683
1130.10 0.05681
1130.20 0.0568
1130.30 0.05679
1130.40 0.05677
1130.50 0.05676
1130.60 0.05674
1130.70 0.05673
1130.80 0.05672
1130.90 0.0567
1131.00 0.05669
1131.10 0.05668
1131.20 0.05666
1131.30 0.05665
1131.40 0.05664
1131.50 0.05662
1131.60 0.05661
1131.70 0.05659
1131.80 0.05658
1131.90 0.05657
1132.00 0.05655
1132.10 0.05654
1132.20 0.05652
1132.30 0.05651
1132.40 0.05649
1132.50 0.05648
1132.60 0.05646
1132.70 0.05645
1132.80 0.05643
1132.90 0.05642
1133.00 0.0564
1133.10 0.05639
1133.20 0.05637
1133.30 0.05636
1133.40 0.05634
1133.50 0.05633
1133.60 0.05631
1133.70 0.0563
1133.80 0.05628
1133.90 0.05627
1134.00 0.05625
1134.10 0.05623
1134.20 0.05622
1134.30 0.0562
1134.40 0.05619
1134.50 0.05617
1134.60 0.05616
1134.70 0.05614
1134.80 0.05613
1134.90 0.05611
1135.00 0.0561
1135.10 0.05608
1135.20 0.05607
1135.30 0.05605
1135.40 0.05604
1135.50 0.05602
1135.60 0.05601
1135.70 0.05599
1135.80 0.05598
1135.90 0.05596
1136.00 0.05595
1136.10 0.05593
1136.20 0.05592
1136.30 0.0559
1136.40 0.05589
1136.50 0.05587
1136.60 0.05586
1136.70 0.05584
1136.80 0.05583
1136.90 0.05581
1137.00 0.0558
1137.10 0.05578
1137.20 0.05577
1137.30 0.05575
1137.40 0.05573
1137.50 0.05572
1137.60 0.0557
1137.70 0.05569
1137.80 0.05567
1137.90 0.05565
1138.00 0.05564
1138.10 0.05562
1138.20 0.05561
1138.30 0.05559
1138.40 0.05557
1138.50 0.05556
1138.60 0.05554
1138.70 0.05553
1138.80 0.05551
1138.90 0.05549
1139.00 0.05548
1139.10 0.05546
1139.20 0.05545
1139.30 0.05543
1139.40 0.05541
1139.50 0.0554
1139.60 0.05538
1139.70 0.05537
1139.80 0.05535
1139.90 0.05534
1140.00 0.05532
1140.10 0.0553
1140.20 0.05529
1140.30 0.05527
1140.40 0.05526
1140.50 0.05524
1140.60 0.05522
1140.70 0.05521
1140.80 0.05519
1140.90 0.05518
1141.00 0.05516
1141.10 0.05515
1141.20 0.05513
1141.30 0.05511
1141.40 0.0551
1141.50 0.05508
1141.60 0.05507
1141.70 0.05505
1141.80 0.05503
1141.90 0.05502
1142.00 0.055
1142.10 0.05499
1142.20 0.05497
1142.30 0.05495
1142.40 0.05494
1142.50 0.05492
1142.60 0.0549
1142.70 0.05489
1142.80 0.05487
1142.90 0.05486
1143.00 0.05484
1143.10 0.05482
1143.20 0.05481
1143.30 0.05479
1143.40 0.05477
1143.50 0.05476
1143.60 0.05474
1143.70 0.05472
1143.80 0.05471
1143.90 0.05469
1144.00 0.05468
1144.10 0.05466
1144.20 0.05464
1144.30 0.05463
1144.40 0.05461
1144.50 0.05459
1144.60 0.05458
1144.70 0.05456
1144.80 0.05454
1144.90 0.05453
1145.00 0.05451
1145.10 0.0545
1145.20 0.05448
1145.30 0.05446
1145.40 0.05445
1145.50 0.05443
1145.60 0.05441
1145.70 0.0544
1145.80 0.05438
1145.90 0.05437
1146.00 0.05435
1146.10 0.05433
1146.20 0.05432
1146.30 0.0543
1146.40 0.05428
1146.50 0.05427
1146.60 0.05425
1146.70 0.05424
1146.80 0.05422
1146.90 0.0542
1147.00 0.05419
1147.10 0.05417
1147.20 0.05415
1147.30 0.05414
1147.40 0.05412
1147.50 0.0541
1147.60 0.05409
1147.70 0.05407
1147.80 0.05405
1147.90 0.05404
1148.00 0.05402
1148.10 0.054
1148.20 0.05399
1148.30 0.05397
1148.40 0.05395
1148.50 0.05394
1148.60 0.05392
1148.70 0.0539
1148.80 0.05389
1148.90 0.05387
1149.00 0.05386
1149.10 0.05384
1149.20 0.05382
1149.30 0.05381
1149.40 0.05379
1149.50 0.05377
1149.60 0.05376
1149.70 0.05374
1149.80 0.05372
1149.90 0.05371
1150.00 0.05369
1150.10 0.05367
1150.20 0.05366
1150.30 0.05364
1150.40 0.05362
1150.50 0.05361
1150.60 0.05359
1150.70 0.05358
1150.80 0.05356
1150.90 0.05354
1151.00 0.05353
1151.10 0.05351
1151.20 0.05349
1151.30 0.05348
1151.40 0.05346
1151.50 0.05344
1151.60 0.05343
1151.70 0.05341
1151.80 0.05339
1151.90 0.05338
1152.00 0.05336
1152.10 0.05335
1152.20 0.05333
1152.30 0.05331
1152.40 0.0533
1152.50 0.05328
1152.60 0.05326
1152.70 0.05325
1152.80 0.05323
1152.90 0.05321
1153.00 0.0532
1153.10 0.05318
1153.20 0.05316
1153.30 0.05315
1153.40 0.05313
1153.50 0.05311
1153.60 0.0531
1153.70 0.05308
1153.80 0.05306
1153.90 0.05305
1154.00 0.05303
1154.10 0.05301
1154.20 0.053
1154.30 0.05298
1154.40 0.05296
1154.50 0.05295
1154.60 0.05293
1154.70 0.05291
1154.80 0.0529
1154.90 0.05288
1155.00 0.05286
1155.10 0.05285
1155.20 0.05283
1155.30 0.05281
1155.40 0.0528
1155.50 0.05278
1155.60 0.05277
1155.70 0.05275
1155.80 0.05273
1155.90 0.05272
1156.00 0.0527
1156.10 0.05268
1156.20 0.05267
1156.30 0.05265
1156.40 0.05263
1156.50 0.05262
1156.60 0.0526
1156.70 0.05258
1156.80 0.05257
1156.90 0.05255
1157.00 0.05253
1157.10 0.05252
1157.20 0.0525
1157.30 0.05249
1157.40 0.05247
1157.50 0.05245
1157.60 0.05244
1157.70 0.05242
1157.80 0.0524
1157.90 0.05239
1158.00 0.05237
1158.10 0.05235
1158.20 0.05234
1158.30 0.05232
1158.40 0.0523
1158.50 0.05229
1158.60 0.05227
1158.70 0.05225
1158.80 0.05224
1158.90 0.05222
1159.00 0.0522
1159.10 0.05219
1159.20 0.05217
1159.30 0.05215
1159.40 0.05214
1159.50 0.05212
1159.60 0.0521
1159.70 0.05209
1159.80 0.05207
1159.90 0.05206
1160.00 0.05204
1160.10 0.05202
1160.20 0.05201
1160.30 0.05199
1160.40 0.05197
1160.50 0.05196
1160.60 0.05194
1160.70 0.05192
1160.80 0.05191
1160.90 0.05189
1161.00 0.05187
1161.10 0.05186
1161.20 0.05184
1161.30 0.05183
1161.40 0.05181
1161.50 0.05179
1161.60 0.05178
1161.70 0.05176
1161.80 0.05174
1161.90 0.05173
1162.00 0.05171
1162.10 0.05169
1162.20 0.05168
1162.30 0.05166
1162.40 0.05165
1162.50 0.05163
1162.60 0.05161
1162.70 0.0516
1162.80 0.05158
1162.90 0.05156
1163.00 0.05155
1163.10 0.05153
1163.20 0.05151
1163.30 0.0515
1163.40 0.05148
1163.50 0.05146
1163.60 0.05145
1163.70 0.05143
1163.80 0.05142
1163.90 0.0514
1164.00 0.05138
1164.10 0.05137
1164.20 0.05135
1164.30 0.05133
1164.40 0.05132
1164.50 0.0513
1164.60 0.05128
1164.70 0.05127
1164.80 0.05125
1164.90 0.05124
1165.00 0.05122
1165.10 0.0512
1165.20 0.05119
1165.30 0.05117
1165.40 0.05115
1165.50 0.05114
1165.60 0.05112
1165.70 0.05111
1165.80 0.05109
1165.90 0.05107
1166.00 0.05106
1166.10 0.05104
1166.20 0.05102
1166.30 0.05101
1166.40 0.05099
1166.50 0.05098
1166.60 0.05096
1166.70 0.05094
1166.80 0.05093
1166.90 0.05091
1167.00 0.05089
1167.10 0.05088
1167.20 0.05086
1167.30 0.05085
1167.40 0.05083
1167.50 0.05081
1167.60 0.0508
1167.70 0.05078
1167.80 0.05076
1167.90 0.05075
1168.00 0.05073
1168.10 0.05072
1168.20 0.0507
1168.30 0.05068
1168.40 0.05067
1168.50 0.05065
1168.60 0.05063
1168.70 0.05062
1168.80 0.0506
1168.90 0.05059
1169.00 0.05057
1169.10 0.05055
1169.20 0.05054
1169.30 0.05052
1169.40 0.0505
1169.50 0.05049
1169.60 0.05047
1169.70 0.05046
1169.80 0.05044
1169.90 0.05042
1170.00 0.05041
1170.10 0.05039
1170.20 0.05038
1170.30 0.05036
1170.40 0.05034
1170.50 0.05033
1170.60 0.05031
1170.70 0.05029
1170.80 0.05028
1170.90 0.05026
1171.00 0.05025
1171.10 0.05023
1171.20 0.05021
1171.30 0.0502
1171.40 0.05018
1171.50 0.05017
1171.60 0.05015
1171.70 0.05013
1171.80 0.05012
1171.90 0.0501
1172.00 0.05009
1172.10 0.05007
1172.20 0.05005
1172.30 0.05004
1172.40 0.05002
1172.50 0.05001
1172.60 0.04999
1172.70 0.04997
1172.80 0.04996
1172.90 0.04994
1173.00 0.04993
1173.10 0.04991
1173.20 0.04989
1173.30 0.04988
1173.40 0.04986
1173.50 0.04985
1173.60 0.04983
1173.70 0.04981
1173.80 0.0498
1173.90 0.04978
1174.00 0.04977
1174.10 0.04975
1174.20 0.04973
1174.30 0.04972
1174.40 0.0497
1174.50 0.04969
1174.60 0.04967
1174.70 0.04965
1174.80 0.04964
1174.90 0.04962
1175.00 0.04961
1175.10 0.04959
1175.20 0.04957
1175.30 0.04956
1175.40 0.04954
1175.50 0.04953
1175.60 0.04951
1175.70 0.04949
1175.80 0.04948
1175.90 0.04946
1176.00 0.04945
1176.10 0.04943
1176.20 0.04941
1176.30 0.0494
1176.40 0.04938
1176.50 0.04937
1176.60 0.04935
1176.70 0.04934
1176.80 0.04932
1176.90 0.0493
1177.00 0.04929
1177.10 0.04927
1177.20 0.04926
1177.30 0.04924
1177.40 0.04922
1177.50 0.04921
1177.60 0.04919
1177.70 0.04918
1177.80 0.04916
1177.90 0.04914
1178.00 0.04913
1178.10 0.04911
1178.20 0.0491
1178.30 0.04908
1178.40 0.04907
1178.50 0.04905
1178.60 0.04903
1178.70 0.04902
1178.80 0.049
1178.90 0.04899
1179.00 0.04897
1179.10 0.04896
1179.20 0.04894
1179.30 0.04892
1179.40 0.04891
1179.50 0.04889
1179.60 0.04888
1179.70 0.04886
1179.80 0.04884
1179.90 0.04883
1180.00 0.04881
1180.10 0.0488
1180.20 0.04878
1180.30 0.04877
1180.40 0.04875
1180.50 0.04873
1180.60 0.04872
1180.70 0.0487
1180.80 0.04869
1180.90 0.04867
1181.00 0.04866
1181.10 0.04864
1181.20 0.04862
1181.30 0.04861
1181.40 0.04859
1181.50 0.04858
1181.60 0.04856
1181.70 0.04855
1181.80 0.04853
1181.90 0.04852
1182.00 0.0485
1182.10 0.04848
1182.20 0.04847
1182.30 0.04845
1182.40 0.04844
1182.50 0.04842
1182.60 0.04841
1182.70 0.04839
1182.80 0.04837
1182.90 0.04836
1183.00 0.04834
1183.10 0.04833
1183.20 0.04831
1183.30 0.0483
1183.40 0.04828
1183.50 0.04827
1183.60 0.04825
1183.70 0.04823
1183.80 0.04822
1183.90 0.0482
1184.00 0.04819
1184.10 0.04817
1184.20 0.04816
1184.30 0.04814
1184.40 0.04813
1184.50 0.04811
1184.60 0.04809
1184.70 0.04808
1184.80 0.04806
1184.90 0.04805
1185.00 0.04803
1185.10 0.04802
1185.20 0.048
1185.30 0.04799
1185.40 0.04797
1185.50 0.04795
1185.60 0.04794
1185.70 0.04792
1185.80 0.04791
1185.90 0.04789
1186.00 0.04788
1186.10 0.04786
1186.20 0.04785
1186.30 0.04783
1186.40 0.04782
1186.50 0.0478
1186.60 0.04778
1186.70 0.04777
1186.80 0.04775
1186.90 0.04774
1187.00 0.04772
1187.10 0.04771
1187.20 0.04769
1187.30 0.04768
1187.40 0.04766
1187.50 0.04765
1187.60 0.04763
1187.70 0.04761
1187.80 0.0476
1187.90 0.04758
1188.00 0.04757
1188.10 0.04755
1188.20 0.04754
1188.30 0.04752
1188.40 0.04751
1188.50 0.04749
1188.60 0.04748
1188.70 0.04746
1188.80 0.04745
1188.90 0.04743
1189.00 0.04741
1189.10 0.0474
1189.20 0.04738
1189.30 0.04737
1189.40 0.04735
1189.50 0.04734
1189.60 0.04732
1189.70 0.04731
1189.80 0.04729
1189.90 0.04728
1190.00 0.04726
1190.10 0.04725
1190.20 0.04723
1190.30 0.04722
1190.40 0.0472
1190.50 0.04718
1190.60 0.04717
1190.70 0.04715
1190.80 0.04714
1190.90 0.04712
1191.00 0.04711
1191.10 0.04709
1191.20 0.04708
1191.30 0.04706
1191.40 0.04705
1191.50 0.04703
1191.60 0.04702
1191.70 0.047
1191.80 0.04699
1191.90 0.04697
1192.00 0.04696
1192.10 0.04694
1192.20 0.04693
1192.30 0.04691
1192.40 0.0469
1192.50 0.04688
1192.60 0.04686
1192.70 0.04685
1192.80 0.04683
1192.90 0.04682
1193.00 0.0468
1193.10 0.04679
1193.20 0.04677
1193.30 0.04676
1193.40 0.04674
1193.50 0.04673
1193.60 0.04671
1193.70 0.0467
1193.80 0.04668
1193.90 0.04667
1194.00 0.04665
1194.10 0.04664
1194.20 0.04662
1194.30 0.04661
1194.40 0.04659
1194.50 0.04658
1194.60 0.04656
1194.70 0.04655
1194.80 0.04653
1194.90 0.04652
1195.00 0.0465
1195.10 0.04649
1195.20 0.04647
1195.30 0.04646
1195.40 0.04644
1195.50 0.04643
1195.60 0.04641
1195.70 0.0464
1195.80 0.04638
1195.90 0.04637
1196.00 0.04635
1196.10 0.04634
1196.20 0.04632
1196.30 0.04631
1196.40 0.04629
1196.50 0.04627
1196.60 0.04626
1196.70 0.04624
1196.80 0.04623
1196.90 0.04621
1197.00 0.0462
1197.10 0.04618
1197.20 0.04617
1197.30 0.04615
1197.40 0.04614
1197.50 0.04612
1197.60 0.04611
1197.70 0.04609
1197.80 0.04608
1197.90 0.04606
1198.00 0.04605
1198.10 0.04603
1198.20 0.04602
1198.30 0.046
1198.40 0.04599
1198.50 0.04597
1198.60 0.04596
1198.70 0.04594
1198.80 0.04593
1198.90 0.04591
1199.00 0.0459
1199.10 0.04588
1199.20 0.04587
1199.30 0.04585
1199.40 0.04584
1199.50 0.04583
1199.60 0.04581
1199.70 0.0458
1199.80 0.04578
1199.90 0.04577
1200.00 0
