# Version 2.1 - nm, norm@500 to 1, cut digits, bergeron_3750_85.dat_3750
# Wavelength(nm)  Flambda(ergs/cm^s/s/nm)
300.00 0.1688
300.10 0.1691
300.20 0.1694
300.30 0.1698
300.40 0.1701
300.50 0.1704
300.60 0.1707
300.70 0.1711
300.80 0.1714
300.90 0.1717
301.00 0.172
301.10 0.1724
301.20 0.1727
301.30 0.173
301.40 0.1733
301.50 0.1736
301.60 0.174
301.70 0.1743
301.80 0.1746
301.90 0.1749
302.00 0.1753
302.10 0.1756
302.20 0.1759
302.30 0.1762
302.40 0.1766
302.50 0.1769
302.60 0.1772
302.70 0.1776
302.80 0.1779
302.90 0.1782
303.00 0.1786
303.10 0.1789
303.20 0.1792
303.30 0.1795
303.40 0.1799
303.50 0.1802
303.60 0.1805
303.70 0.1808
303.80 0.1812
303.90 0.1815
304.00 0.1818
304.10 0.1822
304.20 0.1825
304.30 0.1828
304.40 0.1832
304.50 0.1835
304.60 0.1839
304.70 0.1842
304.80 0.1845
304.90 0.1849
305.00 0.1852
305.10 0.1855
305.20 0.1859
305.30 0.1862
305.40 0.1865
305.50 0.1869
305.60 0.1872
305.70 0.1875
305.80 0.1879
305.90 0.1882
306.00 0.1885
306.10 0.1889
306.20 0.1892
306.30 0.1896
306.40 0.1899
306.50 0.1902
306.60 0.1906
306.70 0.1909
306.80 0.1913
306.90 0.1916
307.00 0.1919
307.10 0.1923
307.20 0.1926
307.30 0.193
307.40 0.1933
307.50 0.1936
307.60 0.194
307.70 0.1943
307.80 0.1947
307.90 0.195
308.00 0.1953
308.10 0.1957
308.20 0.196
308.30 0.1964
308.40 0.1967
308.50 0.1971
308.60 0.1974
308.70 0.1978
308.80 0.1981
308.90 0.1985
309.00 0.1988
309.10 0.1992
309.20 0.1995
309.30 0.1999
309.40 0.2002
309.50 0.2005
309.60 0.2009
309.70 0.2012
309.80 0.2016
309.90 0.2019
310.00 0.2023
310.10 0.2026
310.20 0.203
310.30 0.2033
310.40 0.2037
310.50 0.204
310.60 0.2044
310.70 0.2048
310.80 0.2051
310.90 0.2055
311.00 0.2058
311.10 0.2062
311.20 0.2065
311.30 0.2069
311.40 0.2072
311.50 0.2076
311.60 0.2079
311.70 0.2083
311.80 0.2086
311.90 0.209
312.00 0.2093
312.10 0.2097
312.20 0.21
312.30 0.2104
312.40 0.2107
312.50 0.2111
312.60 0.2115
312.70 0.2118
312.80 0.2122
312.90 0.2125
313.00 0.2129
313.10 0.2132
313.20 0.2136
313.30 0.214
313.40 0.2143
313.50 0.2147
313.60 0.215
313.70 0.2154
313.80 0.2157
313.90 0.2161
314.00 0.2165
314.10 0.2168
314.20 0.2172
314.30 0.2176
314.40 0.2179
314.50 0.2183
314.60 0.2186
314.70 0.219
314.80 0.2194
314.90 0.2197
315.00 0.2201
315.10 0.2205
315.20 0.2208
315.30 0.2212
315.40 0.2216
315.50 0.2219
315.60 0.2223
315.70 0.2226
315.80 0.223
315.90 0.2234
316.00 0.2237
316.10 0.2241
316.20 0.2245
316.30 0.2248
316.40 0.2252
316.50 0.2256
316.60 0.2259
316.70 0.2263
316.80 0.2267
316.90 0.227
317.00 0.2274
317.10 0.2278
317.20 0.2282
317.30 0.2285
317.40 0.2289
317.50 0.2293
317.60 0.2296
317.70 0.23
317.80 0.2303
317.90 0.2307
318.00 0.2311
318.10 0.2315
318.20 0.2318
318.30 0.2322
318.40 0.2326
318.50 0.233
318.60 0.2333
318.70 0.2337
318.80 0.2341
318.90 0.2345
319.00 0.2348
319.10 0.2352
319.20 0.2356
319.30 0.236
319.40 0.2363
319.50 0.2367
319.60 0.2371
319.70 0.2374
319.80 0.2378
319.90 0.2382
320.00 0.2386
320.10 0.2389
320.20 0.2393
320.30 0.2397
320.40 0.2401
320.50 0.2405
320.60 0.2408
320.70 0.2412
320.80 0.2416
320.90 0.242
321.00 0.2424
321.10 0.2427
321.20 0.2431
321.30 0.2435
321.40 0.2439
321.50 0.2442
321.60 0.2446
321.70 0.245
321.80 0.2454
321.90 0.2457
322.00 0.2461
322.10 0.2465
322.20 0.2469
322.30 0.2473
322.40 0.2477
322.50 0.248
322.60 0.2484
322.70 0.2488
322.80 0.2492
322.90 0.2496
323.00 0.25
323.10 0.2504
323.20 0.2507
323.30 0.2511
323.40 0.2515
323.50 0.2519
323.60 0.2523
323.70 0.2526
323.80 0.253
323.90 0.2534
324.00 0.2538
324.10 0.2542
324.20 0.2546
324.30 0.255
324.40 0.2554
324.50 0.2557
324.60 0.2561
324.70 0.2565
324.80 0.2569
324.90 0.2573
325.00 0.2577
325.10 0.2581
325.20 0.2585
325.30 0.2589
325.40 0.2592
325.50 0.2596
325.60 0.26
325.70 0.2604
325.80 0.2608
325.90 0.2612
326.00 0.2616
326.10 0.2619
326.20 0.2623
326.30 0.2627
326.40 0.2631
326.50 0.2635
326.60 0.2639
326.70 0.2643
326.80 0.2647
326.90 0.2651
327.00 0.2655
327.10 0.2659
327.20 0.2663
327.30 0.2667
327.40 0.2671
327.50 0.2675
327.60 0.2678
327.70 0.2682
327.80 0.2686
327.90 0.269
328.00 0.2694
328.10 0.2698
328.20 0.2702
328.30 0.2706
328.40 0.271
328.50 0.2714
328.60 0.2718
328.70 0.2722
328.80 0.2726
328.90 0.273
329.00 0.2734
329.10 0.2738
329.20 0.2742
329.30 0.2746
329.40 0.275
329.50 0.2754
329.60 0.2758
329.70 0.2762
329.80 0.2766
329.90 0.277
330.00 0.2773
330.10 0.2778
330.20 0.2782
330.30 0.2786
330.40 0.279
330.50 0.2794
330.60 0.2798
330.70 0.2802
330.80 0.2806
330.90 0.281
331.00 0.2814
331.10 0.2818
331.20 0.2822
331.30 0.2826
331.40 0.283
331.50 0.2834
331.60 0.2838
331.70 0.2842
331.80 0.2846
331.90 0.285
332.00 0.2854
332.10 0.2858
332.20 0.2862
332.30 0.2866
332.40 0.287
332.50 0.2874
332.60 0.2878
332.70 0.2883
332.80 0.2887
332.90 0.2891
333.00 0.2895
333.10 0.2899
333.20 0.2903
333.30 0.2907
333.40 0.2911
333.50 0.2915
333.60 0.2919
333.70 0.2923
333.80 0.2927
333.90 0.2931
334.00 0.2935
334.10 0.2939
334.20 0.2943
334.30 0.2948
334.40 0.2952
334.50 0.2956
334.60 0.296
334.70 0.2964
334.80 0.2968
334.90 0.2972
335.00 0.2976
335.10 0.298
335.20 0.2985
335.30 0.2989
335.40 0.2993
335.50 0.2997
335.60 0.3001
335.70 0.3005
335.80 0.3009
335.90 0.3013
336.00 0.3017
336.10 0.3021
336.20 0.3026
336.30 0.303
336.40 0.3034
336.50 0.3038
336.60 0.3042
336.70 0.3046
336.80 0.305
336.90 0.3055
337.00 0.3059
337.10 0.3063
337.20 0.3067
337.30 0.3071
337.40 0.3075
337.50 0.3079
337.60 0.3083
337.70 0.3088
337.80 0.3092
337.90 0.3096
338.00 0.31
338.10 0.3104
338.20 0.3108
338.30 0.3112
338.40 0.3117
338.50 0.3121
338.60 0.3125
338.70 0.3129
338.80 0.3133
338.90 0.3138
339.00 0.3142
339.10 0.3146
339.20 0.315
339.30 0.3154
339.40 0.3159
339.50 0.3163
339.60 0.3167
339.70 0.3171
339.80 0.3175
339.90 0.3179
340.00 0.3183
340.10 0.3188
340.20 0.3192
340.30 0.3196
340.40 0.32
340.50 0.3205
340.60 0.3209
340.70 0.3213
340.80 0.3217
340.90 0.3222
341.00 0.3226
341.10 0.323
341.20 0.3234
341.30 0.3239
341.40 0.3243
341.50 0.3247
341.60 0.3251
341.70 0.3255
341.80 0.326
341.90 0.3264
342.00 0.3268
342.10 0.3272
342.20 0.3276
342.30 0.3281
342.40 0.3285
342.50 0.3289
342.60 0.3294
342.70 0.3298
342.80 0.3302
342.90 0.3306
343.00 0.3311
343.10 0.3315
343.20 0.3319
343.30 0.3323
343.40 0.3328
343.50 0.3332
343.60 0.3336
343.70 0.334
343.80 0.3344
343.90 0.3349
344.00 0.3353
344.10 0.3357
344.20 0.3361
344.30 0.3366
344.40 0.337
344.50 0.3374
344.60 0.3379
344.70 0.3383
344.80 0.3387
344.90 0.3392
345.00 0.3396
345.10 0.34
345.20 0.3405
345.30 0.3409
345.40 0.3413
345.50 0.3417
345.60 0.3422
345.70 0.3426
345.80 0.343
345.90 0.3434
346.00 0.3439
346.10 0.3443
346.20 0.3447
346.30 0.3452
346.40 0.3456
346.50 0.346
346.60 0.3465
346.70 0.3469
346.80 0.3473
346.90 0.3478
347.00 0.3482
347.10 0.3486
347.20 0.3491
347.30 0.3495
347.40 0.3499
347.50 0.3503
347.60 0.3508
347.70 0.3512
347.80 0.3516
347.90 0.3521
348.00 0.3525
348.10 0.3529
348.20 0.3534
348.30 0.3538
348.40 0.3542
348.50 0.3547
348.60 0.3551
348.70 0.3556
348.80 0.356
348.90 0.3564
349.00 0.3569
349.10 0.3573
349.20 0.3577
349.30 0.3582
349.40 0.3586
349.50 0.359
349.60 0.3595
349.70 0.3599
349.80 0.3603
349.90 0.3608
350.00 0.3612
350.10 0.3616
350.20 0.3621
350.30 0.3625
350.40 0.363
350.50 0.3634
350.60 0.3638
350.70 0.3643
350.80 0.3647
350.90 0.3652
351.00 0.3656
351.10 0.366
351.20 0.3665
351.30 0.3669
351.40 0.3673
351.50 0.3678
351.60 0.3682
351.70 0.3687
351.80 0.3691
351.90 0.3695
352.00 0.37
352.10 0.3704
352.20 0.3708
352.30 0.3713
352.40 0.3717
352.50 0.3722
352.60 0.3726
352.70 0.3731
352.80 0.3735
352.90 0.3739
353.00 0.3744
353.10 0.3748
353.20 0.3753
353.30 0.3757
353.40 0.3761
353.50 0.3766
353.60 0.377
353.70 0.3774
353.80 0.3779
353.90 0.3783
354.00 0.3788
354.10 0.3792
354.20 0.3796
354.30 0.3801
354.40 0.3805
354.50 0.381
354.60 0.3814
354.70 0.3819
354.80 0.3823
354.90 0.3828
355.00 0.3832
355.10 0.3837
355.20 0.3841
355.30 0.3845
355.40 0.385
355.50 0.3854
355.60 0.3859
355.70 0.3863
355.80 0.3867
355.90 0.3872
356.00 0.3876
356.10 0.3881
356.20 0.3885
356.30 0.389
356.40 0.3894
356.50 0.3899
356.60 0.3903
356.70 0.3908
356.80 0.3912
356.90 0.3917
357.00 0.3921
357.10 0.3926
357.20 0.393
357.30 0.3934
357.40 0.3939
357.50 0.3943
357.60 0.3948
357.70 0.3952
357.80 0.3957
357.90 0.3961
358.00 0.3965
358.10 0.397
358.20 0.3975
358.30 0.3979
358.40 0.3984
358.50 0.3988
358.60 0.3993
358.70 0.3997
358.80 0.4002
358.90 0.4006
359.00 0.4011
359.10 0.4015
359.20 0.4019
359.30 0.4024
359.40 0.4028
359.50 0.4033
359.60 0.4037
359.70 0.4042
359.80 0.4046
359.90 0.4051
360.00 0.4055
360.10 0.406
360.20 0.4064
360.30 0.4069
360.40 0.4073
360.50 0.4078
360.60 0.4082
360.70 0.4087
360.80 0.4091
360.90 0.4096
361.00 0.41
361.10 0.4105
361.20 0.4109
361.30 0.4114
361.40 0.4118
361.50 0.4123
361.60 0.4127
361.70 0.4132
361.80 0.4136
361.90 0.4141
362.00 0.4145
362.10 0.415
362.20 0.4154
362.30 0.4159
362.40 0.4163
362.50 0.4168
362.60 0.4172
362.70 0.4177
362.80 0.4181
362.90 0.4186
363.00 0.419
363.10 0.4195
363.20 0.4199
363.30 0.4204
363.40 0.4208
363.50 0.4213
363.60 0.4218
363.70 0.4222
363.80 0.4227
363.90 0.4231
364.00 0.4236
364.10 0.424
364.20 0.4245
364.30 0.4249
364.40 0.4254
364.50 0.4258
364.60 0.4263
364.70 0.4267
364.80 0.4272
364.90 0.4277
365.00 0.4281
365.10 0.4286
365.20 0.429
365.30 0.4295
365.40 0.4299
365.50 0.4304
365.60 0.4308
365.70 0.4313
365.80 0.4317
365.90 0.4322
366.00 0.4326
366.10 0.4331
366.20 0.4336
366.30 0.434
366.40 0.4345
366.50 0.4349
366.60 0.4354
366.70 0.4359
366.80 0.4363
366.90 0.4368
367.00 0.4372
367.10 0.4377
367.20 0.4381
367.30 0.4386
367.40 0.439
367.50 0.4395
367.60 0.44
367.70 0.4404
367.80 0.4409
367.90 0.4413
368.00 0.4418
368.10 0.4422
368.20 0.4427
368.30 0.4431
368.40 0.4436
368.50 0.4441
368.60 0.4445
368.70 0.445
368.80 0.4455
368.90 0.4459
369.00 0.4464
369.10 0.4468
369.20 0.4473
369.30 0.4477
369.40 0.4482
369.50 0.4487
369.60 0.4491
369.70 0.4496
369.80 0.45
369.90 0.4505
370.00 0.4509
370.10 0.4514
370.20 0.4518
370.30 0.4523
370.40 0.4528
370.50 0.4532
370.60 0.4537
370.70 0.4542
370.80 0.4546
370.90 0.4551
371.00 0.4555
371.10 0.456
371.20 0.4565
371.30 0.4569
371.40 0.4574
371.50 0.4578
371.60 0.4583
371.70 0.4587
371.80 0.4592
371.90 0.4596
372.00 0.4601
372.10 0.4606
372.20 0.461
372.30 0.4615
372.40 0.462
372.50 0.4624
372.60 0.4629
372.70 0.4633
372.80 0.4638
372.90 0.4643
373.00 0.4647
373.10 0.4652
373.20 0.4656
373.30 0.4661
373.40 0.4666
373.50 0.467
373.60 0.4675
373.70 0.4679
373.80 0.4684
373.90 0.4688
374.00 0.4693
374.10 0.4698
374.20 0.4702
374.30 0.4707
374.40 0.4712
374.50 0.4716
374.60 0.4721
374.70 0.4726
374.80 0.473
374.90 0.4735
375.00 0.4739
375.10 0.4744
375.20 0.4749
375.30 0.4753
375.40 0.4758
375.50 0.4762
375.60 0.4767
375.70 0.4772
375.80 0.4776
375.90 0.4781
376.00 0.4785
376.10 0.479
376.20 0.4795
376.30 0.4799
376.40 0.4804
376.50 0.4809
376.60 0.4813
376.70 0.4818
376.80 0.4822
376.90 0.4827
377.00 0.4832
377.10 0.4836
377.20 0.4841
377.30 0.4846
377.40 0.485
377.50 0.4855
377.60 0.4859
377.70 0.4864
377.80 0.4869
377.90 0.4873
378.00 0.4878
378.10 0.4883
378.20 0.4887
378.30 0.4892
378.40 0.4897
378.50 0.4901
378.60 0.4906
378.70 0.491
378.80 0.4915
378.90 0.492
379.00 0.4924
379.10 0.4929
379.20 0.4934
379.30 0.4938
379.40 0.4943
379.50 0.4948
379.60 0.4952
379.70 0.4957
379.80 0.4961
379.90 0.4966
380.00 0.4971
380.10 0.4975
380.20 0.498
380.30 0.4985
380.40 0.4989
380.50 0.4994
380.60 0.4999
380.70 0.5003
380.80 0.5008
380.90 0.5012
381.00 0.5017
381.10 0.5022
381.20 0.5026
381.30 0.5031
381.40 0.5035
381.50 0.504
381.60 0.5045
381.70 0.505
381.80 0.5054
381.90 0.5059
382.00 0.5063
382.10 0.5068
382.20 0.5073
382.30 0.5077
382.40 0.5082
382.50 0.5087
382.60 0.5091
382.70 0.5096
382.80 0.5101
382.90 0.5105
383.00 0.511
383.10 0.5115
383.20 0.5119
383.30 0.5124
383.40 0.5128
383.50 0.5133
383.60 0.5138
383.70 0.5143
383.80 0.5147
383.90 0.5152
384.00 0.5156
384.10 0.5161
384.20 0.5166
384.30 0.517
384.40 0.5175
384.50 0.518
384.60 0.5184
384.70 0.5189
384.80 0.5194
384.90 0.5198
385.00 0.5203
385.10 0.5208
385.20 0.5212
385.30 0.5217
385.40 0.5221
385.50 0.5226
385.60 0.5231
385.70 0.5235
385.80 0.524
385.90 0.5245
386.00 0.5249
386.10 0.5254
386.20 0.5259
386.30 0.5263
386.40 0.5268
386.50 0.5273
386.60 0.5277
386.70 0.5282
386.80 0.5287
386.90 0.5291
387.00 0.5296
387.10 0.5301
387.20 0.5305
387.30 0.531
387.40 0.5315
387.50 0.5319
387.60 0.5324
387.70 0.5328
387.80 0.5333
387.90 0.5338
388.00 0.5342
388.10 0.5347
388.20 0.5352
388.30 0.5357
388.40 0.5361
388.50 0.5366
388.60 0.537
388.70 0.5375
388.80 0.538
388.90 0.5384
389.00 0.5389
389.10 0.5394
389.20 0.5398
389.30 0.5403
389.40 0.5408
389.50 0.5412
389.60 0.5417
389.70 0.5422
389.80 0.5426
389.90 0.5431
390.00 0.5436
390.10 0.544
390.20 0.5445
390.30 0.545
390.40 0.5454
390.50 0.5459
390.60 0.5464
390.70 0.5468
390.80 0.5473
390.90 0.5478
391.00 0.5482
391.10 0.5487
391.20 0.5492
391.30 0.5496
391.40 0.5501
391.50 0.5505
391.60 0.551
391.70 0.5515
391.80 0.5519
391.90 0.5524
392.00 0.5529
392.10 0.5533
392.20 0.5538
392.30 0.5543
392.40 0.5547
392.50 0.5552
392.60 0.5557
392.70 0.5561
392.80 0.5566
392.90 0.5571
393.00 0.5575
393.10 0.558
393.20 0.5585
393.30 0.5589
393.40 0.5594
393.50 0.5599
393.60 0.5603
393.70 0.5608
393.80 0.5613
393.90 0.5617
394.00 0.5622
394.10 0.5627
394.20 0.5631
394.30 0.5636
394.40 0.5641
394.50 0.5645
394.60 0.565
394.70 0.5654
394.80 0.5659
394.90 0.5664
395.00 0.5669
395.10 0.5673
395.20 0.5678
395.30 0.5682
395.40 0.5687
395.50 0.5692
395.60 0.5696
395.70 0.5701
395.80 0.5706
395.90 0.571
396.00 0.5715
396.10 0.572
396.20 0.5724
396.30 0.5729
396.40 0.5734
396.50 0.5738
396.60 0.5743
396.70 0.5748
396.80 0.5752
396.90 0.5757
397.00 0.5761
397.10 0.5766
397.20 0.5771
397.30 0.5776
397.40 0.578
397.50 0.5785
397.60 0.579
397.70 0.5794
397.80 0.5799
397.90 0.5803
398.00 0.5808
398.10 0.5813
398.20 0.5817
398.30 0.5822
398.40 0.5827
398.50 0.5831
398.60 0.5836
398.70 0.5841
398.80 0.5845
398.90 0.585
399.00 0.5855
399.10 0.5859
399.20 0.5864
399.30 0.5868
399.40 0.5873
399.50 0.5878
399.60 0.5882
399.70 0.5887
399.80 0.5892
399.90 0.5896
400.00 0.5901
400.10 0.5906
400.20 0.591
400.30 0.5915
400.40 0.592
400.50 0.5924
400.60 0.5929
400.70 0.5934
400.80 0.5938
400.90 0.5943
401.00 0.5947
401.10 0.5952
401.20 0.5957
401.30 0.5961
401.40 0.5966
401.50 0.5971
401.60 0.5975
401.70 0.598
401.80 0.5985
401.90 0.5989
402.00 0.5994
402.10 0.5998
402.20 0.6003
402.30 0.6008
402.40 0.6012
402.50 0.6017
402.60 0.6022
402.70 0.6026
402.80 0.6031
402.90 0.6036
403.00 0.604
403.10 0.6045
403.20 0.605
403.30 0.6054
403.40 0.6059
403.50 0.6063
403.60 0.6068
403.70 0.6073
403.80 0.6077
403.90 0.6082
404.00 0.6087
404.10 0.6091
404.20 0.6096
404.30 0.61
404.40 0.6105
404.50 0.611
404.60 0.6114
404.70 0.6119
404.80 0.6123
404.90 0.6128
405.00 0.6133
405.10 0.6137
405.20 0.6142
405.30 0.6147
405.40 0.6151
405.50 0.6156
405.60 0.6161
405.70 0.6165
405.80 0.617
405.90 0.6174
406.00 0.6179
406.10 0.6184
406.20 0.6188
406.30 0.6193
406.40 0.6198
406.50 0.6202
406.60 0.6207
406.70 0.6211
406.80 0.6216
406.90 0.6221
407.00 0.6225
407.10 0.623
407.20 0.6235
407.30 0.6239
407.40 0.6244
407.50 0.6248
407.60 0.6253
407.70 0.6258
407.80 0.6262
407.90 0.6267
408.00 0.6271
408.10 0.6276
408.20 0.6281
408.30 0.6285
408.40 0.629
408.50 0.6294
408.60 0.6299
408.70 0.6304
408.80 0.6308
408.90 0.6313
409.00 0.6317
409.10 0.6322
409.20 0.6327
409.30 0.6331
409.40 0.6336
409.50 0.634
409.60 0.6345
409.70 0.635
409.80 0.6354
409.90 0.6359
410.00 0.6363
410.10 0.6368
410.20 0.6373
410.30 0.6377
410.40 0.6382
410.50 0.6386
410.60 0.6391
410.70 0.6396
410.80 0.64
410.90 0.6405
411.00 0.6409
411.10 0.6414
411.20 0.6419
411.30 0.6423
411.40 0.6428
411.50 0.6432
411.60 0.6437
411.70 0.6441
411.80 0.6446
411.90 0.6451
412.00 0.6455
412.10 0.646
412.20 0.6465
412.30 0.6469
412.40 0.6474
412.50 0.6478
412.60 0.6483
412.70 0.6487
412.80 0.6492
412.90 0.6496
413.00 0.6501
413.10 0.6506
413.20 0.651
413.30 0.6515
413.40 0.652
413.50 0.6524
413.60 0.6529
413.70 0.6533
413.80 0.6538
413.90 0.6542
414.00 0.6547
414.10 0.6552
414.20 0.6556
414.30 0.6561
414.40 0.6565
414.50 0.657
414.60 0.6574
414.70 0.6579
414.80 0.6583
414.90 0.6588
415.00 0.6593
415.10 0.6597
415.20 0.6602
415.30 0.6606
415.40 0.6611
415.50 0.6615
415.60 0.662
415.70 0.6625
415.80 0.6629
415.90 0.6634
416.00 0.6638
416.10 0.6643
416.20 0.6647
416.30 0.6652
416.40 0.6657
416.50 0.6661
416.60 0.6666
416.70 0.667
416.80 0.6675
416.90 0.6679
417.00 0.6684
417.10 0.6688
417.20 0.6693
417.30 0.6697
417.40 0.6702
417.50 0.6707
417.60 0.6711
417.70 0.6716
417.80 0.672
417.90 0.6725
418.00 0.6729
418.10 0.6734
418.20 0.6738
418.30 0.6743
418.40 0.6748
418.50 0.6752
418.60 0.6757
418.70 0.6761
418.80 0.6766
418.90 0.677
419.00 0.6775
419.10 0.6779
419.20 0.6784
419.30 0.6788
419.40 0.6793
419.50 0.6797
419.60 0.6802
419.70 0.6806
419.80 0.6811
419.90 0.6815
420.00 0.682
420.10 0.6825
420.20 0.6829
420.30 0.6834
420.40 0.6838
420.50 0.6843
420.60 0.6847
420.70 0.6852
420.80 0.6856
420.90 0.6861
421.00 0.6865
421.10 0.687
421.20 0.6874
421.30 0.6879
421.40 0.6883
421.50 0.6888
421.60 0.6892
421.70 0.6897
421.80 0.6901
421.90 0.6906
422.00 0.691
422.10 0.6915
422.20 0.6919
422.30 0.6924
422.40 0.6928
422.50 0.6933
422.60 0.6937
422.70 0.6942
422.80 0.6946
422.90 0.6951
423.00 0.6955
423.10 0.696
423.20 0.6964
423.30 0.6969
423.40 0.6973
423.50 0.6978
423.60 0.6982
423.70 0.6987
423.80 0.6991
423.90 0.6996
424.00 0.7
424.10 0.7005
424.20 0.7009
424.30 0.7014
424.40 0.7018
424.50 0.7023
424.60 0.7027
424.70 0.7032
424.80 0.7036
424.90 0.7041
425.00 0.7045
425.10 0.705
425.20 0.7054
425.30 0.7059
425.40 0.7063
425.50 0.7068
425.60 0.7072
425.70 0.7077
425.80 0.7081
425.90 0.7086
426.00 0.709
426.10 0.7095
426.20 0.7099
426.30 0.7103
426.40 0.7108
426.50 0.7112
426.60 0.7117
426.70 0.7121
426.80 0.7126
426.90 0.713
427.00 0.7135
427.10 0.7139
427.20 0.7144
427.30 0.7148
427.40 0.7153
427.50 0.7157
427.60 0.7161
427.70 0.7166
427.80 0.717
427.90 0.7175
428.00 0.7179
428.10 0.7184
428.20 0.7188
428.30 0.7193
428.40 0.7197
428.50 0.7202
428.60 0.7206
428.70 0.721
428.80 0.7215
428.90 0.7219
429.00 0.7224
429.10 0.7228
429.20 0.7233
429.30 0.7237
429.40 0.7241
429.50 0.7246
429.60 0.725
429.70 0.7255
429.80 0.7259
429.90 0.7264
430.00 0.7268
430.10 0.7272
430.20 0.7277
430.30 0.7281
430.40 0.7286
430.50 0.729
430.60 0.7295
430.70 0.7299
430.80 0.7303
430.90 0.7308
431.00 0.7312
431.10 0.7317
431.20 0.7321
431.30 0.7326
431.40 0.733
431.50 0.7334
431.60 0.7339
431.70 0.7343
431.80 0.7348
431.90 0.7352
432.00 0.7356
432.10 0.7361
432.20 0.7365
432.30 0.737
432.40 0.7374
432.50 0.7378
432.60 0.7383
432.70 0.7387
432.80 0.7392
432.90 0.7396
433.00 0.74
433.10 0.7405
433.20 0.7409
433.30 0.7414
433.40 0.7418
433.50 0.7422
433.60 0.7427
433.70 0.7431
433.80 0.7436
433.90 0.744
434.00 0.7444
434.10 0.7449
434.20 0.7453
434.30 0.7458
434.40 0.7462
434.50 0.7466
434.60 0.7471
434.70 0.7475
434.80 0.7479
434.90 0.7484
435.00 0.7488
435.10 0.7493
435.20 0.7497
435.30 0.7501
435.40 0.7506
435.50 0.751
435.60 0.7514
435.70 0.7519
435.80 0.7523
435.90 0.7527
436.00 0.7532
436.10 0.7536
436.20 0.7541
436.30 0.7545
436.40 0.7549
436.50 0.7554
436.60 0.7558
436.70 0.7562
436.80 0.7567
436.90 0.7571
437.00 0.7575
437.10 0.758
437.20 0.7584
437.30 0.7588
437.40 0.7593
437.50 0.7597
437.60 0.7601
437.70 0.7606
437.80 0.761
437.90 0.7614
438.00 0.7619
438.10 0.7623
438.20 0.7627
438.30 0.7632
438.40 0.7636
438.50 0.764
438.60 0.7645
438.70 0.7649
438.80 0.7653
438.90 0.7658
439.00 0.7662
439.10 0.7666
439.20 0.7671
439.30 0.7675
439.40 0.7679
439.50 0.7684
439.60 0.7688
439.70 0.7692
439.80 0.7697
439.90 0.7701
440.00 0.7705
440.10 0.7709
440.20 0.7714
440.30 0.7718
440.40 0.7722
440.50 0.7727
440.60 0.7731
440.70 0.7735
440.80 0.774
440.90 0.7744
441.00 0.7748
441.10 0.7752
441.20 0.7757
441.30 0.7761
441.40 0.7765
441.50 0.777
441.60 0.7774
441.70 0.7778
441.80 0.7783
441.90 0.7787
442.00 0.7791
442.10 0.7795
442.20 0.78
442.30 0.7804
442.40 0.7808
442.50 0.7813
442.60 0.7817
442.70 0.7821
442.80 0.7825
442.90 0.783
443.00 0.7834
443.10 0.7838
443.20 0.7842
443.30 0.7847
443.40 0.7851
443.50 0.7855
443.60 0.786
443.70 0.7864
443.80 0.7868
443.90 0.7872
444.00 0.7877
444.10 0.7881
444.20 0.7885
444.30 0.7889
444.40 0.7893
444.50 0.7898
444.60 0.7902
444.70 0.7906
444.80 0.7911
444.90 0.7915
445.00 0.7919
445.10 0.7923
445.20 0.7927
445.30 0.7932
445.40 0.7936
445.50 0.794
445.60 0.7944
445.70 0.7949
445.80 0.7953
445.90 0.7957
446.00 0.7961
446.10 0.7966
446.20 0.797
446.30 0.7974
446.40 0.7978
446.50 0.7982
446.60 0.7987
446.70 0.7991
446.80 0.7995
446.90 0.7999
447.00 0.8004
447.10 0.8008
447.20 0.8012
447.30 0.8016
447.40 0.802
447.50 0.8025
447.60 0.8029
447.70 0.8033
447.80 0.8037
447.90 0.8041
448.00 0.8046
448.10 0.805
448.20 0.8054
448.30 0.8058
448.40 0.8062
448.50 0.8067
448.60 0.8071
448.70 0.8075
448.80 0.8079
448.90 0.8083
449.00 0.8088
449.10 0.8092
449.20 0.8096
449.30 0.81
449.40 0.8104
449.50 0.8109
449.60 0.8113
449.70 0.8117
449.80 0.8121
449.90 0.8125
450.00 0.8129
450.10 0.8133
450.20 0.8138
450.30 0.8142
450.40 0.8146
450.50 0.815
450.60 0.8154
450.70 0.8158
450.80 0.8163
450.90 0.8167
451.00 0.8171
451.10 0.8175
451.20 0.8179
451.30 0.8183
451.40 0.8188
451.50 0.8192
451.60 0.8196
451.70 0.82
451.80 0.8204
451.90 0.8208
452.00 0.8212
452.10 0.8216
452.20 0.8221
452.30 0.8225
452.40 0.8229
452.50 0.8233
452.60 0.8237
452.70 0.8241
452.80 0.8246
452.90 0.825
453.00 0.8254
453.10 0.8258
453.20 0.8262
453.30 0.8266
453.40 0.827
453.50 0.8274
453.60 0.8278
453.70 0.8283
453.80 0.8287
453.90 0.8291
454.00 0.8295
454.10 0.8299
454.20 0.8303
454.30 0.8307
454.40 0.8311
454.50 0.8315
454.60 0.8319
454.70 0.8324
454.80 0.8328
454.90 0.8332
455.00 0.8336
455.10 0.834
455.20 0.8344
455.30 0.8348
455.40 0.8352
455.50 0.8356
455.60 0.836
455.70 0.8364
455.80 0.8369
455.90 0.8373
456.00 0.8377
456.10 0.8381
456.20 0.8385
456.30 0.8389
456.40 0.8393
456.50 0.8397
456.60 0.8401
456.70 0.8405
456.80 0.8409
456.90 0.8413
457.00 0.8417
457.10 0.8422
457.20 0.8426
457.30 0.843
457.40 0.8434
457.50 0.8438
457.60 0.8442
457.70 0.8446
457.80 0.845
457.90 0.8454
458.00 0.8458
458.10 0.8462
458.20 0.8466
458.30 0.847
458.40 0.8474
458.50 0.8478
458.60 0.8482
458.70 0.8486
458.80 0.849
458.90 0.8494
459.00 0.8498
459.10 0.8502
459.20 0.8506
459.30 0.851
459.40 0.8514
459.50 0.8518
459.60 0.8522
459.70 0.8526
459.80 0.8531
459.90 0.8535
460.00 0.8539
460.10 0.8543
460.20 0.8547
460.30 0.8551
460.40 0.8555
460.50 0.8559
460.60 0.8563
460.70 0.8567
460.80 0.8571
460.90 0.8575
461.00 0.8579
461.10 0.8583
461.20 0.8587
461.30 0.8591
461.40 0.8595
461.50 0.8599
461.60 0.8603
461.70 0.8607
461.80 0.8611
461.90 0.8615
462.00 0.8618
462.10 0.8622
462.20 0.8626
462.30 0.863
462.40 0.8634
462.50 0.8638
462.60 0.8642
462.70 0.8646
462.80 0.865
462.90 0.8654
463.00 0.8658
463.10 0.8662
463.20 0.8666
463.30 0.867
463.40 0.8674
463.50 0.8678
463.60 0.8682
463.70 0.8686
463.80 0.869
463.90 0.8694
464.00 0.8698
464.10 0.8702
464.20 0.8706
464.30 0.871
464.40 0.8713
464.50 0.8717
464.60 0.8721
464.70 0.8725
464.80 0.8729
464.90 0.8733
465.00 0.8737
465.10 0.8741
465.20 0.8745
465.30 0.8749
465.40 0.8753
465.50 0.8757
465.60 0.8761
465.70 0.8765
465.80 0.8769
465.90 0.8772
466.00 0.8776
466.10 0.878
466.20 0.8784
466.30 0.8788
466.40 0.8792
466.50 0.8796
466.60 0.88
466.70 0.8804
466.80 0.8808
466.90 0.8811
467.00 0.8815
467.10 0.8819
467.20 0.8823
467.30 0.8827
467.40 0.8831
467.50 0.8835
467.60 0.8839
467.70 0.8843
467.80 0.8846
467.90 0.885
468.00 0.8854
468.10 0.8858
468.20 0.8862
468.30 0.8866
468.40 0.887
468.50 0.8874
468.60 0.8877
468.70 0.8881
468.80 0.8885
468.90 0.8889
469.00 0.8893
469.10 0.8897
469.20 0.8901
469.30 0.8904
469.40 0.8908
469.50 0.8912
469.60 0.8916
469.70 0.892
469.80 0.8924
469.90 0.8928
470.00 0.8931
470.10 0.8935
470.20 0.8939
470.30 0.8943
470.40 0.8947
470.50 0.8951
470.60 0.8954
470.70 0.8958
470.80 0.8962
470.90 0.8966
471.00 0.897
471.10 0.8974
471.20 0.8977
471.30 0.8981
471.40 0.8985
471.50 0.8989
471.60 0.8993
471.70 0.8997
471.80 0.9
471.90 0.9004
472.00 0.9008
472.10 0.9012
472.20 0.9016
472.30 0.9019
472.40 0.9023
472.50 0.9027
472.60 0.9031
472.70 0.9035
472.80 0.9038
472.90 0.9042
473.00 0.9046
473.10 0.905
473.20 0.9053
473.30 0.9057
473.40 0.9061
473.50 0.9065
473.60 0.9069
473.70 0.9072
473.80 0.9076
473.90 0.908
474.00 0.9084
474.10 0.9087
474.20 0.9091
474.30 0.9095
474.40 0.9099
474.50 0.9102
474.60 0.9106
474.70 0.911
474.80 0.9114
474.90 0.9117
475.00 0.9121
475.10 0.9125
475.20 0.9129
475.30 0.9132
475.40 0.9136
475.50 0.914
475.60 0.9144
475.70 0.9148
475.80 0.9151
475.90 0.9155
476.00 0.9159
476.10 0.9162
476.20 0.9166
476.30 0.917
476.40 0.9174
476.50 0.9177
476.60 0.9181
476.70 0.9185
476.80 0.9189
476.90 0.9192
477.00 0.9196
477.10 0.92
477.20 0.9203
477.30 0.9207
477.40 0.9211
477.50 0.9215
477.60 0.9218
477.70 0.9222
477.80 0.9226
477.90 0.9229
478.00 0.9233
478.10 0.9237
478.20 0.924
478.30 0.9244
478.40 0.9248
478.50 0.9251
478.60 0.9255
478.70 0.9259
478.80 0.9263
478.90 0.9266
479.00 0.927
479.10 0.9274
479.20 0.9277
479.30 0.9281
479.40 0.9285
479.50 0.9288
479.60 0.9292
479.70 0.9296
479.80 0.9299
479.90 0.9303
480.00 0.9307
480.10 0.931
480.20 0.9314
480.30 0.9318
480.40 0.9321
480.50 0.9325
480.60 0.9329
480.70 0.9332
480.80 0.9336
480.90 0.9339
481.00 0.9343
481.10 0.9347
481.20 0.935
481.30 0.9354
481.40 0.9358
481.50 0.9361
481.60 0.9365
481.70 0.9369
481.80 0.9372
481.90 0.9376
482.00 0.9379
482.10 0.9383
482.20 0.9387
482.30 0.939
482.40 0.9394
482.50 0.9398
482.60 0.9401
482.70 0.9405
482.80 0.9408
482.90 0.9412
483.00 0.9416
483.10 0.9419
483.20 0.9423
483.30 0.9426
483.40 0.943
483.50 0.9434
483.60 0.9437
483.70 0.9441
483.80 0.9444
483.90 0.9448
484.00 0.9451
484.10 0.9455
484.20 0.9459
484.30 0.9462
484.40 0.9466
484.50 0.9469
484.60 0.9473
484.70 0.9476
484.80 0.948
484.90 0.9484
485.00 0.9487
485.10 0.9491
485.20 0.9494
485.30 0.9498
485.40 0.9501
485.50 0.9505
485.60 0.9509
485.70 0.9512
485.80 0.9516
485.90 0.9519
486.00 0.9523
486.10 0.9526
486.20 0.953
486.30 0.9533
486.40 0.9537
486.50 0.954
486.60 0.9544
486.70 0.9548
486.80 0.9551
486.90 0.9555
487.00 0.9558
487.10 0.9562
487.20 0.9565
487.30 0.9569
487.40 0.9572
487.50 0.9576
487.60 0.9579
487.70 0.9583
487.80 0.9586
487.90 0.959
488.00 0.9593
488.10 0.9597
488.20 0.96
488.30 0.9604
488.40 0.9607
488.50 0.9611
488.60 0.9614
488.70 0.9618
488.80 0.9621
488.90 0.9625
489.00 0.9628
489.10 0.9632
489.20 0.9635
489.30 0.9639
489.40 0.9642
489.50 0.9646
489.60 0.9649
489.70 0.9653
489.80 0.9656
489.90 0.966
490.00 0.9663
490.10 0.9667
490.20 0.967
490.30 0.9673
490.40 0.9677
490.50 0.968
490.60 0.9684
490.70 0.9687
490.80 0.9691
490.90 0.9694
491.00 0.9698
491.10 0.9701
491.20 0.9705
491.30 0.9708
491.40 0.9711
491.50 0.9715
491.60 0.9718
491.70 0.9722
491.80 0.9725
491.90 0.9729
492.00 0.9732
492.10 0.9735
492.20 0.9739
492.30 0.9742
492.40 0.9746
492.50 0.9749
492.60 0.9753
492.70 0.9756
492.80 0.9759
492.90 0.9763
493.00 0.9766
493.10 0.977
493.20 0.9773
493.30 0.9776
493.40 0.978
493.50 0.9783
493.60 0.9787
493.70 0.979
493.80 0.9793
493.90 0.9797
494.00 0.98
494.10 0.9804
494.20 0.9807
494.30 0.981
494.40 0.9814
494.50 0.9817
494.60 0.9821
494.70 0.9824
494.80 0.9827
494.90 0.9831
495.00 0.9834
495.10 0.9837
495.20 0.9841
495.30 0.9844
495.40 0.9847
495.50 0.9851
495.60 0.9854
495.70 0.9858
495.80 0.9861
495.90 0.9864
496.00 0.9868
496.10 0.9871
496.20 0.9874
496.30 0.9878
496.40 0.9881
496.50 0.9884
496.60 0.9888
496.70 0.9891
496.80 0.9894
496.90 0.9898
497.00 0.9901
497.10 0.9904
497.20 0.9908
497.30 0.9911
497.40 0.9914
497.50 0.9918
497.60 0.9921
497.70 0.9924
497.80 0.9928
497.90 0.9931
498.00 0.9934
498.10 0.9938
498.20 0.9941
498.30 0.9944
498.40 0.9947
498.50 0.9951
498.60 0.9954
498.70 0.9957
498.80 0.9961
498.90 0.9964
499.00 0.9967
499.10 0.997
499.20 0.9974
499.30 0.9977
499.40 0.998
499.50 0.9984
499.60 0.9987
499.70 0.999
499.80 0.9993
499.90 0.9997
500.00 1
500.10 1
500.20 1.001
500.30 1.001
500.40 1.001
500.50 1.002
500.60 1.002
500.70 1.002
500.80 1.003
500.90 1.003
501.00 1.003
501.10 1.004
501.20 1.004
501.30 1.004
501.40 1.005
501.50 1.005
501.60 1.005
501.70 1.006
501.80 1.006
501.90 1.006
502.00 1.007
502.10 1.007
502.20 1.007
502.30 1.007
502.40 1.008
502.50 1.008
502.60 1.008
502.70 1.009
502.80 1.009
502.90 1.009
503.00 1.01
503.10 1.01
503.20 1.01
503.30 1.011
503.40 1.011
503.50 1.011
503.60 1.012
503.70 1.012
503.80 1.012
503.90 1.013
504.00 1.013
504.10 1.013
504.20 1.014
504.30 1.014
504.40 1.014
504.50 1.015
504.60 1.015
504.70 1.015
504.80 1.015
504.90 1.016
505.00 1.016
505.10 1.016
505.20 1.017
505.30 1.017
505.40 1.017
505.50 1.018
505.60 1.018
505.70 1.018
505.80 1.019
505.90 1.019
506.00 1.019
506.10 1.02
506.20 1.02
506.30 1.02
506.40 1.021
506.50 1.021
506.60 1.021
506.70 1.021
506.80 1.022
506.90 1.022
507.00 1.022
507.10 1.023
507.20 1.023
507.30 1.023
507.40 1.024
507.50 1.024
507.60 1.024
507.70 1.025
507.80 1.025
507.90 1.025
508.00 1.026
508.10 1.026
508.20 1.026
508.30 1.026
508.40 1.027
508.50 1.027
508.60 1.027
508.70 1.028
508.80 1.028
508.90 1.028
509.00 1.029
509.10 1.029
509.20 1.029
509.30 1.03
509.40 1.03
509.50 1.03
509.60 1.03
509.70 1.031
509.80 1.031
509.90 1.031
510.00 1.032
510.10 1.032
510.20 1.032
510.30 1.033
510.40 1.033
510.50 1.033
510.60 1.034
510.70 1.034
510.80 1.034
510.90 1.034
511.00 1.035
511.10 1.035
511.20 1.035
511.30 1.036
511.40 1.036
511.50 1.036
511.60 1.037
511.70 1.037
511.80 1.037
511.90 1.037
512.00 1.038
512.10 1.038
512.20 1.038
512.30 1.039
512.40 1.039
512.50 1.039
512.60 1.04
512.70 1.04
512.80 1.04
512.90 1.04
513.00 1.041
513.10 1.041
513.20 1.041
513.30 1.042
513.40 1.042
513.50 1.042
513.60 1.043
513.70 1.043
513.80 1.043
513.90 1.043
514.00 1.044
514.10 1.044
514.20 1.044
514.30 1.045
514.40 1.045
514.50 1.045
514.60 1.046
514.70 1.046
514.80 1.046
514.90 1.046
515.00 1.047
515.10 1.047
515.20 1.047
515.30 1.048
515.40 1.048
515.50 1.048
515.60 1.049
515.70 1.049
515.80 1.049
515.90 1.049
516.00 1.05
516.10 1.05
516.20 1.05
516.30 1.051
516.40 1.051
516.50 1.051
516.60 1.051
516.70 1.052
516.80 1.052
516.90 1.052
517.00 1.053
517.10 1.053
517.20 1.053
517.30 1.054
517.40 1.054
517.50 1.054
517.60 1.054
517.70 1.055
517.80 1.055
517.90 1.055
518.00 1.056
518.10 1.056
518.20 1.056
518.30 1.056
518.40 1.057
518.50 1.057
518.60 1.057
518.70 1.058
518.80 1.058
518.90 1.058
519.00 1.058
519.10 1.059
519.20 1.059
519.30 1.059
519.40 1.06
519.50 1.06
519.60 1.06
519.70 1.06
519.80 1.061
519.90 1.061
520.00 1.061
520.10 1.062
520.20 1.062
520.30 1.062
520.40 1.062
520.50 1.063
520.60 1.063
520.70 1.063
520.80 1.064
520.90 1.064
521.00 1.064
521.10 1.064
521.20 1.065
521.30 1.065
521.40 1.065
521.50 1.066
521.60 1.066
521.70 1.066
521.80 1.066
521.90 1.067
522.00 1.067
522.10 1.067
522.20 1.068
522.30 1.068
522.40 1.068
522.50 1.068
522.60 1.069
522.70 1.069
522.80 1.069
522.90 1.07
523.00 1.07
523.10 1.07
523.20 1.07
523.30 1.071
523.40 1.071
523.50 1.071
523.60 1.071
523.70 1.072
523.80 1.072
523.90 1.072
524.00 1.073
524.10 1.073
524.20 1.073
524.30 1.073
524.40 1.074
524.50 1.074
524.60 1.074
524.70 1.075
524.80 1.075
524.90 1.075
525.00 1.075
525.10 1.076
525.20 1.076
525.30 1.076
525.40 1.076
525.50 1.077
525.60 1.077
525.70 1.077
525.80 1.078
525.90 1.078
526.00 1.078
526.10 1.078
526.20 1.079
526.30 1.079
526.40 1.079
526.50 1.079
526.60 1.08
526.70 1.08
526.80 1.08
526.90 1.081
527.00 1.081
527.10 1.081
527.20 1.081
527.30 1.082
527.40 1.082
527.50 1.082
527.60 1.082
527.70 1.083
527.80 1.083
527.90 1.083
528.00 1.084
528.10 1.084
528.20 1.084
528.30 1.084
528.40 1.085
528.50 1.085
528.60 1.085
528.70 1.085
528.80 1.086
528.90 1.086
529.00 1.086
529.10 1.086
529.20 1.087
529.30 1.087
529.40 1.087
529.50 1.088
529.60 1.088
529.70 1.088
529.80 1.088
529.90 1.089
530.00 1.089
530.10 1.089
530.20 1.089
530.30 1.09
530.40 1.09
530.50 1.09
530.60 1.09
530.70 1.091
530.80 1.091
530.90 1.091
531.00 1.092
531.10 1.092
531.20 1.092
531.30 1.092
531.40 1.093
531.50 1.093
531.60 1.093
531.70 1.093
531.80 1.094
531.90 1.094
532.00 1.094
532.10 1.094
532.20 1.095
532.30 1.095
532.40 1.095
532.50 1.095
532.60 1.096
532.70 1.096
532.80 1.096
532.90 1.096
533.00 1.097
533.10 1.097
533.20 1.097
533.30 1.098
533.40 1.098
533.50 1.098
533.60 1.098
533.70 1.099
533.80 1.099
533.90 1.099
534.00 1.099
534.10 1.1
534.20 1.1
534.30 1.1
534.40 1.1
534.50 1.101
534.60 1.101
534.70 1.101
534.80 1.101
534.90 1.102
535.00 1.102
535.10 1.102
535.20 1.102
535.30 1.103
535.40 1.103
535.50 1.103
535.60 1.103
535.70 1.104
535.80 1.104
535.90 1.104
536.00 1.104
536.10 1.105
536.20 1.105
536.30 1.105
536.40 1.105
536.50 1.106
536.60 1.106
536.70 1.106
536.80 1.106
536.90 1.107
537.00 1.107
537.10 1.107
537.20 1.107
537.30 1.108
537.40 1.108
537.50 1.108
537.60 1.108
537.70 1.109
537.80 1.109
537.90 1.109
538.00 1.109
538.10 1.11
538.20 1.11
538.30 1.11
538.40 1.11
538.50 1.111
538.60 1.111
538.70 1.111
538.80 1.111
538.90 1.112
539.00 1.112
539.10 1.112
539.20 1.112
539.30 1.113
539.40 1.113
539.50 1.113
539.60 1.113
539.70 1.114
539.80 1.114
539.90 1.114
540.00 1.114
540.10 1.115
540.20 1.115
540.30 1.115
540.40 1.115
540.50 1.116
540.60 1.116
540.70 1.116
540.80 1.116
540.90 1.117
541.00 1.117
541.10 1.117
541.20 1.117
541.30 1.118
541.40 1.118
541.50 1.118
541.60 1.118
541.70 1.118
541.80 1.119
541.90 1.119
542.00 1.119
542.10 1.119
542.20 1.12
542.30 1.12
542.40 1.12
542.50 1.12
542.60 1.121
542.70 1.121
542.80 1.121
542.90 1.121
543.00 1.122
543.10 1.122
543.20 1.122
543.30 1.122
543.40 1.123
543.50 1.123
543.60 1.123
543.70 1.123
543.80 1.124
543.90 1.124
544.00 1.124
544.10 1.124
544.20 1.124
544.30 1.125
544.40 1.125
544.50 1.125
544.60 1.125
544.70 1.126
544.80 1.126
544.90 1.126
545.00 1.126
545.10 1.127
545.20 1.127
545.30 1.127
545.40 1.127
545.50 1.127
545.60 1.128
545.70 1.128
545.80 1.128
545.90 1.128
546.00 1.129
546.10 1.129
546.20 1.129
546.30 1.129
546.40 1.13
546.50 1.13
546.60 1.13
546.70 1.13
546.80 1.13
546.90 1.131
547.00 1.131
547.10 1.131
547.20 1.131
547.30 1.132
547.40 1.132
547.50 1.132
547.60 1.132
547.70 1.133
547.80 1.133
547.90 1.133
548.00 1.133
548.10 1.133
548.20 1.134
548.30 1.134
548.40 1.134
548.50 1.134
548.60 1.135
548.70 1.135
548.80 1.135
548.90 1.135
549.00 1.136
549.10 1.136
549.20 1.136
549.30 1.136
549.40 1.136
549.50 1.137
549.60 1.137
549.70 1.137
549.80 1.137
549.90 1.138
550.00 1.138
550.10 1.138
550.20 1.138
550.30 1.138
550.40 1.139
550.50 1.139
550.60 1.139
550.70 1.139
550.80 1.14
550.90 1.14
551.00 1.14
551.10 1.14
551.20 1.14
551.30 1.141
551.40 1.141
551.50 1.141
551.60 1.141
551.70 1.142
551.80 1.142
551.90 1.142
552.00 1.142
552.10 1.142
552.20 1.143
552.30 1.143
552.40 1.143
552.50 1.143
552.60 1.144
552.70 1.144
552.80 1.144
552.90 1.144
553.00 1.144
553.10 1.145
553.20 1.145
553.30 1.145
553.40 1.145
553.50 1.145
553.60 1.146
553.70 1.146
553.80 1.146
553.90 1.146
554.00 1.147
554.10 1.147
554.20 1.147
554.30 1.147
554.40 1.147
554.50 1.148
554.60 1.148
554.70 1.148
554.80 1.148
554.90 1.148
555.00 1.149
555.10 1.149
555.20 1.149
555.30 1.149
555.40 1.15
555.50 1.15
555.60 1.15
555.70 1.15
555.80 1.15
555.90 1.151
556.00 1.151
556.10 1.151
556.20 1.151
556.30 1.151
556.40 1.152
556.50 1.152
556.60 1.152
556.70 1.152
556.80 1.152
556.90 1.153
557.00 1.153
557.10 1.153
557.20 1.153
557.30 1.154
557.40 1.154
557.50 1.154
557.60 1.154
557.70 1.154
557.80 1.155
557.90 1.155
558.00 1.155
558.10 1.155
558.20 1.155
558.30 1.156
558.40 1.156
558.50 1.156
558.60 1.156
558.70 1.156
558.80 1.157
558.90 1.157
559.00 1.157
559.10 1.157
559.20 1.157
559.30 1.158
559.40 1.158
559.50 1.158
559.60 1.158
559.70 1.159
559.80 1.159
559.90 1.159
560.00 1.159
560.10 1.159
560.20 1.16
560.30 1.16
560.40 1.16
560.50 1.16
560.60 1.16
560.70 1.161
560.80 1.161
560.90 1.161
561.00 1.161
561.10 1.161
561.20 1.162
561.30 1.162
561.40 1.162
561.50 1.162
561.60 1.162
561.70 1.163
561.80 1.163
561.90 1.163
562.00 1.163
562.10 1.163
562.20 1.164
562.30 1.164
562.40 1.164
562.50 1.164
562.60 1.164
562.70 1.165
562.80 1.165
562.90 1.165
563.00 1.165
563.10 1.165
563.20 1.165
563.30 1.166
563.40 1.166
563.50 1.166
563.60 1.166
563.70 1.166
563.80 1.167
563.90 1.167
564.00 1.167
564.10 1.167
564.20 1.167
564.30 1.168
564.40 1.168
564.50 1.168
564.60 1.168
564.70 1.168
564.80 1.169
564.90 1.169
565.00 1.169
565.10 1.169
565.20 1.169
565.30 1.17
565.40 1.17
565.50 1.17
565.60 1.17
565.70 1.17
565.80 1.171
565.90 1.171
566.00 1.171
566.10 1.171
566.20 1.171
566.30 1.172
566.40 1.172
566.50 1.172
566.60 1.172
566.70 1.172
566.80 1.172
566.90 1.173
567.00 1.173
567.10 1.173
567.20 1.173
567.30 1.173
567.40 1.174
567.50 1.174
567.60 1.174
567.70 1.174
567.80 1.174
567.90 1.175
568.00 1.175
568.10 1.175
568.20 1.175
568.30 1.175
568.40 1.175
568.50 1.176
568.60 1.176
568.70 1.176
568.80 1.176
568.90 1.176
569.00 1.177
569.10 1.177
569.20 1.177
569.30 1.177
569.40 1.177
569.50 1.177
569.60 1.178
569.70 1.178
569.80 1.178
569.90 1.178
570.00 1.178
570.10 1.179
570.20 1.179
570.30 1.179
570.40 1.179
570.50 1.179
570.60 1.18
570.70 1.18
570.80 1.18
570.90 1.18
571.00 1.18
571.10 1.18
571.20 1.181
571.30 1.181
571.40 1.181
571.50 1.181
571.60 1.181
571.70 1.182
571.80 1.182
571.90 1.182
572.00 1.182
572.10 1.182
572.20 1.182
572.30 1.183
572.40 1.183
572.50 1.183
572.60 1.183
572.70 1.183
572.80 1.183
572.90 1.184
573.00 1.184
573.10 1.184
573.20 1.184
573.30 1.184
573.40 1.185
573.50 1.185
573.60 1.185
573.70 1.185
573.80 1.185
573.90 1.185
574.00 1.186
574.10 1.186
574.20 1.186
574.30 1.186
574.40 1.186
574.50 1.186
574.60 1.187
574.70 1.187
574.80 1.187
574.90 1.187
575.00 1.187
575.10 1.188
575.20 1.188
575.30 1.188
575.40 1.188
575.50 1.188
575.60 1.188
575.70 1.189
575.80 1.189
575.90 1.189
576.00 1.189
576.10 1.189
576.20 1.189
576.30 1.19
576.40 1.19
576.50 1.19
576.60 1.19
576.70 1.19
576.80 1.19
576.90 1.191
577.00 1.191
577.10 1.191
577.20 1.191
577.30 1.191
577.40 1.191
577.50 1.192
577.60 1.192
577.70 1.192
577.80 1.192
577.90 1.192
578.00 1.192
578.10 1.193
578.20 1.193
578.30 1.193
578.40 1.193
578.50 1.193
578.60 1.193
578.70 1.194
578.80 1.194
578.90 1.194
579.00 1.194
579.10 1.194
579.20 1.194
579.30 1.195
579.40 1.195
579.50 1.195
579.60 1.195
579.70 1.195
579.80 1.195
579.90 1.196
580.00 1.196
580.10 1.196
580.20 1.196
580.30 1.196
580.40 1.196
580.50 1.197
580.60 1.197
580.70 1.197
580.80 1.197
580.90 1.197
581.00 1.197
581.10 1.198
581.20 1.198
581.30 1.198
581.40 1.198
581.50 1.198
581.60 1.198
581.70 1.198
581.80 1.199
581.90 1.199
582.00 1.199
582.10 1.199
582.20 1.199
582.30 1.199
582.40 1.2
582.50 1.2
582.60 1.2
582.70 1.2
582.80 1.2
582.90 1.2
583.00 1.201
583.10 1.201
583.20 1.201
583.30 1.201
583.40 1.201
583.50 1.201
583.60 1.201
583.70 1.202
583.80 1.202
583.90 1.202
584.00 1.202
584.10 1.202
584.20 1.202
584.30 1.203
584.40 1.203
584.50 1.203
584.60 1.203
584.70 1.203
584.80 1.203
584.90 1.203
585.00 1.204
585.10 1.204
585.20 1.204
585.30 1.204
585.40 1.204
585.50 1.204
585.60 1.205
585.70 1.205
585.80 1.205
585.90 1.205
586.00 1.205
586.10 1.205
586.20 1.205
586.30 1.206
586.40 1.206
586.50 1.206
586.60 1.206
586.70 1.206
586.80 1.206
586.90 1.207
587.00 1.207
587.10 1.207
587.20 1.207
587.30 1.207
587.40 1.207
587.50 1.207
587.60 1.208
587.70 1.208
587.80 1.208
587.90 1.208
588.00 1.208
588.10 1.208
588.20 1.208
588.30 1.209
588.40 1.209
588.50 1.209
588.60 1.209
588.70 1.209
588.80 1.209
588.90 1.209
589.00 1.21
589.10 1.21
589.20 1.21
589.30 1.21
589.40 1.21
589.50 1.21
589.60 1.211
589.70 1.211
589.80 1.211
589.90 1.211
590.00 1.211
590.10 1.211
590.20 1.211
590.30 1.212
590.40 1.212
590.50 1.212
590.60 1.212
590.70 1.212
590.80 1.212
590.90 1.212
591.00 1.213
591.10 1.213
591.20 1.213
591.30 1.213
591.40 1.213
591.50 1.213
591.60 1.213
591.70 1.213
591.80 1.214
591.90 1.214
592.00 1.214
592.10 1.214
592.20 1.214
592.30 1.214
592.40 1.214
592.50 1.215
592.60 1.215
592.70 1.215
592.80 1.215
592.90 1.215
593.00 1.215
593.10 1.215
593.20 1.216
593.30 1.216
593.40 1.216
593.50 1.216
593.60 1.216
593.70 1.216
593.80 1.216
593.90 1.217
594.00 1.217
594.10 1.217
594.20 1.217
594.30 1.217
594.40 1.217
594.50 1.217
594.60 1.218
594.70 1.218
594.80 1.218
594.90 1.218
595.00 1.218
595.10 1.218
595.20 1.218
595.30 1.218
595.40 1.219
595.50 1.219
595.60 1.219
595.70 1.219
595.80 1.219
595.90 1.219
596.00 1.219
596.10 1.22
596.20 1.22
596.30 1.22
596.40 1.22
596.50 1.22
596.60 1.22
596.70 1.22
596.80 1.22
596.90 1.221
597.00 1.221
597.10 1.221
597.20 1.221
597.30 1.221
597.40 1.221
597.50 1.221
597.60 1.221
597.70 1.222
597.80 1.222
597.90 1.222
598.00 1.222
598.10 1.222
598.20 1.222
598.30 1.222
598.40 1.223
598.50 1.223
598.60 1.223
598.70 1.223
598.80 1.223
598.90 1.223
599.00 1.223
599.10 1.223
599.20 1.224
599.30 1.224
599.40 1.224
599.50 1.224
599.60 1.224
599.70 1.224
599.80 1.224
599.90 1.224
600.00 1.225
600.10 1.225
600.20 1.225
600.30 1.225
600.40 1.225
600.50 1.225
600.60 1.225
600.70 1.225
600.80 1.226
600.90 1.226
601.00 1.226
601.10 1.226
601.20 1.226
601.30 1.226
601.40 1.226
601.50 1.226
601.60 1.227
601.70 1.227
601.80 1.227
601.90 1.227
602.00 1.227
602.10 1.227
602.20 1.227
602.30 1.227
602.40 1.227
602.50 1.228
602.60 1.228
602.70 1.228
602.80 1.228
602.90 1.228
603.00 1.228
603.10 1.228
603.20 1.228
603.30 1.229
603.40 1.229
603.50 1.229
603.60 1.229
603.70 1.229
603.80 1.229
603.90 1.229
604.00 1.229
604.10 1.229
604.20 1.23
604.30 1.23
604.40 1.23
604.50 1.23
604.60 1.23
604.70 1.23
604.80 1.23
604.90 1.23
605.00 1.231
605.10 1.231
605.20 1.231
605.30 1.231
605.40 1.231
605.50 1.231
605.60 1.231
605.70 1.231
605.80 1.231
605.90 1.232
606.00 1.232
606.10 1.232
606.20 1.232
606.30 1.232
606.40 1.232
606.50 1.232
606.60 1.232
606.70 1.233
606.80 1.233
606.90 1.233
607.00 1.233
607.10 1.233
607.20 1.233
607.30 1.233
607.40 1.233
607.50 1.233
607.60 1.234
607.70 1.234
607.80 1.234
607.90 1.234
608.00 1.234
608.10 1.234
608.20 1.234
608.30 1.234
608.40 1.234
608.50 1.235
608.60 1.235
608.70 1.235
608.80 1.235
608.90 1.235
609.00 1.235
609.10 1.235
609.20 1.235
609.30 1.235
609.40 1.236
609.50 1.236
609.60 1.236
609.70 1.236
609.80 1.236
609.90 1.236
610.00 1.236
610.10 1.236
610.20 1.236
610.30 1.236
610.40 1.237
610.50 1.237
610.60 1.237
610.70 1.237
610.80 1.237
610.90 1.237
611.00 1.237
611.10 1.237
611.20 1.237
611.30 1.238
611.40 1.238
611.50 1.238
611.60 1.238
611.70 1.238
611.80 1.238
611.90 1.238
612.00 1.238
612.10 1.238
612.20 1.238
612.30 1.239
612.40 1.239
612.50 1.239
612.60 1.239
612.70 1.239
612.80 1.239
612.90 1.239
613.00 1.239
613.10 1.239
613.20 1.239
613.30 1.24
613.40 1.24
613.50 1.24
613.60 1.24
613.70 1.24
613.80 1.24
613.90 1.24
614.00 1.24
614.10 1.24
614.20 1.24
614.30 1.241
614.40 1.241
614.50 1.241
614.60 1.241
614.70 1.241
614.80 1.241
614.90 1.241
615.00 1.241
615.10 1.241
615.20 1.241
615.30 1.242
615.40 1.242
615.50 1.242
615.60 1.242
615.70 1.242
615.80 1.242
615.90 1.242
616.00 1.242
616.10 1.242
616.20 1.242
616.30 1.243
616.40 1.243
616.50 1.243
616.60 1.243
616.70 1.243
616.80 1.243
616.90 1.243
617.00 1.243
617.10 1.243
617.20 1.243
617.30 1.243
617.40 1.244
617.50 1.244
617.60 1.244
617.70 1.244
617.80 1.244
617.90 1.244
618.00 1.244
618.10 1.244
618.20 1.244
618.30 1.244
618.40 1.244
618.50 1.245
618.60 1.245
618.70 1.245
618.80 1.245
618.90 1.245
619.00 1.245
619.10 1.245
619.20 1.245
619.30 1.245
619.40 1.245
619.50 1.245
619.60 1.246
619.70 1.246
619.80 1.246
619.90 1.246
620.00 1.246
620.10 1.246
620.20 1.246
620.30 1.246
620.40 1.246
620.50 1.246
620.60 1.246
620.70 1.247
620.80 1.247
620.90 1.247
621.00 1.247
621.10 1.247
621.20 1.247
621.30 1.247
621.40 1.247
621.50 1.247
621.60 1.247
621.70 1.247
621.80 1.247
621.90 1.248
622.00 1.248
622.10 1.248
622.20 1.248
622.30 1.248
622.40 1.248
622.50 1.248
622.60 1.248
622.70 1.248
622.80 1.248
622.90 1.248
623.00 1.248
623.10 1.249
623.20 1.249
623.30 1.249
623.40 1.249
623.50 1.249
623.60 1.249
623.70 1.249
623.80 1.249
623.90 1.249
624.00 1.249
624.10 1.249
624.20 1.25
624.30 1.25
624.40 1.25
624.50 1.25
624.60 1.25
624.70 1.25
624.80 1.25
624.90 1.25
625.00 1.25
625.10 1.25
625.20 1.25
625.30 1.25
625.40 1.25
625.50 1.251
625.60 1.251
625.70 1.251
625.80 1.251
625.90 1.251
626.00 1.251
626.10 1.251
626.20 1.251
626.30 1.251
626.40 1.251
626.50 1.251
626.60 1.251
626.70 1.251
626.80 1.252
626.90 1.252
627.00 1.252
627.10 1.252
627.20 1.252
627.30 1.252
627.40 1.252
627.50 1.252
627.60 1.252
627.70 1.252
627.80 1.252
627.90 1.252
628.00 1.252
628.10 1.253
628.20 1.253
628.30 1.253
628.40 1.253
628.50 1.253
628.60 1.253
628.70 1.253
628.80 1.253
628.90 1.253
629.00 1.253
629.10 1.253
629.20 1.253
629.30 1.253
629.40 1.253
629.50 1.254
629.60 1.254
629.70 1.254
629.80 1.254
629.90 1.254
630.00 1.254
630.10 1.254
630.20 1.254
630.30 1.254
630.40 1.254
630.50 1.254
630.60 1.254
630.70 1.254
630.80 1.254
630.90 1.255
631.00 1.255
631.10 1.255
631.20 1.255
631.30 1.255
631.40 1.255
631.50 1.255
631.60 1.255
631.70 1.255
631.80 1.255
631.90 1.255
632.00 1.255
632.10 1.255
632.20 1.255
632.30 1.256
632.40 1.256
632.50 1.256
632.60 1.256
632.70 1.256
632.80 1.256
632.90 1.256
633.00 1.256
633.10 1.256
633.20 1.256
633.30 1.256
633.40 1.256
633.50 1.256
633.60 1.256
633.70 1.256
633.80 1.257
633.90 1.257
634.00 1.257
634.10 1.257
634.20 1.257
634.30 1.257
634.40 1.257
634.50 1.257
634.60 1.257
634.70 1.257
634.80 1.257
634.90 1.257
635.00 1.257
635.10 1.257
635.20 1.257
635.30 1.257
635.40 1.257
635.50 1.258
635.60 1.258
635.70 1.258
635.80 1.258
635.90 1.258
636.00 1.258
636.10 1.258
636.20 1.258
636.30 1.258
636.40 1.258
636.50 1.258
636.60 1.258
636.70 1.258
636.80 1.258
636.90 1.258
637.00 1.258
637.10 1.259
637.20 1.259
637.30 1.259
637.40 1.259
637.50 1.259
637.60 1.259
637.70 1.259
637.80 1.259
637.90 1.259
638.00 1.259
638.10 1.259
638.20 1.259
638.30 1.259
638.40 1.259
638.50 1.259
638.60 1.259
638.70 1.259
638.80 1.26
638.90 1.26
639.00 1.26
639.10 1.26
639.20 1.26
639.30 1.26
639.40 1.26
639.50 1.26
639.60 1.26
639.70 1.26
639.80 1.26
639.90 1.26
640.00 1.26
640.10 1.26
640.20 1.26
640.30 1.26
640.40 1.26
640.50 1.26
640.60 1.261
640.70 1.261
640.80 1.261
640.90 1.261
641.00 1.261
641.10 1.261
641.20 1.261
641.30 1.261
641.40 1.261
641.50 1.261
641.60 1.261
641.70 1.261
641.80 1.261
641.90 1.261
642.00 1.261
642.10 1.261
642.20 1.261
642.30 1.261
642.40 1.261
642.50 1.261
642.60 1.262
642.70 1.262
642.80 1.262
642.90 1.262
643.00 1.262
643.10 1.262
643.20 1.262
643.30 1.262
643.40 1.262
643.50 1.262
643.60 1.262
643.70 1.262
643.80 1.262
643.90 1.262
644.00 1.262
644.10 1.262
644.20 1.262
644.30 1.262
644.40 1.262
644.50 1.262
644.60 1.262
644.70 1.262
644.80 1.263
644.90 1.263
645.00 1.263
645.10 1.263
645.20 1.263
645.30 1.263
645.40 1.263
645.50 1.263
645.60 1.263
645.70 1.263
645.80 1.263
645.90 1.263
646.00 1.263
646.10 1.263
646.20 1.263
646.30 1.263
646.40 1.263
646.50 1.263
646.60 1.263
646.70 1.263
646.80 1.263
646.90 1.263
647.00 1.264
647.10 1.264
647.20 1.264
647.30 1.264
647.40 1.264
647.50 1.264
647.60 1.264
647.70 1.264
647.80 1.264
647.90 1.264
648.00 1.264
648.10 1.264
648.20 1.264
648.30 1.264
648.40 1.264
648.50 1.264
648.60 1.264
648.70 1.264
648.80 1.264
648.90 1.264
649.00 1.264
649.10 1.264
649.20 1.264
649.30 1.264
649.40 1.264
649.50 1.265
649.60 1.265
649.70 1.265
649.80 1.265
649.90 1.265
650.00 1.265
650.10 1.265
650.20 1.265
650.30 1.265
650.40 1.265
650.50 1.265
650.60 1.265
650.70 1.265
650.80 1.265
650.90 1.265
651.00 1.265
651.10 1.265
651.20 1.265
651.30 1.265
651.40 1.265
651.50 1.265
651.60 1.265
651.70 1.265
651.80 1.265
651.90 1.265
652.00 1.265
652.10 1.265
652.20 1.265
652.30 1.266
652.40 1.266
652.50 1.266
652.60 1.266
652.70 1.266
652.80 1.266
652.90 1.266
653.00 1.266
653.10 1.266
653.20 1.266
653.30 1.266
653.40 1.266
653.50 1.266
653.60 1.266
653.70 1.266
653.80 1.266
653.90 1.266
654.00 1.266
654.10 1.266
654.20 1.266
654.30 1.266
654.40 1.266
654.50 1.266
654.60 1.266
654.70 1.266
654.80 1.266
654.90 1.266
655.00 1.266
655.10 1.266
655.20 1.266
655.30 1.266
655.40 1.266
655.50 1.266
655.60 1.266
655.70 1.267
655.80 1.267
655.90 1.267
656.00 1.267
656.10 1.267
656.20 1.267
656.30 1.267
656.40 1.267
656.50 1.267
656.60 1.267
656.70 1.267
656.80 1.267
656.90 1.267
657.00 1.267
657.10 1.267
657.20 1.267
657.30 1.267
657.40 1.267
657.50 1.267
657.60 1.267
657.70 1.267
657.80 1.267
657.90 1.267
658.00 1.267
658.10 1.267
658.20 1.267
658.30 1.267
658.40 1.267
658.50 1.267
658.60 1.267
658.70 1.267
658.80 1.267
658.90 1.267
659.00 1.267
659.10 1.267
659.20 1.267
659.30 1.267
659.40 1.267
659.50 1.267
659.60 1.267
659.70 1.268
659.80 1.268
659.90 1.268
660.00 1.268
660.10 1.268
660.20 1.268
660.30 1.268
660.40 1.268
660.50 1.268
660.60 1.268
660.70 1.268
660.80 1.268
660.90 1.268
661.00 1.268
661.10 1.268
661.20 1.268
661.30 1.268
661.40 1.268
661.50 1.268
661.60 1.268
661.70 1.268
661.80 1.268
661.90 1.268
662.00 1.268
662.10 1.268
662.20 1.268
662.30 1.268
662.40 1.268
662.50 1.268
662.60 1.268
662.70 1.268
662.80 1.268
662.90 1.268
663.00 1.268
663.10 1.268
663.20 1.268
663.30 1.268
663.40 1.268
663.50 1.268
663.60 1.268
663.70 1.268
663.80 1.268
663.90 1.268
664.00 1.268
664.10 1.268
664.20 1.268
664.30 1.268
664.40 1.268
664.50 1.268
664.60 1.268
664.70 1.268
664.80 1.268
664.90 1.268
665.00 1.268
665.10 1.268
665.20 1.268
665.30 1.268
665.40 1.268
665.50 1.268
665.60 1.268
665.70 1.268
665.80 1.268
665.90 1.268
666.00 1.268
666.10 1.268
666.20 1.269
666.30 1.269
666.40 1.269
666.50 1.269
666.60 1.269
666.70 1.269
666.80 1.269
666.90 1.269
667.00 1.269
667.10 1.269
667.20 1.269
667.30 1.269
667.40 1.269
667.50 1.269
667.60 1.269
667.70 1.269
667.80 1.269
667.90 1.269
668.00 1.269
668.10 1.269
668.20 1.269
668.30 1.269
668.40 1.269
668.50 1.269
668.60 1.269
668.70 1.269
668.80 1.269
668.90 1.269
669.00 1.269
669.10 1.269
669.20 1.269
669.30 1.269
669.40 1.269
669.50 1.269
669.60 1.269
669.70 1.269
669.80 1.269
669.90 1.269
670.00 1.269
670.10 1.269
670.20 1.269
670.30 1.269
670.40 1.269
670.50 1.269
670.60 1.269
670.70 1.269
670.80 1.269
670.90 1.269
671.00 1.269
671.10 1.269
671.20 1.269
671.30 1.269
671.40 1.269
671.50 1.269
671.60 1.269
671.70 1.269
671.80 1.269
671.90 1.269
672.00 1.269
672.10 1.269
672.20 1.269
672.30 1.269
672.40 1.269
672.50 1.269
672.60 1.269
672.70 1.269
672.80 1.269
672.90 1.269
673.00 1.269
673.10 1.269
673.20 1.269
673.30 1.269
673.40 1.269
673.50 1.269
673.60 1.269
673.70 1.269
673.80 1.269
673.90 1.269
674.00 1.269
674.10 1.269
674.20 1.269
674.30 1.269
674.40 1.269
674.50 1.269
674.60 1.269
674.70 1.269
674.80 1.269
674.90 1.269
675.00 1.269
675.10 1.269
675.20 1.269
675.30 1.269
675.40 1.269
675.50 1.269
675.60 1.269
675.70 1.269
675.80 1.269
675.90 1.269
676.00 1.269
676.10 1.268
676.20 1.268
676.30 1.268
676.40 1.268
676.50 1.268
676.60 1.268
676.70 1.268
676.80 1.268
676.90 1.268
677.00 1.268
677.10 1.268
677.20 1.268
677.30 1.268
677.40 1.268
677.50 1.268
677.60 1.268
677.70 1.268
677.80 1.268
677.90 1.268
678.00 1.268
678.10 1.268
678.20 1.268
678.30 1.268
678.40 1.268
678.50 1.268
678.60 1.268
678.70 1.268
678.80 1.268
678.90 1.268
679.00 1.268
679.10 1.268
679.20 1.268
679.30 1.268
679.40 1.268
679.50 1.268
679.60 1.268
679.70 1.268
679.80 1.268
679.90 1.268
680.00 1.268
680.10 1.268
680.20 1.268
680.30 1.268
680.40 1.268
680.50 1.268
680.60 1.268
680.70 1.268
680.80 1.268
680.90 1.268
681.00 1.268
681.10 1.268
681.20 1.268
681.30 1.268
681.40 1.268
681.50 1.268
681.60 1.268
681.70 1.268
681.80 1.268
681.90 1.268
682.00 1.268
682.10 1.268
682.20 1.268
682.30 1.268
682.40 1.268
682.50 1.268
682.60 1.268
682.70 1.268
682.80 1.268
682.90 1.267
683.00 1.267
683.10 1.267
683.20 1.267
683.30 1.267
683.40 1.267
683.50 1.267
683.60 1.267
683.70 1.267
683.80 1.267
683.90 1.267
684.00 1.267
684.10 1.267
684.20 1.267
684.30 1.267
684.40 1.267
684.50 1.267
684.60 1.267
684.70 1.267
684.80 1.267
684.90 1.267
685.00 1.267
685.10 1.267
685.20 1.267
685.30 1.267
685.40 1.267
685.50 1.267
685.60 1.267
685.70 1.267
685.80 1.267
685.90 1.267
686.00 1.267
686.10 1.267
686.20 1.267
686.30 1.267
686.40 1.267
686.50 1.267
686.60 1.267
686.70 1.267
686.80 1.266
686.90 1.266
687.00 1.266
687.10 1.266
687.20 1.266
687.30 1.266
687.40 1.266
687.50 1.266
687.60 1.266
687.70 1.266
687.80 1.266
687.90 1.266
688.00 1.266
688.10 1.266
688.20 1.266
688.30 1.266
688.40 1.266
688.50 1.266
688.60 1.266
688.70 1.266
688.80 1.266
688.90 1.266
689.00 1.266
689.10 1.266
689.20 1.266
689.30 1.266
689.40 1.266
689.50 1.266
689.60 1.266
689.70 1.266
689.80 1.266
689.90 1.265
690.00 1.265
690.10 1.265
690.20 1.265
690.30 1.265
690.40 1.265
690.50 1.265
690.60 1.265
690.70 1.265
690.80 1.265
690.90 1.265
691.00 1.265
691.10 1.265
691.20 1.265
691.30 1.265
691.40 1.265
691.50 1.265
691.60 1.265
691.70 1.265
691.80 1.265
691.90 1.265
692.00 1.265
692.10 1.265
692.20 1.265
692.30 1.265
692.40 1.264
692.50 1.264
692.60 1.264
692.70 1.264
692.80 1.264
692.90 1.264
693.00 1.264
693.10 1.264
693.20 1.264
693.30 1.264
693.40 1.264
693.50 1.264
693.60 1.264
693.70 1.264
693.80 1.264
693.90 1.264
694.00 1.264
694.10 1.264
694.20 1.264
694.30 1.264
694.40 1.264
694.50 1.264
694.60 1.264
694.70 1.264
694.80 1.263
694.90 1.263
695.00 1.263
695.10 1.263
695.20 1.263
695.30 1.263
695.40 1.263
695.50 1.263
695.60 1.263
695.70 1.263
695.80 1.263
695.90 1.263
696.00 1.263
696.10 1.263
696.20 1.263
696.30 1.263
696.40 1.263
696.50 1.263
696.60 1.263
696.70 1.263
696.80 1.263
696.90 1.262
697.00 1.262
697.10 1.262
697.20 1.262
697.30 1.262
697.40 1.262
697.50 1.262
697.60 1.262
697.70 1.262
697.80 1.262
697.90 1.262
698.00 1.262
698.10 1.262
698.20 1.262
698.30 1.262
698.40 1.262
698.50 1.262
698.60 1.262
698.70 1.262
698.80 1.262
698.90 1.261
699.00 1.261
699.10 1.261
699.20 1.261
699.30 1.261
699.40 1.261
699.50 1.261
699.60 1.261
699.70 1.261
699.80 1.261
699.90 1.261
700.00 1.261
700.10 1.261
700.20 1.261
700.30 1.261
700.40 1.261
700.50 1.261
700.60 1.261
700.70 1.26
700.80 1.26
700.90 1.26
701.00 1.26
701.10 1.26
701.20 1.26
701.30 1.26
701.40 1.26
701.50 1.26
701.60 1.26
701.70 1.26
701.80 1.26
701.90 1.26
702.00 1.26
702.10 1.26
702.20 1.26
702.30 1.259
702.40 1.259
702.50 1.259
702.60 1.259
702.70 1.259
702.80 1.259
702.90 1.259
703.00 1.259
703.10 1.259
703.20 1.259
703.30 1.259
703.40 1.259
703.50 1.259
703.60 1.259
703.70 1.259
703.80 1.259
703.90 1.258
704.00 1.258
704.10 1.258
704.20 1.258
704.30 1.258
704.40 1.258
704.50 1.258
704.60 1.258
704.70 1.258
704.80 1.258
704.90 1.258
705.00 1.258
705.10 1.258
705.20 1.258
705.30 1.258
705.40 1.258
705.50 1.257
705.60 1.257
705.70 1.257
705.80 1.257
705.90 1.257
706.00 1.257
706.10 1.257
706.20 1.257
706.30 1.257
706.40 1.257
706.50 1.257
706.60 1.257
706.70 1.257
706.80 1.257
706.90 1.256
707.00 1.256
707.10 1.256
707.20 1.256
707.30 1.256
707.40 1.256
707.50 1.256
707.60 1.256
707.70 1.256
707.80 1.256
707.90 1.256
708.00 1.256
708.10 1.256
708.20 1.256
708.30 1.255
708.40 1.255
708.50 1.255
708.60 1.255
708.70 1.255
708.80 1.255
708.90 1.255
709.00 1.255
709.10 1.255
709.20 1.255
709.30 1.255
709.40 1.255
709.50 1.255
709.60 1.255
709.70 1.254
709.80 1.254
709.90 1.254
710.00 1.254
710.10 1.254
710.20 1.254
710.30 1.254
710.40 1.254
710.50 1.254
710.60 1.254
710.70 1.254
710.80 1.254
710.90 1.254
711.00 1.253
711.10 1.253
711.20 1.253
711.30 1.253
711.40 1.253
711.50 1.253
711.60 1.253
711.70 1.253
711.80 1.253
711.90 1.253
712.00 1.253
712.10 1.253
712.20 1.252
712.30 1.252
712.40 1.252
712.50 1.252
712.60 1.252
712.70 1.252
712.80 1.252
712.90 1.252
713.00 1.252
713.10 1.252
713.20 1.252
713.30 1.252
713.40 1.251
713.50 1.251
713.60 1.251
713.70 1.251
713.80 1.251
713.90 1.251
714.00 1.251
714.10 1.251
714.20 1.251
714.30 1.251
714.40 1.251
714.50 1.251
714.60 1.25
714.70 1.25
714.80 1.25
714.90 1.25
715.00 1.25
715.10 1.25
715.20 1.25
715.30 1.25
715.40 1.25
715.50 1.25
715.60 1.25
715.70 1.25
715.80 1.249
715.90 1.249
716.00 1.249
716.10 1.249
716.20 1.249
716.30 1.249
716.40 1.249
716.50 1.249
716.60 1.249
716.70 1.249
716.80 1.249
716.90 1.248
717.00 1.248
717.10 1.248
717.20 1.248
717.30 1.248
717.40 1.248
717.50 1.248
717.60 1.248
717.70 1.248
717.80 1.248
717.90 1.248
718.00 1.247
718.10 1.247
718.20 1.247
718.30 1.247
718.40 1.247
718.50 1.247
718.60 1.247
718.70 1.247
718.80 1.247
718.90 1.247
719.00 1.247
719.10 1.247
719.20 1.246
719.30 1.246
719.40 1.246
719.50 1.246
719.60 1.246
719.70 1.246
719.80 1.246
719.90 1.246
720.00 1.246
720.10 1.246
720.20 1.246
720.30 1.245
720.40 1.245
720.50 1.245
720.60 1.245
720.70 1.245
720.80 1.245
720.90 1.245
721.00 1.245
721.10 1.245
721.20 1.245
721.30 1.244
721.40 1.244
721.50 1.244
721.60 1.244
721.70 1.244
721.80 1.244
721.90 1.244
722.00 1.244
722.10 1.244
722.20 1.244
722.30 1.243
722.40 1.243
722.50 1.243
722.60 1.243
722.70 1.243
722.80 1.243
722.90 1.243
723.00 1.243
723.10 1.243
723.20 1.243
723.30 1.243
723.40 1.242
723.50 1.242
723.60 1.242
723.70 1.242
723.80 1.242
723.90 1.242
724.00 1.242
724.10 1.242
724.20 1.242
724.30 1.242
724.40 1.241
724.50 1.241
724.60 1.241
724.70 1.241
724.80 1.241
724.90 1.241
725.00 1.241
725.10 1.241
725.20 1.241
725.30 1.241
725.40 1.24
725.50 1.24
725.60 1.24
725.70 1.24
725.80 1.24
725.90 1.24
726.00 1.24
726.10 1.24
726.20 1.24
726.30 1.24
726.40 1.239
726.50 1.239
726.60 1.239
726.70 1.239
726.80 1.239
726.90 1.239
727.00 1.239
727.10 1.239
727.20 1.239
727.30 1.239
727.40 1.238
727.50 1.238
727.60 1.238
727.70 1.238
727.80 1.238
727.90 1.238
728.00 1.238
728.10 1.238
728.20 1.238
728.30 1.237
728.40 1.237
728.50 1.237
728.60 1.237
728.70 1.237
728.80 1.237
728.90 1.237
729.00 1.237
729.10 1.237
729.20 1.237
729.30 1.236
729.40 1.236
729.50 1.236
729.60 1.236
729.70 1.236
729.80 1.236
729.90 1.236
730.00 1.236
730.10 1.236
730.20 1.236
730.30 1.235
730.40 1.235
730.50 1.235
730.60 1.235
730.70 1.235
730.80 1.235
730.90 1.235
731.00 1.235
731.10 1.235
731.20 1.235
731.30 1.234
731.40 1.234
731.50 1.234
731.60 1.234
731.70 1.234
731.80 1.234
731.90 1.234
732.00 1.234
732.10 1.234
732.20 1.233
732.30 1.233
732.40 1.233
732.50 1.233
732.60 1.233
732.70 1.233
732.80 1.233
732.90 1.233
733.00 1.233
733.10 1.233
733.20 1.232
733.30 1.232
733.40 1.232
733.50 1.232
733.60 1.232
733.70 1.232
733.80 1.232
733.90 1.232
734.00 1.232
734.10 1.231
734.20 1.231
734.30 1.231
734.40 1.231
734.50 1.231
734.60 1.231
734.70 1.231
734.80 1.231
734.90 1.231
735.00 1.231
735.10 1.23
735.20 1.23
735.30 1.23
735.40 1.23
735.50 1.23
735.60 1.23
735.70 1.23
735.80 1.23
735.90 1.23
736.00 1.229
736.10 1.229
736.20 1.229
736.30 1.229
736.40 1.229
736.50 1.229
736.60 1.229
736.70 1.229
736.80 1.229
736.90 1.229
737.00 1.228
737.10 1.228
737.20 1.228
737.30 1.228
737.40 1.228
737.50 1.228
737.60 1.228
737.70 1.228
737.80 1.228
737.90 1.227
738.00 1.227
738.10 1.227
738.20 1.227
738.30 1.227
738.40 1.227
738.50 1.227
738.60 1.227
738.70 1.227
738.80 1.227
738.90 1.226
739.00 1.226
739.10 1.226
739.20 1.226
739.30 1.226
739.40 1.226
739.50 1.226
739.60 1.226
739.70 1.226
739.80 1.225
739.90 1.225
740.00 1.225
740.10 1.225
740.20 1.225
740.30 1.225
740.40 1.225
740.50 1.225
740.60 1.225
740.70 1.225
740.80 1.224
740.90 1.224
741.00 1.224
741.10 1.224
741.20 1.224
741.30 1.224
741.40 1.224
741.50 1.224
741.60 1.224
741.70 1.223
741.80 1.223
741.90 1.223
742.00 1.223
742.10 1.223
742.20 1.223
742.30 1.223
742.40 1.223
742.50 1.223
742.60 1.223
742.70 1.222
742.80 1.222
742.90 1.222
743.00 1.222
743.10 1.222
743.20 1.222
743.30 1.222
743.40 1.222
743.50 1.222
743.60 1.221
743.70 1.221
743.80 1.221
743.90 1.221
744.00 1.221
744.10 1.221
744.20 1.221
744.30 1.221
744.40 1.221
744.50 1.221
744.60 1.22
744.70 1.22
744.80 1.22
744.90 1.22
745.00 1.22
745.10 1.22
745.20 1.22
745.30 1.22
745.40 1.22
745.50 1.219
745.60 1.219
745.70 1.219
745.80 1.219
745.90 1.219
746.00 1.219
746.10 1.219
746.20 1.219
746.30 1.219
746.40 1.219
746.50 1.218
746.60 1.218
746.70 1.218
746.80 1.218
746.90 1.218
747.00 1.218
747.10 1.218
747.20 1.218
747.30 1.218
747.40 1.217
747.50 1.217
747.60 1.217
747.70 1.217
747.80 1.217
747.90 1.217
748.00 1.217
748.10 1.217
748.20 1.217
748.30 1.217
748.40 1.216
748.50 1.216
748.60 1.216
748.70 1.216
748.80 1.216
748.90 1.216
749.00 1.216
749.10 1.216
749.20 1.216
749.30 1.215
749.40 1.215
749.50 1.215
749.60 1.215
749.70 1.215
749.80 1.215
749.90 1.215
750.00 1.215
750.10 1.215
750.20 1.215
750.30 1.214
750.40 1.214
750.50 1.214
750.60 1.214
750.70 1.214
750.80 1.214
750.90 1.214
751.00 1.214
751.10 1.214
751.20 1.213
751.30 1.213
751.40 1.213
751.50 1.213
751.60 1.213
751.70 1.213
751.80 1.213
751.90 1.213
752.00 1.213
752.10 1.213
752.20 1.212
752.30 1.212
752.40 1.212
752.50 1.212
752.60 1.212
752.70 1.212
752.80 1.212
752.90 1.212
753.00 1.212
753.10 1.211
753.20 1.211
753.30 1.211
753.40 1.211
753.50 1.211
753.60 1.211
753.70 1.211
753.80 1.211
753.90 1.211
754.00 1.21
754.10 1.21
754.20 1.21
754.30 1.21
754.40 1.21
754.50 1.21
754.60 1.21
754.70 1.21
754.80 1.21
754.90 1.21
755.00 1.209
755.10 1.209
755.20 1.209
755.30 1.209
755.40 1.209
755.50 1.209
755.60 1.209
755.70 1.209
755.80 1.209
755.90 1.208
756.00 1.208
756.10 1.208
756.20 1.208
756.30 1.208
756.40 1.208
756.50 1.208
756.60 1.208
756.70 1.208
756.80 1.207
756.90 1.207
757.00 1.207
757.10 1.207
757.20 1.207
757.30 1.207
757.40 1.207
757.50 1.207
757.60 1.207
757.70 1.207
757.80 1.206
757.90 1.206
758.00 1.206
758.10 1.206
758.20 1.206
758.30 1.206
758.40 1.206
758.50 1.206
758.60 1.206
758.70 1.205
758.80 1.205
758.90 1.205
759.00 1.205
759.10 1.205
759.20 1.205
759.30 1.205
759.40 1.205
759.50 1.205
759.60 1.205
759.70 1.204
759.80 1.204
759.90 1.204
760.00 1.204
760.10 1.204
760.20 1.204
760.30 1.204
760.40 1.204
760.50 1.204
760.60 1.203
760.70 1.203
760.80 1.203
760.90 1.203
761.00 1.203
761.10 1.203
761.20 1.203
761.30 1.203
761.40 1.203
761.50 1.202
761.60 1.202
761.70 1.202
761.80 1.202
761.90 1.202
762.00 1.202
762.10 1.202
762.20 1.202
762.30 1.202
762.40 1.201
762.50 1.201
762.60 1.201
762.70 1.201
762.80 1.201
762.90 1.201
763.00 1.201
763.10 1.201
763.20 1.201
763.30 1.201
763.40 1.2
763.50 1.2
763.60 1.2
763.70 1.2
763.80 1.2
763.90 1.2
764.00 1.2
764.10 1.2
764.20 1.2
764.30 1.199
764.40 1.199
764.50 1.199
764.60 1.199
764.70 1.199
764.80 1.199
764.90 1.199
765.00 1.199
765.10 1.199
765.20 1.198
765.30 1.198
765.40 1.198
765.50 1.198
765.60 1.198
765.70 1.198
765.80 1.198
765.90 1.198
766.00 1.198
766.10 1.198
766.20 1.197
766.30 1.197
766.40 1.197
766.50 1.197
766.60 1.197
766.70 1.197
766.80 1.197
766.90 1.197
767.00 1.197
767.10 1.196
767.20 1.196
767.30 1.196
767.40 1.196
767.50 1.196
767.60 1.196
767.70 1.196
767.80 1.196
767.90 1.196
768.00 1.195
768.10 1.195
768.20 1.195
768.30 1.195
768.40 1.195
768.50 1.195
768.60 1.195
768.70 1.195
768.80 1.195
768.90 1.195
769.00 1.194
769.10 1.194
769.20 1.194
769.30 1.194
769.40 1.194
769.50 1.194
769.60 1.194
769.70 1.194
769.80 1.194
769.90 1.193
770.00 1.193
770.10 1.193
770.20 1.193
770.30 1.193
770.40 1.193
770.50 1.193
770.60 1.193
770.70 1.193
770.80 1.192
770.90 1.192
771.00 1.192
771.10 1.192
771.20 1.192
771.30 1.192
771.40 1.192
771.50 1.192
771.60 1.192
771.70 1.191
771.80 1.191
771.90 1.191
772.00 1.191
772.10 1.191
772.20 1.191
772.30 1.191
772.40 1.191
772.50 1.191
772.60 1.191
772.70 1.19
772.80 1.19
772.90 1.19
773.00 1.19
773.10 1.19
773.20 1.19
773.30 1.19
773.40 1.19
773.50 1.19
773.60 1.189
773.70 1.189
773.80 1.189
773.90 1.189
774.00 1.189
774.10 1.189
774.20 1.189
774.30 1.189
774.40 1.189
774.50 1.188
774.60 1.188
774.70 1.188
774.80 1.188
774.90 1.188
775.00 1.188
775.10 1.188
775.20 1.188
775.30 1.188
775.40 1.187
775.50 1.187
775.60 1.187
775.70 1.187
775.80 1.187
775.90 1.187
776.00 1.187
776.10 1.187
776.20 1.187
776.30 1.187
776.40 1.186
776.50 1.186
776.60 1.186
776.70 1.186
776.80 1.186
776.90 1.186
777.00 1.186
777.10 1.186
777.20 1.186
777.30 1.185
777.40 1.185
777.50 1.185
777.60 1.185
777.70 1.185
777.80 1.185
777.90 1.185
778.00 1.185
778.10 1.185
778.20 1.184
778.30 1.184
778.40 1.184
778.50 1.184
778.60 1.184
778.70 1.184
778.80 1.184
778.90 1.184
779.00 1.184
779.10 1.184
779.20 1.183
779.30 1.183
779.40 1.183
779.50 1.183
779.60 1.183
779.70 1.183
779.80 1.183
779.90 1.183
780.00 1.183
780.10 1.182
780.20 1.182
780.30 1.182
780.40 1.182
780.50 1.182
780.60 1.182
780.70 1.182
780.80 1.182
780.90 1.182
781.00 1.182
781.10 1.181
781.20 1.181
781.30 1.181
781.40 1.181
781.50 1.181
781.60 1.181
781.70 1.181
781.80 1.181
781.90 1.181
782.00 1.18
782.10 1.18
782.20 1.18
782.30 1.18
782.40 1.18
782.50 1.18
782.60 1.18
782.70 1.18
782.80 1.18
782.90 1.179
783.00 1.179
783.10 1.179
783.20 1.179
783.30 1.179
783.40 1.179
783.50 1.179
783.60 1.179
783.70 1.179
783.80 1.179
783.90 1.178
784.00 1.178
784.10 1.178
784.20 1.178
784.30 1.178
784.40 1.178
784.50 1.178
784.60 1.178
784.70 1.178
784.80 1.177
784.90 1.177
785.00 1.177
785.10 1.177
785.20 1.177
785.30 1.177
785.40 1.177
785.50 1.177
785.60 1.177
785.70 1.177
785.80 1.176
785.90 1.176
786.00 1.176
786.10 1.176
786.20 1.176
786.30 1.176
786.40 1.176
786.50 1.176
786.60 1.176
786.70 1.175
786.80 1.175
786.90 1.175
787.00 1.175
787.10 1.175
787.20 1.175
787.30 1.175
787.40 1.175
787.50 1.175
787.60 1.175
787.70 1.174
787.80 1.174
787.90 1.174
788.00 1.174
788.10 1.174
788.20 1.174
788.30 1.174
788.40 1.174
788.50 1.174
788.60 1.173
788.70 1.173
788.80 1.173
788.90 1.173
789.00 1.173
789.10 1.173
789.20 1.173
789.30 1.173
789.40 1.173
789.50 1.173
789.60 1.172
789.70 1.172
789.80 1.172
789.90 1.172
790.00 1.172
790.10 1.172
790.20 1.172
790.30 1.172
790.40 1.172
790.50 1.171
790.60 1.171
790.70 1.171
790.80 1.171
790.90 1.171
791.00 1.171
791.10 1.171
791.20 1.171
791.30 1.171
791.40 1.17
791.50 1.17
791.60 1.17
791.70 1.17
791.80 1.17
791.90 1.17
792.00 1.17
792.10 1.17
792.20 1.17
792.30 1.169
792.40 1.169
792.50 1.169
792.60 1.169
792.70 1.169
792.80 1.169
792.90 1.169
793.00 1.169
793.10 1.169
793.20 1.168
793.30 1.168
793.40 1.168
793.50 1.168
793.60 1.168
793.70 1.168
793.80 1.168
793.90 1.168
794.00 1.168
794.10 1.167
794.20 1.167
794.30 1.167
794.40 1.167
794.50 1.167
794.60 1.167
794.70 1.167
794.80 1.167
794.90 1.167
795.00 1.167
795.10 1.166
795.20 1.166
795.30 1.166
795.40 1.166
795.50 1.166
795.60 1.166
795.70 1.166
795.80 1.166
795.90 1.166
796.00 1.165
796.10 1.165
796.20 1.165
796.30 1.165
796.40 1.165
796.50 1.165
796.60 1.165
796.70 1.165
796.80 1.165
796.90 1.164
797.00 1.164
797.10 1.164
797.20 1.164
797.30 1.164
797.40 1.164
797.50 1.164
797.60 1.164
797.70 1.164
797.80 1.163
797.90 1.163
798.00 1.163
798.10 1.163
798.20 1.163
798.30 1.163
798.40 1.163
798.50 1.163
798.60 1.163
798.70 1.162
798.80 1.162
798.90 1.162
799.00 1.162
799.10 1.162
799.20 1.162
799.30 1.162
799.40 1.162
799.50 1.162
799.60 1.161
799.70 1.161
799.80 1.161
799.90 1.161
800.00 1.161
800.10 1.161
800.20 1.161
800.30 1.161
800.40 1.161
800.50 1.16
800.60 1.16
800.70 1.16
800.80 1.16
800.90 1.16
801.00 1.16
801.10 1.16
801.20 1.16
801.30 1.159
801.40 1.159
801.50 1.159
801.60 1.159
801.70 1.159
801.80 1.159
801.90 1.159
802.00 1.159
802.10 1.158
802.20 1.158
802.30 1.158
802.40 1.158
802.50 1.158
802.60 1.158
802.70 1.158
802.80 1.158
802.90 1.157
803.00 1.157
803.10 1.157
803.20 1.157
803.30 1.157
803.40 1.157
803.50 1.157
803.60 1.157
803.70 1.157
803.80 1.156
803.90 1.156
804.00 1.156
804.10 1.156
804.20 1.156
804.30 1.156
804.40 1.156
804.50 1.156
804.60 1.155
804.70 1.155
804.80 1.155
804.90 1.155
805.00 1.155
805.10 1.155
805.20 1.155
805.30 1.155
805.40 1.154
805.50 1.154
805.60 1.154
805.70 1.154
805.80 1.154
805.90 1.154
806.00 1.154
806.10 1.154
806.20 1.153
806.30 1.153
806.40 1.153
806.50 1.153
806.60 1.153
806.70 1.153
806.80 1.153
806.90 1.153
807.00 1.153
807.10 1.152
807.20 1.152
807.30 1.152
807.40 1.152
807.50 1.152
807.60 1.152
807.70 1.152
807.80 1.152
807.90 1.151
808.00 1.151
808.10 1.151
808.20 1.151
808.30 1.151
808.40 1.151
808.50 1.151
808.60 1.151
808.70 1.15
808.80 1.15
808.90 1.15
809.00 1.15
809.10 1.15
809.20 1.15
809.30 1.15
809.40 1.15
809.50 1.15
809.60 1.149
809.70 1.149
809.80 1.149
809.90 1.149
810.00 1.149
810.10 1.149
810.20 1.149
810.30 1.148
810.40 1.148
810.50 1.148
810.60 1.148
810.70 1.148
810.80 1.148
810.90 1.148
811.00 1.148
811.10 1.147
811.20 1.147
811.30 1.147
811.40 1.147
811.50 1.147
811.60 1.147
811.70 1.147
811.80 1.146
811.90 1.146
812.00 1.146
812.10 1.146
812.20 1.146
812.30 1.146
812.40 1.146
812.50 1.145
812.60 1.145
812.70 1.145
812.80 1.145
812.90 1.145
813.00 1.145
813.10 1.145
813.20 1.145
813.30 1.144
813.40 1.144
813.50 1.144
813.60 1.144
813.70 1.144
813.80 1.144
813.90 1.144
814.00 1.143
814.10 1.143
814.20 1.143
814.30 1.143
814.40 1.143
814.50 1.143
814.60 1.143
814.70 1.143
814.80 1.142
814.90 1.142
815.00 1.142
815.10 1.142
815.20 1.142
815.30 1.142
815.40 1.142
815.50 1.141
815.60 1.141
815.70 1.141
815.80 1.141
815.90 1.141
816.00 1.141
816.10 1.141
816.20 1.14
816.30 1.14
816.40 1.14
816.50 1.14
816.60 1.14
816.70 1.14
816.80 1.14
816.90 1.14
817.00 1.139
817.10 1.139
817.20 1.139
817.30 1.139
817.40 1.139
817.50 1.139
817.60 1.139
817.70 1.138
817.80 1.138
817.90 1.138
818.00 1.138
818.10 1.138
818.20 1.138
818.30 1.138
818.40 1.138
818.50 1.137
818.60 1.137
818.70 1.137
818.80 1.137
818.90 1.137
819.00 1.137
819.10 1.137
819.20 1.136
819.30 1.136
819.40 1.136
819.50 1.136
819.60 1.136
819.70 1.136
819.80 1.136
819.90 1.136
820.00 1.135
820.10 1.135
820.20 1.135
820.30 1.135
820.40 1.135
820.50 1.135
820.60 1.135
820.70 1.134
820.80 1.134
820.90 1.134
821.00 1.134
821.10 1.134
821.20 1.134
821.30 1.134
821.40 1.133
821.50 1.133
821.60 1.133
821.70 1.133
821.80 1.133
821.90 1.133
822.00 1.133
822.10 1.132
822.20 1.132
822.30 1.132
822.40 1.132
822.50 1.132
822.60 1.132
822.70 1.132
822.80 1.131
822.90 1.131
823.00 1.131
823.10 1.131
823.20 1.131
823.30 1.131
823.40 1.13
823.50 1.13
823.60 1.13
823.70 1.13
823.80 1.13
823.90 1.13
824.00 1.13
824.10 1.129
824.20 1.129
824.30 1.129
824.40 1.129
824.50 1.129
824.60 1.129
824.70 1.129
824.80 1.128
824.90 1.128
825.00 1.128
825.10 1.128
825.20 1.128
825.30 1.128
825.40 1.128
825.50 1.127
825.60 1.127
825.70 1.127
825.80 1.127
825.90 1.127
826.00 1.127
826.10 1.127
826.20 1.126
826.30 1.126
826.40 1.126
826.50 1.126
826.60 1.126
826.70 1.126
826.80 1.126
826.90 1.125
827.00 1.125
827.10 1.125
827.20 1.125
827.30 1.125
827.40 1.125
827.50 1.124
827.60 1.124
827.70 1.124
827.80 1.124
827.90 1.124
828.00 1.124
828.10 1.124
828.20 1.123
828.30 1.123
828.40 1.123
828.50 1.123
828.60 1.123
828.70 1.123
828.80 1.123
828.90 1.122
829.00 1.122
829.10 1.122
829.20 1.122
829.30 1.122
829.40 1.122
829.50 1.121
829.60 1.121
829.70 1.121
829.80 1.121
829.90 1.121
830.00 1.121
830.10 1.121
830.20 1.12
830.30 1.12
830.40 1.12
830.50 1.12
830.60 1.12
830.70 1.12
830.80 1.119
830.90 1.119
831.00 1.119
831.10 1.119
831.20 1.119
831.30 1.119
831.40 1.119
831.50 1.118
831.60 1.118
831.70 1.118
831.80 1.118
831.90 1.118
832.00 1.118
832.10 1.118
832.20 1.117
832.30 1.117
832.40 1.117
832.50 1.117
832.60 1.117
832.70 1.117
832.80 1.116
832.90 1.116
833.00 1.116
833.10 1.116
833.20 1.116
833.30 1.116
833.40 1.115
833.50 1.115
833.60 1.115
833.70 1.115
833.80 1.115
833.90 1.115
834.00 1.115
834.10 1.114
834.20 1.114
834.30 1.114
834.40 1.114
834.50 1.114
834.60 1.114
834.70 1.113
834.80 1.113
834.90 1.113
835.00 1.113
835.10 1.113
835.20 1.113
835.30 1.113
835.40 1.112
835.50 1.112
835.60 1.112
835.70 1.112
835.80 1.112
835.90 1.112
836.00 1.111
836.10 1.111
836.20 1.111
836.30 1.111
836.40 1.111
836.50 1.111
836.60 1.111
836.70 1.11
836.80 1.11
836.90 1.11
837.00 1.11
837.10 1.11
837.20 1.11
837.30 1.109
837.40 1.109
837.50 1.109
837.60 1.109
837.70 1.109
837.80 1.109
837.90 1.108
838.00 1.108
838.10 1.108
838.20 1.108
838.30 1.108
838.40 1.108
838.50 1.107
838.60 1.107
838.70 1.107
838.80 1.107
838.90 1.107
839.00 1.107
839.10 1.107
839.20 1.106
839.30 1.106
839.40 1.106
839.50 1.106
839.60 1.106
839.70 1.106
839.80 1.105
839.90 1.105
840.00 1.105
840.10 1.105
840.20 1.105
840.30 1.105
840.40 1.104
840.50 1.104
840.60 1.104
840.70 1.104
840.80 1.104
840.90 1.104
841.00 1.103
841.10 1.103
841.20 1.103
841.30 1.103
841.40 1.103
841.50 1.103
841.60 1.103
841.70 1.102
841.80 1.102
841.90 1.102
842.00 1.102
842.10 1.102
842.20 1.102
842.30 1.101
842.40 1.101
842.50 1.101
842.60 1.101
842.70 1.101
842.80 1.101
842.90 1.1
843.00 1.1
843.10 1.1
843.20 1.1
843.30 1.1
843.40 1.1
843.50 1.099
843.60 1.099
843.70 1.099
843.80 1.099
843.90 1.099
844.00 1.099
844.10 1.098
844.20 1.098
844.30 1.098
844.40 1.098
844.50 1.098
844.60 1.098
844.70 1.097
844.80 1.097
844.90 1.097
845.00 1.097
845.10 1.097
845.20 1.097
845.30 1.096
845.40 1.096
845.50 1.096
845.60 1.096
845.70 1.096
845.80 1.096
845.90 1.095
846.00 1.095
846.10 1.095
846.20 1.095
846.30 1.095
846.40 1.095
846.50 1.094
846.60 1.094
846.70 1.094
846.80 1.094
846.90 1.094
847.00 1.094
847.10 1.093
847.20 1.093
847.30 1.093
847.40 1.093
847.50 1.093
847.60 1.093
847.70 1.092
847.80 1.092
847.90 1.092
848.00 1.092
848.10 1.092
848.20 1.092
848.30 1.091
848.40 1.091
848.50 1.091
848.60 1.091
848.70 1.091
848.80 1.091
848.90 1.09
849.00 1.09
849.10 1.09
849.20 1.09
849.30 1.09
849.40 1.09
849.50 1.089
849.60 1.089
849.70 1.089
849.80 1.089
849.90 1.089
850.00 1.089
850.10 1.088
850.20 1.088
850.30 1.088
850.40 1.088
850.50 1.088
850.60 1.087
850.70 1.087
850.80 1.087
850.90 1.087
851.00 1.087
851.10 1.087
851.20 1.086
851.30 1.086
851.40 1.086
851.50 1.086
851.60 1.086
851.70 1.086
851.80 1.085
851.90 1.085
852.00 1.085
852.10 1.085
852.20 1.085
852.30 1.085
852.40 1.084
852.50 1.084
852.60 1.084
852.70 1.084
852.80 1.084
852.90 1.084
853.00 1.083
853.10 1.083
853.20 1.083
853.30 1.083
853.40 1.083
853.50 1.083
853.60 1.082
853.70 1.082
853.80 1.082
853.90 1.082
854.00 1.082
854.10 1.081
854.20 1.081
854.30 1.081
854.40 1.081
854.50 1.081
854.60 1.081
854.70 1.08
854.80 1.08
854.90 1.08
855.00 1.08
855.10 1.08
855.20 1.08
855.30 1.079
855.40 1.079
855.50 1.079
855.60 1.079
855.70 1.079
855.80 1.079
855.90 1.078
856.00 1.078
856.10 1.078
856.20 1.078
856.30 1.078
856.40 1.077
856.50 1.077
856.60 1.077
856.70 1.077
856.80 1.077
856.90 1.077
857.00 1.076
857.10 1.076
857.20 1.076
857.30 1.076
857.40 1.076
857.50 1.076
857.60 1.075
857.70 1.075
857.80 1.075
857.90 1.075
858.00 1.075
858.10 1.074
858.20 1.074
858.30 1.074
858.40 1.074
858.50 1.074
858.60 1.074
858.70 1.073
858.80 1.073
858.90 1.073
859.00 1.073
859.10 1.073
859.20 1.073
859.30 1.072
859.40 1.072
859.50 1.072
859.60 1.072
859.70 1.072
859.80 1.071
859.90 1.071
860.00 1.071
860.10 1.071
860.20 1.071
860.30 1.071
860.40 1.07
860.50 1.07
860.60 1.07
860.70 1.07
860.80 1.07
860.90 1.07
861.00 1.069
861.10 1.069
861.20 1.069
861.30 1.069
861.40 1.069
861.50 1.068
861.60 1.068
861.70 1.068
861.80 1.068
861.90 1.068
862.00 1.068
862.10 1.067
862.20 1.067
862.30 1.067
862.40 1.067
862.50 1.067
862.60 1.066
862.70 1.066
862.80 1.066
862.90 1.066
863.00 1.066
863.10 1.066
863.20 1.065
863.30 1.065
863.40 1.065
863.50 1.065
863.60 1.065
863.70 1.064
863.80 1.064
863.90 1.064
864.00 1.064
864.10 1.064
864.20 1.064
864.30 1.063
864.40 1.063
864.50 1.063
864.60 1.063
864.70 1.063
864.80 1.062
864.90 1.062
865.00 1.062
865.10 1.062
865.20 1.062
865.30 1.062
865.40 1.061
865.50 1.061
865.60 1.061
865.70 1.061
865.80 1.061
865.90 1.06
866.00 1.06
866.10 1.06
866.20 1.06
866.30 1.06
866.40 1.059
866.50 1.059
866.60 1.059
866.70 1.059
866.80 1.059
866.90 1.059
867.00 1.058
867.10 1.058
867.20 1.058
867.30 1.058
867.40 1.058
867.50 1.057
867.60 1.057
867.70 1.057
867.80 1.057
867.90 1.057
868.00 1.057
868.10 1.056
868.20 1.056
868.30 1.056
868.40 1.056
868.50 1.056
868.60 1.055
868.70 1.055
868.80 1.055
868.90 1.055
869.00 1.055
869.10 1.054
869.20 1.054
869.30 1.054
869.40 1.054
869.50 1.054
869.60 1.053
869.70 1.053
869.80 1.053
869.90 1.053
870.00 1.053
870.10 1.053
870.20 1.052
870.30 1.052
870.40 1.052
870.50 1.052
870.60 1.052
870.70 1.051
870.80 1.051
870.90 1.051
871.00 1.051
871.10 1.051
871.20 1.05
871.30 1.05
871.40 1.05
871.50 1.05
871.60 1.05
871.70 1.05
871.80 1.049
871.90 1.049
872.00 1.049
872.10 1.049
872.20 1.049
872.30 1.048
872.40 1.048
872.50 1.048
872.60 1.048
872.70 1.048
872.80 1.047
872.90 1.047
873.00 1.047
873.10 1.047
873.20 1.047
873.30 1.046
873.40 1.046
873.50 1.046
873.60 1.046
873.70 1.046
873.80 1.045
873.90 1.045
874.00 1.045
874.10 1.045
874.20 1.045
874.30 1.044
874.40 1.044
874.50 1.044
874.60 1.044
874.70 1.044
874.80 1.043
874.90 1.043
875.00 1.043
875.10 1.043
875.20 1.043
875.30 1.042
875.40 1.042
875.50 1.042
875.60 1.042
875.70 1.042
875.80 1.042
875.90 1.041
876.00 1.041
876.10 1.041
876.20 1.041
876.30 1.041
876.40 1.04
876.50 1.04
876.60 1.04
876.70 1.04
876.80 1.04
876.90 1.039
877.00 1.039
877.10 1.039
877.20 1.039
877.30 1.039
877.40 1.038
877.50 1.038
877.60 1.038
877.70 1.038
877.80 1.038
877.90 1.037
878.00 1.037
878.10 1.037
878.20 1.037
878.30 1.037
878.40 1.036
878.50 1.036
878.60 1.036
878.70 1.036
878.80 1.036
878.90 1.035
879.00 1.035
879.10 1.035
879.20 1.035
879.30 1.035
879.40 1.034
879.50 1.034
879.60 1.034
879.70 1.034
879.80 1.033
879.90 1.033
880.00 1.033
880.10 1.033
880.20 1.033
880.30 1.032
880.40 1.032
880.50 1.032
880.60 1.032
880.70 1.032
880.80 1.031
880.90 1.031
881.00 1.031
881.10 1.031
881.20 1.031
881.30 1.03
881.40 1.03
881.50 1.03
881.60 1.03
881.70 1.03
881.80 1.029
881.90 1.029
882.00 1.029
882.10 1.029
882.20 1.029
882.30 1.028
882.40 1.028
882.50 1.028
882.60 1.028
882.70 1.028
882.80 1.027
882.90 1.027
883.00 1.027
883.10 1.027
883.20 1.026
883.30 1.026
883.40 1.026
883.50 1.026
883.60 1.026
883.70 1.025
883.80 1.025
883.90 1.025
884.00 1.025
884.10 1.025
884.20 1.024
884.30 1.024
884.40 1.024
884.50 1.024
884.60 1.024
884.70 1.023
884.80 1.023
884.90 1.023
885.00 1.023
885.10 1.022
885.20 1.022
885.30 1.022
885.40 1.022
885.50 1.022
885.60 1.021
885.70 1.021
885.80 1.021
885.90 1.021
886.00 1.021
886.10 1.02
886.20 1.02
886.30 1.02
886.40 1.02
886.50 1.02
886.60 1.019
886.70 1.019
886.80 1.019
886.90 1.019
887.00 1.018
887.10 1.018
887.20 1.018
887.30 1.018
887.40 1.018
887.50 1.017
887.60 1.017
887.70 1.017
887.80 1.017
887.90 1.016
888.00 1.016
888.10 1.016
888.20 1.016
888.30 1.016
888.40 1.015
888.50 1.015
888.60 1.015
888.70 1.015
888.80 1.014
888.90 1.014
889.00 1.014
889.10 1.014
889.20 1.014
889.30 1.013
889.40 1.013
889.50 1.013
889.60 1.013
889.70 1.012
889.80 1.012
889.90 1.012
890.00 1.012
890.10 1.012
890.20 1.011
890.30 1.011
890.40 1.011
890.50 1.011
890.60 1.01
890.70 1.01
890.80 1.01
890.90 1.01
891.00 1.01
891.10 1.009
891.20 1.009
891.30 1.009
891.40 1.009
891.50 1.008
891.60 1.008
891.70 1.008
891.80 1.008
891.90 1.008
892.00 1.007
892.10 1.007
892.20 1.007
892.30 1.007
892.40 1.006
892.50 1.006
892.60 1.006
892.70 1.006
892.80 1.006
892.90 1.005
893.00 1.005
893.10 1.005
893.20 1.005
893.30 1.005
893.40 1.004
893.50 1.004
893.60 1.004
893.70 1.004
893.80 1.004
893.90 1.003
894.00 1.003
894.10 1.003
894.20 1.003
894.30 1.003
894.40 1.002
894.50 1.002
894.60 1.002
894.70 1.002
894.80 1.001
894.90 1.001
895.00 1.001
895.10 1.001
895.20 1.001
895.30 1
895.40 1
895.50 1
895.60 0.9998
895.70 0.9996
895.80 0.9994
895.90 0.9992
896.00 0.999
896.10 0.9988
896.20 0.9986
896.30 0.9984
896.40 0.9982
896.50 0.998
896.60 0.9978
896.70 0.9976
896.80 0.9974
896.90 0.9971
897.00 0.9969
897.10 0.9967
897.20 0.9964
897.30 0.9962
897.40 0.9959
897.50 0.9957
897.60 0.9954
897.70 0.9952
897.80 0.9949
897.90 0.9947
898.00 0.9944
898.10 0.9942
898.20 0.9939
898.30 0.9937
898.40 0.9934
898.50 0.9932
898.60 0.9929
898.70 0.9927
898.80 0.9924
898.90 0.9922
899.00 0.992
899.10 0.9917
899.20 0.9915
899.30 0.9912
899.40 0.991
899.50 0.9907
899.60 0.9905
899.70 0.9902
899.80 0.99
899.90 0.9897
900.00 0.9895
900.10 0.9892
900.20 0.989
900.30 0.9887
900.40 0.9885
900.50 0.9882
900.60 0.988
900.70 0.9877
900.80 0.9875
900.90 0.9872
901.00 0.987
901.10 0.9868
901.20 0.9865
901.30 0.9863
901.40 0.986
901.50 0.9858
901.60 0.9855
901.70 0.9853
901.80 0.985
901.90 0.9848
902.00 0.9845
902.10 0.9842
902.20 0.9839
902.30 0.9836
902.40 0.9833
902.50 0.9829
902.60 0.9826
902.70 0.9823
902.80 0.982
902.90 0.9817
903.00 0.9813
903.10 0.981
903.20 0.9807
903.30 0.9804
903.40 0.9801
903.50 0.9797
903.60 0.9794
903.70 0.9791
903.80 0.9788
903.90 0.9785
904.00 0.9781
904.10 0.9778
904.20 0.9775
904.30 0.9772
904.40 0.9769
904.50 0.9765
904.60 0.9762
904.70 0.9759
904.80 0.9756
904.90 0.9753
905.00 0.975
905.10 0.9746
905.20 0.9743
905.30 0.974
905.40 0.9737
905.50 0.9734
905.60 0.9731
905.70 0.9727
905.80 0.9724
905.90 0.9721
906.00 0.9718
906.10 0.9715
906.20 0.9712
906.30 0.9708
906.40 0.9705
906.50 0.9702
906.60 0.9699
906.70 0.9696
906.80 0.9693
906.90 0.969
907.00 0.9686
907.10 0.9684
907.20 0.9681
907.30 0.9678
907.40 0.9675
907.50 0.9672
907.60 0.9669
907.70 0.9667
907.80 0.9664
907.90 0.9661
908.00 0.9658
908.10 0.9655
908.20 0.9652
908.30 0.965
908.40 0.9647
908.50 0.9644
908.60 0.9641
908.70 0.9638
908.80 0.9635
908.90 0.9633
909.00 0.963
909.10 0.9627
909.20 0.9624
909.30 0.9621
909.40 0.9618
909.50 0.9616
909.60 0.9613
909.70 0.961
909.80 0.9607
909.90 0.9604
910.00 0.9602
910.10 0.9599
910.20 0.9596
910.30 0.9593
910.40 0.959
910.50 0.9587
910.60 0.9585
910.70 0.9582
910.80 0.9579
910.90 0.9576
911.00 0.9573
911.10 0.9571
911.20 0.9568
911.30 0.9565
911.40 0.9562
911.50 0.9559
911.60 0.9557
911.70 0.9554
911.80 0.9551
911.90 0.9548
912.00 0.9545
912.10 0.9543
912.20 0.954
912.30 0.9538
912.40 0.9535
912.50 0.9533
912.60 0.953
912.70 0.9528
912.80 0.9525
912.90 0.9523
913.00 0.952
913.10 0.9518
913.20 0.9515
913.30 0.9513
913.40 0.951
913.50 0.9508
913.60 0.9505
913.70 0.9503
913.80 0.95
913.90 0.9498
914.00 0.9495
914.10 0.9493
914.20 0.949
914.30 0.9487
914.40 0.9485
914.50 0.9482
914.60 0.948
914.70 0.9477
914.80 0.9475
914.90 0.9472
915.00 0.947
915.10 0.9467
915.20 0.9465
915.30 0.9462
915.40 0.946
915.50 0.9457
915.60 0.9455
915.70 0.9452
915.80 0.945
915.90 0.9447
916.00 0.9445
916.10 0.9442
916.20 0.944
916.30 0.9437
916.40 0.9435
916.50 0.9432
916.60 0.943
916.70 0.9427
916.80 0.9425
916.90 0.9422
917.00 0.942
917.10 0.9417
917.20 0.9414
917.30 0.9412
917.40 0.9409
917.50 0.9406
917.60 0.9403
917.70 0.94
917.80 0.9397
917.90 0.9395
918.00 0.9392
918.10 0.9389
918.20 0.9386
918.30 0.9383
918.40 0.9381
918.50 0.9378
918.60 0.9375
918.70 0.9372
918.80 0.9369
918.90 0.9367
919.00 0.9364
919.10 0.9361
919.20 0.9358
919.30 0.9355
919.40 0.9353
919.50 0.935
919.60 0.9347
919.70 0.9344
919.80 0.9341
919.90 0.9339
920.00 0.9336
920.10 0.9333
920.20 0.933
920.30 0.9328
920.40 0.9325
920.50 0.9322
920.60 0.9319
920.70 0.9316
920.80 0.9314
920.90 0.9311
921.00 0.9308
921.10 0.9305
921.20 0.9303
921.30 0.93
921.40 0.9297
921.50 0.9294
921.60 0.9291
921.70 0.9289
921.80 0.9286
921.90 0.9283
922.00 0.928
922.10 0.9277
922.20 0.9275
922.30 0.9272
922.40 0.9269
922.50 0.9266
922.60 0.9263
922.70 0.926
922.80 0.9257
922.90 0.9254
923.00 0.9251
923.10 0.9249
923.20 0.9246
923.30 0.9243
923.40 0.924
923.50 0.9237
923.60 0.9234
923.70 0.9231
923.80 0.9228
923.90 0.9226
924.00 0.9223
924.10 0.922
924.20 0.9217
924.30 0.9214
924.40 0.9211
924.50 0.9208
924.60 0.9205
924.70 0.9203
924.80 0.92
924.90 0.9197
925.00 0.9194
925.10 0.9191
925.20 0.9188
925.30 0.9185
925.40 0.9183
925.50 0.918
925.60 0.9177
925.70 0.9174
925.80 0.9171
925.90 0.9168
926.00 0.9165
926.10 0.9163
926.20 0.916
926.30 0.9157
926.40 0.9154
926.50 0.9151
926.60 0.9148
926.70 0.9146
926.80 0.9143
926.90 0.914
927.00 0.9137
927.10 0.9134
927.20 0.9131
927.30 0.9128
927.40 0.9125
927.50 0.9122
927.60 0.9119
927.70 0.9116
927.80 0.9113
927.90 0.911
928.00 0.9107
928.10 0.9105
928.20 0.9102
928.30 0.9099
928.40 0.9096
928.50 0.9093
928.60 0.909
928.70 0.9087
928.80 0.9084
928.90 0.9081
929.00 0.9078
929.10 0.9075
929.20 0.9072
929.30 0.9069
929.40 0.9066
929.50 0.9063
929.60 0.906
929.70 0.9058
929.80 0.9055
929.90 0.9052
930.00 0.9049
930.10 0.9046
930.20 0.9043
930.30 0.904
930.40 0.9037
930.50 0.9034
930.60 0.9031
930.70 0.9028
930.80 0.9025
930.90 0.9022
931.00 0.902
931.10 0.9017
931.20 0.9014
931.30 0.9011
931.40 0.9008
931.50 0.9005
931.60 0.9002
931.70 0.8999
931.80 0.8996
931.90 0.8993
932.00 0.899
932.10 0.8987
932.20 0.8984
932.30 0.8981
932.40 0.8978
932.50 0.8975
932.60 0.8972
932.70 0.8969
932.80 0.8966
932.90 0.8963
933.00 0.896
933.10 0.8957
933.20 0.8954
933.30 0.8951
933.40 0.8948
933.50 0.8945
933.60 0.8942
933.70 0.8939
933.80 0.8936
933.90 0.8933
934.00 0.893
934.10 0.8928
934.20 0.8925
934.30 0.8922
934.40 0.8918
934.50 0.8915
934.60 0.8912
934.70 0.8909
934.80 0.8906
934.90 0.8903
935.00 0.89
935.10 0.8897
935.20 0.8894
935.30 0.8891
935.40 0.8888
935.50 0.8885
935.60 0.8882
935.70 0.8879
935.80 0.8876
935.90 0.8873
936.00 0.887
936.10 0.8867
936.20 0.8864
936.30 0.8861
936.40 0.8858
936.50 0.8855
936.60 0.8852
936.70 0.8849
936.80 0.8846
936.90 0.8843
937.00 0.884
937.10 0.8837
937.20 0.8834
937.30 0.883
937.40 0.8827
937.50 0.8824
937.60 0.8821
937.70 0.8818
937.80 0.8815
937.90 0.8812
938.00 0.8809
938.10 0.8806
938.20 0.8803
938.30 0.88
938.40 0.8797
938.50 0.8794
938.60 0.879
938.70 0.8787
938.80 0.8784
938.90 0.8781
939.00 0.8778
939.10 0.8775
939.20 0.8772
939.30 0.8769
939.40 0.8766
939.50 0.8762
939.60 0.8759
939.70 0.8756
939.80 0.8753
939.90 0.875
940.00 0.8747
940.10 0.8744
940.20 0.8741
940.30 0.8738
940.40 0.8735
940.50 0.8731
940.60 0.8728
940.70 0.8725
940.80 0.8722
940.90 0.8719
941.00 0.8716
941.10 0.8713
941.20 0.871
941.30 0.8706
941.40 0.8703
941.50 0.87
941.60 0.8697
941.70 0.8694
941.80 0.8691
941.90 0.8688
942.00 0.8685
942.10 0.8681
942.20 0.8678
942.30 0.8675
942.40 0.8672
942.50 0.8669
942.60 0.8666
942.70 0.8663
942.80 0.866
942.90 0.8656
943.00 0.8653
943.10 0.865
943.20 0.8647
943.30 0.8644
943.40 0.8641
943.50 0.8638
943.60 0.8634
943.70 0.8631
943.80 0.8628
943.90 0.8625
944.00 0.8622
944.10 0.8619
944.20 0.8616
944.30 0.8613
944.40 0.8609
944.50 0.8606
944.60 0.8603
944.70 0.86
944.80 0.8597
944.90 0.8594
945.00 0.859
945.10 0.8587
945.20 0.8584
945.30 0.8581
945.40 0.8578
945.50 0.8575
945.60 0.8571
945.70 0.8568
945.80 0.8565
945.90 0.8562
946.00 0.8559
946.10 0.8556
946.20 0.8552
946.30 0.8549
946.40 0.8546
946.50 0.8543
946.60 0.854
946.70 0.8537
946.80 0.8533
946.90 0.853
947.00 0.8527
947.10 0.8524
947.20 0.8521
947.30 0.8518
947.40 0.8514
947.50 0.8511
947.60 0.8508
947.70 0.8505
947.80 0.8501
947.90 0.8498
948.00 0.8495
948.10 0.8492
948.20 0.8488
948.30 0.8485
948.40 0.8482
948.50 0.8479
948.60 0.8476
948.70 0.8472
948.80 0.8469
948.90 0.8466
949.00 0.8463
949.10 0.8459
949.20 0.8456
949.30 0.8453
949.40 0.845
949.50 0.8447
949.60 0.8443
949.70 0.844
949.80 0.8437
949.90 0.8434
950.00 0.8431
950.10 0.8427
950.20 0.8424
950.30 0.8421
950.40 0.8418
950.50 0.8415
950.60 0.8411
950.70 0.8408
950.80 0.8405
950.90 0.8402
951.00 0.8399
951.10 0.8395
951.20 0.8392
951.30 0.8389
951.40 0.8386
951.50 0.8383
951.60 0.8379
951.70 0.8376
951.80 0.8373
951.90 0.837
952.00 0.8366
952.10 0.8363
952.20 0.836
952.30 0.8357
952.40 0.8354
952.50 0.835
952.60 0.8347
952.70 0.8344
952.80 0.8341
952.90 0.8338
953.00 0.8334
953.10 0.8331
953.20 0.8328
953.30 0.8325
953.40 0.8322
953.50 0.8318
953.60 0.8315
953.70 0.8312
953.80 0.8308
953.90 0.8305
954.00 0.8302
954.10 0.8299
954.20 0.8296
954.30 0.8292
954.40 0.8289
954.50 0.8286
954.60 0.8282
954.70 0.8279
954.80 0.8276
954.90 0.8273
955.00 0.827
955.10 0.8267
955.20 0.8263
955.30 0.826
955.40 0.8257
955.50 0.8253
955.60 0.825
955.70 0.8247
955.80 0.8244
955.90 0.824
956.00 0.8237
956.10 0.8234
956.20 0.823
956.30 0.8227
956.40 0.8224
956.50 0.8221
956.60 0.8217
956.70 0.8214
956.80 0.8211
956.90 0.8207
957.00 0.8204
957.10 0.8201
957.20 0.8198
957.30 0.8195
957.40 0.8191
957.50 0.8188
957.60 0.8185
957.70 0.8182
957.80 0.8178
957.90 0.8175
958.00 0.8172
958.10 0.8169
958.20 0.8165
958.30 0.8162
958.40 0.8159
958.50 0.8156
958.60 0.8152
958.70 0.8149
958.80 0.8146
958.90 0.8143
959.00 0.8139
959.10 0.8136
959.20 0.8133
959.30 0.813
959.40 0.8126
959.50 0.8123
959.60 0.812
959.70 0.8117
959.80 0.8113
959.90 0.811
960.00 0.8107
960.10 0.8104
960.20 0.81
960.30 0.8097
960.40 0.8094
960.50 0.8091
960.60 0.8087
960.70 0.8084
960.80 0.8081
960.90 0.8078
961.00 0.8074
961.10 0.8071
961.20 0.8068
961.30 0.8065
961.40 0.8061
961.50 0.8058
961.60 0.8055
961.70 0.8052
961.80 0.8048
961.90 0.8045
962.00 0.8042
962.10 0.8039
962.20 0.8035
962.30 0.8032
962.40 0.8029
962.50 0.8025
962.60 0.8022
962.70 0.8019
962.80 0.8016
962.90 0.8012
963.00 0.8009
963.10 0.8006
963.20 0.8003
963.30 0.7999
963.40 0.7996
963.50 0.7993
963.60 0.799
963.70 0.7986
963.80 0.7983
963.90 0.798
964.00 0.7977
964.10 0.7973
964.20 0.797
964.30 0.7967
964.40 0.7964
964.50 0.796
964.60 0.7957
964.70 0.7954
964.80 0.795
964.90 0.7947
965.00 0.7944
965.10 0.7941
965.20 0.7937
965.30 0.7934
965.40 0.7931
965.50 0.7927
965.60 0.7924
965.70 0.7921
965.80 0.7918
965.90 0.7914
966.00 0.7911
966.10 0.7908
966.20 0.7905
966.30 0.7901
966.40 0.7898
966.50 0.7895
966.60 0.7892
966.70 0.7888
966.80 0.7885
966.90 0.7882
967.00 0.7879
967.10 0.7875
967.20 0.7872
967.30 0.7869
967.40 0.7866
967.50 0.7862
967.60 0.7859
967.70 0.7856
967.80 0.7853
967.90 0.7849
968.00 0.7846
968.10 0.7843
968.20 0.784
968.30 0.7837
968.40 0.7833
968.50 0.783
968.60 0.7827
968.70 0.7824
968.80 0.782
968.90 0.7817
969.00 0.7814
969.10 0.7811
969.20 0.7807
969.30 0.7804
969.40 0.7801
969.50 0.7798
969.60 0.7794
969.70 0.7791
969.80 0.7788
969.90 0.7785
970.00 0.7782
970.10 0.7778
970.20 0.7775
970.30 0.7772
970.40 0.7769
970.50 0.7765
970.60 0.7762
970.70 0.7759
970.80 0.7756
970.90 0.7753
971.00 0.7749
971.10 0.7746
971.20 0.7743
971.30 0.774
971.40 0.7736
971.50 0.7733
971.60 0.773
971.70 0.7727
971.80 0.7724
971.90 0.772
972.00 0.7717
972.10 0.7714
972.20 0.7711
972.30 0.7707
972.40 0.7704
972.50 0.7701
972.60 0.7698
972.70 0.7695
972.80 0.7692
972.90 0.7688
973.00 0.7685
973.10 0.7682
973.20 0.7679
973.30 0.7676
973.40 0.7672
973.50 0.7669
973.60 0.7666
973.70 0.7663
973.80 0.766
973.90 0.7656
974.00 0.7653
974.10 0.765
974.20 0.7647
974.30 0.7644
974.40 0.7641
974.50 0.7637
974.60 0.7634
974.70 0.7631
974.80 0.7628
974.90 0.7625
975.00 0.7621
975.10 0.7618
975.20 0.7615
975.30 0.7612
975.40 0.7609
975.50 0.7605
975.60 0.7602
975.70 0.7599
975.80 0.7596
975.90 0.7593
976.00 0.7589
976.10 0.7586
976.20 0.7583
976.30 0.758
976.40 0.7577
976.50 0.7573
976.60 0.757
976.70 0.7567
976.80 0.7564
976.90 0.7561
977.00 0.7558
977.10 0.7554
977.20 0.7551
977.30 0.7548
977.40 0.7545
977.50 0.7542
977.60 0.7539
977.70 0.7535
977.80 0.7532
977.90 0.7529
978.00 0.7526
978.10 0.7523
978.20 0.752
978.30 0.7517
978.40 0.7513
978.50 0.751
978.60 0.7507
978.70 0.7504
978.80 0.7501
978.90 0.7498
979.00 0.7495
979.10 0.7491
979.20 0.7488
979.30 0.7485
979.40 0.7482
979.50 0.7479
979.60 0.7476
979.70 0.7473
979.80 0.7469
979.90 0.7466
980.00 0.7463
980.10 0.746
980.20 0.7457
980.30 0.7454
980.40 0.7451
980.50 0.7448
980.60 0.7444
980.70 0.7441
980.80 0.7438
980.90 0.7435
981.00 0.7432
981.10 0.7429
981.20 0.7426
981.30 0.7423
981.40 0.7419
981.50 0.7416
981.60 0.7413
981.70 0.741
981.80 0.7407
981.90 0.7404
982.00 0.7401
982.10 0.7398
982.20 0.7395
982.30 0.7392
982.40 0.7388
982.50 0.7385
982.60 0.7382
982.70 0.7379
982.80 0.7376
982.90 0.7373
983.00 0.737
983.10 0.7367
983.20 0.7364
983.30 0.7361
983.40 0.7358
983.50 0.7355
983.60 0.7352
983.70 0.7348
983.80 0.7345
983.90 0.7342
984.00 0.7339
984.10 0.7336
984.20 0.7333
984.30 0.733
984.40 0.7327
984.50 0.7324
984.60 0.7321
984.70 0.7318
984.80 0.7315
984.90 0.7312
985.00 0.7309
985.10 0.7306
985.20 0.7303
985.30 0.73
985.40 0.7297
985.50 0.7294
985.60 0.7291
985.70 0.7288
985.80 0.7285
985.90 0.7282
986.00 0.7279
986.10 0.7276
986.20 0.7273
986.30 0.727
986.40 0.7267
986.50 0.7264
986.60 0.7261
986.70 0.7258
986.80 0.7255
986.90 0.7252
987.00 0.7249
987.10 0.7245
987.20 0.7242
987.30 0.7239
987.40 0.7236
987.50 0.7233
987.60 0.723
987.70 0.7227
987.80 0.7224
987.90 0.7221
988.00 0.7218
988.10 0.7215
988.20 0.7212
988.30 0.7209
988.40 0.7206
988.50 0.7203
988.60 0.72
988.70 0.7197
988.80 0.7194
988.90 0.7191
989.00 0.7188
989.10 0.7185
989.20 0.7182
989.30 0.7179
989.40 0.7176
989.50 0.7173
989.60 0.7169
989.70 0.7166
989.80 0.7163
989.90 0.716
990.00 0.7157
990.10 0.7154
990.20 0.7151
990.30 0.7148
990.40 0.7145
990.50 0.7142
990.60 0.7139
990.70 0.7136
990.80 0.7133
990.90 0.713
991.00 0.7127
991.10 0.7124
991.20 0.7121
991.30 0.7118
991.40 0.7115
991.50 0.7112
991.60 0.7109
991.70 0.7106
991.80 0.7103
991.90 0.71
992.00 0.7097
992.10 0.7094
992.20 0.7091
992.30 0.7088
992.40 0.7085
992.50 0.7082
992.60 0.7079
992.70 0.7076
992.80 0.7073
992.90 0.707
993.00 0.7067
993.10 0.7064
993.20 0.7061
993.30 0.7058
993.40 0.7055
993.50 0.7052
993.60 0.7049
993.70 0.7046
993.80 0.7043
993.90 0.704
994.00 0.7037
994.10 0.7034
994.20 0.7031
994.30 0.7028
994.40 0.7025
994.50 0.7022
994.60 0.7019
994.70 0.7016
994.80 0.7012
994.90 0.7009
995.00 0.7006
995.10 0.7003
995.20 0.7
995.30 0.6996
995.40 0.6993
995.50 0.699
995.60 0.6987
995.70 0.6984
995.80 0.6981
995.90 0.6978
996.00 0.6975
996.10 0.6972
996.20 0.6969
996.30 0.6966
996.40 0.6963
996.50 0.696
996.60 0.6957
996.70 0.6954
996.80 0.6951
996.90 0.6948
997.00 0.6945
997.10 0.6942
997.20 0.6939
997.30 0.6936
997.40 0.6933
997.50 0.693
997.60 0.6927
997.70 0.6925
997.80 0.6922
997.90 0.6919
998.00 0.6916
998.10 0.6913
998.20 0.691
998.30 0.6907
998.40 0.6904
998.50 0.6901
998.60 0.6898
998.70 0.6895
998.80 0.6892
998.90 0.689
999.00 0.6887
999.10 0.6884
999.20 0.6881
999.30 0.6878
999.40 0.6875
999.50 0.6872
999.60 0.6869
999.70 0.6866
999.80 0.6864
999.90 0.6861
1000.00 0.6858
1000.10 0.6855
1000.20 0.6852
1000.30 0.6849
1000.40 0.6846
1000.50 0.6844
1000.60 0.6841
1000.70 0.6838
1000.80 0.6835
1000.90 0.6832
1001.00 0.6829
1001.10 0.6827
1001.20 0.6824
1001.30 0.6821
1001.40 0.6818
1001.50 0.6815
1001.60 0.6812
1001.70 0.681
1001.80 0.6807
1001.90 0.6804
1002.00 0.6801
1002.10 0.6798
1002.20 0.6795
1002.30 0.6793
1002.40 0.679
1002.50 0.6787
1002.60 0.6784
1002.70 0.6782
1002.80 0.6779
1002.90 0.6776
1003.00 0.6773
1003.10 0.677
1003.20 0.6768
1003.30 0.6765
1003.40 0.6762
1003.50 0.6759
1003.60 0.6757
1003.70 0.6754
1003.80 0.6751
1003.90 0.6748
1004.00 0.6745
1004.10 0.6743
1004.20 0.674
1004.30 0.6737
1004.40 0.6734
1004.50 0.6732
1004.60 0.6729
1004.70 0.6726
1004.80 0.6724
1004.90 0.6721
1005.00 0.6718
1005.10 0.6715
1005.20 0.6712
1005.30 0.6709
1005.40 0.6707
1005.50 0.6704
1005.60 0.6701
1005.70 0.6699
1005.80 0.6696
1005.90 0.6693
1006.00 0.6691
1006.10 0.6688
1006.20 0.6685
1006.30 0.6683
1006.40 0.668
1006.50 0.6677
1006.60 0.6675
1006.70 0.6672
1006.80 0.6669
1006.90 0.6667
1007.00 0.6664
1007.10 0.6661
1007.20 0.6659
1007.30 0.6656
1007.40 0.6653
1007.50 0.665
1007.60 0.6648
1007.70 0.6645
1007.80 0.6643
1007.90 0.664
1008.00 0.6637
1008.10 0.6635
1008.20 0.6632
1008.30 0.6629
1008.40 0.6627
1008.50 0.6624
1008.60 0.6622
1008.70 0.6619
1008.80 0.6616
1008.90 0.6614
1009.00 0.6611
1009.10 0.6609
1009.20 0.6606
1009.30 0.6603
1009.40 0.6601
1009.50 0.6598
1009.60 0.6595
1009.70 0.6593
1009.80 0.659
1009.90 0.6588
1010.00 0.6585
1010.10 0.6583
1010.20 0.658
1010.30 0.6578
1010.40 0.6575
1010.50 0.6572
1010.60 0.657
1010.70 0.6567
1010.80 0.6565
1010.90 0.6562
1011.00 0.656
1011.10 0.6557
1011.20 0.6555
1011.30 0.6552
1011.40 0.655
1011.50 0.6547
1011.60 0.6545
1011.70 0.6542
1011.80 0.654
1011.90 0.6537
1012.00 0.6535
1012.10 0.6532
1012.20 0.653
1012.30 0.6527
1012.40 0.6525
1012.50 0.6522
1012.60 0.652
1012.70 0.6517
1012.80 0.6515
1012.90 0.6512
1013.00 0.651
1013.10 0.6507
1013.20 0.6505
1013.30 0.6502
1013.40 0.65
1013.50 0.6497
1013.60 0.6495
1013.70 0.6492
1013.80 0.649
1013.90 0.6488
1014.00 0.6485
1014.10 0.6483
1014.20 0.648
1014.30 0.6478
1014.40 0.6475
1014.50 0.6473
1014.60 0.647
1014.70 0.6468
1014.80 0.6466
1014.90 0.6463
1015.00 0.6461
1015.10 0.6459
1015.20 0.6456
1015.30 0.6454
1015.40 0.6452
1015.50 0.6449
1015.60 0.6447
1015.70 0.6445
1015.80 0.6442
1015.90 0.644
1016.00 0.6438
1016.10 0.6436
1016.20 0.6433
1016.30 0.6431
1016.40 0.6429
1016.50 0.6426
1016.60 0.6424
1016.70 0.6422
1016.80 0.6419
1016.90 0.6417
1017.00 0.6414
1017.10 0.6412
1017.20 0.641
1017.30 0.6407
1017.40 0.6405
1017.50 0.6403
1017.60 0.64
1017.70 0.6398
1017.80 0.6396
1017.90 0.6393
1018.00 0.6391
1018.10 0.6389
1018.20 0.6386
1018.30 0.6384
1018.40 0.6382
1018.50 0.6379
1018.60 0.6377
1018.70 0.6375
1018.80 0.6372
1018.90 0.637
1019.00 0.6368
1019.10 0.6365
1019.20 0.6363
1019.30 0.6361
1019.40 0.6358
1019.50 0.6356
1019.60 0.6354
1019.70 0.6352
1019.80 0.6349
1019.90 0.6347
1020.00 0.6345
1020.10 0.6342
1020.20 0.634
1020.30 0.6338
1020.40 0.6335
1020.50 0.6333
1020.60 0.6331
1020.70 0.6328
1020.80 0.6326
1020.90 0.6324
1021.00 0.6322
1021.10 0.6319
1021.20 0.6317
1021.30 0.6315
1021.40 0.6313
1021.50 0.631
1021.60 0.6308
1021.70 0.6306
1021.80 0.6303
1021.90 0.6301
1022.00 0.6299
1022.10 0.6297
1022.20 0.6294
1022.30 0.6292
1022.40 0.629
1022.50 0.6288
1022.60 0.6286
1022.70 0.6283
1022.80 0.6281
1022.90 0.6279
1023.00 0.6277
1023.10 0.6274
1023.20 0.6272
1023.30 0.627
1023.40 0.6268
1023.50 0.6265
1023.60 0.6263
1023.70 0.6261
1023.80 0.6259
1023.90 0.6257
1024.00 0.6254
1024.10 0.6252
1024.20 0.625
1024.30 0.6248
1024.40 0.6245
1024.50 0.6243
1024.60 0.6241
1024.70 0.6239
1024.80 0.6237
1024.90 0.6234
1025.00 0.6232
1025.10 0.623
1025.20 0.6228
1025.30 0.6226
1025.40 0.6223
1025.50 0.6221
1025.60 0.6219
1025.70 0.6217
1025.80 0.6215
1025.90 0.6213
1026.00 0.621
1026.10 0.6208
1026.20 0.6206
1026.30 0.6204
1026.40 0.6202
1026.50 0.6199
1026.60 0.6197
1026.70 0.6195
1026.80 0.6193
1026.90 0.6191
1027.00 0.6188
1027.10 0.6186
1027.20 0.6184
1027.30 0.6182
1027.40 0.618
1027.50 0.6178
1027.60 0.6176
1027.70 0.6174
1027.80 0.6172
1027.90 0.617
1028.00 0.6167
1028.10 0.6165
1028.20 0.6163
1028.30 0.6161
1028.40 0.6159
1028.50 0.6157
1028.60 0.6155
1028.70 0.6153
1028.80 0.6151
1028.90 0.6149
1029.00 0.6147
1029.10 0.6144
1029.20 0.6142
1029.30 0.614
1029.40 0.6138
1029.50 0.6136
1029.60 0.6134
1029.70 0.6132
1029.80 0.613
1029.90 0.6128
1030.00 0.6126
1030.10 0.6124
1030.20 0.6122
1030.30 0.6119
1030.40 0.6117
1030.50 0.6115
1030.60 0.6113
1030.70 0.6111
1030.80 0.6109
1030.90 0.6107
1031.00 0.6105
1031.10 0.6103
1031.20 0.6101
1031.30 0.6099
1031.40 0.6097
1031.50 0.6095
1031.60 0.6092
1031.70 0.609
1031.80 0.6088
1031.90 0.6086
1032.00 0.6084
1032.10 0.6082
1032.20 0.608
1032.30 0.6078
1032.40 0.6076
1032.50 0.6074
1032.60 0.6072
1032.70 0.607
1032.80 0.6068
1032.90 0.6066
1033.00 0.6064
1033.10 0.6062
1033.20 0.606
1033.30 0.6058
1033.40 0.6056
1033.50 0.6054
1033.60 0.6052
1033.70 0.6051
1033.80 0.6049
1033.90 0.6047
1034.00 0.6045
1034.10 0.6043
1034.20 0.6041
1034.30 0.6039
1034.40 0.6037
1034.50 0.6035
1034.60 0.6033
1034.70 0.6031
1034.80 0.6029
1034.90 0.6027
1035.00 0.6025
1035.10 0.6023
1035.20 0.6021
1035.30 0.6019
1035.40 0.6017
1035.50 0.6015
1035.60 0.6013
1035.70 0.6011
1035.80 0.6009
1035.90 0.6007
1036.00 0.6005
1036.10 0.6003
1036.20 0.6001
1036.30 0.5999
1036.40 0.5997
1036.50 0.5995
1036.60 0.5993
1036.70 0.5992
1036.80 0.599
1036.90 0.5988
1037.00 0.5986
1037.10 0.5984
1037.20 0.5982
1037.30 0.598
1037.40 0.5978
1037.50 0.5976
1037.60 0.5974
1037.70 0.5973
1037.80 0.5971
1037.90 0.5969
1038.00 0.5967
1038.10 0.5965
1038.20 0.5963
1038.30 0.5961
1038.40 0.596
1038.50 0.5958
1038.60 0.5956
1038.70 0.5954
1038.80 0.5952
1038.90 0.595
1039.00 0.5949
1039.10 0.5947
1039.20 0.5945
1039.30 0.5943
1039.40 0.5941
1039.50 0.5939
1039.60 0.5937
1039.70 0.5936
1039.80 0.5934
1039.90 0.5932
1040.00 0.593
1040.10 0.5928
1040.20 0.5926
1040.30 0.5925
1040.40 0.5923
1040.50 0.5921
1040.60 0.5919
1040.70 0.5917
1040.80 0.5915
1040.90 0.5913
1041.00 0.5912
1041.10 0.591
1041.20 0.5908
1041.30 0.5906
1041.40 0.5904
1041.50 0.5902
1041.60 0.5901
1041.70 0.5899
1041.80 0.5897
1041.90 0.5895
1042.00 0.5893
1042.10 0.5892
1042.20 0.589
1042.30 0.5888
1042.40 0.5886
1042.50 0.5885
1042.60 0.5883
1042.70 0.5881
1042.80 0.5879
1042.90 0.5878
1043.00 0.5876
1043.10 0.5874
1043.20 0.5872
1043.30 0.5871
1043.40 0.5869
1043.50 0.5867
1043.60 0.5865
1043.70 0.5864
1043.80 0.5862
1043.90 0.586
1044.00 0.5858
1044.10 0.5857
1044.20 0.5855
1044.30 0.5853
1044.40 0.5852
1044.50 0.585
1044.60 0.5848
1044.70 0.5846
1044.80 0.5845
1044.90 0.5843
1045.00 0.5841
1045.10 0.5839
1045.20 0.5838
1045.30 0.5836
1045.40 0.5834
1045.50 0.5832
1045.60 0.5831
1045.70 0.5829
1045.80 0.5827
1045.90 0.5826
1046.00 0.5824
1046.10 0.5822
1046.20 0.582
1046.30 0.5819
1046.40 0.5817
1046.50 0.5815
1046.60 0.5814
1046.70 0.5812
1046.80 0.581
1046.90 0.5808
1047.00 0.5807
1047.10 0.5805
1047.20 0.5803
1047.30 0.5802
1047.40 0.58
1047.50 0.5799
1047.60 0.5797
1047.70 0.5795
1047.80 0.5794
1047.90 0.5792
1048.00 0.579
1048.10 0.5789
1048.20 0.5787
1048.30 0.5786
1048.40 0.5784
1048.50 0.5782
1048.60 0.5781
1048.70 0.5779
1048.80 0.5777
1048.90 0.5776
1049.00 0.5774
1049.10 0.5773
1049.20 0.5771
1049.30 0.5769
1049.40 0.5768
1049.50 0.5766
1049.60 0.5764
1049.70 0.5763
1049.80 0.5761
1049.90 0.576
1050.00 0.5758
1050.10 0.5756
1050.20 0.5755
1050.30 0.5753
1050.40 0.5752
1050.50 0.575
1050.60 0.5748
1050.70 0.5747
1050.80 0.5745
1050.90 0.5744
1051.00 0.5742
1051.10 0.574
1051.20 0.5739
1051.30 0.5737
1051.40 0.5735
1051.50 0.5734
1051.60 0.5732
1051.70 0.5731
1051.80 0.5729
1051.90 0.5727
1052.00 0.5726
1052.10 0.5724
1052.20 0.5723
1052.30 0.5721
1052.40 0.572
1052.50 0.5718
1052.60 0.5717
1052.70 0.5715
1052.80 0.5714
1052.90 0.5712
1053.00 0.5711
1053.10 0.5709
1053.20 0.5708
1053.30 0.5706
1053.40 0.5705
1053.50 0.5703
1053.60 0.5702
1053.70 0.57
1053.80 0.5699
1053.90 0.5697
1054.00 0.5696
1054.10 0.5694
1054.20 0.5693
1054.30 0.5691
1054.40 0.569
1054.50 0.5688
1054.60 0.5687
1054.70 0.5685
1054.80 0.5684
1054.90 0.5682
1055.00 0.5681
1055.10 0.5679
1055.20 0.5678
1055.30 0.5676
1055.40 0.5675
1055.50 0.5673
1055.60 0.5672
1055.70 0.567
1055.80 0.5669
1055.90 0.5667
1056.00 0.5666
1056.10 0.5664
1056.20 0.5663
1056.30 0.5661
1056.40 0.566
1056.50 0.5658
1056.60 0.5657
1056.70 0.5655
1056.80 0.5654
1056.90 0.5652
1057.00 0.5651
1057.10 0.5649
1057.20 0.5648
1057.30 0.5647
1057.40 0.5645
1057.50 0.5644
1057.60 0.5642
1057.70 0.5641
1057.80 0.564
1057.90 0.5638
1058.00 0.5637
1058.10 0.5635
1058.20 0.5634
1058.30 0.5633
1058.40 0.5631
1058.50 0.563
1058.60 0.5628
1058.70 0.5627
1058.80 0.5626
1058.90 0.5624
1059.00 0.5623
1059.10 0.5621
1059.20 0.562
1059.30 0.5619
1059.40 0.5617
1059.50 0.5616
1059.60 0.5614
1059.70 0.5613
1059.80 0.5612
1059.90 0.561
1060.00 0.5609
1060.10 0.5607
1060.20 0.5606
1060.30 0.5605
1060.40 0.5603
1060.50 0.5602
1060.60 0.56
1060.70 0.5599
1060.80 0.5598
1060.90 0.5596
1061.00 0.5595
1061.10 0.5593
1061.20 0.5592
1061.30 0.5591
1061.40 0.5589
1061.50 0.5588
1061.60 0.5587
1061.70 0.5585
1061.80 0.5584
1061.90 0.5582
1062.00 0.5581
1062.10 0.558
1062.20 0.5578
1062.30 0.5577
1062.40 0.5576
1062.50 0.5574
1062.60 0.5573
1062.70 0.5572
1062.80 0.5571
1062.90 0.5569
1063.00 0.5568
1063.10 0.5567
1063.20 0.5565
1063.30 0.5564
1063.40 0.5563
1063.50 0.5561
1063.60 0.556
1063.70 0.5559
1063.80 0.5558
1063.90 0.5556
1064.00 0.5555
1064.10 0.5554
1064.20 0.5552
1064.30 0.5551
1064.40 0.555
1064.50 0.5549
1064.60 0.5547
1064.70 0.5546
1064.80 0.5545
1064.90 0.5543
1065.00 0.5542
1065.10 0.5541
1065.20 0.5539
1065.30 0.5538
1065.40 0.5537
1065.50 0.5536
1065.60 0.5534
1065.70 0.5533
1065.80 0.5532
1065.90 0.553
1066.00 0.5529
1066.10 0.5528
1066.20 0.5527
1066.30 0.5525
1066.40 0.5524
1066.50 0.5523
1066.60 0.5521
1066.70 0.552
1066.80 0.5519
1066.90 0.5518
1067.00 0.5516
1067.10 0.5515
1067.20 0.5514
1067.30 0.5513
1067.40 0.5512
1067.50 0.551
1067.60 0.5509
1067.70 0.5508
1067.80 0.5507
1067.90 0.5506
1068.00 0.5504
1068.10 0.5503
1068.20 0.5502
1068.30 0.5501
1068.40 0.55
1068.50 0.5498
1068.60 0.5497
1068.70 0.5496
1068.80 0.5495
1068.90 0.5494
1069.00 0.5492
1069.10 0.5491
1069.20 0.549
1069.30 0.5489
1069.40 0.5488
1069.50 0.5486
1069.60 0.5485
1069.70 0.5484
1069.80 0.5483
1069.90 0.5482
1070.00 0.5481
1070.10 0.5479
1070.20 0.5478
1070.30 0.5477
1070.40 0.5476
1070.50 0.5475
1070.60 0.5473
1070.70 0.5472
1070.80 0.5471
1070.90 0.547
1071.00 0.5469
1071.10 0.5468
1071.20 0.5466
1071.30 0.5465
1071.40 0.5464
1071.50 0.5463
1071.60 0.5462
1071.70 0.546
1071.80 0.5459
1071.90 0.5458
1072.00 0.5457
1072.10 0.5456
1072.20 0.5455
1072.30 0.5453
1072.40 0.5452
1072.50 0.5451
1072.60 0.545
1072.70 0.5449
1072.80 0.5448
1072.90 0.5447
1073.00 0.5445
1073.10 0.5444
1073.20 0.5443
1073.30 0.5442
1073.40 0.5441
1073.50 0.544
1073.60 0.5438
1073.70 0.5437
1073.80 0.5436
1073.90 0.5435
1074.00 0.5434
1074.10 0.5433
1074.20 0.5432
1074.30 0.5431
1074.40 0.543
1074.50 0.5428
1074.60 0.5427
1074.70 0.5426
1074.80 0.5425
1074.90 0.5424
1075.00 0.5423
1075.10 0.5422
1075.20 0.5421
1075.30 0.542
1075.40 0.5418
1075.50 0.5417
1075.60 0.5416
1075.70 0.5415
1075.80 0.5414
1075.90 0.5413
1076.00 0.5412
1076.10 0.5411
1076.20 0.541
1076.30 0.5408
1076.40 0.5407
1076.50 0.5406
1076.60 0.5405
1076.70 0.5404
1076.80 0.5403
1076.90 0.5402
1077.00 0.5401
1077.10 0.54
1077.20 0.5398
1077.30 0.5397
1077.40 0.5396
1077.50 0.5395
1077.60 0.5394
1077.70 0.5393
1077.80 0.5392
1077.90 0.5391
1078.00 0.539
1078.10 0.5389
1078.20 0.5388
1078.30 0.5386
1078.40 0.5385
1078.50 0.5384
1078.60 0.5383
1078.70 0.5382
1078.80 0.5381
1078.90 0.538
1079.00 0.5379
1079.10 0.5378
1079.20 0.5377
1079.30 0.5376
1079.40 0.5375
1079.50 0.5374
1079.60 0.5373
1079.70 0.5372
1079.80 0.5371
1079.90 0.537
1080.00 0.5368
1080.10 0.5367
1080.20 0.5366
1080.30 0.5365
1080.40 0.5364
1080.50 0.5363
1080.60 0.5362
1080.70 0.5361
1080.80 0.536
1080.90 0.5359
1081.00 0.5358
1081.10 0.5357
1081.20 0.5356
1081.30 0.5355
1081.40 0.5354
1081.50 0.5353
1081.60 0.5352
1081.70 0.5351
1081.80 0.535
1081.90 0.5349
1082.00 0.5348
1082.10 0.5347
1082.20 0.5346
1082.30 0.5345
1082.40 0.5344
1082.50 0.5343
1082.60 0.5342
1082.70 0.5341
1082.80 0.534
1082.90 0.5339
1083.00 0.5338
1083.10 0.5337
1083.20 0.5336
1083.30 0.5335
1083.40 0.5334
1083.50 0.5333
1083.60 0.5332
1083.70 0.5331
1083.80 0.533
1083.90 0.5329
1084.00 0.5328
1084.10 0.5327
1084.20 0.5326
1084.30 0.5325
1084.40 0.5324
1084.50 0.5323
1084.60 0.5322
1084.70 0.5321
1084.80 0.532
1084.90 0.5319
1085.00 0.5318
1085.10 0.5317
1085.20 0.5316
1085.30 0.5315
1085.40 0.5314
1085.50 0.5313
1085.60 0.5312
1085.70 0.5311
1085.80 0.531
1085.90 0.5309
1086.00 0.5308
1086.10 0.5307
1086.20 0.5306
1086.30 0.5305
1086.40 0.5304
1086.50 0.5303
1086.60 0.5302
1086.70 0.5301
1086.80 0.53
1086.90 0.5299
1087.00 0.5298
1087.10 0.5297
1087.20 0.5296
1087.30 0.5295
1087.40 0.5294
1087.50 0.5293
1087.60 0.5292
1087.70 0.5291
1087.80 0.529
1087.90 0.5289
1088.00 0.5288
1088.10 0.5287
1088.20 0.5286
1088.30 0.5285
1088.40 0.5284
1088.50 0.5283
1088.60 0.5282
1088.70 0.5281
1088.80 0.528
1088.90 0.5279
1089.00 0.5278
1089.10 0.5277
1089.20 0.5277
1089.30 0.5276
1089.40 0.5275
1089.50 0.5274
1089.60 0.5273
1089.70 0.5272
1089.80 0.5271
1089.90 0.527
1090.00 0.5269
1090.10 0.5268
1090.20 0.5267
1090.30 0.5266
1090.40 0.5265
1090.50 0.5264
1090.60 0.5263
1090.70 0.5262
1090.80 0.5261
1090.90 0.526
1091.00 0.526
1091.10 0.5259
1091.20 0.5258
1091.30 0.5257
1091.40 0.5256
1091.50 0.5255
1091.60 0.5254
1091.70 0.5253
1091.80 0.5252
1091.90 0.5251
1092.00 0.525
1092.10 0.5249
1092.20 0.5248
1092.30 0.5247
1092.40 0.5246
1092.50 0.5245
1092.60 0.5244
1092.70 0.5244
1092.80 0.5243
1092.90 0.5242
1093.00 0.5242
1093.10 0.5241
1093.20 0.524
1093.30 0.5239
1093.40 0.5238
1093.50 0.5237
1093.60 0.5236
1093.70 0.5235
1093.80 0.5234
1093.90 0.5233
1094.00 0.5233
1094.10 0.5232
1094.20 0.5231
1094.30 0.523
1094.40 0.5229
1094.50 0.5228
1094.60 0.5227
1094.70 0.5226
1094.80 0.5225
1094.90 0.5224
1095.00 0.5223
1095.10 0.5223
1095.20 0.5222
1095.30 0.5221
1095.40 0.522
1095.50 0.5219
1095.60 0.5218
1095.70 0.5217
1095.80 0.5216
1095.90 0.5215
1096.00 0.5214
1096.10 0.5214
1096.20 0.5213
1096.30 0.5212
1096.40 0.5211
1096.50 0.521
1096.60 0.5209
1096.70 0.5208
1096.80 0.5207
1096.90 0.5206
1097.00 0.5206
1097.10 0.5205
1097.20 0.5204
1097.30 0.5203
1097.40 0.5202
1097.50 0.5201
1097.60 0.52
1097.70 0.5199
1097.80 0.5198
1097.90 0.5197
1098.00 0.5197
1098.10 0.5196
1098.20 0.5195
1098.30 0.5194
1098.40 0.5193
1098.50 0.5192
1098.60 0.5191
1098.70 0.519
1098.80 0.5189
1098.90 0.5189
1099.00 0.5188
1099.10 0.5187
1099.20 0.5186
1099.30 0.5185
1099.40 0.5184
1099.50 0.5183
1099.60 0.5182
1099.70 0.5181
1099.80 0.5181
1099.90 0.518
1100.00 0.5179
1100.10 0.5178
1100.20 0.5177
1100.30 0.5176
1100.40 0.5175
1100.50 0.5174
1100.60 0.5174
1100.70 0.5173
1100.80 0.5172
1100.90 0.5171
1101.00 0.517
1101.10 0.5169
1101.20 0.5168
1101.30 0.5167
1101.40 0.5167
1101.50 0.5166
1101.60 0.5165
1101.70 0.5164
1101.80 0.5163
1101.90 0.5162
1102.00 0.5161
1102.10 0.5161
1102.20 0.516
1102.30 0.5159
1102.40 0.5158
1102.50 0.5157
1102.60 0.5156
1102.70 0.5155
1102.80 0.5154
1102.90 0.5154
1103.00 0.5153
1103.10 0.5152
1103.20 0.5151
1103.30 0.515
1103.40 0.5149
1103.50 0.5148
1103.60 0.5148
1103.70 0.5147
1103.80 0.5146
1103.90 0.5145
1104.00 0.5144
1104.10 0.5143
1104.20 0.5143
1104.30 0.5142
1104.40 0.5141
1104.50 0.514
1104.60 0.5139
1104.70 0.5138
1104.80 0.5137
1104.90 0.5137
1105.00 0.5136
1105.10 0.5135
1105.20 0.5134
1105.30 0.5133
1105.40 0.5132
1105.50 0.5131
1105.60 0.5131
1105.70 0.513
1105.80 0.5129
1105.90 0.5128
1106.00 0.5127
1106.10 0.5126
1106.20 0.5126
1106.30 0.5125
1106.40 0.5124
1106.50 0.5123
1106.60 0.5122
1106.70 0.5121
1106.80 0.5121
1106.90 0.512
1107.00 0.5119
1107.10 0.5118
1107.20 0.5117
1107.30 0.5116
1107.40 0.5115
1107.50 0.5115
1107.60 0.5114
1107.70 0.5113
1107.80 0.5112
1107.90 0.5111
1108.00 0.511
1108.10 0.511
1108.20 0.5109
1108.30 0.5108
1108.40 0.5107
1108.50 0.5106
1108.60 0.5105
1108.70 0.5105
1108.80 0.5104
1108.90 0.5103
1109.00 0.5102
1109.10 0.5101
1109.20 0.5101
1109.30 0.51
1109.40 0.5099
1109.50 0.5098
1109.60 0.5097
1109.70 0.5096
1109.80 0.5096
1109.90 0.5095
1110.00 0.5094
1110.10 0.5093
1110.20 0.5092
1110.30 0.5091
1110.40 0.5091
1110.50 0.509
1110.60 0.5089
1110.70 0.5088
1110.80 0.5087
1110.90 0.5086
1111.00 0.5086
1111.10 0.5085
1111.20 0.5084
1111.30 0.5083
1111.40 0.5082
1111.50 0.5081
1111.60 0.5081
1111.70 0.508
1111.80 0.5079
1111.90 0.5078
1112.00 0.5077
1112.10 0.5076
1112.20 0.5076
1112.30 0.5075
1112.40 0.5074
1112.50 0.5073
1112.60 0.5072
1112.70 0.5072
1112.80 0.5071
1112.90 0.507
1113.00 0.5069
1113.10 0.5068
1113.20 0.5067
1113.30 0.5067
1113.40 0.5066
1113.50 0.5065
1113.60 0.5064
1113.70 0.5063
1113.80 0.5063
1113.90 0.5062
1114.00 0.5061
1114.10 0.506
1114.20 0.5059
1114.30 0.5058
1114.40 0.5058
1114.50 0.5057
1114.60 0.5056
1114.70 0.5055
1114.80 0.5054
1114.90 0.5054
1115.00 0.5053
1115.10 0.5052
1115.20 0.5051
1115.30 0.505
1115.40 0.505
1115.50 0.5049
1115.60 0.5048
1115.70 0.5047
1115.80 0.5046
1115.90 0.5046
1116.00 0.5045
1116.10 0.5044
1116.20 0.5043
1116.30 0.5042
1116.40 0.5042
1116.50 0.5041
1116.60 0.504
1116.70 0.5039
1116.80 0.5038
1116.90 0.5037
1117.00 0.5037
1117.10 0.5036
1117.20 0.5035
1117.30 0.5034
1117.40 0.5034
1117.50 0.5033
1117.60 0.5032
1117.70 0.5031
1117.80 0.503
1117.90 0.503
1118.00 0.5029
1118.10 0.5028
1118.20 0.5027
1118.30 0.5026
1118.40 0.5026
1118.50 0.5025
1118.60 0.5024
1118.70 0.5023
1118.80 0.5022
1118.90 0.5022
1119.00 0.5021
1119.10 0.502
1119.20 0.5019
1119.30 0.5018
1119.40 0.5018
1119.50 0.5017
1119.60 0.5016
1119.70 0.5015
1119.80 0.5014
1119.90 0.5014
1120.00 0.5013
1120.10 0.5012
1120.20 0.5011
1120.30 0.5011
1120.40 0.501
1120.50 0.5009
1120.60 0.5008
1120.70 0.5007
1120.80 0.5007
1120.90 0.5006
1121.00 0.5005
1121.10 0.5004
1121.20 0.5003
1121.30 0.5003
1121.40 0.5002
1121.50 0.5001
1121.60 0.5
1121.70 0.5
1121.80 0.4999
1121.90 0.4998
1122.00 0.4997
1122.10 0.4996
1122.20 0.4996
1122.30 0.4995
1122.40 0.4994
1122.50 0.4993
1122.60 0.4992
1122.70 0.4992
1122.80 0.4991
1122.90 0.499
1123.00 0.4989
1123.10 0.4988
1123.20 0.4988
1123.30 0.4987
1123.40 0.4986
1123.50 0.4985
1123.60 0.4984
1123.70 0.4984
1123.80 0.4983
1123.90 0.4982
1124.00 0.4981
1124.10 0.498
1124.20 0.498
1124.30 0.4979
1124.40 0.4978
1124.50 0.4977
1124.60 0.4977
1124.70 0.4976
1124.80 0.4975
1124.90 0.4974
1125.00 0.4973
1125.10 0.4973
1125.20 0.4972
1125.30 0.4971
1125.40 0.497
1125.50 0.4969
1125.60 0.4969
1125.70 0.4968
1125.80 0.4967
1125.90 0.4966
1126.00 0.4965
1126.10 0.4965
1126.20 0.4964
1126.30 0.4963
1126.40 0.4962
1126.50 0.4962
1126.60 0.4961
1126.70 0.496
1126.80 0.4959
1126.90 0.4958
1127.00 0.4958
1127.10 0.4957
1127.20 0.4956
1127.30 0.4955
1127.40 0.4954
1127.50 0.4954
1127.60 0.4953
1127.70 0.4952
1127.80 0.4951
1127.90 0.4951
1128.00 0.495
1128.10 0.4949
1128.20 0.4948
1128.30 0.4947
1128.40 0.4947
1128.50 0.4946
1128.60 0.4945
1128.70 0.4944
1128.80 0.4944
1128.90 0.4943
1129.00 0.4942
1129.10 0.4941
1129.20 0.494
1129.30 0.494
1129.40 0.4939
1129.50 0.4938
1129.60 0.4937
1129.70 0.4937
1129.80 0.4936
1129.90 0.4935
1130.00 0.4934
1130.10 0.4933
1130.20 0.4933
1130.30 0.4932
1130.40 0.4931
1130.50 0.493
1130.60 0.493
1130.70 0.4929
1130.80 0.4928
1130.90 0.4927
1131.00 0.4927
1131.10 0.4926
1131.20 0.4925
1131.30 0.4924
1131.40 0.4923
1131.50 0.4923
1131.60 0.4922
1131.70 0.4921
1131.80 0.492
1131.90 0.492
1132.00 0.4919
1132.10 0.4918
1132.20 0.4917
1132.30 0.4916
1132.40 0.4916
1132.50 0.4915
1132.60 0.4914
1132.70 0.4913
1132.80 0.4912
1132.90 0.4912
1133.00 0.4911
1133.10 0.491
1133.20 0.4909
1133.30 0.4908
1133.40 0.4908
1133.50 0.4907
1133.60 0.4906
1133.70 0.4905
1133.80 0.4904
1133.90 0.4904
1134.00 0.4903
1134.10 0.4902
1134.20 0.4901
1134.30 0.49
1134.40 0.49
1134.50 0.4899
1134.60 0.4898
1134.70 0.4897
1134.80 0.4896
1134.90 0.4896
1135.00 0.4895
1135.10 0.4894
1135.20 0.4893
1135.30 0.4892
1135.40 0.4892
1135.50 0.4891
1135.60 0.489
1135.70 0.4889
1135.80 0.4888
1135.90 0.4888
1136.00 0.4887
1136.10 0.4886
1136.20 0.4885
1136.30 0.4885
1136.40 0.4884
1136.50 0.4883
1136.60 0.4882
1136.70 0.4881
1136.80 0.4881
1136.90 0.488
1137.00 0.4879
1137.10 0.4878
1137.20 0.4877
1137.30 0.4877
1137.40 0.4876
1137.50 0.4875
1137.60 0.4874
1137.70 0.4873
1137.80 0.4872
1137.90 0.4872
1138.00 0.4871
1138.10 0.487
1138.20 0.4869
1138.30 0.4868
1138.40 0.4868
1138.50 0.4867
1138.60 0.4866
1138.70 0.4865
1138.80 0.4864
1138.90 0.4863
1139.00 0.4863
1139.10 0.4862
1139.20 0.4861
1139.30 0.486
1139.40 0.4859
1139.50 0.4859
1139.60 0.4858
1139.70 0.4857
1139.80 0.4856
1139.90 0.4855
1140.00 0.4855
1140.10 0.4854
1140.20 0.4853
1140.30 0.4852
1140.40 0.4851
1140.50 0.485
1140.60 0.485
1140.70 0.4849
1140.80 0.4848
1140.90 0.4847
1141.00 0.4846
1141.10 0.4846
1141.20 0.4845
1141.30 0.4844
1141.40 0.4843
1141.50 0.4842
1141.60 0.4842
1141.70 0.4841
1141.80 0.484
1141.90 0.4839
1142.00 0.4838
1142.10 0.4838
1142.20 0.4837
1142.30 0.4836
1142.40 0.4835
1142.50 0.4834
1142.60 0.4833
1142.70 0.4833
1142.80 0.4832
1142.90 0.4831
1143.00 0.483
1143.10 0.4829
1143.20 0.4829
1143.30 0.4828
1143.40 0.4827
1143.50 0.4826
1143.60 0.4825
1143.70 0.4824
1143.80 0.4824
1143.90 0.4823
1144.00 0.4822
1144.10 0.4821
1144.20 0.482
1144.30 0.482
1144.40 0.4819
1144.50 0.4818
1144.60 0.4817
1144.70 0.4816
1144.80 0.4815
1144.90 0.4815
1145.00 0.4814
1145.10 0.4813
1145.20 0.4812
1145.30 0.4811
1145.40 0.4811
1145.50 0.481
1145.60 0.4809
1145.70 0.4808
1145.80 0.4807
1145.90 0.4806
1146.00 0.4806
1146.10 0.4805
1146.20 0.4804
1146.30 0.4803
1146.40 0.4802
1146.50 0.4802
1146.60 0.4801
1146.70 0.48
1146.80 0.4799
1146.90 0.4798
1147.00 0.4798
1147.10 0.4797
1147.20 0.4796
1147.30 0.4795
1147.40 0.4794
1147.50 0.4793
1147.60 0.4792
1147.70 0.4792
1147.80 0.4791
1147.90 0.479
1148.00 0.4789
1148.10 0.4788
1148.20 0.4787
1148.30 0.4786
1148.40 0.4786
1148.50 0.4785
1148.60 0.4784
1148.70 0.4783
1148.80 0.4782
1148.90 0.4781
1149.00 0.4781
1149.10 0.478
1149.20 0.4779
1149.30 0.4778
1149.40 0.4777
1149.50 0.4776
1149.60 0.4775
1149.70 0.4775
1149.80 0.4774
1149.90 0.4773
1150.00 0.4772
1150.10 0.4771
1150.20 0.477
1150.30 0.477
1150.40 0.4769
1150.50 0.4768
1150.60 0.4767
1150.70 0.4766
1150.80 0.4765
1150.90 0.4764
1151.00 0.4764
1151.10 0.4763
1151.20 0.4762
1151.30 0.4761
1151.40 0.476
1151.50 0.4759
1151.60 0.4759
1151.70 0.4758
1151.80 0.4757
1151.90 0.4756
1152.00 0.4755
1152.10 0.4754
1152.20 0.4754
1152.30 0.4753
1152.40 0.4752
1152.50 0.4751
1152.60 0.475
1152.70 0.4749
1152.80 0.4748
1152.90 0.4748
1153.00 0.4747
1153.10 0.4746
1153.20 0.4745
1153.30 0.4744
1153.40 0.4743
1153.50 0.4742
1153.60 0.4741
1153.70 0.4741
1153.80 0.474
1153.90 0.4739
1154.00 0.4738
1154.10 0.4737
1154.20 0.4736
1154.30 0.4736
1154.40 0.4735
1154.50 0.4734
1154.60 0.4733
1154.70 0.4732
1154.80 0.4731
1154.90 0.473
1155.00 0.473
1155.10 0.4729
1155.20 0.4728
1155.30 0.4727
1155.40 0.4726
1155.50 0.4725
1155.60 0.4724
1155.70 0.4724
1155.80 0.4723
1155.90 0.4722
1156.00 0.4721
1156.10 0.472
1156.20 0.4719
1156.30 0.4718
1156.40 0.4718
1156.50 0.4717
1156.60 0.4716
1156.70 0.4715
1156.80 0.4714
1156.90 0.4713
1157.00 0.4712
1157.10 0.4712
1157.20 0.4711
1157.30 0.471
1157.40 0.4709
1157.50 0.4708
1157.60 0.4707
1157.70 0.4706
1157.80 0.4705
1157.90 0.4704
1158.00 0.4704
1158.10 0.4703
1158.20 0.4702
1158.30 0.4701
1158.40 0.47
1158.50 0.4699
1158.60 0.4698
1158.70 0.4697
1158.80 0.4696
1158.90 0.4696
1159.00 0.4695
1159.10 0.4694
1159.20 0.4693
1159.30 0.4692
1159.40 0.4691
1159.50 0.469
1159.60 0.4689
1159.70 0.4688
1159.80 0.4688
1159.90 0.4687
1160.00 0.4686
1160.10 0.4685
1160.20 0.4684
1160.30 0.4683
1160.40 0.4682
1160.50 0.4681
1160.60 0.468
1160.70 0.468
1160.80 0.4679
1160.90 0.4678
1161.00 0.4677
1161.10 0.4676
1161.20 0.4675
1161.30 0.4674
1161.40 0.4673
1161.50 0.4673
1161.60 0.4672
1161.70 0.4671
1161.80 0.467
1161.90 0.4669
1162.00 0.4668
1162.10 0.4667
1162.20 0.4666
1162.30 0.4665
1162.40 0.4664
1162.50 0.4664
1162.60 0.4663
1162.70 0.4662
1162.80 0.4661
1162.90 0.466
1163.00 0.4659
1163.10 0.4658
1163.20 0.4657
1163.30 0.4656
1163.40 0.4655
1163.50 0.4654
1163.60 0.4653
1163.70 0.4653
1163.80 0.4652
1163.90 0.4651
1164.00 0.465
1164.10 0.4649
1164.20 0.4648
1164.30 0.4647
1164.40 0.4646
1164.50 0.4645
1164.60 0.4644
1164.70 0.4643
1164.80 0.4643
1164.90 0.4642
1165.00 0.4641
1165.10 0.464
1165.20 0.4639
1165.30 0.4638
1165.40 0.4637
1165.50 0.4636
1165.60 0.4635
1165.70 0.4634
1165.80 0.4633
1165.90 0.4633
1166.00 0.4632
1166.10 0.4631
1166.20 0.463
1166.30 0.4629
1166.40 0.4628
1166.50 0.4627
1166.60 0.4626
1166.70 0.4625
1166.80 0.4624
1166.90 0.4624
1167.00 0.4623
1167.10 0.4622
1167.20 0.4621
1167.30 0.462
1167.40 0.4619
1167.50 0.4618
1167.60 0.4617
1167.70 0.4616
1167.80 0.4615
1167.90 0.4614
1168.00 0.4613
1168.10 0.4612
1168.20 0.4611
1168.30 0.461
1168.40 0.4609
1168.50 0.4608
1168.60 0.4608
1168.70 0.4607
1168.80 0.4606
1168.90 0.4605
1169.00 0.4604
1169.10 0.4603
1169.20 0.4602
1169.30 0.4601
1169.40 0.46
1169.50 0.4599
1169.60 0.4598
1169.70 0.4597
1169.80 0.4596
1169.90 0.4595
1170.00 0.4594
1170.10 0.4593
1170.20 0.4593
1170.30 0.4592
1170.40 0.4591
1170.50 0.459
1170.60 0.4589
1170.70 0.4588
1170.80 0.4587
1170.90 0.4586
1171.00 0.4585
1171.10 0.4584
1171.20 0.4583
1171.30 0.4582
1171.40 0.4581
1171.50 0.458
1171.60 0.4579
1171.70 0.4579
1171.80 0.4578
1171.90 0.4577
1172.00 0.4576
1172.10 0.4575
1172.20 0.4574
1172.30 0.4573
1172.40 0.4572
1172.50 0.4571
1172.60 0.457
1172.70 0.4569
1172.80 0.4568
1172.90 0.4567
1173.00 0.4566
1173.10 0.4565
1173.20 0.4564
1173.30 0.4563
1173.40 0.4562
1173.50 0.4561
1173.60 0.456
1173.70 0.4559
1173.80 0.4558
1173.90 0.4558
1174.00 0.4557
1174.10 0.4556
1174.20 0.4555
1174.30 0.4554
1174.40 0.4553
1174.50 0.4552
1174.60 0.4551
1174.70 0.455
1174.80 0.4549
1174.90 0.4548
1175.00 0.4547
1175.10 0.4546
1175.20 0.4545
1175.30 0.4544
1175.40 0.4543
1175.50 0.4542
1175.60 0.4541
1175.70 0.454
1175.80 0.4539
1175.90 0.4538
1176.00 0.4537
1176.10 0.4536
1176.20 0.4536
1176.30 0.4535
1176.40 0.4534
1176.50 0.4533
1176.60 0.4532
1176.70 0.4531
1176.80 0.453
1176.90 0.4529
1177.00 0.4528
1177.10 0.4527
1177.20 0.4526
1177.30 0.4525
1177.40 0.4524
1177.50 0.4523
1177.60 0.4522
1177.70 0.4521
1177.80 0.452
1177.90 0.4519
1178.00 0.4518
1178.10 0.4517
1178.20 0.4516
1178.30 0.4515
1178.40 0.4514
1178.50 0.4513
1178.60 0.4512
1178.70 0.4511
1178.80 0.451
1178.90 0.4509
1179.00 0.4508
1179.10 0.4507
1179.20 0.4506
1179.30 0.4505
1179.40 0.4504
1179.50 0.4503
1179.60 0.4503
1179.70 0.4502
1179.80 0.4501
1179.90 0.45
1180.00 0.4499
1180.10 0.4498
1180.20 0.4497
1180.30 0.4496
1180.40 0.4495
1180.50 0.4494
1180.60 0.4493
1180.70 0.4492
1180.80 0.4491
1180.90 0.449
1181.00 0.4489
1181.10 0.4488
1181.20 0.4487
1181.30 0.4486
1181.40 0.4485
1181.50 0.4484
1181.60 0.4483
1181.70 0.4482
1181.80 0.4481
1181.90 0.448
1182.00 0.4479
1182.10 0.4478
1182.20 0.4477
1182.30 0.4476
1182.40 0.4475
1182.50 0.4474
1182.60 0.4473
1182.70 0.4472
1182.80 0.4471
1182.90 0.447
1183.00 0.4469
1183.10 0.4468
1183.20 0.4467
1183.30 0.4466
1183.40 0.4465
1183.50 0.4464
1183.60 0.4463
1183.70 0.4462
1183.80 0.4461
1183.90 0.446
1184.00 0.4459
1184.10 0.4458
1184.20 0.4457
1184.30 0.4456
1184.40 0.4455
1184.50 0.4454
1184.60 0.4453
1184.70 0.4452
1184.80 0.4451
1184.90 0.445
1185.00 0.4449
1185.10 0.4448
1185.20 0.4447
1185.30 0.4446
1185.40 0.4445
1185.50 0.4444
1185.60 0.4443
1185.70 0.4442
1185.80 0.4441
1185.90 0.444
1186.00 0.4439
1186.10 0.4438
1186.20 0.4437
1186.30 0.4436
1186.40 0.4435
1186.50 0.4434
1186.60 0.4433
1186.70 0.4432
1186.80 0.4431
1186.90 0.443
1187.00 0.4429
1187.10 0.4428
1187.20 0.4427
1187.30 0.4426
1187.40 0.4425
1187.50 0.4424
1187.60 0.4423
1187.70 0.4422
1187.80 0.4421
1187.90 0.442
1188.00 0.4419
1188.10 0.4418
1188.20 0.4417
1188.30 0.4416
1188.40 0.4415
1188.50 0.4414
1188.60 0.4413
1188.70 0.4412
1188.80 0.4411
1188.90 0.441
1189.00 0.4409
1189.10 0.4408
1189.20 0.4407
1189.30 0.4406
1189.40 0.4405
1189.50 0.4404
1189.60 0.4403
1189.70 0.4402
1189.80 0.4401
1189.90 0.44
1190.00 0.4399
1190.10 0.4398
1190.20 0.4397
1190.30 0.4396
1190.40 0.4395
1190.50 0.4394
1190.60 0.4393
1190.70 0.4392
1190.80 0.4391
1190.90 0.439
1191.00 0.4389
1191.10 0.4388
1191.20 0.4387
1191.30 0.4386
1191.40 0.4385
1191.50 0.4384
1191.60 0.4383
1191.70 0.4382
1191.80 0.4381
1191.90 0.438
1192.00 0.4379
1192.10 0.4378
1192.20 0.4377
1192.30 0.4376
1192.40 0.4375
1192.50 0.4374
1192.60 0.4373
1192.70 0.4372
1192.80 0.4371
1192.90 0.437
1193.00 0.4369
1193.10 0.4368
1193.20 0.4367
1193.30 0.4366
1193.40 0.4365
1193.50 0.4364
1193.60 0.4363
1193.70 0.4362
1193.80 0.4361
1193.90 0.436
1194.00 0.4359
1194.10 0.4358
1194.20 0.4357
1194.30 0.4356
1194.40 0.4355
1194.50 0.4354
1194.60 0.4353
1194.70 0.4352
1194.80 0.4351
1194.90 0.435
1195.00 0.4349
1195.10 0.4348
1195.20 0.4347
1195.30 0.4346
1195.40 0.4345
1195.50 0.4344
1195.60 0.4343
1195.70 0.4342
1195.80 0.4341
1195.90 0.434
1196.00 0.4339
1196.10 0.4338
1196.20 0.4337
1196.30 0.4336
1196.40 0.4335
1196.50 0.4334
1196.60 0.4333
1196.70 0.4332
1196.80 0.4331
1196.90 0.433
1197.00 0.4329
1197.10 0.4328
1197.20 0.4327
1197.30 0.4326
1197.40 0.4325
1197.50 0.4323
1197.60 0.4322
1197.70 0.4321
1197.80 0.432
1197.90 0.4319
1198.00 0.4318
1198.10 0.4317
1198.20 0.4316
1198.30 0.4315
1198.40 0.4314
1198.50 0.4313
1198.60 0.4312
1198.70 0.4311
1198.80 0.431
1198.90 0.4309
1199.00 0.4308
1199.10 0.4307
1199.20 0.4306
1199.30 0.4305
1199.40 0.4304
1199.50 0.4303
1199.60 0.4302
1199.70 0.4301
1199.80 0.43
1199.90 0.4299
1200.00 0
