# Version 2.1 - nm, norm@500 to 1, cut digits, bergeron_13000_70.dat_13000
# Wavelength(nm)  Flambda(ergs/cm^s/s/nm)
300.00 1.722
300.10 1.721
300.20 1.72
300.30 1.719
300.40 1.718
300.50 1.717
300.60 1.716
300.70 1.714
300.80 1.713
300.90 1.712
301.00 1.711
301.10 1.71
301.20 1.709
301.30 1.708
301.40 1.706
301.50 1.705
301.60 1.704
301.70 1.703
301.80 1.702
301.90 1.701
302.00 1.7
302.10 1.699
302.20 1.697
302.30 1.696
302.40 1.695
302.50 1.694
302.60 1.693
302.70 1.692
302.80 1.691
302.90 1.69
303.00 1.688
303.10 1.687
303.20 1.686
303.30 1.685
303.40 1.684
303.50 1.683
303.60 1.682
303.70 1.681
303.80 1.68
303.90 1.678
304.00 1.677
304.10 1.676
304.20 1.675
304.30 1.674
304.40 1.673
304.50 1.672
304.60 1.671
304.70 1.67
304.80 1.669
304.90 1.667
305.00 1.666
305.10 1.665
305.20 1.664
305.30 1.663
305.40 1.662
305.50 1.661
305.60 1.66
305.70 1.659
305.80 1.658
305.90 1.657
306.00 1.655
306.10 1.654
306.20 1.653
306.30 1.652
306.40 1.651
306.50 1.65
306.60 1.649
306.70 1.648
306.80 1.647
306.90 1.646
307.00 1.645
307.10 1.644
307.20 1.643
307.30 1.641
307.40 1.64
307.50 1.639
307.60 1.638
307.70 1.637
307.80 1.636
307.90 1.635
308.00 1.634
308.10 1.633
308.20 1.632
308.30 1.631
308.40 1.63
308.50 1.629
308.60 1.628
308.70 1.627
308.80 1.625
308.90 1.624
309.00 1.623
309.10 1.622
309.20 1.621
309.30 1.62
309.40 1.619
309.50 1.618
309.60 1.617
309.70 1.616
309.80 1.615
309.90 1.614
310.00 1.613
310.10 1.612
310.20 1.611
310.30 1.61
310.40 1.609
310.50 1.608
310.60 1.607
310.70 1.606
310.80 1.605
310.90 1.603
311.00 1.602
311.10 1.601
311.20 1.6
311.30 1.599
311.40 1.598
311.50 1.597
311.60 1.596
311.70 1.595
311.80 1.594
311.90 1.593
312.00 1.592
312.10 1.591
312.20 1.59
312.30 1.589
312.40 1.588
312.50 1.587
312.60 1.586
312.70 1.585
312.80 1.584
312.90 1.583
313.00 1.582
313.10 1.581
313.20 1.58
313.30 1.579
313.40 1.578
313.50 1.577
313.60 1.576
313.70 1.575
313.80 1.574
313.90 1.573
314.00 1.572
314.10 1.571
314.20 1.57
314.30 1.569
314.40 1.568
314.50 1.567
314.60 1.566
314.70 1.565
314.80 1.564
314.90 1.563
315.00 1.562
315.10 1.561
315.20 1.56
315.30 1.559
315.40 1.558
315.50 1.557
315.60 1.556
315.70 1.555
315.80 1.554
315.90 1.553
316.00 1.552
316.10 1.551
316.20 1.55
316.30 1.549
316.40 1.548
316.50 1.547
316.60 1.546
316.70 1.545
316.80 1.544
316.90 1.543
317.00 1.542
317.10 1.541
317.20 1.54
317.30 1.539
317.40 1.538
317.50 1.537
317.60 1.536
317.70 1.535
317.80 1.534
317.90 1.533
318.00 1.532
318.10 1.531
318.20 1.53
318.30 1.529
318.40 1.528
318.50 1.527
318.60 1.526
318.70 1.525
318.80 1.524
318.90 1.523
319.00 1.522
319.10 1.522
319.20 1.521
319.30 1.52
319.40 1.519
319.50 1.518
319.60 1.517
319.70 1.516
319.80 1.515
319.90 1.514
320.00 1.513
320.10 1.512
320.20 1.511
320.30 1.51
320.40 1.509
320.50 1.508
320.60 1.507
320.70 1.506
320.80 1.505
320.90 1.504
321.00 1.503
321.10 1.502
321.20 1.501
321.30 1.501
321.40 1.5
321.50 1.499
321.60 1.498
321.70 1.497
321.80 1.496
321.90 1.495
322.00 1.494
322.10 1.493
322.20 1.492
322.30 1.491
322.40 1.49
322.50 1.489
322.60 1.488
322.70 1.487
322.80 1.486
322.90 1.485
323.00 1.485
323.10 1.484
323.20 1.483
323.30 1.482
323.40 1.481
323.50 1.48
323.60 1.479
323.70 1.478
323.80 1.477
323.90 1.476
324.00 1.475
324.10 1.474
324.20 1.473
324.30 1.472
324.40 1.472
324.50 1.471
324.60 1.47
324.70 1.469
324.80 1.468
324.90 1.467
325.00 1.466
325.10 1.465
325.20 1.464
325.30 1.463
325.40 1.462
325.50 1.461
325.60 1.461
325.70 1.46
325.80 1.459
325.90 1.458
326.00 1.457
326.10 1.456
326.20 1.455
326.30 1.454
326.40 1.453
326.50 1.452
326.60 1.452
326.70 1.451
326.80 1.45
326.90 1.449
327.00 1.448
327.10 1.447
327.20 1.446
327.30 1.445
327.40 1.444
327.50 1.443
327.60 1.443
327.70 1.442
327.80 1.441
327.90 1.44
328.00 1.439
328.10 1.438
328.20 1.437
328.30 1.436
328.40 1.435
328.50 1.434
328.60 1.434
328.70 1.433
328.80 1.432
328.90 1.431
329.00 1.43
329.10 1.429
329.20 1.428
329.30 1.427
329.40 1.426
329.50 1.426
329.60 1.425
329.70 1.424
329.80 1.423
329.90 1.422
330.00 1.421
330.10 1.42
330.20 1.419
330.30 1.419
330.40 1.418
330.50 1.417
330.60 1.416
330.70 1.415
330.80 1.414
330.90 1.413
331.00 1.412
331.10 1.412
331.20 1.411
331.30 1.41
331.40 1.409
331.50 1.408
331.60 1.407
331.70 1.406
331.80 1.406
331.90 1.405
332.00 1.404
332.10 1.403
332.20 1.402
332.30 1.401
332.40 1.4
332.50 1.399
332.60 1.399
332.70 1.398
332.80 1.397
332.90 1.396
333.00 1.395
333.10 1.394
333.20 1.393
333.30 1.393
333.40 1.392
333.50 1.391
333.60 1.39
333.70 1.389
333.80 1.388
333.90 1.388
334.00 1.387
334.10 1.386
334.20 1.385
334.30 1.384
334.40 1.383
334.50 1.382
334.60 1.382
334.70 1.381
334.80 1.38
334.90 1.379
335.00 1.378
335.10 1.377
335.20 1.377
335.30 1.376
335.40 1.375
335.50 1.374
335.60 1.373
335.70 1.372
335.80 1.371
335.90 1.371
336.00 1.37
336.10 1.369
336.20 1.368
336.30 1.367
336.40 1.366
336.50 1.366
336.60 1.365
336.70 1.364
336.80 1.363
336.90 1.362
337.00 1.362
337.10 1.361
337.20 1.36
337.30 1.359
337.40 1.358
337.50 1.357
337.60 1.357
337.70 1.356
337.80 1.355
337.90 1.354
338.00 1.353
338.10 1.352
338.20 1.352
338.30 1.351
338.40 1.35
338.50 1.349
338.60 1.348
338.70 1.348
338.80 1.347
338.90 1.346
339.00 1.345
339.10 1.344
339.20 1.343
339.30 1.343
339.40 1.342
339.50 1.341
339.60 1.34
339.70 1.339
339.80 1.339
339.90 1.338
340.00 1.337
340.10 1.336
340.20 1.335
340.30 1.335
340.40 1.334
340.50 1.333
340.60 1.332
340.70 1.331
340.80 1.33
340.90 1.33
341.00 1.329
341.10 1.328
341.20 1.327
341.30 1.326
341.40 1.326
341.50 1.325
341.60 1.324
341.70 1.323
341.80 1.322
341.90 1.322
342.00 1.321
342.10 1.32
342.20 1.319
342.30 1.319
342.40 1.318
342.50 1.317
342.60 1.316
342.70 1.315
342.80 1.315
342.90 1.314
343.00 1.313
343.10 1.312
343.20 1.311
343.30 1.311
343.40 1.31
343.50 1.309
343.60 1.308
343.70 1.307
343.80 1.307
343.90 1.306
344.00 1.305
344.10 1.304
344.20 1.304
344.30 1.303
344.40 1.302
344.50 1.301
344.60 1.3
344.70 1.3
344.80 1.299
344.90 1.298
345.00 1.297
345.10 1.297
345.20 1.296
345.30 1.295
345.40 1.294
345.50 1.293
345.60 1.293
345.70 1.292
345.80 1.291
345.90 1.29
346.00 1.29
346.10 1.289
346.20 1.288
346.30 1.287
346.40 1.287
346.50 1.286
346.60 1.285
346.70 1.284
346.80 1.283
346.90 1.283
347.00 1.282
347.10 1.281
347.20 1.28
347.30 1.28
347.40 1.279
347.50 1.278
347.60 1.277
347.70 1.277
347.80 1.276
347.90 1.275
348.00 1.274
348.10 1.274
348.20 1.273
348.30 1.272
348.40 1.271
348.50 1.271
348.60 1.27
348.70 1.269
348.80 1.268
348.90 1.267
349.00 1.267
349.10 1.266
349.20 1.265
349.30 1.264
349.40 1.264
349.50 1.263
349.60 1.262
349.70 1.261
349.80 1.261
349.90 1.26
350.00 1.259
350.10 1.259
350.20 1.258
350.30 1.257
350.40 1.256
350.50 1.256
350.60 1.255
350.70 1.254
350.80 1.253
350.90 1.253
351.00 1.252
351.10 1.251
351.20 1.25
351.30 1.25
351.40 1.249
351.50 1.248
351.60 1.247
351.70 1.247
351.80 1.246
351.90 1.245
352.00 1.244
352.10 1.244
352.20 1.243
352.30 1.242
352.40 1.242
352.50 1.241
352.60 1.24
352.70 1.239
352.80 1.239
352.90 1.238
353.00 1.237
353.10 1.236
353.20 1.236
353.30 1.235
353.40 1.234
353.50 1.233
353.60 1.233
353.70 1.232
353.80 1.231
353.90 1.231
354.00 1.23
354.10 1.229
354.20 1.228
354.30 1.228
354.40 1.227
354.50 1.226
354.60 1.226
354.70 1.225
354.80 1.224
354.90 1.223
355.00 1.223
355.10 1.222
355.20 1.221
355.30 1.22
355.40 1.22
355.50 1.219
355.60 1.218
355.70 1.218
355.80 1.217
355.90 1.216
356.00 1.216
356.10 1.215
356.20 1.214
356.30 1.213
356.40 1.213
356.50 1.212
356.60 1.211
356.70 1.211
356.80 1.21
356.90 1.209
357.00 1.208
357.10 1.208
357.20 1.207
357.30 1.206
357.40 1.206
357.50 1.205
357.60 1.204
357.70 1.203
357.80 1.203
357.90 1.202
358.00 1.201
358.10 1.201
358.20 1.2
358.30 1.199
358.40 1.199
358.50 1.198
358.60 1.197
358.70 1.196
358.80 1.196
358.90 1.195
359.00 1.194
359.10 1.194
359.20 1.193
359.30 1.192
359.40 1.192
359.50 1.191
359.60 1.19
359.70 1.19
359.80 1.189
359.90 1.188
360.00 1.187
360.10 1.187
360.20 1.186
360.30 1.185
360.40 1.185
360.50 1.184
360.60 1.183
360.70 1.183
360.80 1.182
360.90 1.181
361.00 1.181
361.10 1.18
361.20 1.179
361.30 1.178
361.40 1.178
361.50 1.177
361.60 1.176
361.70 1.176
361.80 1.175
361.90 1.174
362.00 1.174
362.10 1.173
362.20 1.172
362.30 1.172
362.40 1.171
362.50 1.17
362.60 1.17
362.70 1.169
362.80 1.168
362.90 1.168
363.00 1.167
363.10 1.166
363.20 1.166
363.30 1.165
363.40 1.164
363.50 1.163
363.60 1.163
363.70 1.162
363.80 1.161
363.90 1.161
364.00 1.16
364.10 1.159
364.20 1.158
364.30 1.158
364.40 1.157
364.50 1.156
364.60 1.156
364.70 1.155
364.80 1.154
364.90 1.154
365.00 1.153
365.10 1.152
365.20 1.152
365.30 1.151
365.40 1.15
365.50 1.15
365.60 1.149
365.70 1.148
365.80 1.148
365.90 1.147
366.00 1.146
366.10 1.146
366.20 1.145
366.30 1.145
366.40 1.144
366.50 1.143
366.60 1.143
366.70 1.142
366.80 1.142
366.90 1.141
367.00 1.14
367.10 1.14
367.20 1.139
367.30 1.139
367.40 1.138
367.50 1.137
367.60 1.137
367.70 1.136
367.80 1.135
367.90 1.135
368.00 1.134
368.10 1.134
368.20 1.135
368.30 1.135
368.40 1.135
368.50 1.135
368.60 1.135
368.70 1.136
368.80 1.136
368.90 1.136
369.00 1.136
369.10 1.136
369.20 1.137
369.30 1.137
369.40 1.137
369.50 1.137
369.60 1.137
369.70 1.137
369.80 1.138
369.90 1.138
370.00 1.138
370.10 1.14
370.20 1.142
370.30 1.144
370.40 1.145
370.50 1.147
370.60 1.149
370.70 1.151
370.80 1.153
370.90 1.155
371.00 1.157
371.10 1.158
371.20 1.16
371.30 1.162
371.40 1.164
371.50 1.166
371.60 1.168
371.70 1.169
371.80 1.171
371.90 1.173
372.00 1.175
372.10 1.178
372.20 1.182
372.30 1.185
372.40 1.189
372.50 1.192
372.60 1.196
372.70 1.199
372.80 1.202
372.90 1.206
373.00 1.209
373.10 1.213
373.20 1.216
373.30 1.219
373.40 1.223
373.50 1.226
373.60 1.23
373.70 1.233
373.80 1.236
373.90 1.24
374.00 1.243
374.10 1.247
374.20 1.251
374.30 1.254
374.40 1.258
374.50 1.262
374.60 1.266
374.70 1.269
374.80 1.273
374.90 1.277
375.00 1.281
375.10 1.284
375.20 1.288
375.30 1.292
375.40 1.295
375.50 1.299
375.60 1.303
375.70 1.306
375.80 1.31
375.90 1.314
376.00 1.317
376.10 1.319
376.20 1.321
376.30 1.323
376.40 1.325
376.50 1.327
376.60 1.329
376.70 1.33
376.80 1.332
376.90 1.334
377.00 1.336
377.10 1.333
377.20 1.33
377.30 1.327
377.40 1.324
377.50 1.321
377.60 1.317
377.70 1.314
377.80 1.311
377.90 1.308
378.00 1.305
378.10 1.287
378.20 1.269
378.30 1.252
378.40 1.234
378.50 1.216
378.60 1.198
378.70 1.181
378.80 1.163
378.90 1.145
379.00 1.127
379.10 1.113
379.20 1.098
379.30 1.083
379.40 1.068
379.50 1.053
379.60 1.038
379.70 1.023
379.80 1.008
379.90 0.9934
380.00 0.9785
380.10 1.002
380.20 1.025
380.30 1.049
380.40 1.072
380.50 1.096
380.60 1.119
380.70 1.142
380.80 1.166
380.90 1.189
381.00 1.212
381.10 1.221
381.20 1.231
381.30 1.24
381.40 1.249
381.50 1.258
381.60 1.259
381.70 1.256
381.80 1.251
381.90 1.244
382.00 1.233
382.10 1.219
382.20 1.202
382.30 1.171
382.40 1.14
382.50 1.109
382.60 1.078
382.70 1.047
382.80 1.016
382.90 0.9852
383.00 0.9545
383.10 0.9237
383.20 0.893
383.30 0.8606
383.40 0.825
383.50 0.7867
383.60 0.795
383.70 0.8325
383.80 0.8675
383.90 0.8994
384.00 0.9322
384.10 0.9676
384.20 1.004
384.30 1.041
384.40 1.077
384.50 1.113
384.60 1.146
384.70 1.177
384.80 1.205
384.90 1.23
385.00 1.252
385.10 1.271
385.20 1.289
385.30 1.304
385.40 1.316
385.50 1.327
385.60 1.336
385.70 1.343
385.80 1.348
385.90 1.352
386.00 1.354
386.10 1.354
386.20 1.354
386.30 1.35
386.40 1.346
386.50 1.34
386.60 1.332
386.70 1.323
386.80 1.313
386.90 1.3
387.00 1.285
387.10 1.27
387.20 1.252
387.30 1.232
387.40 1.211
387.50 1.186
387.60 1.159
387.70 1.131
387.80 1.098
387.90 1.063
388.00 1.027
388.10 0.9869
388.20 0.9466
388.30 0.9058
388.40 0.8655
388.50 0.8266
388.60 0.7891
388.70 0.7497
388.80 0.7081
388.90 0.6642
389.00 0.7049
389.10 0.7448
389.20 0.784
389.30 0.8209
389.40 0.8592
389.50 0.8988
389.60 0.9394
389.70 0.9795
389.80 1.019
389.90 1.057
390.00 1.092
390.10 1.126
390.20 1.157
390.30 1.185
390.40 1.212
390.50 1.237
390.60 1.26
390.70 1.282
390.80 1.302
390.90 1.321
391.00 1.34
391.10 1.357
391.20 1.373
391.30 1.388
391.40 1.402
391.50 1.416
391.60 1.429
391.70 1.44
391.80 1.451
391.90 1.46
392.00 1.469
392.10 1.477
392.20 1.484
392.30 1.49
392.40 1.494
392.50 1.499
392.60 1.501
392.70 1.503
392.80 1.504
392.90 1.504
393.00 1.502
393.10 1.5
393.20 1.497
393.30 1.492
393.40 1.487
393.50 1.48
393.60 1.473
393.70 1.464
393.80 1.454
393.90 1.444
394.00 1.432
394.10 1.419
394.20 1.406
394.30 1.391
394.40 1.375
394.50 1.359
394.60 1.342
394.70 1.323
394.80 1.304
394.90 1.284
395.00 1.263
395.10 1.241
395.20 1.219
395.30 1.195
395.40 1.17
395.50 1.145
395.60 1.117
395.70 1.089
395.80 1.059
395.90 1.027
396.00 0.9935
396.10 0.959
396.20 0.9221
396.30 0.8841
396.40 0.8451
396.50 0.8057
396.60 0.7671
396.70 0.7293
396.80 0.6884
396.90 0.6368
397.00 0.5745
397.10 0.6321
397.20 0.6815
397.30 0.7227
397.40 0.7598
397.50 0.7977
397.60 0.8362
397.70 0.8745
397.80 0.9119
397.90 0.9481
398.00 0.982
398.10 1.015
398.20 1.046
398.30 1.075
398.40 1.103
398.50 1.13
398.60 1.155
398.70 1.18
398.80 1.204
398.90 1.226
399.00 1.248
399.10 1.269
399.20 1.289
399.30 1.309
399.40 1.329
399.50 1.347
399.60 1.365
399.70 1.383
399.80 1.4
399.90 1.416
400.00 1.432
400.10 1.447
400.20 1.462
400.30 1.476
400.40 1.489
400.50 1.502
400.60 1.514
400.70 1.526
400.80 1.537
400.90 1.547
401.00 1.557
401.10 1.567
401.20 1.576
401.30 1.584
401.40 1.592
401.50 1.599
401.60 1.606
401.70 1.612
401.80 1.618
401.90 1.624
402.00 1.629
402.10 1.634
402.20 1.638
402.30 1.641
402.40 1.645
402.50 1.648
402.60 1.65
402.70 1.653
402.80 1.654
402.90 1.656
403.00 1.657
403.10 1.658
403.20 1.658
403.30 1.658
403.40 1.658
403.50 1.657
403.60 1.656
403.70 1.655
403.80 1.653
403.90 1.651
404.00 1.649
404.10 1.646
404.20 1.643
404.30 1.639
404.40 1.635
404.50 1.631
404.60 1.627
404.70 1.622
404.80 1.616
404.90 1.611
405.00 1.604
405.10 1.598
405.20 1.591
405.30 1.583
405.40 1.576
405.50 1.567
405.60 1.558
405.70 1.549
405.80 1.54
405.90 1.529
406.00 1.519
406.10 1.508
406.20 1.496
406.30 1.484
406.40 1.471
406.50 1.458
406.60 1.445
406.70 1.431
406.80 1.416
406.90 1.401
407.00 1.385
407.10 1.368
407.20 1.351
407.30 1.333
407.40 1.315
407.50 1.296
407.60 1.277
407.70 1.257
407.80 1.236
407.90 1.215
408.00 1.194
408.10 1.172
408.20 1.15
408.30 1.127
408.40 1.104
408.50 1.08
408.60 1.056
408.70 1.032
408.80 1.007
408.90 0.9806
409.00 0.9541
409.10 0.9262
409.20 0.8976
409.30 0.8681
409.40 0.8366
409.50 0.804
409.60 0.7703
409.70 0.7359
409.80 0.7014
409.90 0.6668
410.00 0.6237
410.10 0.5745
410.20 0.5191
410.30 0.5917
410.40 0.6468
410.50 0.6843
410.60 0.718
410.70 0.7517
410.80 0.7853
410.90 0.8174
411.00 0.8484
411.10 0.8782
411.20 0.906
411.30 0.933
411.40 0.9593
411.50 0.9842
411.60 1.008
411.70 1.032
411.80 1.055
411.90 1.078
412.00 1.1
412.10 1.121
412.20 1.142
412.30 1.163
412.40 1.183
412.50 1.202
412.60 1.222
412.70 1.24
412.80 1.258
412.90 1.276
413.00 1.293
413.10 1.31
413.20 1.326
413.30 1.341
413.40 1.356
413.50 1.37
413.60 1.384
413.70 1.397
413.80 1.41
413.90 1.422
414.00 1.434
414.10 1.445
414.20 1.456
414.30 1.466
414.40 1.476
414.50 1.486
414.60 1.495
414.70 1.504
414.80 1.512
414.90 1.52
415.00 1.528
415.10 1.535
415.20 1.542
415.30 1.549
415.40 1.556
415.50 1.562
415.60 1.568
415.70 1.573
415.80 1.578
415.90 1.583
416.00 1.588
416.10 1.593
416.20 1.597
416.30 1.601
416.40 1.605
416.50 1.608
416.60 1.612
416.70 1.615
416.80 1.618
416.90 1.621
417.00 1.624
417.10 1.627
417.20 1.629
417.30 1.632
417.40 1.634
417.50 1.636
417.60 1.638
417.70 1.64
417.80 1.641
417.90 1.643
418.00 1.644
418.10 1.646
418.20 1.647
418.30 1.648
418.40 1.649
418.50 1.65
418.60 1.651
418.70 1.652
418.80 1.653
418.90 1.653
419.00 1.654
419.10 1.654
419.20 1.655
419.30 1.655
419.40 1.655
419.50 1.655
419.60 1.655
419.70 1.656
419.80 1.656
419.90 1.655
420.00 1.655
420.10 1.655
420.20 1.655
420.30 1.655
420.40 1.654
420.50 1.654
420.60 1.654
420.70 1.653
420.80 1.653
420.90 1.652
421.00 1.651
421.10 1.651
421.20 1.65
421.30 1.649
421.40 1.649
421.50 1.648
421.60 1.647
421.70 1.646
421.80 1.645
421.90 1.644
422.00 1.643
422.10 1.642
422.20 1.641
422.30 1.639
422.40 1.638
422.50 1.637
422.60 1.636
422.70 1.634
422.80 1.633
422.90 1.631
423.00 1.63
423.10 1.628
423.20 1.627
423.30 1.625
423.40 1.623
423.50 1.622
423.60 1.62
423.70 1.618
423.80 1.616
423.90 1.614
424.00 1.612
424.10 1.61
424.20 1.608
424.30 1.606
424.40 1.604
424.50 1.601
424.60 1.599
424.70 1.597
424.80 1.594
424.90 1.592
425.00 1.589
425.10 1.586
425.20 1.584
425.30 1.581
425.40 1.578
425.50 1.575
425.60 1.572
425.70 1.569
425.80 1.565
425.90 1.562
426.00 1.559
426.10 1.555
426.20 1.551
426.30 1.547
426.40 1.543
426.50 1.539
426.60 1.535
426.70 1.531
426.80 1.527
426.90 1.522
427.00 1.518
427.10 1.513
427.20 1.508
427.30 1.503
427.40 1.498
427.50 1.493
427.60 1.488
427.70 1.482
427.80 1.477
427.90 1.471
428.00 1.465
428.10 1.459
428.20 1.452
428.30 1.446
428.40 1.439
428.50 1.432
428.60 1.425
428.70 1.418
428.80 1.41
428.90 1.402
429.00 1.394
429.10 1.386
429.20 1.377
429.30 1.369
429.40 1.36
429.50 1.35
429.60 1.341
429.70 1.331
429.80 1.321
429.90 1.31
430.00 1.299
430.10 1.288
430.20 1.277
430.30 1.265
430.40 1.253
430.50 1.241
430.60 1.229
430.70 1.216
430.80 1.203
430.90 1.189
431.00 1.176
431.10 1.162
431.20 1.148
431.30 1.133
431.40 1.119
431.50 1.104
431.60 1.088
431.70 1.072
431.80 1.056
431.90 1.039
432.00 1.021
432.10 1.003
432.20 0.9833
432.30 0.9633
432.40 0.9426
432.50 0.9203
432.60 0.8972
432.70 0.8735
432.80 0.8494
432.90 0.8256
433.00 0.8021
433.10 0.7798
433.20 0.7571
433.30 0.7341
433.40 0.709
433.50 0.6827
433.60 0.6554
433.70 0.6264
433.80 0.5941
433.90 0.5585
434.00 0.4689
434.10 0.4699
434.20 0.5615
434.30 0.5959
434.40 0.6272
434.50 0.6556
434.60 0.6822
434.70 0.7076
434.80 0.7319
434.90 0.7539
435.00 0.7757
435.10 0.7973
435.20 0.8198
435.30 0.8426
435.40 0.8656
435.50 0.8881
435.60 0.9098
435.70 0.9307
435.80 0.9501
435.90 0.9687
436.00 0.9866
436.10 1.003
436.20 1.019
436.30 1.035
436.40 1.05
436.50 1.064
436.60 1.078
436.70 1.091
436.80 1.104
436.90 1.117
437.00 1.129
437.10 1.141
437.20 1.153
437.30 1.165
437.40 1.176
437.50 1.187
437.60 1.197
437.70 1.207
437.80 1.217
437.90 1.227
438.00 1.236
438.10 1.245
438.20 1.254
438.30 1.262
438.40 1.27
438.50 1.278
438.60 1.285
438.70 1.292
438.80 1.299
438.90 1.305
439.00 1.312
439.10 1.318
439.20 1.324
439.30 1.329
439.40 1.334
439.50 1.34
439.60 1.344
439.70 1.349
439.80 1.354
439.90 1.358
440.00 1.362
440.10 1.366
440.20 1.37
440.30 1.373
440.40 1.377
440.50 1.38
440.60 1.383
440.70 1.386
440.80 1.389
440.90 1.391
441.00 1.394
441.10 1.396
441.20 1.399
441.30 1.401
441.40 1.403
441.50 1.405
441.60 1.407
441.70 1.408
441.80 1.41
441.90 1.412
442.00 1.413
442.10 1.414
442.20 1.416
442.30 1.417
442.40 1.418
442.50 1.419
442.60 1.42
442.70 1.421
442.80 1.422
442.90 1.423
443.00 1.423
443.10 1.424
443.20 1.425
443.30 1.425
443.40 1.426
443.50 1.426
443.60 1.427
443.70 1.427
443.80 1.427
443.90 1.428
444.00 1.428
444.10 1.428
444.20 1.428
444.30 1.428
444.40 1.428
444.50 1.428
444.60 1.428
444.70 1.428
444.80 1.428
444.90 1.428
445.00 1.428
445.10 1.428
445.20 1.428
445.30 1.427
445.40 1.427
445.50 1.427
445.60 1.427
445.70 1.426
445.80 1.426
445.90 1.425
446.00 1.425
446.10 1.425
446.20 1.424
446.30 1.424
446.40 1.423
446.50 1.423
446.60 1.423
446.70 1.422
446.80 1.422
446.90 1.421
447.00 1.421
447.10 1.42
447.20 1.42
447.30 1.419
447.40 1.418
447.50 1.418
447.60 1.417
447.70 1.417
447.80 1.416
447.90 1.415
448.00 1.415
448.10 1.414
448.20 1.414
448.30 1.413
448.40 1.412
448.50 1.411
448.60 1.411
448.70 1.41
448.80 1.409
448.90 1.409
449.00 1.408
449.10 1.408
449.20 1.407
449.30 1.406
449.40 1.405
449.50 1.405
449.60 1.404
449.70 1.403
449.80 1.403
449.90 1.402
450.00 1.401
450.10 1.4
450.20 1.399
450.30 1.399
450.40 1.398
450.50 1.397
450.60 1.396
450.70 1.396
450.80 1.395
450.90 1.394
451.00 1.393
451.10 1.392
451.20 1.392
451.30 1.391
451.40 1.39
451.50 1.389
451.60 1.388
451.70 1.388
451.80 1.387
451.90 1.386
452.00 1.385
452.10 1.384
452.20 1.383
452.30 1.383
452.40 1.382
452.50 1.381
452.60 1.38
452.70 1.379
452.80 1.378
452.90 1.378
453.00 1.377
453.10 1.376
453.20 1.375
453.30 1.374
453.40 1.373
453.50 1.372
453.60 1.372
453.70 1.371
453.80 1.37
453.90 1.369
454.00 1.368
454.10 1.367
454.20 1.366
454.30 1.366
454.40 1.365
454.50 1.364
454.60 1.363
454.70 1.362
454.80 1.361
454.90 1.36
455.00 1.359
455.10 1.359
455.20 1.358
455.30 1.357
455.40 1.356
455.50 1.355
455.60 1.354
455.70 1.353
455.80 1.352
455.90 1.352
456.00 1.351
456.10 1.35
456.20 1.349
456.30 1.348
456.40 1.347
456.50 1.346
456.60 1.345
456.70 1.345
456.80 1.344
456.90 1.343
457.00 1.342
457.10 1.341
457.20 1.34
457.30 1.339
457.40 1.338
457.50 1.338
457.60 1.337
457.70 1.336
457.80 1.335
457.90 1.334
458.00 1.333
458.10 1.332
458.20 1.331
458.30 1.33
458.40 1.329
458.50 1.329
458.60 1.328
458.70 1.327
458.80 1.326
458.90 1.325
459.00 1.324
459.10 1.323
459.20 1.322
459.30 1.321
459.40 1.32
459.50 1.319
459.60 1.319
459.70 1.318
459.80 1.317
459.90 1.316
460.00 1.315
460.10 1.314
460.20 1.313
460.30 1.312
460.40 1.311
460.50 1.31
460.60 1.309
460.70 1.308
460.80 1.308
460.90 1.307
461.00 1.306
461.10 1.305
461.20 1.304
461.30 1.303
461.40 1.302
461.50 1.301
461.60 1.3
461.70 1.299
461.80 1.298
461.90 1.297
462.00 1.296
462.10 1.296
462.20 1.295
462.30 1.294
462.40 1.293
462.50 1.292
462.60 1.291
462.70 1.29
462.80 1.289
462.90 1.288
463.00 1.287
463.10 1.286
463.20 1.285
463.30 1.284
463.40 1.283
463.50 1.282
463.60 1.282
463.70 1.281
463.80 1.28
463.90 1.279
464.00 1.278
464.10 1.277
464.20 1.276
464.30 1.275
464.40 1.274
464.50 1.273
464.60 1.272
464.70 1.271
464.80 1.27
464.90 1.269
465.00 1.268
465.10 1.267
465.20 1.266
465.30 1.265
465.40 1.264
465.50 1.263
465.60 1.262
465.70 1.262
465.80 1.261
465.90 1.26
466.00 1.259
466.10 1.258
466.20 1.257
466.30 1.256
466.40 1.255
466.50 1.254
466.60 1.253
466.70 1.252
466.80 1.251
466.90 1.25
467.00 1.249
467.10 1.248
467.20 1.247
467.30 1.246
467.40 1.245
467.50 1.244
467.60 1.243
467.70 1.242
467.80 1.241
467.90 1.24
468.00 1.239
468.10 1.238
468.20 1.237
468.30 1.236
468.40 1.235
468.50 1.234
468.60 1.233
468.70 1.232
468.80 1.231
468.90 1.23
469.00 1.228
469.10 1.227
469.20 1.226
469.30 1.225
469.40 1.224
469.50 1.223
469.60 1.222
469.70 1.221
469.80 1.22
469.90 1.219
470.00 1.218
470.10 1.217
470.20 1.216
470.30 1.215
470.40 1.213
470.50 1.212
470.60 1.211
470.70 1.21
470.80 1.209
470.90 1.208
471.00 1.207
471.10 1.206
471.20 1.205
471.30 1.203
471.40 1.202
471.50 1.201
471.60 1.2
471.70 1.199
471.80 1.198
471.90 1.196
472.00 1.195
472.10 1.194
472.20 1.193
472.30 1.191
472.40 1.19
472.50 1.189
472.60 1.188
472.70 1.186
472.80 1.185
472.90 1.184
473.00 1.183
473.10 1.181
473.20 1.18
473.30 1.179
473.40 1.177
473.50 1.176
473.60 1.174
473.70 1.173
473.80 1.172
473.90 1.17
474.00 1.169
474.10 1.167
474.20 1.166
474.30 1.164
474.40 1.163
474.50 1.161
474.60 1.16
474.70 1.158
474.80 1.157
474.90 1.155
475.00 1.154
475.10 1.152
475.20 1.15
475.30 1.149
475.40 1.147
475.50 1.145
475.60 1.143
475.70 1.142
475.80 1.14
475.90 1.138
476.00 1.136
476.10 1.135
476.20 1.133
476.30 1.131
476.40 1.129
476.50 1.127
476.60 1.125
476.70 1.122
476.80 1.12
476.90 1.118
477.00 1.116
477.10 1.114
477.20 1.112
477.30 1.11
477.40 1.107
477.50 1.105
477.60 1.102
477.70 1.1
477.80 1.097
477.90 1.095
478.00 1.092
478.10 1.09
478.20 1.087
478.30 1.084
478.40 1.081
478.50 1.078
478.60 1.075
478.70 1.072
478.80 1.069
478.90 1.066
479.00 1.063
479.10 1.06
479.20 1.056
479.30 1.053
479.40 1.049
479.50 1.045
479.60 1.041
479.70 1.037
479.80 1.034
479.90 1.03
480.00 1.026
480.10 1.022
480.20 1.018
480.30 1.013
480.40 1.008
480.50 1.003
480.60 0.9981
480.70 0.9933
480.80 0.9884
480.90 0.9836
481.00 0.9787
481.10 0.9739
481.20 0.968
481.30 0.9617
481.40 0.9554
481.50 0.949
481.60 0.9427
481.70 0.9364
481.80 0.9301
481.90 0.9238
482.00 0.9175
482.10 0.9113
482.20 0.9038
482.30 0.8957
482.40 0.8876
482.50 0.8795
482.60 0.8715
482.70 0.8634
482.80 0.8553
482.90 0.8473
483.00 0.8393
483.10 0.8312
483.20 0.8217
483.30 0.8115
483.40 0.8013
483.50 0.7911
483.60 0.7809
483.70 0.7707
483.80 0.7606
483.90 0.7504
484.00 0.7403
484.10 0.7301
484.20 0.7189
484.30 0.7071
484.40 0.6953
484.50 0.6835
484.60 0.6718
484.70 0.6592
484.80 0.6464
484.90 0.6335
485.00 0.6206
485.10 0.6078
485.20 0.5944
485.30 0.5809
485.40 0.5666
485.50 0.5519
485.60 0.536
485.70 0.5196
485.80 0.5003
485.90 0.4796
486.00 0.4513
486.10 0.358
486.20 0.4073
486.30 0.4626
486.40 0.4855
486.50 0.5059
486.60 0.5233
486.70 0.5393
486.80 0.554
486.90 0.5682
487.00 0.5815
487.10 0.5944
487.20 0.6069
487.30 0.619
487.40 0.6312
487.50 0.6433
487.60 0.6555
487.70 0.6668
487.80 0.6777
487.90 0.6886
488.00 0.6995
488.10 0.7104
488.20 0.7201
488.30 0.7293
488.40 0.7384
488.50 0.7475
488.60 0.7566
488.70 0.7657
488.80 0.7748
488.90 0.7839
489.00 0.793
489.10 0.8021
489.20 0.8096
489.30 0.8164
489.40 0.8232
489.50 0.8299
489.60 0.8367
489.70 0.8435
489.80 0.8502
489.90 0.857
490.00 0.8637
490.10 0.8704
490.20 0.8759
490.30 0.8808
490.40 0.8856
490.50 0.8905
490.60 0.8953
490.70 0.9002
490.80 0.905
490.90 0.9098
491.00 0.9147
491.10 0.9195
491.20 0.9233
491.30 0.9266
491.40 0.9299
491.50 0.9332
491.60 0.9366
491.70 0.9399
491.80 0.9432
491.90 0.9465
492.00 0.9498
492.10 0.9531
492.20 0.9556
492.30 0.9578
492.40 0.96
492.50 0.9622
492.60 0.9644
492.70 0.9666
492.80 0.9688
492.90 0.971
493.00 0.9732
493.10 0.9754
493.20 0.977
493.30 0.9785
493.40 0.9799
493.50 0.9813
493.60 0.9827
493.70 0.9841
493.80 0.9856
493.90 0.987
494.00 0.9884
494.10 0.9898
494.20 0.9908
494.30 0.9917
494.40 0.9925
494.50 0.9933
494.60 0.9941
494.70 0.995
494.80 0.9958
494.90 0.9966
495.00 0.9975
495.10 0.9983
495.20 0.9989
495.30 0.9993
495.40 0.9997
495.50 1
495.60 1.001
495.70 1.001
495.80 1.001
495.90 1.002
496.00 1.002
496.10 1.003
496.20 1.003
496.30 1.003
496.40 1.003
496.50 1.004
496.60 1.004
496.70 1.004
496.80 1.004
496.90 1.004
497.00 1.004
497.10 1.004
497.20 1.005
497.30 1.004
497.40 1.004
497.50 1.004
497.60 1.004
497.70 1.004
497.80 1.004
497.90 1.004
498.00 1.004
498.10 1.004
498.20 1.004
498.30 1.004
498.40 1.004
498.50 1.004
498.60 1.003
498.70 1.003
498.80 1.003
498.90 1.003
499.00 1.003
499.10 1.002
499.20 1.002
499.30 1.002
499.40 1.002
499.50 1.001
499.60 1.001
499.70 1.001
499.80 1.001
499.90 1
500.00 1
500.10 0.9997
500.20 0.9994
500.30 0.999
500.40 0.9987
500.50 0.9983
500.60 0.998
500.70 0.9976
500.80 0.9973
500.90 0.9969
501.00 0.9966
501.10 0.9962
501.20 0.9958
501.30 0.9954
501.40 0.995
501.50 0.9946
501.60 0.9942
501.70 0.9938
501.80 0.9934
501.90 0.993
502.00 0.9926
502.10 0.9921
502.20 0.9917
502.30 0.9913
502.40 0.9908
502.50 0.9904
502.60 0.9899
502.70 0.9895
502.80 0.989
502.90 0.9886
503.00 0.9881
503.10 0.9877
503.20 0.9872
503.30 0.9867
503.40 0.9862
503.50 0.9858
503.60 0.9853
503.70 0.9848
503.80 0.9843
503.90 0.9839
504.00 0.9834
504.10 0.9829
504.20 0.9824
504.30 0.9819
504.40 0.9814
504.50 0.9809
504.60 0.9804
504.70 0.9799
504.80 0.9794
504.90 0.9789
505.00 0.9784
505.10 0.9779
505.20 0.9774
505.30 0.9769
505.40 0.9764
505.50 0.9758
505.60 0.9753
505.70 0.9748
505.80 0.9743
505.90 0.9738
506.00 0.9732
506.10 0.9727
506.20 0.9722
506.30 0.9717
506.40 0.9711
506.50 0.9706
506.60 0.9701
506.70 0.9695
506.80 0.969
506.90 0.9685
507.00 0.968
507.10 0.9674
507.20 0.9669
507.30 0.9664
507.40 0.9658
507.50 0.9653
507.60 0.9647
507.70 0.9642
507.80 0.9637
507.90 0.9631
508.00 0.9626
508.10 0.962
508.20 0.9615
508.30 0.961
508.40 0.9604
508.50 0.9599
508.60 0.9593
508.70 0.9588
508.80 0.9582
508.90 0.9577
509.00 0.9571
509.10 0.9566
509.20 0.956
509.30 0.9555
509.40 0.9549
509.50 0.9544
509.60 0.9538
509.70 0.9533
509.80 0.9527
509.90 0.9522
510.00 0.9516
510.10 0.9511
510.20 0.9505
510.30 0.95
510.40 0.9494
510.50 0.9489
510.60 0.9483
510.70 0.9478
510.80 0.9472
510.90 0.9466
511.00 0.9461
511.10 0.9455
511.20 0.945
511.30 0.9444
511.40 0.9439
511.50 0.9433
511.60 0.9428
511.70 0.9422
511.80 0.9417
511.90 0.9411
512.00 0.9406
512.10 0.94
512.20 0.9394
512.30 0.9389
512.40 0.9383
512.50 0.9378
512.60 0.9372
512.70 0.9367
512.80 0.9361
512.90 0.9356
513.00 0.935
513.10 0.9344
513.20 0.9339
513.30 0.9333
513.40 0.9328
513.50 0.9322
513.60 0.9317
513.70 0.9311
513.80 0.9306
513.90 0.93
514.00 0.9294
514.10 0.9289
514.20 0.9283
514.30 0.9278
514.40 0.9272
514.50 0.9267
514.60 0.9261
514.70 0.9256
514.80 0.925
514.90 0.9245
515.00 0.9239
515.10 0.9233
515.20 0.9228
515.30 0.9222
515.40 0.9217
515.50 0.9211
515.60 0.9206
515.70 0.92
515.80 0.9195
515.90 0.9189
516.00 0.9184
516.10 0.9178
516.20 0.9173
516.30 0.9167
516.40 0.9162
516.50 0.9156
516.60 0.9151
516.70 0.9145
516.80 0.914
516.90 0.9134
517.00 0.9129
517.10 0.9123
517.20 0.9118
517.30 0.9112
517.40 0.9107
517.50 0.9101
517.60 0.9096
517.70 0.909
517.80 0.9085
517.90 0.9079
518.00 0.9074
518.10 0.9068
518.20 0.9063
518.30 0.9057
518.40 0.9052
518.50 0.9046
518.60 0.9041
518.70 0.9035
518.80 0.903
518.90 0.9025
519.00 0.9019
519.10 0.9014
519.20 0.9008
519.30 0.9003
519.40 0.8997
519.50 0.8992
519.60 0.8986
519.70 0.8981
519.80 0.8976
519.90 0.897
520.00 0.8965
520.10 0.8959
520.20 0.8954
520.30 0.8948
520.40 0.8943
520.50 0.8938
520.60 0.8932
520.70 0.8927
520.80 0.8921
520.90 0.8916
521.00 0.8911
521.10 0.8905
521.20 0.89
521.30 0.8894
521.40 0.8889
521.50 0.8884
521.60 0.8878
521.70 0.8873
521.80 0.8868
521.90 0.8862
522.00 0.8857
522.10 0.8852
522.20 0.8846
522.30 0.8841
522.40 0.8835
522.50 0.883
522.60 0.8825
522.70 0.8819
522.80 0.8814
522.90 0.8809
523.00 0.8803
523.10 0.8798
523.20 0.8793
523.30 0.8787
523.40 0.8782
523.50 0.8777
523.60 0.8771
523.70 0.8766
523.80 0.8761
523.90 0.8756
524.00 0.875
524.10 0.8745
524.20 0.874
524.30 0.8734
524.40 0.8729
524.50 0.8724
524.60 0.8718
524.70 0.8713
524.80 0.8708
524.90 0.8703
525.00 0.8697
525.10 0.8692
525.20 0.8687
525.30 0.8682
525.40 0.8676
525.50 0.8671
525.60 0.8666
525.70 0.8661
525.80 0.8655
525.90 0.865
526.00 0.8645
526.10 0.864
526.20 0.8634
526.30 0.8629
526.40 0.8624
526.50 0.8619
526.60 0.8614
526.70 0.8608
526.80 0.8603
526.90 0.8598
527.00 0.8593
527.10 0.8587
527.20 0.8582
527.30 0.8577
527.40 0.8572
527.50 0.8567
527.60 0.8562
527.70 0.8556
527.80 0.8551
527.90 0.8546
528.00 0.8541
528.10 0.8536
528.20 0.853
528.30 0.8525
528.40 0.852
528.50 0.8515
528.60 0.851
528.70 0.8505
528.80 0.85
528.90 0.8494
529.00 0.8489
529.10 0.8484
529.20 0.8479
529.30 0.8474
529.40 0.8469
529.50 0.8464
529.60 0.8459
529.70 0.8453
529.80 0.8448
529.90 0.8443
530.00 0.8438
530.10 0.8433
530.20 0.8428
530.30 0.8423
530.40 0.8418
530.50 0.8413
530.60 0.8408
530.70 0.8403
530.80 0.8397
530.90 0.8392
531.00 0.8387
531.10 0.8382
531.20 0.8377
531.30 0.8372
531.40 0.8367
531.50 0.8362
531.60 0.8357
531.70 0.8352
531.80 0.8347
531.90 0.8342
532.00 0.8337
532.10 0.8332
532.20 0.8327
532.30 0.8322
532.40 0.8317
532.50 0.8312
532.60 0.8307
532.70 0.8302
532.80 0.8297
532.90 0.8292
533.00 0.8287
533.10 0.8282
533.20 0.8277
533.30 0.8272
533.40 0.8267
533.50 0.8262
533.60 0.8257
533.70 0.8252
533.80 0.8247
533.90 0.8242
534.00 0.8237
534.10 0.8232
534.20 0.8227
534.30 0.8222
534.40 0.8217
534.50 0.8212
534.60 0.8207
534.70 0.8202
534.80 0.8197
534.90 0.8193
535.00 0.8188
535.10 0.8183
535.20 0.8178
535.30 0.8173
535.40 0.8168
535.50 0.8163
535.60 0.8158
535.70 0.8153
535.80 0.8148
535.90 0.8143
536.00 0.8139
536.10 0.8134
536.20 0.8129
536.30 0.8124
536.40 0.8119
536.50 0.8114
536.60 0.8109
536.70 0.8104
536.80 0.81
536.90 0.8095
537.00 0.809
537.10 0.8085
537.20 0.808
537.30 0.8075
537.40 0.8071
537.50 0.8066
537.60 0.8061
537.70 0.8056
537.80 0.8051
537.90 0.8046
538.00 0.8042
538.10 0.8037
538.20 0.8032
538.30 0.8027
538.40 0.8022
538.50 0.8017
538.60 0.8013
538.70 0.8008
538.80 0.8003
538.90 0.7998
539.00 0.7994
539.10 0.7989
539.20 0.7984
539.30 0.7979
539.40 0.7974
539.50 0.797
539.60 0.7965
539.70 0.796
539.80 0.7955
539.90 0.7951
540.00 0.7946
540.10 0.7941
540.20 0.7936
540.30 0.7932
540.40 0.7927
540.50 0.7922
540.60 0.7917
540.70 0.7913
540.80 0.7908
540.90 0.7903
541.00 0.7899
541.10 0.7894
541.20 0.7889
541.30 0.7884
541.40 0.788
541.50 0.7875
541.60 0.787
541.70 0.7866
541.80 0.7861
541.90 0.7856
542.00 0.7852
542.10 0.7847
542.20 0.7842
542.30 0.7838
542.40 0.7833
542.50 0.7828
542.60 0.7824
542.70 0.7819
542.80 0.7814
542.90 0.781
543.00 0.7805
543.10 0.78
543.20 0.7796
543.30 0.7791
543.40 0.7786
543.50 0.7782
543.60 0.7777
543.70 0.7773
543.80 0.7768
543.90 0.7763
544.00 0.7759
544.10 0.7754
544.20 0.775
544.30 0.7745
544.40 0.774
544.50 0.7736
544.60 0.7731
544.70 0.7727
544.80 0.7722
544.90 0.7717
545.00 0.7713
545.10 0.7708
545.20 0.7704
545.30 0.7699
545.40 0.7695
545.50 0.769
545.60 0.7685
545.70 0.7681
545.80 0.7676
545.90 0.7672
546.00 0.7667
546.10 0.7663
546.20 0.7658
546.30 0.7654
546.40 0.765
546.50 0.7645
546.60 0.7641
546.70 0.7637
546.80 0.7633
546.90 0.7628
547.00 0.7624
547.10 0.762
547.20 0.7615
547.30 0.7611
547.40 0.7606
547.50 0.7602
547.60 0.7597
547.70 0.7593
547.80 0.7588
547.90 0.7584
548.00 0.7579
548.10 0.7575
548.20 0.757
548.30 0.7566
548.40 0.7561
548.50 0.7557
548.60 0.7552
548.70 0.7548
548.80 0.7543
548.90 0.7539
549.00 0.7535
549.10 0.753
549.20 0.7526
549.30 0.7521
549.40 0.7517
549.50 0.7512
549.60 0.7508
549.70 0.7503
549.80 0.7499
549.90 0.7495
550.00 0.749
550.10 0.7486
550.20 0.7481
550.30 0.7477
550.40 0.7472
550.50 0.7468
550.60 0.7464
550.70 0.7459
550.80 0.7455
550.90 0.745
551.00 0.7446
551.10 0.7442
551.20 0.7437
551.30 0.7433
551.40 0.7429
551.50 0.7424
551.60 0.742
551.70 0.7415
551.80 0.7411
551.90 0.7407
552.00 0.7402
552.10 0.7398
552.20 0.7394
552.30 0.7389
552.40 0.7385
552.50 0.7381
552.60 0.7376
552.70 0.7372
552.80 0.7368
552.90 0.7363
553.00 0.7359
553.10 0.7355
553.20 0.735
553.30 0.7346
553.40 0.7342
553.50 0.7337
553.60 0.7333
553.70 0.7329
553.80 0.7324
553.90 0.732
554.00 0.7316
554.10 0.7312
554.20 0.7307
554.30 0.7303
554.40 0.7299
554.50 0.7294
554.60 0.729
554.70 0.7286
554.80 0.7282
554.90 0.7277
555.00 0.7273
555.10 0.7269
555.20 0.7265
555.30 0.726
555.40 0.7256
555.50 0.7252
555.60 0.7248
555.70 0.7243
555.80 0.7239
555.90 0.7235
556.00 0.7231
556.10 0.7226
556.20 0.7222
556.30 0.7218
556.40 0.7214
556.50 0.7209
556.60 0.7205
556.70 0.7201
556.80 0.7197
556.90 0.7193
557.00 0.7188
557.10 0.7184
557.20 0.718
557.30 0.7176
557.40 0.7172
557.50 0.7167
557.60 0.7163
557.70 0.7159
557.80 0.7155
557.90 0.7151
558.00 0.7147
558.10 0.7142
558.20 0.7138
558.30 0.7134
558.40 0.713
558.50 0.7126
558.60 0.7122
558.70 0.7117
558.80 0.7113
558.90 0.7109
559.00 0.7105
559.10 0.7101
559.20 0.7097
559.30 0.7093
559.40 0.7088
559.50 0.7084
559.60 0.708
559.70 0.7076
559.80 0.7072
559.90 0.7068
560.00 0.7064
560.10 0.706
560.20 0.7056
560.30 0.7051
560.40 0.7047
560.50 0.7043
560.60 0.7039
560.70 0.7035
560.80 0.7031
560.90 0.7027
561.00 0.7023
561.10 0.7019
561.20 0.7015
561.30 0.7011
561.40 0.7007
561.50 0.7003
561.60 0.6998
561.70 0.6994
561.80 0.699
561.90 0.6986
562.00 0.6982
562.10 0.6978
562.20 0.6974
562.30 0.697
562.40 0.6966
562.50 0.6962
562.60 0.6958
562.70 0.6954
562.80 0.695
562.90 0.6946
563.00 0.6942
563.10 0.6938
563.20 0.6934
563.30 0.693
563.40 0.6926
563.50 0.6922
563.60 0.6918
563.70 0.6914
563.80 0.691
563.90 0.6906
564.00 0.6902
564.10 0.6898
564.20 0.6894
564.30 0.689
564.40 0.6886
564.50 0.6882
564.60 0.6878
564.70 0.6874
564.80 0.687
564.90 0.6866
565.00 0.6862
565.10 0.6858
565.20 0.6854
565.30 0.685
565.40 0.6846
565.50 0.6842
565.60 0.6838
565.70 0.6835
565.80 0.6831
565.90 0.6827
566.00 0.6823
566.10 0.6819
566.20 0.6815
566.30 0.6811
566.40 0.6807
566.50 0.6803
566.60 0.6799
566.70 0.6795
566.80 0.6791
566.90 0.6787
567.00 0.6784
567.10 0.678
567.20 0.6776
567.30 0.6772
567.40 0.6768
567.50 0.6764
567.60 0.676
567.70 0.6756
567.80 0.6752
567.90 0.6749
568.00 0.6745
568.10 0.6741
568.20 0.6737
568.30 0.6733
568.40 0.6729
568.50 0.6725
568.60 0.6721
568.70 0.6718
568.80 0.6714
568.90 0.671
569.00 0.6706
569.10 0.6702
569.20 0.6698
569.30 0.6695
569.40 0.6691
569.50 0.6687
569.60 0.6683
569.70 0.6679
569.80 0.6675
569.90 0.6672
570.00 0.6668
570.10 0.6664
570.20 0.666
570.30 0.6656
570.40 0.6652
570.50 0.6649
570.60 0.6645
570.70 0.6641
570.80 0.6637
570.90 0.6633
571.00 0.663
571.10 0.6626
571.20 0.6622
571.30 0.6618
571.40 0.6614
571.50 0.6611
571.60 0.6607
571.70 0.6603
571.80 0.6599
571.90 0.6596
572.00 0.6592
572.10 0.6588
572.20 0.6584
572.30 0.6581
572.40 0.6577
572.50 0.6573
572.60 0.6569
572.70 0.6566
572.80 0.6562
572.90 0.6558
573.00 0.6554
573.10 0.6551
573.20 0.6547
573.30 0.6543
573.40 0.6539
573.50 0.6536
573.60 0.6532
573.70 0.6528
573.80 0.6525
573.90 0.6521
574.00 0.6517
574.10 0.6513
574.20 0.651
574.30 0.6506
574.40 0.6502
574.50 0.6499
574.60 0.6495
574.70 0.6491
574.80 0.6488
574.90 0.6484
575.00 0.648
575.10 0.6476
575.20 0.6473
575.30 0.6469
575.40 0.6465
575.50 0.6462
575.60 0.6458
575.70 0.6454
575.80 0.6451
575.90 0.6447
576.00 0.6443
576.10 0.644
576.20 0.6436
576.30 0.6432
576.40 0.6429
576.50 0.6425
576.60 0.6422
576.70 0.6418
576.80 0.6414
576.90 0.6411
577.00 0.6407
577.10 0.6403
577.20 0.64
577.30 0.6396
577.40 0.6393
577.50 0.6389
577.60 0.6385
577.70 0.6382
577.80 0.6378
577.90 0.6374
578.00 0.6371
578.10 0.6367
578.20 0.6364
578.30 0.636
578.40 0.6356
578.50 0.6353
578.60 0.6349
578.70 0.6346
578.80 0.6342
578.90 0.6339
579.00 0.6335
579.10 0.6331
579.20 0.6328
579.30 0.6324
579.40 0.6321
579.50 0.6317
579.60 0.6313
579.70 0.631
579.80 0.6306
579.90 0.6303
580.00 0.6299
580.10 0.6296
580.20 0.6292
580.30 0.6289
580.40 0.6285
580.50 0.6281
580.60 0.6278
580.70 0.6274
580.80 0.6271
580.90 0.6267
581.00 0.6264
581.10 0.626
581.20 0.6257
581.30 0.6253
581.40 0.625
581.50 0.6246
581.60 0.6243
581.70 0.6239
581.80 0.6236
581.90 0.6232
582.00 0.6229
582.10 0.6225
582.20 0.6222
582.30 0.6218
582.40 0.6215
582.50 0.6211
582.60 0.6208
582.70 0.6204
582.80 0.6201
582.90 0.6197
583.00 0.6194
583.10 0.619
583.20 0.6187
583.30 0.6183
583.40 0.618
583.50 0.6176
583.60 0.6173
583.70 0.6169
583.80 0.6166
583.90 0.6163
584.00 0.6159
584.10 0.6156
584.20 0.6152
584.30 0.6149
584.40 0.6145
584.50 0.6142
584.60 0.6138
584.70 0.6135
584.80 0.6132
584.90 0.6128
585.00 0.6125
585.10 0.6121
585.20 0.6118
585.30 0.6114
585.40 0.6111
585.50 0.6108
585.60 0.6104
585.70 0.6101
585.80 0.6097
585.90 0.6094
586.00 0.6091
586.10 0.6087
586.20 0.6084
586.30 0.608
586.40 0.6077
586.50 0.6073
586.60 0.607
586.70 0.6067
586.80 0.6063
586.90 0.606
587.00 0.6057
587.10 0.6053
587.20 0.605
587.30 0.6046
587.40 0.6043
587.50 0.604
587.60 0.6036
587.70 0.6033
587.80 0.603
587.90 0.6026
588.00 0.6023
588.10 0.6019
588.20 0.6016
588.30 0.6013
588.40 0.6009
588.50 0.6006
588.60 0.6003
588.70 0.5999
588.80 0.5996
588.90 0.5993
589.00 0.5989
589.10 0.5986
589.20 0.5983
589.30 0.5979
589.40 0.5976
589.50 0.5973
589.60 0.5969
589.70 0.5966
589.80 0.5963
589.90 0.5959
590.00 0.5956
590.10 0.5953
590.20 0.595
590.30 0.5946
590.40 0.5943
590.50 0.594
590.60 0.5936
590.70 0.5933
590.80 0.593
590.90 0.5926
591.00 0.5923
591.10 0.592
591.20 0.5917
591.30 0.5913
591.40 0.591
591.50 0.5907
591.60 0.5903
591.70 0.59
591.80 0.5897
591.90 0.5894
592.00 0.589
592.10 0.5887
592.20 0.5884
592.30 0.5881
592.40 0.5877
592.50 0.5874
592.60 0.5871
592.70 0.5868
592.80 0.5864
592.90 0.5861
593.00 0.5858
593.10 0.5855
593.20 0.5851
593.30 0.5848
593.40 0.5845
593.50 0.5842
593.60 0.5838
593.70 0.5835
593.80 0.5832
593.90 0.5829
594.00 0.5826
594.10 0.5822
594.20 0.5819
594.30 0.5816
594.40 0.5813
594.50 0.5809
594.60 0.5806
594.70 0.5803
594.80 0.58
594.90 0.5797
595.00 0.5793
595.10 0.579
595.20 0.5787
595.30 0.5784
595.40 0.5781
595.50 0.5777
595.60 0.5774
595.70 0.5771
595.80 0.5768
595.90 0.5765
596.00 0.5762
596.10 0.5758
596.20 0.5755
596.30 0.5751
596.40 0.5748
596.50 0.5744
596.60 0.574
596.70 0.5737
596.80 0.5733
596.90 0.573
597.00 0.5726
597.10 0.5722
597.20 0.5719
597.30 0.5716
597.40 0.5713
597.50 0.571
597.60 0.5706
597.70 0.5703
597.80 0.57
597.90 0.5697
598.00 0.5694
598.10 0.5691
598.20 0.5688
598.30 0.5684
598.40 0.5681
598.50 0.5678
598.60 0.5675
598.70 0.5672
598.80 0.5669
598.90 0.5666
599.00 0.5663
599.10 0.5659
599.20 0.5656
599.30 0.5653
599.40 0.565
599.50 0.5647
599.60 0.5644
599.70 0.5641
599.80 0.5638
599.90 0.5635
600.00 0.5631
600.10 0.5628
600.20 0.5625
600.30 0.5622
600.40 0.5619
600.50 0.5616
600.60 0.5613
600.70 0.561
600.80 0.5607
600.90 0.5604
601.00 0.56
601.10 0.5597
601.20 0.5594
601.30 0.5591
601.40 0.5588
601.50 0.5585
601.60 0.5582
601.70 0.5579
601.80 0.5576
601.90 0.5573
602.00 0.557
602.10 0.5567
602.20 0.5564
602.30 0.5561
602.40 0.5558
602.50 0.5554
602.60 0.5551
602.70 0.5548
602.80 0.5545
602.90 0.5542
603.00 0.5539
603.10 0.5536
603.20 0.5533
603.30 0.553
603.40 0.5527
603.50 0.5524
603.60 0.5521
603.70 0.5518
603.80 0.5515
603.90 0.5512
604.00 0.5509
604.10 0.5506
604.20 0.5503
604.30 0.55
604.40 0.5497
604.50 0.5494
604.60 0.5491
604.70 0.5488
604.80 0.5485
604.90 0.5482
605.00 0.5479
605.10 0.5476
605.20 0.5473
605.30 0.547
605.40 0.5467
605.50 0.5464
605.60 0.5461
605.70 0.5458
605.80 0.5455
605.90 0.5452
606.00 0.5449
606.10 0.5446
606.20 0.5443
606.30 0.544
606.40 0.5437
606.50 0.5434
606.60 0.5431
606.70 0.5428
606.80 0.5425
606.90 0.5422
607.00 0.5419
607.10 0.5416
607.20 0.5413
607.30 0.541
607.40 0.5407
607.50 0.5404
607.60 0.5401
607.70 0.5398
607.80 0.5395
607.90 0.5392
608.00 0.539
608.10 0.5387
608.20 0.5384
608.30 0.5381
608.40 0.5378
608.50 0.5375
608.60 0.5372
608.70 0.5369
608.80 0.5366
608.90 0.5363
609.00 0.536
609.10 0.5357
609.20 0.5354
609.30 0.5351
609.40 0.5348
609.50 0.5346
609.60 0.5343
609.70 0.534
609.80 0.5337
609.90 0.5334
610.00 0.5331
610.10 0.5328
610.20 0.5325
610.30 0.5322
610.40 0.5319
610.50 0.5316
610.60 0.5314
610.70 0.5311
610.80 0.5308
610.90 0.5305
611.00 0.5302
611.10 0.5299
611.20 0.5296
611.30 0.5293
611.40 0.529
611.50 0.5287
611.60 0.5285
611.70 0.5282
611.80 0.5279
611.90 0.5276
612.00 0.5273
612.10 0.527
612.20 0.5267
612.30 0.5264
612.40 0.5262
612.50 0.5259
612.60 0.5256
612.70 0.5253
612.80 0.525
612.90 0.5247
613.00 0.5244
613.10 0.5242
613.20 0.5239
613.30 0.5236
613.40 0.5233
613.50 0.523
613.60 0.5227
613.70 0.5224
613.80 0.5222
613.90 0.5219
614.00 0.5216
614.10 0.5213
614.20 0.521
614.30 0.5207
614.40 0.5205
614.50 0.5202
614.60 0.5199
614.70 0.5196
614.80 0.5193
614.90 0.519
615.00 0.5188
615.10 0.5185
615.20 0.5182
615.30 0.5179
615.40 0.5176
615.50 0.5173
615.60 0.5171
615.70 0.5168
615.80 0.5165
615.90 0.5162
616.00 0.5159
616.10 0.5156
616.20 0.5154
616.30 0.5151
616.40 0.5148
616.50 0.5145
616.60 0.5142
616.70 0.514
616.80 0.5137
616.90 0.5134
617.00 0.5131
617.10 0.5128
617.20 0.5126
617.30 0.5123
617.40 0.512
617.50 0.5117
617.60 0.5115
617.70 0.5112
617.80 0.5109
617.90 0.5106
618.00 0.5103
618.10 0.5101
618.20 0.5098
618.30 0.5095
618.40 0.5092
618.50 0.5089
618.60 0.5087
618.70 0.5084
618.80 0.5081
618.90 0.5078
619.00 0.5076
619.10 0.5073
619.20 0.507
619.30 0.5067
619.40 0.5065
619.50 0.5062
619.60 0.5059
619.70 0.5056
619.80 0.5053
619.90 0.5051
620.00 0.5048
620.10 0.5045
620.20 0.5042
620.30 0.504
620.40 0.5037
620.50 0.5034
620.60 0.5031
620.70 0.5029
620.80 0.5026
620.90 0.5023
621.00 0.502
621.10 0.5018
621.20 0.5015
621.30 0.5012
621.40 0.5009
621.50 0.5007
621.60 0.5004
621.70 0.5001
621.80 0.4998
621.90 0.4996
622.00 0.4993
622.10 0.499
622.20 0.4988
622.30 0.4985
622.40 0.4982
622.50 0.4979
622.60 0.4977
622.70 0.4974
622.80 0.4971
622.90 0.4968
623.00 0.4966
623.10 0.4963
623.20 0.496
623.30 0.4958
623.40 0.4955
623.50 0.4952
623.60 0.4949
623.70 0.4947
623.80 0.4944
623.90 0.4941
624.00 0.4938
624.10 0.4936
624.20 0.4933
624.30 0.493
624.40 0.4928
624.50 0.4925
624.60 0.4922
624.70 0.4919
624.80 0.4917
624.90 0.4914
625.00 0.4911
625.10 0.4909
625.20 0.4906
625.30 0.4903
625.40 0.4901
625.50 0.4898
625.60 0.4895
625.70 0.4892
625.80 0.489
625.90 0.4887
626.00 0.4884
626.10 0.4882
626.20 0.4879
626.30 0.4876
626.40 0.4874
626.50 0.4871
626.60 0.4868
626.70 0.4865
626.80 0.4863
626.90 0.486
627.00 0.4857
627.10 0.4855
627.20 0.4852
627.30 0.4849
627.40 0.4847
627.50 0.4844
627.60 0.4841
627.70 0.4838
627.80 0.4836
627.90 0.4833
628.00 0.483
628.10 0.4828
628.20 0.4825
628.30 0.4822
628.40 0.482
628.50 0.4817
628.60 0.4814
628.70 0.4812
628.80 0.4809
628.90 0.4806
629.00 0.4803
629.10 0.4801
629.20 0.4798
629.30 0.4795
629.40 0.4793
629.50 0.479
629.60 0.4787
629.70 0.4785
629.80 0.4782
629.90 0.4779
630.00 0.4777
630.10 0.4774
630.20 0.4771
630.30 0.4768
630.40 0.4766
630.50 0.4763
630.60 0.476
630.70 0.4758
630.80 0.4755
630.90 0.4752
631.00 0.475
631.10 0.4747
631.20 0.4744
631.30 0.4741
631.40 0.4739
631.50 0.4736
631.60 0.4733
631.70 0.4731
631.80 0.4728
631.90 0.4725
632.00 0.4723
632.10 0.472
632.20 0.4717
632.30 0.4714
632.40 0.4712
632.50 0.4709
632.60 0.4706
632.70 0.4704
632.80 0.4701
632.90 0.4698
633.00 0.4695
633.10 0.4693
633.20 0.469
633.30 0.4687
633.40 0.4684
633.50 0.4682
633.60 0.4679
633.70 0.4676
633.80 0.4673
633.90 0.4671
634.00 0.4668
634.10 0.4665
634.20 0.4663
634.30 0.466
634.40 0.4657
634.50 0.4654
634.60 0.4651
634.70 0.4649
634.80 0.4646
634.90 0.4643
635.00 0.464
635.10 0.4638
635.20 0.4635
635.30 0.4632
635.40 0.4629
635.50 0.4626
635.60 0.4624
635.70 0.4621
635.80 0.4618
635.90 0.4615
636.00 0.4612
636.10 0.4609
636.20 0.4607
636.30 0.4604
636.40 0.4601
636.50 0.4598
636.60 0.4595
636.70 0.4592
636.80 0.459
636.90 0.4587
637.00 0.4584
637.10 0.4581
637.20 0.4578
637.30 0.4575
637.40 0.4572
637.50 0.4569
637.60 0.4566
637.70 0.4564
637.80 0.4561
637.90 0.4558
638.00 0.4555
638.10 0.4552
638.20 0.4549
638.30 0.4546
638.40 0.4543
638.50 0.454
638.60 0.4537
638.70 0.4534
638.80 0.4531
638.90 0.4528
639.00 0.4525
639.10 0.4522
639.20 0.4519
639.30 0.4516
639.40 0.4513
639.50 0.451
639.60 0.4506
639.70 0.4503
639.80 0.45
639.90 0.4497
640.00 0.4494
640.10 0.4491
640.20 0.4488
640.30 0.4485
640.40 0.4481
640.50 0.4478
640.60 0.4475
640.70 0.4472
640.80 0.4468
640.90 0.4465
641.00 0.4462
641.10 0.4459
641.20 0.4455
641.30 0.4452
641.40 0.4449
641.50 0.4445
641.60 0.4442
641.70 0.4438
641.80 0.4435
641.90 0.4431
642.00 0.4428
642.10 0.4424
642.20 0.4421
642.30 0.4418
642.40 0.4414
642.50 0.441
642.60 0.4407
642.70 0.4403
642.80 0.4399
642.90 0.4395
643.00 0.4392
643.10 0.4388
643.20 0.4384
643.30 0.4381
643.40 0.4377
643.50 0.4373
643.60 0.4369
643.70 0.4365
643.80 0.4361
643.90 0.4357
644.00 0.4353
644.10 0.4349
644.20 0.4345
644.30 0.4341
644.40 0.4336
644.50 0.4332
644.60 0.4327
644.70 0.4323
644.80 0.4318
644.90 0.4314
645.00 0.431
645.10 0.4305
645.20 0.4301
645.30 0.4296
645.40 0.4291
645.50 0.4286
645.60 0.4281
645.70 0.4276
645.80 0.4271
645.90 0.4266
646.00 0.4261
646.10 0.4256
646.20 0.4251
646.30 0.4246
646.40 0.424
646.50 0.4235
646.60 0.4229
646.70 0.4223
646.80 0.4217
646.90 0.4212
647.00 0.4206
647.10 0.42
647.20 0.4195
647.30 0.4189
647.40 0.4182
647.50 0.4175
647.60 0.4168
647.70 0.4161
647.80 0.4155
647.90 0.4148
648.00 0.4141
648.10 0.4134
648.20 0.4128
648.30 0.412
648.40 0.4112
648.50 0.4104
648.60 0.4096
648.70 0.4088
648.80 0.4079
648.90 0.4071
649.00 0.4063
649.10 0.4055
649.20 0.4046
649.30 0.4038
649.40 0.4028
649.50 0.4018
649.60 0.4008
649.70 0.3997
649.80 0.3987
649.90 0.3977
650.00 0.3967
650.10 0.3957
650.20 0.3947
650.30 0.3937
650.40 0.3924
650.50 0.3911
650.60 0.3898
650.70 0.3886
650.80 0.3873
650.90 0.386
651.00 0.3848
651.10 0.3835
651.20 0.3823
651.30 0.3809
651.40 0.3793
651.50 0.3777
651.60 0.3761
651.70 0.3744
651.80 0.3728
651.90 0.3712
652.00 0.3696
652.10 0.368
652.20 0.3664
652.30 0.3647
652.40 0.3626
652.50 0.3605
652.60 0.3585
652.70 0.3564
652.80 0.3543
652.90 0.3523
653.00 0.3502
653.10 0.3481
653.20 0.3461
653.30 0.3439
653.40 0.3413
653.50 0.3387
653.60 0.336
653.70 0.3334
653.80 0.3308
653.90 0.3282
654.00 0.3256
654.10 0.3229
654.20 0.3203
654.30 0.3176
654.40 0.3145
654.50 0.3114
654.60 0.3083
654.70 0.3052
654.80 0.3019
654.90 0.2983
655.00 0.2947
655.10 0.291
655.20 0.2874
655.30 0.2837
655.40 0.2797
655.50 0.2756
655.60 0.2712
655.70 0.2666
655.80 0.2613
655.90 0.2556
656.00 0.2479
656.10 0.2394
656.20 0.2101
656.30 0.183
656.40 0.2285
656.50 0.2427
656.60 0.2502
656.70 0.2572
656.80 0.2623
656.90 0.2672
657.00 0.2714
657.10 0.2755
657.20 0.2793
657.30 0.2829
657.40 0.2863
657.50 0.2897
657.60 0.293
657.70 0.2964
657.80 0.2996
657.90 0.3024
658.00 0.3052
658.10 0.3081
658.20 0.3109
658.30 0.3136
658.40 0.3158
658.50 0.3181
658.60 0.3204
658.70 0.3227
658.80 0.325
658.90 0.3272
659.00 0.3295
659.10 0.3318
659.20 0.3341
659.30 0.3362
659.40 0.3379
659.50 0.3396
659.60 0.3413
659.70 0.3429
659.80 0.3446
659.90 0.3463
660.00 0.348
660.10 0.3496
660.20 0.3513
660.30 0.3529
660.40 0.3541
660.50 0.3553
660.60 0.3565
660.70 0.3577
660.80 0.3589
660.90 0.3601
661.00 0.3613
661.10 0.3625
661.20 0.3637
661.30 0.3648
661.40 0.3656
661.50 0.3664
661.60 0.3673
661.70 0.3681
661.80 0.3689
661.90 0.3698
662.00 0.3706
662.10 0.3714
662.20 0.3722
662.30 0.373
662.40 0.3736
662.50 0.3741
662.60 0.3747
662.70 0.3753
662.80 0.3758
662.90 0.3764
663.00 0.3769
663.10 0.3775
663.20 0.378
663.30 0.3786
663.40 0.3789
663.50 0.3793
663.60 0.3797
663.70 0.38
663.80 0.3804
663.90 0.3808
664.00 0.3811
664.10 0.3815
664.20 0.3819
664.30 0.3822
664.40 0.3824
664.50 0.3826
664.60 0.3829
664.70 0.3831
664.80 0.3833
664.90 0.3835
665.00 0.3838
665.10 0.384
665.20 0.3842
665.30 0.3844
665.40 0.3845
665.50 0.3846
665.60 0.3848
665.70 0.3849
665.80 0.385
665.90 0.3851
666.00 0.3852
666.10 0.3854
666.20 0.3855
666.30 0.3856
666.40 0.3856
666.50 0.3857
666.60 0.3857
666.70 0.3858
666.80 0.3858
666.90 0.3859
667.00 0.3859
667.10 0.3859
667.20 0.386
667.30 0.386
667.40 0.386
667.50 0.386
667.60 0.386
667.70 0.386
667.80 0.386
667.90 0.386
668.00 0.386
668.10 0.3859
668.20 0.3859
668.30 0.3859
668.40 0.3859
668.50 0.3858
668.60 0.3858
668.70 0.3857
668.80 0.3857
668.90 0.3856
669.00 0.3856
669.10 0.3855
669.20 0.3855
669.30 0.3854
669.40 0.3853
669.50 0.3853
669.60 0.3852
669.70 0.3851
669.80 0.385
669.90 0.3849
670.00 0.3849
670.10 0.3848
670.20 0.3847
670.30 0.3846
670.40 0.3845
670.50 0.3844
670.60 0.3843
670.70 0.3842
670.80 0.3841
670.90 0.384
671.00 0.3839
671.10 0.3838
671.20 0.3837
671.30 0.3836
671.40 0.3835
671.50 0.3834
671.60 0.3833
671.70 0.3831
671.80 0.383
671.90 0.3829
672.00 0.3828
672.10 0.3827
672.20 0.3825
672.30 0.3824
672.40 0.3823
672.50 0.3822
672.60 0.382
672.70 0.3819
672.80 0.3818
672.90 0.3816
673.00 0.3815
673.10 0.3814
673.20 0.3813
673.30 0.3811
673.40 0.381
673.50 0.3808
673.60 0.3807
673.70 0.3806
673.80 0.3804
673.90 0.3803
674.00 0.3801
674.10 0.38
674.20 0.3799
674.30 0.3797
674.40 0.3796
674.50 0.3794
674.60 0.3793
674.70 0.3791
674.80 0.379
674.90 0.3788
675.00 0.3787
675.10 0.3785
675.20 0.3784
675.30 0.3782
675.40 0.3781
675.50 0.3779
675.60 0.3778
675.70 0.3776
675.80 0.3775
675.90 0.3773
676.00 0.3772
676.10 0.377
676.20 0.3769
676.30 0.3767
676.40 0.3766
676.50 0.3764
676.60 0.3762
676.70 0.3761
676.80 0.3759
676.90 0.3758
677.00 0.3756
677.10 0.3755
677.20 0.3753
677.30 0.3751
677.40 0.375
677.50 0.3748
677.60 0.3747
677.70 0.3745
677.80 0.3743
677.90 0.3742
678.00 0.374
678.10 0.3739
678.20 0.3737
678.30 0.3735
678.40 0.3734
678.50 0.3732
678.60 0.373
678.70 0.3729
678.80 0.3727
678.90 0.3725
679.00 0.3724
679.10 0.3722
679.20 0.3721
679.30 0.3719
679.40 0.3717
679.50 0.3716
679.60 0.3714
679.70 0.3712
679.80 0.3711
679.90 0.3709
680.00 0.3707
680.10 0.3706
680.20 0.3704
680.30 0.3702
680.40 0.3701
680.50 0.3699
680.60 0.3697
680.70 0.3696
680.80 0.3694
680.90 0.3692
681.00 0.3691
681.10 0.3689
681.20 0.3687
681.30 0.3686
681.40 0.3684
681.50 0.3682
681.60 0.3681
681.70 0.3679
681.80 0.3677
681.90 0.3676
682.00 0.3674
682.10 0.3672
682.20 0.3671
682.30 0.3669
682.40 0.3667
682.50 0.3666
682.60 0.3664
682.70 0.3662
682.80 0.3661
682.90 0.3659
683.00 0.3657
683.10 0.3656
683.20 0.3654
683.30 0.3652
683.40 0.3651
683.50 0.3649
683.60 0.3647
683.70 0.3645
683.80 0.3644
683.90 0.3642
684.00 0.364
684.10 0.3639
684.20 0.3637
684.30 0.3635
684.40 0.3634
684.50 0.3632
684.60 0.363
684.70 0.3629
684.80 0.3627
684.90 0.3625
685.00 0.3624
685.10 0.3622
685.20 0.362
685.30 0.3619
685.40 0.3617
685.50 0.3615
685.60 0.3613
685.70 0.3612
685.80 0.361
685.90 0.3608
686.00 0.3607
686.10 0.3605
686.20 0.3603
686.30 0.3602
686.40 0.36
686.50 0.3598
686.60 0.3597
686.70 0.3595
686.80 0.3593
686.90 0.3592
687.00 0.359
687.10 0.3588
687.20 0.3587
687.30 0.3585
687.40 0.3583
687.50 0.3581
687.60 0.358
687.70 0.3578
687.80 0.3576
687.90 0.3575
688.00 0.3573
688.10 0.3571
688.20 0.357
688.30 0.3568
688.40 0.3566
688.50 0.3565
688.60 0.3563
688.70 0.3561
688.80 0.356
688.90 0.3558
689.00 0.3556
689.10 0.3555
689.20 0.3553
689.30 0.3551
689.40 0.355
689.50 0.3548
689.60 0.3546
689.70 0.3545
689.80 0.3543
689.90 0.3541
690.00 0.354
690.10 0.3538
690.20 0.3536
690.30 0.3535
690.40 0.3533
690.50 0.3531
690.60 0.353
690.70 0.3528
690.80 0.3526
690.90 0.3524
691.00 0.3523
691.10 0.3521
691.20 0.3519
691.30 0.3518
691.40 0.3516
691.50 0.3514
691.60 0.3513
691.70 0.3511
691.80 0.351
691.90 0.3508
692.00 0.3506
692.10 0.3505
692.20 0.3503
692.30 0.3501
692.40 0.35
692.50 0.3498
692.60 0.3496
692.70 0.3495
692.80 0.3493
692.90 0.3491
693.00 0.349
693.10 0.3488
693.20 0.3486
693.30 0.3485
693.40 0.3483
693.50 0.3481
693.60 0.348
693.70 0.3478
693.80 0.3476
693.90 0.3475
694.00 0.3473
694.10 0.3471
694.20 0.347
694.30 0.3468
694.40 0.3467
694.50 0.3465
694.60 0.3463
694.70 0.3462
694.80 0.346
694.90 0.3458
695.00 0.3457
695.10 0.3455
695.20 0.3453
695.30 0.3452
695.40 0.345
695.50 0.3449
695.60 0.3447
695.70 0.3445
695.80 0.3444
695.90 0.3442
696.00 0.344
696.10 0.3439
696.20 0.3437
696.30 0.3436
696.40 0.3434
696.50 0.3432
696.60 0.3431
696.70 0.3429
696.80 0.3427
696.90 0.3426
697.00 0.3424
697.10 0.3423
697.20 0.3421
697.30 0.3419
697.40 0.3418
697.50 0.3416
697.60 0.3414
697.70 0.3413
697.80 0.3411
697.90 0.341
698.00 0.3408
698.10 0.3406
698.20 0.3405
698.30 0.3403
698.40 0.3402
698.50 0.34
698.60 0.3398
698.70 0.3397
698.80 0.3395
698.90 0.3394
699.00 0.3392
699.10 0.339
699.20 0.3389
699.30 0.3387
699.40 0.3385
699.50 0.3384
699.60 0.3382
699.70 0.3381
699.80 0.3379
699.90 0.3377
700.00 0.3376
700.10 0.3374
700.20 0.3373
700.30 0.3371
700.40 0.337
700.50 0.3369
700.60 0.3367
700.70 0.3366
700.80 0.3364
700.90 0.3363
701.00 0.3361
701.10 0.336
701.20 0.3358
701.30 0.3357
701.40 0.3355
701.50 0.3354
701.60 0.3352
701.70 0.3351
701.80 0.335
701.90 0.3348
702.00 0.3347
702.10 0.3345
702.20 0.3344
702.30 0.3342
702.40 0.3341
702.50 0.3339
702.60 0.3338
702.70 0.3336
702.80 0.3335
702.90 0.3334
703.00 0.3332
703.10 0.3331
703.20 0.3329
703.30 0.3328
703.40 0.3326
703.50 0.3325
703.60 0.3323
703.70 0.3322
703.80 0.3321
703.90 0.3319
704.00 0.3318
704.10 0.3316
704.20 0.3315
704.30 0.3313
704.40 0.3312
704.50 0.331
704.60 0.3309
704.70 0.3308
704.80 0.3306
704.90 0.3305
705.00 0.3303
705.10 0.3302
705.20 0.33
705.30 0.3299
705.40 0.3297
705.50 0.3295
705.60 0.3294
705.70 0.3292
705.80 0.3291
705.90 0.3289
706.00 0.3288
706.10 0.3286
706.20 0.3285
706.30 0.3283
706.40 0.3281
706.50 0.328
706.60 0.3278
706.70 0.3277
706.80 0.3275
706.90 0.3274
707.00 0.3272
707.10 0.3271
707.20 0.3269
707.30 0.3268
707.40 0.3266
707.50 0.3264
707.60 0.3263
707.70 0.3261
707.80 0.326
707.90 0.3258
708.00 0.3257
708.10 0.3255
708.20 0.3254
708.30 0.3252
708.40 0.3251
708.50 0.3249
708.60 0.3248
708.70 0.3246
708.80 0.3244
708.90 0.3243
709.00 0.3241
709.10 0.324
709.20 0.3238
709.30 0.3237
709.40 0.3235
709.50 0.3234
709.60 0.3232
709.70 0.3231
709.80 0.3229
709.90 0.3228
710.00 0.3226
710.10 0.3225
710.20 0.3223
710.30 0.3222
710.40 0.322
710.50 0.3219
710.60 0.3217
710.70 0.3215
710.80 0.3214
710.90 0.3212
711.00 0.3211
711.10 0.3209
711.20 0.3208
711.30 0.3206
711.40 0.3205
711.50 0.3203
711.60 0.3202
711.70 0.32
711.80 0.3199
711.90 0.3197
712.00 0.3196
712.10 0.3194
712.20 0.3193
712.30 0.3191
712.40 0.319
712.50 0.3188
712.60 0.3187
712.70 0.3185
712.80 0.3184
712.90 0.3182
713.00 0.3181
713.10 0.3179
713.20 0.3178
713.30 0.3176
713.40 0.3175
713.50 0.3173
713.60 0.3172
713.70 0.317
713.80 0.3169
713.90 0.3167
714.00 0.3166
714.10 0.3164
714.20 0.3163
714.30 0.3162
714.40 0.316
714.50 0.3159
714.60 0.3157
714.70 0.3156
714.80 0.3154
714.90 0.3153
715.00 0.3151
715.10 0.315
715.20 0.3148
715.30 0.3147
715.40 0.3145
715.50 0.3144
715.60 0.3142
715.70 0.3141
715.80 0.3139
715.90 0.3138
716.00 0.3137
716.10 0.3135
716.20 0.3134
716.30 0.3132
716.40 0.3131
716.50 0.3129
716.60 0.3128
716.70 0.3126
716.80 0.3125
716.90 0.3124
717.00 0.3122
717.10 0.3121
717.20 0.3119
717.30 0.3118
717.40 0.3116
717.50 0.3115
717.60 0.3113
717.70 0.3112
717.80 0.3111
717.90 0.3109
718.00 0.3108
718.10 0.3106
718.20 0.3105
718.30 0.3103
718.40 0.3102
718.50 0.31
718.60 0.3099
718.70 0.3098
718.80 0.3096
718.90 0.3095
719.00 0.3093
719.10 0.3092
719.20 0.309
719.30 0.3089
719.40 0.3088
719.50 0.3086
719.60 0.3085
719.70 0.3083
719.80 0.3082
719.90 0.308
720.00 0.3079
720.10 0.3078
720.20 0.3076
720.30 0.3075
720.40 0.3073
720.50 0.3072
720.60 0.307
720.70 0.3069
720.80 0.3068
720.90 0.3066
721.00 0.3065
721.10 0.3063
721.20 0.3062
721.30 0.306
721.40 0.3059
721.50 0.3058
721.60 0.3056
721.70 0.3055
721.80 0.3053
721.90 0.3052
722.00 0.305
722.10 0.3049
722.20 0.3048
722.30 0.3046
722.40 0.3045
722.50 0.3043
722.60 0.3042
722.70 0.3041
722.80 0.3039
722.90 0.3038
723.00 0.3036
723.10 0.3035
723.20 0.3033
723.30 0.3032
723.40 0.3031
723.50 0.3029
723.60 0.3028
723.70 0.3026
723.80 0.3025
723.90 0.3024
724.00 0.3022
724.10 0.3021
724.20 0.3019
724.30 0.3018
724.40 0.3016
724.50 0.3015
724.60 0.3014
724.70 0.3012
724.80 0.3011
724.90 0.3009
725.00 0.3008
725.10 0.3007
725.20 0.3005
725.30 0.3004
725.40 0.3002
725.50 0.3001
725.60 0.3
725.70 0.2998
725.80 0.2997
725.90 0.2996
726.00 0.2994
726.10 0.2993
726.20 0.2991
726.30 0.299
726.40 0.2989
726.50 0.2987
726.60 0.2986
726.70 0.2984
726.80 0.2983
726.90 0.2982
727.00 0.298
727.10 0.2979
727.20 0.2978
727.30 0.2976
727.40 0.2975
727.50 0.2973
727.60 0.2972
727.70 0.2971
727.80 0.2969
727.90 0.2968
728.00 0.2966
728.10 0.2965
728.20 0.2964
728.30 0.2962
728.40 0.2961
728.50 0.296
728.60 0.2958
728.70 0.2957
728.80 0.2956
728.90 0.2954
729.00 0.2953
729.10 0.2951
729.20 0.295
729.30 0.2949
729.40 0.2947
729.50 0.2946
729.60 0.2945
729.70 0.2943
729.80 0.2942
729.90 0.294
730.00 0.2939
730.10 0.2938
730.20 0.2936
730.30 0.2935
730.40 0.2934
730.50 0.2932
730.60 0.2931
730.70 0.293
730.80 0.2928
730.90 0.2927
731.00 0.2926
731.10 0.2924
731.20 0.2923
731.30 0.2922
731.40 0.292
731.50 0.2919
731.60 0.2918
731.70 0.2916
731.80 0.2915
731.90 0.2914
732.00 0.2912
732.10 0.2911
732.20 0.291
732.30 0.2908
732.40 0.2907
732.50 0.2905
732.60 0.2904
732.70 0.2903
732.80 0.2901
732.90 0.29
733.00 0.2899
733.10 0.2897
733.20 0.2896
733.30 0.2895
733.40 0.2893
733.50 0.2892
733.60 0.2891
733.70 0.289
733.80 0.2888
733.90 0.2887
734.00 0.2886
734.10 0.2884
734.20 0.2883
734.30 0.2882
734.40 0.288
734.50 0.2879
734.60 0.2878
734.70 0.2876
734.80 0.2875
734.90 0.2874
735.00 0.2872
735.10 0.2871
735.20 0.287
735.30 0.2868
735.40 0.2867
735.50 0.2866
735.60 0.2864
735.70 0.2863
735.80 0.2862
735.90 0.286
736.00 0.2859
736.10 0.2858
736.20 0.2856
736.30 0.2855
736.40 0.2854
736.50 0.2853
736.60 0.2851
736.70 0.285
736.80 0.2849
736.90 0.2847
737.00 0.2846
737.10 0.2845
737.20 0.2843
737.30 0.2842
737.40 0.2841
737.50 0.2839
737.60 0.2838
737.70 0.2837
737.80 0.2836
737.90 0.2834
738.00 0.2833
738.10 0.2832
738.20 0.283
738.30 0.2829
738.40 0.2828
738.50 0.2826
738.60 0.2825
738.70 0.2824
738.80 0.2823
738.90 0.2821
739.00 0.282
739.10 0.2819
739.20 0.2817
739.30 0.2816
739.40 0.2815
739.50 0.2813
739.60 0.2812
739.70 0.2811
739.80 0.281
739.90 0.2808
740.00 0.2807
740.10 0.2806
740.20 0.2804
740.30 0.2803
740.40 0.2802
740.50 0.2801
740.60 0.2799
740.70 0.2798
740.80 0.2797
740.90 0.2796
741.00 0.2794
741.10 0.2793
741.20 0.2792
741.30 0.279
741.40 0.2789
741.50 0.2788
741.60 0.2787
741.70 0.2785
741.80 0.2784
741.90 0.2783
742.00 0.2782
742.10 0.278
742.20 0.2779
742.30 0.2778
742.40 0.2777
742.50 0.2775
742.60 0.2774
742.70 0.2773
742.80 0.2772
742.90 0.277
743.00 0.2769
743.10 0.2768
743.20 0.2766
743.30 0.2765
743.40 0.2764
743.50 0.2763
743.60 0.2761
743.70 0.276
743.80 0.2759
743.90 0.2758
744.00 0.2756
744.10 0.2755
744.20 0.2754
744.30 0.2753
744.40 0.2751
744.50 0.275
744.60 0.2749
744.70 0.2748
744.80 0.2746
744.90 0.2745
745.00 0.2744
745.10 0.2743
745.20 0.2741
745.30 0.274
745.40 0.2739
745.50 0.2738
745.60 0.2736
745.70 0.2735
745.80 0.2734
745.90 0.2733
746.00 0.2732
746.10 0.273
746.20 0.2729
746.30 0.2728
746.40 0.2727
746.50 0.2725
746.60 0.2724
746.70 0.2723
746.80 0.2722
746.90 0.272
747.00 0.2719
747.10 0.2718
747.20 0.2717
747.30 0.2715
747.40 0.2714
747.50 0.2713
747.60 0.2712
747.70 0.271
747.80 0.2709
747.90 0.2708
748.00 0.2707
748.10 0.2706
748.20 0.2704
748.30 0.2703
748.40 0.2702
748.50 0.2701
748.60 0.2699
748.70 0.2698
748.80 0.2697
748.90 0.2696
749.00 0.2695
749.10 0.2693
749.20 0.2692
749.30 0.2691
749.40 0.269
749.50 0.2688
749.60 0.2687
749.70 0.2686
749.80 0.2685
749.90 0.2684
750.00 0.2682
750.10 0.2681
750.20 0.268
750.30 0.2679
750.40 0.2678
750.50 0.2676
750.60 0.2675
750.70 0.2674
750.80 0.2673
750.90 0.2672
751.00 0.267
751.10 0.2669
751.20 0.2668
751.30 0.2667
751.40 0.2666
751.50 0.2664
751.60 0.2663
751.70 0.2662
751.80 0.2661
751.90 0.266
752.00 0.2658
752.10 0.2657
752.20 0.2656
752.30 0.2655
752.40 0.2654
752.50 0.2652
752.60 0.2651
752.70 0.265
752.80 0.2649
752.90 0.2648
753.00 0.2646
753.10 0.2645
753.20 0.2644
753.30 0.2643
753.40 0.2642
753.50 0.2641
753.60 0.2639
753.70 0.2638
753.80 0.2637
753.90 0.2636
754.00 0.2635
754.10 0.2633
754.20 0.2632
754.30 0.2631
754.40 0.263
754.50 0.2629
754.60 0.2627
754.70 0.2626
754.80 0.2625
754.90 0.2624
755.00 0.2623
755.10 0.2622
755.20 0.262
755.30 0.2619
755.40 0.2618
755.50 0.2617
755.60 0.2616
755.70 0.2615
755.80 0.2613
755.90 0.2612
756.00 0.2611
756.10 0.261
756.20 0.2609
756.30 0.2608
756.40 0.2606
756.50 0.2605
756.60 0.2604
756.70 0.2603
756.80 0.2602
756.90 0.2601
757.00 0.2599
757.10 0.2598
757.20 0.2597
757.30 0.2596
757.40 0.2595
757.50 0.2594
757.60 0.2592
757.70 0.2591
757.80 0.259
757.90 0.2589
758.00 0.2588
758.10 0.2587
758.20 0.2585
758.30 0.2584
758.40 0.2583
758.50 0.2582
758.60 0.2581
758.70 0.258
758.80 0.2578
758.90 0.2577
759.00 0.2576
759.10 0.2575
759.20 0.2574
759.30 0.2573
759.40 0.2571
759.50 0.257
759.60 0.2569
759.70 0.2568
759.80 0.2567
759.90 0.2566
760.00 0.2565
760.10 0.2563
760.20 0.2562
760.30 0.2561
760.40 0.256
760.50 0.2559
760.60 0.2558
760.70 0.2557
760.80 0.2555
760.90 0.2554
761.00 0.2553
761.10 0.2552
761.20 0.2551
761.30 0.255
761.40 0.2549
761.50 0.2548
761.60 0.2546
761.70 0.2545
761.80 0.2544
761.90 0.2543
762.00 0.2542
762.10 0.2541
762.20 0.254
762.30 0.2539
762.40 0.2537
762.50 0.2536
762.60 0.2535
762.70 0.2534
762.80 0.2533
762.90 0.2532
763.00 0.2531
763.10 0.253
763.20 0.2528
763.30 0.2527
763.40 0.2526
763.50 0.2525
763.60 0.2524
763.70 0.2523
763.80 0.2522
763.90 0.2521
764.00 0.2519
764.10 0.2518
764.20 0.2517
764.30 0.2516
764.40 0.2515
764.50 0.2514
764.60 0.2513
764.70 0.2512
764.80 0.2511
764.90 0.2509
765.00 0.2508
765.10 0.2507
765.20 0.2506
765.30 0.2505
765.40 0.2504
765.50 0.2503
765.60 0.2502
765.70 0.2501
765.80 0.2499
765.90 0.2498
766.00 0.2497
766.10 0.2496
766.20 0.2495
766.30 0.2494
766.40 0.2493
766.50 0.2492
766.60 0.2491
766.70 0.2489
766.80 0.2488
766.90 0.2487
767.00 0.2486
767.10 0.2485
767.20 0.2484
767.30 0.2483
767.40 0.2482
767.50 0.2481
767.60 0.248
767.70 0.2478
767.80 0.2477
767.90 0.2476
768.00 0.2475
768.10 0.2474
768.20 0.2473
768.30 0.2472
768.40 0.2471
768.50 0.247
768.60 0.2469
768.70 0.2467
768.80 0.2466
768.90 0.2465
769.00 0.2464
769.10 0.2463
769.20 0.2462
769.30 0.2461
769.40 0.246
769.50 0.2459
769.60 0.2458
769.70 0.2456
769.80 0.2455
769.90 0.2454
770.00 0.2453
770.10 0.2452
770.20 0.2451
770.30 0.245
770.40 0.2449
770.50 0.2448
770.60 0.2447
770.70 0.2446
770.80 0.2445
770.90 0.2444
771.00 0.2442
771.10 0.2441
771.20 0.244
771.30 0.2439
771.40 0.2438
771.50 0.2437
771.60 0.2436
771.70 0.2435
771.80 0.2434
771.90 0.2433
772.00 0.2432
772.10 0.2431
772.20 0.243
772.30 0.2429
772.40 0.2428
772.50 0.2426
772.60 0.2425
772.70 0.2424
772.80 0.2423
772.90 0.2422
773.00 0.2421
773.10 0.242
773.20 0.2419
773.30 0.2418
773.40 0.2417
773.50 0.2416
773.60 0.2415
773.70 0.2414
773.80 0.2413
773.90 0.2412
774.00 0.2411
774.10 0.2409
774.20 0.2408
774.30 0.2407
774.40 0.2406
774.50 0.2405
774.60 0.2404
774.70 0.2403
774.80 0.2402
774.90 0.2401
775.00 0.24
775.10 0.2399
775.20 0.2398
775.30 0.2397
775.40 0.2396
775.50 0.2395
775.60 0.2394
775.70 0.2393
775.80 0.2392
775.90 0.2391
776.00 0.2389
776.10 0.2388
776.20 0.2387
776.30 0.2386
776.40 0.2385
776.50 0.2384
776.60 0.2383
776.70 0.2382
776.80 0.2381
776.90 0.238
777.00 0.2379
777.10 0.2378
777.20 0.2377
777.30 0.2376
777.40 0.2375
777.50 0.2374
777.60 0.2373
777.70 0.2372
777.80 0.2371
777.90 0.237
778.00 0.2369
778.10 0.2368
778.20 0.2367
778.30 0.2365
778.40 0.2364
778.50 0.2363
778.60 0.2362
778.70 0.2361
778.80 0.236
778.90 0.2359
779.00 0.2358
779.10 0.2357
779.20 0.2356
779.30 0.2355
779.40 0.2354
779.50 0.2353
779.60 0.2352
779.70 0.2351
779.80 0.235
779.90 0.2349
780.00 0.2348
780.10 0.2347
780.20 0.2346
780.30 0.2345
780.40 0.2344
780.50 0.2343
780.60 0.2342
780.70 0.2341
780.80 0.234
780.90 0.2339
781.00 0.2338
781.10 0.2337
781.20 0.2336
781.30 0.2335
781.40 0.2334
781.50 0.2333
781.60 0.2332
781.70 0.2331
781.80 0.233
781.90 0.2329
782.00 0.2328
782.10 0.2327
782.20 0.2326
782.30 0.2325
782.40 0.2324
782.50 0.2323
782.60 0.2322
782.70 0.2321
782.80 0.232
782.90 0.2319
783.00 0.2318
783.10 0.2317
783.20 0.2316
783.30 0.2315
783.40 0.2314
783.50 0.2313
783.60 0.2312
783.70 0.231
783.80 0.2309
783.90 0.2308
784.00 0.2307
784.10 0.2306
784.20 0.2305
784.30 0.2304
784.40 0.2303
784.50 0.2302
784.60 0.2301
784.70 0.23
784.80 0.2299
784.90 0.2299
785.00 0.2298
785.10 0.2297
785.20 0.2296
785.30 0.2295
785.40 0.2294
785.50 0.2293
785.60 0.2292
785.70 0.2291
785.80 0.229
785.90 0.2289
786.00 0.2288
786.10 0.2287
786.20 0.2286
786.30 0.2285
786.40 0.2284
786.50 0.2283
786.60 0.2282
786.70 0.2281
786.80 0.228
786.90 0.2279
787.00 0.2278
787.10 0.2277
787.20 0.2276
787.30 0.2275
787.40 0.2274
787.50 0.2273
787.60 0.2272
787.70 0.2271
787.80 0.227
787.90 0.2269
788.00 0.2268
788.10 0.2267
788.20 0.2266
788.30 0.2265
788.40 0.2264
788.50 0.2263
788.60 0.2262
788.70 0.2261
788.80 0.226
788.90 0.2259
789.00 0.2258
789.10 0.2257
789.20 0.2256
789.30 0.2255
789.40 0.2254
789.50 0.2253
789.60 0.2252
789.70 0.2251
789.80 0.225
789.90 0.2249
790.00 0.2248
790.10 0.2247
790.20 0.2246
790.30 0.2245
790.40 0.2244
790.50 0.2243
790.60 0.2242
790.70 0.2241
790.80 0.2241
790.90 0.224
791.00 0.2239
791.10 0.2238
791.20 0.2237
791.30 0.2236
791.40 0.2235
791.50 0.2234
791.60 0.2233
791.70 0.2232
791.80 0.2231
791.90 0.223
792.00 0.2229
792.10 0.2228
792.20 0.2227
792.30 0.2226
792.40 0.2225
792.50 0.2224
792.60 0.2223
792.70 0.2222
792.80 0.2221
792.90 0.222
793.00 0.2219
793.10 0.2219
793.20 0.2218
793.30 0.2217
793.40 0.2216
793.50 0.2215
793.60 0.2214
793.70 0.2213
793.80 0.2212
793.90 0.2211
794.00 0.221
794.10 0.2209
794.20 0.2208
794.30 0.2207
794.40 0.2206
794.50 0.2205
794.60 0.2204
794.70 0.2203
794.80 0.2202
794.90 0.2201
795.00 0.22
795.10 0.22
795.20 0.2199
795.30 0.2198
795.40 0.2197
795.50 0.2196
795.60 0.2195
795.70 0.2194
795.80 0.2193
795.90 0.2192
796.00 0.2191
796.10 0.219
796.20 0.2189
796.30 0.2188
796.40 0.2187
796.50 0.2186
796.60 0.2185
796.70 0.2184
796.80 0.2184
796.90 0.2183
797.00 0.2182
797.10 0.2181
797.20 0.218
797.30 0.2179
797.40 0.2178
797.50 0.2177
797.60 0.2176
797.70 0.2175
797.80 0.2174
797.90 0.2173
798.00 0.2172
798.10 0.2171
798.20 0.217
798.30 0.217
798.40 0.2169
798.50 0.2168
798.60 0.2167
798.70 0.2166
798.80 0.2165
798.90 0.2164
799.00 0.2163
799.10 0.2162
799.20 0.2161
799.30 0.216
799.40 0.2159
799.50 0.2158
799.60 0.2157
799.70 0.2157
799.80 0.2156
799.90 0.2155
800.00 0.2154
800.10 0.2153
800.20 0.2152
800.30 0.2151
800.40 0.215
800.50 0.2149
800.60 0.2148
800.70 0.2147
800.80 0.2146
800.90 0.2146
801.00 0.2145
801.10 0.2144
801.20 0.2143
801.30 0.2142
801.40 0.2141
801.50 0.214
801.60 0.2139
801.70 0.2138
801.80 0.2137
801.90 0.2136
802.00 0.2136
802.10 0.2135
802.20 0.2134
802.30 0.2133
802.40 0.2132
802.50 0.2131
802.60 0.213
802.70 0.2129
802.80 0.2128
802.90 0.2127
803.00 0.2127
803.10 0.2126
803.20 0.2125
803.30 0.2124
803.40 0.2123
803.50 0.2122
803.60 0.2121
803.70 0.212
803.80 0.2119
803.90 0.2118
804.00 0.2118
804.10 0.2117
804.20 0.2116
804.30 0.2115
804.40 0.2114
804.50 0.2113
804.60 0.2112
804.70 0.2111
804.80 0.211
804.90 0.2109
805.00 0.2109
805.10 0.2108
805.20 0.2107
805.30 0.2106
805.40 0.2105
805.50 0.2104
805.60 0.2103
805.70 0.2102
805.80 0.2101
805.90 0.2101
806.00 0.21
806.10 0.2099
806.20 0.2098
806.30 0.2097
806.40 0.2096
806.50 0.2095
806.60 0.2094
806.70 0.2093
806.80 0.2093
806.90 0.2092
807.00 0.2091
807.10 0.209
807.20 0.2089
807.30 0.2088
807.40 0.2087
807.50 0.2086
807.60 0.2085
807.70 0.2085
807.80 0.2084
807.90 0.2083
808.00 0.2082
808.10 0.2081
808.20 0.208
808.30 0.2079
808.40 0.2078
808.50 0.2078
808.60 0.2077
808.70 0.2076
808.80 0.2075
808.90 0.2074
809.00 0.2073
809.10 0.2072
809.20 0.2071
809.30 0.207
809.40 0.207
809.50 0.2069
809.60 0.2068
809.70 0.2067
809.80 0.2066
809.90 0.2065
810.00 0.2064
810.10 0.2063
810.20 0.2063
810.30 0.2062
810.40 0.2061
810.50 0.206
810.60 0.2059
810.70 0.2058
810.80 0.2057
810.90 0.2057
811.00 0.2056
811.10 0.2055
811.20 0.2054
811.30 0.2053
811.40 0.2052
811.50 0.2051
811.60 0.2051
811.70 0.205
811.80 0.2049
811.90 0.2048
812.00 0.2047
812.10 0.2046
812.20 0.2045
812.30 0.2044
812.40 0.2044
812.50 0.2043
812.60 0.2042
812.70 0.2041
812.80 0.204
812.90 0.2039
813.00 0.2039
813.10 0.2038
813.20 0.2037
813.30 0.2036
813.40 0.2035
813.50 0.2034
813.60 0.2033
813.70 0.2033
813.80 0.2032
813.90 0.2031
814.00 0.203
814.10 0.2029
814.20 0.2028
814.30 0.2027
814.40 0.2027
814.50 0.2026
814.60 0.2025
814.70 0.2024
814.80 0.2023
814.90 0.2022
815.00 0.2021
815.10 0.2021
815.20 0.202
815.30 0.2019
815.40 0.2018
815.50 0.2017
815.60 0.2016
815.70 0.2016
815.80 0.2015
815.90 0.2014
816.00 0.2013
816.10 0.2012
816.20 0.2011
816.30 0.201
816.40 0.201
816.50 0.2009
816.60 0.2008
816.70 0.2007
816.80 0.2006
816.90 0.2005
817.00 0.2005
817.10 0.2004
817.20 0.2003
817.30 0.2002
817.40 0.2001
817.50 0.2
817.60 0.2
817.70 0.1999
817.80 0.1998
817.90 0.1997
818.00 0.1996
818.10 0.1995
818.20 0.1995
818.30 0.1994
818.40 0.1993
818.50 0.1992
818.60 0.1991
818.70 0.199
818.80 0.1989
818.90 0.1989
819.00 0.1988
819.10 0.1987
819.20 0.1986
819.30 0.1985
819.40 0.1984
819.50 0.1984
819.60 0.1983
819.70 0.1982
819.80 0.1981
819.90 0.198
820.00 0.1979
820.10 0.1979
820.20 0.1978
820.30 0.1977
820.40 0.1976
820.50 0.1975
820.60 0.1975
820.70 0.1974
820.80 0.1973
820.90 0.1972
821.00 0.1971
821.10 0.197
821.20 0.197
821.30 0.1969
821.40 0.1968
821.50 0.1967
821.60 0.1966
821.70 0.1966
821.80 0.1965
821.90 0.1964
822.00 0.1963
822.10 0.1962
822.20 0.1961
822.30 0.1961
822.40 0.196
822.50 0.1959
822.60 0.1958
822.70 0.1957
822.80 0.1957
822.90 0.1956
823.00 0.1955
823.10 0.1954
823.20 0.1953
823.30 0.1952
823.40 0.1952
823.50 0.1951
823.60 0.195
823.70 0.1949
823.80 0.1948
823.90 0.1948
824.00 0.1947
824.10 0.1946
824.20 0.1945
824.30 0.1944
824.40 0.1944
824.50 0.1943
824.60 0.1942
824.70 0.1941
824.80 0.194
824.90 0.194
825.00 0.1939
825.10 0.1938
825.20 0.1937
825.30 0.1936
825.40 0.1936
825.50 0.1935
825.60 0.1934
825.70 0.1933
825.80 0.1932
825.90 0.1932
826.00 0.1931
826.10 0.193
826.20 0.1929
826.30 0.1928
826.40 0.1927
826.50 0.1927
826.60 0.1926
826.70 0.1925
826.80 0.1924
826.90 0.1923
827.00 0.1923
827.10 0.1922
827.20 0.1921
827.30 0.192
827.40 0.192
827.50 0.1919
827.60 0.1918
827.70 0.1917
827.80 0.1916
827.90 0.1916
828.00 0.1915
828.10 0.1914
828.20 0.1913
828.30 0.1912
828.40 0.1912
828.50 0.1911
828.60 0.191
828.70 0.1909
828.80 0.1908
828.90 0.1908
829.00 0.1907
829.10 0.1906
829.20 0.1905
829.30 0.1905
829.40 0.1904
829.50 0.1903
829.60 0.1902
829.70 0.1901
829.80 0.1901
829.90 0.19
830.00 0.1899
830.10 0.1898
830.20 0.1897
830.30 0.1897
830.40 0.1896
830.50 0.1895
830.60 0.1894
830.70 0.1894
830.80 0.1893
830.90 0.1892
831.00 0.1891
831.10 0.189
831.20 0.189
831.30 0.1889
831.40 0.1888
831.50 0.1887
831.60 0.1887
831.70 0.1886
831.80 0.1885
831.90 0.1884
832.00 0.1883
832.10 0.1883
832.20 0.1882
832.30 0.1881
832.40 0.188
832.50 0.188
832.60 0.1879
832.70 0.1878
832.80 0.1877
832.90 0.1876
833.00 0.1876
833.10 0.1875
833.20 0.1874
833.30 0.1873
833.40 0.1873
833.50 0.1872
833.60 0.1871
833.70 0.187
833.80 0.187
833.90 0.1869
834.00 0.1868
834.10 0.1867
834.20 0.1866
834.30 0.1866
834.40 0.1865
834.50 0.1864
834.60 0.1863
834.70 0.1863
834.80 0.1862
834.90 0.1861
835.00 0.186
835.10 0.186
835.20 0.1859
835.30 0.1858
835.40 0.1857
835.50 0.1856
835.60 0.1856
835.70 0.1855
835.80 0.1854
835.90 0.1853
836.00 0.1853
836.10 0.1852
836.20 0.1851
836.30 0.185
836.40 0.185
836.50 0.1849
836.60 0.1848
836.70 0.1847
836.80 0.1847
836.90 0.1846
837.00 0.1845
837.10 0.1844
837.20 0.1844
837.30 0.1843
837.40 0.1842
837.50 0.1841
837.60 0.1841
837.70 0.184
837.80 0.1839
837.90 0.1838
838.00 0.1838
838.10 0.1837
838.20 0.1836
838.30 0.1835
838.40 0.1835
838.50 0.1834
838.60 0.1833
838.70 0.1832
838.80 0.1832
838.90 0.1831
839.00 0.183
839.10 0.1829
839.20 0.1829
839.30 0.1828
839.40 0.1827
839.50 0.1826
839.60 0.1826
839.70 0.1825
839.80 0.1824
839.90 0.1823
840.00 0.1823
840.10 0.1822
840.20 0.1821
840.30 0.182
840.40 0.182
840.50 0.1819
840.60 0.1818
840.70 0.1817
840.80 0.1817
840.90 0.1816
841.00 0.1815
841.10 0.1814
841.20 0.1814
841.30 0.1813
841.40 0.1812
841.50 0.1811
841.60 0.1811
841.70 0.181
841.80 0.1809
841.90 0.1808
842.00 0.1808
842.10 0.1807
842.20 0.1806
842.30 0.1806
842.40 0.1805
842.50 0.1804
842.60 0.1803
842.70 0.1803
842.80 0.1802
842.90 0.1801
843.00 0.18
843.10 0.18
843.20 0.1799
843.30 0.1798
843.40 0.1797
843.50 0.1797
843.60 0.1796
843.70 0.1795
843.80 0.1794
843.90 0.1794
844.00 0.1793
844.10 0.1792
844.20 0.1791
844.30 0.1791
844.40 0.179
844.50 0.1789
844.60 0.1788
844.70 0.1788
844.80 0.1787
844.90 0.1786
845.00 0.1786
845.10 0.1785
845.20 0.1784
845.30 0.1783
845.40 0.1783
845.50 0.1782
845.60 0.1781
845.70 0.178
845.80 0.178
845.90 0.1779
846.00 0.1778
846.10 0.1777
846.20 0.1777
846.30 0.1776
846.40 0.1775
846.50 0.1775
846.60 0.1774
846.70 0.1773
846.80 0.1772
846.90 0.1772
847.00 0.1771
847.10 0.177
847.20 0.177
847.30 0.177
847.40 0.1769
847.50 0.1769
847.60 0.1768
847.70 0.1768
847.80 0.1767
847.90 0.1767
848.00 0.1766
848.10 0.1766
848.20 0.1765
848.30 0.1765
848.40 0.1765
848.50 0.1764
848.60 0.1764
848.70 0.1763
848.80 0.1763
848.90 0.1762
849.00 0.1762
849.10 0.1761
849.20 0.1761
849.30 0.1761
849.40 0.176
849.50 0.176
849.60 0.1759
849.70 0.1759
849.80 0.1758
849.90 0.1758
850.00 0.1757
850.10 0.1757
850.20 0.1757
850.30 0.1756
850.40 0.1756
850.50 0.1755
850.60 0.1755
850.70 0.1754
850.80 0.1754
850.90 0.1754
851.00 0.1753
851.10 0.1753
851.20 0.1752
851.30 0.1752
851.40 0.1751
851.50 0.1751
851.60 0.175
851.70 0.175
851.80 0.175
851.90 0.1749
852.00 0.1749
852.10 0.1748
852.20 0.1748
852.30 0.1747
852.40 0.1747
852.50 0.1746
852.60 0.1746
852.70 0.1745
852.80 0.1745
852.90 0.1744
853.00 0.1744
853.10 0.1743
853.20 0.1743
853.30 0.1742
853.40 0.1742
853.50 0.1741
853.60 0.1741
853.70 0.174
853.80 0.174
853.90 0.1739
854.00 0.1739
854.10 0.1738
854.20 0.1738
854.30 0.1737
854.40 0.1737
854.50 0.1736
854.60 0.1736
854.70 0.1735
854.80 0.1735
854.90 0.1734
855.00 0.1734
855.10 0.1733
855.20 0.1733
855.30 0.1732
855.40 0.1732
855.50 0.1731
855.60 0.1731
855.70 0.173
855.80 0.173
855.90 0.1729
856.00 0.1729
856.10 0.1728
856.20 0.1728
856.30 0.1727
856.40 0.1727
856.50 0.1726
856.60 0.1726
856.70 0.1725
856.80 0.1725
856.90 0.1724
857.00 0.1724
857.10 0.1724
857.20 0.1723
857.30 0.1723
857.40 0.1722
857.50 0.1722
857.60 0.1721
857.70 0.1721
857.80 0.172
857.90 0.172
858.00 0.172
858.10 0.1719
858.20 0.1719
858.30 0.1718
858.40 0.1718
858.50 0.1717
858.60 0.1717
858.70 0.1716
858.80 0.1716
858.90 0.1716
859.00 0.1715
859.10 0.1715
859.20 0.1714
859.30 0.1714
859.40 0.1713
859.50 0.1713
859.60 0.1712
859.70 0.1712
859.80 0.1712
859.90 0.1711
860.00 0.1711
860.10 0.171
860.20 0.171
860.30 0.1709
860.40 0.1709
860.50 0.1708
860.60 0.1708
860.70 0.1708
860.80 0.1707
860.90 0.1707
861.00 0.1706
861.10 0.1706
861.20 0.1705
861.30 0.1705
861.40 0.1704
861.50 0.1704
861.60 0.1704
861.70 0.1703
861.80 0.1703
861.90 0.1702
862.00 0.1702
862.10 0.1701
862.20 0.17
862.30 0.17
862.40 0.1699
862.50 0.1698
862.60 0.1697
862.70 0.1697
862.80 0.1696
862.90 0.1695
863.00 0.1695
863.10 0.1694
863.20 0.1693
863.30 0.1692
863.40 0.1692
863.50 0.1691
863.60 0.169
863.70 0.1689
863.80 0.1689
863.90 0.1688
864.00 0.1687
864.10 0.1687
864.20 0.1686
864.30 0.1685
864.40 0.1684
864.50 0.1684
864.60 0.1683
864.70 0.1682
864.80 0.1682
864.90 0.1681
865.00 0.168
865.10 0.1679
865.20 0.1679
865.30 0.1678
865.40 0.1677
865.50 0.1677
865.60 0.1676
865.70 0.1675
865.80 0.1674
865.90 0.1674
866.00 0.1673
866.10 0.1672
866.20 0.1671
866.30 0.1671
866.40 0.167
866.50 0.1669
866.60 0.1669
866.70 0.1668
866.80 0.1667
866.90 0.1666
867.00 0.1666
867.10 0.1666
867.20 0.1666
867.30 0.1666
867.40 0.1666
867.50 0.1666
867.60 0.1666
867.70 0.1666
867.80 0.1666
867.90 0.1665
868.00 0.1665
868.10 0.1665
868.20 0.1665
868.30 0.1665
868.40 0.1665
868.50 0.1665
868.60 0.1665
868.70 0.1665
868.80 0.1665
868.90 0.1665
869.00 0.1665
869.10 0.1665
869.20 0.1665
869.30 0.1665
869.40 0.1665
869.50 0.1665
869.60 0.1665
869.70 0.1665
869.80 0.1665
869.90 0.1665
870.00 0.1665
870.10 0.1665
870.20 0.1665
870.30 0.1665
870.40 0.1665
870.50 0.1665
870.60 0.1665
870.70 0.1665
870.80 0.1665
870.90 0.1665
871.00 0.1665
871.10 0.1664
871.20 0.1664
871.30 0.1664
871.40 0.1664
871.50 0.1664
871.60 0.1664
871.70 0.1664
871.80 0.1664
871.90 0.1664
872.00 0.1664
872.10 0.1663
872.20 0.1662
872.30 0.1662
872.40 0.1661
872.50 0.166
872.60 0.1659
872.70 0.1658
872.80 0.1657
872.90 0.1656
873.00 0.1655
873.10 0.1654
873.20 0.1654
873.30 0.1653
873.40 0.1652
873.50 0.1651
873.60 0.165
873.70 0.1649
873.80 0.1648
873.90 0.1647
874.00 0.1646
874.10 0.1646
874.20 0.1645
874.30 0.1644
874.40 0.1643
874.50 0.1642
874.60 0.1641
874.70 0.164
874.80 0.1639
874.90 0.1638
875.00 0.1638
875.10 0.1637
875.20 0.1636
875.30 0.1635
875.40 0.1634
875.50 0.1633
875.60 0.1632
875.70 0.1631
875.80 0.1631
875.90 0.163
876.00 0.1629
876.10 0.1628
876.20 0.1627
876.30 0.1626
876.40 0.1625
876.50 0.1624
876.60 0.1623
876.70 0.1623
876.80 0.1622
876.90 0.1621
877.00 0.162
877.10 0.162
877.20 0.162
877.30 0.162
877.40 0.162
877.50 0.162
877.60 0.162
877.70 0.162
877.80 0.162
877.90 0.162
878.00 0.162
878.10 0.162
878.20 0.162
878.30 0.162
878.40 0.162
878.50 0.162
878.60 0.162
878.70 0.162
878.80 0.1621
878.90 0.1621
879.00 0.1621
879.10 0.1621
879.20 0.1621
879.30 0.1621
879.40 0.1621
879.50 0.1621
879.60 0.1621
879.70 0.1621
879.80 0.1621
879.90 0.1621
880.00 0.1621
880.10 0.1621
880.20 0.1621
880.30 0.1621
880.40 0.1621
880.50 0.1621
880.60 0.1621
880.70 0.1621
880.80 0.1621
880.90 0.1621
881.00 0.1621
881.10 0.1621
881.20 0.1621
881.30 0.1621
881.40 0.1621
881.50 0.1621
881.60 0.1621
881.70 0.1621
881.80 0.1621
881.90 0.1621
882.00 0.1621
882.10 0.1618
882.20 0.1615
882.30 0.1611
882.40 0.1608
882.50 0.1605
882.60 0.1601
882.70 0.1598
882.80 0.1595
882.90 0.1591
883.00 0.1588
883.10 0.1585
883.20 0.1581
883.30 0.1578
883.40 0.1575
883.50 0.1571
883.60 0.1568
883.70 0.1565
883.80 0.1561
883.90 0.1558
884.00 0.1555
884.10 0.1552
884.20 0.1548
884.30 0.1545
884.40 0.1542
884.50 0.1538
884.60 0.1535
884.70 0.1532
884.80 0.1528
884.90 0.1525
885.00 0.1522
885.10 0.1518
885.20 0.1515
885.30 0.1512
885.40 0.1509
885.50 0.1505
885.60 0.1502
885.70 0.1499
885.80 0.1495
885.90 0.1492
886.00 0.1489
886.10 0.1486
886.20 0.1482
886.30 0.1479
886.40 0.1476
886.50 0.1472
886.60 0.1469
886.70 0.1466
886.80 0.1463
886.90 0.1459
887.00 0.1456
887.10 0.1458
887.20 0.146
887.30 0.1462
887.40 0.1465
887.50 0.1467
887.60 0.1469
887.70 0.1471
887.80 0.1473
887.90 0.1475
888.00 0.1477
888.10 0.1479
888.20 0.1481
888.30 0.1483
888.40 0.1486
888.50 0.1488
888.60 0.149
888.70 0.1492
888.80 0.1494
888.90 0.1496
889.00 0.1498
889.10 0.15
889.20 0.1502
889.30 0.1504
889.40 0.1506
889.50 0.1509
889.60 0.1511
889.70 0.1513
889.80 0.1515
889.90 0.1517
890.00 0.1519
890.10 0.1521
890.20 0.1523
890.30 0.1525
890.40 0.1527
890.50 0.1529
890.60 0.1531
890.70 0.1534
890.80 0.1536
890.90 0.1538
891.00 0.154
891.10 0.1542
891.20 0.1544
891.30 0.1546
891.40 0.1548
891.50 0.155
891.60 0.1552
891.70 0.1554
891.80 0.1556
891.90 0.1558
892.00 0.156
892.10 0.1559
892.20 0.1558
892.30 0.1557
892.40 0.1556
892.50 0.1555
892.60 0.1553
892.70 0.1552
892.80 0.1551
892.90 0.155
893.00 0.1549
893.10 0.1548
893.20 0.1546
893.30 0.1545
893.40 0.1544
893.50 0.1543
893.60 0.1542
893.70 0.1541
893.80 0.1539
893.90 0.1538
894.00 0.1537
894.10 0.1536
894.20 0.1535
894.30 0.1534
894.40 0.1532
894.50 0.1531
894.60 0.153
894.70 0.1529
894.80 0.1528
894.90 0.1527
895.00 0.1525
895.10 0.1524
895.20 0.1523
895.30 0.1522
895.40 0.1521
895.50 0.152
895.60 0.1518
895.70 0.1517
895.80 0.1516
895.90 0.1515
896.00 0.1514
896.10 0.1513
896.20 0.1512
896.30 0.151
896.40 0.1509
896.50 0.1508
896.60 0.1507
896.70 0.1506
896.80 0.1505
896.90 0.1503
897.00 0.1502
897.10 0.1498
897.20 0.1494
897.30 0.1489
897.40 0.1485
897.50 0.1481
897.60 0.1476
897.70 0.1472
897.80 0.1468
897.90 0.1463
898.00 0.1459
898.10 0.1455
898.20 0.145
898.30 0.1446
898.40 0.1442
898.50 0.1438
898.60 0.1433
898.70 0.1429
898.80 0.1425
898.90 0.142
899.00 0.1416
899.10 0.1412
899.20 0.1407
899.30 0.1403
899.40 0.1399
899.50 0.1395
899.60 0.139
899.70 0.1386
899.80 0.1382
899.90 0.1377
900.00 0.1373
900.10 0.1369
900.20 0.1365
900.30 0.136
900.40 0.1356
900.50 0.1352
900.60 0.1348
900.70 0.1343
900.80 0.1339
900.90 0.1335
901.00 0.1331
901.10 0.1326
901.20 0.1322
901.30 0.1318
901.40 0.1314
901.50 0.1309
901.60 0.1305
901.70 0.1301
901.80 0.1297
901.90 0.1292
902.00 0.1288
902.10 0.1291
902.20 0.1295
902.30 0.1298
902.40 0.1301
902.50 0.1304
902.60 0.1308
902.70 0.1311
902.80 0.1314
902.90 0.1318
903.00 0.1321
903.10 0.1324
903.20 0.1327
903.30 0.1331
903.40 0.1334
903.50 0.1337
903.60 0.134
903.70 0.1344
903.80 0.1347
903.90 0.135
904.00 0.1353
904.10 0.1357
904.20 0.136
904.30 0.1363
904.40 0.1366
904.50 0.137
904.60 0.1373
904.70 0.1376
904.80 0.1379
904.90 0.1382
905.00 0.1386
905.10 0.1389
905.20 0.1392
905.30 0.1395
905.40 0.1399
905.50 0.1402
905.60 0.1405
905.70 0.1408
905.80 0.1412
905.90 0.1415
906.00 0.1418
906.10 0.1421
906.20 0.1424
906.30 0.1428
906.40 0.1431
906.50 0.1434
906.60 0.1437
906.70 0.144
906.80 0.1444
906.90 0.1447
907.00 0.145
907.10 0.1451
907.20 0.1451
907.30 0.1452
907.40 0.1452
907.50 0.1452
907.60 0.1453
907.70 0.1453
907.80 0.1454
907.90 0.1454
908.00 0.1455
908.10 0.1455
908.20 0.1456
908.30 0.1456
908.40 0.1457
908.50 0.1457
908.60 0.1458
908.70 0.1458
908.80 0.1459
908.90 0.1459
909.00 0.146
909.10 0.146
909.20 0.146
909.30 0.1461
909.40 0.1461
909.50 0.1462
909.60 0.1462
909.70 0.1463
909.80 0.1463
909.90 0.1464
910.00 0.1464
910.10 0.1465
910.20 0.1465
910.30 0.1466
910.40 0.1466
910.50 0.1467
910.60 0.1467
910.70 0.1468
910.80 0.1468
910.90 0.1468
911.00 0.1469
911.10 0.1469
911.20 0.147
911.30 0.147
911.40 0.1471
911.50 0.1471
911.60 0.1472
911.70 0.1472
911.80 0.1473
911.90 0.1473
912.00 0.1474
912.10 0.1472
912.20 0.147
912.30 0.1468
912.40 0.1466
912.50 0.1464
912.60 0.1462
912.70 0.146
912.80 0.1458
912.90 0.1456
913.00 0.1454
913.10 0.1452
913.20 0.145
913.30 0.1448
913.40 0.1446
913.50 0.1445
913.60 0.1443
913.70 0.1441
913.80 0.1439
913.90 0.1437
914.00 0.1435
914.10 0.1433
914.20 0.1431
914.30 0.1429
914.40 0.1427
914.50 0.1425
914.60 0.1423
914.70 0.1421
914.80 0.1419
914.90 0.1418
915.00 0.1416
915.10 0.1414
915.20 0.1412
915.30 0.141
915.40 0.1408
915.50 0.1406
915.60 0.1404
915.70 0.1402
915.80 0.14
915.90 0.1398
916.00 0.1396
916.10 0.1395
916.20 0.1393
916.30 0.1391
916.40 0.1389
916.50 0.1387
916.60 0.1385
916.70 0.1383
916.80 0.1381
916.90 0.1379
917.00 0.1377
917.10 0.1372
917.20 0.1367
917.30 0.1361
917.40 0.1356
917.50 0.1351
917.60 0.1345
917.70 0.134
917.80 0.1335
917.90 0.1329
918.00 0.1324
918.10 0.1319
918.20 0.1313
918.30 0.1308
918.40 0.1303
918.50 0.1297
918.60 0.1292
918.70 0.1287
918.80 0.1281
918.90 0.1276
919.00 0.1271
919.10 0.1265
919.20 0.126
919.30 0.1255
919.40 0.1249
919.50 0.1244
919.60 0.1239
919.70 0.1234
919.80 0.1228
919.90 0.1223
920.00 0.1218
920.10 0.1212
920.20 0.1207
920.30 0.1202
920.40 0.1196
920.50 0.1191
920.60 0.1186
920.70 0.1181
920.80 0.1175
920.90 0.117
921.00 0.1165
921.10 0.116
921.20 0.1154
921.30 0.1149
921.40 0.1144
921.50 0.1138
921.60 0.1133
921.70 0.1128
921.80 0.1123
921.90 0.1117
922.00 0.1112
922.10 0.1115
922.20 0.1117
922.30 0.112
922.40 0.1122
922.50 0.1125
922.60 0.1127
922.70 0.113
922.80 0.1132
922.90 0.1135
923.00 0.1137
923.10 0.114
923.20 0.1142
923.30 0.1145
923.40 0.1147
923.50 0.115
923.60 0.1152
923.70 0.1155
923.80 0.1157
923.90 0.116
924.00 0.1162
924.10 0.1165
924.20 0.1167
924.30 0.117
924.40 0.1172
924.50 0.1175
924.60 0.1177
924.70 0.118
924.80 0.1182
924.90 0.1185
925.00 0.1187
925.10 0.119
925.20 0.1192
925.30 0.1195
925.40 0.1197
925.50 0.12
925.60 0.1202
925.70 0.1205
925.80 0.1207
925.90 0.1209
926.00 0.1212
926.10 0.1214
926.20 0.1217
926.30 0.1219
926.40 0.1222
926.50 0.1224
926.60 0.1227
926.70 0.1229
926.80 0.1232
926.90 0.1234
927.00 0.1237
927.10 0.1239
927.20 0.124
927.30 0.1242
927.40 0.1244
927.50 0.1246
927.60 0.1248
927.70 0.125
927.80 0.1252
927.90 0.1254
928.00 0.1256
928.10 0.1258
928.20 0.126
928.30 0.1262
928.40 0.1264
928.50 0.1266
928.60 0.1268
928.70 0.127
928.80 0.1271
928.90 0.1273
929.00 0.1275
929.10 0.1277
929.20 0.1279
929.30 0.1281
929.40 0.1283
929.50 0.1285
929.60 0.1287
929.70 0.1289
929.80 0.1291
929.90 0.1293
930.00 0.1295
930.10 0.1296
930.20 0.1298
930.30 0.13
930.40 0.1302
930.50 0.1304
930.60 0.1306
930.70 0.1308
930.80 0.131
930.90 0.1312
931.00 0.1314
931.10 0.1316
931.20 0.1318
931.30 0.1319
931.40 0.1321
931.50 0.1323
931.60 0.1325
931.70 0.1327
931.80 0.1329
931.90 0.1331
932.00 0.1333
932.10 0.1333
932.20 0.1334
932.30 0.1334
932.40 0.1335
932.50 0.1336
932.60 0.1336
932.70 0.1337
932.80 0.1337
932.90 0.1338
933.00 0.1339
933.10 0.1339
933.20 0.134
933.30 0.134
933.40 0.1341
933.50 0.1341
933.60 0.1342
933.70 0.1343
933.80 0.1343
933.90 0.1344
934.00 0.1344
934.10 0.1345
934.20 0.1345
934.30 0.1346
934.40 0.1346
934.50 0.1346
934.60 0.1346
934.70 0.1346
934.80 0.1346
934.90 0.1346
935.00 0.1346
935.10 0.1346
935.20 0.1346
935.30 0.1346
935.40 0.1346
935.50 0.1346
935.60 0.1346
935.70 0.1346
935.80 0.1346
935.90 0.1346
936.00 0.1346
936.10 0.1346
936.20 0.1346
936.30 0.1346
936.40 0.1346
936.50 0.1346
936.60 0.1346
936.70 0.1346
936.80 0.1346
936.90 0.1346
937.00 0.1346
937.10 0.1346
937.20 0.1346
937.30 0.1345
937.40 0.1345
937.50 0.1344
937.60 0.1344
937.70 0.1344
937.80 0.1343
937.90 0.1343
938.00 0.1343
938.10 0.1342
938.20 0.1342
938.30 0.1342
938.40 0.1341
938.50 0.134
938.60 0.134
938.70 0.1339
938.80 0.1338
938.90 0.1338
939.00 0.1337
939.10 0.1337
939.20 0.1336
939.30 0.1335
939.40 0.1335
939.50 0.1334
939.60 0.1333
939.70 0.1333
939.80 0.1332
939.90 0.1331
940.00 0.1331
940.10 0.133
940.20 0.133
940.30 0.1329
940.40 0.1328
940.50 0.1327
940.60 0.1326
940.70 0.1325
940.80 0.1324
940.90 0.1323
941.00 0.1322
941.10 0.1321
941.20 0.132
941.30 0.1319
941.40 0.1318
941.50 0.1317
941.60 0.1316
941.70 0.1315
941.80 0.1314
941.90 0.1313
942.00 0.1312
942.10 0.1311
942.20 0.131
942.30 0.1309
942.40 0.1307
942.50 0.1306
942.60 0.1304
942.70 0.1303
942.80 0.1301
942.90 0.13
943.00 0.1298
943.10 0.1297
943.20 0.1296
943.30 0.1294
943.40 0.1293
943.50 0.1291
943.60 0.129
943.70 0.1288
943.80 0.1287
943.90 0.1285
944.00 0.1284
944.10 0.1282
944.20 0.1281
944.30 0.1279
944.40 0.1278
944.50 0.1276
944.60 0.1274
944.70 0.1272
944.80 0.127
944.90 0.1268
945.00 0.1266
945.10 0.1264
945.20 0.1262
945.30 0.1261
945.40 0.1258
945.50 0.1256
945.60 0.1254
945.70 0.1251
945.80 0.1249
945.90 0.1247
946.00 0.1244
946.10 0.1242
946.20 0.124
946.30 0.1237
946.40 0.1235
946.50 0.1233
946.60 0.123
946.70 0.1228
946.80 0.1226
946.90 0.1223
947.00 0.1221
947.10 0.1218
947.20 0.1215
947.30 0.1213
947.40 0.121
947.50 0.1206
947.60 0.1203
947.70 0.12
947.80 0.1197
947.90 0.1193
948.00 0.119
948.10 0.1187
948.20 0.1184
948.30 0.118
948.40 0.1177
948.50 0.1174
948.60 0.1171
948.70 0.1168
948.80 0.1164
948.90 0.1161
949.00 0.1158
949.10 0.1155
949.20 0.1151
949.30 0.1148
949.40 0.1144
949.50 0.114
949.60 0.1136
949.70 0.1131
949.80 0.1127
949.90 0.1123
950.00 0.1119
950.10 0.1114
950.20 0.111
950.30 0.1106
950.40 0.1102
950.50 0.1097
950.60 0.1093
950.70 0.1089
950.80 0.1085
950.90 0.1081
951.00 0.1076
951.10 0.1072
951.20 0.1068
951.30 0.1064
951.40 0.1059
951.50 0.1054
951.60 0.1049
951.70 0.1044
951.80 0.1039
951.90 0.1034
952.00 0.1029
952.10 0.1024
952.20 0.1019
952.30 0.1014
952.40 0.1008
952.50 0.1003
952.60 0.0998
952.70 0.09928
952.80 0.09875
952.90 0.09823
953.00 0.09771
953.10 0.09719
953.20 0.09667
953.30 0.09615
953.40 0.09563
953.50 0.09511
953.60 0.09468
953.70 0.09425
953.80 0.09382
953.90 0.09339
954.00 0.09328
954.10 0.09318
954.20 0.09363
954.30 0.09525
954.40 0.09354
954.50 0.09306
954.60 0.0931
954.70 0.09315
954.80 0.09352
954.90 0.09389
955.00 0.09426
955.10 0.09463
955.20 0.09508
955.30 0.09553
955.40 0.09599
955.50 0.09644
955.60 0.09689
955.70 0.09735
955.80 0.0978
955.90 0.09824
956.00 0.09867
956.10 0.09911
956.20 0.09955
956.30 0.09999
956.40 0.1004
956.50 0.1009
956.60 0.1013
956.70 0.1017
956.80 0.1022
956.90 0.1026
957.00 0.103
957.10 0.1034
957.20 0.1038
957.30 0.1042
957.40 0.1046
957.50 0.1049
957.60 0.1052
957.70 0.1056
957.80 0.1059
957.90 0.1063
958.00 0.1066
958.10 0.1069
958.20 0.1073
958.30 0.1076
958.40 0.1079
958.50 0.1083
958.60 0.1086
958.70 0.1089
958.80 0.1093
958.90 0.1096
959.00 0.1099
959.10 0.1103
959.20 0.1106
959.30 0.1109
959.40 0.1112
959.50 0.1114
959.60 0.1116
959.70 0.1118
959.80 0.1121
959.90 0.1123
960.00 0.1125
960.10 0.1128
960.20 0.113
960.30 0.1132
960.40 0.1134
960.50 0.1137
960.60 0.1139
960.70 0.1141
960.80 0.1143
960.90 0.1146
961.00 0.1148
961.10 0.115
961.20 0.1153
961.30 0.1155
961.40 0.1157
961.50 0.1158
961.60 0.116
961.70 0.1162
961.80 0.1163
961.90 0.1165
962.00 0.1167
962.10 0.1168
962.20 0.1169
962.30 0.1171
962.40 0.1172
962.50 0.1173
962.60 0.1175
962.70 0.1176
962.80 0.1177
962.90 0.1179
963.00 0.118
963.10 0.1181
963.20 0.1183
963.30 0.1184
963.40 0.1185
963.50 0.1186
963.60 0.1187
963.70 0.1188
963.80 0.1189
963.90 0.119
964.00 0.1191
964.10 0.1192
964.20 0.1193
964.30 0.1194
964.40 0.1194
964.50 0.1195
964.60 0.1196
964.70 0.1196
964.80 0.1197
964.90 0.1197
965.00 0.1198
965.10 0.1199
965.20 0.1199
965.30 0.12
965.40 0.1201
965.50 0.1201
965.60 0.1202
965.70 0.1203
965.80 0.1203
965.90 0.1204
966.00 0.1204
966.10 0.1205
966.20 0.1206
966.30 0.1206
966.40 0.1207
966.50 0.1207
966.60 0.1207
966.70 0.1208
966.80 0.1208
966.90 0.1209
967.00 0.1209
967.10 0.1209
967.20 0.1209
967.30 0.121
967.40 0.121
967.50 0.121
967.60 0.121
967.70 0.1211
967.80 0.1211
967.90 0.1211
968.00 0.1211
968.10 0.1212
968.20 0.1212
968.30 0.1212
968.40 0.1212
968.50 0.1212
968.60 0.1212
968.70 0.1212
968.80 0.1212
968.90 0.1212
969.00 0.1212
969.10 0.1212
969.20 0.1212
969.30 0.1212
969.40 0.1212
969.50 0.1213
969.60 0.1213
969.70 0.1213
969.80 0.1213
969.90 0.1213
970.00 0.1213
970.10 0.1213
970.20 0.1213
970.30 0.1213
970.40 0.1213
970.50 0.1213
970.60 0.1213
970.70 0.1212
970.80 0.1212
970.90 0.1212
971.00 0.1212
971.10 0.1212
971.20 0.1212
971.30 0.1212
971.40 0.1212
971.50 0.1212
971.60 0.1212
971.70 0.1211
971.80 0.1211
971.90 0.1211
972.00 0.1211
972.10 0.1211
972.20 0.1211
972.30 0.1211
972.40 0.121
972.50 0.121
972.60 0.121
972.70 0.121
972.80 0.1209
972.90 0.1209
973.00 0.1209
973.10 0.1209
973.20 0.1209
973.30 0.1208
973.40 0.1208
973.50 0.1208
973.60 0.1208
973.70 0.1208
973.80 0.1207
973.90 0.1207
974.00 0.1207
974.10 0.1207
974.20 0.1206
974.30 0.1206
974.40 0.1206
974.50 0.1206
974.60 0.1205
974.70 0.1205
974.80 0.1205
974.90 0.1204
975.00 0.1204
975.10 0.1204
975.20 0.1203
975.30 0.1203
975.40 0.1203
975.50 0.1202
975.60 0.1202
975.70 0.1202
975.80 0.1201
975.90 0.1201
976.00 0.1201
976.10 0.12
976.20 0.12
976.30 0.12
976.40 0.1199
976.50 0.1199
976.60 0.1199
976.70 0.1199
976.80 0.1198
976.90 0.1198
977.00 0.1198
977.10 0.1197
977.20 0.1197
977.30 0.1196
977.40 0.1196
977.50 0.1195
977.60 0.1195
977.70 0.1194
977.80 0.1194
977.90 0.1194
978.00 0.1193
978.10 0.1193
978.20 0.1192
978.30 0.1192
978.40 0.1191
978.50 0.1191
978.60 0.1191
978.70 0.119
978.80 0.119
978.90 0.1189
979.00 0.1189
979.10 0.1188
979.20 0.1188
979.30 0.1188
979.40 0.1187
979.50 0.1187
979.60 0.1186
979.70 0.1186
979.80 0.1185
979.90 0.1185
980.00 0.1184
980.10 0.1184
980.20 0.1184
980.30 0.1183
980.40 0.1183
980.50 0.1182
980.60 0.1182
980.70 0.1181
980.80 0.1181
980.90 0.1181
981.00 0.118
981.10 0.118
981.20 0.1179
981.30 0.1179
981.40 0.1178
981.50 0.1178
981.60 0.1178
981.70 0.1177
981.80 0.1177
981.90 0.1176
982.00 0.1176
982.10 0.1175
982.20 0.1175
982.30 0.1174
982.40 0.1174
982.50 0.1173
982.60 0.1172
982.70 0.1172
982.80 0.1171
982.90 0.1171
983.00 0.117
983.10 0.117
983.20 0.1169
983.30 0.1169
983.40 0.1168
983.50 0.1167
983.60 0.1167
983.70 0.1166
983.80 0.1166
983.90 0.1165
984.00 0.1165
984.10 0.1164
984.20 0.1164
984.30 0.1163
984.40 0.1162
984.50 0.1162
984.60 0.1161
984.70 0.1161
984.80 0.116
984.90 0.1159
985.00 0.1159
985.10 0.1158
985.20 0.1157
985.30 0.1157
985.40 0.1156
985.50 0.1155
985.60 0.1155
985.70 0.1154
985.80 0.1153
985.90 0.1153
986.00 0.1152
986.10 0.1151
986.20 0.1151
986.30 0.115
986.40 0.1149
986.50 0.1149
986.60 0.1148
986.70 0.1147
986.80 0.1147
986.90 0.1146
987.00 0.1145
987.10 0.1145
987.20 0.1144
987.30 0.1143
987.40 0.1142
987.50 0.1142
987.60 0.1141
987.70 0.114
987.80 0.1139
987.90 0.1139
988.00 0.1138
988.10 0.1137
988.20 0.1136
988.30 0.1136
988.40 0.1135
988.50 0.1134
988.60 0.1133
988.70 0.1132
988.80 0.1132
988.90 0.1131
989.00 0.113
989.10 0.1129
989.20 0.1128
989.30 0.1127
989.40 0.1126
989.50 0.1125
989.60 0.1124
989.70 0.1123
989.80 0.1122
989.90 0.1121
990.00 0.1121
990.10 0.112
990.20 0.1119
990.30 0.1118
990.40 0.1117
990.50 0.1116
990.60 0.1115
990.70 0.1114
990.80 0.1113
990.90 0.1112
991.00 0.1111
991.10 0.111
991.20 0.1109
991.30 0.1108
991.40 0.1107
991.50 0.1106
991.60 0.1104
991.70 0.1103
991.80 0.1102
991.90 0.1101
992.00 0.11
992.10 0.1099
992.20 0.1098
992.30 0.1097
992.40 0.1095
992.50 0.1094
992.60 0.1093
992.70 0.1091
992.80 0.109
992.90 0.1089
993.00 0.1087
993.10 0.1086
993.20 0.1084
993.30 0.1083
993.40 0.1081
993.50 0.108
993.60 0.1079
993.70 0.1077
993.80 0.1076
993.90 0.1074
994.00 0.1073
994.10 0.1072
994.20 0.107
994.30 0.1069
994.40 0.1067
994.50 0.1066
994.60 0.1065
994.70 0.1063
994.80 0.1061
994.90 0.1059
995.00 0.1058
995.10 0.1056
995.20 0.1054
995.30 0.1053
995.40 0.1051
995.50 0.1049
995.60 0.1047
995.70 0.1046
995.80 0.1044
995.90 0.1042
996.00 0.104
996.10 0.1038
996.20 0.1036
996.30 0.1034
996.40 0.1032
996.50 0.103
996.60 0.1028
996.70 0.1026
996.80 0.1024
996.90 0.1022
997.00 0.102
997.10 0.1017
997.20 0.1015
997.30 0.1013
997.40 0.1011
997.50 0.1008
997.60 0.1006
997.70 0.1004
997.80 0.1001
997.90 0.09981
998.00 0.09954
998.10 0.09927
998.20 0.099
998.30 0.09873
998.40 0.09845
998.50 0.09818
998.60 0.09791
998.70 0.09764
998.80 0.09737
998.90 0.0971
999.00 0.09683
999.10 0.09656
999.20 0.09628
999.30 0.09601
999.40 0.09574
999.50 0.09547
999.60 0.0952
999.70 0.09487
999.80 0.09452
999.90 0.09417
1000.00 0.09382
1000.10 0.09347
1000.20 0.09312
1000.30 0.09277
1000.40 0.09242
1000.50 0.09207
1000.60 0.09172
1000.70 0.09137
1000.80 0.09102
1000.90 0.09067
1001.00 0.09032
1001.10 0.08997
1001.20 0.08962
1001.30 0.08927
1001.40 0.08893
1001.50 0.08858
1001.60 0.08823
1001.70 0.08784
1001.80 0.08744
1001.90 0.08704
1002.00 0.08664
1002.10 0.08621
1002.20 0.08577
1002.30 0.08534
1002.40 0.0849
1002.50 0.08446
1002.60 0.08403
1002.70 0.08359
1002.80 0.08316
1002.90 0.08272
1003.00 0.08229
1003.10 0.08186
1003.20 0.08137
1003.30 0.08088
1003.40 0.08038
1003.50 0.07989
1003.60 0.07939
1003.70 0.0789
1003.80 0.0784
1003.90 0.07785
1004.00 0.07728
1004.10 0.07672
1004.20 0.07615
1004.30 0.07555
1004.40 0.07494
1004.50 0.07444
1004.60 0.07489
1004.70 0.07436
1004.80 0.07458
1004.90 0.07513
1005.00 0.0757
1005.10 0.07622
1005.20 0.07674
1005.30 0.07726
1005.40 0.07778
1005.50 0.07824
1005.60 0.07868
1005.70 0.07912
1005.80 0.07956
1005.90 0.08
1006.00 0.08044
1006.10 0.08088
1006.20 0.08128
1006.30 0.08166
1006.40 0.08204
1006.50 0.08242
1006.60 0.0828
1006.70 0.08318
1006.80 0.08356
1006.90 0.08395
1007.00 0.08433
1007.10 0.08467
1007.20 0.08501
1007.30 0.08535
1007.40 0.08569
1007.50 0.08603
1007.60 0.08637
1007.70 0.08667
1007.80 0.08695
1007.90 0.08723
1008.00 0.08751
1008.10 0.08779
1008.20 0.08807
1008.30 0.08835
1008.40 0.08863
1008.50 0.08891
1008.60 0.08919
1008.70 0.08946
1008.80 0.08974
1008.90 0.09002
1009.00 0.0903
1009.10 0.09058
1009.20 0.09086
1009.30 0.09114
1009.40 0.09142
1009.50 0.09169
1009.60 0.09197
1009.70 0.09219
1009.80 0.09238
1009.90 0.09258
1010.00 0.09277
1010.10 0.09297
1010.20 0.09316
1010.30 0.09336
1010.40 0.09355
1010.50 0.09375
1010.60 0.09394
1010.70 0.09413
1010.80 0.09433
1010.90 0.09452
1011.00 0.09472
1011.10 0.09491
1011.20 0.09511
1011.30 0.0953
1011.40 0.09549
1011.50 0.09569
1011.60 0.09588
1011.70 0.09604
1011.80 0.0962
1011.90 0.09635
1012.00 0.09651
1012.10 0.09663
1012.20 0.09676
1012.30 0.09688
1012.40 0.097
1012.50 0.09712
1012.60 0.09725
1012.70 0.09737
1012.80 0.09749
1012.90 0.09762
1013.00 0.09774
1013.10 0.09786
1013.20 0.09798
1013.30 0.09811
1013.40 0.09823
1013.50 0.09835
1013.60 0.09847
1013.70 0.09857
1013.80 0.09866
1013.90 0.09875
1014.00 0.09885
1014.10 0.09894
1014.20 0.09903
1014.30 0.09912
1014.40 0.09921
1014.50 0.0993
1014.60 0.09939
1014.70 0.09946
1014.80 0.09952
1014.90 0.09958
1015.00 0.09965
1015.10 0.09971
1015.20 0.09977
1015.30 0.09983
1015.40 0.09989
1015.50 0.09995
1015.60 0.1
1015.70 0.1001
1015.80 0.1001
1015.90 0.1002
1016.00 0.1003
1016.10 0.1003
1016.20 0.1004
1016.30 0.1004
1016.40 0.1005
1016.50 0.1006
1016.60 0.1006
1016.70 0.1007
1016.80 0.1007
1016.90 0.1008
1017.00 0.1008
1017.10 0.1008
1017.20 0.1009
1017.30 0.1009
1017.40 0.1009
1017.50 0.101
1017.60 0.101
1017.70 0.101
1017.80 0.101
1017.90 0.1011
1018.00 0.1011
1018.10 0.1011
1018.20 0.1012
1018.30 0.1012
1018.40 0.1012
1018.50 0.1013
1018.60 0.1013
1018.70 0.1013
1018.80 0.1013
1018.90 0.1013
1019.00 0.1013
1019.10 0.1014
1019.20 0.1014
1019.30 0.1014
1019.40 0.1014
1019.50 0.1014
1019.60 0.1014
1019.70 0.1014
1019.80 0.1014
1019.90 0.1015
1020.00 0.1015
1020.10 0.1015
1020.20 0.1015
1020.30 0.1015
1020.40 0.1015
1020.50 0.1015
1020.60 0.1015
1020.70 0.1015
1020.80 0.1015
1020.90 0.1015
1021.00 0.1015
1021.10 0.1015
1021.20 0.1015
1021.30 0.1015
1021.40 0.1015
1021.50 0.1015
1021.60 0.1015
1021.70 0.1015
1021.80 0.1015
1021.90 0.1015
1022.00 0.1015
1022.10 0.1015
1022.20 0.1015
1022.30 0.1015
1022.40 0.1015
1022.50 0.1015
1022.60 0.1015
1022.70 0.1015
1022.80 0.1015
1022.90 0.1014
1023.00 0.1014
1023.10 0.1014
1023.20 0.1014
1023.30 0.1014
1023.40 0.1014
1023.50 0.1014
1023.60 0.1014
1023.70 0.1014
1023.80 0.1014
1023.90 0.1013
1024.00 0.1013
1024.10 0.1013
1024.20 0.1013
1024.30 0.1013
1024.40 0.1013
1024.50 0.1013
1024.60 0.1013
1024.70 0.1013
1024.80 0.1012
1024.90 0.1012
1025.00 0.1012
1025.10 0.1012
1025.20 0.1012
1025.30 0.1011
1025.40 0.1011
1025.50 0.1011
1025.60 0.1011
1025.70 0.1011
1025.80 0.101
1025.90 0.101
1026.00 0.101
1026.10 0.101
1026.20 0.101
1026.30 0.101
1026.40 0.1009
1026.50 0.1009
1026.60 0.1009
1026.70 0.1009
1026.80 0.1009
1026.90 0.1008
1027.00 0.1008
1027.10 0.1008
1027.20 0.1008
1027.30 0.1007
1027.40 0.1007
1027.50 0.1007
1027.60 0.1007
1027.70 0.1006
1027.80 0.1006
1027.90 0.1006
1028.00 0.1006
1028.10 0.1005
1028.20 0.1005
1028.30 0.1005
1028.40 0.1005
1028.50 0.1004
1028.60 0.1004
1028.70 0.1004
1028.80 0.1004
1028.90 0.1003
1029.00 0.1003
1029.10 0.1003
1029.20 0.1003
1029.30 0.1002
1029.40 0.1002
1029.50 0.1002
1029.60 0.1002
1029.70 0.1001
1029.80 0.1001
1029.90 0.1001
1030.00 0.1001
1030.10 0.1
1030.20 0.1
1030.30 0.09998
1030.40 0.09996
1030.50 0.09993
1030.60 0.09991
1030.70 0.09988
1030.80 0.09986
1030.90 0.09983
1031.00 0.09981
1031.10 0.09978
1031.20 0.09976
1031.30 0.09973
1031.40 0.09971
1031.50 0.09968
1031.60 0.09966
1031.70 0.09963
1031.80 0.09961
1031.90 0.09958
1032.00 0.09956
1032.10 0.09953
1032.20 0.0995
1032.30 0.09947
1032.40 0.09944
1032.50 0.09941
1032.60 0.09938
1032.70 0.09935
1032.80 0.09932
1032.90 0.09929
1033.00 0.09926
1033.10 0.09923
1033.20 0.0992
1033.30 0.09917
1033.40 0.09914
1033.50 0.09911
1033.60 0.09908
1033.70 0.09905
1033.80 0.09902
1033.90 0.09899
1034.00 0.09896
1034.10 0.09893
1034.20 0.0989
1034.30 0.09887
1034.40 0.09884
1034.50 0.09881
1034.60 0.09878
1034.70 0.09875
1034.80 0.09872
1034.90 0.09869
1035.00 0.09866
1035.10 0.09863
1035.20 0.0986
1035.30 0.09857
1035.40 0.09854
1035.50 0.09851
1035.60 0.09848
1035.70 0.09845
1035.80 0.09843
1035.90 0.0984
1036.00 0.09837
1036.10 0.09834
1036.20 0.09831
1036.30 0.09828
1036.40 0.09825
1036.50 0.09822
1036.60 0.09819
1036.70 0.09816
1036.80 0.09813
1036.90 0.0981
1037.00 0.09807
1037.10 0.09804
1037.20 0.09801
1037.30 0.09798
1037.40 0.09794
1037.50 0.09791
1037.60 0.09788
1037.70 0.09785
1037.80 0.09782
1037.90 0.09778
1038.00 0.09775
1038.10 0.09772
1038.20 0.09769
1038.30 0.09766
1038.40 0.09763
1038.50 0.09759
1038.60 0.09756
1038.70 0.09753
1038.80 0.0975
1038.90 0.09747
1039.00 0.09744
1039.10 0.09741
1039.20 0.09737
1039.30 0.09734
1039.40 0.09731
1039.50 0.09728
1039.60 0.09725
1039.70 0.09722
1039.80 0.09718
1039.90 0.09715
1040.00 0.09712
1040.10 0.09709
1040.20 0.09706
1040.30 0.09703
1040.40 0.097
1040.50 0.09696
1040.60 0.09693
1040.70 0.0969
1040.80 0.09687
1040.90 0.09684
1041.00 0.09681
1041.10 0.09678
1041.20 0.09675
1041.30 0.09671
1041.40 0.09668
1041.50 0.09665
1041.60 0.09662
1041.70 0.09659
1041.80 0.09656
1041.90 0.09653
1042.00 0.09649
1042.10 0.09646
1042.20 0.09643
1042.30 0.0964
1042.40 0.09636
1042.50 0.09633
1042.60 0.0963
1042.70 0.09627
1042.80 0.09624
1042.90 0.0962
1043.00 0.09617
1043.10 0.09614
1043.20 0.09611
1043.30 0.09607
1043.40 0.09604
1043.50 0.09601
1043.60 0.09598
1043.70 0.09594
1043.80 0.09591
1043.90 0.09588
1044.00 0.09585
1044.10 0.09581
1044.20 0.09578
1044.30 0.09575
1044.40 0.09572
1044.50 0.09569
1044.60 0.09565
1044.70 0.09562
1044.80 0.09559
1044.90 0.09556
1045.00 0.09552
1045.10 0.09549
1045.20 0.09546
1045.30 0.09543
1045.40 0.0954
1045.50 0.09536
1045.60 0.09533
1045.70 0.0953
1045.80 0.09527
1045.90 0.09523
1046.00 0.0952
1046.10 0.09517
1046.20 0.09514
1046.30 0.09511
1046.40 0.09507
1046.50 0.09504
1046.60 0.09501
1046.70 0.09498
1046.80 0.09495
1046.90 0.09491
1047.00 0.09488
1047.10 0.09485
1047.20 0.09482
1047.30 0.09478
1047.40 0.09475
1047.50 0.09472
1047.60 0.09469
1047.70 0.09465
1047.80 0.09462
1047.90 0.09459
1048.00 0.09456
1048.10 0.09452
1048.20 0.09449
1048.30 0.09446
1048.40 0.09442
1048.50 0.09439
1048.60 0.09436
1048.70 0.09433
1048.80 0.09429
1048.90 0.09426
1049.00 0.09423
1049.10 0.0942
1049.20 0.09416
1049.30 0.09413
1049.40 0.0941
1049.50 0.09407
1049.60 0.09403
1049.70 0.094
1049.80 0.09397
1049.90 0.09394
1050.00 0.0939
1050.10 0.09387
1050.20 0.09384
1050.30 0.09381
1050.40 0.09377
1050.50 0.09374
1050.60 0.09371
1050.70 0.09368
1050.80 0.09365
1050.90 0.09361
1051.00 0.09358
1051.10 0.09355
1051.20 0.09352
1051.30 0.09348
1051.40 0.09345
1051.50 0.09342
1051.60 0.09339
1051.70 0.09335
1051.80 0.09332
1051.90 0.09329
1052.00 0.09326
1052.10 0.09322
1052.20 0.09319
1052.30 0.09316
1052.40 0.09313
1052.50 0.09309
1052.60 0.09306
1052.70 0.09303
1052.80 0.09299
1052.90 0.09296
1053.00 0.09293
1053.10 0.0929
1053.20 0.09286
1053.30 0.09283
1053.40 0.0928
1053.50 0.09276
1053.60 0.09273
1053.70 0.0927
1053.80 0.09266
1053.90 0.09263
1054.00 0.0926
1054.10 0.09257
1054.20 0.09253
1054.30 0.0925
1054.40 0.09247
1054.50 0.09243
1054.60 0.0924
1054.70 0.09237
1054.80 0.09234
1054.90 0.0923
1055.00 0.09227
1055.10 0.09224
1055.20 0.09221
1055.30 0.09217
1055.40 0.09214
1055.50 0.09211
1055.60 0.09207
1055.70 0.09204
1055.80 0.09201
1055.90 0.09198
1056.00 0.09194
1056.10 0.09191
1056.20 0.09188
1056.30 0.09185
1056.40 0.09181
1056.50 0.09178
1056.60 0.09175
1056.70 0.09172
1056.80 0.09168
1056.90 0.09165
1057.00 0.09162
1057.10 0.09158
1057.20 0.09155
1057.30 0.09152
1057.40 0.09148
1057.50 0.09145
1057.60 0.09142
1057.70 0.09138
1057.80 0.09135
1057.90 0.09132
1058.00 0.09128
1058.10 0.09125
1058.20 0.09121
1058.30 0.09118
1058.40 0.09115
1058.50 0.09111
1058.60 0.09108
1058.70 0.09105
1058.80 0.09101
1058.90 0.09098
1059.00 0.09095
1059.10 0.09091
1059.20 0.09088
1059.30 0.09085
1059.40 0.09081
1059.50 0.09078
1059.60 0.09075
1059.70 0.09071
1059.80 0.09068
1059.90 0.09065
1060.00 0.09061
1060.10 0.09058
1060.20 0.09055
1060.30 0.09051
1060.40 0.09048
1060.50 0.09045
1060.60 0.09041
1060.70 0.09038
1060.80 0.09035
1060.90 0.09031
1061.00 0.09028
1061.10 0.09025
1061.20 0.09021
1061.30 0.09018
1061.40 0.09015
1061.50 0.09011
1061.60 0.09008
1061.70 0.09005
1061.80 0.09001
1061.90 0.08998
1062.00 0.08995
1062.10 0.08991
1062.20 0.08988
1062.30 0.08984
1062.40 0.08981
1062.50 0.08977
1062.60 0.08974
1062.70 0.0897
1062.80 0.08967
1062.90 0.08963
1063.00 0.0896
1063.10 0.08956
1063.20 0.08953
1063.30 0.08949
1063.40 0.08946
1063.50 0.08942
1063.60 0.08939
1063.70 0.08935
1063.80 0.08932
1063.90 0.08928
1064.00 0.08925
1064.10 0.08921
1064.20 0.08918
1064.30 0.08914
1064.40 0.08911
1064.50 0.08907
1064.60 0.08904
1064.70 0.089
1064.80 0.08897
1064.90 0.08893
1065.00 0.0889
1065.10 0.08886
1065.20 0.08883
1065.30 0.08879
1065.40 0.08876
1065.50 0.08872
1065.60 0.08869
1065.70 0.08865
1065.80 0.08862
1065.90 0.08859
1066.00 0.08855
1066.10 0.08852
1066.20 0.08848
1066.30 0.08845
1066.40 0.08841
1066.50 0.08838
1066.60 0.08834
1066.70 0.08831
1066.80 0.08827
1066.90 0.08824
1067.00 0.0882
1067.10 0.08817
1067.20 0.08813
1067.30 0.08809
1067.40 0.08805
1067.50 0.08801
1067.60 0.08797
1067.70 0.08793
1067.80 0.08789
1067.90 0.08785
1068.00 0.08781
1068.10 0.08777
1068.20 0.08774
1068.30 0.0877
1068.40 0.08766
1068.50 0.08762
1068.60 0.08758
1068.70 0.08754
1068.80 0.0875
1068.90 0.08746
1069.00 0.08742
1069.10 0.08738
1069.20 0.08735
1069.30 0.08731
1069.40 0.08727
1069.50 0.08723
1069.60 0.08719
1069.70 0.08715
1069.80 0.08711
1069.90 0.08707
1070.00 0.08703
1070.10 0.087
1070.20 0.08696
1070.30 0.08692
1070.40 0.08688
1070.50 0.08684
1070.60 0.0868
1070.70 0.08676
1070.80 0.08672
1070.90 0.08669
1071.00 0.08665
1071.10 0.08661
1071.20 0.08657
1071.30 0.08653
1071.40 0.08649
1071.50 0.08645
1071.60 0.08641
1071.70 0.08638
1071.80 0.08634
1071.90 0.0863
1072.00 0.08626
1072.10 0.08622
1072.20 0.08617
1072.30 0.08613
1072.40 0.08609
1072.50 0.08605
1072.60 0.086
1072.70 0.08596
1072.80 0.08592
1072.90 0.08587
1073.00 0.08583
1073.10 0.08579
1073.20 0.08575
1073.30 0.0857
1073.40 0.08566
1073.50 0.08562
1073.60 0.08556
1073.70 0.08551
1073.80 0.08546
1073.90 0.08541
1074.00 0.08536
1074.10 0.08531
1074.20 0.08526
1074.30 0.08521
1074.40 0.08516
1074.50 0.08511
1074.60 0.08506
1074.70 0.08501
1074.80 0.08496
1074.90 0.08491
1075.00 0.08486
1075.10 0.08481
1075.20 0.08476
1075.30 0.08471
1075.40 0.08466
1075.50 0.08461
1075.60 0.08456
1075.70 0.08451
1075.80 0.08446
1075.90 0.08441
1076.00 0.08436
1076.10 0.08431
1076.20 0.08426
1076.30 0.08421
1076.40 0.08416
1076.50 0.08411
1076.60 0.08406
1076.70 0.08401
1076.80 0.08396
1076.90 0.08391
1077.00 0.08386
1077.10 0.0838
1077.20 0.08375
1077.30 0.08369
1077.40 0.08363
1077.50 0.08357
1077.60 0.08351
1077.70 0.08344
1077.80 0.08338
1077.90 0.08331
1078.00 0.08325
1078.10 0.08318
1078.20 0.08312
1078.30 0.08305
1078.40 0.08299
1078.50 0.08292
1078.60 0.08286
1078.70 0.08279
1078.80 0.08273
1078.90 0.08267
1079.00 0.0826
1079.10 0.08254
1079.20 0.08247
1079.30 0.08241
1079.40 0.08234
1079.50 0.08227
1079.60 0.08219
1079.70 0.08212
1079.80 0.08204
1079.90 0.08196
1080.00 0.08188
1080.10 0.0818
1080.20 0.08172
1080.30 0.08165
1080.40 0.08157
1080.50 0.08149
1080.60 0.08141
1080.70 0.08133
1080.80 0.08126
1080.90 0.08118
1081.00 0.0811
1081.10 0.08102
1081.20 0.08094
1081.30 0.08087
1081.40 0.08079
1081.50 0.08071
1081.60 0.08062
1081.70 0.08053
1081.80 0.08044
1081.90 0.08036
1082.00 0.08027
1082.10 0.08017
1082.20 0.08007
1082.30 0.07997
1082.40 0.07986
1082.50 0.07976
1082.60 0.07966
1082.70 0.07956
1082.80 0.07946
1082.90 0.07936
1083.00 0.07926
1083.10 0.07916
1083.20 0.07906
1083.30 0.07896
1083.40 0.07886
1083.50 0.07875
1083.60 0.07864
1083.70 0.07852
1083.80 0.07841
1083.90 0.07829
1084.00 0.07818
1084.10 0.07807
1084.20 0.07795
1084.30 0.07784
1084.40 0.07772
1084.50 0.0776
1084.60 0.07746
1084.70 0.07731
1084.80 0.07717
1084.90 0.07703
1085.00 0.07689
1085.10 0.07674
1085.20 0.0766
1085.30 0.07646
1085.40 0.07632
1085.50 0.07617
1085.60 0.07603
1085.70 0.07589
1085.80 0.07575
1085.90 0.0756
1086.00 0.07546
1086.10 0.07532
1086.20 0.07518
1086.30 0.07503
1086.40 0.07489
1086.50 0.07474
1086.60 0.07458
1086.70 0.07441
1086.80 0.07425
1086.90 0.07409
1087.00 0.07392
1087.10 0.07373
1087.20 0.07354
1087.30 0.07334
1087.40 0.07315
1087.50 0.07296
1087.60 0.07277
1087.70 0.07257
1087.80 0.07238
1087.90 0.07219
1088.00 0.072
1088.10 0.0718
1088.20 0.07161
1088.30 0.07142
1088.40 0.07123
1088.50 0.07102
1088.60 0.07078
1088.70 0.07054
1088.80 0.07029
1088.90 0.07005
1089.00 0.06981
1089.10 0.06957
1089.20 0.06933
1089.30 0.06909
1089.40 0.06884
1089.50 0.0686
1089.60 0.06836
1089.70 0.06812
1089.80 0.06788
1089.90 0.06764
1090.00 0.0674
1090.10 0.06716
1090.20 0.06692
1090.30 0.06668
1090.40 0.06644
1090.50 0.06618
1090.60 0.06588
1090.70 0.06557
1090.80 0.06527
1090.90 0.06497
1091.00 0.06467
1091.10 0.06437
1091.20 0.06407
1091.30 0.06377
1091.40 0.06347
1091.50 0.06317
1091.60 0.06288
1091.70 0.06258
1091.80 0.06228
1091.90 0.06198
1092.00 0.06166
1092.10 0.06129
1092.20 0.06091
1092.30 0.06053
1092.40 0.06015
1092.50 0.05977
1092.60 0.0594
1092.70 0.05898
1092.80 0.05846
1092.90 0.05794
1093.00 0.05742
1093.10 0.05682
1093.20 0.05604
1093.30 0.05525
1093.40 0.05443
1093.50 0.05439
1093.60 0.05488
1093.70 0.05569
1093.80 0.05643
1093.90 0.05709
1094.00 0.05758
1094.10 0.05806
1094.20 0.05854
1094.30 0.05897
1094.40 0.05931
1094.50 0.05965
1094.60 0.05999
1094.70 0.06032
1094.80 0.06066
1094.90 0.061
1095.00 0.06131
1095.10 0.06157
1095.20 0.06182
1095.30 0.06208
1095.40 0.06234
1095.50 0.06259
1095.60 0.06285
1095.70 0.06311
1095.80 0.06336
1095.90 0.06362
1096.00 0.06388
1096.10 0.06413
1096.20 0.06439
1096.30 0.06465
1096.40 0.0649
1096.50 0.06514
1096.60 0.06536
1096.70 0.06558
1096.80 0.0658
1096.90 0.06601
1097.00 0.06623
1097.10 0.06641
1097.20 0.0666
1097.30 0.06678
1097.40 0.06696
1097.50 0.06715
1097.60 0.06733
1097.70 0.06752
1097.80 0.0677
1097.90 0.06788
1098.00 0.06807
1098.10 0.06825
1098.20 0.06843
1098.30 0.06862
1098.40 0.0688
1098.50 0.06897
1098.60 0.0691
1098.70 0.06923
1098.80 0.06936
1098.90 0.06949
1099.00 0.06963
1099.10 0.06976
1099.20 0.06989
1099.30 0.07002
1099.40 0.07015
1099.50 0.07029
1099.60 0.07042
1099.70 0.07055
1099.80 0.07068
1099.90 0.07081
1100.00 0.07095
1100.10 0.07108
1100.20 0.07121
1100.30 0.07134
1100.40 0.07147
1100.50 0.07159
1100.60 0.07168
1100.70 0.07177
1100.80 0.07186
1100.90 0.07195
1101.00 0.07205
1101.10 0.07214
1101.20 0.07223
1101.30 0.07232
1101.40 0.07241
1101.50 0.0725
1101.60 0.07259
1101.70 0.07268
1101.80 0.07277
1101.90 0.07286
1102.00 0.07295
1102.10 0.07303
1102.20 0.07311
1102.30 0.07318
1102.40 0.07326
1102.50 0.07333
1102.60 0.07339
1102.70 0.07345
1102.80 0.07351
1102.90 0.07356
1103.00 0.07362
1103.10 0.07368
1103.20 0.07374
1103.30 0.0738
1103.40 0.07386
1103.50 0.07391
1103.60 0.07395
1103.70 0.07399
1103.80 0.07403
1103.90 0.07407
1104.00 0.07411
1104.10 0.07415
1104.20 0.07419
1104.30 0.07423
1104.40 0.07428
1104.50 0.07432
1104.60 0.07436
1104.70 0.0744
1104.80 0.07444
1104.90 0.07448
1105.00 0.07452
1105.10 0.07456
1105.20 0.0746
1105.30 0.07464
1105.40 0.07468
1105.50 0.07472
1105.60 0.07474
1105.70 0.07476
1105.80 0.07479
1105.90 0.07481
1106.00 0.07484
1106.10 0.07486
1106.20 0.07489
1106.30 0.07491
1106.40 0.07493
1106.50 0.07496
1106.60 0.07498
1106.70 0.07501
1106.80 0.07503
1106.90 0.07505
1107.00 0.07508
1107.10 0.07509
1107.20 0.07511
1107.30 0.07512
1107.40 0.07513
1107.50 0.07515
1107.60 0.07515
1107.70 0.07516
1107.80 0.07517
1107.90 0.07518
1108.00 0.07519
1108.10 0.0752
1108.20 0.0752
1108.30 0.07521
1108.40 0.07522
1108.50 0.07523
1108.60 0.07524
1108.70 0.07525
1108.80 0.07525
1108.90 0.07526
1109.00 0.07527
1109.10 0.07528
1109.20 0.07529
1109.30 0.0753
1109.40 0.0753
1109.50 0.07531
1109.60 0.07531
1109.70 0.0753
1109.80 0.0753
1109.90 0.07529
1110.00 0.07529
1110.10 0.07529
1110.20 0.07528
1110.30 0.07528
1110.40 0.07528
1110.50 0.07527
1110.60 0.07527
1110.70 0.07527
1110.80 0.07526
1110.90 0.07526
1111.00 0.07526
1111.10 0.07525
1111.20 0.07525
1111.30 0.07524
1111.40 0.07524
1111.50 0.07524
1111.60 0.07523
1111.70 0.07523
1111.80 0.07523
1111.90 0.07522
1112.00 0.07522
1112.10 0.07521
1112.20 0.0752
1112.30 0.0752
1112.40 0.07519
1112.50 0.07518
1112.60 0.07517
1112.70 0.07517
1112.80 0.07516
1112.90 0.07515
1113.00 0.07514
1113.10 0.07513
1113.20 0.07513
1113.30 0.07512
1113.40 0.07511
1113.50 0.0751
1113.60 0.07509
1113.70 0.07507
1113.80 0.07506
1113.90 0.07505
1114.00 0.07503
1114.10 0.07502
1114.20 0.075
1114.30 0.07499
1114.40 0.07498
1114.50 0.07496
1114.60 0.07495
1114.70 0.07494
1114.80 0.07492
1114.90 0.07491
1115.00 0.07489
1115.10 0.07488
1115.20 0.07487
1115.30 0.07485
1115.40 0.07484
1115.50 0.07483
1115.60 0.07481
1115.70 0.0748
1115.80 0.07478
1115.90 0.07477
1116.00 0.07476
1116.10 0.07474
1116.20 0.07473
1116.30 0.07471
1116.40 0.0747
1116.50 0.07469
1116.60 0.07467
1116.70 0.07466
1116.80 0.07465
1116.90 0.07463
1117.00 0.07462
1117.10 0.0746
1117.20 0.07458
1117.30 0.07456
1117.40 0.07454
1117.50 0.07453
1117.60 0.07451
1117.70 0.07449
1117.80 0.07447
1117.90 0.07445
1118.00 0.07443
1118.10 0.07442
1118.20 0.0744
1118.30 0.07438
1118.40 0.07436
1118.50 0.07434
1118.60 0.07432
1118.70 0.0743
1118.80 0.07429
1118.90 0.07427
1119.00 0.07425
1119.10 0.07423
1119.20 0.07421
1119.30 0.07419
1119.40 0.07418
1119.50 0.07416
1119.60 0.07414
1119.70 0.07412
1119.80 0.0741
1119.90 0.07408
1120.00 0.07406
1120.10 0.07405
1120.20 0.07403
1120.30 0.07401
1120.40 0.07399
1120.50 0.07397
1120.60 0.07395
1120.70 0.07394
1120.80 0.07392
1120.90 0.0739
1121.00 0.07388
1121.10 0.07386
1121.20 0.07384
1121.30 0.07383
1121.40 0.07381
1121.50 0.07379
1121.60 0.07377
1121.70 0.07375
1121.80 0.07373
1121.90 0.07372
1122.00 0.0737
1122.10 0.07368
1122.20 0.07366
1122.30 0.07364
1122.40 0.07362
1122.50 0.07359
1122.60 0.07357
1122.70 0.07355
1122.80 0.07353
1122.90 0.07351
1123.00 0.07349
1123.10 0.07347
1123.20 0.07345
1123.30 0.07343
1123.40 0.07341
1123.50 0.07339
1123.60 0.07337
1123.70 0.07335
1123.80 0.07332
1123.90 0.0733
1124.00 0.07328
1124.10 0.07326
1124.20 0.07324
1124.30 0.07322
1124.40 0.0732
1124.50 0.07318
1124.60 0.07316
1124.70 0.07314
1124.80 0.07312
1124.90 0.0731
1125.00 0.07308
1125.10 0.07306
1125.20 0.07304
1125.30 0.07301
1125.40 0.07299
1125.50 0.07297
1125.60 0.07295
1125.70 0.07293
1125.80 0.07291
1125.90 0.07289
1126.00 0.07287
1126.10 0.07285
1126.20 0.07283
1126.30 0.07281
1126.40 0.07279
1126.50 0.07277
1126.60 0.07275
1126.70 0.07273
1126.80 0.07271
1126.90 0.07269
1127.00 0.07266
1127.10 0.07264
1127.20 0.07262
1127.30 0.0726
1127.40 0.07258
1127.50 0.07256
1127.60 0.07254
1127.70 0.07251
1127.80 0.07249
1127.90 0.07247
1128.00 0.07245
1128.10 0.07243
1128.20 0.07241
1128.30 0.07238
1128.40 0.07236
1128.50 0.07234
1128.60 0.07232
1128.70 0.0723
1128.80 0.07228
1128.90 0.07225
1129.00 0.07223
1129.10 0.07221
1129.20 0.07219
1129.30 0.07217
1129.40 0.07215
1129.50 0.07213
1129.60 0.0721
1129.70 0.07208
1129.80 0.07206
1129.90 0.07204
1130.00 0.07202
1130.10 0.072
1130.20 0.07198
1130.30 0.07195
1130.40 0.07193
1130.50 0.07191
1130.60 0.07189
1130.70 0.07187
1130.80 0.07185
1130.90 0.07183
1131.00 0.0718
1131.10 0.07178
1131.20 0.07176
1131.30 0.07174
1131.40 0.07172
1131.50 0.0717
1131.60 0.07168
1131.70 0.07165
1131.80 0.07163
1131.90 0.07161
1132.00 0.07159
1132.10 0.07157
1132.20 0.07155
1132.30 0.07153
1132.40 0.0715
1132.50 0.07148
1132.60 0.07146
1132.70 0.07144
1132.80 0.07142
1132.90 0.07139
1133.00 0.07137
1133.10 0.07135
1133.20 0.07133
1133.30 0.07131
1133.40 0.07129
1133.50 0.07126
1133.60 0.07124
1133.70 0.07122
1133.80 0.0712
1133.90 0.07118
1134.00 0.07115
1134.10 0.07113
1134.20 0.07111
1134.30 0.07109
1134.40 0.07107
1134.50 0.07105
1134.60 0.07102
1134.70 0.071
1134.80 0.07098
1134.90 0.07096
1135.00 0.07094
1135.10 0.07092
1135.20 0.07089
1135.30 0.07087
1135.40 0.07085
1135.50 0.07083
1135.60 0.07081
1135.70 0.07079
1135.80 0.07076
1135.90 0.07074
1136.00 0.07072
1136.10 0.0707
1136.20 0.07068
1136.30 0.07066
1136.40 0.07063
1136.50 0.07061
1136.60 0.07059
1136.70 0.07057
1136.80 0.07055
1136.90 0.07053
1137.00 0.07051
1137.10 0.07048
1137.20 0.07046
1137.30 0.07044
1137.40 0.07042
1137.50 0.0704
1137.60 0.07037
1137.70 0.07035
1137.80 0.07033
1137.90 0.07031
1138.00 0.07029
1138.10 0.07027
1138.20 0.07024
1138.30 0.07022
1138.40 0.0702
1138.50 0.07018
1138.60 0.07016
1138.70 0.07014
1138.80 0.07011
1138.90 0.07009
1139.00 0.07007
1139.10 0.07005
1139.20 0.07003
1139.30 0.07001
1139.40 0.06998
1139.50 0.06996
1139.60 0.06994
1139.70 0.06992
1139.80 0.0699
1139.90 0.06988
1140.00 0.06985
1140.10 0.06983
1140.20 0.06981
1140.30 0.06979
1140.40 0.06977
1140.50 0.06975
1140.60 0.06972
1140.70 0.0697
1140.80 0.06968
1140.90 0.06966
1141.00 0.06964
1141.10 0.06962
1141.20 0.06959
1141.30 0.06957
1141.40 0.06955
1141.50 0.06953
1141.60 0.06951
1141.70 0.06949
1141.80 0.06947
1141.90 0.06944
1142.00 0.06942
1142.10 0.0694
1142.20 0.06938
1142.30 0.06936
1142.40 0.06934
1142.50 0.06931
1142.60 0.06929
1142.70 0.06927
1142.80 0.06925
1142.90 0.06923
1143.00 0.06921
1143.10 0.06919
1143.20 0.06916
1143.30 0.06914
1143.40 0.06912
1143.50 0.0691
1143.60 0.06908
1143.70 0.06906
1143.80 0.06903
1143.90 0.06901
1144.00 0.06899
1144.10 0.06897
1144.20 0.06895
1144.30 0.06893
1144.40 0.06891
1144.50 0.06888
1144.60 0.06886
1144.70 0.06884
1144.80 0.06882
1144.90 0.0688
1145.00 0.06878
1145.10 0.06875
1145.20 0.06873
1145.30 0.06871
1145.40 0.06869
1145.50 0.06867
1145.60 0.06865
1145.70 0.06863
1145.80 0.0686
1145.90 0.06858
1146.00 0.06856
1146.10 0.06854
1146.20 0.06852
1146.30 0.0685
1146.40 0.06848
1146.50 0.06845
1146.60 0.06843
1146.70 0.06841
1146.80 0.06839
1146.90 0.06837
1147.00 0.06835
1147.10 0.06833
1147.20 0.06831
1147.30 0.06828
1147.40 0.06826
1147.50 0.06824
1147.60 0.06822
1147.70 0.0682
1147.80 0.06818
1147.90 0.06816
1148.00 0.06814
1148.10 0.06811
1148.20 0.06809
1148.30 0.06807
1148.40 0.06805
1148.50 0.06803
1148.60 0.06801
1148.70 0.06799
1148.80 0.06797
1148.90 0.06794
1149.00 0.06792
1149.10 0.0679
1149.20 0.06788
1149.30 0.06786
1149.40 0.06784
1149.50 0.06782
1149.60 0.0678
1149.70 0.06777
1149.80 0.06775
1149.90 0.06773
1150.00 0.06771
1150.10 0.06769
1150.20 0.06767
1150.30 0.06765
1150.40 0.06763
1150.50 0.06761
1150.60 0.06758
1150.70 0.06756
1150.80 0.06754
1150.90 0.06752
1151.00 0.0675
1151.10 0.06748
1151.20 0.06746
1151.30 0.06744
1151.40 0.06742
1151.50 0.06739
1151.60 0.06737
1151.70 0.06735
1151.80 0.06733
1151.90 0.06731
1152.00 0.06729
1152.10 0.06727
1152.20 0.06725
1152.30 0.06723
1152.40 0.06721
1152.50 0.06718
1152.60 0.06716
1152.70 0.06714
1152.80 0.06712
1152.90 0.0671
1153.00 0.06708
1153.10 0.06706
1153.20 0.06704
1153.30 0.06702
1153.40 0.067
1153.50 0.06697
1153.60 0.06695
1153.70 0.06693
1153.80 0.06691
1153.90 0.06689
1154.00 0.06687
1154.10 0.06685
1154.20 0.06683
1154.30 0.06681
1154.40 0.06679
1154.50 0.06677
1154.60 0.06674
1154.70 0.06672
1154.80 0.0667
1154.90 0.06668
1155.00 0.06666
1155.10 0.06664
1155.20 0.06662
1155.30 0.0666
1155.40 0.06658
1155.50 0.06656
1155.60 0.06654
1155.70 0.06651
1155.80 0.06649
1155.90 0.06647
1156.00 0.06645
1156.10 0.06643
1156.20 0.06641
1156.30 0.06639
1156.40 0.06637
1156.50 0.06635
1156.60 0.06633
1156.70 0.06631
1156.80 0.06629
1156.90 0.06627
1157.00 0.06624
1157.10 0.06622
1157.20 0.0662
1157.30 0.06618
1157.40 0.06616
1157.50 0.06614
1157.60 0.06612
1157.70 0.0661
1157.80 0.06608
1157.90 0.06606
1158.00 0.06604
1158.10 0.06602
1158.20 0.066
1158.30 0.06598
1158.40 0.06596
1158.50 0.06593
1158.60 0.06591
1158.70 0.06589
1158.80 0.06587
1158.90 0.06585
1159.00 0.06583
1159.10 0.06581
1159.20 0.06579
1159.30 0.06577
1159.40 0.06575
1159.50 0.06573
1159.60 0.06571
1159.70 0.06569
1159.80 0.06567
1159.90 0.06565
1160.00 0.06563
1160.10 0.06561
1160.20 0.06559
1160.30 0.06556
1160.40 0.06554
1160.50 0.06552
1160.60 0.0655
1160.70 0.06548
1160.80 0.06546
1160.90 0.06544
1161.00 0.06542
1161.10 0.0654
1161.20 0.06538
1161.30 0.06536
1161.40 0.06534
1161.50 0.06532
1161.60 0.0653
1161.70 0.06528
1161.80 0.06526
1161.90 0.06524
1162.00 0.06522
1162.10 0.0652
1162.20 0.06518
1162.30 0.06516
1162.40 0.06514
1162.50 0.06512
1162.60 0.0651
1162.70 0.06508
1162.80 0.06505
1162.90 0.06503
1163.00 0.06501
1163.10 0.06499
1163.20 0.06497
1163.30 0.06495
1163.40 0.06493
1163.50 0.06491
1163.60 0.06489
1163.70 0.06487
1163.80 0.06485
1163.90 0.06483
1164.00 0.06481
1164.10 0.06479
1164.20 0.06477
1164.30 0.06475
1164.40 0.06473
1164.50 0.06471
1164.60 0.06469
1164.70 0.06467
1164.80 0.06465
1164.90 0.06463
1165.00 0.06461
1165.10 0.06459
1165.20 0.06457
1165.30 0.06455
1165.40 0.06453
1165.50 0.06451
1165.60 0.06449
1165.70 0.06447
1165.80 0.06445
1165.90 0.06443
1166.00 0.06441
1166.10 0.06439
1166.20 0.06437
1166.30 0.06435
1166.40 0.06433
1166.50 0.06431
1166.60 0.06429
1166.70 0.06427
1166.80 0.06425
1166.90 0.06423
1167.00 0.06421
1167.10 0.06419
1167.20 0.06417
1167.30 0.06415
1167.40 0.06413
1167.50 0.06411
1167.60 0.06409
1167.70 0.06407
1167.80 0.06405
1167.90 0.06403
1168.00 0.06401
1168.10 0.06399
1168.20 0.06397
1168.30 0.06395
1168.40 0.06393
1168.50 0.06391
1168.60 0.06389
1168.70 0.06387
1168.80 0.06385
1168.90 0.06383
1169.00 0.06381
1169.10 0.06379
1169.20 0.06377
1169.30 0.06375
1169.40 0.06373
1169.50 0.06371
1169.60 0.06369
1169.70 0.06367
1169.80 0.06365
1169.90 0.06363
1170.00 0.06361
1170.10 0.06359
1170.20 0.06357
1170.30 0.06355
1170.40 0.06353
1170.50 0.06351
1170.60 0.06349
1170.70 0.06347
1170.80 0.06345
1170.90 0.06343
1171.00 0.06341
1171.10 0.06339
1171.20 0.06337
1171.30 0.06335
1171.40 0.06333
1171.50 0.06331
1171.60 0.06329
1171.70 0.06327
1171.80 0.06325
1171.90 0.06323
1172.00 0.06321
1172.10 0.06319
1172.20 0.06317
1172.30 0.06315
1172.40 0.06314
1172.50 0.06312
1172.60 0.0631
1172.70 0.06308
1172.80 0.06306
1172.90 0.06304
1173.00 0.06302
1173.10 0.063
1173.20 0.06298
1173.30 0.06296
1173.40 0.06294
1173.50 0.06292
1173.60 0.0629
1173.70 0.06288
1173.80 0.06286
1173.90 0.06284
1174.00 0.06282
1174.10 0.0628
1174.20 0.06278
1174.30 0.06276
1174.40 0.06274
1174.50 0.06272
1174.60 0.06271
1174.70 0.06269
1174.80 0.06267
1174.90 0.06265
1175.00 0.06263
1175.10 0.06261
1175.20 0.06259
1175.30 0.06257
1175.40 0.06255
1175.50 0.06253
1175.60 0.06251
1175.70 0.06249
1175.80 0.06247
1175.90 0.06245
1176.00 0.06243
1176.10 0.06241
1176.20 0.06239
1176.30 0.06237
1176.40 0.06236
1176.50 0.06234
1176.60 0.06232
1176.70 0.0623
1176.80 0.06228
1176.90 0.06226
1177.00 0.06224
1177.10 0.06222
1177.20 0.0622
1177.30 0.06218
1177.40 0.06216
1177.50 0.06214
1177.60 0.06212
1177.70 0.0621
1177.80 0.06208
1177.90 0.06207
1178.00 0.06205
1178.10 0.06203
1178.20 0.06201
1178.30 0.06199
1178.40 0.06197
1178.50 0.06195
1178.60 0.06193
1178.70 0.06191
1178.80 0.06189
1178.90 0.06187
1179.00 0.06185
1179.10 0.06184
1179.20 0.06182
1179.30 0.0618
1179.40 0.06178
1179.50 0.06176
1179.60 0.06174
1179.70 0.06172
1179.80 0.0617
1179.90 0.06168
1180.00 0.06166
1180.10 0.06164
1180.20 0.06162
1180.30 0.06161
1180.40 0.06159
1180.50 0.06157
1180.60 0.06155
1180.70 0.06153
1180.80 0.06151
1180.90 0.06149
1181.00 0.06147
1181.10 0.06145
1181.20 0.06143
1181.30 0.06142
1181.40 0.0614
1181.50 0.06138
1181.60 0.06136
1181.70 0.06134
1181.80 0.06132
1181.90 0.0613
1182.00 0.06128
1182.10 0.06126
1182.20 0.06124
1182.30 0.06123
1182.40 0.06121
1182.50 0.06119
1182.60 0.06117
1182.70 0.06115
1182.80 0.06113
1182.90 0.06111
1183.00 0.06109
1183.10 0.06107
1183.20 0.06106
1183.30 0.06104
1183.40 0.06102
1183.50 0.061
1183.60 0.06098
1183.70 0.06096
1183.80 0.06094
1183.90 0.06092
1184.00 0.0609
1184.10 0.06089
1184.20 0.06087
1184.30 0.06085
1184.40 0.06083
1184.50 0.06081
1184.60 0.06079
1184.70 0.06077
1184.80 0.06075
1184.90 0.06073
1185.00 0.06072
1185.10 0.0607
1185.20 0.06068
1185.30 0.06066
1185.40 0.06064
1185.50 0.06062
1185.60 0.0606
1185.70 0.06058
1185.80 0.06057
1185.90 0.06055
1186.00 0.06053
1186.10 0.06051
1186.20 0.06049
1186.30 0.06047
1186.40 0.06045
1186.50 0.06043
1186.60 0.06042
1186.70 0.0604
1186.80 0.06038
1186.90 0.06036
1187.00 0.06034
1187.10 0.06032
1187.20 0.0603
1187.30 0.06029
1187.40 0.06027
1187.50 0.06025
1187.60 0.06023
1187.70 0.06021
1187.80 0.06019
1187.90 0.06017
1188.00 0.06016
1188.10 0.06014
1188.20 0.06012
1188.30 0.0601
1188.40 0.06008
1188.50 0.06006
1188.60 0.06004
1188.70 0.06003
1188.80 0.06001
1188.90 0.05999
1189.00 0.05997
1189.10 0.05995
1189.20 0.05993
1189.30 0.05991
1189.40 0.0599
1189.50 0.05988
1189.60 0.05986
1189.70 0.05984
1189.80 0.05982
1189.90 0.0598
1190.00 0.05979
1190.10 0.05977
1190.20 0.05975
1190.30 0.05973
1190.40 0.05971
1190.50 0.05969
1190.60 0.05968
1190.70 0.05966
1190.80 0.05964
1190.90 0.05962
1191.00 0.0596
1191.10 0.05958
1191.20 0.05956
1191.30 0.05955
1191.40 0.05953
1191.50 0.05951
1191.60 0.05949
1191.70 0.05947
1191.80 0.05945
1191.90 0.05944
1192.00 0.05942
1192.10 0.0594
1192.20 0.05938
1192.30 0.05936
1192.40 0.05934
1192.50 0.05933
1192.60 0.05931
1192.70 0.05929
1192.80 0.05927
1192.90 0.05925
1193.00 0.05924
1193.10 0.05922
1193.20 0.0592
1193.30 0.05918
1193.40 0.05916
1193.50 0.05914
1193.60 0.05913
1193.70 0.05911
1193.80 0.05909
1193.90 0.05907
1194.00 0.05905
1194.10 0.05903
1194.20 0.05902
1194.30 0.059
1194.40 0.05898
1194.50 0.05896
1194.60 0.05894
1194.70 0.05893
1194.80 0.05891
1194.90 0.05889
1195.00 0.05887
1195.10 0.05885
1195.20 0.05884
1195.30 0.05882
1195.40 0.0588
1195.50 0.05878
1195.60 0.05876
1195.70 0.05874
1195.80 0.05873
1195.90 0.05871
1196.00 0.05869
1196.10 0.05867
1196.20 0.05865
1196.30 0.05864
1196.40 0.05862
1196.50 0.0586
1196.60 0.05858
1196.70 0.05856
1196.80 0.05855
1196.90 0.05853
1197.00 0.05851
1197.10 0.05849
1197.20 0.05847
1197.30 0.05846
1197.40 0.05844
1197.50 0.05842
1197.60 0.0584
1197.70 0.05838
1197.80 0.05837
1197.90 0.05835
1198.00 0.05833
1198.10 0.05831
1198.20 0.05829
1198.30 0.05828
1198.40 0.05826
1198.50 0.05824
1198.60 0.05822
1198.70 0.05821
1198.80 0.05819
1198.90 0.05817
1199.00 0.05815
1199.10 0.05813
1199.20 0.05812
1199.30 0.0581
1199.40 0.05808
1199.50 0.05806
1199.60 0.05804
1199.70 0.05803
1199.80 0.05801
1199.90 0.05799
1200.00 0
