# Version 2.1 - nm, norm@500 to 1, cut digits, bergeron_4500_85.dat_4500
# Wavelength(nm)  Flambda(ergs/cm^s/s/nm)
300.00 0.2613
300.10 0.2617
300.20 0.2621
300.30 0.2625
300.40 0.2629
300.50 0.2633
300.60 0.2637
300.70 0.2641
300.80 0.2645
300.90 0.2649
301.00 0.2653
301.10 0.2657
301.20 0.2661
301.30 0.2665
301.40 0.2668
301.50 0.2672
301.60 0.2676
301.70 0.268
301.80 0.2684
301.90 0.2688
302.00 0.2692
302.10 0.2696
302.20 0.27
302.30 0.2704
302.40 0.2708
302.50 0.2712
302.60 0.2716
302.70 0.272
302.80 0.2725
302.90 0.2729
303.00 0.2733
303.10 0.2737
303.20 0.2741
303.30 0.2745
303.40 0.2749
303.50 0.2753
303.60 0.2757
303.70 0.2761
303.80 0.2764
303.90 0.2768
304.00 0.2772
304.10 0.2777
304.20 0.2781
304.30 0.2785
304.40 0.2789
304.50 0.2793
304.60 0.2797
304.70 0.2801
304.80 0.2805
304.90 0.2809
305.00 0.2813
305.10 0.2817
305.20 0.2821
305.30 0.2825
305.40 0.2829
305.50 0.2834
305.60 0.2838
305.70 0.2842
305.80 0.2846
305.90 0.285
306.00 0.2854
306.10 0.2858
306.20 0.2862
306.30 0.2866
306.40 0.287
306.50 0.2874
306.60 0.2878
306.70 0.2883
306.80 0.2887
306.90 0.2891
307.00 0.2895
307.10 0.2899
307.20 0.2903
307.30 0.2907
307.40 0.2911
307.50 0.2915
307.60 0.2919
307.70 0.2923
307.80 0.2927
307.90 0.2931
308.00 0.2936
308.10 0.294
308.20 0.2944
308.30 0.2948
308.40 0.2952
308.50 0.2956
308.60 0.296
308.70 0.2965
308.80 0.2969
308.90 0.2973
309.00 0.2977
309.10 0.2981
309.20 0.2985
309.30 0.2989
309.40 0.2993
309.50 0.2998
309.60 0.3002
309.70 0.3006
309.80 0.301
309.90 0.3014
310.00 0.3018
310.10 0.3022
310.20 0.3026
310.30 0.3031
310.40 0.3035
310.50 0.3039
310.60 0.3043
310.70 0.3048
310.80 0.3052
310.90 0.3056
311.00 0.306
311.10 0.3064
311.20 0.3068
311.30 0.3073
311.40 0.3077
311.50 0.3081
311.60 0.3085
311.70 0.3089
311.80 0.3093
311.90 0.3097
312.00 0.3102
312.10 0.3106
312.20 0.311
312.30 0.3114
312.40 0.3118
312.50 0.3122
312.60 0.3127
312.70 0.3131
312.80 0.3135
312.90 0.3139
313.00 0.3144
313.10 0.3148
313.20 0.3152
313.30 0.3156
313.40 0.316
313.50 0.3165
313.60 0.3169
313.70 0.3173
313.80 0.3177
313.90 0.3181
314.00 0.3185
314.10 0.319
314.20 0.3194
314.30 0.3198
314.40 0.3202
314.50 0.3207
314.60 0.3211
314.70 0.3215
314.80 0.3219
314.90 0.3224
315.00 0.3228
315.10 0.3232
315.20 0.3236
315.30 0.3241
315.40 0.3245
315.50 0.3249
315.60 0.3253
315.70 0.3257
315.80 0.3261
315.90 0.3266
316.00 0.327
316.10 0.3274
316.20 0.3278
316.30 0.3283
316.40 0.3287
316.50 0.3291
316.60 0.3296
316.70 0.33
316.80 0.3304
316.90 0.3308
317.00 0.3313
317.10 0.3317
317.20 0.3321
317.30 0.3325
317.40 0.333
317.50 0.3334
317.60 0.3338
317.70 0.3342
317.80 0.3347
317.90 0.3351
318.00 0.3355
318.10 0.3359
318.20 0.3364
318.30 0.3368
318.40 0.3372
318.50 0.3377
318.60 0.3381
318.70 0.3385
318.80 0.339
318.90 0.3394
319.00 0.3398
319.10 0.3402
319.20 0.3407
319.30 0.3411
319.40 0.3415
319.50 0.3419
319.60 0.3424
319.70 0.3428
319.80 0.3432
319.90 0.3436
320.00 0.3441
320.10 0.3445
320.20 0.3449
320.30 0.3454
320.40 0.3458
320.50 0.3462
320.60 0.3467
320.70 0.3471
320.80 0.3475
320.90 0.348
321.00 0.3484
321.10 0.3488
321.20 0.3493
321.30 0.3497
321.40 0.3501
321.50 0.3505
321.60 0.351
321.70 0.3514
321.80 0.3518
321.90 0.3522
322.00 0.3527
322.10 0.3531
322.20 0.3535
322.30 0.354
322.40 0.3544
322.50 0.3549
322.60 0.3553
322.70 0.3557
322.80 0.3562
322.90 0.3566
323.00 0.357
323.10 0.3575
323.20 0.3579
323.30 0.3583
323.40 0.3588
323.50 0.3592
323.60 0.3596
323.70 0.3601
323.80 0.3605
323.90 0.3609
324.00 0.3613
324.10 0.3618
324.20 0.3622
324.30 0.3627
324.40 0.3631
324.50 0.3635
324.60 0.364
324.70 0.3644
324.80 0.3648
324.90 0.3653
325.00 0.3657
325.10 0.3662
325.20 0.3666
325.30 0.367
325.40 0.3675
325.50 0.3679
325.60 0.3683
325.70 0.3687
325.80 0.3692
325.90 0.3696
326.00 0.37
326.10 0.3705
326.20 0.3709
326.30 0.3714
326.40 0.3718
326.50 0.3722
326.60 0.3727
326.70 0.3731
326.80 0.3736
326.90 0.374
327.00 0.3744
327.10 0.3749
327.20 0.3753
327.30 0.3757
327.40 0.3762
327.50 0.3766
327.60 0.377
327.70 0.3775
327.80 0.3779
327.90 0.3783
328.00 0.3788
328.10 0.3792
328.20 0.3797
328.30 0.3801
328.40 0.3806
328.50 0.381
328.60 0.3814
328.70 0.3819
328.80 0.3823
328.90 0.3828
329.00 0.3832
329.10 0.3836
329.20 0.3841
329.30 0.3845
329.40 0.385
329.50 0.3854
329.60 0.3858
329.70 0.3863
329.80 0.3867
329.90 0.3871
330.00 0.3876
330.10 0.388
330.20 0.3885
330.30 0.3889
330.40 0.3893
330.50 0.3898
330.60 0.3902
330.70 0.3907
330.80 0.3911
330.90 0.3916
331.00 0.392
331.10 0.3924
331.20 0.3929
331.30 0.3933
331.40 0.3938
331.50 0.3942
331.60 0.3946
331.70 0.3951
331.80 0.3955
331.90 0.3959
332.00 0.3964
332.10 0.3968
332.20 0.3973
332.30 0.3977
332.40 0.3982
332.50 0.3986
332.60 0.3991
332.70 0.3995
332.80 0.3999
332.90 0.4004
333.00 0.4008
333.10 0.4013
333.20 0.4017
333.30 0.4021
333.40 0.4026
333.50 0.403
333.60 0.4035
333.70 0.4039
333.80 0.4043
333.90 0.4048
334.00 0.4052
334.10 0.4057
334.20 0.4061
334.30 0.4066
334.40 0.407
334.50 0.4075
334.60 0.4079
334.70 0.4083
334.80 0.4088
334.90 0.4092
335.00 0.4097
335.10 0.4101
335.20 0.4106
335.30 0.411
335.40 0.4114
335.50 0.4119
335.60 0.4123
335.70 0.4128
335.80 0.4132
335.90 0.4136
336.00 0.4141
336.10 0.4145
336.20 0.415
336.30 0.4154
336.40 0.4159
336.50 0.4163
336.60 0.4168
336.70 0.4172
336.80 0.4177
336.90 0.4181
337.00 0.4186
337.10 0.419
337.20 0.4194
337.30 0.4199
337.40 0.4203
337.50 0.4208
337.60 0.4212
337.70 0.4216
337.80 0.4221
337.90 0.4225
338.00 0.423
338.10 0.4234
338.20 0.4239
338.30 0.4243
338.40 0.4248
338.50 0.4252
338.60 0.4257
338.70 0.4261
338.80 0.4266
338.90 0.427
339.00 0.4275
339.10 0.4279
339.20 0.4283
339.30 0.4288
339.40 0.4292
339.50 0.4297
339.60 0.4301
339.70 0.4306
339.80 0.431
339.90 0.4314
340.00 0.4319
340.10 0.4323
340.20 0.4328
340.30 0.4332
340.40 0.4337
340.50 0.4341
340.60 0.4346
340.70 0.435
340.80 0.4355
340.90 0.4359
341.00 0.4364
341.10 0.4368
341.20 0.4373
341.30 0.4377
341.40 0.4382
341.50 0.4386
341.60 0.439
341.70 0.4395
341.80 0.4399
341.90 0.4404
342.00 0.4408
342.10 0.4413
342.20 0.4417
342.30 0.4422
342.40 0.4426
342.50 0.4431
342.60 0.4435
342.70 0.444
342.80 0.4444
342.90 0.4449
343.00 0.4453
343.10 0.4458
343.20 0.4462
343.30 0.4466
343.40 0.4471
343.50 0.4475
343.60 0.448
343.70 0.4484
343.80 0.4489
343.90 0.4493
344.00 0.4497
344.10 0.4502
344.20 0.4506
344.30 0.4511
344.40 0.4515
344.50 0.452
344.60 0.4524
344.70 0.4529
344.80 0.4533
344.90 0.4538
345.00 0.4542
345.10 0.4547
345.20 0.4551
345.30 0.4556
345.40 0.456
345.50 0.4565
345.60 0.4569
345.70 0.4574
345.80 0.4578
345.90 0.4582
346.00 0.4587
346.10 0.4591
346.20 0.4596
346.30 0.46
346.40 0.4605
346.50 0.4609
346.60 0.4614
346.70 0.4618
346.80 0.4623
346.90 0.4627
347.00 0.4632
347.10 0.4636
347.20 0.4641
347.30 0.4645
347.40 0.465
347.50 0.4654
347.60 0.4659
347.70 0.4663
347.80 0.4667
347.90 0.4672
348.00 0.4676
348.10 0.4681
348.20 0.4685
348.30 0.469
348.40 0.4694
348.50 0.4699
348.60 0.4703
348.70 0.4708
348.80 0.4712
348.90 0.4717
349.00 0.4721
349.10 0.4726
349.20 0.473
349.30 0.4735
349.40 0.4739
349.50 0.4744
349.60 0.4748
349.70 0.4753
349.80 0.4757
349.90 0.4761
350.00 0.4766
350.10 0.477
350.20 0.4775
350.30 0.4779
350.40 0.4784
350.50 0.4788
350.60 0.4793
350.70 0.4797
350.80 0.4802
350.90 0.4806
351.00 0.4811
351.10 0.4815
351.20 0.482
351.30 0.4824
351.40 0.4829
351.50 0.4833
351.60 0.4838
351.70 0.4842
351.80 0.4847
351.90 0.4851
352.00 0.4855
352.10 0.486
352.20 0.4864
352.30 0.4869
352.40 0.4873
352.50 0.4878
352.60 0.4882
352.70 0.4887
352.80 0.4891
352.90 0.4896
353.00 0.49
353.10 0.4905
353.20 0.4909
353.30 0.4914
353.40 0.4918
353.50 0.4923
353.60 0.4927
353.70 0.4932
353.80 0.4936
353.90 0.494
354.00 0.4945
354.10 0.4949
354.20 0.4954
354.30 0.4958
354.40 0.4963
354.50 0.4967
354.60 0.4972
354.70 0.4976
354.80 0.4981
354.90 0.4985
355.00 0.499
355.10 0.4994
355.20 0.4999
355.30 0.5003
355.40 0.5008
355.50 0.5012
355.60 0.5016
355.70 0.5021
355.80 0.5025
355.90 0.503
356.00 0.5034
356.10 0.5039
356.20 0.5043
356.30 0.5048
356.40 0.5052
356.50 0.5057
356.60 0.5061
356.70 0.5066
356.80 0.507
356.90 0.5075
357.00 0.5079
357.10 0.5084
357.20 0.5088
357.30 0.5093
357.40 0.5097
357.50 0.5101
357.60 0.5106
357.70 0.511
357.80 0.5115
357.90 0.5119
358.00 0.5124
358.10 0.5128
358.20 0.5133
358.30 0.5137
358.40 0.5142
358.50 0.5146
358.60 0.5151
358.70 0.5155
358.80 0.5159
358.90 0.5164
359.00 0.5168
359.10 0.5173
359.20 0.5177
359.30 0.5182
359.40 0.5186
359.50 0.5191
359.60 0.5195
359.70 0.5199
359.80 0.5204
359.90 0.5208
360.00 0.5213
360.10 0.5217
360.20 0.5222
360.30 0.5226
360.40 0.5231
360.50 0.5235
360.60 0.524
360.70 0.5244
360.80 0.5249
360.90 0.5253
361.00 0.5258
361.10 0.5262
361.20 0.5266
361.30 0.5271
361.40 0.5275
361.50 0.528
361.60 0.5284
361.70 0.5289
361.80 0.5293
361.90 0.5297
362.00 0.5302
362.10 0.5306
362.20 0.5311
362.30 0.5315
362.40 0.532
362.50 0.5324
362.60 0.5328
362.70 0.5333
362.80 0.5337
362.90 0.5342
363.00 0.5346
363.10 0.5351
363.20 0.5355
363.30 0.536
363.40 0.5364
363.50 0.5369
363.60 0.5373
363.70 0.5377
363.80 0.5382
363.90 0.5386
364.00 0.5391
364.10 0.5395
364.20 0.54
364.30 0.5404
364.40 0.5408
364.50 0.5413
364.60 0.5417
364.70 0.5422
364.80 0.5426
364.90 0.5431
365.00 0.5435
365.10 0.5439
365.20 0.5444
365.30 0.5448
365.40 0.5453
365.50 0.5457
365.60 0.5462
365.70 0.5466
365.80 0.547
365.90 0.5475
366.00 0.5479
366.10 0.5484
366.20 0.5488
366.30 0.5493
366.40 0.5497
366.50 0.5501
366.60 0.5506
366.70 0.551
366.80 0.5515
366.90 0.5519
367.00 0.5524
367.10 0.5528
367.20 0.5532
367.30 0.5537
367.40 0.5541
367.50 0.5546
367.60 0.555
367.70 0.5554
367.80 0.5559
367.90 0.5563
368.00 0.5568
368.10 0.5572
368.20 0.5577
368.30 0.5581
368.40 0.5585
368.50 0.559
368.60 0.5594
368.70 0.5599
368.80 0.5603
368.90 0.5608
369.00 0.5612
369.10 0.5616
369.20 0.5621
369.30 0.5625
369.40 0.563
369.50 0.5634
369.60 0.5638
369.70 0.5643
369.80 0.5647
369.90 0.5651
370.00 0.5656
370.10 0.566
370.20 0.5665
370.30 0.5669
370.40 0.5674
370.50 0.5678
370.60 0.5682
370.70 0.5687
370.80 0.5691
370.90 0.5696
371.00 0.57
371.10 0.5704
371.20 0.5709
371.30 0.5713
371.40 0.5718
371.50 0.5722
371.60 0.5726
371.70 0.5731
371.80 0.5735
371.90 0.5739
372.00 0.5744
372.10 0.5748
372.20 0.5753
372.30 0.5757
372.40 0.5761
372.50 0.5766
372.60 0.577
372.70 0.5775
372.80 0.5779
372.90 0.5783
373.00 0.5788
373.10 0.5792
373.20 0.5796
373.30 0.5801
373.40 0.5805
373.50 0.5809
373.60 0.5814
373.70 0.5818
373.80 0.5822
373.90 0.5827
374.00 0.5831
374.10 0.5836
374.20 0.584
374.30 0.5844
374.40 0.5849
374.50 0.5853
374.60 0.5858
374.70 0.5862
374.80 0.5866
374.90 0.5871
375.00 0.5875
375.10 0.5879
375.20 0.5884
375.30 0.5888
375.40 0.5892
375.50 0.5897
375.60 0.5901
375.70 0.5905
375.80 0.591
375.90 0.5914
376.00 0.5918
376.10 0.5923
376.20 0.5927
376.30 0.5931
376.40 0.5936
376.50 0.594
376.60 0.5944
376.70 0.5949
376.80 0.5953
376.90 0.5957
377.00 0.5962
377.10 0.5966
377.20 0.5971
377.30 0.5975
377.40 0.5979
377.50 0.5984
377.60 0.5988
377.70 0.5992
377.80 0.5997
377.90 0.6001
378.00 0.6005
378.10 0.601
378.20 0.6014
378.30 0.6018
378.40 0.6023
378.50 0.6027
378.60 0.6031
378.70 0.6035
378.80 0.604
378.90 0.6044
379.00 0.6048
379.10 0.6053
379.20 0.6057
379.30 0.6061
379.40 0.6066
379.50 0.607
379.60 0.6074
379.70 0.6079
379.80 0.6083
379.90 0.6087
380.00 0.6092
380.10 0.6096
380.20 0.61
380.30 0.6105
380.40 0.6109
380.50 0.6113
380.60 0.6118
380.70 0.6122
380.80 0.6126
380.90 0.613
381.00 0.6135
381.10 0.6139
381.20 0.6143
381.30 0.6148
381.40 0.6152
381.50 0.6156
381.60 0.616
381.70 0.6165
381.80 0.6169
381.90 0.6173
382.00 0.6178
382.10 0.6182
382.20 0.6186
382.30 0.6191
382.40 0.6195
382.50 0.6199
382.60 0.6203
382.70 0.6208
382.80 0.6212
382.90 0.6216
383.00 0.622
383.10 0.6225
383.20 0.6229
383.30 0.6233
383.40 0.6238
383.50 0.6242
383.60 0.6246
383.70 0.625
383.80 0.6255
383.90 0.6259
384.00 0.6263
384.10 0.6267
384.20 0.6272
384.30 0.6276
384.40 0.628
384.50 0.6285
384.60 0.6289
384.70 0.6293
384.80 0.6297
384.90 0.6302
385.00 0.6306
385.10 0.631
385.20 0.6314
385.30 0.6319
385.40 0.6323
385.50 0.6327
385.60 0.6331
385.70 0.6336
385.80 0.634
385.90 0.6344
386.00 0.6348
386.10 0.6352
386.20 0.6357
386.30 0.6361
386.40 0.6365
386.50 0.6369
386.60 0.6374
386.70 0.6378
386.80 0.6382
386.90 0.6386
387.00 0.6391
387.10 0.6395
387.20 0.6399
387.30 0.6403
387.40 0.6408
387.50 0.6412
387.60 0.6416
387.70 0.642
387.80 0.6424
387.90 0.6429
388.00 0.6433
388.10 0.6437
388.20 0.6441
388.30 0.6446
388.40 0.645
388.50 0.6454
388.60 0.6458
388.70 0.6462
388.80 0.6467
388.90 0.6471
389.00 0.6475
389.10 0.6479
389.20 0.6483
389.30 0.6488
389.40 0.6492
389.50 0.6496
389.60 0.65
389.70 0.6504
389.80 0.6509
389.90 0.6513
390.00 0.6517
390.10 0.6521
390.20 0.6525
390.30 0.653
390.40 0.6534
390.50 0.6538
390.60 0.6542
390.70 0.6546
390.80 0.6551
390.90 0.6555
391.00 0.6559
391.10 0.6563
391.20 0.6567
391.30 0.6571
391.40 0.6576
391.50 0.658
391.60 0.6584
391.70 0.6588
391.80 0.6592
391.90 0.6596
392.00 0.6601
392.10 0.6605
392.20 0.6609
392.30 0.6613
392.40 0.6617
392.50 0.6621
392.60 0.6626
392.70 0.663
392.80 0.6634
392.90 0.6638
393.00 0.6642
393.10 0.6646
393.20 0.6651
393.30 0.6655
393.40 0.6659
393.50 0.6663
393.60 0.6667
393.70 0.6671
393.80 0.6675
393.90 0.668
394.00 0.6684
394.10 0.6688
394.20 0.6692
394.30 0.6696
394.40 0.67
394.50 0.6704
394.60 0.6708
394.70 0.6713
394.80 0.6717
394.90 0.6721
395.00 0.6725
395.10 0.6729
395.20 0.6733
395.30 0.6737
395.40 0.6741
395.50 0.6746
395.60 0.675
395.70 0.6754
395.80 0.6758
395.90 0.6762
396.00 0.6766
396.10 0.677
396.20 0.6774
396.30 0.6778
396.40 0.6783
396.50 0.6787
396.60 0.6791
396.70 0.6795
396.80 0.6799
396.90 0.6803
397.00 0.6807
397.10 0.6811
397.20 0.6815
397.30 0.6819
397.40 0.6824
397.50 0.6828
397.60 0.6832
397.70 0.6836
397.80 0.684
397.90 0.6844
398.00 0.6848
398.10 0.6852
398.20 0.6856
398.30 0.686
398.40 0.6864
398.50 0.6868
398.60 0.6873
398.70 0.6877
398.80 0.6881
398.90 0.6885
399.00 0.6889
399.10 0.6893
399.20 0.6897
399.30 0.6901
399.40 0.6905
399.50 0.6909
399.60 0.6913
399.70 0.6917
399.80 0.6921
399.90 0.6925
400.00 0.6929
400.10 0.6933
400.20 0.6937
400.30 0.6942
400.40 0.6946
400.50 0.695
400.60 0.6954
400.70 0.6958
400.80 0.6962
400.90 0.6966
401.00 0.697
401.10 0.6974
401.20 0.6978
401.30 0.6982
401.40 0.6986
401.50 0.699
401.60 0.6994
401.70 0.6998
401.80 0.7002
401.90 0.7006
402.00 0.701
402.10 0.7014
402.20 0.7018
402.30 0.7022
402.40 0.7026
402.50 0.703
402.60 0.7034
402.70 0.7038
402.80 0.7042
402.90 0.7046
403.00 0.705
403.10 0.7054
403.20 0.7058
403.30 0.7062
403.40 0.7066
403.50 0.707
403.60 0.7074
403.70 0.7078
403.80 0.7082
403.90 0.7086
404.00 0.709
404.10 0.7094
404.20 0.7098
404.30 0.7102
404.40 0.7106
404.50 0.711
404.60 0.7114
404.70 0.7118
404.80 0.7122
404.90 0.7126
405.00 0.713
405.10 0.7134
405.20 0.7138
405.30 0.7142
405.40 0.7146
405.50 0.715
405.60 0.7154
405.70 0.7158
405.80 0.7162
405.90 0.7166
406.00 0.717
406.10 0.7174
406.20 0.7177
406.30 0.7181
406.40 0.7185
406.50 0.7189
406.60 0.7193
406.70 0.7197
406.80 0.7201
406.90 0.7205
407.00 0.7209
407.10 0.7213
407.20 0.7217
407.30 0.7221
407.40 0.7225
407.50 0.7229
407.60 0.7233
407.70 0.7237
407.80 0.724
407.90 0.7244
408.00 0.7248
408.10 0.7252
408.20 0.7256
408.30 0.726
408.40 0.7264
408.50 0.7268
408.60 0.7272
408.70 0.7276
408.80 0.728
408.90 0.7284
409.00 0.7287
409.10 0.7291
409.20 0.7295
409.30 0.7299
409.40 0.7303
409.50 0.7307
409.60 0.7311
409.70 0.7315
409.80 0.7319
409.90 0.7323
410.00 0.7326
410.10 0.733
410.20 0.7334
410.30 0.7338
410.40 0.7342
410.50 0.7346
410.60 0.735
410.70 0.7354
410.80 0.7357
410.90 0.7361
411.00 0.7365
411.10 0.7369
411.20 0.7373
411.30 0.7377
411.40 0.7381
411.50 0.7385
411.60 0.7388
411.70 0.7392
411.80 0.7396
411.90 0.74
412.00 0.7404
412.10 0.7408
412.20 0.7412
412.30 0.7415
412.40 0.7419
412.50 0.7423
412.60 0.7427
412.70 0.7431
412.80 0.7435
412.90 0.7438
413.00 0.7442
413.10 0.7446
413.20 0.745
413.30 0.7454
413.40 0.7458
413.50 0.7461
413.60 0.7465
413.70 0.7469
413.80 0.7473
413.90 0.7477
414.00 0.748
414.10 0.7484
414.20 0.7488
414.30 0.7492
414.40 0.7496
414.50 0.75
414.60 0.7503
414.70 0.7507
414.80 0.7511
414.90 0.7515
415.00 0.7519
415.10 0.7522
415.20 0.7526
415.30 0.753
415.40 0.7534
415.50 0.7538
415.60 0.7541
415.70 0.7545
415.80 0.7549
415.90 0.7553
416.00 0.7556
416.10 0.756
416.20 0.7564
416.30 0.7568
416.40 0.7572
416.50 0.7575
416.60 0.7579
416.70 0.7583
416.80 0.7587
416.90 0.759
417.00 0.7594
417.10 0.7598
417.20 0.7602
417.30 0.7605
417.40 0.7609
417.50 0.7613
417.60 0.7617
417.70 0.7621
417.80 0.7624
417.90 0.7628
418.00 0.7632
418.10 0.7636
418.20 0.7639
418.30 0.7643
418.40 0.7647
418.50 0.765
418.60 0.7654
418.70 0.7658
418.80 0.7662
418.90 0.7665
419.00 0.7669
419.10 0.7673
419.20 0.7677
419.30 0.768
419.40 0.7684
419.50 0.7688
419.60 0.7691
419.70 0.7695
419.80 0.7699
419.90 0.7703
420.00 0.7706
420.10 0.771
420.20 0.7714
420.30 0.7717
420.40 0.7721
420.50 0.7725
420.60 0.7728
420.70 0.7732
420.80 0.7736
420.90 0.774
421.00 0.7743
421.10 0.7747
421.20 0.7751
421.30 0.7754
421.40 0.7758
421.50 0.7762
421.60 0.7765
421.70 0.7769
421.80 0.7773
421.90 0.7776
422.00 0.778
422.10 0.7784
422.20 0.7787
422.30 0.7791
422.40 0.7795
422.50 0.7798
422.60 0.7802
422.70 0.7806
422.80 0.7809
422.90 0.7813
423.00 0.7817
423.10 0.782
423.20 0.7824
423.30 0.7828
423.40 0.7831
423.50 0.7835
423.60 0.7838
423.70 0.7842
423.80 0.7846
423.90 0.7849
424.00 0.7853
424.10 0.7857
424.20 0.786
424.30 0.7864
424.40 0.7868
424.50 0.7871
424.60 0.7875
424.70 0.7878
424.80 0.7882
424.90 0.7886
425.00 0.7889
425.10 0.7893
425.20 0.7896
425.30 0.79
425.40 0.7904
425.50 0.7907
425.60 0.7911
425.70 0.7914
425.80 0.7918
425.90 0.7922
426.00 0.7925
426.10 0.7929
426.20 0.7932
426.30 0.7936
426.40 0.794
426.50 0.7943
426.60 0.7947
426.70 0.795
426.80 0.7954
426.90 0.7957
427.00 0.7961
427.10 0.7965
427.20 0.7968
427.30 0.7972
427.40 0.7975
427.50 0.7979
427.60 0.7982
427.70 0.7986
427.80 0.799
427.90 0.7993
428.00 0.7997
428.10 0.8
428.20 0.8004
428.30 0.8007
428.40 0.8011
428.50 0.8014
428.60 0.8018
428.70 0.8021
428.80 0.8025
428.90 0.8029
429.00 0.8032
429.10 0.8036
429.20 0.8039
429.30 0.8043
429.40 0.8046
429.50 0.805
429.60 0.8053
429.70 0.8057
429.80 0.806
429.90 0.8064
430.00 0.8067
430.10 0.8071
430.20 0.8074
430.30 0.8078
430.40 0.8081
430.50 0.8085
430.60 0.8088
430.70 0.8092
430.80 0.8095
430.90 0.8099
431.00 0.8102
431.10 0.8106
431.20 0.8109
431.30 0.8113
431.40 0.8116
431.50 0.812
431.60 0.8123
431.70 0.8127
431.80 0.813
431.90 0.8134
432.00 0.8137
432.10 0.8141
432.20 0.8144
432.30 0.8147
432.40 0.8151
432.50 0.8154
432.60 0.8158
432.70 0.8161
432.80 0.8165
432.90 0.8168
433.00 0.8172
433.10 0.8175
433.20 0.8179
433.30 0.8182
433.40 0.8185
433.50 0.8189
433.60 0.8192
433.70 0.8196
433.80 0.8199
433.90 0.8202
434.00 0.8206
434.10 0.8209
434.20 0.8213
434.30 0.8216
434.40 0.822
434.50 0.8223
434.60 0.8226
434.70 0.823
434.80 0.8233
434.90 0.8237
435.00 0.824
435.10 0.8244
435.20 0.8247
435.30 0.8251
435.40 0.8254
435.50 0.8257
435.60 0.8261
435.70 0.8264
435.80 0.8268
435.90 0.8271
436.00 0.8274
436.10 0.8278
436.20 0.8281
436.30 0.8284
436.40 0.8288
436.50 0.8291
436.60 0.8295
436.70 0.8298
436.80 0.8301
436.90 0.8305
437.00 0.8308
437.10 0.8311
437.20 0.8315
437.30 0.8318
437.40 0.8322
437.50 0.8325
437.60 0.8328
437.70 0.8332
437.80 0.8335
437.90 0.8338
438.00 0.8342
438.10 0.8345
438.20 0.8348
438.30 0.8352
438.40 0.8355
438.50 0.8358
438.60 0.8362
438.70 0.8365
438.80 0.8368
438.90 0.8372
439.00 0.8375
439.10 0.8378
439.20 0.8382
439.30 0.8385
439.40 0.8388
439.50 0.8392
439.60 0.8395
439.70 0.8398
439.80 0.8402
439.90 0.8405
440.00 0.8408
440.10 0.8412
440.20 0.8415
440.30 0.8418
440.40 0.8421
440.50 0.8425
440.60 0.8428
440.70 0.8431
440.80 0.8435
440.90 0.8438
441.00 0.8441
441.10 0.8445
441.20 0.8448
441.30 0.8451
441.40 0.8454
441.50 0.8458
441.60 0.8461
441.70 0.8464
441.80 0.8467
441.90 0.8471
442.00 0.8474
442.10 0.8477
442.20 0.8481
442.30 0.8484
442.40 0.8487
442.50 0.849
442.60 0.8493
442.70 0.8497
442.80 0.85
442.90 0.8503
443.00 0.8506
443.10 0.851
443.20 0.8513
443.30 0.8516
443.40 0.8519
443.50 0.8523
443.60 0.8526
443.70 0.8529
443.80 0.8533
443.90 0.8535
444.00 0.8539
444.10 0.8542
444.20 0.8546
444.30 0.8549
444.40 0.8552
444.50 0.8555
444.60 0.8558
444.70 0.8561
444.80 0.8564
444.90 0.8568
445.00 0.8571
445.10 0.8574
445.20 0.8577
445.30 0.8581
445.40 0.8584
445.50 0.8587
445.60 0.859
445.70 0.8594
445.80 0.8597
445.90 0.8599
446.00 0.8603
446.10 0.8606
446.20 0.8609
446.30 0.8612
446.40 0.8616
446.50 0.8619
446.60 0.8622
446.70 0.8625
446.80 0.8628
446.90 0.8631
447.00 0.8635
447.10 0.8637
447.20 0.8641
447.30 0.8644
447.40 0.8647
447.50 0.865
447.60 0.8653
447.70 0.8656
447.80 0.866
447.90 0.8663
448.00 0.8666
448.10 0.8669
448.20 0.8672
448.30 0.8675
448.40 0.8679
448.50 0.8682
448.60 0.8685
448.70 0.8688
448.80 0.8691
448.90 0.8694
449.00 0.8697
449.10 0.87
449.20 0.8703
449.30 0.8707
449.40 0.871
449.50 0.8713
449.60 0.8716
449.70 0.8719
449.80 0.8722
449.90 0.8725
450.00 0.8729
450.10 0.8732
450.20 0.8734
450.30 0.8737
450.40 0.8741
450.50 0.8744
450.60 0.8747
450.70 0.875
450.80 0.8753
450.90 0.8756
451.00 0.8759
451.10 0.8762
451.20 0.8765
451.30 0.8769
451.40 0.8771
451.50 0.8774
451.60 0.8777
451.70 0.878
451.80 0.8784
451.90 0.8787
452.00 0.879
452.10 0.8793
452.20 0.8795
452.30 0.8799
452.40 0.8802
452.50 0.8805
452.60 0.8808
452.70 0.8811
452.80 0.8814
452.90 0.8817
453.00 0.882
453.10 0.8823
453.20 0.8826
453.30 0.8829
453.40 0.8832
453.50 0.8835
453.60 0.8838
453.70 0.8841
453.80 0.8844
453.90 0.8847
454.00 0.8851
454.10 0.8854
454.20 0.8857
454.30 0.886
454.40 0.8863
454.50 0.8866
454.60 0.8869
454.70 0.8871
454.80 0.8874
454.90 0.8877
455.00 0.888
455.10 0.8883
455.20 0.8886
455.30 0.8889
455.40 0.8892
455.50 0.8895
455.60 0.8898
455.70 0.8901
455.80 0.8904
455.90 0.8907
456.00 0.891
456.10 0.8913
456.20 0.8916
456.30 0.8919
456.40 0.8922
456.50 0.8924
456.60 0.8927
456.70 0.893
456.80 0.8933
456.90 0.8936
457.00 0.8939
457.10 0.8942
457.20 0.8945
457.30 0.8948
457.40 0.8951
457.50 0.8954
457.60 0.8957
457.70 0.896
457.80 0.8963
457.90 0.8966
458.00 0.8969
458.10 0.8972
458.20 0.8975
458.30 0.8978
458.40 0.8981
458.50 0.8984
458.60 0.8986
458.70 0.8989
458.80 0.8992
458.90 0.8995
459.00 0.8998
459.10 0.9001
459.20 0.9004
459.30 0.9006
459.40 0.9009
459.50 0.9012
459.60 0.9015
459.70 0.9018
459.80 0.9021
459.90 0.9024
460.00 0.9027
460.10 0.903
460.20 0.9032
460.30 0.9035
460.40 0.9038
460.50 0.9041
460.60 0.9044
460.70 0.9047
460.80 0.9049
460.90 0.9052
461.00 0.9055
461.10 0.9058
461.20 0.9061
461.30 0.9064
461.40 0.9067
461.50 0.907
461.60 0.9072
461.70 0.9075
461.80 0.9078
461.90 0.9081
462.00 0.9084
462.10 0.9087
462.20 0.9089
462.30 0.9092
462.40 0.9095
462.50 0.9098
462.60 0.9101
462.70 0.9104
462.80 0.9106
462.90 0.9109
463.00 0.9112
463.10 0.9115
463.20 0.9118
463.30 0.912
463.40 0.9123
463.50 0.9126
463.60 0.9129
463.70 0.9132
463.80 0.9134
463.90 0.9137
464.00 0.914
464.10 0.9143
464.20 0.9146
464.30 0.9148
464.40 0.9151
464.50 0.9154
464.60 0.9157
464.70 0.9159
464.80 0.9162
464.90 0.9165
465.00 0.9168
465.10 0.917
465.20 0.9173
465.30 0.9176
465.40 0.9179
465.50 0.9182
465.60 0.9184
465.70 0.9187
465.80 0.919
465.90 0.9193
466.00 0.9195
466.10 0.9198
466.20 0.9201
466.30 0.9204
466.40 0.9206
466.50 0.9209
466.60 0.9212
466.70 0.9214
466.80 0.9217
466.90 0.922
467.00 0.9223
467.10 0.9225
467.20 0.9228
467.30 0.9231
467.40 0.9233
467.50 0.9236
467.60 0.9239
467.70 0.9242
467.80 0.9244
467.90 0.9247
468.00 0.925
468.10 0.9253
468.20 0.9255
468.30 0.9258
468.40 0.9261
468.50 0.9263
468.60 0.9266
468.70 0.9269
468.80 0.9272
468.90 0.9274
469.00 0.9277
469.10 0.928
469.20 0.9282
469.30 0.9285
469.40 0.9288
469.50 0.929
469.60 0.9293
469.70 0.9295
469.80 0.9298
469.90 0.9301
470.00 0.9303
470.10 0.9306
470.20 0.9308
470.30 0.9311
470.40 0.9314
470.50 0.9316
470.60 0.9319
470.70 0.9322
470.80 0.9324
470.90 0.9327
471.00 0.9329
471.10 0.9332
471.20 0.9335
471.30 0.9337
471.40 0.934
471.50 0.9343
471.60 0.9345
471.70 0.9348
471.80 0.935
471.90 0.9353
472.00 0.9356
472.10 0.9358
472.20 0.9361
472.30 0.9363
472.40 0.9366
472.50 0.9369
472.60 0.9371
472.70 0.9374
472.80 0.9377
472.90 0.9379
473.00 0.9382
473.10 0.9385
473.20 0.9387
473.30 0.939
473.40 0.9392
473.50 0.9395
473.60 0.9398
473.70 0.94
473.80 0.9403
473.90 0.9405
474.00 0.9408
474.10 0.941
474.20 0.9413
474.30 0.9415
474.40 0.9418
474.50 0.942
474.60 0.9423
474.70 0.9425
474.80 0.9428
474.90 0.943
475.00 0.9433
475.10 0.9435
475.20 0.9438
475.30 0.9441
475.40 0.9443
475.50 0.9446
475.60 0.9448
475.70 0.9451
475.80 0.9453
475.90 0.9456
476.00 0.9459
476.10 0.9461
476.20 0.9464
476.30 0.9466
476.40 0.9469
476.50 0.9471
476.60 0.9474
476.70 0.9476
476.80 0.9479
476.90 0.9481
477.00 0.9484
477.10 0.9486
477.20 0.9489
477.30 0.9491
477.40 0.9494
477.50 0.9496
477.60 0.9499
477.70 0.9501
477.80 0.9504
477.90 0.9506
478.00 0.9508
478.10 0.9511
478.20 0.9513
478.30 0.9516
478.40 0.9518
478.50 0.9521
478.60 0.9523
478.70 0.9526
478.80 0.9528
478.90 0.9531
479.00 0.9533
479.10 0.9536
479.20 0.9538
479.30 0.954
479.40 0.9543
479.50 0.9545
479.60 0.9548
479.70 0.955
479.80 0.9553
479.90 0.9555
480.00 0.9558
480.10 0.956
480.20 0.9563
480.30 0.9565
480.40 0.9567
480.50 0.957
480.60 0.9572
480.70 0.9575
480.80 0.9577
480.90 0.9579
481.00 0.9582
481.10 0.9584
481.20 0.9587
481.30 0.9589
481.40 0.9591
481.50 0.9594
481.60 0.9596
481.70 0.9599
481.80 0.9601
481.90 0.9603
482.00 0.9606
482.10 0.9608
482.20 0.961
482.30 0.9613
482.40 0.9615
482.50 0.9618
482.60 0.962
482.70 0.9622
482.80 0.9625
482.90 0.9627
483.00 0.9629
483.10 0.9632
483.20 0.9634
483.30 0.9636
483.40 0.9639
483.50 0.9641
483.60 0.9643
483.70 0.9646
483.80 0.9648
483.90 0.965
484.00 0.9653
484.10 0.9655
484.20 0.9657
484.30 0.966
484.40 0.9662
484.50 0.9665
484.60 0.9667
484.70 0.9669
484.80 0.9672
484.90 0.9674
485.00 0.9676
485.10 0.9678
485.20 0.968
485.30 0.9682
485.40 0.9685
485.50 0.9687
485.60 0.9689
485.70 0.9691
485.80 0.9693
485.90 0.9695
486.00 0.9697
486.10 0.9699
486.20 0.9701
486.30 0.9704
486.40 0.9706
486.50 0.9709
486.60 0.9711
486.70 0.9714
486.80 0.9717
486.90 0.9719
487.00 0.9721
487.10 0.9724
487.20 0.9727
487.30 0.9729
487.40 0.9731
487.50 0.9733
487.60 0.9736
487.70 0.9738
487.80 0.974
487.90 0.9743
488.00 0.9745
488.10 0.9747
488.20 0.9749
488.30 0.9752
488.40 0.9754
488.50 0.9756
488.60 0.9759
488.70 0.9761
488.80 0.9763
488.90 0.9765
489.00 0.9768
489.10 0.977
489.20 0.9772
489.30 0.9774
489.40 0.9776
489.50 0.9779
489.60 0.9781
489.70 0.9783
489.80 0.9785
489.90 0.9787
490.00 0.979
490.10 0.9792
490.20 0.9794
490.30 0.9796
490.40 0.9798
490.50 0.9801
490.60 0.9803
490.70 0.9805
490.80 0.9807
490.90 0.9809
491.00 0.9812
491.10 0.9814
491.20 0.9816
491.30 0.9818
491.40 0.982
491.50 0.9823
491.60 0.9825
491.70 0.9827
491.80 0.9829
491.90 0.9831
492.00 0.9834
492.10 0.9836
492.20 0.9838
492.30 0.984
492.40 0.9842
492.50 0.9845
492.60 0.9847
492.70 0.9849
492.80 0.9851
492.90 0.9853
493.00 0.9855
493.10 0.9857
493.20 0.986
493.30 0.9862
493.40 0.9864
493.50 0.9866
493.60 0.9868
493.70 0.987
493.80 0.9872
493.90 0.9875
494.00 0.9877
494.10 0.9879
494.20 0.9881
494.30 0.9883
494.40 0.9885
494.50 0.9887
494.60 0.9889
494.70 0.9892
494.80 0.9894
494.90 0.9896
495.00 0.9898
495.10 0.99
495.20 0.9902
495.30 0.9904
495.40 0.9906
495.50 0.9908
495.60 0.991
495.70 0.9913
495.80 0.9915
495.90 0.9917
496.00 0.9919
496.10 0.9921
496.20 0.9923
496.30 0.9925
496.40 0.9927
496.50 0.9929
496.60 0.9931
496.70 0.9933
496.80 0.9935
496.90 0.9937
497.00 0.9939
497.10 0.9941
497.20 0.9944
497.30 0.9946
497.40 0.9948
497.50 0.995
497.60 0.9952
497.70 0.9954
497.80 0.9956
497.90 0.9958
498.00 0.996
498.10 0.9962
498.20 0.9964
498.30 0.9966
498.40 0.9968
498.50 0.997
498.60 0.9972
498.70 0.9974
498.80 0.9976
498.90 0.9978
499.00 0.998
499.10 0.9982
499.20 0.9984
499.30 0.9986
499.40 0.9988
499.50 0.999
499.60 0.9992
499.70 0.9994
499.80 0.9996
499.90 0.9998
500.00 1
500.10 1
500.20 1
500.30 1.001
500.40 1.001
500.50 1.001
500.60 1.001
500.70 1.001
500.80 1.002
500.90 1.002
501.00 1.002
501.10 1.002
501.20 1.002
501.30 1.003
501.40 1.003
501.50 1.003
501.60 1.003
501.70 1.003
501.80 1.004
501.90 1.004
502.00 1.004
502.10 1.004
502.20 1.004
502.30 1.005
502.40 1.005
502.50 1.005
502.60 1.005
502.70 1.005
502.80 1.006
502.90 1.006
503.00 1.006
503.10 1.006
503.20 1.006
503.30 1.006
503.40 1.007
503.50 1.007
503.60 1.007
503.70 1.007
503.80 1.007
503.90 1.008
504.00 1.008
504.10 1.008
504.20 1.008
504.30 1.008
504.40 1.009
504.50 1.009
504.60 1.009
504.70 1.009
504.80 1.009
504.90 1.01
505.00 1.01
505.10 1.01
505.20 1.01
505.30 1.01
505.40 1.01
505.50 1.011
505.60 1.011
505.70 1.011
505.80 1.011
505.90 1.011
506.00 1.012
506.10 1.012
506.20 1.012
506.30 1.012
506.40 1.012
506.50 1.013
506.60 1.013
506.70 1.013
506.80 1.013
506.90 1.013
507.00 1.013
507.10 1.014
507.20 1.014
507.30 1.014
507.40 1.014
507.50 1.014
507.60 1.015
507.70 1.015
507.80 1.015
507.90 1.015
508.00 1.015
508.10 1.015
508.20 1.016
508.30 1.016
508.40 1.016
508.50 1.016
508.60 1.016
508.70 1.017
508.80 1.017
508.90 1.017
509.00 1.017
509.10 1.017
509.20 1.017
509.30 1.018
509.40 1.018
509.50 1.018
509.60 1.018
509.70 1.018
509.80 1.019
509.90 1.019
510.00 1.019
510.10 1.019
510.20 1.019
510.30 1.019
510.40 1.02
510.50 1.02
510.60 1.02
510.70 1.02
510.80 1.02
510.90 1.02
511.00 1.021
511.10 1.021
511.20 1.021
511.30 1.021
511.40 1.021
511.50 1.022
511.60 1.022
511.70 1.022
511.80 1.022
511.90 1.022
512.00 1.022
512.10 1.023
512.20 1.023
512.30 1.023
512.40 1.023
512.50 1.023
512.60 1.023
512.70 1.024
512.80 1.024
512.90 1.024
513.00 1.024
513.10 1.024
513.20 1.025
513.30 1.025
513.40 1.025
513.50 1.025
513.60 1.025
513.70 1.025
513.80 1.026
513.90 1.026
514.00 1.026
514.10 1.026
514.20 1.026
514.30 1.026
514.40 1.027
514.50 1.027
514.60 1.027
514.70 1.027
514.80 1.027
514.90 1.027
515.00 1.028
515.10 1.028
515.20 1.028
515.30 1.028
515.40 1.028
515.50 1.028
515.60 1.029
515.70 1.029
515.80 1.029
515.90 1.029
516.00 1.029
516.10 1.029
516.20 1.03
516.30 1.03
516.40 1.03
516.50 1.03
516.60 1.03
516.70 1.03
516.80 1.031
516.90 1.031
517.00 1.031
517.10 1.031
517.20 1.031
517.30 1.031
517.40 1.032
517.50 1.032
517.60 1.032
517.70 1.032
517.80 1.032
517.90 1.032
518.00 1.032
518.10 1.033
518.20 1.033
518.30 1.033
518.40 1.033
518.50 1.033
518.60 1.033
518.70 1.034
518.80 1.034
518.90 1.034
519.00 1.034
519.10 1.034
519.20 1.034
519.30 1.035
519.40 1.035
519.50 1.035
519.60 1.035
519.70 1.035
519.80 1.035
519.90 1.036
520.00 1.036
520.10 1.036
520.20 1.036
520.30 1.036
520.40 1.036
520.50 1.036
520.60 1.037
520.70 1.037
520.80 1.037
520.90 1.037
521.00 1.037
521.10 1.037
521.20 1.038
521.30 1.038
521.40 1.038
521.50 1.038
521.60 1.038
521.70 1.038
521.80 1.038
521.90 1.039
522.00 1.039
522.10 1.039
522.20 1.039
522.30 1.039
522.40 1.039
522.50 1.04
522.60 1.04
522.70 1.04
522.80 1.04
522.90 1.04
523.00 1.04
523.10 1.04
523.20 1.041
523.30 1.041
523.40 1.041
523.50 1.041
523.60 1.041
523.70 1.041
523.80 1.042
523.90 1.042
524.00 1.042
524.10 1.042
524.20 1.042
524.30 1.042
524.40 1.042
524.50 1.043
524.60 1.043
524.70 1.043
524.80 1.043
524.90 1.043
525.00 1.043
525.10 1.043
525.20 1.044
525.30 1.044
525.40 1.044
525.50 1.044
525.60 1.044
525.70 1.044
525.80 1.044
525.90 1.045
526.00 1.045
526.10 1.045
526.20 1.045
526.30 1.045
526.40 1.045
526.50 1.046
526.60 1.046
526.70 1.046
526.80 1.046
526.90 1.046
527.00 1.046
527.10 1.046
527.20 1.047
527.30 1.047
527.40 1.047
527.50 1.047
527.60 1.047
527.70 1.047
527.80 1.047
527.90 1.047
528.00 1.048
528.10 1.048
528.20 1.048
528.30 1.048
528.40 1.048
528.50 1.048
528.60 1.048
528.70 1.049
528.80 1.049
528.90 1.049
529.00 1.049
529.10 1.049
529.20 1.049
529.30 1.049
529.40 1.05
529.50 1.05
529.60 1.05
529.70 1.05
529.80 1.05
529.90 1.05
530.00 1.05
530.10 1.051
530.20 1.051
530.30 1.051
530.40 1.051
530.50 1.051
530.60 1.051
530.70 1.051
530.80 1.052
530.90 1.052
531.00 1.052
531.10 1.052
531.20 1.052
531.30 1.052
531.40 1.052
531.50 1.052
531.60 1.053
531.70 1.053
531.80 1.053
531.90 1.053
532.00 1.053
532.10 1.053
532.20 1.053
532.30 1.054
532.40 1.054
532.50 1.054
532.60 1.054
532.70 1.054
532.80 1.054
532.90 1.054
533.00 1.054
533.10 1.055
533.20 1.055
533.30 1.055
533.40 1.055
533.50 1.055
533.60 1.055
533.70 1.055
533.80 1.055
533.90 1.056
534.00 1.056
534.10 1.056
534.20 1.056
534.30 1.056
534.40 1.056
534.50 1.056
534.60 1.057
534.70 1.057
534.80 1.057
534.90 1.057
535.00 1.057
535.10 1.057
535.20 1.057
535.30 1.057
535.40 1.058
535.50 1.058
535.60 1.058
535.70 1.058
535.80 1.058
535.90 1.058
536.00 1.058
536.10 1.058
536.20 1.059
536.30 1.059
536.40 1.059
536.50 1.059
536.60 1.059
536.70 1.059
536.80 1.059
536.90 1.059
537.00 1.06
537.10 1.06
537.20 1.06
537.30 1.06
537.40 1.06
537.50 1.06
537.60 1.06
537.70 1.06
537.80 1.061
537.90 1.061
538.00 1.061
538.10 1.061
538.20 1.061
538.30 1.061
538.40 1.061
538.50 1.061
538.60 1.062
538.70 1.062
538.80 1.062
538.90 1.062
539.00 1.062
539.10 1.062
539.20 1.062
539.30 1.062
539.40 1.062
539.50 1.063
539.60 1.063
539.70 1.063
539.80 1.063
539.90 1.063
540.00 1.063
540.10 1.063
540.20 1.063
540.30 1.064
540.40 1.064
540.50 1.064
540.60 1.064
540.70 1.064
540.80 1.064
540.90 1.064
541.00 1.064
541.10 1.064
541.20 1.065
541.30 1.065
541.40 1.065
541.50 1.065
541.60 1.065
541.70 1.065
541.80 1.065
541.90 1.065
542.00 1.065
542.10 1.066
542.20 1.066
542.30 1.066
542.40 1.066
542.50 1.066
542.60 1.066
542.70 1.066
542.80 1.066
542.90 1.067
543.00 1.067
543.10 1.067
543.20 1.067
543.30 1.067
543.40 1.067
543.50 1.067
543.60 1.067
543.70 1.067
543.80 1.068
543.90 1.068
544.00 1.068
544.10 1.068
544.20 1.068
544.30 1.068
544.40 1.068
544.50 1.068
544.60 1.068
544.70 1.068
544.80 1.069
544.90 1.069
545.00 1.069
545.10 1.069
545.20 1.069
545.30 1.069
545.40 1.069
545.50 1.069
545.60 1.069
545.70 1.07
545.80 1.07
545.90 1.07
546.00 1.07
546.10 1.07
546.20 1.07
546.30 1.07
546.40 1.07
546.50 1.07
546.60 1.071
546.70 1.071
546.80 1.071
546.90 1.071
547.00 1.071
547.10 1.071
547.20 1.071
547.30 1.071
547.40 1.071
547.50 1.071
547.60 1.072
547.70 1.072
547.80 1.072
547.90 1.072
548.00 1.072
548.10 1.072
548.20 1.072
548.30 1.072
548.40 1.072
548.50 1.073
548.60 1.073
548.70 1.073
548.80 1.073
548.90 1.073
549.00 1.073
549.10 1.073
549.20 1.073
549.30 1.073
549.40 1.073
549.50 1.074
549.60 1.074
549.70 1.074
549.80 1.074
549.90 1.074
550.00 1.074
550.10 1.074
550.20 1.074
550.30 1.074
550.40 1.074
550.50 1.074
550.60 1.075
550.70 1.075
550.80 1.075
550.90 1.075
551.00 1.075
551.10 1.075
551.20 1.075
551.30 1.075
551.40 1.075
551.50 1.075
551.60 1.076
551.70 1.076
551.80 1.076
551.90 1.076
552.00 1.076
552.10 1.076
552.20 1.076
552.30 1.076
552.40 1.076
552.50 1.076
552.60 1.077
552.70 1.077
552.80 1.077
552.90 1.077
553.00 1.077
553.10 1.077
553.20 1.077
553.30 1.077
553.40 1.077
553.50 1.077
553.60 1.077
553.70 1.078
553.80 1.078
553.90 1.078
554.00 1.078
554.10 1.078
554.20 1.078
554.30 1.078
554.40 1.078
554.50 1.078
554.60 1.078
554.70 1.078
554.80 1.079
554.90 1.079
555.00 1.079
555.10 1.079
555.20 1.079
555.30 1.079
555.40 1.079
555.50 1.079
555.60 1.079
555.70 1.079
555.80 1.079
555.90 1.08
556.00 1.08
556.10 1.08
556.20 1.08
556.30 1.08
556.40 1.08
556.50 1.08
556.60 1.08
556.70 1.08
556.80 1.08
556.90 1.08
557.00 1.08
557.10 1.081
557.20 1.081
557.30 1.081
557.40 1.081
557.50 1.081
557.60 1.081
557.70 1.081
557.80 1.081
557.90 1.081
558.00 1.081
558.10 1.081
558.20 1.082
558.30 1.082
558.40 1.082
558.50 1.082
558.60 1.082
558.70 1.082
558.80 1.082
558.90 1.082
559.00 1.082
559.10 1.082
559.20 1.082
559.30 1.082
559.40 1.083
559.50 1.083
559.60 1.083
559.70 1.083
559.80 1.083
559.90 1.083
560.00 1.083
560.10 1.083
560.20 1.083
560.30 1.083
560.40 1.083
560.50 1.083
560.60 1.084
560.70 1.084
560.80 1.084
560.90 1.084
561.00 1.084
561.10 1.084
561.20 1.084
561.30 1.084
561.40 1.084
561.50 1.084
561.60 1.084
561.70 1.084
561.80 1.084
561.90 1.085
562.00 1.085
562.10 1.085
562.20 1.085
562.30 1.085
562.40 1.085
562.50 1.085
562.60 1.085
562.70 1.085
562.80 1.085
562.90 1.085
563.00 1.085
563.10 1.085
563.20 1.086
563.30 1.086
563.40 1.086
563.50 1.086
563.60 1.086
563.70 1.086
563.80 1.086
563.90 1.086
564.00 1.086
564.10 1.086
564.20 1.086
564.30 1.086
564.40 1.086
564.50 1.086
564.60 1.087
564.70 1.087
564.80 1.087
564.90 1.087
565.00 1.087
565.10 1.087
565.20 1.087
565.30 1.087
565.40 1.087
565.50 1.087
565.60 1.087
565.70 1.087
565.80 1.087
565.90 1.088
566.00 1.088
566.10 1.088
566.20 1.088
566.30 1.088
566.40 1.088
566.50 1.088
566.60 1.088
566.70 1.088
566.80 1.088
566.90 1.088
567.00 1.088
567.10 1.088
567.20 1.088
567.30 1.089
567.40 1.089
567.50 1.089
567.60 1.089
567.70 1.089
567.80 1.089
567.90 1.089
568.00 1.089
568.10 1.089
568.20 1.089
568.30 1.089
568.40 1.089
568.50 1.089
568.60 1.089
568.70 1.089
568.80 1.09
568.90 1.09
569.00 1.09
569.10 1.09
569.20 1.09
569.30 1.09
569.40 1.09
569.50 1.09
569.60 1.09
569.70 1.09
569.80 1.09
569.90 1.09
570.00 1.09
570.10 1.09
570.20 1.09
570.30 1.09
570.40 1.091
570.50 1.091
570.60 1.091
570.70 1.091
570.80 1.091
570.90 1.091
571.00 1.091
571.10 1.091
571.20 1.091
571.30 1.091
571.40 1.091
571.50 1.091
571.60 1.091
571.70 1.091
571.80 1.091
571.90 1.091
572.00 1.092
572.10 1.092
572.20 1.092
572.30 1.092
572.40 1.092
572.50 1.092
572.60 1.092
572.70 1.092
572.80 1.092
572.90 1.092
573.00 1.092
573.10 1.092
573.20 1.092
573.30 1.092
573.40 1.092
573.50 1.092
573.60 1.093
573.70 1.093
573.80 1.093
573.90 1.093
574.00 1.093
574.10 1.093
574.20 1.093
574.30 1.093
574.40 1.093
574.50 1.093
574.60 1.093
574.70 1.093
574.80 1.093
574.90 1.093
575.00 1.093
575.10 1.093
575.20 1.093
575.30 1.093
575.40 1.094
575.50 1.094
575.60 1.094
575.70 1.094
575.80 1.094
575.90 1.094
576.00 1.094
576.10 1.094
576.20 1.094
576.30 1.094
576.40 1.094
576.50 1.094
576.60 1.094
576.70 1.094
576.80 1.094
576.90 1.094
577.00 1.094
577.10 1.094
577.20 1.094
577.30 1.095
577.40 1.095
577.50 1.095
577.60 1.095
577.70 1.095
577.80 1.095
577.90 1.095
578.00 1.095
578.10 1.095
578.20 1.095
578.30 1.095
578.40 1.095
578.50 1.095
578.60 1.095
578.70 1.095
578.80 1.095
578.90 1.095
579.00 1.095
579.10 1.095
579.20 1.096
579.30 1.096
579.40 1.096
579.50 1.096
579.60 1.096
579.70 1.096
579.80 1.096
579.90 1.096
580.00 1.096
580.10 1.096
580.20 1.096
580.30 1.096
580.40 1.096
580.50 1.096
580.60 1.096
580.70 1.096
580.80 1.096
580.90 1.096
581.00 1.096
581.10 1.096
581.20 1.096
581.30 1.097
581.40 1.097
581.50 1.097
581.60 1.097
581.70 1.097
581.80 1.097
581.90 1.097
582.00 1.097
582.10 1.097
582.20 1.097
582.30 1.097
582.40 1.097
582.50 1.097
582.60 1.097
582.70 1.097
582.80 1.097
582.90 1.097
583.00 1.097
583.10 1.097
583.20 1.097
583.30 1.097
583.40 1.097
583.50 1.097
583.60 1.098
583.70 1.098
583.80 1.098
583.90 1.098
584.00 1.098
584.10 1.098
584.20 1.098
584.30 1.098
584.40 1.098
584.50 1.098
584.60 1.098
584.70 1.098
584.80 1.098
584.90 1.098
585.00 1.098
585.10 1.098
585.20 1.098
585.30 1.098
585.40 1.098
585.50 1.098
585.60 1.098
585.70 1.098
585.80 1.098
585.90 1.098
586.00 1.099
586.10 1.099
586.20 1.099
586.30 1.099
586.40 1.099
586.50 1.099
586.60 1.099
586.70 1.099
586.80 1.099
586.90 1.099
587.00 1.099
587.10 1.099
587.20 1.099
587.30 1.099
587.40 1.099
587.50 1.099
587.60 1.099
587.70 1.099
587.80 1.099
587.90 1.099
588.00 1.099
588.10 1.099
588.20 1.099
588.30 1.099
588.40 1.099
588.50 1.099
588.60 1.099
588.70 1.1
588.80 1.1
588.90 1.1
589.00 1.1
589.10 1.1
589.20 1.1
589.30 1.1
589.40 1.1
589.50 1.1
589.60 1.1
589.70 1.1
589.80 1.1
589.90 1.1
590.00 1.1
590.10 1.1
590.20 1.1
590.30 1.1
590.40 1.1
590.50 1.1
590.60 1.1
590.70 1.1
590.80 1.1
590.90 1.1
591.00 1.1
591.10 1.1
591.20 1.1
591.30 1.1
591.40 1.1
591.50 1.1
591.60 1.1
591.70 1.1
591.80 1.1
591.90 1.101
592.00 1.101
592.10 1.101
592.20 1.101
592.30 1.101
592.40 1.101
592.50 1.101
592.60 1.101
592.70 1.101
592.80 1.101
592.90 1.101
593.00 1.101
593.10 1.101
593.20 1.101
593.30 1.101
593.40 1.101
593.50 1.101
593.60 1.101
593.70 1.101
593.80 1.101
593.90 1.101
594.00 1.101
594.10 1.101
594.20 1.101
594.30 1.101
594.40 1.101
594.50 1.101
594.60 1.101
594.70 1.101
594.80 1.101
594.90 1.101
595.00 1.101
595.10 1.101
595.20 1.101
595.30 1.101
595.40 1.101
595.50 1.102
595.60 1.102
595.70 1.102
595.80 1.102
595.90 1.102
596.00 1.102
596.10 1.102
596.20 1.102
596.30 1.102
596.40 1.102
596.50 1.102
596.60 1.102
596.70 1.102
596.80 1.102
596.90 1.102
597.00 1.102
597.10 1.102
597.20 1.102
597.30 1.102
597.40 1.102
597.50 1.102
597.60 1.102
597.70 1.102
597.80 1.102
597.90 1.102
598.00 1.102
598.10 1.102
598.20 1.102
598.30 1.102
598.40 1.102
598.50 1.102
598.60 1.102
598.70 1.102
598.80 1.102
598.90 1.102
599.00 1.102
599.10 1.102
599.20 1.102
599.30 1.102
599.40 1.102
599.50 1.102
599.60 1.102
599.70 1.102
599.80 1.102
599.90 1.102
600.00 1.102
600.10 1.102
600.20 1.102
600.30 1.103
600.40 1.103
600.50 1.103
600.60 1.103
600.70 1.103
600.80 1.103
600.90 1.103
601.00 1.103
601.10 1.103
601.20 1.103
601.30 1.103
601.40 1.103
601.50 1.103
601.60 1.103
601.70 1.103
601.80 1.103
601.90 1.103
602.00 1.103
602.10 1.103
602.20 1.103
602.30 1.103
602.40 1.103
602.50 1.103
602.60 1.103
602.70 1.103
602.80 1.103
602.90 1.103
603.00 1.103
603.10 1.103
603.20 1.103
603.30 1.103
603.40 1.103
603.50 1.103
603.60 1.103
603.70 1.103
603.80 1.103
603.90 1.103
604.00 1.103
604.10 1.103
604.20 1.103
604.30 1.103
604.40 1.103
604.50 1.103
604.60 1.103
604.70 1.103
604.80 1.103
604.90 1.103
605.00 1.103
605.10 1.103
605.20 1.103
605.30 1.103
605.40 1.103
605.50 1.103
605.60 1.103
605.70 1.103
605.80 1.103
605.90 1.103
606.00 1.103
606.10 1.103
606.20 1.103
606.30 1.103
606.40 1.103
606.50 1.103
606.60 1.103
606.70 1.103
606.80 1.103
606.90 1.103
607.00 1.103
607.10 1.103
607.20 1.103
607.30 1.103
607.40 1.103
607.50 1.103
607.60 1.103
607.70 1.103
607.80 1.103
607.90 1.103
608.00 1.103
608.10 1.103
608.20 1.104
608.30 1.104
608.40 1.104
608.50 1.104
608.60 1.104
608.70 1.104
608.80 1.104
608.90 1.104
609.00 1.104
609.10 1.104
609.20 1.104
609.30 1.104
609.40 1.104
609.50 1.104
609.60 1.104
609.70 1.104
609.80 1.104
609.90 1.104
610.00 1.104
610.10 1.104
610.20 1.104
610.30 1.104
610.40 1.104
610.50 1.104
610.60 1.104
610.70 1.104
610.80 1.104
610.90 1.104
611.00 1.104
611.10 1.104
611.20 1.104
611.30 1.104
611.40 1.104
611.50 1.104
611.60 1.104
611.70 1.104
611.80 1.104
611.90 1.104
612.00 1.104
612.10 1.104
612.20 1.104
612.30 1.104
612.40 1.104
612.50 1.104
612.60 1.104
612.70 1.104
612.80 1.104
612.90 1.104
613.00 1.104
613.10 1.104
613.20 1.104
613.30 1.104
613.40 1.104
613.50 1.104
613.60 1.104
613.70 1.104
613.80 1.104
613.90 1.104
614.00 1.104
614.10 1.104
614.20 1.104
614.30 1.104
614.40 1.104
614.50 1.104
614.60 1.104
614.70 1.104
614.80 1.104
614.90 1.104
615.00 1.104
615.10 1.104
615.20 1.104
615.30 1.104
615.40 1.104
615.50 1.104
615.60 1.104
615.70 1.104
615.80 1.104
615.90 1.104
616.00 1.104
616.10 1.104
616.20 1.104
616.30 1.104
616.40 1.104
616.50 1.104
616.60 1.104
616.70 1.104
616.80 1.104
616.90 1.104
617.00 1.104
617.10 1.104
617.20 1.104
617.30 1.104
617.40 1.104
617.50 1.104
617.60 1.104
617.70 1.104
617.80 1.104
617.90 1.104
618.00 1.104
618.10 1.104
618.20 1.104
618.30 1.104
618.40 1.104
618.50 1.104
618.60 1.104
618.70 1.104
618.80 1.104
618.90 1.104
619.00 1.103
619.10 1.103
619.20 1.103
619.30 1.103
619.40 1.103
619.50 1.103
619.60 1.103
619.70 1.103
619.80 1.103
619.90 1.103
620.00 1.103
620.10 1.103
620.20 1.103
620.30 1.103
620.40 1.103
620.50 1.103
620.60 1.103
620.70 1.103
620.80 1.103
620.90 1.103
621.00 1.103
621.10 1.103
621.20 1.103
621.30 1.103
621.40 1.103
621.50 1.103
621.60 1.103
621.70 1.103
621.80 1.103
621.90 1.103
622.00 1.103
622.10 1.103
622.20 1.103
622.30 1.103
622.40 1.103
622.50 1.103
622.60 1.103
622.70 1.103
622.80 1.103
622.90 1.103
623.00 1.103
623.10 1.103
623.20 1.103
623.30 1.103
623.40 1.103
623.50 1.103
623.60 1.103
623.70 1.103
623.80 1.103
623.90 1.103
624.00 1.103
624.10 1.103
624.20 1.103
624.30 1.103
624.40 1.103
624.50 1.103
624.60 1.103
624.70 1.103
624.80 1.103
624.90 1.103
625.00 1.103
625.10 1.103
625.20 1.103
625.30 1.103
625.40 1.103
625.50 1.103
625.60 1.103
625.70 1.103
625.80 1.103
625.90 1.103
626.00 1.103
626.10 1.103
626.20 1.103
626.30 1.103
626.40 1.103
626.50 1.103
626.60 1.103
626.70 1.103
626.80 1.103
626.90 1.103
627.00 1.103
627.10 1.103
627.20 1.103
627.30 1.103
627.40 1.103
627.50 1.102
627.60 1.102
627.70 1.102
627.80 1.102
627.90 1.102
628.00 1.102
628.10 1.102
628.20 1.102
628.30 1.102
628.40 1.102
628.50 1.102
628.60 1.102
628.70 1.102
628.80 1.102
628.90 1.102
629.00 1.102
629.10 1.102
629.20 1.102
629.30 1.102
629.40 1.102
629.50 1.102
629.60 1.102
629.70 1.102
629.80 1.102
629.90 1.102
630.00 1.102
630.10 1.102
630.20 1.102
630.30 1.102
630.40 1.102
630.50 1.102
630.60 1.102
630.70 1.102
630.80 1.102
630.90 1.102
631.00 1.102
631.10 1.102
631.20 1.102
631.30 1.102
631.40 1.102
631.50 1.102
631.60 1.102
631.70 1.102
631.80 1.102
631.90 1.102
632.00 1.102
632.10 1.102
632.20 1.102
632.30 1.102
632.40 1.102
632.50 1.101
632.60 1.101
632.70 1.101
632.80 1.101
632.90 1.101
633.00 1.101
633.10 1.101
633.20 1.101
633.30 1.101
633.40 1.101
633.50 1.101
633.60 1.101
633.70 1.101
633.80 1.101
633.90 1.101
634.00 1.101
634.10 1.101
634.20 1.101
634.30 1.101
634.40 1.101
634.50 1.101
634.60 1.101
634.70 1.101
634.80 1.101
634.90 1.101
635.00 1.101
635.10 1.101
635.20 1.101
635.30 1.101
635.40 1.101
635.50 1.101
635.60 1.101
635.70 1.101
635.80 1.101
635.90 1.101
636.00 1.101
636.10 1.101
636.20 1.101
636.30 1.101
636.40 1.101
636.50 1.1
636.60 1.1
636.70 1.1
636.80 1.1
636.90 1.1
637.00 1.1
637.10 1.1
637.20 1.1
637.30 1.1
637.40 1.1
637.50 1.1
637.60 1.1
637.70 1.1
637.80 1.1
637.90 1.1
638.00 1.1
638.10 1.1
638.20 1.1
638.30 1.1
638.40 1.1
638.50 1.1
638.60 1.1
638.70 1.1
638.80 1.1
638.90 1.1
639.00 1.1
639.10 1.1
639.20 1.1
639.30 1.1
639.40 1.1
639.50 1.1
639.60 1.1
639.70 1.1
639.80 1.1
639.90 1.099
640.00 1.099
640.10 1.099
640.20 1.099
640.30 1.099
640.40 1.099
640.50 1.099
640.60 1.099
640.70 1.099
640.80 1.099
640.90 1.099
641.00 1.099
641.10 1.099
641.20 1.099
641.30 1.099
641.40 1.099
641.50 1.099
641.60 1.099
641.70 1.099
641.80 1.099
641.90 1.099
642.00 1.099
642.10 1.099
642.20 1.099
642.30 1.099
642.40 1.099
642.50 1.099
642.60 1.099
642.70 1.099
642.80 1.099
642.90 1.099
643.00 1.098
643.10 1.098
643.20 1.098
643.30 1.098
643.40 1.098
643.50 1.098
643.60 1.098
643.70 1.098
643.80 1.098
643.90 1.098
644.00 1.098
644.10 1.098
644.20 1.098
644.30 1.098
644.40 1.098
644.50 1.098
644.60 1.098
644.70 1.098
644.80 1.098
644.90 1.098
645.00 1.098
645.10 1.098
645.20 1.098
645.30 1.098
645.40 1.098
645.50 1.098
645.60 1.098
645.70 1.098
645.80 1.097
645.90 1.097
646.00 1.097
646.10 1.097
646.20 1.097
646.30 1.097
646.40 1.097
646.50 1.097
646.60 1.097
646.70 1.097
646.80 1.097
646.90 1.097
647.00 1.097
647.10 1.097
647.20 1.097
647.30 1.097
647.40 1.097
647.50 1.097
647.60 1.097
647.70 1.097
647.80 1.097
647.90 1.097
648.00 1.097
648.10 1.097
648.20 1.097
648.30 1.097
648.40 1.096
648.50 1.096
648.60 1.096
648.70 1.096
648.80 1.096
648.90 1.096
649.00 1.096
649.10 1.096
649.20 1.096
649.30 1.096
649.40 1.096
649.50 1.096
649.60 1.096
649.70 1.096
649.80 1.096
649.90 1.096
650.00 1.096
650.10 1.096
650.20 1.096
650.30 1.096
650.40 1.096
650.50 1.096
650.60 1.096
650.70 1.095
650.80 1.095
650.90 1.095
651.00 1.095
651.10 1.095
651.20 1.095
651.30 1.095
651.40 1.095
651.50 1.095
651.60 1.095
651.70 1.095
651.80 1.095
651.90 1.095
652.00 1.095
652.10 1.095
652.20 1.095
652.30 1.095
652.40 1.095
652.50 1.095
652.60 1.095
652.70 1.095
652.80 1.095
652.90 1.094
653.00 1.094
653.10 1.094
653.20 1.094
653.30 1.094
653.40 1.094
653.50 1.094
653.60 1.094
653.70 1.094
653.80 1.094
653.90 1.094
654.00 1.094
654.10 1.094
654.20 1.094
654.30 1.094
654.40 1.094
654.50 1.094
654.60 1.094
654.70 1.093
654.80 1.093
654.90 1.093
655.00 1.093
655.10 1.093
655.20 1.093
655.30 1.093
655.40 1.093
655.50 1.093
655.60 1.093
655.70 1.092
655.80 1.092
655.90 1.092
656.00 1.092
656.10 1.092
656.20 1.092
656.30 1.091
656.40 1.091
656.50 1.092
656.60 1.092
656.70 1.092
656.80 1.092
656.90 1.092
657.00 1.092
657.10 1.092
657.20 1.092
657.30 1.092
657.40 1.092
657.50 1.092
657.60 1.092
657.70 1.092
657.80 1.092
657.90 1.092
658.00 1.092
658.10 1.092
658.20 1.092
658.30 1.092
658.40 1.092
658.50 1.092
658.60 1.092
658.70 1.092
658.80 1.092
658.90 1.092
659.00 1.092
659.10 1.092
659.20 1.091
659.30 1.091
659.40 1.091
659.50 1.091
659.60 1.091
659.70 1.091
659.80 1.091
659.90 1.091
660.00 1.091
660.10 1.091
660.20 1.091
660.30 1.091
660.40 1.091
660.50 1.091
660.60 1.091
660.70 1.091
660.80 1.091
660.90 1.091
661.00 1.091
661.10 1.091
661.20 1.091
661.30 1.09
661.40 1.09
661.50 1.09
661.60 1.09
661.70 1.09
661.80 1.09
661.90 1.09
662.00 1.09
662.10 1.09
662.20 1.09
662.30 1.09
662.40 1.09
662.50 1.09
662.60 1.09
662.70 1.09
662.80 1.09
662.90 1.09
663.00 1.09
663.10 1.09
663.20 1.089
663.30 1.089
663.40 1.089
663.50 1.089
663.60 1.089
663.70 1.089
663.80 1.089
663.90 1.089
664.00 1.089
664.10 1.089
664.20 1.089
664.30 1.089
664.40 1.089
664.50 1.089
664.60 1.089
664.70 1.089
664.80 1.089
664.90 1.089
665.00 1.089
665.10 1.088
665.20 1.088
665.30 1.088
665.40 1.088
665.50 1.088
665.60 1.088
665.70 1.088
665.80 1.088
665.90 1.088
666.00 1.088
666.10 1.088
666.20 1.088
666.30 1.088
666.40 1.088
666.50 1.088
666.60 1.088
666.70 1.088
666.80 1.087
666.90 1.087
667.00 1.087
667.10 1.087
667.20 1.087
667.30 1.087
667.40 1.087
667.50 1.087
667.60 1.087
667.70 1.087
667.80 1.087
667.90 1.087
668.00 1.087
668.10 1.087
668.20 1.087
668.30 1.087
668.40 1.087
668.50 1.087
668.60 1.086
668.70 1.086
668.80 1.086
668.90 1.086
669.00 1.086
669.10 1.086
669.20 1.086
669.30 1.086
669.40 1.086
669.50 1.086
669.60 1.086
669.70 1.086
669.80 1.086
669.90 1.086
670.00 1.086
670.10 1.086
670.20 1.086
670.30 1.085
670.40 1.085
670.50 1.085
670.60 1.085
670.70 1.085
670.80 1.085
670.90 1.085
671.00 1.085
671.10 1.085
671.20 1.085
671.30 1.085
671.40 1.085
671.50 1.085
671.60 1.085
671.70 1.085
671.80 1.085
671.90 1.084
672.00 1.084
672.10 1.084
672.20 1.084
672.30 1.084
672.40 1.084
672.50 1.084
672.60 1.084
672.70 1.084
672.80 1.084
672.90 1.084
673.00 1.084
673.10 1.084
673.20 1.084
673.30 1.084
673.40 1.084
673.50 1.083
673.60 1.083
673.70 1.083
673.80 1.083
673.90 1.083
674.00 1.083
674.10 1.083
674.20 1.083
674.30 1.083
674.40 1.083
674.50 1.083
674.60 1.083
674.70 1.083
674.80 1.083
674.90 1.083
675.00 1.083
675.10 1.082
675.20 1.082
675.30 1.082
675.40 1.082
675.50 1.082
675.60 1.082
675.70 1.082
675.80 1.082
675.90 1.082
676.00 1.082
676.10 1.082
676.20 1.082
676.30 1.082
676.40 1.082
676.50 1.082
676.60 1.081
676.70 1.081
676.80 1.081
676.90 1.081
677.00 1.081
677.10 1.081
677.20 1.081
677.30 1.081
677.40 1.081
677.50 1.081
677.60 1.081
677.70 1.081
677.80 1.081
677.90 1.081
678.00 1.081
678.10 1.08
678.20 1.08
678.30 1.08
678.40 1.08
678.50 1.08
678.60 1.08
678.70 1.08
678.80 1.08
678.90 1.08
679.00 1.08
679.10 1.08
679.20 1.08
679.30 1.08
679.40 1.08
679.50 1.08
679.60 1.079
679.70 1.079
679.80 1.079
679.90 1.079
680.00 1.079
680.10 1.079
680.20 1.079
680.30 1.079
680.40 1.079
680.50 1.079
680.60 1.079
680.70 1.079
680.80 1.079
680.90 1.079
681.00 1.079
681.10 1.078
681.20 1.078
681.30 1.078
681.40 1.078
681.50 1.078
681.60 1.078
681.70 1.078
681.80 1.078
681.90 1.078
682.00 1.078
682.10 1.078
682.20 1.078
682.30 1.078
682.40 1.078
682.50 1.077
682.60 1.077
682.70 1.077
682.80 1.077
682.90 1.077
683.00 1.077
683.10 1.077
683.20 1.077
683.30 1.077
683.40 1.077
683.50 1.077
683.60 1.077
683.70 1.077
683.80 1.077
683.90 1.077
684.00 1.076
684.10 1.076
684.20 1.076
684.30 1.076
684.40 1.076
684.50 1.076
684.60 1.076
684.70 1.076
684.80 1.076
684.90 1.076
685.00 1.076
685.10 1.076
685.20 1.076
685.30 1.075
685.40 1.075
685.50 1.075
685.60 1.075
685.70 1.075
685.80 1.075
685.90 1.075
686.00 1.075
686.10 1.075
686.20 1.075
686.30 1.075
686.40 1.075
686.50 1.075
686.60 1.075
686.70 1.074
686.80 1.074
686.90 1.074
687.00 1.074
687.10 1.074
687.20 1.074
687.30 1.074
687.40 1.074
687.50 1.074
687.60 1.074
687.70 1.074
687.80 1.074
687.90 1.074
688.00 1.074
688.10 1.073
688.20 1.073
688.30 1.073
688.40 1.073
688.50 1.073
688.60 1.073
688.70 1.073
688.80 1.073
688.90 1.073
689.00 1.073
689.10 1.073
689.20 1.073
689.30 1.073
689.40 1.072
689.50 1.072
689.60 1.072
689.70 1.072
689.80 1.072
689.90 1.072
690.00 1.072
690.10 1.072
690.20 1.072
690.30 1.072
690.40 1.072
690.50 1.072
690.60 1.072
690.70 1.071
690.80 1.071
690.90 1.071
691.00 1.071
691.10 1.071
691.20 1.071
691.30 1.071
691.40 1.071
691.50 1.071
691.60 1.071
691.70 1.071
691.80 1.071
691.90 1.071
692.00 1.07
692.10 1.07
692.20 1.07
692.30 1.07
692.40 1.07
692.50 1.07
692.60 1.07
692.70 1.07
692.80 1.07
692.90 1.07
693.00 1.07
693.10 1.07
693.20 1.07
693.30 1.069
693.40 1.069
693.50 1.069
693.60 1.069
693.70 1.069
693.80 1.069
693.90 1.069
694.00 1.069
694.10 1.069
694.20 1.069
694.30 1.069
694.40 1.069
694.50 1.069
694.60 1.068
694.70 1.068
694.80 1.068
694.90 1.068
695.00 1.068
695.10 1.068
695.20 1.068
695.30 1.068
695.40 1.068
695.50 1.068
695.60 1.068
695.70 1.068
695.80 1.067
695.90 1.067
696.00 1.067
696.10 1.067
696.20 1.067
696.30 1.067
696.40 1.067
696.50 1.067
696.60 1.067
696.70 1.067
696.80 1.067
696.90 1.067
697.00 1.067
697.10 1.066
697.20 1.066
697.30 1.066
697.40 1.066
697.50 1.066
697.60 1.066
697.70 1.066
697.80 1.066
697.90 1.066
698.00 1.066
698.10 1.066
698.20 1.066
698.30 1.065
698.40 1.065
698.50 1.065
698.60 1.065
698.70 1.065
698.80 1.065
698.90 1.065
699.00 1.065
699.10 1.065
699.20 1.065
699.30 1.065
699.40 1.065
699.50 1.064
699.60 1.064
699.70 1.064
699.80 1.064
699.90 1.064
700.00 1.064
700.10 1.064
700.20 1.064
700.30 1.064
700.40 1.064
700.50 1.064
700.60 1.064
700.70 1.063
700.80 1.063
700.90 1.063
701.00 1.063
701.10 1.063
701.20 1.063
701.30 1.063
701.40 1.063
701.50 1.063
701.60 1.063
701.70 1.063
701.80 1.063
701.90 1.062
702.00 1.062
702.10 1.062
702.20 1.062
702.30 1.062
702.40 1.062
702.50 1.062
702.60 1.062
702.70 1.062
702.80 1.062
702.90 1.062
703.00 1.062
703.10 1.061
703.20 1.061
703.30 1.061
703.40 1.061
703.50 1.061
703.60 1.061
703.70 1.061
703.80 1.061
703.90 1.061
704.00 1.061
704.10 1.061
704.20 1.061
704.30 1.06
704.40 1.06
704.50 1.06
704.60 1.06
704.70 1.06
704.80 1.06
704.90 1.06
705.00 1.06
705.10 1.06
705.20 1.06
705.30 1.06
705.40 1.06
705.50 1.059
705.60 1.059
705.70 1.059
705.80 1.059
705.90 1.059
706.00 1.059
706.10 1.059
706.20 1.059
706.30 1.059
706.40 1.059
706.50 1.059
706.60 1.058
706.70 1.058
706.80 1.058
706.90 1.058
707.00 1.058
707.10 1.058
707.20 1.058
707.30 1.058
707.40 1.058
707.50 1.058
707.60 1.058
707.70 1.058
707.80 1.057
707.90 1.057
708.00 1.057
708.10 1.057
708.20 1.057
708.30 1.057
708.40 1.057
708.50 1.057
708.60 1.057
708.70 1.057
708.80 1.057
708.90 1.056
709.00 1.056
709.10 1.056
709.20 1.056
709.30 1.056
709.40 1.056
709.50 1.056
709.60 1.056
709.70 1.056
709.80 1.056
709.90 1.056
710.00 1.055
710.10 1.055
710.20 1.055
710.30 1.055
710.40 1.055
710.50 1.055
710.60 1.055
710.70 1.055
710.80 1.055
710.90 1.055
711.00 1.055
711.10 1.054
711.20 1.054
711.30 1.054
711.40 1.054
711.50 1.054
711.60 1.054
711.70 1.054
711.80 1.054
711.90 1.054
712.00 1.054
712.10 1.054
712.20 1.054
712.30 1.053
712.40 1.053
712.50 1.053
712.60 1.053
712.70 1.053
712.80 1.053
712.90 1.053
713.00 1.053
713.10 1.053
713.20 1.053
713.30 1.053
713.40 1.052
713.50 1.052
713.60 1.052
713.70 1.052
713.80 1.052
713.90 1.052
714.00 1.052
714.10 1.052
714.20 1.052
714.30 1.052
714.40 1.052
714.50 1.051
714.60 1.051
714.70 1.051
714.80 1.051
714.90 1.051
715.00 1.051
715.10 1.051
715.20 1.051
715.30 1.051
715.40 1.051
715.50 1.051
715.60 1.05
715.70 1.05
715.80 1.05
715.90 1.05
716.00 1.05
716.10 1.05
716.20 1.05
716.30 1.05
716.40 1.05
716.50 1.05
716.60 1.049
716.70 1.049
716.80 1.049
716.90 1.049
717.00 1.049
717.10 1.049
717.20 1.049
717.30 1.049
717.40 1.049
717.50 1.049
717.60 1.049
717.70 1.048
717.80 1.048
717.90 1.048
718.00 1.048
718.10 1.048
718.20 1.048
718.30 1.048
718.40 1.048
718.50 1.048
718.60 1.048
718.70 1.048
718.80 1.047
718.90 1.047
719.00 1.047
719.10 1.047
719.20 1.047
719.30 1.047
719.40 1.047
719.50 1.047
719.60 1.047
719.70 1.047
719.80 1.046
719.90 1.046
720.00 1.046
720.10 1.046
720.20 1.046
720.30 1.046
720.40 1.046
720.50 1.046
720.60 1.046
720.70 1.046
720.80 1.046
720.90 1.045
721.00 1.045
721.10 1.045
721.20 1.045
721.30 1.045
721.40 1.045
721.50 1.045
721.60 1.045
721.70 1.045
721.80 1.045
721.90 1.044
722.00 1.044
722.10 1.044
722.20 1.044
722.30 1.044
722.40 1.044
722.50 1.044
722.60 1.044
722.70 1.044
722.80 1.044
722.90 1.044
723.00 1.043
723.10 1.043
723.20 1.043
723.30 1.043
723.40 1.043
723.50 1.043
723.60 1.043
723.70 1.043
723.80 1.043
723.90 1.043
724.00 1.042
724.10 1.042
724.20 1.042
724.30 1.042
724.40 1.042
724.50 1.042
724.60 1.042
724.70 1.042
724.80 1.042
724.90 1.042
725.00 1.042
725.10 1.041
725.20 1.041
725.30 1.041
725.40 1.041
725.50 1.041
725.60 1.041
725.70 1.041
725.80 1.041
725.90 1.041
726.00 1.041
726.10 1.04
726.20 1.04
726.30 1.04
726.40 1.04
726.50 1.04
726.60 1.04
726.70 1.04
726.80 1.04
726.90 1.04
727.00 1.04
727.10 1.039
727.20 1.039
727.30 1.039
727.40 1.039
727.50 1.039
727.60 1.039
727.70 1.039
727.80 1.039
727.90 1.039
728.00 1.039
728.10 1.038
728.20 1.038
728.30 1.038
728.40 1.038
728.50 1.038
728.60 1.038
728.70 1.038
728.80 1.038
728.90 1.038
729.00 1.038
729.10 1.037
729.20 1.037
729.30 1.037
729.40 1.037
729.50 1.037
729.60 1.037
729.70 1.037
729.80 1.037
729.90 1.037
730.00 1.037
730.10 1.036
730.20 1.036
730.30 1.036
730.40 1.036
730.50 1.036
730.60 1.036
730.70 1.036
730.80 1.036
730.90 1.036
731.00 1.036
731.10 1.035
731.20 1.035
731.30 1.035
731.40 1.035
731.50 1.035
731.60 1.035
731.70 1.035
731.80 1.035
731.90 1.035
732.00 1.035
732.10 1.034
732.20 1.034
732.30 1.034
732.40 1.034
732.50 1.034
732.60 1.034
732.70 1.034
732.80 1.034
732.90 1.034
733.00 1.033
733.10 1.033
733.20 1.033
733.30 1.033
733.40 1.033
733.50 1.033
733.60 1.033
733.70 1.033
733.80 1.033
733.90 1.033
734.00 1.032
734.10 1.032
734.20 1.032
734.30 1.032
734.40 1.032
734.50 1.032
734.60 1.032
734.70 1.032
734.80 1.032
734.90 1.032
735.00 1.031
735.10 1.031
735.20 1.031
735.30 1.031
735.40 1.031
735.50 1.031
735.60 1.031
735.70 1.031
735.80 1.031
735.90 1.031
736.00 1.03
736.10 1.03
736.20 1.03
736.30 1.03
736.40 1.03
736.50 1.03
736.60 1.03
736.70 1.03
736.80 1.03
736.90 1.03
737.00 1.029
737.10 1.029
737.20 1.029
737.30 1.029
737.40 1.029
737.50 1.029
737.60 1.029
737.70 1.029
737.80 1.029
737.90 1.028
738.00 1.028
738.10 1.028
738.20 1.028
738.30 1.028
738.40 1.028
738.50 1.028
738.60 1.028
738.70 1.028
738.80 1.028
738.90 1.027
739.00 1.027
739.10 1.027
739.20 1.027
739.30 1.027
739.40 1.027
739.50 1.027
739.60 1.027
739.70 1.027
739.80 1.027
739.90 1.026
740.00 1.026
740.10 1.026
740.20 1.026
740.30 1.026
740.40 1.026
740.50 1.026
740.60 1.026
740.70 1.026
740.80 1.025
740.90 1.025
741.00 1.025
741.10 1.025
741.20 1.025
741.30 1.025
741.40 1.025
741.50 1.025
741.60 1.025
741.70 1.025
741.80 1.024
741.90 1.024
742.00 1.024
742.10 1.024
742.20 1.024
742.30 1.024
742.40 1.024
742.50 1.024
742.60 1.024
742.70 1.023
742.80 1.023
742.90 1.023
743.00 1.023
743.10 1.023
743.20 1.023
743.30 1.023
743.40 1.023
743.50 1.023
743.60 1.023
743.70 1.022
743.80 1.022
743.90 1.022
744.00 1.022
744.10 1.022
744.20 1.022
744.30 1.022
744.40 1.022
744.50 1.022
744.60 1.021
744.70 1.021
744.80 1.021
744.90 1.021
745.00 1.021
745.10 1.021
745.20 1.021
745.30 1.021
745.40 1.021
745.50 1.02
745.60 1.02
745.70 1.02
745.80 1.02
745.90 1.02
746.00 1.02
746.10 1.02
746.20 1.02
746.30 1.02
746.40 1.02
746.50 1.019
746.60 1.019
746.70 1.019
746.80 1.019
746.90 1.019
747.00 1.019
747.10 1.019
747.20 1.019
747.30 1.019
747.40 1.018
747.50 1.018
747.60 1.018
747.70 1.018
747.80 1.018
747.90 1.018
748.00 1.018
748.10 1.018
748.20 1.018
748.30 1.018
748.40 1.017
748.50 1.017
748.60 1.017
748.70 1.017
748.80 1.017
748.90 1.017
749.00 1.017
749.10 1.017
749.20 1.017
749.30 1.016
749.40 1.016
749.50 1.016
749.60 1.016
749.70 1.016
749.80 1.016
749.90 1.016
750.00 1.016
750.10 1.016
750.20 1.016
750.30 1.015
750.40 1.015
750.50 1.015
750.60 1.015
750.70 1.015
750.80 1.015
750.90 1.015
751.00 1.015
751.10 1.015
751.20 1.014
751.30 1.014
751.40 1.014
751.50 1.014
751.60 1.014
751.70 1.014
751.80 1.014
751.90 1.014
752.00 1.014
752.10 1.013
752.20 1.013
752.30 1.013
752.40 1.013
752.50 1.013
752.60 1.013
752.70 1.013
752.80 1.013
752.90 1.013
753.00 1.012
753.10 1.012
753.20 1.012
753.30 1.012
753.40 1.012
753.50 1.012
753.60 1.012
753.70 1.012
753.80 1.012
753.90 1.011
754.00 1.011
754.10 1.011
754.20 1.011
754.30 1.011
754.40 1.011
754.50 1.011
754.60 1.011
754.70 1.011
754.80 1.01
754.90 1.01
755.00 1.01
755.10 1.01
755.20 1.01
755.30 1.01
755.40 1.01
755.50 1.01
755.60 1.01
755.70 1.009
755.80 1.009
755.90 1.009
756.00 1.009
756.10 1.009
756.20 1.009
756.30 1.009
756.40 1.009
756.50 1.009
756.60 1.008
756.70 1.008
756.80 1.008
756.90 1.008
757.00 1.008
757.10 1.008
757.20 1.008
757.30 1.008
757.40 1.008
757.50 1.007
757.60 1.007
757.70 1.007
757.80 1.007
757.90 1.007
758.00 1.007
758.10 1.007
758.20 1.007
758.30 1.007
758.40 1.006
758.50 1.006
758.60 1.006
758.70 1.006
758.80 1.006
758.90 1.006
759.00 1.006
759.10 1.006
759.20 1.006
759.30 1.006
759.40 1.005
759.50 1.005
759.60 1.005
759.70 1.005
759.80 1.005
759.90 1.005
760.00 1.005
760.10 1.005
760.20 1.005
760.30 1.004
760.40 1.004
760.50 1.004
760.60 1.004
760.70 1.004
760.80 1.004
760.90 1.004
761.00 1.004
761.10 1.003
761.20 1.003
761.30 1.003
761.40 1.003
761.50 1.003
761.60 1.003
761.70 1.003
761.80 1.003
761.90 1.003
762.00 1.002
762.10 1.002
762.20 1.002
762.30 1.002
762.40 1.002
762.50 1.002
762.60 1.002
762.70 1.002
762.80 1.002
762.90 1.001
763.00 1.001
763.10 1.001
763.20 1.001
763.30 1.001
763.40 1.001
763.50 1.001
763.60 1.001
763.70 1.001
763.80 1
763.90 1
764.00 1
764.10 1
764.20 1
764.30 0.9999
764.40 0.9997
764.50 0.9996
764.60 0.9995
764.70 0.9994
764.80 0.9993
764.90 0.9992
765.00 0.9991
765.10 0.9989
765.20 0.9988
765.30 0.9987
765.40 0.9986
765.50 0.9985
765.60 0.9984
765.70 0.9983
765.80 0.9982
765.90 0.998
766.00 0.9979
766.10 0.9978
766.20 0.9977
766.30 0.9976
766.40 0.9975
766.50 0.9974
766.60 0.9972
766.70 0.9971
766.80 0.997
766.90 0.9969
767.00 0.9968
767.10 0.9967
767.20 0.9966
767.30 0.9965
767.40 0.9963
767.50 0.9962
767.60 0.9961
767.70 0.996
767.80 0.9959
767.90 0.9958
768.00 0.9957
768.10 0.9956
768.20 0.9954
768.30 0.9953
768.40 0.9952
768.50 0.9951
768.60 0.995
768.70 0.9949
768.80 0.9948
768.90 0.9947
769.00 0.9945
769.10 0.9944
769.20 0.9943
769.30 0.9942
769.40 0.9941
769.50 0.994
769.60 0.9939
769.70 0.9938
769.80 0.9937
769.90 0.9935
770.00 0.9934
770.10 0.9933
770.20 0.9932
770.30 0.9931
770.40 0.993
770.50 0.9928
770.60 0.9927
770.70 0.9926
770.80 0.9925
770.90 0.9924
771.00 0.9923
771.10 0.9921
771.20 0.992
771.30 0.9919
771.40 0.9918
771.50 0.9917
771.60 0.9915
771.70 0.9914
771.80 0.9913
771.90 0.9912
772.00 0.9911
772.10 0.991
772.20 0.9908
772.30 0.9907
772.40 0.9906
772.50 0.9905
772.60 0.9904
772.70 0.9903
772.80 0.9901
772.90 0.99
773.00 0.9899
773.10 0.9898
773.20 0.9897
773.30 0.9896
773.40 0.9894
773.50 0.9893
773.60 0.9892
773.70 0.9891
773.80 0.989
773.90 0.9889
774.00 0.9887
774.10 0.9886
774.20 0.9885
774.30 0.9884
774.40 0.9883
774.50 0.9882
774.60 0.988
774.70 0.9879
774.80 0.9878
774.90 0.9877
775.00 0.9876
775.10 0.9875
775.20 0.9873
775.30 0.9872
775.40 0.9871
775.50 0.987
775.60 0.9869
775.70 0.9868
775.80 0.9867
775.90 0.9865
776.00 0.9864
776.10 0.9863
776.20 0.9862
776.30 0.9861
776.40 0.986
776.50 0.9858
776.60 0.9857
776.70 0.9856
776.80 0.9855
776.90 0.9854
777.00 0.9853
777.10 0.9851
777.20 0.985
777.30 0.9849
777.40 0.9848
777.50 0.9847
777.60 0.9846
777.70 0.9845
777.80 0.9843
777.90 0.9842
778.00 0.9841
778.10 0.984
778.20 0.9839
778.30 0.9838
778.40 0.9836
778.50 0.9835
778.60 0.9834
778.70 0.9833
778.80 0.9832
778.90 0.9831
779.00 0.983
779.10 0.9828
779.20 0.9827
779.30 0.9826
779.40 0.9825
779.50 0.9824
779.60 0.9823
779.70 0.9821
779.80 0.982
779.90 0.9819
780.00 0.9818
780.10 0.9817
780.20 0.9816
780.30 0.9814
780.40 0.9813
780.50 0.9812
780.60 0.9811
780.70 0.981
780.80 0.9808
780.90 0.9807
781.00 0.9806
781.10 0.9805
781.20 0.9804
781.30 0.9802
781.40 0.9801
781.50 0.98
781.60 0.9799
781.70 0.9798
781.80 0.9796
781.90 0.9795
782.00 0.9794
782.10 0.9793
782.20 0.9792
782.30 0.9791
782.40 0.9789
782.50 0.9788
782.60 0.9787
782.70 0.9786
782.80 0.9785
782.90 0.9783
783.00 0.9782
783.10 0.9781
783.20 0.978
783.30 0.9779
783.40 0.9777
783.50 0.9776
783.60 0.9775
783.70 0.9774
783.80 0.9773
783.90 0.9772
784.00 0.977
784.10 0.9769
784.20 0.9768
784.30 0.9767
784.40 0.9766
784.50 0.9764
784.60 0.9763
784.70 0.9762
784.80 0.9761
784.90 0.976
785.00 0.9758
785.10 0.9757
785.20 0.9756
785.30 0.9755
785.40 0.9754
785.50 0.9753
785.60 0.9751
785.70 0.975
785.80 0.9749
785.90 0.9748
786.00 0.9747
786.10 0.9745
786.20 0.9744
786.30 0.9743
786.40 0.9742
786.50 0.9741
786.60 0.974
786.70 0.9738
786.80 0.9737
786.90 0.9736
787.00 0.9735
787.10 0.9734
787.20 0.9732
787.30 0.9731
787.40 0.973
787.50 0.9729
787.60 0.9728
787.70 0.9727
787.80 0.9725
787.90 0.9724
788.00 0.9723
788.10 0.9722
788.20 0.9721
788.30 0.972
788.40 0.9718
788.50 0.9717
788.60 0.9716
788.70 0.9715
788.80 0.9714
788.90 0.9713
789.00 0.9711
789.10 0.971
789.20 0.9709
789.30 0.9708
789.40 0.9707
789.50 0.9705
789.60 0.9704
789.70 0.9703
789.80 0.9702
789.90 0.9701
790.00 0.97
790.10 0.9698
790.20 0.9697
790.30 0.9696
790.40 0.9695
790.50 0.9694
790.60 0.9692
790.70 0.9691
790.80 0.969
790.90 0.9689
791.00 0.9687
791.10 0.9686
791.20 0.9685
791.30 0.9684
791.40 0.9683
791.50 0.9681
791.60 0.968
791.70 0.9679
791.80 0.9678
791.90 0.9676
792.00 0.9675
792.10 0.9674
792.20 0.9673
792.30 0.9672
792.40 0.967
792.50 0.9669
792.60 0.9668
792.70 0.9667
792.80 0.9666
792.90 0.9664
793.00 0.9663
793.10 0.9662
793.20 0.9661
793.30 0.9659
793.40 0.9658
793.50 0.9657
793.60 0.9656
793.70 0.9655
793.80 0.9653
793.90 0.9652
794.00 0.9651
794.10 0.965
794.20 0.9649
794.30 0.9647
794.40 0.9646
794.50 0.9645
794.60 0.9644
794.70 0.9643
794.80 0.9641
794.90 0.964
795.00 0.9639
795.10 0.9638
795.20 0.9636
795.30 0.9635
795.40 0.9634
795.50 0.9633
795.60 0.9632
795.70 0.963
795.80 0.9629
795.90 0.9628
796.00 0.9627
796.10 0.9626
796.20 0.9624
796.30 0.9623
796.40 0.9622
796.50 0.9621
796.60 0.962
796.70 0.9618
796.80 0.9617
796.90 0.9616
797.00 0.9615
797.10 0.9614
797.20 0.9612
797.30 0.9611
797.40 0.961
797.50 0.9609
797.60 0.9608
797.70 0.9606
797.80 0.9605
797.90 0.9604
798.00 0.9603
798.10 0.9602
798.20 0.96
798.30 0.9599
798.40 0.9598
798.50 0.9597
798.60 0.9596
798.70 0.9594
798.80 0.9593
798.90 0.9592
799.00 0.9591
799.10 0.959
799.20 0.9588
799.30 0.9587
799.40 0.9586
799.50 0.9585
799.60 0.9584
799.70 0.9582
799.80 0.9581
799.90 0.958
800.00 0.9579
800.10 0.9578
800.20 0.9576
800.30 0.9575
800.40 0.9574
800.50 0.9573
800.60 0.9571
800.70 0.957
800.80 0.9569
800.90 0.9568
801.00 0.9566
801.10 0.9565
801.20 0.9564
801.30 0.9563
801.40 0.9561
801.50 0.956
801.60 0.9559
801.70 0.9558
801.80 0.9557
801.90 0.9555
802.00 0.9554
802.10 0.9553
802.20 0.9552
802.30 0.955
802.40 0.9549
802.50 0.9548
802.60 0.9547
802.70 0.9545
802.80 0.9544
802.90 0.9543
803.00 0.9542
803.10 0.954
803.20 0.9539
803.30 0.9538
803.40 0.9537
803.50 0.9536
803.60 0.9534
803.70 0.9533
803.80 0.9532
803.90 0.9531
804.00 0.9529
804.10 0.9528
804.20 0.9527
804.30 0.9526
804.40 0.9524
804.50 0.9523
804.60 0.9522
804.70 0.9521
804.80 0.952
804.90 0.9518
805.00 0.9517
805.10 0.9516
805.20 0.9515
805.30 0.9513
805.40 0.9512
805.50 0.9511
805.60 0.951
805.70 0.9508
805.80 0.9507
805.90 0.9506
806.00 0.9505
806.10 0.9504
806.20 0.9502
806.30 0.9501
806.40 0.95
806.50 0.9499
806.60 0.9497
806.70 0.9496
806.80 0.9495
806.90 0.9494
807.00 0.9493
807.10 0.9491
807.20 0.949
807.30 0.9489
807.40 0.9488
807.50 0.9486
807.60 0.9485
807.70 0.9484
807.80 0.9483
807.90 0.9482
808.00 0.948
808.10 0.9479
808.20 0.9478
808.30 0.9477
808.40 0.9475
808.50 0.9474
808.60 0.9473
808.70 0.9472
808.80 0.9471
808.90 0.9469
809.00 0.9468
809.10 0.9467
809.20 0.9466
809.30 0.9465
809.40 0.9463
809.50 0.9462
809.60 0.9461
809.70 0.946
809.80 0.9458
809.90 0.9457
810.00 0.9456
810.10 0.9455
810.20 0.9454
810.30 0.9452
810.40 0.9451
810.50 0.945
810.60 0.9448
810.70 0.9447
810.80 0.9446
810.90 0.9445
811.00 0.9443
811.10 0.9442
811.20 0.9441
811.30 0.944
811.40 0.9438
811.50 0.9437
811.60 0.9436
811.70 0.9435
811.80 0.9433
811.90 0.9432
812.00 0.9431
812.10 0.943
812.20 0.9428
812.30 0.9427
812.40 0.9426
812.50 0.9425
812.60 0.9423
812.70 0.9422
812.80 0.9421
812.90 0.942
813.00 0.9418
813.10 0.9417
813.20 0.9416
813.30 0.9415
813.40 0.9413
813.50 0.9412
813.60 0.9411
813.70 0.941
813.80 0.9408
813.90 0.9407
814.00 0.9406
814.10 0.9405
814.20 0.9403
814.30 0.9402
814.40 0.9401
814.50 0.94
814.60 0.9398
814.70 0.9397
814.80 0.9396
814.90 0.9395
815.00 0.9393
815.10 0.9392
815.20 0.9391
815.30 0.939
815.40 0.9388
815.50 0.9387
815.60 0.9386
815.70 0.9385
815.80 0.9383
815.90 0.9382
816.00 0.9381
816.10 0.938
816.20 0.9379
816.30 0.9377
816.40 0.9376
816.50 0.9375
816.60 0.9374
816.70 0.9372
816.80 0.9371
816.90 0.937
817.00 0.9369
817.10 0.9367
817.20 0.9366
817.30 0.9365
817.40 0.9364
817.50 0.9362
817.60 0.9361
817.70 0.936
817.80 0.9359
817.90 0.9357
818.00 0.9356
818.10 0.9355
818.20 0.9354
818.30 0.9353
818.40 0.9351
818.50 0.935
818.60 0.9349
818.70 0.9348
818.80 0.9346
818.90 0.9345
819.00 0.9344
819.10 0.9343
819.20 0.9341
819.30 0.934
819.40 0.9339
819.50 0.9338
819.60 0.9337
819.70 0.9335
819.80 0.9334
819.90 0.9333
820.00 0.9332
820.10 0.933
820.20 0.9329
820.30 0.9328
820.40 0.9326
820.50 0.9325
820.60 0.9324
820.70 0.9323
820.80 0.9321
820.90 0.932
821.00 0.9319
821.10 0.9318
821.20 0.9316
821.30 0.9315
821.40 0.9314
821.50 0.9313
821.60 0.9311
821.70 0.931
821.80 0.9309
821.90 0.9308
822.00 0.9306
822.10 0.9305
822.20 0.9304
822.30 0.9303
822.40 0.9301
822.50 0.93
822.60 0.9299
822.70 0.9298
822.80 0.9296
822.90 0.9295
823.00 0.9294
823.10 0.9292
823.20 0.9291
823.30 0.929
823.40 0.9289
823.50 0.9287
823.60 0.9286
823.70 0.9285
823.80 0.9284
823.90 0.9282
824.00 0.9281
824.10 0.928
824.20 0.9279
824.30 0.9277
824.40 0.9276
824.50 0.9275
824.60 0.9274
824.70 0.9272
824.80 0.9271
824.90 0.927
825.00 0.9269
825.10 0.9267
825.20 0.9266
825.30 0.9265
825.40 0.9264
825.50 0.9262
825.60 0.9261
825.70 0.926
825.80 0.9259
825.90 0.9257
826.00 0.9256
826.10 0.9255
826.20 0.9254
826.30 0.9252
826.40 0.9251
826.50 0.925
826.60 0.9249
826.70 0.9247
826.80 0.9246
826.90 0.9245
827.00 0.9244
827.10 0.9242
827.20 0.9241
827.30 0.924
827.40 0.9238
827.50 0.9237
827.60 0.9236
827.70 0.9235
827.80 0.9233
827.90 0.9232
828.00 0.9231
828.10 0.923
828.20 0.9228
828.30 0.9227
828.40 0.9226
828.50 0.9224
828.60 0.9223
828.70 0.9222
828.80 0.9221
828.90 0.9219
829.00 0.9218
829.10 0.9217
829.20 0.9216
829.30 0.9214
829.40 0.9213
829.50 0.9212
829.60 0.9211
829.70 0.9209
829.80 0.9208
829.90 0.9207
830.00 0.9205
830.10 0.9204
830.20 0.9203
830.30 0.9202
830.40 0.92
830.50 0.9199
830.60 0.9198
830.70 0.9197
830.80 0.9195
830.90 0.9194
831.00 0.9193
831.10 0.9192
831.20 0.919
831.30 0.9189
831.40 0.9188
831.50 0.9187
831.60 0.9185
831.70 0.9184
831.80 0.9183
831.90 0.9182
832.00 0.918
832.10 0.9179
832.20 0.9178
832.30 0.9176
832.40 0.9175
832.50 0.9174
832.60 0.9173
832.70 0.9171
832.80 0.917
832.90 0.9169
833.00 0.9168
833.10 0.9166
833.20 0.9165
833.30 0.9164
833.40 0.9162
833.50 0.9161
833.60 0.916
833.70 0.9159
833.80 0.9157
833.90 0.9156
834.00 0.9155
834.10 0.9153
834.20 0.9152
834.30 0.9151
834.40 0.915
834.50 0.9148
834.60 0.9147
834.70 0.9146
834.80 0.9145
834.90 0.9143
835.00 0.9142
835.10 0.9141
835.20 0.914
835.30 0.9138
835.40 0.9137
835.50 0.9136
835.60 0.9134
835.70 0.9133
835.80 0.9132
835.90 0.9131
836.00 0.9129
836.10 0.9128
836.20 0.9127
836.30 0.9126
836.40 0.9124
836.50 0.9123
836.60 0.9122
836.70 0.9121
836.80 0.9119
836.90 0.9118
837.00 0.9117
837.10 0.9115
837.20 0.9114
837.30 0.9113
837.40 0.9112
837.50 0.911
837.60 0.9109
837.70 0.9108
837.80 0.9106
837.90 0.9105
838.00 0.9104
838.10 0.9103
838.20 0.9101
838.30 0.91
838.40 0.9099
838.50 0.9097
838.60 0.9096
838.70 0.9095
838.80 0.9094
838.90 0.9092
839.00 0.9091
839.10 0.909
839.20 0.9089
839.30 0.9087
839.40 0.9086
839.50 0.9085
839.60 0.9083
839.70 0.9082
839.80 0.9081
839.90 0.908
840.00 0.9078
840.10 0.9077
840.20 0.9076
840.30 0.9074
840.40 0.9073
840.50 0.9072
840.60 0.9071
840.70 0.9069
840.80 0.9068
840.90 0.9067
841.00 0.9066
841.10 0.9064
841.20 0.9063
841.30 0.9062
841.40 0.906
841.50 0.9059
841.60 0.9058
841.70 0.9057
841.80 0.9055
841.90 0.9054
842.00 0.9053
842.10 0.9052
842.20 0.905
842.30 0.9049
842.40 0.9048
842.50 0.9046
842.60 0.9045
842.70 0.9044
842.80 0.9043
842.90 0.9041
843.00 0.904
843.10 0.9039
843.20 0.9037
843.30 0.9036
843.40 0.9035
843.50 0.9034
843.60 0.9032
843.70 0.9031
843.80 0.903
843.90 0.9028
844.00 0.9027
844.10 0.9026
844.20 0.9025
844.30 0.9023
844.40 0.9022
844.50 0.9021
844.60 0.9019
844.70 0.9018
844.80 0.9017
844.90 0.9016
845.00 0.9014
845.10 0.9013
845.20 0.9012
845.30 0.9011
845.40 0.9009
845.50 0.9008
845.60 0.9007
845.70 0.9005
845.80 0.9004
845.90 0.9003
846.00 0.9002
846.10 0.9
846.20 0.8999
846.30 0.8998
846.40 0.8997
846.50 0.8995
846.60 0.8994
846.70 0.8993
846.80 0.8991
846.90 0.899
847.00 0.8989
847.10 0.8988
847.20 0.8986
847.30 0.8985
847.40 0.8984
847.50 0.8982
847.60 0.8981
847.70 0.898
847.80 0.8979
847.90 0.8977
848.00 0.8976
848.10 0.8975
848.20 0.8973
848.30 0.8972
848.40 0.8971
848.50 0.897
848.60 0.8968
848.70 0.8967
848.80 0.8966
848.90 0.8964
849.00 0.8963
849.10 0.8962
849.20 0.8961
849.30 0.8959
849.40 0.8958
849.50 0.8957
849.60 0.8955
849.70 0.8954
849.80 0.8953
849.90 0.8952
850.00 0.895
850.10 0.8949
850.20 0.8948
850.30 0.8946
850.40 0.8945
850.50 0.8944
850.60 0.8943
850.70 0.8941
850.80 0.894
850.90 0.8939
851.00 0.8937
851.10 0.8936
851.20 0.8935
851.30 0.8934
851.40 0.8932
851.50 0.8931
851.60 0.893
851.70 0.8929
851.80 0.8927
851.90 0.8926
852.00 0.8925
852.10 0.8923
852.20 0.8922
852.30 0.8921
852.40 0.8919
852.50 0.8918
852.60 0.8917
852.70 0.8916
852.80 0.8914
852.90 0.8913
853.00 0.8912
853.10 0.891
853.20 0.8909
853.30 0.8908
853.40 0.8907
853.50 0.8905
853.60 0.8904
853.70 0.8903
853.80 0.8901
853.90 0.89
854.00 0.8899
854.10 0.8897
854.20 0.8896
854.30 0.8895
854.40 0.8894
854.50 0.8892
854.60 0.8891
854.70 0.889
854.80 0.8888
854.90 0.8887
855.00 0.8886
855.10 0.8885
855.20 0.8883
855.30 0.8882
855.40 0.8881
855.50 0.8879
855.60 0.8878
855.70 0.8877
855.80 0.8876
855.90 0.8874
856.00 0.8873
856.10 0.8872
856.20 0.887
856.30 0.8869
856.40 0.8868
856.50 0.8867
856.60 0.8865
856.70 0.8864
856.80 0.8863
856.90 0.8861
857.00 0.886
857.10 0.8859
857.20 0.8858
857.30 0.8856
857.40 0.8855
857.50 0.8854
857.60 0.8852
857.70 0.8851
857.80 0.885
857.90 0.8849
858.00 0.8847
858.10 0.8846
858.20 0.8845
858.30 0.8843
858.40 0.8842
858.50 0.8841
858.60 0.8839
858.70 0.8838
858.80 0.8837
858.90 0.8836
859.00 0.8834
859.10 0.8833
859.20 0.8832
859.30 0.883
859.40 0.8829
859.50 0.8828
859.60 0.8827
859.70 0.8825
859.80 0.8824
859.90 0.8823
860.00 0.8821
860.10 0.882
860.20 0.8819
860.30 0.8818
860.40 0.8816
860.50 0.8815
860.60 0.8814
860.70 0.8812
860.80 0.8811
860.90 0.881
861.00 0.8809
861.10 0.8807
861.20 0.8806
861.30 0.8805
861.40 0.8803
861.50 0.8802
861.60 0.8801
861.70 0.88
861.80 0.8798
861.90 0.8797
862.00 0.8796
862.10 0.8794
862.20 0.8793
862.30 0.8792
862.40 0.8791
862.50 0.8789
862.60 0.8788
862.70 0.8787
862.80 0.8785
862.90 0.8784
863.00 0.8783
863.10 0.8781
863.20 0.878
863.30 0.8779
863.40 0.8778
863.50 0.8776
863.60 0.8775
863.70 0.8774
863.80 0.8772
863.90 0.8771
864.00 0.877
864.10 0.8768
864.20 0.8767
864.30 0.8766
864.40 0.8765
864.50 0.8763
864.60 0.8762
864.70 0.8761
864.80 0.8759
864.90 0.8758
865.00 0.8757
865.10 0.8756
865.20 0.8754
865.30 0.8753
865.40 0.8752
865.50 0.875
865.60 0.8749
865.70 0.8748
865.80 0.8747
865.90 0.8745
866.00 0.8744
866.10 0.8743
866.20 0.8741
866.30 0.874
866.40 0.8739
866.50 0.8737
866.60 0.8736
866.70 0.8735
866.80 0.8734
866.90 0.8732
867.00 0.8731
867.10 0.873
867.20 0.8728
867.30 0.8727
867.40 0.8726
867.50 0.8725
867.60 0.8723
867.70 0.8722
867.80 0.8721
867.90 0.8719
868.00 0.8718
868.10 0.8717
868.20 0.8715
868.30 0.8714
868.40 0.8713
868.50 0.8712
868.60 0.871
868.70 0.8709
868.80 0.8708
868.90 0.8706
869.00 0.8705
869.10 0.8704
869.20 0.8702
869.30 0.8701
869.40 0.87
869.50 0.8699
869.60 0.8697
869.70 0.8696
869.80 0.8695
869.90 0.8693
870.00 0.8692
870.10 0.8691
870.20 0.8689
870.30 0.8688
870.40 0.8687
870.50 0.8686
870.60 0.8684
870.70 0.8683
870.80 0.8682
870.90 0.868
871.00 0.8679
871.10 0.8678
871.20 0.8677
871.30 0.8675
871.40 0.8674
871.50 0.8673
871.60 0.8671
871.70 0.867
871.80 0.8669
871.90 0.8667
872.00 0.8666
872.10 0.8665
872.20 0.8664
872.30 0.8662
872.40 0.8661
872.50 0.866
872.60 0.8658
872.70 0.8657
872.80 0.8656
872.90 0.8654
873.00 0.8653
873.10 0.8652
873.20 0.8651
873.30 0.8649
873.40 0.8648
873.50 0.8647
873.60 0.8645
873.70 0.8644
873.80 0.8643
873.90 0.8641
874.00 0.864
874.10 0.8639
874.20 0.8638
874.30 0.8636
874.40 0.8635
874.50 0.8634
874.60 0.8632
874.70 0.8631
874.80 0.863
874.90 0.8628
875.00 0.8627
875.10 0.8626
875.20 0.8625
875.30 0.8623
875.40 0.8622
875.50 0.8621
875.60 0.8619
875.70 0.8618
875.80 0.8617
875.90 0.8616
876.00 0.8614
876.10 0.8613
876.20 0.8612
876.30 0.861
876.40 0.8609
876.50 0.8608
876.60 0.8607
876.70 0.8605
876.80 0.8604
876.90 0.8603
877.00 0.8601
877.10 0.86
877.20 0.8599
877.30 0.8597
877.40 0.8596
877.50 0.8595
877.60 0.8594
877.70 0.8592
877.80 0.8591
877.90 0.859
878.00 0.8588
878.10 0.8587
878.20 0.8586
878.30 0.8584
878.40 0.8583
878.50 0.8582
878.60 0.858
878.70 0.8579
878.80 0.8578
878.90 0.8577
879.00 0.8575
879.10 0.8574
879.20 0.8573
879.30 0.8571
879.40 0.857
879.50 0.8569
879.60 0.8567
879.70 0.8566
879.80 0.8565
879.90 0.8564
880.00 0.8562
880.10 0.8561
880.20 0.856
880.30 0.8558
880.40 0.8557
880.50 0.8556
880.60 0.8554
880.70 0.8553
880.80 0.8552
880.90 0.8551
881.00 0.8549
881.10 0.8548
881.20 0.8547
881.30 0.8545
881.40 0.8544
881.50 0.8543
881.60 0.8542
881.70 0.854
881.80 0.8539
881.90 0.8538
882.00 0.8536
882.10 0.8535
882.20 0.8534
882.30 0.8532
882.40 0.8531
882.50 0.853
882.60 0.8529
882.70 0.8527
882.80 0.8526
882.90 0.8525
883.00 0.8523
883.10 0.8522
883.20 0.8521
883.30 0.8519
883.40 0.8518
883.50 0.8517
883.60 0.8515
883.70 0.8514
883.80 0.8513
883.90 0.8512
884.00 0.851
884.10 0.8509
884.20 0.8508
884.30 0.8506
884.40 0.8505
884.50 0.8504
884.60 0.8502
884.70 0.8501
884.80 0.85
884.90 0.8499
885.00 0.8497
885.10 0.8496
885.20 0.8495
885.30 0.8493
885.40 0.8492
885.50 0.8491
885.60 0.849
885.70 0.8488
885.80 0.8487
885.90 0.8486
886.00 0.8484
886.10 0.8483
886.20 0.8482
886.30 0.848
886.40 0.8479
886.50 0.8478
886.60 0.8477
886.70 0.8475
886.80 0.8474
886.90 0.8473
887.00 0.8471
887.10 0.847
887.20 0.8469
887.30 0.8467
887.40 0.8466
887.50 0.8465
887.60 0.8464
887.70 0.8462
887.80 0.8461
887.90 0.846
888.00 0.8458
888.10 0.8457
888.20 0.8456
888.30 0.8454
888.40 0.8453
888.50 0.8452
888.60 0.845
888.70 0.8449
888.80 0.8448
888.90 0.8447
889.00 0.8445
889.10 0.8444
889.20 0.8443
889.30 0.8441
889.40 0.844
889.50 0.8439
889.60 0.8437
889.70 0.8436
889.80 0.8435
889.90 0.8433
890.00 0.8432
890.10 0.8431
890.20 0.843
890.30 0.8428
890.40 0.8427
890.50 0.8426
890.60 0.8424
890.70 0.8423
890.80 0.8422
890.90 0.842
891.00 0.8419
891.10 0.8418
891.20 0.8417
891.30 0.8415
891.40 0.8414
891.50 0.8413
891.60 0.8411
891.70 0.841
891.80 0.8409
891.90 0.8407
892.00 0.8406
892.10 0.8405
892.20 0.8404
892.30 0.8402
892.40 0.8401
892.50 0.84
892.60 0.8398
892.70 0.8397
892.80 0.8396
892.90 0.8394
893.00 0.8393
893.10 0.8392
893.20 0.8391
893.30 0.8389
893.40 0.8388
893.50 0.8387
893.60 0.8385
893.70 0.8384
893.80 0.8383
893.90 0.8382
894.00 0.838
894.10 0.8379
894.20 0.8378
894.30 0.8376
894.40 0.8375
894.50 0.8374
894.60 0.8373
894.70 0.8371
894.80 0.837
894.90 0.8369
895.00 0.8367
895.10 0.8366
895.20 0.8365
895.30 0.8363
895.40 0.8362
895.50 0.8361
895.60 0.836
895.70 0.8358
895.80 0.8357
895.90 0.8356
896.00 0.8354
896.10 0.8353
896.20 0.8352
896.30 0.8351
896.40 0.8349
896.50 0.8348
896.60 0.8347
896.70 0.8345
896.80 0.8344
896.90 0.8343
897.00 0.8342
897.10 0.834
897.20 0.8339
897.30 0.8338
897.40 0.8336
897.50 0.8335
897.60 0.8334
897.70 0.8332
897.80 0.8331
897.90 0.833
898.00 0.8328
898.10 0.8327
898.20 0.8326
898.30 0.8325
898.40 0.8323
898.50 0.8322
898.60 0.8321
898.70 0.8319
898.80 0.8318
898.90 0.8317
899.00 0.8315
899.10 0.8314
899.20 0.8313
899.30 0.8311
899.40 0.831
899.50 0.8309
899.60 0.8307
899.70 0.8306
899.80 0.8305
899.90 0.8304
900.00 0.8302
900.10 0.8301
900.20 0.83
900.30 0.8298
900.40 0.8297
900.50 0.8296
900.60 0.8294
900.70 0.8293
900.80 0.8292
900.90 0.829
901.00 0.8289
901.10 0.8288
901.20 0.8287
901.30 0.8285
901.40 0.8284
901.50 0.8283
901.60 0.8281
901.70 0.828
901.80 0.8279
901.90 0.8277
902.00 0.8276
902.10 0.8275
902.20 0.8273
902.30 0.8272
902.40 0.8271
902.50 0.8269
902.60 0.8268
902.70 0.8267
902.80 0.8265
902.90 0.8264
903.00 0.8263
903.10 0.8261
903.20 0.826
903.30 0.8259
903.40 0.8257
903.50 0.8256
903.60 0.8255
903.70 0.8253
903.80 0.8252
903.90 0.8251
904.00 0.8249
904.10 0.8248
904.20 0.8247
904.30 0.8245
904.40 0.8244
904.50 0.8242
904.60 0.8241
904.70 0.824
904.80 0.8238
904.90 0.8237
905.00 0.8236
905.10 0.8234
905.20 0.8233
905.30 0.8232
905.40 0.823
905.50 0.8229
905.60 0.8228
905.70 0.8226
905.80 0.8225
905.90 0.8224
906.00 0.8222
906.10 0.8221
906.20 0.822
906.30 0.8218
906.40 0.8217
906.50 0.8216
906.60 0.8214
906.70 0.8213
906.80 0.8212
906.90 0.821
907.00 0.8209
907.10 0.8208
907.20 0.8206
907.30 0.8205
907.40 0.8204
907.50 0.8202
907.60 0.8201
907.70 0.82
907.80 0.8198
907.90 0.8197
908.00 0.8196
908.10 0.8194
908.20 0.8193
908.30 0.8192
908.40 0.819
908.50 0.8189
908.60 0.8188
908.70 0.8186
908.80 0.8185
908.90 0.8184
909.00 0.8183
909.10 0.8181
909.20 0.818
909.30 0.8179
909.40 0.8177
909.50 0.8176
909.60 0.8175
909.70 0.8173
909.80 0.8172
909.90 0.8171
910.00 0.8169
910.10 0.8168
910.20 0.8167
910.30 0.8165
910.40 0.8164
910.50 0.8163
910.60 0.8161
910.70 0.816
910.80 0.8159
910.90 0.8157
911.00 0.8156
911.10 0.8155
911.20 0.8154
911.30 0.8152
911.40 0.8151
911.50 0.815
911.60 0.8148
911.70 0.8147
911.80 0.8146
911.90 0.8144
912.00 0.8143
912.10 0.8142
912.20 0.814
912.30 0.8139
912.40 0.8138
912.50 0.8136
912.60 0.8135
912.70 0.8134
912.80 0.8133
912.90 0.8131
913.00 0.813
913.10 0.8129
913.20 0.8127
913.30 0.8126
913.40 0.8125
913.50 0.8123
913.60 0.8122
913.70 0.8121
913.80 0.812
913.90 0.8118
914.00 0.8117
914.10 0.8116
914.20 0.8114
914.30 0.8113
914.40 0.8112
914.50 0.811
914.60 0.8109
914.70 0.8108
914.80 0.8107
914.90 0.8105
915.00 0.8104
915.10 0.8103
915.20 0.8101
915.30 0.81
915.40 0.8099
915.50 0.8098
915.60 0.8096
915.70 0.8095
915.80 0.8094
915.90 0.8092
916.00 0.8091
916.10 0.809
916.20 0.8088
916.30 0.8087
916.40 0.8086
916.50 0.8085
916.60 0.8083
916.70 0.8082
916.80 0.8081
916.90 0.8079
917.00 0.8078
917.10 0.8077
917.20 0.8076
917.30 0.8074
917.40 0.8073
917.50 0.8072
917.60 0.807
917.70 0.8069
917.80 0.8068
917.90 0.8066
918.00 0.8065
918.10 0.8064
918.20 0.8062
918.30 0.8061
918.40 0.806
918.50 0.8058
918.60 0.8057
918.70 0.8056
918.80 0.8054
918.90 0.8053
919.00 0.8052
919.10 0.8051
919.20 0.8049
919.30 0.8048
919.40 0.8047
919.50 0.8045
919.60 0.8044
919.70 0.8043
919.80 0.8041
919.90 0.804
920.00 0.8039
920.10 0.8037
920.20 0.8036
920.30 0.8035
920.40 0.8034
920.50 0.8032
920.60 0.8031
920.70 0.803
920.80 0.8028
920.90 0.8027
921.00 0.8026
921.10 0.8024
921.20 0.8023
921.30 0.8022
921.40 0.8021
921.50 0.8019
921.60 0.8018
921.70 0.8017
921.80 0.8015
921.90 0.8014
922.00 0.8013
922.10 0.8011
922.20 0.801
922.30 0.8009
922.40 0.8007
922.50 0.8006
922.60 0.8005
922.70 0.8003
922.80 0.8002
922.90 0.8001
923.00 0.8
923.10 0.7998
923.20 0.7997
923.30 0.7996
923.40 0.7994
923.50 0.7993
923.60 0.7992
923.70 0.799
923.80 0.7989
923.90 0.7988
924.00 0.7986
924.10 0.7985
924.20 0.7984
924.30 0.7983
924.40 0.7981
924.50 0.798
924.60 0.7979
924.70 0.7977
924.80 0.7976
924.90 0.7975
925.00 0.7973
925.10 0.7972
925.20 0.7971
925.30 0.7969
925.40 0.7968
925.50 0.7967
925.60 0.7966
925.70 0.7964
925.80 0.7963
925.90 0.7962
926.00 0.796
926.10 0.7959
926.20 0.7958
926.30 0.7956
926.40 0.7955
926.50 0.7954
926.60 0.7953
926.70 0.7951
926.80 0.795
926.90 0.7949
927.00 0.7947
927.10 0.7946
927.20 0.7945
927.30 0.7943
927.40 0.7942
927.50 0.7941
927.60 0.7939
927.70 0.7938
927.80 0.7937
927.90 0.7936
928.00 0.7934
928.10 0.7933
928.20 0.7932
928.30 0.793
928.40 0.7929
928.50 0.7928
928.60 0.7926
928.70 0.7925
928.80 0.7924
928.90 0.7922
929.00 0.7921
929.10 0.792
929.20 0.7919
929.30 0.7917
929.40 0.7916
929.50 0.7915
929.60 0.7913
929.70 0.7912
929.80 0.7911
929.90 0.7909
930.00 0.7908
930.10 0.7907
930.20 0.7905
930.30 0.7904
930.40 0.7903
930.50 0.7902
930.60 0.79
930.70 0.7899
930.80 0.7898
930.90 0.7896
931.00 0.7895
931.10 0.7894
931.20 0.7892
931.30 0.7891
931.40 0.789
931.50 0.7889
931.60 0.7887
931.70 0.7886
931.80 0.7885
931.90 0.7883
932.00 0.7882
932.10 0.7881
932.20 0.7879
932.30 0.7878
932.40 0.7877
932.50 0.7876
932.60 0.7874
932.70 0.7873
932.80 0.7872
932.90 0.787
933.00 0.7869
933.10 0.7868
933.20 0.7866
933.30 0.7865
933.40 0.7864
933.50 0.7862
933.60 0.7861
933.70 0.786
933.80 0.7859
933.90 0.7857
934.00 0.7856
934.10 0.7855
934.20 0.7853
934.30 0.7852
934.40 0.7851
934.50 0.7849
934.60 0.7848
934.70 0.7847
934.80 0.7845
934.90 0.7844
935.00 0.7843
935.10 0.7842
935.20 0.784
935.30 0.7839
935.40 0.7838
935.50 0.7836
935.60 0.7835
935.70 0.7834
935.80 0.7832
935.90 0.7831
936.00 0.783
936.10 0.7828
936.20 0.7827
936.30 0.7826
936.40 0.7825
936.50 0.7823
936.60 0.7822
936.70 0.7821
936.80 0.7819
936.90 0.7818
937.00 0.7817
937.10 0.7815
937.20 0.7814
937.30 0.7813
937.40 0.7811
937.50 0.781
937.60 0.7809
937.70 0.7808
937.80 0.7806
937.90 0.7805
938.00 0.7804
938.10 0.7802
938.20 0.7801
938.30 0.78
938.40 0.7798
938.50 0.7797
938.60 0.7796
938.70 0.7795
938.80 0.7793
938.90 0.7792
939.00 0.7791
939.10 0.7789
939.20 0.7788
939.30 0.7787
939.40 0.7785
939.50 0.7784
939.60 0.7783
939.70 0.7781
939.80 0.778
939.90 0.7779
940.00 0.7777
940.10 0.7776
940.20 0.7775
940.30 0.7774
940.40 0.7772
940.50 0.7771
940.60 0.777
940.70 0.7768
940.80 0.7767
940.90 0.7766
941.00 0.7764
941.10 0.7763
941.20 0.7762
941.30 0.776
941.40 0.7759
941.50 0.7758
941.60 0.7757
941.70 0.7755
941.80 0.7754
941.90 0.7753
942.00 0.7751
942.10 0.775
942.20 0.7749
942.30 0.7748
942.40 0.7746
942.50 0.7745
942.60 0.7744
942.70 0.7742
942.80 0.7741
942.90 0.774
943.00 0.7738
943.10 0.7737
943.20 0.7736
943.30 0.7734
943.40 0.7733
943.50 0.7732
943.60 0.773
943.70 0.7729
943.80 0.7728
943.90 0.7727
944.00 0.7725
944.10 0.7724
944.20 0.7723
944.30 0.7721
944.40 0.772
944.50 0.7719
944.60 0.7717
944.70 0.7716
944.80 0.7715
944.90 0.7713
945.00 0.7712
945.10 0.7711
945.20 0.771
945.30 0.7708
945.40 0.7707
945.50 0.7706
945.60 0.7704
945.70 0.7703
945.80 0.7702
945.90 0.77
946.00 0.7699
946.10 0.7698
946.20 0.7697
946.30 0.7695
946.40 0.7694
946.50 0.7693
946.60 0.7691
946.70 0.769
946.80 0.7689
946.90 0.7688
947.00 0.7686
947.10 0.7685
947.20 0.7684
947.30 0.7682
947.40 0.7681
947.50 0.768
947.60 0.7678
947.70 0.7677
947.80 0.7676
947.90 0.7674
948.00 0.7673
948.10 0.7672
948.20 0.7671
948.30 0.7669
948.40 0.7668
948.50 0.7667
948.60 0.7665
948.70 0.7664
948.80 0.7663
948.90 0.7661
949.00 0.766
949.10 0.7659
949.20 0.7658
949.30 0.7656
949.40 0.7655
949.50 0.7654
949.60 0.7652
949.70 0.7651
949.80 0.765
949.90 0.7648
950.00 0.7647
950.10 0.7646
950.20 0.7644
950.30 0.7643
950.40 0.7642
950.50 0.7641
950.60 0.7639
950.70 0.7638
950.80 0.7637
950.90 0.7635
951.00 0.7634
951.10 0.7633
951.20 0.7631
951.30 0.763
951.40 0.7629
951.50 0.7627
951.60 0.7626
951.70 0.7625
951.80 0.7624
951.90 0.7622
952.00 0.7621
952.10 0.762
952.20 0.7618
952.30 0.7617
952.40 0.7616
952.50 0.7614
952.60 0.7613
952.70 0.7612
952.80 0.761
952.90 0.7609
953.00 0.7608
953.10 0.7607
953.20 0.7605
953.30 0.7604
953.40 0.7603
953.50 0.7601
953.60 0.76
953.70 0.7599
953.80 0.7598
953.90 0.7596
954.00 0.7595
954.10 0.7594
954.20 0.7592
954.30 0.7591
954.40 0.759
954.50 0.7588
954.60 0.7587
954.70 0.7586
954.80 0.7584
954.90 0.7583
955.00 0.7582
955.10 0.7581
955.20 0.7579
955.30 0.7578
955.40 0.7577
955.50 0.7575
955.60 0.7574
955.70 0.7573
955.80 0.7572
955.90 0.757
956.00 0.7569
956.10 0.7568
956.20 0.7566
956.30 0.7565
956.40 0.7564
956.50 0.7562
956.60 0.7561
956.70 0.756
956.80 0.7558
956.90 0.7557
957.00 0.7556
957.10 0.7555
957.20 0.7553
957.30 0.7552
957.40 0.7551
957.50 0.7549
957.60 0.7548
957.70 0.7547
957.80 0.7545
957.90 0.7544
958.00 0.7543
958.10 0.7542
958.20 0.754
958.30 0.7539
958.40 0.7538
958.50 0.7536
958.60 0.7535
958.70 0.7534
958.80 0.7532
958.90 0.7531
959.00 0.753
959.10 0.7529
959.20 0.7527
959.30 0.7526
959.40 0.7525
959.50 0.7523
959.60 0.7522
959.70 0.7521
959.80 0.7519
959.90 0.7518
960.00 0.7517
960.10 0.7515
960.20 0.7514
960.30 0.7513
960.40 0.7512
960.50 0.751
960.60 0.7509
960.70 0.7508
960.80 0.7506
960.90 0.7505
961.00 0.7504
961.10 0.7502
961.20 0.7501
961.30 0.75
961.40 0.7499
961.50 0.7497
961.60 0.7496
961.70 0.7495
961.80 0.7493
961.90 0.7492
962.00 0.7491
962.10 0.749
962.20 0.7488
962.30 0.7487
962.40 0.7486
962.50 0.7484
962.60 0.7483
962.70 0.7482
962.80 0.748
962.90 0.7479
963.00 0.7478
963.10 0.7477
963.20 0.7475
963.30 0.7474
963.40 0.7473
963.50 0.7471
963.60 0.747
963.70 0.7469
963.80 0.7467
963.90 0.7466
964.00 0.7465
964.10 0.7464
964.20 0.7462
964.30 0.7461
964.40 0.746
964.50 0.7458
964.60 0.7457
964.70 0.7456
964.80 0.7454
964.90 0.7453
965.00 0.7452
965.10 0.7451
965.20 0.7449
965.30 0.7448
965.40 0.7447
965.50 0.7445
965.60 0.7444
965.70 0.7443
965.80 0.7442
965.90 0.744
966.00 0.7439
966.10 0.7438
966.20 0.7436
966.30 0.7435
966.40 0.7434
966.50 0.7433
966.60 0.7431
966.70 0.743
966.80 0.7429
966.90 0.7427
967.00 0.7426
967.10 0.7425
967.20 0.7424
967.30 0.7422
967.40 0.7421
967.50 0.742
967.60 0.7418
967.70 0.7417
967.80 0.7416
967.90 0.7414
968.00 0.7413
968.10 0.7412
968.20 0.741
968.30 0.7409
968.40 0.7408
968.50 0.7407
968.60 0.7405
968.70 0.7404
968.80 0.7403
968.90 0.7401
969.00 0.74
969.10 0.7399
969.20 0.7398
969.30 0.7396
969.40 0.7395
969.50 0.7394
969.60 0.7392
969.70 0.7391
969.80 0.739
969.90 0.7388
970.00 0.7387
970.10 0.7386
970.20 0.7385
970.30 0.7383
970.40 0.7382
970.50 0.7381
970.60 0.7379
970.70 0.7378
970.80 0.7377
970.90 0.7376
971.00 0.7374
971.10 0.7373
971.20 0.7372
971.30 0.737
971.40 0.7369
971.50 0.7368
971.60 0.7366
971.70 0.7365
971.80 0.7364
971.90 0.7363
972.00 0.7361
972.10 0.736
972.20 0.7359
972.30 0.7357
972.40 0.7356
972.50 0.7355
972.60 0.7354
972.70 0.7352
972.80 0.7351
972.90 0.735
973.00 0.7348
973.10 0.7347
973.20 0.7346
973.30 0.7345
973.40 0.7343
973.50 0.7342
973.60 0.7341
973.70 0.7339
973.80 0.7338
973.90 0.7337
974.00 0.7336
974.10 0.7334
974.20 0.7333
974.30 0.7332
974.40 0.733
974.50 0.7329
974.60 0.7328
974.70 0.7327
974.80 0.7325
974.90 0.7324
975.00 0.7323
975.10 0.7321
975.20 0.732
975.30 0.7319
975.40 0.7318
975.50 0.7316
975.60 0.7315
975.70 0.7314
975.80 0.7312
975.90 0.7311
976.00 0.731
976.10 0.7309
976.20 0.7307
976.30 0.7306
976.40 0.7305
976.50 0.7303
976.60 0.7302
976.70 0.7301
976.80 0.73
976.90 0.7298
977.00 0.7297
977.10 0.7296
977.20 0.7294
977.30 0.7293
977.40 0.7292
977.50 0.7291
977.60 0.7289
977.70 0.7288
977.80 0.7287
977.90 0.7285
978.00 0.7284
978.10 0.7283
978.20 0.7282
978.30 0.728
978.40 0.7279
978.50 0.7278
978.60 0.7276
978.70 0.7275
978.80 0.7274
978.90 0.7273
979.00 0.7271
979.10 0.727
979.20 0.7269
979.30 0.7267
979.40 0.7266
979.50 0.7265
979.60 0.7264
979.70 0.7262
979.80 0.7261
979.90 0.726
980.00 0.7258
980.10 0.7257
980.20 0.7256
980.30 0.7255
980.40 0.7253
980.50 0.7252
980.60 0.7251
980.70 0.7249
980.80 0.7248
980.90 0.7247
981.00 0.7246
981.10 0.7244
981.20 0.7243
981.30 0.7242
981.40 0.7241
981.50 0.7239
981.60 0.7238
981.70 0.7237
981.80 0.7235
981.90 0.7234
982.00 0.7233
982.10 0.7232
982.20 0.723
982.30 0.7229
982.40 0.7228
982.50 0.7226
982.60 0.7225
982.70 0.7224
982.80 0.7223
982.90 0.7221
983.00 0.722
983.10 0.7219
983.20 0.7217
983.30 0.7216
983.40 0.7215
983.50 0.7214
983.60 0.7212
983.70 0.7211
983.80 0.721
983.90 0.7209
984.00 0.7207
984.10 0.7206
984.20 0.7205
984.30 0.7203
984.40 0.7202
984.50 0.7201
984.60 0.72
984.70 0.7198
984.80 0.7197
984.90 0.7196
985.00 0.7195
985.10 0.7193
985.20 0.7192
985.30 0.7191
985.40 0.7189
985.50 0.7188
985.60 0.7187
985.70 0.7186
985.80 0.7184
985.90 0.7183
986.00 0.7182
986.10 0.718
986.20 0.7179
986.30 0.7178
986.40 0.7177
986.50 0.7175
986.60 0.7174
986.70 0.7173
986.80 0.7172
986.90 0.717
987.00 0.7169
987.10 0.7168
987.20 0.7166
987.30 0.7165
987.40 0.7164
987.50 0.7163
987.60 0.7161
987.70 0.716
987.80 0.7159
987.90 0.7158
988.00 0.7156
988.10 0.7155
988.20 0.7154
988.30 0.7152
988.40 0.7151
988.50 0.715
988.60 0.7149
988.70 0.7147
988.80 0.7146
988.90 0.7145
989.00 0.7144
989.10 0.7142
989.20 0.7141
989.30 0.714
989.40 0.7139
989.50 0.7137
989.60 0.7136
989.70 0.7135
989.80 0.7133
989.90 0.7132
990.00 0.7131
990.10 0.713
990.20 0.7128
990.30 0.7127
990.40 0.7126
990.50 0.7125
990.60 0.7123
990.70 0.7122
990.80 0.7121
990.90 0.712
991.00 0.7118
991.10 0.7117
991.20 0.7116
991.30 0.7115
991.40 0.7113
991.50 0.7112
991.60 0.7111
991.70 0.7109
991.80 0.7108
991.90 0.7107
992.00 0.7106
992.10 0.7104
992.20 0.7103
992.30 0.7102
992.40 0.7101
992.50 0.7099
992.60 0.7098
992.70 0.7097
992.80 0.7096
992.90 0.7094
993.00 0.7093
993.10 0.7092
993.20 0.709
993.30 0.7089
993.40 0.7088
993.50 0.7087
993.60 0.7085
993.70 0.7084
993.80 0.7083
993.90 0.7082
994.00 0.708
994.10 0.7079
994.20 0.7078
994.30 0.7077
994.40 0.7075
994.50 0.7074
994.60 0.7073
994.70 0.7072
994.80 0.707
994.90 0.7069
995.00 0.7068
995.10 0.7067
995.20 0.7065
995.30 0.7064
995.40 0.7063
995.50 0.7062
995.60 0.706
995.70 0.7059
995.80 0.7058
995.90 0.7057
996.00 0.7055
996.10 0.7054
996.20 0.7053
996.30 0.7052
996.40 0.705
996.50 0.7049
996.60 0.7048
996.70 0.7047
996.80 0.7045
996.90 0.7044
997.00 0.7043
997.10 0.7042
997.20 0.704
997.30 0.7039
997.40 0.7038
997.50 0.7037
997.60 0.7035
997.70 0.7034
997.80 0.7033
997.90 0.7031
998.00 0.703
998.10 0.7029
998.20 0.7028
998.30 0.7026
998.40 0.7025
998.50 0.7024
998.60 0.7023
998.70 0.7021
998.80 0.702
998.90 0.7019
999.00 0.7018
999.10 0.7016
999.20 0.7015
999.30 0.7014
999.40 0.7013
999.50 0.7011
999.60 0.701
999.70 0.7009
999.80 0.7008
999.90 0.7006
1000.00 0.7005
1000.10 0.7004
1000.20 0.7003
1000.30 0.7001
1000.40 0.7
1000.50 0.6999
1000.60 0.6998
1000.70 0.6996
1000.80 0.6995
1000.90 0.6994
1001.00 0.6993
1001.10 0.6991
1001.20 0.699
1001.30 0.6989
1001.40 0.6988
1001.50 0.6986
1001.60 0.6985
1001.70 0.6984
1001.80 0.6983
1001.90 0.6981
1002.00 0.698
1002.10 0.6979
1002.20 0.6978
1002.30 0.6977
1002.40 0.6975
1002.50 0.6974
1002.60 0.6973
1002.70 0.6972
1002.80 0.697
1002.90 0.6969
1003.00 0.6968
1003.10 0.6967
1003.20 0.6965
1003.30 0.6964
1003.40 0.6963
1003.50 0.6962
1003.60 0.696
1003.70 0.6959
1003.80 0.6958
1003.90 0.6957
1004.00 0.6955
1004.10 0.6954
1004.20 0.6953
1004.30 0.6952
1004.40 0.695
1004.50 0.6949
1004.60 0.6948
1004.70 0.6947
1004.80 0.6945
1004.90 0.6944
1005.00 0.6943
1005.10 0.6942
1005.20 0.694
1005.30 0.6939
1005.40 0.6938
1005.50 0.6937
1005.60 0.6936
1005.70 0.6934
1005.80 0.6933
1005.90 0.6932
1006.00 0.6931
1006.10 0.6929
1006.20 0.6928
1006.30 0.6927
1006.40 0.6926
1006.50 0.6924
1006.60 0.6923
1006.70 0.6922
1006.80 0.6921
1006.90 0.6919
1007.00 0.6918
1007.10 0.6917
1007.20 0.6916
1007.30 0.6914
1007.40 0.6913
1007.50 0.6912
1007.60 0.6911
1007.70 0.6909
1007.80 0.6908
1007.90 0.6907
1008.00 0.6906
1008.10 0.6905
1008.20 0.6903
1008.30 0.6902
1008.40 0.6901
1008.50 0.69
1008.60 0.6898
1008.70 0.6897
1008.80 0.6896
1008.90 0.6895
1009.00 0.6893
1009.10 0.6892
1009.20 0.6891
1009.30 0.689
1009.40 0.6889
1009.50 0.6887
1009.60 0.6886
1009.70 0.6885
1009.80 0.6884
1009.90 0.6882
1010.00 0.6881
1010.10 0.688
1010.20 0.6879
1010.30 0.6877
1010.40 0.6876
1010.50 0.6875
1010.60 0.6874
1010.70 0.6873
1010.80 0.6871
1010.90 0.687
1011.00 0.6869
1011.10 0.6868
1011.20 0.6866
1011.30 0.6865
1011.40 0.6864
1011.50 0.6863
1011.60 0.6861
1011.70 0.686
1011.80 0.6859
1011.90 0.6858
1012.00 0.6856
1012.10 0.6855
1012.20 0.6854
1012.30 0.6853
1012.40 0.6852
1012.50 0.685
1012.60 0.6849
1012.70 0.6848
1012.80 0.6847
1012.90 0.6845
1013.00 0.6844
1013.10 0.6843
1013.20 0.6842
1013.30 0.6841
1013.40 0.6839
1013.50 0.6838
1013.60 0.6837
1013.70 0.6836
1013.80 0.6834
1013.90 0.6833
1014.00 0.6832
1014.10 0.6831
1014.20 0.683
1014.30 0.6828
1014.40 0.6827
1014.50 0.6826
1014.60 0.6825
1014.70 0.6823
1014.80 0.6822
1014.90 0.6821
1015.00 0.682
1015.10 0.6818
1015.20 0.6817
1015.30 0.6816
1015.40 0.6815
1015.50 0.6813
1015.60 0.6812
1015.70 0.6811
1015.80 0.681
1015.90 0.6809
1016.00 0.6807
1016.10 0.6806
1016.20 0.6805
1016.30 0.6804
1016.40 0.6802
1016.50 0.6801
1016.60 0.68
1016.70 0.6799
1016.80 0.6798
1016.90 0.6796
1017.00 0.6795
1017.10 0.6794
1017.20 0.6793
1017.30 0.6792
1017.40 0.679
1017.50 0.6789
1017.60 0.6788
1017.70 0.6787
1017.80 0.6785
1017.90 0.6784
1018.00 0.6783
1018.10 0.6782
1018.20 0.6781
1018.30 0.6779
1018.40 0.6778
1018.50 0.6777
1018.60 0.6776
1018.70 0.6775
1018.80 0.6773
1018.90 0.6772
1019.00 0.6771
1019.10 0.677
1019.20 0.6768
1019.30 0.6767
1019.40 0.6766
1019.50 0.6765
1019.60 0.6763
1019.70 0.6762
1019.80 0.6761
1019.90 0.676
1020.00 0.6759
1020.10 0.6757
1020.20 0.6756
1020.30 0.6755
1020.40 0.6754
1020.50 0.6752
1020.60 0.6751
1020.70 0.675
1020.80 0.6749
1020.90 0.6748
1021.00 0.6746
1021.10 0.6745
1021.20 0.6744
1021.30 0.6743
1021.40 0.6742
1021.50 0.674
1021.60 0.6739
1021.70 0.6738
1021.80 0.6737
1021.90 0.6736
1022.00 0.6734
1022.10 0.6733
1022.20 0.6732
1022.30 0.6731
1022.40 0.673
1022.50 0.6728
1022.60 0.6727
1022.70 0.6726
1022.80 0.6725
1022.90 0.6723
1023.00 0.6722
1023.10 0.6721
1023.20 0.672
1023.30 0.6719
1023.40 0.6717
1023.50 0.6716
1023.60 0.6715
1023.70 0.6714
1023.80 0.6713
1023.90 0.6711
1024.00 0.671
1024.10 0.6709
1024.20 0.6708
1024.30 0.6707
1024.40 0.6705
1024.50 0.6704
1024.60 0.6703
1024.70 0.6702
1024.80 0.6701
1024.90 0.6699
1025.00 0.6698
1025.10 0.6697
1025.20 0.6696
1025.30 0.6694
1025.40 0.6693
1025.50 0.6692
1025.60 0.6691
1025.70 0.669
1025.80 0.6688
1025.90 0.6687
1026.00 0.6686
1026.10 0.6685
1026.20 0.6684
1026.30 0.6682
1026.40 0.6681
1026.50 0.668
1026.60 0.6679
1026.70 0.6678
1026.80 0.6676
1026.90 0.6675
1027.00 0.6674
1027.10 0.6673
1027.20 0.6672
1027.30 0.667
1027.40 0.6669
1027.50 0.6668
1027.60 0.6667
1027.70 0.6666
1027.80 0.6664
1027.90 0.6663
1028.00 0.6662
1028.10 0.6661
1028.20 0.666
1028.30 0.6658
1028.40 0.6657
1028.50 0.6656
1028.60 0.6655
1028.70 0.6654
1028.80 0.6652
1028.90 0.6651
1029.00 0.665
1029.10 0.6649
1029.20 0.6648
1029.30 0.6646
1029.40 0.6645
1029.50 0.6644
1029.60 0.6643
1029.70 0.6642
1029.80 0.6641
1029.90 0.6639
1030.00 0.6638
1030.10 0.6637
1030.20 0.6636
1030.30 0.6635
1030.40 0.6633
1030.50 0.6632
1030.60 0.6631
1030.70 0.663
1030.80 0.6629
1030.90 0.6627
1031.00 0.6626
1031.10 0.6625
1031.20 0.6624
1031.30 0.6623
1031.40 0.6621
1031.50 0.662
1031.60 0.6619
1031.70 0.6618
1031.80 0.6617
1031.90 0.6616
1032.00 0.6614
1032.10 0.6613
1032.20 0.6612
1032.30 0.6611
1032.40 0.661
1032.50 0.6608
1032.60 0.6607
1032.70 0.6606
1032.80 0.6605
1032.90 0.6604
1033.00 0.6602
1033.10 0.6601
1033.20 0.66
1033.30 0.6599
1033.40 0.6598
1033.50 0.6597
1033.60 0.6595
1033.70 0.6594
1033.80 0.6593
1033.90 0.6592
1034.00 0.6591
1034.10 0.6589
1034.20 0.6588
1034.30 0.6587
1034.40 0.6586
1034.50 0.6585
1034.60 0.6583
1034.70 0.6582
1034.80 0.6581
1034.90 0.658
1035.00 0.6579
1035.10 0.6578
1035.20 0.6576
1035.30 0.6575
1035.40 0.6574
1035.50 0.6573
1035.60 0.6572
1035.70 0.6571
1035.80 0.6569
1035.90 0.6568
1036.00 0.6567
1036.10 0.6566
1036.20 0.6565
1036.30 0.6563
1036.40 0.6562
1036.50 0.6561
1036.60 0.656
1036.70 0.6559
1036.80 0.6558
1036.90 0.6556
1037.00 0.6555
1037.10 0.6554
1037.20 0.6553
1037.30 0.6552
1037.40 0.655
1037.50 0.6549
1037.60 0.6548
1037.70 0.6547
1037.80 0.6546
1037.90 0.6545
1038.00 0.6543
1038.10 0.6542
1038.20 0.6541
1038.30 0.654
1038.40 0.6539
1038.50 0.6538
1038.60 0.6536
1038.70 0.6535
1038.80 0.6534
1038.90 0.6533
1039.00 0.6532
1039.10 0.6531
1039.20 0.6529
1039.30 0.6528
1039.40 0.6527
1039.50 0.6526
1039.60 0.6525
1039.70 0.6524
1039.80 0.6522
1039.90 0.6521
1040.00 0.652
1040.10 0.6519
1040.20 0.6518
1040.30 0.6517
1040.40 0.6515
1040.50 0.6514
1040.60 0.6513
1040.70 0.6512
1040.80 0.6511
1040.90 0.651
1041.00 0.6508
1041.10 0.6507
1041.20 0.6506
1041.30 0.6505
1041.40 0.6504
1041.50 0.6503
1041.60 0.6501
1041.70 0.65
1041.80 0.6499
1041.90 0.6498
1042.00 0.6497
1042.10 0.6496
1042.20 0.6494
1042.30 0.6493
1042.40 0.6492
1042.50 0.6491
1042.60 0.649
1042.70 0.6489
1042.80 0.6487
1042.90 0.6486
1043.00 0.6485
1043.10 0.6484
1043.20 0.6483
1043.30 0.6482
1043.40 0.648
1043.50 0.6479
1043.60 0.6478
1043.70 0.6477
1043.80 0.6476
1043.90 0.6475
1044.00 0.6473
1044.10 0.6472
1044.20 0.6471
1044.30 0.647
1044.40 0.6469
1044.50 0.6468
1044.60 0.6466
1044.70 0.6465
1044.80 0.6464
1044.90 0.6463
1045.00 0.6462
1045.10 0.6461
1045.20 0.646
1045.30 0.6458
1045.40 0.6457
1045.50 0.6456
1045.60 0.6455
1045.70 0.6454
1045.80 0.6453
1045.90 0.6451
1046.00 0.645
1046.10 0.6449
1046.20 0.6448
1046.30 0.6447
1046.40 0.6446
1046.50 0.6445
1046.60 0.6443
1046.70 0.6442
1046.80 0.6441
1046.90 0.644
1047.00 0.6439
1047.10 0.6438
1047.20 0.6436
1047.30 0.6435
1047.40 0.6434
1047.50 0.6433
1047.60 0.6432
1047.70 0.6431
1047.80 0.643
1047.90 0.6428
1048.00 0.6427
1048.10 0.6426
1048.20 0.6425
1048.30 0.6424
1048.40 0.6423
1048.50 0.6422
1048.60 0.642
1048.70 0.6419
1048.80 0.6418
1048.90 0.6417
1049.00 0.6416
1049.10 0.6415
1049.20 0.6414
1049.30 0.6412
1049.40 0.6411
1049.50 0.641
1049.60 0.6409
1049.70 0.6408
1049.80 0.6407
1049.90 0.6406
1050.00 0.6404
1050.10 0.6403
1050.20 0.6402
1050.30 0.6401
1050.40 0.64
1050.50 0.6399
1050.60 0.6398
1050.70 0.6396
1050.80 0.6395
1050.90 0.6394
1051.00 0.6393
1051.10 0.6392
1051.20 0.6391
1051.30 0.639
1051.40 0.6388
1051.50 0.6387
1051.60 0.6386
1051.70 0.6385
1051.80 0.6384
1051.90 0.6383
1052.00 0.6382
1052.10 0.638
1052.20 0.6379
1052.30 0.6378
1052.40 0.6377
1052.50 0.6376
1052.60 0.6375
1052.70 0.6374
1052.80 0.6372
1052.90 0.6371
1053.00 0.637
1053.10 0.6369
1053.20 0.6368
1053.30 0.6367
1053.40 0.6366
1053.50 0.6365
1053.60 0.6363
1053.70 0.6362
1053.80 0.6361
1053.90 0.636
1054.00 0.6359
1054.10 0.6358
1054.20 0.6357
1054.30 0.6355
1054.40 0.6354
1054.50 0.6353
1054.60 0.6352
1054.70 0.6351
1054.80 0.635
1054.90 0.6349
1055.00 0.6348
1055.10 0.6346
1055.20 0.6345
1055.30 0.6344
1055.40 0.6343
1055.50 0.6342
1055.60 0.6341
1055.70 0.634
1055.80 0.6338
1055.90 0.6337
1056.00 0.6336
1056.10 0.6335
1056.20 0.6334
1056.30 0.6333
1056.40 0.6332
1056.50 0.6331
1056.60 0.6329
1056.70 0.6328
1056.80 0.6327
1056.90 0.6326
1057.00 0.6325
1057.10 0.6324
1057.20 0.6323
1057.30 0.6322
1057.40 0.632
1057.50 0.6319
1057.60 0.6318
1057.70 0.6317
1057.80 0.6316
1057.90 0.6315
1058.00 0.6314
1058.10 0.6313
1058.20 0.6311
1058.30 0.631
1058.40 0.6309
1058.50 0.6308
1058.60 0.6307
1058.70 0.6306
1058.80 0.6305
1058.90 0.6304
1059.00 0.6303
1059.10 0.6301
1059.20 0.63
1059.30 0.6299
1059.40 0.6298
1059.50 0.6297
1059.60 0.6296
1059.70 0.6295
1059.80 0.6294
1059.90 0.6292
1060.00 0.6291
1060.10 0.629
1060.20 0.6289
1060.30 0.6288
1060.40 0.6287
1060.50 0.6286
1060.60 0.6285
1060.70 0.6284
1060.80 0.6282
1060.90 0.6281
1061.00 0.628
1061.10 0.6279
1061.20 0.6278
1061.30 0.6277
1061.40 0.6276
1061.50 0.6275
1061.60 0.6274
1061.70 0.6272
1061.80 0.6271
1061.90 0.627
1062.00 0.6269
1062.10 0.6268
1062.20 0.6267
1062.30 0.6266
1062.40 0.6265
1062.50 0.6263
1062.60 0.6262
1062.70 0.6261
1062.80 0.626
1062.90 0.6259
1063.00 0.6258
1063.10 0.6257
1063.20 0.6256
1063.30 0.6255
1063.40 0.6253
1063.50 0.6252
1063.60 0.6251
1063.70 0.625
1063.80 0.6249
1063.90 0.6248
1064.00 0.6247
1064.10 0.6246
1064.20 0.6245
1064.30 0.6243
1064.40 0.6242
1064.50 0.6241
1064.60 0.624
1064.70 0.6239
1064.80 0.6238
1064.90 0.6237
1065.00 0.6236
1065.10 0.6235
1065.20 0.6234
1065.30 0.6232
1065.40 0.6231
1065.50 0.623
1065.60 0.6229
1065.70 0.6228
1065.80 0.6227
1065.90 0.6226
1066.00 0.6225
1066.10 0.6224
1066.20 0.6222
1066.30 0.6221
1066.40 0.622
1066.50 0.6219
1066.60 0.6218
1066.70 0.6217
1066.80 0.6216
1066.90 0.6215
1067.00 0.6214
1067.10 0.6213
1067.20 0.6211
1067.30 0.621
1067.40 0.6209
1067.50 0.6208
1067.60 0.6207
1067.70 0.6206
1067.80 0.6205
1067.90 0.6204
1068.00 0.6203
1068.10 0.6202
1068.20 0.62
1068.30 0.6199
1068.40 0.6198
1068.50 0.6197
1068.60 0.6196
1068.70 0.6195
1068.80 0.6194
1068.90 0.6193
1069.00 0.6192
1069.10 0.6191
1069.20 0.619
1069.30 0.6188
1069.40 0.6187
1069.50 0.6186
1069.60 0.6185
1069.70 0.6184
1069.80 0.6183
1069.90 0.6182
1070.00 0.6181
1070.10 0.618
1070.20 0.6179
1070.30 0.6178
1070.40 0.6176
1070.50 0.6175
1070.60 0.6174
1070.70 0.6173
1070.80 0.6172
1070.90 0.6171
1071.00 0.617
1071.10 0.6169
1071.20 0.6168
1071.30 0.6167
1071.40 0.6166
1071.50 0.6164
1071.60 0.6163
1071.70 0.6162
1071.80 0.6161
1071.90 0.616
1072.00 0.6159
1072.10 0.6158
1072.20 0.6157
1072.30 0.6156
1072.40 0.6155
1072.50 0.6154
1072.60 0.6153
1072.70 0.6151
1072.80 0.615
1072.90 0.6149
1073.00 0.6148
1073.10 0.6147
1073.20 0.6146
1073.30 0.6145
1073.40 0.6144
1073.50 0.6143
1073.60 0.6142
1073.70 0.6141
1073.80 0.614
1073.90 0.6139
1074.00 0.6137
1074.10 0.6136
1074.20 0.6135
1074.30 0.6134
1074.40 0.6133
1074.50 0.6132
1074.60 0.6131
1074.70 0.613
1074.80 0.6129
1074.90 0.6128
1075.00 0.6127
1075.10 0.6125
1075.20 0.6124
1075.30 0.6123
1075.40 0.6122
1075.50 0.6121
1075.60 0.612
1075.70 0.6119
1075.80 0.6118
1075.90 0.6117
1076.00 0.6116
1076.10 0.6115
1076.20 0.6114
1076.30 0.6113
1076.40 0.6111
1076.50 0.611
1076.60 0.6109
1076.70 0.6108
1076.80 0.6107
1076.90 0.6106
1077.00 0.6105
1077.10 0.6104
1077.20 0.6103
1077.30 0.6102
1077.40 0.6101
1077.50 0.61
1077.60 0.6099
1077.70 0.6097
1077.80 0.6096
1077.90 0.6095
1078.00 0.6094
1078.10 0.6093
1078.20 0.6092
1078.30 0.6091
1078.40 0.609
1078.50 0.6089
1078.60 0.6088
1078.70 0.6087
1078.80 0.6086
1078.90 0.6084
1079.00 0.6083
1079.10 0.6082
1079.20 0.6081
1079.30 0.608
1079.40 0.6079
1079.50 0.6078
1079.60 0.6077
1079.70 0.6076
1079.80 0.6075
1079.90 0.6074
1080.00 0.6073
1080.10 0.6072
1080.20 0.6071
1080.30 0.6069
1080.40 0.6068
1080.50 0.6067
1080.60 0.6066
1080.70 0.6065
1080.80 0.6064
1080.90 0.6063
1081.00 0.6062
1081.10 0.6061
1081.20 0.606
1081.30 0.6059
1081.40 0.6058
1081.50 0.6057
1081.60 0.6056
1081.70 0.6055
1081.80 0.6054
1081.90 0.6052
1082.00 0.6051
1082.10 0.605
1082.20 0.6049
1082.30 0.6048
1082.40 0.6047
1082.50 0.6046
1082.60 0.6045
1082.70 0.6044
1082.80 0.6043
1082.90 0.6042
1083.00 0.6041
1083.10 0.604
1083.20 0.6039
1083.30 0.6038
1083.40 0.6037
1083.50 0.6035
1083.60 0.6034
1083.70 0.6033
1083.80 0.6032
1083.90 0.6031
1084.00 0.603
1084.10 0.6029
1084.20 0.6028
1084.30 0.6027
1084.40 0.6026
1084.50 0.6025
1084.60 0.6024
1084.70 0.6023
1084.80 0.6022
1084.90 0.6021
1085.00 0.6019
1085.10 0.6018
1085.20 0.6017
1085.30 0.6016
1085.40 0.6015
1085.50 0.6014
1085.60 0.6013
1085.70 0.6012
1085.80 0.6011
1085.90 0.601
1086.00 0.6009
1086.10 0.6008
1086.20 0.6007
1086.30 0.6006
1086.40 0.6005
1086.50 0.6004
1086.60 0.6003
1086.70 0.6002
1086.80 0.6
1086.90 0.5999
1087.00 0.5998
1087.10 0.5997
1087.20 0.5996
1087.30 0.5995
1087.40 0.5994
1087.50 0.5993
1087.60 0.5992
1087.70 0.5991
1087.80 0.599
1087.90 0.5989
1088.00 0.5988
1088.10 0.5987
1088.20 0.5986
1088.30 0.5985
1088.40 0.5984
1088.50 0.5983
1088.60 0.5982
1088.70 0.598
1088.80 0.5979
1088.90 0.5978
1089.00 0.5977
1089.10 0.5976
1089.20 0.5975
1089.30 0.5974
1089.40 0.5973
1089.50 0.5972
1089.60 0.5971
1089.70 0.597
1089.80 0.5969
1089.90 0.5968
1090.00 0.5967
1090.10 0.5966
1090.20 0.5965
1090.30 0.5964
1090.40 0.5963
1090.50 0.5961
1090.60 0.596
1090.70 0.5959
1090.80 0.5958
1090.90 0.5957
1091.00 0.5956
1091.10 0.5955
1091.20 0.5954
1091.30 0.5953
1091.40 0.5952
1091.50 0.5951
1091.60 0.595
1091.70 0.5949
1091.80 0.5948
1091.90 0.5947
1092.00 0.5946
1092.10 0.5945
1092.20 0.5944
1092.30 0.5943
1092.40 0.5942
1092.50 0.5941
1092.60 0.594
1092.70 0.5938
1092.80 0.5937
1092.90 0.5936
1093.00 0.5935
1093.10 0.5934
1093.20 0.5933
1093.30 0.5932
1093.40 0.5931
1093.50 0.593
1093.60 0.5929
1093.70 0.5928
1093.80 0.5927
1093.90 0.5926
1094.00 0.5925
1094.10 0.5924
1094.20 0.5923
1094.30 0.5922
1094.40 0.5921
1094.50 0.592
1094.60 0.5919
1094.70 0.5918
1094.80 0.5917
1094.90 0.5916
1095.00 0.5915
1095.10 0.5913
1095.20 0.5912
1095.30 0.5911
1095.40 0.591
1095.50 0.5909
1095.60 0.5908
1095.70 0.5907
1095.80 0.5906
1095.90 0.5905
1096.00 0.5904
1096.10 0.5903
1096.20 0.5902
1096.30 0.5901
1096.40 0.59
1096.50 0.5899
1096.60 0.5898
1096.70 0.5897
1096.80 0.5896
1096.90 0.5895
1097.00 0.5894
1097.10 0.5893
1097.20 0.5892
1097.30 0.5891
1097.40 0.589
1097.50 0.5889
1097.60 0.5888
1097.70 0.5887
1097.80 0.5886
1097.90 0.5884
1098.00 0.5883
1098.10 0.5882
1098.20 0.5881
1098.30 0.588
1098.40 0.5879
1098.50 0.5878
1098.60 0.5877
1098.70 0.5876
1098.80 0.5875
1098.90 0.5874
1099.00 0.5873
1099.10 0.5872
1099.20 0.5871
1099.30 0.587
1099.40 0.5869
1099.50 0.5868
1099.60 0.5867
1099.70 0.5866
1099.80 0.5865
1099.90 0.5864
1100.00 0.5863
1100.10 0.5862
1100.20 0.5861
1100.30 0.586
1100.40 0.5859
1100.50 0.5858
1100.60 0.5857
1100.70 0.5856
1100.80 0.5855
1100.90 0.5853
1101.00 0.5852
1101.10 0.5851
1101.20 0.585
1101.30 0.5849
1101.40 0.5848
1101.50 0.5847
1101.60 0.5846
1101.70 0.5845
1101.80 0.5844
1101.90 0.5843
1102.00 0.5842
1102.10 0.5841
1102.20 0.584
1102.30 0.5839
1102.40 0.5838
1102.50 0.5837
1102.60 0.5836
1102.70 0.5835
1102.80 0.5834
1102.90 0.5833
1103.00 0.5832
1103.10 0.5831
1103.20 0.583
1103.30 0.5829
1103.40 0.5828
1103.50 0.5827
1103.60 0.5826
1103.70 0.5825
1103.80 0.5824
1103.90 0.5823
1104.00 0.5822
1104.10 0.5821
1104.20 0.582
1104.30 0.5819
1104.40 0.5818
1104.50 0.5816
1104.60 0.5815
1104.70 0.5814
1104.80 0.5813
1104.90 0.5812
1105.00 0.5811
1105.10 0.581
1105.20 0.5809
1105.30 0.5808
1105.40 0.5807
1105.50 0.5806
1105.60 0.5805
1105.70 0.5804
1105.80 0.5803
1105.90 0.5802
1106.00 0.5801
1106.10 0.58
1106.20 0.5799
1106.30 0.5798
1106.40 0.5797
1106.50 0.5796
1106.60 0.5795
1106.70 0.5794
1106.80 0.5793
1106.90 0.5792
1107.00 0.5791
1107.10 0.579
1107.20 0.5789
1107.30 0.5788
1107.40 0.5787
1107.50 0.5786
1107.60 0.5785
1107.70 0.5784
1107.80 0.5783
1107.90 0.5782
1108.00 0.5781
1108.10 0.578
1108.20 0.5779
1108.30 0.5778
1108.40 0.5777
1108.50 0.5776
1108.60 0.5775
1108.70 0.5774
1108.80 0.5773
1108.90 0.5772
1109.00 0.5771
1109.10 0.577
1109.20 0.5769
1109.30 0.5768
1109.40 0.5767
1109.50 0.5766
1109.60 0.5765
1109.70 0.5763
1109.80 0.5762
1109.90 0.5761
1110.00 0.576
1110.10 0.5759
1110.20 0.5758
1110.30 0.5757
1110.40 0.5756
1110.50 0.5755
1110.60 0.5754
1110.70 0.5753
1110.80 0.5752
1110.90 0.5751
1111.00 0.575
1111.10 0.5749
1111.20 0.5748
1111.30 0.5747
1111.40 0.5746
1111.50 0.5745
1111.60 0.5744
1111.70 0.5743
1111.80 0.5742
1111.90 0.5741
1112.00 0.574
1112.10 0.5739
1112.20 0.5738
1112.30 0.5737
1112.40 0.5736
1112.50 0.5735
1112.60 0.5734
1112.70 0.5733
1112.80 0.5732
1112.90 0.5731
1113.00 0.573
1113.10 0.5729
1113.20 0.5728
1113.30 0.5727
1113.40 0.5726
1113.50 0.5725
1113.60 0.5724
1113.70 0.5723
1113.80 0.5722
1113.90 0.5721
1114.00 0.572
1114.10 0.5719
1114.20 0.5718
1114.30 0.5717
1114.40 0.5716
1114.50 0.5715
1114.60 0.5714
1114.70 0.5713
1114.80 0.5712
1114.90 0.5711
1115.00 0.571
1115.10 0.5709
1115.20 0.5708
1115.30 0.5707
1115.40 0.5706
1115.50 0.5705
1115.60 0.5704
1115.70 0.5703
1115.80 0.5702
1115.90 0.5701
1116.00 0.57
1116.10 0.5699
1116.20 0.5698
1116.30 0.5697
1116.40 0.5696
1116.50 0.5695
1116.60 0.5694
1116.70 0.5693
1116.80 0.5692
1116.90 0.5691
1117.00 0.569
1117.10 0.5689
1117.20 0.5688
1117.30 0.5687
1117.40 0.5686
1117.50 0.5685
1117.60 0.5684
1117.70 0.5683
1117.80 0.5682
1117.90 0.5681
1118.00 0.568
1118.10 0.5679
1118.20 0.5678
1118.30 0.5677
1118.40 0.5676
1118.50 0.5675
1118.60 0.5674
1118.70 0.5673
1118.80 0.5672
1118.90 0.5671
1119.00 0.567
1119.10 0.5669
1119.20 0.5668
1119.30 0.5667
1119.40 0.5666
1119.50 0.5665
1119.60 0.5664
1119.70 0.5663
1119.80 0.5662
1119.90 0.5661
1120.00 0.566
1120.10 0.5659
1120.20 0.5658
1120.30 0.5657
1120.40 0.5656
1120.50 0.5655
1120.60 0.5654
1120.70 0.5653
1120.80 0.5652
1120.90 0.5651
1121.00 0.565
1121.10 0.5649
1121.20 0.5648
1121.30 0.5647
1121.40 0.5646
1121.50 0.5645
1121.60 0.5644
1121.70 0.5643
1121.80 0.5642
1121.90 0.5641
1122.00 0.564
1122.10 0.5639
1122.20 0.5638
1122.30 0.5637
1122.40 0.5636
1122.50 0.5635
1122.60 0.5634
1122.70 0.5633
1122.80 0.5632
1122.90 0.5631
1123.00 0.563
1123.10 0.5629
1123.20 0.5628
1123.30 0.5627
1123.40 0.5626
1123.50 0.5625
1123.60 0.5624
1123.70 0.5623
1123.80 0.5622
1123.90 0.5621
1124.00 0.562
1124.10 0.5619
1124.20 0.5618
1124.30 0.5617
1124.40 0.5616
1124.50 0.5615
1124.60 0.5614
1124.70 0.5613
1124.80 0.5612
1124.90 0.5611
1125.00 0.561
1125.10 0.5609
1125.20 0.5608
1125.30 0.5607
1125.40 0.5606
1125.50 0.5605
1125.60 0.5604
1125.70 0.5603
1125.80 0.5602
1125.90 0.5601
1126.00 0.56
1126.10 0.5599
1126.20 0.5598
1126.30 0.5597
1126.40 0.5596
1126.50 0.5595
1126.60 0.5594
1126.70 0.5593
1126.80 0.5592
1126.90 0.5591
1127.00 0.559
1127.10 0.5589
1127.20 0.5588
1127.30 0.5588
1127.40 0.5587
1127.50 0.5586
1127.60 0.5585
1127.70 0.5584
1127.80 0.5583
1127.90 0.5582
1128.00 0.5581
1128.10 0.558
1128.20 0.5579
1128.30 0.5578
1128.40 0.5577
1128.50 0.5576
1128.60 0.5575
1128.70 0.5574
1128.80 0.5573
1128.90 0.5572
1129.00 0.5571
1129.10 0.557
1129.20 0.5569
1129.30 0.5568
1129.40 0.5567
1129.50 0.5566
1129.60 0.5565
1129.70 0.5564
1129.80 0.5563
1129.90 0.5562
1130.00 0.5561
1130.10 0.556
1130.20 0.5559
1130.30 0.5558
1130.40 0.5557
1130.50 0.5556
1130.60 0.5555
1130.70 0.5554
1130.80 0.5553
1130.90 0.5552
1131.00 0.5551
1131.10 0.555
1131.20 0.5549
1131.30 0.5548
1131.40 0.5547
1131.50 0.5546
1131.60 0.5545
1131.70 0.5544
1131.80 0.5543
1131.90 0.5542
1132.00 0.5541
1132.10 0.554
1132.20 0.5539
1132.30 0.5539
1132.40 0.5538
1132.50 0.5537
1132.60 0.5536
1132.70 0.5535
1132.80 0.5534
1132.90 0.5533
1133.00 0.5532
1133.10 0.5531
1133.20 0.553
1133.30 0.5529
1133.40 0.5528
1133.50 0.5527
1133.60 0.5526
1133.70 0.5525
1133.80 0.5524
1133.90 0.5523
1134.00 0.5522
1134.10 0.5521
1134.20 0.552
1134.30 0.5519
1134.40 0.5518
1134.50 0.5517
1134.60 0.5516
1134.70 0.5515
1134.80 0.5514
1134.90 0.5513
1135.00 0.5512
1135.10 0.5511
1135.20 0.551
1135.30 0.5509
1135.40 0.5508
1135.50 0.5507
1135.60 0.5506
1135.70 0.5505
1135.80 0.5504
1135.90 0.5503
1136.00 0.5502
1136.10 0.5501
1136.20 0.55
1136.30 0.5499
1136.40 0.5499
1136.50 0.5498
1136.60 0.5497
1136.70 0.5496
1136.80 0.5495
1136.90 0.5494
1137.00 0.5493
1137.10 0.5492
1137.20 0.5491
1137.30 0.549
1137.40 0.5489
1137.50 0.5488
1137.60 0.5487
1137.70 0.5486
1137.80 0.5485
1137.90 0.5484
1138.00 0.5483
1138.10 0.5482
1138.20 0.5481
1138.30 0.548
1138.40 0.5479
1138.50 0.5478
1138.60 0.5477
1138.70 0.5476
1138.80 0.5475
1138.90 0.5474
1139.00 0.5473
1139.10 0.5472
1139.20 0.5471
1139.30 0.547
1139.40 0.5469
1139.50 0.5468
1139.60 0.5467
1139.70 0.5466
1139.80 0.5465
1139.90 0.5464
1140.00 0.5464
1140.10 0.5463
1140.20 0.5462
1140.30 0.5461
1140.40 0.546
1140.50 0.5459
1140.60 0.5458
1140.70 0.5457
1140.80 0.5456
1140.90 0.5455
1141.00 0.5454
1141.10 0.5453
1141.20 0.5452
1141.30 0.5451
1141.40 0.545
1141.50 0.5449
1141.60 0.5448
1141.70 0.5447
1141.80 0.5446
1141.90 0.5445
1142.00 0.5444
1142.10 0.5443
1142.20 0.5442
1142.30 0.5441
1142.40 0.544
1142.50 0.5439
1142.60 0.5438
1142.70 0.5437
1142.80 0.5436
1142.90 0.5436
1143.00 0.5435
1143.10 0.5434
1143.20 0.5433
1143.30 0.5432
1143.40 0.5431
1143.50 0.543
1143.60 0.5429
1143.70 0.5428
1143.80 0.5427
1143.90 0.5426
1144.00 0.5425
1144.10 0.5424
1144.20 0.5423
1144.30 0.5422
1144.40 0.5421
1144.50 0.542
1144.60 0.5419
1144.70 0.5418
1144.80 0.5417
1144.90 0.5416
1145.00 0.5415
1145.10 0.5414
1145.20 0.5413
1145.30 0.5412
1145.40 0.5411
1145.50 0.5411
1145.60 0.541
1145.70 0.5409
1145.80 0.5408
1145.90 0.5407
1146.00 0.5406
1146.10 0.5405
1146.20 0.5404
1146.30 0.5403
1146.40 0.5402
1146.50 0.5401
1146.60 0.54
1146.70 0.5399
1146.80 0.5398
1146.90 0.5397
1147.00 0.5396
1147.10 0.5395
1147.20 0.5394
1147.30 0.5393
1147.40 0.5392
1147.50 0.5391
1147.60 0.539
1147.70 0.5389
1147.80 0.5388
1147.90 0.5388
1148.00 0.5387
1148.10 0.5386
1148.20 0.5385
1148.30 0.5384
1148.40 0.5383
1148.50 0.5382
1148.60 0.5381
1148.70 0.538
1148.80 0.5379
1148.90 0.5378
1149.00 0.5377
1149.10 0.5376
1149.20 0.5375
1149.30 0.5374
1149.40 0.5373
1149.50 0.5372
1149.60 0.5371
1149.70 0.537
1149.80 0.5369
1149.90 0.5368
1150.00 0.5367
1150.10 0.5366
1150.20 0.5365
1150.30 0.5365
1150.40 0.5364
1150.50 0.5363
1150.60 0.5362
1150.70 0.5361
1150.80 0.536
1150.90 0.5359
1151.00 0.5358
1151.10 0.5357
1151.20 0.5356
1151.30 0.5355
1151.40 0.5354
1151.50 0.5353
1151.60 0.5352
1151.70 0.5351
1151.80 0.535
1151.90 0.5349
1152.00 0.5348
1152.10 0.5347
1152.20 0.5346
1152.30 0.5345
1152.40 0.5345
1152.50 0.5344
1152.60 0.5343
1152.70 0.5342
1152.80 0.5341
1152.90 0.534
1153.00 0.5339
1153.10 0.5338
1153.20 0.5337
1153.30 0.5336
1153.40 0.5335
1153.50 0.5334
1153.60 0.5333
1153.70 0.5332
1153.80 0.5331
1153.90 0.533
1154.00 0.5329
1154.10 0.5328
1154.20 0.5327
1154.30 0.5326
1154.40 0.5325
1154.50 0.5325
1154.60 0.5324
1154.70 0.5323
1154.80 0.5322
1154.90 0.5321
1155.00 0.532
1155.10 0.5319
1155.20 0.5318
1155.30 0.5317
1155.40 0.5316
1155.50 0.5315
1155.60 0.5314
1155.70 0.5313
1155.80 0.5312
1155.90 0.5311
1156.00 0.531
1156.10 0.5309
1156.20 0.5308
1156.30 0.5307
1156.40 0.5307
1156.50 0.5306
1156.60 0.5305
1156.70 0.5304
1156.80 0.5303
1156.90 0.5302
1157.00 0.5301
1157.10 0.53
1157.20 0.5299
1157.30 0.5298
1157.40 0.5297
1157.50 0.5296
1157.60 0.5295
1157.70 0.5294
1157.80 0.5293
1157.90 0.5292
1158.00 0.5291
1158.10 0.529
1158.20 0.5289
1158.30 0.5289
1158.40 0.5288
1158.50 0.5287
1158.60 0.5286
1158.70 0.5285
1158.80 0.5284
1158.90 0.5283
1159.00 0.5282
1159.10 0.5281
1159.20 0.528
1159.30 0.5279
1159.40 0.5278
1159.50 0.5277
1159.60 0.5276
1159.70 0.5275
1159.80 0.5274
1159.90 0.5273
1160.00 0.5272
1160.10 0.5272
1160.20 0.5271
1160.30 0.527
1160.40 0.5269
1160.50 0.5268
1160.60 0.5267
1160.70 0.5266
1160.80 0.5265
1160.90 0.5264
1161.00 0.5263
1161.10 0.5262
1161.20 0.5261
1161.30 0.526
1161.40 0.5259
1161.50 0.5258
1161.60 0.5257
1161.70 0.5257
1161.80 0.5256
1161.90 0.5255
1162.00 0.5254
1162.10 0.5253
1162.20 0.5252
1162.30 0.5251
1162.40 0.525
1162.50 0.5249
1162.60 0.5248
1162.70 0.5247
1162.80 0.5246
1162.90 0.5245
1163.00 0.5244
1163.10 0.5243
1163.20 0.5242
1163.30 0.5241
1163.40 0.524
1163.50 0.524
1163.60 0.5239
1163.70 0.5238
1163.80 0.5237
1163.90 0.5236
1164.00 0.5235
1164.10 0.5234
1164.20 0.5233
1164.30 0.5232
1164.40 0.5231
1164.50 0.523
1164.60 0.5229
1164.70 0.5228
1164.80 0.5227
1164.90 0.5226
1165.00 0.5225
1165.10 0.5225
1165.20 0.5224
1165.30 0.5223
1165.40 0.5222
1165.50 0.5221
1165.60 0.522
1165.70 0.5219
1165.80 0.5218
1165.90 0.5217
1166.00 0.5216
1166.10 0.5215
1166.20 0.5214
1166.30 0.5213
1166.40 0.5212
1166.50 0.5211
1166.60 0.521
1166.70 0.521
1166.80 0.5209
1166.90 0.5208
1167.00 0.5207
1167.10 0.5206
1167.20 0.5205
1167.30 0.5204
1167.40 0.5203
1167.50 0.5202
1167.60 0.5201
1167.70 0.52
1167.80 0.5199
1167.90 0.5198
1168.00 0.5197
1168.10 0.5196
1168.20 0.5195
1168.30 0.5195
1168.40 0.5194
1168.50 0.5193
1168.60 0.5192
1168.70 0.5191
1168.80 0.519
1168.90 0.5189
1169.00 0.5188
1169.10 0.5187
1169.20 0.5186
1169.30 0.5185
1169.40 0.5184
1169.50 0.5183
1169.60 0.5182
1169.70 0.5181
1169.80 0.5181
1169.90 0.518
1170.00 0.5179
1170.10 0.5178
1170.20 0.5177
1170.30 0.5176
1170.40 0.5175
1170.50 0.5174
1170.60 0.5173
1170.70 0.5172
1170.80 0.5171
1170.90 0.517
1171.00 0.5169
1171.10 0.5168
1171.20 0.5168
1171.30 0.5167
1171.40 0.5166
1171.50 0.5165
1171.60 0.5164
1171.70 0.5163
1171.80 0.5162
1171.90 0.5161
1172.00 0.516
1172.10 0.5159
1172.20 0.5158
1172.30 0.5157
1172.40 0.5156
1172.50 0.5155
1172.60 0.5154
1172.70 0.5154
1172.80 0.5153
1172.90 0.5152
1173.00 0.5151
1173.10 0.515
1173.20 0.5149
1173.30 0.5148
1173.40 0.5147
1173.50 0.5146
1173.60 0.5145
1173.70 0.5144
1173.80 0.5143
1173.90 0.5142
1174.00 0.5141
1174.10 0.5141
1174.20 0.514
1174.30 0.5139
1174.40 0.5138
1174.50 0.5137
1174.60 0.5136
1174.70 0.5135
1174.80 0.5134
1174.90 0.5133
1175.00 0.5132
1175.10 0.5131
1175.20 0.513
1175.30 0.5129
1175.40 0.5128
1175.50 0.5128
1175.60 0.5127
1175.70 0.5126
1175.80 0.5125
1175.90 0.5124
1176.00 0.5123
1176.10 0.5122
1176.20 0.5121
1176.30 0.512
1176.40 0.5119
1176.50 0.5118
1176.60 0.5117
1176.70 0.5116
1176.80 0.5116
1176.90 0.5115
1177.00 0.5114
1177.10 0.5113
1177.20 0.5112
1177.30 0.5111
1177.40 0.511
1177.50 0.5109
1177.60 0.5108
1177.70 0.5107
1177.80 0.5106
1177.90 0.5105
1178.00 0.5104
1178.10 0.5104
1178.20 0.5103
1178.30 0.5102
1178.40 0.5101
1178.50 0.51
1178.60 0.5099
1178.70 0.5098
1178.80 0.5097
1178.90 0.5096
1179.00 0.5095
1179.10 0.5094
1179.20 0.5093
1179.30 0.5092
1179.40 0.5091
1179.50 0.5091
1179.60 0.509
1179.70 0.5089
1179.80 0.5088
1179.90 0.5087
1180.00 0.5086
1180.10 0.5085
1180.20 0.5084
1180.30 0.5083
1180.40 0.5082
1180.50 0.5081
1180.60 0.508
1180.70 0.5079
1180.80 0.5079
1180.90 0.5078
1181.00 0.5077
1181.10 0.5076
1181.20 0.5075
1181.30 0.5074
1181.40 0.5073
1181.50 0.5072
1181.60 0.5071
1181.70 0.507
1181.80 0.5069
1181.90 0.5068
1182.00 0.5068
1182.10 0.5067
1182.20 0.5066
1182.30 0.5065
1182.40 0.5064
1182.50 0.5063
1182.60 0.5062
1182.70 0.5061
1182.80 0.506
1182.90 0.5059
1183.00 0.5058
1183.10 0.5057
1183.20 0.5056
1183.30 0.5056
1183.40 0.5055
1183.50 0.5054
1183.60 0.5053
1183.70 0.5052
1183.80 0.5051
1183.90 0.505
1184.00 0.5049
1184.10 0.5048
1184.20 0.5047
1184.30 0.5046
1184.40 0.5045
1184.50 0.5045
1184.60 0.5044
1184.70 0.5043
1184.80 0.5042
1184.90 0.5041
1185.00 0.504
1185.10 0.5039
1185.20 0.5038
1185.30 0.5037
1185.40 0.5036
1185.50 0.5035
1185.60 0.5034
1185.70 0.5034
1185.80 0.5033
1185.90 0.5032
1186.00 0.5031
1186.10 0.503
1186.20 0.5029
1186.30 0.5028
1186.40 0.5027
1186.50 0.5026
1186.60 0.5025
1186.70 0.5024
1186.80 0.5023
1186.90 0.5023
1187.00 0.5022
1187.10 0.5021
1187.20 0.502
1187.30 0.5019
1187.40 0.5018
1187.50 0.5017
1187.60 0.5016
1187.70 0.5015
1187.80 0.5014
1187.90 0.5013
1188.00 0.5013
1188.10 0.5012
1188.20 0.5011
1188.30 0.501
1188.40 0.5009
1188.50 0.5008
1188.60 0.5007
1188.70 0.5006
1188.80 0.5005
1188.90 0.5004
1189.00 0.5003
1189.10 0.5003
1189.20 0.5002
1189.30 0.5001
1189.40 0.5
1189.50 0.4999
1189.60 0.4998
1189.70 0.4997
1189.80 0.4996
1189.90 0.4995
1190.00 0.4994
1190.10 0.4993
1190.20 0.4993
1190.30 0.4992
1190.40 0.4991
1190.50 0.499
1190.60 0.4989
1190.70 0.4988
1190.80 0.4987
1190.90 0.4986
1191.00 0.4985
1191.10 0.4984
1191.20 0.4983
1191.30 0.4983
1191.40 0.4982
1191.50 0.4981
1191.60 0.498
1191.70 0.4979
1191.80 0.4978
1191.90 0.4977
1192.00 0.4976
1192.10 0.4975
1192.20 0.4974
1192.30 0.4973
1192.40 0.4973
1192.50 0.4972
1192.60 0.4971
1192.70 0.497
1192.80 0.4969
1192.90 0.4968
1193.00 0.4967
1193.10 0.4966
1193.20 0.4965
1193.30 0.4964
1193.40 0.4963
1193.50 0.4963
1193.60 0.4962
1193.70 0.4961
1193.80 0.496
1193.90 0.4959
1194.00 0.4958
1194.10 0.4957
1194.20 0.4956
1194.30 0.4955
1194.40 0.4954
1194.50 0.4953
1194.60 0.4953
1194.70 0.4952
1194.80 0.4951
1194.90 0.495
1195.00 0.4949
1195.10 0.4948
1195.20 0.4947
1195.30 0.4946
1195.40 0.4945
1195.50 0.4944
1195.60 0.4944
1195.70 0.4943
1195.80 0.4942
1195.90 0.4941
1196.00 0.494
1196.10 0.4939
1196.20 0.4938
1196.30 0.4937
1196.40 0.4936
1196.50 0.4935
1196.60 0.4935
1196.70 0.4934
1196.80 0.4933
1196.90 0.4932
1197.00 0.4931
1197.10 0.493
1197.20 0.4929
1197.30 0.4928
1197.40 0.4927
1197.50 0.4926
1197.60 0.4925
1197.70 0.4925
1197.80 0.4924
1197.90 0.4923
1198.00 0.4922
1198.10 0.4921
1198.20 0.492
1198.30 0.4919
1198.40 0.4918
1198.50 0.4917
1198.60 0.4916
1198.70 0.4916
1198.80 0.4915
1198.90 0.4914
1199.00 0.4913
1199.10 0.4912
1199.20 0.4911
1199.30 0.491
1199.40 0.4909
1199.50 0.4908
1199.60 0.4907
1199.70 0.4907
1199.80 0.4906
1199.90 0.4905
1200.00 0
