# Version 2.1 - nm, norm@500 to 1, cut digits, bergeron_110000_90.dat_110000
# Wavelength(nm)  Flambda(ergs/cm^s/s/nm)
300.00 6.922
300.10 6.913
300.20 6.904
300.30 6.895
300.40 6.887
300.50 6.878
300.60 6.869
300.70 6.861
300.80 6.852
300.90 6.844
301.00 6.835
301.10 6.826
301.20 6.818
301.30 6.809
301.40 6.801
301.50 6.792
301.60 6.783
301.70 6.775
301.80 6.766
301.90 6.758
302.00 6.749
302.10 6.741
302.20 6.733
302.30 6.724
302.40 6.716
302.50 6.707
302.60 6.699
302.70 6.691
302.80 6.682
302.90 6.674
303.00 6.665
303.10 6.657
303.20 6.649
303.30 6.641
303.40 6.632
303.50 6.624
303.60 6.616
303.70 6.607
303.80 6.599
303.90 6.591
304.00 6.583
304.10 6.575
304.20 6.566
304.30 6.558
304.40 6.55
304.50 6.542
304.60 6.534
304.70 6.526
304.80 6.517
304.90 6.509
305.00 6.501
305.10 6.493
305.20 6.485
305.30 6.477
305.40 6.469
305.50 6.461
305.60 6.453
305.70 6.445
305.80 6.437
305.90 6.429
306.00 6.421
306.10 6.413
306.20 6.405
306.30 6.397
306.40 6.389
306.50 6.381
306.60 6.374
306.70 6.366
306.80 6.358
306.90 6.35
307.00 6.342
307.10 6.334
307.20 6.326
307.30 6.319
307.40 6.311
307.50 6.303
307.60 6.295
307.70 6.288
307.80 6.28
307.90 6.272
308.00 6.264
308.10 6.257
308.20 6.249
308.30 6.241
308.40 6.234
308.50 6.226
308.60 6.218
308.70 6.211
308.80 6.203
308.90 6.195
309.00 6.188
309.10 6.18
309.20 6.173
309.30 6.165
309.40 6.158
309.50 6.15
309.60 6.142
309.70 6.135
309.80 6.127
309.90 6.12
310.00 6.112
310.10 6.105
310.20 6.098
310.30 6.09
310.40 6.083
310.50 6.075
310.60 6.068
310.70 6.06
310.80 6.053
310.90 6.046
311.00 6.038
311.10 6.031
311.20 6.024
311.30 6.016
311.40 6.009
311.50 6.002
311.60 5.994
311.70 5.987
311.80 5.98
311.90 5.972
312.00 5.965
312.10 5.958
312.20 5.951
312.30 5.943
312.40 5.936
312.50 5.929
312.60 5.922
312.70 5.915
312.80 5.907
312.90 5.9
313.00 5.893
313.10 5.886
313.20 5.879
313.30 5.872
313.40 5.865
313.50 5.858
313.60 5.85
313.70 5.843
313.80 5.836
313.90 5.829
314.00 5.822
314.10 5.815
314.20 5.808
314.30 5.801
314.40 5.794
314.50 5.787
314.60 5.78
314.70 5.773
314.80 5.766
314.90 5.759
315.00 5.752
315.10 5.745
315.20 5.739
315.30 5.732
315.40 5.725
315.50 5.718
315.60 5.711
315.70 5.704
315.80 5.697
315.90 5.69
316.00 5.684
316.10 5.677
316.20 5.67
316.30 5.663
316.40 5.656
316.50 5.65
316.60 5.643
316.70 5.636
316.80 5.629
316.90 5.623
317.00 5.616
317.10 5.609
317.20 5.602
317.30 5.596
317.40 5.589
317.50 5.582
317.60 5.576
317.70 5.569
317.80 5.562
317.90 5.556
318.00 5.549
318.10 5.542
318.20 5.536
318.30 5.529
318.40 5.523
318.50 5.516
318.60 5.509
318.70 5.503
318.80 5.496
318.90 5.49
319.00 5.483
319.10 5.477
319.20 5.47
319.30 5.464
319.40 5.457
319.50 5.451
319.60 5.444
319.70 5.438
319.80 5.431
319.90 5.425
320.00 5.418
320.10 5.412
320.20 5.406
320.30 5.399
320.40 5.393
320.50 5.386
320.60 5.38
320.70 5.374
320.80 5.367
320.90 5.361
321.00 5.355
321.10 5.348
321.20 5.342
321.30 5.336
321.40 5.329
321.50 5.323
321.60 5.317
321.70 5.311
321.80 5.304
321.90 5.298
322.00 5.292
322.10 5.285
322.20 5.279
322.30 5.273
322.40 5.267
322.50 5.261
322.60 5.254
322.70 5.248
322.80 5.242
322.90 5.236
323.00 5.23
323.10 5.224
323.20 5.217
323.30 5.211
323.40 5.205
323.50 5.199
323.60 5.193
323.70 5.187
323.80 5.181
323.90 5.175
324.00 5.169
324.10 5.163
324.20 5.157
324.30 5.151
324.40 5.145
324.50 5.138
324.60 5.132
324.70 5.126
324.80 5.12
324.90 5.115
325.00 5.109
325.10 5.103
325.20 5.097
325.30 5.091
325.40 5.085
325.50 5.079
325.60 5.073
325.70 5.067
325.80 5.061
325.90 5.055
326.00 5.049
326.10 5.043
326.20 5.037
326.30 5.032
326.40 5.026
326.50 5.02
326.60 5.014
326.70 5.008
326.80 5.002
326.90 4.997
327.00 4.991
327.10 4.985
327.20 4.979
327.30 4.973
327.40 4.968
327.50 4.962
327.60 4.956
327.70 4.95
327.80 4.945
327.90 4.939
328.00 4.933
328.10 4.927
328.20 4.922
328.30 4.916
328.40 4.91
328.50 4.905
328.60 4.899
328.70 4.893
328.80 4.888
328.90 4.882
329.00 4.876
329.10 4.871
329.20 4.865
329.30 4.86
329.40 4.854
329.50 4.848
329.60 4.843
329.70 4.837
329.80 4.832
329.90 4.826
330.00 4.82
330.10 4.815
330.20 4.809
330.30 4.804
330.40 4.798
330.50 4.793
330.60 4.787
330.70 4.782
330.80 4.776
330.90 4.771
331.00 4.765
331.10 4.76
331.20 4.755
331.30 4.749
331.40 4.744
331.50 4.738
331.60 4.733
331.70 4.727
331.80 4.722
331.90 4.716
332.00 4.711
332.10 4.706
332.20 4.7
332.30 4.695
332.40 4.69
332.50 4.684
332.60 4.679
332.70 4.673
332.80 4.668
332.90 4.663
333.00 4.658
333.10 4.652
333.20 4.647
333.30 4.642
333.40 4.636
333.50 4.631
333.60 4.626
333.70 4.62
333.80 4.615
333.90 4.61
334.00 4.605
334.10 4.599
334.20 4.594
334.30 4.589
334.40 4.584
334.50 4.579
334.60 4.573
334.70 4.568
334.80 4.563
334.90 4.558
335.00 4.553
335.10 4.547
335.20 4.542
335.30 4.537
335.40 4.532
335.50 4.527
335.60 4.522
335.70 4.517
335.80 4.511
335.90 4.506
336.00 4.501
336.10 4.496
336.20 4.491
336.30 4.486
336.40 4.481
336.50 4.476
336.60 4.471
336.70 4.466
336.80 4.461
336.90 4.456
337.00 4.451
337.10 4.446
337.20 4.441
337.30 4.436
337.40 4.431
337.50 4.426
337.60 4.421
337.70 4.416
337.80 4.411
337.90 4.406
338.00 4.401
338.10 4.396
338.20 4.391
338.30 4.386
338.40 4.381
338.50 4.376
338.60 4.371
338.70 4.366
338.80 4.361
338.90 4.356
339.00 4.352
339.10 4.347
339.20 4.342
339.30 4.337
339.40 4.332
339.50 4.327
339.60 4.322
339.70 4.317
339.80 4.313
339.90 4.308
340.00 4.303
340.10 4.298
340.20 4.293
340.30 4.289
340.40 4.284
340.50 4.279
340.60 4.274
340.70 4.269
340.80 4.265
340.90 4.26
341.00 4.255
341.10 4.25
341.20 4.246
341.30 4.241
341.40 4.236
341.50 4.232
341.60 4.227
341.70 4.222
341.80 4.217
341.90 4.213
342.00 4.208
342.10 4.203
342.20 4.199
342.30 4.194
342.40 4.189
342.50 4.185
342.60 4.18
342.70 4.175
342.80 4.171
342.90 4.166
343.00 4.162
343.10 4.157
343.20 4.152
343.30 4.148
343.40 4.143
343.50 4.138
343.60 4.134
343.70 4.129
343.80 4.125
343.90 4.12
344.00 4.116
344.10 4.111
344.20 4.106
344.30 4.102
344.40 4.097
344.50 4.093
344.60 4.088
344.70 4.084
344.80 4.079
344.90 4.075
345.00 4.07
345.10 4.066
345.20 4.061
345.30 4.057
345.40 4.052
345.50 4.048
345.60 4.044
345.70 4.039
345.80 4.035
345.90 4.03
346.00 4.026
346.10 4.021
346.20 4.017
346.30 4.012
346.40 4.008
346.50 4.004
346.60 3.999
346.70 3.995
346.80 3.991
346.90 3.986
347.00 3.982
347.10 3.977
347.20 3.973
347.30 3.969
347.40 3.964
347.50 3.96
347.60 3.956
347.70 3.951
347.80 3.947
347.90 3.943
348.00 3.938
348.10 3.934
348.20 3.93
348.30 3.925
348.40 3.921
348.50 3.917
348.60 3.913
348.70 3.908
348.80 3.904
348.90 3.9
349.00 3.896
349.10 3.891
349.20 3.887
349.30 3.883
349.40 3.879
349.50 3.874
349.60 3.87
349.70 3.866
349.80 3.862
349.90 3.857
350.00 3.853
350.10 3.849
350.20 3.845
350.30 3.841
350.40 3.837
350.50 3.832
350.60 3.828
350.70 3.824
350.80 3.82
350.90 3.816
351.00 3.812
351.10 3.808
351.20 3.803
351.30 3.799
351.40 3.795
351.50 3.791
351.60 3.787
351.70 3.783
351.80 3.779
351.90 3.775
352.00 3.77
352.10 3.766
352.20 3.762
352.30 3.758
352.40 3.754
352.50 3.75
352.60 3.746
352.70 3.742
352.80 3.738
352.90 3.734
353.00 3.73
353.10 3.726
353.20 3.722
353.30 3.718
353.40 3.714
353.50 3.71
353.60 3.706
353.70 3.702
353.80 3.698
353.90 3.694
354.00 3.69
354.10 3.686
354.20 3.682
354.30 3.678
354.40 3.674
354.50 3.67
354.60 3.666
354.70 3.662
354.80 3.658
354.90 3.654
355.00 3.651
355.10 3.647
355.20 3.643
355.30 3.639
355.40 3.635
355.50 3.631
355.60 3.627
355.70 3.623
355.80 3.619
355.90 3.615
356.00 3.612
356.10 3.608
356.20 3.604
356.30 3.6
356.40 3.596
356.50 3.592
356.60 3.588
356.70 3.585
356.80 3.581
356.90 3.577
357.00 3.573
357.10 3.569
357.20 3.566
357.30 3.562
357.40 3.558
357.50 3.554
357.60 3.55
357.70 3.547
357.80 3.543
357.90 3.539
358.00 3.535
358.10 3.531
358.20 3.528
358.30 3.524
358.40 3.52
358.50 3.516
358.60 3.513
358.70 3.509
358.80 3.505
358.90 3.502
359.00 3.498
359.10 3.494
359.20 3.49
359.30 3.487
359.40 3.483
359.50 3.479
359.60 3.476
359.70 3.472
359.80 3.468
359.90 3.465
360.00 3.461
360.10 3.457
360.20 3.454
360.30 3.45
360.40 3.446
360.50 3.443
360.60 3.439
360.70 3.435
360.80 3.432
360.90 3.428
361.00 3.425
361.10 3.421
361.20 3.417
361.30 3.414
361.40 3.41
361.50 3.406
361.60 3.403
361.70 3.399
361.80 3.396
361.90 3.392
362.00 3.389
362.10 3.385
362.20 3.381
362.30 3.378
362.40 3.374
362.50 3.371
362.60 3.367
362.70 3.364
362.80 3.36
362.90 3.357
363.00 3.353
363.10 3.35
363.20 3.346
363.30 3.343
363.40 3.339
363.50 3.336
363.60 3.332
363.70 3.329
363.80 3.325
363.90 3.322
364.00 3.318
364.10 3.315
364.20 3.311
364.30 3.308
364.40 3.304
364.50 3.301
364.60 3.297
364.70 3.294
364.80 3.29
364.90 3.287
365.00 3.284
365.10 3.28
365.20 3.277
365.30 3.273
365.40 3.27
365.50 3.266
365.60 3.263
365.70 3.26
365.80 3.256
365.90 3.253
366.00 3.249
366.10 3.246
366.20 3.243
366.30 3.239
366.40 3.236
366.50 3.232
366.60 3.229
366.70 3.226
366.80 3.222
366.90 3.219
367.00 3.216
367.10 3.212
367.20 3.209
367.30 3.206
367.40 3.202
367.50 3.199
367.60 3.196
367.70 3.192
367.80 3.189
367.90 3.186
368.00 3.182
368.10 3.179
368.20 3.176
368.30 3.172
368.40 3.169
368.50 3.166
368.60 3.162
368.70 3.159
368.80 3.156
368.90 3.152
369.00 3.149
369.10 3.146
369.20 3.142
369.30 3.139
369.40 3.136
369.50 3.132
369.60 3.129
369.70 3.126
369.80 3.122
369.90 3.119
370.00 3.116
370.10 3.113
370.20 3.109
370.30 3.106
370.40 3.103
370.50 3.1
370.60 3.096
370.70 3.093
370.80 3.09
370.90 3.087
371.00 3.083
371.10 3.08
371.20 3.077
371.30 3.074
371.40 3.07
371.50 3.067
371.60 3.064
371.70 3.061
371.80 3.058
371.90 3.054
372.00 3.051
372.10 3.048
372.20 3.045
372.30 3.042
372.40 3.039
372.50 3.036
372.60 3.033
372.70 3.03
372.80 3.027
372.90 3.023
373.00 3.02
373.10 3.017
373.20 3.014
373.30 3.011
373.40 3.008
373.50 3.005
373.60 3.002
373.70 2.999
373.80 2.996
373.90 2.993
374.00 2.99
374.10 2.987
374.20 2.984
374.30 2.981
374.40 2.977
374.50 2.974
374.60 2.971
374.70 2.968
374.80 2.965
374.90 2.962
375.00 2.959
375.10 2.956
375.20 2.953
375.30 2.95
375.40 2.947
375.50 2.944
375.60 2.941
375.70 2.937
375.80 2.934
375.90 2.931
376.00 2.928
376.10 2.925
376.20 2.922
376.30 2.919
376.40 2.916
376.50 2.913
376.60 2.91
376.70 2.907
376.80 2.904
376.90 2.901
377.00 2.898
377.10 2.895
377.20 2.892
377.30 2.889
377.40 2.886
377.50 2.884
377.60 2.881
377.70 2.878
377.80 2.875
377.90 2.872
378.00 2.869
378.10 2.866
378.20 2.863
378.30 2.86
378.40 2.857
378.50 2.854
378.60 2.851
378.70 2.848
378.80 2.846
378.90 2.843
379.00 2.84
379.10 2.837
379.20 2.834
379.30 2.831
379.40 2.828
379.50 2.825
379.60 2.823
379.70 2.82
379.80 2.817
379.90 2.814
380.00 2.811
380.10 2.808
380.20 2.805
380.30 2.803
380.40 2.8
380.50 2.797
380.60 2.794
380.70 2.791
380.80 2.789
380.90 2.786
381.00 2.783
381.10 2.78
381.20 2.777
381.30 2.775
381.40 2.772
381.50 2.769
381.60 2.766
381.70 2.763
381.80 2.761
381.90 2.758
382.00 2.755
382.10 2.752
382.20 2.75
382.30 2.747
382.40 2.744
382.50 2.741
382.60 2.739
382.70 2.736
382.80 2.733
382.90 2.731
383.00 2.728
383.10 2.725
383.20 2.722
383.30 2.72
383.40 2.717
383.50 2.714
383.60 2.712
383.70 2.709
383.80 2.706
383.90 2.704
384.00 2.701
384.10 2.698
384.20 2.696
384.30 2.693
384.40 2.69
384.50 2.688
384.60 2.685
384.70 2.682
384.80 2.68
384.90 2.677
385.00 2.675
385.10 2.672
385.20 2.669
385.30 2.667
385.40 2.664
385.50 2.661
385.60 2.659
385.70 2.656
385.80 2.654
385.90 2.651
386.00 2.648
386.10 2.646
386.20 2.643
386.30 2.641
386.40 2.638
386.50 2.636
386.60 2.633
386.70 2.63
386.80 2.628
386.90 2.625
387.00 2.623
387.10 2.62
387.20 2.618
387.30 2.615
387.40 2.612
387.50 2.61
387.60 2.607
387.70 2.605
387.80 2.602
387.90 2.6
388.00 2.597
388.10 2.595
388.20 2.592
388.30 2.59
388.40 2.587
388.50 2.585
388.60 2.582
388.70 2.58
388.80 2.577
388.90 2.575
389.00 2.573
389.10 2.57
389.20 2.568
389.30 2.565
389.40 2.563
389.50 2.56
389.60 2.558
389.70 2.555
389.80 2.553
389.90 2.551
390.00 2.548
390.10 2.546
390.20 2.543
390.30 2.541
390.40 2.539
390.50 2.536
390.60 2.534
390.70 2.532
390.80 2.529
390.90 2.527
391.00 2.524
391.10 2.522
391.20 2.52
391.30 2.517
391.40 2.515
391.50 2.512
391.60 2.51
391.70 2.508
391.80 2.505
391.90 2.503
392.00 2.501
392.10 2.498
392.20 2.496
392.30 2.493
392.40 2.491
392.50 2.489
392.60 2.486
392.70 2.484
392.80 2.481
392.90 2.479
393.00 2.477
393.10 2.474
393.20 2.472
393.30 2.469
393.40 2.467
393.50 2.464
393.60 2.462
393.70 2.46
393.80 2.457
393.90 2.455
394.00 2.452
394.10 2.45
394.20 2.447
394.30 2.445
394.40 2.443
394.50 2.44
394.60 2.438
394.70 2.435
394.80 2.433
394.90 2.43
395.00 2.428
395.10 2.425
395.20 2.423
395.30 2.421
395.40 2.418
395.50 2.416
395.60 2.413
395.70 2.411
395.80 2.408
395.90 2.406
396.00 2.404
396.10 2.401
396.20 2.399
396.30 2.396
396.40 2.394
396.50 2.392
396.60 2.389
396.70 2.387
396.80 2.385
396.90 2.383
397.00 2.38
397.10 2.378
397.20 2.376
397.30 2.374
397.40 2.372
397.50 2.37
397.60 2.368
397.70 2.366
397.80 2.364
397.90 2.362
398.00 2.36
398.10 2.358
398.20 2.356
398.30 2.354
398.40 2.352
398.50 2.351
398.60 2.349
398.70 2.347
398.80 2.345
398.90 2.343
399.00 2.341
399.10 2.339
399.20 2.337
399.30 2.335
399.40 2.333
399.50 2.331
399.60 2.329
399.70 2.327
399.80 2.325
399.90 2.323
400.00 2.321
400.10 2.32
400.20 2.318
400.30 2.316
400.40 2.314
400.50 2.312
400.60 2.31
400.70 2.308
400.80 2.306
400.90 2.303
401.00 2.301
401.10 2.299
401.20 2.297
401.30 2.295
401.40 2.293
401.50 2.291
401.60 2.289
401.70 2.287
401.80 2.285
401.90 2.283
402.00 2.281
402.10 2.279
402.20 2.276
402.30 2.274
402.40 2.272
402.50 2.27
402.60 2.268
402.70 2.266
402.80 2.263
402.90 2.261
403.00 2.259
403.10 2.257
403.20 2.255
403.30 2.252
403.40 2.25
403.50 2.248
403.60 2.246
403.70 2.243
403.80 2.241
403.90 2.239
404.00 2.236
404.10 2.234
404.20 2.232
404.30 2.229
404.40 2.227
404.50 2.225
404.60 2.222
404.70 2.22
404.80 2.218
404.90 2.215
405.00 2.213
405.10 2.21
405.20 2.208
405.30 2.205
405.40 2.203
405.50 2.2
405.60 2.198
405.70 2.195
405.80 2.193
405.90 2.19
406.00 2.188
406.10 2.185
406.20 2.183
406.30 2.18
406.40 2.178
406.50 2.175
406.60 2.172
406.70 2.17
406.80 2.167
406.90 2.164
407.00 2.162
407.10 2.159
407.20 2.156
407.30 2.154
407.40 2.151
407.50 2.148
407.60 2.146
407.70 2.143
407.80 2.14
407.90 2.137
408.00 2.135
408.10 2.132
408.20 2.129
408.30 2.126
408.40 2.124
408.50 2.121
408.60 2.118
408.70 2.116
408.80 2.113
408.90 2.11
409.00 2.108
409.10 2.105
409.20 2.103
409.30 2.1
409.40 2.098
409.50 2.096
409.60 2.094
409.70 2.092
409.80 2.09
409.90 2.088
410.00 2.087
410.10 2.085
410.20 2.084
410.30 2.082
410.40 2.079
410.50 2.077
410.60 2.075
410.70 2.073
410.80 2.072
410.90 2.07
411.00 2.069
411.10 2.067
411.20 2.066
411.30 2.065
411.40 2.064
411.50 2.063
411.60 2.062
411.70 2.06
411.80 2.059
411.90 2.058
412.00 2.057
412.10 2.056
412.20 2.055
412.30 2.054
412.40 2.053
412.50 2.052
412.60 2.051
412.70 2.05
412.80 2.049
412.90 2.048
413.00 2.047
413.10 2.046
413.20 2.045
413.30 2.044
413.40 2.043
413.50 2.042
413.60 2.041
413.70 2.039
413.80 2.038
413.90 2.037
414.00 2.036
414.10 2.035
414.20 2.034
414.30 2.032
414.40 2.031
414.50 2.03
414.60 2.029
414.70 2.027
414.80 2.026
414.90 2.025
415.00 2.024
415.10 2.022
415.20 2.021
415.30 2.02
415.40 2.018
415.50 2.017
415.60 2.016
415.70 2.014
415.80 2.013
415.90 2.011
416.00 2.01
416.10 2.009
416.20 2.007
416.30 2.006
416.40 2.004
416.50 2.003
416.60 2.001
416.70 2
416.80 1.998
416.90 1.997
417.00 1.995
417.10 1.994
417.20 1.992
417.30 1.991
417.40 1.989
417.50 1.988
417.60 1.986
417.70 1.985
417.80 1.983
417.90 1.982
418.00 1.98
418.10 1.979
418.20 1.977
418.30 1.975
418.40 1.974
418.50 1.972
418.60 1.971
418.70 1.969
418.80 1.967
418.90 1.966
419.00 1.964
419.10 1.963
419.20 1.961
419.30 1.959
419.40 1.958
419.50 1.956
419.60 1.954
419.70 1.953
419.80 1.951
419.90 1.949
420.00 1.948
420.10 1.946
420.20 1.944
420.30 1.943
420.40 1.941
420.50 1.939
420.60 1.937
420.70 1.936
420.80 1.934
420.90 1.932
421.00 1.931
421.10 1.929
421.20 1.927
421.30 1.925
421.40 1.924
421.50 1.922
421.60 1.92
421.70 1.918
421.80 1.917
421.90 1.915
422.00 1.913
422.10 1.911
422.20 1.909
422.30 1.908
422.40 1.906
422.50 1.904
422.60 1.902
422.70 1.9
422.80 1.899
422.90 1.897
423.00 1.895
423.10 1.893
423.20 1.891
423.30 1.889
423.40 1.888
423.50 1.886
423.60 1.884
423.70 1.882
423.80 1.88
423.90 1.878
424.00 1.876
424.10 1.875
424.20 1.873
424.30 1.871
424.40 1.869
424.50 1.867
424.60 1.865
424.70 1.863
424.80 1.861
424.90 1.859
425.00 1.857
425.10 1.855
425.20 1.853
425.30 1.851
425.40 1.849
425.50 1.847
425.60 1.845
425.70 1.843
425.80 1.841
425.90 1.839
426.00 1.837
426.10 1.835
426.20 1.833
426.30 1.831
426.40 1.829
426.50 1.827
426.60 1.825
426.70 1.823
426.80 1.82
426.90 1.818
427.00 1.816
427.10 1.814
427.20 1.812
427.30 1.81
427.40 1.807
427.50 1.805
427.60 1.803
427.70 1.801
427.80 1.798
427.90 1.796
428.00 1.794
428.10 1.791
428.20 1.789
428.30 1.787
428.40 1.784
428.50 1.782
428.60 1.779
428.70 1.777
428.80 1.775
428.90 1.772
429.00 1.77
429.10 1.767
429.20 1.764
429.30 1.762
429.40 1.759
429.50 1.757
429.60 1.754
429.70 1.751
429.80 1.749
429.90 1.746
430.00 1.743
430.10 1.741
430.20 1.738
430.30 1.735
430.40 1.732
430.50 1.729
430.60 1.726
430.70 1.724
430.80 1.721
430.90 1.718
431.00 1.715
431.10 1.712
431.20 1.709
431.30 1.706
431.40 1.703
431.50 1.7
431.60 1.697
431.70 1.693
431.80 1.69
431.90 1.687
432.00 1.684
432.10 1.681
432.20 1.678
432.30 1.675
432.40 1.671
432.50 1.668
432.60 1.665
432.70 1.662
432.80 1.659
432.90 1.655
433.00 1.652
433.10 1.649
433.20 1.646
433.30 1.642
433.40 1.639
433.50 1.635
433.60 1.632
433.70 1.628
433.80 1.623
433.90 1.619
434.00 1.616
434.10 1.615
434.20 1.615
434.30 1.617
434.40 1.618
434.50 1.62
434.60 1.62
434.70 1.621
434.80 1.622
434.90 1.622
435.00 1.623
435.10 1.623
435.20 1.624
435.30 1.624
435.40 1.624
435.50 1.625
435.60 1.625
435.70 1.625
435.80 1.626
435.90 1.626
436.00 1.626
436.10 1.627
436.20 1.627
436.30 1.627
436.40 1.627
436.50 1.627
436.60 1.628
436.70 1.628
436.80 1.628
436.90 1.628
437.00 1.628
437.10 1.628
437.20 1.628
437.30 1.628
437.40 1.628
437.50 1.628
437.60 1.628
437.70 1.628
437.80 1.627
437.90 1.627
438.00 1.627
438.10 1.627
438.20 1.626
438.30 1.626
438.40 1.626
438.50 1.625
438.60 1.625
438.70 1.625
438.80 1.624
438.90 1.624
439.00 1.623
439.10 1.623
439.20 1.622
439.30 1.622
439.40 1.621
439.50 1.62
439.60 1.62
439.70 1.619
439.80 1.618
439.90 1.618
440.00 1.617
440.10 1.616
440.20 1.616
440.30 1.615
440.40 1.614
440.50 1.613
440.60 1.612
440.70 1.612
440.80 1.611
440.90 1.61
441.00 1.609
441.10 1.608
441.20 1.607
441.30 1.606
441.40 1.606
441.50 1.605
441.60 1.604
441.70 1.603
441.80 1.602
441.90 1.601
442.00 1.6
442.10 1.599
442.20 1.598
442.30 1.597
442.40 1.596
442.50 1.595
442.60 1.594
442.70 1.593
442.80 1.592
442.90 1.59
443.00 1.589
443.10 1.588
443.20 1.587
443.30 1.586
443.40 1.585
443.50 1.584
443.60 1.583
443.70 1.582
443.80 1.581
443.90 1.579
444.00 1.578
444.10 1.577
444.20 1.576
444.30 1.575
444.40 1.574
444.50 1.573
444.60 1.571
444.70 1.57
444.80 1.569
444.90 1.568
445.00 1.567
445.10 1.566
445.20 1.564
445.30 1.563
445.40 1.562
445.50 1.561
445.60 1.56
445.70 1.558
445.80 1.557
445.90 1.556
446.00 1.555
446.10 1.554
446.20 1.552
446.30 1.551
446.40 1.55
446.50 1.549
446.60 1.547
446.70 1.546
446.80 1.545
446.90 1.544
447.00 1.543
447.10 1.541
447.20 1.54
447.30 1.539
447.40 1.538
447.50 1.536
447.60 1.535
447.70 1.534
447.80 1.533
447.90 1.531
448.00 1.53
448.10 1.529
448.20 1.528
448.30 1.527
448.40 1.525
448.50 1.524
448.60 1.523
448.70 1.522
448.80 1.52
448.90 1.519
449.00 1.518
449.10 1.517
449.20 1.515
449.30 1.514
449.40 1.513
449.50 1.512
449.60 1.51
449.70 1.509
449.80 1.508
449.90 1.507
450.00 1.505
450.10 1.504
450.20 1.503
450.30 1.502
450.40 1.5
450.50 1.499
450.60 1.498
450.70 1.497
450.80 1.495
450.90 1.494
451.00 1.493
451.10 1.492
451.20 1.491
451.30 1.489
451.40 1.488
451.50 1.487
451.60 1.486
451.70 1.484
451.80 1.483
451.90 1.482
452.00 1.481
452.10 1.479
452.20 1.478
452.30 1.477
452.40 1.476
452.50 1.474
452.60 1.473
452.70 1.472
452.80 1.471
452.90 1.47
453.00 1.468
453.10 1.467
453.20 1.466
453.30 1.465
453.40 1.463
453.50 1.462
453.60 1.461
453.70 1.46
453.80 1.458
453.90 1.457
454.00 1.456
454.10 1.455
454.20 1.454
454.30 1.452
454.40 1.451
454.50 1.45
454.60 1.449
454.70 1.447
454.80 1.446
454.90 1.445
455.00 1.444
455.10 1.443
455.20 1.441
455.30 1.44
455.40 1.439
455.50 1.438
455.60 1.437
455.70 1.435
455.80 1.434
455.90 1.433
456.00 1.432
456.10 1.431
456.20 1.429
456.30 1.428
456.40 1.427
456.50 1.426
456.60 1.425
456.70 1.423
456.80 1.422
456.90 1.421
457.00 1.42
457.10 1.419
457.20 1.417
457.30 1.416
457.40 1.415
457.50 1.414
457.60 1.413
457.70 1.411
457.80 1.41
457.90 1.409
458.00 1.408
458.10 1.407
458.20 1.405
458.30 1.404
458.40 1.403
458.50 1.402
458.60 1.401
458.70 1.4
458.80 1.398
458.90 1.397
459.00 1.396
459.10 1.395
459.20 1.394
459.30 1.392
459.40 1.391
459.50 1.39
459.60 1.389
459.70 1.388
459.80 1.387
459.90 1.385
460.00 1.384
460.10 1.383
460.20 1.382
460.30 1.381
460.40 1.38
460.50 1.378
460.60 1.377
460.70 1.376
460.80 1.375
460.90 1.374
461.00 1.373
461.10 1.371
461.20 1.37
461.30 1.369
461.40 1.368
461.50 1.367
461.60 1.366
461.70 1.364
461.80 1.363
461.90 1.362
462.00 1.361
462.10 1.36
462.20 1.359
462.30 1.358
462.40 1.356
462.50 1.355
462.60 1.354
462.70 1.353
462.80 1.352
462.90 1.351
463.00 1.35
463.10 1.348
463.20 1.347
463.30 1.346
463.40 1.345
463.50 1.344
463.60 1.343
463.70 1.342
463.80 1.34
463.90 1.339
464.00 1.338
464.10 1.337
464.20 1.336
464.30 1.335
464.40 1.334
464.50 1.332
464.60 1.331
464.70 1.33
464.80 1.329
464.90 1.328
465.00 1.327
465.10 1.326
465.20 1.325
465.30 1.323
465.40 1.322
465.50 1.321
465.60 1.32
465.70 1.319
465.80 1.318
465.90 1.317
466.00 1.316
466.10 1.314
466.20 1.313
466.30 1.312
466.40 1.311
466.50 1.31
466.60 1.309
466.70 1.308
466.80 1.307
466.90 1.306
467.00 1.304
467.10 1.303
467.20 1.302
467.30 1.301
467.40 1.3
467.50 1.299
467.60 1.298
467.70 1.297
467.80 1.296
467.90 1.294
468.00 1.293
468.10 1.292
468.20 1.291
468.30 1.29
468.40 1.289
468.50 1.288
468.60 1.287
468.70 1.286
468.80 1.284
468.90 1.283
469.00 1.282
469.10 1.281
469.20 1.28
469.30 1.279
469.40 1.278
469.50 1.277
469.60 1.276
469.70 1.275
469.80 1.273
469.90 1.272
470.00 1.271
470.10 1.27
470.20 1.269
470.30 1.268
470.40 1.267
470.50 1.266
470.60 1.265
470.70 1.263
470.80 1.262
470.90 1.261
471.00 1.26
471.10 1.259
471.20 1.258
471.30 1.257
471.40 1.256
471.50 1.255
471.60 1.254
471.70 1.252
471.80 1.251
471.90 1.25
472.00 1.249
472.10 1.248
472.20 1.247
472.30 1.246
472.40 1.245
472.50 1.244
472.60 1.242
472.70 1.241
472.80 1.24
472.90 1.239
473.00 1.238
473.10 1.237
473.20 1.236
473.30 1.235
473.40 1.233
473.50 1.232
473.60 1.231
473.70 1.23
473.80 1.229
473.90 1.228
474.00 1.227
474.10 1.226
474.20 1.224
474.30 1.223
474.40 1.222
474.50 1.221
474.60 1.22
474.70 1.219
474.80 1.218
474.90 1.216
475.00 1.215
475.10 1.214
475.20 1.213
475.30 1.212
475.40 1.211
475.50 1.209
475.60 1.208
475.70 1.207
475.80 1.206
475.90 1.205
476.00 1.204
476.10 1.202
476.20 1.201
476.30 1.2
476.40 1.199
476.50 1.198
476.60 1.196
476.70 1.195
476.80 1.194
476.90 1.193
477.00 1.191
477.10 1.19
477.20 1.189
477.30 1.188
477.40 1.186
477.50 1.185
477.60 1.184
477.70 1.183
477.80 1.181
477.90 1.18
478.00 1.179
478.10 1.177
478.20 1.176
478.30 1.175
478.40 1.173
478.50 1.172
478.60 1.171
478.70 1.169
478.80 1.168
478.90 1.167
479.00 1.165
479.10 1.164
479.20 1.162
479.30 1.161
479.40 1.159
479.50 1.158
479.60 1.157
479.70 1.155
479.80 1.154
479.90 1.152
480.00 1.151
480.10 1.149
480.20 1.148
480.30 1.146
480.40 1.144
480.50 1.143
480.60 1.141
480.70 1.139
480.80 1.138
480.90 1.136
481.00 1.134
481.10 1.133
481.20 1.131
481.30 1.129
481.40 1.127
481.50 1.125
481.60 1.123
481.70 1.122
481.80 1.12
481.90 1.118
482.00 1.116
482.10 1.114
482.20 1.112
482.30 1.11
482.40 1.108
482.50 1.106
482.60 1.104
482.70 1.102
482.80 1.099
482.90 1.097
483.00 1.095
483.10 1.093
483.20 1.091
483.30 1.088
483.40 1.086
483.50 1.084
483.60 1.081
483.70 1.079
483.80 1.076
483.90 1.074
484.00 1.071
484.10 1.069
484.20 1.067
484.30 1.064
484.40 1.061
484.50 1.059
484.60 1.056
484.70 1.054
484.80 1.051
484.90 1.049
485.00 1.046
485.10 1.044
485.20 1.041
485.30 1.039
485.40 1.037
485.50 1.035
485.60 1.034
485.70 1.033
485.80 1.034
485.90 1.036
486.00 1.041
486.10 1.046
486.20 1.044
486.30 1.036
486.40 1.031
486.50 1.028
486.60 1.026
486.70 1.025
486.80 1.025
486.90 1.025
487.00 1.026
487.10 1.027
487.20 1.027
487.30 1.028
487.40 1.029
487.50 1.03
487.60 1.031
487.70 1.032
487.80 1.033
487.90 1.034
488.00 1.035
488.10 1.036
488.20 1.036
488.30 1.037
488.40 1.038
488.50 1.039
488.60 1.039
488.70 1.04
488.80 1.041
488.90 1.041
489.00 1.042
489.10 1.043
489.20 1.043
489.30 1.044
489.40 1.044
489.50 1.044
489.60 1.045
489.70 1.045
489.80 1.045
489.90 1.046
490.00 1.046
490.10 1.047
490.20 1.047
490.30 1.047
490.40 1.047
490.50 1.047
490.60 1.047
490.70 1.047
490.80 1.047
490.90 1.047
491.00 1.047
491.10 1.047
491.20 1.047
491.30 1.047
491.40 1.047
491.50 1.047
491.60 1.047
491.70 1.047
491.80 1.046
491.90 1.046
492.00 1.046
492.10 1.046
492.20 1.046
492.30 1.045
492.40 1.045
492.50 1.045
492.60 1.044
492.70 1.044
492.80 1.044
492.90 1.043
493.00 1.043
493.10 1.043
493.20 1.042
493.30 1.042
493.40 1.041
493.50 1.041
493.60 1.04
493.70 1.04
493.80 1.039
493.90 1.039
494.00 1.039
494.10 1.038
494.20 1.038
494.30 1.037
494.40 1.036
494.50 1.036
494.60 1.035
494.70 1.035
494.80 1.034
494.90 1.034
495.00 1.033
495.10 1.033
495.20 1.032
495.30 1.031
495.40 1.031
495.50 1.03
495.60 1.03
495.70 1.029
495.80 1.028
495.90 1.028
496.00 1.027
496.10 1.027
496.20 1.026
496.30 1.025
496.40 1.025
496.50 1.024
496.60 1.023
496.70 1.023
496.80 1.022
496.90 1.021
497.00 1.021
497.10 1.02
497.20 1.019
497.30 1.019
497.40 1.018
497.50 1.017
497.60 1.017
497.70 1.016
497.80 1.015
497.90 1.015
498.00 1.014
498.10 1.013
498.20 1.013
498.30 1.012
498.40 1.011
498.50 1.011
498.60 1.01
498.70 1.009
498.80 1.008
498.90 1.008
499.00 1.007
499.10 1.006
499.20 1.006
499.30 1.005
499.40 1.004
499.50 1.004
499.60 1.003
499.70 1.002
499.80 1.001
499.90 1.001
500.00 1
500.10 0.9993
500.20 0.9986
500.30 0.9979
500.40 0.9971
500.50 0.9964
500.60 0.9957
500.70 0.995
500.80 0.9943
500.90 0.9936
501.00 0.9928
501.10 0.9921
501.20 0.9914
501.30 0.9907
501.40 0.99
501.50 0.9892
501.60 0.9885
501.70 0.9878
501.80 0.9871
501.90 0.9864
502.00 0.9857
502.10 0.9849
502.20 0.9842
502.30 0.9835
502.40 0.9828
502.50 0.982
502.60 0.9813
502.70 0.9806
502.80 0.9799
502.90 0.9792
503.00 0.9784
503.10 0.9777
503.20 0.977
503.30 0.9763
503.40 0.9756
503.50 0.9748
503.60 0.9741
503.70 0.9734
503.80 0.9727
503.90 0.9719
504.00 0.9712
504.10 0.9705
504.20 0.9698
504.30 0.9691
504.40 0.9683
504.50 0.9676
504.60 0.9669
504.70 0.9662
504.80 0.9655
504.90 0.9647
505.00 0.964
505.10 0.9633
505.20 0.9626
505.30 0.9619
505.40 0.9612
505.50 0.9604
505.60 0.9597
505.70 0.959
505.80 0.9583
505.90 0.9576
506.00 0.9569
506.10 0.9561
506.20 0.9554
506.30 0.9547
506.40 0.954
506.50 0.9533
506.60 0.9526
506.70 0.9519
506.80 0.9512
506.90 0.9504
507.00 0.9497
507.10 0.949
507.20 0.9483
507.30 0.9476
507.40 0.9469
507.50 0.9462
507.60 0.9455
507.70 0.9448
507.80 0.944
507.90 0.9433
508.00 0.9426
508.10 0.9419
508.20 0.9412
508.30 0.9405
508.40 0.9398
508.50 0.9391
508.60 0.9384
508.70 0.9377
508.80 0.937
508.90 0.9363
509.00 0.9356
509.10 0.9349
509.20 0.9342
509.30 0.9335
509.40 0.9328
509.50 0.9321
509.60 0.9314
509.70 0.9307
509.80 0.93
509.90 0.9293
510.00 0.9286
510.10 0.9279
510.20 0.9272
510.30 0.9265
510.40 0.9258
510.50 0.9251
510.60 0.9244
510.70 0.9237
510.80 0.923
510.90 0.9223
511.00 0.9216
511.10 0.9209
511.20 0.9203
511.30 0.9196
511.40 0.9189
511.50 0.9182
511.60 0.9175
511.70 0.9168
511.80 0.9161
511.90 0.9154
512.00 0.9147
512.10 0.9141
512.20 0.9134
512.30 0.9127
512.40 0.912
512.50 0.9113
512.60 0.9106
512.70 0.91
512.80 0.9093
512.90 0.9086
513.00 0.9079
513.10 0.9072
513.20 0.9065
513.30 0.9059
513.40 0.9052
513.50 0.9045
513.60 0.9038
513.70 0.9032
513.80 0.9025
513.90 0.9018
514.00 0.9011
514.10 0.9005
514.20 0.8998
514.30 0.8991
514.40 0.8984
514.50 0.8978
514.60 0.8971
514.70 0.8964
514.80 0.8957
514.90 0.8951
515.00 0.8944
515.10 0.8937
515.20 0.8931
515.30 0.8924
515.40 0.8917
515.50 0.8911
515.60 0.8904
515.70 0.8897
515.80 0.8891
515.90 0.8884
516.00 0.8877
516.10 0.8871
516.20 0.8864
516.30 0.8857
516.40 0.8851
516.50 0.8844
516.60 0.8838
516.70 0.8831
516.80 0.8824
516.90 0.8818
517.00 0.8811
517.10 0.8805
517.20 0.8798
517.30 0.8792
517.40 0.8785
517.50 0.8778
517.60 0.8772
517.70 0.8765
517.80 0.8759
517.90 0.8752
518.00 0.8746
518.10 0.8739
518.20 0.8733
518.30 0.8726
518.40 0.872
518.50 0.8713
518.60 0.8707
518.70 0.87
518.80 0.8694
518.90 0.8687
519.00 0.8681
519.10 0.8674
519.20 0.8668
519.30 0.8661
519.40 0.8655
519.50 0.8649
519.60 0.8642
519.70 0.8636
519.80 0.8629
519.90 0.8623
520.00 0.8616
520.10 0.861
520.20 0.8604
520.30 0.8597
520.40 0.8591
520.50 0.8584
520.60 0.8578
520.70 0.8572
520.80 0.8565
520.90 0.8559
521.00 0.8553
521.10 0.8546
521.20 0.854
521.30 0.8533
521.40 0.8527
521.50 0.8521
521.60 0.8515
521.70 0.8508
521.80 0.8502
521.90 0.8496
522.00 0.8489
522.10 0.8483
522.20 0.8477
522.30 0.847
522.40 0.8464
522.50 0.8458
522.60 0.8452
522.70 0.8445
522.80 0.8439
522.90 0.8433
523.00 0.8427
523.10 0.842
523.20 0.8414
523.30 0.8408
523.40 0.8402
523.50 0.8395
523.60 0.8389
523.70 0.8383
523.80 0.8377
523.90 0.8371
524.00 0.8364
524.10 0.8358
524.20 0.8352
524.30 0.8346
524.40 0.834
524.50 0.8334
524.60 0.8327
524.70 0.8321
524.80 0.8315
524.90 0.8309
525.00 0.8303
525.10 0.8297
525.20 0.8291
525.30 0.8285
525.40 0.8278
525.50 0.8272
525.60 0.8266
525.70 0.826
525.80 0.8254
525.90 0.8248
526.00 0.8242
526.10 0.8236
526.20 0.823
526.30 0.8224
526.40 0.8218
526.50 0.8212
526.60 0.8206
526.70 0.82
526.80 0.8194
526.90 0.8188
527.00 0.8181
527.10 0.8175
527.20 0.8169
527.30 0.8163
527.40 0.8157
527.50 0.8151
527.60 0.8145
527.70 0.8139
527.80 0.8133
527.90 0.8127
528.00 0.8122
528.10 0.8116
528.20 0.811
528.30 0.8104
528.40 0.8098
528.50 0.8092
528.60 0.8086
528.70 0.808
528.80 0.8074
528.90 0.8068
529.00 0.8062
529.10 0.8056
529.20 0.805
529.30 0.8044
529.40 0.8039
529.50 0.8033
529.60 0.8027
529.70 0.8021
529.80 0.8015
529.90 0.8009
530.00 0.8003
530.10 0.7997
530.20 0.7992
530.30 0.7986
530.40 0.798
530.50 0.7974
530.60 0.7968
530.70 0.7962
530.80 0.7957
530.90 0.7951
531.00 0.7945
531.10 0.7939
531.20 0.7933
531.30 0.7928
531.40 0.7922
531.50 0.7916
531.60 0.791
531.70 0.7905
531.80 0.7899
531.90 0.7893
532.00 0.7887
532.10 0.7882
532.20 0.7876
532.30 0.787
532.40 0.7864
532.50 0.7859
532.60 0.7853
532.70 0.7847
532.80 0.7841
532.90 0.7836
533.00 0.783
533.10 0.7824
533.20 0.7819
533.30 0.7813
533.40 0.7807
533.50 0.7802
533.60 0.7796
533.70 0.779
533.80 0.7785
533.90 0.7779
534.00 0.7773
534.10 0.7768
534.20 0.7762
534.30 0.7756
534.40 0.7751
534.50 0.7745
534.60 0.7739
534.70 0.7734
534.80 0.7728
534.90 0.7723
535.00 0.7717
535.10 0.7711
535.20 0.7706
535.30 0.77
535.40 0.7695
535.50 0.7689
535.60 0.7683
535.70 0.7678
535.80 0.7672
535.90 0.7667
536.00 0.7661
536.10 0.7656
536.20 0.765
536.30 0.7645
536.40 0.7639
536.50 0.7634
536.60 0.7628
536.70 0.7622
536.80 0.7617
536.90 0.7611
537.00 0.7606
537.10 0.76
537.20 0.7595
537.30 0.7589
537.40 0.7584
537.50 0.7579
537.60 0.7573
537.70 0.7568
537.80 0.7562
537.90 0.7557
538.00 0.7551
538.10 0.7546
538.20 0.754
538.30 0.7535
538.40 0.7529
538.50 0.7524
538.60 0.7519
538.70 0.7513
538.80 0.7508
538.90 0.7502
539.00 0.7497
539.10 0.7492
539.20 0.7486
539.30 0.7481
539.40 0.7475
539.50 0.747
539.60 0.7465
539.70 0.7459
539.80 0.7454
539.90 0.7449
540.00 0.7443
540.10 0.7438
540.20 0.7433
540.30 0.7427
540.40 0.7422
540.50 0.7417
540.60 0.7411
540.70 0.7406
540.80 0.7401
540.90 0.7395
541.00 0.739
541.10 0.7385
541.20 0.7379
541.30 0.7374
541.40 0.7369
541.50 0.7363
541.60 0.7358
541.70 0.7353
541.80 0.7348
541.90 0.7342
542.00 0.7337
542.10 0.7332
542.20 0.7327
542.30 0.7321
542.40 0.7316
542.50 0.7311
542.60 0.7306
542.70 0.73
542.80 0.7295
542.90 0.729
543.00 0.7285
543.10 0.7279
543.20 0.7274
543.30 0.7269
543.40 0.7264
543.50 0.7259
543.60 0.7254
543.70 0.7248
543.80 0.7243
543.90 0.7238
544.00 0.7233
544.10 0.7228
544.20 0.7223
544.30 0.7217
544.40 0.7212
544.50 0.7207
544.60 0.7202
544.70 0.7197
544.80 0.7192
544.90 0.7187
545.00 0.7181
545.10 0.7176
545.20 0.7171
545.30 0.7166
545.40 0.7161
545.50 0.7156
545.60 0.7151
545.70 0.7146
545.80 0.7141
545.90 0.7136
546.00 0.713
546.10 0.7125
546.20 0.712
546.30 0.7115
546.40 0.711
546.50 0.7105
546.60 0.71
546.70 0.7095
546.80 0.709
546.90 0.7085
547.00 0.708
547.10 0.7075
547.20 0.707
547.30 0.7065
547.40 0.706
547.50 0.7055
547.60 0.705
547.70 0.7045
547.80 0.704
547.90 0.7035
548.00 0.703
548.10 0.7025
548.20 0.702
548.30 0.7015
548.40 0.701
548.50 0.7005
548.60 0.7
548.70 0.6995
548.80 0.699
548.90 0.6985
549.00 0.698
549.10 0.6975
549.20 0.697
549.30 0.6965
549.40 0.6961
549.50 0.6956
549.60 0.6951
549.70 0.6946
549.80 0.6941
549.90 0.6936
550.00 0.6931
550.10 0.6926
550.20 0.6921
550.30 0.6916
550.40 0.6911
550.50 0.6907
550.60 0.6902
550.70 0.6897
550.80 0.6892
550.90 0.6887
551.00 0.6882
551.10 0.6877
551.20 0.6873
551.30 0.6868
551.40 0.6863
551.50 0.6858
551.60 0.6853
551.70 0.6848
551.80 0.6844
551.90 0.6839
552.00 0.6834
552.10 0.6829
552.20 0.6824
552.30 0.682
552.40 0.6815
552.50 0.681
552.60 0.6805
552.70 0.68
552.80 0.6796
552.90 0.6791
553.00 0.6786
553.10 0.6781
553.20 0.6777
553.30 0.6772
553.40 0.6767
553.50 0.6762
553.60 0.6758
553.70 0.6753
553.80 0.6748
553.90 0.6743
554.00 0.6739
554.10 0.6734
554.20 0.6729
554.30 0.6724
554.40 0.672
554.50 0.6715
554.60 0.671
554.70 0.6706
554.80 0.6701
554.90 0.6696
555.00 0.6691
555.10 0.6687
555.20 0.6682
555.30 0.6677
555.40 0.6673
555.50 0.6668
555.60 0.6663
555.70 0.6659
555.80 0.6654
555.90 0.6649
556.00 0.6645
556.10 0.664
556.20 0.6636
556.30 0.6631
556.40 0.6626
556.50 0.6622
556.60 0.6617
556.70 0.6612
556.80 0.6608
556.90 0.6603
557.00 0.6599
557.10 0.6594
557.20 0.6589
557.30 0.6585
557.40 0.658
557.50 0.6576
557.60 0.6571
557.70 0.6566
557.80 0.6562
557.90 0.6557
558.00 0.6553
558.10 0.6548
558.20 0.6544
558.30 0.6539
558.40 0.6534
558.50 0.653
558.60 0.6525
558.70 0.6521
558.80 0.6516
558.90 0.6512
559.00 0.6507
559.10 0.6503
559.20 0.6498
559.30 0.6494
559.40 0.6489
559.50 0.6485
559.60 0.648
559.70 0.6476
559.80 0.6471
559.90 0.6467
560.00 0.6462
560.10 0.6458
560.20 0.6453
560.30 0.6449
560.40 0.6444
560.50 0.644
560.60 0.6435
560.70 0.6431
560.80 0.6426
560.90 0.6422
561.00 0.6417
561.10 0.6413
561.20 0.6409
561.30 0.6404
561.40 0.64
561.50 0.6395
561.60 0.6391
561.70 0.6386
561.80 0.6382
561.90 0.6378
562.00 0.6373
562.10 0.6369
562.20 0.6364
562.30 0.636
562.40 0.6356
562.50 0.6351
562.60 0.6347
562.70 0.6342
562.80 0.6338
562.90 0.6334
563.00 0.6329
563.10 0.6325
563.20 0.6321
563.30 0.6316
563.40 0.6312
563.50 0.6307
563.60 0.6303
563.70 0.6299
563.80 0.6294
563.90 0.629
564.00 0.6286
564.10 0.6281
564.20 0.6277
564.30 0.6273
564.40 0.6268
564.50 0.6264
564.60 0.626
564.70 0.6255
564.80 0.6251
564.90 0.6247
565.00 0.6243
565.10 0.6238
565.20 0.6234
565.30 0.623
565.40 0.6225
565.50 0.6221
565.60 0.6217
565.70 0.6213
565.80 0.6208
565.90 0.6204
566.00 0.62
566.10 0.6196
566.20 0.6191
566.30 0.6187
566.40 0.6183
566.50 0.6179
566.60 0.6174
566.70 0.617
566.80 0.6166
566.90 0.6162
567.00 0.6157
567.10 0.6153
567.20 0.6149
567.30 0.6145
567.40 0.6141
567.50 0.6136
567.60 0.6132
567.70 0.6128
567.80 0.6124
567.90 0.612
568.00 0.6115
568.10 0.6111
568.20 0.6107
568.30 0.6103
568.40 0.6099
568.50 0.6094
568.60 0.609
568.70 0.6086
568.80 0.6082
568.90 0.6078
569.00 0.6074
569.10 0.6069
569.20 0.6065
569.30 0.6061
569.40 0.6057
569.50 0.6053
569.60 0.6049
569.70 0.6045
569.80 0.6041
569.90 0.6036
570.00 0.6032
570.10 0.6028
570.20 0.6024
570.30 0.602
570.40 0.6016
570.50 0.6012
570.60 0.6008
570.70 0.6004
570.80 0.5999
570.90 0.5995
571.00 0.5991
571.10 0.5987
571.20 0.5983
571.30 0.5979
571.40 0.5975
571.50 0.5971
571.60 0.5967
571.70 0.5963
571.80 0.5959
571.90 0.5955
572.00 0.5951
572.10 0.5947
572.20 0.5943
572.30 0.5938
572.40 0.5934
572.50 0.593
572.60 0.5926
572.70 0.5922
572.80 0.5918
572.90 0.5914
573.00 0.591
573.10 0.5906
573.20 0.5902
573.30 0.5898
573.40 0.5894
573.50 0.589
573.60 0.5886
573.70 0.5882
573.80 0.5878
573.90 0.5874
574.00 0.587
574.10 0.5866
574.20 0.5862
574.30 0.5858
574.40 0.5854
574.50 0.5851
574.60 0.5847
574.70 0.5843
574.80 0.5839
574.90 0.5835
575.00 0.5831
575.10 0.5827
575.20 0.5823
575.30 0.5819
575.40 0.5815
575.50 0.5811
575.60 0.5807
575.70 0.5803
575.80 0.5799
575.90 0.5795
576.00 0.5791
576.10 0.5788
576.20 0.5784
576.30 0.578
576.40 0.5776
576.50 0.5772
576.60 0.5768
576.70 0.5764
576.80 0.576
576.90 0.5756
577.00 0.5752
577.10 0.5749
577.20 0.5745
577.30 0.5741
577.40 0.5737
577.50 0.5733
577.60 0.5729
577.70 0.5725
577.80 0.5722
577.90 0.5718
578.00 0.5714
578.10 0.571
578.20 0.5706
578.30 0.5702
578.40 0.5698
578.50 0.5695
578.60 0.5691
578.70 0.5687
578.80 0.5683
578.90 0.5679
579.00 0.5676
579.10 0.5672
579.20 0.5668
579.30 0.5664
579.40 0.566
579.50 0.5656
579.60 0.5653
579.70 0.5649
579.80 0.5645
579.90 0.5641
580.00 0.5638
580.10 0.5634
580.20 0.563
580.30 0.5626
580.40 0.5622
580.50 0.5619
580.60 0.5615
580.70 0.5611
580.80 0.5607
580.90 0.5604
581.00 0.56
581.10 0.5596
581.20 0.5592
581.30 0.5589
581.40 0.5585
581.50 0.5581
581.60 0.5577
581.70 0.5574
581.80 0.557
581.90 0.5566
582.00 0.5563
582.10 0.5559
582.20 0.5555
582.30 0.5551
582.40 0.5548
582.50 0.5544
582.60 0.554
582.70 0.5537
582.80 0.5533
582.90 0.5529
583.00 0.5525
583.10 0.5522
583.20 0.5518
583.30 0.5514
583.40 0.5511
583.50 0.5507
583.60 0.5503
583.70 0.55
583.80 0.5496
583.90 0.5492
584.00 0.5489
584.10 0.5485
584.20 0.5481
584.30 0.5478
584.40 0.5474
584.50 0.547
584.60 0.5467
584.70 0.5463
584.80 0.546
584.90 0.5456
585.00 0.5452
585.10 0.5449
585.20 0.5445
585.30 0.5441
585.40 0.5438
585.50 0.5434
585.60 0.5431
585.70 0.5427
585.80 0.5423
585.90 0.542
586.00 0.5416
586.10 0.5413
586.20 0.5409
586.30 0.5405
586.40 0.5402
586.50 0.5398
586.60 0.5395
586.70 0.5391
586.80 0.5387
586.90 0.5384
587.00 0.538
587.10 0.5377
587.20 0.5373
587.30 0.537
587.40 0.5366
587.50 0.5363
587.60 0.5359
587.70 0.5355
587.80 0.5352
587.90 0.5348
588.00 0.5345
588.10 0.5341
588.20 0.5338
588.30 0.5334
588.40 0.5331
588.50 0.5327
588.60 0.5324
588.70 0.532
588.80 0.5317
588.90 0.5313
589.00 0.531
589.10 0.5306
589.20 0.5303
589.30 0.5299
589.40 0.5296
589.50 0.5292
589.60 0.5289
589.70 0.5285
589.80 0.5282
589.90 0.5278
590.00 0.5275
590.10 0.5271
590.20 0.5268
590.30 0.5264
590.40 0.5261
590.50 0.5257
590.60 0.5254
590.70 0.525
590.80 0.5247
590.90 0.5243
591.00 0.524
591.10 0.5236
591.20 0.5233
591.30 0.523
591.40 0.5226
591.50 0.5223
591.60 0.5219
591.70 0.5216
591.80 0.5212
591.90 0.5209
592.00 0.5206
592.10 0.5202
592.20 0.5199
592.30 0.5195
592.40 0.5192
592.50 0.5188
592.60 0.5185
592.70 0.5182
592.80 0.5178
592.90 0.5175
593.00 0.5171
593.10 0.5168
593.20 0.5165
593.30 0.5161
593.40 0.5158
593.50 0.5154
593.60 0.5151
593.70 0.5148
593.80 0.5144
593.90 0.5141
594.00 0.5138
594.10 0.5134
594.20 0.5131
594.30 0.5127
594.40 0.5124
594.50 0.5121
594.60 0.5117
594.70 0.5114
594.80 0.5111
594.90 0.5107
595.00 0.5104
595.10 0.5101
595.20 0.5097
595.30 0.5094
595.40 0.5091
595.50 0.5087
595.60 0.5084
595.70 0.5081
595.80 0.5077
595.90 0.5074
596.00 0.5071
596.10 0.5067
596.20 0.5064
596.30 0.5061
596.40 0.5058
596.50 0.5054
596.60 0.5051
596.70 0.5048
596.80 0.5044
596.90 0.5041
597.00 0.5038
597.10 0.5034
597.20 0.5031
597.30 0.5028
597.40 0.5025
597.50 0.5021
597.60 0.5018
597.70 0.5015
597.80 0.5012
597.90 0.5008
598.00 0.5005
598.10 0.5002
598.20 0.4998
598.30 0.4995
598.40 0.4992
598.50 0.4989
598.60 0.4985
598.70 0.4982
598.80 0.4979
598.90 0.4976
599.00 0.4973
599.10 0.4969
599.20 0.4966
599.30 0.4963
599.40 0.496
599.50 0.4956
599.60 0.4953
599.70 0.495
599.80 0.4947
599.90 0.4944
600.00 0.494
600.10 0.4937
600.20 0.4934
600.30 0.4931
600.40 0.4928
600.50 0.4924
600.60 0.4921
600.70 0.4918
600.80 0.4915
600.90 0.4912
601.00 0.4908
601.10 0.4905
601.20 0.4902
601.30 0.4899
601.40 0.4896
601.50 0.4892
601.60 0.4889
601.70 0.4886
601.80 0.4883
601.90 0.488
602.00 0.4877
602.10 0.4874
602.20 0.487
602.30 0.4867
602.40 0.4864
602.50 0.4861
602.60 0.4858
602.70 0.4855
602.80 0.4851
602.90 0.4848
603.00 0.4845
603.10 0.4842
603.20 0.4839
603.30 0.4836
603.40 0.4833
603.50 0.483
603.60 0.4826
603.70 0.4823
603.80 0.482
603.90 0.4817
604.00 0.4814
604.10 0.4811
604.20 0.4808
604.30 0.4805
604.40 0.4802
604.50 0.4799
604.60 0.4795
604.70 0.4792
604.80 0.4789
604.90 0.4786
605.00 0.4783
605.10 0.478
605.20 0.4777
605.30 0.4774
605.40 0.4771
605.50 0.4768
605.60 0.4765
605.70 0.4762
605.80 0.4759
605.90 0.4755
606.00 0.4752
606.10 0.4749
606.20 0.4746
606.30 0.4743
606.40 0.474
606.50 0.4737
606.60 0.4734
606.70 0.4731
606.80 0.4728
606.90 0.4725
607.00 0.4722
607.10 0.4719
607.20 0.4716
607.30 0.4713
607.40 0.471
607.50 0.4707
607.60 0.4704
607.70 0.4701
607.80 0.4698
607.90 0.4695
608.00 0.4692
608.10 0.4689
608.20 0.4686
608.30 0.4683
608.40 0.468
608.50 0.4677
608.60 0.4674
608.70 0.4671
608.80 0.4668
608.90 0.4665
609.00 0.4662
609.10 0.4659
609.20 0.4656
609.30 0.4653
609.40 0.465
609.50 0.4647
609.60 0.4644
609.70 0.4641
609.80 0.4638
609.90 0.4635
610.00 0.4632
610.10 0.4629
610.20 0.4626
610.30 0.4623
610.40 0.462
610.50 0.4617
610.60 0.4614
610.70 0.4611
610.80 0.4608
610.90 0.4605
611.00 0.4603
611.10 0.46
611.20 0.4597
611.30 0.4594
611.40 0.4591
611.50 0.4588
611.60 0.4585
611.70 0.4582
611.80 0.4579
611.90 0.4576
612.00 0.4573
612.10 0.457
612.20 0.4567
612.30 0.4564
612.40 0.4562
612.50 0.4559
612.60 0.4556
612.70 0.4553
612.80 0.455
612.90 0.4547
613.00 0.4544
613.10 0.4541
613.20 0.4538
613.30 0.4536
613.40 0.4533
613.50 0.453
613.60 0.4527
613.70 0.4524
613.80 0.4521
613.90 0.4518
614.00 0.4515
614.10 0.4512
614.20 0.451
614.30 0.4507
614.40 0.4504
614.50 0.4501
614.60 0.4498
614.70 0.4495
614.80 0.4492
614.90 0.449
615.00 0.4487
615.10 0.4484
615.20 0.4481
615.30 0.4478
615.40 0.4475
615.50 0.4473
615.60 0.447
615.70 0.4467
615.80 0.4464
615.90 0.4461
616.00 0.4458
616.10 0.4456
616.20 0.4453
616.30 0.445
616.40 0.4447
616.50 0.4444
616.60 0.4441
616.70 0.4439
616.80 0.4436
616.90 0.4433
617.00 0.443
617.10 0.4427
617.20 0.4425
617.30 0.4422
617.40 0.4419
617.50 0.4416
617.60 0.4413
617.70 0.4411
617.80 0.4408
617.90 0.4405
618.00 0.4402
618.10 0.44
618.20 0.4397
618.30 0.4394
618.40 0.4391
618.50 0.4388
618.60 0.4386
618.70 0.4383
618.80 0.438
618.90 0.4377
619.00 0.4375
619.10 0.4372
619.20 0.4369
619.30 0.4366
619.40 0.4364
619.50 0.4361
619.60 0.4358
619.70 0.4355
619.80 0.4353
619.90 0.435
620.00 0.4347
620.10 0.4344
620.20 0.4342
620.30 0.4339
620.40 0.4336
620.50 0.4333
620.60 0.4331
620.70 0.4328
620.80 0.4325
620.90 0.4322
621.00 0.432
621.10 0.4317
621.20 0.4314
621.30 0.4312
621.40 0.4309
621.50 0.4306
621.60 0.4303
621.70 0.4301
621.80 0.4298
621.90 0.4295
622.00 0.4293
622.10 0.429
622.20 0.4287
622.30 0.4285
622.40 0.4282
622.50 0.4279
622.60 0.4276
622.70 0.4274
622.80 0.4271
622.90 0.4268
623.00 0.4266
623.10 0.4263
623.20 0.426
623.30 0.4258
623.40 0.4255
623.50 0.4252
623.60 0.425
623.70 0.4247
623.80 0.4244
623.90 0.4242
624.00 0.4239
624.10 0.4236
624.20 0.4234
624.30 0.4231
624.40 0.4228
624.50 0.4226
624.60 0.4223
624.70 0.422
624.80 0.4218
624.90 0.4215
625.00 0.4213
625.10 0.421
625.20 0.4207
625.30 0.4205
625.40 0.4202
625.50 0.4199
625.60 0.4197
625.70 0.4194
625.80 0.4191
625.90 0.4189
626.00 0.4186
626.10 0.4184
626.20 0.4181
626.30 0.4178
626.40 0.4176
626.50 0.4173
626.60 0.417
626.70 0.4168
626.80 0.4165
626.90 0.4163
627.00 0.416
627.10 0.4157
627.20 0.4155
627.30 0.4152
627.40 0.415
627.50 0.4147
627.60 0.4144
627.70 0.4142
627.80 0.4139
627.90 0.4137
628.00 0.4134
628.10 0.4132
628.20 0.4129
628.30 0.4126
628.40 0.4124
628.50 0.4121
628.60 0.4119
628.70 0.4116
628.80 0.4113
628.90 0.4111
629.00 0.4108
629.10 0.4106
629.20 0.4103
629.30 0.4101
629.40 0.4098
629.50 0.4096
629.60 0.4093
629.70 0.409
629.80 0.4088
629.90 0.4085
630.00 0.4083
630.10 0.408
630.20 0.4078
630.30 0.4075
630.40 0.4073
630.50 0.407
630.60 0.4067
630.70 0.4065
630.80 0.4062
630.90 0.406
631.00 0.4057
631.10 0.4055
631.20 0.4052
631.30 0.405
631.40 0.4047
631.50 0.4045
631.60 0.4042
631.70 0.404
631.80 0.4037
631.90 0.4035
632.00 0.4032
632.10 0.403
632.20 0.4027
632.30 0.4024
632.40 0.4022
632.50 0.4019
632.60 0.4017
632.70 0.4014
632.80 0.4012
632.90 0.4009
633.00 0.4007
633.10 0.4004
633.20 0.4002
633.30 0.3999
633.40 0.3997
633.50 0.3994
633.60 0.3992
633.70 0.3989
633.80 0.3987
633.90 0.3984
634.00 0.3982
634.10 0.3979
634.20 0.3977
634.30 0.3974
634.40 0.3972
634.50 0.3969
634.60 0.3967
634.70 0.3965
634.80 0.3962
634.90 0.396
635.00 0.3957
635.10 0.3955
635.20 0.3952
635.30 0.395
635.40 0.3947
635.50 0.3945
635.60 0.3942
635.70 0.394
635.80 0.3937
635.90 0.3935
636.00 0.3932
636.10 0.393
636.20 0.3927
636.30 0.3925
636.40 0.3922
636.50 0.392
636.60 0.3918
636.70 0.3915
636.80 0.3913
636.90 0.391
637.00 0.3908
637.10 0.3905
637.20 0.3903
637.30 0.39
637.40 0.3898
637.50 0.3895
637.60 0.3893
637.70 0.3891
637.80 0.3888
637.90 0.3886
638.00 0.3883
638.10 0.3881
638.20 0.3878
638.30 0.3876
638.40 0.3873
638.50 0.3871
638.60 0.3868
638.70 0.3866
638.80 0.3864
638.90 0.3861
639.00 0.3859
639.10 0.3856
639.20 0.3854
639.30 0.3851
639.40 0.3849
639.50 0.3846
639.60 0.3844
639.70 0.3842
639.80 0.3839
639.90 0.3837
640.00 0.3834
640.10 0.3832
640.20 0.3829
640.30 0.3827
640.40 0.3824
640.50 0.3822
640.60 0.382
640.70 0.3817
640.80 0.3815
640.90 0.3812
641.00 0.381
641.10 0.3807
641.20 0.3805
641.30 0.3802
641.40 0.38
641.50 0.3797
641.60 0.3795
641.70 0.3793
641.80 0.379
641.90 0.3788
642.00 0.3785
642.10 0.3783
642.20 0.378
642.30 0.3778
642.40 0.3775
642.50 0.3773
642.60 0.377
642.70 0.3768
642.80 0.3765
642.90 0.3763
643.00 0.376
643.10 0.3758
643.20 0.3756
643.30 0.3753
643.40 0.3751
643.50 0.3748
643.60 0.3746
643.70 0.3743
643.80 0.3741
643.90 0.3738
644.00 0.3736
644.10 0.3733
644.20 0.3731
644.30 0.3728
644.40 0.3725
644.50 0.3723
644.60 0.372
644.70 0.3718
644.80 0.3715
644.90 0.3713
645.00 0.371
645.10 0.3708
645.20 0.3705
645.30 0.3703
645.40 0.37
645.50 0.3697
645.60 0.3695
645.70 0.3692
645.80 0.3689
645.90 0.3687
646.00 0.3684
646.10 0.3682
646.20 0.3679
646.30 0.3676
646.40 0.3674
646.50 0.3671
646.60 0.3668
646.70 0.3666
646.80 0.3663
646.90 0.366
647.00 0.3657
647.10 0.3655
647.20 0.3652
647.30 0.3649
647.40 0.3646
647.50 0.3644
647.60 0.3641
647.70 0.3638
647.80 0.3635
647.90 0.3632
648.00 0.3629
648.10 0.3627
648.20 0.3624
648.30 0.3621
648.40 0.3618
648.50 0.3615
648.60 0.3612
648.70 0.3609
648.80 0.3606
648.90 0.3603
649.00 0.36
649.10 0.3597
649.20 0.3593
649.30 0.359
649.40 0.3587
649.50 0.3584
649.60 0.358
649.70 0.3577
649.80 0.3574
649.90 0.357
650.00 0.3567
650.10 0.3564
650.20 0.3561
650.30 0.3557
650.40 0.3553
650.50 0.355
650.60 0.3546
650.70 0.3542
650.80 0.3539
650.90 0.3535
651.00 0.3531
651.10 0.3527
651.20 0.3524
651.30 0.352
651.40 0.3516
651.50 0.3511
651.60 0.3507
651.70 0.3503
651.80 0.3499
651.90 0.3494
652.00 0.349
652.10 0.3486
652.20 0.3482
652.30 0.3477
652.40 0.3472
652.50 0.3467
652.60 0.3462
652.70 0.3457
652.80 0.3452
652.90 0.3448
653.00 0.3443
653.10 0.3438
653.20 0.3433
653.30 0.3428
653.40 0.3422
653.50 0.3416
653.60 0.3411
653.70 0.3405
653.80 0.3399
653.90 0.3394
654.00 0.3388
654.10 0.3382
654.20 0.3377
654.30 0.3371
654.40 0.3365
654.50 0.3359
654.60 0.3353
654.70 0.3347
654.80 0.3341
654.90 0.3335
655.00 0.3329
655.10 0.3324
655.20 0.3318
655.30 0.3312
655.40 0.3308
655.50 0.3303
655.60 0.33
655.70 0.3298
655.80 0.3299
655.90 0.3303
656.00 0.3321
656.10 0.3345
656.20 0.3445
656.30 0.3537
656.40 0.339
656.50 0.3325
656.60 0.3303
656.70 0.3284
656.80 0.3279
656.90 0.3274
657.00 0.3274
657.10 0.3273
657.20 0.3274
657.30 0.3275
657.40 0.3277
657.50 0.3279
657.60 0.3281
657.70 0.3283
657.80 0.3285
657.90 0.3287
658.00 0.3289
658.10 0.3291
658.20 0.3293
658.30 0.3295
658.40 0.3297
658.50 0.3298
658.60 0.33
658.70 0.3302
658.80 0.3303
658.90 0.3305
659.00 0.3307
659.10 0.3308
659.20 0.331
659.30 0.3311
659.40 0.3312
659.50 0.3313
659.60 0.3314
659.70 0.3315
659.80 0.3316
659.90 0.3317
660.00 0.3317
660.10 0.3318
660.20 0.3319
660.30 0.332
660.40 0.332
660.50 0.332
660.60 0.332
660.70 0.332
660.80 0.332
660.90 0.332
661.00 0.3321
661.10 0.3321
661.20 0.3321
661.30 0.3321
661.40 0.332
661.50 0.332
661.60 0.3319
661.70 0.3319
661.80 0.3318
661.90 0.3318
662.00 0.3318
662.10 0.3317
662.20 0.3317
662.30 0.3316
662.40 0.3315
662.50 0.3314
662.60 0.3313
662.70 0.3313
662.80 0.3312
662.90 0.3311
663.00 0.331
663.10 0.3309
663.20 0.3308
663.30 0.3307
663.40 0.3306
663.50 0.3305
663.60 0.3304
663.70 0.3303
663.80 0.3302
663.90 0.33
664.00 0.3299
664.10 0.3298
664.20 0.3297
664.30 0.3296
664.40 0.3294
664.50 0.3293
664.60 0.3292
664.70 0.329
664.80 0.3289
664.90 0.3288
665.00 0.3286
665.10 0.3285
665.20 0.3283
665.30 0.3282
665.40 0.3281
665.50 0.3279
665.60 0.3278
665.70 0.3276
665.80 0.3275
665.90 0.3273
666.00 0.3272
666.10 0.327
666.20 0.3269
666.30 0.3267
666.40 0.3266
666.50 0.3264
666.60 0.3262
666.70 0.3261
666.80 0.3259
666.90 0.3258
667.00 0.3256
667.10 0.3254
667.20 0.3253
667.30 0.3251
667.40 0.325
667.50 0.3248
667.60 0.3246
667.70 0.3245
667.80 0.3243
667.90 0.3241
668.00 0.324
668.10 0.3238
668.20 0.3236
668.30 0.3235
668.40 0.3233
668.50 0.3231
668.60 0.323
668.70 0.3228
668.80 0.3226
668.90 0.3225
669.00 0.3223
669.10 0.3221
669.20 0.322
669.30 0.3218
669.40 0.3216
669.50 0.3214
669.60 0.3213
669.70 0.3211
669.80 0.3209
669.90 0.3207
670.00 0.3206
670.10 0.3204
670.20 0.3202
670.30 0.3201
670.40 0.3199
670.50 0.3197
670.60 0.3195
670.70 0.3194
670.80 0.3192
670.90 0.319
671.00 0.3188
671.10 0.3187
671.20 0.3185
671.30 0.3183
671.40 0.3181
671.50 0.318
671.60 0.3178
671.70 0.3176
671.80 0.3174
671.90 0.3173
672.00 0.3171
672.10 0.3169
672.20 0.3168
672.30 0.3166
672.40 0.3164
672.50 0.3162
672.60 0.316
672.70 0.3159
672.80 0.3157
672.90 0.3155
673.00 0.3153
673.10 0.3152
673.20 0.315
673.30 0.3148
673.40 0.3146
673.50 0.3145
673.60 0.3143
673.70 0.3141
673.80 0.3139
673.90 0.3138
674.00 0.3136
674.10 0.3134
674.20 0.3132
674.30 0.3131
674.40 0.3129
674.50 0.3127
674.60 0.3125
674.70 0.3124
674.80 0.3122
674.90 0.312
675.00 0.3118
675.10 0.3117
675.20 0.3115
675.30 0.3113
675.40 0.3111
675.50 0.311
675.60 0.3108
675.70 0.3106
675.80 0.3104
675.90 0.3103
676.00 0.3101
676.10 0.3099
676.20 0.3097
676.30 0.3096
676.40 0.3094
676.50 0.3092
676.60 0.309
676.70 0.3089
676.80 0.3087
676.90 0.3085
677.00 0.3083
677.10 0.3082
677.20 0.308
677.30 0.3078
677.40 0.3077
677.50 0.3075
677.60 0.3073
677.70 0.3071
677.80 0.307
677.90 0.3068
678.00 0.3066
678.10 0.3064
678.20 0.3063
678.30 0.3061
678.40 0.3059
678.50 0.3057
678.60 0.3056
678.70 0.3054
678.80 0.3052
678.90 0.3051
679.00 0.3049
679.10 0.3047
679.20 0.3045
679.30 0.3044
679.40 0.3042
679.50 0.304
679.60 0.3038
679.70 0.3037
679.80 0.3035
679.90 0.3033
680.00 0.3032
680.10 0.303
680.20 0.3028
680.30 0.3026
680.40 0.3025
680.50 0.3023
680.60 0.3021
680.70 0.302
680.80 0.3018
680.90 0.3016
681.00 0.3014
681.10 0.3013
681.20 0.3011
681.30 0.3009
681.40 0.3008
681.50 0.3006
681.60 0.3004
681.70 0.3003
681.80 0.3001
681.90 0.2999
682.00 0.2997
682.10 0.2996
682.20 0.2994
682.30 0.2992
682.40 0.2991
682.50 0.2989
682.60 0.2987
682.70 0.2986
682.80 0.2984
682.90 0.2982
683.00 0.2981
683.10 0.2979
683.20 0.2977
683.30 0.2975
683.40 0.2974
683.50 0.2972
683.60 0.297
683.70 0.2969
683.80 0.2967
683.90 0.2965
684.00 0.2964
684.10 0.2962
684.20 0.296
684.30 0.2959
684.40 0.2957
684.50 0.2955
684.60 0.2954
684.70 0.2952
684.80 0.295
684.90 0.2949
685.00 0.2947
685.10 0.2945
685.20 0.2944
685.30 0.2942
685.40 0.294
685.50 0.2939
685.60 0.2937
685.70 0.2935
685.80 0.2934
685.90 0.2932
686.00 0.293
686.10 0.2929
686.20 0.2927
686.30 0.2925
686.40 0.2924
686.50 0.2922
686.60 0.292
686.70 0.2919
686.80 0.2917
686.90 0.2915
687.00 0.2914
687.10 0.2912
687.20 0.2911
687.30 0.2909
687.40 0.2907
687.50 0.2906
687.60 0.2904
687.70 0.2902
687.80 0.2901
687.90 0.2899
688.00 0.2897
688.10 0.2896
688.20 0.2894
688.30 0.2893
688.40 0.2891
688.50 0.2889
688.60 0.2888
688.70 0.2886
688.80 0.2884
688.90 0.2883
689.00 0.2881
689.10 0.2879
689.20 0.2878
689.30 0.2876
689.40 0.2875
689.50 0.2873
689.60 0.2871
689.70 0.287
689.80 0.2868
689.90 0.2867
690.00 0.2865
690.10 0.2863
690.20 0.2862
690.30 0.286
690.40 0.2859
690.50 0.2857
690.60 0.2855
690.70 0.2854
690.80 0.2852
690.90 0.2851
691.00 0.2849
691.10 0.2847
691.20 0.2846
691.30 0.2844
691.40 0.2843
691.50 0.2841
691.60 0.2839
691.70 0.2838
691.80 0.2836
691.90 0.2835
692.00 0.2833
692.10 0.2831
692.20 0.283
692.30 0.2828
692.40 0.2827
692.50 0.2825
692.60 0.2823
692.70 0.2822
692.80 0.282
692.90 0.2819
693.00 0.2817
693.10 0.2815
693.20 0.2814
693.30 0.2812
693.40 0.2811
693.50 0.2809
693.60 0.2808
693.70 0.2806
693.80 0.2804
693.90 0.2803
694.00 0.2801
694.10 0.28
694.20 0.2798
694.30 0.2797
694.40 0.2795
694.50 0.2793
694.60 0.2792
694.70 0.279
694.80 0.2789
694.90 0.2787
695.00 0.2786
695.10 0.2784
695.20 0.2782
695.30 0.2781
695.40 0.2779
695.50 0.2778
695.60 0.2776
695.70 0.2775
695.80 0.2773
695.90 0.2772
696.00 0.277
696.10 0.2769
696.20 0.2767
696.30 0.2765
696.40 0.2764
696.50 0.2762
696.60 0.2761
696.70 0.2759
696.80 0.2758
696.90 0.2756
697.00 0.2755
697.10 0.2753
697.20 0.2752
697.30 0.275
697.40 0.2748
697.50 0.2747
697.60 0.2745
697.70 0.2744
697.80 0.2742
697.90 0.2741
698.00 0.2739
698.10 0.2738
698.20 0.2736
698.30 0.2735
698.40 0.2733
698.50 0.2732
698.60 0.273
698.70 0.2729
698.80 0.2727
698.90 0.2726
699.00 0.2724
699.10 0.2723
699.20 0.2721
699.30 0.2719
699.40 0.2718
699.50 0.2716
699.60 0.2715
699.70 0.2713
699.80 0.2712
699.90 0.271
700.00 0.2709
700.10 0.2707
700.20 0.2706
700.30 0.2704
700.40 0.2703
700.50 0.2701
700.60 0.27
700.70 0.2698
700.80 0.2697
700.90 0.2695
701.00 0.2694
701.10 0.2692
701.20 0.2691
701.30 0.2689
701.40 0.2688
701.50 0.2686
701.60 0.2685
701.70 0.2683
701.80 0.2682
701.90 0.268
702.00 0.2679
702.10 0.2677
702.20 0.2676
702.30 0.2675
702.40 0.2673
702.50 0.2672
702.60 0.267
702.70 0.2669
702.80 0.2667
702.90 0.2666
703.00 0.2664
703.10 0.2663
703.20 0.2661
703.30 0.266
703.40 0.2658
703.50 0.2657
703.60 0.2655
703.70 0.2654
703.80 0.2652
703.90 0.2651
704.00 0.2649
704.10 0.2648
704.20 0.2646
704.30 0.2645
704.40 0.2644
704.50 0.2642
704.60 0.2641
704.70 0.2639
704.80 0.2638
704.90 0.2636
705.00 0.2635
705.10 0.2633
705.20 0.2632
705.30 0.263
705.40 0.2629
705.50 0.2627
705.60 0.2626
705.70 0.2625
705.80 0.2623
705.90 0.2622
706.00 0.262
706.10 0.2619
706.20 0.2617
706.30 0.2616
706.40 0.2614
706.50 0.2613
706.60 0.2612
706.70 0.261
706.80 0.2609
706.90 0.2607
707.00 0.2606
707.10 0.2604
707.20 0.2603
707.30 0.2602
707.40 0.26
707.50 0.2599
707.60 0.2597
707.70 0.2596
707.80 0.2594
707.90 0.2593
708.00 0.2592
708.10 0.259
708.20 0.2589
708.30 0.2587
708.40 0.2586
708.50 0.2584
708.60 0.2583
708.70 0.2582
708.80 0.258
708.90 0.2579
709.00 0.2577
709.10 0.2576
709.20 0.2574
709.30 0.2573
709.40 0.2572
709.50 0.257
709.60 0.2569
709.70 0.2567
709.80 0.2566
709.90 0.2564
710.00 0.2563
710.10 0.2562
710.20 0.256
710.30 0.2559
710.40 0.2557
710.50 0.2556
710.60 0.2555
710.70 0.2553
710.80 0.2552
710.90 0.255
711.00 0.2549
711.10 0.2548
711.20 0.2546
711.30 0.2545
711.40 0.2544
711.50 0.2542
711.60 0.2541
711.70 0.2539
711.80 0.2538
711.90 0.2537
712.00 0.2535
712.10 0.2534
712.20 0.2532
712.30 0.2531
712.40 0.253
712.50 0.2528
712.60 0.2527
712.70 0.2525
712.80 0.2524
712.90 0.2523
713.00 0.2521
713.10 0.252
713.20 0.2519
713.30 0.2517
713.40 0.2516
713.50 0.2514
713.60 0.2513
713.70 0.2512
713.80 0.251
713.90 0.2509
714.00 0.2508
714.10 0.2506
714.20 0.2505
714.30 0.2503
714.40 0.2502
714.50 0.2501
714.60 0.2499
714.70 0.2498
714.80 0.2497
714.90 0.2495
715.00 0.2494
715.10 0.2493
715.20 0.2491
715.30 0.249
715.40 0.2488
715.50 0.2487
715.60 0.2486
715.70 0.2484
715.80 0.2483
715.90 0.2482
716.00 0.248
716.10 0.2479
716.20 0.2478
716.30 0.2476
716.40 0.2475
716.50 0.2474
716.60 0.2472
716.70 0.2471
716.80 0.247
716.90 0.2468
717.00 0.2467
717.10 0.2466
717.20 0.2464
717.30 0.2463
717.40 0.2462
717.50 0.246
717.60 0.2459
717.70 0.2458
717.80 0.2456
717.90 0.2455
718.00 0.2454
718.10 0.2452
718.20 0.2451
718.30 0.245
718.40 0.2448
718.50 0.2447
718.60 0.2446
718.70 0.2444
718.80 0.2443
718.90 0.2442
719.00 0.244
719.10 0.2439
719.20 0.2438
719.30 0.2436
719.40 0.2435
719.50 0.2434
719.60 0.2432
719.70 0.2431
719.80 0.243
719.90 0.2428
720.00 0.2427
720.10 0.2426
720.20 0.2424
720.30 0.2423
720.40 0.2422
720.50 0.242
720.60 0.2419
720.70 0.2418
720.80 0.2416
720.90 0.2415
721.00 0.2414
721.10 0.2413
721.20 0.2411
721.30 0.241
721.40 0.2409
721.50 0.2407
721.60 0.2406
721.70 0.2405
721.80 0.2403
721.90 0.2402
722.00 0.2401
722.10 0.24
722.20 0.2398
722.30 0.2397
722.40 0.2396
722.50 0.2394
722.60 0.2393
722.70 0.2392
722.80 0.2391
722.90 0.2389
723.00 0.2388
723.10 0.2387
723.20 0.2385
723.30 0.2384
723.40 0.2383
723.50 0.2382
723.60 0.238
723.70 0.2379
723.80 0.2378
723.90 0.2376
724.00 0.2375
724.10 0.2374
724.20 0.2373
724.30 0.2371
724.40 0.237
724.50 0.2369
724.60 0.2367
724.70 0.2366
724.80 0.2365
724.90 0.2364
725.00 0.2362
725.10 0.2361
725.20 0.236
725.30 0.2358
725.40 0.2357
725.50 0.2356
725.60 0.2355
725.70 0.2353
725.80 0.2352
725.90 0.2351
726.00 0.235
726.10 0.2348
726.20 0.2347
726.30 0.2346
726.40 0.2345
726.50 0.2343
726.60 0.2342
726.70 0.2341
726.80 0.234
726.90 0.2338
727.00 0.2337
727.10 0.2336
727.20 0.2335
727.30 0.2333
727.40 0.2332
727.50 0.2331
727.60 0.233
727.70 0.2328
727.80 0.2327
727.90 0.2326
728.00 0.2325
728.10 0.2323
728.20 0.2322
728.30 0.2321
728.40 0.232
728.50 0.2318
728.60 0.2317
728.70 0.2316
728.80 0.2315
728.90 0.2313
729.00 0.2312
729.10 0.2311
729.20 0.231
729.30 0.2308
729.40 0.2307
729.50 0.2306
729.60 0.2305
729.70 0.2303
729.80 0.2302
729.90 0.2301
730.00 0.23
730.10 0.2298
730.20 0.2297
730.30 0.2296
730.40 0.2295
730.50 0.2294
730.60 0.2292
730.70 0.2291
730.80 0.229
730.90 0.2289
731.00 0.2288
731.10 0.2286
731.20 0.2285
731.30 0.2284
731.40 0.2283
731.50 0.2282
731.60 0.228
731.70 0.2279
731.80 0.2278
731.90 0.2277
732.00 0.2275
732.10 0.2274
732.20 0.2273
732.30 0.2272
732.40 0.2271
732.50 0.2269
732.60 0.2268
732.70 0.2267
732.80 0.2266
732.90 0.2265
733.00 0.2263
733.10 0.2262
733.20 0.2261
733.30 0.226
733.40 0.2259
733.50 0.2257
733.60 0.2256
733.70 0.2255
733.80 0.2254
733.90 0.2253
734.00 0.2251
734.10 0.225
734.20 0.2249
734.30 0.2248
734.40 0.2247
734.50 0.2245
734.60 0.2244
734.70 0.2243
734.80 0.2242
734.90 0.2241
735.00 0.224
735.10 0.2238
735.20 0.2237
735.30 0.2236
735.40 0.2235
735.50 0.2234
735.60 0.2232
735.70 0.2231
735.80 0.223
735.90 0.2229
736.00 0.2228
736.10 0.2226
736.20 0.2225
736.30 0.2224
736.40 0.2223
736.50 0.2222
736.60 0.2221
736.70 0.2219
736.80 0.2218
736.90 0.2217
737.00 0.2216
737.10 0.2215
737.20 0.2213
737.30 0.2212
737.40 0.2211
737.50 0.221
737.60 0.2209
737.70 0.2208
737.80 0.2206
737.90 0.2205
738.00 0.2204
738.10 0.2203
738.20 0.2202
738.30 0.2201
738.40 0.2199
738.50 0.2198
738.60 0.2197
738.70 0.2196
738.80 0.2195
738.90 0.2194
739.00 0.2192
739.10 0.2191
739.20 0.219
739.30 0.2189
739.40 0.2188
739.50 0.2187
739.60 0.2185
739.70 0.2184
739.80 0.2183
739.90 0.2182
740.00 0.2181
740.10 0.218
740.20 0.2178
740.30 0.2177
740.40 0.2176
740.50 0.2175
740.60 0.2174
740.70 0.2173
740.80 0.2172
740.90 0.217
741.00 0.2169
741.10 0.2168
741.20 0.2167
741.30 0.2166
741.40 0.2165
741.50 0.2164
741.60 0.2163
741.70 0.2161
741.80 0.216
741.90 0.2159
742.00 0.2158
742.10 0.2157
742.20 0.2156
742.30 0.2155
742.40 0.2154
742.50 0.2152
742.60 0.2151
742.70 0.215
742.80 0.2149
742.90 0.2148
743.00 0.2147
743.10 0.2146
743.20 0.2144
743.30 0.2143
743.40 0.2142
743.50 0.2141
743.60 0.214
743.70 0.2139
743.80 0.2138
743.90 0.2137
744.00 0.2136
744.10 0.2134
744.20 0.2133
744.30 0.2132
744.40 0.2131
744.50 0.213
744.60 0.2129
744.70 0.2128
744.80 0.2127
744.90 0.2125
745.00 0.2124
745.10 0.2123
745.20 0.2122
745.30 0.2121
745.40 0.212
745.50 0.2119
745.60 0.2118
745.70 0.2117
745.80 0.2115
745.90 0.2114
746.00 0.2113
746.10 0.2112
746.20 0.2111
746.30 0.211
746.40 0.2109
746.50 0.2108
746.60 0.2107
746.70 0.2106
746.80 0.2104
746.90 0.2103
747.00 0.2102
747.10 0.2101
747.20 0.21
747.30 0.2099
747.40 0.2098
747.50 0.2097
747.60 0.2096
747.70 0.2094
747.80 0.2093
747.90 0.2092
748.00 0.2091
748.10 0.209
748.20 0.2089
748.30 0.2088
748.40 0.2087
748.50 0.2086
748.60 0.2085
748.70 0.2084
748.80 0.2082
748.90 0.2081
749.00 0.208
749.10 0.2079
749.20 0.2078
749.30 0.2077
749.40 0.2076
749.50 0.2075
749.60 0.2074
749.70 0.2073
749.80 0.2071
749.90 0.207
750.00 0.2069
750.10 0.2068
750.20 0.2067
750.30 0.2066
750.40 0.2065
750.50 0.2064
750.60 0.2063
750.70 0.2062
750.80 0.2061
750.90 0.206
751.00 0.2059
751.10 0.2058
751.20 0.2057
751.30 0.2055
751.40 0.2054
751.50 0.2053
751.60 0.2052
751.70 0.2051
751.80 0.205
751.90 0.2049
752.00 0.2048
752.10 0.2047
752.20 0.2046
752.30 0.2045
752.40 0.2044
752.50 0.2043
752.60 0.2042
752.70 0.2041
752.80 0.204
752.90 0.2039
753.00 0.2037
753.10 0.2036
753.20 0.2035
753.30 0.2034
753.40 0.2033
753.50 0.2032
753.60 0.2031
753.70 0.203
753.80 0.2029
753.90 0.2028
754.00 0.2027
754.10 0.2026
754.20 0.2025
754.30 0.2024
754.40 0.2023
754.50 0.2022
754.60 0.2021
754.70 0.202
754.80 0.2019
754.90 0.2018
755.00 0.2017
755.10 0.2015
755.20 0.2014
755.30 0.2013
755.40 0.2012
755.50 0.2011
755.60 0.201
755.70 0.2009
755.80 0.2008
755.90 0.2007
756.00 0.2006
756.10 0.2005
756.20 0.2004
756.30 0.2003
756.40 0.2002
756.50 0.2001
756.60 0.2
756.70 0.1999
756.80 0.1998
756.90 0.1997
757.00 0.1996
757.10 0.1995
757.20 0.1994
757.30 0.1993
757.40 0.1992
757.50 0.1991
757.60 0.199
757.70 0.1989
757.80 0.1987
757.90 0.1986
758.00 0.1985
758.10 0.1984
758.20 0.1983
758.30 0.1982
758.40 0.1981
758.50 0.198
758.60 0.1979
758.70 0.1978
758.80 0.1977
758.90 0.1976
759.00 0.1975
759.10 0.1974
759.20 0.1973
759.30 0.1972
759.40 0.1971
759.50 0.197
759.60 0.1969
759.70 0.1968
759.80 0.1967
759.90 0.1966
760.00 0.1965
760.10 0.1964
760.20 0.1963
760.30 0.1962
760.40 0.1961
760.50 0.196
760.60 0.1959
760.70 0.1958
760.80 0.1957
760.90 0.1956
761.00 0.1955
761.10 0.1954
761.20 0.1953
761.30 0.1952
761.40 0.1951
761.50 0.195
761.60 0.1949
761.70 0.1948
761.80 0.1947
761.90 0.1946
762.00 0.1945
762.10 0.1944
762.20 0.1943
762.30 0.1942
762.40 0.1941
762.50 0.194
762.60 0.1939
762.70 0.1938
762.80 0.1937
762.90 0.1936
763.00 0.1935
763.10 0.1934
763.20 0.1933
763.30 0.1932
763.40 0.1931
763.50 0.193
763.60 0.1929
763.70 0.1928
763.80 0.1927
763.90 0.1926
764.00 0.1925
764.10 0.1924
764.20 0.1923
764.30 0.1922
764.40 0.1921
764.50 0.192
764.60 0.1919
764.70 0.1918
764.80 0.1917
764.90 0.1916
765.00 0.1915
765.10 0.1914
765.20 0.1914
765.30 0.1913
765.40 0.1912
765.50 0.1911
765.60 0.191
765.70 0.1909
765.80 0.1908
765.90 0.1907
766.00 0.1906
766.10 0.1905
766.20 0.1904
766.30 0.1903
766.40 0.1902
766.50 0.1901
766.60 0.19
766.70 0.1899
766.80 0.1898
766.90 0.1897
767.00 0.1896
767.10 0.1895
767.20 0.1894
767.30 0.1893
767.40 0.1892
767.50 0.1891
767.60 0.189
767.70 0.1889
767.80 0.1888
767.90 0.1887
768.00 0.1886
768.10 0.1885
768.20 0.1884
768.30 0.1883
768.40 0.1882
768.50 0.1881
768.60 0.1881
768.70 0.188
768.80 0.1879
768.90 0.1878
769.00 0.1877
769.10 0.1876
769.20 0.1875
769.30 0.1874
769.40 0.1873
769.50 0.1872
769.60 0.1871
769.70 0.187
769.80 0.1869
769.90 0.1868
770.00 0.1867
770.10 0.1866
770.20 0.1865
770.30 0.1864
770.40 0.1863
770.50 0.1862
770.60 0.1861
770.70 0.1861
770.80 0.186
770.90 0.1859
771.00 0.1858
771.10 0.1857
771.20 0.1856
771.30 0.1855
771.40 0.1854
771.50 0.1853
771.60 0.1852
771.70 0.1851
771.80 0.185
771.90 0.1849
772.00 0.1848
772.10 0.1847
772.20 0.1847
772.30 0.1846
772.40 0.1845
772.50 0.1844
772.60 0.1843
772.70 0.1842
772.80 0.1841
772.90 0.184
773.00 0.1839
773.10 0.1838
773.20 0.1837
773.30 0.1836
773.40 0.1835
773.50 0.1834
773.60 0.1834
773.70 0.1833
773.80 0.1832
773.90 0.1831
774.00 0.183
774.10 0.1829
774.20 0.1828
774.30 0.1827
774.40 0.1826
774.50 0.1825
774.60 0.1824
774.70 0.1823
774.80 0.1822
774.90 0.1822
775.00 0.1821
775.10 0.182
775.20 0.1819
775.30 0.1818
775.40 0.1817
775.50 0.1816
775.60 0.1815
775.70 0.1814
775.80 0.1813
775.90 0.1812
776.00 0.1811
776.10 0.1811
776.20 0.181
776.30 0.1809
776.40 0.1808
776.50 0.1807
776.60 0.1806
776.70 0.1805
776.80 0.1804
776.90 0.1803
777.00 0.1802
777.10 0.1801
777.20 0.1801
777.30 0.18
777.40 0.1799
777.50 0.1798
777.60 0.1797
777.70 0.1796
777.80 0.1795
777.90 0.1794
778.00 0.1793
778.10 0.1792
778.20 0.1791
778.30 0.1791
778.40 0.179
778.50 0.1789
778.60 0.1788
778.70 0.1787
778.80 0.1786
778.90 0.1785
779.00 0.1784
779.10 0.1783
779.20 0.1782
779.30 0.1782
779.40 0.1781
779.50 0.178
779.60 0.1779
779.70 0.1778
779.80 0.1777
779.90 0.1776
780.00 0.1775
780.10 0.1774
780.20 0.1773
780.30 0.1773
780.40 0.1772
780.50 0.1771
780.60 0.177
780.70 0.1769
780.80 0.1768
780.90 0.1767
781.00 0.1766
781.10 0.1766
781.20 0.1765
781.30 0.1764
781.40 0.1763
781.50 0.1762
781.60 0.1761
781.70 0.176
781.80 0.1759
781.90 0.1759
782.00 0.1758
782.10 0.1757
782.20 0.1756
782.30 0.1755
782.40 0.1754
782.50 0.1753
782.60 0.1752
782.70 0.1752
782.80 0.1751
782.90 0.175
783.00 0.1749
783.10 0.1748
783.20 0.1747
783.30 0.1746
783.40 0.1746
783.50 0.1745
783.60 0.1744
783.70 0.1743
783.80 0.1742
783.90 0.1741
784.00 0.174
784.10 0.1739
784.20 0.1739
784.30 0.1738
784.40 0.1737
784.50 0.1736
784.60 0.1735
784.70 0.1734
784.80 0.1733
784.90 0.1733
785.00 0.1732
785.10 0.1731
785.20 0.173
785.30 0.1729
785.40 0.1728
785.50 0.1727
785.60 0.1726
785.70 0.1726
785.80 0.1725
785.90 0.1724
786.00 0.1723
786.10 0.1722
786.20 0.1721
786.30 0.172
786.40 0.172
786.50 0.1719
786.60 0.1718
786.70 0.1717
786.80 0.1716
786.90 0.1715
787.00 0.1714
787.10 0.1714
787.20 0.1713
787.30 0.1712
787.40 0.1711
787.50 0.171
787.60 0.1709
787.70 0.1709
787.80 0.1708
787.90 0.1707
788.00 0.1706
788.10 0.1705
788.20 0.1704
788.30 0.1703
788.40 0.1703
788.50 0.1702
788.60 0.1701
788.70 0.17
788.80 0.1699
788.90 0.1698
789.00 0.1697
789.10 0.1697
789.20 0.1696
789.30 0.1695
789.40 0.1694
789.50 0.1693
789.60 0.1692
789.70 0.1692
789.80 0.1691
789.90 0.169
790.00 0.1689
790.10 0.1688
790.20 0.1687
790.30 0.1687
790.40 0.1686
790.50 0.1685
790.60 0.1684
790.70 0.1683
790.80 0.1682
790.90 0.1682
791.00 0.1681
791.10 0.168
791.20 0.1679
791.30 0.1678
791.40 0.1677
791.50 0.1677
791.60 0.1676
791.70 0.1675
791.80 0.1674
791.90 0.1673
792.00 0.1673
792.10 0.1672
792.20 0.1671
792.30 0.167
792.40 0.1669
792.50 0.1668
792.60 0.1668
792.70 0.1667
792.80 0.1666
792.90 0.1665
793.00 0.1664
793.10 0.1663
793.20 0.1663
793.30 0.1662
793.40 0.1661
793.50 0.166
793.60 0.1659
793.70 0.1659
793.80 0.1658
793.90 0.1657
794.00 0.1656
794.10 0.1655
794.20 0.1655
794.30 0.1654
794.40 0.1653
794.50 0.1652
794.60 0.1651
794.70 0.165
794.80 0.165
794.90 0.1649
795.00 0.1648
795.10 0.1647
795.20 0.1646
795.30 0.1646
795.40 0.1645
795.50 0.1644
795.60 0.1643
795.70 0.1642
795.80 0.1642
795.90 0.1641
796.00 0.164
796.10 0.1639
796.20 0.1638
796.30 0.1638
796.40 0.1637
796.50 0.1636
796.60 0.1635
796.70 0.1634
796.80 0.1633
796.90 0.1633
797.00 0.1632
797.10 0.1631
797.20 0.163
797.30 0.1629
797.40 0.1629
797.50 0.1628
797.60 0.1627
797.70 0.1626
797.80 0.1625
797.90 0.1625
798.00 0.1624
798.10 0.1623
798.20 0.1622
798.30 0.1621
798.40 0.1621
798.50 0.162
798.60 0.1619
798.70 0.1618
798.80 0.1617
798.90 0.1617
799.00 0.1616
799.10 0.1615
799.20 0.1614
799.30 0.1614
799.40 0.1613
799.50 0.1612
799.60 0.1611
799.70 0.161
799.80 0.161
799.90 0.1609
800.00 0.1608
800.10 0.1607
800.20 0.1606
800.30 0.1606
800.40 0.1605
800.50 0.1604
800.60 0.1603
800.70 0.1602
800.80 0.1602
800.90 0.1601
801.00 0.16
801.10 0.1599
801.20 0.1599
801.30 0.1598
801.40 0.1597
801.50 0.1596
801.60 0.1596
801.70 0.1595
801.80 0.1594
801.90 0.1593
802.00 0.1592
802.10 0.1592
802.20 0.1591
802.30 0.159
802.40 0.1589
802.50 0.1589
802.60 0.1588
802.70 0.1587
802.80 0.1586
802.90 0.1585
803.00 0.1585
803.10 0.1584
803.20 0.1583
803.30 0.1582
803.40 0.1582
803.50 0.1581
803.60 0.158
803.70 0.1579
803.80 0.1579
803.90 0.1578
804.00 0.1577
804.10 0.1576
804.20 0.1576
804.30 0.1575
804.40 0.1574
804.50 0.1573
804.60 0.1572
804.70 0.1572
804.80 0.1571
804.90 0.157
805.00 0.1569
805.10 0.1569
805.20 0.1568
805.30 0.1567
805.40 0.1566
805.50 0.1566
805.60 0.1565
805.70 0.1564
805.80 0.1563
805.90 0.1563
806.00 0.1562
806.10 0.1561
806.20 0.156
806.30 0.156
806.40 0.1559
806.50 0.1558
806.60 0.1557
806.70 0.1556
806.80 0.1556
806.90 0.1555
807.00 0.1554
807.10 0.1553
807.20 0.1553
807.30 0.1552
807.40 0.1551
807.50 0.155
807.60 0.155
807.70 0.1549
807.80 0.1548
807.90 0.1547
808.00 0.1547
808.10 0.1546
808.20 0.1545
808.30 0.1544
808.40 0.1544
808.50 0.1543
808.60 0.1542
808.70 0.1541
808.80 0.1541
808.90 0.154
809.00 0.1539
809.10 0.1538
809.20 0.1538
809.30 0.1537
809.40 0.1536
809.50 0.1535
809.60 0.1535
809.70 0.1534
809.80 0.1533
809.90 0.1532
810.00 0.1532
810.10 0.1531
810.20 0.153
810.30 0.1529
810.40 0.1529
810.50 0.1528
810.60 0.1527
810.70 0.1527
810.80 0.1526
810.90 0.1525
811.00 0.1524
811.10 0.1524
811.20 0.1523
811.30 0.1522
811.40 0.1521
811.50 0.1521
811.60 0.152
811.70 0.1519
811.80 0.1519
811.90 0.1518
812.00 0.1517
812.10 0.1516
812.20 0.1516
812.30 0.1515
812.40 0.1514
812.50 0.1513
812.60 0.1513
812.70 0.1512
812.80 0.1511
812.90 0.1511
813.00 0.151
813.10 0.1509
813.20 0.1508
813.30 0.1508
813.40 0.1507
813.50 0.1506
813.60 0.1505
813.70 0.1505
813.80 0.1504
813.90 0.1503
814.00 0.1503
814.10 0.1502
814.20 0.1501
814.30 0.15
814.40 0.15
814.50 0.1499
814.60 0.1498
814.70 0.1498
814.80 0.1497
814.90 0.1496
815.00 0.1495
815.10 0.1495
815.20 0.1494
815.30 0.1493
815.40 0.1493
815.50 0.1492
815.60 0.1491
815.70 0.149
815.80 0.149
815.90 0.1489
816.00 0.1488
816.10 0.1488
816.20 0.1487
816.30 0.1486
816.40 0.1485
816.50 0.1485
816.60 0.1484
816.70 0.1483
816.80 0.1483
816.90 0.1482
817.00 0.1481
817.10 0.148
817.20 0.148
817.30 0.1479
817.40 0.1478
817.50 0.1478
817.60 0.1477
817.70 0.1476
817.80 0.1475
817.90 0.1475
818.00 0.1474
818.10 0.1473
818.20 0.1473
818.30 0.1472
818.40 0.1471
818.50 0.147
818.60 0.147
818.70 0.1469
818.80 0.1468
818.90 0.1468
819.00 0.1467
819.10 0.1466
819.20 0.1466
819.30 0.1465
819.40 0.1464
819.50 0.1463
819.60 0.1463
819.70 0.1462
819.80 0.1461
819.90 0.1461
820.00 0.146
820.10 0.1459
820.20 0.1459
820.30 0.1458
820.40 0.1457
820.50 0.1456
820.60 0.1456
820.70 0.1455
820.80 0.1454
820.90 0.1454
821.00 0.1453
821.10 0.1452
821.20 0.1452
821.30 0.1451
821.40 0.145
821.50 0.145
821.60 0.1449
821.70 0.1448
821.80 0.1447
821.90 0.1447
822.00 0.1446
822.10 0.1445
822.20 0.1445
822.30 0.1444
822.40 0.1443
822.50 0.1443
822.60 0.1442
822.70 0.1441
822.80 0.1441
822.90 0.144
823.00 0.1439
823.10 0.1439
823.20 0.1438
823.30 0.1437
823.40 0.1437
823.50 0.1436
823.60 0.1435
823.70 0.1434
823.80 0.1434
823.90 0.1433
824.00 0.1432
824.10 0.1432
824.20 0.1431
824.30 0.143
824.40 0.143
824.50 0.1429
824.60 0.1428
824.70 0.1428
824.80 0.1427
824.90 0.1426
825.00 0.1426
825.10 0.1425
825.20 0.1424
825.30 0.1424
825.40 0.1423
825.50 0.1422
825.60 0.1422
825.70 0.1421
825.80 0.142
825.90 0.142
826.00 0.1419
826.10 0.1418
826.20 0.1418
826.30 0.1417
826.40 0.1416
826.50 0.1416
826.60 0.1415
826.70 0.1414
826.80 0.1414
826.90 0.1413
827.00 0.1412
827.10 0.1412
827.20 0.1411
827.30 0.141
827.40 0.141
827.50 0.1409
827.60 0.1408
827.70 0.1408
827.80 0.1407
827.90 0.1406
828.00 0.1406
828.10 0.1405
828.20 0.1404
828.30 0.1404
828.40 0.1403
828.50 0.1402
828.60 0.1402
828.70 0.1401
828.80 0.14
828.90 0.14
829.00 0.1399
829.10 0.1398
829.20 0.1398
829.30 0.1397
829.40 0.1396
829.50 0.1396
829.60 0.1395
829.70 0.1394
829.80 0.1394
829.90 0.1393
830.00 0.1392
830.10 0.1392
830.20 0.1391
830.30 0.139
830.40 0.139
830.50 0.1389
830.60 0.1388
830.70 0.1388
830.80 0.1387
830.90 0.1386
831.00 0.1386
831.10 0.1385
831.20 0.1384
831.30 0.1384
831.40 0.1383
831.50 0.1383
831.60 0.1382
831.70 0.1381
831.80 0.1381
831.90 0.138
832.00 0.1379
832.10 0.1379
832.20 0.1378
832.30 0.1377
832.40 0.1377
832.50 0.1376
832.60 0.1375
832.70 0.1375
832.80 0.1374
832.90 0.1373
833.00 0.1373
833.10 0.1372
833.20 0.1372
833.30 0.1371
833.40 0.137
833.50 0.137
833.60 0.1369
833.70 0.1368
833.80 0.1368
833.90 0.1367
834.00 0.1366
834.10 0.1366
834.20 0.1365
834.30 0.1364
834.40 0.1364
834.50 0.1363
834.60 0.1363
834.70 0.1362
834.80 0.1361
834.90 0.1361
835.00 0.136
835.10 0.1359
835.20 0.1359
835.30 0.1358
835.40 0.1357
835.50 0.1357
835.60 0.1356
835.70 0.1356
835.80 0.1355
835.90 0.1354
836.00 0.1354
836.10 0.1353
836.20 0.1352
836.30 0.1352
836.40 0.1351
836.50 0.135
836.60 0.135
836.70 0.1349
836.80 0.1349
836.90 0.1348
837.00 0.1347
837.10 0.1347
837.20 0.1346
837.30 0.1345
837.40 0.1345
837.50 0.1344
837.60 0.1344
837.70 0.1343
837.80 0.1342
837.90 0.1342
838.00 0.1341
838.10 0.134
838.20 0.134
838.30 0.1339
838.40 0.1339
838.50 0.1338
838.60 0.1337
838.70 0.1337
838.80 0.1336
838.90 0.1335
839.00 0.1335
839.10 0.1334
839.20 0.1334
839.30 0.1333
839.40 0.1332
839.50 0.1332
839.60 0.1331
839.70 0.133
839.80 0.133
839.90 0.1329
840.00 0.1329
840.10 0.1328
840.20 0.1327
840.30 0.1327
840.40 0.1326
840.50 0.1325
840.60 0.1325
840.70 0.1324
840.80 0.1324
840.90 0.1323
841.00 0.1322
841.10 0.1322
841.20 0.1321
841.30 0.1321
841.40 0.132
841.50 0.1319
841.60 0.1319
841.70 0.1318
841.80 0.1317
841.90 0.1317
842.00 0.1316
842.10 0.1316
842.20 0.1315
842.30 0.1314
842.40 0.1314
842.50 0.1313
842.60 0.1313
842.70 0.1312
842.80 0.1311
842.90 0.1311
843.00 0.131
843.10 0.131
843.20 0.1309
843.30 0.1308
843.40 0.1308
843.50 0.1307
843.60 0.1306
843.70 0.1306
843.80 0.1305
843.90 0.1305
844.00 0.1304
844.10 0.1303
844.20 0.1303
844.30 0.1302
844.40 0.1302
844.50 0.1301
844.60 0.13
844.70 0.13
844.80 0.1299
844.90 0.1299
845.00 0.1298
845.10 0.1297
845.20 0.1297
845.30 0.1296
845.40 0.1296
845.50 0.1295
845.60 0.1294
845.70 0.1294
845.80 0.1293
845.90 0.1293
846.00 0.1292
846.10 0.1291
846.20 0.1291
846.30 0.129
846.40 0.129
846.50 0.1289
846.60 0.1288
846.70 0.1288
846.80 0.1287
846.90 0.1287
847.00 0.1286
847.10 0.1285
847.20 0.1285
847.30 0.1284
847.40 0.1284
847.50 0.1283
847.60 0.1282
847.70 0.1282
847.80 0.1281
847.90 0.1281
848.00 0.128
848.10 0.128
848.20 0.1279
848.30 0.1278
848.40 0.1278
848.50 0.1277
848.60 0.1277
848.70 0.1276
848.80 0.1275
848.90 0.1275
849.00 0.1274
849.10 0.1274
849.20 0.1273
849.30 0.1272
849.40 0.1272
849.50 0.1271
849.60 0.1271
849.70 0.127
849.80 0.127
849.90 0.1269
850.00 0.1268
850.10 0.1268
850.20 0.1267
850.30 0.1267
850.40 0.1266
850.50 0.1265
850.60 0.1265
850.70 0.1264
850.80 0.1264
850.90 0.1263
851.00 0.1263
851.10 0.1262
851.20 0.1261
851.30 0.1261
851.40 0.126
851.50 0.126
851.60 0.1259
851.70 0.1258
851.80 0.1258
851.90 0.1257
852.00 0.1257
852.10 0.1256
852.20 0.1256
852.30 0.1255
852.40 0.1254
852.50 0.1254
852.60 0.1253
852.70 0.1253
852.80 0.1252
852.90 0.1252
853.00 0.1251
853.10 0.125
853.20 0.125
853.30 0.1249
853.40 0.1249
853.50 0.1248
853.60 0.1247
853.70 0.1247
853.80 0.1246
853.90 0.1246
854.00 0.1245
854.10 0.1245
854.20 0.1244
854.30 0.1244
854.40 0.1243
854.50 0.1242
854.60 0.1242
854.70 0.1241
854.80 0.1241
854.90 0.124
855.00 0.124
855.10 0.1239
855.20 0.1238
855.30 0.1238
855.40 0.1237
855.50 0.1237
855.60 0.1236
855.70 0.1236
855.80 0.1235
855.90 0.1234
856.00 0.1234
856.10 0.1233
856.20 0.1233
856.30 0.1232
856.40 0.1232
856.50 0.1231
856.60 0.123
856.70 0.123
856.80 0.1229
856.90 0.1229
857.00 0.1228
857.10 0.1228
857.20 0.1227
857.30 0.1227
857.40 0.1226
857.50 0.1225
857.60 0.1225
857.70 0.1224
857.80 0.1224
857.90 0.1223
858.00 0.1223
858.10 0.1222
858.20 0.1222
858.30 0.1221
858.40 0.122
858.50 0.122
858.60 0.1219
858.70 0.1219
858.80 0.1218
858.90 0.1218
859.00 0.1217
859.10 0.1217
859.20 0.1216
859.30 0.1215
859.40 0.1215
859.50 0.1214
859.60 0.1214
859.70 0.1213
859.80 0.1213
859.90 0.1212
860.00 0.1212
860.10 0.1211
860.20 0.121
860.30 0.121
860.40 0.1209
860.50 0.1209
860.60 0.1208
860.70 0.1208
860.80 0.1207
860.90 0.1207
861.00 0.1206
861.10 0.1206
861.20 0.1205
861.30 0.1204
861.40 0.1204
861.50 0.1203
861.60 0.1203
861.70 0.1202
861.80 0.1202
861.90 0.1201
862.00 0.1201
862.10 0.12
862.20 0.12
862.30 0.1199
862.40 0.1198
862.50 0.1198
862.60 0.1197
862.70 0.1197
862.80 0.1196
862.90 0.1196
863.00 0.1195
863.10 0.1195
863.20 0.1194
863.30 0.1194
863.40 0.1193
863.50 0.1192
863.60 0.1192
863.70 0.1191
863.80 0.1191
863.90 0.119
864.00 0.119
864.10 0.1189
864.20 0.1189
864.30 0.1188
864.40 0.1188
864.50 0.1187
864.60 0.1187
864.70 0.1186
864.80 0.1185
864.90 0.1185
865.00 0.1184
865.10 0.1184
865.20 0.1183
865.30 0.1183
865.40 0.1182
865.50 0.1182
865.60 0.1181
865.70 0.1181
865.80 0.118
865.90 0.118
866.00 0.1179
866.10 0.1178
866.20 0.1178
866.30 0.1177
866.40 0.1177
866.50 0.1176
866.60 0.1176
866.70 0.1175
866.80 0.1175
866.90 0.1174
867.00 0.1174
867.10 0.1173
867.20 0.1173
867.30 0.1172
867.40 0.1172
867.50 0.1171
867.60 0.117
867.70 0.117
867.80 0.1169
867.90 0.1169
868.00 0.1168
868.10 0.1168
868.20 0.1167
868.30 0.1167
868.40 0.1166
868.50 0.1166
868.60 0.1165
868.70 0.1165
868.80 0.1164
868.90 0.1164
869.00 0.1163
869.10 0.1163
869.20 0.1162
869.30 0.1162
869.40 0.1161
869.50 0.1161
869.60 0.116
869.70 0.1159
869.80 0.1159
869.90 0.1158
870.00 0.1158
870.10 0.1157
870.20 0.1157
870.30 0.1156
870.40 0.1156
870.50 0.1155
870.60 0.1155
870.70 0.1154
870.80 0.1154
870.90 0.1153
871.00 0.1153
871.10 0.1152
871.20 0.1152
871.30 0.1151
871.40 0.1151
871.50 0.115
871.60 0.115
871.70 0.1149
871.80 0.1149
871.90 0.1148
872.00 0.1148
872.10 0.1147
872.20 0.1146
872.30 0.1146
872.40 0.1145
872.50 0.1145
872.60 0.1144
872.70 0.1144
872.80 0.1143
872.90 0.1143
873.00 0.1142
873.10 0.1142
873.20 0.1141
873.30 0.1141
873.40 0.114
873.50 0.114
873.60 0.1139
873.70 0.1139
873.80 0.1138
873.90 0.1138
874.00 0.1137
874.10 0.1137
874.20 0.1136
874.30 0.1136
874.40 0.1135
874.50 0.1135
874.60 0.1134
874.70 0.1134
874.80 0.1133
874.90 0.1133
875.00 0.1132
875.10 0.1132
875.20 0.1131
875.30 0.1131
875.40 0.113
875.50 0.113
875.60 0.1129
875.70 0.1129
875.80 0.1128
875.90 0.1128
876.00 0.1127
876.10 0.1127
876.20 0.1126
876.30 0.1126
876.40 0.1125
876.50 0.1125
876.60 0.1124
876.70 0.1124
876.80 0.1123
876.90 0.1123
877.00 0.1122
877.10 0.1122
877.20 0.1121
877.30 0.1121
877.40 0.112
877.50 0.112
877.60 0.1119
877.70 0.1119
877.80 0.1118
877.90 0.1118
878.00 0.1117
878.10 0.1117
878.20 0.1116
878.30 0.1116
878.40 0.1115
878.50 0.1115
878.60 0.1114
878.70 0.1114
878.80 0.1113
878.90 0.1113
879.00 0.1112
879.10 0.1112
879.20 0.1111
879.30 0.1111
879.40 0.111
879.50 0.111
879.60 0.1109
879.70 0.1109
879.80 0.1108
879.90 0.1108
880.00 0.1107
880.10 0.1107
880.20 0.1106
880.30 0.1106
880.40 0.1105
880.50 0.1105
880.60 0.1104
880.70 0.1104
880.80 0.1103
880.90 0.1103
881.00 0.1102
881.10 0.1102
881.20 0.1101
881.30 0.1101
881.40 0.11
881.50 0.11
881.60 0.1099
881.70 0.1099
881.80 0.1098
881.90 0.1098
882.00 0.1097
882.10 0.1097
882.20 0.1096
882.30 0.1096
882.40 0.1095
882.50 0.1095
882.60 0.1094
882.70 0.1094
882.80 0.1093
882.90 0.1093
883.00 0.1093
883.10 0.1092
883.20 0.1092
883.30 0.1091
883.40 0.1091
883.50 0.109
883.60 0.109
883.70 0.1089
883.80 0.1089
883.90 0.1088
884.00 0.1088
884.10 0.1087
884.20 0.1087
884.30 0.1086
884.40 0.1086
884.50 0.1085
884.60 0.1085
884.70 0.1084
884.80 0.1084
884.90 0.1083
885.00 0.1083
885.10 0.1082
885.20 0.1082
885.30 0.1081
885.40 0.1081
885.50 0.108
885.60 0.108
885.70 0.108
885.80 0.1079
885.90 0.1079
886.00 0.1078
886.10 0.1078
886.20 0.1077
886.30 0.1077
886.40 0.1076
886.50 0.1076
886.60 0.1075
886.70 0.1075
886.80 0.1074
886.90 0.1074
887.00 0.1073
887.10 0.1073
887.20 0.1072
887.30 0.1072
887.40 0.1071
887.50 0.1071
887.60 0.107
887.70 0.107
887.80 0.107
887.90 0.1069
888.00 0.1069
888.10 0.1068
888.20 0.1068
888.30 0.1067
888.40 0.1067
888.50 0.1066
888.60 0.1066
888.70 0.1065
888.80 0.1065
888.90 0.1064
889.00 0.1064
889.10 0.1063
889.20 0.1063
889.30 0.1062
889.40 0.1062
889.50 0.1062
889.60 0.1061
889.70 0.1061
889.80 0.106
889.90 0.106
890.00 0.1059
890.10 0.1059
890.20 0.1058
890.30 0.1058
890.40 0.1057
890.50 0.1057
890.60 0.1056
890.70 0.1056
890.80 0.1055
890.90 0.1055
891.00 0.1055
891.10 0.1054
891.20 0.1054
891.30 0.1053
891.40 0.1053
891.50 0.1052
891.60 0.1052
891.70 0.1051
891.80 0.1051
891.90 0.105
892.00 0.105
892.10 0.1049
892.20 0.1049
892.30 0.1049
892.40 0.1048
892.50 0.1048
892.60 0.1047
892.70 0.1047
892.80 0.1046
892.90 0.1046
893.00 0.1045
893.10 0.1045
893.20 0.1044
893.30 0.1044
893.40 0.1044
893.50 0.1043
893.60 0.1043
893.70 0.1042
893.80 0.1042
893.90 0.1041
894.00 0.1041
894.10 0.104
894.20 0.104
894.30 0.1039
894.40 0.1039
894.50 0.1038
894.60 0.1038
894.70 0.1038
894.80 0.1037
894.90 0.1037
895.00 0.1036
895.10 0.1036
895.20 0.1035
895.30 0.1035
895.40 0.1034
895.50 0.1034
895.60 0.1034
895.70 0.1033
895.80 0.1033
895.90 0.1032
896.00 0.1032
896.10 0.1031
896.20 0.1031
896.30 0.103
896.40 0.103
896.50 0.1029
896.60 0.1029
896.70 0.1029
896.80 0.1028
896.90 0.1028
897.00 0.1027
897.10 0.1027
897.20 0.1026
897.30 0.1026
897.40 0.1025
897.50 0.1025
897.60 0.1025
897.70 0.1024
897.80 0.1024
897.90 0.1023
898.00 0.1023
898.10 0.1022
898.20 0.1022
898.30 0.1021
898.40 0.1021
898.50 0.1021
898.60 0.102
898.70 0.102
898.80 0.1019
898.90 0.1019
899.00 0.1018
899.10 0.1018
899.20 0.1017
899.30 0.1017
899.40 0.1017
899.50 0.1016
899.60 0.1016
899.70 0.1015
899.80 0.1015
899.90 0.1014
900.00 0.1014
900.10 0.1013
900.20 0.1013
900.30 0.1013
900.40 0.1012
900.50 0.1012
900.60 0.1011
900.70 0.1011
900.80 0.101
900.90 0.101
901.00 0.1009
901.10 0.1009
901.20 0.1009
901.30 0.1008
901.40 0.1008
901.50 0.1007
901.60 0.1007
901.70 0.1006
901.80 0.1006
901.90 0.1006
902.00 0.1005
902.10 0.1005
902.20 0.1004
902.30 0.1004
902.40 0.1003
902.50 0.1003
902.60 0.1002
902.70 0.1002
902.80 0.1002
902.90 0.1001
903.00 0.1001
903.10 0.1
903.20 0.09999
903.30 0.09994
903.40 0.0999
903.50 0.09986
903.60 0.09981
903.70 0.09977
903.80 0.09973
903.90 0.09968
904.00 0.09964
904.10 0.0996
904.20 0.09955
904.30 0.09951
904.40 0.09947
904.50 0.09942
904.60 0.09938
904.70 0.09934
904.80 0.0993
904.90 0.09925
905.00 0.09921
905.10 0.09917
905.20 0.09912
905.30 0.09908
905.40 0.09904
905.50 0.09899
905.60 0.09895
905.70 0.09891
905.80 0.09887
905.90 0.09882
906.00 0.09878
906.10 0.09874
906.20 0.09869
906.30 0.09865
906.40 0.09861
906.50 0.09857
906.60 0.09852
906.70 0.09848
906.80 0.09844
906.90 0.09839
907.00 0.09835
907.10 0.09831
907.20 0.09827
907.30 0.09823
907.40 0.09818
907.50 0.09814
907.60 0.0981
907.70 0.09806
907.80 0.09801
907.90 0.09797
908.00 0.09793
908.10 0.09789
908.20 0.09785
908.30 0.0978
908.40 0.09776
908.50 0.09772
908.60 0.09768
908.70 0.09764
908.80 0.09759
908.90 0.09755
909.00 0.09751
909.10 0.09747
909.20 0.09743
909.30 0.09738
909.40 0.09734
909.50 0.0973
909.60 0.09726
909.70 0.09722
909.80 0.09717
909.90 0.09713
910.00 0.09709
910.10 0.09705
910.20 0.09701
910.30 0.09696
910.40 0.09692
910.50 0.09688
910.60 0.09684
910.70 0.0968
910.80 0.09676
910.90 0.09671
911.00 0.09667
911.10 0.09663
911.20 0.09659
911.30 0.09655
911.40 0.09651
911.50 0.09646
911.60 0.09642
911.70 0.09638
911.80 0.09634
911.90 0.0963
912.00 0.09626
912.10 0.09622
912.20 0.09617
912.30 0.09613
912.40 0.09609
912.50 0.09605
912.60 0.09601
912.70 0.09597
912.80 0.09593
912.90 0.09589
913.00 0.09585
913.10 0.09581
913.20 0.09576
913.30 0.09572
913.40 0.09568
913.50 0.09564
913.60 0.0956
913.70 0.09556
913.80 0.09552
913.90 0.09548
914.00 0.09544
914.10 0.0954
914.20 0.09536
914.30 0.09532
914.40 0.09527
914.50 0.09523
914.60 0.09519
914.70 0.09515
914.80 0.09511
914.90 0.09507
915.00 0.09503
915.10 0.09499
915.20 0.09495
915.30 0.09491
915.40 0.09487
915.50 0.09483
915.60 0.09479
915.70 0.09475
915.80 0.09471
915.90 0.09467
916.00 0.09462
916.10 0.09458
916.20 0.09454
916.30 0.0945
916.40 0.09446
916.50 0.09442
916.60 0.09438
916.70 0.09434
916.80 0.0943
916.90 0.09426
917.00 0.09422
917.10 0.09418
917.20 0.09414
917.30 0.0941
917.40 0.09406
917.50 0.09402
917.60 0.09398
917.70 0.09394
917.80 0.0939
917.90 0.09386
918.00 0.09382
918.10 0.09378
918.20 0.09374
918.30 0.0937
918.40 0.09366
918.50 0.09362
918.60 0.09358
918.70 0.09354
918.80 0.0935
918.90 0.09346
919.00 0.09342
919.10 0.09338
919.20 0.09335
919.30 0.09331
919.40 0.09327
919.50 0.09323
919.60 0.09319
919.70 0.09315
919.80 0.09311
919.90 0.09307
920.00 0.09303
920.10 0.09299
920.20 0.09295
920.30 0.09291
920.40 0.09287
920.50 0.09283
920.60 0.09279
920.70 0.09275
920.80 0.09271
920.90 0.09267
921.00 0.09263
921.10 0.0926
921.20 0.09256
921.30 0.09252
921.40 0.09248
921.50 0.09244
921.60 0.0924
921.70 0.09236
921.80 0.09232
921.90 0.09228
922.00 0.09224
922.10 0.0922
922.20 0.09216
922.30 0.09212
922.40 0.09209
922.50 0.09205
922.60 0.09201
922.70 0.09197
922.80 0.09193
922.90 0.09189
923.00 0.09185
923.10 0.09181
923.20 0.09177
923.30 0.09174
923.40 0.0917
923.50 0.09166
923.60 0.09162
923.70 0.09158
923.80 0.09154
923.90 0.0915
924.00 0.09146
924.10 0.09142
924.20 0.09139
924.30 0.09135
924.40 0.09131
924.50 0.09127
924.60 0.09123
924.70 0.09119
924.80 0.09115
924.90 0.09111
925.00 0.09108
925.10 0.09104
925.20 0.091
925.30 0.09096
925.40 0.09092
925.50 0.09088
925.60 0.09084
925.70 0.09081
925.80 0.09077
925.90 0.09073
926.00 0.09069
926.10 0.09065
926.20 0.09061
926.30 0.09057
926.40 0.09054
926.50 0.0905
926.60 0.09046
926.70 0.09042
926.80 0.09038
926.90 0.09034
927.00 0.09031
927.10 0.09027
927.20 0.09023
927.30 0.09019
927.40 0.09015
927.50 0.09012
927.60 0.09008
927.70 0.09004
927.80 0.09
927.90 0.08996
928.00 0.08993
928.10 0.08989
928.20 0.08985
928.30 0.08981
928.40 0.08977
928.50 0.08974
928.60 0.0897
928.70 0.08966
928.80 0.08962
928.90 0.08959
929.00 0.08955
929.10 0.08951
929.20 0.08947
929.30 0.08943
929.40 0.0894
929.50 0.08936
929.60 0.08932
929.70 0.08928
929.80 0.08925
929.90 0.08921
930.00 0.08917
930.10 0.08913
930.20 0.0891
930.30 0.08906
930.40 0.08902
930.50 0.08898
930.60 0.08895
930.70 0.08891
930.80 0.08887
930.90 0.08883
931.00 0.0888
931.10 0.08876
931.20 0.08872
931.30 0.08868
931.40 0.08865
931.50 0.08861
931.60 0.08857
931.70 0.08853
931.80 0.0885
931.90 0.08846
932.00 0.08842
932.10 0.08838
932.20 0.08835
932.30 0.08831
932.40 0.08827
932.50 0.08824
932.60 0.0882
932.70 0.08816
932.80 0.08813
932.90 0.08809
933.00 0.08805
933.10 0.08801
933.20 0.08798
933.30 0.08794
933.40 0.0879
933.50 0.08787
933.60 0.08783
933.70 0.08779
933.80 0.08776
933.90 0.08772
934.00 0.08768
934.10 0.08765
934.20 0.08761
934.30 0.08757
934.40 0.08754
934.50 0.0875
934.60 0.08746
934.70 0.08743
934.80 0.08739
934.90 0.08735
935.00 0.08732
935.10 0.08728
935.20 0.08724
935.30 0.08721
935.40 0.08717
935.50 0.08713
935.60 0.0871
935.70 0.08706
935.80 0.08702
935.90 0.08699
936.00 0.08695
936.10 0.08692
936.20 0.08688
936.30 0.08684
936.40 0.08681
936.50 0.08677
936.60 0.08673
936.70 0.0867
936.80 0.08666
936.90 0.08662
937.00 0.08659
937.10 0.08655
937.20 0.08652
937.30 0.08648
937.40 0.08644
937.50 0.08641
937.60 0.08637
937.70 0.08634
937.80 0.0863
937.90 0.08626
938.00 0.08623
938.10 0.08619
938.20 0.08616
938.30 0.08612
938.40 0.08608
938.50 0.08605
938.60 0.08601
938.70 0.08598
938.80 0.08594
938.90 0.0859
939.00 0.08587
939.10 0.08583
939.20 0.0858
939.30 0.08576
939.40 0.08573
939.50 0.08569
939.60 0.08565
939.70 0.08562
939.80 0.08558
939.90 0.08555
940.00 0.08551
940.10 0.08548
940.20 0.08544
940.30 0.08541
940.40 0.08537
940.50 0.08533
940.60 0.0853
940.70 0.08526
940.80 0.08523
940.90 0.08519
941.00 0.08516
941.10 0.08512
941.20 0.08509
941.30 0.08505
941.40 0.08502
941.50 0.08498
941.60 0.08494
941.70 0.08491
941.80 0.08487
941.90 0.08484
942.00 0.0848
942.10 0.08477
942.20 0.08473
942.30 0.0847
942.40 0.08466
942.50 0.08463
942.60 0.08459
942.70 0.08456
942.80 0.08452
942.90 0.08449
943.00 0.08445
943.10 0.08442
943.20 0.08438
943.30 0.08435
943.40 0.08431
943.50 0.08428
943.60 0.08424
943.70 0.08421
943.80 0.08417
943.90 0.08414
944.00 0.0841
944.10 0.08407
944.20 0.08403
944.30 0.084
944.40 0.08396
944.50 0.08393
944.60 0.08389
944.70 0.08386
944.80 0.08382
944.90 0.08379
945.00 0.08376
945.10 0.08372
945.20 0.08369
945.30 0.08365
945.40 0.08362
945.50 0.08358
945.60 0.08355
945.70 0.08351
945.80 0.08348
945.90 0.08344
946.00 0.08341
946.10 0.08338
946.20 0.08334
946.30 0.08331
946.40 0.08327
946.50 0.08324
946.60 0.0832
946.70 0.08317
946.80 0.08313
946.90 0.0831
947.00 0.08307
947.10 0.08303
947.20 0.083
947.30 0.08296
947.40 0.08293
947.50 0.0829
947.60 0.08286
947.70 0.08283
947.80 0.08279
947.90 0.08276
948.00 0.08272
948.10 0.08269
948.20 0.08266
948.30 0.08262
948.40 0.08259
948.50 0.08255
948.60 0.08252
948.70 0.08249
948.80 0.08245
948.90 0.08242
949.00 0.08239
949.10 0.08235
949.20 0.08232
949.30 0.08228
949.40 0.08225
949.50 0.08222
949.60 0.08218
949.70 0.08215
949.80 0.08212
949.90 0.08208
950.00 0.08205
950.10 0.08201
950.20 0.08198
950.30 0.08195
950.40 0.08191
950.50 0.08188
950.60 0.08185
950.70 0.08181
950.80 0.08178
950.90 0.08175
951.00 0.08171
951.10 0.08168
951.20 0.08165
951.30 0.08161
951.40 0.08158
951.50 0.08155
951.60 0.08151
951.70 0.08148
951.80 0.08145
951.90 0.08141
952.00 0.08138
952.10 0.08135
952.20 0.08131
952.30 0.08128
952.40 0.08125
952.50 0.08121
952.60 0.08118
952.70 0.08115
952.80 0.08111
952.90 0.08108
953.00 0.08105
953.10 0.08102
953.20 0.08098
953.30 0.08095
953.40 0.08092
953.50 0.08088
953.60 0.08085
953.70 0.08082
953.80 0.08079
953.90 0.08075
954.00 0.08072
954.10 0.08069
954.20 0.08066
954.30 0.08062
954.40 0.08059
954.50 0.08056
954.60 0.08052
954.70 0.08049
954.80 0.08046
954.90 0.08042
955.00 0.08039
955.10 0.08036
955.20 0.08032
955.30 0.08029
955.40 0.08026
955.50 0.08023
955.60 0.08019
955.70 0.08016
955.80 0.08013
955.90 0.08009
956.00 0.08006
956.10 0.08003
956.20 0.07999
956.30 0.07996
956.40 0.07993
956.50 0.07989
956.60 0.07986
956.70 0.07983
956.80 0.0798
956.90 0.07976
957.00 0.07973
957.10 0.0797
957.20 0.07966
957.30 0.07963
957.40 0.0796
957.50 0.07957
957.60 0.07953
957.70 0.0795
957.80 0.07947
957.90 0.07944
958.00 0.0794
958.10 0.07937
958.20 0.07934
958.30 0.07931
958.40 0.07927
958.50 0.07924
958.60 0.07921
958.70 0.07918
958.80 0.07914
958.90 0.07911
959.00 0.07908
959.10 0.07905
959.20 0.07901
959.30 0.07898
959.40 0.07895
959.50 0.07892
959.60 0.07889
959.70 0.07885
959.80 0.07882
959.90 0.07879
960.00 0.07876
960.10 0.07872
960.20 0.07869
960.30 0.07866
960.40 0.07863
960.50 0.0786
960.60 0.07856
960.70 0.07853
960.80 0.0785
960.90 0.07847
961.00 0.07844
961.10 0.0784
961.20 0.07837
961.30 0.07834
961.40 0.07831
961.50 0.07828
961.60 0.07824
961.70 0.07821
961.80 0.07818
961.90 0.07815
962.00 0.07812
962.10 0.07808
962.20 0.07805
962.30 0.07802
962.40 0.07799
962.50 0.07796
962.60 0.07793
962.70 0.07789
962.80 0.07786
962.90 0.07783
963.00 0.0778
963.10 0.07777
963.20 0.07774
963.30 0.0777
963.40 0.07767
963.50 0.07764
963.60 0.07761
963.70 0.07758
963.80 0.07755
963.90 0.07752
964.00 0.07748
964.10 0.07745
964.20 0.07742
964.30 0.07739
964.40 0.07736
964.50 0.07733
964.60 0.0773
964.70 0.07726
964.80 0.07723
964.90 0.0772
965.00 0.07717
965.10 0.07714
965.20 0.07711
965.30 0.07708
965.40 0.07705
965.50 0.07701
965.60 0.07698
965.70 0.07695
965.80 0.07692
965.90 0.07689
966.00 0.07686
966.10 0.07683
966.20 0.0768
966.30 0.07677
966.40 0.07673
966.50 0.0767
966.60 0.07667
966.70 0.07664
966.80 0.07661
966.90 0.07658
967.00 0.07655
967.10 0.07652
967.20 0.07649
967.30 0.07646
967.40 0.07642
967.50 0.07639
967.60 0.07636
967.70 0.07633
967.80 0.0763
967.90 0.07627
968.00 0.07624
968.10 0.07621
968.20 0.07618
968.30 0.07615
968.40 0.07612
968.50 0.07609
968.60 0.07605
968.70 0.07602
968.80 0.07599
968.90 0.07596
969.00 0.07593
969.10 0.0759
969.20 0.07587
969.30 0.07584
969.40 0.07581
969.50 0.07578
969.60 0.07575
969.70 0.07572
969.80 0.07569
969.90 0.07566
970.00 0.07563
970.10 0.0756
970.20 0.07556
970.30 0.07553
970.40 0.0755
970.50 0.07547
970.60 0.07544
970.70 0.07541
970.80 0.07538
970.90 0.07535
971.00 0.07532
971.10 0.07529
971.20 0.07526
971.30 0.07523
971.40 0.0752
971.50 0.07517
971.60 0.07514
971.70 0.07511
971.80 0.07508
971.90 0.07505
972.00 0.07502
972.10 0.07499
972.20 0.07496
972.30 0.07493
972.40 0.0749
972.50 0.07487
972.60 0.07484
972.70 0.07481
972.80 0.07478
972.90 0.07475
973.00 0.07472
973.10 0.07469
973.20 0.07466
973.30 0.07463
973.40 0.0746
973.50 0.07457
973.60 0.07454
973.70 0.07451
973.80 0.07448
973.90 0.07445
974.00 0.07442
974.10 0.07439
974.20 0.07436
974.30 0.07433
974.40 0.0743
974.50 0.07427
974.60 0.07424
974.70 0.07421
974.80 0.07418
974.90 0.07415
975.00 0.07412
975.10 0.07409
975.20 0.07406
975.30 0.07403
975.40 0.074
975.50 0.07397
975.60 0.07394
975.70 0.07391
975.80 0.07388
975.90 0.07385
976.00 0.07382
976.10 0.07379
976.20 0.07376
976.30 0.07373
976.40 0.0737
976.50 0.07367
976.60 0.07364
976.70 0.07361
976.80 0.07358
976.90 0.07355
977.00 0.07352
977.10 0.07349
977.20 0.07346
977.30 0.07343
977.40 0.07341
977.50 0.07338
977.60 0.07335
977.70 0.07332
977.80 0.07329
977.90 0.07326
978.00 0.07323
978.10 0.0732
978.20 0.07317
978.30 0.07314
978.40 0.07311
978.50 0.07308
978.60 0.07305
978.70 0.07302
978.80 0.07299
978.90 0.07296
979.00 0.07294
979.10 0.07291
979.20 0.07288
979.30 0.07285
979.40 0.07282
979.50 0.07279
979.60 0.07276
979.70 0.07273
979.80 0.0727
979.90 0.07267
980.00 0.07264
980.10 0.07261
980.20 0.07258
980.30 0.07256
980.40 0.07253
980.50 0.0725
980.60 0.07247
980.70 0.07244
980.80 0.07241
980.90 0.07238
981.00 0.07235
981.10 0.07232
981.20 0.07229
981.30 0.07226
981.40 0.07224
981.50 0.07221
981.60 0.07218
981.70 0.07215
981.80 0.07212
981.90 0.07209
982.00 0.07206
982.10 0.07203
982.20 0.072
982.30 0.07197
982.40 0.07195
982.50 0.07192
982.60 0.07189
982.70 0.07186
982.80 0.07183
982.90 0.0718
983.00 0.07177
983.10 0.07174
983.20 0.07172
983.30 0.07169
983.40 0.07166
983.50 0.07163
983.60 0.0716
983.70 0.07157
983.80 0.07154
983.90 0.07151
984.00 0.07149
984.10 0.07146
984.20 0.07143
984.30 0.0714
984.40 0.07137
984.50 0.07134
984.60 0.07131
984.70 0.07129
984.80 0.07126
984.90 0.07123
985.00 0.0712
985.10 0.07117
985.20 0.07114
985.30 0.07111
985.40 0.07109
985.50 0.07106
985.60 0.07103
985.70 0.071
985.80 0.07097
985.90 0.07094
986.00 0.07092
986.10 0.07089
986.20 0.07086
986.30 0.07083
986.40 0.0708
986.50 0.07077
986.60 0.07074
986.70 0.07072
986.80 0.07069
986.90 0.07066
987.00 0.07063
987.10 0.0706
987.20 0.07058
987.30 0.07055
987.40 0.07052
987.50 0.07049
987.60 0.07046
987.70 0.07043
987.80 0.07041
987.90 0.07038
988.00 0.07035
988.10 0.07032
988.20 0.07029
988.30 0.07027
988.40 0.07024
988.50 0.07021
988.60 0.07018
988.70 0.07015
988.80 0.07012
988.90 0.0701
989.00 0.07007
989.10 0.07004
989.20 0.07001
989.30 0.06998
989.40 0.06996
989.50 0.06993
989.60 0.0699
989.70 0.06987
989.80 0.06985
989.90 0.06982
990.00 0.06979
990.10 0.06976
990.20 0.06973
990.30 0.06971
990.40 0.06968
990.50 0.06965
990.60 0.06962
990.70 0.06959
990.80 0.06957
990.90 0.06954
991.00 0.06951
991.10 0.06948
991.20 0.06946
991.30 0.06943
991.40 0.0694
991.50 0.06937
991.60 0.06934
991.70 0.06932
991.80 0.06929
991.90 0.06926
992.00 0.06923
992.10 0.06921
992.20 0.06918
992.30 0.06915
992.40 0.06912
992.50 0.0691
992.60 0.06907
992.70 0.06904
992.80 0.06901
992.90 0.06899
993.00 0.06896
993.10 0.06893
993.20 0.0689
993.30 0.06888
993.40 0.06885
993.50 0.06882
993.60 0.06879
993.70 0.06877
993.80 0.06874
993.90 0.06871
994.00 0.06868
994.10 0.06866
994.20 0.06863
994.30 0.0686
994.40 0.06857
994.50 0.06855
994.60 0.06852
994.70 0.06849
994.80 0.06847
994.90 0.06844
995.00 0.06841
995.10 0.06838
995.20 0.06836
995.30 0.06833
995.40 0.0683
995.50 0.06828
995.60 0.06825
995.70 0.06822
995.80 0.06819
995.90 0.06817
996.00 0.06814
996.10 0.06811
996.20 0.06809
996.30 0.06806
996.40 0.06803
996.50 0.06801
996.60 0.06798
996.70 0.06795
996.80 0.06793
996.90 0.0679
997.00 0.06787
997.10 0.06784
997.20 0.06782
997.30 0.06779
997.40 0.06776
997.50 0.06774
997.60 0.06771
997.70 0.06768
997.80 0.06766
997.90 0.06763
998.00 0.0676
998.10 0.06758
998.20 0.06755
998.30 0.06753
998.40 0.0675
998.50 0.06747
998.60 0.06745
998.70 0.06742
998.80 0.06739
998.90 0.06737
999.00 0.06734
999.10 0.06731
999.20 0.06729
999.30 0.06726
999.40 0.06723
999.50 0.06721
999.60 0.06718
999.70 0.06715
999.80 0.06713
999.90 0.0671
1000.00 0.06707
1000.10 0.06704
1000.20 0.06701
1000.30 0.06698
1000.40 0.06696
1000.50 0.06693
1000.60 0.0669
1000.70 0.06687
1000.80 0.06684
1000.90 0.06681
1001.00 0.06679
1001.10 0.06676
1001.20 0.06673
1001.30 0.0667
1001.40 0.06667
1001.50 0.06665
1001.60 0.06662
1001.70 0.06659
1001.80 0.06657
1001.90 0.06654
1002.00 0.06652
1002.10 0.06649
1002.20 0.06647
1002.30 0.06644
1002.40 0.06641
1002.50 0.06639
1002.60 0.06636
1002.70 0.06634
1002.80 0.06631
1002.90 0.06629
1003.00 0.06626
1003.10 0.06624
1003.20 0.06621
1003.30 0.06619
1003.40 0.06616
1003.50 0.06614
1003.60 0.06612
1003.70 0.06609
1003.80 0.06607
1003.90 0.06604
1004.00 0.06602
1004.10 0.06599
1004.20 0.06597
1004.30 0.06594
1004.40 0.06592
1004.50 0.06589
1004.60 0.06587
1004.70 0.06584
1004.80 0.06581
1004.90 0.06579
1005.00 0.06576
1005.10 0.06574
1005.20 0.06571
1005.30 0.06569
1005.40 0.06566
1005.50 0.06564
1005.60 0.06561
1005.70 0.06558
1005.80 0.06556
1005.90 0.06553
1006.00 0.0655
1006.10 0.06548
1006.20 0.06545
1006.30 0.06543
1006.40 0.0654
1006.50 0.06537
1006.60 0.06535
1006.70 0.06532
1006.80 0.06529
1006.90 0.06527
1007.00 0.06524
1007.10 0.06522
1007.20 0.06519
1007.30 0.06516
1007.40 0.06514
1007.50 0.06511
1007.60 0.06509
1007.70 0.06506
1007.80 0.06503
1007.90 0.06501
1008.00 0.06498
1008.10 0.06496
1008.20 0.06493
1008.30 0.06491
1008.40 0.06488
1008.50 0.06486
1008.60 0.06483
1008.70 0.0648
1008.80 0.06478
1008.90 0.06475
1009.00 0.06473
1009.10 0.0647
1009.20 0.06468
1009.30 0.06465
1009.40 0.06463
1009.50 0.0646
1009.60 0.06458
1009.70 0.06455
1009.80 0.06453
1009.90 0.0645
1010.00 0.06448
1010.10 0.06445
1010.20 0.06443
1010.30 0.0644
1010.40 0.06438
1010.50 0.06435
1010.60 0.06433
1010.70 0.0643
1010.80 0.06428
1010.90 0.06425
1011.00 0.06423
1011.10 0.0642
1011.20 0.06418
1011.30 0.06415
1011.40 0.06413
1011.50 0.0641
1011.60 0.06408
1011.70 0.06405
1011.80 0.06403
1011.90 0.064
1012.00 0.06398
1012.10 0.06395
1012.20 0.06393
1012.30 0.06391
1012.40 0.06388
1012.50 0.06386
1012.60 0.06383
1012.70 0.06381
1012.80 0.06378
1012.90 0.06376
1013.00 0.06373
1013.10 0.06371
1013.20 0.06369
1013.30 0.06366
1013.40 0.06364
1013.50 0.06361
1013.60 0.06359
1013.70 0.06356
1013.80 0.06354
1013.90 0.06352
1014.00 0.06349
1014.10 0.06347
1014.20 0.06344
1014.30 0.06342
1014.40 0.06339
1014.50 0.06337
1014.60 0.06335
1014.70 0.06332
1014.80 0.0633
1014.90 0.06327
1015.00 0.06325
1015.10 0.06323
1015.20 0.0632
1015.30 0.06318
1015.40 0.06315
1015.50 0.06313
1015.60 0.06311
1015.70 0.06308
1015.80 0.06306
1015.90 0.06303
1016.00 0.06301
1016.10 0.06299
1016.20 0.06296
1016.30 0.06294
1016.40 0.06291
1016.50 0.06289
1016.60 0.06287
1016.70 0.06284
1016.80 0.06282
1016.90 0.0628
1017.00 0.06277
1017.10 0.06275
1017.20 0.06272
1017.30 0.0627
1017.40 0.06268
1017.50 0.06265
1017.60 0.06263
1017.70 0.0626
1017.80 0.06258
1017.90 0.06256
1018.00 0.06253
1018.10 0.06251
1018.20 0.06249
1018.30 0.06246
1018.40 0.06244
1018.50 0.06242
1018.60 0.06239
1018.70 0.06237
1018.80 0.06234
1018.90 0.06232
1019.00 0.0623
1019.10 0.06227
1019.20 0.06225
1019.30 0.06223
1019.40 0.0622
1019.50 0.06218
1019.60 0.06216
1019.70 0.06213
1019.80 0.06211
1019.90 0.06209
1020.00 0.06206
1020.10 0.06204
1020.20 0.06201
1020.30 0.06199
1020.40 0.06197
1020.50 0.06194
1020.60 0.06192
1020.70 0.0619
1020.80 0.06187
1020.90 0.06185
1021.00 0.06183
1021.10 0.0618
1021.20 0.06178
1021.30 0.06176
1021.40 0.06173
1021.50 0.06171
1021.60 0.06169
1021.70 0.06166
1021.80 0.06164
1021.90 0.06162
1022.00 0.06159
1022.10 0.06157
1022.20 0.06155
1022.30 0.06152
1022.40 0.0615
1022.50 0.06148
1022.60 0.06145
1022.70 0.06143
1022.80 0.06141
1022.90 0.06138
1023.00 0.06136
1023.10 0.06134
1023.20 0.06131
1023.30 0.06129
1023.40 0.06127
1023.50 0.06125
1023.60 0.06122
1023.70 0.0612
1023.80 0.06118
1023.90 0.06115
1024.00 0.06113
1024.10 0.06111
1024.20 0.06108
1024.30 0.06106
1024.40 0.06104
1024.50 0.06101
1024.60 0.06099
1024.70 0.06097
1024.80 0.06094
1024.90 0.06092
1025.00 0.0609
1025.10 0.06088
1025.20 0.06085
1025.30 0.06083
1025.40 0.06081
1025.50 0.06078
1025.60 0.06076
1025.70 0.06074
1025.80 0.06072
1025.90 0.06069
1026.00 0.06067
1026.10 0.06065
1026.20 0.06062
1026.30 0.0606
1026.40 0.06058
1026.50 0.06055
1026.60 0.06053
1026.70 0.06051
1026.80 0.06049
1026.90 0.06046
1027.00 0.06044
1027.10 0.06042
1027.20 0.0604
1027.30 0.06037
1027.40 0.06035
1027.50 0.06033
1027.60 0.0603
1027.70 0.06028
1027.80 0.06026
1027.90 0.06024
1028.00 0.06021
1028.10 0.06019
1028.20 0.06017
1028.30 0.06015
1028.40 0.06012
1028.50 0.0601
1028.60 0.06008
1028.70 0.06005
1028.80 0.06003
1028.90 0.06001
1029.00 0.05999
1029.10 0.05996
1029.20 0.05994
1029.30 0.05992
1029.40 0.0599
1029.50 0.05987
1029.60 0.05985
1029.70 0.05983
1029.80 0.05981
1029.90 0.05978
1030.00 0.05976
1030.10 0.05974
1030.20 0.05972
1030.30 0.05969
1030.40 0.05967
1030.50 0.05965
1030.60 0.05963
1030.70 0.0596
1030.80 0.05958
1030.90 0.05956
1031.00 0.05954
1031.10 0.05951
1031.20 0.05949
1031.30 0.05947
1031.40 0.05945
1031.50 0.05942
1031.60 0.0594
1031.70 0.05938
1031.80 0.05936
1031.90 0.05933
1032.00 0.05931
1032.10 0.05929
1032.20 0.05927
1032.30 0.05924
1032.40 0.05922
1032.50 0.0592
1032.60 0.05918
1032.70 0.05916
1032.80 0.05913
1032.90 0.05911
1033.00 0.05909
1033.10 0.05907
1033.20 0.05904
1033.30 0.05902
1033.40 0.059
1033.50 0.05898
1033.60 0.05895
1033.70 0.05893
1033.80 0.05891
1033.90 0.05889
1034.00 0.05887
1034.10 0.05884
1034.20 0.05882
1034.30 0.0588
1034.40 0.05878
1034.50 0.05876
1034.60 0.05873
1034.70 0.05871
1034.80 0.05869
1034.90 0.05867
1035.00 0.05864
1035.10 0.05862
1035.20 0.0586
1035.30 0.05858
1035.40 0.05856
1035.50 0.05853
1035.60 0.05851
1035.70 0.05849
1035.80 0.05847
1035.90 0.05845
1036.00 0.05842
1036.10 0.0584
1036.20 0.05838
1036.30 0.05836
1036.40 0.05834
1036.50 0.05831
1036.60 0.05829
1036.70 0.05827
1036.80 0.05825
1036.90 0.05823
1037.00 0.0582
1037.10 0.05818
1037.20 0.05816
1037.30 0.05814
1037.40 0.05812
1037.50 0.05809
1037.60 0.05807
1037.70 0.05805
1037.80 0.05803
1037.90 0.05801
1038.00 0.05799
1038.10 0.05796
1038.20 0.05794
1038.30 0.05792
1038.40 0.0579
1038.50 0.05788
1038.60 0.05786
1038.70 0.05783
1038.80 0.05781
1038.90 0.05779
1039.00 0.05777
1039.10 0.05775
1039.20 0.05772
1039.30 0.0577
1039.40 0.05768
1039.50 0.05766
1039.60 0.05764
1039.70 0.05762
1039.80 0.05759
1039.90 0.05757
1040.00 0.05755
1040.10 0.05753
1040.20 0.05751
1040.30 0.05749
1040.40 0.05746
1040.50 0.05744
1040.60 0.05742
1040.70 0.0574
1040.80 0.05738
1040.90 0.05736
1041.00 0.05734
1041.10 0.05731
1041.20 0.05729
1041.30 0.05727
1041.40 0.05725
1041.50 0.05723
1041.60 0.05721
1041.70 0.05718
1041.80 0.05716
1041.90 0.05714
1042.00 0.05712
1042.10 0.0571
1042.20 0.05708
1042.30 0.05706
1042.40 0.05703
1042.50 0.05701
1042.60 0.05699
1042.70 0.05697
1042.80 0.05695
1042.90 0.05693
1043.00 0.05691
1043.10 0.05688
1043.20 0.05686
1043.30 0.05684
1043.40 0.05682
1043.50 0.0568
1043.60 0.05678
1043.70 0.05676
1043.80 0.05674
1043.90 0.05671
1044.00 0.05669
1044.10 0.05667
1044.20 0.05665
1044.30 0.05663
1044.40 0.05661
1044.50 0.05659
1044.60 0.05657
1044.70 0.05654
1044.80 0.05652
1044.90 0.0565
1045.00 0.05648
1045.10 0.05646
1045.20 0.05644
1045.30 0.05642
1045.40 0.0564
1045.50 0.05637
1045.60 0.05635
1045.70 0.05633
1045.80 0.05631
1045.90 0.05629
1046.00 0.05627
1046.10 0.05625
1046.20 0.05623
1046.30 0.05621
1046.40 0.05618
1046.50 0.05616
1046.60 0.05614
1046.70 0.05612
1046.80 0.0561
1046.90 0.05608
1047.00 0.05606
1047.10 0.05604
1047.20 0.05602
1047.30 0.05599
1047.40 0.05597
1047.50 0.05595
1047.60 0.05593
1047.70 0.05591
1047.80 0.05589
1047.90 0.05587
1048.00 0.05585
1048.10 0.05583
1048.20 0.05581
1048.30 0.05579
1048.40 0.05576
1048.50 0.05574
1048.60 0.05572
1048.70 0.0557
1048.80 0.05568
1048.90 0.05566
1049.00 0.05564
1049.10 0.05562
1049.20 0.0556
1049.30 0.05558
1049.40 0.05556
1049.50 0.05554
1049.60 0.05551
1049.70 0.05549
1049.80 0.05547
1049.90 0.05545
1050.00 0.05543
1050.10 0.05541
1050.20 0.05539
1050.30 0.05537
1050.40 0.05535
1050.50 0.05533
1050.60 0.05531
1050.70 0.05529
1050.80 0.05527
1050.90 0.05524
1051.00 0.05522
1051.10 0.0552
1051.20 0.05518
1051.30 0.05516
1051.40 0.05514
1051.50 0.05512
1051.60 0.0551
1051.70 0.05508
1051.80 0.05506
1051.90 0.05504
1052.00 0.05502
1052.10 0.055
1052.20 0.05498
1052.30 0.05496
1052.40 0.05493
1052.50 0.05491
1052.60 0.05489
1052.70 0.05487
1052.80 0.05485
1052.90 0.05483
1053.00 0.05481
1053.10 0.05479
1053.20 0.05477
1053.30 0.05475
1053.40 0.05473
1053.50 0.05471
1053.60 0.05469
1053.70 0.05467
1053.80 0.05465
1053.90 0.05463
1054.00 0.05461
1054.10 0.05459
1054.20 0.05457
1054.30 0.05455
1054.40 0.05453
1054.50 0.0545
1054.60 0.05448
1054.70 0.05446
1054.80 0.05444
1054.90 0.05442
1055.00 0.0544
1055.10 0.05438
1055.20 0.05436
1055.30 0.05434
1055.40 0.05432
1055.50 0.0543
1055.60 0.05428
1055.70 0.05426
1055.80 0.05424
1055.90 0.05422
1056.00 0.0542
1056.10 0.05418
1056.20 0.05416
1056.30 0.05414
1056.40 0.05412
1056.50 0.0541
1056.60 0.05408
1056.70 0.05406
1056.80 0.05404
1056.90 0.05402
1057.00 0.054
1057.10 0.05398
1057.20 0.05396
1057.30 0.05394
1057.40 0.05392
1057.50 0.0539
1057.60 0.05388
1057.70 0.05386
1057.80 0.05384
1057.90 0.05382
1058.00 0.0538
1058.10 0.05378
1058.20 0.05375
1058.30 0.05373
1058.40 0.05371
1058.50 0.05369
1058.60 0.05367
1058.70 0.05365
1058.80 0.05363
1058.90 0.05361
1059.00 0.05359
1059.10 0.05357
1059.20 0.05355
1059.30 0.05353
1059.40 0.05351
1059.50 0.05349
1059.60 0.05347
1059.70 0.05345
1059.80 0.05343
1059.90 0.05341
1060.00 0.05339
1060.10 0.05337
1060.20 0.05335
1060.30 0.05333
1060.40 0.05331
1060.50 0.05329
1060.60 0.05327
1060.70 0.05325
1060.80 0.05323
1060.90 0.05321
1061.00 0.05319
1061.10 0.05317
1061.20 0.05315
1061.30 0.05313
1061.40 0.05312
1061.50 0.0531
1061.60 0.05308
1061.70 0.05306
1061.80 0.05304
1061.90 0.05302
1062.00 0.053
1062.10 0.05298
1062.20 0.05296
1062.30 0.05294
1062.40 0.05292
1062.50 0.0529
1062.60 0.05288
1062.70 0.05286
1062.80 0.05284
1062.90 0.05282
1063.00 0.0528
1063.10 0.05278
1063.20 0.05276
1063.30 0.05274
1063.40 0.05272
1063.50 0.0527
1063.60 0.05268
1063.70 0.05266
1063.80 0.05264
1063.90 0.05262
1064.00 0.0526
1064.10 0.05258
1064.20 0.05256
1064.30 0.05254
1064.40 0.05252
1064.50 0.0525
1064.60 0.05248
1064.70 0.05246
1064.80 0.05244
1064.90 0.05242
1065.00 0.0524
1065.10 0.05238
1065.20 0.05236
1065.30 0.05235
1065.40 0.05233
1065.50 0.05231
1065.60 0.05229
1065.70 0.05227
1065.80 0.05225
1065.90 0.05223
1066.00 0.05221
1066.10 0.05219
1066.20 0.05217
1066.30 0.05215
1066.40 0.05213
1066.50 0.05211
1066.60 0.05209
1066.70 0.05207
1066.80 0.05205
1066.90 0.05203
1067.00 0.05201
1067.10 0.05199
1067.20 0.05197
1067.30 0.05195
1067.40 0.05193
1067.50 0.05192
1067.60 0.0519
1067.70 0.05188
1067.80 0.05186
1067.90 0.05184
1068.00 0.05182
1068.10 0.0518
1068.20 0.05178
1068.30 0.05176
1068.40 0.05174
1068.50 0.05172
1068.60 0.0517
1068.70 0.05168
1068.80 0.05166
1068.90 0.05164
1069.00 0.05162
1069.10 0.0516
1069.20 0.05159
1069.30 0.05157
1069.40 0.05155
1069.50 0.05153
1069.60 0.05151
1069.70 0.05149
1069.80 0.05147
1069.90 0.05145
1070.00 0.05143
1070.10 0.05141
1070.20 0.05139
1070.30 0.05137
1070.40 0.05135
1070.50 0.05133
1070.60 0.05132
1070.70 0.0513
1070.80 0.05128
1070.90 0.05126
1071.00 0.05124
1071.10 0.05122
1071.20 0.0512
1071.30 0.05118
1071.40 0.05116
1071.50 0.05114
1071.60 0.05112
1071.70 0.0511
1071.80 0.05108
1071.90 0.05107
1072.00 0.05105
1072.10 0.05103
1072.20 0.05101
1072.30 0.05099
1072.40 0.05097
1072.50 0.05095
1072.60 0.05093
1072.70 0.05091
1072.80 0.05089
1072.90 0.05087
1073.00 0.05085
1073.10 0.05084
1073.20 0.05082
1073.30 0.0508
1073.40 0.05078
1073.50 0.05076
1073.60 0.05074
1073.70 0.05072
1073.80 0.0507
1073.90 0.05068
1074.00 0.05066
1074.10 0.05064
1074.20 0.05063
1074.30 0.05061
1074.40 0.05059
1074.50 0.05057
1074.60 0.05055
1074.70 0.05053
1074.80 0.05051
1074.90 0.05049
1075.00 0.05047
1075.10 0.05045
1075.20 0.05044
1075.30 0.05042
1075.40 0.0504
1075.50 0.05038
1075.60 0.05036
1075.70 0.05034
1075.80 0.05032
1075.90 0.0503
1076.00 0.05028
1076.10 0.05026
1076.20 0.05025
1076.30 0.05023
1076.40 0.05021
1076.50 0.05019
1076.60 0.05017
1076.70 0.05015
1076.80 0.05013
1076.90 0.05011
1077.00 0.05009
1077.10 0.05008
1077.20 0.05006
1077.30 0.05004
1077.40 0.05002
1077.50 0.05
1077.60 0.04998
1077.70 0.04996
1077.80 0.04994
1077.90 0.04992
1078.00 0.04991
1078.10 0.04989
1078.20 0.04987
1078.30 0.04985
1078.40 0.04983
1078.50 0.04981
1078.60 0.04979
1078.70 0.04977
1078.80 0.04975
1078.90 0.04974
1079.00 0.04972
1079.10 0.0497
1079.20 0.04968
1079.30 0.04966
1079.40 0.04964
1079.50 0.04962
1079.60 0.0496
1079.70 0.04959
1079.80 0.04957
1079.90 0.04955
1080.00 0.04953
1080.10 0.04951
1080.20 0.04949
1080.30 0.04947
1080.40 0.04946
1080.50 0.04944
1080.60 0.04942
1080.70 0.0494
1080.80 0.04938
1080.90 0.04936
1081.00 0.04934
1081.10 0.04932
1081.20 0.04931
1081.30 0.04929
1081.40 0.04927
1081.50 0.04925
1081.60 0.04923
1081.70 0.04921
1081.80 0.04919
1081.90 0.04918
1082.00 0.04916
1082.10 0.04914
1082.20 0.04912
1082.30 0.0491
1082.40 0.04908
1082.50 0.04907
1082.60 0.04905
1082.70 0.04903
1082.80 0.04901
1082.90 0.04899
1083.00 0.04897
1083.10 0.04895
1083.20 0.04894
1083.30 0.04892
1083.40 0.0489
1083.50 0.04888
1083.60 0.04886
1083.70 0.04884
1083.80 0.04883
1083.90 0.04881
1084.00 0.04879
1084.10 0.04877
1084.20 0.04875
1084.30 0.04873
1084.40 0.04872
1084.50 0.0487
1084.60 0.04868
1084.70 0.04866
1084.80 0.04864
1084.90 0.04862
1085.00 0.04861
1085.10 0.04859
1085.20 0.04857
1085.30 0.04855
1085.40 0.04853
1085.50 0.04852
1085.60 0.0485
1085.70 0.04848
1085.80 0.04846
1085.90 0.04844
1086.00 0.04842
1086.10 0.04841
1086.20 0.04839
1086.30 0.04837
1086.40 0.04835
1086.50 0.04833
1086.60 0.04832
1086.70 0.0483
1086.80 0.04828
1086.90 0.04826
1087.00 0.04824
1087.10 0.04823
1087.20 0.04821
1087.30 0.04819
1087.40 0.04817
1087.50 0.04816
1087.60 0.04814
1087.70 0.04812
1087.80 0.0481
1087.90 0.04808
1088.00 0.04807
1088.10 0.04805
1088.20 0.04803
1088.30 0.04801
1088.40 0.048
1088.50 0.04798
1088.60 0.04796
1088.70 0.04794
1088.80 0.04793
1088.90 0.04791
1089.00 0.04789
1089.10 0.04787
1089.20 0.04786
1089.30 0.04784
1089.40 0.04782
1089.50 0.0478
1089.60 0.04779
1089.70 0.04777
1089.80 0.04775
1089.90 0.04773
1090.00 0.04772
1090.10 0.0477
1090.20 0.04768
1090.30 0.04767
1090.40 0.04765
1090.50 0.04763
1090.60 0.04761
1090.70 0.0476
1090.80 0.04758
1090.90 0.04756
1091.00 0.04755
1091.10 0.04753
1091.20 0.04751
1091.30 0.0475
1091.40 0.04748
1091.50 0.04746
1091.60 0.04744
1091.70 0.04743
1091.80 0.04741
1091.90 0.04739
1092.00 0.04738
1092.10 0.04736
1092.20 0.04734
1092.30 0.04733
1092.40 0.04731
1092.50 0.0473
1092.60 0.04728
1092.70 0.04726
1092.80 0.04725
1092.90 0.04723
1093.00 0.04722
1093.10 0.0472
1093.20 0.04719
1093.30 0.04718
1093.40 0.04716
1093.50 0.04715
1093.60 0.04714
1093.70 0.04713
1093.80 0.04712
1093.90 0.0471
1094.00 0.04708
1094.10 0.04706
1094.20 0.04703
1094.30 0.04701
1094.40 0.04699
1094.50 0.04698
1094.60 0.04696
1094.70 0.04694
1094.80 0.04692
1094.90 0.0469
1095.00 0.04688
1095.10 0.04686
1095.20 0.04685
1095.30 0.04683
1095.40 0.04681
1095.50 0.0468
1095.60 0.04678
1095.70 0.04676
1095.80 0.04674
1095.90 0.04673
1096.00 0.04671
1096.10 0.04669
1096.20 0.04668
1096.30 0.04666
1096.40 0.04664
1096.50 0.04663
1096.60 0.04661
1096.70 0.04659
1096.80 0.04658
1096.90 0.04656
1097.00 0.04654
1097.10 0.04653
1097.20 0.04651
1097.30 0.04649
1097.40 0.04648
1097.50 0.04646
1097.60 0.04644
1097.70 0.04643
1097.80 0.04641
1097.90 0.0464
1098.00 0.04638
1098.10 0.04636
1098.20 0.04635
1098.30 0.04633
1098.40 0.04631
1098.50 0.0463
1098.60 0.04628
1098.70 0.04627
1098.80 0.04625
1098.90 0.04623
1099.00 0.04622
1099.10 0.0462
1099.20 0.04619
1099.30 0.04617
1099.40 0.04615
1099.50 0.04614
1099.60 0.04612
1099.70 0.04611
1099.80 0.04609
1099.90 0.04607
1100.00 0.04606
1100.10 0.04604
1100.20 0.04603
1100.30 0.04601
1100.40 0.04599
1100.50 0.04598
1100.60 0.04596
1100.70 0.04595
1100.80 0.04593
1100.90 0.04591
1101.00 0.0459
1101.10 0.04588
1101.20 0.04587
1101.30 0.04585
1101.40 0.04584
1101.50 0.04582
1101.60 0.0458
1101.70 0.04579
1101.80 0.04577
1101.90 0.04576
1102.00 0.04574
1102.10 0.04573
1102.20 0.04571
1102.30 0.04569
1102.40 0.04568
1102.50 0.04566
1102.60 0.04565
1102.70 0.04563
1102.80 0.04562
1102.90 0.0456
1103.00 0.04559
1103.10 0.04557
1103.20 0.04556
1103.30 0.04554
1103.40 0.04552
1103.50 0.04551
1103.60 0.04549
1103.70 0.04548
1103.80 0.04546
1103.90 0.04545
1104.00 0.04543
1104.10 0.04542
1104.20 0.0454
1104.30 0.04539
1104.40 0.04537
1104.50 0.04535
1104.60 0.04534
1104.70 0.04532
1104.80 0.04531
1104.90 0.04529
1105.00 0.04528
1105.10 0.04526
1105.20 0.04525
1105.30 0.04523
1105.40 0.04522
1105.50 0.0452
1105.60 0.04519
1105.70 0.04517
1105.80 0.04515
1105.90 0.04514
1106.00 0.04512
1106.10 0.04511
1106.20 0.04509
1106.30 0.04508
1106.40 0.04506
1106.50 0.04505
1106.60 0.04503
1106.70 0.04502
1106.80 0.045
1106.90 0.04499
1107.00 0.04497
1107.10 0.04496
1107.20 0.04494
1107.30 0.04493
1107.40 0.04491
1107.50 0.0449
1107.60 0.04488
1107.70 0.04487
1107.80 0.04485
1107.90 0.04483
1108.00 0.04482
1108.10 0.0448
1108.20 0.04479
1108.30 0.04477
1108.40 0.04476
1108.50 0.04474
1108.60 0.04473
1108.70 0.04471
1108.80 0.0447
1108.90 0.04468
1109.00 0.04467
1109.10 0.04465
1109.20 0.04464
1109.30 0.04462
1109.40 0.04461
1109.50 0.04459
1109.60 0.04458
1109.70 0.04456
1109.80 0.04455
1109.90 0.04453
1110.00 0.04452
1110.10 0.0445
1110.20 0.04449
1110.30 0.04447
1110.40 0.04446
1110.50 0.04444
1110.60 0.04443
1110.70 0.04441
1110.80 0.0444
1110.90 0.04438
1111.00 0.04437
1111.10 0.04435
1111.20 0.04434
1111.30 0.04432
1111.40 0.04431
1111.50 0.04429
1111.60 0.04428
1111.70 0.04426
1111.80 0.04425
1111.90 0.04423
1112.00 0.04421
1112.10 0.0442
1112.20 0.04418
1112.30 0.04417
1112.40 0.04415
1112.50 0.04414
1112.60 0.04412
1112.70 0.04411
1112.80 0.04409
1112.90 0.04408
1113.00 0.04406
1113.10 0.04405
1113.20 0.04403
1113.30 0.04402
1113.40 0.044
1113.50 0.04399
1113.60 0.04397
1113.70 0.04396
1113.80 0.04394
1113.90 0.04393
1114.00 0.04391
1114.10 0.0439
1114.20 0.04388
1114.30 0.04387
1114.40 0.04385
1114.50 0.04384
1114.60 0.04382
1114.70 0.04381
1114.80 0.04379
1114.90 0.04378
1115.00 0.04377
1115.10 0.04375
1115.20 0.04374
1115.30 0.04372
1115.40 0.04371
1115.50 0.04369
1115.60 0.04368
1115.70 0.04366
1115.80 0.04365
1115.90 0.04363
1116.00 0.04362
1116.10 0.0436
1116.20 0.04359
1116.30 0.04357
1116.40 0.04356
1116.50 0.04354
1116.60 0.04353
1116.70 0.04351
1116.80 0.0435
1116.90 0.04348
1117.00 0.04347
1117.10 0.04345
1117.20 0.04344
1117.30 0.04342
1117.40 0.04341
1117.50 0.04339
1117.60 0.04338
1117.70 0.04336
1117.80 0.04335
1117.90 0.04333
1118.00 0.04332
1118.10 0.0433
1118.20 0.04329
1118.30 0.04327
1118.40 0.04326
1118.50 0.04324
1118.60 0.04323
1118.70 0.04321
1118.80 0.0432
1118.90 0.04319
1119.00 0.04317
1119.10 0.04316
1119.20 0.04314
1119.30 0.04313
1119.40 0.04311
1119.50 0.0431
1119.60 0.04308
1119.70 0.04307
1119.80 0.04305
1119.90 0.04304
1120.00 0.04302
1120.10 0.04301
1120.20 0.04299
1120.30 0.04298
1120.40 0.04296
1120.50 0.04295
1120.60 0.04293
1120.70 0.04292
1120.80 0.0429
1120.90 0.04289
1121.00 0.04288
1121.10 0.04286
1121.20 0.04285
1121.30 0.04283
1121.40 0.04282
1121.50 0.0428
1121.60 0.04279
1121.70 0.04277
1121.80 0.04276
1121.90 0.04274
1122.00 0.04273
1122.10 0.04271
1122.20 0.0427
1122.30 0.04268
1122.40 0.04267
1122.50 0.04266
1122.60 0.04264
1122.70 0.04263
1122.80 0.04261
1122.90 0.0426
1123.00 0.04258
1123.10 0.04257
1123.20 0.04255
1123.30 0.04254
1123.40 0.04252
1123.50 0.04251
1123.60 0.04249
1123.70 0.04248
1123.80 0.04247
1123.90 0.04245
1124.00 0.04244
1124.10 0.04242
1124.20 0.04241
1124.30 0.04239
1124.40 0.04238
1124.50 0.04236
1124.60 0.04235
1124.70 0.04233
1124.80 0.04232
1124.90 0.04231
1125.00 0.04229
1125.10 0.04228
1125.20 0.04226
1125.30 0.04225
1125.40 0.04223
1125.50 0.04222
1125.60 0.0422
1125.70 0.04219
1125.80 0.04217
1125.90 0.04216
1126.00 0.04215
1126.10 0.04213
1126.20 0.04212
1126.30 0.0421
1126.40 0.04209
1126.50 0.04207
1126.60 0.04206
1126.70 0.04204
1126.80 0.04203
1126.90 0.04202
1127.00 0.042
1127.10 0.04199
1127.20 0.04197
1127.30 0.04196
1127.40 0.04194
1127.50 0.04193
1127.60 0.04191
1127.70 0.0419
1127.80 0.04189
1127.90 0.04187
1128.00 0.04186
1128.10 0.04184
1128.20 0.04183
1128.30 0.04181
1128.40 0.0418
1128.50 0.04179
1128.60 0.04177
1128.70 0.04176
1128.80 0.04174
1128.90 0.04173
1129.00 0.04171
1129.10 0.0417
1129.20 0.04169
1129.30 0.04167
1129.40 0.04166
1129.50 0.04164
1129.60 0.04163
1129.70 0.04161
1129.80 0.0416
1129.90 0.04159
1130.00 0.04157
1130.10 0.04156
1130.20 0.04154
1130.30 0.04153
1130.40 0.04151
1130.50 0.0415
1130.60 0.04149
1130.70 0.04147
1130.80 0.04146
1130.90 0.04144
1131.00 0.04143
1131.10 0.04141
1131.20 0.0414
1131.30 0.04139
1131.40 0.04137
1131.50 0.04136
1131.60 0.04134
1131.70 0.04133
1131.80 0.04131
1131.90 0.0413
1132.00 0.04129
1132.10 0.04127
1132.20 0.04126
1132.30 0.04124
1132.40 0.04123
1132.50 0.04122
1132.60 0.0412
1132.70 0.04119
1132.80 0.04117
1132.90 0.04116
1133.00 0.04114
1133.10 0.04113
1133.20 0.04112
1133.30 0.0411
1133.40 0.04109
1133.50 0.04107
1133.60 0.04106
1133.70 0.04105
1133.80 0.04103
1133.90 0.04102
1134.00 0.041
1134.10 0.04099
1134.20 0.04098
1134.30 0.04096
1134.40 0.04095
1134.50 0.04093
1134.60 0.04092
1134.70 0.04091
1134.80 0.04089
1134.90 0.04088
1135.00 0.04086
1135.10 0.04085
1135.20 0.04083
1135.30 0.04082
1135.40 0.04081
1135.50 0.04079
1135.60 0.04078
1135.70 0.04076
1135.80 0.04075
1135.90 0.04074
1136.00 0.04072
1136.10 0.04071
1136.20 0.04069
1136.30 0.04068
1136.40 0.04067
1136.50 0.04065
1136.60 0.04064
1136.70 0.04062
1136.80 0.04061
1136.90 0.0406
1137.00 0.04058
1137.10 0.04057
1137.20 0.04056
1137.30 0.04054
1137.40 0.04053
1137.50 0.04051
1137.60 0.0405
1137.70 0.04049
1137.80 0.04047
1137.90 0.04046
1138.00 0.04044
1138.10 0.04043
1138.20 0.04042
1138.30 0.0404
1138.40 0.04039
1138.50 0.04038
1138.60 0.04036
1138.70 0.04035
1138.80 0.04033
1138.90 0.04032
1139.00 0.04031
1139.10 0.04029
1139.20 0.04028
1139.30 0.04026
1139.40 0.04025
1139.50 0.04024
1139.60 0.04022
1139.70 0.04021
1139.80 0.0402
1139.90 0.04018
1140.00 0.04017
1140.10 0.04015
1140.20 0.04014
1140.30 0.04013
1140.40 0.04011
1140.50 0.0401
1140.60 0.04009
1140.70 0.04007
1140.80 0.04006
1140.90 0.04004
1141.00 0.04003
1141.10 0.04002
1141.20 0.04
1141.30 0.03999
1141.40 0.03998
1141.50 0.03996
1141.60 0.03995
1141.70 0.03993
1141.80 0.03992
1141.90 0.03991
1142.00 0.03989
1142.10 0.03988
1142.20 0.03987
1142.30 0.03985
1142.40 0.03984
1142.50 0.03983
1142.60 0.03981
1142.70 0.0398
1142.80 0.03979
1142.90 0.03977
1143.00 0.03976
1143.10 0.03974
1143.20 0.03973
1143.30 0.03972
1143.40 0.0397
1143.50 0.03969
1143.60 0.03968
1143.70 0.03966
1143.80 0.03965
1143.90 0.03964
1144.00 0.03962
1144.10 0.03961
1144.20 0.0396
1144.30 0.03958
1144.40 0.03957
1144.50 0.03955
1144.60 0.03954
1144.70 0.03953
1144.80 0.03951
1144.90 0.0395
1145.00 0.03949
1145.10 0.03947
1145.20 0.03946
1145.30 0.03945
1145.40 0.03943
1145.50 0.03942
1145.60 0.03941
1145.70 0.03939
1145.80 0.03938
1145.90 0.03937
1146.00 0.03935
1146.10 0.03934
1146.20 0.03933
1146.30 0.03931
1146.40 0.0393
1146.50 0.03929
1146.60 0.03927
1146.70 0.03926
1146.80 0.03924
1146.90 0.03923
1147.00 0.03922
1147.10 0.0392
1147.20 0.03919
1147.30 0.03918
1147.40 0.03916
1147.50 0.03915
1147.60 0.03914
1147.70 0.03912
1147.80 0.03911
1147.90 0.0391
1148.00 0.03908
1148.10 0.03907
1148.20 0.03906
1148.30 0.03904
1148.40 0.03903
1148.50 0.03902
1148.60 0.039
1148.70 0.03899
1148.80 0.03898
1148.90 0.03897
1149.00 0.03895
1149.10 0.03894
1149.20 0.03893
1149.30 0.03891
1149.40 0.0389
1149.50 0.03889
1149.60 0.03887
1149.70 0.03886
1149.80 0.03885
1149.90 0.03883
1150.00 0.03882
1150.10 0.03881
1150.20 0.03879
1150.30 0.03878
1150.40 0.03877
1150.50 0.03875
1150.60 0.03874
1150.70 0.03873
1150.80 0.03871
1150.90 0.0387
1151.00 0.03869
1151.10 0.03867
1151.20 0.03866
1151.30 0.03865
1151.40 0.03863
1151.50 0.03862
1151.60 0.03861
1151.70 0.0386
1151.80 0.03858
1151.90 0.03857
1152.00 0.03856
1152.10 0.03854
1152.20 0.03853
1152.30 0.03852
1152.40 0.0385
1152.50 0.03849
1152.60 0.03848
1152.70 0.03846
1152.80 0.03845
1152.90 0.03844
1153.00 0.03843
1153.10 0.03841
1153.20 0.0384
1153.30 0.03839
1153.40 0.03837
1153.50 0.03836
1153.60 0.03835
1153.70 0.03833
1153.80 0.03832
1153.90 0.03831
1154.00 0.03829
1154.10 0.03828
1154.20 0.03827
1154.30 0.03826
1154.40 0.03824
1154.50 0.03823
1154.60 0.03822
1154.70 0.0382
1154.80 0.03819
1154.90 0.03818
1155.00 0.03817
1155.10 0.03815
1155.20 0.03814
1155.30 0.03813
1155.40 0.03811
1155.50 0.0381
1155.60 0.03809
1155.70 0.03807
1155.80 0.03806
1155.90 0.03805
1156.00 0.03804
1156.10 0.03802
1156.20 0.03801
1156.30 0.038
1156.40 0.03798
1156.50 0.03797
1156.60 0.03796
1156.70 0.03795
1156.80 0.03793
1156.90 0.03792
1157.00 0.03791
1157.10 0.03789
1157.20 0.03788
1157.30 0.03787
1157.40 0.03786
1157.50 0.03784
1157.60 0.03783
1157.70 0.03782
1157.80 0.0378
1157.90 0.03779
1158.00 0.03778
1158.10 0.03777
1158.20 0.03775
1158.30 0.03774
1158.40 0.03773
1158.50 0.03772
1158.60 0.0377
1158.70 0.03769
1158.80 0.03768
1158.90 0.03766
1159.00 0.03765
1159.10 0.03764
1159.20 0.03763
1159.30 0.03761
1159.40 0.0376
1159.50 0.03759
1159.60 0.03757
1159.70 0.03756
1159.80 0.03755
1159.90 0.03754
1160.00 0.03752
1160.10 0.03751
1160.20 0.0375
1160.30 0.03749
1160.40 0.03747
1160.50 0.03746
1160.60 0.03745
1160.70 0.03744
1160.80 0.03742
1160.90 0.03741
1161.00 0.0374
1161.10 0.03738
1161.20 0.03737
1161.30 0.03736
1161.40 0.03735
1161.50 0.03733
1161.60 0.03732
1161.70 0.03731
1161.80 0.0373
1161.90 0.03728
1162.00 0.03727
1162.10 0.03726
1162.20 0.03725
1162.30 0.03723
1162.40 0.03722
1162.50 0.03721
1162.60 0.0372
1162.70 0.03718
1162.80 0.03717
1162.90 0.03716
1163.00 0.03715
1163.10 0.03713
1163.20 0.03712
1163.30 0.03711
1163.40 0.0371
1163.50 0.03708
1163.60 0.03707
1163.70 0.03706
1163.80 0.03705
1163.90 0.03703
1164.00 0.03702
1164.10 0.03701
1164.20 0.037
1164.30 0.03698
1164.40 0.03697
1164.50 0.03696
1164.60 0.03695
1164.70 0.03693
1164.80 0.03692
1164.90 0.03691
1165.00 0.0369
1165.10 0.03688
1165.20 0.03687
1165.30 0.03686
1165.40 0.03685
1165.50 0.03683
1165.60 0.03682
1165.70 0.03681
1165.80 0.0368
1165.90 0.03678
1166.00 0.03677
1166.10 0.03676
1166.20 0.03675
1166.30 0.03673
1166.40 0.03672
1166.50 0.03671
1166.60 0.0367
1166.70 0.03669
1166.80 0.03667
1166.90 0.03666
1167.00 0.03665
1167.10 0.03664
1167.20 0.03662
1167.30 0.03661
1167.40 0.0366
1167.50 0.03659
1167.60 0.03657
1167.70 0.03656
1167.80 0.03655
1167.90 0.03654
1168.00 0.03653
1168.10 0.03651
1168.20 0.0365
1168.30 0.03649
1168.40 0.03648
1168.50 0.03646
1168.60 0.03645
1168.70 0.03644
1168.80 0.03643
1168.90 0.03642
1169.00 0.0364
1169.10 0.03639
1169.20 0.03638
1169.30 0.03637
1169.40 0.03635
1169.50 0.03634
1169.60 0.03633
1169.70 0.03632
1169.80 0.03631
1169.90 0.03629
1170.00 0.03628
1170.10 0.03627
1170.20 0.03626
1170.30 0.03624
1170.40 0.03623
1170.50 0.03622
1170.60 0.03621
1170.70 0.0362
1170.80 0.03618
1170.90 0.03617
1171.00 0.03616
1171.10 0.03615
1171.20 0.03614
1171.30 0.03612
1171.40 0.03611
1171.50 0.0361
1171.60 0.03609
1171.70 0.03607
1171.80 0.03606
1171.90 0.03605
1172.00 0.03604
1172.10 0.03603
1172.20 0.03601
1172.30 0.036
1172.40 0.03599
1172.50 0.03598
1172.60 0.03597
1172.70 0.03595
1172.80 0.03594
1172.90 0.03593
1173.00 0.03592
1173.10 0.03591
1173.20 0.03589
1173.30 0.03588
1173.40 0.03587
1173.50 0.03586
1173.60 0.03585
1173.70 0.03583
1173.80 0.03582
1173.90 0.03581
1174.00 0.0358
1174.10 0.03579
1174.20 0.03577
1174.30 0.03576
1174.40 0.03575
1174.50 0.03574
1174.60 0.03573
1174.70 0.03571
1174.80 0.0357
1174.90 0.03569
1175.00 0.03568
1175.10 0.03567
1175.20 0.03565
1175.30 0.03564
1175.40 0.03563
1175.50 0.03562
1175.60 0.03561
1175.70 0.0356
1175.80 0.03558
1175.90 0.03557
1176.00 0.03556
1176.10 0.03555
1176.20 0.03554
1176.30 0.03552
1176.40 0.03551
1176.50 0.0355
1176.60 0.03549
1176.70 0.03548
1176.80 0.03546
1176.90 0.03545
1177.00 0.03544
1177.10 0.03543
1177.20 0.03542
1177.30 0.03541
1177.40 0.03539
1177.50 0.03538
1177.60 0.03537
1177.70 0.03536
1177.80 0.03535
1177.90 0.03533
1178.00 0.03532
1178.10 0.03531
1178.20 0.0353
1178.30 0.03529
1178.40 0.03528
1178.50 0.03526
1178.60 0.03525
1178.70 0.03524
1178.80 0.03523
1178.90 0.03522
1179.00 0.03521
1179.10 0.03519
1179.20 0.03518
1179.30 0.03517
1179.40 0.03516
1179.50 0.03515
1179.60 0.03514
1179.70 0.03512
1179.80 0.03511
1179.90 0.0351
1180.00 0.03509
1180.10 0.03508
1180.20 0.03507
1180.30 0.03505
1180.40 0.03504
1180.50 0.03503
1180.60 0.03502
1180.70 0.03501
1180.80 0.035
1180.90 0.03498
1181.00 0.03497
1181.10 0.03496
1181.20 0.03495
1181.30 0.03494
1181.40 0.03493
1181.50 0.03491
1181.60 0.0349
1181.70 0.03489
1181.80 0.03488
1181.90 0.03487
1182.00 0.03486
1182.10 0.03484
1182.20 0.03483
1182.30 0.03482
1182.40 0.03481
1182.50 0.0348
1182.60 0.03479
1182.70 0.03477
1182.80 0.03476
1182.90 0.03475
1183.00 0.03474
1183.10 0.03473
1183.20 0.03472
1183.30 0.03471
1183.40 0.03469
1183.50 0.03468
1183.60 0.03467
1183.70 0.03466
1183.80 0.03465
1183.90 0.03464
1184.00 0.03462
1184.10 0.03461
1184.20 0.0346
1184.30 0.03459
1184.40 0.03458
1184.50 0.03457
1184.60 0.03456
1184.70 0.03454
1184.80 0.03453
1184.90 0.03452
1185.00 0.03451
1185.10 0.0345
1185.20 0.03449
1185.30 0.03448
1185.40 0.03446
1185.50 0.03445
1185.60 0.03444
1185.70 0.03443
1185.80 0.03442
1185.90 0.03441
1186.00 0.0344
1186.10 0.03438
1186.20 0.03437
1186.30 0.03436
1186.40 0.03435
1186.50 0.03434
1186.60 0.03433
1186.70 0.03432
1186.80 0.0343
1186.90 0.03429
1187.00 0.03428
1187.10 0.03427
1187.20 0.03426
1187.30 0.03425
1187.40 0.03424
1187.50 0.03423
1187.60 0.03421
1187.70 0.0342
1187.80 0.03419
1187.90 0.03418
1188.00 0.03417
1188.10 0.03416
1188.20 0.03415
1188.30 0.03414
1188.40 0.03412
1188.50 0.03411
1188.60 0.0341
1188.70 0.03409
1188.80 0.03408
1188.90 0.03407
1189.00 0.03406
1189.10 0.03404
1189.20 0.03403
1189.30 0.03402
1189.40 0.03401
1189.50 0.034
1189.60 0.03399
1189.70 0.03398
1189.80 0.03397
1189.90 0.03396
1190.00 0.03394
1190.10 0.03393
1190.20 0.03392
1190.30 0.03391
1190.40 0.0339
1190.50 0.03389
1190.60 0.03388
1190.70 0.03387
1190.80 0.03385
1190.90 0.03384
1191.00 0.03383
1191.10 0.03382
1191.20 0.03381
1191.30 0.0338
1191.40 0.03379
1191.50 0.03378
1191.60 0.03376
1191.70 0.03375
1191.80 0.03374
1191.90 0.03373
1192.00 0.03372
1192.10 0.03371
1192.20 0.0337
1192.30 0.03369
1192.40 0.03368
1192.50 0.03366
1192.60 0.03365
1192.70 0.03364
1192.80 0.03363
1192.90 0.03362
1193.00 0.03361
1193.10 0.0336
1193.20 0.03359
1193.30 0.03358
1193.40 0.03357
1193.50 0.03355
1193.60 0.03354
1193.70 0.03353
1193.80 0.03352
1193.90 0.03351
1194.00 0.0335
1194.10 0.03349
1194.20 0.03348
1194.30 0.03347
1194.40 0.03345
1194.50 0.03344
1194.60 0.03343
1194.70 0.03342
1194.80 0.03341
1194.90 0.0334
1195.00 0.03339
1195.10 0.03338
1195.20 0.03337
1195.30 0.03336
1195.40 0.03334
1195.50 0.03333
1195.60 0.03332
1195.70 0.03331
1195.80 0.0333
1195.90 0.03329
1196.00 0.03328
1196.10 0.03327
1196.20 0.03326
1196.30 0.03325
1196.40 0.03324
1196.50 0.03322
1196.60 0.03321
1196.70 0.0332
1196.80 0.03319
1196.90 0.03318
1197.00 0.03317
1197.10 0.03316
1197.20 0.03315
1197.30 0.03314
1197.40 0.03313
1197.50 0.03312
1197.60 0.0331
1197.70 0.03309
1197.80 0.03308
1197.90 0.03307
1198.00 0.03306
1198.10 0.03305
1198.20 0.03304
1198.30 0.03303
1198.40 0.03302
1198.50 0.03301
1198.60 0.033
1198.70 0.03299
1198.80 0.03297
1198.90 0.03296
1199.00 0.03295
1199.10 0.03294
1199.20 0.03293
1199.30 0.03292
1199.40 0.03291
1199.50 0.0329
1199.60 0.03289
1199.70 0.03288
1199.80 0.03287
1199.90 0.03286
1200.00 0
