# Version 2.1 - nm, norm@500 to 1, cut digits, bergeron_110000_80.dat_110000
# Wavelength(nm)  Flambda(ergs/cm^s/s/nm)
300.00 6.901
300.10 6.892
300.20 6.883
300.30 6.875
300.40 6.866
300.50 6.857
300.60 6.849
300.70 6.84
300.80 6.832
300.90 6.823
301.00 6.814
301.10 6.806
301.20 6.797
301.30 6.789
301.40 6.78
301.50 6.772
301.60 6.763
301.70 6.755
301.80 6.746
301.90 6.738
302.00 6.729
302.10 6.721
302.20 6.713
302.30 6.704
302.40 6.696
302.50 6.687
302.60 6.679
302.70 6.671
302.80 6.662
302.90 6.654
303.00 6.646
303.10 6.637
303.20 6.629
303.30 6.621
303.40 6.613
303.50 6.604
303.60 6.596
303.70 6.588
303.80 6.58
303.90 6.572
304.00 6.563
304.10 6.555
304.20 6.547
304.30 6.539
304.40 6.531
304.50 6.523
304.60 6.515
304.70 6.507
304.80 6.498
304.90 6.49
305.00 6.482
305.10 6.474
305.20 6.466
305.30 6.458
305.40 6.45
305.50 6.442
305.60 6.434
305.70 6.426
305.80 6.418
305.90 6.41
306.00 6.402
306.10 6.395
306.20 6.387
306.30 6.379
306.40 6.371
306.50 6.363
306.60 6.355
306.70 6.347
306.80 6.339
306.90 6.332
307.00 6.324
307.10 6.316
307.20 6.308
307.30 6.301
307.40 6.293
307.50 6.285
307.60 6.277
307.70 6.27
307.80 6.262
307.90 6.254
308.00 6.246
308.10 6.239
308.20 6.231
308.30 6.223
308.40 6.216
308.50 6.208
308.60 6.201
308.70 6.193
308.80 6.185
308.90 6.178
309.00 6.17
309.10 6.163
309.20 6.155
309.30 6.148
309.40 6.14
309.50 6.133
309.60 6.125
309.70 6.118
309.80 6.11
309.90 6.103
310.00 6.095
310.10 6.088
310.20 6.08
310.30 6.073
310.40 6.065
310.50 6.058
310.60 6.051
310.70 6.043
310.80 6.036
310.90 6.029
311.00 6.021
311.10 6.014
311.20 6.007
311.30 5.999
311.40 5.992
311.50 5.985
311.60 5.977
311.70 5.97
311.80 5.963
311.90 5.956
312.00 5.948
312.10 5.941
312.20 5.934
312.30 5.927
312.40 5.92
312.50 5.912
312.60 5.905
312.70 5.898
312.80 5.891
312.90 5.884
313.00 5.877
313.10 5.87
313.20 5.862
313.30 5.855
313.40 5.848
313.50 5.841
313.60 5.834
313.70 5.827
313.80 5.82
313.90 5.813
314.00 5.806
314.10 5.799
314.20 5.792
314.30 5.785
314.40 5.778
314.50 5.771
314.60 5.764
314.70 5.757
314.80 5.75
314.90 5.743
315.00 5.736
315.10 5.73
315.20 5.723
315.30 5.716
315.40 5.709
315.50 5.702
315.60 5.695
315.70 5.688
315.80 5.682
315.90 5.675
316.00 5.668
316.10 5.661
316.20 5.654
316.30 5.648
316.40 5.641
316.50 5.634
316.60 5.627
316.70 5.621
316.80 5.614
316.90 5.607
317.00 5.6
317.10 5.594
317.20 5.587
317.30 5.58
317.40 5.574
317.50 5.567
317.60 5.56
317.70 5.554
317.80 5.547
317.90 5.541
318.00 5.534
318.10 5.527
318.20 5.521
318.30 5.514
318.40 5.508
318.50 5.501
318.60 5.495
318.70 5.488
318.80 5.481
318.90 5.475
319.00 5.468
319.10 5.462
319.20 5.455
319.30 5.449
319.40 5.443
319.50 5.436
319.60 5.43
319.70 5.423
319.80 5.417
319.90 5.41
320.00 5.404
320.10 5.398
320.20 5.391
320.30 5.385
320.40 5.378
320.50 5.372
320.60 5.366
320.70 5.359
320.80 5.353
320.90 5.347
321.00 5.34
321.10 5.334
321.20 5.328
321.30 5.321
321.40 5.315
321.50 5.309
321.60 5.303
321.70 5.296
321.80 5.29
321.90 5.284
322.00 5.278
322.10 5.271
322.20 5.265
322.30 5.259
322.40 5.253
322.50 5.247
322.60 5.241
322.70 5.234
322.80 5.228
322.90 5.222
323.00 5.216
323.10 5.21
323.20 5.204
323.30 5.198
323.40 5.192
323.50 5.185
323.60 5.179
323.70 5.173
323.80 5.167
323.90 5.161
324.00 5.155
324.10 5.149
324.20 5.143
324.30 5.137
324.40 5.131
324.50 5.125
324.60 5.119
324.70 5.113
324.80 5.107
324.90 5.101
325.00 5.095
325.10 5.089
325.20 5.083
325.30 5.077
325.40 5.071
325.50 5.066
325.60 5.06
325.70 5.054
325.80 5.048
325.90 5.042
326.00 5.036
326.10 5.03
326.20 5.024
326.30 5.019
326.40 5.013
326.50 5.007
326.60 5.001
326.70 4.995
326.80 4.989
326.90 4.984
327.00 4.978
327.10 4.972
327.20 4.966
327.30 4.961
327.40 4.955
327.50 4.949
327.60 4.943
327.70 4.938
327.80 4.932
327.90 4.926
328.00 4.921
328.10 4.915
328.20 4.909
328.30 4.903
328.40 4.898
328.50 4.892
328.60 4.887
328.70 4.881
328.80 4.875
328.90 4.87
329.00 4.864
329.10 4.858
329.20 4.853
329.30 4.847
329.40 4.842
329.50 4.836
329.60 4.83
329.70 4.825
329.80 4.819
329.90 4.814
330.00 4.808
330.10 4.803
330.20 4.797
330.30 4.792
330.40 4.786
330.50 4.781
330.60 4.775
330.70 4.77
330.80 4.764
330.90 4.759
331.00 4.753
331.10 4.748
331.20 4.743
331.30 4.737
331.40 4.732
331.50 4.726
331.60 4.721
331.70 4.715
331.80 4.71
331.90 4.705
332.00 4.699
332.10 4.694
332.20 4.688
332.30 4.683
332.40 4.678
332.50 4.672
332.60 4.667
332.70 4.662
332.80 4.657
332.90 4.651
333.00 4.646
333.10 4.641
333.20 4.635
333.30 4.63
333.40 4.625
333.50 4.619
333.60 4.614
333.70 4.609
333.80 4.604
333.90 4.598
334.00 4.593
334.10 4.588
334.20 4.583
334.30 4.578
334.40 4.572
334.50 4.567
334.60 4.562
334.70 4.557
334.80 4.552
334.90 4.547
335.00 4.541
335.10 4.536
335.20 4.531
335.30 4.526
335.40 4.521
335.50 4.516
335.60 4.511
335.70 4.505
335.80 4.5
335.90 4.495
336.00 4.49
336.10 4.485
336.20 4.48
336.30 4.475
336.40 4.47
336.50 4.465
336.60 4.46
336.70 4.455
336.80 4.45
336.90 4.445
337.00 4.44
337.10 4.435
337.20 4.43
337.30 4.425
337.40 4.42
337.50 4.415
337.60 4.41
337.70 4.405
337.80 4.4
337.90 4.395
338.00 4.39
338.10 4.385
338.20 4.38
338.30 4.375
338.40 4.37
338.50 4.365
338.60 4.361
338.70 4.356
338.80 4.351
338.90 4.346
339.00 4.341
339.10 4.336
339.20 4.331
339.30 4.327
339.40 4.322
339.50 4.317
339.60 4.312
339.70 4.307
339.80 4.302
339.90 4.297
340.00 4.293
340.10 4.288
340.20 4.283
340.30 4.278
340.40 4.274
340.50 4.269
340.60 4.264
340.70 4.259
340.80 4.255
340.90 4.25
341.00 4.245
341.10 4.24
341.20 4.236
341.30 4.231
341.40 4.226
341.50 4.221
341.60 4.217
341.70 4.212
341.80 4.207
341.90 4.203
342.00 4.198
342.10 4.193
342.20 4.189
342.30 4.184
342.40 4.179
342.50 4.175
342.60 4.17
342.70 4.166
342.80 4.161
342.90 4.156
343.00 4.152
343.10 4.147
343.20 4.143
343.30 4.138
343.40 4.133
343.50 4.129
343.60 4.124
343.70 4.12
343.80 4.115
343.90 4.11
344.00 4.106
344.10 4.101
344.20 4.097
344.30 4.092
344.40 4.088
344.50 4.083
344.60 4.079
344.70 4.074
344.80 4.07
344.90 4.065
345.00 4.061
345.10 4.056
345.20 4.052
345.30 4.048
345.40 4.043
345.50 4.039
345.60 4.034
345.70 4.03
345.80 4.025
345.90 4.021
346.00 4.016
346.10 4.012
346.20 4.008
346.30 4.003
346.40 3.999
346.50 3.994
346.60 3.99
346.70 3.986
346.80 3.981
346.90 3.977
347.00 3.973
347.10 3.968
347.20 3.964
347.30 3.96
347.40 3.955
347.50 3.951
347.60 3.947
347.70 3.942
347.80 3.938
347.90 3.934
348.00 3.929
348.10 3.925
348.20 3.921
348.30 3.916
348.40 3.912
348.50 3.908
348.60 3.904
348.70 3.899
348.80 3.895
348.90 3.891
349.00 3.887
349.10 3.882
349.20 3.878
349.30 3.874
349.40 3.87
349.50 3.866
349.60 3.861
349.70 3.857
349.80 3.853
349.90 3.849
350.00 3.845
350.10 3.84
350.20 3.836
350.30 3.832
350.40 3.828
350.50 3.824
350.60 3.82
350.70 3.815
350.80 3.811
350.90 3.807
351.00 3.803
351.10 3.799
351.20 3.795
351.30 3.791
351.40 3.787
351.50 3.783
351.60 3.778
351.70 3.774
351.80 3.77
351.90 3.766
352.00 3.762
352.10 3.758
352.20 3.754
352.30 3.75
352.40 3.746
352.50 3.742
352.60 3.738
352.70 3.734
352.80 3.73
352.90 3.726
353.00 3.722
353.10 3.718
353.20 3.714
353.30 3.71
353.40 3.706
353.50 3.702
353.60 3.698
353.70 3.694
353.80 3.69
353.90 3.686
354.00 3.682
354.10 3.678
354.20 3.674
354.30 3.67
354.40 3.666
354.50 3.662
354.60 3.658
354.70 3.654
354.80 3.65
354.90 3.646
355.00 3.643
355.10 3.639
355.20 3.635
355.30 3.631
355.40 3.627
355.50 3.623
355.60 3.619
355.70 3.615
355.80 3.611
355.90 3.608
356.00 3.604
356.10 3.6
356.20 3.596
356.30 3.592
356.40 3.588
356.50 3.585
356.60 3.581
356.70 3.577
356.80 3.573
356.90 3.569
357.00 3.565
357.10 3.562
357.20 3.558
357.30 3.554
357.40 3.55
357.50 3.546
357.60 3.543
357.70 3.539
357.80 3.535
357.90 3.531
358.00 3.528
358.10 3.524
358.20 3.52
358.30 3.516
358.40 3.513
358.50 3.509
358.60 3.505
358.70 3.502
358.80 3.498
358.90 3.494
359.00 3.49
359.10 3.487
359.20 3.483
359.30 3.479
359.40 3.476
359.50 3.472
359.60 3.468
359.70 3.465
359.80 3.461
359.90 3.457
360.00 3.454
360.10 3.45
360.20 3.446
360.30 3.443
360.40 3.439
360.50 3.435
360.60 3.432
360.70 3.428
360.80 3.425
360.90 3.421
361.00 3.417
361.10 3.414
361.20 3.41
361.30 3.406
361.40 3.403
361.50 3.399
361.60 3.396
361.70 3.392
361.80 3.389
361.90 3.385
362.00 3.381
362.10 3.378
362.20 3.374
362.30 3.371
362.40 3.367
362.50 3.364
362.60 3.36
362.70 3.357
362.80 3.353
362.90 3.35
363.00 3.346
363.10 3.343
363.20 3.339
363.30 3.336
363.40 3.332
363.50 3.329
363.60 3.325
363.70 3.322
363.80 3.318
363.90 3.315
364.00 3.311
364.10 3.308
364.20 3.304
364.30 3.301
364.40 3.297
364.50 3.294
364.60 3.29
364.70 3.287
364.80 3.284
364.90 3.28
365.00 3.277
365.10 3.273
365.20 3.27
365.30 3.267
365.40 3.263
365.50 3.26
365.60 3.256
365.70 3.253
365.80 3.25
365.90 3.246
366.00 3.243
366.10 3.239
366.20 3.236
366.30 3.233
366.40 3.229
366.50 3.226
366.60 3.222
366.70 3.219
366.80 3.216
366.90 3.212
367.00 3.209
367.10 3.206
367.20 3.202
367.30 3.199
367.40 3.196
367.50 3.192
367.60 3.189
367.70 3.185
367.80 3.182
367.90 3.179
368.00 3.175
368.10 3.172
368.20 3.169
368.30 3.165
368.40 3.162
368.50 3.159
368.60 3.156
368.70 3.152
368.80 3.149
368.90 3.146
369.00 3.142
369.10 3.139
369.20 3.136
369.30 3.132
369.40 3.129
369.50 3.126
369.60 3.123
369.70 3.119
369.80 3.116
369.90 3.113
370.00 3.109
370.10 3.106
370.20 3.103
370.30 3.1
370.40 3.097
370.50 3.093
370.60 3.09
370.70 3.087
370.80 3.084
370.90 3.08
371.00 3.077
371.10 3.074
371.20 3.071
371.30 3.068
371.40 3.064
371.50 3.061
371.60 3.058
371.70 3.055
371.80 3.052
371.90 3.049
372.00 3.045
372.10 3.042
372.20 3.039
372.30 3.036
372.40 3.033
372.50 3.03
372.60 3.027
372.70 3.024
372.80 3.02
372.90 3.017
373.00 3.014
373.10 3.011
373.20 3.008
373.30 3.005
373.40 3.002
373.50 2.999
373.60 2.996
373.70 2.993
373.80 2.99
373.90 2.986
374.00 2.983
374.10 2.98
374.20 2.977
374.30 2.974
374.40 2.971
374.50 2.968
374.60 2.965
374.70 2.962
374.80 2.959
374.90 2.956
375.00 2.953
375.10 2.95
375.20 2.947
375.30 2.944
375.40 2.941
375.50 2.938
375.60 2.935
375.70 2.932
375.80 2.929
375.90 2.926
376.00 2.923
376.10 2.92
376.20 2.917
376.30 2.914
376.40 2.911
376.50 2.908
376.60 2.905
376.70 2.902
376.80 2.899
376.90 2.896
377.00 2.893
377.10 2.89
377.20 2.887
377.30 2.884
377.40 2.881
377.50 2.878
377.60 2.875
377.70 2.873
377.80 2.87
377.90 2.867
378.00 2.864
378.10 2.861
378.20 2.858
378.30 2.855
378.40 2.852
378.50 2.849
378.60 2.847
378.70 2.844
378.80 2.841
378.90 2.838
379.00 2.835
379.10 2.832
379.20 2.83
379.30 2.827
379.40 2.824
379.50 2.821
379.60 2.818
379.70 2.816
379.80 2.813
379.90 2.81
380.00 2.807
380.10 2.804
380.20 2.802
380.30 2.799
380.40 2.796
380.50 2.793
380.60 2.791
380.70 2.788
380.80 2.785
380.90 2.782
381.00 2.78
381.10 2.777
381.20 2.774
381.30 2.771
381.40 2.769
381.50 2.766
381.60 2.763
381.70 2.761
381.80 2.758
381.90 2.755
382.00 2.752
382.10 2.75
382.20 2.747
382.30 2.744
382.40 2.742
382.50 2.739
382.60 2.736
382.70 2.733
382.80 2.731
382.90 2.728
383.00 2.725
383.10 2.723
383.20 2.72
383.30 2.717
383.40 2.715
383.50 2.712
383.60 2.71
383.70 2.707
383.80 2.704
383.90 2.702
384.00 2.699
384.10 2.697
384.20 2.694
384.30 2.692
384.40 2.689
384.50 2.687
384.60 2.684
384.70 2.682
384.80 2.679
384.90 2.677
385.00 2.674
385.10 2.672
385.20 2.669
385.30 2.667
385.40 2.664
385.50 2.662
385.60 2.659
385.70 2.656
385.80 2.654
385.90 2.651
386.00 2.649
386.10 2.646
386.20 2.643
386.30 2.641
386.40 2.638
386.50 2.636
386.60 2.633
386.70 2.63
386.80 2.627
386.90 2.625
387.00 2.622
387.10 2.619
387.20 2.617
387.30 2.614
387.40 2.611
387.50 2.608
387.60 2.606
387.70 2.603
387.80 2.6
387.90 2.597
388.00 2.595
388.10 2.592
388.20 2.589
388.30 2.587
388.40 2.584
388.50 2.581
388.60 2.579
388.70 2.577
388.80 2.574
388.90 2.572
389.00 2.57
389.10 2.567
389.20 2.565
389.30 2.563
389.40 2.56
389.50 2.558
389.60 2.556
389.70 2.554
389.80 2.552
389.90 2.55
390.00 2.548
390.10 2.546
390.20 2.544
390.30 2.542
390.40 2.54
390.50 2.538
390.60 2.536
390.70 2.534
390.80 2.532
390.90 2.53
391.00 2.528
391.10 2.526
391.20 2.523
391.30 2.521
391.40 2.519
391.50 2.517
391.60 2.515
391.70 2.512
391.80 2.51
391.90 2.508
392.00 2.505
392.10 2.503
392.20 2.501
392.30 2.498
392.40 2.496
392.50 2.493
392.60 2.491
392.70 2.488
392.80 2.486
392.90 2.483
393.00 2.481
393.10 2.478
393.20 2.475
393.30 2.473
393.40 2.47
393.50 2.467
393.60 2.464
393.70 2.462
393.80 2.459
393.90 2.456
394.00 2.453
394.10 2.45
394.20 2.447
394.30 2.444
394.40 2.441
394.50 2.438
394.60 2.435
394.70 2.432
394.80 2.429
394.90 2.426
395.00 2.422
395.10 2.419
395.20 2.416
395.30 2.412
395.40 2.409
395.50 2.406
395.60 2.402
395.70 2.399
395.80 2.396
395.90 2.392
396.00 2.389
396.10 2.386
396.20 2.382
396.30 2.379
396.40 2.375
396.50 2.372
396.60 2.369
396.70 2.366
396.80 2.363
396.90 2.36
397.00 2.357
397.10 2.355
397.20 2.354
397.30 2.353
397.40 2.352
397.50 2.351
397.60 2.35
397.70 2.349
397.80 2.348
397.90 2.347
398.00 2.346
398.10 2.345
398.20 2.344
398.30 2.343
398.40 2.342
398.50 2.341
398.60 2.341
398.70 2.34
398.80 2.339
398.90 2.337
399.00 2.336
399.10 2.335
399.20 2.334
399.30 2.333
399.40 2.332
399.50 2.331
399.60 2.329
399.70 2.328
399.80 2.327
399.90 2.326
400.00 2.324
400.10 2.323
400.20 2.321
400.30 2.32
400.40 2.319
400.50 2.317
400.60 2.315
400.70 2.314
400.80 2.312
400.90 2.311
401.00 2.309
401.10 2.307
401.20 2.306
401.30 2.304
401.40 2.302
401.50 2.301
401.60 2.299
401.70 2.297
401.80 2.295
401.90 2.293
402.00 2.291
402.10 2.289
402.20 2.288
402.30 2.286
402.40 2.284
402.50 2.282
402.60 2.28
402.70 2.278
402.80 2.275
402.90 2.273
403.00 2.271
403.10 2.269
403.20 2.267
403.30 2.265
403.40 2.263
403.50 2.26
403.60 2.258
403.70 2.256
403.80 2.254
403.90 2.251
404.00 2.249
404.10 2.247
404.20 2.244
404.30 2.242
404.40 2.239
404.50 2.237
404.60 2.235
404.70 2.232
404.80 2.229
404.90 2.227
405.00 2.224
405.10 2.222
405.20 2.219
405.30 2.216
405.40 2.214
405.50 2.211
405.60 2.208
405.70 2.205
405.80 2.202
405.90 2.199
406.00 2.196
406.10 2.193
406.20 2.19
406.30 2.187
406.40 2.184
406.50 2.181
406.60 2.178
406.70 2.174
406.80 2.171
406.90 2.168
407.00 2.164
407.10 2.161
407.20 2.157
407.30 2.154
407.40 2.15
407.50 2.146
407.60 2.142
407.70 2.138
407.80 2.135
407.90 2.131
408.00 2.126
408.10 2.122
408.20 2.118
408.30 2.114
408.40 2.11
408.50 2.105
408.60 2.101
408.70 2.096
408.80 2.092
408.90 2.087
409.00 2.082
409.10 2.078
409.20 2.073
409.30 2.068
409.40 2.064
409.50 2.06
409.60 2.055
409.70 2.051
409.80 2.048
409.90 2.045
410.00 2.044
410.10 2.044
410.20 2.044
410.30 2.039
410.40 2.036
410.50 2.034
410.60 2.034
410.70 2.034
410.80 2.034
410.90 2.035
411.00 2.036
411.10 2.037
411.20 2.038
411.30 2.038
411.40 2.039
411.50 2.04
411.60 2.041
411.70 2.042
411.80 2.042
411.90 2.043
412.00 2.043
412.10 2.044
412.20 2.044
412.30 2.045
412.40 2.045
412.50 2.045
412.60 2.045
412.70 2.045
412.80 2.045
412.90 2.045
413.00 2.045
413.10 2.044
413.20 2.044
413.30 2.044
413.40 2.043
413.50 2.043
413.60 2.042
413.70 2.042
413.80 2.041
413.90 2.04
414.00 2.04
414.10 2.039
414.20 2.038
414.30 2.037
414.40 2.036
414.50 2.035
414.60 2.035
414.70 2.034
414.80 2.032
414.90 2.031
415.00 2.03
415.10 2.029
415.20 2.028
415.30 2.027
415.40 2.026
415.50 2.024
415.60 2.023
415.70 2.022
415.80 2.02
415.90 2.019
416.00 2.018
416.10 2.016
416.20 2.015
416.30 2.014
416.40 2.012
416.50 2.011
416.60 2.009
416.70 2.008
416.80 2.006
416.90 2.005
417.00 2.003
417.10 2.002
417.20 2
417.30 1.999
417.40 1.997
417.50 1.996
417.60 1.994
417.70 1.993
417.80 1.991
417.90 1.989
418.00 1.988
418.10 1.986
418.20 1.985
418.30 1.983
418.40 1.981
418.50 1.98
418.60 1.978
418.70 1.976
418.80 1.975
418.90 1.973
419.00 1.971
419.10 1.97
419.20 1.968
419.30 1.966
419.40 1.965
419.50 1.963
419.60 1.961
419.70 1.96
419.80 1.958
419.90 1.956
420.00 1.954
420.10 1.953
420.20 1.951
420.30 1.949
420.40 1.948
420.50 1.946
420.60 1.944
420.70 1.942
420.80 1.941
420.90 1.939
421.00 1.937
421.10 1.936
421.20 1.934
421.30 1.932
421.40 1.93
421.50 1.929
421.60 1.927
421.70 1.925
421.80 1.923
421.90 1.922
422.00 1.92
422.10 1.918
422.20 1.916
422.30 1.915
422.40 1.913
422.50 1.911
422.60 1.909
422.70 1.908
422.80 1.906
422.90 1.904
423.00 1.902
423.10 1.901
423.20 1.899
423.30 1.897
423.40 1.895
423.50 1.893
423.60 1.892
423.70 1.89
423.80 1.888
423.90 1.886
424.00 1.885
424.10 1.883
424.20 1.881
424.30 1.879
424.40 1.877
424.50 1.876
424.60 1.874
424.70 1.872
424.80 1.87
424.90 1.868
425.00 1.867
425.10 1.865
425.20 1.863
425.30 1.861
425.40 1.859
425.50 1.857
425.60 1.855
425.70 1.854
425.80 1.852
425.90 1.85
426.00 1.848
426.10 1.846
426.20 1.844
426.30 1.842
426.40 1.84
426.50 1.839
426.60 1.837
426.70 1.835
426.80 1.833
426.90 1.831
427.00 1.829
427.10 1.827
427.20 1.825
427.30 1.823
427.40 1.821
427.50 1.819
427.60 1.817
427.70 1.815
427.80 1.813
427.90 1.811
428.00 1.808
428.10 1.806
428.20 1.804
428.30 1.802
428.40 1.8
428.50 1.798
428.60 1.795
428.70 1.793
428.80 1.791
428.90 1.788
429.00 1.786
429.10 1.784
429.20 1.781
429.30 1.779
429.40 1.776
429.50 1.774
429.60 1.771
429.70 1.769
429.80 1.766
429.90 1.763
430.00 1.76
430.10 1.758
430.20 1.755
430.30 1.752
430.40 1.749
430.50 1.746
430.60 1.743
430.70 1.739
430.80 1.736
430.90 1.733
431.00 1.729
431.10 1.726
431.20 1.722
431.30 1.719
431.40 1.715
431.50 1.711
431.60 1.707
431.70 1.703
431.80 1.699
431.90 1.695
432.00 1.69
432.10 1.686
432.20 1.681
432.30 1.677
432.40 1.672
432.50 1.667
432.60 1.662
432.70 1.657
432.80 1.652
432.90 1.647
433.00 1.642
433.10 1.637
433.20 1.632
433.30 1.627
433.40 1.622
433.50 1.617
433.60 1.613
433.70 1.608
433.80 1.603
433.90 1.598
434.00 1.594
434.10 1.593
434.20 1.594
434.30 1.597
434.40 1.599
434.50 1.601
434.60 1.603
434.70 1.605
434.80 1.607
434.90 1.609
435.00 1.611
435.10 1.613
435.20 1.616
435.30 1.618
435.40 1.62
435.50 1.622
435.60 1.624
435.70 1.626
435.80 1.627
435.90 1.629
436.00 1.631
436.10 1.632
436.20 1.633
436.30 1.635
436.40 1.636
436.50 1.637
436.60 1.638
436.70 1.638
436.80 1.639
436.90 1.64
437.00 1.64
437.10 1.641
437.20 1.641
437.30 1.641
437.40 1.642
437.50 1.642
437.60 1.642
437.70 1.642
437.80 1.642
437.90 1.641
438.00 1.641
438.10 1.641
438.20 1.641
438.30 1.64
438.40 1.64
438.50 1.639
438.60 1.639
438.70 1.638
438.80 1.638
438.90 1.637
439.00 1.636
439.10 1.635
439.20 1.635
439.30 1.634
439.40 1.633
439.50 1.632
439.60 1.631
439.70 1.631
439.80 1.63
439.90 1.629
440.00 1.628
440.10 1.627
440.20 1.626
440.30 1.625
440.40 1.624
440.50 1.623
440.60 1.622
440.70 1.621
440.80 1.619
440.90 1.618
441.00 1.617
441.10 1.616
441.20 1.615
441.30 1.614
441.40 1.613
441.50 1.612
441.60 1.61
441.70 1.609
441.80 1.608
441.90 1.607
442.00 1.606
442.10 1.604
442.20 1.603
442.30 1.602
442.40 1.601
442.50 1.6
442.60 1.598
442.70 1.597
442.80 1.596
442.90 1.595
443.00 1.593
443.10 1.592
443.20 1.591
443.30 1.59
443.40 1.588
443.50 1.587
443.60 1.586
443.70 1.584
443.80 1.583
443.90 1.582
444.00 1.581
444.10 1.579
444.20 1.578
444.30 1.577
444.40 1.576
444.50 1.574
444.60 1.573
444.70 1.572
444.80 1.57
444.90 1.569
445.00 1.568
445.10 1.566
445.20 1.565
445.30 1.564
445.40 1.563
445.50 1.561
445.60 1.56
445.70 1.559
445.80 1.557
445.90 1.556
446.00 1.555
446.10 1.554
446.20 1.552
446.30 1.551
446.40 1.55
446.50 1.548
446.60 1.547
446.70 1.546
446.80 1.544
446.90 1.543
447.00 1.542
447.10 1.541
447.20 1.539
447.30 1.538
447.40 1.537
447.50 1.535
447.60 1.534
447.70 1.533
447.80 1.532
447.90 1.53
448.00 1.529
448.10 1.528
448.20 1.526
448.30 1.525
448.40 1.524
448.50 1.523
448.60 1.521
448.70 1.52
448.80 1.519
448.90 1.517
449.00 1.516
449.10 1.515
449.20 1.514
449.30 1.512
449.40 1.511
449.50 1.51
449.60 1.508
449.70 1.507
449.80 1.506
449.90 1.505
450.00 1.503
450.10 1.502
450.20 1.501
450.30 1.499
450.40 1.498
450.50 1.497
450.60 1.496
450.70 1.494
450.80 1.493
450.90 1.492
451.00 1.491
451.10 1.489
451.20 1.488
451.30 1.487
451.40 1.486
451.50 1.484
451.60 1.483
451.70 1.482
451.80 1.481
451.90 1.479
452.00 1.478
452.10 1.477
452.20 1.476
452.30 1.474
452.40 1.473
452.50 1.472
452.60 1.471
452.70 1.469
452.80 1.468
452.90 1.467
453.00 1.466
453.10 1.464
453.20 1.463
453.30 1.462
453.40 1.461
453.50 1.459
453.60 1.458
453.70 1.457
453.80 1.456
453.90 1.454
454.00 1.453
454.10 1.452
454.20 1.451
454.30 1.449
454.40 1.448
454.50 1.447
454.60 1.446
454.70 1.445
454.80 1.443
454.90 1.442
455.00 1.441
455.10 1.44
455.20 1.438
455.30 1.437
455.40 1.436
455.50 1.435
455.60 1.434
455.70 1.432
455.80 1.431
455.90 1.43
456.00 1.429
456.10 1.428
456.20 1.426
456.30 1.425
456.40 1.424
456.50 1.423
456.60 1.422
456.70 1.42
456.80 1.419
456.90 1.418
457.00 1.417
457.10 1.416
457.20 1.414
457.30 1.413
457.40 1.412
457.50 1.411
457.60 1.41
457.70 1.408
457.80 1.407
457.90 1.406
458.00 1.405
458.10 1.404
458.20 1.402
458.30 1.401
458.40 1.4
458.50 1.399
458.60 1.398
458.70 1.397
458.80 1.395
458.90 1.394
459.00 1.393
459.10 1.392
459.20 1.391
459.30 1.39
459.40 1.388
459.50 1.387
459.60 1.386
459.70 1.385
459.80 1.384
459.90 1.383
460.00 1.381
460.10 1.38
460.20 1.379
460.30 1.378
460.40 1.377
460.50 1.376
460.60 1.374
460.70 1.373
460.80 1.372
460.90 1.371
461.00 1.37
461.10 1.369
461.20 1.368
461.30 1.366
461.40 1.365
461.50 1.364
461.60 1.363
461.70 1.362
461.80 1.361
461.90 1.36
462.00 1.358
462.10 1.357
462.20 1.356
462.30 1.355
462.40 1.354
462.50 1.353
462.60 1.352
462.70 1.35
462.80 1.349
462.90 1.348
463.00 1.347
463.10 1.346
463.20 1.345
463.30 1.344
463.40 1.343
463.50 1.341
463.60 1.34
463.70 1.339
463.80 1.338
463.90 1.337
464.00 1.336
464.10 1.335
464.20 1.334
464.30 1.332
464.40 1.331
464.50 1.33
464.60 1.329
464.70 1.328
464.80 1.327
464.90 1.326
465.00 1.325
465.10 1.324
465.20 1.322
465.30 1.321
465.40 1.32
465.50 1.319
465.60 1.318
465.70 1.317
465.80 1.316
465.90 1.315
466.00 1.314
466.10 1.313
466.20 1.311
466.30 1.31
466.40 1.309
466.50 1.308
466.60 1.307
466.70 1.306
466.80 1.305
466.90 1.304
467.00 1.303
467.10 1.302
467.20 1.301
467.30 1.299
467.40 1.298
467.50 1.297
467.60 1.296
467.70 1.295
467.80 1.294
467.90 1.293
468.00 1.292
468.10 1.291
468.20 1.29
468.30 1.289
468.40 1.288
468.50 1.287
468.60 1.285
468.70 1.284
468.80 1.283
468.90 1.282
469.00 1.281
469.10 1.28
469.20 1.279
469.30 1.278
469.40 1.277
469.50 1.276
469.60 1.275
469.70 1.274
469.80 1.273
469.90 1.272
470.00 1.27
470.10 1.269
470.20 1.268
470.30 1.267
470.40 1.266
470.50 1.265
470.60 1.264
470.70 1.263
470.80 1.262
470.90 1.261
471.00 1.26
471.10 1.259
471.20 1.258
471.30 1.257
471.40 1.256
471.50 1.255
471.60 1.254
471.70 1.253
471.80 1.251
471.90 1.25
472.00 1.249
472.10 1.248
472.20 1.247
472.30 1.246
472.40 1.245
472.50 1.244
472.60 1.243
472.70 1.242
472.80 1.241
472.90 1.24
473.00 1.239
473.10 1.238
473.20 1.237
473.30 1.236
473.40 1.235
473.50 1.234
473.60 1.233
473.70 1.232
473.80 1.231
473.90 1.229
474.00 1.228
474.10 1.227
474.20 1.226
474.30 1.225
474.40 1.224
474.50 1.223
474.60 1.222
474.70 1.221
474.80 1.22
474.90 1.219
475.00 1.218
475.10 1.217
475.20 1.216
475.30 1.215
475.40 1.214
475.50 1.213
475.60 1.212
475.70 1.211
475.80 1.21
475.90 1.208
476.00 1.207
476.10 1.206
476.20 1.205
476.30 1.204
476.40 1.203
476.50 1.202
476.60 1.201
476.70 1.2
476.80 1.199
476.90 1.198
477.00 1.197
477.10 1.196
477.20 1.195
477.30 1.194
477.40 1.192
477.50 1.191
477.60 1.19
477.70 1.189
477.80 1.188
477.90 1.187
478.00 1.186
478.10 1.185
478.20 1.184
478.30 1.183
478.40 1.181
478.50 1.18
478.60 1.179
478.70 1.178
478.80 1.177
478.90 1.176
479.00 1.175
479.10 1.173
479.20 1.172
479.30 1.171
479.40 1.17
479.50 1.169
479.60 1.167
479.70 1.166
479.80 1.165
479.90 1.164
480.00 1.163
480.10 1.161
480.20 1.16
480.30 1.159
480.40 1.157
480.50 1.156
480.60 1.155
480.70 1.153
480.80 1.152
480.90 1.151
481.00 1.149
481.10 1.148
481.20 1.146
481.30 1.145
481.40 1.143
481.50 1.142
481.60 1.14
481.70 1.139
481.80 1.137
481.90 1.135
482.00 1.134
482.10 1.132
482.20 1.13
482.30 1.128
482.40 1.126
482.50 1.125
482.60 1.123
482.70 1.121
482.80 1.119
482.90 1.117
483.00 1.115
483.10 1.113
483.20 1.11
483.30 1.108
483.40 1.105
483.50 1.103
483.60 1.1
483.70 1.098
483.80 1.095
483.90 1.092
484.00 1.09
484.10 1.087
484.20 1.084
484.30 1.081
484.40 1.078
484.50 1.075
484.60 1.072
484.70 1.068
484.80 1.065
484.90 1.061
485.00 1.058
485.10 1.054
485.20 1.051
485.30 1.047
485.40 1.044
485.50 1.04
485.60 1.037
485.70 1.034
485.80 1.032
485.90 1.03
486.00 1.032
486.10 1.042
486.20 1.037
486.30 1.028
486.40 1.026
486.50 1.026
486.60 1.027
486.70 1.029
486.80 1.031
486.90 1.033
487.00 1.035
487.10 1.037
487.20 1.038
487.30 1.04
487.40 1.042
487.50 1.044
487.60 1.046
487.70 1.047
487.80 1.049
487.90 1.05
488.00 1.051
488.10 1.053
488.20 1.054
488.30 1.055
488.40 1.056
488.50 1.056
488.60 1.057
488.70 1.058
488.80 1.059
488.90 1.06
489.00 1.06
489.10 1.061
489.20 1.062
489.30 1.062
489.40 1.062
489.50 1.062
489.60 1.062
489.70 1.062
489.80 1.063
489.90 1.063
490.00 1.063
490.10 1.063
490.20 1.063
490.30 1.063
490.40 1.062
490.50 1.062
490.60 1.062
490.70 1.062
490.80 1.062
490.90 1.061
491.00 1.061
491.10 1.061
491.20 1.06
491.30 1.06
491.40 1.06
491.50 1.059
491.60 1.059
491.70 1.058
491.80 1.058
491.90 1.057
492.00 1.057
492.10 1.056
492.20 1.056
492.30 1.055
492.40 1.055
492.50 1.054
492.60 1.053
492.70 1.053
492.80 1.052
492.90 1.052
493.00 1.051
493.10 1.05
493.20 1.05
493.30 1.049
493.40 1.048
493.50 1.048
493.60 1.047
493.70 1.046
493.80 1.046
493.90 1.045
494.00 1.044
494.10 1.044
494.20 1.043
494.30 1.042
494.40 1.042
494.50 1.041
494.60 1.04
494.70 1.04
494.80 1.039
494.90 1.038
495.00 1.037
495.10 1.037
495.20 1.036
495.30 1.035
495.40 1.034
495.50 1.034
495.60 1.033
495.70 1.032
495.80 1.032
495.90 1.031
496.00 1.03
496.10 1.029
496.20 1.029
496.30 1.028
496.40 1.027
496.50 1.026
496.60 1.026
496.70 1.025
496.80 1.024
496.90 1.023
497.00 1.023
497.10 1.022
497.20 1.021
497.30 1.02
497.40 1.02
497.50 1.019
497.60 1.018
497.70 1.017
497.80 1.017
497.90 1.016
498.00 1.015
498.10 1.014
498.20 1.014
498.30 1.013
498.40 1.012
498.50 1.011
498.60 1.011
498.70 1.01
498.80 1.009
498.90 1.008
499.00 1.008
499.10 1.007
499.20 1.006
499.30 1.005
499.40 1.005
499.50 1.004
499.60 1.003
499.70 1.002
499.80 1.002
499.90 1.001
500.00 1
500.10 0.9992
500.20 0.9985
500.30 0.9977
500.40 0.997
500.50 0.9962
500.60 0.9955
500.70 0.9947
500.80 0.994
500.90 0.9932
501.00 0.9925
501.10 0.9917
501.20 0.991
501.30 0.9902
501.40 0.9895
501.50 0.9887
501.60 0.988
501.70 0.9872
501.80 0.9865
501.90 0.9857
502.00 0.985
502.10 0.9842
502.20 0.9835
502.30 0.9827
502.40 0.982
502.50 0.9812
502.60 0.9805
502.70 0.9798
502.80 0.979
502.90 0.9783
503.00 0.9775
503.10 0.9768
503.20 0.976
503.30 0.9753
503.40 0.9746
503.50 0.9738
503.60 0.9731
503.70 0.9723
503.80 0.9716
503.90 0.9709
504.00 0.9701
504.10 0.9694
504.20 0.9687
504.30 0.9679
504.40 0.9672
504.50 0.9664
504.60 0.9657
504.70 0.965
504.80 0.9642
504.90 0.9635
505.00 0.9628
505.10 0.9621
505.20 0.9613
505.30 0.9606
505.40 0.9599
505.50 0.9591
505.60 0.9584
505.70 0.9577
505.80 0.9569
505.90 0.9562
506.00 0.9555
506.10 0.9548
506.20 0.954
506.30 0.9533
506.40 0.9526
506.50 0.9519
506.60 0.9512
506.70 0.9504
506.80 0.9497
506.90 0.949
507.00 0.9483
507.10 0.9475
507.20 0.9468
507.30 0.9461
507.40 0.9454
507.50 0.9447
507.60 0.944
507.70 0.9432
507.80 0.9425
507.90 0.9418
508.00 0.9411
508.10 0.9404
508.20 0.9397
508.30 0.939
508.40 0.9382
508.50 0.9375
508.60 0.9368
508.70 0.9361
508.80 0.9354
508.90 0.9347
509.00 0.934
509.10 0.9333
509.20 0.9326
509.30 0.9319
509.40 0.9312
509.50 0.9305
509.60 0.9298
509.70 0.9291
509.80 0.9284
509.90 0.9277
510.00 0.927
510.10 0.9262
510.20 0.9255
510.30 0.9248
510.40 0.9242
510.50 0.9235
510.60 0.9228
510.70 0.9221
510.80 0.9214
510.90 0.9207
511.00 0.92
511.10 0.9193
511.20 0.9186
511.30 0.9179
511.40 0.9172
511.50 0.9165
511.60 0.9158
511.70 0.9151
511.80 0.9144
511.90 0.9137
512.00 0.9131
512.10 0.9124
512.20 0.9117
512.30 0.911
512.40 0.9103
512.50 0.9096
512.60 0.9089
512.70 0.9082
512.80 0.9076
512.90 0.9069
513.00 0.9062
513.10 0.9055
513.20 0.9048
513.30 0.9041
513.40 0.9035
513.50 0.9028
513.60 0.9021
513.70 0.9014
513.80 0.9008
513.90 0.9001
514.00 0.8994
514.10 0.8987
514.20 0.8981
514.30 0.8974
514.40 0.8967
514.50 0.896
514.60 0.8954
514.70 0.8947
514.80 0.894
514.90 0.8933
515.00 0.8927
515.10 0.892
515.20 0.8913
515.30 0.8907
515.40 0.89
515.50 0.8893
515.60 0.8887
515.70 0.888
515.80 0.8873
515.90 0.8867
516.00 0.886
516.10 0.8853
516.20 0.8847
516.30 0.884
516.40 0.8834
516.50 0.8827
516.60 0.882
516.70 0.8814
516.80 0.8807
516.90 0.8801
517.00 0.8794
517.10 0.8787
517.20 0.8781
517.30 0.8774
517.40 0.8768
517.50 0.8761
517.60 0.8755
517.70 0.8748
517.80 0.8742
517.90 0.8735
518.00 0.8728
518.10 0.8722
518.20 0.8715
518.30 0.8709
518.40 0.8702
518.50 0.8696
518.60 0.8689
518.70 0.8683
518.80 0.8677
518.90 0.867
519.00 0.8664
519.10 0.8657
519.20 0.8651
519.30 0.8644
519.40 0.8638
519.50 0.8631
519.60 0.8625
519.70 0.8618
519.80 0.8612
519.90 0.8606
520.00 0.8599
520.10 0.8593
520.20 0.8586
520.30 0.858
520.40 0.8574
520.50 0.8567
520.60 0.8561
520.70 0.8555
520.80 0.8548
520.90 0.8542
521.00 0.8536
521.10 0.8529
521.20 0.8523
521.30 0.8517
521.40 0.851
521.50 0.8504
521.60 0.8498
521.70 0.8491
521.80 0.8485
521.90 0.8479
522.00 0.8472
522.10 0.8466
522.20 0.846
522.30 0.8454
522.40 0.8447
522.50 0.8441
522.60 0.8435
522.70 0.8429
522.80 0.8422
522.90 0.8416
523.00 0.841
523.10 0.8404
523.20 0.8397
523.30 0.8391
523.40 0.8385
523.50 0.8379
523.60 0.8373
523.70 0.8366
523.80 0.836
523.90 0.8354
524.00 0.8348
524.10 0.8342
524.20 0.8336
524.30 0.8329
524.40 0.8323
524.50 0.8317
524.60 0.8311
524.70 0.8305
524.80 0.8299
524.90 0.8293
525.00 0.8286
525.10 0.828
525.20 0.8274
525.30 0.8268
525.40 0.8262
525.50 0.8256
525.60 0.825
525.70 0.8244
525.80 0.8238
525.90 0.8232
526.00 0.8226
526.10 0.822
526.20 0.8214
526.30 0.8208
526.40 0.8202
526.50 0.8195
526.60 0.8189
526.70 0.8183
526.80 0.8177
526.90 0.8171
527.00 0.8165
527.10 0.8159
527.20 0.8153
527.30 0.8147
527.40 0.8141
527.50 0.8135
527.60 0.8129
527.70 0.8124
527.80 0.8118
527.90 0.8112
528.00 0.8106
528.10 0.81
528.20 0.8094
528.30 0.8088
528.40 0.8082
528.50 0.8076
528.60 0.807
528.70 0.8064
528.80 0.8058
528.90 0.8052
529.00 0.8046
529.10 0.8041
529.20 0.8035
529.30 0.8029
529.40 0.8023
529.50 0.8017
529.60 0.8011
529.70 0.8005
529.80 0.8
529.90 0.7994
530.00 0.7988
530.10 0.7982
530.20 0.7976
530.30 0.797
530.40 0.7964
530.50 0.7959
530.60 0.7953
530.70 0.7947
530.80 0.7941
530.90 0.7935
531.00 0.793
531.10 0.7924
531.20 0.7918
531.30 0.7912
531.40 0.7907
531.50 0.7901
531.60 0.7895
531.70 0.7889
531.80 0.7884
531.90 0.7878
532.00 0.7872
532.10 0.7866
532.20 0.7861
532.30 0.7855
532.40 0.7849
532.50 0.7844
532.60 0.7838
532.70 0.7832
532.80 0.7826
532.90 0.7821
533.00 0.7815
533.10 0.7809
533.20 0.7804
533.30 0.7798
533.40 0.7792
533.50 0.7787
533.60 0.7781
533.70 0.7775
533.80 0.777
533.90 0.7764
534.00 0.7758
534.10 0.7753
534.20 0.7747
534.30 0.7742
534.40 0.7736
534.50 0.773
534.60 0.7725
534.70 0.7719
534.80 0.7714
534.90 0.7708
535.00 0.7702
535.10 0.7697
535.20 0.7691
535.30 0.7686
535.40 0.768
535.50 0.7675
535.60 0.7669
535.70 0.7663
535.80 0.7658
535.90 0.7652
536.00 0.7647
536.10 0.7641
536.20 0.7636
536.30 0.763
536.40 0.7625
536.50 0.7619
536.60 0.7614
536.70 0.7608
536.80 0.7603
536.90 0.7597
537.00 0.7592
537.10 0.7586
537.20 0.7581
537.30 0.7575
537.40 0.757
537.50 0.7564
537.60 0.7559
537.70 0.7554
537.80 0.7548
537.90 0.7543
538.00 0.7537
538.10 0.7532
538.20 0.7526
538.30 0.7521
538.40 0.7516
538.50 0.751
538.60 0.7505
538.70 0.7499
538.80 0.7494
538.90 0.7489
539.00 0.7483
539.10 0.7478
539.20 0.7473
539.30 0.7467
539.40 0.7462
539.50 0.7456
539.60 0.7451
539.70 0.7446
539.80 0.744
539.90 0.7435
540.00 0.743
540.10 0.7424
540.20 0.7419
540.30 0.7414
540.40 0.7408
540.50 0.7403
540.60 0.7398
540.70 0.7392
540.80 0.7387
540.90 0.7382
541.00 0.7377
541.10 0.7371
541.20 0.7366
541.30 0.7361
541.40 0.7355
541.50 0.735
541.60 0.7345
541.70 0.734
541.80 0.7334
541.90 0.7329
542.00 0.7324
542.10 0.7319
542.20 0.7313
542.30 0.7308
542.40 0.7303
542.50 0.7298
542.60 0.7293
542.70 0.7287
542.80 0.7282
542.90 0.7277
543.00 0.7272
543.10 0.7267
543.20 0.7261
543.30 0.7256
543.40 0.7251
543.50 0.7246
543.60 0.7241
543.70 0.7236
543.80 0.723
543.90 0.7225
544.00 0.722
544.10 0.7215
544.20 0.721
544.30 0.7205
544.40 0.72
544.50 0.7194
544.60 0.7189
544.70 0.7184
544.80 0.7179
544.90 0.7174
545.00 0.7169
545.10 0.7164
545.20 0.7159
545.30 0.7154
545.40 0.7149
545.50 0.7143
545.60 0.7138
545.70 0.7133
545.80 0.7128
545.90 0.7123
546.00 0.7118
546.10 0.7113
546.20 0.7108
546.30 0.7103
546.40 0.7098
546.50 0.7093
546.60 0.7088
546.70 0.7083
546.80 0.7078
546.90 0.7073
547.00 0.7068
547.10 0.7063
547.20 0.7058
547.30 0.7053
547.40 0.7048
547.50 0.7043
547.60 0.7038
547.70 0.7033
547.80 0.7028
547.90 0.7023
548.00 0.7018
548.10 0.7013
548.20 0.7008
548.30 0.7003
548.40 0.6998
548.50 0.6993
548.60 0.6988
548.70 0.6983
548.80 0.6978
548.90 0.6973
549.00 0.6968
549.10 0.6964
549.20 0.6959
549.30 0.6954
549.40 0.6949
549.50 0.6944
549.60 0.6939
549.70 0.6934
549.80 0.6929
549.90 0.6924
550.00 0.6919
550.10 0.6915
550.20 0.691
550.30 0.6905
550.40 0.69
550.50 0.6895
550.60 0.689
550.70 0.6885
550.80 0.6881
550.90 0.6876
551.00 0.6871
551.10 0.6866
551.20 0.6861
551.30 0.6856
551.40 0.6852
551.50 0.6847
551.60 0.6842
551.70 0.6837
551.80 0.6832
551.90 0.6828
552.00 0.6823
552.10 0.6818
552.20 0.6813
552.30 0.6808
552.40 0.6804
552.50 0.6799
552.60 0.6794
552.70 0.6789
552.80 0.6785
552.90 0.678
553.00 0.6775
553.10 0.677
553.20 0.6766
553.30 0.6761
553.40 0.6756
553.50 0.6751
553.60 0.6747
553.70 0.6742
553.80 0.6737
553.90 0.6732
554.00 0.6728
554.10 0.6723
554.20 0.6718
554.30 0.6714
554.40 0.6709
554.50 0.6704
554.60 0.67
554.70 0.6695
554.80 0.669
554.90 0.6686
555.00 0.6681
555.10 0.6676
555.20 0.6672
555.30 0.6667
555.40 0.6662
555.50 0.6658
555.60 0.6653
555.70 0.6648
555.80 0.6644
555.90 0.6639
556.00 0.6634
556.10 0.663
556.20 0.6625
556.30 0.662
556.40 0.6616
556.50 0.6611
556.60 0.6607
556.70 0.6602
556.80 0.6597
556.90 0.6593
557.00 0.6588
557.10 0.6584
557.20 0.6579
557.30 0.6575
557.40 0.657
557.50 0.6565
557.60 0.6561
557.70 0.6556
557.80 0.6552
557.90 0.6547
558.00 0.6543
558.10 0.6538
558.20 0.6533
558.30 0.6529
558.40 0.6524
558.50 0.652
558.60 0.6515
558.70 0.6511
558.80 0.6506
558.90 0.6502
559.00 0.6497
559.10 0.6493
559.20 0.6488
559.30 0.6484
559.40 0.6479
559.50 0.6475
559.60 0.647
559.70 0.6466
559.80 0.6461
559.90 0.6457
560.00 0.6452
560.10 0.6448
560.20 0.6443
560.30 0.6439
560.40 0.6435
560.50 0.643
560.60 0.6426
560.70 0.6421
560.80 0.6417
560.90 0.6412
561.00 0.6408
561.10 0.6403
561.20 0.6399
561.30 0.6395
561.40 0.639
561.50 0.6386
561.60 0.6381
561.70 0.6377
561.80 0.6373
561.90 0.6368
562.00 0.6364
562.10 0.6359
562.20 0.6355
562.30 0.6351
562.40 0.6346
562.50 0.6342
562.60 0.6337
562.70 0.6333
562.80 0.6329
562.90 0.6324
563.00 0.632
563.10 0.6316
563.20 0.6311
563.30 0.6307
563.40 0.6303
563.50 0.6298
563.60 0.6294
563.70 0.629
563.80 0.6285
563.90 0.6281
564.00 0.6277
564.10 0.6272
564.20 0.6268
564.30 0.6264
564.40 0.6259
564.50 0.6255
564.60 0.6251
564.70 0.6247
564.80 0.6242
564.90 0.6238
565.00 0.6234
565.10 0.6229
565.20 0.6225
565.30 0.6221
565.40 0.6217
565.50 0.6212
565.60 0.6208
565.70 0.6204
565.80 0.62
565.90 0.6195
566.00 0.6191
566.10 0.6187
566.20 0.6183
566.30 0.6178
566.40 0.6174
566.50 0.617
566.60 0.6166
566.70 0.6161
566.80 0.6157
566.90 0.6153
567.00 0.6149
567.10 0.6145
567.20 0.614
567.30 0.6136
567.40 0.6132
567.50 0.6128
567.60 0.6124
567.70 0.6119
567.80 0.6115
567.90 0.6111
568.00 0.6107
568.10 0.6103
568.20 0.6099
568.30 0.6094
568.40 0.609
568.50 0.6086
568.60 0.6082
568.70 0.6078
568.80 0.6074
568.90 0.607
569.00 0.6065
569.10 0.6061
569.20 0.6057
569.30 0.6053
569.40 0.6049
569.50 0.6045
569.60 0.6041
569.70 0.6036
569.80 0.6032
569.90 0.6028
570.00 0.6024
570.10 0.602
570.20 0.6016
570.30 0.6012
570.40 0.6008
570.50 0.6004
570.60 0.6
570.70 0.5996
570.80 0.5991
570.90 0.5987
571.00 0.5983
571.10 0.5979
571.20 0.5975
571.30 0.5971
571.40 0.5967
571.50 0.5963
571.60 0.5959
571.70 0.5955
571.80 0.5951
571.90 0.5947
572.00 0.5943
572.10 0.5939
572.20 0.5935
572.30 0.5931
572.40 0.5927
572.50 0.5923
572.60 0.5919
572.70 0.5915
572.80 0.5911
572.90 0.5907
573.00 0.5903
573.10 0.5899
573.20 0.5895
573.30 0.5891
573.40 0.5887
573.50 0.5883
573.60 0.5879
573.70 0.5875
573.80 0.5871
573.90 0.5867
574.00 0.5863
574.10 0.5859
574.20 0.5855
574.30 0.5851
574.40 0.5847
574.50 0.5843
574.60 0.5839
574.70 0.5835
574.80 0.5831
574.90 0.5827
575.00 0.5823
575.10 0.582
575.20 0.5816
575.30 0.5812
575.40 0.5808
575.50 0.5804
575.60 0.58
575.70 0.5796
575.80 0.5792
575.90 0.5788
576.00 0.5784
576.10 0.578
576.20 0.5776
576.30 0.5773
576.40 0.5769
576.50 0.5765
576.60 0.5761
576.70 0.5757
576.80 0.5753
576.90 0.5749
577.00 0.5745
577.10 0.5742
577.20 0.5738
577.30 0.5734
577.40 0.573
577.50 0.5726
577.60 0.5722
577.70 0.5718
577.80 0.5715
577.90 0.5711
578.00 0.5707
578.10 0.5703
578.20 0.5699
578.30 0.5695
578.40 0.5692
578.50 0.5688
578.60 0.5684
578.70 0.568
578.80 0.5676
578.90 0.5673
579.00 0.5669
579.10 0.5665
579.20 0.5661
579.30 0.5657
579.40 0.5654
579.50 0.565
579.60 0.5646
579.70 0.5642
579.80 0.5638
579.90 0.5635
580.00 0.5631
580.10 0.5627
580.20 0.5623
580.30 0.562
580.40 0.5616
580.50 0.5612
580.60 0.5608
580.70 0.5605
580.80 0.5601
580.90 0.5597
581.00 0.5593
581.10 0.559
581.20 0.5586
581.30 0.5582
581.40 0.5578
581.50 0.5575
581.60 0.5571
581.70 0.5567
581.80 0.5564
581.90 0.556
582.00 0.5556
582.10 0.5552
582.20 0.5549
582.30 0.5545
582.40 0.5541
582.50 0.5538
582.60 0.5534
582.70 0.553
582.80 0.5527
582.90 0.5523
583.00 0.5519
583.10 0.5516
583.20 0.5512
583.30 0.5508
583.40 0.5505
583.50 0.5501
583.60 0.5497
583.70 0.5494
583.80 0.549
583.90 0.5486
584.00 0.5483
584.10 0.5479
584.20 0.5475
584.30 0.5472
584.40 0.5468
584.50 0.5464
584.60 0.5461
584.70 0.5457
584.80 0.5454
584.90 0.545
585.00 0.5446
585.10 0.5443
585.20 0.5439
585.30 0.5436
585.40 0.5432
585.50 0.5428
585.60 0.5425
585.70 0.5421
585.80 0.5418
585.90 0.5414
586.00 0.541
586.10 0.5407
586.20 0.5403
586.30 0.54
586.40 0.5396
586.50 0.5393
586.60 0.5389
586.70 0.5385
586.80 0.5382
586.90 0.5378
587.00 0.5375
587.10 0.5371
587.20 0.5368
587.30 0.5364
587.40 0.5361
587.50 0.5357
587.60 0.5353
587.70 0.535
587.80 0.5346
587.90 0.5343
588.00 0.5339
588.10 0.5336
588.20 0.5332
588.30 0.5329
588.40 0.5325
588.50 0.5322
588.60 0.5318
588.70 0.5315
588.80 0.5311
588.90 0.5308
589.00 0.5304
589.10 0.5301
589.20 0.5297
589.30 0.5294
589.40 0.529
589.50 0.5287
589.60 0.5283
589.70 0.528
589.80 0.5276
589.90 0.5273
590.00 0.5269
590.10 0.5266
590.20 0.5262
590.30 0.5259
590.40 0.5255
590.50 0.5252
590.60 0.5249
590.70 0.5245
590.80 0.5242
590.90 0.5238
591.00 0.5235
591.10 0.5231
591.20 0.5228
591.30 0.5224
591.40 0.5221
591.50 0.5218
591.60 0.5214
591.70 0.5211
591.80 0.5207
591.90 0.5204
592.00 0.5201
592.10 0.5197
592.20 0.5194
592.30 0.519
592.40 0.5187
592.50 0.5184
592.60 0.518
592.70 0.5177
592.80 0.5173
592.90 0.517
593.00 0.5167
593.10 0.5163
593.20 0.516
593.30 0.5156
593.40 0.5153
593.50 0.515
593.60 0.5146
593.70 0.5143
593.80 0.514
593.90 0.5136
594.00 0.5133
594.10 0.513
594.20 0.5126
594.30 0.5123
594.40 0.5119
594.50 0.5116
594.60 0.5113
594.70 0.5109
594.80 0.5106
594.90 0.5103
595.00 0.5099
595.10 0.5096
595.20 0.5093
595.30 0.5089
595.40 0.5086
595.50 0.5083
595.60 0.508
595.70 0.5076
595.80 0.5073
595.90 0.507
596.00 0.5066
596.10 0.5063
596.20 0.506
596.30 0.5056
596.40 0.5053
596.50 0.505
596.60 0.5047
596.70 0.5043
596.80 0.504
596.90 0.5037
597.00 0.5033
597.10 0.503
597.20 0.5027
597.30 0.5024
597.40 0.502
597.50 0.5017
597.60 0.5014
597.70 0.5011
597.80 0.5007
597.90 0.5004
598.00 0.5001
598.10 0.4998
598.20 0.4994
598.30 0.4991
598.40 0.4988
598.50 0.4985
598.60 0.4981
598.70 0.4978
598.80 0.4975
598.90 0.4972
599.00 0.4968
599.10 0.4965
599.20 0.4962
599.30 0.4959
599.40 0.4956
599.50 0.4952
599.60 0.4949
599.70 0.4946
599.80 0.4943
599.90 0.494
600.00 0.4936
600.10 0.4933
600.20 0.493
600.30 0.4927
600.40 0.4924
600.50 0.492
600.60 0.4917
600.70 0.4914
600.80 0.4911
600.90 0.4908
601.00 0.4905
601.10 0.4901
601.20 0.4898
601.30 0.4895
601.40 0.4892
601.50 0.4889
601.60 0.4886
601.70 0.4882
601.80 0.4879
601.90 0.4876
602.00 0.4873
602.10 0.487
602.20 0.4867
602.30 0.4864
602.40 0.486
602.50 0.4857
602.60 0.4854
602.70 0.4851
602.80 0.4848
602.90 0.4845
603.00 0.4842
603.10 0.4838
603.20 0.4835
603.30 0.4832
603.40 0.4829
603.50 0.4826
603.60 0.4823
603.70 0.482
603.80 0.4817
603.90 0.4814
604.00 0.4811
604.10 0.4807
604.20 0.4804
604.30 0.4801
604.40 0.4798
604.50 0.4795
604.60 0.4792
604.70 0.4789
604.80 0.4786
604.90 0.4783
605.00 0.478
605.10 0.4777
605.20 0.4774
605.30 0.4771
605.40 0.4767
605.50 0.4764
605.60 0.4761
605.70 0.4758
605.80 0.4755
605.90 0.4752
606.00 0.4749
606.10 0.4746
606.20 0.4743
606.30 0.474
606.40 0.4737
606.50 0.4734
606.60 0.4731
606.70 0.4728
606.80 0.4725
606.90 0.4722
607.00 0.4719
607.10 0.4716
607.20 0.4713
607.30 0.471
607.40 0.4707
607.50 0.4704
607.60 0.4701
607.70 0.4698
607.80 0.4695
607.90 0.4692
608.00 0.4689
608.10 0.4686
608.20 0.4683
608.30 0.468
608.40 0.4677
608.50 0.4674
608.60 0.4671
608.70 0.4668
608.80 0.4665
608.90 0.4662
609.00 0.4659
609.10 0.4656
609.20 0.4653
609.30 0.465
609.40 0.4647
609.50 0.4644
609.60 0.4641
609.70 0.4638
609.80 0.4635
609.90 0.4632
610.00 0.4629
610.10 0.4626
610.20 0.4623
610.30 0.462
610.40 0.4617
610.50 0.4615
610.60 0.4612
610.70 0.4609
610.80 0.4606
610.90 0.4603
611.00 0.46
611.10 0.4597
611.20 0.4594
611.30 0.4591
611.40 0.4588
611.50 0.4585
611.60 0.4582
611.70 0.4579
611.80 0.4577
611.90 0.4574
612.00 0.4571
612.10 0.4568
612.20 0.4565
612.30 0.4562
612.40 0.4559
612.50 0.4556
612.60 0.4553
612.70 0.455
612.80 0.4548
612.90 0.4545
613.00 0.4542
613.10 0.4539
613.20 0.4536
613.30 0.4533
613.40 0.453
613.50 0.4527
613.60 0.4525
613.70 0.4522
613.80 0.4519
613.90 0.4516
614.00 0.4513
614.10 0.451
614.20 0.4507
614.30 0.4505
614.40 0.4502
614.50 0.4499
614.60 0.4496
614.70 0.4493
614.80 0.449
614.90 0.4488
615.00 0.4485
615.10 0.4482
615.20 0.4479
615.30 0.4476
615.40 0.4473
615.50 0.4471
615.60 0.4468
615.70 0.4465
615.80 0.4462
615.90 0.4459
616.00 0.4456
616.10 0.4454
616.20 0.4451
616.30 0.4448
616.40 0.4445
616.50 0.4442
616.60 0.444
616.70 0.4437
616.80 0.4434
616.90 0.4431
617.00 0.4428
617.10 0.4426
617.20 0.4423
617.30 0.442
617.40 0.4417
617.50 0.4414
617.60 0.4412
617.70 0.4409
617.80 0.4406
617.90 0.4403
618.00 0.4401
618.10 0.4398
618.20 0.4395
618.30 0.4392
618.40 0.439
618.50 0.4387
618.60 0.4384
618.70 0.4381
618.80 0.4379
618.90 0.4376
619.00 0.4373
619.10 0.437
619.20 0.4368
619.30 0.4365
619.40 0.4362
619.50 0.4359
619.60 0.4357
619.70 0.4354
619.80 0.4351
619.90 0.4348
620.00 0.4346
620.10 0.4343
620.20 0.434
620.30 0.4337
620.40 0.4335
620.50 0.4332
620.60 0.4329
620.70 0.4327
620.80 0.4324
620.90 0.4321
621.00 0.4318
621.10 0.4316
621.20 0.4313
621.30 0.431
621.40 0.4308
621.50 0.4305
621.60 0.4302
621.70 0.43
621.80 0.4297
621.90 0.4294
622.00 0.4292
622.10 0.4289
622.20 0.4286
622.30 0.4283
622.40 0.4281
622.50 0.4278
622.60 0.4275
622.70 0.4273
622.80 0.427
622.90 0.4267
623.00 0.4265
623.10 0.4262
623.20 0.4259
623.30 0.4257
623.40 0.4254
623.50 0.4251
623.60 0.4249
623.70 0.4246
623.80 0.4244
623.90 0.4241
624.00 0.4238
624.10 0.4236
624.20 0.4233
624.30 0.423
624.40 0.4228
624.50 0.4225
624.60 0.4222
624.70 0.422
624.80 0.4217
624.90 0.4215
625.00 0.4212
625.10 0.4209
625.20 0.4207
625.30 0.4204
625.40 0.4201
625.50 0.4199
625.60 0.4196
625.70 0.4194
625.80 0.4191
625.90 0.4188
626.00 0.4186
626.10 0.4183
626.20 0.4181
626.30 0.4178
626.40 0.4175
626.50 0.4173
626.60 0.417
626.70 0.4168
626.80 0.4165
626.90 0.4162
627.00 0.416
627.10 0.4157
627.20 0.4155
627.30 0.4152
627.40 0.415
627.50 0.4147
627.60 0.4144
627.70 0.4142
627.80 0.4139
627.90 0.4137
628.00 0.4134
628.10 0.4132
628.20 0.4129
628.30 0.4126
628.40 0.4124
628.50 0.4121
628.60 0.4119
628.70 0.4116
628.80 0.4114
628.90 0.4111
629.00 0.4109
629.10 0.4106
629.20 0.4103
629.30 0.4101
629.40 0.4098
629.50 0.4096
629.60 0.4093
629.70 0.4091
629.80 0.4088
629.90 0.4086
630.00 0.4083
630.10 0.4081
630.20 0.4078
630.30 0.4076
630.40 0.4073
630.50 0.4071
630.60 0.4068
630.70 0.4066
630.80 0.4063
630.90 0.406
631.00 0.4058
631.10 0.4055
631.20 0.4053
631.30 0.405
631.40 0.4048
631.50 0.4045
631.60 0.4043
631.70 0.404
631.80 0.4038
631.90 0.4035
632.00 0.4033
632.10 0.403
632.20 0.4028
632.30 0.4026
632.40 0.4023
632.50 0.4021
632.60 0.4018
632.70 0.4016
632.80 0.4013
632.90 0.4011
633.00 0.4008
633.10 0.4006
633.20 0.4003
633.30 0.4001
633.40 0.3998
633.50 0.3996
633.60 0.3993
633.70 0.3991
633.80 0.3988
633.90 0.3986
634.00 0.3984
634.10 0.3981
634.20 0.3979
634.30 0.3976
634.40 0.3974
634.50 0.3971
634.60 0.3969
634.70 0.3966
634.80 0.3964
634.90 0.3961
635.00 0.3959
635.10 0.3957
635.20 0.3954
635.30 0.3952
635.40 0.3949
635.50 0.3947
635.60 0.3944
635.70 0.3942
635.80 0.394
635.90 0.3937
636.00 0.3935
636.10 0.3932
636.20 0.393
636.30 0.3927
636.40 0.3925
636.50 0.3923
636.60 0.392
636.70 0.3918
636.80 0.3915
636.90 0.3913
637.00 0.3911
637.10 0.3908
637.20 0.3906
637.30 0.3903
637.40 0.3901
637.50 0.3899
637.60 0.3896
637.70 0.3894
637.80 0.3891
637.90 0.3889
638.00 0.3887
638.10 0.3884
638.20 0.3882
638.30 0.3879
638.40 0.3877
638.50 0.3875
638.60 0.3872
638.70 0.387
638.80 0.3867
638.90 0.3865
639.00 0.3863
639.10 0.386
639.20 0.3858
639.30 0.3856
639.40 0.3853
639.50 0.3851
639.60 0.3848
639.70 0.3846
639.80 0.3844
639.90 0.3841
640.00 0.3839
640.10 0.3837
640.20 0.3834
640.30 0.3832
640.40 0.3829
640.50 0.3827
640.60 0.3825
640.70 0.3822
640.80 0.382
640.90 0.3818
641.00 0.3815
641.10 0.3813
641.20 0.3811
641.30 0.3808
641.40 0.3806
641.50 0.3804
641.60 0.3801
641.70 0.3799
641.80 0.3796
641.90 0.3794
642.00 0.3792
642.10 0.3789
642.20 0.3787
642.30 0.3785
642.40 0.3782
642.50 0.378
642.60 0.3778
642.70 0.3775
642.80 0.3773
642.90 0.3771
643.00 0.3768
643.10 0.3766
643.20 0.3764
643.30 0.3761
643.40 0.3759
643.50 0.3757
643.60 0.3754
643.70 0.3752
643.80 0.375
643.90 0.3747
644.00 0.3745
644.10 0.3742
644.20 0.374
644.30 0.3738
644.40 0.3735
644.50 0.3733
644.60 0.3731
644.70 0.3728
644.80 0.3726
644.90 0.3724
645.00 0.3721
645.10 0.3719
645.20 0.3717
645.30 0.3714
645.40 0.3712
645.50 0.371
645.60 0.3707
645.70 0.3705
645.80 0.3702
645.90 0.37
646.00 0.3698
646.10 0.3695
646.20 0.3693
646.30 0.3691
646.40 0.3688
646.50 0.3686
646.60 0.3683
646.70 0.3681
646.80 0.3679
646.90 0.3676
647.00 0.3674
647.10 0.3671
647.20 0.3669
647.30 0.3667
647.40 0.3664
647.50 0.3662
647.60 0.3659
647.70 0.3657
647.80 0.3654
647.90 0.3652
648.00 0.3649
648.10 0.3647
648.20 0.3644
648.30 0.3642
648.40 0.3639
648.50 0.3637
648.60 0.3634
648.70 0.3632
648.80 0.3629
648.90 0.3627
649.00 0.3624
649.10 0.3622
649.20 0.3619
649.30 0.3616
649.40 0.3614
649.50 0.3611
649.60 0.3608
649.70 0.3605
649.80 0.3603
649.90 0.36
650.00 0.3597
650.10 0.3595
650.20 0.3592
650.30 0.3589
650.40 0.3586
650.50 0.3583
650.60 0.358
650.70 0.3577
650.80 0.3574
650.90 0.3571
651.00 0.3568
651.10 0.3565
651.20 0.3562
651.30 0.3559
651.40 0.3555
651.50 0.3552
651.60 0.3548
651.70 0.3545
651.80 0.3541
651.90 0.3538
652.00 0.3534
652.10 0.3531
652.20 0.3527
652.30 0.3524
652.40 0.3519
652.50 0.3515
652.60 0.351
652.70 0.3506
652.80 0.3501
652.90 0.3497
653.00 0.3493
653.10 0.3488
653.20 0.3484
653.30 0.3479
653.40 0.3473
653.50 0.3467
653.60 0.3461
653.70 0.3455
653.80 0.3449
653.90 0.3443
654.00 0.3437
654.10 0.3431
654.20 0.3425
654.30 0.3419
654.40 0.3412
654.50 0.3404
654.60 0.3396
654.70 0.3389
654.80 0.3381
654.90 0.3372
655.00 0.3364
655.10 0.3355
655.20 0.3346
655.30 0.3337
655.40 0.3328
655.50 0.3318
655.60 0.3308
655.70 0.3298
655.80 0.3287
655.90 0.3277
656.00 0.3272
656.10 0.3272
656.20 0.3366
656.30 0.3471
656.40 0.3306
656.50 0.3261
656.60 0.3262
656.70 0.3264
656.80 0.3271
656.90 0.3278
657.00 0.3284
657.10 0.329
657.20 0.3296
657.30 0.3301
657.40 0.3306
657.50 0.3311
657.60 0.3316
657.70 0.332
657.80 0.3325
657.90 0.3328
658.00 0.3332
658.10 0.3335
658.20 0.3339
658.30 0.3342
658.40 0.3344
658.50 0.3346
658.60 0.3348
658.70 0.335
658.80 0.3351
658.90 0.3353
659.00 0.3355
659.10 0.3357
659.20 0.3359
659.30 0.336
659.40 0.3361
659.50 0.3361
659.60 0.3361
659.70 0.3361
659.80 0.3362
659.90 0.3362
660.00 0.3362
660.10 0.3363
660.20 0.3363
660.30 0.3363
660.40 0.3362
660.50 0.3362
660.60 0.3361
660.70 0.336
660.80 0.336
660.90 0.3359
661.00 0.3358
661.10 0.3358
661.20 0.3357
661.30 0.3356
661.40 0.3355
661.50 0.3354
661.60 0.3353
661.70 0.3352
661.80 0.335
661.90 0.3349
662.00 0.3348
662.10 0.3347
662.20 0.3346
662.30 0.3344
662.40 0.3343
662.50 0.3342
662.60 0.334
662.70 0.3339
662.80 0.3337
662.90 0.3336
663.00 0.3334
663.10 0.3333
663.20 0.3331
663.30 0.333
663.40 0.3328
663.50 0.3327
663.60 0.3325
663.70 0.3323
663.80 0.3322
663.90 0.332
664.00 0.3319
664.10 0.3317
664.20 0.3315
664.30 0.3314
664.40 0.3312
664.50 0.331
664.60 0.3309
664.70 0.3307
664.80 0.3305
664.90 0.3303
665.00 0.3302
665.10 0.33
665.20 0.3298
665.30 0.3297
665.40 0.3295
665.50 0.3293
665.60 0.3291
665.70 0.329
665.80 0.3288
665.90 0.3286
666.00 0.3284
666.10 0.3282
666.20 0.3281
666.30 0.3279
666.40 0.3277
666.50 0.3275
666.60 0.3274
666.70 0.3272
666.80 0.327
666.90 0.3268
667.00 0.3266
667.10 0.3265
667.20 0.3263
667.30 0.3261
667.40 0.3259
667.50 0.3257
667.60 0.3256
667.70 0.3254
667.80 0.3252
667.90 0.325
668.00 0.3248
668.10 0.3247
668.20 0.3245
668.30 0.3243
668.40 0.3241
668.50 0.3239
668.60 0.3237
668.70 0.3236
668.80 0.3234
668.90 0.3232
669.00 0.323
669.10 0.3228
669.20 0.3227
669.30 0.3225
669.40 0.3223
669.50 0.3221
669.60 0.3219
669.70 0.3217
669.80 0.3216
669.90 0.3214
670.00 0.3212
670.10 0.321
670.20 0.3208
670.30 0.3207
670.40 0.3205
670.50 0.3203
670.60 0.3201
670.70 0.3199
670.80 0.3197
670.90 0.3196
671.00 0.3194
671.10 0.3192
671.20 0.319
671.30 0.3188
671.40 0.3187
671.50 0.3185
671.60 0.3183
671.70 0.3181
671.80 0.3179
671.90 0.3178
672.00 0.3176
672.10 0.3174
672.20 0.3172
672.30 0.317
672.40 0.3168
672.50 0.3167
672.60 0.3165
672.70 0.3163
672.80 0.3161
672.90 0.3159
673.00 0.3158
673.10 0.3156
673.20 0.3154
673.30 0.3152
673.40 0.315
673.50 0.3149
673.60 0.3147
673.70 0.3145
673.80 0.3143
673.90 0.3141
674.00 0.314
674.10 0.3138
674.20 0.3136
674.30 0.3134
674.40 0.3133
674.50 0.3131
674.60 0.3129
674.70 0.3127
674.80 0.3125
674.90 0.3124
675.00 0.3122
675.10 0.312
675.20 0.3118
675.30 0.3116
675.40 0.3115
675.50 0.3113
675.60 0.3111
675.70 0.3109
675.80 0.3108
675.90 0.3106
676.00 0.3104
676.10 0.3102
676.20 0.31
676.30 0.3099
676.40 0.3097
676.50 0.3095
676.60 0.3093
676.70 0.3092
676.80 0.309
676.90 0.3088
677.00 0.3086
677.10 0.3085
677.20 0.3083
677.30 0.3081
677.40 0.3079
677.50 0.3078
677.60 0.3076
677.70 0.3074
677.80 0.3072
677.90 0.3071
678.00 0.3069
678.10 0.3067
678.20 0.3065
678.30 0.3064
678.40 0.3062
678.50 0.306
678.60 0.3058
678.70 0.3057
678.80 0.3055
678.90 0.3053
679.00 0.3051
679.10 0.305
679.20 0.3048
679.30 0.3046
679.40 0.3044
679.50 0.3043
679.60 0.3041
679.70 0.3039
679.80 0.3037
679.90 0.3036
680.00 0.3034
680.10 0.3032
680.20 0.303
680.30 0.3029
680.40 0.3027
680.50 0.3025
680.60 0.3024
680.70 0.3022
680.80 0.302
680.90 0.3018
681.00 0.3017
681.10 0.3015
681.20 0.3013
681.30 0.3012
681.40 0.301
681.50 0.3008
681.60 0.3006
681.70 0.3005
681.80 0.3003
681.90 0.3001
682.00 0.3
682.10 0.2998
682.20 0.2996
682.30 0.2994
682.40 0.2993
682.50 0.2991
682.60 0.2989
682.70 0.2988
682.80 0.2986
682.90 0.2984
683.00 0.2983
683.10 0.2981
683.20 0.2979
683.30 0.2978
683.40 0.2976
683.50 0.2974
683.60 0.2972
683.70 0.2971
683.80 0.2969
683.90 0.2967
684.00 0.2966
684.10 0.2964
684.20 0.2962
684.30 0.2961
684.40 0.2959
684.50 0.2957
684.60 0.2956
684.70 0.2954
684.80 0.2952
684.90 0.2951
685.00 0.2949
685.10 0.2947
685.20 0.2946
685.30 0.2944
685.40 0.2942
685.50 0.2941
685.60 0.2939
685.70 0.2937
685.80 0.2936
685.90 0.2934
686.00 0.2932
686.10 0.2931
686.20 0.2929
686.30 0.2927
686.40 0.2926
686.50 0.2924
686.60 0.2922
686.70 0.2921
686.80 0.2919
686.90 0.2917
687.00 0.2916
687.10 0.2914
687.20 0.2912
687.30 0.2911
687.40 0.2909
687.50 0.2907
687.60 0.2906
687.70 0.2904
687.80 0.2903
687.90 0.2901
688.00 0.2899
688.10 0.2898
688.20 0.2896
688.30 0.2894
688.40 0.2893
688.50 0.2891
688.60 0.2889
688.70 0.2888
688.80 0.2886
688.90 0.2885
689.00 0.2883
689.10 0.2881
689.20 0.288
689.30 0.2878
689.40 0.2876
689.50 0.2875
689.60 0.2873
689.70 0.2872
689.80 0.287
689.90 0.2868
690.00 0.2867
690.10 0.2865
690.20 0.2864
690.30 0.2862
690.40 0.286
690.50 0.2859
690.60 0.2857
690.70 0.2856
690.80 0.2854
690.90 0.2852
691.00 0.2851
691.10 0.2849
691.20 0.2848
691.30 0.2846
691.40 0.2844
691.50 0.2843
691.60 0.2841
691.70 0.284
691.80 0.2838
691.90 0.2836
692.00 0.2835
692.10 0.2833
692.20 0.2832
692.30 0.283
692.40 0.2828
692.50 0.2827
692.60 0.2825
692.70 0.2824
692.80 0.2822
692.90 0.282
693.00 0.2819
693.10 0.2817
693.20 0.2816
693.30 0.2814
693.40 0.2813
693.50 0.2811
693.60 0.2809
693.70 0.2808
693.80 0.2806
693.90 0.2805
694.00 0.2803
694.10 0.2802
694.20 0.28
694.30 0.2798
694.40 0.2797
694.50 0.2795
694.60 0.2794
694.70 0.2792
694.80 0.2791
694.90 0.2789
695.00 0.2787
695.10 0.2786
695.20 0.2784
695.30 0.2783
695.40 0.2781
695.50 0.278
695.60 0.2778
695.70 0.2777
695.80 0.2775
695.90 0.2773
696.00 0.2772
696.10 0.277
696.20 0.2769
696.30 0.2767
696.40 0.2766
696.50 0.2764
696.60 0.2763
696.70 0.2761
696.80 0.276
696.90 0.2758
697.00 0.2756
697.10 0.2755
697.20 0.2753
697.30 0.2752
697.40 0.275
697.50 0.2749
697.60 0.2747
697.70 0.2746
697.80 0.2744
697.90 0.2743
698.00 0.2741
698.10 0.274
698.20 0.2738
698.30 0.2737
698.40 0.2735
698.50 0.2734
698.60 0.2732
698.70 0.273
698.80 0.2729
698.90 0.2727
699.00 0.2726
699.10 0.2724
699.20 0.2723
699.30 0.2721
699.40 0.272
699.50 0.2718
699.60 0.2717
699.70 0.2715
699.80 0.2714
699.90 0.2712
700.00 0.2711
700.10 0.2709
700.20 0.2708
700.30 0.2706
700.40 0.2705
700.50 0.2703
700.60 0.2702
700.70 0.27
700.80 0.2699
700.90 0.2697
701.00 0.2696
701.10 0.2694
701.20 0.2693
701.30 0.2691
701.40 0.269
701.50 0.2688
701.60 0.2687
701.70 0.2685
701.80 0.2684
701.90 0.2682
702.00 0.2681
702.10 0.2679
702.20 0.2678
702.30 0.2676
702.40 0.2675
702.50 0.2673
702.60 0.2672
702.70 0.267
702.80 0.2669
702.90 0.2668
703.00 0.2666
703.10 0.2665
703.20 0.2663
703.30 0.2662
703.40 0.266
703.50 0.2659
703.60 0.2657
703.70 0.2656
703.80 0.2654
703.90 0.2653
704.00 0.2651
704.10 0.265
704.20 0.2648
704.30 0.2647
704.40 0.2645
704.50 0.2644
704.60 0.2643
704.70 0.2641
704.80 0.264
704.90 0.2638
705.00 0.2637
705.10 0.2635
705.20 0.2634
705.30 0.2632
705.40 0.2631
705.50 0.2629
705.60 0.2628
705.70 0.2627
705.80 0.2625
705.90 0.2624
706.00 0.2622
706.10 0.2621
706.20 0.2619
706.30 0.2618
706.40 0.2616
706.50 0.2615
706.60 0.2614
706.70 0.2612
706.80 0.2611
706.90 0.2609
707.00 0.2608
707.10 0.2606
707.20 0.2605
707.30 0.2604
707.40 0.2602
707.50 0.2601
707.60 0.2599
707.70 0.2598
707.80 0.2596
707.90 0.2595
708.00 0.2594
708.10 0.2592
708.20 0.2591
708.30 0.2589
708.40 0.2588
708.50 0.2586
708.60 0.2585
708.70 0.2584
708.80 0.2582
708.90 0.2581
709.00 0.2579
709.10 0.2578
709.20 0.2576
709.30 0.2575
709.40 0.2574
709.50 0.2572
709.60 0.2571
709.70 0.2569
709.80 0.2568
709.90 0.2567
710.00 0.2565
710.10 0.2564
710.20 0.2562
710.30 0.2561
710.40 0.256
710.50 0.2558
710.60 0.2557
710.70 0.2555
710.80 0.2554
710.90 0.2553
711.00 0.2551
711.10 0.255
711.20 0.2548
711.30 0.2547
711.40 0.2546
711.50 0.2544
711.60 0.2543
711.70 0.2541
711.80 0.254
711.90 0.2539
712.00 0.2537
712.10 0.2536
712.20 0.2534
712.30 0.2533
712.40 0.2532
712.50 0.253
712.60 0.2529
712.70 0.2528
712.80 0.2526
712.90 0.2525
713.00 0.2523
713.10 0.2522
713.20 0.2521
713.30 0.2519
713.40 0.2518
713.50 0.2517
713.60 0.2515
713.70 0.2514
713.80 0.2512
713.90 0.2511
714.00 0.251
714.10 0.2508
714.20 0.2507
714.30 0.2506
714.40 0.2504
714.50 0.2503
714.60 0.2501
714.70 0.25
714.80 0.2499
714.90 0.2497
715.00 0.2496
715.10 0.2495
715.20 0.2493
715.30 0.2492
715.40 0.2491
715.50 0.2489
715.60 0.2488
715.70 0.2487
715.80 0.2485
715.90 0.2484
716.00 0.2482
716.10 0.2481
716.20 0.248
716.30 0.2478
716.40 0.2477
716.50 0.2476
716.60 0.2474
716.70 0.2473
716.80 0.2472
716.90 0.247
717.00 0.2469
717.10 0.2468
717.20 0.2466
717.30 0.2465
717.40 0.2464
717.50 0.2462
717.60 0.2461
717.70 0.246
717.80 0.2458
717.90 0.2457
718.00 0.2456
718.10 0.2454
718.20 0.2453
718.30 0.2452
718.40 0.245
718.50 0.2449
718.60 0.2448
718.70 0.2446
718.80 0.2445
718.90 0.2444
719.00 0.2442
719.10 0.2441
719.20 0.244
719.30 0.2438
719.40 0.2437
719.50 0.2436
719.60 0.2434
719.70 0.2433
719.80 0.2432
719.90 0.243
720.00 0.2429
720.10 0.2428
720.20 0.2427
720.30 0.2425
720.40 0.2424
720.50 0.2423
720.60 0.2421
720.70 0.242
720.80 0.2419
720.90 0.2417
721.00 0.2416
721.10 0.2415
721.20 0.2414
721.30 0.2412
721.40 0.2411
721.50 0.241
721.60 0.2408
721.70 0.2407
721.80 0.2406
721.90 0.2404
722.00 0.2403
722.10 0.2402
722.20 0.2401
722.30 0.2399
722.40 0.2398
722.50 0.2397
722.60 0.2395
722.70 0.2394
722.80 0.2393
722.90 0.2391
723.00 0.239
723.10 0.2389
723.20 0.2388
723.30 0.2386
723.40 0.2385
723.50 0.2384
723.60 0.2382
723.70 0.2381
723.80 0.238
723.90 0.2379
724.00 0.2377
724.10 0.2376
724.20 0.2375
724.30 0.2374
724.40 0.2372
724.50 0.2371
724.60 0.237
724.70 0.2368
724.80 0.2367
724.90 0.2366
725.00 0.2365
725.10 0.2363
725.20 0.2362
725.30 0.2361
725.40 0.236
725.50 0.2358
725.60 0.2357
725.70 0.2356
725.80 0.2354
725.90 0.2353
726.00 0.2352
726.10 0.2351
726.20 0.2349
726.30 0.2348
726.40 0.2347
726.50 0.2346
726.60 0.2344
726.70 0.2343
726.80 0.2342
726.90 0.2341
727.00 0.2339
727.10 0.2338
727.20 0.2337
727.30 0.2336
727.40 0.2334
727.50 0.2333
727.60 0.2332
727.70 0.2331
727.80 0.2329
727.90 0.2328
728.00 0.2327
728.10 0.2326
728.20 0.2324
728.30 0.2323
728.40 0.2322
728.50 0.2321
728.60 0.2319
728.70 0.2318
728.80 0.2317
728.90 0.2316
729.00 0.2314
729.10 0.2313
729.20 0.2312
729.30 0.2311
729.40 0.231
729.50 0.2308
729.60 0.2307
729.70 0.2306
729.80 0.2305
729.90 0.2303
730.00 0.2302
730.10 0.2301
730.20 0.23
730.30 0.2298
730.40 0.2297
730.50 0.2296
730.60 0.2295
730.70 0.2294
730.80 0.2292
730.90 0.2291
731.00 0.229
731.10 0.2289
731.20 0.2288
731.30 0.2286
731.40 0.2285
731.50 0.2284
731.60 0.2283
731.70 0.2281
731.80 0.228
731.90 0.2279
732.00 0.2278
732.10 0.2277
732.20 0.2275
732.30 0.2274
732.40 0.2273
732.50 0.2272
732.60 0.2271
732.70 0.2269
732.80 0.2268
732.90 0.2267
733.00 0.2266
733.10 0.2265
733.20 0.2263
733.30 0.2262
733.40 0.2261
733.50 0.226
733.60 0.2259
733.70 0.2257
733.80 0.2256
733.90 0.2255
734.00 0.2254
734.10 0.2253
734.20 0.2251
734.30 0.225
734.40 0.2249
734.50 0.2248
734.60 0.2247
734.70 0.2246
734.80 0.2244
734.90 0.2243
735.00 0.2242
735.10 0.2241
735.20 0.224
735.30 0.2238
735.40 0.2237
735.50 0.2236
735.60 0.2235
735.70 0.2234
735.80 0.2232
735.90 0.2231
736.00 0.223
736.10 0.2229
736.20 0.2228
736.30 0.2227
736.40 0.2225
736.50 0.2224
736.60 0.2223
736.70 0.2222
736.80 0.2221
736.90 0.2219
737.00 0.2218
737.10 0.2217
737.20 0.2216
737.30 0.2215
737.40 0.2214
737.50 0.2212
737.60 0.2211
737.70 0.221
737.80 0.2209
737.90 0.2208
738.00 0.2207
738.10 0.2205
738.20 0.2204
738.30 0.2203
738.40 0.2202
738.50 0.2201
738.60 0.22
738.70 0.2198
738.80 0.2197
738.90 0.2196
739.00 0.2195
739.10 0.2194
739.20 0.2193
739.30 0.2191
739.40 0.219
739.50 0.2189
739.60 0.2188
739.70 0.2187
739.80 0.2186
739.90 0.2184
740.00 0.2183
740.10 0.2182
740.20 0.2181
740.30 0.218
740.40 0.2179
740.50 0.2178
740.60 0.2176
740.70 0.2175
740.80 0.2174
740.90 0.2173
741.00 0.2172
741.10 0.2171
741.20 0.217
741.30 0.2168
741.40 0.2167
741.50 0.2166
741.60 0.2165
741.70 0.2164
741.80 0.2163
741.90 0.2162
742.00 0.2161
742.10 0.2159
742.20 0.2158
742.30 0.2157
742.40 0.2156
742.50 0.2155
742.60 0.2154
742.70 0.2153
742.80 0.2152
742.90 0.215
743.00 0.2149
743.10 0.2148
743.20 0.2147
743.30 0.2146
743.40 0.2145
743.50 0.2144
743.60 0.2143
743.70 0.2141
743.80 0.214
743.90 0.2139
744.00 0.2138
744.10 0.2137
744.20 0.2136
744.30 0.2135
744.40 0.2134
744.50 0.2133
744.60 0.2131
744.70 0.213
744.80 0.2129
744.90 0.2128
745.00 0.2127
745.10 0.2126
745.20 0.2125
745.30 0.2124
745.40 0.2123
745.50 0.2121
745.60 0.212
745.70 0.2119
745.80 0.2118
745.90 0.2117
746.00 0.2116
746.10 0.2115
746.20 0.2114
746.30 0.2113
746.40 0.2111
746.50 0.211
746.60 0.2109
746.70 0.2108
746.80 0.2107
746.90 0.2106
747.00 0.2105
747.10 0.2104
747.20 0.2103
747.30 0.2102
747.40 0.21
747.50 0.2099
747.60 0.2098
747.70 0.2097
747.80 0.2096
747.90 0.2095
748.00 0.2094
748.10 0.2093
748.20 0.2092
748.30 0.2091
748.40 0.2089
748.50 0.2088
748.60 0.2087
748.70 0.2086
748.80 0.2085
748.90 0.2084
749.00 0.2083
749.10 0.2082
749.20 0.2081
749.30 0.208
749.40 0.2079
749.50 0.2077
749.60 0.2076
749.70 0.2075
749.80 0.2074
749.90 0.2073
750.00 0.2072
750.10 0.2071
750.20 0.207
750.30 0.2069
750.40 0.2068
750.50 0.2067
750.60 0.2066
750.70 0.2065
750.80 0.2063
750.90 0.2062
751.00 0.2061
751.10 0.206
751.20 0.2059
751.30 0.2058
751.40 0.2057
751.50 0.2056
751.60 0.2055
751.70 0.2054
751.80 0.2053
751.90 0.2052
752.00 0.2051
752.10 0.205
752.20 0.2049
752.30 0.2048
752.40 0.2047
752.50 0.2045
752.60 0.2044
752.70 0.2043
752.80 0.2042
752.90 0.2041
753.00 0.204
753.10 0.2039
753.20 0.2038
753.30 0.2037
753.40 0.2036
753.50 0.2035
753.60 0.2034
753.70 0.2033
753.80 0.2032
753.90 0.2031
754.00 0.203
754.10 0.2029
754.20 0.2028
754.30 0.2027
754.40 0.2026
754.50 0.2025
754.60 0.2023
754.70 0.2022
754.80 0.2021
754.90 0.202
755.00 0.2019
755.10 0.2018
755.20 0.2017
755.30 0.2016
755.40 0.2015
755.50 0.2014
755.60 0.2013
755.70 0.2012
755.80 0.2011
755.90 0.201
756.00 0.2009
756.10 0.2008
756.20 0.2007
756.30 0.2006
756.40 0.2005
756.50 0.2004
756.60 0.2003
756.70 0.2002
756.80 0.2001
756.90 0.2
757.00 0.1999
757.10 0.1998
757.20 0.1996
757.30 0.1995
757.40 0.1994
757.50 0.1993
757.60 0.1992
757.70 0.1991
757.80 0.199
757.90 0.1989
758.00 0.1988
758.10 0.1987
758.20 0.1986
758.30 0.1985
758.40 0.1984
758.50 0.1983
758.60 0.1982
758.70 0.1981
758.80 0.198
758.90 0.1979
759.00 0.1978
759.10 0.1977
759.20 0.1976
759.30 0.1975
759.40 0.1974
759.50 0.1973
759.60 0.1972
759.70 0.1971
759.80 0.197
759.90 0.1969
760.00 0.1968
760.10 0.1967
760.20 0.1966
760.30 0.1965
760.40 0.1964
760.50 0.1963
760.60 0.1962
760.70 0.1961
760.80 0.196
760.90 0.1959
761.00 0.1958
761.10 0.1957
761.20 0.1956
761.30 0.1955
761.40 0.1954
761.50 0.1953
761.60 0.1952
761.70 0.1951
761.80 0.195
761.90 0.1949
762.00 0.1948
762.10 0.1947
762.20 0.1946
762.30 0.1945
762.40 0.1944
762.50 0.1943
762.60 0.1942
762.70 0.1941
762.80 0.194
762.90 0.1939
763.00 0.1938
763.10 0.1937
763.20 0.1936
763.30 0.1935
763.40 0.1934
763.50 0.1933
763.60 0.1932
763.70 0.1931
763.80 0.193
763.90 0.1929
764.00 0.1928
764.10 0.1927
764.20 0.1926
764.30 0.1925
764.40 0.1924
764.50 0.1923
764.60 0.1922
764.70 0.1921
764.80 0.192
764.90 0.1919
765.00 0.1918
765.10 0.1917
765.20 0.1916
765.30 0.1915
765.40 0.1914
765.50 0.1913
765.60 0.1912
765.70 0.1912
765.80 0.1911
765.90 0.191
766.00 0.1909
766.10 0.1908
766.20 0.1907
766.30 0.1906
766.40 0.1905
766.50 0.1904
766.60 0.1903
766.70 0.1902
766.80 0.1901
766.90 0.19
767.00 0.1899
767.10 0.1898
767.20 0.1897
767.30 0.1896
767.40 0.1895
767.50 0.1894
767.60 0.1893
767.70 0.1892
767.80 0.1891
767.90 0.189
768.00 0.1889
768.10 0.1888
768.20 0.1887
768.30 0.1886
768.40 0.1885
768.50 0.1884
768.60 0.1883
768.70 0.1882
768.80 0.1882
768.90 0.1881
769.00 0.188
769.10 0.1879
769.20 0.1878
769.30 0.1877
769.40 0.1876
769.50 0.1875
769.60 0.1874
769.70 0.1873
769.80 0.1872
769.90 0.1871
770.00 0.187
770.10 0.1869
770.20 0.1868
770.30 0.1867
770.40 0.1866
770.50 0.1865
770.60 0.1864
770.70 0.1863
770.80 0.1863
770.90 0.1862
771.00 0.1861
771.10 0.186
771.20 0.1859
771.30 0.1858
771.40 0.1857
771.50 0.1856
771.60 0.1855
771.70 0.1854
771.80 0.1853
771.90 0.1852
772.00 0.1851
772.10 0.185
772.20 0.1849
772.30 0.1849
772.40 0.1848
772.50 0.1847
772.60 0.1846
772.70 0.1845
772.80 0.1844
772.90 0.1843
773.00 0.1842
773.10 0.1841
773.20 0.184
773.30 0.1839
773.40 0.1838
773.50 0.1837
773.60 0.1837
773.70 0.1836
773.80 0.1835
773.90 0.1834
774.00 0.1833
774.10 0.1832
774.20 0.1831
774.30 0.183
774.40 0.1829
774.50 0.1828
774.60 0.1827
774.70 0.1826
774.80 0.1825
774.90 0.1825
775.00 0.1824
775.10 0.1823
775.20 0.1822
775.30 0.1821
775.40 0.182
775.50 0.1819
775.60 0.1818
775.70 0.1817
775.80 0.1816
775.90 0.1815
776.00 0.1814
776.10 0.1814
776.20 0.1813
776.30 0.1812
776.40 0.1811
776.50 0.181
776.60 0.1809
776.70 0.1808
776.80 0.1807
776.90 0.1806
777.00 0.1805
777.10 0.1804
777.20 0.1804
777.30 0.1803
777.40 0.1802
777.50 0.1801
777.60 0.18
777.70 0.1799
777.80 0.1798
777.90 0.1797
778.00 0.1796
778.10 0.1795
778.20 0.1794
778.30 0.1794
778.40 0.1793
778.50 0.1792
778.60 0.1791
778.70 0.179
778.80 0.1789
778.90 0.1788
779.00 0.1787
779.10 0.1786
779.20 0.1785
779.30 0.1785
779.40 0.1784
779.50 0.1783
779.60 0.1782
779.70 0.1781
779.80 0.178
779.90 0.1779
780.00 0.1778
780.10 0.1777
780.20 0.1777
780.30 0.1776
780.40 0.1775
780.50 0.1774
780.60 0.1773
780.70 0.1772
780.80 0.1771
780.90 0.177
781.00 0.1769
781.10 0.1769
781.20 0.1768
781.30 0.1767
781.40 0.1766
781.50 0.1765
781.60 0.1764
781.70 0.1763
781.80 0.1762
781.90 0.1762
782.00 0.1761
782.10 0.176
782.20 0.1759
782.30 0.1758
782.40 0.1757
782.50 0.1756
782.60 0.1755
782.70 0.1755
782.80 0.1754
782.90 0.1753
783.00 0.1752
783.10 0.1751
783.20 0.175
783.30 0.1749
783.40 0.1749
783.50 0.1748
783.60 0.1747
783.70 0.1746
783.80 0.1745
783.90 0.1744
784.00 0.1743
784.10 0.1742
784.20 0.1742
784.30 0.1741
784.40 0.174
784.50 0.1739
784.60 0.1738
784.70 0.1737
784.80 0.1736
784.90 0.1736
785.00 0.1735
785.10 0.1734
785.20 0.1733
785.30 0.1732
785.40 0.1731
785.50 0.173
785.60 0.173
785.70 0.1729
785.80 0.1728
785.90 0.1727
786.00 0.1726
786.10 0.1725
786.20 0.1724
786.30 0.1724
786.40 0.1723
786.50 0.1722
786.60 0.1721
786.70 0.172
786.80 0.1719
786.90 0.1718
787.00 0.1718
787.10 0.1717
787.20 0.1716
787.30 0.1715
787.40 0.1714
787.50 0.1713
787.60 0.1712
787.70 0.1712
787.80 0.1711
787.90 0.171
788.00 0.1709
788.10 0.1708
788.20 0.1707
788.30 0.1706
788.40 0.1706
788.50 0.1705
788.60 0.1704
788.70 0.1703
788.80 0.1702
788.90 0.1701
789.00 0.1701
789.10 0.17
789.20 0.1699
789.30 0.1698
789.40 0.1697
789.50 0.1696
789.60 0.1695
789.70 0.1695
789.80 0.1694
789.90 0.1693
790.00 0.1692
790.10 0.1691
790.20 0.169
790.30 0.169
790.40 0.1689
790.50 0.1688
790.60 0.1687
790.70 0.1686
790.80 0.1685
790.90 0.1685
791.00 0.1684
791.10 0.1683
791.20 0.1682
791.30 0.1681
791.40 0.1681
791.50 0.168
791.60 0.1679
791.70 0.1678
791.80 0.1677
791.90 0.1676
792.00 0.1676
792.10 0.1675
792.20 0.1674
792.30 0.1673
792.40 0.1672
792.50 0.1672
792.60 0.1671
792.70 0.167
792.80 0.1669
792.90 0.1668
793.00 0.1667
793.10 0.1667
793.20 0.1666
793.30 0.1665
793.40 0.1664
793.50 0.1663
793.60 0.1663
793.70 0.1662
793.80 0.1661
793.90 0.166
794.00 0.1659
794.10 0.1658
794.20 0.1658
794.30 0.1657
794.40 0.1656
794.50 0.1655
794.60 0.1654
794.70 0.1654
794.80 0.1653
794.90 0.1652
795.00 0.1651
795.10 0.165
795.20 0.165
795.30 0.1649
795.40 0.1648
795.50 0.1647
795.60 0.1646
795.70 0.1645
795.80 0.1645
795.90 0.1644
796.00 0.1643
796.10 0.1642
796.20 0.1641
796.30 0.1641
796.40 0.164
796.50 0.1639
796.60 0.1638
796.70 0.1637
796.80 0.1637
796.90 0.1636
797.00 0.1635
797.10 0.1634
797.20 0.1633
797.30 0.1633
797.40 0.1632
797.50 0.1631
797.60 0.163
797.70 0.1629
797.80 0.1629
797.90 0.1628
798.00 0.1627
798.10 0.1626
798.20 0.1625
798.30 0.1625
798.40 0.1624
798.50 0.1623
798.60 0.1622
798.70 0.1621
798.80 0.1621
798.90 0.162
799.00 0.1619
799.10 0.1618
799.20 0.1617
799.30 0.1617
799.40 0.1616
799.50 0.1615
799.60 0.1614
799.70 0.1613
799.80 0.1613
799.90 0.1612
800.00 0.1611
800.10 0.161
800.20 0.161
800.30 0.1609
800.40 0.1608
800.50 0.1607
800.60 0.1606
800.70 0.1606
800.80 0.1605
800.90 0.1604
801.00 0.1603
801.10 0.1603
801.20 0.1602
801.30 0.1601
801.40 0.16
801.50 0.1599
801.60 0.1599
801.70 0.1598
801.80 0.1597
801.90 0.1596
802.00 0.1596
802.10 0.1595
802.20 0.1594
802.30 0.1593
802.40 0.1592
802.50 0.1592
802.60 0.1591
802.70 0.159
802.80 0.1589
802.90 0.1589
803.00 0.1588
803.10 0.1587
803.20 0.1586
803.30 0.1586
803.40 0.1585
803.50 0.1584
803.60 0.1583
803.70 0.1583
803.80 0.1582
803.90 0.1581
804.00 0.158
804.10 0.1579
804.20 0.1579
804.30 0.1578
804.40 0.1577
804.50 0.1576
804.60 0.1576
804.70 0.1575
804.80 0.1574
804.90 0.1573
805.00 0.1573
805.10 0.1572
805.20 0.1571
805.30 0.157
805.40 0.157
805.50 0.1569
805.60 0.1568
805.70 0.1567
805.80 0.1566
805.90 0.1566
806.00 0.1565
806.10 0.1564
806.20 0.1563
806.30 0.1563
806.40 0.1562
806.50 0.1561
806.60 0.156
806.70 0.156
806.80 0.1559
806.90 0.1558
807.00 0.1557
807.10 0.1557
807.20 0.1556
807.30 0.1555
807.40 0.1554
807.50 0.1554
807.60 0.1553
807.70 0.1552
807.80 0.1551
807.90 0.1551
808.00 0.155
808.10 0.1549
808.20 0.1548
808.30 0.1548
808.40 0.1547
808.50 0.1546
808.60 0.1545
808.70 0.1545
808.80 0.1544
808.90 0.1543
809.00 0.1542
809.10 0.1542
809.20 0.1541
809.30 0.154
809.40 0.1539
809.50 0.1539
809.60 0.1538
809.70 0.1537
809.80 0.1536
809.90 0.1536
810.00 0.1535
810.10 0.1534
810.20 0.1533
810.30 0.1533
810.40 0.1532
810.50 0.1531
810.60 0.153
810.70 0.153
810.80 0.1529
810.90 0.1528
811.00 0.1528
811.10 0.1527
811.20 0.1526
811.30 0.1525
811.40 0.1525
811.50 0.1524
811.60 0.1523
811.70 0.1522
811.80 0.1522
811.90 0.1521
812.00 0.152
812.10 0.152
812.20 0.1519
812.30 0.1518
812.40 0.1517
812.50 0.1517
812.60 0.1516
812.70 0.1515
812.80 0.1514
812.90 0.1514
813.00 0.1513
813.10 0.1512
813.20 0.1512
813.30 0.1511
813.40 0.151
813.50 0.1509
813.60 0.1509
813.70 0.1508
813.80 0.1507
813.90 0.1507
814.00 0.1506
814.10 0.1505
814.20 0.1504
814.30 0.1504
814.40 0.1503
814.50 0.1502
814.60 0.1502
814.70 0.1501
814.80 0.15
814.90 0.1499
815.00 0.1499
815.10 0.1498
815.20 0.1497
815.30 0.1496
815.40 0.1496
815.50 0.1495
815.60 0.1494
815.70 0.1494
815.80 0.1493
815.90 0.1492
816.00 0.1491
816.10 0.1491
816.20 0.149
816.30 0.1489
816.40 0.1489
816.50 0.1488
816.60 0.1487
816.70 0.1486
816.80 0.1486
816.90 0.1485
817.00 0.1484
817.10 0.1484
817.20 0.1483
817.30 0.1482
817.40 0.1482
817.50 0.1481
817.60 0.148
817.70 0.1479
817.80 0.1479
817.90 0.1478
818.00 0.1477
818.10 0.1477
818.20 0.1476
818.30 0.1475
818.40 0.1474
818.50 0.1474
818.60 0.1473
818.70 0.1472
818.80 0.1472
818.90 0.1471
819.00 0.147
819.10 0.1469
819.20 0.1469
819.30 0.1468
819.40 0.1467
819.50 0.1467
819.60 0.1466
819.70 0.1465
819.80 0.1465
819.90 0.1464
820.00 0.1463
820.10 0.1462
820.20 0.1462
820.30 0.1461
820.40 0.146
820.50 0.146
820.60 0.1459
820.70 0.1458
820.80 0.1458
820.90 0.1457
821.00 0.1456
821.10 0.1456
821.20 0.1455
821.30 0.1454
821.40 0.1453
821.50 0.1453
821.60 0.1452
821.70 0.1451
821.80 0.1451
821.90 0.145
822.00 0.1449
822.10 0.1449
822.20 0.1448
822.30 0.1447
822.40 0.1447
822.50 0.1446
822.60 0.1445
822.70 0.1445
822.80 0.1444
822.90 0.1443
823.00 0.1442
823.10 0.1442
823.20 0.1441
823.30 0.144
823.40 0.144
823.50 0.1439
823.60 0.1438
823.70 0.1438
823.80 0.1437
823.90 0.1436
824.00 0.1436
824.10 0.1435
824.20 0.1434
824.30 0.1434
824.40 0.1433
824.50 0.1432
824.60 0.1432
824.70 0.1431
824.80 0.143
824.90 0.143
825.00 0.1429
825.10 0.1428
825.20 0.1428
825.30 0.1427
825.40 0.1426
825.50 0.1426
825.60 0.1425
825.70 0.1424
825.80 0.1423
825.90 0.1423
826.00 0.1422
826.10 0.1421
826.20 0.1421
826.30 0.142
826.40 0.1419
826.50 0.1419
826.60 0.1418
826.70 0.1417
826.80 0.1417
826.90 0.1416
827.00 0.1415
827.10 0.1415
827.20 0.1414
827.30 0.1413
827.40 0.1413
827.50 0.1412
827.60 0.1411
827.70 0.1411
827.80 0.141
827.90 0.1409
828.00 0.1409
828.10 0.1408
828.20 0.1407
828.30 0.1407
828.40 0.1406
828.50 0.1405
828.60 0.1405
828.70 0.1404
828.80 0.1403
828.90 0.1403
829.00 0.1402
829.10 0.1402
829.20 0.1401
829.30 0.14
829.40 0.14
829.50 0.1399
829.60 0.1398
829.70 0.1398
829.80 0.1397
829.90 0.1396
830.00 0.1396
830.10 0.1395
830.20 0.1394
830.30 0.1394
830.40 0.1393
830.50 0.1392
830.60 0.1392
830.70 0.1391
830.80 0.139
830.90 0.139
831.00 0.1389
831.10 0.1388
831.20 0.1388
831.30 0.1387
831.40 0.1386
831.50 0.1386
831.60 0.1385
831.70 0.1384
831.80 0.1384
831.90 0.1383
832.00 0.1383
832.10 0.1382
832.20 0.1381
832.30 0.1381
832.40 0.138
832.50 0.1379
832.60 0.1379
832.70 0.1378
832.80 0.1377
832.90 0.1377
833.00 0.1376
833.10 0.1375
833.20 0.1375
833.30 0.1374
833.40 0.1373
833.50 0.1373
833.60 0.1372
833.70 0.1372
833.80 0.1371
833.90 0.137
834.00 0.137
834.10 0.1369
834.20 0.1368
834.30 0.1368
834.40 0.1367
834.50 0.1366
834.60 0.1366
834.70 0.1365
834.80 0.1365
834.90 0.1364
835.00 0.1363
835.10 0.1363
835.20 0.1362
835.30 0.1361
835.40 0.1361
835.50 0.136
835.60 0.1359
835.70 0.1359
835.80 0.1358
835.90 0.1358
836.00 0.1357
836.10 0.1356
836.20 0.1356
836.30 0.1355
836.40 0.1354
836.50 0.1354
836.60 0.1353
836.70 0.1352
836.80 0.1352
836.90 0.1351
837.00 0.1351
837.10 0.135
837.20 0.1349
837.30 0.1349
837.40 0.1348
837.50 0.1347
837.60 0.1347
837.70 0.1346
837.80 0.1346
837.90 0.1345
838.00 0.1344
838.10 0.1344
838.20 0.1343
838.30 0.1342
838.40 0.1342
838.50 0.1341
838.60 0.1341
838.70 0.134
838.80 0.1339
838.90 0.1339
839.00 0.1338
839.10 0.1337
839.20 0.1337
839.30 0.1336
839.40 0.1336
839.50 0.1335
839.60 0.1334
839.70 0.1334
839.80 0.1333
839.90 0.1332
840.00 0.1332
840.10 0.1331
840.20 0.1331
840.30 0.133
840.40 0.1329
840.50 0.1329
840.60 0.1328
840.70 0.1327
840.80 0.1327
840.90 0.1326
841.00 0.1326
841.10 0.1325
841.20 0.1324
841.30 0.1324
841.40 0.1323
841.50 0.1323
841.60 0.1322
841.70 0.1321
841.80 0.1321
841.90 0.132
842.00 0.1319
842.10 0.1319
842.20 0.1318
842.30 0.1318
842.40 0.1317
842.50 0.1316
842.60 0.1316
842.70 0.1315
842.80 0.1315
842.90 0.1314
843.00 0.1313
843.10 0.1313
843.20 0.1312
843.30 0.1312
843.40 0.1311
843.50 0.131
843.60 0.131
843.70 0.1309
843.80 0.1309
843.90 0.1308
844.00 0.1307
844.10 0.1307
844.20 0.1306
844.30 0.1306
844.40 0.1305
844.50 0.1304
844.60 0.1304
844.70 0.1303
844.80 0.1303
844.90 0.1302
845.00 0.1301
845.10 0.1301
845.20 0.13
845.30 0.1299
845.40 0.1299
845.50 0.1298
845.60 0.1298
845.70 0.1297
845.80 0.1296
845.90 0.1296
846.00 0.1295
846.10 0.1295
846.20 0.1294
846.30 0.1293
846.40 0.1293
846.50 0.1292
846.60 0.1292
846.70 0.1291
846.80 0.129
846.90 0.129
847.00 0.1289
847.10 0.1289
847.20 0.1288
847.30 0.1288
847.40 0.1287
847.50 0.1286
847.60 0.1286
847.70 0.1285
847.80 0.1285
847.90 0.1284
848.00 0.1283
848.10 0.1283
848.20 0.1282
848.30 0.1282
848.40 0.1281
848.50 0.128
848.60 0.128
848.70 0.1279
848.80 0.1279
848.90 0.1278
849.00 0.1278
849.10 0.1277
849.20 0.1276
849.30 0.1276
849.40 0.1275
849.50 0.1275
849.60 0.1274
849.70 0.1273
849.80 0.1273
849.90 0.1272
850.00 0.1272
850.10 0.1271
850.20 0.127
850.30 0.127
850.40 0.1269
850.50 0.1269
850.60 0.1268
850.70 0.1268
850.80 0.1267
850.90 0.1266
851.00 0.1266
851.10 0.1265
851.20 0.1265
851.30 0.1264
851.40 0.1263
851.50 0.1263
851.60 0.1262
851.70 0.1262
851.80 0.1261
851.90 0.1261
852.00 0.126
852.10 0.1259
852.20 0.1259
852.30 0.1258
852.40 0.1258
852.50 0.1257
852.60 0.1257
852.70 0.1256
852.80 0.1255
852.90 0.1255
853.00 0.1254
853.10 0.1254
853.20 0.1253
853.30 0.1253
853.40 0.1252
853.50 0.1251
853.60 0.1251
853.70 0.125
853.80 0.125
853.90 0.1249
854.00 0.1249
854.10 0.1248
854.20 0.1247
854.30 0.1247
854.40 0.1246
854.50 0.1246
854.60 0.1245
854.70 0.1245
854.80 0.1244
854.90 0.1243
855.00 0.1243
855.10 0.1242
855.20 0.1242
855.30 0.1241
855.40 0.1241
855.50 0.124
855.60 0.1239
855.70 0.1239
855.80 0.1238
855.90 0.1238
856.00 0.1237
856.10 0.1237
856.20 0.1236
856.30 0.1235
856.40 0.1235
856.50 0.1234
856.60 0.1234
856.70 0.1233
856.80 0.1233
856.90 0.1232
857.00 0.1232
857.10 0.1231
857.20 0.123
857.30 0.123
857.40 0.1229
857.50 0.1229
857.60 0.1228
857.70 0.1228
857.80 0.1227
857.90 0.1226
858.00 0.1226
858.10 0.1225
858.20 0.1225
858.30 0.1224
858.40 0.1224
858.50 0.1223
858.60 0.1223
858.70 0.1222
858.80 0.1221
858.90 0.1221
859.00 0.122
859.10 0.122
859.20 0.1219
859.30 0.1219
859.40 0.1218
859.50 0.1218
859.60 0.1217
859.70 0.1217
859.80 0.1216
859.90 0.1215
860.00 0.1215
860.10 0.1214
860.20 0.1214
860.30 0.1213
860.40 0.1213
860.50 0.1212
860.60 0.1212
860.70 0.1211
860.80 0.121
860.90 0.121
861.00 0.1209
861.10 0.1209
861.20 0.1208
861.30 0.1208
861.40 0.1207
861.50 0.1207
861.60 0.1206
861.70 0.1206
861.80 0.1205
861.90 0.1204
862.00 0.1204
862.10 0.1203
862.20 0.1203
862.30 0.1202
862.40 0.1202
862.50 0.1201
862.60 0.1201
862.70 0.12
862.80 0.12
862.90 0.1199
863.00 0.1198
863.10 0.1198
863.20 0.1197
863.30 0.1197
863.40 0.1196
863.50 0.1196
863.60 0.1195
863.70 0.1195
863.80 0.1194
863.90 0.1194
864.00 0.1193
864.10 0.1192
864.20 0.1192
864.30 0.1191
864.40 0.1191
864.50 0.119
864.60 0.119
864.70 0.1189
864.80 0.1189
864.90 0.1188
865.00 0.1188
865.10 0.1187
865.20 0.1187
865.30 0.1186
865.40 0.1186
865.50 0.1185
865.60 0.1184
865.70 0.1184
865.80 0.1183
865.90 0.1183
866.00 0.1182
866.10 0.1182
866.20 0.1181
866.30 0.1181
866.40 0.118
866.50 0.118
866.60 0.1179
866.70 0.1179
866.80 0.1178
866.90 0.1177
867.00 0.1177
867.10 0.1176
867.20 0.1176
867.30 0.1175
867.40 0.1175
867.50 0.1174
867.60 0.1174
867.70 0.1173
867.80 0.1173
867.90 0.1172
868.00 0.1172
868.10 0.1171
868.20 0.1171
868.30 0.117
868.40 0.117
868.50 0.1169
868.60 0.1169
868.70 0.1168
868.80 0.1167
868.90 0.1167
869.00 0.1166
869.10 0.1166
869.20 0.1165
869.30 0.1165
869.40 0.1164
869.50 0.1164
869.60 0.1163
869.70 0.1163
869.80 0.1162
869.90 0.1162
870.00 0.1161
870.10 0.1161
870.20 0.116
870.30 0.116
870.40 0.1159
870.50 0.1159
870.60 0.1158
870.70 0.1158
870.80 0.1157
870.90 0.1157
871.00 0.1156
871.10 0.1155
871.20 0.1155
871.30 0.1154
871.40 0.1154
871.50 0.1153
871.60 0.1153
871.70 0.1152
871.80 0.1152
871.90 0.1151
872.00 0.1151
872.10 0.115
872.20 0.115
872.30 0.1149
872.40 0.1149
872.50 0.1148
872.60 0.1148
872.70 0.1147
872.80 0.1147
872.90 0.1146
873.00 0.1146
873.10 0.1145
873.20 0.1145
873.30 0.1144
873.40 0.1144
873.50 0.1143
873.60 0.1143
873.70 0.1142
873.80 0.1142
873.90 0.1141
874.00 0.1141
874.10 0.114
874.20 0.114
874.30 0.1139
874.40 0.1139
874.50 0.1138
874.60 0.1138
874.70 0.1137
874.80 0.1137
874.90 0.1136
875.00 0.1135
875.10 0.1135
875.20 0.1134
875.30 0.1134
875.40 0.1133
875.50 0.1133
875.60 0.1132
875.70 0.1132
875.80 0.1131
875.90 0.1131
876.00 0.113
876.10 0.113
876.20 0.1129
876.30 0.1129
876.40 0.1128
876.50 0.1128
876.60 0.1127
876.70 0.1127
876.80 0.1126
876.90 0.1126
877.00 0.1125
877.10 0.1125
877.20 0.1124
877.30 0.1124
877.40 0.1123
877.50 0.1123
877.60 0.1122
877.70 0.1122
877.80 0.1121
877.90 0.1121
878.00 0.112
878.10 0.112
878.20 0.1119
878.30 0.1119
878.40 0.1118
878.50 0.1118
878.60 0.1117
878.70 0.1117
878.80 0.1116
878.90 0.1116
879.00 0.1115
879.10 0.1115
879.20 0.1114
879.30 0.1114
879.40 0.1113
879.50 0.1113
879.60 0.1112
879.70 0.1112
879.80 0.1111
879.90 0.1111
880.00 0.111
880.10 0.111
880.20 0.111
880.30 0.1109
880.40 0.1109
880.50 0.1108
880.60 0.1108
880.70 0.1107
880.80 0.1107
880.90 0.1106
881.00 0.1106
881.10 0.1105
881.20 0.1105
881.30 0.1104
881.40 0.1104
881.50 0.1103
881.60 0.1103
881.70 0.1102
881.80 0.1102
881.90 0.1101
882.00 0.1101
882.10 0.11
882.20 0.11
882.30 0.1099
882.40 0.1099
882.50 0.1098
882.60 0.1098
882.70 0.1097
882.80 0.1097
882.90 0.1096
883.00 0.1096
883.10 0.1095
883.20 0.1095
883.30 0.1094
883.40 0.1094
883.50 0.1093
883.60 0.1093
883.70 0.1092
883.80 0.1092
883.90 0.1091
884.00 0.1091
884.10 0.1091
884.20 0.109
884.30 0.109
884.40 0.1089
884.50 0.1089
884.60 0.1088
884.70 0.1088
884.80 0.1087
884.90 0.1087
885.00 0.1086
885.10 0.1086
885.20 0.1085
885.30 0.1085
885.40 0.1084
885.50 0.1084
885.60 0.1083
885.70 0.1083
885.80 0.1082
885.90 0.1082
886.00 0.1081
886.10 0.1081
886.20 0.108
886.30 0.108
886.40 0.108
886.50 0.1079
886.60 0.1079
886.70 0.1078
886.80 0.1078
886.90 0.1077
887.00 0.1077
887.10 0.1076
887.20 0.1076
887.30 0.1075
887.40 0.1075
887.50 0.1074
887.60 0.1074
887.70 0.1073
887.80 0.1073
887.90 0.1072
888.00 0.1072
888.10 0.1071
888.20 0.1071
888.30 0.1071
888.40 0.107
888.50 0.107
888.60 0.1069
888.70 0.1069
888.80 0.1068
888.90 0.1068
889.00 0.1067
889.10 0.1067
889.20 0.1066
889.30 0.1066
889.40 0.1065
889.50 0.1065
889.60 0.1064
889.70 0.1064
889.80 0.1063
889.90 0.1063
890.00 0.1063
890.10 0.1062
890.20 0.1062
890.30 0.1061
890.40 0.1061
890.50 0.106
890.60 0.106
890.70 0.1059
890.80 0.1059
890.90 0.1058
891.00 0.1058
891.10 0.1057
891.20 0.1057
891.30 0.1057
891.40 0.1056
891.50 0.1056
891.60 0.1055
891.70 0.1055
891.80 0.1054
891.90 0.1054
892.00 0.1053
892.10 0.1053
892.20 0.1052
892.30 0.1052
892.40 0.1051
892.50 0.1051
892.60 0.1051
892.70 0.105
892.80 0.105
892.90 0.1049
893.00 0.1049
893.10 0.1048
893.20 0.1048
893.30 0.1047
893.40 0.1047
893.50 0.1046
893.60 0.1046
893.70 0.1045
893.80 0.1045
893.90 0.1045
894.00 0.1044
894.10 0.1044
894.20 0.1043
894.30 0.1043
894.40 0.1042
894.50 0.1042
894.60 0.1041
894.70 0.1041
894.80 0.104
894.90 0.104
895.00 0.104
895.10 0.1039
895.20 0.1039
895.30 0.1038
895.40 0.1038
895.50 0.1037
895.60 0.1037
895.70 0.1036
895.80 0.1036
895.90 0.1036
896.00 0.1035
896.10 0.1035
896.20 0.1034
896.30 0.1034
896.40 0.1033
896.50 0.1033
896.60 0.1032
896.70 0.1032
896.80 0.1031
896.90 0.1031
897.00 0.1031
897.10 0.103
897.20 0.103
897.30 0.1029
897.40 0.1029
897.50 0.1028
897.60 0.1028
897.70 0.1027
897.80 0.1027
897.90 0.1027
898.00 0.1026
898.10 0.1026
898.20 0.1025
898.30 0.1025
898.40 0.1024
898.50 0.1024
898.60 0.1023
898.70 0.1023
898.80 0.1023
898.90 0.1022
899.00 0.1022
899.10 0.1021
899.20 0.1021
899.30 0.102
899.40 0.102
899.50 0.1019
899.60 0.1019
899.70 0.1019
899.80 0.1018
899.90 0.1018
900.00 0.1017
900.10 0.1017
900.20 0.1016
900.30 0.1016
900.40 0.1016
900.50 0.1015
900.60 0.1015
900.70 0.1014
900.80 0.1014
900.90 0.1013
901.00 0.1013
901.10 0.1012
901.20 0.1012
901.30 0.1012
901.40 0.1011
901.50 0.1011
901.60 0.101
901.70 0.101
901.80 0.1009
901.90 0.1009
902.00 0.1009
902.10 0.1008
902.20 0.1008
902.30 0.1007
902.40 0.1007
902.50 0.1006
902.60 0.1006
902.70 0.1005
902.80 0.1005
902.90 0.1005
903.00 0.1004
903.10 0.1004
903.20 0.1003
903.30 0.1003
903.40 0.1002
903.50 0.1002
903.60 0.1002
903.70 0.1001
903.80 0.1001
903.90 0.1
904.00 0.09998
904.10 0.09994
904.20 0.0999
904.30 0.09985
904.40 0.09981
904.50 0.09977
904.60 0.09972
904.70 0.09968
904.80 0.09964
904.90 0.09959
905.00 0.09955
905.10 0.09951
905.20 0.09946
905.30 0.09942
905.40 0.09938
905.50 0.09934
905.60 0.09929
905.70 0.09925
905.80 0.09921
905.90 0.09916
906.00 0.09912
906.10 0.09908
906.20 0.09903
906.30 0.09899
906.40 0.09895
906.50 0.0989
906.60 0.09886
906.70 0.09882
906.80 0.09878
906.90 0.09873
907.00 0.09869
907.10 0.09865
907.20 0.09861
907.30 0.09856
907.40 0.09852
907.50 0.09848
907.60 0.09844
907.70 0.09839
907.80 0.09835
907.90 0.09831
908.00 0.09827
908.10 0.09823
908.20 0.09818
908.30 0.09814
908.40 0.0981
908.50 0.09806
908.60 0.09801
908.70 0.09797
908.80 0.09793
908.90 0.09789
909.00 0.09785
909.10 0.0978
909.20 0.09776
909.30 0.09772
909.40 0.09768
909.50 0.09764
909.60 0.09759
909.70 0.09755
909.80 0.09751
909.90 0.09747
910.00 0.09743
910.10 0.09739
910.20 0.09734
910.30 0.0973
910.40 0.09726
910.50 0.09722
910.60 0.09718
910.70 0.09713
910.80 0.09709
910.90 0.09705
911.00 0.09701
911.10 0.09697
911.20 0.09693
911.30 0.09688
911.40 0.09684
911.50 0.0968
911.60 0.09676
911.70 0.09672
911.80 0.09668
911.90 0.09663
912.00 0.09659
912.10 0.09655
912.20 0.09651
912.30 0.09647
912.40 0.09643
912.50 0.09639
912.60 0.09635
912.70 0.09631
912.80 0.09626
912.90 0.09622
913.00 0.09618
913.10 0.09614
913.20 0.0961
913.30 0.09606
913.40 0.09602
913.50 0.09598
913.60 0.09594
913.70 0.0959
913.80 0.09586
913.90 0.09581
914.00 0.09577
914.10 0.09573
914.20 0.09569
914.30 0.09565
914.40 0.09561
914.50 0.09557
914.60 0.09553
914.70 0.09549
914.80 0.09545
914.90 0.09541
915.00 0.09537
915.10 0.09533
915.20 0.09529
915.30 0.09524
915.40 0.0952
915.50 0.09516
915.60 0.09512
915.70 0.09508
915.80 0.09504
915.90 0.095
916.00 0.09496
916.10 0.09492
916.20 0.09488
916.30 0.09484
916.40 0.0948
916.50 0.09476
916.60 0.09472
916.70 0.09468
916.80 0.09464
916.90 0.0946
917.00 0.09456
917.10 0.09452
917.20 0.09448
917.30 0.09444
917.40 0.0944
917.50 0.09436
917.60 0.09432
917.70 0.09428
917.80 0.09424
917.90 0.0942
918.00 0.09416
918.10 0.09412
918.20 0.09408
918.30 0.09404
918.40 0.094
918.50 0.09396
918.60 0.09392
918.70 0.09389
918.80 0.09385
918.90 0.09381
919.00 0.09377
919.10 0.09373
919.20 0.09369
919.30 0.09365
919.40 0.09361
919.50 0.09357
919.60 0.09353
919.70 0.09349
919.80 0.09345
919.90 0.09341
920.00 0.09337
920.10 0.09334
920.20 0.0933
920.30 0.09326
920.40 0.09322
920.50 0.09318
920.60 0.09314
920.70 0.0931
920.80 0.09306
920.90 0.09302
921.00 0.09298
921.10 0.09295
921.20 0.09291
921.30 0.09287
921.40 0.09283
921.50 0.09279
921.60 0.09275
921.70 0.09271
921.80 0.09267
921.90 0.09263
922.00 0.09259
922.10 0.09256
922.20 0.09252
922.30 0.09248
922.40 0.09244
922.50 0.0924
922.60 0.09236
922.70 0.09232
922.80 0.09228
922.90 0.09224
923.00 0.0922
923.10 0.09216
923.20 0.09212
923.30 0.09208
923.40 0.09205
923.50 0.09201
923.60 0.09197
923.70 0.09193
923.80 0.09189
923.90 0.09185
924.00 0.09181
924.10 0.09177
924.20 0.09173
924.30 0.09169
924.40 0.09165
924.50 0.09162
924.60 0.09158
924.70 0.09154
924.80 0.0915
924.90 0.09146
925.00 0.09142
925.10 0.09138
925.20 0.09134
925.30 0.0913
925.40 0.09127
925.50 0.09123
925.60 0.09119
925.70 0.09115
925.80 0.09111
925.90 0.09107
926.00 0.09103
926.10 0.09099
926.20 0.09096
926.30 0.09092
926.40 0.09088
926.50 0.09084
926.60 0.0908
926.70 0.09076
926.80 0.09072
926.90 0.09068
927.00 0.09065
927.10 0.09061
927.20 0.09057
927.30 0.09053
927.40 0.09049
927.50 0.09046
927.60 0.09042
927.70 0.09038
927.80 0.09034
927.90 0.0903
928.00 0.09027
928.10 0.09023
928.20 0.09019
928.30 0.09015
928.40 0.09011
928.50 0.09008
928.60 0.09004
928.70 0.09
928.80 0.08996
928.90 0.08993
929.00 0.08989
929.10 0.08985
929.20 0.08981
929.30 0.08977
929.40 0.08974
929.50 0.0897
929.60 0.08966
929.70 0.08962
929.80 0.08959
929.90 0.08955
930.00 0.08951
930.10 0.08947
930.20 0.08943
930.30 0.0894
930.40 0.08936
930.50 0.08932
930.60 0.08928
930.70 0.08925
930.80 0.08921
930.90 0.08917
931.00 0.08913
931.10 0.0891
931.20 0.08906
931.30 0.08902
931.40 0.08898
931.50 0.08895
931.60 0.08891
931.70 0.08887
931.80 0.08883
931.90 0.0888
932.00 0.08876
932.10 0.08872
932.20 0.08869
932.30 0.08865
932.40 0.08861
932.50 0.08857
932.60 0.08854
932.70 0.0885
932.80 0.08846
932.90 0.08843
933.00 0.08839
933.10 0.08835
933.20 0.08832
933.30 0.08828
933.40 0.08824
933.50 0.0882
933.60 0.08817
933.70 0.08813
933.80 0.08809
933.90 0.08806
934.00 0.08802
934.10 0.08798
934.20 0.08795
934.30 0.08791
934.40 0.08787
934.50 0.08784
934.60 0.0878
934.70 0.08776
934.80 0.08773
934.90 0.08769
935.00 0.08765
935.10 0.08762
935.20 0.08758
935.30 0.08754
935.40 0.08751
935.50 0.08747
935.60 0.08743
935.70 0.0874
935.80 0.08736
935.90 0.08732
936.00 0.08729
936.10 0.08725
936.20 0.08721
936.30 0.08718
936.40 0.08714
936.50 0.08711
936.60 0.08707
936.70 0.08703
936.80 0.087
936.90 0.08696
937.00 0.08692
937.10 0.08689
937.20 0.08685
937.30 0.08681
937.40 0.08678
937.50 0.08674
937.60 0.08671
937.70 0.08667
937.80 0.08663
937.90 0.0866
938.00 0.08656
938.10 0.08652
938.20 0.08649
938.30 0.08645
938.40 0.08642
938.50 0.08638
938.60 0.08634
938.70 0.08631
938.80 0.08627
938.90 0.08624
939.00 0.0862
939.10 0.08616
939.20 0.08613
939.30 0.08609
939.40 0.08606
939.50 0.08602
939.60 0.08598
939.70 0.08595
939.80 0.08591
939.90 0.08588
940.00 0.08584
940.10 0.0858
940.20 0.08577
940.30 0.08573
940.40 0.0857
940.50 0.08566
940.60 0.08563
940.70 0.08559
940.80 0.08555
940.90 0.08552
941.00 0.08548
941.10 0.08545
941.20 0.08541
941.30 0.08538
941.40 0.08534
941.50 0.08531
941.60 0.08527
941.70 0.08523
941.80 0.0852
941.90 0.08516
942.00 0.08513
942.10 0.08509
942.20 0.08506
942.30 0.08502
942.40 0.08499
942.50 0.08495
942.60 0.08491
942.70 0.08488
942.80 0.08484
942.90 0.08481
943.00 0.08477
943.10 0.08474
943.20 0.0847
943.30 0.08467
943.40 0.08463
943.50 0.0846
943.60 0.08456
943.70 0.08453
943.80 0.08449
943.90 0.08446
944.00 0.08442
944.10 0.08439
944.20 0.08435
944.30 0.08431
944.40 0.08428
944.50 0.08424
944.60 0.08421
944.70 0.08417
944.80 0.08414
944.90 0.0841
945.00 0.08407
945.10 0.08403
945.20 0.084
945.30 0.08396
945.40 0.08393
945.50 0.08389
945.60 0.08386
945.70 0.08382
945.80 0.08379
945.90 0.08376
946.00 0.08372
946.10 0.08369
946.20 0.08365
946.30 0.08362
946.40 0.08358
946.50 0.08355
946.60 0.08351
946.70 0.08348
946.80 0.08344
946.90 0.08341
947.00 0.08337
947.10 0.08334
947.20 0.0833
947.30 0.08327
947.40 0.08324
947.50 0.0832
947.60 0.08317
947.70 0.08313
947.80 0.0831
947.90 0.08306
948.00 0.08303
948.10 0.08299
948.20 0.08296
948.30 0.08293
948.40 0.08289
948.50 0.08286
948.60 0.08282
948.70 0.08279
948.80 0.08276
948.90 0.08272
949.00 0.08269
949.10 0.08265
949.20 0.08262
949.30 0.08258
949.40 0.08255
949.50 0.08252
949.60 0.08248
949.70 0.08245
949.80 0.08242
949.90 0.08238
950.00 0.08235
950.10 0.08232
950.20 0.08228
950.30 0.08225
950.40 0.08221
950.50 0.08218
950.60 0.08215
950.70 0.08211
950.80 0.08208
950.90 0.08205
951.00 0.08201
951.10 0.08198
951.20 0.08195
951.30 0.08191
951.40 0.08188
951.50 0.08185
951.60 0.08181
951.70 0.08178
951.80 0.08175
951.90 0.08172
952.00 0.08168
952.10 0.08165
952.20 0.08162
952.30 0.08158
952.40 0.08155
952.50 0.08152
952.60 0.08149
952.70 0.08146
952.80 0.08142
952.90 0.08139
953.00 0.08136
953.10 0.08133
953.20 0.08129
953.30 0.08126
953.40 0.08123
953.50 0.0812
953.60 0.08117
953.70 0.08114
953.80 0.0811
953.90 0.08107
954.00 0.08104
954.10 0.08101
954.20 0.08098
954.30 0.08095
954.40 0.08092
954.50 0.08089
954.60 0.08086
954.70 0.08082
954.80 0.08079
954.90 0.08075
955.00 0.08072
955.10 0.08068
955.20 0.08065
955.30 0.08061
955.40 0.08058
955.50 0.08054
955.60 0.08051
955.70 0.08047
955.80 0.08044
955.90 0.08041
956.00 0.08037
956.10 0.08034
956.20 0.0803
956.30 0.08027
956.40 0.08024
956.50 0.0802
956.60 0.08017
956.70 0.08014
956.80 0.0801
956.90 0.08007
957.00 0.08003
957.10 0.08
957.20 0.07997
957.30 0.07993
957.40 0.0799
957.50 0.07987
957.60 0.07984
957.70 0.0798
957.80 0.07977
957.90 0.07974
958.00 0.07971
958.10 0.07967
958.20 0.07964
958.30 0.07961
958.40 0.07958
958.50 0.07954
958.60 0.07951
958.70 0.07948
958.80 0.07945
958.90 0.07941
959.00 0.07938
959.10 0.07935
959.20 0.07932
959.30 0.07928
959.40 0.07925
959.50 0.07922
959.60 0.07919
959.70 0.07915
959.80 0.07912
959.90 0.07909
960.00 0.07906
960.10 0.07903
960.20 0.079
960.30 0.07896
960.40 0.07893
960.50 0.0789
960.60 0.07887
960.70 0.07884
960.80 0.0788
960.90 0.07877
961.00 0.07874
961.10 0.07871
961.20 0.07868
961.30 0.07865
961.40 0.07861
961.50 0.07858
961.60 0.07855
961.70 0.07852
961.80 0.07849
961.90 0.07846
962.00 0.07842
962.10 0.07839
962.20 0.07836
962.30 0.07833
962.40 0.0783
962.50 0.07827
962.60 0.07824
962.70 0.0782
962.80 0.07817
962.90 0.07814
963.00 0.07811
963.10 0.07808
963.20 0.07805
963.30 0.07802
963.40 0.07799
963.50 0.07795
963.60 0.07792
963.70 0.07789
963.80 0.07786
963.90 0.07783
964.00 0.0778
964.10 0.07777
964.20 0.07774
964.30 0.0777
964.40 0.07767
964.50 0.07764
964.60 0.07761
964.70 0.07758
964.80 0.07755
964.90 0.07752
965.00 0.07749
965.10 0.07746
965.20 0.07743
965.30 0.0774
965.40 0.07736
965.50 0.07733
965.60 0.0773
965.70 0.07727
965.80 0.07724
965.90 0.07721
966.00 0.07718
966.10 0.07715
966.20 0.07712
966.30 0.07709
966.40 0.07706
966.50 0.07703
966.60 0.07699
966.70 0.07696
966.80 0.07693
966.90 0.0769
967.00 0.07687
967.10 0.07684
967.20 0.07681
967.30 0.07678
967.40 0.07675
967.50 0.07672
967.60 0.07669
967.70 0.07666
967.80 0.07663
967.90 0.0766
968.00 0.07657
968.10 0.07653
968.20 0.0765
968.30 0.07647
968.40 0.07644
968.50 0.07641
968.60 0.07638
968.70 0.07635
968.80 0.07632
968.90 0.07629
969.00 0.07626
969.10 0.07623
969.20 0.0762
969.30 0.07617
969.40 0.07614
969.50 0.07611
969.60 0.07608
969.70 0.07605
969.80 0.07602
969.90 0.07599
970.00 0.07596
970.10 0.07593
970.20 0.0759
970.30 0.07587
970.40 0.07584
970.50 0.0758
970.60 0.07577
970.70 0.07574
970.80 0.07571
970.90 0.07568
971.00 0.07565
971.10 0.07562
971.20 0.07559
971.30 0.07556
971.40 0.07553
971.50 0.0755
971.60 0.07547
971.70 0.07544
971.80 0.07541
971.90 0.07538
972.00 0.07535
972.10 0.07532
972.20 0.07529
972.30 0.07526
972.40 0.07523
972.50 0.0752
972.60 0.07517
972.70 0.07514
972.80 0.07511
972.90 0.07508
973.00 0.07505
973.10 0.07502
973.20 0.07499
973.30 0.07496
973.40 0.07493
973.50 0.0749
973.60 0.07487
973.70 0.07484
973.80 0.07481
973.90 0.07478
974.00 0.07475
974.10 0.07472
974.20 0.07469
974.30 0.07466
974.40 0.07463
974.50 0.0746
974.60 0.07457
974.70 0.07454
974.80 0.07451
974.90 0.07448
975.00 0.07445
975.10 0.07442
975.20 0.07439
975.30 0.07436
975.40 0.07433
975.50 0.07431
975.60 0.07428
975.70 0.07425
975.80 0.07422
975.90 0.07419
976.00 0.07416
976.10 0.07413
976.20 0.0741
976.30 0.07407
976.40 0.07404
976.50 0.07401
976.60 0.07398
976.70 0.07395
976.80 0.07392
976.90 0.07389
977.00 0.07386
977.10 0.07383
977.20 0.0738
977.30 0.07377
977.40 0.07374
977.50 0.07371
977.60 0.07368
977.70 0.07365
977.80 0.07362
977.90 0.07359
978.00 0.07357
978.10 0.07354
978.20 0.07351
978.30 0.07348
978.40 0.07345
978.50 0.07342
978.60 0.07339
978.70 0.07336
978.80 0.07333
978.90 0.0733
979.00 0.07327
979.10 0.07324
979.20 0.07321
979.30 0.07318
979.40 0.07315
979.50 0.07312
979.60 0.0731
979.70 0.07307
979.80 0.07304
979.90 0.07301
980.00 0.07298
980.10 0.07295
980.20 0.07292
980.30 0.07289
980.40 0.07286
980.50 0.07283
980.60 0.0728
980.70 0.07277
980.80 0.07274
980.90 0.07272
981.00 0.07269
981.10 0.07266
981.20 0.07263
981.30 0.0726
981.40 0.07257
981.50 0.07254
981.60 0.07251
981.70 0.07248
981.80 0.07245
981.90 0.07242
982.00 0.0724
982.10 0.07237
982.20 0.07234
982.30 0.07231
982.40 0.07228
982.50 0.07225
982.60 0.07222
982.70 0.07219
982.80 0.07216
982.90 0.07213
983.00 0.07211
983.10 0.07208
983.20 0.07205
983.30 0.07202
983.40 0.07199
983.50 0.07196
983.60 0.07193
983.70 0.0719
983.80 0.07187
983.90 0.07184
984.00 0.07182
984.10 0.07179
984.20 0.07176
984.30 0.07173
984.40 0.0717
984.50 0.07167
984.60 0.07164
984.70 0.07161
984.80 0.07159
984.90 0.07156
985.00 0.07153
985.10 0.0715
985.20 0.07147
985.30 0.07144
985.40 0.07141
985.50 0.07138
985.60 0.07136
985.70 0.07133
985.80 0.0713
985.90 0.07127
986.00 0.07124
986.10 0.07121
986.20 0.07118
986.30 0.07115
986.40 0.07113
986.50 0.0711
986.60 0.07107
986.70 0.07104
986.80 0.07101
986.90 0.07098
987.00 0.07095
987.10 0.07092
987.20 0.0709
987.30 0.07087
987.40 0.07084
987.50 0.07081
987.60 0.07078
987.70 0.07075
987.80 0.07072
987.90 0.0707
988.00 0.07067
988.10 0.07064
988.20 0.07061
988.30 0.07058
988.40 0.07055
988.50 0.07052
988.60 0.0705
988.70 0.07047
988.80 0.07044
988.90 0.07041
989.00 0.07038
989.10 0.07035
989.20 0.07033
989.30 0.0703
989.40 0.07027
989.50 0.07024
989.60 0.07021
989.70 0.07018
989.80 0.07015
989.90 0.07013
990.00 0.0701
990.10 0.07007
990.20 0.07004
990.30 0.07001
990.40 0.06998
990.50 0.06996
990.60 0.06993
990.70 0.0699
990.80 0.06987
990.90 0.06984
991.00 0.06981
991.10 0.06979
991.20 0.06976
991.30 0.06973
991.40 0.0697
991.50 0.06967
991.60 0.06964
991.70 0.06962
991.80 0.06959
991.90 0.06956
992.00 0.06953
992.10 0.0695
992.20 0.06947
992.30 0.06945
992.40 0.06942
992.50 0.06939
992.60 0.06936
992.70 0.06933
992.80 0.06931
992.90 0.06928
993.00 0.06925
993.10 0.06922
993.20 0.06919
993.30 0.06916
993.40 0.06914
993.50 0.06911
993.60 0.06908
993.70 0.06905
993.80 0.06902
993.90 0.06899
994.00 0.06897
994.10 0.06894
994.20 0.06891
994.30 0.06888
994.40 0.06885
994.50 0.06883
994.60 0.0688
994.70 0.06877
994.80 0.06874
994.90 0.06871
995.00 0.06869
995.10 0.06866
995.20 0.06863
995.30 0.0686
995.40 0.06857
995.50 0.06855
995.60 0.06852
995.70 0.06849
995.80 0.06846
995.90 0.06843
996.00 0.06841
996.10 0.06838
996.20 0.06835
996.30 0.06832
996.40 0.06829
996.50 0.06827
996.60 0.06824
996.70 0.06821
996.80 0.06818
996.90 0.06815
997.00 0.06813
997.10 0.0681
997.20 0.06807
997.30 0.06804
997.40 0.06802
997.50 0.06799
997.60 0.06796
997.70 0.06793
997.80 0.0679
997.90 0.06788
998.00 0.06785
998.10 0.06782
998.20 0.06779
998.30 0.06777
998.40 0.06774
998.50 0.06771
998.60 0.06768
998.70 0.06766
998.80 0.06763
998.90 0.0676
999.00 0.06757
999.10 0.06755
999.20 0.06752
999.30 0.06749
999.40 0.06746
999.50 0.06744
999.60 0.06741
999.70 0.06738
999.80 0.06735
999.90 0.06733
1000.00 0.0673
1000.10 0.06727
1000.20 0.06724
1000.30 0.06722
1000.40 0.06719
1000.50 0.06716
1000.60 0.06713
1000.70 0.0671
1000.80 0.06708
1000.90 0.06705
1001.00 0.06702
1001.10 0.06699
1001.20 0.06697
1001.30 0.06694
1001.40 0.06691
1001.50 0.06688
1001.60 0.06685
1001.70 0.06683
1001.80 0.0668
1001.90 0.06678
1002.00 0.06675
1002.10 0.06673
1002.20 0.0667
1002.30 0.06668
1002.40 0.06666
1002.50 0.06663
1002.60 0.06661
1002.70 0.06658
1002.80 0.06656
1002.90 0.06654
1003.00 0.06651
1003.10 0.06649
1003.20 0.06647
1003.30 0.06644
1003.40 0.06642
1003.50 0.0664
1003.60 0.06638
1003.70 0.06636
1003.80 0.06634
1003.90 0.06632
1004.00 0.0663
1004.10 0.06628
1004.20 0.06626
1004.30 0.06624
1004.40 0.06622
1004.50 0.06619
1004.60 0.06617
1004.70 0.06615
1004.80 0.06612
1004.90 0.0661
1005.00 0.06607
1005.10 0.06604
1005.20 0.06602
1005.30 0.06599
1005.40 0.06596
1005.50 0.06593
1005.60 0.0659
1005.70 0.06587
1005.80 0.06584
1005.90 0.06581
1006.00 0.06578
1006.10 0.06575
1006.20 0.06572
1006.30 0.06569
1006.40 0.06566
1006.50 0.06563
1006.60 0.0656
1006.70 0.06557
1006.80 0.06554
1006.90 0.06551
1007.00 0.06548
1007.10 0.06546
1007.20 0.06543
1007.30 0.0654
1007.40 0.06538
1007.50 0.06535
1007.60 0.06532
1007.70 0.0653
1007.80 0.06527
1007.90 0.06525
1008.00 0.06522
1008.10 0.0652
1008.20 0.06517
1008.30 0.06514
1008.40 0.06512
1008.50 0.06509
1008.60 0.06507
1008.70 0.06504
1008.80 0.06502
1008.90 0.06499
1009.00 0.06497
1009.10 0.06494
1009.20 0.06492
1009.30 0.06489
1009.40 0.06487
1009.50 0.06484
1009.60 0.06482
1009.70 0.06479
1009.80 0.06477
1009.90 0.06474
1010.00 0.06472
1010.10 0.0647
1010.20 0.06467
1010.30 0.06465
1010.40 0.06462
1010.50 0.0646
1010.60 0.06457
1010.70 0.06455
1010.80 0.06453
1010.90 0.0645
1011.00 0.06448
1011.10 0.06445
1011.20 0.06443
1011.30 0.06441
1011.40 0.06438
1011.50 0.06436
1011.60 0.06433
1011.70 0.06431
1011.80 0.06429
1011.90 0.06426
1012.00 0.06424
1012.10 0.06422
1012.20 0.06419
1012.30 0.06417
1012.40 0.06414
1012.50 0.06412
1012.60 0.0641
1012.70 0.06407
1012.80 0.06405
1012.90 0.06403
1013.00 0.064
1013.10 0.06398
1013.20 0.06396
1013.30 0.06393
1013.40 0.06391
1013.50 0.06388
1013.60 0.06386
1013.70 0.06384
1013.80 0.06381
1013.90 0.06379
1014.00 0.06377
1014.10 0.06374
1014.20 0.06372
1014.30 0.0637
1014.40 0.06367
1014.50 0.06365
1014.60 0.06363
1014.70 0.0636
1014.80 0.06358
1014.90 0.06356
1015.00 0.06353
1015.10 0.06351
1015.20 0.06349
1015.30 0.06346
1015.40 0.06344
1015.50 0.06341
1015.60 0.06339
1015.70 0.06337
1015.80 0.06334
1015.90 0.06332
1016.00 0.0633
1016.10 0.06327
1016.20 0.06325
1016.30 0.06323
1016.40 0.0632
1016.50 0.06318
1016.60 0.06316
1016.70 0.06313
1016.80 0.06311
1016.90 0.06309
1017.00 0.06306
1017.10 0.06304
1017.20 0.06302
1017.30 0.06299
1017.40 0.06297
1017.50 0.06295
1017.60 0.06292
1017.70 0.0629
1017.80 0.06288
1017.90 0.06285
1018.00 0.06283
1018.10 0.06281
1018.20 0.06278
1018.30 0.06276
1018.40 0.06274
1018.50 0.06271
1018.60 0.06269
1018.70 0.06267
1018.80 0.06264
1018.90 0.06262
1019.00 0.0626
1019.10 0.06257
1019.20 0.06255
1019.30 0.06253
1019.40 0.0625
1019.50 0.06248
1019.60 0.06246
1019.70 0.06243
1019.80 0.06241
1019.90 0.06239
1020.00 0.06236
1020.10 0.06234
1020.20 0.06232
1020.30 0.06229
1020.40 0.06227
1020.50 0.06225
1020.60 0.06222
1020.70 0.0622
1020.80 0.06218
1020.90 0.06216
1021.00 0.06213
1021.10 0.06211
1021.20 0.06209
1021.30 0.06206
1021.40 0.06204
1021.50 0.06202
1021.60 0.06199
1021.70 0.06197
1021.80 0.06195
1021.90 0.06192
1022.00 0.0619
1022.10 0.06188
1022.20 0.06185
1022.30 0.06183
1022.40 0.06181
1022.50 0.06178
1022.60 0.06176
1022.70 0.06174
1022.80 0.06172
1022.90 0.06169
1023.00 0.06167
1023.10 0.06165
1023.20 0.06162
1023.30 0.0616
1023.40 0.06158
1023.50 0.06155
1023.60 0.06153
1023.70 0.06151
1023.80 0.06148
1023.90 0.06146
1024.00 0.06144
1024.10 0.06142
1024.20 0.06139
1024.30 0.06137
1024.40 0.06135
1024.50 0.06132
1024.60 0.0613
1024.70 0.06128
1024.80 0.06126
1024.90 0.06123
1025.00 0.06121
1025.10 0.06119
1025.20 0.06116
1025.30 0.06114
1025.40 0.06112
1025.50 0.06109
1025.60 0.06107
1025.70 0.06105
1025.80 0.06103
1025.90 0.061
1026.00 0.06098
1026.10 0.06096
1026.20 0.06093
1026.30 0.06091
1026.40 0.06089
1026.50 0.06087
1026.60 0.06084
1026.70 0.06082
1026.80 0.0608
1026.90 0.06077
1027.00 0.06075
1027.10 0.06073
1027.20 0.06071
1027.30 0.06068
1027.40 0.06066
1027.50 0.06064
1027.60 0.06061
1027.70 0.06059
1027.80 0.06057
1027.90 0.06055
1028.00 0.06052
1028.10 0.0605
1028.20 0.06048
1028.30 0.06046
1028.40 0.06043
1028.50 0.06041
1028.60 0.06039
1028.70 0.06036
1028.80 0.06034
1028.90 0.06032
1029.00 0.0603
1029.10 0.06027
1029.20 0.06025
1029.30 0.06023
1029.40 0.06021
1029.50 0.06018
1029.60 0.06016
1029.70 0.06014
1029.80 0.06012
1029.90 0.06009
1030.00 0.06007
1030.10 0.06005
1030.20 0.06003
1030.30 0.06
1030.40 0.05998
1030.50 0.05996
1030.60 0.05994
1030.70 0.05991
1030.80 0.05989
1030.90 0.05987
1031.00 0.05984
1031.10 0.05982
1031.20 0.0598
1031.30 0.05978
1031.40 0.05975
1031.50 0.05973
1031.60 0.05971
1031.70 0.05969
1031.80 0.05967
1031.90 0.05964
1032.00 0.05962
1032.10 0.0596
1032.20 0.05958
1032.30 0.05955
1032.40 0.05953
1032.50 0.05951
1032.60 0.05949
1032.70 0.05946
1032.80 0.05944
1032.90 0.05942
1033.00 0.0594
1033.10 0.05937
1033.20 0.05935
1033.30 0.05933
1033.40 0.05931
1033.50 0.05929
1033.60 0.05926
1033.70 0.05924
1033.80 0.05922
1033.90 0.0592
1034.00 0.05917
1034.10 0.05915
1034.20 0.05913
1034.30 0.05911
1034.40 0.05909
1034.50 0.05906
1034.60 0.05904
1034.70 0.05902
1034.80 0.059
1034.90 0.05897
1035.00 0.05895
1035.10 0.05893
1035.20 0.05891
1035.30 0.05889
1035.40 0.05886
1035.50 0.05884
1035.60 0.05882
1035.70 0.0588
1035.80 0.05878
1035.90 0.05875
1036.00 0.05873
1036.10 0.05871
1036.20 0.05869
1036.30 0.05866
1036.40 0.05864
1036.50 0.05862
1036.60 0.0586
1036.70 0.05858
1036.80 0.05855
1036.90 0.05853
1037.00 0.05851
1037.10 0.05849
1037.20 0.05847
1037.30 0.05844
1037.40 0.05842
1037.50 0.0584
1037.60 0.05838
1037.70 0.05836
1037.80 0.05834
1037.90 0.05831
1038.00 0.05829
1038.10 0.05827
1038.20 0.05825
1038.30 0.05823
1038.40 0.0582
1038.50 0.05818
1038.60 0.05816
1038.70 0.05814
1038.80 0.05812
1038.90 0.0581
1039.00 0.05807
1039.10 0.05805
1039.20 0.05803
1039.30 0.05801
1039.40 0.05799
1039.50 0.05796
1039.60 0.05794
1039.70 0.05792
1039.80 0.0579
1039.90 0.05788
1040.00 0.05786
1040.10 0.05783
1040.20 0.05781
1040.30 0.05779
1040.40 0.05777
1040.50 0.05775
1040.60 0.05773
1040.70 0.0577
1040.80 0.05768
1040.90 0.05766
1041.00 0.05764
1041.10 0.05762
1041.20 0.0576
1041.30 0.05757
1041.40 0.05755
1041.50 0.05753
1041.60 0.05751
1041.70 0.05749
1041.80 0.05747
1041.90 0.05744
1042.00 0.05742
1042.10 0.0574
1042.20 0.05738
1042.30 0.05736
1042.40 0.05734
1042.50 0.05732
1042.60 0.05729
1042.70 0.05727
1042.80 0.05725
1042.90 0.05723
1043.00 0.05721
1043.10 0.05719
1043.20 0.05717
1043.30 0.05714
1043.40 0.05712
1043.50 0.0571
1043.60 0.05708
1043.70 0.05706
1043.80 0.05704
1043.90 0.05702
1044.00 0.057
1044.10 0.05697
1044.20 0.05695
1044.30 0.05693
1044.40 0.05691
1044.50 0.05689
1044.60 0.05687
1044.70 0.05685
1044.80 0.05682
1044.90 0.0568
1045.00 0.05678
1045.10 0.05676
1045.20 0.05674
1045.30 0.05672
1045.40 0.0567
1045.50 0.05668
1045.60 0.05666
1045.70 0.05663
1045.80 0.05661
1045.90 0.05659
1046.00 0.05657
1046.10 0.05655
1046.20 0.05653
1046.30 0.05651
1046.40 0.05649
1046.50 0.05646
1046.60 0.05644
1046.70 0.05642
1046.80 0.0564
1046.90 0.05638
1047.00 0.05636
1047.10 0.05634
1047.20 0.05632
1047.30 0.0563
1047.40 0.05627
1047.50 0.05625
1047.60 0.05623
1047.70 0.05621
1047.80 0.05619
1047.90 0.05617
1048.00 0.05615
1048.10 0.05613
1048.20 0.05611
1048.30 0.05609
1048.40 0.05607
1048.50 0.05604
1048.60 0.05602
1048.70 0.056
1048.80 0.05598
1048.90 0.05596
1049.00 0.05594
1049.10 0.05592
1049.20 0.0559
1049.30 0.05588
1049.40 0.05586
1049.50 0.05584
1049.60 0.05582
1049.70 0.05579
1049.80 0.05577
1049.90 0.05575
1050.00 0.05573
1050.10 0.05571
1050.20 0.05569
1050.30 0.05567
1050.40 0.05565
1050.50 0.05563
1050.60 0.05561
1050.70 0.05559
1050.80 0.05557
1050.90 0.05555
1051.00 0.05552
1051.10 0.0555
1051.20 0.05548
1051.30 0.05546
1051.40 0.05544
1051.50 0.05542
1051.60 0.0554
1051.70 0.05538
1051.80 0.05536
1051.90 0.05534
1052.00 0.05532
1052.10 0.0553
1052.20 0.05528
1052.30 0.05526
1052.40 0.05524
1052.50 0.05521
1052.60 0.05519
1052.70 0.05517
1052.80 0.05515
1052.90 0.05513
1053.00 0.05511
1053.10 0.05509
1053.20 0.05507
1053.30 0.05505
1053.40 0.05503
1053.50 0.05501
1053.60 0.05499
1053.70 0.05497
1053.80 0.05495
1053.90 0.05493
1054.00 0.05491
1054.10 0.05489
1054.20 0.05487
1054.30 0.05485
1054.40 0.05483
1054.50 0.05481
1054.60 0.05479
1054.70 0.05477
1054.80 0.05474
1054.90 0.05472
1055.00 0.0547
1055.10 0.05468
1055.20 0.05466
1055.30 0.05464
1055.40 0.05462
1055.50 0.0546
1055.60 0.05458
1055.70 0.05456
1055.80 0.05454
1055.90 0.05452
1056.00 0.0545
1056.10 0.05448
1056.20 0.05446
1056.30 0.05444
1056.40 0.05442
1056.50 0.0544
1056.60 0.05438
1056.70 0.05436
1056.80 0.05434
1056.90 0.05432
1057.00 0.0543
1057.10 0.05428
1057.20 0.05426
1057.30 0.05424
1057.40 0.05422
1057.50 0.0542
1057.60 0.05418
1057.70 0.05416
1057.80 0.05414
1057.90 0.05412
1058.00 0.0541
1058.10 0.05408
1058.20 0.05406
1058.30 0.05404
1058.40 0.05402
1058.50 0.054
1058.60 0.05398
1058.70 0.05396
1058.80 0.05394
1058.90 0.05392
1059.00 0.0539
1059.10 0.05388
1059.20 0.05386
1059.30 0.05384
1059.40 0.05382
1059.50 0.0538
1059.60 0.05378
1059.70 0.05376
1059.80 0.05374
1059.90 0.05372
1060.00 0.0537
1060.10 0.05368
1060.20 0.05366
1060.30 0.05364
1060.40 0.05362
1060.50 0.0536
1060.60 0.05358
1060.70 0.05356
1060.80 0.05354
1060.90 0.05352
1061.00 0.0535
1061.10 0.05348
1061.20 0.05346
1061.30 0.05344
1061.40 0.05342
1061.50 0.0534
1061.60 0.05338
1061.70 0.05336
1061.80 0.05334
1061.90 0.05332
1062.00 0.0533
1062.10 0.05328
1062.20 0.05326
1062.30 0.05324
1062.40 0.05322
1062.50 0.0532
1062.60 0.05318
1062.70 0.05316
1062.80 0.05314
1062.90 0.05312
1063.00 0.0531
1063.10 0.05308
1063.20 0.05306
1063.30 0.05304
1063.40 0.05302
1063.50 0.053
1063.60 0.05298
1063.70 0.05297
1063.80 0.05295
1063.90 0.05293
1064.00 0.05291
1064.10 0.05289
1064.20 0.05287
1064.30 0.05285
1064.40 0.05283
1064.50 0.05281
1064.60 0.05279
1064.70 0.05277
1064.80 0.05275
1064.90 0.05273
1065.00 0.05271
1065.10 0.05269
1065.20 0.05267
1065.30 0.05265
1065.40 0.05263
1065.50 0.05261
1065.60 0.05259
1065.70 0.05257
1065.80 0.05255
1065.90 0.05253
1066.00 0.05252
1066.10 0.0525
1066.20 0.05248
1066.30 0.05246
1066.40 0.05244
1066.50 0.05242
1066.60 0.0524
1066.70 0.05238
1066.80 0.05236
1066.90 0.05234
1067.00 0.05232
1067.10 0.0523
1067.20 0.05228
1067.30 0.05226
1067.40 0.05224
1067.50 0.05222
1067.60 0.0522
1067.70 0.05218
1067.80 0.05217
1067.90 0.05215
1068.00 0.05213
1068.10 0.05211
1068.20 0.05209
1068.30 0.05207
1068.40 0.05205
1068.50 0.05203
1068.60 0.05201
1068.70 0.05199
1068.80 0.05197
1068.90 0.05195
1069.00 0.05193
1069.10 0.05191
1069.20 0.05189
1069.30 0.05188
1069.40 0.05186
1069.50 0.05184
1069.60 0.05182
1069.70 0.0518
1069.80 0.05178
1069.90 0.05176
1070.00 0.05174
1070.10 0.05172
1070.20 0.0517
1070.30 0.05168
1070.40 0.05166
1070.50 0.05164
1070.60 0.05163
1070.70 0.05161
1070.80 0.05159
1070.90 0.05157
1071.00 0.05155
1071.10 0.05153
1071.20 0.05151
1071.30 0.05149
1071.40 0.05147
1071.50 0.05145
1071.60 0.05143
1071.70 0.05141
1071.80 0.0514
1071.90 0.05138
1072.00 0.05136
1072.10 0.05134
1072.20 0.05132
1072.30 0.0513
1072.40 0.05128
1072.50 0.05126
1072.60 0.05124
1072.70 0.05122
1072.80 0.0512
1072.90 0.05118
1073.00 0.05117
1073.10 0.05115
1073.20 0.05113
1073.30 0.05111
1073.40 0.05109
1073.50 0.05107
1073.60 0.05105
1073.70 0.05103
1073.80 0.05101
1073.90 0.05099
1074.00 0.05097
1074.10 0.05096
1074.20 0.05094
1074.30 0.05092
1074.40 0.0509
1074.50 0.05088
1074.60 0.05086
1074.70 0.05084
1074.80 0.05082
1074.90 0.0508
1075.00 0.05078
1075.10 0.05076
1075.20 0.05075
1075.30 0.05073
1075.40 0.05071
1075.50 0.05069
1075.60 0.05067
1075.70 0.05065
1075.80 0.05063
1075.90 0.05061
1076.00 0.05059
1076.10 0.05057
1076.20 0.05056
1076.30 0.05054
1076.40 0.05052
1076.50 0.0505
1076.60 0.05048
1076.70 0.05046
1076.80 0.05044
1076.90 0.05042
1077.00 0.0504
1077.10 0.05038
1077.20 0.05037
1077.30 0.05035
1077.40 0.05033
1077.50 0.05031
1077.60 0.05029
1077.70 0.05027
1077.80 0.05025
1077.90 0.05023
1078.00 0.05021
1078.10 0.05019
1078.20 0.05017
1078.30 0.05016
1078.40 0.05014
1078.50 0.05012
1078.60 0.0501
1078.70 0.05008
1078.80 0.05006
1078.90 0.05004
1079.00 0.05002
1079.10 0.05
1079.20 0.04998
1079.30 0.04997
1079.40 0.04995
1079.50 0.04993
1079.60 0.04991
1079.70 0.04989
1079.80 0.04987
1079.90 0.04985
1080.00 0.04983
1080.10 0.04981
1080.20 0.04979
1080.30 0.04977
1080.40 0.04975
1080.50 0.04974
1080.60 0.04972
1080.70 0.0497
1080.80 0.04968
1080.90 0.04966
1081.00 0.04964
1081.10 0.04962
1081.20 0.0496
1081.30 0.04958
1081.40 0.04956
1081.50 0.04954
1081.60 0.04953
1081.70 0.04951
1081.80 0.04949
1081.90 0.04947
1082.00 0.04945
1082.10 0.04943
1082.20 0.04941
1082.30 0.04939
1082.40 0.04937
1082.50 0.04935
1082.60 0.04933
1082.70 0.04931
1082.80 0.0493
1082.90 0.04928
1083.00 0.04926
1083.10 0.04924
1083.20 0.04922
1083.30 0.0492
1083.40 0.04918
1083.50 0.04916
1083.60 0.04914
1083.70 0.04912
1083.80 0.0491
1083.90 0.04908
1084.00 0.04907
1084.10 0.04905
1084.20 0.04903
1084.30 0.04901
1084.40 0.04899
1084.50 0.04897
1084.60 0.04895
1084.70 0.04893
1084.80 0.04891
1084.90 0.04889
1085.00 0.04887
1085.10 0.04885
1085.20 0.04883
1085.30 0.04881
1085.40 0.0488
1085.50 0.04878
1085.60 0.04876
1085.70 0.04874
1085.80 0.04872
1085.90 0.0487
1086.00 0.04868
1086.10 0.04866
1086.20 0.04864
1086.30 0.04862
1086.40 0.0486
1086.50 0.04858
1086.60 0.04857
1086.70 0.04855
1086.80 0.04853
1086.90 0.04851
1087.00 0.04849
1087.10 0.04847
1087.20 0.04845
1087.30 0.04843
1087.40 0.04841
1087.50 0.04839
1087.60 0.04838
1087.70 0.04836
1087.80 0.04834
1087.90 0.04832
1088.00 0.0483
1088.10 0.04828
1088.20 0.04826
1088.30 0.04824
1088.40 0.04822
1088.50 0.04821
1088.60 0.04819
1088.70 0.04817
1088.80 0.04815
1088.90 0.04813
1089.00 0.04812
1089.10 0.0481
1089.20 0.04808
1089.30 0.04806
1089.40 0.04805
1089.50 0.04803
1089.60 0.04801
1089.70 0.04799
1089.80 0.04797
1089.90 0.04796
1090.00 0.04794
1090.10 0.04792
1090.20 0.0479
1090.30 0.04789
1090.40 0.04787
1090.50 0.04785
1090.60 0.04784
1090.70 0.04782
1090.80 0.04781
1090.90 0.04779
1091.00 0.04777
1091.10 0.04776
1091.20 0.04774
1091.30 0.04773
1091.40 0.04771
1091.50 0.0477
1091.60 0.04768
1091.70 0.04767
1091.80 0.04765
1091.90 0.04764
1092.00 0.04762
1092.10 0.04761
1092.20 0.0476
1092.30 0.04758
1092.40 0.04757
1092.50 0.04756
1092.60 0.04755
1092.70 0.04754
1092.80 0.04753
1092.90 0.04751
1093.00 0.0475
1093.10 0.0475
1093.20 0.04749
1093.30 0.04748
1093.40 0.04748
1093.50 0.04748
1093.60 0.0475
1093.70 0.04751
1093.80 0.04751
1093.90 0.04749
1094.00 0.04744
1094.10 0.0474
1094.20 0.04736
1094.30 0.04732
1094.40 0.04729
1094.50 0.04727
1094.60 0.04724
1094.70 0.04722
1094.80 0.04719
1094.90 0.04717
1095.00 0.04714
1095.10 0.04712
1095.20 0.0471
1095.30 0.04708
1095.40 0.04706
1095.50 0.04704
1095.60 0.04702
1095.70 0.047
1095.80 0.04698
1095.90 0.04696
1096.00 0.04694
1096.10 0.04692
1096.20 0.0469
1096.30 0.04688
1096.40 0.04686
1096.50 0.04685
1096.60 0.04683
1096.70 0.04681
1096.80 0.04679
1096.90 0.04677
1097.00 0.04676
1097.10 0.04674
1097.20 0.04672
1097.30 0.04671
1097.40 0.04669
1097.50 0.04668
1097.60 0.04666
1097.70 0.04664
1097.80 0.04663
1097.90 0.04661
1098.00 0.04659
1098.10 0.04658
1098.20 0.04656
1098.30 0.04655
1098.40 0.04653
1098.50 0.04651
1098.60 0.0465
1098.70 0.04648
1098.80 0.04647
1098.90 0.04645
1099.00 0.04644
1099.10 0.04642
1099.20 0.04641
1099.30 0.04639
1099.40 0.04638
1099.50 0.04636
1099.60 0.04635
1099.70 0.04633
1099.80 0.04632
1099.90 0.0463
1100.00 0.04629
1100.10 0.04627
1100.20 0.04626
1100.30 0.04624
1100.40 0.04623
1100.50 0.04621
1100.60 0.0462
1100.70 0.04618
1100.80 0.04617
1100.90 0.04615
1101.00 0.04614
1101.10 0.04612
1101.20 0.04611
1101.30 0.04609
1101.40 0.04608
1101.50 0.04606
1101.60 0.04605
1101.70 0.04603
1101.80 0.04602
1101.90 0.046
1102.00 0.04599
1102.10 0.04597
1102.20 0.04596
1102.30 0.04595
1102.40 0.04593
1102.50 0.04592
1102.60 0.0459
1102.70 0.04589
1102.80 0.04587
1102.90 0.04586
1103.00 0.04584
1103.10 0.04583
1103.20 0.04581
1103.30 0.0458
1103.40 0.04578
1103.50 0.04577
1103.60 0.04575
1103.70 0.04574
1103.80 0.04572
1103.90 0.04571
1104.00 0.04569
1104.10 0.04568
1104.20 0.04566
1104.30 0.04565
1104.40 0.04563
1104.50 0.04562
1104.60 0.0456
1104.70 0.04559
1104.80 0.04557
1104.90 0.04556
1105.00 0.04555
1105.10 0.04553
1105.20 0.04552
1105.30 0.0455
1105.40 0.04549
1105.50 0.04547
1105.60 0.04546
1105.70 0.04544
1105.80 0.04543
1105.90 0.04541
1106.00 0.0454
1106.10 0.04538
1106.20 0.04537
1106.30 0.04535
1106.40 0.04534
1106.50 0.04532
1106.60 0.04531
1106.70 0.04529
1106.80 0.04528
1106.90 0.04526
1107.00 0.04525
1107.10 0.04523
1107.20 0.04522
1107.30 0.0452
1107.40 0.04519
1107.50 0.04517
1107.60 0.04516
1107.70 0.04514
1107.80 0.04513
1107.90 0.04511
1108.00 0.0451
1108.10 0.04508
1108.20 0.04507
1108.30 0.04505
1108.40 0.04504
1108.50 0.04502
1108.60 0.04501
1108.70 0.04499
1108.80 0.04498
1108.90 0.04496
1109.00 0.04495
1109.10 0.04493
1109.20 0.04492
1109.30 0.0449
1109.40 0.04489
1109.50 0.04487
1109.60 0.04485
1109.70 0.04484
1109.80 0.04482
1109.90 0.04481
1110.00 0.04479
1110.10 0.04478
1110.20 0.04476
1110.30 0.04475
1110.40 0.04473
1110.50 0.04472
1110.60 0.0447
1110.70 0.04469
1110.80 0.04467
1110.90 0.04466
1111.00 0.04464
1111.10 0.04463
1111.20 0.04461
1111.30 0.0446
1111.40 0.04458
1111.50 0.04457
1111.60 0.04455
1111.70 0.04454
1111.80 0.04452
1111.90 0.04451
1112.00 0.04449
1112.10 0.04448
1112.20 0.04446
1112.30 0.04445
1112.40 0.04443
1112.50 0.04442
1112.60 0.0444
1112.70 0.04439
1112.80 0.04437
1112.90 0.04436
1113.00 0.04434
1113.10 0.04433
1113.20 0.04431
1113.30 0.04429
1113.40 0.04428
1113.50 0.04426
1113.60 0.04425
1113.70 0.04423
1113.80 0.04422
1113.90 0.0442
1114.00 0.04419
1114.10 0.04417
1114.20 0.04416
1114.30 0.04414
1114.40 0.04413
1114.50 0.04411
1114.60 0.0441
1114.70 0.04408
1114.80 0.04407
1114.90 0.04405
1115.00 0.04404
1115.10 0.04402
1115.20 0.04401
1115.30 0.04399
1115.40 0.04398
1115.50 0.04396
1115.60 0.04395
1115.70 0.04393
1115.80 0.04392
1115.90 0.0439
1116.00 0.04389
1116.10 0.04387
1116.20 0.04386
1116.30 0.04384
1116.40 0.04383
1116.50 0.04381
1116.60 0.0438
1116.70 0.04378
1116.80 0.04377
1116.90 0.04375
1117.00 0.04374
1117.10 0.04372
1117.20 0.04371
1117.30 0.04369
1117.40 0.04368
1117.50 0.04366
1117.60 0.04365
1117.70 0.04363
1117.80 0.04362
1117.90 0.0436
1118.00 0.04359
1118.10 0.04357
1118.20 0.04356
1118.30 0.04354
1118.40 0.04353
1118.50 0.04351
1118.60 0.0435
1118.70 0.04348
1118.80 0.04347
1118.90 0.04345
1119.00 0.04344
1119.10 0.04342
1119.20 0.04341
1119.30 0.04339
1119.40 0.04338
1119.50 0.04336
1119.60 0.04335
1119.70 0.04333
1119.80 0.04332
1119.90 0.0433
1120.00 0.04329
1120.10 0.04327
1120.20 0.04326
1120.30 0.04324
1120.40 0.04323
1120.50 0.04321
1120.60 0.0432
1120.70 0.04318
1120.80 0.04317
1120.90 0.04315
1121.00 0.04314
1121.10 0.04312
1121.20 0.04311
1121.30 0.04309
1121.40 0.04308
1121.50 0.04306
1121.60 0.04305
1121.70 0.04303
1121.80 0.04302
1121.90 0.043
1122.00 0.04299
1122.10 0.04297
1122.20 0.04296
1122.30 0.04294
1122.40 0.04293
1122.50 0.04291
1122.60 0.0429
1122.70 0.04288
1122.80 0.04287
1122.90 0.04285
1123.00 0.04284
1123.10 0.04283
1123.20 0.04281
1123.30 0.0428
1123.40 0.04278
1123.50 0.04277
1123.60 0.04275
1123.70 0.04274
1123.80 0.04272
1123.90 0.04271
1124.00 0.04269
1124.10 0.04268
1124.20 0.04266
1124.30 0.04265
1124.40 0.04263
1124.50 0.04262
1124.60 0.0426
1124.70 0.04259
1124.80 0.04257
1124.90 0.04256
1125.00 0.04254
1125.10 0.04253
1125.20 0.04252
1125.30 0.0425
1125.40 0.04249
1125.50 0.04247
1125.60 0.04246
1125.70 0.04244
1125.80 0.04243
1125.90 0.04241
1126.00 0.0424
1126.10 0.04238
1126.20 0.04237
1126.30 0.04235
1126.40 0.04234
1126.50 0.04232
1126.60 0.04231
1126.70 0.0423
1126.80 0.04228
1126.90 0.04227
1127.00 0.04225
1127.10 0.04224
1127.20 0.04222
1127.30 0.04221
1127.40 0.04219
1127.50 0.04218
1127.60 0.04216
1127.70 0.04215
1127.80 0.04214
1127.90 0.04212
1128.00 0.04211
1128.10 0.04209
1128.20 0.04208
1128.30 0.04206
1128.40 0.04205
1128.50 0.04203
1128.60 0.04202
1128.70 0.042
1128.80 0.04199
1128.90 0.04198
1129.00 0.04196
1129.10 0.04195
1129.20 0.04193
1129.30 0.04192
1129.40 0.0419
1129.50 0.04189
1129.60 0.04187
1129.70 0.04186
1129.80 0.04185
1129.90 0.04183
1130.00 0.04182
1130.10 0.0418
1130.20 0.04179
1130.30 0.04177
1130.40 0.04176
1130.50 0.04174
1130.60 0.04173
1130.70 0.04172
1130.80 0.0417
1130.90 0.04169
1131.00 0.04167
1131.10 0.04166
1131.20 0.04164
1131.30 0.04163
1131.40 0.04162
1131.50 0.0416
1131.60 0.04159
1131.70 0.04157
1131.80 0.04156
1131.90 0.04154
1132.00 0.04153
1132.10 0.04151
1132.20 0.0415
1132.30 0.04149
1132.40 0.04147
1132.50 0.04146
1132.60 0.04144
1132.70 0.04143
1132.80 0.04141
1132.90 0.0414
1133.00 0.04139
1133.10 0.04137
1133.20 0.04136
1133.30 0.04134
1133.40 0.04133
1133.50 0.04132
1133.60 0.0413
1133.70 0.04129
1133.80 0.04127
1133.90 0.04126
1134.00 0.04124
1134.10 0.04123
1134.20 0.04122
1134.30 0.0412
1134.40 0.04119
1134.50 0.04117
1134.60 0.04116
1134.70 0.04115
1134.80 0.04113
1134.90 0.04112
1135.00 0.0411
1135.10 0.04109
1135.20 0.04107
1135.30 0.04106
1135.40 0.04105
1135.50 0.04103
1135.60 0.04102
1135.70 0.041
1135.80 0.04099
1135.90 0.04098
1136.00 0.04096
1136.10 0.04095
1136.20 0.04093
1136.30 0.04092
1136.40 0.04091
1136.50 0.04089
1136.60 0.04088
1136.70 0.04086
1136.80 0.04085
1136.90 0.04083
1137.00 0.04082
1137.10 0.04081
1137.20 0.04079
1137.30 0.04078
1137.40 0.04076
1137.50 0.04075
1137.60 0.04074
1137.70 0.04072
1137.80 0.04071
1137.90 0.04069
1138.00 0.04068
1138.10 0.04067
1138.20 0.04065
1138.30 0.04064
1138.40 0.04063
1138.50 0.04061
1138.60 0.0406
1138.70 0.04058
1138.80 0.04057
1138.90 0.04056
1139.00 0.04054
1139.10 0.04053
1139.20 0.04051
1139.30 0.0405
1139.40 0.04049
1139.50 0.04047
1139.60 0.04046
1139.70 0.04044
1139.80 0.04043
1139.90 0.04042
1140.00 0.0404
1140.10 0.04039
1140.20 0.04038
1140.30 0.04036
1140.40 0.04035
1140.50 0.04033
1140.60 0.04032
1140.70 0.04031
1140.80 0.04029
1140.90 0.04028
1141.00 0.04026
1141.10 0.04025
1141.20 0.04024
1141.30 0.04022
1141.40 0.04021
1141.50 0.0402
1141.60 0.04018
1141.70 0.04017
1141.80 0.04015
1141.90 0.04014
1142.00 0.04013
1142.10 0.04011
1142.20 0.0401
1142.30 0.04009
1142.40 0.04007
1142.50 0.04006
1142.60 0.04004
1142.70 0.04003
1142.80 0.04002
1142.90 0.04
1143.00 0.03999
1143.10 0.03998
1143.20 0.03996
1143.30 0.03995
1143.40 0.03994
1143.50 0.03992
1143.60 0.03991
1143.70 0.03989
1143.80 0.03988
1143.90 0.03987
1144.00 0.03985
1144.10 0.03984
1144.20 0.03983
1144.30 0.03981
1144.40 0.0398
1144.50 0.03979
1144.60 0.03977
1144.70 0.03976
1144.80 0.03974
1144.90 0.03973
1145.00 0.03972
1145.10 0.0397
1145.20 0.03969
1145.30 0.03968
1145.40 0.03966
1145.50 0.03965
1145.60 0.03964
1145.70 0.03962
1145.80 0.03961
1145.90 0.0396
1146.00 0.03958
1146.10 0.03957
1146.20 0.03955
1146.30 0.03954
1146.40 0.03953
1146.50 0.03951
1146.60 0.0395
1146.70 0.03949
1146.80 0.03947
1146.90 0.03946
1147.00 0.03945
1147.10 0.03943
1147.20 0.03942
1147.30 0.03941
1147.40 0.03939
1147.50 0.03938
1147.60 0.03937
1147.70 0.03935
1147.80 0.03934
1147.90 0.03933
1148.00 0.03931
1148.10 0.0393
1148.20 0.03929
1148.30 0.03927
1148.40 0.03926
1148.50 0.03925
1148.60 0.03923
1148.70 0.03922
1148.80 0.03921
1148.90 0.03919
1149.00 0.03918
1149.10 0.03917
1149.20 0.03915
1149.30 0.03914
1149.40 0.03913
1149.50 0.03911
1149.60 0.0391
1149.70 0.03909
1149.80 0.03907
1149.90 0.03906
1150.00 0.03905
1150.10 0.03903
1150.20 0.03902
1150.30 0.03901
1150.40 0.03899
1150.50 0.03898
1150.60 0.03897
1150.70 0.03895
1150.80 0.03894
1150.90 0.03893
1151.00 0.03891
1151.10 0.0389
1151.20 0.03889
1151.30 0.03887
1151.40 0.03886
1151.50 0.03885
1151.60 0.03883
1151.70 0.03882
1151.80 0.03881
1151.90 0.03879
1152.00 0.03878
1152.10 0.03877
1152.20 0.03875
1152.30 0.03874
1152.40 0.03873
1152.50 0.03872
1152.60 0.0387
1152.70 0.03869
1152.80 0.03868
1152.90 0.03866
1153.00 0.03865
1153.10 0.03864
1153.20 0.03862
1153.30 0.03861
1153.40 0.0386
1153.50 0.03858
1153.60 0.03857
1153.70 0.03856
1153.80 0.03855
1153.90 0.03853
1154.00 0.03852
1154.10 0.03851
1154.20 0.03849
1154.30 0.03848
1154.40 0.03847
1154.50 0.03845
1154.60 0.03844
1154.70 0.03843
1154.80 0.03841
1154.90 0.0384
1155.00 0.03839
1155.10 0.03838
1155.20 0.03836
1155.30 0.03835
1155.40 0.03834
1155.50 0.03832
1155.60 0.03831
1155.70 0.0383
1155.80 0.03828
1155.90 0.03827
1156.00 0.03826
1156.10 0.03825
1156.20 0.03823
1156.30 0.03822
1156.40 0.03821
1156.50 0.03819
1156.60 0.03818
1156.70 0.03817
1156.80 0.03816
1156.90 0.03814
1157.00 0.03813
1157.10 0.03812
1157.20 0.0381
1157.30 0.03809
1157.40 0.03808
1157.50 0.03807
1157.60 0.03805
1157.70 0.03804
1157.80 0.03803
1157.90 0.03801
1158.00 0.038
1158.10 0.03799
1158.20 0.03798
1158.30 0.03796
1158.40 0.03795
1158.50 0.03794
1158.60 0.03792
1158.70 0.03791
1158.80 0.0379
1158.90 0.03789
1159.00 0.03787
1159.10 0.03786
1159.20 0.03785
1159.30 0.03783
1159.40 0.03782
1159.50 0.03781
1159.60 0.0378
1159.70 0.03778
1159.80 0.03777
1159.90 0.03776
1160.00 0.03775
1160.10 0.03773
1160.20 0.03772
1160.30 0.03771
1160.40 0.03769
1160.50 0.03768
1160.60 0.03767
1160.70 0.03766
1160.80 0.03764
1160.90 0.03763
1161.00 0.03762
1161.10 0.03761
1161.20 0.03759
1161.30 0.03758
1161.40 0.03757
1161.50 0.03755
1161.60 0.03754
1161.70 0.03753
1161.80 0.03752
1161.90 0.0375
1162.00 0.03749
1162.10 0.03748
1162.20 0.03747
1162.30 0.03745
1162.40 0.03744
1162.50 0.03743
1162.60 0.03742
1162.70 0.0374
1162.80 0.03739
1162.90 0.03738
1163.00 0.03737
1163.10 0.03735
1163.20 0.03734
1163.30 0.03733
1163.40 0.03732
1163.50 0.0373
1163.60 0.03729
1163.70 0.03728
1163.80 0.03726
1163.90 0.03725
1164.00 0.03724
1164.10 0.03723
1164.20 0.03721
1164.30 0.0372
1164.40 0.03719
1164.50 0.03718
1164.60 0.03716
1164.70 0.03715
1164.80 0.03714
1164.90 0.03713
1165.00 0.03711
1165.10 0.0371
1165.20 0.03709
1165.30 0.03708
1165.40 0.03707
1165.50 0.03705
1165.60 0.03704
1165.70 0.03703
1165.80 0.03702
1165.90 0.037
1166.00 0.03699
1166.10 0.03698
1166.20 0.03697
1166.30 0.03695
1166.40 0.03694
1166.50 0.03693
1166.60 0.03692
1166.70 0.0369
1166.80 0.03689
1166.90 0.03688
1167.00 0.03687
1167.10 0.03685
1167.20 0.03684
1167.30 0.03683
1167.40 0.03682
1167.50 0.0368
1167.60 0.03679
1167.70 0.03678
1167.80 0.03677
1167.90 0.03676
1168.00 0.03674
1168.10 0.03673
1168.20 0.03672
1168.30 0.03671
1168.40 0.03669
1168.50 0.03668
1168.60 0.03667
1168.70 0.03666
1168.80 0.03664
1168.90 0.03663
1169.00 0.03662
1169.10 0.03661
1169.20 0.0366
1169.30 0.03658
1169.40 0.03657
1169.50 0.03656
1169.60 0.03655
1169.70 0.03653
1169.80 0.03652
1169.90 0.03651
1170.00 0.0365
1170.10 0.03649
1170.20 0.03647
1170.30 0.03646
1170.40 0.03645
1170.50 0.03644
1170.60 0.03642
1170.70 0.03641
1170.80 0.0364
1170.90 0.03639
1171.00 0.03638
1171.10 0.03636
1171.20 0.03635
1171.30 0.03634
1171.40 0.03633
1171.50 0.03631
1171.60 0.0363
1171.70 0.03629
1171.80 0.03628
1171.90 0.03627
1172.00 0.03625
1172.10 0.03624
1172.20 0.03623
1172.30 0.03622
1172.40 0.03621
1172.50 0.03619
1172.60 0.03618
1172.70 0.03617
1172.80 0.03616
1172.90 0.03615
1173.00 0.03613
1173.10 0.03612
1173.20 0.03611
1173.30 0.0361
1173.40 0.03609
1173.50 0.03607
1173.60 0.03606
1173.70 0.03605
1173.80 0.03604
1173.90 0.03603
1174.00 0.03601
1174.10 0.036
1174.20 0.03599
1174.30 0.03598
1174.40 0.03597
1174.50 0.03595
1174.60 0.03594
1174.70 0.03593
1174.80 0.03592
1174.90 0.03591
1175.00 0.03589
1175.10 0.03588
1175.20 0.03587
1175.30 0.03586
1175.40 0.03585
1175.50 0.03583
1175.60 0.03582
1175.70 0.03581
1175.80 0.0358
1175.90 0.03579
1176.00 0.03577
1176.10 0.03576
1176.20 0.03575
1176.30 0.03574
1176.40 0.03573
1176.50 0.03571
1176.60 0.0357
1176.70 0.03569
1176.80 0.03568
1176.90 0.03567
1177.00 0.03565
1177.10 0.03564
1177.20 0.03563
1177.30 0.03562
1177.40 0.03561
1177.50 0.0356
1177.60 0.03558
1177.70 0.03557
1177.80 0.03556
1177.90 0.03555
1178.00 0.03554
1178.10 0.03552
1178.20 0.03551
1178.30 0.0355
1178.40 0.03549
1178.50 0.03548
1178.60 0.03547
1178.70 0.03545
1178.80 0.03544
1178.90 0.03543
1179.00 0.03542
1179.10 0.03541
1179.20 0.0354
1179.30 0.03538
1179.40 0.03537
1179.50 0.03536
1179.60 0.03535
1179.70 0.03534
1179.80 0.03532
1179.90 0.03531
1180.00 0.0353
1180.10 0.03529
1180.20 0.03528
1180.30 0.03527
1180.40 0.03525
1180.50 0.03524
1180.60 0.03523
1180.70 0.03522
1180.80 0.03521
1180.90 0.0352
1181.00 0.03518
1181.10 0.03517
1181.20 0.03516
1181.30 0.03515
1181.40 0.03514
1181.50 0.03513
1181.60 0.03511
1181.70 0.0351
1181.80 0.03509
1181.90 0.03508
1182.00 0.03507
1182.10 0.03506
1182.20 0.03504
1182.30 0.03503
1182.40 0.03502
1182.50 0.03501
1182.60 0.035
1182.70 0.03499
1182.80 0.03497
1182.90 0.03496
1183.00 0.03495
1183.10 0.03494
1183.20 0.03493
1183.30 0.03492
1183.40 0.03491
1183.50 0.03489
1183.60 0.03488
1183.70 0.03487
1183.80 0.03486
1183.90 0.03485
1184.00 0.03484
1184.10 0.03482
1184.20 0.03481
1184.30 0.0348
1184.40 0.03479
1184.50 0.03478
1184.60 0.03477
1184.70 0.03476
1184.80 0.03474
1184.90 0.03473
1185.00 0.03472
1185.10 0.03471
1185.20 0.0347
1185.30 0.03469
1185.40 0.03468
1185.50 0.03466
1185.60 0.03465
1185.70 0.03464
1185.80 0.03463
1185.90 0.03462
1186.00 0.03461
1186.10 0.0346
1186.20 0.03458
1186.30 0.03457
1186.40 0.03456
1186.50 0.03455
1186.60 0.03454
1186.70 0.03453
1186.80 0.03452
1186.90 0.0345
1187.00 0.03449
1187.10 0.03448
1187.20 0.03447
1187.30 0.03446
1187.40 0.03445
1187.50 0.03444
1187.60 0.03442
1187.70 0.03441
1187.80 0.0344
1187.90 0.03439
1188.00 0.03438
1188.10 0.03437
1188.20 0.03436
1188.30 0.03435
1188.40 0.03433
1188.50 0.03432
1188.60 0.03431
1188.70 0.0343
1188.80 0.03429
1188.90 0.03428
1189.00 0.03427
1189.10 0.03425
1189.20 0.03424
1189.30 0.03423
1189.40 0.03422
1189.50 0.03421
1189.60 0.0342
1189.70 0.03419
1189.80 0.03418
1189.90 0.03416
1190.00 0.03415
1190.10 0.03414
1190.20 0.03413
1190.30 0.03412
1190.40 0.03411
1190.50 0.0341
1190.60 0.03409
1190.70 0.03407
1190.80 0.03406
1190.90 0.03405
1191.00 0.03404
1191.10 0.03403
1191.20 0.03402
1191.30 0.03401
1191.40 0.034
1191.50 0.03398
1191.60 0.03397
1191.70 0.03396
1191.80 0.03395
1191.90 0.03394
1192.00 0.03393
1192.10 0.03392
1192.20 0.03391
1192.30 0.0339
1192.40 0.03388
1192.50 0.03387
1192.60 0.03386
1192.70 0.03385
1192.80 0.03384
1192.90 0.03383
1193.00 0.03382
1193.10 0.03381
1193.20 0.0338
1193.30 0.03378
1193.40 0.03377
1193.50 0.03376
1193.60 0.03375
1193.70 0.03374
1193.80 0.03373
1193.90 0.03372
1194.00 0.03371
1194.10 0.0337
1194.20 0.03369
1194.30 0.03367
1194.40 0.03366
1194.50 0.03365
1194.60 0.03364
1194.70 0.03363
1194.80 0.03362
1194.90 0.03361
1195.00 0.0336
1195.10 0.03359
1195.20 0.03357
1195.30 0.03356
1195.40 0.03355
1195.50 0.03354
1195.60 0.03353
1195.70 0.03352
1195.80 0.03351
1195.90 0.0335
1196.00 0.03349
1196.10 0.03348
1196.20 0.03346
1196.30 0.03345
1196.40 0.03344
1196.50 0.03343
1196.60 0.03342
1196.70 0.03341
1196.80 0.0334
1196.90 0.03339
1197.00 0.03338
1197.10 0.03337
1197.20 0.03336
1197.30 0.03334
1197.40 0.03333
1197.50 0.03332
1197.60 0.03331
1197.70 0.0333
1197.80 0.03329
1197.90 0.03328
1198.00 0.03327
1198.10 0.03326
1198.20 0.03325
1198.30 0.03324
1198.40 0.03322
1198.50 0.03321
1198.60 0.0332
1198.70 0.03319
1198.80 0.03318
1198.90 0.03317
1199.00 0.03316
1199.10 0.03315
1199.20 0.03314
1199.30 0.03313
1199.40 0.03312
1199.50 0.03311
1199.60 0.03309
1199.70 0.03308
1199.80 0.03307
1199.90 0.03306
1200.00 0
