# Version 2.1 - nm, norm@500 to 1, cut digits, bergeron_85000_75.dat_85000
# Wavelength(nm)  Flambda(ergs/cm^s/s/nm)
300.00 6.711
300.10 6.702
300.20 6.694
300.30 6.686
300.40 6.677
300.50 6.669
300.60 6.661
300.70 6.652
300.80 6.644
300.90 6.636
301.00 6.628
301.10 6.619
301.20 6.611
301.30 6.603
301.40 6.595
301.50 6.587
301.60 6.578
301.70 6.57
301.80 6.562
301.90 6.554
302.00 6.546
302.10 6.538
302.20 6.53
302.30 6.522
302.40 6.514
302.50 6.506
302.60 6.498
302.70 6.49
302.80 6.482
302.90 6.474
303.00 6.466
303.10 6.458
303.20 6.45
303.30 6.442
303.40 6.434
303.50 6.426
303.60 6.418
303.70 6.41
303.80 6.402
303.90 6.394
304.00 6.386
304.10 6.379
304.20 6.371
304.30 6.363
304.40 6.355
304.50 6.347
304.60 6.34
304.70 6.332
304.80 6.324
304.90 6.316
305.00 6.308
305.10 6.301
305.20 6.293
305.30 6.285
305.40 6.278
305.50 6.27
305.60 6.262
305.70 6.255
305.80 6.247
305.90 6.239
306.00 6.232
306.10 6.224
306.20 6.216
306.30 6.209
306.40 6.201
306.50 6.194
306.60 6.186
306.70 6.179
306.80 6.171
306.90 6.164
307.00 6.156
307.10 6.149
307.20 6.141
307.30 6.134
307.40 6.126
307.50 6.119
307.60 6.111
307.70 6.104
307.80 6.096
307.90 6.089
308.00 6.082
308.10 6.074
308.20 6.067
308.30 6.06
308.40 6.052
308.50 6.045
308.60 6.038
308.70 6.03
308.80 6.023
308.90 6.016
309.00 6.008
309.10 6.001
309.20 5.994
309.30 5.987
309.40 5.979
309.50 5.972
309.60 5.965
309.70 5.958
309.80 5.95
309.90 5.943
310.00 5.936
310.10 5.929
310.20 5.922
310.30 5.915
310.40 5.908
310.50 5.9
310.60 5.893
310.70 5.886
310.80 5.879
310.90 5.872
311.00 5.865
311.10 5.858
311.20 5.851
311.30 5.844
311.40 5.837
311.50 5.83
311.60 5.823
311.70 5.816
311.80 5.809
311.90 5.802
312.00 5.795
312.10 5.788
312.20 5.781
312.30 5.774
312.40 5.767
312.50 5.76
312.60 5.753
312.70 5.746
312.80 5.74
312.90 5.733
313.00 5.726
313.10 5.719
313.20 5.712
313.30 5.705
313.40 5.699
313.50 5.692
313.60 5.685
313.70 5.678
313.80 5.671
313.90 5.665
314.00 5.658
314.10 5.651
314.20 5.644
314.30 5.638
314.40 5.631
314.50 5.624
314.60 5.618
314.70 5.611
314.80 5.604
314.90 5.598
315.00 5.591
315.10 5.584
315.20 5.578
315.30 5.571
315.40 5.564
315.50 5.558
315.60 5.551
315.70 5.545
315.80 5.538
315.90 5.531
316.00 5.525
316.10 5.518
316.20 5.512
316.30 5.505
316.40 5.499
316.50 5.492
316.60 5.486
316.70 5.479
316.80 5.473
316.90 5.466
317.00 5.46
317.10 5.453
317.20 5.447
317.30 5.441
317.40 5.434
317.50 5.428
317.60 5.421
317.70 5.415
317.80 5.409
317.90 5.402
318.00 5.396
318.10 5.389
318.20 5.383
318.30 5.377
318.40 5.37
318.50 5.364
318.60 5.358
318.70 5.352
318.80 5.345
318.90 5.339
319.00 5.333
319.10 5.326
319.20 5.32
319.30 5.314
319.40 5.308
319.50 5.301
319.60 5.295
319.70 5.289
319.80 5.283
319.90 5.277
320.00 5.27
320.10 5.264
320.20 5.258
320.30 5.252
320.40 5.246
320.50 5.24
320.60 5.234
320.70 5.227
320.80 5.221
320.90 5.215
321.00 5.209
321.10 5.203
321.20 5.197
321.30 5.191
321.40 5.185
321.50 5.179
321.60 5.173
321.70 5.167
321.80 5.161
321.90 5.155
322.00 5.149
322.10 5.143
322.20 5.137
322.30 5.131
322.40 5.125
322.50 5.119
322.60 5.113
322.70 5.107
322.80 5.101
322.90 5.095
323.00 5.089
323.10 5.083
323.20 5.077
323.30 5.072
323.40 5.066
323.50 5.06
323.60 5.054
323.70 5.048
323.80 5.042
323.90 5.036
324.00 5.031
324.10 5.025
324.20 5.019
324.30 5.013
324.40 5.007
324.50 5.002
324.60 4.996
324.70 4.99
324.80 4.984
324.90 4.979
325.00 4.973
325.10 4.967
325.20 4.961
325.30 4.956
325.40 4.95
325.50 4.944
325.60 4.938
325.70 4.933
325.80 4.927
325.90 4.921
326.00 4.916
326.10 4.91
326.20 4.904
326.30 4.899
326.40 4.893
326.50 4.888
326.60 4.882
326.70 4.876
326.80 4.871
326.90 4.865
327.00 4.86
327.10 4.854
327.20 4.848
327.30 4.843
327.40 4.837
327.50 4.832
327.60 4.826
327.70 4.821
327.80 4.815
327.90 4.81
328.00 4.804
328.10 4.799
328.20 4.793
328.30 4.788
328.40 4.782
328.50 4.777
328.60 4.771
328.70 4.766
328.80 4.761
328.90 4.755
329.00 4.75
329.10 4.744
329.20 4.739
329.30 4.733
329.40 4.728
329.50 4.723
329.60 4.717
329.70 4.712
329.80 4.707
329.90 4.701
330.00 4.696
330.10 4.691
330.20 4.685
330.30 4.68
330.40 4.675
330.50 4.669
330.60 4.664
330.70 4.659
330.80 4.653
330.90 4.648
331.00 4.643
331.10 4.638
331.20 4.632
331.30 4.627
331.40 4.622
331.50 4.617
331.60 4.611
331.70 4.606
331.80 4.601
331.90 4.596
332.00 4.59
332.10 4.585
332.20 4.58
332.30 4.575
332.40 4.57
332.50 4.565
332.60 4.56
332.70 4.554
332.80 4.549
332.90 4.544
333.00 4.539
333.10 4.534
333.20 4.529
333.30 4.524
333.40 4.519
333.50 4.513
333.60 4.508
333.70 4.503
333.80 4.498
333.90 4.493
334.00 4.488
334.10 4.483
334.20 4.478
334.30 4.473
334.40 4.468
334.50 4.463
334.60 4.458
334.70 4.453
334.80 4.448
334.90 4.443
335.00 4.438
335.10 4.433
335.20 4.428
335.30 4.423
335.40 4.418
335.50 4.413
335.60 4.408
335.70 4.403
335.80 4.398
335.90 4.393
336.00 4.389
336.10 4.384
336.20 4.379
336.30 4.374
336.40 4.369
336.50 4.364
336.60 4.359
336.70 4.354
336.80 4.35
336.90 4.345
337.00 4.34
337.10 4.335
337.20 4.33
337.30 4.325
337.40 4.321
337.50 4.316
337.60 4.311
337.70 4.306
337.80 4.301
337.90 4.297
338.00 4.292
338.10 4.287
338.20 4.282
338.30 4.278
338.40 4.273
338.50 4.268
338.60 4.263
338.70 4.259
338.80 4.254
338.90 4.249
339.00 4.244
339.10 4.24
339.20 4.235
339.30 4.23
339.40 4.226
339.50 4.221
339.60 4.216
339.70 4.212
339.80 4.207
339.90 4.202
340.00 4.198
340.10 4.193
340.20 4.188
340.30 4.184
340.40 4.179
340.50 4.175
340.60 4.17
340.70 4.165
340.80 4.161
340.90 4.156
341.00 4.152
341.10 4.147
341.20 4.142
341.30 4.138
341.40 4.133
341.50 4.129
341.60 4.124
341.70 4.12
341.80 4.115
341.90 4.111
342.00 4.106
342.10 4.102
342.20 4.097
342.30 4.093
342.40 4.088
342.50 4.084
342.60 4.079
342.70 4.075
342.80 4.07
342.90 4.066
343.00 4.061
343.10 4.057
343.20 4.052
343.30 4.048
343.40 4.044
343.50 4.039
343.60 4.035
343.70 4.03
343.80 4.026
343.90 4.021
344.00 4.017
344.10 4.013
344.20 4.008
344.30 4.004
344.40 4
344.50 3.995
344.60 3.991
344.70 3.986
344.80 3.982
344.90 3.978
345.00 3.973
345.10 3.969
345.20 3.965
345.30 3.96
345.40 3.956
345.50 3.952
345.60 3.948
345.70 3.943
345.80 3.939
345.90 3.935
346.00 3.93
346.10 3.926
346.20 3.922
346.30 3.918
346.40 3.913
346.50 3.909
346.60 3.905
346.70 3.901
346.80 3.896
346.90 3.892
347.00 3.888
347.10 3.884
347.20 3.88
347.30 3.875
347.40 3.871
347.50 3.867
347.60 3.863
347.70 3.859
347.80 3.854
347.90 3.85
348.00 3.846
348.10 3.842
348.20 3.838
348.30 3.834
348.40 3.829
348.50 3.825
348.60 3.821
348.70 3.817
348.80 3.813
348.90 3.809
349.00 3.805
349.10 3.801
349.20 3.797
349.30 3.793
349.40 3.788
349.50 3.784
349.60 3.78
349.70 3.776
349.80 3.772
349.90 3.768
350.00 3.764
350.10 3.76
350.20 3.756
350.30 3.752
350.40 3.748
350.50 3.744
350.60 3.74
350.70 3.736
350.80 3.732
350.90 3.728
351.00 3.724
351.10 3.72
351.20 3.716
351.30 3.712
351.40 3.708
351.50 3.704
351.60 3.7
351.70 3.696
351.80 3.692
351.90 3.688
352.00 3.684
352.10 3.68
352.20 3.676
352.30 3.672
352.40 3.668
352.50 3.664
352.60 3.661
352.70 3.657
352.80 3.653
352.90 3.649
353.00 3.645
353.10 3.641
353.20 3.637
353.30 3.633
353.40 3.629
353.50 3.626
353.60 3.622
353.70 3.618
353.80 3.614
353.90 3.61
354.00 3.606
354.10 3.602
354.20 3.599
354.30 3.595
354.40 3.591
354.50 3.587
354.60 3.583
354.70 3.58
354.80 3.576
354.90 3.572
355.00 3.568
355.10 3.564
355.20 3.561
355.30 3.557
355.40 3.553
355.50 3.549
355.60 3.546
355.70 3.542
355.80 3.538
355.90 3.534
356.00 3.531
356.10 3.527
356.20 3.523
356.30 3.519
356.40 3.516
356.50 3.512
356.60 3.508
356.70 3.505
356.80 3.501
356.90 3.497
357.00 3.494
357.10 3.49
357.20 3.486
357.30 3.482
357.40 3.479
357.50 3.475
357.60 3.471
357.70 3.468
357.80 3.464
357.90 3.461
358.00 3.457
358.10 3.453
358.20 3.45
358.30 3.446
358.40 3.442
358.50 3.439
358.60 3.435
358.70 3.432
358.80 3.428
358.90 3.424
359.00 3.421
359.10 3.417
359.20 3.414
359.30 3.41
359.40 3.406
359.50 3.403
359.60 3.399
359.70 3.396
359.80 3.392
359.90 3.389
360.00 3.385
360.10 3.381
360.20 3.378
360.30 3.374
360.40 3.371
360.50 3.367
360.60 3.364
360.70 3.36
360.80 3.357
360.90 3.353
361.00 3.35
361.10 3.346
361.20 3.343
361.30 3.339
361.40 3.336
361.50 3.332
361.60 3.329
361.70 3.325
361.80 3.322
361.90 3.319
362.00 3.315
362.10 3.312
362.20 3.308
362.30 3.305
362.40 3.301
362.50 3.298
362.60 3.294
362.70 3.291
362.80 3.288
362.90 3.284
363.00 3.281
363.10 3.277
363.20 3.274
363.30 3.271
363.40 3.267
363.50 3.264
363.60 3.26
363.70 3.257
363.80 3.254
363.90 3.25
364.00 3.247
364.10 3.244
364.20 3.24
364.30 3.237
364.40 3.233
364.50 3.23
364.60 3.227
364.70 3.223
364.80 3.22
364.90 3.217
365.00 3.214
365.10 3.21
365.20 3.207
365.30 3.204
365.40 3.2
365.50 3.197
365.60 3.194
365.70 3.19
365.80 3.187
365.90 3.184
366.00 3.181
366.10 3.177
366.20 3.174
366.30 3.171
366.40 3.167
366.50 3.164
366.60 3.161
366.70 3.157
366.80 3.154
366.90 3.151
367.00 3.147
367.10 3.144
367.20 3.141
367.30 3.138
367.40 3.134
367.50 3.131
367.60 3.128
367.70 3.124
367.80 3.121
367.90 3.118
368.00 3.115
368.10 3.111
368.20 3.108
368.30 3.105
368.40 3.102
368.50 3.098
368.60 3.095
368.70 3.092
368.80 3.089
368.90 3.086
369.00 3.082
369.10 3.079
369.20 3.076
369.30 3.073
369.40 3.069
369.50 3.066
369.60 3.063
369.70 3.06
369.80 3.057
369.90 3.053
370.00 3.05
370.10 3.047
370.20 3.044
370.30 3.041
370.40 3.038
370.50 3.035
370.60 3.031
370.70 3.028
370.80 3.025
370.90 3.022
371.00 3.019
371.10 3.016
371.20 3.013
371.30 3.009
371.40 3.006
371.50 3.003
371.60 3
371.70 2.997
371.80 2.994
371.90 2.991
372.00 2.988
372.10 2.985
372.20 2.982
372.30 2.979
372.40 2.976
372.50 2.972
372.60 2.969
372.70 2.966
372.80 2.963
372.90 2.96
373.00 2.957
373.10 2.954
373.20 2.951
373.30 2.948
373.40 2.945
373.50 2.942
373.60 2.939
373.70 2.936
373.80 2.933
373.90 2.93
374.00 2.927
374.10 2.924
374.20 2.921
374.30 2.918
374.40 2.915
374.50 2.912
374.60 2.909
374.70 2.907
374.80 2.904
374.90 2.901
375.00 2.898
375.10 2.895
375.20 2.892
375.30 2.889
375.40 2.886
375.50 2.883
375.60 2.88
375.70 2.877
375.80 2.874
375.90 2.871
376.00 2.869
376.10 2.866
376.20 2.863
376.30 2.86
376.40 2.857
376.50 2.854
376.60 2.851
376.70 2.849
376.80 2.846
376.90 2.843
377.00 2.84
377.10 2.837
377.20 2.835
377.30 2.832
377.40 2.829
377.50 2.826
377.60 2.824
377.70 2.821
377.80 2.818
377.90 2.815
378.00 2.813
378.10 2.81
378.20 2.807
378.30 2.804
378.40 2.802
378.50 2.799
378.60 2.796
378.70 2.793
378.80 2.791
378.90 2.788
379.00 2.785
379.10 2.783
379.20 2.78
379.30 2.777
379.40 2.775
379.50 2.772
379.60 2.769
379.70 2.767
379.80 2.764
379.90 2.761
380.00 2.759
380.10 2.756
380.20 2.754
380.30 2.751
380.40 2.749
380.50 2.746
380.60 2.744
380.70 2.741
380.80 2.739
380.90 2.736
381.00 2.734
381.10 2.731
381.20 2.728
381.30 2.726
381.40 2.723
381.50 2.721
381.60 2.718
381.70 2.715
381.80 2.713
381.90 2.71
382.00 2.707
382.10 2.704
382.20 2.702
382.30 2.699
382.40 2.696
382.50 2.693
382.60 2.69
382.70 2.687
382.80 2.684
382.90 2.681
383.00 2.679
383.10 2.676
383.20 2.673
383.30 2.67
383.40 2.667
383.50 2.665
383.60 2.663
383.70 2.66
383.80 2.658
383.90 2.656
384.00 2.654
384.10 2.652
384.20 2.651
384.30 2.649
384.40 2.647
384.50 2.645
384.60 2.643
384.70 2.641
384.80 2.639
384.90 2.637
385.00 2.635
385.10 2.633
385.20 2.63
385.30 2.628
385.40 2.626
385.50 2.624
385.60 2.621
385.70 2.619
385.80 2.616
385.90 2.614
386.00 2.611
386.10 2.608
386.20 2.606
386.30 2.603
386.40 2.6
386.50 2.597
386.60 2.594
386.70 2.591
386.80 2.588
386.90 2.584
387.00 2.581
387.10 2.578
387.20 2.574
387.30 2.571
387.40 2.567
387.50 2.564
387.60 2.56
387.70 2.556
387.80 2.553
387.90 2.549
388.00 2.545
388.10 2.541
388.20 2.538
388.30 2.534
388.40 2.53
388.50 2.527
388.60 2.523
388.70 2.52
388.80 2.518
388.90 2.515
389.00 2.513
389.10 2.511
389.20 2.51
389.30 2.509
389.40 2.508
389.50 2.508
389.60 2.507
389.70 2.506
389.80 2.506
389.90 2.505
390.00 2.505
390.10 2.504
390.20 2.503
390.30 2.502
390.40 2.502
390.50 2.501
390.60 2.5
390.70 2.499
390.80 2.498
390.90 2.497
391.00 2.496
391.10 2.494
391.20 2.493
391.30 2.492
391.40 2.49
391.50 2.489
391.60 2.487
391.70 2.485
391.80 2.484
391.90 2.482
392.00 2.48
392.10 2.478
392.20 2.476
392.30 2.474
392.40 2.472
392.50 2.469
392.60 2.467
392.70 2.465
392.80 2.462
392.90 2.46
393.00 2.457
393.10 2.454
393.20 2.451
393.30 2.448
393.40 2.445
393.50 2.442
393.60 2.439
393.70 2.436
393.80 2.433
393.90 2.429
394.00 2.426
394.10 2.422
394.20 2.418
394.30 2.414
394.40 2.41
394.50 2.406
394.60 2.402
394.70 2.398
394.80 2.393
394.90 2.389
395.00 2.384
395.10 2.38
395.20 2.375
395.30 2.37
395.40 2.364
395.50 2.359
395.60 2.354
395.70 2.348
395.80 2.343
395.90 2.337
396.00 2.331
396.10 2.326
396.20 2.32
396.30 2.314
396.40 2.308
396.50 2.302
396.60 2.296
396.70 2.29
396.80 2.284
396.90 2.279
397.00 2.274
397.10 2.274
397.20 2.275
397.30 2.277
397.40 2.279
397.50 2.281
397.60 2.283
397.70 2.284
397.80 2.286
397.90 2.288
398.00 2.29
398.10 2.291
398.20 2.293
398.30 2.294
398.40 2.296
398.50 2.297
398.60 2.298
398.70 2.299
398.80 2.3
398.90 2.301
399.00 2.301
399.10 2.302
399.20 2.302
399.30 2.302
399.40 2.303
399.50 2.303
399.60 2.303
399.70 2.302
399.80 2.302
399.90 2.302
400.00 2.302
400.10 2.301
400.20 2.3
400.30 2.3
400.40 2.299
400.50 2.298
400.60 2.297
400.70 2.296
400.80 2.295
400.90 2.294
401.00 2.293
401.10 2.292
401.20 2.291
401.30 2.29
401.40 2.288
401.50 2.287
401.60 2.285
401.70 2.284
401.80 2.282
401.90 2.281
402.00 2.279
402.10 2.278
402.20 2.276
402.30 2.274
402.40 2.272
402.50 2.271
402.60 2.269
402.70 2.267
402.80 2.265
402.90 2.263
403.00 2.261
403.10 2.259
403.20 2.257
403.30 2.255
403.40 2.253
403.50 2.251
403.60 2.249
403.70 2.246
403.80 2.244
403.90 2.242
404.00 2.24
404.10 2.237
404.20 2.235
404.30 2.233
404.40 2.23
404.50 2.228
404.60 2.225
404.70 2.223
404.80 2.22
404.90 2.218
405.00 2.215
405.10 2.212
405.20 2.209
405.30 2.207
405.40 2.204
405.50 2.201
405.60 2.198
405.70 2.195
405.80 2.192
405.90 2.189
406.00 2.185
406.10 2.182
406.20 2.179
406.30 2.175
406.40 2.172
406.50 2.168
406.60 2.165
406.70 2.161
406.80 2.157
406.90 2.153
407.00 2.149
407.10 2.144
407.20 2.14
407.30 2.136
407.40 2.131
407.50 2.126
407.60 2.121
407.70 2.116
407.80 2.111
407.90 2.106
408.00 2.1
408.10 2.094
408.20 2.088
408.30 2.082
408.40 2.076
408.50 2.069
408.60 2.062
408.70 2.056
408.80 2.048
408.90 2.041
409.00 2.033
409.10 2.026
409.20 2.018
409.30 2.009
409.40 2.001
409.50 1.993
409.60 1.984
409.70 1.976
409.80 1.968
409.90 1.96
410.00 1.956
410.10 1.955
410.20 1.956
410.30 1.951
410.40 1.95
410.50 1.952
410.60 1.957
410.70 1.962
410.80 1.967
410.90 1.971
411.00 1.976
411.10 1.981
411.20 1.985
411.30 1.989
411.40 1.993
411.50 1.997
411.60 2.001
411.70 2.004
411.80 2.007
411.90 2.01
412.00 2.013
412.10 2.015
412.20 2.017
412.30 2.019
412.40 2.021
412.50 2.022
412.60 2.024
412.70 2.025
412.80 2.026
412.90 2.027
413.00 2.028
413.10 2.029
413.20 2.029
413.30 2.03
413.40 2.03
413.50 2.03
413.60 2.03
413.70 2.03
413.80 2.03
413.90 2.03
414.00 2.029
414.10 2.029
414.20 2.028
414.30 2.028
414.40 2.027
414.50 2.027
414.60 2.026
414.70 2.025
414.80 2.024
414.90 2.023
415.00 2.022
415.10 2.021
415.20 2.02
415.30 2.019
415.40 2.018
415.50 2.017
415.60 2.016
415.70 2.015
415.80 2.013
415.90 2.012
416.00 2.011
416.10 2.009
416.20 2.008
416.30 2.007
416.40 2.005
416.50 2.004
416.60 2.002
416.70 2.001
416.80 1.999
416.90 1.998
417.00 1.996
417.10 1.995
417.20 1.993
417.30 1.992
417.40 1.99
417.50 1.989
417.60 1.987
417.70 1.986
417.80 1.984
417.90 1.982
418.00 1.981
418.10 1.979
418.20 1.978
418.30 1.976
418.40 1.974
418.50 1.973
418.60 1.971
418.70 1.969
418.80 1.968
418.90 1.966
419.00 1.964
419.10 1.963
419.20 1.961
419.30 1.959
419.40 1.958
419.50 1.956
419.60 1.954
419.70 1.953
419.80 1.951
419.90 1.949
420.00 1.948
420.10 1.946
420.20 1.944
420.30 1.943
420.40 1.941
420.50 1.939
420.60 1.937
420.70 1.936
420.80 1.934
420.90 1.932
421.00 1.931
421.10 1.929
421.20 1.927
421.30 1.925
421.40 1.924
421.50 1.922
421.60 1.92
421.70 1.918
421.80 1.917
421.90 1.915
422.00 1.913
422.10 1.912
422.20 1.91
422.30 1.908
422.40 1.906
422.50 1.905
422.60 1.903
422.70 1.901
422.80 1.899
422.90 1.898
423.00 1.896
423.10 1.894
423.20 1.892
423.30 1.891
423.40 1.889
423.50 1.887
423.60 1.885
423.70 1.884
423.80 1.882
423.90 1.88
424.00 1.878
424.10 1.877
424.20 1.875
424.30 1.873
424.40 1.871
424.50 1.87
424.60 1.868
424.70 1.866
424.80 1.864
424.90 1.863
425.00 1.861
425.10 1.859
425.20 1.857
425.30 1.855
425.40 1.854
425.50 1.852
425.60 1.85
425.70 1.848
425.80 1.846
425.90 1.845
426.00 1.843
426.10 1.841
426.20 1.839
426.30 1.837
426.40 1.835
426.50 1.834
426.60 1.832
426.70 1.83
426.80 1.828
426.90 1.826
427.00 1.824
427.10 1.822
427.20 1.82
427.30 1.818
427.40 1.816
427.50 1.814
427.60 1.812
427.70 1.81
427.80 1.808
427.90 1.806
428.00 1.804
428.10 1.802
428.20 1.8
428.30 1.798
428.40 1.796
428.50 1.794
428.60 1.792
428.70 1.789
428.80 1.787
428.90 1.785
429.00 1.783
429.10 1.78
429.20 1.778
429.30 1.775
429.40 1.773
429.50 1.771
429.60 1.768
429.70 1.765
429.80 1.763
429.90 1.76
430.00 1.757
430.10 1.754
430.20 1.751
430.30 1.748
430.40 1.745
430.50 1.742
430.60 1.739
430.70 1.735
430.80 1.732
430.90 1.728
431.00 1.724
431.10 1.72
431.20 1.716
431.30 1.712
431.40 1.708
431.50 1.703
431.60 1.699
431.70 1.694
431.80 1.689
431.90 1.684
432.00 1.678
432.10 1.672
432.20 1.666
432.30 1.66
432.40 1.654
432.50 1.647
432.60 1.64
432.70 1.633
432.80 1.626
432.90 1.618
433.00 1.61
433.10 1.602
433.20 1.594
433.30 1.586
433.40 1.577
433.50 1.568
433.60 1.56
433.70 1.552
433.80 1.543
433.90 1.535
434.00 1.528
434.10 1.527
434.20 1.532
434.30 1.537
434.40 1.543
434.50 1.549
434.60 1.555
434.70 1.56
434.80 1.566
434.90 1.572
435.00 1.577
435.10 1.583
435.20 1.588
435.30 1.592
435.40 1.597
435.50 1.601
435.60 1.605
435.70 1.609
435.80 1.612
435.90 1.615
436.00 1.618
436.10 1.621
436.20 1.623
436.30 1.626
436.40 1.628
436.50 1.629
436.60 1.631
436.70 1.632
436.80 1.634
436.90 1.635
437.00 1.636
437.10 1.637
437.20 1.637
437.30 1.638
437.40 1.638
437.50 1.638
437.60 1.639
437.70 1.639
437.80 1.639
437.90 1.639
438.00 1.639
438.10 1.638
438.20 1.638
438.30 1.638
438.40 1.637
438.50 1.637
438.60 1.636
438.70 1.636
438.80 1.635
438.90 1.634
439.00 1.634
439.10 1.633
439.20 1.632
439.30 1.631
439.40 1.63
439.50 1.63
439.60 1.629
439.70 1.628
439.80 1.627
439.90 1.626
440.00 1.625
440.10 1.624
440.20 1.623
440.30 1.622
440.40 1.621
440.50 1.62
440.60 1.618
440.70 1.617
440.80 1.616
440.90 1.615
441.00 1.614
441.10 1.613
441.20 1.612
441.30 1.61
441.40 1.609
441.50 1.608
441.60 1.607
441.70 1.606
441.80 1.604
441.90 1.603
442.00 1.602
442.10 1.601
442.20 1.6
442.30 1.598
442.40 1.597
442.50 1.596
442.60 1.595
442.70 1.593
442.80 1.592
442.90 1.591
443.00 1.59
443.10 1.588
443.20 1.587
443.30 1.586
443.40 1.584
443.50 1.583
443.60 1.582
443.70 1.581
443.80 1.579
443.90 1.578
444.00 1.577
444.10 1.575
444.20 1.574
444.30 1.573
444.40 1.572
444.50 1.57
444.60 1.569
444.70 1.568
444.80 1.566
444.90 1.565
445.00 1.564
445.10 1.563
445.20 1.561
445.30 1.56
445.40 1.559
445.50 1.557
445.60 1.556
445.70 1.555
445.80 1.553
445.90 1.552
446.00 1.551
446.10 1.55
446.20 1.548
446.30 1.547
446.40 1.546
446.50 1.544
446.60 1.543
446.70 1.542
446.80 1.54
446.90 1.539
447.00 1.538
447.10 1.537
447.20 1.535
447.30 1.534
447.40 1.533
447.50 1.531
447.60 1.53
447.70 1.529
447.80 1.528
447.90 1.526
448.00 1.525
448.10 1.524
448.20 1.522
448.30 1.521
448.40 1.52
448.50 1.519
448.60 1.517
448.70 1.516
448.80 1.515
448.90 1.513
449.00 1.512
449.10 1.511
449.20 1.51
449.30 1.508
449.40 1.507
449.50 1.506
449.60 1.505
449.70 1.503
449.80 1.502
449.90 1.501
450.00 1.499
450.10 1.498
450.20 1.497
450.30 1.496
450.40 1.494
450.50 1.493
450.60 1.492
450.70 1.491
450.80 1.489
450.90 1.488
451.00 1.487
451.10 1.486
451.20 1.484
451.30 1.483
451.40 1.482
451.50 1.481
451.60 1.479
451.70 1.478
451.80 1.477
451.90 1.476
452.00 1.474
452.10 1.473
452.20 1.472
452.30 1.471
452.40 1.469
452.50 1.468
452.60 1.467
452.70 1.466
452.80 1.464
452.90 1.463
453.00 1.462
453.10 1.461
453.20 1.46
453.30 1.458
453.40 1.457
453.50 1.456
453.60 1.455
453.70 1.453
453.80 1.452
453.90 1.451
454.00 1.45
454.10 1.448
454.20 1.447
454.30 1.446
454.40 1.445
454.50 1.444
454.60 1.442
454.70 1.441
454.80 1.44
454.90 1.439
455.00 1.438
455.10 1.436
455.20 1.435
455.30 1.434
455.40 1.433
455.50 1.432
455.60 1.43
455.70 1.429
455.80 1.428
455.90 1.427
456.00 1.426
456.10 1.424
456.20 1.423
456.30 1.422
456.40 1.421
456.50 1.42
456.60 1.418
456.70 1.417
456.80 1.416
456.90 1.415
457.00 1.414
457.10 1.412
457.20 1.411
457.30 1.41
457.40 1.409
457.50 1.408
457.60 1.407
457.70 1.405
457.80 1.404
457.90 1.403
458.00 1.402
458.10 1.401
458.20 1.399
458.30 1.398
458.40 1.397
458.50 1.396
458.60 1.395
458.70 1.394
458.80 1.392
458.90 1.391
459.00 1.39
459.10 1.389
459.20 1.388
459.30 1.387
459.40 1.385
459.50 1.384
459.60 1.383
459.70 1.382
459.80 1.381
459.90 1.38
460.00 1.379
460.10 1.377
460.20 1.376
460.30 1.375
460.40 1.374
460.50 1.373
460.60 1.372
460.70 1.37
460.80 1.369
460.90 1.368
461.00 1.367
461.10 1.366
461.20 1.365
461.30 1.364
461.40 1.363
461.50 1.361
461.60 1.36
461.70 1.359
461.80 1.358
461.90 1.357
462.00 1.356
462.10 1.355
462.20 1.353
462.30 1.352
462.40 1.351
462.50 1.35
462.60 1.349
462.70 1.348
462.80 1.347
462.90 1.346
463.00 1.344
463.10 1.343
463.20 1.342
463.30 1.341
463.40 1.34
463.50 1.339
463.60 1.338
463.70 1.337
463.80 1.336
463.90 1.334
464.00 1.333
464.10 1.332
464.20 1.331
464.30 1.33
464.40 1.329
464.50 1.328
464.60 1.327
464.70 1.326
464.80 1.325
464.90 1.323
465.00 1.322
465.10 1.321
465.20 1.32
465.30 1.319
465.40 1.318
465.50 1.317
465.60 1.316
465.70 1.315
465.80 1.314
465.90 1.312
466.00 1.311
466.10 1.31
466.20 1.309
466.30 1.308
466.40 1.307
466.50 1.306
466.60 1.305
466.70 1.304
466.80 1.303
466.90 1.302
467.00 1.301
467.10 1.299
467.20 1.298
467.30 1.297
467.40 1.296
467.50 1.295
467.60 1.294
467.70 1.293
467.80 1.292
467.90 1.291
468.00 1.29
468.10 1.289
468.20 1.288
468.30 1.287
468.40 1.286
468.50 1.285
468.60 1.283
468.70 1.282
468.80 1.281
468.90 1.28
469.00 1.279
469.10 1.278
469.20 1.277
469.30 1.276
469.40 1.275
469.50 1.274
469.60 1.273
469.70 1.272
469.80 1.271
469.90 1.27
470.00 1.269
470.10 1.268
470.20 1.267
470.30 1.266
470.40 1.264
470.50 1.263
470.60 1.262
470.70 1.261
470.80 1.26
470.90 1.259
471.00 1.258
471.10 1.257
471.20 1.256
471.30 1.255
471.40 1.254
471.50 1.253
471.60 1.252
471.70 1.251
471.80 1.25
471.90 1.249
472.00 1.248
472.10 1.247
472.20 1.246
472.30 1.245
472.40 1.244
472.50 1.243
472.60 1.242
472.70 1.241
472.80 1.24
472.90 1.238
473.00 1.237
473.10 1.236
473.20 1.235
473.30 1.234
473.40 1.233
473.50 1.232
473.60 1.231
473.70 1.23
473.80 1.229
473.90 1.228
474.00 1.227
474.10 1.226
474.20 1.225
474.30 1.224
474.40 1.223
474.50 1.222
474.60 1.221
474.70 1.22
474.80 1.219
474.90 1.218
475.00 1.217
475.10 1.216
475.20 1.215
475.30 1.214
475.40 1.213
475.50 1.212
475.60 1.211
475.70 1.21
475.80 1.209
475.90 1.208
476.00 1.207
476.10 1.206
476.20 1.204
476.30 1.203
476.40 1.202
476.50 1.201
476.60 1.2
476.70 1.199
476.80 1.198
476.90 1.197
477.00 1.196
477.10 1.195
477.20 1.194
477.30 1.193
477.40 1.192
477.50 1.191
477.60 1.19
477.70 1.189
477.80 1.188
477.90 1.187
478.00 1.186
478.10 1.184
478.20 1.183
478.30 1.182
478.40 1.181
478.50 1.18
478.60 1.179
478.70 1.178
478.80 1.177
478.90 1.176
479.00 1.175
479.10 1.173
479.20 1.172
479.30 1.171
479.40 1.17
479.50 1.169
479.60 1.168
479.70 1.166
479.80 1.165
479.90 1.164
480.00 1.163
480.10 1.162
480.20 1.161
480.30 1.159
480.40 1.158
480.50 1.157
480.60 1.155
480.70 1.154
480.80 1.153
480.90 1.151
481.00 1.15
481.10 1.149
481.20 1.147
481.30 1.146
481.40 1.144
481.50 1.143
481.60 1.141
481.70 1.14
481.80 1.138
481.90 1.137
482.00 1.135
482.10 1.134
482.20 1.132
482.30 1.13
482.40 1.128
482.50 1.126
482.60 1.124
482.70 1.122
482.80 1.12
482.90 1.118
483.00 1.116
483.10 1.114
483.20 1.111
483.30 1.108
483.40 1.105
483.50 1.103
483.60 1.1
483.70 1.097
483.80 1.094
483.90 1.091
484.00 1.088
484.10 1.085
484.20 1.082
484.30 1.078
484.40 1.074
484.50 1.07
484.60 1.066
484.70 1.062
484.80 1.057
484.90 1.052
485.00 1.048
485.10 1.043
485.20 1.038
485.30 1.032
485.40 1.027
485.50 1.021
485.60 1.015
485.70 1.009
485.80 1.003
485.90 0.9959
486.00 0.9901
486.10 0.9987
486.20 0.992
486.30 0.989
486.40 0.9942
486.50 0.9994
486.60 1.004
486.70 1.009
486.80 1.013
486.90 1.017
487.00 1.021
487.10 1.024
487.20 1.028
487.30 1.031
487.40 1.034
487.50 1.037
487.60 1.04
487.70 1.042
487.80 1.044
487.90 1.047
488.00 1.049
488.10 1.051
488.20 1.052
488.30 1.054
488.40 1.055
488.50 1.056
488.60 1.057
488.70 1.058
488.80 1.059
488.90 1.06
489.00 1.061
489.10 1.062
489.20 1.063
489.30 1.063
489.40 1.063
489.50 1.063
489.60 1.064
489.70 1.064
489.80 1.064
489.90 1.064
490.00 1.064
490.10 1.065
490.20 1.064
490.30 1.064
490.40 1.064
490.50 1.064
490.60 1.063
490.70 1.063
490.80 1.063
490.90 1.063
491.00 1.062
491.10 1.062
491.20 1.062
491.30 1.061
491.40 1.061
491.50 1.06
491.60 1.06
491.70 1.059
491.80 1.059
491.90 1.058
492.00 1.058
492.10 1.057
492.20 1.057
492.30 1.056
492.40 1.055
492.50 1.055
492.60 1.054
492.70 1.053
492.80 1.053
492.90 1.052
493.00 1.052
493.10 1.051
493.20 1.05
493.30 1.05
493.40 1.049
493.50 1.048
493.60 1.048
493.70 1.047
493.80 1.046
493.90 1.045
494.00 1.045
494.10 1.044
494.20 1.043
494.30 1.043
494.40 1.042
494.50 1.041
494.60 1.04
494.70 1.04
494.80 1.039
494.90 1.038
495.00 1.038
495.10 1.037
495.20 1.036
495.30 1.035
495.40 1.035
495.50 1.034
495.60 1.033
495.70 1.032
495.80 1.032
495.90 1.031
496.00 1.03
496.10 1.029
496.20 1.029
496.30 1.028
496.40 1.027
496.50 1.026
496.60 1.026
496.70 1.025
496.80 1.024
496.90 1.023
497.00 1.023
497.10 1.022
497.20 1.021
497.30 1.02
497.40 1.02
497.50 1.019
497.60 1.018
497.70 1.017
497.80 1.017
497.90 1.016
498.00 1.015
498.10 1.014
498.20 1.014
498.30 1.013
498.40 1.012
498.50 1.011
498.60 1.011
498.70 1.01
498.80 1.009
498.90 1.008
499.00 1.008
499.10 1.007
499.20 1.006
499.30 1.005
499.40 1.005
499.50 1.004
499.60 1.003
499.70 1.002
499.80 1.002
499.90 1.001
500.00 1
500.10 0.9992
500.20 0.9985
500.30 0.9977
500.40 0.997
500.50 0.9962
500.60 0.9955
500.70 0.9947
500.80 0.994
500.90 0.9932
501.00 0.9925
501.10 0.9917
501.20 0.991
501.30 0.9902
501.40 0.9895
501.50 0.9887
501.60 0.988
501.70 0.9872
501.80 0.9865
501.90 0.9857
502.00 0.985
502.10 0.9842
502.20 0.9835
502.30 0.9828
502.40 0.982
502.50 0.9813
502.60 0.9805
502.70 0.9798
502.80 0.9791
502.90 0.9783
503.00 0.9776
503.10 0.9768
503.20 0.9761
503.30 0.9754
503.40 0.9746
503.50 0.9739
503.60 0.9731
503.70 0.9724
503.80 0.9717
503.90 0.9709
504.00 0.9702
504.10 0.9695
504.20 0.9687
504.30 0.968
504.40 0.9673
504.50 0.9665
504.60 0.9658
504.70 0.9651
504.80 0.9643
504.90 0.9636
505.00 0.9629
505.10 0.9621
505.20 0.9614
505.30 0.9607
505.40 0.96
505.50 0.9592
505.60 0.9585
505.70 0.9578
505.80 0.9571
505.90 0.9563
506.00 0.9556
506.10 0.9549
506.20 0.9542
506.30 0.9534
506.40 0.9527
506.50 0.952
506.60 0.9513
506.70 0.9506
506.80 0.9499
506.90 0.9491
507.00 0.9484
507.10 0.9477
507.20 0.947
507.30 0.9463
507.40 0.9456
507.50 0.9448
507.60 0.9441
507.70 0.9434
507.80 0.9427
507.90 0.942
508.00 0.9413
508.10 0.9406
508.20 0.9399
508.30 0.9391
508.40 0.9384
508.50 0.9377
508.60 0.937
508.70 0.9363
508.80 0.9356
508.90 0.9349
509.00 0.9342
509.10 0.9335
509.20 0.9328
509.30 0.9321
509.40 0.9314
509.50 0.9307
509.60 0.93
509.70 0.9293
509.80 0.9286
509.90 0.9279
510.00 0.9272
510.10 0.9265
510.20 0.9258
510.30 0.9251
510.40 0.9244
510.50 0.9237
510.60 0.923
510.70 0.9223
510.80 0.9216
510.90 0.9209
511.00 0.9202
511.10 0.9196
511.20 0.9189
511.30 0.9182
511.40 0.9175
511.50 0.9168
511.60 0.9161
511.70 0.9154
511.80 0.9147
511.90 0.914
512.00 0.9134
512.10 0.9127
512.20 0.912
512.30 0.9113
512.40 0.9106
512.50 0.9099
512.60 0.9093
512.70 0.9086
512.80 0.9079
512.90 0.9072
513.00 0.9065
513.10 0.9059
513.20 0.9052
513.30 0.9045
513.40 0.9038
513.50 0.9031
513.60 0.9025
513.70 0.9018
513.80 0.9011
513.90 0.9004
514.00 0.8998
514.10 0.8991
514.20 0.8984
514.30 0.8978
514.40 0.8971
514.50 0.8964
514.60 0.8957
514.70 0.8951
514.80 0.8944
514.90 0.8937
515.00 0.8931
515.10 0.8924
515.20 0.8917
515.30 0.8911
515.40 0.8904
515.50 0.8897
515.60 0.8891
515.70 0.8884
515.80 0.8878
515.90 0.8871
516.00 0.8864
516.10 0.8858
516.20 0.8851
516.30 0.8845
516.40 0.8838
516.50 0.8831
516.60 0.8825
516.70 0.8818
516.80 0.8812
516.90 0.8805
517.00 0.8799
517.10 0.8792
517.20 0.8786
517.30 0.8779
517.40 0.8773
517.50 0.8766
517.60 0.8759
517.70 0.8753
517.80 0.8746
517.90 0.874
518.00 0.8733
518.10 0.8727
518.20 0.872
518.30 0.8714
518.40 0.8708
518.50 0.8701
518.60 0.8695
518.70 0.8688
518.80 0.8682
518.90 0.8675
519.00 0.8669
519.10 0.8662
519.20 0.8656
519.30 0.865
519.40 0.8643
519.50 0.8637
519.60 0.863
519.70 0.8624
519.80 0.8618
519.90 0.8611
520.00 0.8605
520.10 0.8598
520.20 0.8592
520.30 0.8586
520.40 0.8579
520.50 0.8573
520.60 0.8567
520.70 0.856
520.80 0.8554
520.90 0.8548
521.00 0.8541
521.10 0.8535
521.20 0.8529
521.30 0.8523
521.40 0.8516
521.50 0.851
521.60 0.8504
521.70 0.8497
521.80 0.8491
521.90 0.8485
522.00 0.8479
522.10 0.8472
522.20 0.8466
522.30 0.846
522.40 0.8454
522.50 0.8447
522.60 0.8441
522.70 0.8435
522.80 0.8429
522.90 0.8423
523.00 0.8416
523.10 0.841
523.20 0.8404
523.30 0.8398
523.40 0.8392
523.50 0.8385
523.60 0.8379
523.70 0.8373
523.80 0.8367
523.90 0.8361
524.00 0.8355
524.10 0.8349
524.20 0.8342
524.30 0.8336
524.40 0.833
524.50 0.8324
524.60 0.8318
524.70 0.8312
524.80 0.8306
524.90 0.83
525.00 0.8294
525.10 0.8287
525.20 0.8281
525.30 0.8275
525.40 0.8269
525.50 0.8263
525.60 0.8257
525.70 0.8251
525.80 0.8245
525.90 0.8239
526.00 0.8233
526.10 0.8227
526.20 0.8221
526.30 0.8215
526.40 0.8209
526.50 0.8203
526.60 0.8197
526.70 0.8191
526.80 0.8185
526.90 0.8179
527.00 0.8173
527.10 0.8167
527.20 0.8161
527.30 0.8155
527.40 0.8149
527.50 0.8143
527.60 0.8137
527.70 0.8131
527.80 0.8125
527.90 0.8119
528.00 0.8114
528.10 0.8108
528.20 0.8102
528.30 0.8096
528.40 0.809
528.50 0.8084
528.60 0.8078
528.70 0.8072
528.80 0.8066
528.90 0.806
529.00 0.8055
529.10 0.8049
529.20 0.8043
529.30 0.8037
529.40 0.8031
529.50 0.8025
529.60 0.802
529.70 0.8014
529.80 0.8008
529.90 0.8002
530.00 0.7996
530.10 0.799
530.20 0.7985
530.30 0.7979
530.40 0.7973
530.50 0.7967
530.60 0.7961
530.70 0.7956
530.80 0.795
530.90 0.7944
531.00 0.7938
531.10 0.7933
531.20 0.7927
531.30 0.7921
531.40 0.7915
531.50 0.791
531.60 0.7904
531.70 0.7898
531.80 0.7892
531.90 0.7887
532.00 0.7881
532.10 0.7875
532.20 0.787
532.30 0.7864
532.40 0.7858
532.50 0.7853
532.60 0.7847
532.70 0.7841
532.80 0.7836
532.90 0.783
533.00 0.7824
533.10 0.7819
533.20 0.7813
533.30 0.7807
533.40 0.7802
533.50 0.7796
533.60 0.779
533.70 0.7785
533.80 0.7779
533.90 0.7773
534.00 0.7768
534.10 0.7762
534.20 0.7757
534.30 0.7751
534.40 0.7745
534.50 0.774
534.60 0.7734
534.70 0.7729
534.80 0.7723
534.90 0.7718
535.00 0.7712
535.10 0.7706
535.20 0.7701
535.30 0.7695
535.40 0.769
535.50 0.7684
535.60 0.7679
535.70 0.7673
535.80 0.7668
535.90 0.7662
536.00 0.7657
536.10 0.7651
536.20 0.7646
536.30 0.764
536.40 0.7635
536.50 0.7629
536.60 0.7624
536.70 0.7618
536.80 0.7613
536.90 0.7607
537.00 0.7602
537.10 0.7596
537.20 0.7591
537.30 0.7586
537.40 0.758
537.50 0.7575
537.60 0.7569
537.70 0.7564
537.80 0.7558
537.90 0.7553
538.00 0.7548
538.10 0.7542
538.20 0.7537
538.30 0.7531
538.40 0.7526
538.50 0.7521
538.60 0.7515
538.70 0.751
538.80 0.7504
538.90 0.7499
539.00 0.7494
539.10 0.7488
539.20 0.7483
539.30 0.7478
539.40 0.7472
539.50 0.7467
539.60 0.7462
539.70 0.7456
539.80 0.7451
539.90 0.7446
540.00 0.744
540.10 0.7435
540.20 0.743
540.30 0.7424
540.40 0.7419
540.50 0.7414
540.60 0.7409
540.70 0.7403
540.80 0.7398
540.90 0.7393
541.00 0.7388
541.10 0.7382
541.20 0.7377
541.30 0.7372
541.40 0.7367
541.50 0.7361
541.60 0.7356
541.70 0.7351
541.80 0.7346
541.90 0.734
542.00 0.7335
542.10 0.733
542.20 0.7325
542.30 0.7319
542.40 0.7314
542.50 0.7309
542.60 0.7304
542.70 0.7299
542.80 0.7293
542.90 0.7288
543.00 0.7283
543.10 0.7278
543.20 0.7273
543.30 0.7268
543.40 0.7262
543.50 0.7257
543.60 0.7252
543.70 0.7247
543.80 0.7242
543.90 0.7237
544.00 0.7232
544.10 0.7227
544.20 0.7221
544.30 0.7216
544.40 0.7211
544.50 0.7206
544.60 0.7201
544.70 0.7196
544.80 0.7191
544.90 0.7186
545.00 0.7181
545.10 0.7176
545.20 0.7171
545.30 0.7165
545.40 0.716
545.50 0.7155
545.60 0.715
545.70 0.7145
545.80 0.714
545.90 0.7135
546.00 0.713
546.10 0.7125
546.20 0.712
546.30 0.7115
546.40 0.711
546.50 0.7105
546.60 0.71
546.70 0.7095
546.80 0.709
546.90 0.7085
547.00 0.708
547.10 0.7075
547.20 0.707
547.30 0.7065
547.40 0.706
547.50 0.7055
547.60 0.705
547.70 0.7045
547.80 0.704
547.90 0.7035
548.00 0.703
548.10 0.7025
548.20 0.702
548.30 0.7015
548.40 0.701
548.50 0.7006
548.60 0.7001
548.70 0.6996
548.80 0.6991
548.90 0.6986
549.00 0.6981
549.10 0.6976
549.20 0.6971
549.30 0.6966
549.40 0.6961
549.50 0.6956
549.60 0.6952
549.70 0.6947
549.80 0.6942
549.90 0.6937
550.00 0.6932
550.10 0.6927
550.20 0.6922
550.30 0.6918
550.40 0.6913
550.50 0.6908
550.60 0.6903
550.70 0.6898
550.80 0.6893
550.90 0.6889
551.00 0.6884
551.10 0.6879
551.20 0.6874
551.30 0.6869
551.40 0.6864
551.50 0.686
551.60 0.6855
551.70 0.685
551.80 0.6845
551.90 0.684
552.00 0.6836
552.10 0.6831
552.20 0.6826
552.30 0.6821
552.40 0.6817
552.50 0.6812
552.60 0.6807
552.70 0.6802
552.80 0.6798
552.90 0.6793
553.00 0.6788
553.10 0.6783
553.20 0.6779
553.30 0.6774
553.40 0.6769
553.50 0.6765
553.60 0.676
553.70 0.6755
553.80 0.675
553.90 0.6746
554.00 0.6741
554.10 0.6736
554.20 0.6732
554.30 0.6727
554.40 0.6722
554.50 0.6718
554.60 0.6713
554.70 0.6708
554.80 0.6704
554.90 0.6699
555.00 0.6694
555.10 0.669
555.20 0.6685
555.30 0.668
555.40 0.6676
555.50 0.6671
555.60 0.6666
555.70 0.6662
555.80 0.6657
555.90 0.6653
556.00 0.6648
556.10 0.6643
556.20 0.6639
556.30 0.6634
556.40 0.663
556.50 0.6625
556.60 0.662
556.70 0.6616
556.80 0.6611
556.90 0.6607
557.00 0.6602
557.10 0.6597
557.20 0.6593
557.30 0.6588
557.40 0.6584
557.50 0.6579
557.60 0.6575
557.70 0.657
557.80 0.6566
557.90 0.6561
558.00 0.6556
558.10 0.6552
558.20 0.6547
558.30 0.6543
558.40 0.6538
558.50 0.6534
558.60 0.6529
558.70 0.6525
558.80 0.652
558.90 0.6516
559.00 0.6511
559.10 0.6507
559.20 0.6502
559.30 0.6498
559.40 0.6493
559.50 0.6489
559.60 0.6484
559.70 0.648
559.80 0.6475
559.90 0.6471
560.00 0.6467
560.10 0.6462
560.20 0.6458
560.30 0.6453
560.40 0.6449
560.50 0.6444
560.60 0.644
560.70 0.6435
560.80 0.6431
560.90 0.6427
561.00 0.6422
561.10 0.6418
561.20 0.6413
561.30 0.6409
561.40 0.6405
561.50 0.64
561.60 0.6396
561.70 0.6391
561.80 0.6387
561.90 0.6383
562.00 0.6378
562.10 0.6374
562.20 0.6369
562.30 0.6365
562.40 0.6361
562.50 0.6356
562.60 0.6352
562.70 0.6348
562.80 0.6343
562.90 0.6339
563.00 0.6335
563.10 0.633
563.20 0.6326
563.30 0.6322
563.40 0.6317
563.50 0.6313
563.60 0.6309
563.70 0.6304
563.80 0.63
563.90 0.6296
564.00 0.6291
564.10 0.6287
564.20 0.6283
564.30 0.6278
564.40 0.6274
564.50 0.627
564.60 0.6266
564.70 0.6261
564.80 0.6257
564.90 0.6253
565.00 0.6248
565.10 0.6244
565.20 0.624
565.30 0.6236
565.40 0.6231
565.50 0.6227
565.60 0.6223
565.70 0.6219
565.80 0.6214
565.90 0.621
566.00 0.6206
566.10 0.6202
566.20 0.6198
566.30 0.6193
566.40 0.6189
566.50 0.6185
566.60 0.6181
566.70 0.6176
566.80 0.6172
566.90 0.6168
567.00 0.6164
567.10 0.616
567.20 0.6155
567.30 0.6151
567.40 0.6147
567.50 0.6143
567.60 0.6139
567.70 0.6135
567.80 0.613
567.90 0.6126
568.00 0.6122
568.10 0.6118
568.20 0.6114
568.30 0.611
568.40 0.6105
568.50 0.6101
568.60 0.6097
568.70 0.6093
568.80 0.6089
568.90 0.6085
569.00 0.6081
569.10 0.6076
569.20 0.6072
569.30 0.6068
569.40 0.6064
569.50 0.606
569.60 0.6056
569.70 0.6052
569.80 0.6048
569.90 0.6044
570.00 0.604
570.10 0.6035
570.20 0.6031
570.30 0.6027
570.40 0.6023
570.50 0.6019
570.60 0.6015
570.70 0.6011
570.80 0.6007
570.90 0.6003
571.00 0.5999
571.10 0.5995
571.20 0.5991
571.30 0.5987
571.40 0.5983
571.50 0.5979
571.60 0.5975
571.70 0.597
571.80 0.5966
571.90 0.5962
572.00 0.5958
572.10 0.5954
572.20 0.595
572.30 0.5946
572.40 0.5942
572.50 0.5938
572.60 0.5934
572.70 0.593
572.80 0.5926
572.90 0.5922
573.00 0.5918
573.10 0.5914
573.20 0.591
573.30 0.5906
573.40 0.5902
573.50 0.5898
573.60 0.5895
573.70 0.5891
573.80 0.5887
573.90 0.5883
574.00 0.5879
574.10 0.5875
574.20 0.5871
574.30 0.5867
574.40 0.5863
574.50 0.5859
574.60 0.5855
574.70 0.5851
574.80 0.5847
574.90 0.5843
575.00 0.5839
575.10 0.5835
575.20 0.5831
575.30 0.5828
575.40 0.5824
575.50 0.582
575.60 0.5816
575.70 0.5812
575.80 0.5808
575.90 0.5804
576.00 0.58
576.10 0.5796
576.20 0.5792
576.30 0.5789
576.40 0.5785
576.50 0.5781
576.60 0.5777
576.70 0.5773
576.80 0.5769
576.90 0.5765
577.00 0.5761
577.10 0.5758
577.20 0.5754
577.30 0.575
577.40 0.5746
577.50 0.5742
577.60 0.5738
577.70 0.5735
577.80 0.5731
577.90 0.5727
578.00 0.5723
578.10 0.5719
578.20 0.5715
578.30 0.5712
578.40 0.5708
578.50 0.5704
578.60 0.57
578.70 0.5696
578.80 0.5693
578.90 0.5689
579.00 0.5685
579.10 0.5681
579.20 0.5677
579.30 0.5674
579.40 0.567
579.50 0.5666
579.60 0.5662
579.70 0.5659
579.80 0.5655
579.90 0.5651
580.00 0.5647
580.10 0.5643
580.20 0.564
580.30 0.5636
580.40 0.5632
580.50 0.5628
580.60 0.5625
580.70 0.5621
580.80 0.5617
580.90 0.5614
581.00 0.561
581.10 0.5606
581.20 0.5602
581.30 0.5599
581.40 0.5595
581.50 0.5591
581.60 0.5587
581.70 0.5584
581.80 0.558
581.90 0.5576
582.00 0.5573
582.10 0.5569
582.20 0.5565
582.30 0.5562
582.40 0.5558
582.50 0.5554
582.60 0.5551
582.70 0.5547
582.80 0.5543
582.90 0.5539
583.00 0.5536
583.10 0.5532
583.20 0.5528
583.30 0.5525
583.40 0.5521
583.50 0.5518
583.60 0.5514
583.70 0.551
583.80 0.5507
583.90 0.5503
584.00 0.5499
584.10 0.5496
584.20 0.5492
584.30 0.5488
584.40 0.5485
584.50 0.5481
584.60 0.5478
584.70 0.5474
584.80 0.547
584.90 0.5467
585.00 0.5463
585.10 0.5459
585.20 0.5456
585.30 0.5452
585.40 0.5449
585.50 0.5445
585.60 0.5441
585.70 0.5438
585.80 0.5434
585.90 0.5431
586.00 0.5427
586.10 0.5424
586.20 0.542
586.30 0.5416
586.40 0.5413
586.50 0.5409
586.60 0.5406
586.70 0.5402
586.80 0.5399
586.90 0.5395
587.00 0.5392
587.10 0.5388
587.20 0.5384
587.30 0.5381
587.40 0.5377
587.50 0.5374
587.60 0.537
587.70 0.5367
587.80 0.5363
587.90 0.536
588.00 0.5356
588.10 0.5353
588.20 0.5349
588.30 0.5346
588.40 0.5342
588.50 0.5339
588.60 0.5335
588.70 0.5332
588.80 0.5328
588.90 0.5325
589.00 0.5321
589.10 0.5318
589.20 0.5314
589.30 0.5311
589.40 0.5307
589.50 0.5304
589.60 0.53
589.70 0.5297
589.80 0.5293
589.90 0.529
590.00 0.5286
590.10 0.5283
590.20 0.5279
590.30 0.5276
590.40 0.5273
590.50 0.5269
590.60 0.5266
590.70 0.5262
590.80 0.5259
590.90 0.5255
591.00 0.5252
591.10 0.5248
591.20 0.5245
591.30 0.5242
591.40 0.5238
591.50 0.5235
591.60 0.5231
591.70 0.5228
591.80 0.5225
591.90 0.5221
592.00 0.5218
592.10 0.5214
592.20 0.5211
592.30 0.5207
592.40 0.5204
592.50 0.5201
592.60 0.5197
592.70 0.5194
592.80 0.5191
592.90 0.5187
593.00 0.5184
593.10 0.518
593.20 0.5177
593.30 0.5174
593.40 0.517
593.50 0.5167
593.60 0.5164
593.70 0.516
593.80 0.5157
593.90 0.5153
594.00 0.515
594.10 0.5147
594.20 0.5143
594.30 0.514
594.40 0.5137
594.50 0.5133
594.60 0.513
594.70 0.5127
594.80 0.5123
594.90 0.512
595.00 0.5117
595.10 0.5113
595.20 0.511
595.30 0.5107
595.40 0.5103
595.50 0.51
595.60 0.5097
595.70 0.5094
595.80 0.509
595.90 0.5087
596.00 0.5084
596.10 0.508
596.20 0.5077
596.30 0.5074
596.40 0.507
596.50 0.5067
596.60 0.5064
596.70 0.5061
596.80 0.5057
596.90 0.5054
597.00 0.5051
597.10 0.5048
597.20 0.5044
597.30 0.5041
597.40 0.5038
597.50 0.5035
597.60 0.5031
597.70 0.5028
597.80 0.5025
597.90 0.5021
598.00 0.5018
598.10 0.5015
598.20 0.5012
598.30 0.5009
598.40 0.5005
598.50 0.5002
598.60 0.4999
598.70 0.4996
598.80 0.4992
598.90 0.4989
599.00 0.4986
599.10 0.4983
599.20 0.498
599.30 0.4976
599.40 0.4973
599.50 0.497
599.60 0.4967
599.70 0.4963
599.80 0.496
599.90 0.4957
600.00 0.4954
600.10 0.4951
600.20 0.4948
600.30 0.4944
600.40 0.4941
600.50 0.4938
600.60 0.4935
600.70 0.4932
600.80 0.4928
600.90 0.4925
601.00 0.4922
601.10 0.4919
601.20 0.4916
601.30 0.4913
601.40 0.4909
601.50 0.4906
601.60 0.4903
601.70 0.49
601.80 0.4897
601.90 0.4894
602.00 0.4891
602.10 0.4887
602.20 0.4884
602.30 0.4881
602.40 0.4878
602.50 0.4875
602.60 0.4872
602.70 0.4869
602.80 0.4866
602.90 0.4862
603.00 0.4859
603.10 0.4856
603.20 0.4853
603.30 0.485
603.40 0.4847
603.50 0.4844
603.60 0.4841
603.70 0.4838
603.80 0.4834
603.90 0.4831
604.00 0.4828
604.10 0.4825
604.20 0.4822
604.30 0.4819
604.40 0.4816
604.50 0.4813
604.60 0.481
604.70 0.4807
604.80 0.4804
604.90 0.4801
605.00 0.4797
605.10 0.4794
605.20 0.4791
605.30 0.4788
605.40 0.4785
605.50 0.4782
605.60 0.4779
605.70 0.4776
605.80 0.4773
605.90 0.477
606.00 0.4767
606.10 0.4764
606.20 0.4761
606.30 0.4758
606.40 0.4755
606.50 0.4752
606.60 0.4749
606.70 0.4746
606.80 0.4743
606.90 0.474
607.00 0.4737
607.10 0.4734
607.20 0.4731
607.30 0.4728
607.40 0.4725
607.50 0.4722
607.60 0.4719
607.70 0.4716
607.80 0.4713
607.90 0.471
608.00 0.4707
608.10 0.4704
608.20 0.4701
608.30 0.4698
608.40 0.4695
608.50 0.4692
608.60 0.4689
608.70 0.4686
608.80 0.4683
608.90 0.468
609.00 0.4677
609.10 0.4674
609.20 0.4671
609.30 0.4668
609.40 0.4665
609.50 0.4662
609.60 0.4659
609.70 0.4656
609.80 0.4653
609.90 0.465
610.00 0.4647
610.10 0.4644
610.20 0.4641
610.30 0.4638
610.40 0.4635
610.50 0.4632
610.60 0.463
610.70 0.4627
610.80 0.4624
610.90 0.4621
611.00 0.4618
611.10 0.4615
611.20 0.4612
611.30 0.4609
611.40 0.4606
611.50 0.4603
611.60 0.46
611.70 0.4597
611.80 0.4595
611.90 0.4592
612.00 0.4589
612.10 0.4586
612.20 0.4583
612.30 0.458
612.40 0.4577
612.50 0.4574
612.60 0.4571
612.70 0.4568
612.80 0.4566
612.90 0.4563
613.00 0.456
613.10 0.4557
613.20 0.4554
613.30 0.4551
613.40 0.4548
613.50 0.4545
613.60 0.4543
613.70 0.454
613.80 0.4537
613.90 0.4534
614.00 0.4531
614.10 0.4528
614.20 0.4525
614.30 0.4523
614.40 0.452
614.50 0.4517
614.60 0.4514
614.70 0.4511
614.80 0.4508
614.90 0.4506
615.00 0.4503
615.10 0.45
615.20 0.4497
615.30 0.4494
615.40 0.4491
615.50 0.4489
615.60 0.4486
615.70 0.4483
615.80 0.448
615.90 0.4477
616.00 0.4475
616.10 0.4472
616.20 0.4469
616.30 0.4466
616.40 0.4463
616.50 0.446
616.60 0.4458
616.70 0.4455
616.80 0.4452
616.90 0.4449
617.00 0.4447
617.10 0.4444
617.20 0.4441
617.30 0.4438
617.40 0.4435
617.50 0.4433
617.60 0.443
617.70 0.4427
617.80 0.4424
617.90 0.4422
618.00 0.4419
618.10 0.4416
618.20 0.4413
618.30 0.441
618.40 0.4408
618.50 0.4405
618.60 0.4402
618.70 0.4399
618.80 0.4397
618.90 0.4394
619.00 0.4391
619.10 0.4388
619.20 0.4386
619.30 0.4383
619.40 0.438
619.50 0.4377
619.60 0.4375
619.70 0.4372
619.80 0.4369
619.90 0.4367
620.00 0.4364
620.10 0.4361
620.20 0.4358
620.30 0.4356
620.40 0.4353
620.50 0.435
620.60 0.4348
620.70 0.4345
620.80 0.4342
620.90 0.4339
621.00 0.4337
621.10 0.4334
621.20 0.4331
621.30 0.4329
621.40 0.4326
621.50 0.4323
621.60 0.432
621.70 0.4318
621.80 0.4315
621.90 0.4312
622.00 0.431
622.10 0.4307
622.20 0.4304
622.30 0.4302
622.40 0.4299
622.50 0.4296
622.60 0.4294
622.70 0.4291
622.80 0.4288
622.90 0.4286
623.00 0.4283
623.10 0.428
623.20 0.4278
623.30 0.4275
623.40 0.4272
623.50 0.427
623.60 0.4267
623.70 0.4264
623.80 0.4262
623.90 0.4259
624.00 0.4256
624.10 0.4254
624.20 0.4251
624.30 0.4249
624.40 0.4246
624.50 0.4243
624.60 0.4241
624.70 0.4238
624.80 0.4235
624.90 0.4233
625.00 0.423
625.10 0.4228
625.20 0.4225
625.30 0.4222
625.40 0.422
625.50 0.4217
625.60 0.4214
625.70 0.4212
625.80 0.4209
625.90 0.4207
626.00 0.4204
626.10 0.4201
626.20 0.4199
626.30 0.4196
626.40 0.4194
626.50 0.4191
626.60 0.4188
626.70 0.4186
626.80 0.4183
626.90 0.4181
627.00 0.4178
627.10 0.4176
627.20 0.4173
627.30 0.417
627.40 0.4168
627.50 0.4165
627.60 0.4163
627.70 0.416
627.80 0.4158
627.90 0.4155
628.00 0.4152
628.10 0.415
628.20 0.4147
628.30 0.4145
628.40 0.4142
628.50 0.414
628.60 0.4137
628.70 0.4135
628.80 0.4132
628.90 0.4129
629.00 0.4127
629.10 0.4124
629.20 0.4122
629.30 0.4119
629.40 0.4117
629.50 0.4114
629.60 0.4112
629.70 0.4109
629.80 0.4107
629.90 0.4104
630.00 0.4102
630.10 0.4099
630.20 0.4096
630.30 0.4094
630.40 0.4091
630.50 0.4089
630.60 0.4086
630.70 0.4084
630.80 0.4081
630.90 0.4079
631.00 0.4076
631.10 0.4074
631.20 0.4071
631.30 0.4069
631.40 0.4066
631.50 0.4064
631.60 0.4061
631.70 0.4059
631.80 0.4056
631.90 0.4054
632.00 0.4051
632.10 0.4049
632.20 0.4046
632.30 0.4044
632.40 0.4041
632.50 0.4039
632.60 0.4036
632.70 0.4034
632.80 0.4032
632.90 0.4029
633.00 0.4027
633.10 0.4024
633.20 0.4022
633.30 0.4019
633.40 0.4017
633.50 0.4014
633.60 0.4012
633.70 0.4009
633.80 0.4007
633.90 0.4004
634.00 0.4002
634.10 0.4
634.20 0.3997
634.30 0.3995
634.40 0.3992
634.50 0.399
634.60 0.3987
634.70 0.3985
634.80 0.3982
634.90 0.398
635.00 0.3978
635.10 0.3975
635.20 0.3973
635.30 0.397
635.40 0.3968
635.50 0.3965
635.60 0.3963
635.70 0.396
635.80 0.3958
635.90 0.3956
636.00 0.3953
636.10 0.3951
636.20 0.3948
636.30 0.3946
636.40 0.3944
636.50 0.3941
636.60 0.3939
636.70 0.3936
636.80 0.3934
636.90 0.3932
637.00 0.3929
637.10 0.3927
637.20 0.3924
637.30 0.3922
637.40 0.392
637.50 0.3917
637.60 0.3915
637.70 0.3912
637.80 0.391
637.90 0.3908
638.00 0.3905
638.10 0.3903
638.20 0.39
638.30 0.3898
638.40 0.3896
638.50 0.3893
638.60 0.3891
638.70 0.3888
638.80 0.3886
638.90 0.3884
639.00 0.3881
639.10 0.3879
639.20 0.3877
639.30 0.3874
639.40 0.3872
639.50 0.3869
639.60 0.3867
639.70 0.3865
639.80 0.3862
639.90 0.386
640.00 0.3858
640.10 0.3855
640.20 0.3853
640.30 0.3851
640.40 0.3848
640.50 0.3846
640.60 0.3843
640.70 0.3841
640.80 0.3839
640.90 0.3836
641.00 0.3834
641.10 0.3832
641.20 0.3829
641.30 0.3827
641.40 0.3825
641.50 0.3822
641.60 0.382
641.70 0.3818
641.80 0.3815
641.90 0.3813
642.00 0.3811
642.10 0.3808
642.20 0.3806
642.30 0.3804
642.40 0.3801
642.50 0.3799
642.60 0.3797
642.70 0.3794
642.80 0.3792
642.90 0.379
643.00 0.3787
643.10 0.3785
643.20 0.3783
643.30 0.378
643.40 0.3778
643.50 0.3776
643.60 0.3773
643.70 0.3771
643.80 0.3769
643.90 0.3766
644.00 0.3764
644.10 0.3762
644.20 0.3759
644.30 0.3757
644.40 0.3755
644.50 0.3752
644.60 0.375
644.70 0.3747
644.80 0.3745
644.90 0.3743
645.00 0.374
645.10 0.3738
645.20 0.3736
645.30 0.3733
645.40 0.3731
645.50 0.3729
645.60 0.3726
645.70 0.3724
645.80 0.3722
645.90 0.3719
646.00 0.3717
646.10 0.3715
646.20 0.3712
646.30 0.371
646.40 0.3708
646.50 0.3705
646.60 0.3703
646.70 0.37
646.80 0.3698
646.90 0.3696
647.00 0.3693
647.10 0.3691
647.20 0.3689
647.30 0.3686
647.40 0.3684
647.50 0.3681
647.60 0.3679
647.70 0.3677
647.80 0.3674
647.90 0.3672
648.00 0.3669
648.10 0.3667
648.20 0.3664
648.30 0.3662
648.40 0.3659
648.50 0.3657
648.60 0.3654
648.70 0.3652
648.80 0.3649
648.90 0.3647
649.00 0.3644
649.10 0.3642
649.20 0.3639
649.30 0.3637
649.40 0.3634
649.50 0.3632
649.60 0.3629
649.70 0.3626
649.80 0.3624
649.90 0.3621
650.00 0.3618
650.10 0.3616
650.20 0.3613
650.30 0.361
650.40 0.3607
650.50 0.3604
650.60 0.3601
650.70 0.3598
650.80 0.3595
650.90 0.3592
651.00 0.359
651.10 0.3587
651.20 0.3584
651.30 0.3581
651.40 0.3577
651.50 0.3574
651.60 0.357
651.70 0.3567
651.80 0.3563
651.90 0.356
652.00 0.3556
652.10 0.3553
652.20 0.3549
652.30 0.3546
652.40 0.3541
652.50 0.3537
652.60 0.3532
652.70 0.3527
652.80 0.3523
652.90 0.3518
653.00 0.3514
653.10 0.3509
653.20 0.3505
653.30 0.35
653.40 0.3493
653.50 0.3486
653.60 0.348
653.70 0.3473
653.80 0.3466
653.90 0.346
654.00 0.3453
654.10 0.3447
654.20 0.344
654.30 0.3433
654.40 0.3423
654.50 0.3414
654.60 0.3405
654.70 0.3395
654.80 0.3386
654.90 0.3374
655.00 0.3362
655.10 0.335
655.20 0.3338
655.30 0.3325
655.40 0.3311
655.50 0.3296
655.60 0.328
655.70 0.3262
655.80 0.3241
655.90 0.3217
656.00 0.3184
656.10 0.315
656.20 0.319
656.30 0.3321
656.40 0.3144
656.50 0.3155
656.60 0.3185
656.70 0.3212
656.80 0.3229
656.90 0.3246
657.00 0.3259
657.10 0.3271
657.20 0.3282
657.30 0.3292
657.40 0.3299
657.50 0.3307
657.60 0.3315
657.70 0.3323
657.80 0.3331
657.90 0.3336
658.00 0.3341
658.10 0.3347
658.20 0.3352
658.30 0.3356
658.40 0.3359
658.50 0.3362
658.60 0.3364
658.70 0.3367
658.80 0.3369
658.90 0.3372
659.00 0.3374
659.10 0.3377
659.20 0.3379
659.30 0.3381
659.40 0.3382
659.50 0.3382
659.60 0.3382
659.70 0.3383
659.80 0.3383
659.90 0.3383
660.00 0.3384
660.10 0.3384
660.20 0.3384
660.30 0.3385
660.40 0.3384
660.50 0.3383
660.60 0.3382
660.70 0.3382
660.80 0.3381
660.90 0.338
661.00 0.338
661.10 0.3379
661.20 0.3378
661.30 0.3377
661.40 0.3376
661.50 0.3375
661.60 0.3374
661.70 0.3372
661.80 0.3371
661.90 0.337
662.00 0.3369
662.10 0.3367
662.20 0.3366
662.30 0.3365
662.40 0.3363
662.50 0.3362
662.60 0.336
662.70 0.3359
662.80 0.3357
662.90 0.3356
663.00 0.3354
663.10 0.3353
663.20 0.3351
663.30 0.335
663.40 0.3348
663.50 0.3346
663.60 0.3345
663.70 0.3343
663.80 0.3341
663.90 0.334
664.00 0.3338
664.10 0.3336
664.20 0.3335
664.30 0.3333
664.40 0.3331
664.50 0.333
664.60 0.3328
664.70 0.3326
664.80 0.3324
664.90 0.3323
665.00 0.3321
665.10 0.3319
665.20 0.3317
665.30 0.3316
665.40 0.3314
665.50 0.3312
665.60 0.331
665.70 0.3309
665.80 0.3307
665.90 0.3305
666.00 0.3303
666.10 0.3301
666.20 0.33
666.30 0.3298
666.40 0.3296
666.50 0.3294
666.60 0.3292
666.70 0.3291
666.80 0.3289
666.90 0.3287
667.00 0.3285
667.10 0.3283
667.20 0.3281
667.30 0.328
667.40 0.3278
667.50 0.3276
667.60 0.3274
667.70 0.3272
667.80 0.3271
667.90 0.3269
668.00 0.3267
668.10 0.3265
668.20 0.3263
668.30 0.3261
668.40 0.326
668.50 0.3258
668.60 0.3256
668.70 0.3254
668.80 0.3252
668.90 0.325
669.00 0.3249
669.10 0.3247
669.20 0.3245
669.30 0.3243
669.40 0.3241
669.50 0.3239
669.60 0.3238
669.70 0.3236
669.80 0.3234
669.90 0.3232
670.00 0.323
670.10 0.3228
670.20 0.3227
670.30 0.3225
670.40 0.3223
670.50 0.3221
670.60 0.3219
670.70 0.3217
670.80 0.3216
670.90 0.3214
671.00 0.3212
671.10 0.321
671.20 0.3208
671.30 0.3207
671.40 0.3205
671.50 0.3203
671.60 0.3201
671.70 0.3199
671.80 0.3197
671.90 0.3196
672.00 0.3194
672.10 0.3192
672.20 0.319
672.30 0.3188
672.40 0.3187
672.50 0.3185
672.60 0.3183
672.70 0.3181
672.80 0.3179
672.90 0.3177
673.00 0.3176
673.10 0.3174
673.20 0.3172
673.30 0.317
673.40 0.3168
673.50 0.3167
673.60 0.3165
673.70 0.3163
673.80 0.3161
673.90 0.3159
674.00 0.3158
674.10 0.3156
674.20 0.3154
674.30 0.3152
674.40 0.315
674.50 0.3149
674.60 0.3147
674.70 0.3145
674.80 0.3143
674.90 0.3142
675.00 0.314
675.10 0.3138
675.20 0.3136
675.30 0.3134
675.40 0.3133
675.50 0.3131
675.60 0.3129
675.70 0.3127
675.80 0.3125
675.90 0.3124
676.00 0.3122
676.10 0.312
676.20 0.3118
676.30 0.3117
676.40 0.3115
676.50 0.3113
676.60 0.3111
676.70 0.3109
676.80 0.3108
676.90 0.3106
677.00 0.3104
677.10 0.3102
677.20 0.3101
677.30 0.3099
677.40 0.3097
677.50 0.3095
677.60 0.3094
677.70 0.3092
677.80 0.309
677.90 0.3088
678.00 0.3087
678.10 0.3085
678.20 0.3083
678.30 0.3081
678.40 0.308
678.50 0.3078
678.60 0.3076
678.70 0.3074
678.80 0.3073
678.90 0.3071
679.00 0.3069
679.10 0.3067
679.20 0.3066
679.30 0.3064
679.40 0.3062
679.50 0.306
679.60 0.3059
679.70 0.3057
679.80 0.3055
679.90 0.3053
680.00 0.3052
680.10 0.305
680.20 0.3048
680.30 0.3046
680.40 0.3045
680.50 0.3043
680.60 0.3041
680.70 0.304
680.80 0.3038
680.90 0.3036
681.00 0.3034
681.10 0.3033
681.20 0.3031
681.30 0.3029
681.40 0.3027
681.50 0.3026
681.60 0.3024
681.70 0.3022
681.80 0.3021
681.90 0.3019
682.00 0.3017
682.10 0.3016
682.20 0.3014
682.30 0.3012
682.40 0.301
682.50 0.3009
682.60 0.3007
682.70 0.3005
682.80 0.3004
682.90 0.3002
683.00 0.3
683.10 0.2998
683.20 0.2997
683.30 0.2995
683.40 0.2993
683.50 0.2992
683.60 0.299
683.70 0.2988
683.80 0.2987
683.90 0.2985
684.00 0.2983
684.10 0.2982
684.20 0.298
684.30 0.2978
684.40 0.2977
684.50 0.2975
684.60 0.2973
684.70 0.2971
684.80 0.297
684.90 0.2968
685.00 0.2966
685.10 0.2965
685.20 0.2963
685.30 0.2961
685.40 0.296
685.50 0.2958
685.60 0.2956
685.70 0.2955
685.80 0.2953
685.90 0.2951
686.00 0.295
686.10 0.2948
686.20 0.2946
686.30 0.2945
686.40 0.2943
686.50 0.2941
686.60 0.294
686.70 0.2938
686.80 0.2936
686.90 0.2935
687.00 0.2933
687.10 0.2932
687.20 0.293
687.30 0.2928
687.40 0.2927
687.50 0.2925
687.60 0.2923
687.70 0.2922
687.80 0.292
687.90 0.2918
688.00 0.2917
688.10 0.2915
688.20 0.2913
688.30 0.2912
688.40 0.291
688.50 0.2909
688.60 0.2907
688.70 0.2905
688.80 0.2904
688.90 0.2902
689.00 0.29
689.10 0.2899
689.20 0.2897
689.30 0.2895
689.40 0.2894
689.50 0.2892
689.60 0.2891
689.70 0.2889
689.80 0.2887
689.90 0.2886
690.00 0.2884
690.10 0.2883
690.20 0.2881
690.30 0.2879
690.40 0.2878
690.50 0.2876
690.60 0.2874
690.70 0.2873
690.80 0.2871
690.90 0.287
691.00 0.2868
691.10 0.2866
691.20 0.2865
691.30 0.2863
691.40 0.2862
691.50 0.286
691.60 0.2858
691.70 0.2857
691.80 0.2855
691.90 0.2854
692.00 0.2852
692.10 0.285
692.20 0.2849
692.30 0.2847
692.40 0.2846
692.50 0.2844
692.60 0.2843
692.70 0.2841
692.80 0.2839
692.90 0.2838
693.00 0.2836
693.10 0.2835
693.20 0.2833
693.30 0.2831
693.40 0.283
693.50 0.2828
693.60 0.2827
693.70 0.2825
693.80 0.2823
693.90 0.2822
694.00 0.282
694.10 0.2819
694.20 0.2817
694.30 0.2816
694.40 0.2814
694.50 0.2812
694.60 0.2811
694.70 0.2809
694.80 0.2808
694.90 0.2806
695.00 0.2805
695.10 0.2803
695.20 0.2801
695.30 0.28
695.40 0.2798
695.50 0.2797
695.60 0.2795
695.70 0.2794
695.80 0.2792
695.90 0.2791
696.00 0.2789
696.10 0.2787
696.20 0.2786
696.30 0.2784
696.40 0.2783
696.50 0.2781
696.60 0.278
696.70 0.2778
696.80 0.2777
696.90 0.2775
697.00 0.2774
697.10 0.2772
697.20 0.2771
697.30 0.2769
697.40 0.2767
697.50 0.2766
697.60 0.2764
697.70 0.2763
697.80 0.2761
697.90 0.276
698.00 0.2758
698.10 0.2757
698.20 0.2755
698.30 0.2754
698.40 0.2752
698.50 0.2751
698.60 0.2749
698.70 0.2748
698.80 0.2746
698.90 0.2744
699.00 0.2743
699.10 0.2741
699.20 0.274
699.30 0.2738
699.40 0.2737
699.50 0.2735
699.60 0.2734
699.70 0.2732
699.80 0.2731
699.90 0.2729
700.00 0.2728
700.10 0.2726
700.20 0.2725
700.30 0.2723
700.40 0.2722
700.50 0.272
700.60 0.2719
700.70 0.2717
700.80 0.2716
700.90 0.2714
701.00 0.2713
701.10 0.2711
701.20 0.271
701.30 0.2708
701.40 0.2707
701.50 0.2705
701.60 0.2704
701.70 0.2702
701.80 0.2701
701.90 0.2699
702.00 0.2698
702.10 0.2696
702.20 0.2695
702.30 0.2693
702.40 0.2692
702.50 0.269
702.60 0.2689
702.70 0.2687
702.80 0.2686
702.90 0.2684
703.00 0.2683
703.10 0.2682
703.20 0.268
703.30 0.2679
703.40 0.2677
703.50 0.2676
703.60 0.2674
703.70 0.2673
703.80 0.2671
703.90 0.267
704.00 0.2668
704.10 0.2667
704.20 0.2665
704.30 0.2664
704.40 0.2662
704.50 0.2661
704.60 0.2659
704.70 0.2658
704.80 0.2656
704.90 0.2655
705.00 0.2654
705.10 0.2652
705.20 0.2651
705.30 0.2649
705.40 0.2648
705.50 0.2646
705.60 0.2645
705.70 0.2643
705.80 0.2642
705.90 0.264
706.00 0.2639
706.10 0.2638
706.20 0.2636
706.30 0.2635
706.40 0.2633
706.50 0.2632
706.60 0.263
706.70 0.2629
706.80 0.2627
706.90 0.2626
707.00 0.2625
707.10 0.2623
707.20 0.2622
707.30 0.262
707.40 0.2619
707.50 0.2617
707.60 0.2616
707.70 0.2615
707.80 0.2613
707.90 0.2612
708.00 0.261
708.10 0.2609
708.20 0.2607
708.30 0.2606
708.40 0.2605
708.50 0.2603
708.60 0.2602
708.70 0.26
708.80 0.2599
708.90 0.2597
709.00 0.2596
709.10 0.2595
709.20 0.2593
709.30 0.2592
709.40 0.259
709.50 0.2589
709.60 0.2587
709.70 0.2586
709.80 0.2585
709.90 0.2583
710.00 0.2582
710.10 0.258
710.20 0.2579
710.30 0.2578
710.40 0.2576
710.50 0.2575
710.60 0.2573
710.70 0.2572
710.80 0.2571
710.90 0.2569
711.00 0.2568
711.10 0.2566
711.20 0.2565
711.30 0.2564
711.40 0.2562
711.50 0.2561
711.60 0.2559
711.70 0.2558
711.80 0.2557
711.90 0.2555
712.00 0.2554
712.10 0.2552
712.20 0.2551
712.30 0.255
712.40 0.2548
712.50 0.2547
712.60 0.2546
712.70 0.2544
712.80 0.2543
712.90 0.2541
713.00 0.254
713.10 0.2539
713.20 0.2537
713.30 0.2536
713.40 0.2534
713.50 0.2533
713.60 0.2532
713.70 0.253
713.80 0.2529
713.90 0.2528
714.00 0.2526
714.10 0.2525
714.20 0.2523
714.30 0.2522
714.40 0.2521
714.50 0.2519
714.60 0.2518
714.70 0.2517
714.80 0.2515
714.90 0.2514
715.00 0.2513
715.10 0.2511
715.20 0.251
715.30 0.2508
715.40 0.2507
715.50 0.2506
715.60 0.2504
715.70 0.2503
715.80 0.2502
715.90 0.25
716.00 0.2499
716.10 0.2498
716.20 0.2496
716.30 0.2495
716.40 0.2494
716.50 0.2492
716.60 0.2491
716.70 0.249
716.80 0.2488
716.90 0.2487
717.00 0.2486
717.10 0.2484
717.20 0.2483
717.30 0.2481
717.40 0.248
717.50 0.2479
717.60 0.2477
717.70 0.2476
717.80 0.2475
717.90 0.2473
718.00 0.2472
718.10 0.2471
718.20 0.2469
718.30 0.2468
718.40 0.2467
718.50 0.2465
718.60 0.2464
718.70 0.2463
718.80 0.2461
718.90 0.246
719.00 0.2459
719.10 0.2457
719.20 0.2456
719.30 0.2455
719.40 0.2453
719.50 0.2452
719.60 0.2451
719.70 0.2449
719.80 0.2448
719.90 0.2447
720.00 0.2446
720.10 0.2444
720.20 0.2443
720.30 0.2442
720.40 0.244
720.50 0.2439
720.60 0.2438
720.70 0.2436
720.80 0.2435
720.90 0.2434
721.00 0.2432
721.10 0.2431
721.20 0.243
721.30 0.2429
721.40 0.2427
721.50 0.2426
721.60 0.2425
721.70 0.2423
721.80 0.2422
721.90 0.2421
722.00 0.2419
722.10 0.2418
722.20 0.2417
722.30 0.2416
722.40 0.2414
722.50 0.2413
722.60 0.2412
722.70 0.241
722.80 0.2409
722.90 0.2408
723.00 0.2406
723.10 0.2405
723.20 0.2404
723.30 0.2403
723.40 0.2401
723.50 0.24
723.60 0.2399
723.70 0.2397
723.80 0.2396
723.90 0.2395
724.00 0.2394
724.10 0.2392
724.20 0.2391
724.30 0.239
724.40 0.2388
724.50 0.2387
724.60 0.2386
724.70 0.2385
724.80 0.2383
724.90 0.2382
725.00 0.2381
725.10 0.2379
725.20 0.2378
725.30 0.2377
725.40 0.2376
725.50 0.2374
725.60 0.2373
725.70 0.2372
725.80 0.2371
725.90 0.2369
726.00 0.2368
726.10 0.2367
726.20 0.2366
726.30 0.2364
726.40 0.2363
726.50 0.2362
726.60 0.2361
726.70 0.2359
726.80 0.2358
726.90 0.2357
727.00 0.2356
727.10 0.2354
727.20 0.2353
727.30 0.2352
727.40 0.235
727.50 0.2349
727.60 0.2348
727.70 0.2347
727.80 0.2345
727.90 0.2344
728.00 0.2343
728.10 0.2342
728.20 0.234
728.30 0.2339
728.40 0.2338
728.50 0.2337
728.60 0.2335
728.70 0.2334
728.80 0.2333
728.90 0.2332
729.00 0.2331
729.10 0.2329
729.20 0.2328
729.30 0.2327
729.40 0.2326
729.50 0.2324
729.60 0.2323
729.70 0.2322
729.80 0.2321
729.90 0.2319
730.00 0.2318
730.10 0.2317
730.20 0.2316
730.30 0.2314
730.40 0.2313
730.50 0.2312
730.60 0.2311
730.70 0.231
730.80 0.2308
730.90 0.2307
731.00 0.2306
731.10 0.2305
731.20 0.2303
731.30 0.2302
731.40 0.2301
731.50 0.23
731.60 0.2299
731.70 0.2297
731.80 0.2296
731.90 0.2295
732.00 0.2294
732.10 0.2293
732.20 0.2291
732.30 0.229
732.40 0.2289
732.50 0.2288
732.60 0.2287
732.70 0.2285
732.80 0.2284
732.90 0.2283
733.00 0.2282
733.10 0.2281
733.20 0.2279
733.30 0.2278
733.40 0.2277
733.50 0.2276
733.60 0.2275
733.70 0.2273
733.80 0.2272
733.90 0.2271
734.00 0.227
734.10 0.2269
734.20 0.2267
734.30 0.2266
734.40 0.2265
734.50 0.2264
734.60 0.2263
734.70 0.2261
734.80 0.226
734.90 0.2259
735.00 0.2258
735.10 0.2257
735.20 0.2255
735.30 0.2254
735.40 0.2253
735.50 0.2252
735.60 0.2251
735.70 0.2249
735.80 0.2248
735.90 0.2247
736.00 0.2246
736.10 0.2245
736.20 0.2244
736.30 0.2242
736.40 0.2241
736.50 0.224
736.60 0.2239
736.70 0.2238
736.80 0.2236
736.90 0.2235
737.00 0.2234
737.10 0.2233
737.20 0.2232
737.30 0.2231
737.40 0.2229
737.50 0.2228
737.60 0.2227
737.70 0.2226
737.80 0.2225
737.90 0.2223
738.00 0.2222
738.10 0.2221
738.20 0.222
738.30 0.2219
738.40 0.2218
738.50 0.2216
738.60 0.2215
738.70 0.2214
738.80 0.2213
738.90 0.2212
739.00 0.2211
739.10 0.2209
739.20 0.2208
739.30 0.2207
739.40 0.2206
739.50 0.2205
739.60 0.2204
739.70 0.2202
739.80 0.2201
739.90 0.22
740.00 0.2199
740.10 0.2198
740.20 0.2197
740.30 0.2195
740.40 0.2194
740.50 0.2193
740.60 0.2192
740.70 0.2191
740.80 0.219
740.90 0.2189
741.00 0.2188
741.10 0.2186
741.20 0.2185
741.30 0.2184
741.40 0.2183
741.50 0.2182
741.60 0.2181
741.70 0.218
741.80 0.2178
741.90 0.2177
742.00 0.2176
742.10 0.2175
742.20 0.2174
742.30 0.2173
742.40 0.2172
742.50 0.2171
742.60 0.2169
742.70 0.2168
742.80 0.2167
742.90 0.2166
743.00 0.2165
743.10 0.2164
743.20 0.2163
743.30 0.2161
743.40 0.216
743.50 0.2159
743.60 0.2158
743.70 0.2157
743.80 0.2156
743.90 0.2155
744.00 0.2154
744.10 0.2153
744.20 0.2151
744.30 0.215
744.40 0.2149
744.50 0.2148
744.60 0.2147
744.70 0.2146
744.80 0.2145
744.90 0.2144
745.00 0.2142
745.10 0.2141
745.20 0.214
745.30 0.2139
745.40 0.2138
745.50 0.2137
745.60 0.2136
745.70 0.2135
745.80 0.2134
745.90 0.2132
746.00 0.2131
746.10 0.213
746.20 0.2129
746.30 0.2128
746.40 0.2127
746.50 0.2126
746.60 0.2125
746.70 0.2124
746.80 0.2122
746.90 0.2121
747.00 0.212
747.10 0.2119
747.20 0.2118
747.30 0.2117
747.40 0.2116
747.50 0.2115
747.60 0.2114
747.70 0.2112
747.80 0.2111
747.90 0.211
748.00 0.2109
748.10 0.2108
748.20 0.2107
748.30 0.2106
748.40 0.2105
748.50 0.2104
748.60 0.2103
748.70 0.2102
748.80 0.21
748.90 0.2099
749.00 0.2098
749.10 0.2097
749.20 0.2096
749.30 0.2095
749.40 0.2094
749.50 0.2093
749.60 0.2092
749.70 0.2091
749.80 0.2089
749.90 0.2088
750.00 0.2087
750.10 0.2086
750.20 0.2085
750.30 0.2084
750.40 0.2083
750.50 0.2082
750.60 0.2081
750.70 0.208
750.80 0.2079
750.90 0.2078
751.00 0.2077
751.10 0.2076
751.20 0.2074
751.30 0.2073
751.40 0.2072
751.50 0.2071
751.60 0.207
751.70 0.2069
751.80 0.2068
751.90 0.2067
752.00 0.2066
752.10 0.2065
752.20 0.2064
752.30 0.2063
752.40 0.2062
752.50 0.2061
752.60 0.206
752.70 0.2059
752.80 0.2058
752.90 0.2056
753.00 0.2055
753.10 0.2054
753.20 0.2053
753.30 0.2052
753.40 0.2051
753.50 0.205
753.60 0.2049
753.70 0.2048
753.80 0.2047
753.90 0.2046
754.00 0.2045
754.10 0.2044
754.20 0.2043
754.30 0.2042
754.40 0.2041
754.50 0.204
754.60 0.2039
754.70 0.2038
754.80 0.2036
754.90 0.2035
755.00 0.2034
755.10 0.2033
755.20 0.2032
755.30 0.2031
755.40 0.203
755.50 0.2029
755.60 0.2028
755.70 0.2027
755.80 0.2026
755.90 0.2025
756.00 0.2024
756.10 0.2023
756.20 0.2022
756.30 0.2021
756.40 0.202
756.50 0.2019
756.60 0.2018
756.70 0.2017
756.80 0.2016
756.90 0.2015
757.00 0.2014
757.10 0.2013
757.20 0.2011
757.30 0.201
757.40 0.2009
757.50 0.2008
757.60 0.2007
757.70 0.2006
757.80 0.2005
757.90 0.2004
758.00 0.2003
758.10 0.2002
758.20 0.2001
758.30 0.2
758.40 0.1999
758.50 0.1998
758.60 0.1997
758.70 0.1996
758.80 0.1995
758.90 0.1994
759.00 0.1993
759.10 0.1992
759.20 0.1991
759.30 0.199
759.40 0.1989
759.50 0.1988
759.60 0.1987
759.70 0.1986
759.80 0.1985
759.90 0.1984
760.00 0.1983
760.10 0.1982
760.20 0.1981
760.30 0.198
760.40 0.1979
760.50 0.1978
760.60 0.1977
760.70 0.1976
760.80 0.1975
760.90 0.1974
761.00 0.1973
761.10 0.1972
761.20 0.1971
761.30 0.197
761.40 0.1969
761.50 0.1968
761.60 0.1967
761.70 0.1966
761.80 0.1965
761.90 0.1964
762.00 0.1963
762.10 0.1962
762.20 0.1961
762.30 0.196
762.40 0.1959
762.50 0.1958
762.60 0.1957
762.70 0.1956
762.80 0.1955
762.90 0.1954
763.00 0.1953
763.10 0.1952
763.20 0.1951
763.30 0.195
763.40 0.1949
763.50 0.1948
763.60 0.1947
763.70 0.1946
763.80 0.1945
763.90 0.1944
764.00 0.1943
764.10 0.1942
764.20 0.1941
764.30 0.194
764.40 0.1939
764.50 0.1938
764.60 0.1937
764.70 0.1936
764.80 0.1935
764.90 0.1934
765.00 0.1933
765.10 0.1932
765.20 0.1931
765.30 0.193
765.40 0.1929
765.50 0.1928
765.60 0.1927
765.70 0.1926
765.80 0.1925
765.90 0.1924
766.00 0.1923
766.10 0.1922
766.20 0.1921
766.30 0.192
766.40 0.1919
766.50 0.1918
766.60 0.1917
766.70 0.1916
766.80 0.1915
766.90 0.1914
767.00 0.1914
767.10 0.1913
767.20 0.1912
767.30 0.1911
767.40 0.191
767.50 0.1909
767.60 0.1908
767.70 0.1907
767.80 0.1906
767.90 0.1905
768.00 0.1904
768.10 0.1903
768.20 0.1902
768.30 0.1901
768.40 0.19
768.50 0.1899
768.60 0.1898
768.70 0.1897
768.80 0.1896
768.90 0.1895
769.00 0.1894
769.10 0.1893
769.20 0.1892
769.30 0.1891
769.40 0.189
769.50 0.1889
769.60 0.1888
769.70 0.1887
769.80 0.1886
769.90 0.1886
770.00 0.1885
770.10 0.1884
770.20 0.1883
770.30 0.1882
770.40 0.1881
770.50 0.188
770.60 0.1879
770.70 0.1878
770.80 0.1877
770.90 0.1876
771.00 0.1875
771.10 0.1874
771.20 0.1873
771.30 0.1872
771.40 0.1871
771.50 0.187
771.60 0.187
771.70 0.1869
771.80 0.1868
771.90 0.1867
772.00 0.1866
772.10 0.1865
772.20 0.1864
772.30 0.1863
772.40 0.1862
772.50 0.1861
772.60 0.186
772.70 0.1859
772.80 0.1858
772.90 0.1857
773.00 0.1856
773.10 0.1856
773.20 0.1855
773.30 0.1854
773.40 0.1853
773.50 0.1852
773.60 0.1851
773.70 0.185
773.80 0.1849
773.90 0.1848
774.00 0.1847
774.10 0.1846
774.20 0.1845
774.30 0.1844
774.40 0.1843
774.50 0.1843
774.60 0.1842
774.70 0.1841
774.80 0.184
774.90 0.1839
775.00 0.1838
775.10 0.1837
775.20 0.1836
775.30 0.1835
775.40 0.1834
775.50 0.1833
775.60 0.1832
775.70 0.1832
775.80 0.1831
775.90 0.183
776.00 0.1829
776.10 0.1828
776.20 0.1827
776.30 0.1826
776.40 0.1825
776.50 0.1824
776.60 0.1823
776.70 0.1822
776.80 0.1821
776.90 0.1821
777.00 0.182
777.10 0.1819
777.20 0.1818
777.30 0.1817
777.40 0.1816
777.50 0.1815
777.60 0.1814
777.70 0.1813
777.80 0.1812
777.90 0.1811
778.00 0.1811
778.10 0.181
778.20 0.1809
778.30 0.1808
778.40 0.1807
778.50 0.1806
778.60 0.1805
778.70 0.1804
778.80 0.1803
778.90 0.1802
779.00 0.1801
779.10 0.1801
779.20 0.18
779.30 0.1799
779.40 0.1798
779.50 0.1797
779.60 0.1796
779.70 0.1795
779.80 0.1794
779.90 0.1793
780.00 0.1792
780.10 0.1792
780.20 0.1791
780.30 0.179
780.40 0.1789
780.50 0.1788
780.60 0.1787
780.70 0.1786
780.80 0.1785
780.90 0.1784
781.00 0.1784
781.10 0.1783
781.20 0.1782
781.30 0.1781
781.40 0.178
781.50 0.1779
781.60 0.1778
781.70 0.1777
781.80 0.1777
781.90 0.1776
782.00 0.1775
782.10 0.1774
782.20 0.1773
782.30 0.1772
782.40 0.1771
782.50 0.177
782.60 0.177
782.70 0.1769
782.80 0.1768
782.90 0.1767
783.00 0.1766
783.10 0.1765
783.20 0.1764
783.30 0.1763
783.40 0.1763
783.50 0.1762
783.60 0.1761
783.70 0.176
783.80 0.1759
783.90 0.1758
784.00 0.1757
784.10 0.1756
784.20 0.1756
784.30 0.1755
784.40 0.1754
784.50 0.1753
784.60 0.1752
784.70 0.1751
784.80 0.175
784.90 0.175
785.00 0.1749
785.10 0.1748
785.20 0.1747
785.30 0.1746
785.40 0.1745
785.50 0.1744
785.60 0.1743
785.70 0.1743
785.80 0.1742
785.90 0.1741
786.00 0.174
786.10 0.1739
786.20 0.1738
786.30 0.1737
786.40 0.1737
786.50 0.1736
786.60 0.1735
786.70 0.1734
786.80 0.1733
786.90 0.1732
787.00 0.1731
787.10 0.1731
787.20 0.173
787.30 0.1729
787.40 0.1728
787.50 0.1727
787.60 0.1726
787.70 0.1725
787.80 0.1725
787.90 0.1724
788.00 0.1723
788.10 0.1722
788.20 0.1721
788.30 0.172
788.40 0.1719
788.50 0.1719
788.60 0.1718
788.70 0.1717
788.80 0.1716
788.90 0.1715
789.00 0.1714
789.10 0.1714
789.20 0.1713
789.30 0.1712
789.40 0.1711
789.50 0.171
789.60 0.1709
789.70 0.1708
789.80 0.1708
789.90 0.1707
790.00 0.1706
790.10 0.1705
790.20 0.1704
790.30 0.1703
790.40 0.1703
790.50 0.1702
790.60 0.1701
790.70 0.17
790.80 0.1699
790.90 0.1698
791.00 0.1698
791.10 0.1697
791.20 0.1696
791.30 0.1695
791.40 0.1694
791.50 0.1693
791.60 0.1693
791.70 0.1692
791.80 0.1691
791.90 0.169
792.00 0.1689
792.10 0.1688
792.20 0.1688
792.30 0.1687
792.40 0.1686
792.50 0.1685
792.60 0.1684
792.70 0.1684
792.80 0.1683
792.90 0.1682
793.00 0.1681
793.10 0.168
793.20 0.1679
793.30 0.1679
793.40 0.1678
793.50 0.1677
793.60 0.1676
793.70 0.1675
793.80 0.1675
793.90 0.1674
794.00 0.1673
794.10 0.1672
794.20 0.1671
794.30 0.167
794.40 0.167
794.50 0.1669
794.60 0.1668
794.70 0.1667
794.80 0.1666
794.90 0.1666
795.00 0.1665
795.10 0.1664
795.20 0.1663
795.30 0.1662
795.40 0.1661
795.50 0.1661
795.60 0.166
795.70 0.1659
795.80 0.1658
795.90 0.1657
796.00 0.1657
796.10 0.1656
796.20 0.1655
796.30 0.1654
796.40 0.1653
796.50 0.1653
796.60 0.1652
796.70 0.1651
796.80 0.165
796.90 0.1649
797.00 0.1649
797.10 0.1648
797.20 0.1647
797.30 0.1646
797.40 0.1645
797.50 0.1645
797.60 0.1644
797.70 0.1643
797.80 0.1642
797.90 0.1641
798.00 0.164
798.10 0.164
798.20 0.1639
798.30 0.1638
798.40 0.1637
798.50 0.1636
798.60 0.1636
798.70 0.1635
798.80 0.1634
798.90 0.1633
799.00 0.1632
799.10 0.1632
799.20 0.1631
799.30 0.163
799.40 0.1629
799.50 0.1628
799.60 0.1628
799.70 0.1627
799.80 0.1626
799.90 0.1625
800.00 0.1625
800.10 0.1624
800.20 0.1623
800.30 0.1622
800.40 0.1621
800.50 0.1621
800.60 0.162
800.70 0.1619
800.80 0.1618
800.90 0.1617
801.00 0.1617
801.10 0.1616
801.20 0.1615
801.30 0.1614
801.40 0.1614
801.50 0.1613
801.60 0.1612
801.70 0.1611
801.80 0.161
801.90 0.161
802.00 0.1609
802.10 0.1608
802.20 0.1607
802.30 0.1607
802.40 0.1606
802.50 0.1605
802.60 0.1604
802.70 0.1604
802.80 0.1603
802.90 0.1602
803.00 0.1601
803.10 0.16
803.20 0.16
803.30 0.1599
803.40 0.1598
803.50 0.1597
803.60 0.1597
803.70 0.1596
803.80 0.1595
803.90 0.1594
804.00 0.1593
804.10 0.1593
804.20 0.1592
804.30 0.1591
804.40 0.159
804.50 0.159
804.60 0.1589
804.70 0.1588
804.80 0.1587
804.90 0.1587
805.00 0.1586
805.10 0.1585
805.20 0.1584
805.30 0.1584
805.40 0.1583
805.50 0.1582
805.60 0.1581
805.70 0.158
805.80 0.158
805.90 0.1579
806.00 0.1578
806.10 0.1577
806.20 0.1577
806.30 0.1576
806.40 0.1575
806.50 0.1574
806.60 0.1574
806.70 0.1573
806.80 0.1572
806.90 0.1571
807.00 0.1571
807.10 0.157
807.20 0.1569
807.30 0.1568
807.40 0.1568
807.50 0.1567
807.60 0.1566
807.70 0.1565
807.80 0.1565
807.90 0.1564
808.00 0.1563
808.10 0.1562
808.20 0.1561
808.30 0.1561
808.40 0.156
808.50 0.1559
808.60 0.1558
808.70 0.1558
808.80 0.1557
808.90 0.1556
809.00 0.1555
809.10 0.1555
809.20 0.1554
809.30 0.1553
809.40 0.1552
809.50 0.1552
809.60 0.1551
809.70 0.155
809.80 0.1549
809.90 0.1549
810.00 0.1548
810.10 0.1547
810.20 0.1546
810.30 0.1546
810.40 0.1545
810.50 0.1544
810.60 0.1544
810.70 0.1543
810.80 0.1542
810.90 0.1541
811.00 0.1541
811.10 0.154
811.20 0.1539
811.30 0.1538
811.40 0.1538
811.50 0.1537
811.60 0.1536
811.70 0.1535
811.80 0.1535
811.90 0.1534
812.00 0.1533
812.10 0.1533
812.20 0.1532
812.30 0.1531
812.40 0.153
812.50 0.153
812.60 0.1529
812.70 0.1528
812.80 0.1527
812.90 0.1527
813.00 0.1526
813.10 0.1525
813.20 0.1525
813.30 0.1524
813.40 0.1523
813.50 0.1522
813.60 0.1522
813.70 0.1521
813.80 0.152
813.90 0.1519
814.00 0.1519
814.10 0.1518
814.20 0.1517
814.30 0.1517
814.40 0.1516
814.50 0.1515
814.60 0.1514
814.70 0.1514
814.80 0.1513
814.90 0.1512
815.00 0.1512
815.10 0.1511
815.20 0.151
815.30 0.1509
815.40 0.1509
815.50 0.1508
815.60 0.1507
815.70 0.1506
815.80 0.1506
815.90 0.1505
816.00 0.1504
816.10 0.1504
816.20 0.1503
816.30 0.1502
816.40 0.1501
816.50 0.1501
816.60 0.15
816.70 0.1499
816.80 0.1499
816.90 0.1498
817.00 0.1497
817.10 0.1496
817.20 0.1496
817.30 0.1495
817.40 0.1494
817.50 0.1494
817.60 0.1493
817.70 0.1492
817.80 0.1491
817.90 0.1491
818.00 0.149
818.10 0.1489
818.20 0.1489
818.30 0.1488
818.40 0.1487
818.50 0.1486
818.60 0.1486
818.70 0.1485
818.80 0.1484
818.90 0.1484
819.00 0.1483
819.10 0.1482
819.20 0.1482
819.30 0.1481
819.40 0.148
819.50 0.1479
819.60 0.1479
819.70 0.1478
819.80 0.1477
819.90 0.1477
820.00 0.1476
820.10 0.1475
820.20 0.1474
820.30 0.1474
820.40 0.1473
820.50 0.1472
820.60 0.1472
820.70 0.1471
820.80 0.147
820.90 0.147
821.00 0.1469
821.10 0.1468
821.20 0.1467
821.30 0.1467
821.40 0.1466
821.50 0.1465
821.60 0.1465
821.70 0.1464
821.80 0.1463
821.90 0.1463
822.00 0.1462
822.10 0.1461
822.20 0.1461
822.30 0.146
822.40 0.1459
822.50 0.1458
822.60 0.1458
822.70 0.1457
822.80 0.1456
822.90 0.1456
823.00 0.1455
823.10 0.1454
823.20 0.1454
823.30 0.1453
823.40 0.1452
823.50 0.1452
823.60 0.1451
823.70 0.145
823.80 0.145
823.90 0.1449
824.00 0.1448
824.10 0.1448
824.20 0.1447
824.30 0.1446
824.40 0.1445
824.50 0.1445
824.60 0.1444
824.70 0.1443
824.80 0.1443
824.90 0.1442
825.00 0.1441
825.10 0.1441
825.20 0.144
825.30 0.1439
825.40 0.1439
825.50 0.1438
825.60 0.1437
825.70 0.1437
825.80 0.1436
825.90 0.1435
826.00 0.1435
826.10 0.1434
826.20 0.1433
826.30 0.1433
826.40 0.1432
826.50 0.1431
826.60 0.1431
826.70 0.143
826.80 0.1429
826.90 0.1429
827.00 0.1428
827.10 0.1427
827.20 0.1427
827.30 0.1426
827.40 0.1425
827.50 0.1425
827.60 0.1424
827.70 0.1423
827.80 0.1423
827.90 0.1422
828.00 0.1421
828.10 0.1421
828.20 0.142
828.30 0.1419
828.40 0.1419
828.50 0.1418
828.60 0.1417
828.70 0.1417
828.80 0.1416
828.90 0.1415
829.00 0.1415
829.10 0.1414
829.20 0.1413
829.30 0.1413
829.40 0.1412
829.50 0.1411
829.60 0.1411
829.70 0.141
829.80 0.1409
829.90 0.1409
830.00 0.1408
830.10 0.1407
830.20 0.1407
830.30 0.1406
830.40 0.1405
830.50 0.1405
830.60 0.1404
830.70 0.1403
830.80 0.1403
830.90 0.1402
831.00 0.1401
831.10 0.1401
831.20 0.14
831.30 0.1399
831.40 0.1399
831.50 0.1398
831.60 0.1397
831.70 0.1397
831.80 0.1396
831.90 0.1395
832.00 0.1395
832.10 0.1394
832.20 0.1393
832.30 0.1393
832.40 0.1392
832.50 0.1392
832.60 0.1391
832.70 0.139
832.80 0.139
832.90 0.1389
833.00 0.1388
833.10 0.1388
833.20 0.1387
833.30 0.1386
833.40 0.1386
833.50 0.1385
833.60 0.1384
833.70 0.1384
833.80 0.1383
833.90 0.1382
834.00 0.1382
834.10 0.1381
834.20 0.1381
834.30 0.138
834.40 0.1379
834.50 0.1379
834.60 0.1378
834.70 0.1377
834.80 0.1377
834.90 0.1376
835.00 0.1375
835.10 0.1375
835.20 0.1374
835.30 0.1373
835.40 0.1373
835.50 0.1372
835.60 0.1372
835.70 0.1371
835.80 0.137
835.90 0.137
836.00 0.1369
836.10 0.1368
836.20 0.1368
836.30 0.1367
836.40 0.1366
836.50 0.1366
836.60 0.1365
836.70 0.1365
836.80 0.1364
836.90 0.1363
837.00 0.1363
837.10 0.1362
837.20 0.1361
837.30 0.1361
837.40 0.136
837.50 0.1359
837.60 0.1359
837.70 0.1358
837.80 0.1358
837.90 0.1357
838.00 0.1356
838.10 0.1356
838.20 0.1355
838.30 0.1354
838.40 0.1354
838.50 0.1353
838.60 0.1353
838.70 0.1352
838.80 0.1351
838.90 0.1351
839.00 0.135
839.10 0.1349
839.20 0.1349
839.30 0.1348
839.40 0.1348
839.50 0.1347
839.60 0.1346
839.70 0.1346
839.80 0.1345
839.90 0.1344
840.00 0.1344
840.10 0.1343
840.20 0.1343
840.30 0.1342
840.40 0.1341
840.50 0.1341
840.60 0.134
840.70 0.1339
840.80 0.1339
840.90 0.1338
841.00 0.1338
841.10 0.1337
841.20 0.1336
841.30 0.1336
841.40 0.1335
841.50 0.1334
841.60 0.1334
841.70 0.1333
841.80 0.1333
841.90 0.1332
842.00 0.1331
842.10 0.1331
842.20 0.133
842.30 0.133
842.40 0.1329
842.50 0.1328
842.60 0.1328
842.70 0.1327
842.80 0.1326
842.90 0.1326
843.00 0.1325
843.10 0.1325
843.20 0.1324
843.30 0.1323
843.40 0.1323
843.50 0.1322
843.60 0.1322
843.70 0.1321
843.80 0.132
843.90 0.132
844.00 0.1319
844.10 0.1319
844.20 0.1318
844.30 0.1317
844.40 0.1317
844.50 0.1316
844.60 0.1315
844.70 0.1315
844.80 0.1314
844.90 0.1314
845.00 0.1313
845.10 0.1312
845.20 0.1312
845.30 0.1311
845.40 0.1311
845.50 0.131
845.60 0.1309
845.70 0.1309
845.80 0.1308
845.90 0.1308
846.00 0.1307
846.10 0.1306
846.20 0.1306
846.30 0.1305
846.40 0.1305
846.50 0.1304
846.60 0.1303
846.70 0.1303
846.80 0.1302
846.90 0.1302
847.00 0.1301
847.10 0.13
847.20 0.13
847.30 0.1299
847.40 0.1299
847.50 0.1298
847.60 0.1297
847.70 0.1297
847.80 0.1296
847.90 0.1296
848.00 0.1295
848.10 0.1294
848.20 0.1294
848.30 0.1293
848.40 0.1293
848.50 0.1292
848.60 0.1291
848.70 0.1291
848.80 0.129
848.90 0.129
849.00 0.1289
849.10 0.1289
849.20 0.1288
849.30 0.1287
849.40 0.1287
849.50 0.1286
849.60 0.1286
849.70 0.1285
849.80 0.1284
849.90 0.1284
850.00 0.1283
850.10 0.1283
850.20 0.1282
850.30 0.1281
850.40 0.1281
850.50 0.128
850.60 0.128
850.70 0.1279
850.80 0.1279
850.90 0.1278
851.00 0.1277
851.10 0.1277
851.20 0.1276
851.30 0.1276
851.40 0.1275
851.50 0.1274
851.60 0.1274
851.70 0.1273
851.80 0.1273
851.90 0.1272
852.00 0.1272
852.10 0.1271
852.20 0.127
852.30 0.127
852.40 0.1269
852.50 0.1269
852.60 0.1268
852.70 0.1267
852.80 0.1267
852.90 0.1266
853.00 0.1266
853.10 0.1265
853.20 0.1265
853.30 0.1264
853.40 0.1263
853.50 0.1263
853.60 0.1262
853.70 0.1262
853.80 0.1261
853.90 0.1261
854.00 0.126
854.10 0.1259
854.20 0.1259
854.30 0.1258
854.40 0.1258
854.50 0.1257
854.60 0.1257
854.70 0.1256
854.80 0.1255
854.90 0.1255
855.00 0.1254
855.10 0.1254
855.20 0.1253
855.30 0.1253
855.40 0.1252
855.50 0.1251
855.60 0.1251
855.70 0.125
855.80 0.125
855.90 0.1249
856.00 0.1249
856.10 0.1248
856.20 0.1247
856.30 0.1247
856.40 0.1246
856.50 0.1246
856.60 0.1245
856.70 0.1245
856.80 0.1244
856.90 0.1243
857.00 0.1243
857.10 0.1242
857.20 0.1242
857.30 0.1241
857.40 0.1241
857.50 0.124
857.60 0.1239
857.70 0.1239
857.80 0.1238
857.90 0.1238
858.00 0.1237
858.10 0.1237
858.20 0.1236
858.30 0.1236
858.40 0.1235
858.50 0.1234
858.60 0.1234
858.70 0.1233
858.80 0.1233
858.90 0.1232
859.00 0.1232
859.10 0.1231
859.20 0.1231
859.30 0.123
859.40 0.1229
859.50 0.1229
859.60 0.1228
859.70 0.1228
859.80 0.1227
859.90 0.1227
860.00 0.1226
860.10 0.1226
860.20 0.1225
860.30 0.1224
860.40 0.1224
860.50 0.1223
860.60 0.1223
860.70 0.1222
860.80 0.1222
860.90 0.1221
861.00 0.1221
861.10 0.122
861.20 0.1219
861.30 0.1219
861.40 0.1218
861.50 0.1218
861.60 0.1217
861.70 0.1217
861.80 0.1216
861.90 0.1216
862.00 0.1215
862.10 0.1214
862.20 0.1214
862.30 0.1213
862.40 0.1213
862.50 0.1212
862.60 0.1212
862.70 0.1211
862.80 0.1211
862.90 0.121
863.00 0.121
863.10 0.1209
863.20 0.1208
863.30 0.1208
863.40 0.1207
863.50 0.1207
863.60 0.1206
863.70 0.1206
863.80 0.1205
863.90 0.1205
864.00 0.1204
864.10 0.1204
864.20 0.1203
864.30 0.1203
864.40 0.1202
864.50 0.1201
864.60 0.1201
864.70 0.12
864.80 0.12
864.90 0.1199
865.00 0.1199
865.10 0.1198
865.20 0.1198
865.30 0.1197
865.40 0.1197
865.50 0.1196
865.60 0.1195
865.70 0.1195
865.80 0.1194
865.90 0.1194
866.00 0.1193
866.10 0.1193
866.20 0.1192
866.30 0.1192
866.40 0.1191
866.50 0.1191
866.60 0.119
866.70 0.119
866.80 0.1189
866.90 0.1189
867.00 0.1188
867.10 0.1187
867.20 0.1187
867.30 0.1186
867.40 0.1186
867.50 0.1185
867.60 0.1185
867.70 0.1184
867.80 0.1184
867.90 0.1183
868.00 0.1183
868.10 0.1182
868.20 0.1182
868.30 0.1181
868.40 0.1181
868.50 0.118
868.60 0.1179
868.70 0.1179
868.80 0.1178
868.90 0.1178
869.00 0.1177
869.10 0.1177
869.20 0.1176
869.30 0.1176
869.40 0.1175
869.50 0.1175
869.60 0.1174
869.70 0.1174
869.80 0.1173
869.90 0.1173
870.00 0.1172
870.10 0.1172
870.20 0.1171
870.30 0.1171
870.40 0.117
870.50 0.1169
870.60 0.1169
870.70 0.1168
870.80 0.1168
870.90 0.1167
871.00 0.1167
871.10 0.1166
871.20 0.1166
871.30 0.1165
871.40 0.1165
871.50 0.1164
871.60 0.1164
871.70 0.1163
871.80 0.1163
871.90 0.1162
872.00 0.1162
872.10 0.1161
872.20 0.1161
872.30 0.116
872.40 0.116
872.50 0.1159
872.60 0.1159
872.70 0.1158
872.80 0.1158
872.90 0.1157
873.00 0.1157
873.10 0.1156
873.20 0.1155
873.30 0.1155
873.40 0.1154
873.50 0.1154
873.60 0.1153
873.70 0.1153
873.80 0.1152
873.90 0.1152
874.00 0.1151
874.10 0.1151
874.20 0.115
874.30 0.115
874.40 0.1149
874.50 0.1149
874.60 0.1148
874.70 0.1148
874.80 0.1147
874.90 0.1147
875.00 0.1146
875.10 0.1146
875.20 0.1145
875.30 0.1145
875.40 0.1144
875.50 0.1144
875.60 0.1143
875.70 0.1143
875.80 0.1142
875.90 0.1142
876.00 0.1141
876.10 0.1141
876.20 0.114
876.30 0.114
876.40 0.1139
876.50 0.1139
876.60 0.1138
876.70 0.1138
876.80 0.1137
876.90 0.1137
877.00 0.1136
877.10 0.1136
877.20 0.1135
877.30 0.1135
877.40 0.1134
877.50 0.1134
877.60 0.1133
877.70 0.1133
877.80 0.1132
877.90 0.1132
878.00 0.1131
878.10 0.1131
878.20 0.113
878.30 0.113
878.40 0.1129
878.50 0.1129
878.60 0.1128
878.70 0.1128
878.80 0.1127
878.90 0.1127
879.00 0.1126
879.10 0.1126
879.20 0.1125
879.30 0.1125
879.40 0.1124
879.50 0.1124
879.60 0.1123
879.70 0.1123
879.80 0.1122
879.90 0.1122
880.00 0.1121
880.10 0.1121
880.20 0.112
880.30 0.112
880.40 0.1119
880.50 0.1119
880.60 0.1118
880.70 0.1118
880.80 0.1117
880.90 0.1117
881.00 0.1116
881.10 0.1116
881.20 0.1115
881.30 0.1115
881.40 0.1114
881.50 0.1114
881.60 0.1113
881.70 0.1113
881.80 0.1112
881.90 0.1112
882.00 0.1111
882.10 0.1111
882.20 0.111
882.30 0.111
882.40 0.1109
882.50 0.1109
882.60 0.1108
882.70 0.1108
882.80 0.1107
882.90 0.1107
883.00 0.1106
883.10 0.1106
883.20 0.1105
883.30 0.1105
883.40 0.1104
883.50 0.1104
883.60 0.1104
883.70 0.1103
883.80 0.1103
883.90 0.1102
884.00 0.1102
884.10 0.1101
884.20 0.1101
884.30 0.11
884.40 0.11
884.50 0.1099
884.60 0.1099
884.70 0.1098
884.80 0.1098
884.90 0.1097
885.00 0.1097
885.10 0.1096
885.20 0.1096
885.30 0.1095
885.40 0.1095
885.50 0.1094
885.60 0.1094
885.70 0.1093
885.80 0.1093
885.90 0.1092
886.00 0.1092
886.10 0.1092
886.20 0.1091
886.30 0.1091
886.40 0.109
886.50 0.109
886.60 0.1089
886.70 0.1089
886.80 0.1088
886.90 0.1088
887.00 0.1087
887.10 0.1087
887.20 0.1086
887.30 0.1086
887.40 0.1085
887.50 0.1085
887.60 0.1084
887.70 0.1084
887.80 0.1083
887.90 0.1083
888.00 0.1082
888.10 0.1082
888.20 0.1082
888.30 0.1081
888.40 0.1081
888.50 0.108
888.60 0.108
888.70 0.1079
888.80 0.1079
888.90 0.1078
889.00 0.1078
889.10 0.1077
889.20 0.1077
889.30 0.1076
889.40 0.1076
889.50 0.1075
889.60 0.1075
889.70 0.1074
889.80 0.1074
889.90 0.1073
890.00 0.1073
890.10 0.1073
890.20 0.1072
890.30 0.1072
890.40 0.1071
890.50 0.1071
890.60 0.107
890.70 0.107
890.80 0.1069
890.90 0.1069
891.00 0.1068
891.10 0.1068
891.20 0.1067
891.30 0.1067
891.40 0.1066
891.50 0.1066
891.60 0.1066
891.70 0.1065
891.80 0.1065
891.90 0.1064
892.00 0.1064
892.10 0.1063
892.20 0.1063
892.30 0.1062
892.40 0.1062
892.50 0.1061
892.60 0.1061
892.70 0.106
892.80 0.106
892.90 0.1059
893.00 0.1059
893.10 0.1059
893.20 0.1058
893.30 0.1058
893.40 0.1057
893.50 0.1057
893.60 0.1056
893.70 0.1056
893.80 0.1055
893.90 0.1055
894.00 0.1054
894.10 0.1054
894.20 0.1054
894.30 0.1053
894.40 0.1053
894.50 0.1052
894.60 0.1052
894.70 0.1051
894.80 0.1051
894.90 0.105
895.00 0.105
895.10 0.1049
895.20 0.1049
895.30 0.1049
895.40 0.1048
895.50 0.1048
895.60 0.1047
895.70 0.1047
895.80 0.1046
895.90 0.1046
896.00 0.1045
896.10 0.1045
896.20 0.1044
896.30 0.1044
896.40 0.1043
896.50 0.1043
896.60 0.1043
896.70 0.1042
896.80 0.1042
896.90 0.1041
897.00 0.1041
897.10 0.104
897.20 0.104
897.30 0.1039
897.40 0.1039
897.50 0.1039
897.60 0.1038
897.70 0.1038
897.80 0.1037
897.90 0.1037
898.00 0.1036
898.10 0.1036
898.20 0.1035
898.30 0.1035
898.40 0.1035
898.50 0.1034
898.60 0.1034
898.70 0.1033
898.80 0.1033
898.90 0.1032
899.00 0.1032
899.10 0.1031
899.20 0.1031
899.30 0.1031
899.40 0.103
899.50 0.103
899.60 0.1029
899.70 0.1029
899.80 0.1028
899.90 0.1028
900.00 0.1028
900.10 0.1027
900.20 0.1027
900.30 0.1026
900.40 0.1026
900.50 0.1025
900.60 0.1025
900.70 0.1024
900.80 0.1024
900.90 0.1024
901.00 0.1023
901.10 0.1023
901.20 0.1022
901.30 0.1022
901.40 0.1021
901.50 0.1021
901.60 0.1021
901.70 0.102
901.80 0.102
901.90 0.1019
902.00 0.1019
902.10 0.1018
902.20 0.1018
902.30 0.1017
902.40 0.1017
902.50 0.1017
902.60 0.1016
902.70 0.1016
902.80 0.1015
902.90 0.1015
903.00 0.1014
903.10 0.1014
903.20 0.1014
903.30 0.1013
903.40 0.1013
903.50 0.1012
903.60 0.1012
903.70 0.1011
903.80 0.1011
903.90 0.101
904.00 0.101
904.10 0.101
904.20 0.1009
904.30 0.1009
904.40 0.1008
904.50 0.1008
904.60 0.1007
904.70 0.1007
904.80 0.1007
904.90 0.1006
905.00 0.1006
905.10 0.1005
905.20 0.1005
905.30 0.1004
905.40 0.1004
905.50 0.1003
905.60 0.1003
905.70 0.1003
905.80 0.1002
905.90 0.1002
906.00 0.1001
906.10 0.1001
906.20 0.1
906.30 0.1
906.40 0.09996
906.50 0.09991
906.60 0.09987
906.70 0.09983
906.80 0.09979
906.90 0.09974
907.00 0.0997
907.10 0.09966
907.20 0.09961
907.30 0.09957
907.40 0.09953
907.50 0.09949
907.60 0.09944
907.70 0.0994
907.80 0.09936
907.90 0.09932
908.00 0.09927
908.10 0.09923
908.20 0.09919
908.30 0.09915
908.40 0.0991
908.50 0.09906
908.60 0.09902
908.70 0.09898
908.80 0.09893
908.90 0.09889
909.00 0.09885
909.10 0.09881
909.20 0.09877
909.30 0.09872
909.40 0.09868
909.50 0.09864
909.60 0.0986
909.70 0.09855
909.80 0.09851
909.90 0.09847
910.00 0.09843
910.10 0.09839
910.20 0.09834
910.30 0.0983
910.40 0.09826
910.50 0.09822
910.60 0.09818
910.70 0.09813
910.80 0.09809
910.90 0.09805
911.00 0.09801
911.10 0.09797
911.20 0.09792
911.30 0.09788
911.40 0.09784
911.50 0.0978
911.60 0.09776
911.70 0.09771
911.80 0.09767
911.90 0.09763
912.00 0.09759
912.10 0.09755
912.20 0.0975
912.30 0.09746
912.40 0.09742
912.50 0.09738
912.60 0.09734
912.70 0.0973
912.80 0.09725
912.90 0.09721
913.00 0.09717
913.10 0.09713
913.20 0.09709
913.30 0.09705
913.40 0.097
913.50 0.09696
913.60 0.09692
913.70 0.09688
913.80 0.09684
913.90 0.0968
914.00 0.09675
914.10 0.09671
914.20 0.09667
914.30 0.09663
914.40 0.09659
914.50 0.09655
914.60 0.09651
914.70 0.09646
914.80 0.09642
914.90 0.09638
915.00 0.09634
915.10 0.0963
915.20 0.09626
915.30 0.09622
915.40 0.09617
915.50 0.09613
915.60 0.09609
915.70 0.09605
915.80 0.09601
915.90 0.09597
916.00 0.09593
916.10 0.09589
916.20 0.09584
916.30 0.0958
916.40 0.09576
916.50 0.09572
916.60 0.09568
916.70 0.09564
916.80 0.0956
916.90 0.09556
917.00 0.09552
917.10 0.09548
917.20 0.09544
917.30 0.0954
917.40 0.09536
917.50 0.09532
917.60 0.09528
917.70 0.09524
917.80 0.0952
917.90 0.09516
918.00 0.09512
918.10 0.09508
918.20 0.09504
918.30 0.095
918.40 0.09496
918.50 0.09492
918.60 0.09488
918.70 0.09484
918.80 0.0948
918.90 0.09476
919.00 0.09472
919.10 0.09468
919.20 0.09464
919.30 0.0946
919.40 0.09456
919.50 0.09452
919.60 0.09448
919.70 0.09444
919.80 0.0944
919.90 0.09436
920.00 0.09432
920.10 0.09428
920.20 0.09424
920.30 0.0942
920.40 0.09416
920.50 0.09412
920.60 0.09408
920.70 0.09404
920.80 0.094
920.90 0.09396
921.00 0.09392
921.10 0.09388
921.20 0.09385
921.30 0.09381
921.40 0.09377
921.50 0.09373
921.60 0.09369
921.70 0.09365
921.80 0.09361
921.90 0.09357
922.00 0.09353
922.10 0.09349
922.20 0.09345
922.30 0.09341
922.40 0.09337
922.50 0.09333
922.60 0.09329
922.70 0.09326
922.80 0.09322
922.90 0.09318
923.00 0.09314
923.10 0.0931
923.20 0.09306
923.30 0.09302
923.40 0.09298
923.50 0.09294
923.60 0.0929
923.70 0.09286
923.80 0.09282
923.90 0.09279
924.00 0.09275
924.10 0.09271
924.20 0.09267
924.30 0.09263
924.40 0.09259
924.50 0.09255
924.60 0.09251
924.70 0.09247
924.80 0.09243
924.90 0.0924
925.00 0.09236
925.10 0.09232
925.20 0.09228
925.30 0.09224
925.40 0.0922
925.50 0.09216
925.60 0.09212
925.70 0.09208
925.80 0.09205
925.90 0.09201
926.00 0.09197
926.10 0.09193
926.20 0.09189
926.30 0.09185
926.40 0.09181
926.50 0.09177
926.60 0.09174
926.70 0.0917
926.80 0.09166
926.90 0.09162
927.00 0.09158
927.10 0.09154
927.20 0.09151
927.30 0.09147
927.40 0.09143
927.50 0.09139
927.60 0.09136
927.70 0.09132
927.80 0.09128
927.90 0.09124
928.00 0.09121
928.10 0.09117
928.20 0.09113
928.30 0.09109
928.40 0.09106
928.50 0.09102
928.60 0.09098
928.70 0.09095
928.80 0.09091
928.90 0.09087
929.00 0.09083
929.10 0.0908
929.20 0.09076
929.30 0.09072
929.40 0.09068
929.50 0.09065
929.60 0.09061
929.70 0.09057
929.80 0.09054
929.90 0.0905
930.00 0.09046
930.10 0.09042
930.20 0.09039
930.30 0.09035
930.40 0.09031
930.50 0.09028
930.60 0.09024
930.70 0.0902
930.80 0.09016
930.90 0.09013
931.00 0.09009
931.10 0.09005
931.20 0.09002
931.30 0.08998
931.40 0.08994
931.50 0.08991
931.60 0.08987
931.70 0.08983
931.80 0.0898
931.90 0.08976
932.00 0.08972
932.10 0.08968
932.20 0.08965
932.30 0.08961
932.40 0.08957
932.50 0.08954
932.60 0.0895
932.70 0.08946
932.80 0.08943
932.90 0.08939
933.00 0.08935
933.10 0.08932
933.20 0.08928
933.30 0.08924
933.40 0.08921
933.50 0.08917
933.60 0.08913
933.70 0.0891
933.80 0.08906
933.90 0.08902
934.00 0.08899
934.10 0.08895
934.20 0.08891
934.30 0.08888
934.40 0.08884
934.50 0.0888
934.60 0.08877
934.70 0.08873
934.80 0.08869
934.90 0.08866
935.00 0.08862
935.10 0.08858
935.20 0.08854
935.30 0.08851
935.40 0.08847
935.50 0.08843
935.60 0.0884
935.70 0.08836
935.80 0.08832
935.90 0.08829
936.00 0.08825
936.10 0.08821
936.20 0.08818
936.30 0.08814
936.40 0.08811
936.50 0.08807
936.60 0.08803
936.70 0.088
936.80 0.08796
936.90 0.08792
937.00 0.08789
937.10 0.08785
937.20 0.08781
937.30 0.08778
937.40 0.08774
937.50 0.0877
937.60 0.08767
937.70 0.08763
937.80 0.08759
937.90 0.08756
938.00 0.08752
938.10 0.08748
938.20 0.08745
938.30 0.08741
938.40 0.08737
938.50 0.08734
938.60 0.0873
938.70 0.08726
938.80 0.08723
938.90 0.08719
939.00 0.08715
939.10 0.08712
939.20 0.08708
939.30 0.08704
939.40 0.08701
939.50 0.08697
939.60 0.08693
939.70 0.0869
939.80 0.08686
939.90 0.08683
940.00 0.08679
940.10 0.08675
940.20 0.08672
940.30 0.08668
940.40 0.08664
940.50 0.08661
940.60 0.08657
940.70 0.08653
940.80 0.0865
940.90 0.08646
941.00 0.08642
941.10 0.08639
941.20 0.08635
941.30 0.08631
941.40 0.08628
941.50 0.08624
941.60 0.0862
941.70 0.08617
941.80 0.08613
941.90 0.0861
942.00 0.08606
942.10 0.08602
942.20 0.08599
942.30 0.08595
942.40 0.08591
942.50 0.08588
942.60 0.08584
942.70 0.0858
942.80 0.08577
942.90 0.08573
943.00 0.08569
943.10 0.08566
943.20 0.08562
943.30 0.08558
943.40 0.08555
943.50 0.08551
943.60 0.08547
943.70 0.08544
943.80 0.0854
943.90 0.08537
944.00 0.08533
944.10 0.08529
944.20 0.08526
944.30 0.08522
944.40 0.08518
944.50 0.08515
944.60 0.08511
944.70 0.08507
944.80 0.08504
944.90 0.085
945.00 0.08496
945.10 0.08493
945.20 0.08489
945.30 0.08485
945.40 0.08482
945.50 0.08478
945.60 0.08474
945.70 0.08471
945.80 0.08467
945.90 0.08463
946.00 0.0846
946.10 0.08456
946.20 0.08453
946.30 0.08449
946.40 0.08445
946.50 0.08442
946.60 0.08438
946.70 0.08434
946.80 0.08431
946.90 0.08427
947.00 0.08423
947.10 0.0842
947.20 0.08416
947.30 0.08412
947.40 0.08409
947.50 0.08405
947.60 0.08402
947.70 0.08398
947.80 0.08394
947.90 0.08391
948.00 0.08387
948.10 0.08383
948.20 0.0838
948.30 0.08376
948.40 0.08372
948.50 0.08369
948.60 0.08365
948.70 0.08362
948.80 0.08358
948.90 0.08354
949.00 0.08351
949.10 0.08347
949.20 0.08343
949.30 0.0834
949.40 0.08336
949.50 0.08333
949.60 0.08329
949.70 0.08325
949.80 0.08322
949.90 0.08318
950.00 0.08315
950.10 0.08311
950.20 0.08308
950.30 0.08304
950.40 0.083
950.50 0.08297
950.60 0.08293
950.70 0.0829
950.80 0.08286
950.90 0.08283
951.00 0.08279
951.10 0.08275
951.20 0.08272
951.30 0.08268
951.40 0.08265
951.50 0.08261
951.60 0.08258
951.70 0.08254
951.80 0.08251
951.90 0.08247
952.00 0.08244
952.10 0.08241
952.20 0.08237
952.30 0.08234
952.40 0.0823
952.50 0.08227
952.60 0.08224
952.70 0.0822
952.80 0.08217
952.90 0.08214
953.00 0.08211
953.10 0.08207
953.20 0.08204
953.30 0.08201
953.40 0.08198
953.50 0.08194
953.60 0.08191
953.70 0.08188
953.80 0.08185
953.90 0.08182
954.00 0.08179
954.10 0.08176
954.20 0.08174
954.30 0.08171
954.40 0.08168
954.50 0.08165
954.60 0.08162
954.70 0.08159
954.80 0.08155
954.90 0.08151
955.00 0.08147
955.10 0.08143
955.20 0.0814
955.30 0.08136
955.40 0.08133
955.50 0.08129
955.60 0.08125
955.70 0.08122
955.80 0.08118
955.90 0.08115
956.00 0.08112
956.10 0.08108
956.20 0.08105
956.30 0.08102
956.40 0.08098
956.50 0.08095
956.60 0.08092
956.70 0.08088
956.80 0.08085
956.90 0.08082
957.00 0.08078
957.10 0.08075
957.20 0.08072
957.30 0.08069
957.40 0.08066
957.50 0.08063
957.60 0.0806
957.70 0.08056
957.80 0.08053
957.90 0.0805
958.00 0.08047
958.10 0.08044
958.20 0.08041
958.30 0.08038
958.40 0.08035
958.50 0.08032
958.60 0.08029
958.70 0.08026
958.80 0.08022
958.90 0.08019
959.00 0.08016
959.10 0.08013
959.20 0.0801
959.30 0.08007
959.40 0.08004
959.50 0.08001
959.60 0.07998
959.70 0.07995
959.80 0.07992
959.90 0.07989
960.00 0.07986
960.10 0.07983
960.20 0.0798
960.30 0.07977
960.40 0.07974
960.50 0.07971
960.60 0.07968
960.70 0.07965
960.80 0.07962
960.90 0.07959
961.00 0.07956
961.10 0.07953
961.20 0.0795
961.30 0.07947
961.40 0.07944
961.50 0.07941
961.60 0.07938
961.70 0.07935
961.80 0.07932
961.90 0.07929
962.00 0.07926
962.10 0.07923
962.20 0.0792
962.30 0.07917
962.40 0.07914
962.50 0.07911
962.60 0.07908
962.70 0.07905
962.80 0.07902
962.90 0.07899
963.00 0.07896
963.10 0.07893
963.20 0.0789
963.30 0.07887
963.40 0.07884
963.50 0.07881
963.60 0.07878
963.70 0.07875
963.80 0.07872
963.90 0.07869
964.00 0.07866
964.10 0.07863
964.20 0.0786
964.30 0.07857
964.40 0.07854
964.50 0.07851
964.60 0.07848
964.70 0.07845
964.80 0.07842
964.90 0.07839
965.00 0.07836
965.10 0.07833
965.20 0.0783
965.30 0.07827
965.40 0.07824
965.50 0.07821
965.60 0.07818
965.70 0.07815
965.80 0.07812
965.90 0.07809
966.00 0.07806
966.10 0.07803
966.20 0.078
966.30 0.07797
966.40 0.07794
966.50 0.07791
966.60 0.07788
966.70 0.07784
966.80 0.07781
966.90 0.07778
967.00 0.07775
967.10 0.07772
967.20 0.07769
967.30 0.07766
967.40 0.07763
967.50 0.0776
967.60 0.07757
967.70 0.07754
967.80 0.07751
967.90 0.07748
968.00 0.07745
968.10 0.07742
968.20 0.07739
968.30 0.07736
968.40 0.07733
968.50 0.0773
968.60 0.07727
968.70 0.07724
968.80 0.07721
968.90 0.07718
969.00 0.07715
969.10 0.07712
969.20 0.07709
969.30 0.07706
969.40 0.07703
969.50 0.077
969.60 0.07697
969.70 0.07694
969.80 0.07691
969.90 0.07688
970.00 0.07685
970.10 0.07682
970.20 0.07679
970.30 0.07676
970.40 0.07673
970.50 0.0767
970.60 0.07667
970.70 0.07664
970.80 0.07661
970.90 0.07658
971.00 0.07655
971.10 0.07652
971.20 0.07649
971.30 0.07646
971.40 0.07643
971.50 0.0764
971.60 0.07637
971.70 0.07634
971.80 0.07631
971.90 0.07628
972.00 0.07625
972.10 0.07622
972.20 0.07619
972.30 0.07616
972.40 0.07613
972.50 0.0761
972.60 0.07607
972.70 0.07604
972.80 0.07601
972.90 0.07598
973.00 0.07595
973.10 0.07592
973.20 0.07589
973.30 0.07586
973.40 0.07583
973.50 0.0758
973.60 0.07577
973.70 0.07574
973.80 0.07571
973.90 0.07568
974.00 0.07565
974.10 0.07562
974.20 0.07559
974.30 0.07556
974.40 0.07553
974.50 0.0755
974.60 0.07547
974.70 0.07544
974.80 0.07541
974.90 0.07538
975.00 0.07535
975.10 0.07532
975.20 0.07529
975.30 0.07526
975.40 0.07524
975.50 0.07521
975.60 0.07518
975.70 0.07515
975.80 0.07512
975.90 0.07509
976.00 0.07506
976.10 0.07503
976.20 0.075
976.30 0.07497
976.40 0.07494
976.50 0.07491
976.60 0.07488
976.70 0.07485
976.80 0.07482
976.90 0.07479
977.00 0.07476
977.10 0.07473
977.20 0.0747
977.30 0.07467
977.40 0.07464
977.50 0.07461
977.60 0.07458
977.70 0.07455
977.80 0.07452
977.90 0.07449
978.00 0.07446
978.10 0.07443
978.20 0.0744
978.30 0.07437
978.40 0.07434
978.50 0.07431
978.60 0.07428
978.70 0.07425
978.80 0.07422
978.90 0.07419
979.00 0.07417
979.10 0.07414
979.20 0.07411
979.30 0.07408
979.40 0.07405
979.50 0.07402
979.60 0.07399
979.70 0.07396
979.80 0.07393
979.90 0.0739
980.00 0.07387
980.10 0.07384
980.20 0.07381
980.30 0.07378
980.40 0.07375
980.50 0.07372
980.60 0.07369
980.70 0.07366
980.80 0.07363
980.90 0.0736
981.00 0.07358
981.10 0.07355
981.20 0.07352
981.30 0.07349
981.40 0.07346
981.50 0.07343
981.60 0.0734
981.70 0.07337
981.80 0.07334
981.90 0.07331
982.00 0.07328
982.10 0.07325
982.20 0.07322
982.30 0.07319
982.40 0.07316
982.50 0.07314
982.60 0.07311
982.70 0.07308
982.80 0.07305
982.90 0.07302
983.00 0.07299
983.10 0.07296
983.20 0.07293
983.30 0.0729
983.40 0.07287
983.50 0.07284
983.60 0.07281
983.70 0.07278
983.80 0.07275
983.90 0.07272
984.00 0.0727
984.10 0.07267
984.20 0.07264
984.30 0.07261
984.40 0.07258
984.50 0.07255
984.60 0.07252
984.70 0.07249
984.80 0.07246
984.90 0.07243
985.00 0.0724
985.10 0.07237
985.20 0.07234
985.30 0.07231
985.40 0.07229
985.50 0.07226
985.60 0.07223
985.70 0.0722
985.80 0.07217
985.90 0.07214
986.00 0.07211
986.10 0.07208
986.20 0.07205
986.30 0.07202
986.40 0.07199
986.50 0.07196
986.60 0.07193
986.70 0.07191
986.80 0.07188
986.90 0.07185
987.00 0.07182
987.10 0.07179
987.20 0.07176
987.30 0.07173
987.40 0.0717
987.50 0.07167
987.60 0.07164
987.70 0.07161
987.80 0.07158
987.90 0.07155
988.00 0.07153
988.10 0.0715
988.20 0.07147
988.30 0.07144
988.40 0.07141
988.50 0.07138
988.60 0.07135
988.70 0.07132
988.80 0.07129
988.90 0.07126
989.00 0.07123
989.10 0.0712
989.20 0.07117
989.30 0.07114
989.40 0.07112
989.50 0.07109
989.60 0.07106
989.70 0.07103
989.80 0.071
989.90 0.07097
990.00 0.07094
990.10 0.07091
990.20 0.07088
990.30 0.07085
990.40 0.07082
990.50 0.07079
990.60 0.07076
990.70 0.07073
990.80 0.07071
990.90 0.07068
991.00 0.07065
991.10 0.07062
991.20 0.07059
991.30 0.07056
991.40 0.07053
991.50 0.0705
991.60 0.07047
991.70 0.07044
991.80 0.07041
991.90 0.07038
992.00 0.07035
992.10 0.07032
992.20 0.07029
992.30 0.07026
992.40 0.07023
992.50 0.0702
992.60 0.07017
992.70 0.07014
992.80 0.07011
992.90 0.07009
993.00 0.07006
993.10 0.07003
993.20 0.07
993.30 0.06997
993.40 0.06994
993.50 0.06991
993.60 0.06988
993.70 0.06985
993.80 0.06982
993.90 0.06979
994.00 0.06976
994.10 0.06973
994.20 0.0697
994.30 0.06967
994.40 0.06964
994.50 0.06961
994.60 0.06958
994.70 0.06955
994.80 0.06952
994.90 0.06949
995.00 0.06946
995.10 0.06943
995.20 0.0694
995.30 0.06937
995.40 0.06934
995.50 0.06931
995.60 0.06928
995.70 0.06925
995.80 0.06922
995.90 0.06919
996.00 0.06916
996.10 0.06913
996.20 0.06909
996.30 0.06906
996.40 0.06903
996.50 0.069
996.60 0.06897
996.70 0.06894
996.80 0.06891
996.90 0.06888
997.00 0.06885
997.10 0.06882
997.20 0.06879
997.30 0.06876
997.40 0.06873
997.50 0.0687
997.60 0.06867
997.70 0.06864
997.80 0.06861
997.90 0.06857
998.00 0.06854
998.10 0.06851
998.20 0.06848
998.30 0.06845
998.40 0.06842
998.50 0.06839
998.60 0.06836
998.70 0.06833
998.80 0.06829
998.90 0.06826
999.00 0.06823
999.10 0.0682
999.20 0.06817
999.30 0.06814
999.40 0.06811
999.50 0.06808
999.60 0.06805
999.70 0.06801
999.80 0.06798
999.90 0.06795
1000.00 0.06792
1000.10 0.06789
1000.20 0.06785
1000.30 0.06782
1000.40 0.06779
1000.50 0.06776
1000.60 0.06773
1000.70 0.06769
1000.80 0.06766
1000.90 0.06763
1001.00 0.0676
1001.10 0.06757
1001.20 0.06754
1001.30 0.0675
1001.40 0.06747
1001.50 0.06744
1001.60 0.06741
1001.70 0.06738
1001.80 0.06735
1001.90 0.06732
1002.00 0.06729
1002.10 0.06726
1002.20 0.06723
1002.30 0.0672
1002.40 0.06718
1002.50 0.06715
1002.60 0.06712
1002.70 0.06709
1002.80 0.06706
1002.90 0.06704
1003.00 0.06701
1003.10 0.06698
1003.20 0.06696
1003.30 0.06694
1003.40 0.06691
1003.50 0.06689
1003.60 0.06687
1003.70 0.06685
1003.80 0.06682
1003.90 0.06681
1004.00 0.06679
1004.10 0.06678
1004.20 0.06676
1004.30 0.06675
1004.40 0.06674
1004.50 0.06674
1004.60 0.06673
1004.70 0.06672
1004.80 0.0667
1004.90 0.06668
1005.00 0.06665
1005.10 0.06661
1005.20 0.06658
1005.30 0.06654
1005.40 0.0665
1005.50 0.06646
1005.60 0.06642
1005.70 0.06638
1005.80 0.06635
1005.90 0.06631
1006.00 0.06627
1006.10 0.06623
1006.20 0.0662
1006.30 0.06618
1006.40 0.06615
1006.50 0.06612
1006.60 0.06609
1006.70 0.06606
1006.80 0.06604
1006.90 0.06601
1007.00 0.06598
1007.10 0.06596
1007.20 0.06594
1007.30 0.06591
1007.40 0.06589
1007.50 0.06587
1007.60 0.06584
1007.70 0.06582
1007.80 0.0658
1007.90 0.06578
1008.00 0.06576
1008.10 0.06574
1008.20 0.06571
1008.30 0.06569
1008.40 0.06567
1008.50 0.06565
1008.60 0.06563
1008.70 0.06561
1008.80 0.06559
1008.90 0.06557
1009.00 0.06555
1009.10 0.06553
1009.20 0.0655
1009.30 0.06548
1009.40 0.06546
1009.50 0.06544
1009.60 0.06542
1009.70 0.0654
1009.80 0.06538
1009.90 0.06536
1010.00 0.06534
1010.10 0.06532
1010.20 0.06529
1010.30 0.06527
1010.40 0.06525
1010.50 0.06523
1010.60 0.06521
1010.70 0.06519
1010.80 0.06517
1010.90 0.06515
1011.00 0.06513
1011.10 0.06511
1011.20 0.06509
1011.30 0.06507
1011.40 0.06505
1011.50 0.06502
1011.60 0.065
1011.70 0.06498
1011.80 0.06496
1011.90 0.06494
1012.00 0.06492
1012.10 0.0649
1012.20 0.06488
1012.30 0.06485
1012.40 0.06483
1012.50 0.06481
1012.60 0.06479
1012.70 0.06477
1012.80 0.06475
1012.90 0.06473
1013.00 0.0647
1013.10 0.06468
1013.20 0.06466
1013.30 0.06464
1013.40 0.06462
1013.50 0.0646
1013.60 0.06458
1013.70 0.06455
1013.80 0.06453
1013.90 0.06451
1014.00 0.06449
1014.10 0.06447
1014.20 0.06444
1014.30 0.06442
1014.40 0.0644
1014.50 0.06438
1014.60 0.06436
1014.70 0.06433
1014.80 0.06431
1014.90 0.06429
1015.00 0.06427
1015.10 0.06425
1015.20 0.06422
1015.30 0.0642
1015.40 0.06418
1015.50 0.06416
1015.60 0.06413
1015.70 0.06411
1015.80 0.06409
1015.90 0.06407
1016.00 0.06404
1016.10 0.06402
1016.20 0.064
1016.30 0.06398
1016.40 0.06396
1016.50 0.06393
1016.60 0.06391
1016.70 0.06389
1016.80 0.06387
1016.90 0.06384
1017.00 0.06382
1017.10 0.0638
1017.20 0.06378
1017.30 0.06375
1017.40 0.06373
1017.50 0.06371
1017.60 0.06368
1017.70 0.06366
1017.80 0.06364
1017.90 0.06362
1018.00 0.06359
1018.10 0.06357
1018.20 0.06355
1018.30 0.06353
1018.40 0.0635
1018.50 0.06348
1018.60 0.06346
1018.70 0.06343
1018.80 0.06341
1018.90 0.06339
1019.00 0.06337
1019.10 0.06334
1019.20 0.06332
1019.30 0.0633
1019.40 0.06327
1019.50 0.06325
1019.60 0.06323
1019.70 0.0632
1019.80 0.06318
1019.90 0.06316
1020.00 0.06314
1020.10 0.06311
1020.20 0.06309
1020.30 0.06307
1020.40 0.06304
1020.50 0.06302
1020.60 0.063
1020.70 0.06298
1020.80 0.06295
1020.90 0.06293
1021.00 0.06291
1021.10 0.06288
1021.20 0.06286
1021.30 0.06284
1021.40 0.06281
1021.50 0.06279
1021.60 0.06277
1021.70 0.06275
1021.80 0.06272
1021.90 0.0627
1022.00 0.06268
1022.10 0.06265
1022.20 0.06263
1022.30 0.06261
1022.40 0.06258
1022.50 0.06256
1022.60 0.06254
1022.70 0.06251
1022.80 0.06249
1022.90 0.06247
1023.00 0.06244
1023.10 0.06242
1023.20 0.0624
1023.30 0.06238
1023.40 0.06235
1023.50 0.06233
1023.60 0.06231
1023.70 0.06228
1023.80 0.06226
1023.90 0.06224
1024.00 0.06221
1024.10 0.06219
1024.20 0.06217
1024.30 0.06215
1024.40 0.06212
1024.50 0.0621
1024.60 0.06208
1024.70 0.06205
1024.80 0.06203
1024.90 0.06201
1025.00 0.06198
1025.10 0.06196
1025.20 0.06194
1025.30 0.06192
1025.40 0.06189
1025.50 0.06187
1025.60 0.06185
1025.70 0.06182
1025.80 0.0618
1025.90 0.06178
1026.00 0.06175
1026.10 0.06173
1026.20 0.06171
1026.30 0.06169
1026.40 0.06166
1026.50 0.06164
1026.60 0.06162
1026.70 0.06159
1026.80 0.06157
1026.90 0.06155
1027.00 0.06152
1027.10 0.0615
1027.20 0.06148
1027.30 0.06146
1027.40 0.06143
1027.50 0.06141
1027.60 0.06139
1027.70 0.06136
1027.80 0.06134
1027.90 0.06132
1028.00 0.06129
1028.10 0.06127
1028.20 0.06125
1028.30 0.06123
1028.40 0.0612
1028.50 0.06118
1028.60 0.06116
1028.70 0.06113
1028.80 0.06111
1028.90 0.06109
1029.00 0.06107
1029.10 0.06104
1029.20 0.06102
1029.30 0.061
1029.40 0.06097
1029.50 0.06095
1029.60 0.06093
1029.70 0.06091
1029.80 0.06088
1029.90 0.06086
1030.00 0.06084
1030.10 0.06082
1030.20 0.06079
1030.30 0.06077
1030.40 0.06075
1030.50 0.06072
1030.60 0.0607
1030.70 0.06068
1030.80 0.06066
1030.90 0.06063
1031.00 0.06061
1031.10 0.06059
1031.20 0.06057
1031.30 0.06054
1031.40 0.06052
1031.50 0.0605
1031.60 0.06047
1031.70 0.06045
1031.80 0.06043
1031.90 0.06041
1032.00 0.06038
1032.10 0.06036
1032.20 0.06034
1032.30 0.06032
1032.40 0.06029
1032.50 0.06027
1032.60 0.06025
1032.70 0.06023
1032.80 0.0602
1032.90 0.06018
1033.00 0.06016
1033.10 0.06014
1033.20 0.06011
1033.30 0.06009
1033.40 0.06007
1033.50 0.06005
1033.60 0.06002
1033.70 0.06
1033.80 0.05998
1033.90 0.05996
1034.00 0.05993
1034.10 0.05991
1034.20 0.05989
1034.30 0.05987
1034.40 0.05984
1034.50 0.05982
1034.60 0.0598
1034.70 0.05978
1034.80 0.05975
1034.90 0.05973
1035.00 0.05971
1035.10 0.05969
1035.20 0.05966
1035.30 0.05964
1035.40 0.05962
1035.50 0.0596
1035.60 0.05958
1035.70 0.05955
1035.80 0.05953
1035.90 0.05951
1036.00 0.05949
1036.10 0.05946
1036.20 0.05944
1036.30 0.05942
1036.40 0.0594
1036.50 0.05937
1036.60 0.05935
1036.70 0.05933
1036.80 0.05931
1036.90 0.05929
1037.00 0.05926
1037.10 0.05924
1037.20 0.05922
1037.30 0.0592
1037.40 0.05918
1037.50 0.05915
1037.60 0.05913
1037.70 0.05911
1037.80 0.05909
1037.90 0.05906
1038.00 0.05904
1038.10 0.05902
1038.20 0.059
1038.30 0.05898
1038.40 0.05895
1038.50 0.05893
1038.60 0.05891
1038.70 0.05889
1038.80 0.05887
1038.90 0.05884
1039.00 0.05882
1039.10 0.0588
1039.20 0.05878
1039.30 0.05876
1039.40 0.05873
1039.50 0.05871
1039.60 0.05869
1039.70 0.05867
1039.80 0.05865
1039.90 0.05862
1040.00 0.0586
1040.10 0.05858
1040.20 0.05856
1040.30 0.05854
1040.40 0.05851
1040.50 0.05849
1040.60 0.05847
1040.70 0.05845
1040.80 0.05843
1040.90 0.05841
1041.00 0.05838
1041.10 0.05836
1041.20 0.05834
1041.30 0.05832
1041.40 0.0583
1041.50 0.05827
1041.60 0.05825
1041.70 0.05823
1041.80 0.05821
1041.90 0.05819
1042.00 0.05817
1042.10 0.05814
1042.20 0.05812
1042.30 0.0581
1042.40 0.05808
1042.50 0.05806
1042.60 0.05804
1042.70 0.05801
1042.80 0.05799
1042.90 0.05797
1043.00 0.05795
1043.10 0.05793
1043.20 0.05791
1043.30 0.05788
1043.40 0.05786
1043.50 0.05784
1043.60 0.05782
1043.70 0.0578
1043.80 0.05778
1043.90 0.05775
1044.00 0.05773
1044.10 0.05771
1044.20 0.05769
1044.30 0.05767
1044.40 0.05765
1044.50 0.05763
1044.60 0.0576
1044.70 0.05758
1044.80 0.05756
1044.90 0.05754
1045.00 0.05752
1045.10 0.0575
1045.20 0.05748
1045.30 0.05745
1045.40 0.05743
1045.50 0.05741
1045.60 0.05739
1045.70 0.05737
1045.80 0.05735
1045.90 0.05732
1046.00 0.0573
1046.10 0.05728
1046.20 0.05726
1046.30 0.05724
1046.40 0.05722
1046.50 0.0572
1046.60 0.05718
1046.70 0.05715
1046.80 0.05713
1046.90 0.05711
1047.00 0.05709
1047.10 0.05707
1047.20 0.05705
1047.30 0.05703
1047.40 0.05701
1047.50 0.05698
1047.60 0.05696
1047.70 0.05694
1047.80 0.05692
1047.90 0.0569
1048.00 0.05688
1048.10 0.05686
1048.20 0.05684
1048.30 0.05681
1048.40 0.05679
1048.50 0.05677
1048.60 0.05675
1048.70 0.05673
1048.80 0.05671
1048.90 0.05669
1049.00 0.05667
1049.10 0.05665
1049.20 0.05662
1049.30 0.0566
1049.40 0.05658
1049.50 0.05656
1049.60 0.05654
1049.70 0.05652
1049.80 0.0565
1049.90 0.05648
1050.00 0.05646
1050.10 0.05644
1050.20 0.05641
1050.30 0.05639
1050.40 0.05637
1050.50 0.05635
1050.60 0.05633
1050.70 0.05631
1050.80 0.05629
1050.90 0.05627
1051.00 0.05625
1051.10 0.05623
1051.20 0.0562
1051.30 0.05618
1051.40 0.05616
1051.50 0.05614
1051.60 0.05612
1051.70 0.0561
1051.80 0.05608
1051.90 0.05606
1052.00 0.05604
1052.10 0.05602
1052.20 0.056
1052.30 0.05598
1052.40 0.05595
1052.50 0.05593
1052.60 0.05591
1052.70 0.05589
1052.80 0.05587
1052.90 0.05585
1053.00 0.05583
1053.10 0.05581
1053.20 0.05579
1053.30 0.05577
1053.40 0.05575
1053.50 0.05573
1053.60 0.05571
1053.70 0.05569
1053.80 0.05567
1053.90 0.05564
1054.00 0.05562
1054.10 0.0556
1054.20 0.05558
1054.30 0.05556
1054.40 0.05554
1054.50 0.05552
1054.60 0.0555
1054.70 0.05548
1054.80 0.05546
1054.90 0.05544
1055.00 0.05542
1055.10 0.0554
1055.20 0.05538
1055.30 0.05536
1055.40 0.05534
1055.50 0.05532
1055.60 0.05529
1055.70 0.05527
1055.80 0.05525
1055.90 0.05523
1056.00 0.05521
1056.10 0.05519
1056.20 0.05517
1056.30 0.05515
1056.40 0.05513
1056.50 0.05511
1056.60 0.05509
1056.70 0.05507
1056.80 0.05505
1056.90 0.05503
1057.00 0.05501
1057.10 0.05499
1057.20 0.05497
1057.30 0.05495
1057.40 0.05493
1057.50 0.05491
1057.60 0.05489
1057.70 0.05487
1057.80 0.05485
1057.90 0.05483
1058.00 0.0548
1058.10 0.05478
1058.20 0.05476
1058.30 0.05474
1058.40 0.05472
1058.50 0.0547
1058.60 0.05468
1058.70 0.05466
1058.80 0.05464
1058.90 0.05462
1059.00 0.0546
1059.10 0.05458
1059.20 0.05456
1059.30 0.05454
1059.40 0.05452
1059.50 0.0545
1059.60 0.05448
1059.70 0.05446
1059.80 0.05444
1059.90 0.05442
1060.00 0.0544
1060.10 0.05438
1060.20 0.05436
1060.30 0.05434
1060.40 0.05432
1060.50 0.0543
1060.60 0.05428
1060.70 0.05426
1060.80 0.05424
1060.90 0.05422
1061.00 0.0542
1061.10 0.05418
1061.20 0.05416
1061.30 0.05414
1061.40 0.05412
1061.50 0.0541
1061.60 0.05408
1061.70 0.05406
1061.80 0.05404
1061.90 0.05402
1062.00 0.054
1062.10 0.05398
1062.20 0.05396
1062.30 0.05394
1062.40 0.05392
1062.50 0.0539
1062.60 0.05388
1062.70 0.05386
1062.80 0.05384
1062.90 0.05382
1063.00 0.0538
1063.10 0.05378
1063.20 0.05376
1063.30 0.05374
1063.40 0.05372
1063.50 0.0537
1063.60 0.05368
1063.70 0.05366
1063.80 0.05364
1063.90 0.05362
1064.00 0.0536
1064.10 0.05358
1064.20 0.05356
1064.30 0.05354
1064.40 0.05352
1064.50 0.0535
1064.60 0.05348
1064.70 0.05346
1064.80 0.05344
1064.90 0.05342
1065.00 0.0534
1065.10 0.05338
1065.20 0.05336
1065.30 0.05334
1065.40 0.05332
1065.50 0.0533
1065.60 0.05329
1065.70 0.05327
1065.80 0.05325
1065.90 0.05323
1066.00 0.05321
1066.10 0.05319
1066.20 0.05317
1066.30 0.05315
1066.40 0.05313
1066.50 0.05311
1066.60 0.05309
1066.70 0.05307
1066.80 0.05305
1066.90 0.05303
1067.00 0.05301
1067.10 0.05299
1067.20 0.05297
1067.30 0.05295
1067.40 0.05293
1067.50 0.05291
1067.60 0.05289
1067.70 0.05287
1067.80 0.05285
1067.90 0.05283
1068.00 0.05281
1068.10 0.05279
1068.20 0.05277
1068.30 0.05275
1068.40 0.05274
1068.50 0.05272
1068.60 0.0527
1068.70 0.05268
1068.80 0.05266
1068.90 0.05264
1069.00 0.05262
1069.10 0.0526
1069.20 0.05258
1069.30 0.05256
1069.40 0.05254
1069.50 0.05252
1069.60 0.0525
1069.70 0.05248
1069.80 0.05246
1069.90 0.05244
1070.00 0.05242
1070.10 0.0524
1070.20 0.05238
1070.30 0.05236
1070.40 0.05235
1070.50 0.05233
1070.60 0.05231
1070.70 0.05229
1070.80 0.05227
1070.90 0.05225
1071.00 0.05223
1071.10 0.05221
1071.20 0.05219
1071.30 0.05217
1071.40 0.05215
1071.50 0.05213
1071.60 0.05211
1071.70 0.05209
1071.80 0.05207
1071.90 0.05205
1072.00 0.05203
1072.10 0.05202
1072.20 0.052
1072.30 0.05198
1072.40 0.05196
1072.50 0.05194
1072.60 0.05192
1072.70 0.0519
1072.80 0.05188
1072.90 0.05186
1073.00 0.05184
1073.10 0.05182
1073.20 0.0518
1073.30 0.05178
1073.40 0.05176
1073.50 0.05174
1073.60 0.05172
1073.70 0.05171
1073.80 0.05169
1073.90 0.05167
1074.00 0.05165
1074.10 0.05163
1074.20 0.05161
1074.30 0.05159
1074.40 0.05157
1074.50 0.05155
1074.60 0.05153
1074.70 0.05151
1074.80 0.05149
1074.90 0.05147
1075.00 0.05145
1075.10 0.05143
1075.20 0.05141
1075.30 0.05139
1075.40 0.05137
1075.50 0.05136
1075.60 0.05134
1075.70 0.05132
1075.80 0.0513
1075.90 0.05128
1076.00 0.05126
1076.10 0.05124
1076.20 0.05122
1076.30 0.0512
1076.40 0.05118
1076.50 0.05116
1076.60 0.05114
1076.70 0.05112
1076.80 0.0511
1076.90 0.05108
1077.00 0.05107
1077.10 0.05105
1077.20 0.05103
1077.30 0.05101
1077.40 0.05099
1077.50 0.05097
1077.60 0.05095
1077.70 0.05093
1077.80 0.05091
1077.90 0.05089
1078.00 0.05087
1078.10 0.05085
1078.20 0.05083
1078.30 0.05081
1078.40 0.05079
1078.50 0.05077
1078.60 0.05075
1078.70 0.05073
1078.80 0.05071
1078.90 0.05069
1079.00 0.05067
1079.10 0.05065
1079.20 0.05063
1079.30 0.05062
1079.40 0.0506
1079.50 0.05058
1079.60 0.05056
1079.70 0.05054
1079.80 0.05052
1079.90 0.0505
1080.00 0.05048
1080.10 0.05046
1080.20 0.05044
1080.30 0.05042
1080.40 0.0504
1080.50 0.05038
1080.60 0.05036
1080.70 0.05034
1080.80 0.05032
1080.90 0.0503
1081.00 0.05028
1081.10 0.05026
1081.20 0.05024
1081.30 0.05022
1081.40 0.0502
1081.50 0.05018
1081.60 0.05016
1081.70 0.05014
1081.80 0.05012
1081.90 0.0501
1082.00 0.05008
1082.10 0.05006
1082.20 0.05004
1082.30 0.05002
1082.40 0.05
1082.50 0.04998
1082.60 0.04995
1082.70 0.04993
1082.80 0.04991
1082.90 0.04989
1083.00 0.04987
1083.10 0.04985
1083.20 0.04983
1083.30 0.04981
1083.40 0.04979
1083.50 0.04977
1083.60 0.04975
1083.70 0.04973
1083.80 0.04971
1083.90 0.04969
1084.00 0.04967
1084.10 0.04964
1084.20 0.04962
1084.30 0.0496
1084.40 0.04958
1084.50 0.04956
1084.60 0.04954
1084.70 0.04952
1084.80 0.0495
1084.90 0.04947
1085.00 0.04945
1085.10 0.04943
1085.20 0.04941
1085.30 0.04939
1085.40 0.04937
1085.50 0.04934
1085.60 0.04932
1085.70 0.0493
1085.80 0.04928
1085.90 0.04926
1086.00 0.04924
1086.10 0.04921
1086.20 0.04919
1086.30 0.04917
1086.40 0.04915
1086.50 0.04913
1086.60 0.0491
1086.70 0.04908
1086.80 0.04906
1086.90 0.04904
1087.00 0.04902
1087.10 0.04899
1087.20 0.04897
1087.30 0.04895
1087.40 0.04892
1087.50 0.0489
1087.60 0.04888
1087.70 0.04885
1087.80 0.04883
1087.90 0.04881
1088.00 0.04879
1088.10 0.04876
1088.20 0.04874
1088.30 0.04872
1088.40 0.04869
1088.50 0.04867
1088.60 0.04865
1088.70 0.04863
1088.80 0.0486
1088.90 0.04858
1089.00 0.04856
1089.10 0.04853
1089.20 0.04851
1089.30 0.04849
1089.40 0.04846
1089.50 0.04844
1089.60 0.04842
1089.70 0.0484
1089.80 0.04837
1089.90 0.04835
1090.00 0.04833
1090.10 0.0483
1090.20 0.04828
1090.30 0.04826
1090.40 0.04823
1090.50 0.04821
1090.60 0.04819
1090.70 0.04817
1090.80 0.04815
1090.90 0.04813
1091.00 0.04811
1091.10 0.04809
1091.20 0.04807
1091.30 0.04805
1091.40 0.04803
1091.50 0.04801
1091.60 0.04799
1091.70 0.04797
1091.80 0.04795
1091.90 0.04793
1092.00 0.04792
1092.10 0.0479
1092.20 0.04789
1092.30 0.04788
1092.40 0.04786
1092.50 0.04785
1092.60 0.04784
1092.70 0.04783
1092.80 0.04782
1092.90 0.04782
1093.00 0.04781
1093.10 0.0478
1093.20 0.0478
1093.30 0.0478
1093.40 0.04781
1093.50 0.04782
1093.60 0.04786
1093.70 0.04788
1093.80 0.0479
1093.90 0.04788
1094.00 0.04782
1094.10 0.04775
1094.20 0.04769
1094.30 0.04764
1094.40 0.04761
1094.50 0.04758
1094.60 0.04755
1094.70 0.04752
1094.80 0.04749
1094.90 0.04746
1095.00 0.04744
1095.10 0.04742
1095.20 0.0474
1095.30 0.04738
1095.40 0.04736
1095.50 0.04735
1095.60 0.04733
1095.70 0.04731
1095.80 0.04729
1095.90 0.04728
1096.00 0.04726
1096.10 0.04724
1096.20 0.04722
1096.30 0.04721
1096.40 0.04719
1096.50 0.04717
1096.60 0.04716
1096.70 0.04715
1096.80 0.04713
1096.90 0.04712
1097.00 0.04711
1097.10 0.0471
1097.20 0.04709
1097.30 0.04708
1097.40 0.04707
1097.50 0.04705
1097.60 0.04704
1097.70 0.04703
1097.80 0.04702
1097.90 0.04701
1098.00 0.047
1098.10 0.04699
1098.20 0.04698
1098.30 0.04696
1098.40 0.04695
1098.50 0.04694
1098.60 0.04693
1098.70 0.04692
1098.80 0.04691
1098.90 0.0469
1099.00 0.04689
1099.10 0.04688
1099.20 0.04686
1099.30 0.04685
1099.40 0.04684
1099.50 0.04683
1099.60 0.04682
1099.70 0.04681
1099.80 0.0468
1099.90 0.04679
1100.00 0.04677
1100.10 0.04676
1100.20 0.04675
1100.30 0.04674
1100.40 0.04673
1100.50 0.04672
1100.60 0.04671
1100.70 0.04669
1100.80 0.04668
1100.90 0.04667
1101.00 0.04666
1101.10 0.04664
1101.20 0.04663
1101.30 0.04662
1101.40 0.04661
1101.50 0.0466
1101.60 0.04658
1101.70 0.04657
1101.80 0.04656
1101.90 0.04655
1102.00 0.04653
1102.10 0.04652
1102.20 0.04651
1102.30 0.0465
1102.40 0.04648
1102.50 0.04647
1102.60 0.04646
1102.70 0.04644
1102.80 0.04643
1102.90 0.04642
1103.00 0.0464
1103.10 0.04639
1103.20 0.04638
1103.30 0.04636
1103.40 0.04635
1103.50 0.04634
1103.60 0.04632
1103.70 0.04631
1103.80 0.0463
1103.90 0.04628
1104.00 0.04627
1104.10 0.04625
1104.20 0.04624
1104.30 0.04623
1104.40 0.04621
1104.50 0.0462
1104.60 0.04618
1104.70 0.04617
1104.80 0.04616
1104.90 0.04614
1105.00 0.04613
1105.10 0.04611
1105.20 0.0461
1105.30 0.04609
1105.40 0.04607
1105.50 0.04606
1105.60 0.04604
1105.70 0.04603
1105.80 0.04602
1105.90 0.046
1106.00 0.04599
1106.10 0.04597
1106.20 0.04596
1106.30 0.04594
1106.40 0.04593
1106.50 0.04591
1106.60 0.0459
1106.70 0.04588
1106.80 0.04587
1106.90 0.04586
1107.00 0.04584
1107.10 0.04583
1107.20 0.04581
1107.30 0.0458
1107.40 0.04578
1107.50 0.04577
1107.60 0.04575
1107.70 0.04574
1107.80 0.04572
1107.90 0.04571
1108.00 0.04569
1108.10 0.04568
1108.20 0.04566
1108.30 0.04565
1108.40 0.04563
1108.50 0.04562
1108.60 0.0456
1108.70 0.04559
1108.80 0.04557
1108.90 0.04556
1109.00 0.04554
1109.10 0.04553
1109.20 0.04551
1109.30 0.0455
1109.40 0.04548
1109.50 0.04547
1109.60 0.04545
1109.70 0.04544
1109.80 0.04542
1109.90 0.04541
1110.00 0.04539
1110.10 0.04538
1110.20 0.04536
1110.30 0.04535
1110.40 0.04533
1110.50 0.04532
1110.60 0.0453
1110.70 0.04529
1110.80 0.04527
1110.90 0.04526
1111.00 0.04524
1111.10 0.04523
1111.20 0.04521
1111.30 0.0452
1111.40 0.04518
1111.50 0.04517
1111.60 0.04515
1111.70 0.04514
1111.80 0.04512
1111.90 0.04511
1112.00 0.04509
1112.10 0.04508
1112.20 0.04506
1112.30 0.04504
1112.40 0.04503
1112.50 0.04501
1112.60 0.045
1112.70 0.04498
1112.80 0.04497
1112.90 0.04495
1113.00 0.04494
1113.10 0.04492
1113.20 0.04491
1113.30 0.04489
1113.40 0.04488
1113.50 0.04486
1113.60 0.04485
1113.70 0.04483
1113.80 0.04482
1113.90 0.0448
1114.00 0.04479
1114.10 0.04477
1114.20 0.04475
1114.30 0.04474
1114.40 0.04472
1114.50 0.04471
1114.60 0.04469
1114.70 0.04468
1114.80 0.04466
1114.90 0.04465
1115.00 0.04463
1115.10 0.04462
1115.20 0.0446
1115.30 0.04459
1115.40 0.04457
1115.50 0.04456
1115.60 0.04454
1115.70 0.04453
1115.80 0.04451
1115.90 0.0445
1116.00 0.04448
1116.10 0.04447
1116.20 0.04445
1116.30 0.04443
1116.40 0.04442
1116.50 0.0444
1116.60 0.04439
1116.70 0.04437
1116.80 0.04436
1116.90 0.04434
1117.00 0.04433
1117.10 0.04431
1117.20 0.0443
1117.30 0.04428
1117.40 0.04427
1117.50 0.04425
1117.60 0.04424
1117.70 0.04422
1117.80 0.04421
1117.90 0.04419
1118.00 0.04418
1118.10 0.04416
1118.20 0.04415
1118.30 0.04413
1118.40 0.04412
1118.50 0.0441
1118.60 0.04409
1118.70 0.04407
1118.80 0.04405
1118.90 0.04404
1119.00 0.04402
1119.10 0.04401
1119.20 0.04399
1119.30 0.04398
1119.40 0.04396
1119.50 0.04395
1119.60 0.04393
1119.70 0.04392
1119.80 0.0439
1119.90 0.04389
1120.00 0.04387
1120.10 0.04386
1120.20 0.04384
1120.30 0.04383
1120.40 0.04381
1120.50 0.0438
1120.60 0.04378
1120.70 0.04377
1120.80 0.04375
1120.90 0.04374
1121.00 0.04372
1121.10 0.04371
1121.20 0.04369
1121.30 0.04368
1121.40 0.04366
1121.50 0.04365
1121.60 0.04363
1121.70 0.04362
1121.80 0.0436
1121.90 0.04359
1122.00 0.04357
1122.10 0.04356
1122.20 0.04354
1122.30 0.04353
1122.40 0.04351
1122.50 0.0435
1122.60 0.04348
1122.70 0.04347
1122.80 0.04345
1122.90 0.04344
1123.00 0.04342
1123.10 0.04341
1123.20 0.04339
1123.30 0.04338
1123.40 0.04336
1123.50 0.04335
1123.60 0.04333
1123.70 0.04332
1123.80 0.0433
1123.90 0.04329
1124.00 0.04327
1124.10 0.04326
1124.20 0.04324
1124.30 0.04323
1124.40 0.04321
1124.50 0.0432
1124.60 0.04318
1124.70 0.04317
1124.80 0.04315
1124.90 0.04314
1125.00 0.04312
1125.10 0.04311
1125.20 0.04309
1125.30 0.04308
1125.40 0.04306
1125.50 0.04305
1125.60 0.04303
1125.70 0.04302
1125.80 0.043
1125.90 0.04299
1126.00 0.04298
1126.10 0.04296
1126.20 0.04295
1126.30 0.04293
1126.40 0.04292
1126.50 0.0429
1126.60 0.04289
1126.70 0.04287
1126.80 0.04286
1126.90 0.04284
1127.00 0.04283
1127.10 0.04281
1127.20 0.0428
1127.30 0.04278
1127.40 0.04277
1127.50 0.04275
1127.60 0.04274
1127.70 0.04272
1127.80 0.04271
1127.90 0.04269
1128.00 0.04268
1128.10 0.04267
1128.20 0.04265
1128.30 0.04264
1128.40 0.04262
1128.50 0.04261
1128.60 0.04259
1128.70 0.04258
1128.80 0.04256
1128.90 0.04255
1129.00 0.04253
1129.10 0.04252
1129.20 0.0425
1129.30 0.04249
1129.40 0.04247
1129.50 0.04246
1129.60 0.04245
1129.70 0.04243
1129.80 0.04242
1129.90 0.0424
1130.00 0.04239
1130.10 0.04237
1130.20 0.04236
1130.30 0.04234
1130.40 0.04233
1130.50 0.04231
1130.60 0.0423
1130.70 0.04228
1130.80 0.04227
1130.90 0.04226
1131.00 0.04224
1131.10 0.04223
1131.20 0.04221
1131.30 0.0422
1131.40 0.04218
1131.50 0.04217
1131.60 0.04215
1131.70 0.04214
1131.80 0.04212
1131.90 0.04211
1132.00 0.0421
1132.10 0.04208
1132.20 0.04207
1132.30 0.04205
1132.40 0.04204
1132.50 0.04202
1132.60 0.04201
1132.70 0.04199
1132.80 0.04198
1132.90 0.04197
1133.00 0.04195
1133.10 0.04194
1133.20 0.04192
1133.30 0.04191
1133.40 0.04189
1133.50 0.04188
1133.60 0.04187
1133.70 0.04185
1133.80 0.04184
1133.90 0.04182
1134.00 0.04181
1134.10 0.04179
1134.20 0.04178
1134.30 0.04176
1134.40 0.04175
1134.50 0.04174
1134.60 0.04172
1134.70 0.04171
1134.80 0.04169
1134.90 0.04168
1135.00 0.04166
1135.10 0.04165
1135.20 0.04164
1135.30 0.04162
1135.40 0.04161
1135.50 0.04159
1135.60 0.04158
1135.70 0.04156
1135.80 0.04155
1135.90 0.04154
1136.00 0.04152
1136.10 0.04151
1136.20 0.04149
1136.30 0.04148
1136.40 0.04146
1136.50 0.04145
1136.60 0.04144
1136.70 0.04142
1136.80 0.04141
1136.90 0.04139
1137.00 0.04138
1137.10 0.04136
1137.20 0.04135
1137.30 0.04134
1137.40 0.04132
1137.50 0.04131
1137.60 0.04129
1137.70 0.04128
1137.80 0.04127
1137.90 0.04125
1138.00 0.04124
1138.10 0.04122
1138.20 0.04121
1138.30 0.0412
1138.40 0.04118
1138.50 0.04117
1138.60 0.04115
1138.70 0.04114
1138.80 0.04113
1138.90 0.04111
1139.00 0.0411
1139.10 0.04108
1139.20 0.04107
1139.30 0.04105
1139.40 0.04104
1139.50 0.04103
1139.60 0.04101
1139.70 0.041
1139.80 0.04098
1139.90 0.04097
1140.00 0.04096
1140.10 0.04094
1140.20 0.04093
1140.30 0.04091
1140.40 0.0409
1140.50 0.04089
1140.60 0.04087
1140.70 0.04086
1140.80 0.04084
1140.90 0.04083
1141.00 0.04082
1141.10 0.0408
1141.20 0.04079
1141.30 0.04077
1141.40 0.04076
1141.50 0.04075
1141.60 0.04073
1141.70 0.04072
1141.80 0.0407
1141.90 0.04069
1142.00 0.04068
1142.10 0.04066
1142.20 0.04065
1142.30 0.04064
1142.40 0.04062
1142.50 0.04061
1142.60 0.04059
1142.70 0.04058
1142.80 0.04057
1142.90 0.04055
1143.00 0.04054
1143.10 0.04052
1143.20 0.04051
1143.30 0.0405
1143.40 0.04048
1143.50 0.04047
1143.60 0.04046
1143.70 0.04044
1143.80 0.04043
1143.90 0.04041
1144.00 0.0404
1144.10 0.04039
1144.20 0.04037
1144.30 0.04036
1144.40 0.04035
1144.50 0.04033
1144.60 0.04032
1144.70 0.0403
1144.80 0.04029
1144.90 0.04028
1145.00 0.04026
1145.10 0.04025
1145.20 0.04024
1145.30 0.04022
1145.40 0.04021
1145.50 0.04019
1145.60 0.04018
1145.70 0.04017
1145.80 0.04015
1145.90 0.04014
1146.00 0.04013
1146.10 0.04011
1146.20 0.0401
1146.30 0.04008
1146.40 0.04007
1146.50 0.04006
1146.60 0.04004
1146.70 0.04003
1146.80 0.04002
1146.90 0.04
1147.00 0.03999
1147.10 0.03998
1147.20 0.03996
1147.30 0.03995
1147.40 0.03993
1147.50 0.03992
1147.60 0.03991
1147.70 0.03989
1147.80 0.03988
1147.90 0.03987
1148.00 0.03985
1148.10 0.03984
1148.20 0.03983
1148.30 0.03981
1148.40 0.0398
1148.50 0.03979
1148.60 0.03977
1148.70 0.03976
1148.80 0.03975
1148.90 0.03973
1149.00 0.03972
1149.10 0.03971
1149.20 0.03969
1149.30 0.03968
1149.40 0.03966
1149.50 0.03965
1149.60 0.03964
1149.70 0.03962
1149.80 0.03961
1149.90 0.0396
1150.00 0.03958
1150.10 0.03957
1150.20 0.03956
1150.30 0.03954
1150.40 0.03953
1150.50 0.03952
1150.60 0.0395
1150.70 0.03949
1150.80 0.03948
1150.90 0.03946
1151.00 0.03945
1151.10 0.03944
1151.20 0.03942
1151.30 0.03941
1151.40 0.0394
1151.50 0.03938
1151.60 0.03937
1151.70 0.03936
1151.80 0.03934
1151.90 0.03933
1152.00 0.03932
1152.10 0.0393
1152.20 0.03929
1152.30 0.03928
1152.40 0.03926
1152.50 0.03925
1152.60 0.03924
1152.70 0.03922
1152.80 0.03921
1152.90 0.0392
1153.00 0.03918
1153.10 0.03917
1153.20 0.03916
1153.30 0.03914
1153.40 0.03913
1153.50 0.03912
1153.60 0.0391
1153.70 0.03909
1153.80 0.03908
1153.90 0.03906
1154.00 0.03905
1154.10 0.03904
1154.20 0.03902
1154.30 0.03901
1154.40 0.039
1154.50 0.03898
1154.60 0.03897
1154.70 0.03896
1154.80 0.03895
1154.90 0.03893
1155.00 0.03892
1155.10 0.03891
1155.20 0.03889
1155.30 0.03888
1155.40 0.03887
1155.50 0.03885
1155.60 0.03884
1155.70 0.03883
1155.80 0.03881
1155.90 0.0388
1156.00 0.03879
1156.10 0.03877
1156.20 0.03876
1156.30 0.03875
1156.40 0.03873
1156.50 0.03872
1156.60 0.03871
1156.70 0.0387
1156.80 0.03868
1156.90 0.03867
1157.00 0.03866
1157.10 0.03864
1157.20 0.03863
1157.30 0.03862
1157.40 0.0386
1157.50 0.03859
1157.60 0.03858
1157.70 0.03857
1157.80 0.03855
1157.90 0.03854
1158.00 0.03853
1158.10 0.03851
1158.20 0.0385
1158.30 0.03849
1158.40 0.03847
1158.50 0.03846
1158.60 0.03845
1158.70 0.03844
1158.80 0.03842
1158.90 0.03841
1159.00 0.0384
1159.10 0.03838
1159.20 0.03837
1159.30 0.03836
1159.40 0.03834
1159.50 0.03833
1159.60 0.03832
1159.70 0.03831
1159.80 0.03829
1159.90 0.03828
1160.00 0.03827
1160.10 0.03825
1160.20 0.03824
1160.30 0.03823
1160.40 0.03822
1160.50 0.0382
1160.60 0.03819
1160.70 0.03818
1160.80 0.03816
1160.90 0.03815
1161.00 0.03814
1161.10 0.03813
1161.20 0.03811
1161.30 0.0381
1161.40 0.03809
1161.50 0.03807
1161.60 0.03806
1161.70 0.03805
1161.80 0.03804
1161.90 0.03802
1162.00 0.03801
1162.10 0.038
1162.20 0.03798
1162.30 0.03797
1162.40 0.03796
1162.50 0.03795
1162.60 0.03793
1162.70 0.03792
1162.80 0.03791
1162.90 0.0379
1163.00 0.03788
1163.10 0.03787
1163.20 0.03786
1163.30 0.03785
1163.40 0.03783
1163.50 0.03782
1163.60 0.03781
1163.70 0.03779
1163.80 0.03778
1163.90 0.03777
1164.00 0.03776
1164.10 0.03774
1164.20 0.03773
1164.30 0.03772
1164.40 0.03771
1164.50 0.03769
1164.60 0.03768
1164.70 0.03767
1164.80 0.03766
1164.90 0.03764
1165.00 0.03763
1165.10 0.03762
1165.20 0.0376
1165.30 0.03759
1165.40 0.03758
1165.50 0.03757
1165.60 0.03755
1165.70 0.03754
1165.80 0.03753
1165.90 0.03752
1166.00 0.0375
1166.10 0.03749
1166.20 0.03748
1166.30 0.03747
1166.40 0.03745
1166.50 0.03744
1166.60 0.03743
1166.70 0.03742
1166.80 0.0374
1166.90 0.03739
1167.00 0.03738
1167.10 0.03737
1167.20 0.03735
1167.30 0.03734
1167.40 0.03733
1167.50 0.03732
1167.60 0.0373
1167.70 0.03729
1167.80 0.03728
1167.90 0.03727
1168.00 0.03725
1168.10 0.03724
1168.20 0.03723
1168.30 0.03722
1168.40 0.0372
1168.50 0.03719
1168.60 0.03718
1168.70 0.03717
1168.80 0.03715
1168.90 0.03714
1169.00 0.03713
1169.10 0.03712
1169.20 0.0371
1169.30 0.03709
1169.40 0.03708
1169.50 0.03707
1169.60 0.03705
1169.70 0.03704
1169.80 0.03703
1169.90 0.03702
1170.00 0.03701
1170.10 0.03699
1170.20 0.03698
1170.30 0.03697
1170.40 0.03696
1170.50 0.03694
1170.60 0.03693
1170.70 0.03692
1170.80 0.03691
1170.90 0.03689
1171.00 0.03688
1171.10 0.03687
1171.20 0.03686
1171.30 0.03685
1171.40 0.03683
1171.50 0.03682
1171.60 0.03681
1171.70 0.0368
1171.80 0.03678
1171.90 0.03677
1172.00 0.03676
1172.10 0.03675
1172.20 0.03673
1172.30 0.03672
1172.40 0.03671
1172.50 0.0367
1172.60 0.03669
1172.70 0.03667
1172.80 0.03666
1172.90 0.03665
1173.00 0.03664
1173.10 0.03662
1173.20 0.03661
1173.30 0.0366
1173.40 0.03659
1173.50 0.03658
1173.60 0.03656
1173.70 0.03655
1173.80 0.03654
1173.90 0.03653
1174.00 0.03652
1174.10 0.0365
1174.20 0.03649
1174.30 0.03648
1174.40 0.03647
1174.50 0.03645
1174.60 0.03644
1174.70 0.03643
1174.80 0.03642
1174.90 0.03641
1175.00 0.03639
1175.10 0.03638
1175.20 0.03637
1175.30 0.03636
1175.40 0.03635
1175.50 0.03633
1175.60 0.03632
1175.70 0.03631
1175.80 0.0363
1175.90 0.03629
1176.00 0.03627
1176.10 0.03626
1176.20 0.03625
1176.30 0.03624
1176.40 0.03622
1176.50 0.03621
1176.60 0.0362
1176.70 0.03619
1176.80 0.03618
1176.90 0.03616
1177.00 0.03615
1177.10 0.03614
1177.20 0.03613
1177.30 0.03612
1177.40 0.0361
1177.50 0.03609
1177.60 0.03608
1177.70 0.03607
1177.80 0.03606
1177.90 0.03604
1178.00 0.03603
1178.10 0.03602
1178.20 0.03601
1178.30 0.036
1178.40 0.03599
1178.50 0.03597
1178.60 0.03596
1178.70 0.03595
1178.80 0.03594
1178.90 0.03593
1179.00 0.03591
1179.10 0.0359
1179.20 0.03589
1179.30 0.03588
1179.40 0.03587
1179.50 0.03585
1179.60 0.03584
1179.70 0.03583
1179.80 0.03582
1179.90 0.03581
1180.00 0.03579
1180.10 0.03578
1180.20 0.03577
1180.30 0.03576
1180.40 0.03575
1180.50 0.03574
1180.60 0.03572
1180.70 0.03571
1180.80 0.0357
1180.90 0.03569
1181.00 0.03568
1181.10 0.03566
1181.20 0.03565
1181.30 0.03564
1181.40 0.03563
1181.50 0.03562
1181.60 0.03561
1181.70 0.03559
1181.80 0.03558
1181.90 0.03557
1182.00 0.03556
1182.10 0.03555
1182.20 0.03553
1182.30 0.03552
1182.40 0.03551
1182.50 0.0355
1182.60 0.03549
1182.70 0.03548
1182.80 0.03546
1182.90 0.03545
1183.00 0.03544
1183.10 0.03543
1183.20 0.03542
1183.30 0.03541
1183.40 0.03539
1183.50 0.03538
1183.60 0.03537
1183.70 0.03536
1183.80 0.03535
1183.90 0.03534
1184.00 0.03532
1184.10 0.03531
1184.20 0.0353
1184.30 0.03529
1184.40 0.03528
1184.50 0.03527
1184.60 0.03525
1184.70 0.03524
1184.80 0.03523
1184.90 0.03522
1185.00 0.03521
1185.10 0.0352
1185.20 0.03518
1185.30 0.03517
1185.40 0.03516
1185.50 0.03515
1185.60 0.03514
1185.70 0.03513
1185.80 0.03512
1185.90 0.0351
1186.00 0.03509
1186.10 0.03508
1186.20 0.03507
1186.30 0.03506
1186.40 0.03505
1186.50 0.03503
1186.60 0.03502
1186.70 0.03501
1186.80 0.035
1186.90 0.03499
1187.00 0.03498
1187.10 0.03496
1187.20 0.03495
1187.30 0.03494
1187.40 0.03493
1187.50 0.03492
1187.60 0.03491
1187.70 0.0349
1187.80 0.03488
1187.90 0.03487
1188.00 0.03486
1188.10 0.03485
1188.20 0.03484
1188.30 0.03483
1188.40 0.03482
1188.50 0.0348
1188.60 0.03479
1188.70 0.03478
1188.80 0.03477
1188.90 0.03476
1189.00 0.03475
1189.10 0.03474
1189.20 0.03472
1189.30 0.03471
1189.40 0.0347
1189.50 0.03469
1189.60 0.03468
1189.70 0.03467
1189.80 0.03466
1189.90 0.03464
1190.00 0.03463
1190.10 0.03462
1190.20 0.03461
1190.30 0.0346
1190.40 0.03459
1190.50 0.03458
1190.60 0.03457
1190.70 0.03455
1190.80 0.03454
1190.90 0.03453
1191.00 0.03452
1191.10 0.03451
1191.20 0.0345
1191.30 0.03449
1191.40 0.03447
1191.50 0.03446
1191.60 0.03445
1191.70 0.03444
1191.80 0.03443
1191.90 0.03442
1192.00 0.03441
1192.10 0.03439
1192.20 0.03438
1192.30 0.03437
1192.40 0.03436
1192.50 0.03435
1192.60 0.03434
1192.70 0.03433
1192.80 0.03432
1192.90 0.03431
1193.00 0.03429
1193.10 0.03428
1193.20 0.03427
1193.30 0.03426
1193.40 0.03425
1193.50 0.03424
1193.60 0.03423
1193.70 0.03422
1193.80 0.0342
1193.90 0.03419
1194.00 0.03418
1194.10 0.03417
1194.20 0.03416
1194.30 0.03415
1194.40 0.03414
1194.50 0.03413
1194.60 0.03411
1194.70 0.0341
1194.80 0.03409
1194.90 0.03408
1195.00 0.03407
1195.10 0.03406
1195.20 0.03405
1195.30 0.03404
1195.40 0.03403
1195.50 0.03401
1195.60 0.034
1195.70 0.03399
1195.80 0.03398
1195.90 0.03397
1196.00 0.03396
1196.10 0.03395
1196.20 0.03394
1196.30 0.03393
1196.40 0.03391
1196.50 0.0339
1196.60 0.03389
1196.70 0.03388
1196.80 0.03387
1196.90 0.03386
1197.00 0.03385
1197.10 0.03384
1197.20 0.03383
1197.30 0.03381
1197.40 0.0338
1197.50 0.03379
1197.60 0.03378
1197.70 0.03377
1197.80 0.03376
1197.90 0.03375
1198.00 0.03374
1198.10 0.03373
1198.20 0.03372
1198.30 0.0337
1198.40 0.03369
1198.50 0.03368
1198.60 0.03367
1198.70 0.03366
1198.80 0.03365
1198.90 0.03364
1199.00 0.03363
1199.10 0.03362
1199.20 0.03361
1199.30 0.03359
1199.40 0.03358
1199.50 0.03357
1199.60 0.03356
1199.70 0.03355
1199.80 0.03354
1199.90 0.03353
1200.00 0
