# Version 2.1 - nm, norm@500 to 1, cut digits, bergeron_16500_75.dat_16500
# Wavelength(nm)  Flambda(ergs/cm^s/s/nm)
300.00 2.504
300.10 2.502
300.20 2.5
300.30 2.498
300.40 2.496
300.50 2.494
300.60 2.491
300.70 2.489
300.80 2.487
300.90 2.485
301.00 2.483
301.10 2.481
301.20 2.479
301.30 2.477
301.40 2.475
301.50 2.473
301.60 2.471
301.70 2.469
301.80 2.467
301.90 2.465
302.00 2.463
302.10 2.461
302.20 2.459
302.30 2.457
302.40 2.454
302.50 2.452
302.60 2.45
302.70 2.448
302.80 2.446
302.90 2.444
303.00 2.442
303.10 2.44
303.20 2.438
303.30 2.436
303.40 2.434
303.50 2.432
303.60 2.43
303.70 2.428
303.80 2.426
303.90 2.424
304.00 2.422
304.10 2.42
304.20 2.418
304.30 2.416
304.40 2.414
304.50 2.412
304.60 2.41
304.70 2.408
304.80 2.406
304.90 2.404
305.00 2.402
305.10 2.4
305.20 2.398
305.30 2.396
305.40 2.394
305.50 2.392
305.60 2.39
305.70 2.388
305.80 2.386
305.90 2.384
306.00 2.383
306.10 2.381
306.20 2.379
306.30 2.377
306.40 2.375
306.50 2.373
306.60 2.371
306.70 2.369
306.80 2.367
306.90 2.365
307.00 2.363
307.10 2.361
307.20 2.359
307.30 2.357
307.40 2.355
307.50 2.353
307.60 2.352
307.70 2.35
307.80 2.348
307.90 2.346
308.00 2.344
308.10 2.342
308.20 2.34
308.30 2.338
308.40 2.336
308.50 2.334
308.60 2.332
308.70 2.33
308.80 2.329
308.90 2.327
309.00 2.325
309.10 2.323
309.20 2.321
309.30 2.319
309.40 2.317
309.50 2.315
309.60 2.313
309.70 2.312
309.80 2.31
309.90 2.308
310.00 2.306
310.10 2.304
310.20 2.302
310.30 2.3
310.40 2.298
310.50 2.297
310.60 2.295
310.70 2.293
310.80 2.291
310.90 2.289
311.00 2.287
311.10 2.285
311.20 2.284
311.30 2.282
311.40 2.28
311.50 2.278
311.60 2.276
311.70 2.274
311.80 2.273
311.90 2.271
312.00 2.269
312.10 2.267
312.20 2.265
312.30 2.263
312.40 2.262
312.50 2.26
312.60 2.258
312.70 2.256
312.80 2.254
312.90 2.252
313.00 2.251
313.10 2.249
313.20 2.247
313.30 2.245
313.40 2.243
313.50 2.242
313.60 2.24
313.70 2.238
313.80 2.236
313.90 2.235
314.00 2.233
314.10 2.231
314.20 2.229
314.30 2.227
314.40 2.226
314.50 2.224
314.60 2.222
314.70 2.22
314.80 2.218
314.90 2.217
315.00 2.215
315.10 2.213
315.20 2.211
315.30 2.21
315.40 2.208
315.50 2.206
315.60 2.204
315.70 2.202
315.80 2.201
315.90 2.199
316.00 2.197
316.10 2.195
316.20 2.194
316.30 2.192
316.40 2.19
316.50 2.188
316.60 2.187
316.70 2.185
316.80 2.183
316.90 2.181
317.00 2.18
317.10 2.178
317.20 2.176
317.30 2.174
317.40 2.173
317.50 2.171
317.60 2.169
317.70 2.167
317.80 2.166
317.90 2.164
318.00 2.162
318.10 2.161
318.20 2.159
318.30 2.157
318.40 2.155
318.50 2.154
318.60 2.152
318.70 2.15
318.80 2.149
318.90 2.147
319.00 2.145
319.10 2.144
319.20 2.142
319.30 2.14
319.40 2.138
319.50 2.137
319.60 2.135
319.70 2.133
319.80 2.132
319.90 2.13
320.00 2.128
320.10 2.127
320.20 2.125
320.30 2.123
320.40 2.122
320.50 2.12
320.60 2.118
320.70 2.117
320.80 2.115
320.90 2.113
321.00 2.112
321.10 2.11
321.20 2.108
321.30 2.107
321.40 2.105
321.50 2.103
321.60 2.102
321.70 2.1
321.80 2.098
321.90 2.097
322.00 2.095
322.10 2.093
322.20 2.092
322.30 2.09
322.40 2.088
322.50 2.087
322.60 2.085
322.70 2.084
322.80 2.082
322.90 2.08
323.00 2.079
323.10 2.077
323.20 2.075
323.30 2.074
323.40 2.072
323.50 2.071
323.60 2.069
323.70 2.067
323.80 2.066
323.90 2.064
324.00 2.062
324.10 2.061
324.20 2.059
324.30 2.058
324.40 2.056
324.50 2.054
324.60 2.053
324.70 2.051
324.80 2.05
324.90 2.048
325.00 2.046
325.10 2.045
325.20 2.043
325.30 2.042
325.40 2.04
325.50 2.038
325.60 2.037
325.70 2.035
325.80 2.034
325.90 2.032
326.00 2.03
326.10 2.029
326.20 2.027
326.30 2.026
326.40 2.024
326.50 2.023
326.60 2.021
326.70 2.019
326.80 2.018
326.90 2.016
327.00 2.015
327.10 2.013
327.20 2.012
327.30 2.01
327.40 2.009
327.50 2.007
327.60 2.005
327.70 2.004
327.80 2.002
327.90 2.001
328.00 1.999
328.10 1.998
328.20 1.996
328.30 1.995
328.40 1.993
328.50 1.992
328.60 1.99
328.70 1.988
328.80 1.987
328.90 1.985
329.00 1.984
329.10 1.982
329.20 1.981
329.30 1.979
329.40 1.978
329.50 1.976
329.60 1.975
329.70 1.973
329.80 1.972
329.90 1.97
330.00 1.969
330.10 1.967
330.20 1.966
330.30 1.964
330.40 1.963
330.50 1.961
330.60 1.959
330.70 1.958
330.80 1.956
330.90 1.955
331.00 1.953
331.10 1.952
331.20 1.95
331.30 1.949
331.40 1.947
331.50 1.946
331.60 1.944
331.70 1.943
331.80 1.941
331.90 1.94
332.00 1.938
332.10 1.937
332.20 1.935
332.30 1.934
332.40 1.933
332.50 1.931
332.60 1.93
332.70 1.928
332.80 1.927
332.90 1.925
333.00 1.924
333.10 1.922
333.20 1.921
333.30 1.919
333.40 1.918
333.50 1.916
333.60 1.915
333.70 1.913
333.80 1.912
333.90 1.91
334.00 1.909
334.10 1.908
334.20 1.906
334.30 1.905
334.40 1.903
334.50 1.902
334.60 1.9
334.70 1.899
334.80 1.897
334.90 1.896
335.00 1.895
335.10 1.893
335.20 1.892
335.30 1.89
335.40 1.889
335.50 1.887
335.60 1.886
335.70 1.884
335.80 1.883
335.90 1.882
336.00 1.88
336.10 1.879
336.20 1.877
336.30 1.876
336.40 1.874
336.50 1.873
336.60 1.872
336.70 1.87
336.80 1.869
336.90 1.867
337.00 1.866
337.10 1.865
337.20 1.863
337.30 1.862
337.40 1.86
337.50 1.859
337.60 1.858
337.70 1.856
337.80 1.855
337.90 1.853
338.00 1.852
338.10 1.851
338.20 1.849
338.30 1.848
338.40 1.846
338.50 1.845
338.60 1.844
338.70 1.842
338.80 1.841
338.90 1.839
339.00 1.838
339.10 1.837
339.20 1.835
339.30 1.834
339.40 1.832
339.50 1.831
339.60 1.83
339.70 1.828
339.80 1.827
339.90 1.826
340.00 1.824
340.10 1.823
340.20 1.821
340.30 1.82
340.40 1.819
340.50 1.817
340.60 1.816
340.70 1.815
340.80 1.813
340.90 1.812
341.00 1.811
341.10 1.809
341.20 1.808
341.30 1.807
341.40 1.805
341.50 1.804
341.60 1.802
341.70 1.801
341.80 1.8
341.90 1.798
342.00 1.797
342.10 1.796
342.20 1.794
342.30 1.793
342.40 1.792
342.50 1.79
342.60 1.789
342.70 1.788
342.80 1.786
342.90 1.785
343.00 1.784
343.10 1.782
343.20 1.781
343.30 1.78
343.40 1.778
343.50 1.777
343.60 1.776
343.70 1.774
343.80 1.773
343.90 1.772
344.00 1.77
344.10 1.769
344.20 1.768
344.30 1.766
344.40 1.765
344.50 1.764
344.60 1.762
344.70 1.761
344.80 1.76
344.90 1.759
345.00 1.757
345.10 1.756
345.20 1.755
345.30 1.753
345.40 1.752
345.50 1.751
345.60 1.749
345.70 1.748
345.80 1.747
345.90 1.746
346.00 1.744
346.10 1.743
346.20 1.742
346.30 1.74
346.40 1.739
346.50 1.738
346.60 1.736
346.70 1.735
346.80 1.734
346.90 1.733
347.00 1.731
347.10 1.73
347.20 1.729
347.30 1.728
347.40 1.726
347.50 1.725
347.60 1.724
347.70 1.722
347.80 1.721
347.90 1.72
348.00 1.719
348.10 1.717
348.20 1.716
348.30 1.715
348.40 1.714
348.50 1.712
348.60 1.711
348.70 1.71
348.80 1.709
348.90 1.707
349.00 1.706
349.10 1.705
349.20 1.704
349.30 1.702
349.40 1.701
349.50 1.7
349.60 1.699
349.70 1.697
349.80 1.696
349.90 1.695
350.00 1.694
350.10 1.692
350.20 1.691
350.30 1.69
350.40 1.689
350.50 1.687
350.60 1.686
350.70 1.685
350.80 1.684
350.90 1.682
351.00 1.681
351.10 1.68
351.20 1.679
351.30 1.677
351.40 1.676
351.50 1.675
351.60 1.674
351.70 1.673
351.80 1.671
351.90 1.67
352.00 1.669
352.10 1.668
352.20 1.666
352.30 1.665
352.40 1.664
352.50 1.663
352.60 1.662
352.70 1.66
352.80 1.659
352.90 1.658
353.00 1.657
353.10 1.656
353.20 1.654
353.30 1.653
353.40 1.652
353.50 1.651
353.60 1.649
353.70 1.648
353.80 1.647
353.90 1.646
354.00 1.645
354.10 1.643
354.20 1.642
354.30 1.641
354.40 1.64
354.50 1.639
354.60 1.638
354.70 1.636
354.80 1.635
354.90 1.634
355.00 1.633
355.10 1.632
355.20 1.63
355.30 1.629
355.40 1.628
355.50 1.627
355.60 1.626
355.70 1.625
355.80 1.623
355.90 1.622
356.00 1.621
356.10 1.62
356.20 1.619
356.30 1.617
356.40 1.616
356.50 1.615
356.60 1.614
356.70 1.613
356.80 1.612
356.90 1.61
357.00 1.609
357.10 1.608
357.20 1.607
357.30 1.606
357.40 1.605
357.50 1.604
357.60 1.602
357.70 1.601
357.80 1.6
357.90 1.599
358.00 1.598
358.10 1.597
358.20 1.595
358.30 1.594
358.40 1.593
358.50 1.592
358.60 1.591
358.70 1.59
358.80 1.588
358.90 1.587
359.00 1.586
359.10 1.585
359.20 1.584
359.30 1.583
359.40 1.582
359.50 1.58
359.60 1.579
359.70 1.578
359.80 1.577
359.90 1.576
360.00 1.575
360.10 1.574
360.20 1.573
360.30 1.571
360.40 1.57
360.50 1.569
360.60 1.568
360.70 1.567
360.80 1.566
360.90 1.565
361.00 1.564
361.10 1.562
361.20 1.561
361.30 1.56
361.40 1.559
361.50 1.558
361.60 1.557
361.70 1.556
361.80 1.555
361.90 1.553
362.00 1.552
362.10 1.551
362.20 1.55
362.30 1.549
362.40 1.548
362.50 1.547
362.60 1.546
362.70 1.545
362.80 1.543
362.90 1.542
363.00 1.541
363.10 1.54
363.20 1.539
363.30 1.538
363.40 1.537
363.50 1.536
363.60 1.534
363.70 1.533
363.80 1.532
363.90 1.531
364.00 1.53
364.10 1.529
364.20 1.528
364.30 1.526
364.40 1.525
364.50 1.524
364.60 1.523
364.70 1.522
364.80 1.521
364.90 1.519
365.00 1.518
365.10 1.517
365.20 1.516
365.30 1.515
365.40 1.514
365.50 1.513
365.60 1.511
365.70 1.51
365.80 1.509
365.90 1.508
366.00 1.507
366.10 1.506
366.20 1.505
366.30 1.504
366.40 1.503
366.50 1.501
366.60 1.5
366.70 1.499
366.80 1.498
366.90 1.497
367.00 1.496
367.10 1.495
367.20 1.494
367.30 1.493
367.40 1.492
367.50 1.491
367.60 1.49
367.70 1.489
367.80 1.488
367.90 1.487
368.00 1.486
368.10 1.485
368.20 1.484
368.30 1.483
368.40 1.482
368.50 1.482
368.60 1.481
368.70 1.48
368.80 1.479
368.90 1.479
369.00 1.478
369.10 1.477
369.20 1.476
369.30 1.476
369.40 1.475
369.50 1.474
369.60 1.473
369.70 1.473
369.80 1.472
369.90 1.471
370.00 1.47
370.10 1.471
370.20 1.471
370.30 1.471
370.40 1.471
370.50 1.471
370.60 1.471
370.70 1.472
370.80 1.472
370.90 1.472
371.00 1.472
371.10 1.472
371.20 1.472
371.30 1.473
371.40 1.473
371.50 1.473
371.60 1.473
371.70 1.473
371.80 1.473
371.90 1.474
372.00 1.474
372.10 1.475
372.20 1.477
372.30 1.478
372.40 1.479
372.50 1.481
372.60 1.482
372.70 1.484
372.80 1.485
372.90 1.487
373.00 1.488
373.10 1.489
373.20 1.491
373.30 1.492
373.40 1.494
373.50 1.495
373.60 1.496
373.70 1.498
373.80 1.499
373.90 1.501
374.00 1.502
374.10 1.504
374.20 1.506
374.30 1.508
374.40 1.51
374.50 1.512
374.60 1.514
374.70 1.516
374.80 1.518
374.90 1.52
375.00 1.522
375.10 1.524
375.20 1.526
375.30 1.528
375.40 1.53
375.50 1.532
375.60 1.534
375.70 1.536
375.80 1.538
375.90 1.54
376.00 1.542
376.10 1.543
376.20 1.544
376.30 1.545
376.40 1.546
376.50 1.547
376.60 1.548
376.70 1.549
376.80 1.55
376.90 1.551
377.00 1.552
377.10 1.55
377.20 1.549
377.30 1.547
377.40 1.545
377.50 1.543
377.60 1.541
377.70 1.539
377.80 1.537
377.90 1.535
378.00 1.534
378.10 1.523
378.20 1.513
378.30 1.502
378.40 1.492
378.50 1.481
378.60 1.471
378.70 1.461
378.80 1.45
378.90 1.44
379.00 1.429
379.10 1.422
379.20 1.415
379.30 1.407
379.40 1.4
379.50 1.392
379.60 1.385
379.70 1.378
379.80 1.37
379.90 1.363
380.00 1.356
380.10 1.367
380.20 1.378
380.30 1.389
380.40 1.401
380.50 1.412
380.60 1.423
380.70 1.434
380.80 1.446
380.90 1.457
381.00 1.468
381.10 1.472
381.20 1.476
381.30 1.48
381.40 1.485
381.50 1.489
381.60 1.488
381.70 1.485
381.80 1.48
381.90 1.474
382.00 1.466
382.10 1.456
382.20 1.444
382.30 1.422
382.40 1.4
382.50 1.378
382.60 1.357
382.70 1.335
382.80 1.313
382.90 1.291
383.00 1.27
383.10 1.248
383.20 1.226
383.30 1.209
383.40 1.19
383.50 1.169
383.60 1.173
383.70 1.195
383.80 1.213
383.90 1.23
384.00 1.251
384.10 1.275
384.20 1.302
384.30 1.33
384.40 1.357
384.50 1.382
384.60 1.405
384.70 1.426
384.80 1.445
384.90 1.462
385.00 1.476
385.10 1.489
385.20 1.499
385.30 1.509
385.40 1.516
385.50 1.522
385.60 1.528
385.70 1.531
385.80 1.533
385.90 1.535
386.00 1.535
386.10 1.533
386.20 1.531
386.30 1.527
386.40 1.523
386.50 1.517
386.60 1.51
386.70 1.501
386.80 1.492
386.90 1.481
387.00 1.47
387.10 1.457
387.20 1.442
387.30 1.426
387.40 1.41
387.50 1.39
387.60 1.369
387.70 1.346
387.80 1.32
387.90 1.293
388.00 1.263
388.10 1.229
388.20 1.194
388.30 1.157
388.40 1.121
388.50 1.087
388.60 1.056
388.70 1.029
388.80 1.004
388.90 0.98
389.00 1.001
389.10 1.024
389.20 1.051
389.30 1.081
389.40 1.113
389.50 1.149
389.60 1.186
389.70 1.221
389.80 1.255
389.90 1.285
390.00 1.314
390.10 1.341
390.20 1.365
390.30 1.387
390.40 1.409
390.50 1.428
390.60 1.446
390.70 1.464
390.80 1.48
390.90 1.495
391.00 1.51
391.10 1.524
391.20 1.537
391.30 1.55
391.40 1.562
391.50 1.573
391.60 1.583
391.70 1.593
391.80 1.601
391.90 1.609
392.00 1.616
392.10 1.623
392.20 1.628
392.30 1.633
392.40 1.636
392.50 1.639
392.60 1.641
392.70 1.642
392.80 1.642
392.90 1.641
393.00 1.639
393.10 1.637
393.20 1.633
393.30 1.628
393.40 1.623
393.50 1.617
393.60 1.609
393.70 1.601
393.80 1.592
393.90 1.581
394.00 1.571
394.10 1.558
394.20 1.545
394.30 1.532
394.40 1.517
394.50 1.501
394.60 1.485
394.70 1.468
394.80 1.45
394.90 1.432
395.00 1.413
395.10 1.393
395.20 1.373
395.30 1.352
395.40 1.33
395.50 1.307
395.60 1.283
395.70 1.258
395.80 1.233
395.90 1.205
396.00 1.177
396.10 1.147
396.20 1.114
396.30 1.079
396.40 1.042
396.50 1.003
396.60 0.964
396.70 0.9261
396.80 0.8918
396.90 0.8529
397.00 0.8095
397.10 0.8489
397.20 0.8853
397.30 0.9188
397.40 0.9553
397.50 0.9928
397.60 1.031
397.70 1.067
397.80 1.101
397.90 1.133
398.00 1.162
398.10 1.19
398.20 1.216
398.30 1.241
398.40 1.265
398.50 1.288
398.60 1.309
398.70 1.33
398.80 1.351
398.90 1.371
399.00 1.39
399.10 1.409
399.20 1.427
399.30 1.445
399.40 1.463
399.50 1.48
399.60 1.496
399.70 1.513
399.80 1.528
399.90 1.543
400.00 1.557
400.10 1.571
400.20 1.584
400.30 1.597
400.40 1.609
400.50 1.62
400.60 1.631
400.70 1.642
400.80 1.652
400.90 1.661
401.00 1.67
401.10 1.678
401.20 1.686
401.30 1.694
401.40 1.701
401.50 1.707
401.60 1.713
401.70 1.719
401.80 1.724
401.90 1.729
402.00 1.733
402.10 1.737
402.20 1.741
402.30 1.744
402.40 1.747
402.50 1.749
402.60 1.752
402.70 1.753
402.80 1.755
402.90 1.756
403.00 1.757
403.10 1.757
403.20 1.757
403.30 1.757
403.40 1.756
403.50 1.755
403.60 1.754
403.70 1.753
403.80 1.751
403.90 1.749
404.00 1.746
404.10 1.743
404.20 1.74
404.30 1.736
404.40 1.733
404.50 1.728
404.60 1.724
404.70 1.719
404.80 1.714
404.90 1.708
405.00 1.702
405.10 1.696
405.20 1.689
405.30 1.682
405.40 1.674
405.50 1.666
405.60 1.657
405.70 1.649
405.80 1.639
405.90 1.63
406.00 1.62
406.10 1.609
406.20 1.598
406.30 1.586
406.40 1.574
406.50 1.562
406.60 1.549
406.70 1.535
406.80 1.521
406.90 1.507
407.00 1.492
407.10 1.476
407.20 1.46
407.30 1.443
407.40 1.425
407.50 1.408
407.60 1.389
407.70 1.37
407.80 1.351
407.90 1.331
408.00 1.311
408.10 1.29
408.20 1.269
408.30 1.248
408.40 1.227
408.50 1.205
408.60 1.182
408.70 1.16
408.80 1.137
408.90 1.113
409.00 1.089
409.10 1.065
409.20 1.039
409.30 1.013
409.40 0.9848
409.50 0.9544
409.60 0.9224
409.70 0.8876
409.80 0.8522
409.90 0.8164
410.00 0.7759
410.10 0.7358
410.20 0.6961
410.30 0.7513
410.40 0.797
410.50 0.8332
410.60 0.868
410.70 0.9018
410.80 0.9347
410.90 0.9643
411.00 0.9923
411.10 1.019
411.20 1.043
411.30 1.066
411.40 1.089
411.50 1.111
411.60 1.133
411.70 1.154
411.80 1.175
411.90 1.195
412.00 1.215
412.10 1.235
412.20 1.254
412.30 1.273
412.40 1.291
412.50 1.309
412.60 1.327
412.70 1.344
412.80 1.361
412.90 1.378
413.00 1.393
413.10 1.408
413.20 1.423
413.30 1.437
413.40 1.451
413.50 1.464
413.60 1.477
413.70 1.489
413.80 1.501
413.90 1.511
414.00 1.522
414.10 1.533
414.20 1.542
414.30 1.552
414.40 1.561
414.50 1.57
414.60 1.578
414.70 1.586
414.80 1.594
414.90 1.601
415.00 1.608
415.10 1.615
415.20 1.621
415.30 1.627
415.40 1.633
415.50 1.638
415.60 1.644
415.70 1.648
415.80 1.653
415.90 1.658
416.00 1.662
416.10 1.666
416.20 1.67
416.30 1.673
416.40 1.677
416.50 1.68
416.60 1.683
416.70 1.686
416.80 1.689
416.90 1.691
417.00 1.694
417.10 1.696
417.20 1.698
417.30 1.7
417.40 1.702
417.50 1.704
417.60 1.706
417.70 1.707
417.80 1.709
417.90 1.71
418.00 1.711
418.10 1.712
418.20 1.713
418.30 1.714
418.40 1.715
418.50 1.716
418.60 1.716
418.70 1.717
418.80 1.717
418.90 1.718
419.00 1.718
419.10 1.718
419.20 1.719
419.30 1.719
419.40 1.719
419.50 1.719
419.60 1.719
419.70 1.719
419.80 1.718
419.90 1.718
420.00 1.718
420.10 1.717
420.20 1.717
420.30 1.717
420.40 1.716
420.50 1.716
420.60 1.715
420.70 1.714
420.80 1.714
420.90 1.713
421.00 1.712
421.10 1.711
421.20 1.71
421.30 1.71
421.40 1.709
421.50 1.708
421.60 1.707
421.70 1.706
421.80 1.704
421.90 1.703
422.00 1.702
422.10 1.701
422.20 1.7
422.30 1.698
422.40 1.697
422.50 1.695
422.60 1.694
422.70 1.692
422.80 1.691
422.90 1.689
423.00 1.688
423.10 1.686
423.20 1.684
423.30 1.683
423.40 1.681
423.50 1.679
423.60 1.677
423.70 1.675
423.80 1.673
423.90 1.671
424.00 1.669
424.10 1.667
424.20 1.665
424.30 1.663
424.40 1.66
424.50 1.658
424.60 1.656
424.70 1.653
424.80 1.651
424.90 1.648
425.00 1.645
425.10 1.643
425.20 1.64
425.30 1.637
425.40 1.634
425.50 1.631
425.60 1.628
425.70 1.625
425.80 1.622
425.90 1.618
426.00 1.615
426.10 1.611
426.20 1.607
426.30 1.603
426.40 1.6
426.50 1.596
426.60 1.592
426.70 1.588
426.80 1.583
426.90 1.579
427.00 1.575
427.10 1.57
427.20 1.566
427.30 1.561
427.40 1.556
427.50 1.551
427.60 1.546
427.70 1.54
427.80 1.535
427.90 1.53
428.00 1.524
428.10 1.518
428.20 1.512
428.30 1.506
428.40 1.499
428.50 1.493
428.60 1.486
428.70 1.479
428.80 1.472
428.90 1.464
429.00 1.457
429.10 1.449
429.20 1.441
429.30 1.433
429.40 1.424
429.50 1.415
429.60 1.406
429.70 1.397
429.80 1.387
429.90 1.377
430.00 1.367
430.10 1.357
430.20 1.346
430.30 1.335
430.40 1.324
430.50 1.312
430.60 1.3
430.70 1.288
430.80 1.275
430.90 1.262
431.00 1.249
431.10 1.236
431.20 1.222
431.30 1.208
431.40 1.193
431.50 1.178
431.60 1.163
431.70 1.148
431.80 1.132
431.90 1.115
432.00 1.098
432.10 1.081
432.20 1.063
432.30 1.045
432.40 1.026
432.50 1.006
432.60 0.9855
432.70 0.9645
432.80 0.9431
432.90 0.9218
433.00 0.9007
433.10 0.8805
433.20 0.8599
433.30 0.839
433.40 0.8159
433.50 0.7912
433.60 0.7651
433.70 0.735
433.80 0.7019
433.90 0.6657
434.00 0.592
434.10 0.5929
434.20 0.6684
434.30 0.7032
434.40 0.7351
434.50 0.7641
434.60 0.7891
434.70 0.8127
434.80 0.8347
434.90 0.8545
435.00 0.8739
435.10 0.8931
435.20 0.9129
435.30 0.9329
435.40 0.953
435.50 0.9725
435.60 0.9914
435.70 1.01
435.80 1.027
435.90 1.044
436.00 1.06
436.10 1.076
436.20 1.091
436.30 1.105
436.40 1.119
436.50 1.133
436.60 1.147
436.70 1.159
436.80 1.172
436.90 1.184
437.00 1.196
437.10 1.207
437.20 1.218
437.30 1.229
437.40 1.239
437.50 1.249
437.60 1.259
437.70 1.268
437.80 1.277
437.90 1.286
438.00 1.294
438.10 1.303
438.20 1.31
438.30 1.318
438.40 1.325
438.50 1.332
438.60 1.339
438.70 1.345
438.80 1.351
438.90 1.357
439.00 1.363
439.10 1.368
439.20 1.373
439.30 1.378
439.40 1.383
439.50 1.387
439.60 1.392
439.70 1.396
439.80 1.4
439.90 1.404
440.00 1.407
440.10 1.41
440.20 1.414
440.30 1.417
440.40 1.42
440.50 1.423
440.60 1.425
440.70 1.428
440.80 1.43
440.90 1.433
441.00 1.435
441.10 1.437
441.20 1.439
441.30 1.441
441.40 1.443
441.50 1.444
441.60 1.446
441.70 1.447
441.80 1.449
441.90 1.45
442.00 1.451
442.10 1.452
442.20 1.453
442.30 1.455
442.40 1.455
442.50 1.456
442.60 1.457
442.70 1.458
442.80 1.458
442.90 1.459
443.00 1.459
443.10 1.46
443.20 1.46
443.30 1.461
443.40 1.461
443.50 1.461
443.60 1.462
443.70 1.462
443.80 1.462
443.90 1.462
444.00 1.462
444.10 1.462
444.20 1.462
444.30 1.462
444.40 1.462
444.50 1.462
444.60 1.462
444.70 1.462
444.80 1.461
444.90 1.461
445.00 1.461
445.10 1.461
445.20 1.46
445.30 1.46
445.40 1.46
445.50 1.459
445.60 1.459
445.70 1.459
445.80 1.458
445.90 1.458
446.00 1.457
446.10 1.457
446.20 1.456
446.30 1.456
446.40 1.455
446.50 1.455
446.60 1.454
446.70 1.453
446.80 1.453
446.90 1.452
447.00 1.452
447.10 1.451
447.20 1.45
447.30 1.45
447.40 1.449
447.50 1.448
447.60 1.448
447.70 1.447
447.80 1.446
447.90 1.446
448.00 1.445
448.10 1.444
448.20 1.443
448.30 1.443
448.40 1.442
448.50 1.441
448.60 1.44
448.70 1.44
448.80 1.439
448.90 1.438
449.00 1.437
449.10 1.437
449.20 1.436
449.30 1.435
449.40 1.434
449.50 1.433
449.60 1.432
449.70 1.432
449.80 1.431
449.90 1.43
450.00 1.429
450.10 1.428
450.20 1.427
450.30 1.427
450.40 1.426
450.50 1.425
450.60 1.424
450.70 1.423
450.80 1.422
450.90 1.421
451.00 1.42
451.10 1.42
451.20 1.419
451.30 1.418
451.40 1.417
451.50 1.416
451.60 1.415
451.70 1.414
451.80 1.413
451.90 1.412
452.00 1.411
452.10 1.41
452.20 1.41
452.30 1.409
452.40 1.408
452.50 1.407
452.60 1.406
452.70 1.405
452.80 1.404
452.90 1.403
453.00 1.402
453.10 1.401
453.20 1.4
453.30 1.399
453.40 1.398
453.50 1.397
453.60 1.397
453.70 1.396
453.80 1.395
453.90 1.394
454.00 1.393
454.10 1.392
454.20 1.391
454.30 1.39
454.40 1.389
454.50 1.388
454.60 1.387
454.70 1.386
454.80 1.385
454.90 1.384
455.00 1.383
455.10 1.382
455.20 1.381
455.30 1.38
455.40 1.379
455.50 1.378
455.60 1.377
455.70 1.377
455.80 1.376
455.90 1.375
456.00 1.374
456.10 1.373
456.20 1.372
456.30 1.371
456.40 1.37
456.50 1.369
456.60 1.368
456.70 1.367
456.80 1.366
456.90 1.365
457.00 1.364
457.10 1.363
457.20 1.362
457.30 1.361
457.40 1.36
457.50 1.359
457.60 1.358
457.70 1.357
457.80 1.356
457.90 1.355
458.00 1.354
458.10 1.353
458.20 1.352
458.30 1.352
458.40 1.351
458.50 1.35
458.60 1.349
458.70 1.348
458.80 1.347
458.90 1.346
459.00 1.345
459.10 1.344
459.20 1.343
459.30 1.342
459.40 1.341
459.50 1.34
459.60 1.339
459.70 1.338
459.80 1.337
459.90 1.336
460.00 1.335
460.10 1.334
460.20 1.333
460.30 1.332
460.40 1.331
460.50 1.33
460.60 1.329
460.70 1.328
460.80 1.327
460.90 1.326
461.00 1.325
461.10 1.324
461.20 1.323
461.30 1.322
461.40 1.321
461.50 1.32
461.60 1.319
461.70 1.318
461.80 1.317
461.90 1.316
462.00 1.315
462.10 1.314
462.20 1.313
462.30 1.312
462.40 1.311
462.50 1.31
462.60 1.309
462.70 1.308
462.80 1.307
462.90 1.306
463.00 1.305
463.10 1.304
463.20 1.303
463.30 1.302
463.40 1.301
463.50 1.3
463.60 1.299
463.70 1.298
463.80 1.297
463.90 1.296
464.00 1.295
464.10 1.294
464.20 1.293
464.30 1.292
464.40 1.291
464.50 1.29
464.60 1.289
464.70 1.288
464.80 1.287
464.90 1.286
465.00 1.285
465.10 1.284
465.20 1.283
465.30 1.282
465.40 1.281
465.50 1.28
465.60 1.279
465.70 1.278
465.80 1.277
465.90 1.276
466.00 1.275
466.10 1.274
466.20 1.273
466.30 1.272
466.40 1.271
466.50 1.27
466.60 1.269
466.70 1.267
466.80 1.266
466.90 1.265
467.00 1.264
467.10 1.263
467.20 1.262
467.30 1.261
467.40 1.26
467.50 1.259
467.60 1.258
467.70 1.257
467.80 1.256
467.90 1.255
468.00 1.254
468.10 1.253
468.20 1.252
468.30 1.251
468.40 1.25
468.50 1.248
468.60 1.247
468.70 1.246
468.80 1.245
468.90 1.244
469.00 1.243
469.10 1.242
469.20 1.241
469.30 1.24
469.40 1.239
469.50 1.237
469.60 1.236
469.70 1.235
469.80 1.234
469.90 1.233
470.00 1.232
470.10 1.231
470.20 1.23
470.30 1.228
470.40 1.227
470.50 1.226
470.60 1.225
470.70 1.224
470.80 1.223
470.90 1.222
471.00 1.221
471.10 1.219
471.20 1.218
471.30 1.217
471.40 1.216
471.50 1.215
471.60 1.213
471.70 1.212
471.80 1.211
471.90 1.21
472.00 1.209
472.10 1.207
472.20 1.206
472.30 1.205
472.40 1.203
472.50 1.202
472.60 1.201
472.70 1.2
472.80 1.198
472.90 1.197
473.00 1.196
473.10 1.194
473.20 1.193
473.30 1.192
473.40 1.19
473.50 1.189
473.60 1.187
473.70 1.186
473.80 1.185
473.90 1.183
474.00 1.182
474.10 1.18
474.20 1.179
474.30 1.177
474.40 1.176
474.50 1.174
474.60 1.173
474.70 1.171
474.80 1.17
474.90 1.168
475.00 1.167
475.10 1.165
475.20 1.163
475.30 1.162
475.40 1.16
475.50 1.158
475.60 1.156
475.70 1.155
475.80 1.153
475.90 1.151
476.00 1.15
476.10 1.148
476.20 1.146
476.30 1.144
476.40 1.142
476.50 1.14
476.60 1.138
476.70 1.136
476.80 1.134
476.90 1.132
477.00 1.13
477.10 1.128
477.20 1.126
477.30 1.124
477.40 1.121
477.50 1.119
477.60 1.116
477.70 1.114
477.80 1.112
477.90 1.109
478.00 1.107
478.10 1.105
478.20 1.102
478.30 1.099
478.40 1.096
478.50 1.093
478.60 1.091
478.70 1.088
478.80 1.085
478.90 1.082
479.00 1.079
479.10 1.076
479.20 1.073
479.30 1.069
479.40 1.066
479.50 1.062
479.60 1.059
479.70 1.055
479.80 1.052
479.90 1.048
480.00 1.045
480.10 1.041
480.20 1.037
480.30 1.032
480.40 1.028
480.50 1.023
480.60 1.019
480.70 1.014
480.80 1.01
480.90 1.005
481.00 1.001
481.10 0.9963
481.20 0.9909
481.30 0.9851
481.40 0.9793
481.50 0.9734
481.60 0.9676
481.70 0.9618
481.80 0.956
481.90 0.9502
482.00 0.9444
482.10 0.9386
482.20 0.9317
482.30 0.9242
482.40 0.9167
482.50 0.9092
482.60 0.9018
482.70 0.8943
482.80 0.8868
482.90 0.8794
483.00 0.8719
483.10 0.8645
483.20 0.8556
483.30 0.8461
483.40 0.8365
483.50 0.827
483.60 0.8175
483.70 0.808
483.80 0.7985
483.90 0.789
484.00 0.7795
484.10 0.77
484.20 0.7595
484.30 0.7485
484.40 0.7375
484.50 0.7265
484.60 0.7155
484.70 0.7039
484.80 0.692
484.90 0.6802
485.00 0.6683
485.10 0.6565
485.20 0.6443
485.30 0.6321
485.40 0.6192
485.50 0.6061
485.60 0.5917
485.70 0.5767
485.80 0.558
485.90 0.5376
486.00 0.5088
486.10 0.4266
486.20 0.4664
486.30 0.5202
486.40 0.543
486.50 0.5631
486.60 0.5793
486.70 0.5937
486.80 0.6067
486.90 0.6192
487.00 0.631
487.10 0.6425
487.20 0.6537
487.30 0.6647
487.40 0.6758
487.50 0.6868
487.60 0.6978
487.70 0.7081
487.80 0.7181
487.90 0.7281
488.00 0.7381
488.10 0.7481
488.20 0.7569
488.30 0.7653
488.40 0.7736
488.50 0.7819
488.60 0.7902
488.70 0.7986
488.80 0.8069
488.90 0.8152
489.00 0.8234
489.10 0.8317
489.20 0.8385
489.30 0.8446
489.40 0.8507
489.50 0.8567
489.60 0.8628
489.70 0.8688
489.80 0.8749
489.90 0.8809
490.00 0.887
490.10 0.893
490.20 0.8978
490.30 0.9021
490.40 0.9064
490.50 0.9107
490.60 0.9149
490.70 0.9192
490.80 0.9234
490.90 0.9277
491.00 0.932
491.10 0.9362
491.20 0.9395
491.30 0.9424
491.40 0.9453
491.50 0.9481
491.60 0.951
491.70 0.9538
491.80 0.9567
491.90 0.9596
492.00 0.9624
492.10 0.9653
492.20 0.9674
492.30 0.9693
492.40 0.9712
492.50 0.973
492.60 0.9749
492.70 0.9768
492.80 0.9786
492.90 0.9805
493.00 0.9824
493.10 0.9842
493.20 0.9856
493.30 0.9868
493.40 0.988
493.50 0.9892
493.60 0.9903
493.70 0.9915
493.80 0.9927
493.90 0.9939
494.00 0.9951
494.10 0.9962
494.20 0.9971
494.30 0.9977
494.40 0.9984
494.50 0.999
494.60 0.9997
494.70 1
494.80 1.001
494.90 1.002
495.00 1.002
495.10 1.003
495.20 1.003
495.30 1.004
495.40 1.004
495.50 1.004
495.60 1.005
495.70 1.005
495.80 1.005
495.90 1.006
496.00 1.006
496.10 1.006
496.20 1.006
496.30 1.006
496.40 1.006
496.50 1.006
496.60 1.006
496.70 1.006
496.80 1.007
496.90 1.007
497.00 1.007
497.10 1.007
497.20 1.007
497.30 1.007
497.40 1.006
497.50 1.006
497.60 1.006
497.70 1.006
497.80 1.006
497.90 1.006
498.00 1.006
498.10 1.006
498.20 1.005
498.30 1.005
498.40 1.005
498.50 1.005
498.60 1.004
498.70 1.004
498.80 1.004
498.90 1.004
499.00 1.003
499.10 1.003
499.20 1.003
499.30 1.002
499.40 1.002
499.50 1.002
499.60 1.001
499.70 1.001
499.80 1.001
499.90 1
500.00 1
500.10 0.9997
500.20 0.9993
500.30 0.9989
500.40 0.9985
500.50 0.998
500.60 0.9976
500.70 0.9972
500.80 0.9968
500.90 0.9964
501.00 0.996
501.10 0.9956
501.20 0.9952
501.30 0.9947
501.40 0.9942
501.50 0.9938
501.60 0.9933
501.70 0.9929
501.80 0.9924
501.90 0.9919
502.00 0.9915
502.10 0.991
502.20 0.9905
502.30 0.99
502.40 0.9895
502.50 0.989
502.60 0.9885
502.70 0.988
502.80 0.9875
502.90 0.9871
503.00 0.9866
503.10 0.9861
503.20 0.9856
503.30 0.985
503.40 0.9845
503.50 0.984
503.60 0.9835
503.70 0.9829
503.80 0.9824
503.90 0.9819
504.00 0.9814
504.10 0.9809
504.20 0.9803
504.30 0.9798
504.40 0.9792
504.50 0.9787
504.60 0.9781
504.70 0.9776
504.80 0.977
504.90 0.9765
505.00 0.9759
505.10 0.9754
505.20 0.9748
505.30 0.9743
505.40 0.9737
505.50 0.9732
505.60 0.9726
505.70 0.9721
505.80 0.9715
505.90 0.9709
506.00 0.9704
506.10 0.9698
506.20 0.9693
506.30 0.9687
506.40 0.9681
506.50 0.9675
506.60 0.967
506.70 0.9664
506.80 0.9658
506.90 0.9653
507.00 0.9647
507.10 0.9641
507.20 0.9636
507.30 0.963
507.40 0.9624
507.50 0.9618
507.60 0.9612
507.70 0.9607
507.80 0.9601
507.90 0.9595
508.00 0.9589
508.10 0.9584
508.20 0.9578
508.30 0.9572
508.40 0.9566
508.50 0.956
508.60 0.9554
508.70 0.9549
508.80 0.9543
508.90 0.9537
509.00 0.9531
509.10 0.9525
509.20 0.952
509.30 0.9514
509.40 0.9508
509.50 0.9502
509.60 0.9496
509.70 0.9491
509.80 0.9485
509.90 0.9479
510.00 0.9473
510.10 0.9467
510.20 0.9462
510.30 0.9456
510.40 0.945
510.50 0.9444
510.60 0.9438
510.70 0.9432
510.80 0.9426
510.90 0.942
511.00 0.9414
511.10 0.9409
511.20 0.9403
511.30 0.9397
511.40 0.9391
511.50 0.9385
511.60 0.9379
511.70 0.9373
511.80 0.9367
511.90 0.9361
512.00 0.9355
512.10 0.9349
512.20 0.9343
512.30 0.9338
512.40 0.9332
512.50 0.9326
512.60 0.932
512.70 0.9314
512.80 0.9308
512.90 0.9302
513.00 0.9296
513.10 0.9291
513.20 0.9285
513.30 0.9279
513.40 0.9273
513.50 0.9267
513.60 0.9261
513.70 0.9255
513.80 0.925
513.90 0.9244
514.00 0.9238
514.10 0.9232
514.20 0.9226
514.30 0.9221
514.40 0.9215
514.50 0.9209
514.60 0.9203
514.70 0.9197
514.80 0.9191
514.90 0.9186
515.00 0.918
515.10 0.9174
515.20 0.9168
515.30 0.9162
515.40 0.9157
515.50 0.9151
515.60 0.9145
515.70 0.9139
515.80 0.9133
515.90 0.9127
516.00 0.9122
516.10 0.9116
516.20 0.911
516.30 0.9104
516.40 0.9098
516.50 0.9093
516.60 0.9087
516.70 0.9081
516.80 0.9075
516.90 0.9069
517.00 0.9064
517.10 0.9058
517.20 0.9052
517.30 0.9046
517.40 0.904
517.50 0.9035
517.60 0.9029
517.70 0.9023
517.80 0.9017
517.90 0.9012
518.00 0.9006
518.10 0.9
518.20 0.8994
518.30 0.8989
518.40 0.8983
518.50 0.8977
518.60 0.8971
518.70 0.8965
518.80 0.896
518.90 0.8954
519.00 0.8948
519.10 0.8942
519.20 0.8937
519.30 0.8931
519.40 0.8925
519.50 0.8919
519.60 0.8914
519.70 0.8908
519.80 0.8902
519.90 0.8897
520.00 0.8891
520.10 0.8885
520.20 0.888
520.30 0.8874
520.40 0.8868
520.50 0.8863
520.60 0.8857
520.70 0.8851
520.80 0.8846
520.90 0.884
521.00 0.8835
521.10 0.8829
521.20 0.8823
521.30 0.8818
521.40 0.8812
521.50 0.8806
521.60 0.88
521.70 0.8795
521.80 0.8789
521.90 0.8783
522.00 0.8778
522.10 0.8772
522.20 0.8766
522.30 0.8761
522.40 0.8755
522.50 0.875
522.60 0.8744
522.70 0.8739
522.80 0.8733
522.90 0.8727
523.00 0.8722
523.10 0.8716
523.20 0.8711
523.30 0.8705
523.40 0.87
523.50 0.8694
523.60 0.8688
523.70 0.8683
523.80 0.8677
523.90 0.8671
524.00 0.8666
524.10 0.866
524.20 0.8655
524.30 0.8649
524.40 0.8644
524.50 0.8638
524.60 0.8633
524.70 0.8627
524.80 0.8622
524.90 0.8616
525.00 0.8611
525.10 0.8605
525.20 0.86
525.30 0.8594
525.40 0.8589
525.50 0.8583
525.60 0.8578
525.70 0.8572
525.80 0.8567
525.90 0.8561
526.00 0.8556
526.10 0.8551
526.20 0.8545
526.30 0.854
526.40 0.8534
526.50 0.8529
526.60 0.8523
526.70 0.8518
526.80 0.8512
526.90 0.8507
527.00 0.8501
527.10 0.8496
527.20 0.849
527.30 0.8485
527.40 0.8479
527.50 0.8474
527.60 0.8469
527.70 0.8463
527.80 0.8458
527.90 0.8452
528.00 0.8447
528.10 0.8442
528.20 0.8436
528.30 0.8431
528.40 0.8426
528.50 0.842
528.60 0.8415
528.70 0.8409
528.80 0.8404
528.90 0.8399
529.00 0.8393
529.10 0.8388
529.20 0.8383
529.30 0.8377
529.40 0.8372
529.50 0.8367
529.60 0.8361
529.70 0.8356
529.80 0.8351
529.90 0.8345
530.00 0.834
530.10 0.8335
530.20 0.8329
530.30 0.8324
530.40 0.8319
530.50 0.8314
530.60 0.8308
530.70 0.8303
530.80 0.8298
530.90 0.8292
531.00 0.8287
531.10 0.8282
531.20 0.8277
531.30 0.8271
531.40 0.8266
531.50 0.8261
531.60 0.8255
531.70 0.825
531.80 0.8245
531.90 0.824
532.00 0.8234
532.10 0.8229
532.20 0.8224
532.30 0.8219
532.40 0.8213
532.50 0.8208
532.60 0.8203
532.70 0.8198
532.80 0.8193
532.90 0.8187
533.00 0.8182
533.10 0.8177
533.20 0.8172
533.30 0.8167
533.40 0.8161
533.50 0.8156
533.60 0.8151
533.70 0.8146
533.80 0.8141
533.90 0.8135
534.00 0.813
534.10 0.8125
534.20 0.812
534.30 0.8115
534.40 0.8109
534.50 0.8104
534.60 0.8099
534.70 0.8094
534.80 0.8089
534.90 0.8084
535.00 0.8079
535.10 0.8073
535.20 0.8068
535.30 0.8063
535.40 0.8058
535.50 0.8053
535.60 0.8048
535.70 0.8043
535.80 0.8038
535.90 0.8033
536.00 0.8028
536.10 0.8023
536.20 0.8018
536.30 0.8013
536.40 0.8007
536.50 0.8002
536.60 0.7997
536.70 0.7992
536.80 0.7987
536.90 0.7982
537.00 0.7977
537.10 0.7972
537.20 0.7967
537.30 0.7962
537.40 0.7957
537.50 0.7952
537.60 0.7947
537.70 0.7942
537.80 0.7937
537.90 0.7932
538.00 0.7927
538.10 0.7922
538.20 0.7917
538.30 0.7912
538.40 0.7907
538.50 0.7902
538.60 0.7897
538.70 0.7892
538.80 0.7887
538.90 0.7882
539.00 0.7877
539.10 0.7872
539.20 0.7867
539.30 0.7862
539.40 0.7857
539.50 0.7852
539.60 0.7847
539.70 0.7842
539.80 0.7837
539.90 0.7832
540.00 0.7827
540.10 0.7822
540.20 0.7817
540.30 0.7812
540.40 0.7807
540.50 0.7803
540.60 0.7798
540.70 0.7793
540.80 0.7788
540.90 0.7783
541.00 0.7778
541.10 0.7773
541.20 0.7768
541.30 0.7763
541.40 0.7758
541.50 0.7754
541.60 0.7749
541.70 0.7744
541.80 0.7739
541.90 0.7734
542.00 0.7729
542.10 0.7724
542.20 0.7719
542.30 0.7715
542.40 0.771
542.50 0.7705
542.60 0.77
542.70 0.7695
542.80 0.769
542.90 0.7686
543.00 0.7681
543.10 0.7676
543.20 0.7671
543.30 0.7666
543.40 0.7661
543.50 0.7657
543.60 0.7652
543.70 0.7647
543.80 0.7642
543.90 0.7637
544.00 0.7633
544.10 0.7628
544.20 0.7623
544.30 0.7618
544.40 0.7614
544.50 0.7609
544.60 0.7604
544.70 0.7599
544.80 0.7595
544.90 0.759
545.00 0.7585
545.10 0.7581
545.20 0.7576
545.30 0.7571
545.40 0.7566
545.50 0.7562
545.60 0.7557
545.70 0.7552
545.80 0.7547
545.90 0.7543
546.00 0.7538
546.10 0.7533
546.20 0.7529
546.30 0.7524
546.40 0.752
546.50 0.7515
546.60 0.7511
546.70 0.7506
546.80 0.7502
546.90 0.7497
547.00 0.7493
547.10 0.7488
547.20 0.7484
547.30 0.7479
547.40 0.7474
547.50 0.747
547.60 0.7465
547.70 0.746
547.80 0.7456
547.90 0.7451
548.00 0.7447
548.10 0.7442
548.20 0.7437
548.30 0.7433
548.40 0.7428
548.50 0.7424
548.60 0.7419
548.70 0.7414
548.80 0.741
548.90 0.7405
549.00 0.7401
549.10 0.7396
549.20 0.7391
549.30 0.7387
549.40 0.7382
549.50 0.7377
549.60 0.7373
549.70 0.7368
549.80 0.7363
549.90 0.7359
550.00 0.7354
550.10 0.735
550.20 0.7345
550.30 0.734
550.40 0.7336
550.50 0.7331
550.60 0.7327
550.70 0.7322
550.80 0.7318
550.90 0.7313
551.00 0.7309
551.10 0.7304
551.20 0.73
551.30 0.7295
551.40 0.729
551.50 0.7286
551.60 0.7281
551.70 0.7277
551.80 0.7272
551.90 0.7268
552.00 0.7263
552.10 0.7259
552.20 0.7254
552.30 0.725
552.40 0.7245
552.50 0.7241
552.60 0.7236
552.70 0.7232
552.80 0.7227
552.90 0.7223
553.00 0.7218
553.10 0.7214
553.20 0.721
553.30 0.7205
553.40 0.7201
553.50 0.7196
553.60 0.7192
553.70 0.7188
553.80 0.7183
553.90 0.7179
554.00 0.7174
554.10 0.717
554.20 0.7165
554.30 0.7161
554.40 0.7157
554.50 0.7152
554.60 0.7148
554.70 0.7143
554.80 0.7139
554.90 0.7134
555.00 0.713
555.10 0.7126
555.20 0.7121
555.30 0.7117
555.40 0.7112
555.50 0.7108
555.60 0.7104
555.70 0.7099
555.80 0.7095
555.90 0.709
556.00 0.7086
556.10 0.7081
556.20 0.7077
556.30 0.7073
556.40 0.7068
556.50 0.7064
556.60 0.706
556.70 0.7055
556.80 0.7051
556.90 0.7047
557.00 0.7043
557.10 0.7038
557.20 0.7034
557.30 0.703
557.40 0.7025
557.50 0.7021
557.60 0.7017
557.70 0.7012
557.80 0.7008
557.90 0.7004
558.00 0.7
558.10 0.6995
558.20 0.6991
558.30 0.6987
558.40 0.6982
558.50 0.6978
558.60 0.6974
558.70 0.697
558.80 0.6965
558.90 0.6961
559.00 0.6957
559.10 0.6953
559.20 0.6948
559.30 0.6944
559.40 0.694
559.50 0.6936
559.60 0.6931
559.70 0.6927
559.80 0.6923
559.90 0.6919
560.00 0.6914
560.10 0.691
560.20 0.6906
560.30 0.6902
560.40 0.6897
560.50 0.6893
560.60 0.6889
560.70 0.6885
560.80 0.6881
560.90 0.6876
561.00 0.6872
561.10 0.6868
561.20 0.6864
561.30 0.686
561.40 0.6855
561.50 0.6851
561.60 0.6847
561.70 0.6843
561.80 0.6839
561.90 0.6834
562.00 0.683
562.10 0.6826
562.20 0.6822
562.30 0.6818
562.40 0.6813
562.50 0.6809
562.60 0.6805
562.70 0.6801
562.80 0.6797
562.90 0.6793
563.00 0.6788
563.10 0.6784
563.20 0.678
563.30 0.6776
563.40 0.6772
563.50 0.6768
563.60 0.6764
563.70 0.676
563.80 0.6756
563.90 0.6752
564.00 0.6748
564.10 0.6743
564.20 0.6739
564.30 0.6735
564.40 0.6731
564.50 0.6727
564.60 0.6723
564.70 0.6719
564.80 0.6715
564.90 0.6711
565.00 0.6706
565.10 0.6702
565.20 0.6698
565.30 0.6694
565.40 0.669
565.50 0.6686
565.60 0.6682
565.70 0.6678
565.80 0.6674
565.90 0.667
566.00 0.6666
566.10 0.6662
566.20 0.6658
566.30 0.6654
566.40 0.665
566.50 0.6646
566.60 0.6642
566.70 0.6638
566.80 0.6634
566.90 0.663
567.00 0.6626
567.10 0.6622
567.20 0.6618
567.30 0.6614
567.40 0.661
567.50 0.6606
567.60 0.6602
567.70 0.6598
567.80 0.6594
567.90 0.659
568.00 0.6585
568.10 0.6581
568.20 0.6577
568.30 0.6573
568.40 0.657
568.50 0.6566
568.60 0.6562
568.70 0.6558
568.80 0.6554
568.90 0.655
569.00 0.6546
569.10 0.6542
569.20 0.6538
569.30 0.6534
569.40 0.653
569.50 0.6526
569.60 0.6522
569.70 0.6518
569.80 0.6515
569.90 0.6511
570.00 0.6507
570.10 0.6503
570.20 0.6499
570.30 0.6495
570.40 0.6491
570.50 0.6487
570.60 0.6483
570.70 0.6479
570.80 0.6476
570.90 0.6472
571.00 0.6468
571.10 0.6464
571.20 0.646
571.30 0.6456
571.40 0.6452
571.50 0.6448
571.60 0.6444
571.70 0.644
571.80 0.6437
571.90 0.6433
572.00 0.6429
572.10 0.6425
572.20 0.6421
572.30 0.6417
572.40 0.6413
572.50 0.641
572.60 0.6406
572.70 0.6402
572.80 0.6398
572.90 0.6394
573.00 0.6391
573.10 0.6387
573.20 0.6383
573.30 0.6379
573.40 0.6375
573.50 0.6371
573.60 0.6368
573.70 0.6364
573.80 0.636
573.90 0.6356
574.00 0.6352
574.10 0.6348
574.20 0.6345
574.30 0.6341
574.40 0.6337
574.50 0.6333
574.60 0.6329
574.70 0.6326
574.80 0.6322
574.90 0.6318
575.00 0.6314
575.10 0.6311
575.20 0.6307
575.30 0.6303
575.40 0.6299
575.50 0.6296
575.60 0.6292
575.70 0.6288
575.80 0.6284
575.90 0.6281
576.00 0.6277
576.10 0.6273
576.20 0.6269
576.30 0.6266
576.40 0.6262
576.50 0.6258
576.60 0.6254
576.70 0.625
576.80 0.6247
576.90 0.6243
577.00 0.6239
577.10 0.6235
577.20 0.6232
577.30 0.6228
577.40 0.6224
577.50 0.6221
577.60 0.6217
577.70 0.6213
577.80 0.6209
577.90 0.6206
578.00 0.6202
578.10 0.6198
578.20 0.6195
578.30 0.6191
578.40 0.6187
578.50 0.6184
578.60 0.618
578.70 0.6176
578.80 0.6173
578.90 0.6169
579.00 0.6165
579.10 0.6162
579.20 0.6158
579.30 0.6154
579.40 0.6151
579.50 0.6147
579.60 0.6144
579.70 0.614
579.80 0.6136
579.90 0.6133
580.00 0.6129
580.10 0.6126
580.20 0.6122
580.30 0.6118
580.40 0.6115
580.50 0.6111
580.60 0.6107
580.70 0.6104
580.80 0.61
580.90 0.6096
581.00 0.6093
581.10 0.6089
581.20 0.6086
581.30 0.6082
581.40 0.6078
581.50 0.6075
581.60 0.6071
581.70 0.6067
581.80 0.6064
581.90 0.606
582.00 0.6057
582.10 0.6053
582.20 0.6049
582.30 0.6046
582.40 0.6042
582.50 0.6039
582.60 0.6035
582.70 0.6032
582.80 0.6028
582.90 0.6025
583.00 0.6021
583.10 0.6018
583.20 0.6014
583.30 0.6011
583.40 0.6007
583.50 0.6003
583.60 0.6
583.70 0.5996
583.80 0.5993
583.90 0.5989
584.00 0.5986
584.10 0.5982
584.20 0.5978
584.30 0.5975
584.40 0.5971
584.50 0.5968
584.60 0.5964
584.70 0.5961
584.80 0.5957
584.90 0.5954
585.00 0.595
585.10 0.5947
585.20 0.5943
585.30 0.594
585.40 0.5937
585.50 0.5933
585.60 0.593
585.70 0.5926
585.80 0.5923
585.90 0.5919
586.00 0.5916
586.10 0.5912
586.20 0.5909
586.30 0.5905
586.40 0.5902
586.50 0.5898
586.60 0.5895
586.70 0.5891
586.80 0.5888
586.90 0.5885
587.00 0.5881
587.10 0.5878
587.20 0.5874
587.30 0.5871
587.40 0.5867
587.50 0.5864
587.60 0.586
587.70 0.5857
587.80 0.5854
587.90 0.585
588.00 0.5847
588.10 0.5843
588.20 0.584
588.30 0.5836
588.40 0.5833
588.50 0.583
588.60 0.5826
588.70 0.5823
588.80 0.5819
588.90 0.5816
589.00 0.5812
589.10 0.5809
589.20 0.5806
589.30 0.5802
589.40 0.5799
589.50 0.5795
589.60 0.5792
589.70 0.5789
589.80 0.5785
589.90 0.5782
590.00 0.5778
590.10 0.5775
590.20 0.5772
590.30 0.5768
590.40 0.5765
590.50 0.5762
590.60 0.5758
590.70 0.5755
590.80 0.5752
590.90 0.5748
591.00 0.5745
591.10 0.5742
591.20 0.5738
591.30 0.5735
591.40 0.5732
591.50 0.5728
591.60 0.5725
591.70 0.5722
591.80 0.5718
591.90 0.5715
592.00 0.5712
592.10 0.5708
592.20 0.5705
592.30 0.5702
592.40 0.5698
592.50 0.5695
592.60 0.5692
592.70 0.5688
592.80 0.5685
592.90 0.5682
593.00 0.5678
593.10 0.5675
593.20 0.5672
593.30 0.5668
593.40 0.5665
593.50 0.5662
593.60 0.5658
593.70 0.5655
593.80 0.5652
593.90 0.5649
594.00 0.5645
594.10 0.5642
594.20 0.5639
594.30 0.5636
594.40 0.5632
594.50 0.5629
594.60 0.5626
594.70 0.5623
594.80 0.5619
594.90 0.5616
595.00 0.5613
595.10 0.561
595.20 0.5606
595.30 0.5603
595.40 0.56
595.50 0.5597
595.60 0.5594
595.70 0.559
595.80 0.5587
595.90 0.5584
596.00 0.5581
596.10 0.5577
596.20 0.5574
596.30 0.557
596.40 0.5567
596.50 0.5563
596.60 0.5559
596.70 0.5556
596.80 0.5552
596.90 0.5549
597.00 0.5545
597.10 0.5541
597.20 0.5538
597.30 0.5535
597.40 0.5531
597.50 0.5528
597.60 0.5525
597.70 0.5522
597.80 0.5518
597.90 0.5515
598.00 0.5512
598.10 0.5509
598.20 0.5506
598.30 0.5502
598.40 0.5499
598.50 0.5496
598.60 0.5493
598.70 0.549
598.80 0.5486
598.90 0.5483
599.00 0.548
599.10 0.5477
599.20 0.5474
599.30 0.5471
599.40 0.5467
599.50 0.5464
599.60 0.5461
599.70 0.5458
599.80 0.5455
599.90 0.5452
600.00 0.5449
600.10 0.5445
600.20 0.5442
600.30 0.5439
600.40 0.5436
600.50 0.5433
600.60 0.543
600.70 0.5427
600.80 0.5423
600.90 0.542
601.00 0.5417
601.10 0.5414
601.20 0.5411
601.30 0.5408
601.40 0.5405
601.50 0.5402
601.60 0.5398
601.70 0.5395
601.80 0.5392
601.90 0.5389
602.00 0.5386
602.10 0.5383
602.20 0.538
602.30 0.5377
602.40 0.5373
602.50 0.537
602.60 0.5367
602.70 0.5364
602.80 0.5361
602.90 0.5358
603.00 0.5355
603.10 0.5352
603.20 0.5349
603.30 0.5346
603.40 0.5343
603.50 0.534
603.60 0.5337
603.70 0.5334
603.80 0.5331
603.90 0.5328
604.00 0.5324
604.10 0.5321
604.20 0.5318
604.30 0.5315
604.40 0.5312
604.50 0.5309
604.60 0.5306
604.70 0.5303
604.80 0.53
604.90 0.5297
605.00 0.5294
605.10 0.5291
605.20 0.5288
605.30 0.5285
605.40 0.5282
605.50 0.5279
605.60 0.5276
605.70 0.5272
605.80 0.5269
605.90 0.5266
606.00 0.5263
606.10 0.526
606.20 0.5257
606.30 0.5254
606.40 0.5251
606.50 0.5248
606.60 0.5245
606.70 0.5242
606.80 0.5239
606.90 0.5236
607.00 0.5233
607.10 0.523
607.20 0.5227
607.30 0.5224
607.40 0.5221
607.50 0.5218
607.60 0.5215
607.70 0.5212
607.80 0.5209
607.90 0.5206
608.00 0.5203
608.10 0.52
608.20 0.5197
608.30 0.5194
608.40 0.5191
608.50 0.5188
608.60 0.5186
608.70 0.5183
608.80 0.518
608.90 0.5177
609.00 0.5174
609.10 0.5171
609.20 0.5168
609.30 0.5165
609.40 0.5162
609.50 0.5159
609.60 0.5156
609.70 0.5153
609.80 0.515
609.90 0.5147
610.00 0.5144
610.10 0.5141
610.20 0.5138
610.30 0.5135
610.40 0.5132
610.50 0.5129
610.60 0.5126
610.70 0.5123
610.80 0.5121
610.90 0.5118
611.00 0.5115
611.10 0.5112
611.20 0.5109
611.30 0.5106
611.40 0.5103
611.50 0.51
611.60 0.5097
611.70 0.5094
611.80 0.5092
611.90 0.5089
612.00 0.5086
612.10 0.5083
612.20 0.508
612.30 0.5077
612.40 0.5074
612.50 0.5071
612.60 0.5068
612.70 0.5065
612.80 0.5062
612.90 0.5059
613.00 0.5056
613.10 0.5054
613.20 0.5051
613.30 0.5048
613.40 0.5045
613.50 0.5042
613.60 0.5039
613.70 0.5036
613.80 0.5033
613.90 0.5031
614.00 0.5028
614.10 0.5025
614.20 0.5022
614.30 0.5019
614.40 0.5016
614.50 0.5013
614.60 0.5011
614.70 0.5008
614.80 0.5005
614.90 0.5002
615.00 0.4999
615.10 0.4996
615.20 0.4993
615.30 0.4991
615.40 0.4988
615.50 0.4985
615.60 0.4982
615.70 0.4979
615.80 0.4976
615.90 0.4974
616.00 0.4971
616.10 0.4968
616.20 0.4965
616.30 0.4962
616.40 0.496
616.50 0.4957
616.60 0.4954
616.70 0.4951
616.80 0.4948
616.90 0.4945
617.00 0.4943
617.10 0.494
617.20 0.4937
617.30 0.4934
617.40 0.4931
617.50 0.4928
617.60 0.4926
617.70 0.4923
617.80 0.492
617.90 0.4917
618.00 0.4914
618.10 0.4911
618.20 0.4908
618.30 0.4906
618.40 0.4903
618.50 0.49
618.60 0.4897
618.70 0.4895
618.80 0.4892
618.90 0.4889
619.00 0.4886
619.10 0.4883
619.20 0.4881
619.30 0.4878
619.40 0.4875
619.50 0.4872
619.60 0.4869
619.70 0.4867
619.80 0.4864
619.90 0.4861
620.00 0.4858
620.10 0.4856
620.20 0.4853
620.30 0.485
620.40 0.4847
620.50 0.4845
620.60 0.4842
620.70 0.4839
620.80 0.4836
620.90 0.4834
621.00 0.4831
621.10 0.4828
621.20 0.4825
621.30 0.4823
621.40 0.482
621.50 0.4817
621.60 0.4814
621.70 0.4812
621.80 0.4809
621.90 0.4806
622.00 0.4803
622.10 0.4801
622.20 0.4798
622.30 0.4795
622.40 0.4792
622.50 0.479
622.60 0.4787
622.70 0.4784
622.80 0.4781
622.90 0.4778
623.00 0.4776
623.10 0.4773
623.20 0.477
623.30 0.4767
623.40 0.4765
623.50 0.4762
623.60 0.4759
623.70 0.4757
623.80 0.4754
623.90 0.4751
624.00 0.4748
624.10 0.4746
624.20 0.4743
624.30 0.474
624.40 0.4738
624.50 0.4735
624.60 0.4732
624.70 0.4729
624.80 0.4727
624.90 0.4724
625.00 0.4721
625.10 0.4718
625.20 0.4716
625.30 0.4713
625.40 0.471
625.50 0.4708
625.60 0.4705
625.70 0.4702
625.80 0.47
625.90 0.4697
626.00 0.4694
626.10 0.4691
626.20 0.4689
626.30 0.4686
626.40 0.4683
626.50 0.4681
626.60 0.4678
626.70 0.4675
626.80 0.4672
626.90 0.467
627.00 0.4667
627.10 0.4664
627.20 0.4662
627.30 0.4659
627.40 0.4656
627.50 0.4654
627.60 0.4651
627.70 0.4648
627.80 0.4645
627.90 0.4643
628.00 0.464
628.10 0.4637
628.20 0.4635
628.30 0.4632
628.40 0.4629
628.50 0.4627
628.60 0.4624
628.70 0.4621
628.80 0.4619
628.90 0.4616
629.00 0.4613
629.10 0.461
629.20 0.4608
629.30 0.4605
629.40 0.4602
629.50 0.46
629.60 0.4597
629.70 0.4594
629.80 0.4592
629.90 0.4589
630.00 0.4586
630.10 0.4584
630.20 0.4581
630.30 0.4578
630.40 0.4576
630.50 0.4573
630.60 0.457
630.70 0.4567
630.80 0.4565
630.90 0.4562
631.00 0.4559
631.10 0.4557
631.20 0.4554
631.30 0.4551
631.40 0.4549
631.50 0.4546
631.60 0.4543
631.70 0.4541
631.80 0.4538
631.90 0.4535
632.00 0.4532
632.10 0.453
632.20 0.4527
632.30 0.4524
632.40 0.4522
632.50 0.4519
632.60 0.4516
632.70 0.4514
632.80 0.4511
632.90 0.4508
633.00 0.4505
633.10 0.4503
633.20 0.45
633.30 0.4497
633.40 0.4495
633.50 0.4492
633.60 0.4489
633.70 0.4486
633.80 0.4484
633.90 0.4481
634.00 0.4478
634.10 0.4476
634.20 0.4473
634.30 0.447
634.40 0.4467
634.50 0.4465
634.60 0.4462
634.70 0.4459
634.80 0.4456
634.90 0.4454
635.00 0.4451
635.10 0.4448
635.20 0.4445
635.30 0.4443
635.40 0.444
635.50 0.4437
635.60 0.4434
635.70 0.4432
635.80 0.4429
635.90 0.4426
636.00 0.4423
636.10 0.442
636.20 0.4418
636.30 0.4415
636.40 0.4412
636.50 0.4409
636.60 0.4406
636.70 0.4404
636.80 0.4401
636.90 0.4398
637.00 0.4395
637.10 0.4392
637.20 0.439
637.30 0.4387
637.40 0.4384
637.50 0.4381
637.60 0.4378
637.70 0.4375
637.80 0.4372
637.90 0.4369
638.00 0.4367
638.10 0.4364
638.20 0.4361
638.30 0.4358
638.40 0.4355
638.50 0.4352
638.60 0.4349
638.70 0.4346
638.80 0.4343
638.90 0.434
639.00 0.4337
639.10 0.4334
639.20 0.4331
639.30 0.4329
639.40 0.4325
639.50 0.4322
639.60 0.4319
639.70 0.4316
639.80 0.4313
639.90 0.431
640.00 0.4307
640.10 0.4304
640.20 0.4301
640.30 0.4298
640.40 0.4295
640.50 0.4292
640.60 0.4289
640.70 0.4286
640.80 0.4282
640.90 0.4279
641.00 0.4276
641.10 0.4273
641.20 0.427
641.30 0.4267
641.40 0.4263
641.50 0.426
641.60 0.4257
641.70 0.4253
641.80 0.425
641.90 0.4247
642.00 0.4243
642.10 0.424
642.20 0.4237
642.30 0.4234
642.40 0.423
642.50 0.4227
642.60 0.4223
642.70 0.4219
642.80 0.4216
642.90 0.4212
643.00 0.4209
643.10 0.4205
643.20 0.4202
643.30 0.4198
643.40 0.4195
643.50 0.4191
643.60 0.4187
643.70 0.4183
643.80 0.4179
643.90 0.4176
644.00 0.4172
644.10 0.4168
644.20 0.4164
644.30 0.416
644.40 0.4156
644.50 0.4152
644.60 0.4148
644.70 0.4144
644.80 0.414
644.90 0.4136
645.00 0.4131
645.10 0.4127
645.20 0.4123
645.30 0.4119
645.40 0.4114
645.50 0.411
645.60 0.4105
645.70 0.41
645.80 0.4096
645.90 0.4091
646.00 0.4087
646.10 0.4082
646.20 0.4077
646.30 0.4073
646.40 0.4067
646.50 0.4062
646.60 0.4057
646.70 0.4051
646.80 0.4046
646.90 0.4041
647.00 0.4036
647.10 0.403
647.20 0.4025
647.30 0.402
647.40 0.4014
647.50 0.4007
647.60 0.4001
647.70 0.3995
647.80 0.3989
647.90 0.3983
648.00 0.3977
648.10 0.3971
648.20 0.3964
648.30 0.3958
648.40 0.3951
648.50 0.3943
648.60 0.3936
648.70 0.3928
648.80 0.3921
648.90 0.3913
649.00 0.3906
649.10 0.3899
649.20 0.3891
649.30 0.3884
649.40 0.3875
649.50 0.3866
649.60 0.3857
649.70 0.3847
649.80 0.3838
649.90 0.3829
650.00 0.382
650.10 0.3811
650.20 0.3803
650.30 0.3793
650.40 0.3782
650.50 0.377
650.60 0.3759
650.70 0.3747
650.80 0.3736
650.90 0.3725
651.00 0.3713
651.10 0.3702
651.20 0.3691
651.30 0.3679
651.40 0.3664
651.50 0.365
651.60 0.3635
651.70 0.3621
651.80 0.3606
651.90 0.3592
652.00 0.3578
652.10 0.3563
652.20 0.3549
652.30 0.3534
652.40 0.3515
652.50 0.3497
652.60 0.3478
652.70 0.346
652.80 0.3442
652.90 0.3423
653.00 0.3405
653.10 0.3387
653.20 0.3368
653.30 0.3349
653.40 0.3326
653.50 0.3303
653.60 0.328
653.70 0.3257
653.80 0.3234
653.90 0.321
654.00 0.3187
654.10 0.3164
654.20 0.3141
654.30 0.3117
654.40 0.309
654.50 0.3063
654.60 0.3036
654.70 0.3009
654.80 0.2981
654.90 0.295
655.00 0.2918
655.10 0.2887
655.20 0.2856
655.30 0.2824
655.40 0.2789
655.50 0.2754
655.60 0.2715
655.70 0.2675
655.80 0.2628
655.90 0.2577
656.00 0.2504
656.10 0.2424
656.20 0.2158
656.30 0.1878
656.40 0.2318
656.50 0.2454
656.60 0.2525
656.70 0.259
656.80 0.2635
656.90 0.2677
657.00 0.2713
657.10 0.2749
657.20 0.2781
657.30 0.2812
657.40 0.284
657.50 0.2869
657.60 0.2897
657.70 0.2926
657.80 0.2953
657.90 0.2977
658.00 0.3001
658.10 0.3025
658.20 0.3049
658.30 0.3072
658.40 0.3091
658.50 0.3111
658.60 0.3131
658.70 0.315
658.80 0.317
658.90 0.3189
659.00 0.3209
659.10 0.3229
659.20 0.3248
659.30 0.3267
659.40 0.3281
659.50 0.3296
659.60 0.331
659.70 0.3324
659.80 0.3339
659.90 0.3353
660.00 0.3368
660.10 0.3382
660.20 0.3396
660.30 0.341
660.40 0.342
660.50 0.343
660.60 0.3441
660.70 0.3451
660.80 0.3461
660.90 0.3471
661.00 0.3482
661.10 0.3492
661.20 0.3502
661.30 0.3512
661.40 0.3519
661.50 0.3526
661.60 0.3533
661.70 0.354
661.80 0.3547
661.90 0.3554
662.00 0.3561
662.10 0.3568
662.20 0.3575
662.30 0.3581
662.40 0.3586
662.50 0.359
662.60 0.3595
662.70 0.3599
662.80 0.3604
662.90 0.3609
663.00 0.3613
663.10 0.3618
663.20 0.3622
663.30 0.3626
663.40 0.3629
663.50 0.3632
663.60 0.3635
663.70 0.3638
663.80 0.3641
663.90 0.3644
664.00 0.3647
664.10 0.365
664.20 0.3652
664.30 0.3655
664.40 0.3657
664.50 0.3658
664.60 0.366
664.70 0.3662
664.80 0.3663
664.90 0.3665
665.00 0.3667
665.10 0.3668
665.20 0.367
665.30 0.3671
665.40 0.3672
665.50 0.3673
665.60 0.3674
665.70 0.3674
665.80 0.3675
665.90 0.3676
666.00 0.3677
666.10 0.3677
666.20 0.3678
666.30 0.3679
666.40 0.3679
666.50 0.3679
666.60 0.3679
666.70 0.3679
666.80 0.3679
666.90 0.368
667.00 0.368
667.10 0.368
667.20 0.368
667.30 0.368
667.40 0.368
667.50 0.3679
667.60 0.3679
667.70 0.3679
667.80 0.3678
667.90 0.3678
668.00 0.3678
668.10 0.3677
668.20 0.3677
668.30 0.3677
668.40 0.3676
668.50 0.3675
668.60 0.3675
668.70 0.3674
668.80 0.3673
668.90 0.3673
669.00 0.3672
669.10 0.3671
669.20 0.3671
669.30 0.367
669.40 0.3669
669.50 0.3668
669.60 0.3667
669.70 0.3666
669.80 0.3665
669.90 0.3664
670.00 0.3663
670.10 0.3662
670.20 0.3661
670.30 0.366
670.40 0.3659
670.50 0.3658
670.60 0.3657
670.70 0.3656
670.80 0.3655
670.90 0.3654
671.00 0.3653
671.10 0.3651
671.20 0.365
671.30 0.3649
671.40 0.3648
671.50 0.3647
671.60 0.3645
671.70 0.3644
671.80 0.3643
671.90 0.3642
672.00 0.364
672.10 0.3639
672.20 0.3638
672.30 0.3637
672.40 0.3635
672.50 0.3634
672.60 0.3632
672.70 0.3631
672.80 0.363
672.90 0.3628
673.00 0.3627
673.10 0.3626
673.20 0.3624
673.30 0.3623
673.40 0.3621
673.50 0.362
673.60 0.3619
673.70 0.3617
673.80 0.3616
673.90 0.3614
674.00 0.3613
674.10 0.3611
674.20 0.361
674.30 0.3608
674.40 0.3607
674.50 0.3605
674.60 0.3604
674.70 0.3602
674.80 0.3601
674.90 0.3599
675.00 0.3598
675.10 0.3596
675.20 0.3595
675.30 0.3593
675.40 0.3592
675.50 0.359
675.60 0.3589
675.70 0.3587
675.80 0.3585
675.90 0.3584
676.00 0.3582
676.10 0.3581
676.20 0.3579
676.30 0.3578
676.40 0.3576
676.50 0.3574
676.60 0.3573
676.70 0.3571
676.80 0.357
676.90 0.3568
677.00 0.3566
677.10 0.3565
677.20 0.3563
677.30 0.3562
677.40 0.356
677.50 0.3558
677.60 0.3557
677.70 0.3555
677.80 0.3554
677.90 0.3552
678.00 0.355
678.10 0.3549
678.20 0.3547
678.30 0.3545
678.40 0.3544
678.50 0.3542
678.60 0.354
678.70 0.3539
678.80 0.3537
678.90 0.3536
679.00 0.3534
679.10 0.3532
679.20 0.3531
679.30 0.3529
679.40 0.3527
679.50 0.3526
679.60 0.3524
679.70 0.3522
679.80 0.3521
679.90 0.3519
680.00 0.3517
680.10 0.3516
680.20 0.3514
680.30 0.3512
680.40 0.3511
680.50 0.3509
680.60 0.3507
680.70 0.3506
680.80 0.3504
680.90 0.3502
681.00 0.3501
681.10 0.3499
681.20 0.3497
681.30 0.3496
681.40 0.3494
681.50 0.3492
681.60 0.3491
681.70 0.3489
681.80 0.3487
681.90 0.3486
682.00 0.3484
682.10 0.3482
682.20 0.3481
682.30 0.3479
682.40 0.3477
682.50 0.3476
682.60 0.3474
682.70 0.3472
682.80 0.3471
682.90 0.3469
683.00 0.3467
683.10 0.3465
683.20 0.3464
683.30 0.3462
683.40 0.346
683.50 0.3459
683.60 0.3457
683.70 0.3455
683.80 0.3454
683.90 0.3452
684.00 0.345
684.10 0.3449
684.20 0.3447
684.30 0.3445
684.40 0.3444
684.50 0.3442
684.60 0.344
684.70 0.3439
684.80 0.3437
684.90 0.3435
685.00 0.3434
685.10 0.3432
685.20 0.343
685.30 0.3429
685.40 0.3427
685.50 0.3425
685.60 0.3424
685.70 0.3422
685.80 0.342
685.90 0.3418
686.00 0.3417
686.10 0.3415
686.20 0.3413
686.30 0.3412
686.40 0.341
686.50 0.3408
686.60 0.3407
686.70 0.3405
686.80 0.3403
686.90 0.3402
687.00 0.34
687.10 0.3398
687.20 0.3397
687.30 0.3395
687.40 0.3393
687.50 0.3392
687.60 0.339
687.70 0.3388
687.80 0.3387
687.90 0.3385
688.00 0.3383
688.10 0.3382
688.20 0.338
688.30 0.3378
688.40 0.3377
688.50 0.3375
688.60 0.3373
688.70 0.3372
688.80 0.337
688.90 0.3368
689.00 0.3367
689.10 0.3365
689.20 0.3363
689.30 0.3362
689.40 0.336
689.50 0.3358
689.60 0.3357
689.70 0.3355
689.80 0.3353
689.90 0.3352
690.00 0.335
690.10 0.3348
690.20 0.3347
690.30 0.3345
690.40 0.3343
690.50 0.3342
690.60 0.334
690.70 0.3338
690.80 0.3337
690.90 0.3335
691.00 0.3333
691.10 0.3332
691.20 0.333
691.30 0.3329
691.40 0.3327
691.50 0.3325
691.60 0.3324
691.70 0.3322
691.80 0.332
691.90 0.3319
692.00 0.3317
692.10 0.3315
692.20 0.3314
692.30 0.3312
692.40 0.331
692.50 0.3309
692.60 0.3307
692.70 0.3306
692.80 0.3304
692.90 0.3302
693.00 0.3301
693.10 0.3299
693.20 0.3297
693.30 0.3296
693.40 0.3294
693.50 0.3292
693.60 0.3291
693.70 0.3289
693.80 0.3288
693.90 0.3286
694.00 0.3284
694.10 0.3283
694.20 0.3281
694.30 0.3279
694.40 0.3278
694.50 0.3276
694.60 0.3275
694.70 0.3273
694.80 0.3271
694.90 0.327
695.00 0.3268
695.10 0.3266
695.20 0.3265
695.30 0.3263
695.40 0.3262
695.50 0.326
695.60 0.3258
695.70 0.3257
695.80 0.3255
695.90 0.3254
696.00 0.3252
696.10 0.325
696.20 0.3249
696.30 0.3247
696.40 0.3245
696.50 0.3244
696.60 0.3242
696.70 0.3241
696.80 0.3239
696.90 0.3237
697.00 0.3236
697.10 0.3234
697.20 0.3233
697.30 0.3231
697.40 0.3229
697.50 0.3228
697.60 0.3226
697.70 0.3225
697.80 0.3223
697.90 0.3221
698.00 0.322
698.10 0.3218
698.20 0.3217
698.30 0.3215
698.40 0.3213
698.50 0.3212
698.60 0.321
698.70 0.3209
698.80 0.3207
698.90 0.3205
699.00 0.3204
699.10 0.3202
699.20 0.3201
699.30 0.3199
699.40 0.3198
699.50 0.3196
699.60 0.3194
699.70 0.3193
699.80 0.3191
699.90 0.319
700.00 0.3188
700.10 0.3187
700.20 0.3185
700.30 0.3183
700.40 0.3182
700.50 0.318
700.60 0.3179
700.70 0.3177
700.80 0.3176
700.90 0.3174
701.00 0.3173
701.10 0.3171
701.20 0.317
701.30 0.3168
701.40 0.3167
701.50 0.3165
701.60 0.3163
701.70 0.3162
701.80 0.316
701.90 0.3159
702.00 0.3157
702.10 0.3156
702.20 0.3154
702.30 0.3153
702.40 0.3151
702.50 0.315
702.60 0.3148
702.70 0.3147
702.80 0.3145
702.90 0.3144
703.00 0.3142
703.10 0.3141
703.20 0.3139
703.30 0.3137
703.40 0.3136
703.50 0.3134
703.60 0.3133
703.70 0.3131
703.80 0.313
703.90 0.3128
704.00 0.3127
704.10 0.3125
704.20 0.3124
704.30 0.3122
704.40 0.3121
704.50 0.3119
704.60 0.3118
704.70 0.3116
704.80 0.3115
704.90 0.3113
705.00 0.3112
705.10 0.311
705.20 0.3109
705.30 0.3107
705.40 0.3106
705.50 0.3104
705.60 0.3103
705.70 0.3101
705.80 0.3099
705.90 0.3098
706.00 0.3096
706.10 0.3095
706.20 0.3093
706.30 0.3092
706.40 0.309
706.50 0.3089
706.60 0.3087
706.70 0.3086
706.80 0.3084
706.90 0.3083
707.00 0.3081
707.10 0.308
707.20 0.3078
707.30 0.3077
707.40 0.3075
707.50 0.3074
707.60 0.3072
707.70 0.3071
707.80 0.3069
707.90 0.3068
708.00 0.3066
708.10 0.3064
708.20 0.3063
708.30 0.3061
708.40 0.306
708.50 0.3058
708.60 0.3057
708.70 0.3055
708.80 0.3054
708.90 0.3052
709.00 0.3051
709.10 0.3049
709.20 0.3048
709.30 0.3046
709.40 0.3045
709.50 0.3043
709.60 0.3042
709.70 0.304
709.80 0.3039
709.90 0.3037
710.00 0.3036
710.10 0.3034
710.20 0.3033
710.30 0.3031
710.40 0.303
710.50 0.3028
710.60 0.3027
710.70 0.3025
710.80 0.3024
710.90 0.3022
711.00 0.3021
711.10 0.302
711.20 0.3018
711.30 0.3017
711.40 0.3015
711.50 0.3014
711.60 0.3012
711.70 0.3011
711.80 0.3009
711.90 0.3008
712.00 0.3006
712.10 0.3005
712.20 0.3003
712.30 0.3002
712.40 0.3
712.50 0.2999
712.60 0.2997
712.70 0.2996
712.80 0.2994
712.90 0.2993
713.00 0.2991
713.10 0.299
713.20 0.2989
713.30 0.2987
713.40 0.2986
713.50 0.2984
713.60 0.2983
713.70 0.2981
713.80 0.298
713.90 0.2978
714.00 0.2977
714.10 0.2975
714.20 0.2974
714.30 0.2972
714.40 0.2971
714.50 0.297
714.60 0.2968
714.70 0.2967
714.80 0.2965
714.90 0.2964
715.00 0.2962
715.10 0.2961
715.20 0.2959
715.30 0.2958
715.40 0.2956
715.50 0.2955
715.60 0.2954
715.70 0.2952
715.80 0.2951
715.90 0.2949
716.00 0.2948
716.10 0.2947
716.20 0.2945
716.30 0.2944
716.40 0.2942
716.50 0.2941
716.60 0.2939
716.70 0.2938
716.80 0.2937
716.90 0.2935
717.00 0.2934
717.10 0.2932
717.20 0.2931
717.30 0.2929
717.40 0.2928
717.50 0.2927
717.60 0.2925
717.70 0.2924
717.80 0.2922
717.90 0.2921
718.00 0.292
718.10 0.2918
718.20 0.2917
718.30 0.2915
718.40 0.2914
718.50 0.2913
718.60 0.2911
718.70 0.291
718.80 0.2908
718.90 0.2907
719.00 0.2905
719.10 0.2904
719.20 0.2903
719.30 0.2901
719.40 0.29
719.50 0.2898
719.60 0.2897
719.70 0.2896
719.80 0.2894
719.90 0.2893
720.00 0.2891
720.10 0.289
720.20 0.2889
720.30 0.2887
720.40 0.2886
720.50 0.2884
720.60 0.2883
720.70 0.2882
720.80 0.288
720.90 0.2879
721.00 0.2877
721.10 0.2876
721.20 0.2875
721.30 0.2873
721.40 0.2872
721.50 0.287
721.60 0.2869
721.70 0.2868
721.80 0.2866
721.90 0.2865
722.00 0.2863
722.10 0.2862
722.20 0.2861
722.30 0.2859
722.40 0.2858
722.50 0.2857
722.60 0.2855
722.70 0.2854
722.80 0.2852
722.90 0.2851
723.00 0.285
723.10 0.2848
723.20 0.2847
723.30 0.2845
723.40 0.2844
723.50 0.2843
723.60 0.2841
723.70 0.284
723.80 0.2838
723.90 0.2837
724.00 0.2836
724.10 0.2834
724.20 0.2833
724.30 0.2832
724.40 0.283
724.50 0.2829
724.60 0.2827
724.70 0.2826
724.80 0.2825
724.90 0.2823
725.00 0.2822
725.10 0.2821
725.20 0.2819
725.30 0.2818
725.40 0.2816
725.50 0.2815
725.60 0.2814
725.70 0.2812
725.80 0.2811
725.90 0.281
726.00 0.2808
726.10 0.2807
726.20 0.2806
726.30 0.2804
726.40 0.2803
726.50 0.2802
726.60 0.28
726.70 0.2799
726.80 0.2797
726.90 0.2796
727.00 0.2795
727.10 0.2793
727.20 0.2792
727.30 0.2791
727.40 0.2789
727.50 0.2788
727.60 0.2787
727.70 0.2785
727.80 0.2784
727.90 0.2783
728.00 0.2781
728.10 0.278
728.20 0.2779
728.30 0.2777
728.40 0.2776
728.50 0.2775
728.60 0.2773
728.70 0.2772
728.80 0.2771
728.90 0.2769
729.00 0.2768
729.10 0.2767
729.20 0.2765
729.30 0.2764
729.40 0.2763
729.50 0.2761
729.60 0.276
729.70 0.2759
729.80 0.2757
729.90 0.2756
730.00 0.2755
730.10 0.2753
730.20 0.2752
730.30 0.2751
730.40 0.2749
730.50 0.2748
730.60 0.2747
730.70 0.2745
730.80 0.2744
730.90 0.2743
731.00 0.2741
731.10 0.274
731.20 0.2739
731.30 0.2737
731.40 0.2736
731.50 0.2735
731.60 0.2733
731.70 0.2732
731.80 0.2731
731.90 0.273
732.00 0.2728
732.10 0.2727
732.20 0.2726
732.30 0.2724
732.40 0.2723
732.50 0.2722
732.60 0.272
732.70 0.2719
732.80 0.2718
732.90 0.2717
733.00 0.2715
733.10 0.2714
733.20 0.2713
733.30 0.2711
733.40 0.271
733.50 0.2709
733.60 0.2707
733.70 0.2706
733.80 0.2705
733.90 0.2704
734.00 0.2702
734.10 0.2701
734.20 0.27
734.30 0.2698
734.40 0.2697
734.50 0.2696
734.60 0.2694
734.70 0.2693
734.80 0.2692
734.90 0.2691
735.00 0.2689
735.10 0.2688
735.20 0.2687
735.30 0.2685
735.40 0.2684
735.50 0.2683
735.60 0.2682
735.70 0.268
735.80 0.2679
735.90 0.2678
736.00 0.2676
736.10 0.2675
736.20 0.2674
736.30 0.2673
736.40 0.2671
736.50 0.267
736.60 0.2669
736.70 0.2667
736.80 0.2666
736.90 0.2665
737.00 0.2664
737.10 0.2662
737.20 0.2661
737.30 0.266
737.40 0.2659
737.50 0.2657
737.60 0.2656
737.70 0.2655
737.80 0.2653
737.90 0.2652
738.00 0.2651
738.10 0.265
738.20 0.2648
738.30 0.2647
738.40 0.2646
738.50 0.2645
738.60 0.2643
738.70 0.2642
738.80 0.2641
738.90 0.2639
739.00 0.2638
739.10 0.2637
739.20 0.2636
739.30 0.2634
739.40 0.2633
739.50 0.2632
739.60 0.2631
739.70 0.2629
739.80 0.2628
739.90 0.2627
740.00 0.2626
740.10 0.2624
740.20 0.2623
740.30 0.2622
740.40 0.2621
740.50 0.2619
740.60 0.2618
740.70 0.2617
740.80 0.2616
740.90 0.2614
741.00 0.2613
741.10 0.2612
741.20 0.2611
741.30 0.261
741.40 0.2608
741.50 0.2607
741.60 0.2606
741.70 0.2605
741.80 0.2603
741.90 0.2602
742.00 0.2601
742.10 0.26
742.20 0.2598
742.30 0.2597
742.40 0.2596
742.50 0.2595
742.60 0.2594
742.70 0.2592
742.80 0.2591
742.90 0.259
743.00 0.2589
743.10 0.2587
743.20 0.2586
743.30 0.2585
743.40 0.2584
743.50 0.2582
743.60 0.2581
743.70 0.258
743.80 0.2579
743.90 0.2578
744.00 0.2576
744.10 0.2575
744.20 0.2574
744.30 0.2573
744.40 0.2572
744.50 0.257
744.60 0.2569
744.70 0.2568
744.80 0.2567
744.90 0.2565
745.00 0.2564
745.10 0.2563
745.20 0.2562
745.30 0.2561
745.40 0.2559
745.50 0.2558
745.60 0.2557
745.70 0.2556
745.80 0.2555
745.90 0.2553
746.00 0.2552
746.10 0.2551
746.20 0.255
746.30 0.2548
746.40 0.2547
746.50 0.2546
746.60 0.2545
746.70 0.2544
746.80 0.2542
746.90 0.2541
747.00 0.254
747.10 0.2539
747.20 0.2538
747.30 0.2536
747.40 0.2535
747.50 0.2534
747.60 0.2533
747.70 0.2532
747.80 0.253
747.90 0.2529
748.00 0.2528
748.10 0.2527
748.20 0.2526
748.30 0.2524
748.40 0.2523
748.50 0.2522
748.60 0.2521
748.70 0.252
748.80 0.2519
748.90 0.2517
749.00 0.2516
749.10 0.2515
749.20 0.2514
749.30 0.2513
749.40 0.2511
749.50 0.251
749.60 0.2509
749.70 0.2508
749.80 0.2507
749.90 0.2505
750.00 0.2504
750.10 0.2503
750.20 0.2502
750.30 0.2501
750.40 0.25
750.50 0.2498
750.60 0.2497
750.70 0.2496
750.80 0.2495
750.90 0.2494
751.00 0.2493
751.10 0.2491
751.20 0.249
751.30 0.2489
751.40 0.2488
751.50 0.2487
751.60 0.2486
751.70 0.2484
751.80 0.2483
751.90 0.2482
752.00 0.2481
752.10 0.248
752.20 0.2479
752.30 0.2477
752.40 0.2476
752.50 0.2475
752.60 0.2474
752.70 0.2473
752.80 0.2472
752.90 0.2471
753.00 0.2469
753.10 0.2468
753.20 0.2467
753.30 0.2466
753.40 0.2465
753.50 0.2464
753.60 0.2462
753.70 0.2461
753.80 0.246
753.90 0.2459
754.00 0.2458
754.10 0.2457
754.20 0.2456
754.30 0.2454
754.40 0.2453
754.50 0.2452
754.60 0.2451
754.70 0.245
754.80 0.2449
754.90 0.2448
755.00 0.2446
755.10 0.2445
755.20 0.2444
755.30 0.2443
755.40 0.2442
755.50 0.2441
755.60 0.244
755.70 0.2438
755.80 0.2437
755.90 0.2436
756.00 0.2435
756.10 0.2434
756.20 0.2433
756.30 0.2432
756.40 0.243
756.50 0.2429
756.60 0.2428
756.70 0.2427
756.80 0.2426
756.90 0.2425
757.00 0.2424
757.10 0.2422
757.20 0.2421
757.30 0.242
757.40 0.2419
757.50 0.2418
757.60 0.2417
757.70 0.2416
757.80 0.2415
757.90 0.2413
758.00 0.2412
758.10 0.2411
758.20 0.241
758.30 0.2409
758.40 0.2408
758.50 0.2407
758.60 0.2406
758.70 0.2404
758.80 0.2403
758.90 0.2402
759.00 0.2401
759.10 0.24
759.20 0.2399
759.30 0.2398
759.40 0.2397
759.50 0.2395
759.60 0.2394
759.70 0.2393
759.80 0.2392
759.90 0.2391
760.00 0.239
760.10 0.2389
760.20 0.2388
760.30 0.2387
760.40 0.2385
760.50 0.2384
760.60 0.2383
760.70 0.2382
760.80 0.2381
760.90 0.238
761.00 0.2379
761.10 0.2378
761.20 0.2377
761.30 0.2376
761.40 0.2374
761.50 0.2373
761.60 0.2372
761.70 0.2371
761.80 0.237
761.90 0.2369
762.00 0.2368
762.10 0.2367
762.20 0.2366
762.30 0.2365
762.40 0.2363
762.50 0.2362
762.60 0.2361
762.70 0.236
762.80 0.2359
762.90 0.2358
763.00 0.2357
763.10 0.2356
763.20 0.2355
763.30 0.2354
763.40 0.2353
763.50 0.2352
763.60 0.235
763.70 0.2349
763.80 0.2348
763.90 0.2347
764.00 0.2346
764.10 0.2345
764.20 0.2344
764.30 0.2343
764.40 0.2342
764.50 0.2341
764.60 0.234
764.70 0.2339
764.80 0.2337
764.90 0.2336
765.00 0.2335
765.10 0.2334
765.20 0.2333
765.30 0.2332
765.40 0.2331
765.50 0.233
765.60 0.2329
765.70 0.2328
765.80 0.2327
765.90 0.2326
766.00 0.2325
766.10 0.2323
766.20 0.2322
766.30 0.2321
766.40 0.232
766.50 0.2319
766.60 0.2318
766.70 0.2317
766.80 0.2316
766.90 0.2315
767.00 0.2314
767.10 0.2313
767.20 0.2312
767.30 0.2311
767.40 0.231
767.50 0.2308
767.60 0.2307
767.70 0.2306
767.80 0.2305
767.90 0.2304
768.00 0.2303
768.10 0.2302
768.20 0.2301
768.30 0.23
768.40 0.2299
768.50 0.2298
768.60 0.2297
768.70 0.2296
768.80 0.2295
768.90 0.2294
769.00 0.2292
769.10 0.2291
769.20 0.229
769.30 0.2289
769.40 0.2288
769.50 0.2287
769.60 0.2286
769.70 0.2285
769.80 0.2284
769.90 0.2283
770.00 0.2282
770.10 0.2281
770.20 0.228
770.30 0.2279
770.40 0.2278
770.50 0.2277
770.60 0.2276
770.70 0.2275
770.80 0.2274
770.90 0.2273
771.00 0.2272
771.10 0.227
771.20 0.2269
771.30 0.2268
771.40 0.2267
771.50 0.2266
771.60 0.2265
771.70 0.2264
771.80 0.2263
771.90 0.2262
772.00 0.2261
772.10 0.226
772.20 0.2259
772.30 0.2258
772.40 0.2257
772.50 0.2256
772.60 0.2255
772.70 0.2254
772.80 0.2253
772.90 0.2252
773.00 0.2251
773.10 0.225
773.20 0.2249
773.30 0.2248
773.40 0.2247
773.50 0.2246
773.60 0.2245
773.70 0.2244
773.80 0.2243
773.90 0.2242
774.00 0.2241
774.10 0.224
774.20 0.2239
774.30 0.2238
774.40 0.2237
774.50 0.2236
774.60 0.2235
774.70 0.2233
774.80 0.2232
774.90 0.2231
775.00 0.223
775.10 0.2229
775.20 0.2228
775.30 0.2227
775.40 0.2226
775.50 0.2225
775.60 0.2224
775.70 0.2223
775.80 0.2222
775.90 0.2221
776.00 0.222
776.10 0.2219
776.20 0.2218
776.30 0.2217
776.40 0.2216
776.50 0.2215
776.60 0.2214
776.70 0.2213
776.80 0.2212
776.90 0.2211
777.00 0.221
777.10 0.2209
777.20 0.2208
777.30 0.2207
777.40 0.2206
777.50 0.2205
777.60 0.2204
777.70 0.2203
777.80 0.2202
777.90 0.2201
778.00 0.22
778.10 0.2199
778.20 0.2198
778.30 0.2197
778.40 0.2196
778.50 0.2195
778.60 0.2194
778.70 0.2193
778.80 0.2192
778.90 0.2191
779.00 0.219
779.10 0.2189
779.20 0.2188
779.30 0.2187
779.40 0.2186
779.50 0.2185
779.60 0.2184
779.70 0.2183
779.80 0.2182
779.90 0.2181
780.00 0.218
780.10 0.2179
780.20 0.2178
780.30 0.2177
780.40 0.2176
780.50 0.2175
780.60 0.2174
780.70 0.2173
780.80 0.2172
780.90 0.2171
781.00 0.217
781.10 0.2169
781.20 0.2168
781.30 0.2167
781.40 0.2166
781.50 0.2165
781.60 0.2164
781.70 0.2163
781.80 0.2162
781.90 0.2161
782.00 0.216
782.10 0.216
782.20 0.2159
782.30 0.2158
782.40 0.2157
782.50 0.2156
782.60 0.2155
782.70 0.2154
782.80 0.2153
782.90 0.2152
783.00 0.2151
783.10 0.215
783.20 0.2149
783.30 0.2148
783.40 0.2147
783.50 0.2146
783.60 0.2145
783.70 0.2144
783.80 0.2143
783.90 0.2142
784.00 0.2141
784.10 0.214
784.20 0.2139
784.30 0.2138
784.40 0.2137
784.50 0.2136
784.60 0.2135
784.70 0.2134
784.80 0.2133
784.90 0.2132
785.00 0.2131
785.10 0.213
785.20 0.213
785.30 0.2129
785.40 0.2128
785.50 0.2127
785.60 0.2126
785.70 0.2125
785.80 0.2124
785.90 0.2123
786.00 0.2122
786.10 0.2121
786.20 0.212
786.30 0.2119
786.40 0.2118
786.50 0.2117
786.60 0.2116
786.70 0.2115
786.80 0.2114
786.90 0.2113
787.00 0.2112
787.10 0.2111
787.20 0.211
787.30 0.2109
787.40 0.2108
787.50 0.2108
787.60 0.2107
787.70 0.2106
787.80 0.2105
787.90 0.2104
788.00 0.2103
788.10 0.2102
788.20 0.2101
788.30 0.21
788.40 0.2099
788.50 0.2098
788.60 0.2097
788.70 0.2096
788.80 0.2095
788.90 0.2094
789.00 0.2093
789.10 0.2092
789.20 0.2091
789.30 0.209
789.40 0.209
789.50 0.2089
789.60 0.2088
789.70 0.2087
789.80 0.2086
789.90 0.2085
790.00 0.2084
790.10 0.2083
790.20 0.2082
790.30 0.2081
790.40 0.208
790.50 0.2079
790.60 0.2078
790.70 0.2077
790.80 0.2076
790.90 0.2076
791.00 0.2075
791.10 0.2074
791.20 0.2073
791.30 0.2072
791.40 0.2071
791.50 0.207
791.60 0.2069
791.70 0.2068
791.80 0.2067
791.90 0.2066
792.00 0.2065
792.10 0.2064
792.20 0.2064
792.30 0.2063
792.40 0.2062
792.50 0.2061
792.60 0.206
792.70 0.2059
792.80 0.2058
792.90 0.2057
793.00 0.2056
793.10 0.2055
793.20 0.2054
793.30 0.2053
793.40 0.2053
793.50 0.2052
793.60 0.2051
793.70 0.205
793.80 0.2049
793.90 0.2048
794.00 0.2047
794.10 0.2046
794.20 0.2045
794.30 0.2044
794.40 0.2043
794.50 0.2042
794.60 0.2042
794.70 0.2041
794.80 0.204
794.90 0.2039
795.00 0.2038
795.10 0.2037
795.20 0.2036
795.30 0.2035
795.40 0.2034
795.50 0.2033
795.60 0.2032
795.70 0.2032
795.80 0.2031
795.90 0.203
796.00 0.2029
796.10 0.2028
796.20 0.2027
796.30 0.2026
796.40 0.2025
796.50 0.2024
796.60 0.2023
796.70 0.2023
796.80 0.2022
796.90 0.2021
797.00 0.202
797.10 0.2019
797.20 0.2018
797.30 0.2017
797.40 0.2016
797.50 0.2015
797.60 0.2014
797.70 0.2014
797.80 0.2013
797.90 0.2012
798.00 0.2011
798.10 0.201
798.20 0.2009
798.30 0.2008
798.40 0.2007
798.50 0.2006
798.60 0.2005
798.70 0.2005
798.80 0.2004
798.90 0.2003
799.00 0.2002
799.10 0.2001
799.20 0.2
799.30 0.1999
799.40 0.1998
799.50 0.1997
799.60 0.1997
799.70 0.1996
799.80 0.1995
799.90 0.1994
800.00 0.1993
800.10 0.1992
800.20 0.1991
800.30 0.199
800.40 0.1989
800.50 0.1989
800.60 0.1988
800.70 0.1987
800.80 0.1986
800.90 0.1985
801.00 0.1984
801.10 0.1983
801.20 0.1982
801.30 0.1982
801.40 0.1981
801.50 0.198
801.60 0.1979
801.70 0.1978
801.80 0.1977
801.90 0.1976
802.00 0.1975
802.10 0.1975
802.20 0.1974
802.30 0.1973
802.40 0.1972
802.50 0.1971
802.60 0.197
802.70 0.1969
802.80 0.1969
802.90 0.1968
803.00 0.1967
803.10 0.1966
803.20 0.1965
803.30 0.1964
803.40 0.1963
803.50 0.1962
803.60 0.1962
803.70 0.1961
803.80 0.196
803.90 0.1959
804.00 0.1958
804.10 0.1957
804.20 0.1956
804.30 0.1956
804.40 0.1955
804.50 0.1954
804.60 0.1953
804.70 0.1952
804.80 0.1951
804.90 0.195
805.00 0.195
805.10 0.1949
805.20 0.1948
805.30 0.1947
805.40 0.1946
805.50 0.1945
805.60 0.1944
805.70 0.1944
805.80 0.1943
805.90 0.1942
806.00 0.1941
806.10 0.194
806.20 0.1939
806.30 0.1938
806.40 0.1938
806.50 0.1937
806.60 0.1936
806.70 0.1935
806.80 0.1934
806.90 0.1933
807.00 0.1932
807.10 0.1932
807.20 0.1931
807.30 0.193
807.40 0.1929
807.50 0.1928
807.60 0.1927
807.70 0.1926
807.80 0.1926
807.90 0.1925
808.00 0.1924
808.10 0.1923
808.20 0.1922
808.30 0.1921
808.40 0.1921
808.50 0.192
808.60 0.1919
808.70 0.1918
808.80 0.1917
808.90 0.1916
809.00 0.1915
809.10 0.1915
809.20 0.1914
809.30 0.1913
809.40 0.1912
809.50 0.1911
809.60 0.191
809.70 0.191
809.80 0.1909
809.90 0.1908
810.00 0.1907
810.10 0.1906
810.20 0.1905
810.30 0.1904
810.40 0.1904
810.50 0.1903
810.60 0.1902
810.70 0.1901
810.80 0.19
810.90 0.19
811.00 0.1899
811.10 0.1898
811.20 0.1897
811.30 0.1896
811.40 0.1895
811.50 0.1895
811.60 0.1894
811.70 0.1893
811.80 0.1892
811.90 0.1891
812.00 0.189
812.10 0.189
812.20 0.1889
812.30 0.1888
812.40 0.1887
812.50 0.1886
812.60 0.1886
812.70 0.1885
812.80 0.1884
812.90 0.1883
813.00 0.1882
813.10 0.1881
813.20 0.1881
813.30 0.188
813.40 0.1879
813.50 0.1878
813.60 0.1877
813.70 0.1876
813.80 0.1876
813.90 0.1875
814.00 0.1874
814.10 0.1873
814.20 0.1872
814.30 0.1872
814.40 0.1871
814.50 0.187
814.60 0.1869
814.70 0.1868
814.80 0.1868
814.90 0.1867
815.00 0.1866
815.10 0.1865
815.20 0.1864
815.30 0.1863
815.40 0.1863
815.50 0.1862
815.60 0.1861
815.70 0.186
815.80 0.1859
815.90 0.1859
816.00 0.1858
816.10 0.1857
816.20 0.1856
816.30 0.1855
816.40 0.1855
816.50 0.1854
816.60 0.1853
816.70 0.1852
816.80 0.1851
816.90 0.185
817.00 0.185
817.10 0.1849
817.20 0.1848
817.30 0.1847
817.40 0.1846
817.50 0.1846
817.60 0.1845
817.70 0.1844
817.80 0.1843
817.90 0.1842
818.00 0.1842
818.10 0.1841
818.20 0.184
818.30 0.1839
818.40 0.1838
818.50 0.1838
818.60 0.1837
818.70 0.1836
818.80 0.1835
818.90 0.1834
819.00 0.1834
819.10 0.1833
819.20 0.1832
819.30 0.1831
819.40 0.183
819.50 0.183
819.60 0.1829
819.70 0.1828
819.80 0.1827
819.90 0.1826
820.00 0.1826
820.10 0.1825
820.20 0.1824
820.30 0.1823
820.40 0.1823
820.50 0.1822
820.60 0.1821
820.70 0.182
820.80 0.1819
820.90 0.1819
821.00 0.1818
821.10 0.1817
821.20 0.1816
821.30 0.1815
821.40 0.1815
821.50 0.1814
821.60 0.1813
821.70 0.1812
821.80 0.1811
821.90 0.1811
822.00 0.181
822.10 0.1809
822.20 0.1808
822.30 0.1808
822.40 0.1807
822.50 0.1806
822.60 0.1805
822.70 0.1804
822.80 0.1804
822.90 0.1803
823.00 0.1802
823.10 0.1801
823.20 0.1801
823.30 0.18
823.40 0.1799
823.50 0.1798
823.60 0.1797
823.70 0.1797
823.80 0.1796
823.90 0.1795
824.00 0.1794
824.10 0.1794
824.20 0.1793
824.30 0.1792
824.40 0.1791
824.50 0.1791
824.60 0.179
824.70 0.1789
824.80 0.1788
824.90 0.1787
825.00 0.1787
825.10 0.1786
825.20 0.1785
825.30 0.1784
825.40 0.1784
825.50 0.1783
825.60 0.1782
825.70 0.1781
825.80 0.178
825.90 0.178
826.00 0.1779
826.10 0.1778
826.20 0.1777
826.30 0.1777
826.40 0.1776
826.50 0.1775
826.60 0.1774
826.70 0.1774
826.80 0.1773
826.90 0.1772
827.00 0.1771
827.10 0.1771
827.20 0.177
827.30 0.1769
827.40 0.1768
827.50 0.1768
827.60 0.1767
827.70 0.1766
827.80 0.1765
827.90 0.1764
828.00 0.1764
828.10 0.1763
828.20 0.1762
828.30 0.1761
828.40 0.1761
828.50 0.176
828.60 0.1759
828.70 0.1758
828.80 0.1758
828.90 0.1757
829.00 0.1756
829.10 0.1755
829.20 0.1755
829.30 0.1754
829.40 0.1753
829.50 0.1752
829.60 0.1752
829.70 0.1751
829.80 0.175
829.90 0.1749
830.00 0.1749
830.10 0.1748
830.20 0.1747
830.30 0.1746
830.40 0.1746
830.50 0.1745
830.60 0.1744
830.70 0.1743
830.80 0.1743
830.90 0.1742
831.00 0.1741
831.10 0.174
831.20 0.174
831.30 0.1739
831.40 0.1738
831.50 0.1737
831.60 0.1737
831.70 0.1736
831.80 0.1735
831.90 0.1734
832.00 0.1734
832.10 0.1733
832.20 0.1732
832.30 0.1731
832.40 0.1731
832.50 0.173
832.60 0.1729
832.70 0.1729
832.80 0.1728
832.90 0.1727
833.00 0.1726
833.10 0.1726
833.20 0.1725
833.30 0.1724
833.40 0.1723
833.50 0.1723
833.60 0.1722
833.70 0.1721
833.80 0.172
833.90 0.172
834.00 0.1719
834.10 0.1718
834.20 0.1718
834.30 0.1717
834.40 0.1716
834.50 0.1715
834.60 0.1715
834.70 0.1714
834.80 0.1713
834.90 0.1712
835.00 0.1712
835.10 0.1711
835.20 0.171
835.30 0.1709
835.40 0.1709
835.50 0.1708
835.60 0.1707
835.70 0.1707
835.80 0.1706
835.90 0.1705
836.00 0.1704
836.10 0.1704
836.20 0.1703
836.30 0.1702
836.40 0.1701
836.50 0.1701
836.60 0.17
836.70 0.1699
836.80 0.1699
836.90 0.1698
837.00 0.1697
837.10 0.1696
837.20 0.1696
837.30 0.1695
837.40 0.1694
837.50 0.1694
837.60 0.1693
837.70 0.1692
837.80 0.1691
837.90 0.1691
838.00 0.169
838.10 0.1689
838.20 0.1688
838.30 0.1688
838.40 0.1687
838.50 0.1686
838.60 0.1686
838.70 0.1685
838.80 0.1684
838.90 0.1683
839.00 0.1683
839.10 0.1682
839.20 0.1681
839.30 0.1681
839.40 0.168
839.50 0.1679
839.60 0.1678
839.70 0.1678
839.80 0.1677
839.90 0.1676
840.00 0.1676
840.10 0.1675
840.20 0.1674
840.30 0.1674
840.40 0.1673
840.50 0.1672
840.60 0.1671
840.70 0.1671
840.80 0.167
840.90 0.1669
841.00 0.1669
841.10 0.1668
841.20 0.1667
841.30 0.1666
841.40 0.1666
841.50 0.1665
841.60 0.1664
841.70 0.1664
841.80 0.1663
841.90 0.1662
842.00 0.1661
842.10 0.1661
842.20 0.166
842.30 0.1659
842.40 0.1659
842.50 0.1658
842.60 0.1657
842.70 0.1657
842.80 0.1656
842.90 0.1655
843.00 0.1654
843.10 0.1654
843.20 0.1653
843.30 0.1652
843.40 0.1652
843.50 0.1651
843.60 0.165
843.70 0.165
843.80 0.1649
843.90 0.1648
844.00 0.1648
844.10 0.1647
844.20 0.1646
844.30 0.1645
844.40 0.1645
844.50 0.1644
844.60 0.1643
844.70 0.1643
844.80 0.1642
844.90 0.1641
845.00 0.1641
845.10 0.164
845.20 0.1639
845.30 0.1639
845.40 0.1638
845.50 0.1637
845.60 0.1636
845.70 0.1636
845.80 0.1635
845.90 0.1634
846.00 0.1634
846.10 0.1633
846.20 0.1632
846.30 0.1632
846.40 0.1631
846.50 0.163
846.60 0.163
846.70 0.1629
846.80 0.1628
846.90 0.1627
847.00 0.1627
847.10 0.1626
847.20 0.1626
847.30 0.1625
847.40 0.1624
847.50 0.1624
847.60 0.1623
847.70 0.1623
847.80 0.1622
847.90 0.1621
848.00 0.1621
848.10 0.162
848.20 0.162
848.30 0.1619
848.40 0.1618
848.50 0.1618
848.60 0.1617
848.70 0.1617
848.80 0.1616
848.90 0.1616
849.00 0.1615
849.10 0.1614
849.20 0.1614
849.30 0.1613
849.40 0.1613
849.50 0.1612
849.60 0.1611
849.70 0.1611
849.80 0.161
849.90 0.161
850.00 0.1609
850.10 0.1608
850.20 0.1608
850.30 0.1607
850.40 0.1607
850.50 0.1606
850.60 0.1606
850.70 0.1605
850.80 0.1604
850.90 0.1604
851.00 0.1603
851.10 0.1603
851.20 0.1602
851.30 0.1601
851.40 0.1601
851.50 0.16
851.60 0.16
851.70 0.1599
851.80 0.1599
851.90 0.1598
852.00 0.1597
852.10 0.1597
852.20 0.1596
852.30 0.1596
852.40 0.1595
852.50 0.1594
852.60 0.1594
852.70 0.1593
852.80 0.1593
852.90 0.1592
853.00 0.1592
853.10 0.1591
853.20 0.159
853.30 0.159
853.40 0.1589
853.50 0.1589
853.60 0.1588
853.70 0.1588
853.80 0.1587
853.90 0.1586
854.00 0.1586
854.10 0.1585
854.20 0.1585
854.30 0.1584
854.40 0.1584
854.50 0.1583
854.60 0.1582
854.70 0.1582
854.80 0.1581
854.90 0.1581
855.00 0.158
855.10 0.1579
855.20 0.1579
855.30 0.1578
855.40 0.1578
855.50 0.1577
855.60 0.1577
855.70 0.1576
855.80 0.1575
855.90 0.1575
856.00 0.1574
856.10 0.1574
856.20 0.1573
856.30 0.1573
856.40 0.1572
856.50 0.1571
856.60 0.1571
856.70 0.157
856.80 0.157
856.90 0.1569
857.00 0.1569
857.10 0.1568
857.20 0.1568
857.30 0.1567
857.40 0.1566
857.50 0.1566
857.60 0.1565
857.70 0.1565
857.80 0.1564
857.90 0.1564
858.00 0.1563
858.10 0.1563
858.20 0.1562
858.30 0.1562
858.40 0.1561
858.50 0.1561
858.60 0.156
858.70 0.156
858.80 0.1559
858.90 0.1559
859.00 0.1558
859.10 0.1557
859.20 0.1557
859.30 0.1556
859.40 0.1556
859.50 0.1555
859.60 0.1555
859.70 0.1554
859.80 0.1554
859.90 0.1553
860.00 0.1553
860.10 0.1552
860.20 0.1552
860.30 0.1551
860.40 0.1551
860.50 0.155
860.60 0.155
860.70 0.1549
860.80 0.1549
860.90 0.1548
861.00 0.1547
861.10 0.1547
861.20 0.1546
861.30 0.1546
861.40 0.1545
861.50 0.1545
861.60 0.1544
861.70 0.1544
861.80 0.1543
861.90 0.1543
862.00 0.1542
862.10 0.1542
862.20 0.1541
862.30 0.1541
862.40 0.154
862.50 0.1539
862.60 0.1539
862.70 0.1538
862.80 0.1538
862.90 0.1537
863.00 0.1537
863.10 0.1536
863.20 0.1535
863.30 0.1535
863.40 0.1534
863.50 0.1534
863.60 0.1533
863.70 0.1533
863.80 0.1532
863.90 0.1532
864.00 0.1531
864.10 0.153
864.20 0.153
864.30 0.1529
864.40 0.1529
864.50 0.1528
864.60 0.1528
864.70 0.1527
864.80 0.1526
864.90 0.1526
865.00 0.1525
865.10 0.1525
865.20 0.1524
865.30 0.1524
865.40 0.1523
865.50 0.1523
865.60 0.1522
865.70 0.1521
865.80 0.1521
865.90 0.152
866.00 0.152
866.10 0.1519
866.20 0.1519
866.30 0.1518
866.40 0.1518
866.50 0.1517
866.60 0.1516
866.70 0.1516
866.80 0.1515
866.90 0.1515
867.00 0.1514
867.10 0.1514
867.20 0.1514
867.30 0.1513
867.40 0.1513
867.50 0.1512
867.60 0.1512
867.70 0.1512
867.80 0.1511
867.90 0.1511
868.00 0.1511
868.10 0.151
868.20 0.151
868.30 0.151
868.40 0.1509
868.50 0.1509
868.60 0.1509
868.70 0.1508
868.80 0.1508
868.90 0.1508
869.00 0.1507
869.10 0.1507
869.20 0.1506
869.30 0.1506
869.40 0.1506
869.50 0.1505
869.60 0.1505
869.70 0.1505
869.80 0.1504
869.90 0.1504
870.00 0.1504
870.10 0.1503
870.20 0.1503
870.30 0.1503
870.40 0.1502
870.50 0.1502
870.60 0.1502
870.70 0.1501
870.80 0.1501
870.90 0.15
871.00 0.15
871.10 0.15
871.20 0.1499
871.30 0.1499
871.40 0.1499
871.50 0.1498
871.60 0.1498
871.70 0.1498
871.80 0.1497
871.90 0.1497
872.00 0.1497
872.10 0.1496
872.20 0.1495
872.30 0.1495
872.40 0.1494
872.50 0.1494
872.60 0.1493
872.70 0.1493
872.80 0.1492
872.90 0.1491
873.00 0.1491
873.10 0.149
873.20 0.149
873.30 0.1489
873.40 0.1489
873.50 0.1488
873.60 0.1487
873.70 0.1487
873.80 0.1486
873.90 0.1486
874.00 0.1485
874.10 0.1484
874.20 0.1484
874.30 0.1483
874.40 0.1483
874.50 0.1482
874.60 0.1482
874.70 0.1481
874.80 0.148
874.90 0.148
875.00 0.1479
875.10 0.1479
875.20 0.1478
875.30 0.1478
875.40 0.1477
875.50 0.1476
875.60 0.1476
875.70 0.1475
875.80 0.1475
875.90 0.1474
876.00 0.1473
876.10 0.1473
876.20 0.1472
876.30 0.1472
876.40 0.1471
876.50 0.1471
876.60 0.147
876.70 0.1469
876.80 0.1469
876.90 0.1468
877.00 0.1468
877.10 0.1467
877.20 0.1467
877.30 0.1467
877.40 0.1467
877.50 0.1466
877.60 0.1466
877.70 0.1466
877.80 0.1465
877.90 0.1465
878.00 0.1465
878.10 0.1465
878.20 0.1464
878.30 0.1464
878.40 0.1464
878.50 0.1464
878.60 0.1463
878.70 0.1463
878.80 0.1463
878.90 0.1462
879.00 0.1462
879.10 0.1462
879.20 0.1462
879.30 0.1461
879.40 0.1461
879.50 0.1461
879.60 0.146
879.70 0.146
879.80 0.146
879.90 0.146
880.00 0.1459
880.10 0.1459
880.20 0.1459
880.30 0.1458
880.40 0.1458
880.50 0.1458
880.60 0.1458
880.70 0.1457
880.80 0.1457
880.90 0.1457
881.00 0.1457
881.10 0.1456
881.20 0.1456
881.30 0.1456
881.40 0.1455
881.50 0.1455
881.60 0.1455
881.70 0.1455
881.80 0.1454
881.90 0.1454
882.00 0.1454
882.10 0.1452
882.20 0.1451
882.30 0.145
882.40 0.1449
882.50 0.1447
882.60 0.1446
882.70 0.1445
882.80 0.1443
882.90 0.1442
883.00 0.1441
883.10 0.144
883.20 0.1438
883.30 0.1437
883.40 0.1436
883.50 0.1434
883.60 0.1433
883.70 0.1432
883.80 0.1431
883.90 0.1429
884.00 0.1428
884.10 0.1427
884.20 0.1425
884.30 0.1424
884.40 0.1423
884.50 0.1422
884.60 0.142
884.70 0.1419
884.80 0.1418
884.90 0.1417
885.00 0.1415
885.10 0.1414
885.20 0.1413
885.30 0.1411
885.40 0.141
885.50 0.1409
885.60 0.1408
885.70 0.1406
885.80 0.1405
885.90 0.1404
886.00 0.1403
886.10 0.1401
886.20 0.14
886.30 0.1399
886.40 0.1398
886.50 0.1396
886.60 0.1395
886.70 0.1394
886.80 0.1392
886.90 0.1391
887.00 0.139
887.10 0.139
887.20 0.1391
887.30 0.1391
887.40 0.1392
887.50 0.1392
887.60 0.1392
887.70 0.1393
887.80 0.1393
887.90 0.1394
888.00 0.1394
888.10 0.1395
888.20 0.1395
888.30 0.1395
888.40 0.1396
888.50 0.1396
888.60 0.1397
888.70 0.1397
888.80 0.1398
888.90 0.1398
889.00 0.1398
889.10 0.1399
889.20 0.1399
889.30 0.14
889.40 0.14
889.50 0.14
889.60 0.1401
889.70 0.1401
889.80 0.1402
889.90 0.1402
890.00 0.1403
890.10 0.1403
890.20 0.1403
890.30 0.1404
890.40 0.1404
890.50 0.1405
890.60 0.1405
890.70 0.1406
890.80 0.1406
890.90 0.1406
891.00 0.1407
891.10 0.1407
891.20 0.1408
891.30 0.1408
891.40 0.1408
891.50 0.1409
891.60 0.1409
891.70 0.141
891.80 0.141
891.90 0.1411
892.00 0.1411
892.10 0.141
892.20 0.141
892.30 0.1409
892.40 0.1408
892.50 0.1408
892.60 0.1407
892.70 0.1407
892.80 0.1406
892.90 0.1405
893.00 0.1405
893.10 0.1404
893.20 0.1403
893.30 0.1403
893.40 0.1402
893.50 0.1402
893.60 0.1401
893.70 0.14
893.80 0.14
893.90 0.1399
894.00 0.1399
894.10 0.1398
894.20 0.1397
894.30 0.1397
894.40 0.1396
894.50 0.1396
894.60 0.1395
894.70 0.1394
894.80 0.1394
894.90 0.1393
895.00 0.1392
895.10 0.1392
895.20 0.1391
895.30 0.1391
895.40 0.139
895.50 0.1389
895.60 0.1389
895.70 0.1388
895.80 0.1388
895.90 0.1387
896.00 0.1386
896.10 0.1386
896.20 0.1385
896.30 0.1384
896.40 0.1384
896.50 0.1383
896.60 0.1383
896.70 0.1382
896.80 0.1381
896.90 0.1381
897.00 0.138
897.10 0.1378
897.20 0.1375
897.30 0.1372
897.40 0.137
897.50 0.1367
897.60 0.1364
897.70 0.1362
897.80 0.1359
897.90 0.1357
898.00 0.1354
898.10 0.1351
898.20 0.1349
898.30 0.1346
898.40 0.1344
898.50 0.1341
898.60 0.1338
898.70 0.1336
898.80 0.1333
898.90 0.133
899.00 0.1328
899.10 0.1325
899.20 0.1323
899.30 0.132
899.40 0.1317
899.50 0.1315
899.60 0.1312
899.70 0.131
899.80 0.1307
899.90 0.1304
900.00 0.1302
900.10 0.1299
900.20 0.1297
900.30 0.1294
900.40 0.1291
900.50 0.1289
900.60 0.1286
900.70 0.1284
900.80 0.1281
900.90 0.1278
901.00 0.1276
901.10 0.1273
901.20 0.1271
901.30 0.1268
901.40 0.1266
901.50 0.1263
901.60 0.126
901.70 0.1258
901.80 0.1255
901.90 0.1253
902.00 0.125
902.10 0.1251
902.20 0.1252
902.30 0.1254
902.40 0.1255
902.50 0.1256
902.60 0.1257
902.70 0.1258
902.80 0.126
902.90 0.1261
903.00 0.1262
903.10 0.1263
903.20 0.1264
903.30 0.1265
903.40 0.1267
903.50 0.1268
903.60 0.1269
903.70 0.127
903.80 0.1271
903.90 0.1272
904.00 0.1274
904.10 0.1275
904.20 0.1276
904.30 0.1277
904.40 0.1278
904.50 0.1279
904.60 0.1281
904.70 0.1282
904.80 0.1283
904.90 0.1284
905.00 0.1285
905.10 0.1287
905.20 0.1288
905.30 0.1289
905.40 0.129
905.50 0.1291
905.60 0.1292
905.70 0.1294
905.80 0.1295
905.90 0.1296
906.00 0.1297
906.10 0.1298
906.20 0.1299
906.30 0.13
906.40 0.1302
906.50 0.1303
906.60 0.1304
906.70 0.1305
906.80 0.1306
906.90 0.1307
907.00 0.1309
907.10 0.1309
907.20 0.1309
907.30 0.1309
907.40 0.1309
907.50 0.1309
907.60 0.1309
907.70 0.1309
907.80 0.1309
907.90 0.1309
908.00 0.1309
908.10 0.1309
908.20 0.1309
908.30 0.131
908.40 0.131
908.50 0.131
908.60 0.131
908.70 0.131
908.80 0.131
908.90 0.131
909.00 0.131
909.10 0.131
909.20 0.131
909.30 0.131
909.40 0.131
909.50 0.131
909.60 0.1311
909.70 0.1311
909.80 0.1311
909.90 0.1311
910.00 0.1311
910.10 0.1311
910.20 0.1311
910.30 0.1311
910.40 0.1311
910.50 0.1311
910.60 0.1311
910.70 0.1311
910.80 0.1311
910.90 0.1311
911.00 0.1312
911.10 0.1312
911.20 0.1312
911.30 0.1312
911.40 0.1312
911.50 0.1312
911.60 0.1312
911.70 0.1312
911.80 0.1312
911.90 0.1312
912.00 0.1312
912.10 0.1311
912.20 0.131
912.30 0.1308
912.40 0.1307
912.50 0.1306
912.60 0.1304
912.70 0.1303
912.80 0.1302
912.90 0.13
913.00 0.1299
913.10 0.1298
913.20 0.1296
913.30 0.1295
913.40 0.1294
913.50 0.1292
913.60 0.1291
913.70 0.129
913.80 0.1288
913.90 0.1287
914.00 0.1286
914.10 0.1284
914.20 0.1283
914.30 0.1282
914.40 0.128
914.50 0.1279
914.60 0.1278
914.70 0.1276
914.80 0.1275
914.90 0.1274
915.00 0.1272
915.10 0.1271
915.20 0.127
915.30 0.1268
915.40 0.1267
915.50 0.1266
915.60 0.1264
915.70 0.1263
915.80 0.1262
915.90 0.126
916.00 0.1259
916.10 0.1258
916.20 0.1256
916.30 0.1255
916.40 0.1254
916.50 0.1253
916.60 0.1251
916.70 0.125
916.80 0.1249
916.90 0.1247
917.00 0.1246
917.10 0.1243
917.20 0.124
917.30 0.1237
917.40 0.1234
917.50 0.1231
917.60 0.1228
917.70 0.1225
917.80 0.1222
917.90 0.1219
918.00 0.1216
918.10 0.1213
918.20 0.121
918.30 0.1208
918.40 0.1205
918.50 0.1202
918.60 0.1199
918.70 0.1196
918.80 0.1193
918.90 0.119
919.00 0.1187
919.10 0.1184
919.20 0.1181
919.30 0.1178
919.40 0.1175
919.50 0.1172
919.60 0.1169
919.70 0.1166
919.80 0.1163
919.90 0.1161
920.00 0.1158
920.10 0.1155
920.20 0.1152
920.30 0.1149
920.40 0.1146
920.50 0.1143
920.60 0.114
920.70 0.1137
920.80 0.1134
920.90 0.1131
921.00 0.1128
921.10 0.1125
921.20 0.1123
921.30 0.112
921.40 0.1117
921.50 0.1114
921.60 0.1111
921.70 0.1108
921.80 0.1105
921.90 0.1102
922.00 0.1099
922.10 0.11
922.20 0.11
922.30 0.1101
922.40 0.1101
922.50 0.1101
922.60 0.1102
922.70 0.1102
922.80 0.1103
922.90 0.1103
923.00 0.1103
923.10 0.1104
923.20 0.1104
923.30 0.1105
923.40 0.1105
923.50 0.1105
923.60 0.1106
923.70 0.1106
923.80 0.1107
923.90 0.1107
924.00 0.1107
924.10 0.1108
924.20 0.1108
924.30 0.1109
924.40 0.1109
924.50 0.111
924.60 0.111
924.70 0.111
924.80 0.1111
924.90 0.1111
925.00 0.1112
925.10 0.1112
925.20 0.1112
925.30 0.1113
925.40 0.1113
925.50 0.1114
925.60 0.1114
925.70 0.1114
925.80 0.1115
925.90 0.1115
926.00 0.1116
926.10 0.1116
926.20 0.1116
926.30 0.1117
926.40 0.1117
926.50 0.1118
926.60 0.1118
926.70 0.1118
926.80 0.1119
926.90 0.1119
927.00 0.112
927.10 0.1121
927.20 0.1122
927.30 0.1123
927.40 0.1125
927.50 0.1126
927.60 0.1127
927.70 0.1128
927.80 0.1129
927.90 0.1131
928.00 0.1132
928.10 0.1133
928.20 0.1134
928.30 0.1136
928.40 0.1137
928.50 0.1138
928.60 0.1139
928.70 0.114
928.80 0.1142
928.90 0.1143
929.00 0.1144
929.10 0.1145
929.20 0.1147
929.30 0.1148
929.40 0.1149
929.50 0.115
929.60 0.1151
929.70 0.1153
929.80 0.1154
929.90 0.1155
930.00 0.1156
930.10 0.1158
930.20 0.1159
930.30 0.116
930.40 0.1161
930.50 0.1162
930.60 0.1164
930.70 0.1165
930.80 0.1166
930.90 0.1167
931.00 0.1168
931.10 0.117
931.20 0.1171
931.30 0.1172
931.40 0.1173
931.50 0.1175
931.60 0.1176
931.70 0.1177
931.80 0.1178
931.90 0.1179
932.00 0.1181
932.10 0.1181
932.20 0.1181
932.30 0.1182
932.40 0.1182
932.50 0.1182
932.60 0.1183
932.70 0.1183
932.80 0.1183
932.90 0.1184
933.00 0.1184
933.10 0.1185
933.20 0.1185
933.30 0.1185
933.40 0.1186
933.50 0.1186
933.60 0.1186
933.70 0.1187
933.80 0.1187
933.90 0.1188
934.00 0.1188
934.10 0.1188
934.20 0.1189
934.30 0.1189
934.40 0.1189
934.50 0.1189
934.60 0.1189
934.70 0.1189
934.80 0.1189
934.90 0.1189
935.00 0.1189
935.10 0.1188
935.20 0.1188
935.30 0.1188
935.40 0.1188
935.50 0.1188
935.60 0.1188
935.70 0.1188
935.80 0.1188
935.90 0.1188
936.00 0.1188
936.10 0.1188
936.20 0.1188
936.30 0.1188
936.40 0.1188
936.50 0.1188
936.60 0.1187
936.70 0.1187
936.80 0.1187
936.90 0.1187
937.00 0.1187
937.10 0.1187
937.20 0.1187
937.30 0.1186
937.40 0.1186
937.50 0.1185
937.60 0.1185
937.70 0.1185
937.80 0.1184
937.90 0.1184
938.00 0.1184
938.10 0.1183
938.20 0.1183
938.30 0.1183
938.40 0.1182
938.50 0.1181
938.60 0.1181
938.70 0.118
938.80 0.118
938.90 0.1179
939.00 0.1178
939.10 0.1178
939.20 0.1177
939.30 0.1177
939.40 0.1176
939.50 0.1176
939.60 0.1175
939.70 0.1174
939.80 0.1174
939.90 0.1173
940.00 0.1173
940.10 0.1172
940.20 0.1171
940.30 0.1171
940.40 0.117
940.50 0.1169
940.60 0.1168
940.70 0.1167
940.80 0.1166
940.90 0.1166
941.00 0.1165
941.10 0.1164
941.20 0.1163
941.30 0.1162
941.40 0.1161
941.50 0.116
941.60 0.116
941.70 0.1159
941.80 0.1158
941.90 0.1157
942.00 0.1156
942.10 0.1155
942.20 0.1154
942.30 0.1153
942.40 0.1152
942.50 0.115
942.60 0.1149
942.70 0.1148
942.80 0.1147
942.90 0.1145
943.00 0.1144
943.10 0.1143
943.20 0.1141
943.30 0.114
943.40 0.1139
943.50 0.1138
943.60 0.1136
943.70 0.1135
943.80 0.1134
943.90 0.1133
944.00 0.1131
944.10 0.113
944.20 0.1129
944.30 0.1128
944.40 0.1126
944.50 0.1124
944.60 0.1123
944.70 0.1121
944.80 0.112
944.90 0.1118
945.00 0.1116
945.10 0.1115
945.20 0.1113
945.30 0.1112
945.40 0.111
945.50 0.1108
945.60 0.1106
945.70 0.1104
945.80 0.1102
945.90 0.11
946.00 0.1098
946.10 0.1096
946.20 0.1094
946.30 0.1092
946.40 0.1091
946.50 0.1089
946.60 0.1087
946.70 0.1085
946.80 0.1083
946.90 0.1081
947.00 0.1079
947.10 0.1077
947.20 0.1075
947.30 0.1073
947.40 0.107
947.50 0.1068
947.60 0.1065
947.70 0.1063
947.80 0.106
947.90 0.1058
948.00 0.1055
948.10 0.1053
948.20 0.105
948.30 0.1048
948.40 0.1045
948.50 0.1043
948.60 0.1041
948.70 0.1038
948.80 0.1036
948.90 0.1033
949.00 0.1031
949.10 0.1028
949.20 0.1026
949.30 0.1023
949.40 0.102
949.50 0.1018
949.60 0.1015
949.70 0.1012
949.80 0.1009
949.90 0.1006
950.00 0.1003
950.10 0.1
950.20 0.09971
950.30 0.09942
950.40 0.09913
950.50 0.09884
950.60 0.09855
950.70 0.09826
950.80 0.09797
950.90 0.09768
951.00 0.09739
951.10 0.0971
951.20 0.09681
951.30 0.09652
951.40 0.09621
951.50 0.0959
951.60 0.09559
951.70 0.09529
951.80 0.09498
951.90 0.09467
952.00 0.09436
952.10 0.09407
952.20 0.09377
952.30 0.09347
952.40 0.09317
952.50 0.09288
952.60 0.09258
952.70 0.09228
952.80 0.09199
952.90 0.09174
953.00 0.0915
953.10 0.09126
953.20 0.09102
953.30 0.09078
953.40 0.09053
953.50 0.09029
953.60 0.09022
953.70 0.09015
953.80 0.09008
953.90 0.09001
954.00 0.09044
954.10 0.09087
954.20 0.09183
954.30 0.09276
954.40 0.09166
954.50 0.09067
954.60 0.09018
954.70 0.08971
954.80 0.08972
954.90 0.08974
955.00 0.08976
955.10 0.08978
955.20 0.08995
955.30 0.09013
955.40 0.09031
955.50 0.09049
955.60 0.09067
955.70 0.09085
955.80 0.09103
955.90 0.09126
956.00 0.09149
956.10 0.09172
956.20 0.09195
956.30 0.09218
956.40 0.09241
956.50 0.09264
956.60 0.09287
956.70 0.0931
956.80 0.09333
956.90 0.09356
957.00 0.09379
957.10 0.09402
957.20 0.09425
957.30 0.09448
957.40 0.09469
957.50 0.0949
957.60 0.09511
957.70 0.09532
957.80 0.09553
957.90 0.09574
958.00 0.09595
958.10 0.09616
958.20 0.09637
958.30 0.09658
958.40 0.09679
958.50 0.097
958.60 0.09721
958.70 0.09742
958.80 0.09763
958.90 0.09784
959.00 0.09805
959.10 0.09826
959.20 0.09847
959.30 0.09868
959.40 0.09883
959.50 0.09899
959.60 0.09915
959.70 0.09931
959.80 0.09947
959.90 0.09962
960.00 0.09978
960.10 0.09994
960.20 0.1001
960.30 0.1003
960.40 0.1004
960.50 0.1006
960.60 0.1007
960.70 0.1009
960.80 0.101
960.90 0.1012
961.00 0.1014
961.10 0.1015
961.20 0.1017
961.30 0.1018
961.40 0.102
961.50 0.1021
961.60 0.1022
961.70 0.1023
961.80 0.1024
961.90 0.1026
962.00 0.1027
962.10 0.1028
962.20 0.1029
962.30 0.103
962.40 0.1031
962.50 0.1032
962.60 0.1033
962.70 0.1034
962.80 0.1035
962.90 0.1036
963.00 0.1037
963.10 0.1038
963.20 0.1039
963.30 0.104
963.40 0.104
963.50 0.1041
963.60 0.1042
963.70 0.1043
963.80 0.1044
963.90 0.1044
964.00 0.1045
964.10 0.1046
964.20 0.1047
964.30 0.1047
964.40 0.1048
964.50 0.1048
964.60 0.1049
964.70 0.1049
964.80 0.105
964.90 0.105
965.00 0.1051
965.10 0.1051
965.20 0.1052
965.30 0.1052
965.40 0.1053
965.50 0.1053
965.60 0.1054
965.70 0.1054
965.80 0.1055
965.90 0.1055
966.00 0.1056
966.10 0.1056
966.20 0.1057
966.30 0.1057
966.40 0.1057
966.50 0.1058
966.60 0.1058
966.70 0.1058
966.80 0.1059
966.90 0.1059
967.00 0.1059
967.10 0.1059
967.20 0.106
967.30 0.106
967.40 0.106
967.50 0.106
967.60 0.106
967.70 0.1061
967.80 0.1061
967.90 0.1061
968.00 0.1061
968.10 0.1061
968.20 0.1061
968.30 0.1062
968.40 0.1062
968.50 0.1062
968.60 0.1062
968.70 0.1062
968.80 0.1062
968.90 0.1062
969.00 0.1062
969.10 0.1062
969.20 0.1062
969.30 0.1062
969.40 0.1062
969.50 0.1062
969.60 0.1062
969.70 0.1062
969.80 0.1062
969.90 0.1062
970.00 0.1062
970.10 0.1062
970.20 0.1062
970.30 0.1062
970.40 0.1062
970.50 0.1062
970.60 0.1062
970.70 0.1062
970.80 0.1062
970.90 0.1062
971.00 0.1062
971.10 0.1062
971.20 0.1061
971.30 0.1061
971.40 0.1061
971.50 0.1061
971.60 0.1061
971.70 0.1061
971.80 0.1061
971.90 0.1061
972.00 0.1061
972.10 0.1061
972.20 0.106
972.30 0.106
972.40 0.106
972.50 0.106
972.60 0.106
972.70 0.1059
972.80 0.1059
972.90 0.1059
973.00 0.1059
973.10 0.1059
973.20 0.1058
973.30 0.1058
973.40 0.1058
973.50 0.1058
973.60 0.1058
973.70 0.1057
973.80 0.1057
973.90 0.1057
974.00 0.1057
974.10 0.1057
974.20 0.1056
974.30 0.1056
974.40 0.1056
974.50 0.1056
974.60 0.1055
974.70 0.1055
974.80 0.1055
974.90 0.1054
975.00 0.1054
975.10 0.1054
975.20 0.1054
975.30 0.1053
975.40 0.1053
975.50 0.1053
975.60 0.1052
975.70 0.1052
975.80 0.1052
975.90 0.1052
976.00 0.1051
976.10 0.1051
976.20 0.1051
976.30 0.105
976.40 0.105
976.50 0.105
976.60 0.105
976.70 0.1049
976.80 0.1049
976.90 0.1049
977.00 0.1048
977.10 0.1048
977.20 0.1048
977.30 0.1047
977.40 0.1047
977.50 0.1046
977.60 0.1046
977.70 0.1046
977.80 0.1045
977.90 0.1045
978.00 0.1044
978.10 0.1044
978.20 0.1044
978.30 0.1043
978.40 0.1043
978.50 0.1042
978.60 0.1042
978.70 0.1042
978.80 0.1041
978.90 0.1041
979.00 0.104
979.10 0.104
979.20 0.104
979.30 0.1039
979.40 0.1039
979.50 0.1038
979.60 0.1038
979.70 0.1038
979.80 0.1037
979.90 0.1037
980.00 0.1036
980.10 0.1036
980.20 0.1036
980.30 0.1035
980.40 0.1035
980.50 0.1034
980.60 0.1034
980.70 0.1034
980.80 0.1033
980.90 0.1033
981.00 0.1033
981.10 0.1032
981.20 0.1032
981.30 0.1031
981.40 0.1031
981.50 0.1031
981.60 0.103
981.70 0.103
981.80 0.1029
981.90 0.1029
982.00 0.1029
982.10 0.1028
982.20 0.1028
982.30 0.1027
982.40 0.1027
982.50 0.1026
982.60 0.1026
982.70 0.1025
982.80 0.1025
982.90 0.1024
983.00 0.1023
983.10 0.1023
983.20 0.1022
983.30 0.1022
983.40 0.1021
983.50 0.1021
983.60 0.102
983.70 0.102
983.80 0.1019
983.90 0.1019
984.00 0.1018
984.10 0.1018
984.20 0.1017
984.30 0.1017
984.40 0.1016
984.50 0.1016
984.60 0.1015
984.70 0.1015
984.80 0.1014
984.90 0.1014
985.00 0.1013
985.10 0.1012
985.20 0.1012
985.30 0.1011
985.40 0.1011
985.50 0.101
985.60 0.1009
985.70 0.1009
985.80 0.1008
985.90 0.1008
986.00 0.1007
986.10 0.1006
986.20 0.1006
986.30 0.1005
986.40 0.1005
986.50 0.1004
986.60 0.1004
986.70 0.1003
986.80 0.1002
986.90 0.1002
987.00 0.1001
987.10 0.1
987.20 0.09997
987.30 0.0999
987.40 0.09983
987.50 0.09976
987.60 0.09969
987.70 0.09962
987.80 0.09955
987.90 0.09948
988.00 0.09941
988.10 0.09934
988.20 0.09927
988.30 0.0992
988.40 0.09913
988.50 0.09906
988.60 0.09899
988.70 0.09891
988.80 0.09883
988.90 0.09875
989.00 0.09866
989.10 0.09858
989.20 0.0985
989.30 0.09842
989.40 0.09834
989.50 0.09825
989.60 0.09817
989.70 0.09809
989.80 0.09801
989.90 0.09793
990.00 0.09784
990.10 0.09776
990.20 0.09768
990.30 0.0976
990.40 0.09752
990.50 0.09744
990.60 0.09735
990.70 0.09726
990.80 0.09716
990.90 0.09707
991.00 0.09697
991.10 0.09687
991.20 0.09678
991.30 0.09668
991.40 0.09658
991.50 0.09649
991.60 0.09639
991.70 0.09629
991.80 0.0962
991.90 0.0961
992.00 0.096
992.10 0.0959
992.20 0.09579
992.30 0.09568
992.40 0.09557
992.50 0.09546
992.60 0.09536
992.70 0.09524
992.80 0.09511
992.90 0.09499
993.00 0.09487
993.10 0.09474
993.20 0.09462
993.30 0.0945
993.40 0.09437
993.50 0.09425
993.60 0.09413
993.70 0.09401
993.80 0.09388
993.90 0.09376
994.00 0.09364
994.10 0.09351
994.20 0.09339
994.30 0.09327
994.40 0.09315
994.50 0.09302
994.60 0.0929
994.70 0.09276
994.80 0.09262
994.90 0.09247
995.00 0.09233
995.10 0.09218
995.20 0.09204
995.30 0.09189
995.40 0.09175
995.50 0.0916
995.60 0.09146
995.70 0.0913
995.80 0.09113
995.90 0.09097
996.00 0.0908
996.10 0.09063
996.20 0.09047
996.30 0.0903
996.40 0.09014
996.50 0.08997
996.60 0.08981
996.70 0.08964
996.80 0.08948
996.90 0.08931
997.00 0.08915
997.10 0.08897
997.20 0.08878
997.30 0.0886
997.40 0.08841
997.50 0.08823
997.60 0.08805
997.70 0.08784
997.80 0.08763
997.90 0.08742
998.00 0.08721
998.10 0.087
998.20 0.08679
998.30 0.08658
998.40 0.08637
998.50 0.08616
998.60 0.08595
998.70 0.08574
998.80 0.08553
998.90 0.08532
999.00 0.08512
999.10 0.08491
999.20 0.0847
999.30 0.08449
999.40 0.08428
999.50 0.08407
999.60 0.08386
999.70 0.08362
999.80 0.08337
999.90 0.08311
1000.00 0.08286
1000.10 0.08261
1000.20 0.08236
1000.30 0.08211
1000.40 0.08185
1000.50 0.0816
1000.60 0.08135
1000.70 0.0811
1000.80 0.08085
1000.90 0.0806
1001.00 0.08035
1001.10 0.08009
1001.20 0.07984
1001.30 0.07959
1001.40 0.07934
1001.50 0.07909
1001.60 0.07884
1001.70 0.07857
1001.80 0.0783
1001.90 0.07802
1002.00 0.07775
1002.10 0.07746
1002.20 0.07717
1002.30 0.07688
1002.40 0.07659
1002.50 0.0763
1002.60 0.07601
1002.70 0.07572
1002.80 0.07543
1002.90 0.07514
1003.00 0.07486
1003.10 0.07457
1003.20 0.07427
1003.30 0.07397
1003.40 0.07366
1003.50 0.07336
1003.60 0.07306
1003.70 0.07276
1003.80 0.07245
1003.90 0.07216
1004.00 0.07188
1004.10 0.07159
1004.20 0.07131
1004.30 0.07115
1004.40 0.07104
1004.50 0.07115
1004.60 0.072
1004.70 0.07142
1004.80 0.07091
1004.90 0.07097
1005.00 0.07104
1005.10 0.07124
1005.20 0.07148
1005.30 0.07171
1005.40 0.07195
1005.50 0.0722
1005.60 0.07245
1005.70 0.0727
1005.80 0.07296
1005.90 0.07321
1006.00 0.07346
1006.10 0.07371
1006.20 0.07395
1006.30 0.07419
1006.40 0.07442
1006.50 0.07466
1006.60 0.0749
1006.70 0.07514
1006.80 0.07537
1006.90 0.07561
1007.00 0.07584
1007.10 0.07606
1007.20 0.07628
1007.30 0.0765
1007.40 0.07672
1007.50 0.07694
1007.60 0.07716
1007.70 0.07736
1007.80 0.07755
1007.90 0.07774
1008.00 0.07793
1008.10 0.07812
1008.20 0.07831
1008.30 0.0785
1008.40 0.07869
1008.50 0.07888
1008.60 0.07907
1008.70 0.07925
1008.80 0.07944
1008.90 0.07963
1009.00 0.07982
1009.10 0.08001
1009.20 0.0802
1009.30 0.08039
1009.40 0.08058
1009.50 0.08077
1009.60 0.08095
1009.70 0.08111
1009.80 0.08125
1009.90 0.08139
1010.00 0.08154
1010.10 0.08168
1010.20 0.08182
1010.30 0.08196
1010.40 0.08211
1010.50 0.08225
1010.60 0.08239
1010.70 0.08253
1010.80 0.08267
1010.90 0.08282
1011.00 0.08296
1011.10 0.0831
1011.20 0.08324
1011.30 0.08338
1011.40 0.08353
1011.50 0.08367
1011.60 0.08381
1011.70 0.08393
1011.80 0.08405
1011.90 0.08416
1012.00 0.08428
1012.10 0.08438
1012.20 0.08447
1012.30 0.08457
1012.40 0.08467
1012.50 0.08476
1012.60 0.08486
1012.70 0.08496
1012.80 0.08506
1012.90 0.08515
1013.00 0.08525
1013.10 0.08535
1013.20 0.08544
1013.30 0.08554
1013.40 0.08563
1013.50 0.08573
1013.60 0.08583
1013.70 0.08591
1013.80 0.08598
1013.90 0.08605
1014.00 0.08613
1014.10 0.0862
1014.20 0.08628
1014.30 0.08635
1014.40 0.08642
1014.50 0.0865
1014.60 0.08657
1014.70 0.08663
1014.80 0.08668
1014.90 0.08673
1015.00 0.08678
1015.10 0.08684
1015.20 0.08689
1015.30 0.08694
1015.40 0.08699
1015.50 0.08704
1015.60 0.08709
1015.70 0.08715
1015.80 0.0872
1015.90 0.08725
1016.00 0.0873
1016.10 0.08735
1016.20 0.0874
1016.30 0.08746
1016.40 0.08751
1016.50 0.08756
1016.60 0.08761
1016.70 0.08765
1016.80 0.08769
1016.90 0.08772
1017.00 0.08776
1017.10 0.08779
1017.20 0.08781
1017.30 0.08784
1017.40 0.08787
1017.50 0.08789
1017.60 0.08792
1017.70 0.08795
1017.80 0.08797
1017.90 0.088
1018.00 0.08802
1018.10 0.08805
1018.20 0.08808
1018.30 0.0881
1018.40 0.08813
1018.50 0.08816
1018.60 0.08818
1018.70 0.0882
1018.80 0.08821
1018.90 0.08822
1019.00 0.08824
1019.10 0.08825
1019.20 0.08826
1019.30 0.08827
1019.40 0.08828
1019.50 0.0883
1019.60 0.08831
1019.70 0.08832
1019.80 0.08833
1019.90 0.08834
1020.00 0.08835
1020.10 0.08837
1020.20 0.08838
1020.30 0.08839
1020.40 0.0884
1020.50 0.08841
1020.60 0.08843
1020.70 0.08843
1020.80 0.08843
1020.90 0.08843
1021.00 0.08843
1021.10 0.08843
1021.20 0.08843
1021.30 0.08843
1021.40 0.08843
1021.50 0.08843
1021.60 0.08843
1021.70 0.08843
1021.80 0.08843
1021.90 0.08843
1022.00 0.08843
1022.10 0.08843
1022.20 0.08842
1022.30 0.08841
1022.40 0.08841
1022.50 0.0884
1022.60 0.08839
1022.70 0.08838
1022.80 0.08838
1022.90 0.08837
1023.00 0.08836
1023.10 0.08835
1023.20 0.08835
1023.30 0.08834
1023.40 0.08833
1023.50 0.08832
1023.60 0.08832
1023.70 0.08831
1023.80 0.0883
1023.90 0.08829
1024.00 0.08829
1024.10 0.08828
1024.20 0.08827
1024.30 0.08826
1024.40 0.08826
1024.50 0.08825
1024.60 0.08824
1024.70 0.08823
1024.80 0.08821
1024.90 0.08819
1025.00 0.08818
1025.10 0.08816
1025.20 0.08815
1025.30 0.08813
1025.40 0.08811
1025.50 0.0881
1025.60 0.08808
1025.70 0.08807
1025.80 0.08805
1025.90 0.08803
1026.00 0.08802
1026.10 0.088
1026.20 0.08799
1026.30 0.08797
1026.40 0.08795
1026.50 0.08794
1026.60 0.08792
1026.70 0.08791
1026.80 0.08789
1026.90 0.08787
1027.00 0.08786
1027.10 0.08784
1027.20 0.08781
1027.30 0.08779
1027.40 0.08777
1027.50 0.08775
1027.60 0.08773
1027.70 0.0877
1027.80 0.08768
1027.90 0.08766
1028.00 0.08764
1028.10 0.08762
1028.20 0.08759
1028.30 0.08757
1028.40 0.08755
1028.50 0.08753
1028.60 0.08751
1028.70 0.08748
1028.80 0.08746
1028.90 0.08744
1029.00 0.08742
1029.10 0.0874
1029.20 0.08738
1029.30 0.08735
1029.40 0.08733
1029.50 0.08731
1029.60 0.08729
1029.70 0.08727
1029.80 0.08724
1029.90 0.08722
1030.00 0.0872
1030.10 0.08718
1030.20 0.08716
1030.30 0.08714
1030.40 0.08711
1030.50 0.08709
1030.60 0.08707
1030.70 0.08705
1030.80 0.08703
1030.90 0.087
1031.00 0.08698
1031.10 0.08696
1031.20 0.08694
1031.30 0.08692
1031.40 0.0869
1031.50 0.08687
1031.60 0.08685
1031.70 0.08683
1031.80 0.08681
1031.90 0.08679
1032.00 0.08677
1032.10 0.08674
1032.20 0.08671
1032.30 0.08669
1032.40 0.08666
1032.50 0.08663
1032.60 0.08661
1032.70 0.08658
1032.80 0.08655
1032.90 0.08653
1033.00 0.0865
1033.10 0.08648
1033.20 0.08645
1033.30 0.08642
1033.40 0.0864
1033.50 0.08637
1033.60 0.08634
1033.70 0.08632
1033.80 0.08629
1033.90 0.08626
1034.00 0.08624
1034.10 0.08621
1034.20 0.08619
1034.30 0.08616
1034.40 0.08613
1034.50 0.08611
1034.60 0.08608
1034.70 0.08605
1034.80 0.08603
1034.90 0.086
1035.00 0.08598
1035.10 0.08595
1035.20 0.08592
1035.30 0.0859
1035.40 0.08587
1035.50 0.08585
1035.60 0.08582
1035.70 0.08579
1035.80 0.08577
1035.90 0.08574
1036.00 0.08571
1036.10 0.08569
1036.20 0.08566
1036.30 0.08564
1036.40 0.08561
1036.50 0.08558
1036.60 0.08556
1036.70 0.08553
1036.80 0.08551
1036.90 0.08548
1037.00 0.08545
1037.10 0.08543
1037.20 0.0854
1037.30 0.08537
1037.40 0.08534
1037.50 0.08531
1037.60 0.08529
1037.70 0.08526
1037.80 0.08523
1037.90 0.0852
1038.00 0.08517
1038.10 0.08514
1038.20 0.08512
1038.30 0.08509
1038.40 0.08506
1038.50 0.08503
1038.60 0.085
1038.70 0.08498
1038.80 0.08495
1038.90 0.08492
1039.00 0.08489
1039.10 0.08486
1039.20 0.08484
1039.30 0.08481
1039.40 0.08478
1039.50 0.08475
1039.60 0.08472
1039.70 0.0847
1039.80 0.08467
1039.90 0.08464
1040.00 0.08461
1040.10 0.08459
1040.20 0.08456
1040.30 0.08453
1040.40 0.0845
1040.50 0.08447
1040.60 0.08445
1040.70 0.08442
1040.80 0.08439
1040.90 0.08436
1041.00 0.08433
1041.10 0.08431
1041.20 0.08428
1041.30 0.08425
1041.40 0.08422
1041.50 0.0842
1041.60 0.08417
1041.70 0.08414
1041.80 0.08411
1041.90 0.08408
1042.00 0.08406
1042.10 0.08403
1042.20 0.084
1042.30 0.08397
1042.40 0.08394
1042.50 0.08391
1042.60 0.08388
1042.70 0.08385
1042.80 0.08383
1042.90 0.0838
1043.00 0.08377
1043.10 0.08374
1043.20 0.08371
1043.30 0.08368
1043.40 0.08365
1043.50 0.08362
1043.60 0.0836
1043.70 0.08357
1043.80 0.08354
1043.90 0.08351
1044.00 0.08348
1044.10 0.08345
1044.20 0.08342
1044.30 0.08339
1044.40 0.08337
1044.50 0.08334
1044.60 0.08331
1044.70 0.08328
1044.80 0.08325
1044.90 0.08322
1045.00 0.08319
1045.10 0.08317
1045.20 0.08314
1045.30 0.08311
1045.40 0.08308
1045.50 0.08305
1045.60 0.08302
1045.70 0.08299
1045.80 0.08297
1045.90 0.08294
1046.00 0.08291
1046.10 0.08288
1046.20 0.08285
1046.30 0.08282
1046.40 0.08279
1046.50 0.08277
1046.60 0.08274
1046.70 0.08271
1046.80 0.08268
1046.90 0.08265
1047.00 0.08262
1047.10 0.08259
1047.20 0.08256
1047.30 0.08254
1047.40 0.08251
1047.50 0.08248
1047.60 0.08245
1047.70 0.08242
1047.80 0.08239
1047.90 0.08236
1048.00 0.08233
1048.10 0.0823
1048.20 0.08227
1048.30 0.08224
1048.40 0.08222
1048.50 0.08219
1048.60 0.08216
1048.70 0.08213
1048.80 0.0821
1048.90 0.08207
1049.00 0.08204
1049.10 0.08201
1049.20 0.08198
1049.30 0.08195
1049.40 0.08193
1049.50 0.0819
1049.60 0.08187
1049.70 0.08184
1049.80 0.08181
1049.90 0.08178
1050.00 0.08175
1050.10 0.08172
1050.20 0.08169
1050.30 0.08166
1050.40 0.08164
1050.50 0.08161
1050.60 0.08158
1050.70 0.08155
1050.80 0.08152
1050.90 0.08149
1051.00 0.08146
1051.10 0.08143
1051.20 0.0814
1051.30 0.08138
1051.40 0.08135
1051.50 0.08132
1051.60 0.08129
1051.70 0.08126
1051.80 0.08123
1051.90 0.0812
1052.00 0.08117
1052.10 0.08115
1052.20 0.08112
1052.30 0.08109
1052.40 0.08106
1052.50 0.08103
1052.60 0.081
1052.70 0.08097
1052.80 0.08094
1052.90 0.08091
1053.00 0.08088
1053.10 0.08085
1053.20 0.08082
1053.30 0.08079
1053.40 0.08076
1053.50 0.08073
1053.60 0.0807
1053.70 0.08067
1053.80 0.08065
1053.90 0.08062
1054.00 0.08059
1054.10 0.08056
1054.20 0.08053
1054.30 0.0805
1054.40 0.08047
1054.50 0.08044
1054.60 0.08041
1054.70 0.08038
1054.80 0.08035
1054.90 0.08032
1055.00 0.08029
1055.10 0.08026
1055.20 0.08024
1055.30 0.08021
1055.40 0.08018
1055.50 0.08015
1055.60 0.08012
1055.70 0.08009
1055.80 0.08006
1055.90 0.08003
1056.00 0.08
1056.10 0.07997
1056.20 0.07994
1056.30 0.07992
1056.40 0.07989
1056.50 0.07986
1056.60 0.07983
1056.70 0.0798
1056.80 0.07977
1056.90 0.07974
1057.00 0.07971
1057.10 0.07968
1057.20 0.07965
1057.30 0.07962
1057.40 0.07959
1057.50 0.07956
1057.60 0.07953
1057.70 0.0795
1057.80 0.07947
1057.90 0.07944
1058.00 0.07941
1058.10 0.07938
1058.20 0.07935
1058.30 0.07932
1058.40 0.07929
1058.50 0.07926
1058.60 0.07923
1058.70 0.0792
1058.80 0.07917
1058.90 0.07914
1059.00 0.07911
1059.10 0.07908
1059.20 0.07905
1059.30 0.07902
1059.40 0.07899
1059.50 0.07896
1059.60 0.07893
1059.70 0.0789
1059.80 0.07887
1059.90 0.07884
1060.00 0.07881
1060.10 0.07878
1060.20 0.07875
1060.30 0.07872
1060.40 0.07869
1060.50 0.07866
1060.60 0.07863
1060.70 0.0786
1060.80 0.07857
1060.90 0.07854
1061.00 0.07851
1061.10 0.07848
1061.20 0.07845
1061.30 0.07842
1061.40 0.07839
1061.50 0.07836
1061.60 0.07833
1061.70 0.0783
1061.80 0.07828
1061.90 0.07825
1062.00 0.07822
1062.10 0.07818
1062.20 0.07815
1062.30 0.07812
1062.40 0.07809
1062.50 0.07806
1062.60 0.07803
1062.70 0.07799
1062.80 0.07796
1062.90 0.07793
1063.00 0.0779
1063.10 0.07787
1063.20 0.07784
1063.30 0.07781
1063.40 0.07777
1063.50 0.07774
1063.60 0.07771
1063.70 0.07768
1063.80 0.07765
1063.90 0.07762
1064.00 0.07759
1064.10 0.07755
1064.20 0.07752
1064.30 0.07749
1064.40 0.07746
1064.50 0.07743
1064.60 0.0774
1064.70 0.07737
1064.80 0.07733
1064.90 0.0773
1065.00 0.07727
1065.10 0.07724
1065.20 0.07721
1065.30 0.07718
1065.40 0.07715
1065.50 0.07712
1065.60 0.07708
1065.70 0.07705
1065.80 0.07702
1065.90 0.07699
1066.00 0.07696
1066.10 0.07693
1066.20 0.0769
1066.30 0.07687
1066.40 0.07684
1066.50 0.0768
1066.60 0.07677
1066.70 0.07674
1066.80 0.07671
1066.90 0.07668
1067.00 0.07665
1067.10 0.07661
1067.20 0.07658
1067.30 0.07654
1067.40 0.07651
1067.50 0.07647
1067.60 0.07644
1067.70 0.0764
1067.80 0.07637
1067.90 0.07633
1068.00 0.07629
1068.10 0.07626
1068.20 0.07622
1068.30 0.07619
1068.40 0.07615
1068.50 0.07612
1068.60 0.07608
1068.70 0.07605
1068.80 0.07601
1068.90 0.07598
1069.00 0.07594
1069.10 0.07591
1069.20 0.07587
1069.30 0.07584
1069.40 0.0758
1069.50 0.07577
1069.60 0.07573
1069.70 0.0757
1069.80 0.07566
1069.90 0.07563
1070.00 0.07559
1070.10 0.07555
1070.20 0.07552
1070.30 0.07548
1070.40 0.07545
1070.50 0.07541
1070.60 0.07538
1070.70 0.07534
1070.80 0.07531
1070.90 0.07527
1071.00 0.07524
1071.10 0.0752
1071.20 0.07517
1071.30 0.07513
1071.40 0.0751
1071.50 0.07506
1071.60 0.07503
1071.70 0.07499
1071.80 0.07496
1071.90 0.07493
1072.00 0.07489
1072.10 0.07485
1072.20 0.07481
1072.30 0.07477
1072.40 0.07473
1072.50 0.0747
1072.60 0.07466
1072.70 0.07462
1072.80 0.07458
1072.90 0.07454
1073.00 0.0745
1073.10 0.07446
1073.20 0.07442
1073.30 0.07438
1073.40 0.07435
1073.50 0.0743
1073.60 0.07426
1073.70 0.07421
1073.80 0.07417
1073.90 0.07412
1074.00 0.07407
1074.10 0.07403
1074.20 0.07398
1074.30 0.07393
1074.40 0.07389
1074.50 0.07384
1074.60 0.0738
1074.70 0.07375
1074.80 0.0737
1074.90 0.07366
1075.00 0.07361
1075.10 0.07357
1075.20 0.07352
1075.30 0.07347
1075.40 0.07343
1075.50 0.07338
1075.60 0.07334
1075.70 0.07329
1075.80 0.07324
1075.90 0.0732
1076.00 0.07315
1076.10 0.07311
1076.20 0.07306
1076.30 0.07301
1076.40 0.07297
1076.50 0.07292
1076.60 0.07288
1076.70 0.07283
1076.80 0.07279
1076.90 0.07274
1077.00 0.07269
1077.10 0.07264
1077.20 0.07259
1077.30 0.07254
1077.40 0.07249
1077.50 0.07243
1077.60 0.07238
1077.70 0.07232
1077.80 0.07226
1077.90 0.0722
1078.00 0.07214
1078.10 0.07209
1078.20 0.07203
1078.30 0.07197
1078.40 0.07191
1078.50 0.07185
1078.60 0.0718
1078.70 0.07174
1078.80 0.07168
1078.90 0.07162
1079.00 0.07156
1079.10 0.07151
1079.20 0.07145
1079.30 0.07139
1079.40 0.07133
1079.50 0.07127
1079.60 0.0712
1079.70 0.07113
1079.80 0.07106
1079.90 0.07099
1080.00 0.07092
1080.10 0.07085
1080.20 0.07078
1080.30 0.07071
1080.40 0.07064
1080.50 0.07057
1080.60 0.07049
1080.70 0.07042
1080.80 0.07035
1080.90 0.07028
1081.00 0.07021
1081.10 0.07014
1081.20 0.07007
1081.30 0.07
1081.40 0.06993
1081.50 0.06986
1081.60 0.06978
1081.70 0.0697
1081.80 0.06963
1081.90 0.06955
1082.00 0.06947
1082.10 0.06938
1082.20 0.0693
1082.30 0.06921
1082.40 0.06912
1082.50 0.06903
1082.60 0.06895
1082.70 0.06886
1082.80 0.06877
1082.90 0.06868
1083.00 0.0686
1083.10 0.06851
1083.20 0.06842
1083.30 0.06833
1083.40 0.06825
1083.50 0.06815
1083.60 0.06805
1083.70 0.06795
1083.80 0.06785
1083.90 0.06775
1084.00 0.06765
1084.10 0.06755
1084.20 0.06745
1084.30 0.06735
1084.40 0.06725
1084.50 0.06715
1084.60 0.06703
1084.70 0.06691
1084.80 0.06679
1084.90 0.06667
1085.00 0.06655
1085.10 0.06644
1085.20 0.06632
1085.30 0.0662
1085.40 0.06608
1085.50 0.06596
1085.60 0.06585
1085.70 0.06573
1085.80 0.06561
1085.90 0.06549
1086.00 0.06537
1086.10 0.06526
1086.20 0.06514
1086.30 0.06502
1086.40 0.0649
1086.50 0.06478
1086.60 0.06465
1086.70 0.06451
1086.80 0.06438
1086.90 0.06424
1087.00 0.06411
1087.10 0.06396
1087.20 0.06381
1087.30 0.06366
1087.40 0.06351
1087.50 0.06336
1087.60 0.06322
1087.70 0.06307
1087.80 0.06292
1087.90 0.06277
1088.00 0.06262
1088.10 0.06247
1088.20 0.06232
1088.30 0.06217
1088.40 0.06203
1088.50 0.06187
1088.60 0.06169
1088.70 0.06151
1088.80 0.06134
1088.90 0.06116
1089.00 0.06098
1089.10 0.06081
1089.20 0.06063
1089.30 0.06045
1089.40 0.06028
1089.50 0.0601
1089.60 0.05992
1089.70 0.05975
1089.80 0.05957
1089.90 0.05939
1090.00 0.05922
1090.10 0.05904
1090.20 0.05887
1090.30 0.05869
1090.40 0.05851
1090.50 0.05833
1090.60 0.05811
1090.70 0.0579
1090.80 0.05769
1090.90 0.05748
1091.00 0.05726
1091.10 0.05705
1091.20 0.05684
1091.30 0.05663
1091.40 0.05641
1091.50 0.0562
1091.60 0.05599
1091.70 0.05578
1091.80 0.05557
1091.90 0.05536
1092.00 0.05514
1092.10 0.05487
1092.20 0.0546
1092.30 0.05434
1092.40 0.05407
1092.50 0.05381
1092.60 0.05354
1092.70 0.05325
1092.80 0.05291
1092.90 0.05257
1093.00 0.05223
1093.10 0.05188
1093.20 0.05151
1093.30 0.05116
1093.40 0.05112
1093.50 0.05127
1093.60 0.05105
1093.70 0.05131
1093.80 0.05165
1093.90 0.05197
1094.00 0.05228
1094.10 0.05259
1094.20 0.05289
1094.30 0.05317
1094.40 0.0534
1094.50 0.05363
1094.60 0.05386
1094.70 0.05409
1094.80 0.05432
1094.90 0.05455
1095.00 0.05476
1095.10 0.05493
1095.20 0.05511
1095.30 0.05528
1095.40 0.05545
1095.50 0.05563
1095.60 0.0558
1095.70 0.05598
1095.80 0.05615
1095.90 0.05632
1096.00 0.0565
1096.10 0.05667
1096.20 0.05684
1096.30 0.05702
1096.40 0.05719
1096.50 0.05735
1096.60 0.0575
1096.70 0.05765
1096.80 0.0578
1096.90 0.05794
1097.00 0.05809
1097.10 0.05822
1097.20 0.05835
1097.30 0.05848
1097.40 0.05861
1097.50 0.05874
1097.60 0.05886
1097.70 0.05899
1097.80 0.05912
1097.90 0.05925
1098.00 0.05938
1098.10 0.05951
1098.20 0.05964
1098.30 0.05977
1098.40 0.05989
1098.50 0.06001
1098.60 0.06011
1098.70 0.06021
1098.80 0.06031
1098.90 0.06041
1099.00 0.06051
1099.10 0.06061
1099.20 0.0607
1099.30 0.0608
1099.40 0.0609
1099.50 0.061
1099.60 0.0611
1099.70 0.0612
1099.80 0.0613
1099.90 0.06139
1100.00 0.06149
1100.10 0.06159
1100.20 0.06169
1100.30 0.06179
1100.40 0.06189
1100.50 0.06198
1100.60 0.06205
1100.70 0.06212
1100.80 0.06219
1100.90 0.06227
1101.00 0.06234
1101.10 0.06241
1101.20 0.06248
1101.30 0.06255
1101.40 0.06263
1101.50 0.0627
1101.60 0.06277
1101.70 0.06284
1101.80 0.06292
1101.90 0.06299
1102.00 0.06306
1102.10 0.06312
1102.20 0.06318
1102.30 0.06324
1102.40 0.0633
1102.50 0.06336
1102.60 0.06341
1102.70 0.06346
1102.80 0.06351
1102.90 0.06356
1103.00 0.06361
1103.10 0.06366
1103.20 0.06371
1103.30 0.06375
1103.40 0.0638
1103.50 0.06385
1103.60 0.06388
1103.70 0.06392
1103.80 0.06396
1103.90 0.06399
1104.00 0.06403
1104.10 0.06406
1104.20 0.0641
1104.30 0.06413
1104.40 0.06417
1104.50 0.06421
1104.60 0.06424
1104.70 0.06428
1104.80 0.06431
1104.90 0.06435
1105.00 0.06438
1105.10 0.06442
1105.20 0.06445
1105.30 0.06449
1105.40 0.06453
1105.50 0.06456
1105.60 0.06458
1105.70 0.0646
1105.80 0.06462
1105.90 0.06464
1106.00 0.06466
1106.10 0.06468
1106.20 0.0647
1106.30 0.06473
1106.40 0.06475
1106.50 0.06477
1106.60 0.06479
1106.70 0.06481
1106.80 0.06483
1106.90 0.06485
1107.00 0.06487
1107.10 0.06489
1107.20 0.0649
1107.30 0.06491
1107.40 0.06493
1107.50 0.06494
1107.60 0.06495
1107.70 0.06496
1107.80 0.06497
1107.90 0.06498
1108.00 0.06498
1108.10 0.06499
1108.20 0.065
1108.30 0.06501
1108.40 0.06502
1108.50 0.06503
1108.60 0.06504
1108.70 0.06505
1108.80 0.06505
1108.90 0.06506
1109.00 0.06507
1109.10 0.06508
1109.20 0.06509
1109.30 0.0651
1109.40 0.06511
1109.50 0.06511
1109.60 0.06511
1109.70 0.06511
1109.80 0.06511
1109.90 0.06511
1110.00 0.0651
1110.10 0.0651
1110.20 0.0651
1110.30 0.0651
1110.40 0.0651
1110.50 0.0651
1110.60 0.0651
1110.70 0.0651
1110.80 0.06509
1110.90 0.06509
1111.00 0.06509
1111.10 0.06509
1111.20 0.06509
1111.30 0.06509
1111.40 0.06509
1111.50 0.06508
1111.60 0.06508
1111.70 0.06508
1111.80 0.06508
1111.90 0.06508
1112.00 0.06508
1112.10 0.06507
1112.20 0.06506
1112.30 0.06506
1112.40 0.06505
1112.50 0.06504
1112.60 0.06503
1112.70 0.06503
1112.80 0.06502
1112.90 0.06501
1113.00 0.065
1113.10 0.065
1113.20 0.06499
1113.30 0.06498
1113.40 0.06497
1113.50 0.06497
1113.60 0.06495
1113.70 0.06494
1113.80 0.06493
1113.90 0.06492
1114.00 0.06491
1114.10 0.0649
1114.20 0.06489
1114.30 0.06488
1114.40 0.06486
1114.50 0.06485
1114.60 0.06484
1114.70 0.06483
1114.80 0.06482
1114.90 0.06481
1115.00 0.0648
1115.10 0.06479
1115.20 0.06477
1115.30 0.06476
1115.40 0.06475
1115.50 0.06474
1115.60 0.06473
1115.70 0.06472
1115.80 0.06471
1115.90 0.0647
1116.00 0.06469
1116.10 0.06467
1116.20 0.06466
1116.30 0.06465
1116.40 0.06464
1116.50 0.06463
1116.60 0.06462
1116.70 0.06461
1116.80 0.0646
1116.90 0.06458
1117.00 0.06457
1117.10 0.06456
1117.20 0.06454
1117.30 0.06453
1117.40 0.06451
1117.50 0.06449
1117.60 0.06448
1117.70 0.06446
1117.80 0.06445
1117.90 0.06443
1118.00 0.06441
1118.10 0.0644
1118.20 0.06438
1118.30 0.06437
1118.40 0.06435
1118.50 0.06433
1118.60 0.06432
1118.70 0.0643
1118.80 0.06429
1118.90 0.06427
1119.00 0.06425
1119.10 0.06424
1119.20 0.06422
1119.30 0.06421
1119.40 0.06419
1119.50 0.06418
1119.60 0.06416
1119.70 0.06414
1119.80 0.06413
1119.90 0.06411
1120.00 0.0641
1120.10 0.06408
1120.20 0.06406
1120.30 0.06405
1120.40 0.06403
1120.50 0.06402
1120.60 0.064
1120.70 0.06399
1120.80 0.06397
1120.90 0.06395
1121.00 0.06394
1121.10 0.06392
1121.20 0.06391
1121.30 0.06389
1121.40 0.06387
1121.50 0.06386
1121.60 0.06384
1121.70 0.06383
1121.80 0.06381
1121.90 0.0638
1122.00 0.06378
1122.10 0.06376
1122.20 0.06374
1122.30 0.06373
1122.40 0.06371
1122.50 0.06369
1122.60 0.06367
1122.70 0.06365
1122.80 0.06363
1122.90 0.06362
1123.00 0.0636
1123.10 0.06358
1123.20 0.06356
1123.30 0.06354
1123.40 0.06353
1123.50 0.06351
1123.60 0.06349
1123.70 0.06347
1123.80 0.06345
1123.90 0.06343
1124.00 0.06342
1124.10 0.0634
1124.20 0.06338
1124.30 0.06336
1124.40 0.06334
1124.50 0.06333
1124.60 0.06331
1124.70 0.06329
1124.80 0.06327
1124.90 0.06325
1125.00 0.06324
1125.10 0.06322
1125.20 0.0632
1125.30 0.06318
1125.40 0.06316
1125.50 0.06315
1125.60 0.06313
1125.70 0.06311
1125.80 0.06309
1125.90 0.06307
1126.00 0.06306
1126.10 0.06304
1126.20 0.06302
1126.30 0.063
1126.40 0.06298
1126.50 0.06297
1126.60 0.06295
1126.70 0.06293
1126.80 0.06291
1126.90 0.06289
1127.00 0.06288
1127.10 0.06286
1127.20 0.06284
1127.30 0.06282
1127.40 0.0628
1127.50 0.06278
1127.60 0.06276
1127.70 0.06274
1127.80 0.06272
1127.90 0.0627
1128.00 0.06269
1128.10 0.06267
1128.20 0.06265
1128.30 0.06263
1128.40 0.06261
1128.50 0.06259
1128.60 0.06257
1128.70 0.06255
1128.80 0.06253
1128.90 0.06251
1129.00 0.0625
1129.10 0.06248
1129.20 0.06246
1129.30 0.06244
1129.40 0.06242
1129.50 0.0624
1129.60 0.06238
1129.70 0.06236
1129.80 0.06234
1129.90 0.06233
1130.00 0.06231
1130.10 0.06229
1130.20 0.06227
1130.30 0.06225
1130.40 0.06223
1130.50 0.06221
1130.60 0.06219
1130.70 0.06217
1130.80 0.06216
1130.90 0.06214
1131.00 0.06212
1131.10 0.0621
1131.20 0.06208
1131.30 0.06206
1131.40 0.06204
1131.50 0.06202
1131.60 0.062
1131.70 0.06199
1131.80 0.06197
1131.90 0.06195
1132.00 0.06193
1132.10 0.06191
1132.20 0.06189
1132.30 0.06187
1132.40 0.06185
1132.50 0.06183
1132.60 0.06181
1132.70 0.06179
1132.80 0.06178
1132.90 0.06176
1133.00 0.06174
1133.10 0.06172
1133.20 0.0617
1133.30 0.06168
1133.40 0.06166
1133.50 0.06164
1133.60 0.06162
1133.70 0.0616
1133.80 0.06158
1133.90 0.06156
1134.00 0.06154
1134.10 0.06153
1134.20 0.06151
1134.30 0.06149
1134.40 0.06147
1134.50 0.06145
1134.60 0.06143
1134.70 0.06141
1134.80 0.06139
1134.90 0.06137
1135.00 0.06135
1135.10 0.06133
1135.20 0.06131
1135.30 0.0613
1135.40 0.06128
1135.50 0.06126
1135.60 0.06124
1135.70 0.06122
1135.80 0.0612
1135.90 0.06118
1136.00 0.06116
1136.10 0.06114
1136.20 0.06112
1136.30 0.0611
1136.40 0.06109
1136.50 0.06107
1136.60 0.06105
1136.70 0.06103
1136.80 0.06101
1136.90 0.06099
1137.00 0.06097
1137.10 0.06095
1137.20 0.06093
1137.30 0.06091
1137.40 0.06089
1137.50 0.06087
1137.60 0.06086
1137.70 0.06084
1137.80 0.06082
1137.90 0.0608
1138.00 0.06078
1138.10 0.06076
1138.20 0.06074
1138.30 0.06072
1138.40 0.0607
1138.50 0.06068
1138.60 0.06066
1138.70 0.06064
1138.80 0.06062
1138.90 0.06061
1139.00 0.06059
1139.10 0.06057
1139.20 0.06055
1139.30 0.06053
1139.40 0.06051
1139.50 0.06049
1139.60 0.06047
1139.70 0.06045
1139.80 0.06043
1139.90 0.06041
1140.00 0.06039
1140.10 0.06038
1140.20 0.06036
1140.30 0.06034
1140.40 0.06032
1140.50 0.0603
1140.60 0.06028
1140.70 0.06026
1140.80 0.06024
1140.90 0.06022
1141.00 0.0602
1141.10 0.06019
1141.20 0.06017
1141.30 0.06015
1141.40 0.06013
1141.50 0.06011
1141.60 0.06009
1141.70 0.06007
1141.80 0.06005
1141.90 0.06003
1142.00 0.06001
1142.10 0.05999
1142.20 0.05998
1142.30 0.05996
1142.40 0.05994
1142.50 0.05992
1142.60 0.0599
1142.70 0.05988
1142.80 0.05986
1142.90 0.05984
1143.00 0.05982
1143.10 0.0598
1143.20 0.05979
1143.30 0.05977
1143.40 0.05975
1143.50 0.05973
1143.60 0.05971
1143.70 0.05969
1143.80 0.05967
1143.90 0.05965
1144.00 0.05963
1144.10 0.05961
1144.20 0.05959
1144.30 0.05958
1144.40 0.05956
1144.50 0.05954
1144.60 0.05952
1144.70 0.0595
1144.80 0.05948
1144.90 0.05946
1145.00 0.05944
1145.10 0.05942
1145.20 0.05941
1145.30 0.05939
1145.40 0.05937
1145.50 0.05935
1145.60 0.05933
1145.70 0.05931
1145.80 0.05929
1145.90 0.05927
1146.00 0.05925
1146.10 0.05924
1146.20 0.05922
1146.30 0.0592
1146.40 0.05918
1146.50 0.05916
1146.60 0.05914
1146.70 0.05912
1146.80 0.0591
1146.90 0.05908
1147.00 0.05907
1147.10 0.05905
1147.20 0.05903
1147.30 0.05901
1147.40 0.05899
1147.50 0.05897
1147.60 0.05895
1147.70 0.05893
1147.80 0.05891
1147.90 0.0589
1148.00 0.05888
1148.10 0.05886
1148.20 0.05884
1148.30 0.05882
1148.40 0.0588
1148.50 0.05878
1148.60 0.05876
1148.70 0.05875
1148.80 0.05873
1148.90 0.05871
1149.00 0.05869
1149.10 0.05867
1149.20 0.05865
1149.30 0.05863
1149.40 0.05861
1149.50 0.0586
1149.60 0.05858
1149.70 0.05856
1149.80 0.05854
1149.90 0.05852
1150.00 0.0585
1150.10 0.05848
1150.20 0.05847
1150.30 0.05845
1150.40 0.05843
1150.50 0.05841
1150.60 0.05839
1150.70 0.05837
1150.80 0.05835
1150.90 0.05833
1151.00 0.05832
1151.10 0.0583
1151.20 0.05828
1151.30 0.05826
1151.40 0.05824
1151.50 0.05822
1151.60 0.0582
1151.70 0.05819
1151.80 0.05817
1151.90 0.05815
1152.00 0.05813
1152.10 0.05811
1152.20 0.05809
1152.30 0.05807
1152.40 0.05806
1152.50 0.05804
1152.60 0.05802
1152.70 0.058
1152.80 0.05798
1152.90 0.05796
1153.00 0.05794
1153.10 0.05793
1153.20 0.05791
1153.30 0.05789
1153.40 0.05787
1153.50 0.05785
1153.60 0.05783
1153.70 0.05782
1153.80 0.0578
1153.90 0.05778
1154.00 0.05776
1154.10 0.05774
1154.20 0.05772
1154.30 0.0577
1154.40 0.05769
1154.50 0.05767
1154.60 0.05765
1154.70 0.05763
1154.80 0.05761
1154.90 0.05759
1155.00 0.05758
1155.10 0.05756
1155.20 0.05754
1155.30 0.05752
1155.40 0.0575
1155.50 0.05748
1155.60 0.05747
1155.70 0.05745
1155.80 0.05743
1155.90 0.05741
1156.00 0.05739
1156.10 0.05737
1156.20 0.05736
1156.30 0.05734
1156.40 0.05732
1156.50 0.0573
1156.60 0.05728
1156.70 0.05726
1156.80 0.05725
1156.90 0.05723
1157.00 0.05721
1157.10 0.05719
1157.20 0.05717
1157.30 0.05715
1157.40 0.05714
1157.50 0.05712
1157.60 0.0571
1157.70 0.05708
1157.80 0.05706
1157.90 0.05704
1158.00 0.05703
1158.10 0.05701
1158.20 0.05699
1158.30 0.05697
1158.40 0.05695
1158.50 0.05694
1158.60 0.05692
1158.70 0.0569
1158.80 0.05688
1158.90 0.05686
1159.00 0.05684
1159.10 0.05683
1159.20 0.05681
1159.30 0.05679
1159.40 0.05677
1159.50 0.05675
1159.60 0.05674
1159.70 0.05672
1159.80 0.0567
1159.90 0.05668
1160.00 0.05666
1160.10 0.05664
1160.20 0.05663
1160.30 0.05661
1160.40 0.05659
1160.50 0.05657
1160.60 0.05655
1160.70 0.05654
1160.80 0.05652
1160.90 0.0565
1161.00 0.05648
1161.10 0.05646
1161.20 0.05645
1161.30 0.05643
1161.40 0.05641
1161.50 0.05639
1161.60 0.05637
1161.70 0.05636
1161.80 0.05634
1161.90 0.05632
1162.00 0.0563
1162.10 0.05628
1162.20 0.05627
1162.30 0.05625
1162.40 0.05623
1162.50 0.05621
1162.60 0.05619
1162.70 0.05618
1162.80 0.05616
1162.90 0.05614
1163.00 0.05612
1163.10 0.0561
1163.20 0.05609
1163.30 0.05607
1163.40 0.05605
1163.50 0.05603
1163.60 0.05602
1163.70 0.056
1163.80 0.05598
1163.90 0.05596
1164.00 0.05594
1164.10 0.05593
1164.20 0.05591
1164.30 0.05589
1164.40 0.05587
1164.50 0.05585
1164.60 0.05584
1164.70 0.05582
1164.80 0.0558
1164.90 0.05578
1165.00 0.05577
1165.10 0.05575
1165.20 0.05573
1165.30 0.05571
1165.40 0.05569
1165.50 0.05568
1165.60 0.05566
1165.70 0.05564
1165.80 0.05562
1165.90 0.05561
1166.00 0.05559
1166.10 0.05557
1166.20 0.05555
1166.30 0.05553
1166.40 0.05552
1166.50 0.0555
1166.60 0.05548
1166.70 0.05546
1166.80 0.05545
1166.90 0.05543
1167.00 0.05541
1167.10 0.05539
1167.20 0.05537
1167.30 0.05536
1167.40 0.05534
1167.50 0.05532
1167.60 0.0553
1167.70 0.05529
1167.80 0.05527
1167.90 0.05525
1168.00 0.05523
1168.10 0.05522
1168.20 0.0552
1168.30 0.05518
1168.40 0.05516
1168.50 0.05515
1168.60 0.05513
1168.70 0.05511
1168.80 0.05509
1168.90 0.05508
1169.00 0.05506
1169.10 0.05504
1169.20 0.05502
1169.30 0.05501
1169.40 0.05499
1169.50 0.05497
1169.60 0.05495
1169.70 0.05494
1169.80 0.05492
1169.90 0.0549
1170.00 0.05488
1170.10 0.05487
1170.20 0.05485
1170.30 0.05483
1170.40 0.05481
1170.50 0.0548
1170.60 0.05478
1170.70 0.05476
1170.80 0.05474
1170.90 0.05473
1171.00 0.05471
1171.10 0.05469
1171.20 0.05467
1171.30 0.05466
1171.40 0.05464
1171.50 0.05462
1171.60 0.05461
1171.70 0.05459
1171.80 0.05457
1171.90 0.05455
1172.00 0.05454
1172.10 0.05452
1172.20 0.0545
1172.30 0.05448
1172.40 0.05447
1172.50 0.05445
1172.60 0.05443
1172.70 0.05441
1172.80 0.0544
1172.90 0.05438
1173.00 0.05436
1173.10 0.05435
1173.20 0.05433
1173.30 0.05431
1173.40 0.05429
1173.50 0.05428
1173.60 0.05426
1173.70 0.05424
1173.80 0.05422
1173.90 0.05421
1174.00 0.05419
1174.10 0.05417
1174.20 0.05416
1174.30 0.05414
1174.40 0.05412
1174.50 0.0541
1174.60 0.05409
1174.70 0.05407
1174.80 0.05405
1174.90 0.05404
1175.00 0.05402
1175.10 0.054
1175.20 0.05398
1175.30 0.05397
1175.40 0.05395
1175.50 0.05393
1175.60 0.05392
1175.70 0.0539
1175.80 0.05388
1175.90 0.05386
1176.00 0.05385
1176.10 0.05383
1176.20 0.05381
1176.30 0.0538
1176.40 0.05378
1176.50 0.05376
1176.60 0.05374
1176.70 0.05373
1176.80 0.05371
1176.90 0.05369
1177.00 0.05368
1177.10 0.05366
1177.20 0.05364
1177.30 0.05363
1177.40 0.05361
1177.50 0.05359
1177.60 0.05357
1177.70 0.05356
1177.80 0.05354
1177.90 0.05352
1178.00 0.05351
1178.10 0.05349
1178.20 0.05347
1178.30 0.05346
1178.40 0.05344
1178.50 0.05342
1178.60 0.05341
1178.70 0.05339
1178.80 0.05337
1178.90 0.05335
1179.00 0.05334
1179.10 0.05332
1179.20 0.0533
1179.30 0.05329
1179.40 0.05327
1179.50 0.05325
1179.60 0.05324
1179.70 0.05322
1179.80 0.0532
1179.90 0.05319
1180.00 0.05317
1180.10 0.05315
1180.20 0.05313
1180.30 0.05312
1180.40 0.0531
1180.50 0.05308
1180.60 0.05307
1180.70 0.05305
1180.80 0.05303
1180.90 0.05302
1181.00 0.053
1181.10 0.05298
1181.20 0.05297
1181.30 0.05295
1181.40 0.05293
1181.50 0.05292
1181.60 0.0529
1181.70 0.05288
1181.80 0.05287
1181.90 0.05285
1182.00 0.05283
1182.10 0.05282
1182.20 0.0528
1182.30 0.05278
1182.40 0.05277
1182.50 0.05275
1182.60 0.05273
1182.70 0.05272
1182.80 0.0527
1182.90 0.05268
1183.00 0.05267
1183.10 0.05265
1183.20 0.05263
1183.30 0.05262
1183.40 0.0526
1183.50 0.05258
1183.60 0.05257
1183.70 0.05255
1183.80 0.05253
1183.90 0.05252
1184.00 0.0525
1184.10 0.05248
1184.20 0.05247
1184.30 0.05245
1184.40 0.05243
1184.50 0.05242
1184.60 0.0524
1184.70 0.05238
1184.80 0.05237
1184.90 0.05235
1185.00 0.05233
1185.10 0.05232
1185.20 0.0523
1185.30 0.05228
1185.40 0.05227
1185.50 0.05225
1185.60 0.05224
1185.70 0.05222
1185.80 0.0522
1185.90 0.05219
1186.00 0.05217
1186.10 0.05215
1186.20 0.05214
1186.30 0.05212
1186.40 0.0521
1186.50 0.05209
1186.60 0.05207
1186.70 0.05205
1186.80 0.05204
1186.90 0.05202
1187.00 0.052
1187.10 0.05199
1187.20 0.05197
1187.30 0.05196
1187.40 0.05194
1187.50 0.05192
1187.60 0.05191
1187.70 0.05189
1187.80 0.05187
1187.90 0.05186
1188.00 0.05184
1188.10 0.05182
1188.20 0.05181
1188.30 0.05179
1188.40 0.05178
1188.50 0.05176
1188.60 0.05174
1188.70 0.05173
1188.80 0.05171
1188.90 0.05169
1189.00 0.05168
1189.10 0.05166
1189.20 0.05165
1189.30 0.05163
1189.40 0.05161
1189.50 0.0516
1189.60 0.05158
1189.70 0.05156
1189.80 0.05155
1189.90 0.05153
1190.00 0.05152
1190.10 0.0515
1190.20 0.05148
1190.30 0.05147
1190.40 0.05145
1190.50 0.05143
1190.60 0.05142
1190.70 0.0514
1190.80 0.05139
1190.90 0.05137
1191.00 0.05135
1191.10 0.05134
1191.20 0.05132
1191.30 0.0513
1191.40 0.05129
1191.50 0.05127
1191.60 0.05126
1191.70 0.05124
1191.80 0.05122
1191.90 0.05121
1192.00 0.05119
1192.10 0.05118
1192.20 0.05116
1192.30 0.05114
1192.40 0.05113
1192.50 0.05111
1192.60 0.0511
1192.70 0.05108
1192.80 0.05106
1192.90 0.05105
1193.00 0.05103
1193.10 0.05101
1193.20 0.051
1193.30 0.05098
1193.40 0.05097
1193.50 0.05095
1193.60 0.05093
1193.70 0.05092
1193.80 0.0509
1193.90 0.05089
1194.00 0.05087
1194.10 0.05085
1194.20 0.05084
1194.30 0.05082
1194.40 0.05081
1194.50 0.05079
1194.60 0.05077
1194.70 0.05076
1194.80 0.05074
1194.90 0.05073
1195.00 0.05071
1195.10 0.0507
1195.20 0.05068
1195.30 0.05066
1195.40 0.05065
1195.50 0.05063
1195.60 0.05062
1195.70 0.0506
1195.80 0.05058
1195.90 0.05057
1196.00 0.05055
1196.10 0.05054
1196.20 0.05052
1196.30 0.0505
1196.40 0.05049
1196.50 0.05047
1196.60 0.05046
1196.70 0.05044
1196.80 0.05042
1196.90 0.05041
1197.00 0.05039
1197.10 0.05038
1197.20 0.05036
1197.30 0.05035
1197.40 0.05033
1197.50 0.05031
1197.60 0.0503
1197.70 0.05028
1197.80 0.05027
1197.90 0.05025
1198.00 0.05024
1198.10 0.05022
1198.20 0.0502
1198.30 0.05019
1198.40 0.05017
1198.50 0.05016
1198.60 0.05014
1198.70 0.05012
1198.80 0.05011
1198.90 0.05009
1199.00 0.05008
1199.10 0.05006
1199.20 0.05005
1199.30 0.05003
1199.40 0.05001
1199.50 0.05
1199.60 0.04998
1199.70 0.04997
1199.80 0.04995
1199.90 0.04994
1200.00 0
