# Version 2.1 - nm, norm@500 to 1, cut digits, bergeron_110000_65.dat_110000
# Wavelength(nm)  Flambda(ergs/cm^s/s/nm)
300.00 6.891
300.10 6.882
300.20 6.874
300.30 6.865
300.40 6.856
300.50 6.848
300.60 6.839
300.70 6.831
300.80 6.822
300.90 6.813
301.00 6.805
301.10 6.796
301.20 6.788
301.30 6.779
301.40 6.771
301.50 6.762
301.60 6.754
301.70 6.745
301.80 6.737
301.90 6.728
302.00 6.72
302.10 6.712
302.20 6.703
302.30 6.695
302.40 6.686
302.50 6.678
302.60 6.67
302.70 6.661
302.80 6.653
302.90 6.645
303.00 6.636
303.10 6.628
303.20 6.62
303.30 6.612
303.40 6.603
303.50 6.595
303.60 6.587
303.70 6.579
303.80 6.57
303.90 6.562
304.00 6.554
304.10 6.546
304.20 6.538
304.30 6.53
304.40 6.522
304.50 6.514
304.60 6.505
304.70 6.497
304.80 6.489
304.90 6.481
305.00 6.473
305.10 6.465
305.20 6.457
305.30 6.449
305.40 6.441
305.50 6.433
305.60 6.425
305.70 6.417
305.80 6.409
305.90 6.401
306.00 6.393
306.10 6.386
306.20 6.378
306.30 6.37
306.40 6.362
306.50 6.354
306.60 6.346
306.70 6.338
306.80 6.331
306.90 6.323
307.00 6.315
307.10 6.307
307.20 6.299
307.30 6.292
307.40 6.284
307.50 6.276
307.60 6.268
307.70 6.261
307.80 6.253
307.90 6.245
308.00 6.238
308.10 6.23
308.20 6.222
308.30 6.215
308.40 6.207
308.50 6.199
308.60 6.192
308.70 6.184
308.80 6.177
308.90 6.169
309.00 6.161
309.10 6.154
309.20 6.146
309.30 6.139
309.40 6.131
309.50 6.124
309.60 6.116
309.70 6.109
309.80 6.101
309.90 6.094
310.00 6.087
310.10 6.079
310.20 6.072
310.30 6.064
310.40 6.057
310.50 6.049
310.60 6.042
310.70 6.035
310.80 6.027
310.90 6.02
311.00 6.013
311.10 6.005
311.20 5.998
311.30 5.991
311.40 5.983
311.50 5.976
311.60 5.969
311.70 5.962
311.80 5.954
311.90 5.947
312.00 5.94
312.10 5.933
312.20 5.926
312.30 5.918
312.40 5.911
312.50 5.904
312.60 5.897
312.70 5.89
312.80 5.883
312.90 5.875
313.00 5.868
313.10 5.861
313.20 5.854
313.30 5.847
313.40 5.84
313.50 5.833
313.60 5.826
313.70 5.819
313.80 5.812
313.90 5.805
314.00 5.798
314.10 5.791
314.20 5.784
314.30 5.777
314.40 5.77
314.50 5.763
314.60 5.756
314.70 5.749
314.80 5.742
314.90 5.735
315.00 5.728
315.10 5.721
315.20 5.715
315.30 5.708
315.40 5.701
315.50 5.694
315.60 5.687
315.70 5.68
315.80 5.673
315.90 5.667
316.00 5.66
316.10 5.653
316.20 5.646
316.30 5.64
316.40 5.633
316.50 5.626
316.60 5.619
316.70 5.613
316.80 5.606
316.90 5.599
317.00 5.592
317.10 5.586
317.20 5.579
317.30 5.572
317.40 5.566
317.50 5.559
317.60 5.552
317.70 5.546
317.80 5.539
317.90 5.533
318.00 5.526
318.10 5.519
318.20 5.513
318.30 5.506
318.40 5.5
318.50 5.493
318.60 5.487
318.70 5.48
318.80 5.474
318.90 5.467
319.00 5.461
319.10 5.454
319.20 5.448
319.30 5.441
319.40 5.435
319.50 5.428
319.60 5.422
319.70 5.415
319.80 5.409
319.90 5.403
320.00 5.396
320.10 5.39
320.20 5.383
320.30 5.377
320.40 5.371
320.50 5.364
320.60 5.358
320.70 5.352
320.80 5.345
320.90 5.339
321.00 5.333
321.10 5.326
321.20 5.32
321.30 5.314
321.40 5.307
321.50 5.301
321.60 5.295
321.70 5.289
321.80 5.282
321.90 5.276
322.00 5.27
322.10 5.264
322.20 5.258
322.30 5.251
322.40 5.245
322.50 5.239
322.60 5.233
322.70 5.227
322.80 5.221
322.90 5.214
323.00 5.208
323.10 5.202
323.20 5.196
323.30 5.19
323.40 5.184
323.50 5.178
323.60 5.172
323.70 5.166
323.80 5.16
323.90 5.154
324.00 5.148
324.10 5.142
324.20 5.136
324.30 5.13
324.40 5.124
324.50 5.118
324.60 5.112
324.70 5.106
324.80 5.1
324.90 5.094
325.00 5.088
325.10 5.082
325.20 5.076
325.30 5.07
325.40 5.064
325.50 5.058
325.60 5.052
325.70 5.046
325.80 5.04
325.90 5.035
326.00 5.029
326.10 5.023
326.20 5.017
326.30 5.011
326.40 5.005
326.50 4.999
326.60 4.994
326.70 4.988
326.80 4.982
326.90 4.976
327.00 4.971
327.10 4.965
327.20 4.959
327.30 4.953
327.40 4.947
327.50 4.942
327.60 4.936
327.70 4.93
327.80 4.925
327.90 4.919
328.00 4.913
328.10 4.908
328.20 4.902
328.30 4.896
328.40 4.89
328.50 4.885
328.60 4.879
328.70 4.874
328.80 4.868
328.90 4.862
329.00 4.857
329.10 4.851
329.20 4.845
329.30 4.84
329.40 4.834
329.50 4.829
329.60 4.823
329.70 4.818
329.80 4.812
329.90 4.807
330.00 4.801
330.10 4.796
330.20 4.79
330.30 4.785
330.40 4.779
330.50 4.774
330.60 4.768
330.70 4.763
330.80 4.757
330.90 4.752
331.00 4.746
331.10 4.741
331.20 4.735
331.30 4.73
331.40 4.724
331.50 4.719
331.60 4.714
331.70 4.708
331.80 4.703
331.90 4.697
332.00 4.692
332.10 4.687
332.20 4.681
332.30 4.676
332.40 4.671
332.50 4.665
332.60 4.66
332.70 4.655
332.80 4.649
332.90 4.644
333.00 4.639
333.10 4.633
333.20 4.628
333.30 4.623
333.40 4.618
333.50 4.612
333.60 4.607
333.70 4.602
333.80 4.597
333.90 4.591
334.00 4.586
334.10 4.581
334.20 4.576
334.30 4.571
334.40 4.565
334.50 4.56
334.60 4.555
334.70 4.55
334.80 4.545
334.90 4.54
335.00 4.534
335.10 4.529
335.20 4.524
335.30 4.519
335.40 4.514
335.50 4.509
335.60 4.504
335.70 4.498
335.80 4.493
335.90 4.488
336.00 4.483
336.10 4.478
336.20 4.473
336.30 4.468
336.40 4.463
336.50 4.458
336.60 4.453
336.70 4.448
336.80 4.443
336.90 4.438
337.00 4.433
337.10 4.428
337.20 4.423
337.30 4.418
337.40 4.413
337.50 4.408
337.60 4.403
337.70 4.398
337.80 4.393
337.90 4.388
338.00 4.383
338.10 4.378
338.20 4.373
338.30 4.368
338.40 4.363
338.50 4.359
338.60 4.354
338.70 4.349
338.80 4.344
338.90 4.339
339.00 4.334
339.10 4.329
339.20 4.324
339.30 4.32
339.40 4.315
339.50 4.31
339.60 4.305
339.70 4.3
339.80 4.295
339.90 4.291
340.00 4.286
340.10 4.281
340.20 4.276
340.30 4.272
340.40 4.267
340.50 4.262
340.60 4.257
340.70 4.252
340.80 4.248
340.90 4.243
341.00 4.238
341.10 4.234
341.20 4.229
341.30 4.224
341.40 4.219
341.50 4.215
341.60 4.21
341.70 4.205
341.80 4.201
341.90 4.196
342.00 4.191
342.10 4.187
342.20 4.182
342.30 4.177
342.40 4.173
342.50 4.168
342.60 4.163
342.70 4.159
342.80 4.154
342.90 4.15
343.00 4.145
343.10 4.14
343.20 4.136
343.30 4.131
343.40 4.127
343.50 4.122
343.60 4.117
343.70 4.113
343.80 4.108
343.90 4.104
344.00 4.099
344.10 4.095
344.20 4.09
344.30 4.086
344.40 4.081
344.50 4.077
344.60 4.072
344.70 4.068
344.80 4.063
344.90 4.059
345.00 4.054
345.10 4.05
345.20 4.045
345.30 4.041
345.40 4.036
345.50 4.032
345.60 4.027
345.70 4.023
345.80 4.019
345.90 4.014
346.00 4.01
346.10 4.005
346.20 4.001
346.30 3.997
346.40 3.992
346.50 3.988
346.60 3.983
346.70 3.979
346.80 3.975
346.90 3.97
347.00 3.966
347.10 3.962
347.20 3.957
347.30 3.953
347.40 3.949
347.50 3.944
347.60 3.94
347.70 3.936
347.80 3.931
347.90 3.927
348.00 3.923
348.10 3.918
348.20 3.914
348.30 3.91
348.40 3.906
348.50 3.901
348.60 3.897
348.70 3.893
348.80 3.889
348.90 3.884
349.00 3.88
349.10 3.876
349.20 3.872
349.30 3.867
349.40 3.863
349.50 3.859
349.60 3.855
349.70 3.851
349.80 3.846
349.90 3.842
350.00 3.838
350.10 3.834
350.20 3.83
350.30 3.826
350.40 3.821
350.50 3.817
350.60 3.813
350.70 3.809
350.80 3.805
350.90 3.801
351.00 3.797
351.10 3.792
351.20 3.788
351.30 3.784
351.40 3.78
351.50 3.776
351.60 3.772
351.70 3.768
351.80 3.764
351.90 3.76
352.00 3.756
352.10 3.752
352.20 3.747
352.30 3.743
352.40 3.739
352.50 3.735
352.60 3.731
352.70 3.727
352.80 3.723
352.90 3.719
353.00 3.715
353.10 3.711
353.20 3.707
353.30 3.703
353.40 3.699
353.50 3.695
353.60 3.691
353.70 3.687
353.80 3.683
353.90 3.679
354.00 3.675
354.10 3.671
354.20 3.667
354.30 3.664
354.40 3.66
354.50 3.656
354.60 3.652
354.70 3.648
354.80 3.644
354.90 3.64
355.00 3.636
355.10 3.632
355.20 3.628
355.30 3.624
355.40 3.621
355.50 3.617
355.60 3.613
355.70 3.609
355.80 3.605
355.90 3.601
356.00 3.597
356.10 3.593
356.20 3.59
356.30 3.586
356.40 3.582
356.50 3.578
356.60 3.574
356.70 3.57
356.80 3.567
356.90 3.563
357.00 3.559
357.10 3.555
357.20 3.551
357.30 3.548
357.40 3.544
357.50 3.54
357.60 3.536
357.70 3.533
357.80 3.529
357.90 3.525
358.00 3.521
358.10 3.517
358.20 3.514
358.30 3.51
358.40 3.506
358.50 3.503
358.60 3.499
358.70 3.495
358.80 3.491
358.90 3.488
359.00 3.484
359.10 3.48
359.20 3.477
359.30 3.473
359.40 3.469
359.50 3.466
359.60 3.462
359.70 3.458
359.80 3.455
359.90 3.451
360.00 3.447
360.10 3.444
360.20 3.44
360.30 3.436
360.40 3.433
360.50 3.429
360.60 3.425
360.70 3.422
360.80 3.418
360.90 3.415
361.00 3.411
361.10 3.407
361.20 3.404
361.30 3.4
361.40 3.397
361.50 3.393
361.60 3.389
361.70 3.386
361.80 3.382
361.90 3.379
362.00 3.375
362.10 3.372
362.20 3.368
362.30 3.364
362.40 3.361
362.50 3.357
362.60 3.354
362.70 3.35
362.80 3.347
362.90 3.343
363.00 3.34
363.10 3.336
363.20 3.333
363.30 3.329
363.40 3.326
363.50 3.322
363.60 3.319
363.70 3.315
363.80 3.312
363.90 3.308
364.00 3.305
364.10 3.301
364.20 3.298
364.30 3.295
364.40 3.291
364.50 3.288
364.60 3.284
364.70 3.281
364.80 3.277
364.90 3.274
365.00 3.271
365.10 3.267
365.20 3.264
365.30 3.26
365.40 3.257
365.50 3.253
365.60 3.25
365.70 3.247
365.80 3.243
365.90 3.24
366.00 3.237
366.10 3.233
366.20 3.23
366.30 3.226
366.40 3.223
366.50 3.219
366.60 3.216
366.70 3.213
366.80 3.209
366.90 3.206
367.00 3.202
367.10 3.199
367.20 3.196
367.30 3.192
367.40 3.189
367.50 3.186
367.60 3.182
367.70 3.179
367.80 3.175
367.90 3.172
368.00 3.169
368.10 3.165
368.20 3.162
368.30 3.159
368.40 3.155
368.50 3.152
368.60 3.149
368.70 3.145
368.80 3.142
368.90 3.139
369.00 3.136
369.10 3.132
369.20 3.129
369.30 3.126
369.40 3.122
369.50 3.119
369.60 3.116
369.70 3.113
369.80 3.109
369.90 3.106
370.00 3.103
370.10 3.1
370.20 3.096
370.30 3.093
370.40 3.09
370.50 3.087
370.60 3.083
370.70 3.08
370.80 3.077
370.90 3.074
371.00 3.071
371.10 3.067
371.20 3.064
371.30 3.061
371.40 3.058
371.50 3.055
371.60 3.051
371.70 3.048
371.80 3.045
371.90 3.042
372.00 3.039
372.10 3.036
372.20 3.032
372.30 3.029
372.40 3.026
372.50 3.023
372.60 3.02
372.70 3.017
372.80 3.014
372.90 3.011
373.00 3.008
373.10 3.005
373.20 3.002
373.30 2.999
373.40 2.996
373.50 2.993
373.60 2.99
373.70 2.986
373.80 2.983
373.90 2.98
374.00 2.977
374.10 2.974
374.20 2.971
374.30 2.969
374.40 2.966
374.50 2.963
374.60 2.96
374.70 2.957
374.80 2.954
374.90 2.951
375.00 2.948
375.10 2.945
375.20 2.942
375.30 2.939
375.40 2.936
375.50 2.933
375.60 2.931
375.70 2.928
375.80 2.925
375.90 2.922
376.00 2.919
376.10 2.916
376.20 2.913
376.30 2.909
376.40 2.906
376.50 2.903
376.60 2.9
376.70 2.897
376.80 2.894
376.90 2.891
377.00 2.887
377.10 2.885
377.20 2.883
377.30 2.88
377.40 2.878
377.50 2.875
377.60 2.873
377.70 2.871
377.80 2.868
377.90 2.866
378.00 2.863
378.10 2.86
378.20 2.857
378.30 2.854
378.40 2.851
378.50 2.848
378.60 2.845
378.70 2.842
378.80 2.839
378.90 2.836
379.00 2.833
379.10 2.829
379.20 2.826
379.30 2.823
379.40 2.819
379.50 2.816
379.60 2.813
379.70 2.81
379.80 2.806
379.90 2.803
380.00 2.8
380.10 2.798
380.20 2.797
380.30 2.795
380.40 2.794
380.50 2.792
380.60 2.791
380.70 2.789
380.80 2.787
380.90 2.786
381.00 2.784
381.10 2.782
381.20 2.779
381.30 2.777
381.40 2.774
381.50 2.772
381.60 2.769
381.70 2.766
381.80 2.763
381.90 2.759
382.00 2.756
382.10 2.752
382.20 2.748
382.30 2.743
382.40 2.738
382.50 2.733
382.60 2.728
382.70 2.723
382.80 2.719
382.90 2.714
383.00 2.709
383.10 2.704
383.20 2.699
383.30 2.693
383.40 2.687
383.50 2.682
383.60 2.68
383.70 2.681
383.80 2.682
383.90 2.683
384.00 2.684
384.10 2.685
384.20 2.685
384.30 2.686
384.40 2.686
384.50 2.686
384.60 2.685
384.70 2.685
384.80 2.684
384.90 2.684
385.00 2.683
385.10 2.681
385.20 2.68
385.30 2.679
385.40 2.677
385.50 2.675
385.60 2.673
385.70 2.671
385.80 2.669
385.90 2.667
386.00 2.664
386.10 2.662
386.20 2.659
386.30 2.656
386.40 2.653
386.50 2.65
386.60 2.646
386.70 2.643
386.80 2.639
386.90 2.635
387.00 2.631
387.10 2.626
387.20 2.622
387.30 2.617
387.40 2.612
387.50 2.606
387.60 2.601
387.70 2.595
387.80 2.588
387.90 2.582
388.00 2.575
388.10 2.567
388.20 2.559
388.30 2.551
388.40 2.542
388.50 2.532
388.60 2.523
388.70 2.513
388.80 2.506
388.90 2.502
389.00 2.501
389.10 2.503
389.20 2.508
389.30 2.513
389.40 2.518
389.50 2.522
389.60 2.526
389.70 2.529
389.80 2.532
389.90 2.534
390.00 2.536
390.10 2.538
390.20 2.539
390.30 2.54
390.40 2.541
390.50 2.541
390.60 2.542
390.70 2.542
390.80 2.541
390.90 2.541
391.00 2.541
391.10 2.54
391.20 2.539
391.30 2.538
391.40 2.537
391.50 2.536
391.60 2.534
391.70 2.533
391.80 2.531
391.90 2.53
392.00 2.528
392.10 2.526
392.20 2.524
392.30 2.522
392.40 2.52
392.50 2.518
392.60 2.516
392.70 2.513
392.80 2.511
392.90 2.509
393.00 2.506
393.10 2.504
393.20 2.501
393.30 2.498
393.40 2.496
393.50 2.493
393.60 2.49
393.70 2.487
393.80 2.484
393.90 2.481
394.00 2.477
394.10 2.474
394.20 2.47
394.30 2.467
394.40 2.463
394.50 2.459
394.60 2.455
394.70 2.451
394.80 2.446
394.90 2.442
395.00 2.437
395.10 2.431
395.20 2.426
395.30 2.42
395.40 2.414
395.50 2.407
395.60 2.4
395.70 2.393
395.80 2.385
395.90 2.377
396.00 2.368
396.10 2.358
396.20 2.347
396.30 2.336
396.40 2.324
396.50 2.31
396.60 2.296
396.70 2.281
396.80 2.263
396.90 2.246
397.00 2.229
397.10 2.24
397.20 2.253
397.30 2.266
397.40 2.277
397.50 2.287
397.60 2.297
397.70 2.304
397.80 2.311
397.90 2.318
398.00 2.323
398.10 2.327
398.20 2.332
398.30 2.335
398.40 2.338
398.50 2.34
398.60 2.342
398.70 2.344
398.80 2.345
398.90 2.346
399.00 2.347
399.10 2.347
399.20 2.347
399.30 2.347
399.40 2.347
399.50 2.347
399.60 2.346
399.70 2.345
399.80 2.345
399.90 2.344
400.00 2.343
400.10 2.341
400.20 2.34
400.30 2.339
400.40 2.337
400.50 2.336
400.60 2.334
400.70 2.333
400.80 2.331
400.90 2.33
401.00 2.328
401.10 2.326
401.20 2.324
401.30 2.322
401.40 2.321
401.50 2.319
401.60 2.317
401.70 2.315
401.80 2.313
401.90 2.311
402.00 2.309
402.10 2.307
402.20 2.305
402.30 2.303
402.40 2.301
402.50 2.299
402.60 2.297
402.70 2.295
402.80 2.293
402.90 2.291
403.00 2.288
403.10 2.286
403.20 2.284
403.30 2.282
403.40 2.28
403.50 2.278
403.60 2.276
403.70 2.273
403.80 2.271
403.90 2.269
404.00 2.267
404.10 2.265
404.20 2.262
404.30 2.26
404.40 2.258
404.50 2.256
404.60 2.254
404.70 2.251
404.80 2.249
404.90 2.247
405.00 2.244
405.10 2.242
405.20 2.24
405.30 2.237
405.40 2.235
405.50 2.233
405.60 2.23
405.70 2.228
405.80 2.225
405.90 2.223
406.00 2.22
406.10 2.218
406.20 2.215
406.30 2.213
406.40 2.21
406.50 2.207
406.60 2.205
406.70 2.202
406.80 2.199
406.90 2.196
407.00 2.193
407.10 2.19
407.20 2.187
407.30 2.183
407.40 2.18
407.50 2.176
407.60 2.172
407.70 2.169
407.80 2.164
407.90 2.16
408.00 2.156
408.10 2.151
408.20 2.146
408.30 2.14
408.40 2.135
408.50 2.128
408.60 2.122
408.70 2.115
408.80 2.107
408.90 2.098
409.00 2.089
409.10 2.079
409.20 2.068
409.30 2.057
409.40 2.044
409.50 2.029
409.60 2.013
409.70 1.995
409.80 1.974
409.90 1.951
410.00 1.922
410.10 1.904
410.20 1.897
410.30 1.91
410.40 1.929
410.50 1.952
410.60 1.97
410.70 1.986
410.80 1.999
410.90 2.01
411.00 2.02
411.10 2.029
411.20 2.036
411.30 2.042
411.40 2.048
411.50 2.052
411.60 2.057
411.70 2.06
411.80 2.063
411.90 2.065
412.00 2.067
412.10 2.069
412.20 2.07
412.30 2.071
412.40 2.071
412.50 2.072
412.60 2.072
412.70 2.072
412.80 2.071
412.90 2.071
413.00 2.071
413.10 2.07
413.20 2.069
413.30 2.068
413.40 2.067
413.50 2.066
413.60 2.065
413.70 2.064
413.80 2.063
413.90 2.061
414.00 2.06
414.10 2.059
414.20 2.057
414.30 2.056
414.40 2.054
414.50 2.053
414.60 2.051
414.70 2.05
414.80 2.048
414.90 2.046
415.00 2.045
415.10 2.043
415.20 2.042
415.30 2.04
415.40 2.038
415.50 2.036
415.60 2.035
415.70 2.033
415.80 2.031
415.90 2.03
416.00 2.028
416.10 2.026
416.20 2.024
416.30 2.023
416.40 2.021
416.50 2.019
416.60 2.017
416.70 2.016
416.80 2.014
416.90 2.012
417.00 2.01
417.10 2.008
417.20 2.007
417.30 2.005
417.40 2.003
417.50 2.001
417.60 2
417.70 1.998
417.80 1.996
417.90 1.994
418.00 1.992
418.10 1.991
418.20 1.989
418.30 1.987
418.40 1.985
418.50 1.984
418.60 1.982
418.70 1.98
418.80 1.978
418.90 1.976
419.00 1.975
419.10 1.973
419.20 1.971
419.30 1.969
419.40 1.967
419.50 1.966
419.60 1.964
419.70 1.962
419.80 1.96
419.90 1.959
420.00 1.957
420.10 1.955
420.20 1.953
420.30 1.951
420.40 1.95
420.50 1.948
420.60 1.946
420.70 1.944
420.80 1.943
420.90 1.941
421.00 1.939
421.10 1.937
421.20 1.936
421.30 1.934
421.40 1.932
421.50 1.93
421.60 1.929
421.70 1.927
421.80 1.925
421.90 1.923
422.00 1.922
422.10 1.92
422.20 1.918
422.30 1.916
422.40 1.915
422.50 1.913
422.60 1.911
422.70 1.909
422.80 1.908
422.90 1.906
423.00 1.904
423.10 1.902
423.20 1.901
423.30 1.899
423.40 1.897
423.50 1.895
423.60 1.894
423.70 1.892
423.80 1.89
423.90 1.889
424.00 1.887
424.10 1.885
424.20 1.883
424.30 1.882
424.40 1.88
424.50 1.878
424.60 1.876
424.70 1.875
424.80 1.873
424.90 1.871
425.00 1.87
425.10 1.868
425.20 1.866
425.30 1.864
425.40 1.863
425.50 1.861
425.60 1.859
425.70 1.858
425.80 1.856
425.90 1.854
426.00 1.852
426.10 1.851
426.20 1.849
426.30 1.847
426.40 1.846
426.50 1.844
426.60 1.842
426.70 1.84
426.80 1.839
426.90 1.837
427.00 1.835
427.10 1.834
427.20 1.832
427.30 1.83
427.40 1.828
427.50 1.827
427.60 1.825
427.70 1.823
427.80 1.822
427.90 1.82
428.00 1.818
428.10 1.816
428.20 1.815
428.30 1.813
428.40 1.811
428.50 1.809
428.60 1.808
428.70 1.806
428.80 1.804
428.90 1.802
429.00 1.8
429.10 1.799
429.20 1.797
429.30 1.795
429.40 1.793
429.50 1.791
429.60 1.789
429.70 1.787
429.80 1.786
429.90 1.784
430.00 1.782
430.10 1.78
430.20 1.778
430.30 1.776
430.40 1.773
430.50 1.771
430.60 1.769
430.70 1.767
430.80 1.765
430.90 1.762
431.00 1.76
431.10 1.757
431.20 1.755
431.30 1.752
431.40 1.749
431.50 1.746
431.60 1.743
431.70 1.74
431.80 1.736
431.90 1.733
432.00 1.729
432.10 1.724
432.20 1.72
432.30 1.715
432.40 1.71
432.50 1.704
432.60 1.697
432.70 1.691
432.80 1.683
432.90 1.675
433.00 1.666
433.10 1.655
433.20 1.643
433.30 1.631
433.40 1.616
433.50 1.599
433.60 1.58
433.70 1.556
433.80 1.525
433.90 1.49
434.00 1.457
434.10 1.457
434.20 1.489
434.30 1.521
434.40 1.548
434.50 1.57
434.60 1.585
434.70 1.599
434.80 1.611
434.90 1.62
435.00 1.629
435.10 1.636
435.20 1.642
435.30 1.647
435.40 1.652
435.50 1.656
435.60 1.659
435.70 1.662
435.80 1.664
435.90 1.665
436.00 1.667
436.10 1.668
436.20 1.669
436.30 1.669
436.40 1.67
436.50 1.67
436.60 1.67
436.70 1.67
436.80 1.669
436.90 1.669
437.00 1.669
437.10 1.668
437.20 1.667
437.30 1.667
437.40 1.666
437.50 1.665
437.60 1.664
437.70 1.663
437.80 1.662
437.90 1.661
438.00 1.66
438.10 1.659
438.20 1.658
438.30 1.657
438.40 1.655
438.50 1.654
438.60 1.653
438.70 1.652
438.80 1.651
438.90 1.649
439.00 1.648
439.10 1.647
439.20 1.645
439.30 1.644
439.40 1.643
439.50 1.642
439.60 1.64
439.70 1.639
439.80 1.638
439.90 1.636
440.00 1.635
440.10 1.634
440.20 1.632
440.30 1.631
440.40 1.63
440.50 1.628
440.60 1.627
440.70 1.626
440.80 1.624
440.90 1.623
441.00 1.622
441.10 1.62
441.20 1.619
441.30 1.617
441.40 1.616
441.50 1.615
441.60 1.613
441.70 1.612
441.80 1.611
441.90 1.609
442.00 1.608
442.10 1.607
442.20 1.605
442.30 1.604
442.40 1.602
442.50 1.601
442.60 1.6
442.70 1.598
442.80 1.597
442.90 1.596
443.00 1.594
443.10 1.593
443.20 1.592
443.30 1.59
443.40 1.589
443.50 1.587
443.60 1.586
443.70 1.585
443.80 1.583
443.90 1.582
444.00 1.581
444.10 1.579
444.20 1.578
444.30 1.577
444.40 1.575
444.50 1.574
444.60 1.573
444.70 1.571
444.80 1.57
444.90 1.569
445.00 1.567
445.10 1.566
445.20 1.564
445.30 1.563
445.40 1.562
445.50 1.56
445.60 1.559
445.70 1.558
445.80 1.556
445.90 1.555
446.00 1.554
446.10 1.552
446.20 1.551
446.30 1.55
446.40 1.548
446.50 1.547
446.60 1.546
446.70 1.544
446.80 1.543
446.90 1.542
447.00 1.54
447.10 1.539
447.20 1.538
447.30 1.537
447.40 1.535
447.50 1.534
447.60 1.533
447.70 1.531
447.80 1.53
447.90 1.529
448.00 1.527
448.10 1.526
448.20 1.525
448.30 1.523
448.40 1.522
448.50 1.521
448.60 1.52
448.70 1.518
448.80 1.517
448.90 1.516
449.00 1.514
449.10 1.513
449.20 1.512
449.30 1.51
449.40 1.509
449.50 1.508
449.60 1.507
449.70 1.505
449.80 1.504
449.90 1.503
450.00 1.501
450.10 1.5
450.20 1.499
450.30 1.498
450.40 1.496
450.50 1.495
450.60 1.494
450.70 1.492
450.80 1.491
450.90 1.49
451.00 1.489
451.10 1.487
451.20 1.486
451.30 1.485
451.40 1.484
451.50 1.482
451.60 1.481
451.70 1.48
451.80 1.479
451.90 1.477
452.00 1.476
452.10 1.475
452.20 1.474
452.30 1.472
452.40 1.471
452.50 1.47
452.60 1.469
452.70 1.467
452.80 1.466
452.90 1.465
453.00 1.464
453.10 1.462
453.20 1.461
453.30 1.46
453.40 1.459
453.50 1.457
453.60 1.456
453.70 1.455
453.80 1.454
453.90 1.452
454.00 1.451
454.10 1.45
454.20 1.449
454.30 1.447
454.40 1.446
454.50 1.445
454.60 1.444
454.70 1.443
454.80 1.441
454.90 1.44
455.00 1.439
455.10 1.438
455.20 1.436
455.30 1.435
455.40 1.434
455.50 1.433
455.60 1.432
455.70 1.43
455.80 1.429
455.90 1.428
456.00 1.427
456.10 1.426
456.20 1.424
456.30 1.423
456.40 1.422
456.50 1.421
456.60 1.42
456.70 1.418
456.80 1.417
456.90 1.416
457.00 1.415
457.10 1.414
457.20 1.412
457.30 1.411
457.40 1.41
457.50 1.409
457.60 1.408
457.70 1.407
457.80 1.405
457.90 1.404
458.00 1.403
458.10 1.402
458.20 1.401
458.30 1.399
458.40 1.398
458.50 1.397
458.60 1.396
458.70 1.395
458.80 1.394
458.90 1.392
459.00 1.391
459.10 1.39
459.20 1.389
459.30 1.388
459.40 1.387
459.50 1.385
459.60 1.384
459.70 1.383
459.80 1.382
459.90 1.381
460.00 1.38
460.10 1.378
460.20 1.377
460.30 1.376
460.40 1.375
460.50 1.374
460.60 1.373
460.70 1.372
460.80 1.37
460.90 1.369
461.00 1.368
461.10 1.367
461.20 1.366
461.30 1.365
461.40 1.364
461.50 1.362
461.60 1.361
461.70 1.36
461.80 1.359
461.90 1.358
462.00 1.357
462.10 1.356
462.20 1.354
462.30 1.353
462.40 1.352
462.50 1.351
462.60 1.35
462.70 1.349
462.80 1.348
462.90 1.347
463.00 1.345
463.10 1.344
463.20 1.343
463.30 1.342
463.40 1.341
463.50 1.34
463.60 1.339
463.70 1.338
463.80 1.337
463.90 1.335
464.00 1.334
464.10 1.333
464.20 1.332
464.30 1.331
464.40 1.33
464.50 1.329
464.60 1.328
464.70 1.327
464.80 1.325
464.90 1.324
465.00 1.323
465.10 1.322
465.20 1.321
465.30 1.32
465.40 1.319
465.50 1.318
465.60 1.317
465.70 1.316
465.80 1.315
465.90 1.313
466.00 1.312
466.10 1.311
466.20 1.31
466.30 1.309
466.40 1.308
466.50 1.307
466.60 1.306
466.70 1.305
466.80 1.304
466.90 1.303
467.00 1.302
467.10 1.3
467.20 1.299
467.30 1.298
467.40 1.297
467.50 1.296
467.60 1.295
467.70 1.294
467.80 1.293
467.90 1.292
468.00 1.291
468.10 1.29
468.20 1.289
468.30 1.288
468.40 1.287
468.50 1.285
468.60 1.284
468.70 1.283
468.80 1.282
468.90 1.281
469.00 1.28
469.10 1.279
469.20 1.278
469.30 1.277
469.40 1.276
469.50 1.275
469.60 1.274
469.70 1.273
469.80 1.272
469.90 1.271
470.00 1.27
470.10 1.269
470.20 1.268
470.30 1.267
470.40 1.266
470.50 1.264
470.60 1.263
470.70 1.262
470.80 1.261
470.90 1.26
471.00 1.259
471.10 1.258
471.20 1.257
471.30 1.256
471.40 1.255
471.50 1.254
471.60 1.253
471.70 1.252
471.80 1.251
471.90 1.25
472.00 1.249
472.10 1.248
472.20 1.247
472.30 1.246
472.40 1.245
472.50 1.244
472.60 1.243
472.70 1.242
472.80 1.241
472.90 1.24
473.00 1.239
473.10 1.238
473.20 1.237
473.30 1.236
473.40 1.235
473.50 1.234
473.60 1.233
473.70 1.232
473.80 1.231
473.90 1.23
474.00 1.229
474.10 1.228
474.20 1.227
474.30 1.226
474.40 1.225
474.50 1.224
474.60 1.223
474.70 1.222
474.80 1.221
474.90 1.22
475.00 1.219
475.10 1.218
475.20 1.217
475.30 1.216
475.40 1.215
475.50 1.214
475.60 1.213
475.70 1.212
475.80 1.211
475.90 1.21
476.00 1.209
476.10 1.208
476.20 1.207
476.30 1.206
476.40 1.205
476.50 1.204
476.60 1.203
476.70 1.202
476.80 1.201
476.90 1.2
477.00 1.199
477.10 1.198
477.20 1.197
477.30 1.196
477.40 1.195
477.50 1.194
477.60 1.193
477.70 1.192
477.80 1.191
477.90 1.19
478.00 1.189
478.10 1.188
478.20 1.187
478.30 1.186
478.40 1.185
478.50 1.184
478.60 1.183
478.70 1.182
478.80 1.181
478.90 1.18
479.00 1.179
479.10 1.178
479.20 1.177
479.30 1.176
479.40 1.175
479.50 1.174
479.60 1.173
479.70 1.172
479.80 1.171
479.90 1.17
480.00 1.169
480.10 1.168
480.20 1.167
480.30 1.166
480.40 1.165
480.50 1.164
480.60 1.163
480.70 1.162
480.80 1.161
480.90 1.16
481.00 1.159
481.10 1.158
481.20 1.157
481.30 1.155
481.40 1.154
481.50 1.153
481.60 1.152
481.70 1.151
481.80 1.15
481.90 1.149
482.00 1.148
482.10 1.147
482.20 1.145
482.30 1.144
482.40 1.143
482.50 1.141
482.60 1.14
482.70 1.139
482.80 1.137
482.90 1.136
483.00 1.135
483.10 1.133
483.20 1.132
483.30 1.13
483.40 1.128
483.50 1.126
483.60 1.124
483.70 1.122
483.80 1.12
483.90 1.118
484.00 1.116
484.10 1.114
484.20 1.111
484.30 1.108
484.40 1.105
484.50 1.102
484.60 1.099
484.70 1.094
484.80 1.089
484.90 1.084
485.00 1.079
485.10 1.074
485.20 1.067
485.30 1.059
485.40 1.05
485.50 1.04
485.60 1.027
485.70 1.013
485.80 0.9908
485.90 0.9652
486.00 0.9282
486.10 0.9069
486.20 0.9054
486.30 0.9408
486.40 0.9695
486.50 0.9939
486.60 1.01
486.70 1.023
486.80 1.033
486.90 1.041
487.00 1.048
487.10 1.053
487.20 1.058
487.30 1.061
487.40 1.064
487.50 1.068
487.60 1.071
487.70 1.073
487.80 1.075
487.90 1.076
488.00 1.077
488.10 1.079
488.20 1.079
488.30 1.079
488.40 1.08
488.50 1.08
488.60 1.08
488.70 1.08
488.80 1.08
488.90 1.08
489.00 1.08
489.10 1.081
489.20 1.08
489.30 1.08
489.40 1.079
489.50 1.079
489.60 1.078
489.70 1.078
489.80 1.077
489.90 1.077
490.00 1.077
490.10 1.076
490.20 1.075
490.30 1.075
490.40 1.074
490.50 1.073
490.60 1.073
490.70 1.072
490.80 1.071
490.90 1.071
491.00 1.07
491.10 1.069
491.20 1.069
491.30 1.068
491.40 1.067
491.50 1.066
491.60 1.066
491.70 1.065
491.80 1.064
491.90 1.063
492.00 1.063
492.10 1.062
492.20 1.061
492.30 1.06
492.40 1.06
492.50 1.059
492.60 1.058
492.70 1.057
492.80 1.057
492.90 1.056
493.00 1.055
493.10 1.054
493.20 1.053
493.30 1.053
493.40 1.052
493.50 1.051
493.60 1.05
493.70 1.049
493.80 1.049
493.90 1.048
494.00 1.047
494.10 1.046
494.20 1.046
494.30 1.045
494.40 1.044
494.50 1.043
494.60 1.042
494.70 1.042
494.80 1.041
494.90 1.04
495.00 1.039
495.10 1.038
495.20 1.038
495.30 1.037
495.40 1.036
495.50 1.035
495.60 1.034
495.70 1.034
495.80 1.033
495.90 1.032
496.00 1.031
496.10 1.03
496.20 1.03
496.30 1.029
496.40 1.028
496.50 1.027
496.60 1.026
496.70 1.026
496.80 1.025
496.90 1.024
497.00 1.023
497.10 1.023
497.20 1.022
497.30 1.021
497.40 1.02
497.50 1.019
497.60 1.019
497.70 1.018
497.80 1.017
497.90 1.016
498.00 1.016
498.10 1.015
498.20 1.014
498.30 1.013
498.40 1.012
498.50 1.012
498.60 1.011
498.70 1.01
498.80 1.009
498.90 1.008
499.00 1.008
499.10 1.007
499.20 1.006
499.30 1.005
499.40 1.005
499.50 1.004
499.60 1.003
499.70 1.002
499.80 1.002
499.90 1.001
500.00 1
500.10 0.9992
500.20 0.9985
500.30 0.9977
500.40 0.9969
500.50 0.9962
500.60 0.9954
500.70 0.9946
500.80 0.9939
500.90 0.9931
501.00 0.9923
501.10 0.9916
501.20 0.9908
501.30 0.9901
501.40 0.9893
501.50 0.9885
501.60 0.9878
501.70 0.987
501.80 0.9863
501.90 0.9855
502.00 0.9848
502.10 0.984
502.20 0.9832
502.30 0.9825
502.40 0.9817
502.50 0.981
502.60 0.9802
502.70 0.9795
502.80 0.9787
502.90 0.978
503.00 0.9772
503.10 0.9765
503.20 0.9757
503.30 0.975
503.40 0.9743
503.50 0.9735
503.60 0.9728
503.70 0.972
503.80 0.9713
503.90 0.9705
504.00 0.9698
504.10 0.969
504.20 0.9683
504.30 0.9676
504.40 0.9668
504.50 0.9661
504.60 0.9654
504.70 0.9646
504.80 0.9639
504.90 0.9631
505.00 0.9624
505.10 0.9617
505.20 0.9609
505.30 0.9602
505.40 0.9595
505.50 0.9587
505.60 0.958
505.70 0.9573
505.80 0.9565
505.90 0.9558
506.00 0.9551
506.10 0.9544
506.20 0.9536
506.30 0.9529
506.40 0.9522
506.50 0.9515
506.60 0.9507
506.70 0.95
506.80 0.9493
506.90 0.9486
507.00 0.9478
507.10 0.9471
507.20 0.9464
507.30 0.9457
507.40 0.945
507.50 0.9442
507.60 0.9435
507.70 0.9428
507.80 0.9421
507.90 0.9414
508.00 0.9407
508.10 0.9399
508.20 0.9392
508.30 0.9385
508.40 0.9378
508.50 0.9371
508.60 0.9364
508.70 0.9357
508.80 0.935
508.90 0.9343
509.00 0.9336
509.10 0.9328
509.20 0.9321
509.30 0.9314
509.40 0.9307
509.50 0.93
509.60 0.9293
509.70 0.9286
509.80 0.9279
509.90 0.9272
510.00 0.9265
510.10 0.9258
510.20 0.9251
510.30 0.9244
510.40 0.9237
510.50 0.923
510.60 0.9223
510.70 0.9216
510.80 0.9209
510.90 0.9202
511.00 0.9195
511.10 0.9188
511.20 0.9181
511.30 0.9174
511.40 0.9167
511.50 0.9161
511.60 0.9154
511.70 0.9147
511.80 0.914
511.90 0.9133
512.00 0.9126
512.10 0.9119
512.20 0.9112
512.30 0.9105
512.40 0.9099
512.50 0.9092
512.60 0.9085
512.70 0.9078
512.80 0.9071
512.90 0.9064
513.00 0.9058
513.10 0.9051
513.20 0.9044
513.30 0.9037
513.40 0.903
513.50 0.9024
513.60 0.9017
513.70 0.901
513.80 0.9003
513.90 0.8996
514.00 0.899
514.10 0.8983
514.20 0.8976
514.30 0.8969
514.40 0.8963
514.50 0.8956
514.60 0.8949
514.70 0.8943
514.80 0.8936
514.90 0.8929
515.00 0.8922
515.10 0.8916
515.20 0.8909
515.30 0.8902
515.40 0.8896
515.50 0.8889
515.60 0.8882
515.70 0.8876
515.80 0.8869
515.90 0.8862
516.00 0.8856
516.10 0.8849
516.20 0.8843
516.30 0.8836
516.40 0.8829
516.50 0.8823
516.60 0.8816
516.70 0.881
516.80 0.8803
516.90 0.8796
517.00 0.879
517.10 0.8783
517.20 0.8777
517.30 0.877
517.40 0.8764
517.50 0.8757
517.60 0.875
517.70 0.8744
517.80 0.8737
517.90 0.8731
518.00 0.8724
518.10 0.8718
518.20 0.8711
518.30 0.8705
518.40 0.8698
518.50 0.8692
518.60 0.8686
518.70 0.8679
518.80 0.8673
518.90 0.8666
519.00 0.866
519.10 0.8653
519.20 0.8647
519.30 0.864
519.40 0.8634
519.50 0.8628
519.60 0.8621
519.70 0.8615
519.80 0.8608
519.90 0.8602
520.00 0.8596
520.10 0.8589
520.20 0.8583
520.30 0.8576
520.40 0.857
520.50 0.8564
520.60 0.8557
520.70 0.8551
520.80 0.8545
520.90 0.8538
521.00 0.8532
521.10 0.8526
521.20 0.8519
521.30 0.8513
521.40 0.8507
521.50 0.85
521.60 0.8494
521.70 0.8488
521.80 0.8481
521.90 0.8475
522.00 0.8469
522.10 0.8463
522.20 0.8456
522.30 0.845
522.40 0.8444
522.50 0.8438
522.60 0.8431
522.70 0.8425
522.80 0.8419
522.90 0.8413
523.00 0.8406
523.10 0.84
523.20 0.8394
523.30 0.8388
523.40 0.8382
523.50 0.8376
523.60 0.8369
523.70 0.8363
523.80 0.8357
523.90 0.8351
524.00 0.8345
524.10 0.8339
524.20 0.8332
524.30 0.8326
524.40 0.832
524.50 0.8314
524.60 0.8308
524.70 0.8302
524.80 0.8296
524.90 0.8289
525.00 0.8283
525.10 0.8277
525.20 0.8271
525.30 0.8265
525.40 0.8259
525.50 0.8253
525.60 0.8247
525.70 0.8241
525.80 0.8235
525.90 0.8229
526.00 0.8223
526.10 0.8217
526.20 0.8211
526.30 0.8205
526.40 0.8199
526.50 0.8193
526.60 0.8187
526.70 0.8181
526.80 0.8174
526.90 0.8168
527.00 0.8162
527.10 0.8157
527.20 0.8151
527.30 0.8145
527.40 0.8139
527.50 0.8133
527.60 0.8127
527.70 0.8121
527.80 0.8115
527.90 0.8109
528.00 0.8103
528.10 0.8097
528.20 0.8091
528.30 0.8085
528.40 0.8079
528.50 0.8073
528.60 0.8067
528.70 0.8062
528.80 0.8056
528.90 0.805
529.00 0.8044
529.10 0.8038
529.20 0.8032
529.30 0.8026
529.40 0.802
529.50 0.8015
529.60 0.8009
529.70 0.8003
529.80 0.7997
529.90 0.7991
530.00 0.7985
530.10 0.798
530.20 0.7974
530.30 0.7968
530.40 0.7962
530.50 0.7956
530.60 0.795
530.70 0.7945
530.80 0.7939
530.90 0.7933
531.00 0.7927
531.10 0.7922
531.20 0.7916
531.30 0.791
531.40 0.7904
531.50 0.7899
531.60 0.7893
531.70 0.7887
531.80 0.7881
531.90 0.7876
532.00 0.787
532.10 0.7864
532.20 0.7858
532.30 0.7853
532.40 0.7847
532.50 0.7841
532.60 0.7836
532.70 0.783
532.80 0.7824
532.90 0.7819
533.00 0.7813
533.10 0.7807
533.20 0.7802
533.30 0.7796
533.40 0.779
533.50 0.7785
533.60 0.7779
533.70 0.7773
533.80 0.7768
533.90 0.7762
534.00 0.7757
534.10 0.7751
534.20 0.7745
534.30 0.774
534.40 0.7734
534.50 0.7729
534.60 0.7723
534.70 0.7717
534.80 0.7712
534.90 0.7706
535.00 0.7701
535.10 0.7695
535.20 0.7689
535.30 0.7684
535.40 0.7678
535.50 0.7673
535.60 0.7667
535.70 0.7662
535.80 0.7656
535.90 0.7651
536.00 0.7645
536.10 0.764
536.20 0.7634
536.30 0.7629
536.40 0.7623
536.50 0.7618
536.60 0.7612
536.70 0.7607
536.80 0.7601
536.90 0.7596
537.00 0.759
537.10 0.7585
537.20 0.7579
537.30 0.7574
537.40 0.7568
537.50 0.7563
537.60 0.7558
537.70 0.7552
537.80 0.7547
537.90 0.7541
538.00 0.7536
538.10 0.753
538.20 0.7525
538.30 0.752
538.40 0.7514
538.50 0.7509
538.60 0.7503
538.70 0.7498
538.80 0.7493
538.90 0.7487
539.00 0.7482
539.10 0.7477
539.20 0.7471
539.30 0.7466
539.40 0.746
539.50 0.7455
539.60 0.745
539.70 0.7444
539.80 0.7439
539.90 0.7434
540.00 0.7428
540.10 0.7423
540.20 0.7418
540.30 0.7412
540.40 0.7407
540.50 0.7402
540.60 0.7397
540.70 0.7391
540.80 0.7386
540.90 0.7381
541.00 0.7375
541.10 0.737
541.20 0.7365
541.30 0.736
541.40 0.7354
541.50 0.7349
541.60 0.7344
541.70 0.7339
541.80 0.7333
541.90 0.7328
542.00 0.7323
542.10 0.7318
542.20 0.7313
542.30 0.7307
542.40 0.7302
542.50 0.7297
542.60 0.7292
542.70 0.7287
542.80 0.7281
542.90 0.7276
543.00 0.7271
543.10 0.7266
543.20 0.7261
543.30 0.7255
543.40 0.725
543.50 0.7245
543.60 0.724
543.70 0.7235
543.80 0.723
543.90 0.7225
544.00 0.7219
544.10 0.7214
544.20 0.7209
544.30 0.7204
544.40 0.7199
544.50 0.7194
544.60 0.7189
544.70 0.7184
544.80 0.7178
544.90 0.7173
545.00 0.7168
545.10 0.7163
545.20 0.7158
545.30 0.7153
545.40 0.7148
545.50 0.7143
545.60 0.7138
545.70 0.7133
545.80 0.7128
545.90 0.7123
546.00 0.7118
546.10 0.7113
546.20 0.7107
546.30 0.7102
546.40 0.7097
546.50 0.7092
546.60 0.7087
546.70 0.7082
546.80 0.7077
546.90 0.7072
547.00 0.7067
547.10 0.7062
547.20 0.7057
547.30 0.7052
547.40 0.7047
547.50 0.7042
547.60 0.7037
547.70 0.7032
547.80 0.7028
547.90 0.7023
548.00 0.7018
548.10 0.7013
548.20 0.7008
548.30 0.7003
548.40 0.6998
548.50 0.6993
548.60 0.6988
548.70 0.6983
548.80 0.6978
548.90 0.6973
549.00 0.6968
549.10 0.6963
549.20 0.6958
549.30 0.6954
549.40 0.6949
549.50 0.6944
549.60 0.6939
549.70 0.6934
549.80 0.6929
549.90 0.6924
550.00 0.6919
550.10 0.6915
550.20 0.691
550.30 0.6905
550.40 0.69
550.50 0.6895
550.60 0.689
550.70 0.6885
550.80 0.6881
550.90 0.6876
551.00 0.6871
551.10 0.6866
551.20 0.6861
551.30 0.6856
551.40 0.6852
551.50 0.6847
551.60 0.6842
551.70 0.6837
551.80 0.6832
551.90 0.6828
552.00 0.6823
552.10 0.6818
552.20 0.6813
552.30 0.6809
552.40 0.6804
552.50 0.6799
552.60 0.6794
552.70 0.6789
552.80 0.6785
552.90 0.678
553.00 0.6775
553.10 0.677
553.20 0.6766
553.30 0.6761
553.40 0.6756
553.50 0.6752
553.60 0.6747
553.70 0.6742
553.80 0.6737
553.90 0.6733
554.00 0.6728
554.10 0.6723
554.20 0.6719
554.30 0.6714
554.40 0.6709
554.50 0.6705
554.60 0.67
554.70 0.6695
554.80 0.6691
554.90 0.6686
555.00 0.6681
555.10 0.6677
555.20 0.6672
555.30 0.6667
555.40 0.6663
555.50 0.6658
555.60 0.6653
555.70 0.6649
555.80 0.6644
555.90 0.6639
556.00 0.6635
556.10 0.663
556.20 0.6626
556.30 0.6621
556.40 0.6616
556.50 0.6612
556.60 0.6607
556.70 0.6603
556.80 0.6598
556.90 0.6593
557.00 0.6589
557.10 0.6584
557.20 0.658
557.30 0.6575
557.40 0.6571
557.50 0.6566
557.60 0.6561
557.70 0.6557
557.80 0.6552
557.90 0.6548
558.00 0.6543
558.10 0.6539
558.20 0.6534
558.30 0.653
558.40 0.6525
558.50 0.6521
558.60 0.6516
558.70 0.6512
558.80 0.6507
558.90 0.6503
559.00 0.6498
559.10 0.6494
559.20 0.6489
559.30 0.6485
559.40 0.648
559.50 0.6476
559.60 0.6471
559.70 0.6467
559.80 0.6462
559.90 0.6458
560.00 0.6453
560.10 0.6449
560.20 0.6444
560.30 0.644
560.40 0.6435
560.50 0.6431
560.60 0.6427
560.70 0.6422
560.80 0.6418
560.90 0.6413
561.00 0.6409
561.10 0.6404
561.20 0.64
561.30 0.6396
561.40 0.6391
561.50 0.6387
561.60 0.6382
561.70 0.6378
561.80 0.6374
561.90 0.6369
562.00 0.6365
562.10 0.636
562.20 0.6356
562.30 0.6352
562.40 0.6347
562.50 0.6343
562.60 0.6339
562.70 0.6334
562.80 0.633
562.90 0.6325
563.00 0.6321
563.10 0.6317
563.20 0.6312
563.30 0.6308
563.40 0.6304
563.50 0.6299
563.60 0.6295
563.70 0.6291
563.80 0.6286
563.90 0.6282
564.00 0.6278
564.10 0.6273
564.20 0.6269
564.30 0.6265
564.40 0.6261
564.50 0.6256
564.60 0.6252
564.70 0.6248
564.80 0.6243
564.90 0.6239
565.00 0.6235
565.10 0.6231
565.20 0.6226
565.30 0.6222
565.40 0.6218
565.50 0.6214
565.60 0.6209
565.70 0.6205
565.80 0.6201
565.90 0.6197
566.00 0.6192
566.10 0.6188
566.20 0.6184
566.30 0.618
566.40 0.6175
566.50 0.6171
566.60 0.6167
566.70 0.6163
566.80 0.6159
566.90 0.6154
567.00 0.615
567.10 0.6146
567.20 0.6142
567.30 0.6138
567.40 0.6133
567.50 0.6129
567.60 0.6125
567.70 0.6121
567.80 0.6117
567.90 0.6113
568.00 0.6108
568.10 0.6104
568.20 0.61
568.30 0.6096
568.40 0.6092
568.50 0.6088
568.60 0.6083
568.70 0.6079
568.80 0.6075
568.90 0.6071
569.00 0.6067
569.10 0.6063
569.20 0.6059
569.30 0.6055
569.40 0.605
569.50 0.6046
569.60 0.6042
569.70 0.6038
569.80 0.6034
569.90 0.603
570.00 0.6026
570.10 0.6022
570.20 0.6018
570.30 0.6014
570.40 0.6009
570.50 0.6005
570.60 0.6001
570.70 0.5997
570.80 0.5993
570.90 0.5989
571.00 0.5985
571.10 0.5981
571.20 0.5977
571.30 0.5973
571.40 0.5969
571.50 0.5965
571.60 0.5961
571.70 0.5957
571.80 0.5953
571.90 0.5949
572.00 0.5945
572.10 0.5941
572.20 0.5937
572.30 0.5933
572.40 0.5929
572.50 0.5925
572.60 0.5921
572.70 0.5917
572.80 0.5913
572.90 0.5909
573.00 0.5905
573.10 0.5901
573.20 0.5897
573.30 0.5893
573.40 0.5889
573.50 0.5885
573.60 0.5881
573.70 0.5877
573.80 0.5873
573.90 0.5869
574.00 0.5865
574.10 0.5861
574.20 0.5857
574.30 0.5853
574.40 0.5849
574.50 0.5845
574.60 0.5841
574.70 0.5837
574.80 0.5833
574.90 0.5829
575.00 0.5825
575.10 0.5821
575.20 0.5818
575.30 0.5814
575.40 0.581
575.50 0.5806
575.60 0.5802
575.70 0.5798
575.80 0.5794
575.90 0.579
576.00 0.5786
576.10 0.5782
576.20 0.5778
576.30 0.5775
576.40 0.5771
576.50 0.5767
576.60 0.5763
576.70 0.5759
576.80 0.5755
576.90 0.5751
577.00 0.5748
577.10 0.5744
577.20 0.574
577.30 0.5736
577.40 0.5732
577.50 0.5728
577.60 0.5724
577.70 0.5721
577.80 0.5717
577.90 0.5713
578.00 0.5709
578.10 0.5705
578.20 0.5701
578.30 0.5698
578.40 0.5694
578.50 0.569
578.60 0.5686
578.70 0.5682
578.80 0.5679
578.90 0.5675
579.00 0.5671
579.10 0.5667
579.20 0.5663
579.30 0.566
579.40 0.5656
579.50 0.5652
579.60 0.5648
579.70 0.5644
579.80 0.5641
579.90 0.5637
580.00 0.5633
580.10 0.5629
580.20 0.5626
580.30 0.5622
580.40 0.5618
580.50 0.5614
580.60 0.5611
580.70 0.5607
580.80 0.5603
580.90 0.5599
581.00 0.5596
581.10 0.5592
581.20 0.5588
581.30 0.5585
581.40 0.5581
581.50 0.5577
581.60 0.5573
581.70 0.557
581.80 0.5566
581.90 0.5562
582.00 0.5559
582.10 0.5555
582.20 0.5551
582.30 0.5547
582.40 0.5544
582.50 0.554
582.60 0.5536
582.70 0.5533
582.80 0.5529
582.90 0.5525
583.00 0.5522
583.10 0.5518
583.20 0.5514
583.30 0.5511
583.40 0.5507
583.50 0.5503
583.60 0.55
583.70 0.5496
583.80 0.5492
583.90 0.5489
584.00 0.5485
584.10 0.5482
584.20 0.5478
584.30 0.5474
584.40 0.5471
584.50 0.5467
584.60 0.5463
584.70 0.546
584.80 0.5456
584.90 0.5453
585.00 0.5449
585.10 0.5445
585.20 0.5442
585.30 0.5438
585.40 0.5435
585.50 0.5431
585.60 0.5427
585.70 0.5424
585.80 0.542
585.90 0.5417
586.00 0.5413
586.10 0.5409
586.20 0.5406
586.30 0.5402
586.40 0.5399
586.50 0.5395
586.60 0.5392
586.70 0.5388
586.80 0.5384
586.90 0.5381
587.00 0.5377
587.10 0.5374
587.20 0.537
587.30 0.5367
587.40 0.5363
587.50 0.536
587.60 0.5356
587.70 0.5353
587.80 0.5349
587.90 0.5346
588.00 0.5342
588.10 0.5338
588.20 0.5335
588.30 0.5331
588.40 0.5328
588.50 0.5324
588.60 0.5321
588.70 0.5317
588.80 0.5314
588.90 0.531
589.00 0.5307
589.10 0.5303
589.20 0.53
589.30 0.5296
589.40 0.5293
589.50 0.5289
589.60 0.5286
589.70 0.5283
589.80 0.5279
589.90 0.5276
590.00 0.5272
590.10 0.5269
590.20 0.5265
590.30 0.5262
590.40 0.5258
590.50 0.5255
590.60 0.5251
590.70 0.5248
590.80 0.5245
590.90 0.5241
591.00 0.5238
591.10 0.5234
591.20 0.5231
591.30 0.5227
591.40 0.5224
591.50 0.5221
591.60 0.5217
591.70 0.5214
591.80 0.521
591.90 0.5207
592.00 0.5203
592.10 0.52
592.20 0.5197
592.30 0.5193
592.40 0.519
592.50 0.5186
592.60 0.5183
592.70 0.518
592.80 0.5176
592.90 0.5173
593.00 0.517
593.10 0.5166
593.20 0.5163
593.30 0.5159
593.40 0.5156
593.50 0.5153
593.60 0.5149
593.70 0.5146
593.80 0.5143
593.90 0.5139
594.00 0.5136
594.10 0.5133
594.20 0.5129
594.30 0.5126
594.40 0.5122
594.50 0.5119
594.60 0.5116
594.70 0.5112
594.80 0.5109
594.90 0.5106
595.00 0.5103
595.10 0.5099
595.20 0.5096
595.30 0.5093
595.40 0.5089
595.50 0.5086
595.60 0.5083
595.70 0.5079
595.80 0.5076
595.90 0.5073
596.00 0.5069
596.10 0.5066
596.20 0.5063
596.30 0.506
596.40 0.5056
596.50 0.5053
596.60 0.505
596.70 0.5046
596.80 0.5043
596.90 0.504
597.00 0.5037
597.10 0.5033
597.20 0.503
597.30 0.5027
597.40 0.5023
597.50 0.502
597.60 0.5017
597.70 0.5014
597.80 0.501
597.90 0.5007
598.00 0.5004
598.10 0.5001
598.20 0.4997
598.30 0.4994
598.40 0.4991
598.50 0.4988
598.60 0.4985
598.70 0.4981
598.80 0.4978
598.90 0.4975
599.00 0.4972
599.10 0.4968
599.20 0.4965
599.30 0.4962
599.40 0.4959
599.50 0.4956
599.60 0.4952
599.70 0.4949
599.80 0.4946
599.90 0.4943
600.00 0.494
600.10 0.4936
600.20 0.4933
600.30 0.493
600.40 0.4927
600.50 0.4924
600.60 0.492
600.70 0.4917
600.80 0.4914
600.90 0.4911
601.00 0.4908
601.10 0.4905
601.20 0.4901
601.30 0.4898
601.40 0.4895
601.50 0.4892
601.60 0.4889
601.70 0.4886
601.80 0.4883
601.90 0.4879
602.00 0.4876
602.10 0.4873
602.20 0.487
602.30 0.4867
602.40 0.4864
602.50 0.4861
602.60 0.4857
602.70 0.4854
602.80 0.4851
602.90 0.4848
603.00 0.4845
603.10 0.4842
603.20 0.4839
603.30 0.4836
603.40 0.4833
603.50 0.4829
603.60 0.4826
603.70 0.4823
603.80 0.482
603.90 0.4817
604.00 0.4814
604.10 0.4811
604.20 0.4808
604.30 0.4805
604.40 0.4802
604.50 0.4799
604.60 0.4795
604.70 0.4792
604.80 0.4789
604.90 0.4786
605.00 0.4783
605.10 0.478
605.20 0.4777
605.30 0.4774
605.40 0.4771
605.50 0.4768
605.60 0.4765
605.70 0.4762
605.80 0.4759
605.90 0.4756
606.00 0.4753
606.10 0.475
606.20 0.4747
606.30 0.4744
606.40 0.4741
606.50 0.4737
606.60 0.4734
606.70 0.4731
606.80 0.4728
606.90 0.4725
607.00 0.4722
607.10 0.4719
607.20 0.4716
607.30 0.4713
607.40 0.471
607.50 0.4707
607.60 0.4704
607.70 0.4701
607.80 0.4698
607.90 0.4695
608.00 0.4692
608.10 0.4689
608.20 0.4686
608.30 0.4683
608.40 0.468
608.50 0.4677
608.60 0.4674
608.70 0.4671
608.80 0.4668
608.90 0.4665
609.00 0.4662
609.10 0.4659
609.20 0.4657
609.30 0.4654
609.40 0.4651
609.50 0.4648
609.60 0.4645
609.70 0.4642
609.80 0.4639
609.90 0.4636
610.00 0.4633
610.10 0.463
610.20 0.4627
610.30 0.4624
610.40 0.4621
610.50 0.4618
610.60 0.4615
610.70 0.4612
610.80 0.4609
610.90 0.4606
611.00 0.4604
611.10 0.4601
611.20 0.4598
611.30 0.4595
611.40 0.4592
611.50 0.4589
611.60 0.4586
611.70 0.4583
611.80 0.458
611.90 0.4577
612.00 0.4574
612.10 0.4572
612.20 0.4569
612.30 0.4566
612.40 0.4563
612.50 0.456
612.60 0.4557
612.70 0.4554
612.80 0.4551
612.90 0.4548
613.00 0.4546
613.10 0.4543
613.20 0.454
613.30 0.4537
613.40 0.4534
613.50 0.4531
613.60 0.4528
613.70 0.4525
613.80 0.4523
613.90 0.452
614.00 0.4517
614.10 0.4514
614.20 0.4511
614.30 0.4508
614.40 0.4506
614.50 0.4503
614.60 0.45
614.70 0.4497
614.80 0.4494
614.90 0.4491
615.00 0.4489
615.10 0.4486
615.20 0.4483
615.30 0.448
615.40 0.4477
615.50 0.4474
615.60 0.4472
615.70 0.4469
615.80 0.4466
615.90 0.4463
616.00 0.446
616.10 0.4457
616.20 0.4455
616.30 0.4452
616.40 0.4449
616.50 0.4446
616.60 0.4443
616.70 0.4441
616.80 0.4438
616.90 0.4435
617.00 0.4432
617.10 0.443
617.20 0.4427
617.30 0.4424
617.40 0.4421
617.50 0.4418
617.60 0.4416
617.70 0.4413
617.80 0.441
617.90 0.4407
618.00 0.4405
618.10 0.4402
618.20 0.4399
618.30 0.4396
618.40 0.4394
618.50 0.4391
618.60 0.4388
618.70 0.4385
618.80 0.4382
618.90 0.438
619.00 0.4377
619.10 0.4374
619.20 0.4371
619.30 0.4369
619.40 0.4366
619.50 0.4363
619.60 0.4361
619.70 0.4358
619.80 0.4355
619.90 0.4352
620.00 0.435
620.10 0.4347
620.20 0.4344
620.30 0.4342
620.40 0.4339
620.50 0.4336
620.60 0.4333
620.70 0.4331
620.80 0.4328
620.90 0.4325
621.00 0.4323
621.10 0.432
621.20 0.4317
621.30 0.4314
621.40 0.4312
621.50 0.4309
621.60 0.4306
621.70 0.4304
621.80 0.4301
621.90 0.4298
622.00 0.4296
622.10 0.4293
622.20 0.429
622.30 0.4288
622.40 0.4285
622.50 0.4282
622.60 0.428
622.70 0.4277
622.80 0.4274
622.90 0.4272
623.00 0.4269
623.10 0.4266
623.20 0.4264
623.30 0.4261
623.40 0.4258
623.50 0.4256
623.60 0.4253
623.70 0.425
623.80 0.4248
623.90 0.4245
624.00 0.4242
624.10 0.424
624.20 0.4237
624.30 0.4235
624.40 0.4232
624.50 0.4229
624.60 0.4227
624.70 0.4224
624.80 0.4221
624.90 0.4219
625.00 0.4216
625.10 0.4214
625.20 0.4211
625.30 0.4208
625.40 0.4206
625.50 0.4203
625.60 0.42
625.70 0.4198
625.80 0.4195
625.90 0.4193
626.00 0.419
626.10 0.4187
626.20 0.4185
626.30 0.4182
626.40 0.418
626.50 0.4177
626.60 0.4175
626.70 0.4172
626.80 0.4169
626.90 0.4167
627.00 0.4164
627.10 0.4162
627.20 0.4159
627.30 0.4156
627.40 0.4154
627.50 0.4151
627.60 0.4149
627.70 0.4146
627.80 0.4144
627.90 0.4141
628.00 0.4139
628.10 0.4136
628.20 0.4133
628.30 0.4131
628.40 0.4128
628.50 0.4126
628.60 0.4123
628.70 0.4121
628.80 0.4118
628.90 0.4116
629.00 0.4113
629.10 0.411
629.20 0.4108
629.30 0.4105
629.40 0.4103
629.50 0.41
629.60 0.4098
629.70 0.4095
629.80 0.4093
629.90 0.409
630.00 0.4088
630.10 0.4085
630.20 0.4083
630.30 0.408
630.40 0.4078
630.50 0.4075
630.60 0.4073
630.70 0.407
630.80 0.4068
630.90 0.4065
631.00 0.4063
631.10 0.406
631.20 0.4058
631.30 0.4055
631.40 0.4053
631.50 0.405
631.60 0.4048
631.70 0.4045
631.80 0.4043
631.90 0.404
632.00 0.4038
632.10 0.4035
632.20 0.4033
632.30 0.403
632.40 0.4028
632.50 0.4025
632.60 0.4023
632.70 0.402
632.80 0.4018
632.90 0.4015
633.00 0.4013
633.10 0.4011
633.20 0.4008
633.30 0.4006
633.40 0.4003
633.50 0.4001
633.60 0.3998
633.70 0.3996
633.80 0.3993
633.90 0.3991
634.00 0.3988
634.10 0.3986
634.20 0.3984
634.30 0.3981
634.40 0.3979
634.50 0.3976
634.60 0.3974
634.70 0.3971
634.80 0.3969
634.90 0.3967
635.00 0.3964
635.10 0.3962
635.20 0.3959
635.30 0.3957
635.40 0.3954
635.50 0.3952
635.60 0.395
635.70 0.3947
635.80 0.3945
635.90 0.3942
636.00 0.394
636.10 0.3938
636.20 0.3935
636.30 0.3933
636.40 0.393
636.50 0.3928
636.60 0.3925
636.70 0.3923
636.80 0.3921
636.90 0.3918
637.00 0.3916
637.10 0.3914
637.20 0.3911
637.30 0.3909
637.40 0.3906
637.50 0.3904
637.60 0.3902
637.70 0.3899
637.80 0.3897
637.90 0.3894
638.00 0.3892
638.10 0.389
638.20 0.3887
638.30 0.3885
638.40 0.3883
638.50 0.388
638.60 0.3878
638.70 0.3876
638.80 0.3873
638.90 0.3871
639.00 0.3868
639.10 0.3866
639.20 0.3864
639.30 0.3861
639.40 0.3859
639.50 0.3857
639.60 0.3854
639.70 0.3852
639.80 0.385
639.90 0.3847
640.00 0.3845
640.10 0.3843
640.20 0.384
640.30 0.3838
640.40 0.3836
640.50 0.3833
640.60 0.3831
640.70 0.3829
640.80 0.3826
640.90 0.3824
641.00 0.3822
641.10 0.3819
641.20 0.3817
641.30 0.3815
641.40 0.3812
641.50 0.381
641.60 0.3808
641.70 0.3805
641.80 0.3803
641.90 0.3801
642.00 0.3798
642.10 0.3796
642.20 0.3794
642.30 0.3792
642.40 0.3789
642.50 0.3787
642.60 0.3785
642.70 0.3782
642.80 0.378
642.90 0.3778
643.00 0.3775
643.10 0.3773
643.20 0.3771
643.30 0.3769
643.40 0.3766
643.50 0.3764
643.60 0.3762
643.70 0.3759
643.80 0.3757
643.90 0.3755
644.00 0.3753
644.10 0.375
644.20 0.3748
644.30 0.3746
644.40 0.3743
644.50 0.3741
644.60 0.3739
644.70 0.3737
644.80 0.3734
644.90 0.3732
645.00 0.373
645.10 0.3727
645.20 0.3725
645.30 0.3723
645.40 0.3721
645.50 0.3718
645.60 0.3716
645.70 0.3714
645.80 0.3712
645.90 0.3709
646.00 0.3707
646.10 0.3705
646.20 0.3702
646.30 0.37
646.40 0.3698
646.50 0.3696
646.60 0.3693
646.70 0.3691
646.80 0.3689
646.90 0.3687
647.00 0.3684
647.10 0.3682
647.20 0.368
647.30 0.3678
647.40 0.3675
647.50 0.3673
647.60 0.3671
647.70 0.3668
647.80 0.3666
647.90 0.3664
648.00 0.3662
648.10 0.3659
648.20 0.3657
648.30 0.3655
648.40 0.3653
648.50 0.365
648.60 0.3648
648.70 0.3646
648.80 0.3643
648.90 0.3641
649.00 0.3639
649.10 0.3637
649.20 0.3634
649.30 0.3632
649.40 0.363
649.50 0.3627
649.60 0.3625
649.70 0.3623
649.80 0.362
649.90 0.3618
650.00 0.3616
650.10 0.3613
650.20 0.3611
650.30 0.3609
650.40 0.3606
650.50 0.3604
650.60 0.3601
650.70 0.3599
650.80 0.3596
650.90 0.3594
651.00 0.3592
651.10 0.3589
651.20 0.3587
651.30 0.3584
651.40 0.3582
651.50 0.3579
651.60 0.3576
651.70 0.3573
651.80 0.3571
651.90 0.3568
652.00 0.3565
652.10 0.3563
652.20 0.356
652.30 0.3557
652.40 0.3554
652.50 0.3551
652.60 0.3547
652.70 0.3544
652.80 0.3541
652.90 0.3538
653.00 0.3534
653.10 0.3531
653.20 0.3528
653.30 0.3524
653.40 0.3519
653.50 0.3513
653.60 0.3508
653.70 0.3503
653.80 0.3498
653.90 0.3493
654.00 0.3487
654.10 0.3482
654.20 0.3477
654.30 0.3471
654.40 0.3462
654.50 0.3452
654.60 0.3443
654.70 0.3434
654.80 0.3423
654.90 0.3406
655.00 0.339
655.10 0.3373
655.20 0.3357
655.30 0.3339
655.40 0.3312
655.50 0.3284
655.60 0.3246
655.70 0.3204
655.80 0.3145
655.90 0.3072
656.00 0.2947
656.10 0.281
656.20 0.277
656.30 0.2917
656.40 0.2726
656.50 0.2859
656.60 0.2982
656.70 0.3092
656.80 0.3148
656.90 0.3199
657.00 0.3233
657.10 0.3264
657.20 0.3287
657.30 0.3307
657.40 0.3319
657.50 0.3332
657.60 0.3344
657.70 0.3357
657.80 0.3367
657.90 0.3373
658.00 0.3378
658.10 0.3383
658.20 0.3388
658.30 0.3392
658.40 0.3393
658.50 0.3394
658.60 0.3396
658.70 0.3397
658.80 0.3398
658.90 0.3399
659.00 0.34
659.10 0.3401
659.20 0.3402
659.30 0.3402
659.40 0.3402
659.50 0.3401
659.60 0.34
659.70 0.3399
659.80 0.3398
659.90 0.3397
660.00 0.3396
660.10 0.3396
660.20 0.3395
660.30 0.3394
660.40 0.3392
660.50 0.3391
660.60 0.3389
660.70 0.3388
660.80 0.3386
660.90 0.3385
661.00 0.3383
661.10 0.3382
661.20 0.338
661.30 0.3379
661.40 0.3377
661.50 0.3375
661.60 0.3374
661.70 0.3372
661.80 0.337
661.90 0.3369
662.00 0.3367
662.10 0.3365
662.20 0.3363
662.30 0.3362
662.40 0.336
662.50 0.3358
662.60 0.3356
662.70 0.3354
662.80 0.3353
662.90 0.3351
663.00 0.3349
663.10 0.3347
663.20 0.3345
663.30 0.3344
663.40 0.3342
663.50 0.334
663.60 0.3338
663.70 0.3336
663.80 0.3334
663.90 0.3332
664.00 0.333
664.10 0.3329
664.20 0.3327
664.30 0.3325
664.40 0.3323
664.50 0.3321
664.60 0.3319
664.70 0.3317
664.80 0.3316
664.90 0.3314
665.00 0.3312
665.10 0.331
665.20 0.3308
665.30 0.3306
665.40 0.3304
665.50 0.3302
665.60 0.3301
665.70 0.3299
665.80 0.3297
665.90 0.3295
666.00 0.3293
666.10 0.3291
666.20 0.3289
666.30 0.3287
666.40 0.3285
666.50 0.3284
666.60 0.3282
666.70 0.328
666.80 0.3278
666.90 0.3276
667.00 0.3274
667.10 0.3272
667.20 0.327
667.30 0.3269
667.40 0.3267
667.50 0.3265
667.60 0.3263
667.70 0.3261
667.80 0.3259
667.90 0.3257
668.00 0.3255
668.10 0.3254
668.20 0.3252
668.30 0.325
668.40 0.3248
668.50 0.3246
668.60 0.3244
668.70 0.3242
668.80 0.324
668.90 0.3239
669.00 0.3237
669.10 0.3235
669.20 0.3233
669.30 0.3231
669.40 0.3229
669.50 0.3227
669.60 0.3226
669.70 0.3224
669.80 0.3222
669.90 0.322
670.00 0.3218
670.10 0.3216
670.20 0.3214
670.30 0.3213
670.40 0.3211
670.50 0.3209
670.60 0.3207
670.70 0.3205
670.80 0.3203
670.90 0.3202
671.00 0.32
671.10 0.3198
671.20 0.3196
671.30 0.3194
671.40 0.3192
671.50 0.319
671.60 0.3189
671.70 0.3187
671.80 0.3185
671.90 0.3183
672.00 0.3181
672.10 0.3179
672.20 0.3178
672.30 0.3176
672.40 0.3174
672.50 0.3172
672.60 0.317
672.70 0.3168
672.80 0.3167
672.90 0.3165
673.00 0.3163
673.10 0.3161
673.20 0.3159
673.30 0.3158
673.40 0.3156
673.50 0.3154
673.60 0.3152
673.70 0.315
673.80 0.3148
673.90 0.3147
674.00 0.3145
674.10 0.3143
674.20 0.3141
674.30 0.3139
674.40 0.3138
674.50 0.3136
674.60 0.3134
674.70 0.3132
674.80 0.313
674.90 0.3129
675.00 0.3127
675.10 0.3125
675.20 0.3123
675.30 0.3121
675.40 0.312
675.50 0.3118
675.60 0.3116
675.70 0.3114
675.80 0.3113
675.90 0.3111
676.00 0.3109
676.10 0.3107
676.20 0.3105
676.30 0.3104
676.40 0.3102
676.50 0.31
676.60 0.3098
676.70 0.3097
676.80 0.3095
676.90 0.3093
677.00 0.3091
677.10 0.3089
677.20 0.3088
677.30 0.3086
677.40 0.3084
677.50 0.3082
677.60 0.3081
677.70 0.3079
677.80 0.3077
677.90 0.3075
678.00 0.3074
678.10 0.3072
678.20 0.307
678.30 0.3068
678.40 0.3066
678.50 0.3065
678.60 0.3063
678.70 0.3061
678.80 0.3059
678.90 0.3058
679.00 0.3056
679.10 0.3054
679.20 0.3053
679.30 0.3051
679.40 0.3049
679.50 0.3047
679.60 0.3046
679.70 0.3044
679.80 0.3042
679.90 0.304
680.00 0.3039
680.10 0.3037
680.20 0.3035
680.30 0.3033
680.40 0.3032
680.50 0.303
680.60 0.3028
680.70 0.3026
680.80 0.3025
680.90 0.3023
681.00 0.3021
681.10 0.302
681.20 0.3018
681.30 0.3016
681.40 0.3014
681.50 0.3013
681.60 0.3011
681.70 0.3009
681.80 0.3008
681.90 0.3006
682.00 0.3004
682.10 0.3002
682.20 0.3001
682.30 0.2999
682.40 0.2997
682.50 0.2996
682.60 0.2994
682.70 0.2992
682.80 0.299
682.90 0.2989
683.00 0.2987
683.10 0.2985
683.20 0.2984
683.30 0.2982
683.40 0.298
683.50 0.2979
683.60 0.2977
683.70 0.2975
683.80 0.2974
683.90 0.2972
684.00 0.297
684.10 0.2968
684.20 0.2967
684.30 0.2965
684.40 0.2963
684.50 0.2962
684.60 0.296
684.70 0.2958
684.80 0.2957
684.90 0.2955
685.00 0.2953
685.10 0.2952
685.20 0.295
685.30 0.2948
685.40 0.2947
685.50 0.2945
685.60 0.2943
685.70 0.2942
685.80 0.294
685.90 0.2938
686.00 0.2937
686.10 0.2935
686.20 0.2933
686.30 0.2932
686.40 0.293
686.50 0.2928
686.60 0.2927
686.70 0.2925
686.80 0.2923
686.90 0.2922
687.00 0.292
687.10 0.2918
687.20 0.2917
687.30 0.2915
687.40 0.2913
687.50 0.2912
687.60 0.291
687.70 0.2909
687.80 0.2907
687.90 0.2905
688.00 0.2904
688.10 0.2902
688.20 0.29
688.30 0.2899
688.40 0.2897
688.50 0.2895
688.60 0.2894
688.70 0.2892
688.80 0.2891
688.90 0.2889
689.00 0.2887
689.10 0.2886
689.20 0.2884
689.30 0.2882
689.40 0.2881
689.50 0.2879
689.60 0.2878
689.70 0.2876
689.80 0.2874
689.90 0.2873
690.00 0.2871
690.10 0.287
690.20 0.2868
690.30 0.2866
690.40 0.2865
690.50 0.2863
690.60 0.2861
690.70 0.286
690.80 0.2858
690.90 0.2857
691.00 0.2855
691.10 0.2853
691.20 0.2852
691.30 0.285
691.40 0.2849
691.50 0.2847
691.60 0.2845
691.70 0.2844
691.80 0.2842
691.90 0.2841
692.00 0.2839
692.10 0.2837
692.20 0.2836
692.30 0.2834
692.40 0.2833
692.50 0.2831
692.60 0.283
692.70 0.2828
692.80 0.2826
692.90 0.2825
693.00 0.2823
693.10 0.2822
693.20 0.282
693.30 0.2818
693.40 0.2817
693.50 0.2815
693.60 0.2814
693.70 0.2812
693.80 0.2811
693.90 0.2809
694.00 0.2807
694.10 0.2806
694.20 0.2804
694.30 0.2803
694.40 0.2801
694.50 0.2799
694.60 0.2798
694.70 0.2796
694.80 0.2795
694.90 0.2793
695.00 0.2792
695.10 0.279
695.20 0.2788
695.30 0.2787
695.40 0.2785
695.50 0.2784
695.60 0.2782
695.70 0.2781
695.80 0.2779
695.90 0.2778
696.00 0.2776
696.10 0.2775
696.20 0.2773
696.30 0.2771
696.40 0.277
696.50 0.2768
696.60 0.2767
696.70 0.2765
696.80 0.2764
696.90 0.2762
697.00 0.2761
697.10 0.2759
697.20 0.2758
697.30 0.2756
697.40 0.2755
697.50 0.2753
697.60 0.2751
697.70 0.275
697.80 0.2748
697.90 0.2747
698.00 0.2745
698.10 0.2744
698.20 0.2742
698.30 0.2741
698.40 0.2739
698.50 0.2738
698.60 0.2736
698.70 0.2735
698.80 0.2733
698.90 0.2732
699.00 0.273
699.10 0.2729
699.20 0.2727
699.30 0.2726
699.40 0.2724
699.50 0.2722
699.60 0.2721
699.70 0.2719
699.80 0.2718
699.90 0.2716
700.00 0.2715
700.10 0.2713
700.20 0.2712
700.30 0.271
700.40 0.2709
700.50 0.2707
700.60 0.2706
700.70 0.2704
700.80 0.2703
700.90 0.2701
701.00 0.27
701.10 0.2698
701.20 0.2697
701.30 0.2695
701.40 0.2694
701.50 0.2692
701.60 0.2691
701.70 0.2689
701.80 0.2688
701.90 0.2687
702.00 0.2685
702.10 0.2684
702.20 0.2682
702.30 0.2681
702.40 0.2679
702.50 0.2678
702.60 0.2676
702.70 0.2675
702.80 0.2673
702.90 0.2672
703.00 0.267
703.10 0.2669
703.20 0.2667
703.30 0.2666
703.40 0.2664
703.50 0.2663
703.60 0.2661
703.70 0.266
703.80 0.2658
703.90 0.2657
704.00 0.2655
704.10 0.2654
704.20 0.2653
704.30 0.2651
704.40 0.265
704.50 0.2648
704.60 0.2647
704.70 0.2645
704.80 0.2644
704.90 0.2642
705.00 0.2641
705.10 0.2639
705.20 0.2638
705.30 0.2636
705.40 0.2635
705.50 0.2634
705.60 0.2632
705.70 0.2631
705.80 0.2629
705.90 0.2628
706.00 0.2626
706.10 0.2625
706.20 0.2623
706.30 0.2622
706.40 0.2621
706.50 0.2619
706.60 0.2618
706.70 0.2616
706.80 0.2615
706.90 0.2613
707.00 0.2612
707.10 0.261
707.20 0.2609
707.30 0.2608
707.40 0.2606
707.50 0.2605
707.60 0.2603
707.70 0.2602
707.80 0.26
707.90 0.2599
708.00 0.2598
708.10 0.2596
708.20 0.2595
708.30 0.2593
708.40 0.2592
708.50 0.259
708.60 0.2589
708.70 0.2588
708.80 0.2586
708.90 0.2585
709.00 0.2583
709.10 0.2582
709.20 0.2581
709.30 0.2579
709.40 0.2578
709.50 0.2576
709.60 0.2575
709.70 0.2573
709.80 0.2572
709.90 0.2571
710.00 0.2569
710.10 0.2568
710.20 0.2566
710.30 0.2565
710.40 0.2564
710.50 0.2562
710.60 0.2561
710.70 0.2559
710.80 0.2558
710.90 0.2557
711.00 0.2555
711.10 0.2554
711.20 0.2552
711.30 0.2551
711.40 0.255
711.50 0.2548
711.60 0.2547
711.70 0.2545
711.80 0.2544
711.90 0.2543
712.00 0.2541
712.10 0.254
712.20 0.2539
712.30 0.2537
712.40 0.2536
712.50 0.2534
712.60 0.2533
712.70 0.2532
712.80 0.253
712.90 0.2529
713.00 0.2527
713.10 0.2526
713.20 0.2525
713.30 0.2523
713.40 0.2522
713.50 0.2521
713.60 0.2519
713.70 0.2518
713.80 0.2516
713.90 0.2515
714.00 0.2514
714.10 0.2512
714.20 0.2511
714.30 0.251
714.40 0.2508
714.50 0.2507
714.60 0.2505
714.70 0.2504
714.80 0.2503
714.90 0.2501
715.00 0.25
715.10 0.2499
715.20 0.2497
715.30 0.2496
715.40 0.2495
715.50 0.2493
715.60 0.2492
715.70 0.2491
715.80 0.2489
715.90 0.2488
716.00 0.2487
716.10 0.2485
716.20 0.2484
716.30 0.2482
716.40 0.2481
716.50 0.248
716.60 0.2478
716.70 0.2477
716.80 0.2476
716.90 0.2474
717.00 0.2473
717.10 0.2472
717.20 0.247
717.30 0.2469
717.40 0.2468
717.50 0.2466
717.60 0.2465
717.70 0.2464
717.80 0.2462
717.90 0.2461
718.00 0.246
718.10 0.2458
718.20 0.2457
718.30 0.2456
718.40 0.2454
718.50 0.2453
718.60 0.2452
718.70 0.245
718.80 0.2449
718.90 0.2448
719.00 0.2446
719.10 0.2445
719.20 0.2444
719.30 0.2442
719.40 0.2441
719.50 0.244
719.60 0.2438
719.70 0.2437
719.80 0.2436
719.90 0.2434
720.00 0.2433
720.10 0.2432
720.20 0.2431
720.30 0.2429
720.40 0.2428
720.50 0.2427
720.60 0.2425
720.70 0.2424
720.80 0.2423
720.90 0.2421
721.00 0.242
721.10 0.2419
721.20 0.2417
721.30 0.2416
721.40 0.2415
721.50 0.2414
721.60 0.2412
721.70 0.2411
721.80 0.241
721.90 0.2408
722.00 0.2407
722.10 0.2406
722.20 0.2405
722.30 0.2403
722.40 0.2402
722.50 0.2401
722.60 0.2399
722.70 0.2398
722.80 0.2397
722.90 0.2395
723.00 0.2394
723.10 0.2393
723.20 0.2392
723.30 0.239
723.40 0.2389
723.50 0.2388
723.60 0.2386
723.70 0.2385
723.80 0.2384
723.90 0.2383
724.00 0.2381
724.10 0.238
724.20 0.2379
724.30 0.2377
724.40 0.2376
724.50 0.2375
724.60 0.2374
724.70 0.2372
724.80 0.2371
724.90 0.237
725.00 0.2369
725.10 0.2367
725.20 0.2366
725.30 0.2365
725.40 0.2363
725.50 0.2362
725.60 0.2361
725.70 0.236
725.80 0.2358
725.90 0.2357
726.00 0.2356
726.10 0.2355
726.20 0.2353
726.30 0.2352
726.40 0.2351
726.50 0.235
726.60 0.2348
726.70 0.2347
726.80 0.2346
726.90 0.2345
727.00 0.2343
727.10 0.2342
727.20 0.2341
727.30 0.234
727.40 0.2338
727.50 0.2337
727.60 0.2336
727.70 0.2335
727.80 0.2333
727.90 0.2332
728.00 0.2331
728.10 0.233
728.20 0.2328
728.30 0.2327
728.40 0.2326
728.50 0.2325
728.60 0.2323
728.70 0.2322
728.80 0.2321
728.90 0.232
729.00 0.2318
729.10 0.2317
729.20 0.2316
729.30 0.2315
729.40 0.2313
729.50 0.2312
729.60 0.2311
729.70 0.231
729.80 0.2308
729.90 0.2307
730.00 0.2306
730.10 0.2305
730.20 0.2304
730.30 0.2302
730.40 0.2301
730.50 0.23
730.60 0.2299
730.70 0.2297
730.80 0.2296
730.90 0.2295
731.00 0.2294
731.10 0.2293
731.20 0.2291
731.30 0.229
731.40 0.2289
731.50 0.2288
731.60 0.2287
731.70 0.2285
731.80 0.2284
731.90 0.2283
732.00 0.2282
732.10 0.2281
732.20 0.2279
732.30 0.2278
732.40 0.2277
732.50 0.2276
732.60 0.2275
732.70 0.2273
732.80 0.2272
732.90 0.2271
733.00 0.227
733.10 0.2269
733.20 0.2267
733.30 0.2266
733.40 0.2265
733.50 0.2264
733.60 0.2263
733.70 0.2261
733.80 0.226
733.90 0.2259
734.00 0.2258
734.10 0.2257
734.20 0.2255
734.30 0.2254
734.40 0.2253
734.50 0.2252
734.60 0.2251
734.70 0.2249
734.80 0.2248
734.90 0.2247
735.00 0.2246
735.10 0.2245
735.20 0.2243
735.30 0.2242
735.40 0.2241
735.50 0.224
735.60 0.2239
735.70 0.2238
735.80 0.2236
735.90 0.2235
736.00 0.2234
736.10 0.2233
736.20 0.2232
736.30 0.223
736.40 0.2229
736.50 0.2228
736.60 0.2227
736.70 0.2226
736.80 0.2225
736.90 0.2223
737.00 0.2222
737.10 0.2221
737.20 0.222
737.30 0.2219
737.40 0.2217
737.50 0.2216
737.60 0.2215
737.70 0.2214
737.80 0.2213
737.90 0.2212
738.00 0.221
738.10 0.2209
738.20 0.2208
738.30 0.2207
738.40 0.2206
738.50 0.2205
738.60 0.2203
738.70 0.2202
738.80 0.2201
738.90 0.22
739.00 0.2199
739.10 0.2198
739.20 0.2196
739.30 0.2195
739.40 0.2194
739.50 0.2193
739.60 0.2192
739.70 0.2191
739.80 0.2189
739.90 0.2188
740.00 0.2187
740.10 0.2186
740.20 0.2185
740.30 0.2184
740.40 0.2183
740.50 0.2181
740.60 0.218
740.70 0.2179
740.80 0.2178
740.90 0.2177
741.00 0.2176
741.10 0.2175
741.20 0.2173
741.30 0.2172
741.40 0.2171
741.50 0.217
741.60 0.2169
741.70 0.2168
741.80 0.2167
741.90 0.2166
742.00 0.2164
742.10 0.2163
742.20 0.2162
742.30 0.2161
742.40 0.216
742.50 0.2159
742.60 0.2158
742.70 0.2156
742.80 0.2155
742.90 0.2154
743.00 0.2153
743.10 0.2152
743.20 0.2151
743.30 0.215
743.40 0.2149
743.50 0.2148
743.60 0.2146
743.70 0.2145
743.80 0.2144
743.90 0.2143
744.00 0.2142
744.10 0.2141
744.20 0.214
744.30 0.2139
744.40 0.2137
744.50 0.2136
744.60 0.2135
744.70 0.2134
744.80 0.2133
744.90 0.2132
745.00 0.2131
745.10 0.213
745.20 0.2129
745.30 0.2127
745.40 0.2126
745.50 0.2125
745.60 0.2124
745.70 0.2123
745.80 0.2122
745.90 0.2121
746.00 0.212
746.10 0.2119
746.20 0.2117
746.30 0.2116
746.40 0.2115
746.50 0.2114
746.60 0.2113
746.70 0.2112
746.80 0.2111
746.90 0.211
747.00 0.2109
747.10 0.2107
747.20 0.2106
747.30 0.2105
747.40 0.2104
747.50 0.2103
747.60 0.2102
747.70 0.2101
747.80 0.21
747.90 0.2099
748.00 0.2098
748.10 0.2096
748.20 0.2095
748.30 0.2094
748.40 0.2093
748.50 0.2092
748.60 0.2091
748.70 0.209
748.80 0.2089
748.90 0.2088
749.00 0.2087
749.10 0.2086
749.20 0.2084
749.30 0.2083
749.40 0.2082
749.50 0.2081
749.60 0.208
749.70 0.2079
749.80 0.2078
749.90 0.2077
750.00 0.2076
750.10 0.2075
750.20 0.2074
750.30 0.2073
750.40 0.2071
750.50 0.207
750.60 0.2069
750.70 0.2068
750.80 0.2067
750.90 0.2066
751.00 0.2065
751.10 0.2064
751.20 0.2063
751.30 0.2062
751.40 0.2061
751.50 0.206
751.60 0.2059
751.70 0.2058
751.80 0.2057
751.90 0.2056
752.00 0.2054
752.10 0.2053
752.20 0.2052
752.30 0.2051
752.40 0.205
752.50 0.2049
752.60 0.2048
752.70 0.2047
752.80 0.2046
752.90 0.2045
753.00 0.2044
753.10 0.2043
753.20 0.2042
753.30 0.2041
753.40 0.204
753.50 0.2039
753.60 0.2038
753.70 0.2037
753.80 0.2036
753.90 0.2034
754.00 0.2033
754.10 0.2032
754.20 0.2031
754.30 0.203
754.40 0.2029
754.50 0.2028
754.60 0.2027
754.70 0.2026
754.80 0.2025
754.90 0.2024
755.00 0.2023
755.10 0.2022
755.20 0.2021
755.30 0.202
755.40 0.2019
755.50 0.2018
755.60 0.2017
755.70 0.2016
755.80 0.2015
755.90 0.2014
756.00 0.2013
756.10 0.2012
756.20 0.201
756.30 0.2009
756.40 0.2008
756.50 0.2007
756.60 0.2006
756.70 0.2005
756.80 0.2004
756.90 0.2003
757.00 0.2002
757.10 0.2001
757.20 0.2
757.30 0.1999
757.40 0.1998
757.50 0.1997
757.60 0.1996
757.70 0.1995
757.80 0.1994
757.90 0.1993
758.00 0.1992
758.10 0.1991
758.20 0.199
758.30 0.1989
758.40 0.1988
758.50 0.1987
758.60 0.1986
758.70 0.1985
758.80 0.1984
758.90 0.1983
759.00 0.1982
759.10 0.1981
759.20 0.198
759.30 0.1979
759.40 0.1978
759.50 0.1976
759.60 0.1975
759.70 0.1974
759.80 0.1973
759.90 0.1972
760.00 0.1971
760.10 0.197
760.20 0.1969
760.30 0.1968
760.40 0.1967
760.50 0.1966
760.60 0.1965
760.70 0.1964
760.80 0.1963
760.90 0.1962
761.00 0.1961
761.10 0.196
761.20 0.1959
761.30 0.1958
761.40 0.1957
761.50 0.1956
761.60 0.1955
761.70 0.1954
761.80 0.1953
761.90 0.1952
762.00 0.1951
762.10 0.195
762.20 0.1949
762.30 0.1948
762.40 0.1947
762.50 0.1947
762.60 0.1946
762.70 0.1945
762.80 0.1944
762.90 0.1943
763.00 0.1942
763.10 0.1941
763.20 0.194
763.30 0.1939
763.40 0.1938
763.50 0.1937
763.60 0.1936
763.70 0.1935
763.80 0.1934
763.90 0.1933
764.00 0.1932
764.10 0.1931
764.20 0.193
764.30 0.1929
764.40 0.1928
764.50 0.1927
764.60 0.1926
764.70 0.1925
764.80 0.1924
764.90 0.1923
765.00 0.1922
765.10 0.1921
765.20 0.192
765.30 0.1919
765.40 0.1918
765.50 0.1917
765.60 0.1916
765.70 0.1915
765.80 0.1914
765.90 0.1913
766.00 0.1912
766.10 0.1911
766.20 0.191
766.30 0.1909
766.40 0.1908
766.50 0.1907
766.60 0.1906
766.70 0.1905
766.80 0.1904
766.90 0.1903
767.00 0.1902
767.10 0.1901
767.20 0.19
767.30 0.19
767.40 0.1899
767.50 0.1898
767.60 0.1897
767.70 0.1896
767.80 0.1895
767.90 0.1894
768.00 0.1893
768.10 0.1892
768.20 0.1891
768.30 0.189
768.40 0.1889
768.50 0.1888
768.60 0.1887
768.70 0.1886
768.80 0.1885
768.90 0.1884
769.00 0.1883
769.10 0.1882
769.20 0.1881
769.30 0.188
769.40 0.1879
769.50 0.1878
769.60 0.1877
769.70 0.1876
769.80 0.1875
769.90 0.1874
770.00 0.1874
770.10 0.1873
770.20 0.1872
770.30 0.1871
770.40 0.187
770.50 0.1869
770.60 0.1868
770.70 0.1867
770.80 0.1866
770.90 0.1865
771.00 0.1864
771.10 0.1863
771.20 0.1862
771.30 0.1861
771.40 0.186
771.50 0.1859
771.60 0.1859
771.70 0.1858
771.80 0.1857
771.90 0.1856
772.00 0.1855
772.10 0.1854
772.20 0.1853
772.30 0.1852
772.40 0.1851
772.50 0.185
772.60 0.1849
772.70 0.1848
772.80 0.1847
772.90 0.1846
773.00 0.1846
773.10 0.1845
773.20 0.1844
773.30 0.1843
773.40 0.1842
773.50 0.1841
773.60 0.184
773.70 0.1839
773.80 0.1838
773.90 0.1837
774.00 0.1836
774.10 0.1835
774.20 0.1834
774.30 0.1834
774.40 0.1833
774.50 0.1832
774.60 0.1831
774.70 0.183
774.80 0.1829
774.90 0.1828
775.00 0.1827
775.10 0.1826
775.20 0.1825
775.30 0.1824
775.40 0.1823
775.50 0.1823
775.60 0.1822
775.70 0.1821
775.80 0.182
775.90 0.1819
776.00 0.1818
776.10 0.1817
776.20 0.1816
776.30 0.1815
776.40 0.1814
776.50 0.1813
776.60 0.1812
776.70 0.1812
776.80 0.1811
776.90 0.181
777.00 0.1809
777.10 0.1808
777.20 0.1807
777.30 0.1806
777.40 0.1805
777.50 0.1804
777.60 0.1803
777.70 0.1802
777.80 0.1802
777.90 0.1801
778.00 0.18
778.10 0.1799
778.20 0.1798
778.30 0.1797
778.40 0.1796
778.50 0.1795
778.60 0.1794
778.70 0.1793
778.80 0.1793
778.90 0.1792
779.00 0.1791
779.10 0.179
779.20 0.1789
779.30 0.1788
779.40 0.1787
779.50 0.1786
779.60 0.1785
779.70 0.1784
779.80 0.1783
779.90 0.1783
780.00 0.1782
780.10 0.1781
780.20 0.178
780.30 0.1779
780.40 0.1778
780.50 0.1777
780.60 0.1776
780.70 0.1776
780.80 0.1775
780.90 0.1774
781.00 0.1773
781.10 0.1772
781.20 0.1771
781.30 0.177
781.40 0.1769
781.50 0.1769
781.60 0.1768
781.70 0.1767
781.80 0.1766
781.90 0.1765
782.00 0.1764
782.10 0.1763
782.20 0.1762
782.30 0.1762
782.40 0.1761
782.50 0.176
782.60 0.1759
782.70 0.1758
782.80 0.1757
782.90 0.1756
783.00 0.1755
783.10 0.1755
783.20 0.1754
783.30 0.1753
783.40 0.1752
783.50 0.1751
783.60 0.175
783.70 0.1749
783.80 0.1748
783.90 0.1748
784.00 0.1747
784.10 0.1746
784.20 0.1745
784.30 0.1744
784.40 0.1743
784.50 0.1742
784.60 0.1742
784.70 0.1741
784.80 0.174
784.90 0.1739
785.00 0.1738
785.10 0.1737
785.20 0.1736
785.30 0.1735
785.40 0.1735
785.50 0.1734
785.60 0.1733
785.70 0.1732
785.80 0.1731
785.90 0.173
786.00 0.1729
786.10 0.1729
786.20 0.1728
786.30 0.1727
786.40 0.1726
786.50 0.1725
786.60 0.1724
786.70 0.1723
786.80 0.1723
786.90 0.1722
787.00 0.1721
787.10 0.172
787.20 0.1719
787.30 0.1718
787.40 0.1717
787.50 0.1717
787.60 0.1716
787.70 0.1715
787.80 0.1714
787.90 0.1713
788.00 0.1712
788.10 0.1712
788.20 0.1711
788.30 0.171
788.40 0.1709
788.50 0.1708
788.60 0.1707
788.70 0.1706
788.80 0.1706
788.90 0.1705
789.00 0.1704
789.10 0.1703
789.20 0.1702
789.30 0.1701
789.40 0.17
789.50 0.17
789.60 0.1699
789.70 0.1698
789.80 0.1697
789.90 0.1696
790.00 0.1695
790.10 0.1695
790.20 0.1694
790.30 0.1693
790.40 0.1692
790.50 0.1691
790.60 0.169
790.70 0.169
790.80 0.1689
790.90 0.1688
791.00 0.1687
791.10 0.1686
791.20 0.1685
791.30 0.1685
791.40 0.1684
791.50 0.1683
791.60 0.1682
791.70 0.1681
791.80 0.1681
791.90 0.168
792.00 0.1679
792.10 0.1678
792.20 0.1677
792.30 0.1676
792.40 0.1676
792.50 0.1675
792.60 0.1674
792.70 0.1673
792.80 0.1672
792.90 0.1672
793.00 0.1671
793.10 0.167
793.20 0.1669
793.30 0.1668
793.40 0.1667
793.50 0.1667
793.60 0.1666
793.70 0.1665
793.80 0.1664
793.90 0.1663
794.00 0.1663
794.10 0.1662
794.20 0.1661
794.30 0.166
794.40 0.1659
794.50 0.1658
794.60 0.1658
794.70 0.1657
794.80 0.1656
794.90 0.1655
795.00 0.1654
795.10 0.1654
795.20 0.1653
795.30 0.1652
795.40 0.1651
795.50 0.165
795.60 0.165
795.70 0.1649
795.80 0.1648
795.90 0.1647
796.00 0.1646
796.10 0.1646
796.20 0.1645
796.30 0.1644
796.40 0.1643
796.50 0.1642
796.60 0.1641
796.70 0.1641
796.80 0.164
796.90 0.1639
797.00 0.1638
797.10 0.1637
797.20 0.1637
797.30 0.1636
797.40 0.1635
797.50 0.1634
797.60 0.1633
797.70 0.1633
797.80 0.1632
797.90 0.1631
798.00 0.163
798.10 0.1629
798.20 0.1629
798.30 0.1628
798.40 0.1627
798.50 0.1626
798.60 0.1625
798.70 0.1625
798.80 0.1624
798.90 0.1623
799.00 0.1622
799.10 0.1621
799.20 0.1621
799.30 0.162
799.40 0.1619
799.50 0.1618
799.60 0.1617
799.70 0.1617
799.80 0.1616
799.90 0.1615
800.00 0.1614
800.10 0.1614
800.20 0.1613
800.30 0.1612
800.40 0.1611
800.50 0.161
800.60 0.161
800.70 0.1609
800.80 0.1608
800.90 0.1607
801.00 0.1607
801.10 0.1606
801.20 0.1605
801.30 0.1604
801.40 0.1603
801.50 0.1603
801.60 0.1602
801.70 0.1601
801.80 0.16
801.90 0.16
802.00 0.1599
802.10 0.1598
802.20 0.1597
802.30 0.1596
802.40 0.1596
802.50 0.1595
802.60 0.1594
802.70 0.1593
802.80 0.1593
802.90 0.1592
803.00 0.1591
803.10 0.159
803.20 0.159
803.30 0.1589
803.40 0.1588
803.50 0.1587
803.60 0.1586
803.70 0.1586
803.80 0.1585
803.90 0.1584
804.00 0.1583
804.10 0.1583
804.20 0.1582
804.30 0.1581
804.40 0.158
804.50 0.158
804.60 0.1579
804.70 0.1578
804.80 0.1577
804.90 0.1577
805.00 0.1576
805.10 0.1575
805.20 0.1574
805.30 0.1573
805.40 0.1573
805.50 0.1572
805.60 0.1571
805.70 0.157
805.80 0.157
805.90 0.1569
806.00 0.1568
806.10 0.1567
806.20 0.1567
806.30 0.1566
806.40 0.1565
806.50 0.1564
806.60 0.1564
806.70 0.1563
806.80 0.1562
806.90 0.1561
807.00 0.1561
807.10 0.156
807.20 0.1559
807.30 0.1558
807.40 0.1558
807.50 0.1557
807.60 0.1556
807.70 0.1555
807.80 0.1555
807.90 0.1554
808.00 0.1553
808.10 0.1552
808.20 0.1551
808.30 0.1551
808.40 0.155
808.50 0.1549
808.60 0.1548
808.70 0.1548
808.80 0.1547
808.90 0.1546
809.00 0.1545
809.10 0.1545
809.20 0.1544
809.30 0.1543
809.40 0.1542
809.50 0.1542
809.60 0.1541
809.70 0.154
809.80 0.154
809.90 0.1539
810.00 0.1538
810.10 0.1537
810.20 0.1537
810.30 0.1536
810.40 0.1535
810.50 0.1534
810.60 0.1534
810.70 0.1533
810.80 0.1532
810.90 0.1531
811.00 0.1531
811.10 0.153
811.20 0.1529
811.30 0.1528
811.40 0.1528
811.50 0.1527
811.60 0.1526
811.70 0.1526
811.80 0.1525
811.90 0.1524
812.00 0.1523
812.10 0.1523
812.20 0.1522
812.30 0.1521
812.40 0.152
812.50 0.152
812.60 0.1519
812.70 0.1518
812.80 0.1518
812.90 0.1517
813.00 0.1516
813.10 0.1515
813.20 0.1515
813.30 0.1514
813.40 0.1513
813.50 0.1513
813.60 0.1512
813.70 0.1511
813.80 0.151
813.90 0.151
814.00 0.1509
814.10 0.1508
814.20 0.1507
814.30 0.1507
814.40 0.1506
814.50 0.1505
814.60 0.1505
814.70 0.1504
814.80 0.1503
814.90 0.1502
815.00 0.1502
815.10 0.1501
815.20 0.15
815.30 0.15
815.40 0.1499
815.50 0.1498
815.60 0.1497
815.70 0.1497
815.80 0.1496
815.90 0.1495
816.00 0.1495
816.10 0.1494
816.20 0.1493
816.30 0.1492
816.40 0.1492
816.50 0.1491
816.60 0.149
816.70 0.149
816.80 0.1489
816.90 0.1488
817.00 0.1487
817.10 0.1487
817.20 0.1486
817.30 0.1485
817.40 0.1485
817.50 0.1484
817.60 0.1483
817.70 0.1482
817.80 0.1482
817.90 0.1481
818.00 0.148
818.10 0.148
818.20 0.1479
818.30 0.1478
818.40 0.1477
818.50 0.1477
818.60 0.1476
818.70 0.1475
818.80 0.1475
818.90 0.1474
819.00 0.1473
819.10 0.1473
819.20 0.1472
819.30 0.1471
819.40 0.147
819.50 0.147
819.60 0.1469
819.70 0.1468
819.80 0.1468
819.90 0.1467
820.00 0.1466
820.10 0.1465
820.20 0.1465
820.30 0.1464
820.40 0.1463
820.50 0.1463
820.60 0.1462
820.70 0.1461
820.80 0.1461
820.90 0.146
821.00 0.1459
821.10 0.1459
821.20 0.1458
821.30 0.1457
821.40 0.1456
821.50 0.1456
821.60 0.1455
821.70 0.1454
821.80 0.1454
821.90 0.1453
822.00 0.1452
822.10 0.1452
822.20 0.1451
822.30 0.145
822.40 0.145
822.50 0.1449
822.60 0.1448
822.70 0.1448
822.80 0.1447
822.90 0.1446
823.00 0.1445
823.10 0.1445
823.20 0.1444
823.30 0.1443
823.40 0.1443
823.50 0.1442
823.60 0.1441
823.70 0.1441
823.80 0.144
823.90 0.1439
824.00 0.1439
824.10 0.1438
824.20 0.1437
824.30 0.1437
824.40 0.1436
824.50 0.1435
824.60 0.1435
824.70 0.1434
824.80 0.1433
824.90 0.1433
825.00 0.1432
825.10 0.1431
825.20 0.1431
825.30 0.143
825.40 0.1429
825.50 0.1428
825.60 0.1428
825.70 0.1427
825.80 0.1426
825.90 0.1426
826.00 0.1425
826.10 0.1424
826.20 0.1424
826.30 0.1423
826.40 0.1422
826.50 0.1422
826.60 0.1421
826.70 0.142
826.80 0.142
826.90 0.1419
827.00 0.1418
827.10 0.1418
827.20 0.1417
827.30 0.1416
827.40 0.1416
827.50 0.1415
827.60 0.1414
827.70 0.1414
827.80 0.1413
827.90 0.1412
828.00 0.1412
828.10 0.1411
828.20 0.141
828.30 0.141
828.40 0.1409
828.50 0.1408
828.60 0.1408
828.70 0.1407
828.80 0.1406
828.90 0.1406
829.00 0.1405
829.10 0.1404
829.20 0.1404
829.30 0.1403
829.40 0.1402
829.50 0.1402
829.60 0.1401
829.70 0.14
829.80 0.14
829.90 0.1399
830.00 0.1399
830.10 0.1398
830.20 0.1397
830.30 0.1397
830.40 0.1396
830.50 0.1395
830.60 0.1395
830.70 0.1394
830.80 0.1393
830.90 0.1393
831.00 0.1392
831.10 0.1391
831.20 0.1391
831.30 0.139
831.40 0.1389
831.50 0.1389
831.60 0.1388
831.70 0.1387
831.80 0.1387
831.90 0.1386
832.00 0.1385
832.10 0.1385
832.20 0.1384
832.30 0.1383
832.40 0.1383
832.50 0.1382
832.60 0.1382
832.70 0.1381
832.80 0.138
832.90 0.138
833.00 0.1379
833.10 0.1378
833.20 0.1378
833.30 0.1377
833.40 0.1376
833.50 0.1376
833.60 0.1375
833.70 0.1374
833.80 0.1374
833.90 0.1373
834.00 0.1372
834.10 0.1372
834.20 0.1371
834.30 0.1371
834.40 0.137
834.50 0.1369
834.60 0.1369
834.70 0.1368
834.80 0.1367
834.90 0.1367
835.00 0.1366
835.10 0.1365
835.20 0.1365
835.30 0.1364
835.40 0.1364
835.50 0.1363
835.60 0.1362
835.70 0.1362
835.80 0.1361
835.90 0.136
836.00 0.136
836.10 0.1359
836.20 0.1358
836.30 0.1358
836.40 0.1357
836.50 0.1357
836.60 0.1356
836.70 0.1355
836.80 0.1355
836.90 0.1354
837.00 0.1353
837.10 0.1353
837.20 0.1352
837.30 0.1351
837.40 0.1351
837.50 0.135
837.60 0.135
837.70 0.1349
837.80 0.1348
837.90 0.1348
838.00 0.1347
838.10 0.1346
838.20 0.1346
838.30 0.1345
838.40 0.1345
838.50 0.1344
838.60 0.1343
838.70 0.1343
838.80 0.1342
838.90 0.1341
839.00 0.1341
839.10 0.134
839.20 0.134
839.30 0.1339
839.40 0.1338
839.50 0.1338
839.60 0.1337
839.70 0.1336
839.80 0.1336
839.90 0.1335
840.00 0.1335
840.10 0.1334
840.20 0.1333
840.30 0.1333
840.40 0.1332
840.50 0.1331
840.60 0.1331
840.70 0.133
840.80 0.133
840.90 0.1329
841.00 0.1328
841.10 0.1328
841.20 0.1327
841.30 0.1327
841.40 0.1326
841.50 0.1325
841.60 0.1325
841.70 0.1324
841.80 0.1323
841.90 0.1323
842.00 0.1322
842.10 0.1322
842.20 0.1321
842.30 0.132
842.40 0.132
842.50 0.1319
842.60 0.1319
842.70 0.1318
842.80 0.1317
842.90 0.1317
843.00 0.1316
843.10 0.1316
843.20 0.1315
843.30 0.1314
843.40 0.1314
843.50 0.1313
843.60 0.1312
843.70 0.1312
843.80 0.1311
843.90 0.1311
844.00 0.131
844.10 0.1309
844.20 0.1309
844.30 0.1308
844.40 0.1308
844.50 0.1307
844.60 0.1306
844.70 0.1306
844.80 0.1305
844.90 0.1305
845.00 0.1304
845.10 0.1303
845.20 0.1303
845.30 0.1302
845.40 0.1302
845.50 0.1301
845.60 0.13
845.70 0.13
845.80 0.1299
845.90 0.1299
846.00 0.1298
846.10 0.1297
846.20 0.1297
846.30 0.1296
846.40 0.1296
846.50 0.1295
846.60 0.1294
846.70 0.1294
846.80 0.1293
846.90 0.1293
847.00 0.1292
847.10 0.1291
847.20 0.1291
847.30 0.129
847.40 0.129
847.50 0.1289
847.60 0.1288
847.70 0.1288
847.80 0.1287
847.90 0.1287
848.00 0.1286
848.10 0.1285
848.20 0.1285
848.30 0.1284
848.40 0.1284
848.50 0.1283
848.60 0.1283
848.70 0.1282
848.80 0.1281
848.90 0.1281
849.00 0.128
849.10 0.128
849.20 0.1279
849.30 0.1278
849.40 0.1278
849.50 0.1277
849.60 0.1277
849.70 0.1276
849.80 0.1275
849.90 0.1275
850.00 0.1274
850.10 0.1274
850.20 0.1273
850.30 0.1273
850.40 0.1272
850.50 0.1271
850.60 0.1271
850.70 0.127
850.80 0.127
850.90 0.1269
851.00 0.1268
851.10 0.1268
851.20 0.1267
851.30 0.1267
851.40 0.1266
851.50 0.1266
851.60 0.1265
851.70 0.1264
851.80 0.1264
851.90 0.1263
852.00 0.1263
852.10 0.1262
852.20 0.1261
852.30 0.1261
852.40 0.126
852.50 0.126
852.60 0.1259
852.70 0.1259
852.80 0.1258
852.90 0.1257
853.00 0.1257
853.10 0.1256
853.20 0.1256
853.30 0.1255
853.40 0.1255
853.50 0.1254
853.60 0.1253
853.70 0.1253
853.80 0.1252
853.90 0.1252
854.00 0.1251
854.10 0.1251
854.20 0.125
854.30 0.1249
854.40 0.1249
854.50 0.1248
854.60 0.1248
854.70 0.1247
854.80 0.1247
854.90 0.1246
855.00 0.1245
855.10 0.1245
855.20 0.1244
855.30 0.1244
855.40 0.1243
855.50 0.1243
855.60 0.1242
855.70 0.1241
855.80 0.1241
855.90 0.124
856.00 0.124
856.10 0.1239
856.20 0.1239
856.30 0.1238
856.40 0.1238
856.50 0.1237
856.60 0.1236
856.70 0.1236
856.80 0.1235
856.90 0.1235
857.00 0.1234
857.10 0.1234
857.20 0.1233
857.30 0.1232
857.40 0.1232
857.50 0.1231
857.60 0.1231
857.70 0.123
857.80 0.123
857.90 0.1229
858.00 0.1229
858.10 0.1228
858.20 0.1227
858.30 0.1227
858.40 0.1226
858.50 0.1226
858.60 0.1225
858.70 0.1225
858.80 0.1224
858.90 0.1224
859.00 0.1223
859.10 0.1222
859.20 0.1222
859.30 0.1221
859.40 0.1221
859.50 0.122
859.60 0.122
859.70 0.1219
859.80 0.1219
859.90 0.1218
860.00 0.1217
860.10 0.1217
860.20 0.1216
860.30 0.1216
860.40 0.1215
860.50 0.1215
860.60 0.1214
860.70 0.1214
860.80 0.1213
860.90 0.1212
861.00 0.1212
861.10 0.1211
861.20 0.1211
861.30 0.121
861.40 0.121
861.50 0.1209
861.60 0.1209
861.70 0.1208
861.80 0.1208
861.90 0.1207
862.00 0.1206
862.10 0.1206
862.20 0.1205
862.30 0.1205
862.40 0.1204
862.50 0.1204
862.60 0.1203
862.70 0.1203
862.80 0.1202
862.90 0.1202
863.00 0.1201
863.10 0.12
863.20 0.12
863.30 0.1199
863.40 0.1199
863.50 0.1198
863.60 0.1198
863.70 0.1197
863.80 0.1197
863.90 0.1196
864.00 0.1196
864.10 0.1195
864.20 0.1195
864.30 0.1194
864.40 0.1193
864.50 0.1193
864.60 0.1192
864.70 0.1192
864.80 0.1191
864.90 0.1191
865.00 0.119
865.10 0.119
865.20 0.1189
865.30 0.1189
865.40 0.1188
865.50 0.1188
865.60 0.1187
865.70 0.1187
865.80 0.1186
865.90 0.1185
866.00 0.1185
866.10 0.1184
866.20 0.1184
866.30 0.1183
866.40 0.1183
866.50 0.1182
866.60 0.1182
866.70 0.1181
866.80 0.1181
866.90 0.118
867.00 0.118
867.10 0.1179
867.20 0.1179
867.30 0.1178
867.40 0.1177
867.50 0.1177
867.60 0.1176
867.70 0.1176
867.80 0.1175
867.90 0.1175
868.00 0.1174
868.10 0.1174
868.20 0.1173
868.30 0.1173
868.40 0.1172
868.50 0.1172
868.60 0.1171
868.70 0.1171
868.80 0.117
868.90 0.117
869.00 0.1169
869.10 0.1169
869.20 0.1168
869.30 0.1167
869.40 0.1167
869.50 0.1166
869.60 0.1166
869.70 0.1165
869.80 0.1165
869.90 0.1164
870.00 0.1164
870.10 0.1163
870.20 0.1163
870.30 0.1162
870.40 0.1162
870.50 0.1161
870.60 0.1161
870.70 0.116
870.80 0.116
870.90 0.1159
871.00 0.1159
871.10 0.1158
871.20 0.1158
871.30 0.1157
871.40 0.1156
871.50 0.1156
871.60 0.1155
871.70 0.1155
871.80 0.1154
871.90 0.1154
872.00 0.1153
872.10 0.1153
872.20 0.1152
872.30 0.1152
872.40 0.1151
872.50 0.1151
872.60 0.115
872.70 0.115
872.80 0.1149
872.90 0.1149
873.00 0.1148
873.10 0.1148
873.20 0.1147
873.30 0.1147
873.40 0.1146
873.50 0.1146
873.60 0.1145
873.70 0.1145
873.80 0.1144
873.90 0.1144
874.00 0.1143
874.10 0.1143
874.20 0.1142
874.30 0.1142
874.40 0.1141
874.50 0.1141
874.60 0.114
874.70 0.114
874.80 0.1139
874.90 0.1139
875.00 0.1138
875.10 0.1138
875.20 0.1137
875.30 0.1137
875.40 0.1136
875.50 0.1136
875.60 0.1135
875.70 0.1135
875.80 0.1134
875.90 0.1134
876.00 0.1133
876.10 0.1133
876.20 0.1132
876.30 0.1132
876.40 0.1131
876.50 0.1131
876.60 0.113
876.70 0.113
876.80 0.1129
876.90 0.1129
877.00 0.1128
877.10 0.1128
877.20 0.1127
877.30 0.1127
877.40 0.1126
877.50 0.1126
877.60 0.1125
877.70 0.1125
877.80 0.1124
877.90 0.1124
878.00 0.1123
878.10 0.1123
878.20 0.1122
878.30 0.1122
878.40 0.1121
878.50 0.1121
878.60 0.112
878.70 0.112
878.80 0.1119
878.90 0.1119
879.00 0.1118
879.10 0.1118
879.20 0.1117
879.30 0.1117
879.40 0.1116
879.50 0.1116
879.60 0.1115
879.70 0.1115
879.80 0.1114
879.90 0.1114
880.00 0.1113
880.10 0.1113
880.20 0.1112
880.30 0.1112
880.40 0.1111
880.50 0.1111
880.60 0.111
880.70 0.111
880.80 0.1109
880.90 0.1109
881.00 0.1108
881.10 0.1108
881.20 0.1107
881.30 0.1107
881.40 0.1106
881.50 0.1106
881.60 0.1105
881.70 0.1105
881.80 0.1104
881.90 0.1104
882.00 0.1103
882.10 0.1103
882.20 0.1102
882.30 0.1102
882.40 0.1101
882.50 0.1101
882.60 0.11
882.70 0.11
882.80 0.1099
882.90 0.1099
883.00 0.1098
883.10 0.1098
883.20 0.1097
883.30 0.1097
883.40 0.1096
883.50 0.1096
883.60 0.1096
883.70 0.1095
883.80 0.1095
883.90 0.1094
884.00 0.1094
884.10 0.1093
884.20 0.1093
884.30 0.1092
884.40 0.1092
884.50 0.1091
884.60 0.1091
884.70 0.109
884.80 0.109
884.90 0.1089
885.00 0.1089
885.10 0.1088
885.20 0.1088
885.30 0.1087
885.40 0.1087
885.50 0.1086
885.60 0.1086
885.70 0.1085
885.80 0.1085
885.90 0.1084
886.00 0.1084
886.10 0.1084
886.20 0.1083
886.30 0.1083
886.40 0.1082
886.50 0.1082
886.60 0.1081
886.70 0.1081
886.80 0.108
886.90 0.108
887.00 0.1079
887.10 0.1079
887.20 0.1078
887.30 0.1078
887.40 0.1077
887.50 0.1077
887.60 0.1076
887.70 0.1076
887.80 0.1076
887.90 0.1075
888.00 0.1075
888.10 0.1074
888.20 0.1074
888.30 0.1073
888.40 0.1073
888.50 0.1072
888.60 0.1072
888.70 0.1071
888.80 0.1071
888.90 0.107
889.00 0.107
889.10 0.1069
889.20 0.1069
889.30 0.1069
889.40 0.1068
889.50 0.1068
889.60 0.1067
889.70 0.1067
889.80 0.1066
889.90 0.1066
890.00 0.1065
890.10 0.1065
890.20 0.1064
890.30 0.1064
890.40 0.1063
890.50 0.1063
890.60 0.1062
890.70 0.1062
890.80 0.1062
890.90 0.1061
891.00 0.1061
891.10 0.106
891.20 0.106
891.30 0.1059
891.40 0.1059
891.50 0.1058
891.60 0.1058
891.70 0.1057
891.80 0.1057
891.90 0.1056
892.00 0.1056
892.10 0.1056
892.20 0.1055
892.30 0.1055
892.40 0.1054
892.50 0.1054
892.60 0.1053
892.70 0.1053
892.80 0.1052
892.90 0.1052
893.00 0.1051
893.10 0.1051
893.20 0.105
893.30 0.105
893.40 0.1049
893.50 0.1049
893.60 0.1049
893.70 0.1048
893.80 0.1048
893.90 0.1047
894.00 0.1047
894.10 0.1046
894.20 0.1046
894.30 0.1045
894.40 0.1045
894.50 0.1044
894.60 0.1044
894.70 0.1043
894.80 0.1043
894.90 0.1043
895.00 0.1042
895.10 0.1042
895.20 0.1041
895.30 0.1041
895.40 0.104
895.50 0.104
895.60 0.1039
895.70 0.1039
895.80 0.1038
895.90 0.1038
896.00 0.1037
896.10 0.1037
896.20 0.1037
896.30 0.1036
896.40 0.1036
896.50 0.1035
896.60 0.1035
896.70 0.1034
896.80 0.1034
896.90 0.1033
897.00 0.1033
897.10 0.1032
897.20 0.1032
897.30 0.1032
897.40 0.1031
897.50 0.1031
897.60 0.103
897.70 0.103
897.80 0.1029
897.90 0.1029
898.00 0.1028
898.10 0.1028
898.20 0.1027
898.30 0.1027
898.40 0.1027
898.50 0.1026
898.60 0.1026
898.70 0.1025
898.80 0.1025
898.90 0.1024
899.00 0.1024
899.10 0.1023
899.20 0.1023
899.30 0.1022
899.40 0.1022
899.50 0.1022
899.60 0.1021
899.70 0.1021
899.80 0.102
899.90 0.102
900.00 0.1019
900.10 0.1019
900.20 0.1018
900.30 0.1018
900.40 0.1018
900.50 0.1017
900.60 0.1017
900.70 0.1016
900.80 0.1016
900.90 0.1015
901.00 0.1015
901.10 0.1014
901.20 0.1014
901.30 0.1014
901.40 0.1013
901.50 0.1013
901.60 0.1012
901.70 0.1012
901.80 0.1011
901.90 0.1011
902.00 0.101
902.10 0.101
902.20 0.101
902.30 0.1009
902.40 0.1009
902.50 0.1008
902.60 0.1008
902.70 0.1007
902.80 0.1007
902.90 0.1007
903.00 0.1006
903.10 0.1006
903.20 0.1005
903.30 0.1005
903.40 0.1005
903.50 0.1004
903.60 0.1004
903.70 0.1003
903.80 0.1003
903.90 0.1002
904.00 0.1002
904.10 0.1002
904.20 0.1001
904.30 0.1001
904.40 0.1
904.50 0.1
904.60 0.09995
904.70 0.09991
904.80 0.09987
904.90 0.09983
905.00 0.09979
905.10 0.09975
905.20 0.0997
905.30 0.09966
905.40 0.09962
905.50 0.09958
905.60 0.09954
905.70 0.0995
905.80 0.09946
905.90 0.09942
906.00 0.09937
906.10 0.09933
906.20 0.09929
906.30 0.09925
906.40 0.09921
906.50 0.09917
906.60 0.09913
906.70 0.09909
906.80 0.09904
906.90 0.099
907.00 0.09896
907.10 0.09892
907.20 0.09888
907.30 0.09884
907.40 0.0988
907.50 0.09875
907.60 0.09871
907.70 0.09867
907.80 0.09863
907.90 0.09859
908.00 0.09855
908.10 0.0985
908.20 0.09846
908.30 0.09842
908.40 0.09838
908.50 0.09834
908.60 0.0983
908.70 0.09825
908.80 0.09821
908.90 0.09817
909.00 0.09813
909.10 0.09809
909.20 0.09805
909.30 0.09801
909.40 0.09797
909.50 0.09792
909.60 0.09788
909.70 0.09784
909.80 0.0978
909.90 0.09776
910.00 0.09772
910.10 0.09768
910.20 0.09763
910.30 0.09759
910.40 0.09755
910.50 0.09751
910.60 0.09747
910.70 0.09743
910.80 0.09739
910.90 0.09735
911.00 0.09731
911.10 0.09726
911.20 0.09722
911.30 0.09718
911.40 0.09714
911.50 0.0971
911.60 0.09706
911.70 0.09702
911.80 0.09698
911.90 0.09694
912.00 0.0969
912.10 0.09685
912.20 0.09681
912.30 0.09677
912.40 0.09672
912.50 0.09668
912.60 0.09664
912.70 0.0966
912.80 0.09655
912.90 0.09651
913.00 0.09647
913.10 0.09643
913.20 0.09638
913.30 0.09634
913.40 0.0963
913.50 0.09626
913.60 0.09621
913.70 0.09617
913.80 0.09613
913.90 0.09609
914.00 0.09604
914.10 0.096
914.20 0.09596
914.30 0.09592
914.40 0.09587
914.50 0.09583
914.60 0.09579
914.70 0.09575
914.80 0.09571
914.90 0.09566
915.00 0.09562
915.10 0.09558
915.20 0.09554
915.30 0.09549
915.40 0.09545
915.50 0.09541
915.60 0.09537
915.70 0.09533
915.80 0.09528
915.90 0.09524
916.00 0.0952
916.10 0.09516
916.20 0.09511
916.30 0.09507
916.40 0.09503
916.50 0.09499
916.60 0.09495
916.70 0.0949
916.80 0.09486
916.90 0.09482
917.00 0.09478
917.10 0.09473
917.20 0.09469
917.30 0.09465
917.40 0.0946
917.50 0.09456
917.60 0.09451
917.70 0.09447
917.80 0.09443
917.90 0.09438
918.00 0.09434
918.10 0.0943
918.20 0.09425
918.30 0.09421
918.40 0.09416
918.50 0.09412
918.60 0.09408
918.70 0.09403
918.80 0.09399
918.90 0.09395
919.00 0.0939
919.10 0.09386
919.20 0.09381
919.30 0.09377
919.40 0.09373
919.50 0.09368
919.60 0.09364
919.70 0.0936
919.80 0.09355
919.90 0.09351
920.00 0.09347
920.10 0.09342
920.20 0.09338
920.30 0.09334
920.40 0.09329
920.50 0.09325
920.60 0.0932
920.70 0.09316
920.80 0.09312
920.90 0.09307
921.00 0.09303
921.10 0.09299
921.20 0.09294
921.30 0.0929
921.40 0.09286
921.50 0.09281
921.60 0.09277
921.70 0.09273
921.80 0.09268
921.90 0.09264
922.00 0.0926
922.10 0.09256
922.20 0.09253
922.30 0.09249
922.40 0.09245
922.50 0.09242
922.60 0.09238
922.70 0.09235
922.80 0.09231
922.90 0.09227
923.00 0.09224
923.10 0.0922
923.20 0.09216
923.30 0.09213
923.40 0.09209
923.50 0.09206
923.60 0.09202
923.70 0.09198
923.80 0.09195
923.90 0.09191
924.00 0.09188
924.10 0.09184
924.20 0.09181
924.30 0.09177
924.40 0.09173
924.50 0.0917
924.60 0.09166
924.70 0.09163
924.80 0.09159
924.90 0.09155
925.00 0.09152
925.10 0.09148
925.20 0.09145
925.30 0.09141
925.40 0.09138
925.50 0.09134
925.60 0.0913
925.70 0.09127
925.80 0.09123
925.90 0.0912
926.00 0.09116
926.10 0.09113
926.20 0.09109
926.30 0.09105
926.40 0.09102
926.50 0.09098
926.60 0.09095
926.70 0.09091
926.80 0.09088
926.90 0.09084
927.00 0.0908
927.10 0.09077
927.20 0.09073
927.30 0.0907
927.40 0.09066
927.50 0.09063
927.60 0.09059
927.70 0.09056
927.80 0.09052
927.90 0.09049
928.00 0.09045
928.10 0.09042
928.20 0.09038
928.30 0.09035
928.40 0.09031
928.50 0.09028
928.60 0.09024
928.70 0.09021
928.80 0.09017
928.90 0.09014
929.00 0.0901
929.10 0.09007
929.20 0.09003
929.30 0.09
929.40 0.08996
929.50 0.08993
929.60 0.08989
929.70 0.08986
929.80 0.08982
929.90 0.08979
930.00 0.08975
930.10 0.08972
930.20 0.08968
930.30 0.08965
930.40 0.08961
930.50 0.08958
930.60 0.08954
930.70 0.08951
930.80 0.08947
930.90 0.08944
931.00 0.0894
931.10 0.08937
931.20 0.08933
931.30 0.0893
931.40 0.08926
931.50 0.08923
931.60 0.08919
931.70 0.08916
931.80 0.08912
931.90 0.08909
932.00 0.08906
932.10 0.08902
932.20 0.08898
932.30 0.08895
932.40 0.08891
932.50 0.08888
932.60 0.08884
932.70 0.0888
932.80 0.08877
932.90 0.08873
933.00 0.0887
933.10 0.08866
933.20 0.08862
933.30 0.08859
933.40 0.08855
933.50 0.08852
933.60 0.08848
933.70 0.08844
933.80 0.08841
933.90 0.08837
934.00 0.08834
934.10 0.0883
934.20 0.08826
934.30 0.08823
934.40 0.08819
934.50 0.08816
934.60 0.08812
934.70 0.08808
934.80 0.08805
934.90 0.08801
935.00 0.08797
935.10 0.08794
935.20 0.0879
935.30 0.08787
935.40 0.08783
935.50 0.08779
935.60 0.08776
935.70 0.08772
935.80 0.08769
935.90 0.08765
936.00 0.08761
936.10 0.08758
936.20 0.08754
936.30 0.08751
936.40 0.08747
936.50 0.08743
936.60 0.0874
936.70 0.08736
936.80 0.08733
936.90 0.08729
937.00 0.08725
937.10 0.08722
937.20 0.08718
937.30 0.08714
937.40 0.08711
937.50 0.08707
937.60 0.08704
937.70 0.087
937.80 0.08696
937.90 0.08693
938.00 0.08689
938.10 0.08686
938.20 0.08682
938.30 0.08678
938.40 0.08675
938.50 0.08671
938.60 0.08667
938.70 0.08664
938.80 0.0866
938.90 0.08657
939.00 0.08653
939.10 0.08649
939.20 0.08646
939.30 0.08642
939.40 0.08639
939.50 0.08635
939.60 0.08631
939.70 0.08628
939.80 0.08624
939.90 0.0862
940.00 0.08617
940.10 0.08613
940.20 0.0861
940.30 0.08606
940.40 0.08602
940.50 0.08599
940.60 0.08595
940.70 0.08592
940.80 0.08588
940.90 0.08584
941.00 0.08581
941.10 0.08577
941.20 0.08573
941.30 0.0857
941.40 0.08566
941.50 0.08563
941.60 0.08559
941.70 0.08555
941.80 0.08552
941.90 0.08548
942.00 0.08545
942.10 0.08541
942.20 0.08537
942.30 0.08534
942.40 0.0853
942.50 0.08526
942.60 0.08523
942.70 0.08519
942.80 0.08515
942.90 0.08512
943.00 0.08508
943.10 0.08505
943.20 0.08501
943.30 0.08497
943.40 0.08494
943.50 0.0849
943.60 0.08486
943.70 0.08483
943.80 0.08479
943.90 0.08475
944.00 0.08472
944.10 0.08468
944.20 0.08465
944.30 0.08461
944.40 0.08457
944.50 0.08454
944.60 0.0845
944.70 0.08446
944.80 0.08443
944.90 0.08439
945.00 0.08435
945.10 0.08432
945.20 0.08428
945.30 0.08424
945.40 0.08421
945.50 0.08417
945.60 0.08413
945.70 0.08409
945.80 0.08406
945.90 0.08402
946.00 0.08398
946.10 0.08394
946.20 0.08391
946.30 0.08387
946.40 0.08383
946.50 0.0838
946.60 0.08376
946.70 0.08372
946.80 0.08368
946.90 0.08365
947.00 0.08361
947.10 0.08357
947.20 0.08353
947.30 0.0835
947.40 0.08346
947.50 0.08342
947.60 0.08338
947.70 0.08334
947.80 0.0833
947.90 0.08326
948.00 0.08322
948.10 0.08319
948.20 0.08315
948.30 0.08311
948.40 0.08307
948.50 0.08303
948.60 0.08299
948.70 0.08295
948.80 0.08291
948.90 0.08288
949.00 0.08284
949.10 0.0828
949.20 0.08276
949.30 0.08272
949.40 0.08268
949.50 0.08264
949.60 0.0826
949.70 0.08256
949.80 0.08251
949.90 0.08247
950.00 0.08243
950.10 0.08239
950.20 0.08235
950.30 0.08231
950.40 0.08227
950.50 0.08223
950.60 0.08218
950.70 0.08214
950.80 0.0821
950.90 0.08206
951.00 0.08202
951.10 0.08198
951.20 0.08194
951.30 0.0819
951.40 0.08185
951.50 0.08181
951.60 0.08177
951.70 0.08172
951.80 0.08168
951.90 0.08164
952.00 0.08159
952.10 0.08155
952.20 0.08151
952.30 0.08146
952.40 0.08142
952.50 0.08138
952.60 0.08133
952.70 0.08129
952.80 0.08125
952.90 0.0812
953.00 0.08116
953.10 0.08112
953.20 0.08108
953.30 0.08104
953.40 0.081
953.50 0.08095
953.60 0.08092
953.70 0.08088
953.80 0.08084
953.90 0.08081
954.00 0.08078
954.10 0.08075
954.20 0.08072
954.30 0.08069
954.40 0.08067
954.50 0.08064
954.60 0.08061
954.70 0.08058
954.80 0.08054
954.90 0.0805
955.00 0.08046
955.10 0.08042
955.20 0.08039
955.30 0.08036
955.40 0.08033
955.50 0.0803
955.60 0.08027
955.70 0.08024
955.80 0.08021
955.90 0.08018
956.00 0.08016
956.10 0.08014
956.20 0.08011
956.30 0.08009
956.40 0.08007
956.50 0.08004
956.60 0.08002
956.70 0.08
956.80 0.07998
956.90 0.07995
957.00 0.07993
957.10 0.07991
957.20 0.07988
957.30 0.07986
957.40 0.07984
957.50 0.07981
957.60 0.07979
957.70 0.07976
957.80 0.07974
957.90 0.07972
958.00 0.07969
958.10 0.07967
958.20 0.07964
958.30 0.07962
958.40 0.0796
958.50 0.07957
958.60 0.07955
958.70 0.07952
958.80 0.0795
958.90 0.07948
959.00 0.07945
959.10 0.07943
959.20 0.0794
959.30 0.07938
959.40 0.07935
959.50 0.07932
959.60 0.0793
959.70 0.07927
959.80 0.07924
959.90 0.07922
960.00 0.07919
960.10 0.07916
960.20 0.07913
960.30 0.07911
960.40 0.07908
960.50 0.07905
960.60 0.07903
960.70 0.079
960.80 0.07897
960.90 0.07895
961.00 0.07892
961.10 0.07889
961.20 0.07886
961.30 0.07884
961.40 0.07881
961.50 0.07878
961.60 0.07875
961.70 0.07872
961.80 0.0787
961.90 0.07867
962.00 0.07864
962.10 0.07861
962.20 0.07858
962.30 0.07855
962.40 0.07852
962.50 0.07849
962.60 0.07846
962.70 0.07843
962.80 0.07841
962.90 0.07838
963.00 0.07835
963.10 0.07832
963.20 0.07829
963.30 0.07826
963.40 0.07823
963.50 0.0782
963.60 0.07817
963.70 0.07814
963.80 0.07811
963.90 0.07808
964.00 0.07805
964.10 0.07802
964.20 0.07799
964.30 0.07796
964.40 0.07793
964.50 0.0779
964.60 0.07787
964.70 0.07784
964.80 0.07781
964.90 0.07778
965.00 0.07775
965.10 0.07772
965.20 0.07769
965.30 0.07766
965.40 0.07763
965.50 0.0776
965.60 0.07757
965.70 0.07754
965.80 0.07751
965.90 0.07748
966.00 0.07745
966.10 0.07742
966.20 0.07739
966.30 0.07736
966.40 0.07733
966.50 0.0773
966.60 0.07727
966.70 0.07724
966.80 0.07721
966.90 0.07718
967.00 0.07715
967.10 0.07712
967.20 0.07709
967.30 0.07706
967.40 0.07703
967.50 0.077
967.60 0.07697
967.70 0.07694
967.80 0.07691
967.90 0.07688
968.00 0.07685
968.10 0.07682
968.20 0.07679
968.30 0.07676
968.40 0.07673
968.50 0.0767
968.60 0.07667
968.70 0.07664
968.80 0.07661
968.90 0.07658
969.00 0.07655
969.10 0.07652
969.20 0.07649
969.30 0.07646
969.40 0.07643
969.50 0.07639
969.60 0.07636
969.70 0.07633
969.80 0.0763
969.90 0.07627
970.00 0.07624
970.10 0.07621
970.20 0.07618
970.30 0.07615
970.40 0.07612
970.50 0.07609
970.60 0.07606
970.70 0.07603
970.80 0.076
970.90 0.07597
971.00 0.07594
971.10 0.07591
971.20 0.07588
971.30 0.07585
971.40 0.07582
971.50 0.07579
971.60 0.07576
971.70 0.07573
971.80 0.0757
971.90 0.07567
972.00 0.07564
972.10 0.07561
972.20 0.07558
972.30 0.07555
972.40 0.07552
972.50 0.07549
972.60 0.07546
972.70 0.07543
972.80 0.0754
972.90 0.07537
973.00 0.07534
973.10 0.07531
973.20 0.07528
973.30 0.07525
973.40 0.07522
973.50 0.07519
973.60 0.07516
973.70 0.07513
973.80 0.0751
973.90 0.07507
974.00 0.07504
974.10 0.07501
974.20 0.07498
974.30 0.07495
974.40 0.07492
974.50 0.07489
974.60 0.07486
974.70 0.07483
974.80 0.0748
974.90 0.07477
975.00 0.07474
975.10 0.07471
975.20 0.07468
975.30 0.07465
975.40 0.07462
975.50 0.07459
975.60 0.07456
975.70 0.07453
975.80 0.0745
975.90 0.07447
976.00 0.07444
976.10 0.07441
976.20 0.07438
976.30 0.07435
976.40 0.07432
976.50 0.07429
976.60 0.07427
976.70 0.07424
976.80 0.07421
976.90 0.07418
977.00 0.07415
977.10 0.07412
977.20 0.07409
977.30 0.07406
977.40 0.07403
977.50 0.074
977.60 0.07397
977.70 0.07394
977.80 0.07391
977.90 0.07388
978.00 0.07385
978.10 0.07382
978.20 0.07379
978.30 0.07376
978.40 0.07373
978.50 0.0737
978.60 0.07368
978.70 0.07365
978.80 0.07362
978.90 0.07359
979.00 0.07356
979.10 0.07353
979.20 0.0735
979.30 0.07347
979.40 0.07344
979.50 0.07341
979.60 0.07338
979.70 0.07335
979.80 0.07332
979.90 0.07329
980.00 0.07326
980.10 0.07324
980.20 0.07321
980.30 0.07318
980.40 0.07315
980.50 0.07312
980.60 0.07309
980.70 0.07306
980.80 0.07303
980.90 0.073
981.00 0.07297
981.10 0.07294
981.20 0.07291
981.30 0.07289
981.40 0.07286
981.50 0.07283
981.60 0.0728
981.70 0.07277
981.80 0.07274
981.90 0.07271
982.00 0.07268
982.10 0.07265
982.20 0.07262
982.30 0.0726
982.40 0.07257
982.50 0.07254
982.60 0.07251
982.70 0.07248
982.80 0.07245
982.90 0.07242
983.00 0.07239
983.10 0.07236
983.20 0.07233
983.30 0.07231
983.40 0.07228
983.50 0.07225
983.60 0.07222
983.70 0.07219
983.80 0.07216
983.90 0.07213
984.00 0.0721
984.10 0.07208
984.20 0.07205
984.30 0.07202
984.40 0.07199
984.50 0.07196
984.60 0.07193
984.70 0.0719
984.80 0.07187
984.90 0.07185
985.00 0.07182
985.10 0.07179
985.20 0.07176
985.30 0.07173
985.40 0.0717
985.50 0.07167
985.60 0.07164
985.70 0.07162
985.80 0.07159
985.90 0.07156
986.00 0.07153
986.10 0.0715
986.20 0.07147
986.30 0.07144
986.40 0.07142
986.50 0.07139
986.60 0.07136
986.70 0.07133
986.80 0.0713
986.90 0.07127
987.00 0.07125
987.10 0.07122
987.20 0.07119
987.30 0.07116
987.40 0.07113
987.50 0.0711
987.60 0.07107
987.70 0.07105
987.80 0.07102
987.90 0.07099
988.00 0.07096
988.10 0.07093
988.20 0.0709
988.30 0.07088
988.40 0.07085
988.50 0.07082
988.60 0.07079
988.70 0.07076
988.80 0.07073
988.90 0.0707
989.00 0.07068
989.10 0.07065
989.20 0.07062
989.30 0.07059
989.40 0.07056
989.50 0.07053
989.60 0.07051
989.70 0.07048
989.80 0.07045
989.90 0.07042
990.00 0.07039
990.10 0.07036
990.20 0.07034
990.30 0.07031
990.40 0.07028
990.50 0.07025
990.60 0.07022
990.70 0.07019
990.80 0.07017
990.90 0.07014
991.00 0.07011
991.10 0.07008
991.20 0.07005
991.30 0.07002
991.40 0.07
991.50 0.06997
991.60 0.06994
991.70 0.06991
991.80 0.06988
991.90 0.06985
992.00 0.06983
992.10 0.0698
992.20 0.06977
992.30 0.06974
992.40 0.06971
992.50 0.06968
992.60 0.06966
992.70 0.06963
992.80 0.0696
992.90 0.06957
993.00 0.06954
993.10 0.06951
993.20 0.06948
993.30 0.06946
993.40 0.06943
993.50 0.0694
993.60 0.06937
993.70 0.06934
993.80 0.06931
993.90 0.06928
994.00 0.06926
994.10 0.06923
994.20 0.0692
994.30 0.06917
994.40 0.06914
994.50 0.06911
994.60 0.06908
994.70 0.06905
994.80 0.06903
994.90 0.069
995.00 0.06897
995.10 0.06894
995.20 0.06891
995.30 0.06888
995.40 0.06885
995.50 0.06882
995.60 0.06879
995.70 0.06876
995.80 0.06873
995.90 0.0687
996.00 0.06868
996.10 0.06865
996.20 0.06862
996.30 0.06859
996.40 0.06856
996.50 0.06853
996.60 0.0685
996.70 0.06847
996.80 0.06844
996.90 0.06841
997.00 0.06838
997.10 0.06835
997.20 0.06832
997.30 0.06829
997.40 0.06826
997.50 0.06823
997.60 0.0682
997.70 0.06816
997.80 0.06813
997.90 0.0681
998.00 0.06807
998.10 0.06803
998.20 0.068
998.30 0.06797
998.40 0.06794
998.50 0.06791
998.60 0.06787
998.70 0.06784
998.80 0.06781
998.90 0.06778
999.00 0.06774
999.10 0.06771
999.20 0.06768
999.30 0.06765
999.40 0.06761
999.50 0.06758
999.60 0.06755
999.70 0.06751
999.80 0.06748
999.90 0.06744
1000.00 0.0674
1000.10 0.06736
1000.20 0.06733
1000.30 0.06729
1000.40 0.06725
1000.50 0.06721
1000.60 0.06718
1000.70 0.06714
1000.80 0.0671
1000.90 0.06706
1001.00 0.06703
1001.10 0.06699
1001.20 0.06695
1001.30 0.06691
1001.40 0.06688
1001.50 0.06684
1001.60 0.0668
1001.70 0.06676
1001.80 0.06672
1001.90 0.06668
1002.00 0.06664
1002.10 0.06659
1002.20 0.06654
1002.30 0.0665
1002.40 0.06645
1002.50 0.06641
1002.60 0.06636
1002.70 0.06632
1002.80 0.06627
1002.90 0.06623
1003.00 0.06618
1003.10 0.06614
1003.20 0.06609
1003.30 0.06604
1003.40 0.066
1003.50 0.06595
1003.60 0.0659
1003.70 0.06586
1003.80 0.06581
1003.90 0.06577
1004.00 0.06574
1004.10 0.0657
1004.20 0.06566
1004.30 0.06564
1004.40 0.06563
1004.50 0.06562
1004.60 0.06564
1004.70 0.06568
1004.80 0.06572
1004.90 0.06571
1005.00 0.06569
1005.10 0.06563
1005.20 0.06555
1005.30 0.06547
1005.40 0.06539
1005.50 0.06536
1005.60 0.06534
1005.70 0.06532
1005.80 0.0653
1005.90 0.06528
1006.00 0.06526
1006.10 0.06524
1006.20 0.06523
1006.30 0.06523
1006.40 0.06522
1006.50 0.06522
1006.60 0.06521
1006.70 0.06521
1006.80 0.0652
1006.90 0.0652
1007.00 0.0652
1007.10 0.06519
1007.20 0.06518
1007.30 0.06518
1007.40 0.06517
1007.50 0.06517
1007.60 0.06516
1007.70 0.06515
1007.80 0.06514
1007.90 0.06513
1008.00 0.06511
1008.10 0.0651
1008.20 0.06509
1008.30 0.06508
1008.40 0.06506
1008.50 0.06505
1008.60 0.06504
1008.70 0.06503
1008.80 0.06502
1008.90 0.065
1009.00 0.06499
1009.10 0.06498
1009.20 0.06497
1009.30 0.06495
1009.40 0.06494
1009.50 0.06493
1009.60 0.06492
1009.70 0.0649
1009.80 0.06488
1009.90 0.06486
1010.00 0.06484
1010.10 0.06483
1010.20 0.06481
1010.30 0.06479
1010.40 0.06477
1010.50 0.06475
1010.60 0.06473
1010.70 0.06471
1010.80 0.0647
1010.90 0.06468
1011.00 0.06466
1011.10 0.06464
1011.20 0.06462
1011.30 0.0646
1011.40 0.06458
1011.50 0.06457
1011.60 0.06455
1011.70 0.06453
1011.80 0.06451
1011.90 0.06449
1012.00 0.06447
1012.10 0.06444
1012.20 0.06442
1012.30 0.0644
1012.40 0.06438
1012.50 0.06436
1012.60 0.06433
1012.70 0.06431
1012.80 0.06429
1012.90 0.06427
1013.00 0.06425
1013.10 0.06423
1013.20 0.0642
1013.30 0.06418
1013.40 0.06416
1013.50 0.06414
1013.60 0.06412
1013.70 0.06409
1013.80 0.06407
1013.90 0.06405
1014.00 0.06403
1014.10 0.064
1014.20 0.06398
1014.30 0.06396
1014.40 0.06394
1014.50 0.06391
1014.60 0.06389
1014.70 0.06387
1014.80 0.06384
1014.90 0.06382
1015.00 0.0638
1015.10 0.06377
1015.20 0.06375
1015.30 0.06373
1015.40 0.0637
1015.50 0.06368
1015.60 0.06366
1015.70 0.06364
1015.80 0.06361
1015.90 0.06359
1016.00 0.06357
1016.10 0.06354
1016.20 0.06352
1016.30 0.0635
1016.40 0.06347
1016.50 0.06345
1016.60 0.06343
1016.70 0.0634
1016.80 0.06338
1016.90 0.06336
1017.00 0.06333
1017.10 0.06331
1017.20 0.06329
1017.30 0.06326
1017.40 0.06324
1017.50 0.06322
1017.60 0.06319
1017.70 0.06317
1017.80 0.06314
1017.90 0.06312
1018.00 0.0631
1018.10 0.06307
1018.20 0.06305
1018.30 0.06303
1018.40 0.063
1018.50 0.06298
1018.60 0.06296
1018.70 0.06293
1018.80 0.06291
1018.90 0.06289
1019.00 0.06286
1019.10 0.06284
1019.20 0.06282
1019.30 0.06279
1019.40 0.06277
1019.50 0.06274
1019.60 0.06272
1019.70 0.0627
1019.80 0.06267
1019.90 0.06265
1020.00 0.06263
1020.10 0.0626
1020.20 0.06258
1020.30 0.06256
1020.40 0.06253
1020.50 0.06251
1020.60 0.06249
1020.70 0.06246
1020.80 0.06244
1020.90 0.06241
1021.00 0.06239
1021.10 0.06237
1021.20 0.06234
1021.30 0.06232
1021.40 0.0623
1021.50 0.06227
1021.60 0.06225
1021.70 0.06223
1021.80 0.0622
1021.90 0.06218
1022.00 0.06216
1022.10 0.06213
1022.20 0.06211
1022.30 0.06209
1022.40 0.06206
1022.50 0.06204
1022.60 0.06201
1022.70 0.06199
1022.80 0.06197
1022.90 0.06194
1023.00 0.06192
1023.10 0.0619
1023.20 0.06187
1023.30 0.06185
1023.40 0.06183
1023.50 0.0618
1023.60 0.06178
1023.70 0.06176
1023.80 0.06173
1023.90 0.06171
1024.00 0.06169
1024.10 0.06166
1024.20 0.06164
1024.30 0.06162
1024.40 0.06159
1024.50 0.06157
1024.60 0.06155
1024.70 0.06152
1024.80 0.0615
1024.90 0.06148
1025.00 0.06145
1025.10 0.06143
1025.20 0.06141
1025.30 0.06138
1025.40 0.06136
1025.50 0.06134
1025.60 0.06131
1025.70 0.06129
1025.80 0.06127
1025.90 0.06124
1026.00 0.06122
1026.10 0.0612
1026.20 0.06117
1026.30 0.06115
1026.40 0.06113
1026.50 0.06111
1026.60 0.06108
1026.70 0.06106
1026.80 0.06104
1026.90 0.06101
1027.00 0.06099
1027.10 0.06097
1027.20 0.06094
1027.30 0.06092
1027.40 0.0609
1027.50 0.06087
1027.60 0.06085
1027.70 0.06083
1027.80 0.06081
1027.90 0.06078
1028.00 0.06076
1028.10 0.06074
1028.20 0.06071
1028.30 0.06069
1028.40 0.06067
1028.50 0.06064
1028.60 0.06062
1028.70 0.0606
1028.80 0.06058
1028.90 0.06055
1029.00 0.06053
1029.10 0.06051
1029.20 0.06048
1029.30 0.06046
1029.40 0.06044
1029.50 0.06042
1029.60 0.06039
1029.70 0.06037
1029.80 0.06035
1029.90 0.06032
1030.00 0.0603
1030.10 0.06028
1030.20 0.06026
1030.30 0.06023
1030.40 0.06021
1030.50 0.06019
1030.60 0.06016
1030.70 0.06014
1030.80 0.06012
1030.90 0.0601
1031.00 0.06007
1031.10 0.06005
1031.20 0.06003
1031.30 0.06001
1031.40 0.05998
1031.50 0.05996
1031.60 0.05994
1031.70 0.05991
1031.80 0.05989
1031.90 0.05987
1032.00 0.05985
1032.10 0.05982
1032.20 0.0598
1032.30 0.05978
1032.40 0.05976
1032.50 0.05973
1032.60 0.05971
1032.70 0.05969
1032.80 0.05967
1032.90 0.05964
1033.00 0.05962
1033.10 0.0596
1033.20 0.05958
1033.30 0.05955
1033.40 0.05953
1033.50 0.05951
1033.60 0.05949
1033.70 0.05946
1033.80 0.05944
1033.90 0.05942
1034.00 0.0594
1034.10 0.05937
1034.20 0.05935
1034.30 0.05933
1034.40 0.05931
1034.50 0.05928
1034.60 0.05926
1034.70 0.05924
1034.80 0.05922
1034.90 0.0592
1035.00 0.05917
1035.10 0.05915
1035.20 0.05913
1035.30 0.05911
1035.40 0.05908
1035.50 0.05906
1035.60 0.05904
1035.70 0.05902
1035.80 0.05899
1035.90 0.05897
1036.00 0.05895
1036.10 0.05893
1036.20 0.05891
1036.30 0.05888
1036.40 0.05886
1036.50 0.05884
1036.60 0.05882
1036.70 0.05879
1036.80 0.05877
1036.90 0.05875
1037.00 0.05873
1037.10 0.05871
1037.20 0.05868
1037.30 0.05866
1037.40 0.05864
1037.50 0.05862
1037.60 0.0586
1037.70 0.05857
1037.80 0.05855
1037.90 0.05853
1038.00 0.05851
1038.10 0.05849
1038.20 0.05846
1038.30 0.05844
1038.40 0.05842
1038.50 0.0584
1038.60 0.05838
1038.70 0.05835
1038.80 0.05833
1038.90 0.05831
1039.00 0.05829
1039.10 0.05827
1039.20 0.05824
1039.30 0.05822
1039.40 0.0582
1039.50 0.05818
1039.60 0.05816
1039.70 0.05814
1039.80 0.05811
1039.90 0.05809
1040.00 0.05807
1040.10 0.05805
1040.20 0.05803
1040.30 0.058
1040.40 0.05798
1040.50 0.05796
1040.60 0.05794
1040.70 0.05792
1040.80 0.0579
1040.90 0.05787
1041.00 0.05785
1041.10 0.05783
1041.20 0.05781
1041.30 0.05779
1041.40 0.05776
1041.50 0.05774
1041.60 0.05772
1041.70 0.0577
1041.80 0.05768
1041.90 0.05766
1042.00 0.05763
1042.10 0.05761
1042.20 0.05759
1042.30 0.05757
1042.40 0.05755
1042.50 0.05753
1042.60 0.05751
1042.70 0.05748
1042.80 0.05746
1042.90 0.05744
1043.00 0.05742
1043.10 0.0574
1043.20 0.05738
1043.30 0.05735
1043.40 0.05733
1043.50 0.05731
1043.60 0.05729
1043.70 0.05727
1043.80 0.05725
1043.90 0.05723
1044.00 0.0572
1044.10 0.05718
1044.20 0.05716
1044.30 0.05714
1044.40 0.05712
1044.50 0.0571
1044.60 0.05708
1044.70 0.05706
1044.80 0.05703
1044.90 0.05701
1045.00 0.05699
1045.10 0.05697
1045.20 0.05695
1045.30 0.05693
1045.40 0.05691
1045.50 0.05688
1045.60 0.05686
1045.70 0.05684
1045.80 0.05682
1045.90 0.0568
1046.00 0.05678
1046.10 0.05676
1046.20 0.05674
1046.30 0.05671
1046.40 0.05669
1046.50 0.05667
1046.60 0.05665
1046.70 0.05663
1046.80 0.05661
1046.90 0.05659
1047.00 0.05657
1047.10 0.05654
1047.20 0.05652
1047.30 0.0565
1047.40 0.05648
1047.50 0.05646
1047.60 0.05644
1047.70 0.05642
1047.80 0.0564
1047.90 0.05638
1048.00 0.05636
1048.10 0.05633
1048.20 0.05631
1048.30 0.05629
1048.40 0.05627
1048.50 0.05625
1048.60 0.05623
1048.70 0.05621
1048.80 0.05619
1048.90 0.05617
1049.00 0.05615
1049.10 0.05613
1049.20 0.0561
1049.30 0.05608
1049.40 0.05606
1049.50 0.05604
1049.60 0.05602
1049.70 0.056
1049.80 0.05598
1049.90 0.05596
1050.00 0.05594
1050.10 0.05592
1050.20 0.0559
1050.30 0.05587
1050.40 0.05585
1050.50 0.05583
1050.60 0.05581
1050.70 0.05579
1050.80 0.05577
1050.90 0.05575
1051.00 0.05573
1051.10 0.05571
1051.20 0.05569
1051.30 0.05567
1051.40 0.05565
1051.50 0.05563
1051.60 0.0556
1051.70 0.05558
1051.80 0.05556
1051.90 0.05554
1052.00 0.05552
1052.10 0.0555
1052.20 0.05548
1052.30 0.05546
1052.40 0.05544
1052.50 0.05542
1052.60 0.0554
1052.70 0.05538
1052.80 0.05536
1052.90 0.05534
1053.00 0.05532
1053.10 0.0553
1053.20 0.05528
1053.30 0.05525
1053.40 0.05523
1053.50 0.05521
1053.60 0.05519
1053.70 0.05517
1053.80 0.05515
1053.90 0.05513
1054.00 0.05511
1054.10 0.05509
1054.20 0.05507
1054.30 0.05505
1054.40 0.05503
1054.50 0.05501
1054.60 0.05499
1054.70 0.05497
1054.80 0.05495
1054.90 0.05493
1055.00 0.05491
1055.10 0.05489
1055.20 0.05487
1055.30 0.05485
1055.40 0.05483
1055.50 0.05481
1055.60 0.05479
1055.70 0.05477
1055.80 0.05474
1055.90 0.05472
1056.00 0.0547
1056.10 0.05468
1056.20 0.05466
1056.30 0.05464
1056.40 0.05462
1056.50 0.0546
1056.60 0.05458
1056.70 0.05456
1056.80 0.05454
1056.90 0.05452
1057.00 0.0545
1057.10 0.05448
1057.20 0.05446
1057.30 0.05444
1057.40 0.05442
1057.50 0.0544
1057.60 0.05438
1057.70 0.05436
1057.80 0.05434
1057.90 0.05432
1058.00 0.0543
1058.10 0.05428
1058.20 0.05426
1058.30 0.05424
1058.40 0.05422
1058.50 0.0542
1058.60 0.05418
1058.70 0.05416
1058.80 0.05414
1058.90 0.05412
1059.00 0.0541
1059.10 0.05408
1059.20 0.05406
1059.30 0.05404
1059.40 0.05402
1059.50 0.054
1059.60 0.05398
1059.70 0.05396
1059.80 0.05394
1059.90 0.05392
1060.00 0.0539
1060.10 0.05388
1060.20 0.05386
1060.30 0.05384
1060.40 0.05382
1060.50 0.0538
1060.60 0.05378
1060.70 0.05376
1060.80 0.05374
1060.90 0.05372
1061.00 0.0537
1061.10 0.05368
1061.20 0.05366
1061.30 0.05364
1061.40 0.05362
1061.50 0.0536
1061.60 0.05358
1061.70 0.05356
1061.80 0.05354
1061.90 0.05352
1062.00 0.0535
1062.10 0.05348
1062.20 0.05346
1062.30 0.05344
1062.40 0.05342
1062.50 0.05341
1062.60 0.05339
1062.70 0.05337
1062.80 0.05335
1062.90 0.05333
1063.00 0.05331
1063.10 0.05329
1063.20 0.05327
1063.30 0.05325
1063.40 0.05323
1063.50 0.05321
1063.60 0.05319
1063.70 0.05317
1063.80 0.05315
1063.90 0.05313
1064.00 0.05311
1064.10 0.05309
1064.20 0.05307
1064.30 0.05305
1064.40 0.05303
1064.50 0.05301
1064.60 0.05299
1064.70 0.05297
1064.80 0.05296
1064.90 0.05294
1065.00 0.05292
1065.10 0.0529
1065.20 0.05288
1065.30 0.05286
1065.40 0.05284
1065.50 0.05282
1065.60 0.0528
1065.70 0.05278
1065.80 0.05276
1065.90 0.05274
1066.00 0.05272
1066.10 0.0527
1066.20 0.05268
1066.30 0.05266
1066.40 0.05264
1066.50 0.05262
1066.60 0.05261
1066.70 0.05259
1066.80 0.05257
1066.90 0.05255
1067.00 0.05253
1067.10 0.05251
1067.20 0.05249
1067.30 0.05247
1067.40 0.05245
1067.50 0.05243
1067.60 0.05241
1067.70 0.05239
1067.80 0.05237
1067.90 0.05235
1068.00 0.05234
1068.10 0.05232
1068.20 0.0523
1068.30 0.05228
1068.40 0.05226
1068.50 0.05224
1068.60 0.05222
1068.70 0.0522
1068.80 0.05218
1068.90 0.05216
1069.00 0.05214
1069.10 0.05212
1069.20 0.05211
1069.30 0.05209
1069.40 0.05207
1069.50 0.05205
1069.60 0.05203
1069.70 0.05201
1069.80 0.05199
1069.90 0.05197
1070.00 0.05195
1070.10 0.05193
1070.20 0.05191
1070.30 0.0519
1070.40 0.05188
1070.50 0.05186
1070.60 0.05184
1070.70 0.05182
1070.80 0.0518
1070.90 0.05178
1071.00 0.05176
1071.10 0.05174
1071.20 0.05172
1071.30 0.0517
1071.40 0.05169
1071.50 0.05167
1071.60 0.05165
1071.70 0.05163
1071.80 0.05161
1071.90 0.05159
1072.00 0.05157
1072.10 0.05155
1072.20 0.05153
1072.30 0.05152
1072.40 0.0515
1072.50 0.05148
1072.60 0.05146
1072.70 0.05144
1072.80 0.05142
1072.90 0.0514
1073.00 0.05138
1073.10 0.05136
1073.20 0.05135
1073.30 0.05133
1073.40 0.05131
1073.50 0.05129
1073.60 0.05127
1073.70 0.05125
1073.80 0.05123
1073.90 0.05121
1074.00 0.05119
1074.10 0.05118
1074.20 0.05116
1074.30 0.05114
1074.40 0.05112
1074.50 0.0511
1074.60 0.05108
1074.70 0.05106
1074.80 0.05104
1074.90 0.05103
1075.00 0.05101
1075.10 0.05099
1075.20 0.05097
1075.30 0.05095
1075.40 0.05093
1075.50 0.05091
1075.60 0.05089
1075.70 0.05088
1075.80 0.05086
1075.90 0.05084
1076.00 0.05082
1076.10 0.0508
1076.20 0.05078
1076.30 0.05076
1076.40 0.05074
1076.50 0.05073
1076.60 0.05071
1076.70 0.05069
1076.80 0.05067
1076.90 0.05065
1077.00 0.05063
1077.10 0.05061
1077.20 0.0506
1077.30 0.05058
1077.40 0.05056
1077.50 0.05054
1077.60 0.05052
1077.70 0.0505
1077.80 0.05048
1077.90 0.05046
1078.00 0.05045
1078.10 0.05043
1078.20 0.05041
1078.30 0.05039
1078.40 0.05037
1078.50 0.05035
1078.60 0.05033
1078.70 0.05032
1078.80 0.0503
1078.90 0.05028
1079.00 0.05026
1079.10 0.05024
1079.20 0.05022
1079.30 0.0502
1079.40 0.05019
1079.50 0.05017
1079.60 0.05015
1079.70 0.05013
1079.80 0.05011
1079.90 0.05009
1080.00 0.05007
1080.10 0.05005
1080.20 0.05004
1080.30 0.05002
1080.40 0.05
1080.50 0.04998
1080.60 0.04996
1080.70 0.04994
1080.80 0.04992
1080.90 0.04991
1081.00 0.04989
1081.10 0.04987
1081.20 0.04985
1081.30 0.04983
1081.40 0.04981
1081.50 0.04979
1081.60 0.04977
1081.70 0.04976
1081.80 0.04974
1081.90 0.04972
1082.00 0.0497
1082.10 0.04968
1082.20 0.04966
1082.30 0.04964
1082.40 0.04962
1082.50 0.0496
1082.60 0.04959
1082.70 0.04957
1082.80 0.04955
1082.90 0.04953
1083.00 0.04951
1083.10 0.04949
1083.20 0.04947
1083.30 0.04945
1083.40 0.04943
1083.50 0.04941
1083.60 0.0494
1083.70 0.04938
1083.80 0.04936
1083.90 0.04934
1084.00 0.04932
1084.10 0.0493
1084.20 0.04928
1084.30 0.04926
1084.40 0.04924
1084.50 0.04922
1084.60 0.0492
1084.70 0.04918
1084.80 0.04916
1084.90 0.04914
1085.00 0.04912
1085.10 0.0491
1085.20 0.04908
1085.30 0.04906
1085.40 0.04904
1085.50 0.04902
1085.60 0.049
1085.70 0.04898
1085.80 0.04896
1085.90 0.04894
1086.00 0.04892
1086.10 0.0489
1086.20 0.04888
1086.30 0.04886
1086.40 0.04884
1086.50 0.04882
1086.60 0.0488
1086.70 0.04877
1086.80 0.04875
1086.90 0.04873
1087.00 0.04871
1087.10 0.04869
1087.20 0.04866
1087.30 0.04864
1087.40 0.04862
1087.50 0.04859
1087.60 0.04857
1087.70 0.04855
1087.80 0.04852
1087.90 0.0485
1088.00 0.04848
1088.10 0.04845
1088.20 0.04843
1088.30 0.04841
1088.40 0.04838
1088.50 0.04836
1088.60 0.04833
1088.70 0.0483
1088.80 0.04827
1088.90 0.04824
1089.00 0.04821
1089.10 0.04818
1089.20 0.04815
1089.30 0.04812
1089.40 0.04809
1089.50 0.04807
1089.60 0.04804
1089.70 0.04801
1089.80 0.04798
1089.90 0.04795
1090.00 0.04792
1090.10 0.04789
1090.20 0.04786
1090.30 0.04783
1090.40 0.0478
1090.50 0.04777
1090.60 0.04773
1090.70 0.04769
1090.80 0.04765
1090.90 0.04761
1091.00 0.04757
1091.10 0.04752
1091.20 0.04748
1091.30 0.04744
1091.40 0.0474
1091.50 0.04736
1091.60 0.04732
1091.70 0.04728
1091.80 0.04724
1091.90 0.0472
1092.00 0.04716
1092.10 0.04711
1092.20 0.04707
1092.30 0.04702
1092.40 0.04698
1092.50 0.04693
1092.60 0.04689
1092.70 0.04685
1092.80 0.04682
1092.90 0.04679
1093.00 0.04675
1093.10 0.04673
1093.20 0.04672
1093.30 0.04671
1093.40 0.04672
1093.50 0.04673
1093.60 0.04677
1093.70 0.0468
1093.80 0.04681
1093.90 0.0468
1094.00 0.04674
1094.10 0.04667
1094.20 0.0466
1094.30 0.04656
1094.40 0.04654
1094.50 0.04653
1094.60 0.04652
1094.70 0.04651
1094.80 0.0465
1094.90 0.04649
1095.00 0.04649
1095.10 0.0465
1095.20 0.04651
1095.30 0.04652
1095.40 0.04653
1095.50 0.04654
1095.60 0.04655
1095.70 0.04656
1095.80 0.04657
1095.90 0.04658
1096.00 0.04659
1096.10 0.0466
1096.20 0.04661
1096.30 0.04662
1096.40 0.04663
1096.50 0.04664
1096.60 0.04664
1096.70 0.04665
1096.80 0.04665
1096.90 0.04666
1097.00 0.04666
1097.10 0.04666
1097.20 0.04665
1097.30 0.04665
1097.40 0.04665
1097.50 0.04664
1097.60 0.04664
1097.70 0.04664
1097.80 0.04664
1097.90 0.04663
1098.00 0.04663
1098.10 0.04663
1098.20 0.04662
1098.30 0.04662
1098.40 0.04662
1098.50 0.04661
1098.60 0.0466
1098.70 0.04659
1098.80 0.04658
1098.90 0.04657
1099.00 0.04656
1099.10 0.04655
1099.20 0.04654
1099.30 0.04653
1099.40 0.04652
1099.50 0.04651
1099.60 0.0465
1099.70 0.04649
1099.80 0.04648
1099.90 0.04647
1100.00 0.04646
1100.10 0.04645
1100.20 0.04644
1100.30 0.04644
1100.40 0.04643
1100.50 0.04641
1100.60 0.0464
1100.70 0.04639
1100.80 0.04637
1100.90 0.04636
1101.00 0.04635
1101.10 0.04633
1101.20 0.04632
1101.30 0.04631
1101.40 0.0463
1101.50 0.04628
1101.60 0.04627
1101.70 0.04626
1101.80 0.04624
1101.90 0.04623
1102.00 0.04622
1102.10 0.0462
1102.20 0.04619
1102.30 0.04617
1102.40 0.04616
1102.50 0.04614
1102.60 0.04613
1102.70 0.04612
1102.80 0.0461
1102.90 0.04609
1103.00 0.04607
1103.10 0.04606
1103.20 0.04604
1103.30 0.04603
1103.40 0.04601
1103.50 0.046
1103.60 0.04598
1103.70 0.04597
1103.80 0.04595
1103.90 0.04594
1104.00 0.04592
1104.10 0.04591
1104.20 0.04589
1104.30 0.04588
1104.40 0.04586
1104.50 0.04585
1104.60 0.04583
1104.70 0.04582
1104.80 0.0458
1104.90 0.04579
1105.00 0.04577
1105.10 0.04576
1105.20 0.04574
1105.30 0.04573
1105.40 0.04571
1105.50 0.0457
1105.60 0.04568
1105.70 0.04566
1105.80 0.04565
1105.90 0.04563
1106.00 0.04562
1106.10 0.0456
1106.20 0.04559
1106.30 0.04557
1106.40 0.04556
1106.50 0.04554
1106.60 0.04552
1106.70 0.04551
1106.80 0.04549
1106.90 0.04548
1107.00 0.04546
1107.10 0.04545
1107.20 0.04543
1107.30 0.04542
1107.40 0.0454
1107.50 0.04539
1107.60 0.04537
1107.70 0.04535
1107.80 0.04534
1107.90 0.04532
1108.00 0.04531
1108.10 0.04529
1108.20 0.04528
1108.30 0.04526
1108.40 0.04524
1108.50 0.04523
1108.60 0.04521
1108.70 0.0452
1108.80 0.04518
1108.90 0.04517
1109.00 0.04515
1109.10 0.04514
1109.20 0.04512
1109.30 0.0451
1109.40 0.04509
1109.50 0.04507
1109.60 0.04506
1109.70 0.04504
1109.80 0.04503
1109.90 0.04501
1110.00 0.04499
1110.10 0.04498
1110.20 0.04496
1110.30 0.04495
1110.40 0.04493
1110.50 0.04492
1110.60 0.0449
1110.70 0.04489
1110.80 0.04487
1110.90 0.04485
1111.00 0.04484
1111.10 0.04482
1111.20 0.04481
1111.30 0.04479
1111.40 0.04478
1111.50 0.04476
1111.60 0.04475
1111.70 0.04473
1111.80 0.04471
1111.90 0.0447
1112.00 0.04468
1112.10 0.04467
1112.20 0.04465
1112.30 0.04464
1112.40 0.04462
1112.50 0.04461
1112.60 0.04459
1112.70 0.04457
1112.80 0.04456
1112.90 0.04454
1113.00 0.04453
1113.10 0.04451
1113.20 0.0445
1113.30 0.04448
1113.40 0.04447
1113.50 0.04445
1113.60 0.04444
1113.70 0.04442
1113.80 0.0444
1113.90 0.04439
1114.00 0.04437
1114.10 0.04436
1114.20 0.04434
1114.30 0.04433
1114.40 0.04431
1114.50 0.0443
1114.60 0.04428
1114.70 0.04427
1114.80 0.04425
1114.90 0.04423
1115.00 0.04422
1115.10 0.0442
1115.20 0.04419
1115.30 0.04417
1115.40 0.04416
1115.50 0.04414
1115.60 0.04413
1115.70 0.04411
1115.80 0.0441
1115.90 0.04408
1116.00 0.04406
1116.10 0.04405
1116.20 0.04403
1116.30 0.04402
1116.40 0.044
1116.50 0.04399
1116.60 0.04397
1116.70 0.04396
1116.80 0.04394
1116.90 0.04393
1117.00 0.04391
1117.10 0.0439
1117.20 0.04388
1117.30 0.04387
1117.40 0.04385
1117.50 0.04384
1117.60 0.04382
1117.70 0.0438
1117.80 0.04379
1117.90 0.04377
1118.00 0.04376
1118.10 0.04374
1118.20 0.04373
1118.30 0.04371
1118.40 0.0437
1118.50 0.04368
1118.60 0.04367
1118.70 0.04365
1118.80 0.04364
1118.90 0.04362
1119.00 0.04361
1119.10 0.04359
1119.20 0.04358
1119.30 0.04356
1119.40 0.04355
1119.50 0.04353
1119.60 0.04352
1119.70 0.0435
1119.80 0.04349
1119.90 0.04347
1120.00 0.04345
1120.10 0.04344
1120.20 0.04342
1120.30 0.04341
1120.40 0.04339
1120.50 0.04338
1120.60 0.04336
1120.70 0.04335
1120.80 0.04333
1120.90 0.04332
1121.00 0.0433
1121.10 0.04329
1121.20 0.04327
1121.30 0.04326
1121.40 0.04324
1121.50 0.04323
1121.60 0.04321
1121.70 0.0432
1121.80 0.04318
1121.90 0.04317
1122.00 0.04315
1122.10 0.04314
1122.20 0.04312
1122.30 0.04311
1122.40 0.04309
1122.50 0.04308
1122.60 0.04306
1122.70 0.04305
1122.80 0.04303
1122.90 0.04302
1123.00 0.043
1123.10 0.04299
1123.20 0.04297
1123.30 0.04296
1123.40 0.04294
1123.50 0.04293
1123.60 0.04291
1123.70 0.0429
1123.80 0.04288
1123.90 0.04287
1124.00 0.04285
1124.10 0.04284
1124.20 0.04282
1124.30 0.04281
1124.40 0.04279
1124.50 0.04278
1124.60 0.04277
1124.70 0.04275
1124.80 0.04274
1124.90 0.04272
1125.00 0.04271
1125.10 0.04269
1125.20 0.04268
1125.30 0.04266
1125.40 0.04265
1125.50 0.04263
1125.60 0.04262
1125.70 0.0426
1125.80 0.04259
1125.90 0.04257
1126.00 0.04256
1126.10 0.04254
1126.20 0.04253
1126.30 0.04251
1126.40 0.0425
1126.50 0.04248
1126.60 0.04247
1126.70 0.04245
1126.80 0.04244
1126.90 0.04242
1127.00 0.04241
1127.10 0.0424
1127.20 0.04238
1127.30 0.04237
1127.40 0.04235
1127.50 0.04234
1127.60 0.04232
1127.70 0.04231
1127.80 0.04229
1127.90 0.04228
1128.00 0.04226
1128.10 0.04225
1128.20 0.04223
1128.30 0.04222
1128.40 0.04221
1128.50 0.04219
1128.60 0.04218
1128.70 0.04216
1128.80 0.04215
1128.90 0.04213
1129.00 0.04212
1129.10 0.0421
1129.20 0.04209
1129.30 0.04207
1129.40 0.04206
1129.50 0.04204
1129.60 0.04203
1129.70 0.04202
1129.80 0.042
1129.90 0.04199
1130.00 0.04197
1130.10 0.04196
1130.20 0.04194
1130.30 0.04193
1130.40 0.04191
1130.50 0.0419
1130.60 0.04189
1130.70 0.04187
1130.80 0.04186
1130.90 0.04184
1131.00 0.04183
1131.10 0.04181
1131.20 0.0418
1131.30 0.04178
1131.40 0.04177
1131.50 0.04175
1131.60 0.04174
1131.70 0.04173
1131.80 0.04171
1131.90 0.0417
1132.00 0.04168
1132.10 0.04167
1132.20 0.04165
1132.30 0.04164
1132.40 0.04163
1132.50 0.04161
1132.60 0.0416
1132.70 0.04158
1132.80 0.04157
1132.90 0.04155
1133.00 0.04154
1133.10 0.04152
1133.20 0.04151
1133.30 0.0415
1133.40 0.04148
1133.50 0.04147
1133.60 0.04145
1133.70 0.04144
1133.80 0.04142
1133.90 0.04141
1134.00 0.0414
1134.10 0.04138
1134.20 0.04137
1134.30 0.04135
1134.40 0.04134
1134.50 0.04132
1134.60 0.04131
1134.70 0.0413
1134.80 0.04128
1134.90 0.04127
1135.00 0.04125
1135.10 0.04124
1135.20 0.04123
1135.30 0.04121
1135.40 0.0412
1135.50 0.04118
1135.60 0.04117
1135.70 0.04115
1135.80 0.04114
1135.90 0.04113
1136.00 0.04111
1136.10 0.0411
1136.20 0.04108
1136.30 0.04107
1136.40 0.04105
1136.50 0.04104
1136.60 0.04103
1136.70 0.04101
1136.80 0.041
1136.90 0.04098
1137.00 0.04097
1137.10 0.04096
1137.20 0.04094
1137.30 0.04093
1137.40 0.04091
1137.50 0.0409
1137.60 0.04089
1137.70 0.04087
1137.80 0.04086
1137.90 0.04084
1138.00 0.04083
1138.10 0.04082
1138.20 0.0408
1138.30 0.04079
1138.40 0.04077
1138.50 0.04076
1138.60 0.04075
1138.70 0.04073
1138.80 0.04072
1138.90 0.0407
1139.00 0.04069
1139.10 0.04068
1139.20 0.04066
1139.30 0.04065
1139.40 0.04063
1139.50 0.04062
1139.60 0.04061
1139.70 0.04059
1139.80 0.04058
1139.90 0.04056
1140.00 0.04055
1140.10 0.04054
1140.20 0.04052
1140.30 0.04051
1140.40 0.04049
1140.50 0.04048
1140.60 0.04047
1140.70 0.04045
1140.80 0.04044
1140.90 0.04043
1141.00 0.04041
1141.10 0.0404
1141.20 0.04038
1141.30 0.04037
1141.40 0.04036
1141.50 0.04034
1141.60 0.04033
1141.70 0.04031
1141.80 0.0403
1141.90 0.04029
1142.00 0.04027
1142.10 0.04026
1142.20 0.04025
1142.30 0.04023
1142.40 0.04022
1142.50 0.0402
1142.60 0.04019
1142.70 0.04018
1142.80 0.04016
1142.90 0.04015
1143.00 0.04014
1143.10 0.04012
1143.20 0.04011
1143.30 0.04009
1143.40 0.04008
1143.50 0.04007
1143.60 0.04005
1143.70 0.04004
1143.80 0.04003
1143.90 0.04001
1144.00 0.04
1144.10 0.03998
1144.20 0.03997
1144.30 0.03996
1144.40 0.03994
1144.50 0.03993
1144.60 0.03992
1144.70 0.0399
1144.80 0.03989
1144.90 0.03988
1145.00 0.03986
1145.10 0.03985
1145.20 0.03983
1145.30 0.03982
1145.40 0.03981
1145.50 0.03979
1145.60 0.03978
1145.70 0.03977
1145.80 0.03975
1145.90 0.03974
1146.00 0.03973
1146.10 0.03971
1146.20 0.0397
1146.30 0.03968
1146.40 0.03967
1146.50 0.03966
1146.60 0.03964
1146.70 0.03963
1146.80 0.03962
1146.90 0.0396
1147.00 0.03959
1147.10 0.03958
1147.20 0.03956
1147.30 0.03955
1147.40 0.03954
1147.50 0.03952
1147.60 0.03951
1147.70 0.0395
1147.80 0.03948
1147.90 0.03947
1148.00 0.03946
1148.10 0.03944
1148.20 0.03943
1148.30 0.03942
1148.40 0.0394
1148.50 0.03939
1148.60 0.03938
1148.70 0.03936
1148.80 0.03935
1148.90 0.03933
1149.00 0.03932
1149.10 0.03931
1149.20 0.03929
1149.30 0.03928
1149.40 0.03927
1149.50 0.03925
1149.60 0.03924
1149.70 0.03923
1149.80 0.03921
1149.90 0.0392
1150.00 0.03919
1150.10 0.03917
1150.20 0.03916
1150.30 0.03915
1150.40 0.03913
1150.50 0.03912
1150.60 0.03911
1150.70 0.03909
1150.80 0.03908
1150.90 0.03907
1151.00 0.03905
1151.10 0.03904
1151.20 0.03903
1151.30 0.03901
1151.40 0.039
1151.50 0.03899
1151.60 0.03897
1151.70 0.03896
1151.80 0.03895
1151.90 0.03894
1152.00 0.03892
1152.10 0.03891
1152.20 0.0389
1152.30 0.03888
1152.40 0.03887
1152.50 0.03886
1152.60 0.03884
1152.70 0.03883
1152.80 0.03882
1152.90 0.0388
1153.00 0.03879
1153.10 0.03878
1153.20 0.03876
1153.30 0.03875
1153.40 0.03874
1153.50 0.03872
1153.60 0.03871
1153.70 0.0387
1153.80 0.03869
1153.90 0.03867
1154.00 0.03866
1154.10 0.03865
1154.20 0.03863
1154.30 0.03862
1154.40 0.03861
1154.50 0.03859
1154.60 0.03858
1154.70 0.03857
1154.80 0.03855
1154.90 0.03854
1155.00 0.03853
1155.10 0.03852
1155.20 0.0385
1155.30 0.03849
1155.40 0.03848
1155.50 0.03846
1155.60 0.03845
1155.70 0.03844
1155.80 0.03842
1155.90 0.03841
1156.00 0.0384
1156.10 0.03838
1156.20 0.03837
1156.30 0.03836
1156.40 0.03835
1156.50 0.03833
1156.60 0.03832
1156.70 0.03831
1156.80 0.03829
1156.90 0.03828
1157.00 0.03827
1157.10 0.03825
1157.20 0.03824
1157.30 0.03823
1157.40 0.03822
1157.50 0.0382
1157.60 0.03819
1157.70 0.03818
1157.80 0.03816
1157.90 0.03815
1158.00 0.03814
1158.10 0.03813
1158.20 0.03811
1158.30 0.0381
1158.40 0.03809
1158.50 0.03807
1158.60 0.03806
1158.70 0.03805
1158.80 0.03804
1158.90 0.03802
1159.00 0.03801
1159.10 0.038
1159.20 0.03798
1159.30 0.03797
1159.40 0.03796
1159.50 0.03795
1159.60 0.03793
1159.70 0.03792
1159.80 0.03791
1159.90 0.03789
1160.00 0.03788
1160.10 0.03787
1160.20 0.03786
1160.30 0.03784
1160.40 0.03783
1160.50 0.03782
1160.60 0.03781
1160.70 0.03779
1160.80 0.03778
1160.90 0.03777
1161.00 0.03775
1161.10 0.03774
1161.20 0.03773
1161.30 0.03772
1161.40 0.0377
1161.50 0.03769
1161.60 0.03768
1161.70 0.03767
1161.80 0.03765
1161.90 0.03764
1162.00 0.03763
1162.10 0.03761
1162.20 0.0376
1162.30 0.03759
1162.40 0.03758
1162.50 0.03756
1162.60 0.03755
1162.70 0.03754
1162.80 0.03753
1162.90 0.03751
1163.00 0.0375
1163.10 0.03749
1163.20 0.03748
1163.30 0.03746
1163.40 0.03745
1163.50 0.03744
1163.60 0.03743
1163.70 0.03741
1163.80 0.0374
1163.90 0.03739
1164.00 0.03738
1164.10 0.03736
1164.20 0.03735
1164.30 0.03734
1164.40 0.03732
1164.50 0.03731
1164.60 0.0373
1164.70 0.03729
1164.80 0.03727
1164.90 0.03726
1165.00 0.03725
1165.10 0.03724
1165.20 0.03722
1165.30 0.03721
1165.40 0.0372
1165.50 0.03719
1165.60 0.03717
1165.70 0.03716
1165.80 0.03715
1165.90 0.03714
1166.00 0.03712
1166.10 0.03711
1166.20 0.0371
1166.30 0.03709
1166.40 0.03707
1166.50 0.03706
1166.60 0.03705
1166.70 0.03704
1166.80 0.03702
1166.90 0.03701
1167.00 0.037
1167.10 0.03699
1167.20 0.03698
1167.30 0.03696
1167.40 0.03695
1167.50 0.03694
1167.60 0.03693
1167.70 0.03691
1167.80 0.0369
1167.90 0.03689
1168.00 0.03688
1168.10 0.03686
1168.20 0.03685
1168.30 0.03684
1168.40 0.03683
1168.50 0.03681
1168.60 0.0368
1168.70 0.03679
1168.80 0.03678
1168.90 0.03677
1169.00 0.03675
1169.10 0.03674
1169.20 0.03673
1169.30 0.03672
1169.40 0.0367
1169.50 0.03669
1169.60 0.03668
1169.70 0.03667
1169.80 0.03665
1169.90 0.03664
1170.00 0.03663
1170.10 0.03662
1170.20 0.03661
1170.30 0.03659
1170.40 0.03658
1170.50 0.03657
1170.60 0.03656
1170.70 0.03654
1170.80 0.03653
1170.90 0.03652
1171.00 0.03651
1171.10 0.0365
1171.20 0.03648
1171.30 0.03647
1171.40 0.03646
1171.50 0.03645
1171.60 0.03643
1171.70 0.03642
1171.80 0.03641
1171.90 0.0364
1172.00 0.03639
1172.10 0.03637
1172.20 0.03636
1172.30 0.03635
1172.40 0.03634
1172.50 0.03633
1172.60 0.03631
1172.70 0.0363
1172.80 0.03629
1172.90 0.03628
1173.00 0.03626
1173.10 0.03625
1173.20 0.03624
1173.30 0.03623
1173.40 0.03622
1173.50 0.0362
1173.60 0.03619
1173.70 0.03618
1173.80 0.03617
1173.90 0.03616
1174.00 0.03614
1174.10 0.03613
1174.20 0.03612
1174.30 0.03611
1174.40 0.0361
1174.50 0.03608
1174.60 0.03607
1174.70 0.03606
1174.80 0.03605
1174.90 0.03604
1175.00 0.03602
1175.10 0.03601
1175.20 0.036
1175.30 0.03599
1175.40 0.03598
1175.50 0.03596
1175.60 0.03595
1175.70 0.03594
1175.80 0.03593
1175.90 0.03592
1176.00 0.0359
1176.10 0.03589
1176.20 0.03588
1176.30 0.03587
1176.40 0.03586
1176.50 0.03584
1176.60 0.03583
1176.70 0.03582
1176.80 0.03581
1176.90 0.0358
1177.00 0.03578
1177.10 0.03577
1177.20 0.03576
1177.30 0.03575
1177.40 0.03574
1177.50 0.03572
1177.60 0.03571
1177.70 0.0357
1177.80 0.03569
1177.90 0.03568
1178.00 0.03567
1178.10 0.03565
1178.20 0.03564
1178.30 0.03563
1178.40 0.03562
1178.50 0.03561
1178.60 0.03559
1178.70 0.03558
1178.80 0.03557
1178.90 0.03556
1179.00 0.03555
1179.10 0.03554
1179.20 0.03552
1179.30 0.03551
1179.40 0.0355
1179.50 0.03549
1179.60 0.03548
1179.70 0.03547
1179.80 0.03545
1179.90 0.03544
1180.00 0.03543
1180.10 0.03542
1180.20 0.03541
1180.30 0.03539
1180.40 0.03538
1180.50 0.03537
1180.60 0.03536
1180.70 0.03535
1180.80 0.03534
1180.90 0.03532
1181.00 0.03531
1181.10 0.0353
1181.20 0.03529
1181.30 0.03528
1181.40 0.03527
1181.50 0.03525
1181.60 0.03524
1181.70 0.03523
1181.80 0.03522
1181.90 0.03521
1182.00 0.0352
1182.10 0.03518
1182.20 0.03517
1182.30 0.03516
1182.40 0.03515
1182.50 0.03514
1182.60 0.03513
1182.70 0.03511
1182.80 0.0351
1182.90 0.03509
1183.00 0.03508
1183.10 0.03507
1183.20 0.03506
1183.30 0.03504
1183.40 0.03503
1183.50 0.03502
1183.60 0.03501
1183.70 0.035
1183.80 0.03499
1183.90 0.03498
1184.00 0.03496
1184.10 0.03495
1184.20 0.03494
1184.30 0.03493
1184.40 0.03492
1184.50 0.03491
1184.60 0.03489
1184.70 0.03488
1184.80 0.03487
1184.90 0.03486
1185.00 0.03485
1185.10 0.03484
1185.20 0.03483
1185.30 0.03481
1185.40 0.0348
1185.50 0.03479
1185.60 0.03478
1185.70 0.03477
1185.80 0.03476
1185.90 0.03474
1186.00 0.03473
1186.10 0.03472
1186.20 0.03471
1186.30 0.0347
1186.40 0.03469
1186.50 0.03468
1186.60 0.03466
1186.70 0.03465
1186.80 0.03464
1186.90 0.03463
1187.00 0.03462
1187.10 0.03461
1187.20 0.0346
1187.30 0.03458
1187.40 0.03457
1187.50 0.03456
1187.60 0.03455
1187.70 0.03454
1187.80 0.03453
1187.90 0.03452
1188.00 0.0345
1188.10 0.03449
1188.20 0.03448
1188.30 0.03447
1188.40 0.03446
1188.50 0.03445
1188.60 0.03444
1188.70 0.03443
1188.80 0.03441
1188.90 0.0344
1189.00 0.03439
1189.10 0.03438
1189.20 0.03437
1189.30 0.03436
1189.40 0.03435
1189.50 0.03433
1189.60 0.03432
1189.70 0.03431
1189.80 0.0343
1189.90 0.03429
1190.00 0.03428
1190.10 0.03427
1190.20 0.03426
1190.30 0.03424
1190.40 0.03423
1190.50 0.03422
1190.60 0.03421
1190.70 0.0342
1190.80 0.03419
1190.90 0.03418
1191.00 0.03417
1191.10 0.03415
1191.20 0.03414
1191.30 0.03413
1191.40 0.03412
1191.50 0.03411
1191.60 0.0341
1191.70 0.03409
1191.80 0.03408
1191.90 0.03406
1192.00 0.03405
1192.10 0.03404
1192.20 0.03403
1192.30 0.03402
1192.40 0.03401
1192.50 0.034
1192.60 0.03399
1192.70 0.03398
1192.80 0.03396
1192.90 0.03395
1193.00 0.03394
1193.10 0.03393
1193.20 0.03392
1193.30 0.03391
1193.40 0.0339
1193.50 0.03389
1193.60 0.03388
1193.70 0.03386
1193.80 0.03385
1193.90 0.03384
1194.00 0.03383
1194.10 0.03382
1194.20 0.03381
1194.30 0.0338
1194.40 0.03379
1194.50 0.03378
1194.60 0.03376
1194.70 0.03375
1194.80 0.03374
1194.90 0.03373
1195.00 0.03372
1195.10 0.03371
1195.20 0.0337
1195.30 0.03369
1195.40 0.03368
1195.50 0.03366
1195.60 0.03365
1195.70 0.03364
1195.80 0.03363
1195.90 0.03362
1196.00 0.03361
1196.10 0.0336
1196.20 0.03359
1196.30 0.03358
1196.40 0.03357
1196.50 0.03355
1196.60 0.03354
1196.70 0.03353
1196.80 0.03352
1196.90 0.03351
1197.00 0.0335
1197.10 0.03349
1197.20 0.03348
1197.30 0.03347
1197.40 0.03346
1197.50 0.03344
1197.60 0.03343
1197.70 0.03342
1197.80 0.03341
1197.90 0.0334
1198.00 0.03339
1198.10 0.03338
1198.20 0.03337
1198.30 0.03336
1198.40 0.03335
1198.50 0.03334
1198.60 0.03333
1198.70 0.03331
1198.80 0.0333
1198.90 0.03329
1199.00 0.03328
1199.10 0.03327
1199.20 0.03326
1199.30 0.03325
1199.40 0.03324
1199.50 0.03323
1199.60 0.03322
1199.70 0.03321
1199.80 0.03319
1199.90 0.03318
1200.00 0
