# Version 2.1 - nm, norm@500 to 1, cut digits, bergeron_16000_75.dat_16000
# Wavelength(nm)  Flambda(ergs/cm^s/s/nm)
300.00 2.403
300.10 2.401
300.20 2.399
300.30 2.397
300.40 2.395
300.50 2.393
300.60 2.391
300.70 2.389
300.80 2.387
300.90 2.385
301.00 2.383
301.10 2.381
301.20 2.379
301.30 2.377
301.40 2.376
301.50 2.374
301.60 2.372
301.70 2.37
301.80 2.368
301.90 2.366
302.00 2.364
302.10 2.362
302.20 2.36
302.30 2.358
302.40 2.356
302.50 2.354
302.60 2.353
302.70 2.351
302.80 2.349
302.90 2.347
303.00 2.345
303.10 2.343
303.20 2.341
303.30 2.339
303.40 2.337
303.50 2.335
303.60 2.334
303.70 2.332
303.80 2.33
303.90 2.328
304.00 2.326
304.10 2.324
304.20 2.322
304.30 2.32
304.40 2.319
304.50 2.317
304.60 2.315
304.70 2.313
304.80 2.311
304.90 2.309
305.00 2.307
305.10 2.305
305.20 2.304
305.30 2.302
305.40 2.3
305.50 2.298
305.60 2.296
305.70 2.294
305.80 2.292
305.90 2.291
306.00 2.289
306.10 2.287
306.20 2.285
306.30 2.283
306.40 2.281
306.50 2.28
306.60 2.278
306.70 2.276
306.80 2.274
306.90 2.272
307.00 2.27
307.10 2.269
307.20 2.267
307.30 2.265
307.40 2.263
307.50 2.261
307.60 2.26
307.70 2.258
307.80 2.256
307.90 2.254
308.00 2.252
308.10 2.251
308.20 2.249
308.30 2.247
308.40 2.245
308.50 2.243
308.60 2.242
308.70 2.24
308.80 2.238
308.90 2.236
309.00 2.234
309.10 2.233
309.20 2.231
309.30 2.229
309.40 2.227
309.50 2.226
309.60 2.224
309.70 2.222
309.80 2.22
309.90 2.218
310.00 2.217
310.10 2.215
310.20 2.213
310.30 2.211
310.40 2.21
310.50 2.208
310.60 2.206
310.70 2.204
310.80 2.203
310.90 2.201
311.00 2.199
311.10 2.198
311.20 2.196
311.30 2.194
311.40 2.192
311.50 2.191
311.60 2.189
311.70 2.187
311.80 2.185
311.90 2.184
312.00 2.182
312.10 2.18
312.20 2.179
312.30 2.177
312.40 2.175
312.50 2.173
312.60 2.172
312.70 2.17
312.80 2.168
312.90 2.166
313.00 2.165
313.10 2.163
313.20 2.161
313.30 2.16
313.40 2.158
313.50 2.156
313.60 2.155
313.70 2.153
313.80 2.151
313.90 2.15
314.00 2.148
314.10 2.146
314.20 2.144
314.30 2.143
314.40 2.141
314.50 2.139
314.60 2.138
314.70 2.136
314.80 2.134
314.90 2.133
315.00 2.131
315.10 2.129
315.20 2.128
315.30 2.126
315.40 2.124
315.50 2.123
315.60 2.121
315.70 2.119
315.80 2.118
315.90 2.116
316.00 2.115
316.10 2.113
316.20 2.111
316.30 2.11
316.40 2.108
316.50 2.106
316.60 2.105
316.70 2.103
316.80 2.101
316.90 2.1
317.00 2.098
317.10 2.096
317.20 2.095
317.30 2.093
317.40 2.091
317.50 2.09
317.60 2.088
317.70 2.087
317.80 2.085
317.90 2.083
318.00 2.082
318.10 2.08
318.20 2.078
318.30 2.077
318.40 2.075
318.50 2.074
318.60 2.072
318.70 2.07
318.80 2.069
318.90 2.067
319.00 2.066
319.10 2.064
319.20 2.062
319.30 2.061
319.40 2.059
319.50 2.058
319.60 2.056
319.70 2.054
319.80 2.053
319.90 2.051
320.00 2.05
320.10 2.048
320.20 2.047
320.30 2.045
320.40 2.043
320.50 2.042
320.60 2.04
320.70 2.039
320.80 2.037
320.90 2.036
321.00 2.034
321.10 2.032
321.20 2.031
321.30 2.029
321.40 2.028
321.50 2.026
321.60 2.025
321.70 2.023
321.80 2.021
321.90 2.02
322.00 2.018
322.10 2.017
322.20 2.015
322.30 2.014
322.40 2.012
322.50 2.011
322.60 2.009
322.70 2.008
322.80 2.006
322.90 2.004
323.00 2.003
323.10 2.001
323.20 2
323.30 1.998
323.40 1.997
323.50 1.995
323.60 1.994
323.70 1.992
323.80 1.991
323.90 1.989
324.00 1.988
324.10 1.986
324.20 1.985
324.30 1.983
324.40 1.982
324.50 1.98
324.60 1.978
324.70 1.977
324.80 1.975
324.90 1.974
325.00 1.972
325.10 1.971
325.20 1.969
325.30 1.968
325.40 1.966
325.50 1.965
325.60 1.963
325.70 1.962
325.80 1.96
325.90 1.959
326.00 1.957
326.10 1.956
326.20 1.954
326.30 1.953
326.40 1.951
326.50 1.95
326.60 1.949
326.70 1.947
326.80 1.946
326.90 1.944
327.00 1.943
327.10 1.941
327.20 1.94
327.30 1.938
327.40 1.937
327.50 1.935
327.60 1.934
327.70 1.932
327.80 1.931
327.90 1.929
328.00 1.928
328.10 1.926
328.20 1.925
328.30 1.924
328.40 1.922
328.50 1.921
328.60 1.919
328.70 1.918
328.80 1.916
328.90 1.915
329.00 1.913
329.10 1.912
329.20 1.91
329.30 1.909
329.40 1.908
329.50 1.906
329.60 1.905
329.70 1.903
329.80 1.902
329.90 1.9
330.00 1.899
330.10 1.897
330.20 1.896
330.30 1.895
330.40 1.893
330.50 1.892
330.60 1.89
330.70 1.889
330.80 1.888
330.90 1.886
331.00 1.885
331.10 1.883
331.20 1.882
331.30 1.88
331.40 1.879
331.50 1.878
331.60 1.876
331.70 1.875
331.80 1.873
331.90 1.872
332.00 1.871
332.10 1.869
332.20 1.868
332.30 1.866
332.40 1.865
332.50 1.864
332.60 1.862
332.70 1.861
332.80 1.859
332.90 1.858
333.00 1.857
333.10 1.855
333.20 1.854
333.30 1.852
333.40 1.851
333.50 1.85
333.60 1.848
333.70 1.847
333.80 1.846
333.90 1.844
334.00 1.843
334.10 1.841
334.20 1.84
334.30 1.839
334.40 1.837
334.50 1.836
334.60 1.835
334.70 1.833
334.80 1.832
334.90 1.83
335.00 1.829
335.10 1.828
335.20 1.826
335.30 1.825
335.40 1.824
335.50 1.822
335.60 1.821
335.70 1.82
335.80 1.818
335.90 1.817
336.00 1.816
336.10 1.814
336.20 1.813
336.30 1.812
336.40 1.81
336.50 1.809
336.60 1.807
336.70 1.806
336.80 1.805
336.90 1.803
337.00 1.802
337.10 1.801
337.20 1.799
337.30 1.798
337.40 1.797
337.50 1.795
337.60 1.794
337.70 1.793
337.80 1.792
337.90 1.79
338.00 1.789
338.10 1.788
338.20 1.786
338.30 1.785
338.40 1.784
338.50 1.782
338.60 1.781
338.70 1.78
338.80 1.778
338.90 1.777
339.00 1.776
339.10 1.774
339.20 1.773
339.30 1.772
339.40 1.77
339.50 1.769
339.60 1.768
339.70 1.766
339.80 1.765
339.90 1.764
340.00 1.763
340.10 1.761
340.20 1.76
340.30 1.759
340.40 1.757
340.50 1.756
340.60 1.755
340.70 1.753
340.80 1.752
340.90 1.751
341.00 1.75
341.10 1.748
341.20 1.747
341.30 1.746
341.40 1.744
341.50 1.743
341.60 1.742
341.70 1.741
341.80 1.739
341.90 1.738
342.00 1.737
342.10 1.736
342.20 1.734
342.30 1.733
342.40 1.732
342.50 1.73
342.60 1.729
342.70 1.728
342.80 1.727
342.90 1.725
343.00 1.724
343.10 1.723
343.20 1.722
343.30 1.72
343.40 1.719
343.50 1.718
343.60 1.717
343.70 1.715
343.80 1.714
343.90 1.713
344.00 1.712
344.10 1.71
344.20 1.709
344.30 1.708
344.40 1.707
344.50 1.705
344.60 1.704
344.70 1.703
344.80 1.702
344.90 1.7
345.00 1.699
345.10 1.698
345.20 1.697
345.30 1.695
345.40 1.694
345.50 1.693
345.60 1.692
345.70 1.691
345.80 1.689
345.90 1.688
346.00 1.687
346.10 1.686
346.20 1.684
346.30 1.683
346.40 1.682
346.50 1.681
346.60 1.68
346.70 1.678
346.80 1.677
346.90 1.676
347.00 1.675
347.10 1.673
347.20 1.672
347.30 1.671
347.40 1.67
347.50 1.669
347.60 1.667
347.70 1.666
347.80 1.665
347.90 1.664
348.00 1.663
348.10 1.661
348.20 1.66
348.30 1.659
348.40 1.658
348.50 1.657
348.60 1.655
348.70 1.654
348.80 1.653
348.90 1.652
349.00 1.651
349.10 1.649
349.20 1.648
349.30 1.647
349.40 1.646
349.50 1.645
349.60 1.644
349.70 1.642
349.80 1.641
349.90 1.64
350.00 1.639
350.10 1.638
350.20 1.637
350.30 1.635
350.40 1.634
350.50 1.633
350.60 1.632
350.70 1.631
350.80 1.629
350.90 1.628
351.00 1.627
351.10 1.626
351.20 1.625
351.30 1.624
351.40 1.622
351.50 1.621
351.60 1.62
351.70 1.619
351.80 1.618
351.90 1.617
352.00 1.615
352.10 1.614
352.20 1.613
352.30 1.612
352.40 1.611
352.50 1.61
352.60 1.609
352.70 1.607
352.80 1.606
352.90 1.605
353.00 1.604
353.10 1.603
353.20 1.602
353.30 1.6
353.40 1.599
353.50 1.598
353.60 1.597
353.70 1.596
353.80 1.595
353.90 1.594
354.00 1.592
354.10 1.591
354.20 1.59
354.30 1.589
354.40 1.588
354.50 1.587
354.60 1.586
354.70 1.585
354.80 1.583
354.90 1.582
355.00 1.581
355.10 1.58
355.20 1.579
355.30 1.578
355.40 1.577
355.50 1.576
355.60 1.575
355.70 1.573
355.80 1.572
355.90 1.571
356.00 1.57
356.10 1.569
356.20 1.568
356.30 1.567
356.40 1.566
356.50 1.564
356.60 1.563
356.70 1.562
356.80 1.561
356.90 1.56
357.00 1.559
357.10 1.558
357.20 1.557
357.30 1.556
357.40 1.554
357.50 1.553
357.60 1.552
357.70 1.551
357.80 1.55
357.90 1.549
358.00 1.548
358.10 1.547
358.20 1.546
358.30 1.545
358.40 1.544
358.50 1.542
358.60 1.541
358.70 1.54
358.80 1.539
358.90 1.538
359.00 1.537
359.10 1.536
359.20 1.535
359.30 1.534
359.40 1.533
359.50 1.532
359.60 1.531
359.70 1.529
359.80 1.528
359.90 1.527
360.00 1.526
360.10 1.525
360.20 1.524
360.30 1.523
360.40 1.522
360.50 1.521
360.60 1.52
360.70 1.519
360.80 1.518
360.90 1.517
361.00 1.516
361.10 1.515
361.20 1.513
361.30 1.512
361.40 1.511
361.50 1.51
361.60 1.509
361.70 1.508
361.80 1.507
361.90 1.506
362.00 1.505
362.10 1.504
362.20 1.503
362.30 1.502
362.40 1.501
362.50 1.5
362.60 1.499
362.70 1.498
362.80 1.497
362.90 1.496
363.00 1.495
363.10 1.493
363.20 1.492
363.30 1.491
363.40 1.49
363.50 1.489
363.60 1.488
363.70 1.487
363.80 1.486
363.90 1.485
364.00 1.483
364.10 1.482
364.20 1.481
364.30 1.48
364.40 1.479
364.50 1.478
364.60 1.477
364.70 1.476
364.80 1.475
364.90 1.474
365.00 1.473
365.10 1.471
365.20 1.47
365.30 1.469
365.40 1.468
365.50 1.467
365.60 1.466
365.70 1.465
365.80 1.464
365.90 1.463
366.00 1.462
366.10 1.461
366.20 1.46
366.30 1.459
366.40 1.458
366.50 1.457
366.60 1.455
366.70 1.454
366.80 1.453
366.90 1.452
367.00 1.451
367.10 1.45
367.20 1.449
367.30 1.448
367.40 1.447
367.50 1.446
367.60 1.445
367.70 1.444
367.80 1.443
367.90 1.442
368.00 1.441
368.10 1.441
368.20 1.44
368.30 1.439
368.40 1.439
368.50 1.438
368.60 1.437
368.70 1.436
368.80 1.436
368.90 1.435
369.00 1.434
369.10 1.434
369.20 1.433
369.30 1.432
369.40 1.432
369.50 1.431
369.60 1.43
369.70 1.43
369.80 1.429
369.90 1.428
370.00 1.428
370.10 1.428
370.20 1.428
370.30 1.428
370.40 1.429
370.50 1.429
370.60 1.429
370.70 1.429
370.80 1.43
370.90 1.43
371.00 1.43
371.10 1.43
371.20 1.431
371.30 1.431
371.40 1.431
371.50 1.431
371.60 1.431
371.70 1.432
371.80 1.432
371.90 1.432
372.00 1.432
372.10 1.434
372.20 1.435
372.30 1.437
372.40 1.438
372.50 1.44
372.60 1.442
372.70 1.443
372.80 1.445
372.90 1.446
373.00 1.448
373.10 1.449
373.20 1.451
373.30 1.452
373.40 1.454
373.50 1.455
373.60 1.457
373.70 1.458
373.80 1.459
373.90 1.461
374.00 1.462
374.10 1.465
374.20 1.467
374.30 1.469
374.40 1.471
374.50 1.473
374.60 1.475
374.70 1.477
374.80 1.479
374.90 1.481
375.00 1.483
375.10 1.486
375.20 1.488
375.30 1.49
375.40 1.492
375.50 1.494
375.60 1.496
375.70 1.498
375.80 1.5
375.90 1.502
376.00 1.504
376.10 1.505
376.20 1.506
376.30 1.507
376.40 1.508
376.50 1.51
376.60 1.511
376.70 1.512
376.80 1.513
376.90 1.514
377.00 1.515
377.10 1.513
377.20 1.511
377.30 1.509
377.40 1.507
377.50 1.505
377.60 1.504
377.70 1.502
377.80 1.5
377.90 1.498
378.00 1.496
378.10 1.485
378.20 1.475
378.30 1.464
378.40 1.454
378.50 1.443
378.60 1.433
378.70 1.422
378.80 1.412
378.90 1.401
379.00 1.391
379.10 1.383
379.20 1.375
379.30 1.368
379.40 1.36
379.50 1.353
379.60 1.345
379.70 1.338
379.80 1.33
379.90 1.323
380.00 1.315
380.10 1.327
380.20 1.338
380.30 1.35
380.40 1.362
380.50 1.373
380.60 1.385
380.70 1.396
380.80 1.408
380.90 1.419
381.00 1.431
381.10 1.435
381.20 1.44
381.30 1.444
381.40 1.448
381.50 1.452
381.60 1.451
381.70 1.449
381.80 1.444
381.90 1.438
382.00 1.43
382.10 1.42
382.20 1.408
382.30 1.386
382.40 1.364
382.50 1.342
382.60 1.32
382.70 1.298
382.80 1.276
382.90 1.254
383.00 1.232
383.10 1.21
383.20 1.188
383.30 1.171
383.40 1.151
383.50 1.13
383.60 1.134
383.70 1.156
383.80 1.175
383.90 1.192
384.00 1.213
384.10 1.238
384.20 1.265
384.30 1.293
384.40 1.32
384.50 1.346
384.60 1.37
384.70 1.391
384.80 1.41
384.90 1.427
385.00 1.441
385.10 1.454
385.20 1.465
385.30 1.474
385.40 1.482
385.50 1.488
385.60 1.494
385.70 1.497
385.80 1.5
385.90 1.501
386.00 1.501
386.10 1.5
386.20 1.498
386.30 1.494
386.40 1.489
386.50 1.484
386.60 1.476
386.70 1.468
386.80 1.459
386.90 1.448
387.00 1.436
387.10 1.424
387.20 1.409
387.30 1.393
387.40 1.376
387.50 1.356
387.60 1.335
387.70 1.313
387.80 1.287
387.90 1.259
388.00 1.229
388.10 1.195
388.20 1.16
388.30 1.124
388.40 1.087
388.50 1.053
388.60 1.022
388.70 0.9951
388.80 0.9694
388.90 0.9454
389.00 0.9668
389.10 0.9909
389.20 1.018
389.30 1.047
389.40 1.08
389.50 1.116
389.60 1.153
389.70 1.188
389.80 1.222
389.90 1.252
390.00 1.281
390.10 1.308
390.20 1.332
390.30 1.355
390.40 1.376
390.50 1.396
390.60 1.414
390.70 1.432
390.80 1.448
390.90 1.464
391.00 1.479
391.10 1.493
391.20 1.506
391.30 1.519
391.40 1.531
391.50 1.542
391.60 1.553
391.70 1.562
391.80 1.571
391.90 1.579
392.00 1.586
392.10 1.593
392.20 1.598
392.30 1.603
392.40 1.607
392.50 1.61
392.60 1.611
392.70 1.612
392.80 1.613
392.90 1.612
393.00 1.61
393.10 1.608
393.20 1.604
393.30 1.599
393.40 1.594
393.50 1.587
393.60 1.58
393.70 1.572
393.80 1.562
393.90 1.552
394.00 1.541
394.10 1.529
394.20 1.516
394.30 1.502
394.40 1.487
394.50 1.472
394.60 1.455
394.70 1.438
394.80 1.42
394.90 1.402
395.00 1.383
395.10 1.363
395.20 1.343
395.30 1.322
395.40 1.3
395.50 1.277
395.60 1.253
395.70 1.229
395.80 1.203
395.90 1.176
396.00 1.147
396.10 1.118
396.20 1.085
396.30 1.05
396.40 1.014
396.50 0.9746
396.60 0.9363
396.70 0.8989
396.80 0.8646
396.90 0.8257
397.00 0.782
397.10 0.8217
397.20 0.8583
397.30 0.8917
397.40 0.9279
397.50 0.9649
397.60 1.003
397.70 1.039
397.80 1.073
397.90 1.105
398.00 1.133
398.10 1.161
398.20 1.187
398.30 1.212
398.40 1.236
398.50 1.259
398.60 1.281
398.70 1.302
398.80 1.323
398.90 1.342
399.00 1.362
399.10 1.381
399.20 1.399
399.30 1.417
399.40 1.435
399.50 1.452
399.60 1.469
399.70 1.485
399.80 1.501
399.90 1.516
400.00 1.53
400.10 1.544
400.20 1.558
400.30 1.571
400.40 1.583
400.50 1.595
400.60 1.606
400.70 1.616
400.80 1.626
400.90 1.636
401.00 1.645
401.10 1.654
401.20 1.662
401.30 1.669
401.40 1.677
401.50 1.683
401.60 1.69
401.70 1.695
401.80 1.701
401.90 1.706
402.00 1.71
402.10 1.715
402.20 1.718
402.30 1.722
402.40 1.725
402.50 1.727
402.60 1.729
402.70 1.731
402.80 1.733
402.90 1.734
403.00 1.735
403.10 1.735
403.20 1.735
403.30 1.735
403.40 1.735
403.50 1.734
403.60 1.733
403.70 1.731
403.80 1.729
403.90 1.727
404.00 1.725
404.10 1.722
404.20 1.719
404.30 1.715
404.40 1.711
404.50 1.707
404.60 1.702
404.70 1.697
404.80 1.692
404.90 1.686
405.00 1.68
405.10 1.674
405.20 1.667
405.30 1.659
405.40 1.652
405.50 1.644
405.60 1.635
405.70 1.626
405.80 1.617
405.90 1.607
406.00 1.597
406.10 1.586
406.20 1.575
406.30 1.563
406.40 1.551
406.50 1.538
406.60 1.525
406.70 1.511
406.80 1.497
406.90 1.483
407.00 1.467
407.10 1.451
407.20 1.435
407.30 1.418
407.40 1.401
407.50 1.383
407.60 1.364
407.70 1.345
407.80 1.326
407.90 1.306
408.00 1.285
408.10 1.265
408.20 1.244
408.30 1.223
408.40 1.201
408.50 1.179
408.60 1.157
408.70 1.135
408.80 1.112
408.90 1.088
409.00 1.065
409.10 1.04
409.20 1.015
409.30 0.9891
409.40 0.9607
409.50 0.9307
409.60 0.899
409.70 0.8646
409.80 0.8298
409.90 0.7946
410.00 0.7544
410.10 0.7143
410.20 0.6744
410.30 0.7298
410.40 0.7754
410.50 0.8112
410.60 0.8455
410.70 0.8789
410.80 0.9115
410.90 0.9408
411.00 0.9685
411.10 0.9947
411.20 1.019
411.30 1.042
411.40 1.065
411.50 1.087
411.60 1.108
411.70 1.13
411.80 1.15
411.90 1.171
412.00 1.191
412.10 1.21
412.20 1.23
412.30 1.249
412.40 1.267
412.50 1.286
412.60 1.304
412.70 1.321
412.80 1.338
412.90 1.354
413.00 1.37
413.10 1.386
413.20 1.401
413.30 1.415
413.40 1.429
413.50 1.442
413.60 1.455
413.70 1.467
413.80 1.479
413.90 1.491
414.00 1.502
414.10 1.512
414.20 1.522
414.30 1.532
414.40 1.541
414.50 1.55
414.60 1.559
414.70 1.567
414.80 1.575
414.90 1.583
415.00 1.59
415.10 1.597
415.20 1.603
415.30 1.61
415.40 1.616
415.50 1.621
415.60 1.627
415.70 1.632
415.80 1.637
415.90 1.641
416.00 1.646
416.10 1.65
416.20 1.654
416.30 1.658
416.40 1.662
416.50 1.665
416.60 1.668
416.70 1.671
416.80 1.674
416.90 1.677
417.00 1.68
417.10 1.682
417.20 1.684
417.30 1.687
417.40 1.689
417.50 1.691
417.60 1.692
417.70 1.694
417.80 1.696
417.90 1.697
418.00 1.698
418.10 1.699
418.20 1.701
418.30 1.702
418.40 1.702
418.50 1.703
418.60 1.704
418.70 1.705
418.80 1.705
418.90 1.706
419.00 1.706
419.10 1.707
419.20 1.707
419.30 1.707
419.40 1.707
419.50 1.707
419.60 1.707
419.70 1.707
419.80 1.707
419.90 1.707
420.00 1.707
420.10 1.706
420.20 1.706
420.30 1.706
420.40 1.705
420.50 1.705
420.60 1.704
420.70 1.704
420.80 1.703
420.90 1.702
421.00 1.702
421.10 1.701
421.20 1.7
421.30 1.699
421.40 1.698
421.50 1.697
421.60 1.696
421.70 1.695
421.80 1.694
421.90 1.693
422.00 1.692
422.10 1.691
422.20 1.689
422.30 1.688
422.40 1.687
422.50 1.685
422.60 1.684
422.70 1.682
422.80 1.681
422.90 1.679
423.00 1.678
423.10 1.676
423.20 1.674
423.30 1.672
423.40 1.671
423.50 1.669
423.60 1.667
423.70 1.665
423.80 1.663
423.90 1.661
424.00 1.659
424.10 1.657
424.20 1.654
424.30 1.652
424.40 1.65
424.50 1.648
424.60 1.645
424.70 1.643
424.80 1.64
424.90 1.637
425.00 1.635
425.10 1.632
425.20 1.629
425.30 1.626
425.40 1.623
425.50 1.62
425.60 1.617
425.70 1.614
425.80 1.611
425.90 1.607
426.00 1.604
426.10 1.6
426.20 1.596
426.30 1.592
426.40 1.588
426.50 1.584
426.60 1.58
426.70 1.576
426.80 1.572
426.90 1.567
427.00 1.563
427.10 1.558
427.20 1.553
427.30 1.548
427.40 1.543
427.50 1.538
427.60 1.533
427.70 1.528
427.80 1.522
427.90 1.516
428.00 1.511
428.10 1.505
428.20 1.498
428.30 1.492
428.40 1.485
428.50 1.479
428.60 1.472
428.70 1.465
428.80 1.457
428.90 1.45
429.00 1.442
429.10 1.434
429.20 1.426
429.30 1.417
429.40 1.409
429.50 1.4
429.60 1.39
429.70 1.381
429.80 1.371
429.90 1.361
430.00 1.351
430.10 1.34
430.20 1.329
430.30 1.318
430.40 1.306
430.50 1.295
430.60 1.283
430.70 1.27
430.80 1.258
430.90 1.245
431.00 1.231
431.10 1.217
431.20 1.204
431.30 1.189
431.40 1.175
431.50 1.16
431.60 1.145
431.70 1.129
431.80 1.113
431.90 1.096
432.00 1.08
432.10 1.062
432.20 1.044
432.30 1.026
432.40 1.007
432.50 0.9873
432.60 0.9668
432.70 0.9459
432.80 0.9245
432.90 0.9033
433.00 0.8824
433.10 0.8622
433.20 0.8418
433.30 0.8211
433.40 0.7982
433.50 0.7739
433.60 0.748
433.70 0.7184
433.80 0.6857
433.90 0.65
434.00 0.5764
434.10 0.5773
434.20 0.6527
434.30 0.687
434.40 0.7185
434.50 0.7472
434.60 0.772
434.70 0.7953
434.80 0.8171
434.90 0.8367
435.00 0.856
435.10 0.8751
435.20 0.8949
435.30 0.9149
435.40 0.9349
435.50 0.9545
435.60 0.9735
435.70 0.9919
435.80 1.009
435.90 1.026
436.00 1.042
436.10 1.058
436.20 1.073
436.30 1.088
436.40 1.102
436.50 1.116
436.60 1.129
436.70 1.142
436.80 1.155
436.90 1.167
437.00 1.179
437.10 1.19
437.20 1.202
437.30 1.213
437.40 1.223
437.50 1.234
437.60 1.243
437.70 1.253
437.80 1.262
437.90 1.271
438.00 1.28
438.10 1.288
438.20 1.296
438.30 1.304
438.40 1.311
438.50 1.318
438.60 1.325
438.70 1.332
438.80 1.338
438.90 1.344
439.00 1.35
439.10 1.356
439.20 1.361
439.30 1.366
439.40 1.371
439.50 1.376
439.60 1.38
439.70 1.385
439.80 1.389
439.90 1.393
440.00 1.397
440.10 1.4
440.20 1.404
440.30 1.407
440.40 1.41
440.50 1.413
440.60 1.416
440.70 1.419
440.80 1.421
440.90 1.424
441.00 1.426
441.10 1.428
441.20 1.43
441.30 1.432
441.40 1.434
441.50 1.436
441.60 1.438
441.70 1.439
441.80 1.441
441.90 1.442
442.00 1.444
442.10 1.445
442.20 1.446
442.30 1.447
442.40 1.448
442.50 1.449
442.60 1.45
442.70 1.451
442.80 1.452
442.90 1.452
443.00 1.453
443.10 1.454
443.20 1.454
443.30 1.454
443.40 1.455
443.50 1.455
443.60 1.456
443.70 1.456
443.80 1.456
443.90 1.456
444.00 1.456
444.10 1.457
444.20 1.457
444.30 1.457
444.40 1.457
444.50 1.457
444.60 1.457
444.70 1.456
444.80 1.456
444.90 1.456
445.00 1.456
445.10 1.456
445.20 1.455
445.30 1.455
445.40 1.455
445.50 1.455
445.60 1.454
445.70 1.454
445.80 1.454
445.90 1.453
446.00 1.453
446.10 1.452
446.20 1.452
446.30 1.451
446.40 1.451
446.50 1.45
446.60 1.45
446.70 1.449
446.80 1.449
446.90 1.448
447.00 1.448
447.10 1.447
447.20 1.446
447.30 1.446
447.40 1.445
447.50 1.444
447.60 1.444
447.70 1.443
447.80 1.442
447.90 1.442
448.00 1.441
448.10 1.44
448.20 1.44
448.30 1.439
448.40 1.438
448.50 1.437
448.60 1.437
448.70 1.436
448.80 1.435
448.90 1.434
449.00 1.434
449.10 1.433
449.20 1.432
449.30 1.432
449.40 1.431
449.50 1.43
449.60 1.429
449.70 1.428
449.80 1.428
449.90 1.427
450.00 1.426
450.10 1.425
450.20 1.424
450.30 1.423
450.40 1.423
450.50 1.422
450.60 1.421
450.70 1.42
450.80 1.419
450.90 1.418
451.00 1.418
451.10 1.417
451.20 1.416
451.30 1.415
451.40 1.414
451.50 1.413
451.60 1.412
451.70 1.411
451.80 1.41
451.90 1.41
452.00 1.409
452.10 1.408
452.20 1.407
452.30 1.406
452.40 1.405
452.50 1.404
452.60 1.403
452.70 1.402
452.80 1.401
452.90 1.4
453.00 1.4
453.10 1.399
453.20 1.398
453.30 1.397
453.40 1.396
453.50 1.395
453.60 1.394
453.70 1.393
453.80 1.392
453.90 1.391
454.00 1.39
454.10 1.389
454.20 1.388
454.30 1.388
454.40 1.387
454.50 1.386
454.60 1.385
454.70 1.384
454.80 1.383
454.90 1.382
455.00 1.381
455.10 1.38
455.20 1.379
455.30 1.378
455.40 1.377
455.50 1.376
455.60 1.375
455.70 1.374
455.80 1.373
455.90 1.372
456.00 1.371
456.10 1.37
456.20 1.37
456.30 1.369
456.40 1.368
456.50 1.367
456.60 1.366
456.70 1.365
456.80 1.364
456.90 1.363
457.00 1.362
457.10 1.361
457.20 1.36
457.30 1.359
457.40 1.358
457.50 1.357
457.60 1.356
457.70 1.355
457.80 1.354
457.90 1.353
458.00 1.352
458.10 1.352
458.20 1.351
458.30 1.35
458.40 1.349
458.50 1.348
458.60 1.347
458.70 1.346
458.80 1.345
458.90 1.344
459.00 1.343
459.10 1.342
459.20 1.341
459.30 1.34
459.40 1.339
459.50 1.338
459.60 1.337
459.70 1.336
459.80 1.335
459.90 1.334
460.00 1.333
460.10 1.332
460.20 1.331
460.30 1.33
460.40 1.329
460.50 1.328
460.60 1.327
460.70 1.326
460.80 1.325
460.90 1.324
461.00 1.323
461.10 1.322
461.20 1.321
461.30 1.32
461.40 1.319
461.50 1.318
461.60 1.317
461.70 1.316
461.80 1.315
461.90 1.314
462.00 1.313
462.10 1.312
462.20 1.311
462.30 1.31
462.40 1.309
462.50 1.308
462.60 1.307
462.70 1.306
462.80 1.305
462.90 1.304
463.00 1.303
463.10 1.302
463.20 1.301
463.30 1.3
463.40 1.299
463.50 1.298
463.60 1.297
463.70 1.296
463.80 1.295
463.90 1.294
464.00 1.293
464.10 1.292
464.20 1.291
464.30 1.29
464.40 1.289
464.50 1.288
464.60 1.287
464.70 1.286
464.80 1.285
464.90 1.284
465.00 1.283
465.10 1.282
465.20 1.281
465.30 1.28
465.40 1.279
465.50 1.278
465.60 1.277
465.70 1.276
465.80 1.275
465.90 1.274
466.00 1.273
466.10 1.272
466.20 1.271
466.30 1.27
466.40 1.269
466.50 1.268
466.60 1.267
466.70 1.266
466.80 1.265
466.90 1.264
467.00 1.263
467.10 1.262
467.20 1.261
467.30 1.26
467.40 1.259
467.50 1.258
467.60 1.256
467.70 1.255
467.80 1.254
467.90 1.253
468.00 1.252
468.10 1.251
468.20 1.25
468.30 1.249
468.40 1.248
468.50 1.247
468.60 1.246
468.70 1.245
468.80 1.244
468.90 1.242
469.00 1.241
469.10 1.24
469.20 1.239
469.30 1.238
469.40 1.237
469.50 1.236
469.60 1.235
469.70 1.234
469.80 1.232
469.90 1.231
470.00 1.23
470.10 1.229
470.20 1.228
470.30 1.227
470.40 1.226
470.50 1.225
470.60 1.223
470.70 1.222
470.80 1.221
470.90 1.22
471.00 1.219
471.10 1.218
471.20 1.216
471.30 1.215
471.40 1.214
471.50 1.213
471.60 1.212
471.70 1.21
471.80 1.209
471.90 1.208
472.00 1.207
472.10 1.205
472.20 1.204
472.30 1.203
472.40 1.201
472.50 1.2
472.60 1.199
472.70 1.198
472.80 1.196
472.90 1.195
473.00 1.194
473.10 1.192
473.20 1.191
473.30 1.189
473.40 1.188
473.50 1.187
473.60 1.185
473.70 1.184
473.80 1.182
473.90 1.181
474.00 1.179
474.10 1.178
474.20 1.177
474.30 1.175
474.40 1.173
474.50 1.172
474.60 1.17
474.70 1.169
474.80 1.167
474.90 1.166
475.00 1.164
475.10 1.162
475.20 1.161
475.30 1.159
475.40 1.157
475.50 1.155
475.60 1.154
475.70 1.152
475.80 1.15
475.90 1.148
476.00 1.147
476.10 1.145
476.20 1.143
476.30 1.141
476.40 1.139
476.50 1.137
476.60 1.135
476.70 1.133
476.80 1.131
476.90 1.129
477.00 1.127
477.10 1.125
477.20 1.122
477.30 1.12
477.40 1.117
477.50 1.115
477.60 1.113
477.70 1.11
477.80 1.108
477.90 1.105
478.00 1.103
478.10 1.1
478.20 1.098
478.30 1.095
478.40 1.092
478.50 1.089
478.60 1.086
478.70 1.083
478.80 1.08
478.90 1.077
479.00 1.074
479.10 1.071
479.20 1.068
479.30 1.064
479.40 1.06
479.50 1.057
479.60 1.053
479.70 1.05
479.80 1.046
479.90 1.042
480.00 1.039
480.10 1.035
480.20 1.031
480.30 1.026
480.40 1.021
480.50 1.017
480.60 1.012
480.70 1.007
480.80 1.003
480.90 0.9983
481.00 0.9937
481.10 0.9891
481.20 0.9836
481.30 0.9776
481.40 0.9716
481.50 0.9657
481.60 0.9597
481.70 0.9538
481.80 0.9479
481.90 0.9419
482.00 0.936
482.10 0.9301
482.20 0.923
482.30 0.9154
482.40 0.9078
482.50 0.9002
482.60 0.8926
482.70 0.885
482.80 0.8774
482.90 0.8699
483.00 0.8623
483.10 0.8547
483.20 0.8458
483.30 0.8362
483.40 0.8266
483.50 0.817
483.60 0.8075
483.70 0.7979
483.80 0.7884
483.90 0.7788
484.00 0.7693
484.10 0.7598
484.20 0.7493
484.30 0.7383
484.40 0.7273
484.50 0.7163
484.60 0.7054
484.70 0.6939
484.80 0.682
484.90 0.6702
485.00 0.6584
485.10 0.6467
485.20 0.6346
485.30 0.6224
485.40 0.6096
485.50 0.5966
485.60 0.5823
485.70 0.5674
485.80 0.5488
485.90 0.5286
486.00 0.4999
486.10 0.4184
486.20 0.4579
486.30 0.5113
486.40 0.534
486.50 0.5539
486.60 0.57
486.70 0.5843
486.80 0.5973
486.90 0.6098
487.00 0.6215
487.10 0.633
487.20 0.6441
487.30 0.6551
487.40 0.6661
487.50 0.6771
487.60 0.688
487.70 0.6983
487.80 0.7083
487.90 0.7183
488.00 0.7283
488.10 0.7383
488.20 0.7472
488.30 0.7556
488.40 0.7641
488.50 0.7725
488.60 0.7808
488.70 0.7892
488.80 0.7976
488.90 0.806
489.00 0.8143
489.10 0.8227
489.20 0.8296
489.30 0.8358
489.40 0.8421
489.50 0.8483
489.60 0.8545
489.70 0.8607
489.80 0.8669
489.90 0.8731
490.00 0.8792
490.10 0.8854
490.20 0.8904
490.30 0.8948
490.40 0.8993
490.50 0.9037
490.60 0.9081
490.70 0.9125
490.80 0.9169
490.90 0.9213
491.00 0.9257
491.10 0.9301
491.20 0.9335
491.30 0.9366
491.40 0.9396
491.50 0.9426
491.60 0.9456
491.70 0.9485
491.80 0.9515
491.90 0.9545
492.00 0.9575
492.10 0.9605
492.20 0.9628
492.30 0.9648
492.40 0.9668
492.50 0.9687
492.60 0.9707
492.70 0.9727
492.80 0.9747
492.90 0.9767
493.00 0.9786
493.10 0.9806
493.20 0.9821
493.30 0.9834
493.40 0.9846
493.50 0.9859
493.60 0.9872
493.70 0.9885
493.80 0.9897
493.90 0.991
494.00 0.9923
494.10 0.9935
494.20 0.9944
494.30 0.9952
494.40 0.9959
494.50 0.9966
494.60 0.9973
494.70 0.9981
494.80 0.9988
494.90 0.9995
495.00 1
495.10 1.001
495.20 1.001
495.30 1.002
495.40 1.002
495.50 1.003
495.60 1.003
495.70 1.003
495.80 1.004
495.90 1.004
496.00 1.004
496.10 1.005
496.20 1.005
496.30 1.005
496.40 1.005
496.50 1.005
496.60 1.005
496.70 1.005
496.80 1.006
496.90 1.006
497.00 1.006
497.10 1.006
497.20 1.006
497.30 1.006
497.40 1.006
497.50 1.006
497.60 1.005
497.70 1.005
497.80 1.005
497.90 1.005
498.00 1.005
498.10 1.005
498.20 1.005
498.30 1.005
498.40 1.004
498.50 1.004
498.60 1.004
498.70 1.004
498.80 1.004
498.90 1.003
499.00 1.003
499.10 1.003
499.20 1.003
499.30 1.002
499.40 1.002
499.50 1.002
499.60 1.001
499.70 1.001
499.80 1.001
499.90 1
500.00 1
500.10 0.9997
500.20 0.9993
500.30 0.9989
500.40 0.9985
500.50 0.9981
500.60 0.9977
500.70 0.9974
500.80 0.997
500.90 0.9966
501.00 0.9962
501.10 0.9958
501.20 0.9954
501.30 0.9949
501.40 0.9945
501.50 0.994
501.60 0.9936
501.70 0.9932
501.80 0.9927
501.90 0.9923
502.00 0.9918
502.10 0.9914
502.20 0.9909
502.30 0.9904
502.40 0.99
502.50 0.9895
502.60 0.989
502.70 0.9885
502.80 0.988
502.90 0.9876
503.00 0.9871
503.10 0.9866
503.20 0.9861
503.30 0.9856
503.40 0.9851
503.50 0.9846
503.60 0.9841
503.70 0.9835
503.80 0.983
503.90 0.9825
504.00 0.982
504.10 0.9815
504.20 0.981
504.30 0.9804
504.40 0.9799
504.50 0.9794
504.60 0.9788
504.70 0.9783
504.80 0.9778
504.90 0.9772
505.00 0.9767
505.10 0.9762
505.20 0.9756
505.30 0.9751
505.40 0.9746
505.50 0.974
505.60 0.9735
505.70 0.9729
505.80 0.9724
505.90 0.9718
506.00 0.9713
506.10 0.9707
506.20 0.9702
506.30 0.9696
506.40 0.9691
506.50 0.9685
506.60 0.9679
506.70 0.9674
506.80 0.9668
506.90 0.9662
507.00 0.9657
507.10 0.9651
507.20 0.9646
507.30 0.964
507.40 0.9634
507.50 0.9628
507.60 0.9623
507.70 0.9617
507.80 0.9611
507.90 0.9606
508.00 0.96
508.10 0.9595
508.20 0.9589
508.30 0.9583
508.40 0.9577
508.50 0.9571
508.60 0.9566
508.70 0.956
508.80 0.9554
508.90 0.9548
509.00 0.9542
509.10 0.9537
509.20 0.9531
509.30 0.9525
509.40 0.9519
509.50 0.9514
509.60 0.9508
509.70 0.9502
509.80 0.9496
509.90 0.9491
510.00 0.9485
510.10 0.9479
510.20 0.9473
510.30 0.9468
510.40 0.9462
510.50 0.9456
510.60 0.945
510.70 0.9444
510.80 0.9438
510.90 0.9432
511.00 0.9427
511.10 0.9421
511.20 0.9415
511.30 0.9409
511.40 0.9403
511.50 0.9397
511.60 0.9392
511.70 0.9386
511.80 0.938
511.90 0.9374
512.00 0.9368
512.10 0.9363
512.20 0.9357
512.30 0.9351
512.40 0.9345
512.50 0.9339
512.60 0.9334
512.70 0.9328
512.80 0.9322
512.90 0.9316
513.00 0.9311
513.10 0.9305
513.20 0.9299
513.30 0.9293
513.40 0.9287
513.50 0.9281
513.60 0.9276
513.70 0.927
513.80 0.9264
513.90 0.9258
514.00 0.9252
514.10 0.9247
514.20 0.9241
514.30 0.9235
514.40 0.9229
514.50 0.9223
514.60 0.9217
514.70 0.9212
514.80 0.9206
514.90 0.92
515.00 0.9194
515.10 0.9188
515.20 0.9182
515.30 0.9177
515.40 0.9171
515.50 0.9165
515.60 0.9159
515.70 0.9154
515.80 0.9148
515.90 0.9142
516.00 0.9136
516.10 0.9131
516.20 0.9125
516.30 0.9119
516.40 0.9113
516.50 0.9108
516.60 0.9102
516.70 0.9096
516.80 0.909
516.90 0.9085
517.00 0.9079
517.10 0.9073
517.20 0.9067
517.30 0.9062
517.40 0.9056
517.50 0.905
517.60 0.9044
517.70 0.9039
517.80 0.9033
517.90 0.9027
518.00 0.9021
518.10 0.9016
518.20 0.901
518.30 0.9004
518.40 0.8999
518.50 0.8993
518.60 0.8987
518.70 0.8981
518.80 0.8976
518.90 0.897
519.00 0.8964
519.10 0.8959
519.20 0.8953
519.30 0.8947
519.40 0.8942
519.50 0.8936
519.60 0.893
519.70 0.8925
519.80 0.8919
519.90 0.8913
520.00 0.8908
520.10 0.8902
520.20 0.8896
520.30 0.8891
520.40 0.8885
520.50 0.8879
520.60 0.8874
520.70 0.8868
520.80 0.8862
520.90 0.8856
521.00 0.8851
521.10 0.8845
521.20 0.884
521.30 0.8834
521.40 0.8828
521.50 0.8823
521.60 0.8817
521.70 0.8812
521.80 0.8806
521.90 0.88
522.00 0.8795
522.10 0.8789
522.20 0.8784
522.30 0.8778
522.40 0.8773
522.50 0.8767
522.60 0.8761
522.70 0.8756
522.80 0.875
522.90 0.8745
523.00 0.8739
523.10 0.8734
523.20 0.8728
523.30 0.8723
523.40 0.8717
523.50 0.8711
523.60 0.8706
523.70 0.87
523.80 0.8695
523.90 0.8689
524.00 0.8683
524.10 0.8678
524.20 0.8672
524.30 0.8667
524.40 0.8661
524.50 0.8656
524.60 0.865
524.70 0.8645
524.80 0.8639
524.90 0.8634
525.00 0.8629
525.10 0.8623
525.20 0.8618
525.30 0.8612
525.40 0.8607
525.50 0.8601
525.60 0.8596
525.70 0.859
525.80 0.8585
525.90 0.8579
526.00 0.8574
526.10 0.8569
526.20 0.8563
526.30 0.8558
526.40 0.8552
526.50 0.8547
526.60 0.8542
526.70 0.8536
526.80 0.8531
526.90 0.8525
527.00 0.852
527.10 0.8515
527.20 0.8509
527.30 0.8504
527.40 0.8498
527.50 0.8493
527.60 0.8487
527.70 0.8482
527.80 0.8476
527.90 0.8471
528.00 0.8466
528.10 0.846
528.20 0.8455
528.30 0.8449
528.40 0.8444
528.50 0.8439
528.60 0.8433
528.70 0.8428
528.80 0.8423
528.90 0.8417
529.00 0.8412
529.10 0.8407
529.20 0.8401
529.30 0.8396
529.40 0.8391
529.50 0.8385
529.60 0.838
529.70 0.8375
529.80 0.8369
529.90 0.8364
530.00 0.8359
530.10 0.8354
530.20 0.8348
530.30 0.8343
530.40 0.8338
530.50 0.8332
530.60 0.8327
530.70 0.8322
530.80 0.8317
530.90 0.8311
531.00 0.8306
531.10 0.8301
531.20 0.8296
531.30 0.829
531.40 0.8285
531.50 0.828
531.60 0.8275
531.70 0.8269
531.80 0.8264
531.90 0.8259
532.00 0.8254
532.10 0.8248
532.20 0.8243
532.30 0.8238
532.40 0.8233
532.50 0.8228
532.60 0.8222
532.70 0.8217
532.80 0.8212
532.90 0.8207
533.00 0.8202
533.10 0.8196
533.20 0.8191
533.30 0.8186
533.40 0.8181
533.50 0.8176
533.60 0.8171
533.70 0.8165
533.80 0.816
533.90 0.8155
534.00 0.815
534.10 0.8145
534.20 0.814
534.30 0.8134
534.40 0.8129
534.50 0.8124
534.60 0.8119
534.70 0.8114
534.80 0.8109
534.90 0.8104
535.00 0.8098
535.10 0.8093
535.20 0.8088
535.30 0.8083
535.40 0.8078
535.50 0.8073
535.60 0.8068
535.70 0.8063
535.80 0.8058
535.90 0.8053
536.00 0.8048
536.10 0.8043
536.20 0.8038
536.30 0.8033
536.40 0.8028
536.50 0.8023
536.60 0.8018
536.70 0.8012
536.80 0.8007
536.90 0.8002
537.00 0.7997
537.10 0.7992
537.20 0.7987
537.30 0.7982
537.40 0.7977
537.50 0.7972
537.60 0.7967
537.70 0.7962
537.80 0.7957
537.90 0.7952
538.00 0.7947
538.10 0.7942
538.20 0.7937
538.30 0.7932
538.40 0.7927
538.50 0.7922
538.60 0.7917
538.70 0.7912
538.80 0.7907
538.90 0.7902
539.00 0.7897
539.10 0.7892
539.20 0.7887
539.30 0.7883
539.40 0.7878
539.50 0.7873
539.60 0.7868
539.70 0.7863
539.80 0.7858
539.90 0.7853
540.00 0.7848
540.10 0.7843
540.20 0.7838
540.30 0.7833
540.40 0.7829
540.50 0.7824
540.60 0.7819
540.70 0.7814
540.80 0.7809
540.90 0.7804
541.00 0.7799
541.10 0.7794
541.20 0.779
541.30 0.7785
541.40 0.778
541.50 0.7775
541.60 0.777
541.70 0.7765
541.80 0.776
541.90 0.7756
542.00 0.7751
542.10 0.7746
542.20 0.7741
542.30 0.7736
542.40 0.7731
542.50 0.7727
542.60 0.7722
542.70 0.7717
542.80 0.7712
542.90 0.7707
543.00 0.7703
543.10 0.7698
543.20 0.7693
543.30 0.7688
543.40 0.7683
543.50 0.7679
543.60 0.7674
543.70 0.7669
543.80 0.7664
543.90 0.7659
544.00 0.7655
544.10 0.765
544.20 0.7645
544.30 0.764
544.40 0.7636
544.50 0.7631
544.60 0.7626
544.70 0.7621
544.80 0.7616
544.90 0.7612
545.00 0.7607
545.10 0.7602
545.20 0.7598
545.30 0.7593
545.40 0.7588
545.50 0.7584
545.60 0.7579
545.70 0.7574
545.80 0.757
545.90 0.7565
546.00 0.756
546.10 0.7556
546.20 0.7551
546.30 0.7547
546.40 0.7542
546.50 0.7538
546.60 0.7533
546.70 0.7529
546.80 0.7524
546.90 0.752
547.00 0.7516
547.10 0.7511
547.20 0.7506
547.30 0.7502
547.40 0.7497
547.50 0.7492
547.60 0.7488
547.70 0.7483
547.80 0.7478
547.90 0.7474
548.00 0.7469
548.10 0.7464
548.20 0.746
548.30 0.7455
548.40 0.745
548.50 0.7446
548.60 0.7441
548.70 0.7437
548.80 0.7432
548.90 0.7427
549.00 0.7423
549.10 0.7418
549.20 0.7413
549.30 0.7409
549.40 0.7404
549.50 0.74
549.60 0.7395
549.70 0.7391
549.80 0.7386
549.90 0.7382
550.00 0.7377
550.10 0.7372
550.20 0.7368
550.30 0.7363
550.40 0.7359
550.50 0.7354
550.60 0.735
550.70 0.7345
550.80 0.7341
550.90 0.7336
551.00 0.7332
551.10 0.7327
551.20 0.7323
551.30 0.7318
551.40 0.7314
551.50 0.7309
551.60 0.7305
551.70 0.73
551.80 0.7296
551.90 0.7291
552.00 0.7287
552.10 0.7282
552.20 0.7278
552.30 0.7273
552.40 0.7269
552.50 0.7264
552.60 0.726
552.70 0.7255
552.80 0.7251
552.90 0.7246
553.00 0.7242
553.10 0.7237
553.20 0.7233
553.30 0.7228
553.40 0.7224
553.50 0.7219
553.60 0.7215
553.70 0.7211
553.80 0.7206
553.90 0.7202
554.00 0.7198
554.10 0.7193
554.20 0.7189
554.30 0.7184
554.40 0.718
554.50 0.7176
554.60 0.7171
554.70 0.7167
554.80 0.7162
554.90 0.7158
555.00 0.7153
555.10 0.7149
555.20 0.7145
555.30 0.714
555.40 0.7136
555.50 0.7132
555.60 0.7127
555.70 0.7123
555.80 0.7118
555.90 0.7114
556.00 0.711
556.10 0.7105
556.20 0.7101
556.30 0.7096
556.40 0.7092
556.50 0.7088
556.60 0.7083
556.70 0.7079
556.80 0.7075
556.90 0.707
557.00 0.7066
557.10 0.7062
557.20 0.7057
557.30 0.7053
557.40 0.7049
557.50 0.7045
557.60 0.704
557.70 0.7036
557.80 0.7032
557.90 0.7027
558.00 0.7023
558.10 0.7019
558.20 0.7015
558.30 0.701
558.40 0.7006
558.50 0.7002
558.60 0.6997
558.70 0.6993
558.80 0.6989
558.90 0.6984
559.00 0.698
559.10 0.6976
559.20 0.6972
559.30 0.6967
559.40 0.6963
559.50 0.6959
559.60 0.6955
559.70 0.6951
559.80 0.6946
559.90 0.6942
560.00 0.6938
560.10 0.6934
560.20 0.6929
560.30 0.6925
560.40 0.6921
560.50 0.6917
560.60 0.6913
560.70 0.6909
560.80 0.6904
560.90 0.69
561.00 0.6896
561.10 0.6892
561.20 0.6888
561.30 0.6883
561.40 0.6879
561.50 0.6875
561.60 0.6871
561.70 0.6867
561.80 0.6863
561.90 0.6858
562.00 0.6854
562.10 0.685
562.20 0.6846
562.30 0.6842
562.40 0.6838
562.50 0.6833
562.60 0.6829
562.70 0.6825
562.80 0.6821
562.90 0.6817
563.00 0.6813
563.10 0.6809
563.20 0.6805
563.30 0.68
563.40 0.6796
563.50 0.6792
563.60 0.6788
563.70 0.6784
563.80 0.678
563.90 0.6776
564.00 0.6772
564.10 0.6768
564.20 0.6763
564.30 0.6759
564.40 0.6755
564.50 0.6751
564.60 0.6747
564.70 0.6743
564.80 0.6739
564.90 0.6735
565.00 0.6731
565.10 0.6727
565.20 0.6723
565.30 0.6718
565.40 0.6714
565.50 0.671
565.60 0.6706
565.70 0.6702
565.80 0.6698
565.90 0.6694
566.00 0.669
566.10 0.6686
566.20 0.6682
566.30 0.6678
566.40 0.6674
566.50 0.667
566.60 0.6666
566.70 0.6662
566.80 0.6658
566.90 0.6654
567.00 0.665
567.10 0.6646
567.20 0.6642
567.30 0.6638
567.40 0.6634
567.50 0.663
567.60 0.6626
567.70 0.6622
567.80 0.6618
567.90 0.6614
568.00 0.661
568.10 0.6606
568.20 0.6602
568.30 0.6598
568.40 0.6594
568.50 0.659
568.60 0.6586
568.70 0.6582
568.80 0.6578
568.90 0.6574
569.00 0.6571
569.10 0.6567
569.20 0.6563
569.30 0.6559
569.40 0.6555
569.50 0.6551
569.60 0.6547
569.70 0.6543
569.80 0.6539
569.90 0.6535
570.00 0.6531
570.10 0.6527
570.20 0.6524
570.30 0.652
570.40 0.6516
570.50 0.6512
570.60 0.6508
570.70 0.6504
570.80 0.65
570.90 0.6496
571.00 0.6492
571.10 0.6489
571.20 0.6485
571.30 0.6481
571.40 0.6477
571.50 0.6473
571.60 0.6469
571.70 0.6465
571.80 0.6462
571.90 0.6458
572.00 0.6454
572.10 0.645
572.20 0.6446
572.30 0.6442
572.40 0.6438
572.50 0.6435
572.60 0.6431
572.70 0.6427
572.80 0.6423
572.90 0.6419
573.00 0.6415
573.10 0.6412
573.20 0.6408
573.30 0.6404
573.40 0.64
573.50 0.6396
573.60 0.6392
573.70 0.6389
573.80 0.6385
573.90 0.6381
574.00 0.6377
574.10 0.6373
574.20 0.637
574.30 0.6366
574.40 0.6362
574.50 0.6358
574.60 0.6354
574.70 0.6351
574.80 0.6347
574.90 0.6343
575.00 0.6339
575.10 0.6335
575.20 0.6332
575.30 0.6328
575.40 0.6324
575.50 0.632
575.60 0.6317
575.70 0.6313
575.80 0.6309
575.90 0.6305
576.00 0.6301
576.10 0.6298
576.20 0.6294
576.30 0.629
576.40 0.6287
576.50 0.6283
576.60 0.6279
576.70 0.6275
576.80 0.6272
576.90 0.6268
577.00 0.6264
577.10 0.6261
577.20 0.6257
577.30 0.6253
577.40 0.625
577.50 0.6246
577.60 0.6242
577.70 0.6239
577.80 0.6235
577.90 0.6231
578.00 0.6228
578.10 0.6224
578.20 0.622
578.30 0.6217
578.40 0.6213
578.50 0.6209
578.60 0.6205
578.70 0.6202
578.80 0.6198
578.90 0.6194
579.00 0.6191
579.10 0.6187
579.20 0.6183
579.30 0.618
579.40 0.6176
579.50 0.6172
579.60 0.6169
579.70 0.6165
579.80 0.6162
579.90 0.6158
580.00 0.6154
580.10 0.6151
580.20 0.6147
580.30 0.6143
580.40 0.614
580.50 0.6136
580.60 0.6133
580.70 0.6129
580.80 0.6125
580.90 0.6122
581.00 0.6118
581.10 0.6115
581.20 0.6111
581.30 0.6107
581.40 0.6104
581.50 0.61
581.60 0.6097
581.70 0.6093
581.80 0.6089
581.90 0.6086
582.00 0.6082
582.10 0.6079
582.20 0.6075
582.30 0.6072
582.40 0.6068
582.50 0.6064
582.60 0.6061
582.70 0.6057
582.80 0.6054
582.90 0.605
583.00 0.6047
583.10 0.6043
583.20 0.604
583.30 0.6036
583.40 0.6032
583.50 0.6029
583.60 0.6025
583.70 0.6022
583.80 0.6018
583.90 0.6015
584.00 0.6011
584.10 0.6008
584.20 0.6004
584.30 0.6001
584.40 0.5997
584.50 0.5994
584.60 0.599
584.70 0.5986
584.80 0.5983
584.90 0.5979
585.00 0.5976
585.10 0.5972
585.20 0.5969
585.30 0.5965
585.40 0.5962
585.50 0.5959
585.60 0.5955
585.70 0.5952
585.80 0.5948
585.90 0.5945
586.00 0.5941
586.10 0.5938
586.20 0.5934
586.30 0.5931
586.40 0.5927
586.50 0.5924
586.60 0.5921
586.70 0.5917
586.80 0.5914
586.90 0.591
587.00 0.5907
587.10 0.5903
587.20 0.59
587.30 0.5896
587.40 0.5893
587.50 0.5889
587.60 0.5886
587.70 0.5882
587.80 0.5879
587.90 0.5875
588.00 0.5872
588.10 0.5869
588.20 0.5865
588.30 0.5862
588.40 0.5858
588.50 0.5855
588.60 0.5852
588.70 0.5848
588.80 0.5845
588.90 0.5841
589.00 0.5838
589.10 0.5835
589.20 0.5831
589.30 0.5828
589.40 0.5825
589.50 0.5821
589.60 0.5818
589.70 0.5814
589.80 0.5811
589.90 0.5808
590.00 0.5804
590.10 0.5801
590.20 0.5798
590.30 0.5794
590.40 0.5791
590.50 0.5788
590.60 0.5784
590.70 0.5781
590.80 0.5778
590.90 0.5774
591.00 0.5771
591.10 0.5767
591.20 0.5764
591.30 0.5761
591.40 0.5757
591.50 0.5754
591.60 0.5751
591.70 0.5747
591.80 0.5744
591.90 0.5741
592.00 0.5738
592.10 0.5734
592.20 0.5731
592.30 0.5727
592.40 0.5724
592.50 0.5721
592.60 0.5717
592.70 0.5714
592.80 0.5711
592.90 0.5707
593.00 0.5704
593.10 0.5701
593.20 0.5697
593.30 0.5694
593.40 0.5691
593.50 0.5688
593.60 0.5684
593.70 0.5681
593.80 0.5678
593.90 0.5675
594.00 0.5671
594.10 0.5668
594.20 0.5665
594.30 0.5662
594.40 0.5658
594.50 0.5655
594.60 0.5652
594.70 0.5649
594.80 0.5645
594.90 0.5642
595.00 0.5639
595.10 0.5636
595.20 0.5632
595.30 0.5629
595.40 0.5626
595.50 0.5622
595.60 0.5619
595.70 0.5616
595.80 0.5613
595.90 0.5609
596.00 0.5606
596.10 0.5603
596.20 0.5599
596.30 0.5596
596.40 0.5592
596.50 0.5588
596.60 0.5585
596.70 0.5581
596.80 0.5577
596.90 0.5574
597.00 0.557
597.10 0.5566
597.20 0.5563
597.30 0.556
597.40 0.5557
597.50 0.5553
597.60 0.555
597.70 0.5547
597.80 0.5544
597.90 0.5541
598.00 0.5537
598.10 0.5534
598.20 0.5531
598.30 0.5528
598.40 0.5525
598.50 0.5522
598.60 0.5518
598.70 0.5515
598.80 0.5512
598.90 0.5509
599.00 0.5506
599.10 0.5503
599.20 0.55
599.30 0.5496
599.40 0.5493
599.50 0.549
599.60 0.5487
599.70 0.5484
599.80 0.5481
599.90 0.5477
600.00 0.5474
600.10 0.5471
600.20 0.5468
600.30 0.5465
600.40 0.5462
600.50 0.5458
600.60 0.5455
600.70 0.5452
600.80 0.5449
600.90 0.5446
601.00 0.5443
601.10 0.5439
601.20 0.5436
601.30 0.5433
601.40 0.543
601.50 0.5427
601.60 0.5424
601.70 0.5421
601.80 0.5418
601.90 0.5415
602.00 0.5412
602.10 0.5408
602.20 0.5405
602.30 0.5402
602.40 0.5399
602.50 0.5396
602.60 0.5393
602.70 0.539
602.80 0.5387
602.90 0.5384
603.00 0.538
603.10 0.5377
603.20 0.5374
603.30 0.5371
603.40 0.5368
603.50 0.5365
603.60 0.5362
603.70 0.5359
603.80 0.5356
603.90 0.5353
604.00 0.535
604.10 0.5347
604.20 0.5344
604.30 0.5341
604.40 0.5338
604.50 0.5335
604.60 0.5332
604.70 0.5329
604.80 0.5325
604.90 0.5322
605.00 0.5319
605.10 0.5316
605.20 0.5313
605.30 0.531
605.40 0.5307
605.50 0.5304
605.60 0.5301
605.70 0.5298
605.80 0.5295
605.90 0.5292
606.00 0.5289
606.10 0.5286
606.20 0.5283
606.30 0.528
606.40 0.5277
606.50 0.5274
606.60 0.5271
606.70 0.5268
606.80 0.5265
606.90 0.5262
607.00 0.5259
607.10 0.5256
607.20 0.5253
607.30 0.525
607.40 0.5247
607.50 0.5244
607.60 0.5241
607.70 0.5238
607.80 0.5235
607.90 0.5232
608.00 0.5229
608.10 0.5226
608.20 0.5223
608.30 0.522
608.40 0.5217
608.50 0.5214
608.60 0.5211
608.70 0.5208
608.80 0.5205
608.90 0.5202
609.00 0.5199
609.10 0.5196
609.20 0.5193
609.30 0.519
609.40 0.5187
609.50 0.5184
609.60 0.5181
609.70 0.5178
609.80 0.5176
609.90 0.5173
610.00 0.517
610.10 0.5167
610.20 0.5164
610.30 0.5161
610.40 0.5158
610.50 0.5155
610.60 0.5152
610.70 0.5149
610.80 0.5146
610.90 0.5143
611.00 0.514
611.10 0.5137
611.20 0.5134
611.30 0.5131
611.40 0.5129
611.50 0.5126
611.60 0.5123
611.70 0.512
611.80 0.5117
611.90 0.5114
612.00 0.5111
612.10 0.5108
612.20 0.5105
612.30 0.5102
612.40 0.5099
612.50 0.5097
612.60 0.5094
612.70 0.5091
612.80 0.5088
612.90 0.5085
613.00 0.5082
613.10 0.5079
613.20 0.5076
613.30 0.5073
613.40 0.5071
613.50 0.5068
613.60 0.5065
613.70 0.5062
613.80 0.5059
613.90 0.5056
614.00 0.5053
614.10 0.505
614.20 0.5047
614.30 0.5045
614.40 0.5042
614.50 0.5039
614.60 0.5036
614.70 0.5033
614.80 0.503
614.90 0.5027
615.00 0.5025
615.10 0.5022
615.20 0.5019
615.30 0.5016
615.40 0.5013
615.50 0.501
615.60 0.5007
615.70 0.5005
615.80 0.5002
615.90 0.4999
616.00 0.4996
616.10 0.4993
616.20 0.499
616.30 0.4988
616.40 0.4985
616.50 0.4982
616.60 0.4979
616.70 0.4976
616.80 0.4973
616.90 0.4971
617.00 0.4968
617.10 0.4965
617.20 0.4962
617.30 0.4959
617.40 0.4956
617.50 0.4954
617.60 0.4951
617.70 0.4948
617.80 0.4945
617.90 0.4942
618.00 0.494
618.10 0.4937
618.20 0.4934
618.30 0.4931
618.40 0.4928
618.50 0.4926
618.60 0.4923
618.70 0.492
618.80 0.4917
618.90 0.4914
619.00 0.4912
619.10 0.4909
619.20 0.4906
619.30 0.4903
619.40 0.49
619.50 0.4898
619.60 0.4895
619.70 0.4892
619.80 0.4889
619.90 0.4886
620.00 0.4884
620.10 0.4881
620.20 0.4878
620.30 0.4875
620.40 0.4873
620.50 0.487
620.60 0.4867
620.70 0.4864
620.80 0.4861
620.90 0.4859
621.00 0.4856
621.10 0.4853
621.20 0.485
621.30 0.4848
621.40 0.4845
621.50 0.4842
621.60 0.4839
621.70 0.4837
621.80 0.4834
621.90 0.4831
622.00 0.4828
622.10 0.4826
622.20 0.4823
622.30 0.482
622.40 0.4817
622.50 0.4814
622.60 0.4812
622.70 0.4809
622.80 0.4806
622.90 0.4803
623.00 0.4801
623.10 0.4798
623.20 0.4795
623.30 0.4793
623.40 0.479
623.50 0.4787
623.60 0.4784
623.70 0.4782
623.80 0.4779
623.90 0.4776
624.00 0.4773
624.10 0.4771
624.20 0.4768
624.30 0.4765
624.40 0.4762
624.50 0.476
624.60 0.4757
624.70 0.4754
624.80 0.4752
624.90 0.4749
625.00 0.4746
625.10 0.4743
625.20 0.4741
625.30 0.4738
625.40 0.4735
625.50 0.4732
625.60 0.473
625.70 0.4727
625.80 0.4724
625.90 0.4722
626.00 0.4719
626.10 0.4716
626.20 0.4713
626.30 0.4711
626.40 0.4708
626.50 0.4705
626.60 0.4703
626.70 0.47
626.80 0.4697
626.90 0.4694
627.00 0.4692
627.10 0.4689
627.20 0.4686
627.30 0.4684
627.40 0.4681
627.50 0.4678
627.60 0.4675
627.70 0.4673
627.80 0.467
627.90 0.4667
628.00 0.4665
628.10 0.4662
628.20 0.4659
628.30 0.4657
628.40 0.4654
628.50 0.4651
628.60 0.4648
628.70 0.4646
628.80 0.4643
628.90 0.464
629.00 0.4638
629.10 0.4635
629.20 0.4632
629.30 0.463
629.40 0.4627
629.50 0.4624
629.60 0.4621
629.70 0.4619
629.80 0.4616
629.90 0.4613
630.00 0.4611
630.10 0.4608
630.20 0.4605
630.30 0.4603
630.40 0.46
630.50 0.4597
630.60 0.4594
630.70 0.4592
630.80 0.4589
630.90 0.4586
631.00 0.4584
631.10 0.4581
631.20 0.4578
631.30 0.4575
631.40 0.4573
631.50 0.457
631.60 0.4567
631.70 0.4565
631.80 0.4562
631.90 0.4559
632.00 0.4557
632.10 0.4554
632.20 0.4551
632.30 0.4548
632.40 0.4546
632.50 0.4543
632.60 0.454
632.70 0.4537
632.80 0.4535
632.90 0.4532
633.00 0.4529
633.10 0.4527
633.20 0.4524
633.30 0.4521
633.40 0.4518
633.50 0.4516
633.60 0.4513
633.70 0.451
633.80 0.4507
633.90 0.4505
634.00 0.4502
634.10 0.4499
634.20 0.4496
634.30 0.4494
634.40 0.4491
634.50 0.4488
634.60 0.4485
634.70 0.4483
634.80 0.448
634.90 0.4477
635.00 0.4474
635.10 0.4472
635.20 0.4469
635.30 0.4466
635.40 0.4463
635.50 0.446
635.60 0.4458
635.70 0.4455
635.80 0.4452
635.90 0.4449
636.00 0.4446
636.10 0.4444
636.20 0.4441
636.30 0.4438
636.40 0.4435
636.50 0.4432
636.60 0.4429
636.70 0.4427
636.80 0.4424
636.90 0.4421
637.00 0.4418
637.10 0.4415
637.20 0.4412
637.30 0.4409
637.40 0.4407
637.50 0.4404
637.60 0.4401
637.70 0.4398
637.80 0.4395
637.90 0.4392
638.00 0.4389
638.10 0.4386
638.20 0.4383
638.30 0.438
638.40 0.4377
638.50 0.4374
638.60 0.4371
638.70 0.4368
638.80 0.4365
638.90 0.4362
639.00 0.4359
639.10 0.4356
639.20 0.4354
639.30 0.4351
639.40 0.4347
639.50 0.4344
639.60 0.4341
639.70 0.4338
639.80 0.4335
639.90 0.4332
640.00 0.4329
640.10 0.4326
640.20 0.4323
640.30 0.432
640.40 0.4316
640.50 0.4313
640.60 0.431
640.70 0.4307
640.80 0.4304
640.90 0.43
641.00 0.4297
641.10 0.4294
641.20 0.4291
641.30 0.4287
641.40 0.4284
641.50 0.4281
641.60 0.4277
641.70 0.4274
641.80 0.4271
641.90 0.4267
642.00 0.4264
642.10 0.426
642.20 0.4257
642.30 0.4254
642.40 0.425
642.50 0.4246
642.60 0.4243
642.70 0.4239
642.80 0.4236
642.90 0.4232
643.00 0.4228
643.10 0.4225
643.20 0.4221
643.30 0.4218
643.40 0.4214
643.50 0.421
643.60 0.4206
643.70 0.4202
643.80 0.4198
643.90 0.4194
644.00 0.419
644.10 0.4187
644.20 0.4183
644.30 0.4179
644.40 0.4174
644.50 0.417
644.60 0.4166
644.70 0.4162
644.80 0.4157
644.90 0.4153
645.00 0.4149
645.10 0.4145
645.20 0.414
645.30 0.4136
645.40 0.4131
645.50 0.4126
645.60 0.4122
645.70 0.4117
645.80 0.4112
645.90 0.4107
646.00 0.4102
646.10 0.4098
646.20 0.4093
646.30 0.4088
646.40 0.4083
646.50 0.4077
646.60 0.4072
646.70 0.4066
646.80 0.4061
646.90 0.4055
647.00 0.405
647.10 0.4044
647.20 0.4039
647.30 0.4033
647.40 0.4027
647.50 0.402
647.60 0.4014
647.70 0.4008
647.80 0.4001
647.90 0.3995
648.00 0.3989
648.10 0.3982
648.20 0.3976
648.30 0.3969
648.40 0.3961
648.50 0.3954
648.60 0.3946
648.70 0.3938
648.80 0.3931
648.90 0.3923
649.00 0.3915
649.10 0.3908
649.20 0.39
649.30 0.3892
649.40 0.3883
649.50 0.3873
649.60 0.3864
649.70 0.3854
649.80 0.3845
649.90 0.3836
650.00 0.3826
650.10 0.3817
650.20 0.3808
650.30 0.3798
650.40 0.3786
650.50 0.3774
650.60 0.3763
650.70 0.3751
650.80 0.3739
650.90 0.3727
651.00 0.3716
651.10 0.3704
651.20 0.3692
651.30 0.368
651.40 0.3665
651.50 0.365
651.60 0.3635
651.70 0.3621
651.80 0.3606
651.90 0.3591
652.00 0.3576
652.10 0.3561
652.20 0.3547
652.30 0.3531
652.40 0.3512
652.50 0.3494
652.60 0.3475
652.70 0.3456
652.80 0.3438
652.90 0.3419
653.00 0.34
653.10 0.3382
653.20 0.3363
653.30 0.3344
653.40 0.332
653.50 0.3297
653.60 0.3273
653.70 0.325
653.80 0.3227
653.90 0.3203
654.00 0.318
654.10 0.3157
654.20 0.3133
654.30 0.3109
654.40 0.3082
654.50 0.3055
654.60 0.3028
654.70 0.3001
654.80 0.2972
654.90 0.2941
655.00 0.291
655.10 0.2878
655.20 0.2847
655.30 0.2815
655.40 0.278
655.50 0.2744
655.60 0.2706
655.70 0.2665
655.80 0.2618
655.90 0.2567
656.00 0.2494
656.10 0.2414
656.20 0.215
656.30 0.1871
656.40 0.2308
656.50 0.2444
656.60 0.2515
656.70 0.258
656.80 0.2625
656.90 0.2668
657.00 0.2704
657.10 0.274
657.20 0.2772
657.30 0.2803
657.40 0.2832
657.50 0.286
657.60 0.2889
657.70 0.2917
657.80 0.2945
657.90 0.2969
658.00 0.2993
658.10 0.3017
658.20 0.3042
658.30 0.3065
658.40 0.3085
658.50 0.3105
658.60 0.3124
658.70 0.3144
658.80 0.3164
658.90 0.3184
659.00 0.3204
659.10 0.3224
659.20 0.3243
659.30 0.3262
659.40 0.3277
659.50 0.3292
659.60 0.3307
659.70 0.3321
659.80 0.3336
659.90 0.3351
660.00 0.3366
660.10 0.338
660.20 0.3395
660.30 0.3409
660.40 0.342
660.50 0.343
660.60 0.3441
660.70 0.3452
660.80 0.3462
660.90 0.3473
661.00 0.3483
661.10 0.3494
661.20 0.3505
661.30 0.3515
661.40 0.3522
661.50 0.3529
661.60 0.3537
661.70 0.3544
661.80 0.3552
661.90 0.3559
662.00 0.3566
662.10 0.3574
662.20 0.3581
662.30 0.3588
662.40 0.3593
662.50 0.3598
662.60 0.3603
662.70 0.3608
662.80 0.3612
662.90 0.3617
663.00 0.3622
663.10 0.3627
663.20 0.3632
663.30 0.3636
663.40 0.364
663.50 0.3643
663.60 0.3646
663.70 0.3649
663.80 0.3652
663.90 0.3656
664.00 0.3659
664.10 0.3662
664.20 0.3665
664.30 0.3668
664.40 0.367
664.50 0.3672
664.60 0.3674
664.70 0.3675
664.80 0.3677
664.90 0.3679
665.00 0.3681
665.10 0.3683
665.20 0.3685
665.30 0.3686
665.40 0.3687
665.50 0.3688
665.60 0.3689
665.70 0.369
665.80 0.3691
665.90 0.3692
666.00 0.3693
666.10 0.3694
666.20 0.3695
666.30 0.3696
666.40 0.3696
666.50 0.3696
666.60 0.3696
666.70 0.3697
666.80 0.3697
666.90 0.3697
667.00 0.3697
667.10 0.3698
667.20 0.3698
667.30 0.3698
667.40 0.3698
667.50 0.3698
667.60 0.3697
667.70 0.3697
667.80 0.3697
667.90 0.3697
668.00 0.3697
668.10 0.3696
668.20 0.3696
668.30 0.3696
668.40 0.3695
668.50 0.3695
668.60 0.3694
668.70 0.3693
668.80 0.3693
668.90 0.3692
669.00 0.3692
669.10 0.3691
669.20 0.3691
669.30 0.369
669.40 0.3689
669.50 0.3688
669.60 0.3687
669.70 0.3686
669.80 0.3686
669.90 0.3685
670.00 0.3684
670.10 0.3683
670.20 0.3682
670.30 0.3681
670.40 0.368
670.50 0.3679
670.60 0.3678
670.70 0.3677
670.80 0.3676
670.90 0.3675
671.00 0.3674
671.10 0.3673
671.20 0.3672
671.30 0.3671
671.40 0.3669
671.50 0.3668
671.60 0.3667
671.70 0.3666
671.80 0.3664
671.90 0.3663
672.00 0.3662
672.10 0.3661
672.20 0.366
672.30 0.3658
672.40 0.3657
672.50 0.3656
672.60 0.3654
672.70 0.3653
672.80 0.3652
672.90 0.365
673.00 0.3649
673.10 0.3648
673.20 0.3646
673.30 0.3645
673.40 0.3644
673.50 0.3642
673.60 0.3641
673.70 0.3639
673.80 0.3638
673.90 0.3636
674.00 0.3635
674.10 0.3634
674.20 0.3632
674.30 0.3631
674.40 0.3629
674.50 0.3628
674.60 0.3626
674.70 0.3625
674.80 0.3623
674.90 0.3622
675.00 0.362
675.10 0.3619
675.20 0.3617
675.30 0.3616
675.40 0.3614
675.50 0.3613
675.60 0.3611
675.70 0.361
675.80 0.3608
675.90 0.3607
676.00 0.3605
676.10 0.3604
676.20 0.3602
676.30 0.36
676.40 0.3599
676.50 0.3597
676.60 0.3596
676.70 0.3594
676.80 0.3593
676.90 0.3591
677.00 0.3589
677.10 0.3588
677.20 0.3586
677.30 0.3585
677.40 0.3583
677.50 0.3581
677.60 0.358
677.70 0.3578
677.80 0.3577
677.90 0.3575
678.00 0.3573
678.10 0.3572
678.20 0.357
678.30 0.3569
678.40 0.3567
678.50 0.3565
678.60 0.3564
678.70 0.3562
678.80 0.356
678.90 0.3559
679.00 0.3557
679.10 0.3555
679.20 0.3554
679.30 0.3552
679.40 0.3551
679.50 0.3549
679.60 0.3547
679.70 0.3546
679.80 0.3544
679.90 0.3542
680.00 0.3541
680.10 0.3539
680.20 0.3537
680.30 0.3536
680.40 0.3534
680.50 0.3532
680.60 0.3531
680.70 0.3529
680.80 0.3527
680.90 0.3526
681.00 0.3524
681.10 0.3522
681.20 0.3521
681.30 0.3519
681.40 0.3517
681.50 0.3516
681.60 0.3514
681.70 0.3512
681.80 0.3511
681.90 0.3509
682.00 0.3507
682.10 0.3506
682.20 0.3504
682.30 0.3502
682.40 0.3501
682.50 0.3499
682.60 0.3497
682.70 0.3496
682.80 0.3494
682.90 0.3492
683.00 0.3491
683.10 0.3489
683.20 0.3487
683.30 0.3486
683.40 0.3484
683.50 0.3482
683.60 0.3481
683.70 0.3479
683.80 0.3477
683.90 0.3476
684.00 0.3474
684.10 0.3472
684.20 0.3471
684.30 0.3469
684.40 0.3467
684.50 0.3465
684.60 0.3464
684.70 0.3462
684.80 0.346
684.90 0.3459
685.00 0.3457
685.10 0.3455
685.20 0.3454
685.30 0.3452
685.40 0.345
685.50 0.3449
685.60 0.3447
685.70 0.3445
685.80 0.3444
685.90 0.3442
686.00 0.344
686.10 0.3439
686.20 0.3437
686.30 0.3435
686.40 0.3434
686.50 0.3432
686.60 0.343
686.70 0.3429
686.80 0.3427
686.90 0.3425
687.00 0.3424
687.10 0.3422
687.20 0.342
687.30 0.3419
687.40 0.3417
687.50 0.3415
687.60 0.3414
687.70 0.3412
687.80 0.341
687.90 0.3409
688.00 0.3407
688.10 0.3405
688.20 0.3404
688.30 0.3402
688.40 0.34
688.50 0.3399
688.60 0.3397
688.70 0.3395
688.80 0.3394
688.90 0.3392
689.00 0.339
689.10 0.3389
689.20 0.3387
689.30 0.3385
689.40 0.3384
689.50 0.3382
689.60 0.338
689.70 0.3379
689.80 0.3377
689.90 0.3375
690.00 0.3374
690.10 0.3372
690.20 0.337
690.30 0.3369
690.40 0.3367
690.50 0.3365
690.60 0.3364
690.70 0.3362
690.80 0.336
690.90 0.3359
691.00 0.3357
691.10 0.3355
691.20 0.3354
691.30 0.3352
691.40 0.335
691.50 0.3349
691.60 0.3347
691.70 0.3345
691.80 0.3344
691.90 0.3342
692.00 0.3341
692.10 0.3339
692.20 0.3337
692.30 0.3336
692.40 0.3334
692.50 0.3332
692.60 0.3331
692.70 0.3329
692.80 0.3327
692.90 0.3326
693.00 0.3324
693.10 0.3322
693.20 0.3321
693.30 0.3319
693.40 0.3318
693.50 0.3316
693.60 0.3314
693.70 0.3313
693.80 0.3311
693.90 0.3309
694.00 0.3308
694.10 0.3306
694.20 0.3304
694.30 0.3303
694.40 0.3301
694.50 0.33
694.60 0.3298
694.70 0.3296
694.80 0.3295
694.90 0.3293
695.00 0.3291
695.10 0.329
695.20 0.3288
695.30 0.3287
695.40 0.3285
695.50 0.3283
695.60 0.3282
695.70 0.328
695.80 0.3279
695.90 0.3277
696.00 0.3275
696.10 0.3274
696.20 0.3272
696.30 0.327
696.40 0.3269
696.50 0.3267
696.60 0.3266
696.70 0.3264
696.80 0.3262
696.90 0.3261
697.00 0.3259
697.10 0.3258
697.20 0.3256
697.30 0.3254
697.40 0.3253
697.50 0.3251
697.60 0.325
697.70 0.3248
697.80 0.3246
697.90 0.3245
698.00 0.3243
698.10 0.3242
698.20 0.324
698.30 0.3238
698.40 0.3237
698.50 0.3235
698.60 0.3234
698.70 0.3232
698.80 0.323
698.90 0.3229
699.00 0.3227
699.10 0.3226
699.20 0.3224
699.30 0.3222
699.40 0.3221
699.50 0.3219
699.60 0.3218
699.70 0.3216
699.80 0.3215
699.90 0.3213
700.00 0.3211
700.10 0.321
700.20 0.3208
700.30 0.3207
700.40 0.3205
700.50 0.3204
700.60 0.3202
700.70 0.3201
700.80 0.3199
700.90 0.3197
701.00 0.3196
701.10 0.3194
701.20 0.3193
701.30 0.3191
701.40 0.319
701.50 0.3188
701.60 0.3187
701.70 0.3185
701.80 0.3184
701.90 0.3182
702.00 0.3181
702.10 0.3179
702.20 0.3177
702.30 0.3176
702.40 0.3174
702.50 0.3173
702.60 0.3171
702.70 0.317
702.80 0.3168
702.90 0.3167
703.00 0.3165
703.10 0.3164
703.20 0.3162
703.30 0.3161
703.40 0.3159
703.50 0.3158
703.60 0.3156
703.70 0.3155
703.80 0.3153
703.90 0.3151
704.00 0.315
704.10 0.3148
704.20 0.3147
704.30 0.3145
704.40 0.3144
704.50 0.3142
704.60 0.3141
704.70 0.3139
704.80 0.3138
704.90 0.3136
705.00 0.3135
705.10 0.3133
705.20 0.3132
705.30 0.313
705.40 0.3129
705.50 0.3127
705.60 0.3126
705.70 0.3124
705.80 0.3122
705.90 0.3121
706.00 0.3119
706.10 0.3118
706.20 0.3116
706.30 0.3115
706.40 0.3113
706.50 0.3112
706.60 0.311
706.70 0.3109
706.80 0.3107
706.90 0.3106
707.00 0.3104
707.10 0.3103
707.20 0.3101
707.30 0.31
707.40 0.3098
707.50 0.3097
707.60 0.3095
707.70 0.3093
707.80 0.3092
707.90 0.309
708.00 0.3089
708.10 0.3087
708.20 0.3086
708.30 0.3084
708.40 0.3083
708.50 0.3081
708.60 0.308
708.70 0.3078
708.80 0.3077
708.90 0.3075
709.00 0.3074
709.10 0.3072
709.20 0.3071
709.30 0.3069
709.40 0.3068
709.50 0.3066
709.60 0.3065
709.70 0.3063
709.80 0.3062
709.90 0.306
710.00 0.3059
710.10 0.3057
710.20 0.3056
710.30 0.3054
710.40 0.3053
710.50 0.3051
710.60 0.305
710.70 0.3048
710.80 0.3047
710.90 0.3045
711.00 0.3044
711.10 0.3042
711.20 0.3041
711.30 0.3039
711.40 0.3038
711.50 0.3036
711.60 0.3035
711.70 0.3033
711.80 0.3032
711.90 0.303
712.00 0.3029
712.10 0.3027
712.20 0.3026
712.30 0.3025
712.40 0.3023
712.50 0.3022
712.60 0.302
712.70 0.3019
712.80 0.3017
712.90 0.3016
713.00 0.3014
713.10 0.3013
713.20 0.3011
713.30 0.301
713.40 0.3008
713.50 0.3007
713.60 0.3005
713.70 0.3004
713.80 0.3002
713.90 0.3001
714.00 0.2999
714.10 0.2998
714.20 0.2997
714.30 0.2995
714.40 0.2994
714.50 0.2992
714.60 0.2991
714.70 0.2989
714.80 0.2988
714.90 0.2986
715.00 0.2985
715.10 0.2983
715.20 0.2982
715.30 0.2981
715.40 0.2979
715.50 0.2978
715.60 0.2976
715.70 0.2975
715.80 0.2973
715.90 0.2972
716.00 0.2971
716.10 0.2969
716.20 0.2968
716.30 0.2966
716.40 0.2965
716.50 0.2963
716.60 0.2962
716.70 0.2961
716.80 0.2959
716.90 0.2958
717.00 0.2956
717.10 0.2955
717.20 0.2953
717.30 0.2952
717.40 0.2951
717.50 0.2949
717.60 0.2948
717.70 0.2946
717.80 0.2945
717.90 0.2944
718.00 0.2942
718.10 0.2941
718.20 0.2939
718.30 0.2938
718.40 0.2936
718.50 0.2935
718.60 0.2934
718.70 0.2932
718.80 0.2931
718.90 0.2929
719.00 0.2928
719.10 0.2927
719.20 0.2925
719.30 0.2924
719.40 0.2922
719.50 0.2921
719.60 0.292
719.70 0.2918
719.80 0.2917
719.90 0.2915
720.00 0.2914
720.10 0.2913
720.20 0.2911
720.30 0.291
720.40 0.2908
720.50 0.2907
720.60 0.2905
720.70 0.2904
720.80 0.2903
720.90 0.2901
721.00 0.29
721.10 0.2898
721.20 0.2897
721.30 0.2896
721.40 0.2894
721.50 0.2893
721.60 0.2891
721.70 0.289
721.80 0.2889
721.90 0.2887
722.00 0.2886
722.10 0.2884
722.20 0.2883
722.30 0.2882
722.40 0.288
722.50 0.2879
722.60 0.2877
722.70 0.2876
722.80 0.2875
722.90 0.2873
723.00 0.2872
723.10 0.287
723.20 0.2869
723.30 0.2868
723.40 0.2866
723.50 0.2865
723.60 0.2864
723.70 0.2862
723.80 0.2861
723.90 0.2859
724.00 0.2858
724.10 0.2857
724.20 0.2855
724.30 0.2854
724.40 0.2852
724.50 0.2851
724.60 0.285
724.70 0.2848
724.80 0.2847
724.90 0.2846
725.00 0.2844
725.10 0.2843
725.20 0.2841
725.30 0.284
725.40 0.2839
725.50 0.2837
725.60 0.2836
725.70 0.2835
725.80 0.2833
725.90 0.2832
726.00 0.2831
726.10 0.2829
726.20 0.2828
726.30 0.2826
726.40 0.2825
726.50 0.2824
726.60 0.2822
726.70 0.2821
726.80 0.282
726.90 0.2818
727.00 0.2817
727.10 0.2816
727.20 0.2814
727.30 0.2813
727.40 0.2811
727.50 0.281
727.60 0.2809
727.70 0.2807
727.80 0.2806
727.90 0.2805
728.00 0.2803
728.10 0.2802
728.20 0.2801
728.30 0.2799
728.40 0.2798
728.50 0.2797
728.60 0.2795
728.70 0.2794
728.80 0.2793
728.90 0.2791
729.00 0.279
729.10 0.2789
729.20 0.2787
729.30 0.2786
729.40 0.2785
729.50 0.2783
729.60 0.2782
729.70 0.2781
729.80 0.2779
729.90 0.2778
730.00 0.2776
730.10 0.2775
730.20 0.2774
730.30 0.2773
730.40 0.2771
730.50 0.277
730.60 0.2769
730.70 0.2767
730.80 0.2766
730.90 0.2765
731.00 0.2763
731.10 0.2762
731.20 0.2761
731.30 0.2759
731.40 0.2758
731.50 0.2757
731.60 0.2755
731.70 0.2754
731.80 0.2753
731.90 0.2751
732.00 0.275
732.10 0.2749
732.20 0.2748
732.30 0.2746
732.40 0.2745
732.50 0.2744
732.60 0.2742
732.70 0.2741
732.80 0.274
732.90 0.2738
733.00 0.2737
733.10 0.2736
733.20 0.2734
733.30 0.2733
733.40 0.2732
733.50 0.2731
733.60 0.2729
733.70 0.2728
733.80 0.2727
733.90 0.2725
734.00 0.2724
734.10 0.2723
734.20 0.2721
734.30 0.272
734.40 0.2719
734.50 0.2718
734.60 0.2716
734.70 0.2715
734.80 0.2714
734.90 0.2712
735.00 0.2711
735.10 0.271
735.20 0.2708
735.30 0.2707
735.40 0.2706
735.50 0.2705
735.60 0.2703
735.70 0.2702
735.80 0.2701
735.90 0.2699
736.00 0.2698
736.10 0.2697
736.20 0.2696
736.30 0.2694
736.40 0.2693
736.50 0.2692
736.60 0.269
736.70 0.2689
736.80 0.2688
736.90 0.2687
737.00 0.2685
737.10 0.2684
737.20 0.2683
737.30 0.2681
737.40 0.268
737.50 0.2679
737.60 0.2678
737.70 0.2676
737.80 0.2675
737.90 0.2674
738.00 0.2673
738.10 0.2671
738.20 0.267
738.30 0.2669
738.40 0.2667
738.50 0.2666
738.60 0.2665
738.70 0.2664
738.80 0.2662
738.90 0.2661
739.00 0.266
739.10 0.2659
739.20 0.2657
739.30 0.2656
739.40 0.2655
739.50 0.2653
739.60 0.2652
739.70 0.2651
739.80 0.265
739.90 0.2648
740.00 0.2647
740.10 0.2646
740.20 0.2645
740.30 0.2643
740.40 0.2642
740.50 0.2641
740.60 0.264
740.70 0.2638
740.80 0.2637
740.90 0.2636
741.00 0.2635
741.10 0.2633
741.20 0.2632
741.30 0.2631
741.40 0.263
741.50 0.2628
741.60 0.2627
741.70 0.2626
741.80 0.2625
741.90 0.2624
742.00 0.2622
742.10 0.2621
742.20 0.262
742.30 0.2619
742.40 0.2617
742.50 0.2616
742.60 0.2615
742.70 0.2614
742.80 0.2612
742.90 0.2611
743.00 0.261
743.10 0.2609
743.20 0.2607
743.30 0.2606
743.40 0.2605
743.50 0.2604
743.60 0.2603
743.70 0.2601
743.80 0.26
743.90 0.2599
744.00 0.2598
744.10 0.2596
744.20 0.2595
744.30 0.2594
744.40 0.2593
744.50 0.2592
744.60 0.259
744.70 0.2589
744.80 0.2588
744.90 0.2587
745.00 0.2585
745.10 0.2584
745.20 0.2583
745.30 0.2582
745.40 0.2581
745.50 0.2579
745.60 0.2578
745.70 0.2577
745.80 0.2576
745.90 0.2575
746.00 0.2573
746.10 0.2572
746.20 0.2571
746.30 0.257
746.40 0.2568
746.50 0.2567
746.60 0.2566
746.70 0.2565
746.80 0.2564
746.90 0.2562
747.00 0.2561
747.10 0.256
747.20 0.2559
747.30 0.2558
747.40 0.2556
747.50 0.2555
747.60 0.2554
747.70 0.2553
747.80 0.2552
747.90 0.255
748.00 0.2549
748.10 0.2548
748.20 0.2547
748.30 0.2546
748.40 0.2544
748.50 0.2543
748.60 0.2542
748.70 0.2541
748.80 0.254
748.90 0.2538
749.00 0.2537
749.10 0.2536
749.20 0.2535
749.30 0.2534
749.40 0.2532
749.50 0.2531
749.60 0.253
749.70 0.2529
749.80 0.2528
749.90 0.2526
750.00 0.2525
750.10 0.2524
750.20 0.2523
750.30 0.2522
750.40 0.2521
750.50 0.2519
750.60 0.2518
750.70 0.2517
750.80 0.2516
750.90 0.2515
751.00 0.2514
751.10 0.2512
751.20 0.2511
751.30 0.251
751.40 0.2509
751.50 0.2508
751.60 0.2506
751.70 0.2505
751.80 0.2504
751.90 0.2503
752.00 0.2502
752.10 0.2501
752.20 0.2499
752.30 0.2498
752.40 0.2497
752.50 0.2496
752.60 0.2495
752.70 0.2494
752.80 0.2493
752.90 0.2491
753.00 0.249
753.10 0.2489
753.20 0.2488
753.30 0.2487
753.40 0.2486
753.50 0.2484
753.60 0.2483
753.70 0.2482
753.80 0.2481
753.90 0.248
754.00 0.2479
754.10 0.2477
754.20 0.2476
754.30 0.2475
754.40 0.2474
754.50 0.2473
754.60 0.2472
754.70 0.2471
754.80 0.2469
754.90 0.2468
755.00 0.2467
755.10 0.2466
755.20 0.2465
755.30 0.2464
755.40 0.2463
755.50 0.2461
755.60 0.246
755.70 0.2459
755.80 0.2458
755.90 0.2457
756.00 0.2456
756.10 0.2455
756.20 0.2453
756.30 0.2452
756.40 0.2451
756.50 0.245
756.60 0.2449
756.70 0.2448
756.80 0.2447
756.90 0.2445
757.00 0.2444
757.10 0.2443
757.20 0.2442
757.30 0.2441
757.40 0.244
757.50 0.2439
757.60 0.2437
757.70 0.2436
757.80 0.2435
757.90 0.2434
758.00 0.2433
758.10 0.2432
758.20 0.2431
758.30 0.2429
758.40 0.2428
758.50 0.2427
758.60 0.2426
758.70 0.2425
758.80 0.2424
758.90 0.2423
759.00 0.2422
759.10 0.242
759.20 0.2419
759.30 0.2418
759.40 0.2417
759.50 0.2416
759.60 0.2415
759.70 0.2414
759.80 0.2413
759.90 0.2411
760.00 0.241
760.10 0.2409
760.20 0.2408
760.30 0.2407
760.40 0.2406
760.50 0.2405
760.60 0.2404
760.70 0.2403
760.80 0.2401
760.90 0.24
761.00 0.2399
761.10 0.2398
761.20 0.2397
761.30 0.2396
761.40 0.2395
761.50 0.2394
761.60 0.2393
761.70 0.2392
761.80 0.239
761.90 0.2389
762.00 0.2388
762.10 0.2387
762.20 0.2386
762.30 0.2385
762.40 0.2384
762.50 0.2383
762.60 0.2382
762.70 0.2381
762.80 0.2379
762.90 0.2378
763.00 0.2377
763.10 0.2376
763.20 0.2375
763.30 0.2374
763.40 0.2373
763.50 0.2372
763.60 0.2371
763.70 0.237
763.80 0.2369
763.90 0.2367
764.00 0.2366
764.10 0.2365
764.20 0.2364
764.30 0.2363
764.40 0.2362
764.50 0.2361
764.60 0.236
764.70 0.2359
764.80 0.2358
764.90 0.2357
765.00 0.2356
765.10 0.2354
765.20 0.2353
765.30 0.2352
765.40 0.2351
765.50 0.235
765.60 0.2349
765.70 0.2348
765.80 0.2347
765.90 0.2346
766.00 0.2345
766.10 0.2344
766.20 0.2343
766.30 0.2341
766.40 0.234
766.50 0.2339
766.60 0.2338
766.70 0.2337
766.80 0.2336
766.90 0.2335
767.00 0.2334
767.10 0.2333
767.20 0.2332
767.30 0.2331
767.40 0.233
767.50 0.2329
767.60 0.2327
767.70 0.2326
767.80 0.2325
767.90 0.2324
768.00 0.2323
768.10 0.2322
768.20 0.2321
768.30 0.232
768.40 0.2319
768.50 0.2318
768.60 0.2317
768.70 0.2316
768.80 0.2315
768.90 0.2314
769.00 0.2313
769.10 0.2311
769.20 0.231
769.30 0.2309
769.40 0.2308
769.50 0.2307
769.60 0.2306
769.70 0.2305
769.80 0.2304
769.90 0.2303
770.00 0.2302
770.10 0.2301
770.20 0.23
770.30 0.2299
770.40 0.2298
770.50 0.2297
770.60 0.2296
770.70 0.2295
770.80 0.2294
770.90 0.2293
771.00 0.2291
771.10 0.229
771.20 0.2289
771.30 0.2288
771.40 0.2287
771.50 0.2286
771.60 0.2285
771.70 0.2284
771.80 0.2283
771.90 0.2282
772.00 0.2281
772.10 0.228
772.20 0.2279
772.30 0.2278
772.40 0.2277
772.50 0.2276
772.60 0.2275
772.70 0.2274
772.80 0.2273
772.90 0.2272
773.00 0.2271
773.10 0.227
773.20 0.2269
773.30 0.2268
773.40 0.2267
773.50 0.2266
773.60 0.2265
773.70 0.2264
773.80 0.2262
773.90 0.2261
774.00 0.226
774.10 0.2259
774.20 0.2258
774.30 0.2257
774.40 0.2256
774.50 0.2255
774.60 0.2254
774.70 0.2253
774.80 0.2252
774.90 0.2251
775.00 0.225
775.10 0.2249
775.20 0.2248
775.30 0.2247
775.40 0.2246
775.50 0.2245
775.60 0.2244
775.70 0.2243
775.80 0.2242
775.90 0.2241
776.00 0.224
776.10 0.2239
776.20 0.2238
776.30 0.2237
776.40 0.2236
776.50 0.2235
776.60 0.2234
776.70 0.2233
776.80 0.2232
776.90 0.2231
777.00 0.223
777.10 0.2229
777.20 0.2228
777.30 0.2227
777.40 0.2226
777.50 0.2225
777.60 0.2224
777.70 0.2223
777.80 0.2222
777.90 0.2221
778.00 0.222
778.10 0.2219
778.20 0.2218
778.30 0.2217
778.40 0.2216
778.50 0.2215
778.60 0.2214
778.70 0.2213
778.80 0.2212
778.90 0.2211
779.00 0.221
779.10 0.2209
779.20 0.2208
779.30 0.2207
779.40 0.2206
779.50 0.2205
779.60 0.2204
779.70 0.2203
779.80 0.2202
779.90 0.2201
780.00 0.22
780.10 0.2199
780.20 0.2198
780.30 0.2197
780.40 0.2196
780.50 0.2195
780.60 0.2194
780.70 0.2193
780.80 0.2192
780.90 0.2191
781.00 0.219
781.10 0.2189
781.20 0.2188
781.30 0.2187
781.40 0.2186
781.50 0.2185
781.60 0.2184
781.70 0.2183
781.80 0.2182
781.90 0.2181
782.00 0.218
782.10 0.2179
782.20 0.2178
782.30 0.2177
782.40 0.2176
782.50 0.2175
782.60 0.2174
782.70 0.2173
782.80 0.2172
782.90 0.2171
783.00 0.217
783.10 0.2169
783.20 0.2168
783.30 0.2167
783.40 0.2166
783.50 0.2165
783.60 0.2164
783.70 0.2163
783.80 0.2162
783.90 0.2161
784.00 0.216
784.10 0.2159
784.20 0.2158
784.30 0.2158
784.40 0.2157
784.50 0.2156
784.60 0.2155
784.70 0.2154
784.80 0.2153
784.90 0.2152
785.00 0.2151
785.10 0.215
785.20 0.2149
785.30 0.2148
785.40 0.2147
785.50 0.2146
785.60 0.2145
785.70 0.2144
785.80 0.2143
785.90 0.2142
786.00 0.2141
786.10 0.214
786.20 0.2139
786.30 0.2138
786.40 0.2137
786.50 0.2136
786.60 0.2135
786.70 0.2134
786.80 0.2133
786.90 0.2132
787.00 0.2131
787.10 0.2131
787.20 0.213
787.30 0.2129
787.40 0.2128
787.50 0.2127
787.60 0.2126
787.70 0.2125
787.80 0.2124
787.90 0.2123
788.00 0.2122
788.10 0.2121
788.20 0.212
788.30 0.2119
788.40 0.2118
788.50 0.2117
788.60 0.2116
788.70 0.2115
788.80 0.2114
788.90 0.2113
789.00 0.2112
789.10 0.2111
789.20 0.2111
789.30 0.211
789.40 0.2109
789.50 0.2108
789.60 0.2107
789.70 0.2106
789.80 0.2105
789.90 0.2104
790.00 0.2103
790.10 0.2102
790.20 0.2101
790.30 0.21
790.40 0.2099
790.50 0.2098
790.60 0.2097
790.70 0.2096
790.80 0.2095
790.90 0.2095
791.00 0.2094
791.10 0.2093
791.20 0.2092
791.30 0.2091
791.40 0.209
791.50 0.2089
791.60 0.2088
791.70 0.2087
791.80 0.2086
791.90 0.2085
792.00 0.2084
792.10 0.2083
792.20 0.2082
792.30 0.2082
792.40 0.2081
792.50 0.208
792.60 0.2079
792.70 0.2078
792.80 0.2077
792.90 0.2076
793.00 0.2075
793.10 0.2074
793.20 0.2073
793.30 0.2072
793.40 0.2071
793.50 0.2071
793.60 0.207
793.70 0.2069
793.80 0.2068
793.90 0.2067
794.00 0.2066
794.10 0.2065
794.20 0.2064
794.30 0.2063
794.40 0.2062
794.50 0.2061
794.60 0.206
794.70 0.206
794.80 0.2059
794.90 0.2058
795.00 0.2057
795.10 0.2056
795.20 0.2055
795.30 0.2054
795.40 0.2053
795.50 0.2052
795.60 0.2051
795.70 0.205
795.80 0.2049
795.90 0.2049
796.00 0.2048
796.10 0.2047
796.20 0.2046
796.30 0.2045
796.40 0.2044
796.50 0.2043
796.60 0.2042
796.70 0.2041
796.80 0.204
796.90 0.2039
797.00 0.2039
797.10 0.2038
797.20 0.2037
797.30 0.2036
797.40 0.2035
797.50 0.2034
797.60 0.2033
797.70 0.2032
797.80 0.2031
797.90 0.203
798.00 0.203
798.10 0.2029
798.20 0.2028
798.30 0.2027
798.40 0.2026
798.50 0.2025
798.60 0.2024
798.70 0.2023
798.80 0.2022
798.90 0.2021
799.00 0.2021
799.10 0.202
799.20 0.2019
799.30 0.2018
799.40 0.2017
799.50 0.2016
799.60 0.2015
799.70 0.2014
799.80 0.2013
799.90 0.2012
800.00 0.2012
800.10 0.2011
800.20 0.201
800.30 0.2009
800.40 0.2008
800.50 0.2007
800.60 0.2006
800.70 0.2005
800.80 0.2005
800.90 0.2004
801.00 0.2003
801.10 0.2002
801.20 0.2001
801.30 0.2
801.40 0.1999
801.50 0.1998
801.60 0.1997
801.70 0.1997
801.80 0.1996
801.90 0.1995
802.00 0.1994
802.10 0.1993
802.20 0.1992
802.30 0.1991
802.40 0.199
802.50 0.199
802.60 0.1989
802.70 0.1988
802.80 0.1987
802.90 0.1986
803.00 0.1985
803.10 0.1984
803.20 0.1983
803.30 0.1983
803.40 0.1982
803.50 0.1981
803.60 0.198
803.70 0.1979
803.80 0.1978
803.90 0.1977
804.00 0.1977
804.10 0.1976
804.20 0.1975
804.30 0.1974
804.40 0.1973
804.50 0.1972
804.60 0.1971
804.70 0.197
804.80 0.197
804.90 0.1969
805.00 0.1968
805.10 0.1967
805.20 0.1966
805.30 0.1965
805.40 0.1964
805.50 0.1964
805.60 0.1963
805.70 0.1962
805.80 0.1961
805.90 0.196
806.00 0.1959
806.10 0.1958
806.20 0.1958
806.30 0.1957
806.40 0.1956
806.50 0.1955
806.60 0.1954
806.70 0.1953
806.80 0.1952
806.90 0.1952
807.00 0.1951
807.10 0.195
807.20 0.1949
807.30 0.1948
807.40 0.1947
807.50 0.1946
807.60 0.1946
807.70 0.1945
807.80 0.1944
807.90 0.1943
808.00 0.1942
808.10 0.1941
808.20 0.194
808.30 0.194
808.40 0.1939
808.50 0.1938
808.60 0.1937
808.70 0.1936
808.80 0.1935
808.90 0.1934
809.00 0.1934
809.10 0.1933
809.20 0.1932
809.30 0.1931
809.40 0.193
809.50 0.1929
809.60 0.1929
809.70 0.1928
809.80 0.1927
809.90 0.1926
810.00 0.1925
810.10 0.1924
810.20 0.1923
810.30 0.1923
810.40 0.1922
810.50 0.1921
810.60 0.192
810.70 0.1919
810.80 0.1918
810.90 0.1918
811.00 0.1917
811.10 0.1916
811.20 0.1915
811.30 0.1914
811.40 0.1913
811.50 0.1913
811.60 0.1912
811.70 0.1911
811.80 0.191
811.90 0.1909
812.00 0.1908
812.10 0.1908
812.20 0.1907
812.30 0.1906
812.40 0.1905
812.50 0.1904
812.60 0.1904
812.70 0.1903
812.80 0.1902
812.90 0.1901
813.00 0.19
813.10 0.1899
813.20 0.1899
813.30 0.1898
813.40 0.1897
813.50 0.1896
813.60 0.1895
813.70 0.1894
813.80 0.1894
813.90 0.1893
814.00 0.1892
814.10 0.1891
814.20 0.189
814.30 0.189
814.40 0.1889
814.50 0.1888
814.60 0.1887
814.70 0.1886
814.80 0.1885
814.90 0.1885
815.00 0.1884
815.10 0.1883
815.20 0.1882
815.30 0.1881
815.40 0.1881
815.50 0.188
815.60 0.1879
815.70 0.1878
815.80 0.1877
815.90 0.1876
816.00 0.1876
816.10 0.1875
816.20 0.1874
816.30 0.1873
816.40 0.1872
816.50 0.1872
816.60 0.1871
816.70 0.187
816.80 0.1869
816.90 0.1868
817.00 0.1867
817.10 0.1867
817.20 0.1866
817.30 0.1865
817.40 0.1864
817.50 0.1863
817.60 0.1863
817.70 0.1862
817.80 0.1861
817.90 0.186
818.00 0.1859
818.10 0.1859
818.20 0.1858
818.30 0.1857
818.40 0.1856
818.50 0.1855
818.60 0.1855
818.70 0.1854
818.80 0.1853
818.90 0.1852
819.00 0.1851
819.10 0.1851
819.20 0.185
819.30 0.1849
819.40 0.1848
819.50 0.1847
819.60 0.1847
819.70 0.1846
819.80 0.1845
819.90 0.1844
820.00 0.1843
820.10 0.1843
820.20 0.1842
820.30 0.1841
820.40 0.184
820.50 0.1839
820.60 0.1839
820.70 0.1838
820.80 0.1837
820.90 0.1836
821.00 0.1835
821.10 0.1835
821.20 0.1834
821.30 0.1833
821.40 0.1832
821.50 0.1831
821.60 0.1831
821.70 0.183
821.80 0.1829
821.90 0.1828
822.00 0.1827
822.10 0.1827
822.20 0.1826
822.30 0.1825
822.40 0.1824
822.50 0.1824
822.60 0.1823
822.70 0.1822
822.80 0.1821
822.90 0.182
823.00 0.182
823.10 0.1819
823.20 0.1818
823.30 0.1817
823.40 0.1817
823.50 0.1816
823.60 0.1815
823.70 0.1814
823.80 0.1813
823.90 0.1813
824.00 0.1812
824.10 0.1811
824.20 0.181
824.30 0.181
824.40 0.1809
824.50 0.1808
824.60 0.1807
824.70 0.1806
824.80 0.1806
824.90 0.1805
825.00 0.1804
825.10 0.1803
825.20 0.1803
825.30 0.1802
825.40 0.1801
825.50 0.18
825.60 0.1799
825.70 0.1799
825.80 0.1798
825.90 0.1797
826.00 0.1796
826.10 0.1796
826.20 0.1795
826.30 0.1794
826.40 0.1793
826.50 0.1792
826.60 0.1792
826.70 0.1791
826.80 0.179
826.90 0.1789
827.00 0.1789
827.10 0.1788
827.20 0.1787
827.30 0.1786
827.40 0.1786
827.50 0.1785
827.60 0.1784
827.70 0.1783
827.80 0.1783
827.90 0.1782
828.00 0.1781
828.10 0.178
828.20 0.1779
828.30 0.1779
828.40 0.1778
828.50 0.1777
828.60 0.1776
828.70 0.1776
828.80 0.1775
828.90 0.1774
829.00 0.1773
829.10 0.1773
829.20 0.1772
829.30 0.1771
829.40 0.177
829.50 0.177
829.60 0.1769
829.70 0.1768
829.80 0.1767
829.90 0.1767
830.00 0.1766
830.10 0.1765
830.20 0.1764
830.30 0.1764
830.40 0.1763
830.50 0.1762
830.60 0.1761
830.70 0.1761
830.80 0.176
830.90 0.1759
831.00 0.1758
831.10 0.1758
831.20 0.1757
831.30 0.1756
831.40 0.1755
831.50 0.1755
831.60 0.1754
831.70 0.1753
831.80 0.1752
831.90 0.1752
832.00 0.1751
832.10 0.175
832.20 0.1749
832.30 0.1749
832.40 0.1748
832.50 0.1747
832.60 0.1746
832.70 0.1746
832.80 0.1745
832.90 0.1744
833.00 0.1743
833.10 0.1743
833.20 0.1742
833.30 0.1741
833.40 0.174
833.50 0.174
833.60 0.1739
833.70 0.1738
833.80 0.1737
833.90 0.1737
834.00 0.1736
834.10 0.1735
834.20 0.1735
834.30 0.1734
834.40 0.1733
834.50 0.1732
834.60 0.1732
834.70 0.1731
834.80 0.173
834.90 0.1729
835.00 0.1729
835.10 0.1728
835.20 0.1727
835.30 0.1726
835.40 0.1726
835.50 0.1725
835.60 0.1724
835.70 0.1724
835.80 0.1723
835.90 0.1722
836.00 0.1721
836.10 0.1721
836.20 0.172
836.30 0.1719
836.40 0.1718
836.50 0.1718
836.60 0.1717
836.70 0.1716
836.80 0.1715
836.90 0.1715
837.00 0.1714
837.10 0.1713
837.20 0.1713
837.30 0.1712
837.40 0.1711
837.50 0.171
837.60 0.171
837.70 0.1709
837.80 0.1708
837.90 0.1708
838.00 0.1707
838.10 0.1706
838.20 0.1705
838.30 0.1705
838.40 0.1704
838.50 0.1703
838.60 0.1702
838.70 0.1702
838.80 0.1701
838.90 0.17
839.00 0.17
839.10 0.1699
839.20 0.1698
839.30 0.1697
839.40 0.1697
839.50 0.1696
839.60 0.1695
839.70 0.1695
839.80 0.1694
839.90 0.1693
840.00 0.1692
840.10 0.1692
840.20 0.1691
840.30 0.169
840.40 0.169
840.50 0.1689
840.60 0.1688
840.70 0.1687
840.80 0.1687
840.90 0.1686
841.00 0.1685
841.10 0.1685
841.20 0.1684
841.30 0.1683
841.40 0.1682
841.50 0.1682
841.60 0.1681
841.70 0.168
841.80 0.168
841.90 0.1679
842.00 0.1678
842.10 0.1677
842.20 0.1677
842.30 0.1676
842.40 0.1675
842.50 0.1675
842.60 0.1674
842.70 0.1673
842.80 0.1673
842.90 0.1672
843.00 0.1671
843.10 0.167
843.20 0.167
843.30 0.1669
843.40 0.1668
843.50 0.1668
843.60 0.1667
843.70 0.1666
843.80 0.1665
843.90 0.1665
844.00 0.1664
844.10 0.1663
844.20 0.1663
844.30 0.1662
844.40 0.1661
844.50 0.1661
844.60 0.166
844.70 0.1659
844.80 0.1659
844.90 0.1658
845.00 0.1657
845.10 0.1656
845.20 0.1656
845.30 0.1655
845.40 0.1654
845.50 0.1654
845.60 0.1653
845.70 0.1652
845.80 0.1652
845.90 0.1651
846.00 0.165
846.10 0.1649
846.20 0.1649
846.30 0.1648
846.40 0.1647
846.50 0.1647
846.60 0.1646
846.70 0.1645
846.80 0.1645
846.90 0.1644
847.00 0.1643
847.10 0.1643
847.20 0.1642
847.30 0.1641
847.40 0.1641
847.50 0.164
847.60 0.164
847.70 0.1639
847.80 0.1638
847.90 0.1638
848.00 0.1637
848.10 0.1637
848.20 0.1636
848.30 0.1636
848.40 0.1635
848.50 0.1634
848.60 0.1634
848.70 0.1633
848.80 0.1633
848.90 0.1632
849.00 0.1631
849.10 0.1631
849.20 0.163
849.30 0.163
849.40 0.1629
849.50 0.1628
849.60 0.1628
849.70 0.1627
849.80 0.1627
849.90 0.1626
850.00 0.1626
850.10 0.1625
850.20 0.1624
850.30 0.1624
850.40 0.1623
850.50 0.1623
850.60 0.1622
850.70 0.1621
850.80 0.1621
850.90 0.162
851.00 0.162
851.10 0.1619
851.20 0.1619
851.30 0.1618
851.40 0.1617
851.50 0.1617
851.60 0.1616
851.70 0.1616
851.80 0.1615
851.90 0.1614
852.00 0.1614
852.10 0.1613
852.20 0.1613
852.30 0.1612
852.40 0.1612
852.50 0.1611
852.60 0.161
852.70 0.161
852.80 0.1609
852.90 0.1609
853.00 0.1608
853.10 0.1608
853.20 0.1607
853.30 0.1606
853.40 0.1606
853.50 0.1605
853.60 0.1605
853.70 0.1604
853.80 0.1603
853.90 0.1603
854.00 0.1602
854.10 0.1602
854.20 0.1601
854.30 0.1601
854.40 0.16
854.50 0.1599
854.60 0.1599
854.70 0.1598
854.80 0.1598
854.90 0.1597
855.00 0.1597
855.10 0.1596
855.20 0.1595
855.30 0.1595
855.40 0.1594
855.50 0.1594
855.60 0.1593
855.70 0.1592
855.80 0.1592
855.90 0.1591
856.00 0.1591
856.10 0.159
856.20 0.159
856.30 0.1589
856.40 0.1588
856.50 0.1588
856.60 0.1587
856.70 0.1587
856.80 0.1586
856.90 0.1586
857.00 0.1585
857.10 0.1585
857.20 0.1584
857.30 0.1583
857.40 0.1583
857.50 0.1582
857.60 0.1582
857.70 0.1581
857.80 0.1581
857.90 0.158
858.00 0.158
858.10 0.1579
858.20 0.1579
858.30 0.1578
858.40 0.1578
858.50 0.1577
858.60 0.1577
858.70 0.1576
858.80 0.1576
858.90 0.1575
859.00 0.1575
859.10 0.1574
859.20 0.1573
859.30 0.1573
859.40 0.1572
859.50 0.1572
859.60 0.1571
859.70 0.1571
859.80 0.157
859.90 0.157
860.00 0.1569
860.10 0.1569
860.20 0.1568
860.30 0.1568
860.40 0.1567
860.50 0.1567
860.60 0.1566
860.70 0.1566
860.80 0.1565
860.90 0.1565
861.00 0.1564
861.10 0.1564
861.20 0.1563
861.30 0.1563
861.40 0.1562
861.50 0.1561
861.60 0.1561
861.70 0.156
861.80 0.156
861.90 0.1559
862.00 0.1559
862.10 0.1558
862.20 0.1558
862.30 0.1557
862.40 0.1557
862.50 0.1556
862.60 0.1555
862.70 0.1555
862.80 0.1554
862.90 0.1554
863.00 0.1553
863.10 0.1553
863.20 0.1552
863.30 0.1551
863.40 0.1551
863.50 0.155
863.60 0.155
863.70 0.1549
863.80 0.1549
863.90 0.1548
864.00 0.1547
864.10 0.1547
864.20 0.1546
864.30 0.1546
864.40 0.1545
864.50 0.1545
864.60 0.1544
864.70 0.1543
864.80 0.1543
864.90 0.1542
865.00 0.1542
865.10 0.1541
865.20 0.1541
865.30 0.154
865.40 0.1539
865.50 0.1539
865.60 0.1538
865.70 0.1538
865.80 0.1537
865.90 0.1537
866.00 0.1536
866.10 0.1535
866.20 0.1535
866.30 0.1534
866.40 0.1534
866.50 0.1533
866.60 0.1533
866.70 0.1532
866.80 0.1531
866.90 0.1531
867.00 0.153
867.10 0.153
867.20 0.153
867.30 0.1529
867.40 0.1529
867.50 0.1529
867.60 0.1528
867.70 0.1528
867.80 0.1528
867.90 0.1527
868.00 0.1527
868.10 0.1526
868.20 0.1526
868.30 0.1526
868.40 0.1525
868.50 0.1525
868.60 0.1525
868.70 0.1524
868.80 0.1524
868.90 0.1524
869.00 0.1523
869.10 0.1523
869.20 0.1523
869.30 0.1522
869.40 0.1522
869.50 0.1522
869.60 0.1521
869.70 0.1521
869.80 0.1521
869.90 0.152
870.00 0.152
870.10 0.152
870.20 0.1519
870.30 0.1519
870.40 0.1519
870.50 0.1518
870.60 0.1518
870.70 0.1518
870.80 0.1517
870.90 0.1517
871.00 0.1517
871.10 0.1516
871.20 0.1516
871.30 0.1516
871.40 0.1515
871.50 0.1515
871.60 0.1515
871.70 0.1514
871.80 0.1514
871.90 0.1513
872.00 0.1513
872.10 0.1513
872.20 0.1512
872.30 0.1512
872.40 0.1511
872.50 0.151
872.60 0.151
872.70 0.1509
872.80 0.1509
872.90 0.1508
873.00 0.1508
873.10 0.1507
873.20 0.1507
873.30 0.1506
873.40 0.1506
873.50 0.1505
873.60 0.1504
873.70 0.1504
873.80 0.1503
873.90 0.1503
874.00 0.1502
874.10 0.1502
874.20 0.1501
874.30 0.1501
874.40 0.15
874.50 0.15
874.60 0.1499
874.70 0.1499
874.80 0.1498
874.90 0.1497
875.00 0.1497
875.10 0.1496
875.20 0.1496
875.30 0.1495
875.40 0.1495
875.50 0.1494
875.60 0.1494
875.70 0.1493
875.80 0.1493
875.90 0.1492
876.00 0.1492
876.10 0.1491
876.20 0.149
876.30 0.149
876.40 0.1489
876.50 0.1489
876.60 0.1488
876.70 0.1488
876.80 0.1487
876.90 0.1487
877.00 0.1486
877.10 0.1486
877.20 0.1486
877.30 0.1485
877.40 0.1485
877.50 0.1485
877.60 0.1484
877.70 0.1484
877.80 0.1484
877.90 0.1484
878.00 0.1483
878.10 0.1483
878.20 0.1483
878.30 0.1483
878.40 0.1482
878.50 0.1482
878.60 0.1482
878.70 0.1481
878.80 0.1481
878.90 0.1481
879.00 0.1481
879.10 0.148
879.20 0.148
879.30 0.148
879.40 0.1479
879.50 0.1479
879.60 0.1479
879.70 0.1479
879.80 0.1478
879.90 0.1478
880.00 0.1478
880.10 0.1478
880.20 0.1477
880.30 0.1477
880.40 0.1477
880.50 0.1476
880.60 0.1476
880.70 0.1476
880.80 0.1476
880.90 0.1475
881.00 0.1475
881.10 0.1475
881.20 0.1474
881.30 0.1474
881.40 0.1474
881.50 0.1474
881.60 0.1473
881.70 0.1473
881.80 0.1473
881.90 0.1473
882.00 0.1472
882.10 0.1471
882.20 0.1469
882.30 0.1468
882.40 0.1467
882.50 0.1465
882.60 0.1464
882.70 0.1463
882.80 0.1461
882.90 0.146
883.00 0.1458
883.10 0.1457
883.20 0.1456
883.30 0.1454
883.40 0.1453
883.50 0.1451
883.60 0.145
883.70 0.1449
883.80 0.1447
883.90 0.1446
884.00 0.1444
884.10 0.1443
884.20 0.1442
884.30 0.144
884.40 0.1439
884.50 0.1437
884.60 0.1436
884.70 0.1435
884.80 0.1433
884.90 0.1432
885.00 0.1431
885.10 0.1429
885.20 0.1428
885.30 0.1426
885.40 0.1425
885.50 0.1424
885.60 0.1422
885.70 0.1421
885.80 0.142
885.90 0.1418
886.00 0.1417
886.10 0.1415
886.20 0.1414
886.30 0.1413
886.40 0.1411
886.50 0.141
886.60 0.1409
886.70 0.1407
886.80 0.1406
886.90 0.1404
887.00 0.1403
887.10 0.1404
887.20 0.1404
887.30 0.1405
887.40 0.1405
887.50 0.1405
887.60 0.1406
887.70 0.1406
887.80 0.1407
887.90 0.1407
888.00 0.1408
888.10 0.1408
888.20 0.1409
888.30 0.1409
888.40 0.141
888.50 0.141
888.60 0.1411
888.70 0.1411
888.80 0.1412
888.90 0.1412
889.00 0.1413
889.10 0.1413
889.20 0.1414
889.30 0.1414
889.40 0.1415
889.50 0.1415
889.60 0.1416
889.70 0.1416
889.80 0.1417
889.90 0.1417
890.00 0.1417
890.10 0.1418
890.20 0.1418
890.30 0.1419
890.40 0.1419
890.50 0.142
890.60 0.142
890.70 0.1421
890.80 0.1421
890.90 0.1422
891.00 0.1422
891.10 0.1423
891.20 0.1423
891.30 0.1424
891.40 0.1424
891.50 0.1425
891.60 0.1425
891.70 0.1426
891.80 0.1426
891.90 0.1427
892.00 0.1427
892.10 0.1426
892.20 0.1426
892.30 0.1425
892.40 0.1424
892.50 0.1424
892.60 0.1423
892.70 0.1422
892.80 0.1422
892.90 0.1421
893.00 0.1421
893.10 0.142
893.20 0.1419
893.30 0.1419
893.40 0.1418
893.50 0.1417
893.60 0.1417
893.70 0.1416
893.80 0.1415
893.90 0.1415
894.00 0.1414
894.10 0.1414
894.20 0.1413
894.30 0.1412
894.40 0.1412
894.50 0.1411
894.60 0.141
894.70 0.141
894.80 0.1409
894.90 0.1408
895.00 0.1408
895.10 0.1407
895.20 0.1407
895.30 0.1406
895.40 0.1405
895.50 0.1405
895.60 0.1404
895.70 0.1403
895.80 0.1403
895.90 0.1402
896.00 0.1401
896.10 0.1401
896.20 0.14
896.30 0.14
896.40 0.1399
896.50 0.1398
896.60 0.1398
896.70 0.1397
896.80 0.1396
896.90 0.1396
897.00 0.1395
897.10 0.1392
897.20 0.139
897.30 0.1387
897.40 0.1384
897.50 0.1381
897.60 0.1379
897.70 0.1376
897.80 0.1373
897.90 0.137
898.00 0.1367
898.10 0.1365
898.20 0.1362
898.30 0.1359
898.40 0.1356
898.50 0.1354
898.60 0.1351
898.70 0.1348
898.80 0.1345
898.90 0.1343
899.00 0.134
899.10 0.1337
899.20 0.1334
899.30 0.1332
899.40 0.1329
899.50 0.1326
899.60 0.1323
899.70 0.1321
899.80 0.1318
899.90 0.1315
900.00 0.1312
900.10 0.131
900.20 0.1307
900.30 0.1304
900.40 0.1302
900.50 0.1299
900.60 0.1296
900.70 0.1293
900.80 0.1291
900.90 0.1288
901.00 0.1285
901.10 0.1282
901.20 0.128
901.30 0.1277
901.40 0.1274
901.50 0.1272
901.60 0.1269
901.70 0.1266
901.80 0.1263
901.90 0.1261
902.00 0.1258
902.10 0.1259
902.20 0.126
902.30 0.1262
902.40 0.1263
902.50 0.1264
902.60 0.1265
902.70 0.1267
902.80 0.1268
902.90 0.1269
903.00 0.127
903.10 0.1272
903.20 0.1273
903.30 0.1274
903.40 0.1275
903.50 0.1276
903.60 0.1278
903.70 0.1279
903.80 0.128
903.90 0.1281
904.00 0.1283
904.10 0.1284
904.20 0.1285
904.30 0.1286
904.40 0.1288
904.50 0.1289
904.60 0.129
904.70 0.1291
904.80 0.1292
904.90 0.1294
905.00 0.1295
905.10 0.1296
905.20 0.1297
905.30 0.1299
905.40 0.13
905.50 0.1301
905.60 0.1302
905.70 0.1303
905.80 0.1305
905.90 0.1306
906.00 0.1307
906.10 0.1308
906.20 0.131
906.30 0.1311
906.40 0.1312
906.50 0.1313
906.60 0.1314
906.70 0.1316
906.80 0.1317
906.90 0.1318
907.00 0.1319
907.10 0.1319
907.20 0.132
907.30 0.132
907.40 0.132
907.50 0.132
907.60 0.132
907.70 0.132
907.80 0.132
907.90 0.132
908.00 0.132
908.10 0.1321
908.20 0.1321
908.30 0.1321
908.40 0.1321
908.50 0.1321
908.60 0.1321
908.70 0.1321
908.80 0.1321
908.90 0.1321
909.00 0.1322
909.10 0.1322
909.20 0.1322
909.30 0.1322
909.40 0.1322
909.50 0.1322
909.60 0.1322
909.70 0.1322
909.80 0.1322
909.90 0.1323
910.00 0.1323
910.10 0.1323
910.20 0.1323
910.30 0.1323
910.40 0.1323
910.50 0.1323
910.60 0.1323
910.70 0.1323
910.80 0.1323
910.90 0.1324
911.00 0.1324
911.10 0.1324
911.20 0.1324
911.30 0.1324
911.40 0.1324
911.50 0.1324
911.60 0.1324
911.70 0.1324
911.80 0.1325
911.90 0.1325
912.00 0.1325
912.10 0.1323
912.20 0.1322
912.30 0.132
912.40 0.1319
912.50 0.1318
912.60 0.1316
912.70 0.1315
912.80 0.1313
912.90 0.1312
913.00 0.131
913.10 0.1309
913.20 0.1308
913.30 0.1306
913.40 0.1305
913.50 0.1303
913.60 0.1302
913.70 0.13
913.80 0.1299
913.90 0.1298
914.00 0.1296
914.10 0.1295
914.20 0.1293
914.30 0.1292
914.40 0.129
914.50 0.1289
914.60 0.1288
914.70 0.1286
914.80 0.1285
914.90 0.1283
915.00 0.1282
915.10 0.128
915.20 0.1279
915.30 0.1278
915.40 0.1276
915.50 0.1275
915.60 0.1273
915.70 0.1272
915.80 0.1271
915.90 0.1269
916.00 0.1268
916.10 0.1266
916.20 0.1265
916.30 0.1263
916.40 0.1262
916.50 0.1261
916.60 0.1259
916.70 0.1258
916.80 0.1256
916.90 0.1255
917.00 0.1254
917.10 0.1251
917.20 0.1248
917.30 0.1244
917.40 0.1241
917.50 0.1238
917.60 0.1235
917.70 0.1232
917.80 0.1229
917.90 0.1226
918.00 0.1223
918.10 0.122
918.20 0.1217
918.30 0.1214
918.40 0.1211
918.50 0.1208
918.60 0.1205
918.70 0.1202
918.80 0.1199
918.90 0.1196
919.00 0.1193
919.10 0.119
919.20 0.1187
919.30 0.1184
919.40 0.1181
919.50 0.1178
919.60 0.1175
919.70 0.1172
919.80 0.1169
919.90 0.1166
920.00 0.1163
920.10 0.116
920.20 0.1157
920.30 0.1154
920.40 0.1151
920.50 0.1148
920.60 0.1145
920.70 0.1142
920.80 0.114
920.90 0.1137
921.00 0.1134
921.10 0.1131
921.20 0.1128
921.30 0.1125
921.40 0.1122
921.50 0.1119
921.60 0.1116
921.70 0.1113
921.80 0.111
921.90 0.1107
922.00 0.1104
922.10 0.1104
922.20 0.1105
922.30 0.1106
922.40 0.1106
922.50 0.1107
922.60 0.1107
922.70 0.1108
922.80 0.1108
922.90 0.1109
923.00 0.111
923.10 0.111
923.20 0.1111
923.30 0.1111
923.40 0.1112
923.50 0.1112
923.60 0.1113
923.70 0.1114
923.80 0.1114
923.90 0.1115
924.00 0.1115
924.10 0.1116
924.20 0.1116
924.30 0.1117
924.40 0.1118
924.50 0.1118
924.60 0.1119
924.70 0.1119
924.80 0.112
924.90 0.112
925.00 0.1121
925.10 0.1121
925.20 0.1122
925.30 0.1123
925.40 0.1123
925.50 0.1124
925.60 0.1124
925.70 0.1125
925.80 0.1125
925.90 0.1126
926.00 0.1127
926.10 0.1127
926.20 0.1128
926.30 0.1128
926.40 0.1129
926.50 0.1129
926.60 0.113
926.70 0.113
926.80 0.1131
926.90 0.1132
927.00 0.1132
927.10 0.1133
927.20 0.1135
927.30 0.1136
927.40 0.1137
927.50 0.1139
927.60 0.114
927.70 0.1141
927.80 0.1143
927.90 0.1144
928.00 0.1145
928.10 0.1147
928.20 0.1148
928.30 0.1149
928.40 0.115
928.50 0.1152
928.60 0.1153
928.70 0.1154
928.80 0.1156
928.90 0.1157
929.00 0.1158
929.10 0.116
929.20 0.1161
929.30 0.1162
929.40 0.1163
929.50 0.1165
929.60 0.1166
929.70 0.1167
929.80 0.1169
929.90 0.117
930.00 0.1171
930.10 0.1172
930.20 0.1174
930.30 0.1175
930.40 0.1176
930.50 0.1178
930.60 0.1179
930.70 0.118
930.80 0.1182
930.90 0.1183
931.00 0.1184
931.10 0.1185
931.20 0.1187
931.30 0.1188
931.40 0.1189
931.50 0.1191
931.60 0.1192
931.70 0.1193
931.80 0.1194
931.90 0.1196
932.00 0.1197
932.10 0.1197
932.20 0.1198
932.30 0.1198
932.40 0.1199
932.50 0.1199
932.60 0.1199
932.70 0.12
932.80 0.12
932.90 0.1201
933.00 0.1201
933.10 0.1201
933.20 0.1202
933.30 0.1202
933.40 0.1203
933.50 0.1203
933.60 0.1203
933.70 0.1204
933.80 0.1204
933.90 0.1205
934.00 0.1205
934.10 0.1205
934.20 0.1206
934.30 0.1206
934.40 0.1206
934.50 0.1206
934.60 0.1206
934.70 0.1206
934.80 0.1206
934.90 0.1206
935.00 0.1206
935.10 0.1206
935.20 0.1206
935.30 0.1206
935.40 0.1206
935.50 0.1206
935.60 0.1205
935.70 0.1205
935.80 0.1205
935.90 0.1205
936.00 0.1205
936.10 0.1205
936.20 0.1205
936.30 0.1205
936.40 0.1205
936.50 0.1205
936.60 0.1205
936.70 0.1205
936.80 0.1205
936.90 0.1205
937.00 0.1205
937.10 0.1204
937.20 0.1204
937.30 0.1204
937.40 0.1203
937.50 0.1203
937.60 0.1203
937.70 0.1202
937.80 0.1202
937.90 0.1202
938.00 0.1201
938.10 0.1201
938.20 0.1201
938.30 0.12
938.40 0.12
938.50 0.1199
938.60 0.1198
938.70 0.1198
938.80 0.1197
938.90 0.1197
939.00 0.1196
939.10 0.1195
939.20 0.1195
939.30 0.1194
939.40 0.1194
939.50 0.1193
939.60 0.1192
939.70 0.1192
939.80 0.1191
939.90 0.1191
940.00 0.119
940.10 0.1189
940.20 0.1189
940.30 0.1188
940.40 0.1187
940.50 0.1187
940.60 0.1186
940.70 0.1185
940.80 0.1184
940.90 0.1183
941.00 0.1182
941.10 0.1181
941.20 0.118
941.30 0.1179
941.40 0.1178
941.50 0.1178
941.60 0.1177
941.70 0.1176
941.80 0.1175
941.90 0.1174
942.00 0.1173
942.10 0.1172
942.20 0.1171
942.30 0.117
942.40 0.1169
942.50 0.1167
942.60 0.1166
942.70 0.1165
942.80 0.1163
942.90 0.1162
943.00 0.1161
943.10 0.1159
943.20 0.1158
943.30 0.1157
943.40 0.1155
943.50 0.1154
943.60 0.1153
943.70 0.1152
943.80 0.115
943.90 0.1149
944.00 0.1148
944.10 0.1146
944.20 0.1145
944.30 0.1144
944.40 0.1142
944.50 0.114
944.60 0.1139
944.70 0.1137
944.80 0.1135
944.90 0.1134
945.00 0.1132
945.10 0.113
945.20 0.1129
945.30 0.1127
945.40 0.1125
945.50 0.1123
945.60 0.1121
945.70 0.1119
945.80 0.1117
945.90 0.1115
946.00 0.1113
946.10 0.1111
946.20 0.1109
946.30 0.1107
946.40 0.1105
946.50 0.1103
946.60 0.1101
946.70 0.1099
946.80 0.1097
946.90 0.1095
947.00 0.1093
947.10 0.1091
947.20 0.1088
947.30 0.1086
947.40 0.1084
947.50 0.1081
947.60 0.1078
947.70 0.1076
947.80 0.1073
947.90 0.1071
948.00 0.1068
948.10 0.1066
948.20 0.1063
948.30 0.106
948.40 0.1058
948.50 0.1055
948.60 0.1053
948.70 0.105
948.80 0.1048
948.90 0.1045
949.00 0.1042
949.10 0.104
949.20 0.1037
949.30 0.1035
949.40 0.1032
949.50 0.1029
949.60 0.1026
949.70 0.1023
949.80 0.102
949.90 0.1017
950.00 0.1014
950.10 0.1011
950.20 0.1008
950.30 0.1005
950.40 0.1001
950.50 0.09985
950.60 0.09955
950.70 0.09924
950.80 0.09894
950.90 0.09864
951.00 0.09834
951.10 0.09804
951.20 0.09774
951.30 0.09744
951.40 0.09712
951.50 0.0968
951.60 0.09648
951.70 0.09616
951.80 0.09585
951.90 0.09553
952.00 0.09521
952.10 0.0949
952.20 0.09459
952.30 0.09429
952.40 0.09398
952.50 0.09367
952.60 0.09337
952.70 0.09306
952.80 0.09275
952.90 0.0925
953.00 0.09225
953.10 0.092
953.20 0.09175
953.30 0.0915
953.40 0.09125
953.50 0.091
953.60 0.09091
953.70 0.09083
953.80 0.09075
953.90 0.09067
954.00 0.09111
954.10 0.09155
954.20 0.09256
954.30 0.09352
954.40 0.09232
954.50 0.0913
954.60 0.09082
954.70 0.09034
954.80 0.09037
954.90 0.0904
955.00 0.09043
955.10 0.09045
955.20 0.09064
955.30 0.09083
955.40 0.09102
955.50 0.0912
955.60 0.09139
955.70 0.09158
955.80 0.09176
955.90 0.092
956.00 0.09224
956.10 0.09248
956.20 0.09272
956.30 0.09296
956.40 0.0932
956.50 0.09344
956.60 0.09368
956.70 0.09392
956.80 0.09416
956.90 0.0944
957.00 0.09463
957.10 0.09488
957.20 0.09512
957.30 0.09536
957.40 0.09558
957.50 0.09579
957.60 0.09601
957.70 0.09623
957.80 0.09645
957.90 0.09667
958.00 0.09688
958.10 0.0971
958.20 0.09732
958.30 0.09754
958.40 0.09775
958.50 0.09797
958.60 0.09819
958.70 0.0984
958.80 0.09862
958.90 0.09884
959.00 0.09906
959.10 0.09927
959.20 0.09949
959.30 0.0997
959.40 0.09987
959.50 0.1
959.60 0.1002
959.70 0.1004
959.80 0.1005
959.90 0.1007
960.00 0.1009
960.10 0.101
960.20 0.1012
960.30 0.1013
960.40 0.1015
960.50 0.1017
960.60 0.1018
960.70 0.102
960.80 0.1022
960.90 0.1023
961.00 0.1025
961.10 0.1027
961.20 0.1028
961.30 0.103
961.40 0.1031
961.50 0.1032
961.60 0.1034
961.70 0.1035
961.80 0.1036
961.90 0.1038
962.00 0.1039
962.10 0.104
962.20 0.1041
962.30 0.1042
962.40 0.1043
962.50 0.1044
962.60 0.1045
962.70 0.1046
962.80 0.1047
962.90 0.1048
963.00 0.1049
963.10 0.105
963.20 0.1051
963.30 0.1052
963.40 0.1053
963.50 0.1054
963.60 0.1055
963.70 0.1056
963.80 0.1056
963.90 0.1057
964.00 0.1058
964.10 0.1059
964.20 0.1059
964.30 0.106
964.40 0.1061
964.50 0.1061
964.60 0.1062
964.70 0.1062
964.80 0.1063
964.90 0.1063
965.00 0.1064
965.10 0.1065
965.20 0.1065
965.30 0.1066
965.40 0.1066
965.50 0.1067
965.60 0.1067
965.70 0.1068
965.80 0.1068
965.90 0.1069
966.00 0.1069
966.10 0.107
966.20 0.107
966.30 0.1071
966.40 0.1071
966.50 0.1071
966.60 0.1072
966.70 0.1072
966.80 0.1072
966.90 0.1073
967.00 0.1073
967.10 0.1073
967.20 0.1074
967.30 0.1074
967.40 0.1074
967.50 0.1074
967.60 0.1074
967.70 0.1075
967.80 0.1075
967.90 0.1075
968.00 0.1075
968.10 0.1075
968.20 0.1076
968.30 0.1076
968.40 0.1076
968.50 0.1076
968.60 0.1076
968.70 0.1076
968.80 0.1076
968.90 0.1076
969.00 0.1076
969.10 0.1076
969.20 0.1076
969.30 0.1076
969.40 0.1076
969.50 0.1077
969.60 0.1077
969.70 0.1077
969.80 0.1077
969.90 0.1077
970.00 0.1077
970.10 0.1077
970.20 0.1077
970.30 0.1077
970.40 0.1077
970.50 0.1077
970.60 0.1077
970.70 0.1077
970.80 0.1077
970.90 0.1076
971.00 0.1076
971.10 0.1076
971.20 0.1076
971.30 0.1076
971.40 0.1076
971.50 0.1076
971.60 0.1076
971.70 0.1076
971.80 0.1076
971.90 0.1076
972.00 0.1076
972.10 0.1075
972.20 0.1075
972.30 0.1075
972.40 0.1075
972.50 0.1075
972.60 0.1074
972.70 0.1074
972.80 0.1074
972.90 0.1074
973.00 0.1074
973.10 0.1073
973.20 0.1073
973.30 0.1073
973.40 0.1073
973.50 0.1073
973.60 0.1073
973.70 0.1072
973.80 0.1072
973.90 0.1072
974.00 0.1072
974.10 0.1072
974.20 0.1071
974.30 0.1071
974.40 0.1071
974.50 0.1071
974.60 0.107
974.70 0.107
974.80 0.107
974.90 0.107
975.00 0.1069
975.10 0.1069
975.20 0.1069
975.30 0.1068
975.40 0.1068
975.50 0.1068
975.60 0.1067
975.70 0.1067
975.80 0.1067
975.90 0.1067
976.00 0.1066
976.10 0.1066
976.20 0.1066
976.30 0.1065
976.40 0.1065
976.50 0.1065
976.60 0.1065
976.70 0.1064
976.80 0.1064
976.90 0.1064
977.00 0.1063
977.10 0.1063
977.20 0.1063
977.30 0.1062
977.40 0.1062
977.50 0.1061
977.60 0.1061
977.70 0.1061
977.80 0.106
977.90 0.106
978.00 0.1059
978.10 0.1059
978.20 0.1059
978.30 0.1058
978.40 0.1058
978.50 0.1057
978.60 0.1057
978.70 0.1057
978.80 0.1056
978.90 0.1056
979.00 0.1055
979.10 0.1055
979.20 0.1055
979.30 0.1054
979.40 0.1054
979.50 0.1053
979.60 0.1053
979.70 0.1053
979.80 0.1052
979.90 0.1052
980.00 0.1051
980.10 0.1051
980.20 0.1051
980.30 0.105
980.40 0.105
980.50 0.1049
980.60 0.1049
980.70 0.1049
980.80 0.1048
980.90 0.1048
981.00 0.1047
981.10 0.1047
981.20 0.1047
981.30 0.1046
981.40 0.1046
981.50 0.1045
981.60 0.1045
981.70 0.1045
981.80 0.1044
981.90 0.1044
982.00 0.1043
982.10 0.1043
982.20 0.1042
982.30 0.1042
982.40 0.1041
982.50 0.1041
982.60 0.104
982.70 0.104
982.80 0.1039
982.90 0.1039
983.00 0.1038
983.10 0.1038
983.20 0.1037
983.30 0.1037
983.40 0.1036
983.50 0.1036
983.60 0.1035
983.70 0.1035
983.80 0.1034
983.90 0.1034
984.00 0.1033
984.10 0.1032
984.20 0.1032
984.30 0.1031
984.40 0.1031
984.50 0.103
984.60 0.103
984.70 0.1029
984.80 0.1029
984.90 0.1028
985.00 0.1027
985.10 0.1027
985.20 0.1026
985.30 0.1026
985.40 0.1025
985.50 0.1024
985.60 0.1024
985.70 0.1023
985.80 0.1023
985.90 0.1022
986.00 0.1021
986.10 0.1021
986.20 0.102
986.30 0.1019
986.40 0.1019
986.50 0.1018
986.60 0.1018
986.70 0.1017
986.80 0.1016
986.90 0.1016
987.00 0.1015
987.10 0.1014
987.20 0.1014
987.30 0.1013
987.40 0.1012
987.50 0.1012
987.60 0.1011
987.70 0.101
987.80 0.1009
987.90 0.1009
988.00 0.1008
988.10 0.1007
988.20 0.1007
988.30 0.1006
988.40 0.1005
988.50 0.1004
988.60 0.1004
988.70 0.1003
988.80 0.1002
988.90 0.1001
989.00 0.1
989.10 0.09994
989.20 0.09986
989.30 0.09977
989.40 0.09969
989.50 0.0996
989.60 0.09952
989.70 0.09943
989.80 0.09935
989.90 0.09926
990.00 0.09917
990.10 0.09909
990.20 0.099
990.30 0.09892
990.40 0.09883
990.50 0.09875
990.60 0.09866
990.70 0.09857
990.80 0.09847
990.90 0.09837
991.00 0.09827
991.10 0.09817
991.20 0.09807
991.30 0.09797
991.40 0.09787
991.50 0.09777
991.60 0.09767
991.70 0.09757
991.80 0.09747
991.90 0.09737
992.00 0.09728
992.10 0.09716
992.20 0.09705
992.30 0.09694
992.40 0.09683
992.50 0.09672
992.60 0.09661
992.70 0.09648
992.80 0.09635
992.90 0.09623
993.00 0.0961
993.10 0.09597
993.20 0.09584
993.30 0.09571
993.40 0.09559
993.50 0.09546
993.60 0.09533
993.70 0.0952
993.80 0.09508
993.90 0.09495
994.00 0.09482
994.10 0.09469
994.20 0.09457
994.30 0.09444
994.40 0.09431
994.50 0.09418
994.60 0.09406
994.70 0.09391
994.80 0.09376
994.90 0.09361
995.00 0.09346
995.10 0.09332
995.20 0.09317
995.30 0.09302
995.40 0.09287
995.50 0.09272
995.60 0.09257
995.70 0.0924
995.80 0.09223
995.90 0.09206
996.00 0.09189
996.10 0.09172
996.20 0.09155
996.30 0.09138
996.40 0.09121
996.50 0.09105
996.60 0.09088
996.70 0.09071
996.80 0.09054
996.90 0.09037
997.00 0.0902
997.10 0.09001
997.20 0.08982
997.30 0.08963
997.40 0.08944
997.50 0.08925
997.60 0.08906
997.70 0.08885
997.80 0.08864
997.90 0.08842
998.00 0.08821
998.10 0.08799
998.20 0.08777
998.30 0.08756
998.40 0.08734
998.50 0.08713
998.60 0.08691
998.70 0.08669
998.80 0.08648
998.90 0.08626
999.00 0.08605
999.10 0.08583
999.20 0.08562
999.30 0.0854
999.40 0.08519
999.50 0.08497
999.60 0.08476
999.70 0.08451
999.80 0.08425
999.90 0.08399
1000.00 0.08373
1000.10 0.08347
1000.20 0.08321
1000.30 0.08295
1000.40 0.0827
1000.50 0.08244
1000.60 0.08218
1000.70 0.08192
1000.80 0.08166
1000.90 0.0814
1001.00 0.08115
1001.10 0.08089
1001.20 0.08063
1001.30 0.08037
1001.40 0.08012
1001.50 0.07986
1001.60 0.0796
1001.70 0.07932
1001.80 0.07904
1001.90 0.07876
1002.00 0.07848
1002.10 0.07818
1002.20 0.07788
1002.30 0.07759
1002.40 0.07729
1002.50 0.07699
1002.60 0.0767
1002.70 0.0764
1002.80 0.0761
1002.90 0.07581
1003.00 0.07551
1003.10 0.07522
1003.20 0.07491
1003.30 0.0746
1003.40 0.07429
1003.50 0.07398
1003.60 0.07367
1003.70 0.07336
1003.80 0.07304
1003.90 0.07275
1004.00 0.07245
1004.10 0.07216
1004.20 0.07187
1004.30 0.0717
1004.40 0.07157
1004.50 0.07169
1004.60 0.07255
1004.70 0.07193
1004.80 0.07144
1004.90 0.07151
1005.00 0.07159
1005.10 0.0718
1005.20 0.07205
1005.30 0.07229
1005.40 0.07254
1005.50 0.07279
1005.60 0.07305
1005.70 0.07331
1005.80 0.07357
1005.90 0.07383
1006.00 0.07409
1006.10 0.07435
1006.20 0.0746
1006.30 0.07484
1006.40 0.07509
1006.50 0.07533
1006.60 0.07558
1006.70 0.07582
1006.80 0.07606
1006.90 0.07631
1007.00 0.07655
1007.10 0.07678
1007.20 0.07701
1007.30 0.07723
1007.40 0.07746
1007.50 0.07769
1007.60 0.07791
1007.70 0.07812
1007.80 0.07831
1007.90 0.07851
1008.00 0.0787
1008.10 0.0789
1008.20 0.0791
1008.30 0.07929
1008.40 0.07949
1008.50 0.07968
1008.60 0.07988
1008.70 0.08007
1008.80 0.08027
1008.90 0.08046
1009.00 0.08066
1009.10 0.08085
1009.20 0.08105
1009.30 0.08124
1009.40 0.08144
1009.50 0.08163
1009.60 0.08183
1009.70 0.08199
1009.80 0.08214
1009.90 0.08228
1010.00 0.08243
1010.10 0.08258
1010.20 0.08273
1010.30 0.08288
1010.40 0.08303
1010.50 0.08317
1010.60 0.08332
1010.70 0.08347
1010.80 0.08362
1010.90 0.08376
1011.00 0.08391
1011.10 0.08406
1011.20 0.08421
1011.30 0.08435
1011.40 0.0845
1011.50 0.08465
1011.60 0.0848
1011.70 0.08492
1011.80 0.08504
1011.90 0.08516
1012.00 0.08528
1012.10 0.08539
1012.20 0.08549
1012.30 0.08559
1012.40 0.08569
1012.50 0.08579
1012.60 0.08589
1012.70 0.08599
1012.80 0.08609
1012.90 0.0862
1013.00 0.0863
1013.10 0.0864
1013.20 0.0865
1013.30 0.0866
1013.40 0.0867
1013.50 0.0868
1013.60 0.0869
1013.70 0.08699
1013.80 0.08706
1013.90 0.08714
1014.00 0.08722
1014.10 0.0873
1014.20 0.08737
1014.30 0.08745
1014.40 0.08753
1014.50 0.0876
1014.60 0.08768
1014.70 0.08774
1014.80 0.0878
1014.90 0.08785
1015.00 0.08791
1015.10 0.08796
1015.20 0.08802
1015.30 0.08807
1015.40 0.08813
1015.50 0.08818
1015.60 0.08824
1015.70 0.0883
1015.80 0.08835
1015.90 0.08841
1016.00 0.08846
1016.10 0.08852
1016.20 0.08857
1016.30 0.08863
1016.40 0.08868
1016.50 0.08874
1016.60 0.08879
1016.70 0.08883
1016.80 0.08887
1016.90 0.08891
1017.00 0.08895
1017.10 0.08898
1017.20 0.08901
1017.30 0.08904
1017.40 0.08907
1017.50 0.0891
1017.60 0.08913
1017.70 0.08916
1017.80 0.08918
1017.90 0.08921
1018.00 0.08924
1018.10 0.08927
1018.20 0.0893
1018.30 0.08933
1018.40 0.08936
1018.50 0.08939
1018.60 0.08942
1018.70 0.08944
1018.80 0.08945
1018.90 0.08946
1019.00 0.08948
1019.10 0.08949
1019.20 0.0895
1019.30 0.08952
1019.40 0.08953
1019.50 0.08954
1019.60 0.08956
1019.70 0.08957
1019.80 0.08958
1019.90 0.0896
1020.00 0.08961
1020.10 0.08963
1020.20 0.08964
1020.30 0.08965
1020.40 0.08967
1020.50 0.08968
1020.60 0.08969
1020.70 0.0897
1020.80 0.0897
1020.90 0.0897
1021.00 0.08971
1021.10 0.08971
1021.20 0.08971
1021.30 0.08971
1021.40 0.08972
1021.50 0.08972
1021.60 0.08972
1021.70 0.08973
1021.80 0.08973
1021.90 0.08973
1022.00 0.08973
1022.10 0.08973
1022.20 0.08972
1022.30 0.08971
1022.40 0.08971
1022.50 0.0897
1022.60 0.08969
1022.70 0.08969
1022.80 0.08968
1022.90 0.08967
1023.00 0.08967
1023.10 0.08966
1023.20 0.08965
1023.30 0.08965
1023.40 0.08964
1023.50 0.08963
1023.60 0.08963
1023.70 0.08962
1023.80 0.08961
1023.90 0.08961
1024.00 0.0896
1024.10 0.08959
1024.20 0.08958
1024.30 0.08958
1024.40 0.08957
1024.50 0.08956
1024.60 0.08956
1024.70 0.08954
1024.80 0.08953
1024.90 0.08951
1025.00 0.0895
1025.10 0.08949
1025.20 0.08947
1025.30 0.08946
1025.40 0.08944
1025.50 0.08943
1025.60 0.08941
1025.70 0.0894
1025.80 0.08938
1025.90 0.08937
1026.00 0.08935
1026.10 0.08934
1026.20 0.08932
1026.30 0.08931
1026.40 0.08929
1026.50 0.08928
1026.60 0.08926
1026.70 0.08925
1026.80 0.08923
1026.90 0.08922
1027.00 0.0892
1027.10 0.08918
1027.20 0.08916
1027.30 0.08914
1027.40 0.08912
1027.50 0.0891
1027.60 0.08907
1027.70 0.08905
1027.80 0.08903
1027.90 0.08901
1028.00 0.08899
1028.10 0.08897
1028.20 0.08894
1028.30 0.08892
1028.40 0.0889
1028.50 0.08888
1028.60 0.08886
1028.70 0.08884
1028.80 0.08882
1028.90 0.08879
1029.00 0.08877
1029.10 0.08875
1029.20 0.08873
1029.30 0.08871
1029.40 0.08869
1029.50 0.08866
1029.60 0.08864
1029.70 0.08862
1029.80 0.0886
1029.90 0.08858
1030.00 0.08856
1030.10 0.08854
1030.20 0.08851
1030.30 0.08849
1030.40 0.08847
1030.50 0.08845
1030.60 0.08843
1030.70 0.08841
1030.80 0.08839
1030.90 0.08836
1031.00 0.08834
1031.10 0.08832
1031.20 0.0883
1031.30 0.08828
1031.40 0.08826
1031.50 0.08824
1031.60 0.08821
1031.70 0.08819
1031.80 0.08817
1031.90 0.08815
1032.00 0.08813
1032.10 0.0881
1032.20 0.08808
1032.30 0.08805
1032.40 0.08802
1032.50 0.088
1032.60 0.08797
1032.70 0.08794
1032.80 0.08792
1032.90 0.08789
1033.00 0.08786
1033.10 0.08784
1033.20 0.08781
1033.30 0.08779
1033.40 0.08776
1033.50 0.08773
1033.60 0.08771
1033.70 0.08768
1033.80 0.08765
1033.90 0.08763
1034.00 0.0876
1034.10 0.08757
1034.20 0.08755
1034.30 0.08752
1034.40 0.08749
1034.50 0.08747
1034.60 0.08744
1034.70 0.08742
1034.80 0.08739
1034.90 0.08736
1035.00 0.08734
1035.10 0.08731
1035.20 0.08728
1035.30 0.08726
1035.40 0.08723
1035.50 0.08721
1035.60 0.08718
1035.70 0.08715
1035.80 0.08713
1035.90 0.0871
1036.00 0.08707
1036.10 0.08705
1036.20 0.08702
1036.30 0.087
1036.40 0.08697
1036.50 0.08694
1036.60 0.08692
1036.70 0.08689
1036.80 0.08687
1036.90 0.08684
1037.00 0.08681
1037.10 0.08678
1037.20 0.08676
1037.30 0.08673
1037.40 0.0867
1037.50 0.08667
1037.60 0.08664
1037.70 0.08661
1037.80 0.08659
1037.90 0.08656
1038.00 0.08653
1038.10 0.0865
1038.20 0.08647
1038.30 0.08644
1038.40 0.08642
1038.50 0.08639
1038.60 0.08636
1038.70 0.08633
1038.80 0.0863
1038.90 0.08627
1039.00 0.08625
1039.10 0.08622
1039.20 0.08619
1039.30 0.08616
1039.40 0.08613
1039.50 0.0861
1039.60 0.08608
1039.70 0.08605
1039.80 0.08602
1039.90 0.08599
1040.00 0.08596
1040.10 0.08594
1040.20 0.08591
1040.30 0.08588
1040.40 0.08585
1040.50 0.08582
1040.60 0.08579
1040.70 0.08577
1040.80 0.08574
1040.90 0.08571
1041.00 0.08568
1041.10 0.08565
1041.20 0.08563
1041.30 0.0856
1041.40 0.08557
1041.50 0.08554
1041.60 0.08551
1041.70 0.08549
1041.80 0.08546
1041.90 0.08543
1042.00 0.0854
1042.10 0.08537
1042.20 0.08534
1042.30 0.08531
1042.40 0.08529
1042.50 0.08526
1042.60 0.08523
1042.70 0.0852
1042.80 0.08517
1042.90 0.08514
1043.00 0.08511
1043.10 0.08508
1043.20 0.08505
1043.30 0.08502
1043.40 0.08499
1043.50 0.08496
1043.60 0.08494
1043.70 0.08491
1043.80 0.08488
1043.90 0.08485
1044.00 0.08482
1044.10 0.08479
1044.20 0.08476
1044.30 0.08473
1044.40 0.0847
1044.50 0.08467
1044.60 0.08465
1044.70 0.08462
1044.80 0.08459
1044.90 0.08456
1045.00 0.08453
1045.10 0.0845
1045.20 0.08447
1045.30 0.08444
1045.40 0.08441
1045.50 0.08438
1045.60 0.08436
1045.70 0.08433
1045.80 0.0843
1045.90 0.08427
1046.00 0.08424
1046.10 0.08421
1046.20 0.08418
1046.30 0.08415
1046.40 0.08413
1046.50 0.0841
1046.60 0.08407
1046.70 0.08404
1046.80 0.08401
1046.90 0.08398
1047.00 0.08395
1047.10 0.08392
1047.20 0.08389
1047.30 0.08386
1047.40 0.08383
1047.50 0.0838
1047.60 0.08377
1047.70 0.08375
1047.80 0.08372
1047.90 0.08369
1048.00 0.08366
1048.10 0.08363
1048.20 0.0836
1048.30 0.08357
1048.40 0.08354
1048.50 0.08351
1048.60 0.08348
1048.70 0.08345
1048.80 0.08342
1048.90 0.08339
1049.00 0.08336
1049.10 0.08333
1049.20 0.0833
1049.30 0.08327
1049.40 0.08324
1049.50 0.08321
1049.60 0.08318
1049.70 0.08316
1049.80 0.08313
1049.90 0.0831
1050.00 0.08307
1050.10 0.08304
1050.20 0.08301
1050.30 0.08298
1050.40 0.08295
1050.50 0.08292
1050.60 0.08289
1050.70 0.08286
1050.80 0.08283
1050.90 0.0828
1051.00 0.08277
1051.10 0.08275
1051.20 0.08272
1051.30 0.08269
1051.40 0.08266
1051.50 0.08263
1051.60 0.0826
1051.70 0.08257
1051.80 0.08254
1051.90 0.08251
1052.00 0.08248
1052.10 0.08245
1052.20 0.08242
1052.30 0.08239
1052.40 0.08236
1052.50 0.08233
1052.60 0.0823
1052.70 0.08227
1052.80 0.08224
1052.90 0.08221
1053.00 0.08218
1053.10 0.08215
1053.20 0.08212
1053.30 0.08209
1053.40 0.08206
1053.50 0.08203
1053.60 0.082
1053.70 0.08197
1053.80 0.08194
1053.90 0.08191
1054.00 0.08188
1054.10 0.08186
1054.20 0.08183
1054.30 0.0818
1054.40 0.08177
1054.50 0.08174
1054.60 0.08171
1054.70 0.08168
1054.80 0.08165
1054.90 0.08162
1055.00 0.08159
1055.10 0.08156
1055.20 0.08153
1055.30 0.0815
1055.40 0.08147
1055.50 0.08144
1055.60 0.08141
1055.70 0.08138
1055.80 0.08135
1055.90 0.08132
1056.00 0.08129
1056.10 0.08126
1056.20 0.08123
1056.30 0.0812
1056.40 0.08117
1056.50 0.08114
1056.60 0.08111
1056.70 0.08108
1056.80 0.08106
1056.90 0.08103
1057.00 0.081
1057.10 0.08097
1057.20 0.08094
1057.30 0.0809
1057.40 0.08087
1057.50 0.08084
1057.60 0.08081
1057.70 0.08078
1057.80 0.08075
1057.90 0.08072
1058.00 0.08069
1058.10 0.08066
1058.20 0.08063
1058.30 0.0806
1058.40 0.08057
1058.50 0.08054
1058.60 0.08051
1058.70 0.08048
1058.80 0.08045
1058.90 0.08042
1059.00 0.08038
1059.10 0.08035
1059.20 0.08032
1059.30 0.08029
1059.40 0.08026
1059.50 0.08023
1059.60 0.0802
1059.70 0.08017
1059.80 0.08014
1059.90 0.08011
1060.00 0.08008
1060.10 0.08005
1060.20 0.08002
1060.30 0.07999
1060.40 0.07996
1060.50 0.07993
1060.60 0.0799
1060.70 0.07987
1060.80 0.07984
1060.90 0.07981
1061.00 0.07978
1061.10 0.07975
1061.20 0.07972
1061.30 0.07969
1061.40 0.07966
1061.50 0.07963
1061.60 0.0796
1061.70 0.07957
1061.80 0.07953
1061.90 0.0795
1062.00 0.07947
1062.10 0.07944
1062.20 0.07941
1062.30 0.07938
1062.40 0.07935
1062.50 0.07931
1062.60 0.07928
1062.70 0.07925
1062.80 0.07922
1062.90 0.07918
1063.00 0.07915
1063.10 0.07912
1063.20 0.07909
1063.30 0.07905
1063.40 0.07902
1063.50 0.07899
1063.60 0.07896
1063.70 0.07893
1063.80 0.07889
1063.90 0.07886
1064.00 0.07883
1064.10 0.0788
1064.20 0.07876
1064.30 0.07873
1064.40 0.0787
1064.50 0.07867
1064.60 0.07864
1064.70 0.0786
1064.80 0.07857
1064.90 0.07854
1065.00 0.07851
1065.10 0.07847
1065.20 0.07844
1065.30 0.07841
1065.40 0.07838
1065.50 0.07835
1065.60 0.07831
1065.70 0.07828
1065.80 0.07825
1065.90 0.07822
1066.00 0.07819
1066.10 0.07815
1066.20 0.07812
1066.30 0.07809
1066.40 0.07806
1066.50 0.07803
1066.60 0.07799
1066.70 0.07796
1066.80 0.07793
1066.90 0.0779
1067.00 0.07787
1067.10 0.07783
1067.20 0.07779
1067.30 0.07776
1067.40 0.07772
1067.50 0.07769
1067.60 0.07765
1067.70 0.07761
1067.80 0.07758
1067.90 0.07754
1068.00 0.07751
1068.10 0.07747
1068.20 0.07743
1068.30 0.0774
1068.40 0.07736
1068.50 0.07733
1068.60 0.07729
1068.70 0.07725
1068.80 0.07722
1068.90 0.07718
1069.00 0.07715
1069.10 0.07711
1069.20 0.07707
1069.30 0.07704
1069.40 0.077
1069.50 0.07697
1069.60 0.07693
1069.70 0.07689
1069.80 0.07686
1069.90 0.07682
1070.00 0.07679
1070.10 0.07675
1070.20 0.07671
1070.30 0.07668
1070.40 0.07664
1070.50 0.07661
1070.60 0.07657
1070.70 0.07654
1070.80 0.0765
1070.90 0.07646
1071.00 0.07643
1071.10 0.07639
1071.20 0.07636
1071.30 0.07632
1071.40 0.07629
1071.50 0.07625
1071.60 0.07621
1071.70 0.07618
1071.80 0.07614
1071.90 0.07611
1072.00 0.07607
1072.10 0.07603
1072.20 0.07599
1072.30 0.07595
1072.40 0.07591
1072.50 0.07586
1072.60 0.07582
1072.70 0.07578
1072.80 0.07574
1072.90 0.0757
1073.00 0.07566
1073.10 0.07561
1073.20 0.07557
1073.30 0.07553
1073.40 0.07549
1073.50 0.07545
1073.60 0.0754
1073.70 0.07535
1073.80 0.07531
1073.90 0.07526
1074.00 0.07521
1074.10 0.07516
1074.20 0.07512
1074.30 0.07507
1074.40 0.07502
1074.50 0.07497
1074.60 0.07493
1074.70 0.07488
1074.80 0.07483
1074.90 0.07479
1075.00 0.07474
1075.10 0.07469
1075.20 0.07464
1075.30 0.0746
1075.40 0.07455
1075.50 0.0745
1075.60 0.07446
1075.70 0.07441
1075.80 0.07436
1075.90 0.07432
1076.00 0.07427
1076.10 0.07422
1076.20 0.07417
1076.30 0.07413
1076.40 0.07408
1076.50 0.07403
1076.60 0.07399
1076.70 0.07394
1076.80 0.07389
1076.90 0.07385
1077.00 0.0738
1077.10 0.07374
1077.20 0.07368
1077.30 0.07362
1077.40 0.07357
1077.50 0.07351
1077.60 0.07345
1077.70 0.07339
1077.80 0.07333
1077.90 0.07327
1078.00 0.07321
1078.10 0.07314
1078.20 0.07308
1078.30 0.07302
1078.40 0.07296
1078.50 0.0729
1078.60 0.07284
1078.70 0.07278
1078.80 0.07272
1078.90 0.07266
1079.00 0.0726
1079.10 0.07254
1079.20 0.07248
1079.30 0.07242
1079.40 0.07236
1079.50 0.0723
1079.60 0.07223
1079.70 0.07215
1079.80 0.07208
1079.90 0.07201
1080.00 0.07194
1080.10 0.07186
1080.20 0.07179
1080.30 0.07172
1080.40 0.07165
1080.50 0.07158
1080.60 0.0715
1080.70 0.07143
1080.80 0.07136
1080.90 0.07129
1081.00 0.07122
1081.10 0.07114
1081.20 0.07107
1081.30 0.071
1081.40 0.07093
1081.50 0.07085
1081.60 0.07077
1081.70 0.07069
1081.80 0.07061
1081.90 0.07053
1082.00 0.07045
1082.10 0.07036
1082.20 0.07027
1082.30 0.07018
1082.40 0.07008
1082.50 0.06999
1082.60 0.0699
1082.70 0.06981
1082.80 0.06972
1082.90 0.06962
1083.00 0.06953
1083.10 0.06944
1083.20 0.06935
1083.30 0.06926
1083.40 0.06917
1083.50 0.06907
1083.60 0.06897
1083.70 0.06886
1083.80 0.06876
1083.90 0.06866
1084.00 0.06855
1084.10 0.06845
1084.20 0.06835
1084.30 0.06825
1084.40 0.06814
1084.50 0.06803
1084.60 0.06791
1084.70 0.06779
1084.80 0.06767
1084.90 0.06755
1085.00 0.06743
1085.10 0.0673
1085.20 0.06718
1085.30 0.06706
1085.40 0.06694
1085.50 0.06682
1085.60 0.0667
1085.70 0.06658
1085.80 0.06646
1085.90 0.06634
1086.00 0.06621
1086.10 0.06609
1086.20 0.06597
1086.30 0.06585
1086.40 0.06573
1086.50 0.0656
1086.60 0.06547
1086.70 0.06533
1086.80 0.06519
1086.90 0.06505
1087.00 0.06491
1087.10 0.06476
1087.20 0.06461
1087.30 0.06445
1087.40 0.0643
1087.50 0.06415
1087.60 0.06399
1087.70 0.06384
1087.80 0.06369
1087.90 0.06353
1088.00 0.06338
1088.10 0.06323
1088.20 0.06308
1088.30 0.06292
1088.40 0.06277
1088.50 0.06261
1088.60 0.06243
1088.70 0.06224
1088.80 0.06206
1088.90 0.06188
1089.00 0.0617
1089.10 0.06152
1089.20 0.06133
1089.30 0.06115
1089.40 0.06097
1089.50 0.06079
1089.60 0.06061
1089.70 0.06043
1089.80 0.06025
1089.90 0.06006
1090.00 0.05988
1090.10 0.0597
1090.20 0.05952
1090.30 0.05934
1090.40 0.05916
1090.50 0.05897
1090.60 0.05875
1090.70 0.05853
1090.80 0.05831
1090.90 0.0581
1091.00 0.05788
1091.10 0.05766
1091.20 0.05744
1091.30 0.05723
1091.40 0.05701
1091.50 0.05679
1091.60 0.05658
1091.70 0.05636
1091.80 0.05614
1091.90 0.05593
1092.00 0.0557
1092.10 0.05543
1092.20 0.05516
1092.30 0.05489
1092.40 0.05462
1092.50 0.05434
1092.60 0.05407
1092.70 0.05378
1092.80 0.05343
1092.90 0.05309
1093.00 0.05274
1093.10 0.05238
1093.20 0.052
1093.30 0.05163
1093.40 0.05157
1093.50 0.05172
1093.60 0.05151
1093.70 0.05179
1093.80 0.05214
1093.90 0.05248
1094.00 0.05279
1094.10 0.0531
1094.20 0.05342
1094.30 0.0537
1094.40 0.05394
1094.50 0.05417
1094.60 0.05441
1094.70 0.05464
1094.80 0.05487
1094.90 0.05511
1095.00 0.05532
1095.10 0.0555
1095.20 0.05568
1095.30 0.05586
1095.40 0.05604
1095.50 0.05622
1095.60 0.0564
1095.70 0.05657
1095.80 0.05675
1095.90 0.05693
1096.00 0.05711
1096.10 0.05729
1096.20 0.05747
1096.30 0.05764
1096.40 0.05782
1096.50 0.05799
1096.60 0.05814
1096.70 0.0583
1096.80 0.05845
1096.90 0.0586
1097.00 0.05875
1097.10 0.05889
1097.20 0.05902
1097.30 0.05915
1097.40 0.05929
1097.50 0.05942
1097.60 0.05955
1097.70 0.05969
1097.80 0.05982
1097.90 0.05995
1098.00 0.06008
1098.10 0.06022
1098.20 0.06035
1098.30 0.06048
1098.40 0.06062
1098.50 0.06074
1098.60 0.06084
1098.70 0.06094
1098.80 0.06105
1098.90 0.06115
1099.00 0.06125
1099.10 0.06135
1099.20 0.06146
1099.30 0.06156
1099.40 0.06166
1099.50 0.06176
1099.60 0.06187
1099.70 0.06197
1099.80 0.06207
1099.90 0.06217
1100.00 0.06228
1100.10 0.06238
1100.20 0.06248
1100.30 0.06258
1100.40 0.06268
1100.50 0.06278
1100.60 0.06285
1100.70 0.06293
1100.80 0.063
1100.90 0.06308
1101.00 0.06315
1101.10 0.06323
1101.20 0.06331
1101.30 0.06338
1101.40 0.06346
1101.50 0.06353
1101.60 0.06361
1101.70 0.06368
1101.80 0.06376
1101.90 0.06383
1102.00 0.06391
1102.10 0.06397
1102.20 0.06403
1102.30 0.06409
1102.40 0.06415
1102.50 0.06421
1102.60 0.06426
1102.70 0.06432
1102.80 0.06437
1102.90 0.06442
1103.00 0.06448
1103.10 0.06453
1103.20 0.06458
1103.30 0.06464
1103.40 0.06469
1103.50 0.06474
1103.60 0.06478
1103.70 0.06481
1103.80 0.06485
1103.90 0.06489
1104.00 0.06493
1104.10 0.06497
1104.20 0.065
1104.30 0.06504
1104.40 0.06508
1104.50 0.06512
1104.60 0.06516
1104.70 0.06519
1104.80 0.06523
1104.90 0.06527
1105.00 0.06531
1105.10 0.06535
1105.20 0.06539
1105.30 0.06542
1105.40 0.06546
1105.50 0.06549
1105.60 0.06552
1105.70 0.06554
1105.80 0.06556
1105.90 0.06559
1106.00 0.06561
1106.10 0.06563
1106.20 0.06566
1106.30 0.06568
1106.40 0.0657
1106.50 0.06572
1106.60 0.06575
1106.70 0.06577
1106.80 0.06579
1106.90 0.06582
1107.00 0.06584
1107.10 0.06586
1107.20 0.06587
1107.30 0.06589
1107.40 0.0659
1107.50 0.06591
1107.60 0.06592
1107.70 0.06593
1107.80 0.06594
1107.90 0.06595
1108.00 0.06596
1108.10 0.06597
1108.20 0.06598
1108.30 0.06599
1108.40 0.066
1108.50 0.06601
1108.60 0.06602
1108.70 0.06603
1108.80 0.06604
1108.90 0.06605
1109.00 0.06605
1109.10 0.06606
1109.20 0.06607
1109.30 0.06608
1109.40 0.06609
1109.50 0.0661
1109.60 0.0661
1109.70 0.0661
1109.80 0.0661
1109.90 0.0661
1110.00 0.0661
1110.10 0.0661
1110.20 0.0661
1110.30 0.0661
1110.40 0.0661
1110.50 0.0661
1110.60 0.0661
1110.70 0.0661
1110.80 0.0661
1110.90 0.0661
1111.00 0.0661
1111.10 0.0661
1111.20 0.0661
1111.30 0.06609
1111.40 0.06609
1111.50 0.06609
1111.60 0.06609
1111.70 0.06609
1111.80 0.06609
1111.90 0.06609
1112.00 0.06609
1112.10 0.06609
1112.20 0.06608
1112.30 0.06608
1112.40 0.06607
1112.50 0.06607
1112.60 0.06606
1112.70 0.06605
1112.80 0.06605
1112.90 0.06604
1113.00 0.06604
1113.10 0.06603
1113.20 0.06603
1113.30 0.06602
1113.40 0.06601
1113.50 0.06601
1113.60 0.066
1113.70 0.06598
1113.80 0.06597
1113.90 0.06596
1114.00 0.06595
1114.10 0.06594
1114.20 0.06593
1114.30 0.06592
1114.40 0.06591
1114.50 0.0659
1114.60 0.06588
1114.70 0.06587
1114.80 0.06586
1114.90 0.06585
1115.00 0.06584
1115.10 0.06583
1115.20 0.06582
1115.30 0.06581
1115.40 0.0658
1115.50 0.06578
1115.60 0.06577
1115.70 0.06576
1115.80 0.06575
1115.90 0.06574
1116.00 0.06573
1116.10 0.06572
1116.20 0.06571
1116.30 0.0657
1116.40 0.06569
1116.50 0.06567
1116.60 0.06566
1116.70 0.06565
1116.80 0.06564
1116.90 0.06563
1117.00 0.06562
1117.10 0.0656
1117.20 0.06559
1117.30 0.06557
1117.40 0.06556
1117.50 0.06554
1117.60 0.06553
1117.70 0.06551
1117.80 0.06549
1117.90 0.06548
1118.00 0.06546
1118.10 0.06545
1118.20 0.06543
1118.30 0.06542
1118.40 0.0654
1118.50 0.06538
1118.60 0.06537
1118.70 0.06535
1118.80 0.06534
1118.90 0.06532
1119.00 0.06531
1119.10 0.06529
1119.20 0.06528
1119.30 0.06526
1119.40 0.06524
1119.50 0.06523
1119.60 0.06521
1119.70 0.0652
1119.80 0.06518
1119.90 0.06517
1120.00 0.06515
1120.10 0.06514
1120.20 0.06512
1120.30 0.0651
1120.40 0.06509
1120.50 0.06507
1120.60 0.06506
1120.70 0.06504
1120.80 0.06503
1120.90 0.06501
1121.00 0.065
1121.10 0.06498
1121.20 0.06496
1121.30 0.06495
1121.40 0.06493
1121.50 0.06492
1121.60 0.0649
1121.70 0.06489
1121.80 0.06487
1121.90 0.06486
1122.00 0.06484
1122.10 0.06482
1122.20 0.0648
1122.30 0.06479
1122.40 0.06477
1122.50 0.06475
1122.60 0.06473
1122.70 0.06471
1122.80 0.06469
1122.90 0.06468
1123.00 0.06466
1123.10 0.06464
1123.20 0.06462
1123.30 0.0646
1123.40 0.06458
1123.50 0.06457
1123.60 0.06455
1123.70 0.06453
1123.80 0.06451
1123.90 0.06449
1124.00 0.06447
1124.10 0.06446
1124.20 0.06444
1124.30 0.06442
1124.40 0.0644
1124.50 0.06438
1124.60 0.06437
1124.70 0.06435
1124.80 0.06433
1124.90 0.06431
1125.00 0.06429
1125.10 0.06427
1125.20 0.06426
1125.30 0.06424
1125.40 0.06422
1125.50 0.0642
1125.60 0.06418
1125.70 0.06417
1125.80 0.06415
1125.90 0.06413
1126.00 0.06411
1126.10 0.06409
1126.20 0.06407
1126.30 0.06406
1126.40 0.06404
1126.50 0.06402
1126.60 0.064
1126.70 0.06398
1126.80 0.06397
1126.90 0.06395
1127.00 0.06393
1127.10 0.06391
1127.20 0.06389
1127.30 0.06387
1127.40 0.06385
1127.50 0.06383
1127.60 0.06381
1127.70 0.06379
1127.80 0.06378
1127.90 0.06376
1128.00 0.06374
1128.10 0.06372
1128.20 0.0637
1128.30 0.06368
1128.40 0.06366
1128.50 0.06364
1128.60 0.06362
1128.70 0.0636
1128.80 0.06358
1128.90 0.06356
1129.00 0.06355
1129.10 0.06353
1129.20 0.06351
1129.30 0.06349
1129.40 0.06347
1129.50 0.06345
1129.60 0.06343
1129.70 0.06341
1129.80 0.06339
1129.90 0.06337
1130.00 0.06335
1130.10 0.06334
1130.20 0.06332
1130.30 0.0633
1130.40 0.06328
1130.50 0.06326
1130.60 0.06324
1130.70 0.06322
1130.80 0.0632
1130.90 0.06318
1131.00 0.06316
1131.10 0.06315
1131.20 0.06313
1131.30 0.06311
1131.40 0.06309
1131.50 0.06307
1131.60 0.06305
1131.70 0.06303
1131.80 0.06301
1131.90 0.06299
1132.00 0.06297
1132.10 0.06295
1132.20 0.06294
1132.30 0.06292
1132.40 0.0629
1132.50 0.06288
1132.60 0.06286
1132.70 0.06284
1132.80 0.06282
1132.90 0.0628
1133.00 0.06278
1133.10 0.06276
1133.20 0.06274
1133.30 0.06272
1133.40 0.0627
1133.50 0.06268
1133.60 0.06266
1133.70 0.06264
1133.80 0.06262
1133.90 0.0626
1134.00 0.06259
1134.10 0.06257
1134.20 0.06255
1134.30 0.06253
1134.40 0.06251
1134.50 0.06249
1134.60 0.06247
1134.70 0.06245
1134.80 0.06243
1134.90 0.06241
1135.00 0.06239
1135.10 0.06237
1135.20 0.06235
1135.30 0.06233
1135.40 0.06231
1135.50 0.06229
1135.60 0.06228
1135.70 0.06226
1135.80 0.06224
1135.90 0.06222
1136.00 0.0622
1136.10 0.06218
1136.20 0.06216
1136.30 0.06214
1136.40 0.06212
1136.50 0.0621
1136.60 0.06208
1136.70 0.06206
1136.80 0.06204
1136.90 0.06202
1137.00 0.06201
1137.10 0.06199
1137.20 0.06197
1137.30 0.06195
1137.40 0.06193
1137.50 0.06191
1137.60 0.06189
1137.70 0.06187
1137.80 0.06185
1137.90 0.06183
1138.00 0.06181
1138.10 0.06179
1138.20 0.06177
1138.30 0.06175
1138.40 0.06173
1138.50 0.06171
1138.60 0.06169
1138.70 0.06167
1138.80 0.06166
1138.90 0.06164
1139.00 0.06162
1139.10 0.0616
1139.20 0.06158
1139.30 0.06156
1139.40 0.06154
1139.50 0.06152
1139.60 0.0615
1139.70 0.06148
1139.80 0.06146
1139.90 0.06144
1140.00 0.06142
1140.10 0.0614
1140.20 0.06138
1140.30 0.06136
1140.40 0.06135
1140.50 0.06133
1140.60 0.06131
1140.70 0.06129
1140.80 0.06127
1140.90 0.06125
1141.00 0.06123
1141.10 0.06121
1141.20 0.06119
1141.30 0.06117
1141.40 0.06115
1141.50 0.06113
1141.60 0.06111
1141.70 0.06109
1141.80 0.06108
1141.90 0.06106
1142.00 0.06104
1142.10 0.06102
1142.20 0.061
1142.30 0.06098
1142.40 0.06096
1142.50 0.06094
1142.60 0.06092
1142.70 0.0609
1142.80 0.06088
1142.90 0.06086
1143.00 0.06084
1143.10 0.06082
1143.20 0.06081
1143.30 0.06079
1143.40 0.06077
1143.50 0.06075
1143.60 0.06073
1143.70 0.06071
1143.80 0.06069
1143.90 0.06067
1144.00 0.06065
1144.10 0.06063
1144.20 0.06061
1144.30 0.06059
1144.40 0.06057
1144.50 0.06055
1144.60 0.06054
1144.70 0.06052
1144.80 0.0605
1144.90 0.06048
1145.00 0.06046
1145.10 0.06044
1145.20 0.06042
1145.30 0.0604
1145.40 0.06038
1145.50 0.06036
1145.60 0.06034
1145.70 0.06032
1145.80 0.06031
1145.90 0.06029
1146.00 0.06027
1146.10 0.06025
1146.20 0.06023
1146.30 0.06021
1146.40 0.06019
1146.50 0.06017
1146.60 0.06015
1146.70 0.06013
1146.80 0.06011
1146.90 0.0601
1147.00 0.06008
1147.10 0.06006
1147.20 0.06004
1147.30 0.06002
1147.40 0.06
1147.50 0.05998
1147.60 0.05996
1147.70 0.05994
1147.80 0.05992
1147.90 0.0599
1148.00 0.05989
1148.10 0.05987
1148.20 0.05985
1148.30 0.05983
1148.40 0.05981
1148.50 0.05979
1148.60 0.05977
1148.70 0.05975
1148.80 0.05973
1148.90 0.05971
1149.00 0.05969
1149.10 0.05968
1149.20 0.05966
1149.30 0.05964
1149.40 0.05962
1149.50 0.0596
1149.60 0.05958
1149.70 0.05956
1149.80 0.05954
1149.90 0.05952
1150.00 0.0595
1150.10 0.05949
1150.20 0.05947
1150.30 0.05945
1150.40 0.05943
1150.50 0.05941
1150.60 0.05939
1150.70 0.05937
1150.80 0.05935
1150.90 0.05933
1151.00 0.05932
1151.10 0.0593
1151.20 0.05928
1151.30 0.05926
1151.40 0.05924
1151.50 0.05922
1151.60 0.0592
1151.70 0.05918
1151.80 0.05916
1151.90 0.05915
1152.00 0.05913
1152.10 0.05911
1152.20 0.05909
1152.30 0.05907
1152.40 0.05905
1152.50 0.05903
1152.60 0.05901
1152.70 0.05899
1152.80 0.05898
1152.90 0.05896
1153.00 0.05894
1153.10 0.05892
1153.20 0.0589
1153.30 0.05888
1153.40 0.05886
1153.50 0.05884
1153.60 0.05883
1153.70 0.05881
1153.80 0.05879
1153.90 0.05877
1154.00 0.05875
1154.10 0.05873
1154.20 0.05871
1154.30 0.05869
1154.40 0.05868
1154.50 0.05866
1154.60 0.05864
1154.70 0.05862
1154.80 0.0586
1154.90 0.05858
1155.00 0.05856
1155.10 0.05855
1155.20 0.05853
1155.30 0.05851
1155.40 0.05849
1155.50 0.05847
1155.60 0.05845
1155.70 0.05843
1155.80 0.05841
1155.90 0.0584
1156.00 0.05838
1156.10 0.05836
1156.20 0.05834
1156.30 0.05832
1156.40 0.0583
1156.50 0.05828
1156.60 0.05827
1156.70 0.05825
1156.80 0.05823
1156.90 0.05821
1157.00 0.05819
1157.10 0.05817
1157.20 0.05815
1157.30 0.05814
1157.40 0.05812
1157.50 0.0581
1157.60 0.05808
1157.70 0.05806
1157.80 0.05804
1157.90 0.05803
1158.00 0.05801
1158.10 0.05799
1158.20 0.05797
1158.30 0.05795
1158.40 0.05793
1158.50 0.05791
1158.60 0.0579
1158.70 0.05788
1158.80 0.05786
1158.90 0.05784
1159.00 0.05782
1159.10 0.0578
1159.20 0.05779
1159.30 0.05777
1159.40 0.05775
1159.50 0.05773
1159.60 0.05771
1159.70 0.05769
1159.80 0.05768
1159.90 0.05766
1160.00 0.05764
1160.10 0.05762
1160.20 0.0576
1160.30 0.05758
1160.40 0.05757
1160.50 0.05755
1160.60 0.05753
1160.70 0.05751
1160.80 0.05749
1160.90 0.05747
1161.00 0.05746
1161.10 0.05744
1161.20 0.05742
1161.30 0.0574
1161.40 0.05738
1161.50 0.05736
1161.60 0.05735
1161.70 0.05733
1161.80 0.05731
1161.90 0.05729
1162.00 0.05727
1162.10 0.05725
1162.20 0.05724
1162.30 0.05722
1162.40 0.0572
1162.50 0.05718
1162.60 0.05716
1162.70 0.05715
1162.80 0.05713
1162.90 0.05711
1163.00 0.05709
1163.10 0.05707
1163.20 0.05705
1163.30 0.05704
1163.40 0.05702
1163.50 0.057
1163.60 0.05698
1163.70 0.05696
1163.80 0.05695
1163.90 0.05693
1164.00 0.05691
1164.10 0.05689
1164.20 0.05687
1164.30 0.05686
1164.40 0.05684
1164.50 0.05682
1164.60 0.0568
1164.70 0.05678
1164.80 0.05677
1164.90 0.05675
1165.00 0.05673
1165.10 0.05671
1165.20 0.05669
1165.30 0.05667
1165.40 0.05666
1165.50 0.05664
1165.60 0.05662
1165.70 0.0566
1165.80 0.05658
1165.90 0.05657
1166.00 0.05655
1166.10 0.05653
1166.20 0.05651
1166.30 0.05649
1166.40 0.05648
1166.50 0.05646
1166.60 0.05644
1166.70 0.05642
1166.80 0.05641
1166.90 0.05639
1167.00 0.05637
1167.10 0.05635
1167.20 0.05633
1167.30 0.05632
1167.40 0.0563
1167.50 0.05628
1167.60 0.05626
1167.70 0.05624
1167.80 0.05623
1167.90 0.05621
1168.00 0.05619
1168.10 0.05617
1168.20 0.05615
1168.30 0.05614
1168.40 0.05612
1168.50 0.0561
1168.60 0.05608
1168.70 0.05607
1168.80 0.05605
1168.90 0.05603
1169.00 0.05601
1169.10 0.05599
1169.20 0.05598
1169.30 0.05596
1169.40 0.05594
1169.50 0.05592
1169.60 0.05591
1169.70 0.05589
1169.80 0.05587
1169.90 0.05585
1170.00 0.05583
1170.10 0.05582
1170.20 0.0558
1170.30 0.05578
1170.40 0.05576
1170.50 0.05575
1170.60 0.05573
1170.70 0.05571
1170.80 0.05569
1170.90 0.05567
1171.00 0.05566
1171.10 0.05564
1171.20 0.05562
1171.30 0.0556
1171.40 0.05559
1171.50 0.05557
1171.60 0.05555
1171.70 0.05553
1171.80 0.05552
1171.90 0.0555
1172.00 0.05548
1172.10 0.05546
1172.20 0.05545
1172.30 0.05543
1172.40 0.05541
1172.50 0.05539
1172.60 0.05537
1172.70 0.05536
1172.80 0.05534
1172.90 0.05532
1173.00 0.0553
1173.10 0.05529
1173.20 0.05527
1173.30 0.05525
1173.40 0.05523
1173.50 0.05522
1173.60 0.0552
1173.70 0.05518
1173.80 0.05516
1173.90 0.05515
1174.00 0.05513
1174.10 0.05511
1174.20 0.0551
1174.30 0.05508
1174.40 0.05506
1174.50 0.05504
1174.60 0.05503
1174.70 0.05501
1174.80 0.05499
1174.90 0.05497
1175.00 0.05496
1175.10 0.05494
1175.20 0.05492
1175.30 0.0549
1175.40 0.05489
1175.50 0.05487
1175.60 0.05485
1175.70 0.05483
1175.80 0.05482
1175.90 0.0548
1176.00 0.05478
1176.10 0.05476
1176.20 0.05475
1176.30 0.05473
1176.40 0.05471
1176.50 0.0547
1176.60 0.05468
1176.70 0.05466
1176.80 0.05464
1176.90 0.05463
1177.00 0.05461
1177.10 0.05459
1177.20 0.05457
1177.30 0.05456
1177.40 0.05454
1177.50 0.05452
1177.60 0.05451
1177.70 0.05449
1177.80 0.05447
1177.90 0.05445
1178.00 0.05444
1178.10 0.05442
1178.20 0.0544
1178.30 0.05438
1178.40 0.05437
1178.50 0.05435
1178.60 0.05433
1178.70 0.05432
1178.80 0.0543
1178.90 0.05428
1179.00 0.05426
1179.10 0.05425
1179.20 0.05423
1179.30 0.05421
1179.40 0.0542
1179.50 0.05418
1179.60 0.05416
1179.70 0.05414
1179.80 0.05413
1179.90 0.05411
1180.00 0.05409
1180.10 0.05408
1180.20 0.05406
1180.30 0.05404
1180.40 0.05402
1180.50 0.05401
1180.60 0.05399
1180.70 0.05397
1180.80 0.05396
1180.90 0.05394
1181.00 0.05392
1181.10 0.05391
1181.20 0.05389
1181.30 0.05387
1181.40 0.05385
1181.50 0.05384
1181.60 0.05382
1181.70 0.0538
1181.80 0.05379
1181.90 0.05377
1182.00 0.05375
1182.10 0.05374
1182.20 0.05372
1182.30 0.0537
1182.40 0.05368
1182.50 0.05367
1182.60 0.05365
1182.70 0.05363
1182.80 0.05362
1182.90 0.0536
1183.00 0.05358
1183.10 0.05357
1183.20 0.05355
1183.30 0.05353
1183.40 0.05352
1183.50 0.0535
1183.60 0.05348
1183.70 0.05347
1183.80 0.05345
1183.90 0.05343
1184.00 0.05341
1184.10 0.0534
1184.20 0.05338
1184.30 0.05336
1184.40 0.05335
1184.50 0.05333
1184.60 0.05331
1184.70 0.0533
1184.80 0.05328
1184.90 0.05326
1185.00 0.05325
1185.10 0.05323
1185.20 0.05321
1185.30 0.0532
1185.40 0.05318
1185.50 0.05316
1185.60 0.05315
1185.70 0.05313
1185.80 0.05311
1185.90 0.0531
1186.00 0.05308
1186.10 0.05306
1186.20 0.05305
1186.30 0.05303
1186.40 0.05301
1186.50 0.05299
1186.60 0.05298
1186.70 0.05296
1186.80 0.05294
1186.90 0.05293
1187.00 0.05291
1187.10 0.05289
1187.20 0.05288
1187.30 0.05286
1187.40 0.05284
1187.50 0.05283
1187.60 0.05281
1187.70 0.0528
1187.80 0.05278
1187.90 0.05276
1188.00 0.05275
1188.10 0.05273
1188.20 0.05271
1188.30 0.0527
1188.40 0.05268
1188.50 0.05266
1188.60 0.05265
1188.70 0.05263
1188.80 0.05261
1188.90 0.0526
1189.00 0.05258
1189.10 0.05256
1189.20 0.05255
1189.30 0.05253
1189.40 0.05251
1189.50 0.0525
1189.60 0.05248
1189.70 0.05246
1189.80 0.05245
1189.90 0.05243
1190.00 0.05241
1190.10 0.0524
1190.20 0.05238
1190.30 0.05236
1190.40 0.05235
1190.50 0.05233
1190.60 0.05232
1190.70 0.0523
1190.80 0.05228
1190.90 0.05227
1191.00 0.05225
1191.10 0.05223
1191.20 0.05222
1191.30 0.0522
1191.40 0.05218
1191.50 0.05217
1191.60 0.05215
1191.70 0.05213
1191.80 0.05212
1191.90 0.0521
1192.00 0.05209
1192.10 0.05207
1192.20 0.05205
1192.30 0.05204
1192.40 0.05202
1192.50 0.052
1192.60 0.05199
1192.70 0.05197
1192.80 0.05195
1192.90 0.05194
1193.00 0.05192
1193.10 0.05191
1193.20 0.05189
1193.30 0.05187
1193.40 0.05186
1193.50 0.05184
1193.60 0.05182
1193.70 0.05181
1193.80 0.05179
1193.90 0.05178
1194.00 0.05176
1194.10 0.05174
1194.20 0.05173
1194.30 0.05171
1194.40 0.05169
1194.50 0.05168
1194.60 0.05166
1194.70 0.05165
1194.80 0.05163
1194.90 0.05161
1195.00 0.0516
1195.10 0.05158
1195.20 0.05156
1195.30 0.05155
1195.40 0.05153
1195.50 0.05152
1195.60 0.0515
1195.70 0.05148
1195.80 0.05147
1195.90 0.05145
1196.00 0.05144
1196.10 0.05142
1196.20 0.0514
1196.30 0.05139
1196.40 0.05137
1196.50 0.05135
1196.60 0.05134
1196.70 0.05132
1196.80 0.05131
1196.90 0.05129
1197.00 0.05127
1197.10 0.05126
1197.20 0.05124
1197.30 0.05123
1197.40 0.05121
1197.50 0.05119
1197.60 0.05118
1197.70 0.05116
1197.80 0.05115
1197.90 0.05113
1198.00 0.05111
1198.10 0.0511
1198.20 0.05108
1198.30 0.05107
1198.40 0.05105
1198.50 0.05103
1198.60 0.05102
1198.70 0.051
1198.80 0.05099
1198.90 0.05097
1199.00 0.05095
1199.10 0.05094
1199.20 0.05092
1199.30 0.05091
1199.40 0.05089
1199.50 0.05087
1199.60 0.05086
1199.70 0.05084
1199.80 0.05083
1199.90 0.05081
1200.00 0
