# Version 2.1 - nm, norm@500 to 1, cut digits, bergeron_17000_80.dat_17000
# Wavelength(nm)  Flambda(ergs/cm^s/s/nm)
300.00 2.687
300.10 2.685
300.20 2.683
300.30 2.68
300.40 2.678
300.50 2.676
300.60 2.673
300.70 2.671
300.80 2.669
300.90 2.667
301.00 2.664
301.10 2.662
301.20 2.66
301.30 2.657
301.40 2.655
301.50 2.653
301.60 2.65
301.70 2.648
301.80 2.646
301.90 2.644
302.00 2.641
302.10 2.639
302.20 2.637
302.30 2.635
302.40 2.632
302.50 2.63
302.60 2.628
302.70 2.626
302.80 2.623
302.90 2.621
303.00 2.619
303.10 2.617
303.20 2.614
303.30 2.612
303.40 2.61
303.50 2.608
303.60 2.605
303.70 2.603
303.80 2.601
303.90 2.599
304.00 2.596
304.10 2.594
304.20 2.592
304.30 2.59
304.40 2.588
304.50 2.585
304.60 2.583
304.70 2.581
304.80 2.579
304.90 2.577
305.00 2.574
305.10 2.572
305.20 2.57
305.30 2.568
305.40 2.566
305.50 2.563
305.60 2.561
305.70 2.559
305.80 2.557
305.90 2.555
306.00 2.553
306.10 2.55
306.20 2.548
306.30 2.546
306.40 2.544
306.50 2.542
306.60 2.54
306.70 2.537
306.80 2.535
306.90 2.533
307.00 2.531
307.10 2.529
307.20 2.527
307.30 2.525
307.40 2.522
307.50 2.52
307.60 2.518
307.70 2.516
307.80 2.514
307.90 2.512
308.00 2.51
308.10 2.507
308.20 2.505
308.30 2.503
308.40 2.501
308.50 2.499
308.60 2.497
308.70 2.495
308.80 2.493
308.90 2.491
309.00 2.488
309.10 2.486
309.20 2.484
309.30 2.482
309.40 2.48
309.50 2.478
309.60 2.476
309.70 2.474
309.80 2.472
309.90 2.47
310.00 2.468
310.10 2.466
310.20 2.463
310.30 2.461
310.40 2.459
310.50 2.457
310.60 2.455
310.70 2.453
310.80 2.451
310.90 2.449
311.00 2.447
311.10 2.445
311.20 2.443
311.30 2.441
311.40 2.439
311.50 2.437
311.60 2.435
311.70 2.433
311.80 2.431
311.90 2.429
312.00 2.427
312.10 2.425
312.20 2.423
312.30 2.42
312.40 2.418
312.50 2.416
312.60 2.414
312.70 2.412
312.80 2.41
312.90 2.408
313.00 2.406
313.10 2.404
313.20 2.402
313.30 2.4
313.40 2.398
313.50 2.396
313.60 2.394
313.70 2.392
313.80 2.39
313.90 2.388
314.00 2.386
314.10 2.384
314.20 2.382
314.30 2.38
314.40 2.379
314.50 2.377
314.60 2.375
314.70 2.373
314.80 2.371
314.90 2.369
315.00 2.367
315.10 2.365
315.20 2.363
315.30 2.361
315.40 2.359
315.50 2.357
315.60 2.355
315.70 2.353
315.80 2.351
315.90 2.349
316.00 2.347
316.10 2.345
316.20 2.343
316.30 2.341
316.40 2.339
316.50 2.337
316.60 2.335
316.70 2.334
316.80 2.332
316.90 2.33
317.00 2.328
317.10 2.326
317.20 2.324
317.30 2.322
317.40 2.32
317.50 2.318
317.60 2.316
317.70 2.314
317.80 2.312
317.90 2.31
318.00 2.309
318.10 2.307
318.20 2.305
318.30 2.303
318.40 2.301
318.50 2.299
318.60 2.297
318.70 2.295
318.80 2.293
318.90 2.292
319.00 2.29
319.10 2.288
319.20 2.286
319.30 2.284
319.40 2.282
319.50 2.28
319.60 2.278
319.70 2.277
319.80 2.275
319.90 2.273
320.00 2.271
320.10 2.269
320.20 2.267
320.30 2.265
320.40 2.264
320.50 2.262
320.60 2.26
320.70 2.258
320.80 2.256
320.90 2.254
321.00 2.253
321.10 2.251
321.20 2.249
321.30 2.247
321.40 2.245
321.50 2.243
321.60 2.242
321.70 2.24
321.80 2.238
321.90 2.236
322.00 2.234
322.10 2.232
322.20 2.231
322.30 2.229
322.40 2.227
322.50 2.225
322.60 2.223
322.70 2.222
322.80 2.22
322.90 2.218
323.00 2.216
323.10 2.214
323.20 2.213
323.30 2.211
323.40 2.209
323.50 2.207
323.60 2.205
323.70 2.204
323.80 2.202
323.90 2.2
324.00 2.198
324.10 2.196
324.20 2.195
324.30 2.193
324.40 2.191
324.50 2.189
324.60 2.188
324.70 2.186
324.80 2.184
324.90 2.182
325.00 2.181
325.10 2.179
325.20 2.177
325.30 2.175
325.40 2.173
325.50 2.172
325.60 2.17
325.70 2.168
325.80 2.166
325.90 2.165
326.00 2.163
326.10 2.161
326.20 2.159
326.30 2.158
326.40 2.156
326.50 2.154
326.60 2.153
326.70 2.151
326.80 2.149
326.90 2.147
327.00 2.146
327.10 2.144
327.20 2.142
327.30 2.14
327.40 2.139
327.50 2.137
327.60 2.135
327.70 2.134
327.80 2.132
327.90 2.13
328.00 2.128
328.10 2.127
328.20 2.125
328.30 2.123
328.40 2.122
328.50 2.12
328.60 2.118
328.70 2.117
328.80 2.115
328.90 2.113
329.00 2.112
329.10 2.11
329.20 2.108
329.30 2.106
329.40 2.105
329.50 2.103
329.60 2.101
329.70 2.1
329.80 2.098
329.90 2.096
330.00 2.095
330.10 2.093
330.20 2.091
330.30 2.09
330.40 2.088
330.50 2.086
330.60 2.085
330.70 2.083
330.80 2.081
330.90 2.08
331.00 2.078
331.10 2.076
331.20 2.075
331.30 2.073
331.40 2.071
331.50 2.07
331.60 2.068
331.70 2.066
331.80 2.065
331.90 2.063
332.00 2.062
332.10 2.06
332.20 2.058
332.30 2.057
332.40 2.055
332.50 2.053
332.60 2.052
332.70 2.05
332.80 2.049
332.90 2.047
333.00 2.045
333.10 2.044
333.20 2.042
333.30 2.04
333.40 2.039
333.50 2.037
333.60 2.036
333.70 2.034
333.80 2.032
333.90 2.031
334.00 2.029
334.10 2.028
334.20 2.026
334.30 2.024
334.40 2.023
334.50 2.021
334.60 2.02
334.70 2.018
334.80 2.016
334.90 2.015
335.00 2.013
335.10 2.012
335.20 2.01
335.30 2.009
335.40 2.007
335.50 2.005
335.60 2.004
335.70 2.002
335.80 2.001
335.90 1.999
336.00 1.998
336.10 1.996
336.20 1.994
336.30 1.993
336.40 1.991
336.50 1.99
336.60 1.988
336.70 1.987
336.80 1.985
336.90 1.983
337.00 1.982
337.10 1.98
337.20 1.979
337.30 1.977
337.40 1.976
337.50 1.974
337.60 1.973
337.70 1.971
337.80 1.969
337.90 1.968
338.00 1.966
338.10 1.965
338.20 1.963
338.30 1.962
338.40 1.96
338.50 1.959
338.60 1.957
338.70 1.956
338.80 1.954
338.90 1.953
339.00 1.951
339.10 1.95
339.20 1.948
339.30 1.947
339.40 1.945
339.50 1.943
339.60 1.942
339.70 1.94
339.80 1.939
339.90 1.937
340.00 1.936
340.10 1.934
340.20 1.933
340.30 1.931
340.40 1.93
340.50 1.928
340.60 1.927
340.70 1.925
340.80 1.924
340.90 1.922
341.00 1.921
341.10 1.919
341.20 1.918
341.30 1.916
341.40 1.915
341.50 1.913
341.60 1.912
341.70 1.911
341.80 1.909
341.90 1.908
342.00 1.906
342.10 1.905
342.20 1.903
342.30 1.902
342.40 1.9
342.50 1.899
342.60 1.897
342.70 1.896
342.80 1.894
342.90 1.893
343.00 1.891
343.10 1.89
343.20 1.888
343.30 1.887
343.40 1.886
343.50 1.884
343.60 1.883
343.70 1.881
343.80 1.88
343.90 1.878
344.00 1.877
344.10 1.875
344.20 1.874
344.30 1.872
344.40 1.871
344.50 1.87
344.60 1.868
344.70 1.867
344.80 1.865
344.90 1.864
345.00 1.862
345.10 1.861
345.20 1.86
345.30 1.858
345.40 1.857
345.50 1.855
345.60 1.854
345.70 1.852
345.80 1.851
345.90 1.85
346.00 1.848
346.10 1.847
346.20 1.845
346.30 1.844
346.40 1.843
346.50 1.841
346.60 1.84
346.70 1.838
346.80 1.837
346.90 1.835
347.00 1.834
347.10 1.833
347.20 1.831
347.30 1.83
347.40 1.828
347.50 1.827
347.60 1.826
347.70 1.824
347.80 1.823
347.90 1.822
348.00 1.82
348.10 1.819
348.20 1.817
348.30 1.816
348.40 1.815
348.50 1.813
348.60 1.812
348.70 1.81
348.80 1.809
348.90 1.808
349.00 1.806
349.10 1.805
349.20 1.804
349.30 1.802
349.40 1.801
349.50 1.799
349.60 1.798
349.70 1.797
349.80 1.795
349.90 1.794
350.00 1.793
350.10 1.791
350.20 1.79
350.30 1.788
350.40 1.787
350.50 1.786
350.60 1.784
350.70 1.783
350.80 1.782
350.90 1.78
351.00 1.779
351.10 1.778
351.20 1.776
351.30 1.775
351.40 1.774
351.50 1.772
351.60 1.771
351.70 1.77
351.80 1.768
351.90 1.767
352.00 1.766
352.10 1.764
352.20 1.763
352.30 1.762
352.40 1.76
352.50 1.759
352.60 1.758
352.70 1.756
352.80 1.755
352.90 1.754
353.00 1.752
353.10 1.751
353.20 1.75
353.30 1.748
353.40 1.747
353.50 1.746
353.60 1.744
353.70 1.743
353.80 1.742
353.90 1.74
354.00 1.739
354.10 1.738
354.20 1.737
354.30 1.735
354.40 1.734
354.50 1.733
354.60 1.731
354.70 1.73
354.80 1.729
354.90 1.727
355.00 1.726
355.10 1.725
355.20 1.724
355.30 1.722
355.40 1.721
355.50 1.72
355.60 1.718
355.70 1.717
355.80 1.716
355.90 1.714
356.00 1.713
356.10 1.712
356.20 1.711
356.30 1.709
356.40 1.708
356.50 1.707
356.60 1.706
356.70 1.704
356.80 1.703
356.90 1.702
357.00 1.7
357.10 1.699
357.20 1.698
357.30 1.697
357.40 1.695
357.50 1.694
357.60 1.693
357.70 1.692
357.80 1.69
357.90 1.689
358.00 1.688
358.10 1.686
358.20 1.685
358.30 1.684
358.40 1.683
358.50 1.681
358.60 1.68
358.70 1.679
358.80 1.678
358.90 1.676
359.00 1.675
359.10 1.674
359.20 1.673
359.30 1.671
359.40 1.67
359.50 1.669
359.60 1.668
359.70 1.666
359.80 1.665
359.90 1.664
360.00 1.663
360.10 1.661
360.20 1.66
360.30 1.659
360.40 1.658
360.50 1.657
360.60 1.655
360.70 1.654
360.80 1.653
360.90 1.652
361.00 1.65
361.10 1.649
361.20 1.648
361.30 1.647
361.40 1.646
361.50 1.644
361.60 1.643
361.70 1.642
361.80 1.641
361.90 1.64
362.00 1.638
362.10 1.637
362.20 1.636
362.30 1.635
362.40 1.633
362.50 1.632
362.60 1.631
362.70 1.63
362.80 1.629
362.90 1.627
363.00 1.626
363.10 1.625
363.20 1.624
363.30 1.622
363.40 1.621
363.50 1.62
363.60 1.618
363.70 1.617
363.80 1.616
363.90 1.615
364.00 1.613
364.10 1.612
364.20 1.611
364.30 1.609
364.40 1.608
364.50 1.607
364.60 1.605
364.70 1.604
364.80 1.603
364.90 1.602
365.00 1.6
365.10 1.599
365.20 1.598
365.30 1.596
365.40 1.595
365.50 1.594
365.60 1.592
365.70 1.591
365.80 1.59
365.90 1.589
366.00 1.587
366.10 1.586
366.20 1.585
366.30 1.584
366.40 1.582
366.50 1.581
366.60 1.58
366.70 1.579
366.80 1.578
366.90 1.576
367.00 1.575
367.10 1.574
367.20 1.573
367.30 1.572
367.40 1.571
367.50 1.569
367.60 1.568
367.70 1.567
367.80 1.566
367.90 1.565
368.00 1.563
368.10 1.562
368.20 1.561
368.30 1.56
368.40 1.559
368.50 1.558
368.60 1.557
368.70 1.556
368.80 1.555
368.90 1.554
369.00 1.553
369.10 1.552
369.20 1.551
369.30 1.55
369.40 1.548
369.50 1.547
369.60 1.546
369.70 1.545
369.80 1.544
369.90 1.543
370.00 1.542
370.10 1.541
370.20 1.541
370.30 1.54
370.40 1.54
370.50 1.539
370.60 1.538
370.70 1.538
370.80 1.537
370.90 1.536
371.00 1.536
371.10 1.535
371.20 1.535
371.30 1.534
371.40 1.533
371.50 1.533
371.60 1.532
371.70 1.531
371.80 1.531
371.90 1.53
372.00 1.53
372.10 1.53
372.20 1.53
372.30 1.53
372.40 1.53
372.50 1.53
372.60 1.53
372.70 1.53
372.80 1.53
372.90 1.53
373.00 1.53
373.10 1.531
373.20 1.531
373.30 1.531
373.40 1.531
373.50 1.531
373.60 1.531
373.70 1.531
373.80 1.531
373.90 1.531
374.00 1.531
374.10 1.532
374.20 1.532
374.30 1.533
374.40 1.534
374.50 1.534
374.60 1.535
374.70 1.535
374.80 1.536
374.90 1.536
375.00 1.537
375.10 1.538
375.20 1.538
375.30 1.539
375.40 1.539
375.50 1.54
375.60 1.54
375.70 1.541
375.80 1.541
375.90 1.542
376.00 1.543
376.10 1.543
376.20 1.543
376.30 1.543
376.40 1.543
376.50 1.543
376.60 1.544
376.70 1.544
376.80 1.544
376.90 1.544
377.00 1.544
377.10 1.543
377.20 1.542
377.30 1.541
377.40 1.54
377.50 1.539
377.60 1.538
377.70 1.537
377.80 1.536
377.90 1.535
378.00 1.534
378.10 1.529
378.20 1.524
378.30 1.519
378.40 1.514
378.50 1.509
378.60 1.504
378.70 1.499
378.80 1.494
378.90 1.489
379.00 1.484
379.10 1.48
379.20 1.477
379.30 1.473
379.40 1.47
379.50 1.466
379.60 1.463
379.70 1.46
379.80 1.456
379.90 1.453
380.00 1.449
380.10 1.454
380.20 1.458
380.30 1.463
380.40 1.467
380.50 1.472
380.60 1.476
380.70 1.481
380.80 1.485
380.90 1.49
381.00 1.494
381.10 1.495
381.20 1.496
381.30 1.498
381.40 1.499
381.50 1.5
381.60 1.499
381.70 1.496
381.80 1.494
381.90 1.49
382.00 1.485
382.10 1.479
382.20 1.473
382.30 1.46
382.40 1.448
382.50 1.436
382.60 1.424
382.70 1.412
382.80 1.4
382.90 1.388
383.00 1.376
383.10 1.364
383.20 1.352
383.30 1.344
383.40 1.335
383.50 1.325
383.60 1.327
383.70 1.338
383.80 1.346
383.90 1.355
384.00 1.366
384.10 1.38
384.20 1.395
384.30 1.41
384.40 1.425
384.50 1.439
384.60 1.451
384.70 1.462
384.80 1.472
384.90 1.48
385.00 1.487
385.10 1.493
385.20 1.498
385.30 1.502
385.40 1.505
385.50 1.508
385.60 1.509
385.70 1.51
385.80 1.51
385.90 1.51
386.00 1.508
386.10 1.506
386.20 1.503
386.30 1.5
386.40 1.495
386.50 1.491
386.60 1.485
386.70 1.478
386.80 1.472
386.90 1.464
387.00 1.455
387.10 1.446
387.20 1.436
387.30 1.425
387.40 1.413
387.50 1.4
387.60 1.386
387.70 1.371
387.80 1.355
387.90 1.336
388.00 1.317
388.10 1.295
388.20 1.271
388.30 1.246
388.40 1.22
388.50 1.196
388.60 1.174
388.70 1.159
388.80 1.145
388.90 1.133
389.00 1.143
389.10 1.156
389.20 1.171
389.30 1.192
389.40 1.215
389.50 1.241
389.60 1.267
389.70 1.291
389.80 1.314
389.90 1.334
390.00 1.353
390.10 1.371
390.20 1.387
390.30 1.402
390.40 1.417
390.50 1.43
390.60 1.443
390.70 1.455
390.80 1.466
390.90 1.477
391.00 1.488
391.10 1.498
391.20 1.507
391.30 1.516
391.40 1.524
391.50 1.532
391.60 1.54
391.70 1.546
391.80 1.552
391.90 1.558
392.00 1.562
392.10 1.566
392.20 1.57
392.30 1.573
392.40 1.575
392.50 1.576
392.60 1.577
392.70 1.577
392.80 1.576
392.90 1.574
393.00 1.572
393.10 1.569
393.20 1.565
393.30 1.561
393.40 1.556
393.50 1.549
393.60 1.543
393.70 1.535
393.80 1.527
393.90 1.518
394.00 1.508
394.10 1.498
394.20 1.486
394.30 1.475
394.40 1.462
394.50 1.449
394.60 1.435
394.70 1.421
394.80 1.406
394.90 1.391
395.00 1.375
395.10 1.359
395.20 1.342
395.30 1.325
395.40 1.307
395.50 1.289
395.60 1.27
395.70 1.25
395.80 1.231
395.90 1.21
396.00 1.188
396.10 1.166
396.20 1.141
396.30 1.114
396.40 1.086
396.50 1.053
396.60 1.02
396.70 0.9867
396.80 0.9608
396.90 0.9332
397.00 0.904
397.10 0.9303
397.20 0.9556
397.30 0.9798
397.40 1.012
397.50 1.044
397.60 1.076
397.70 1.104
397.80 1.13
397.90 1.153
398.00 1.175
398.10 1.196
398.20 1.215
398.30 1.235
398.40 1.253
398.50 1.272
398.60 1.289
398.70 1.306
398.80 1.323
398.90 1.34
399.00 1.356
399.10 1.372
399.20 1.387
399.30 1.402
399.40 1.418
399.50 1.432
399.60 1.446
399.70 1.46
399.80 1.474
399.90 1.487
400.00 1.5
400.10 1.512
400.20 1.524
400.30 1.535
400.40 1.546
400.50 1.556
400.60 1.566
400.70 1.576
400.80 1.585
400.90 1.594
401.00 1.602
401.10 1.61
401.20 1.617
401.30 1.624
401.40 1.631
401.50 1.637
401.60 1.643
401.70 1.649
401.80 1.654
401.90 1.658
402.00 1.663
402.10 1.667
402.20 1.67
402.30 1.673
402.40 1.676
402.50 1.679
402.60 1.681
402.70 1.683
402.80 1.684
402.90 1.685
403.00 1.686
403.10 1.687
403.20 1.687
403.30 1.686
403.40 1.686
403.50 1.685
403.60 1.684
403.70 1.682
403.80 1.68
403.90 1.678
404.00 1.675
404.10 1.672
404.20 1.669
404.30 1.665
404.40 1.661
404.50 1.656
404.60 1.651
404.70 1.646
404.80 1.641
404.90 1.635
405.00 1.629
405.10 1.622
405.20 1.615
405.30 1.608
405.40 1.6
405.50 1.592
405.60 1.584
405.70 1.575
405.80 1.565
405.90 1.556
406.00 1.546
406.10 1.535
406.20 1.524
406.30 1.513
406.40 1.501
406.50 1.489
406.60 1.477
406.70 1.464
406.80 1.45
406.90 1.437
407.00 1.422
407.10 1.408
407.20 1.393
407.30 1.377
407.40 1.361
407.50 1.345
407.60 1.328
407.70 1.312
407.80 1.294
407.90 1.277
408.00 1.259
408.10 1.241
408.20 1.223
408.30 1.204
408.40 1.186
408.50 1.167
408.60 1.148
408.70 1.128
408.80 1.109
408.90 1.089
409.00 1.069
409.10 1.049
409.20 1.029
409.30 1.008
409.40 0.9857
409.50 0.9612
409.60 0.935
409.70 0.9047
409.80 0.8729
409.90 0.8396
410.00 0.8056
410.10 0.7759
410.20 0.7505
410.30 0.7879
410.40 0.8227
410.50 0.855
410.60 0.8867
410.70 0.9164
410.80 0.9441
410.90 0.9678
411.00 0.9899
411.10 1.011
411.20 1.03
411.30 1.048
411.40 1.067
411.50 1.085
411.60 1.103
411.70 1.121
411.80 1.139
411.90 1.156
412.00 1.173
412.10 1.19
412.20 1.207
412.30 1.224
412.40 1.24
412.50 1.256
412.60 1.272
412.70 1.287
412.80 1.302
412.90 1.317
413.00 1.331
413.10 1.346
413.20 1.359
413.30 1.373
413.40 1.385
413.50 1.398
413.60 1.41
413.70 1.422
413.80 1.433
413.90 1.444
414.00 1.455
414.10 1.466
414.20 1.476
414.30 1.485
414.40 1.495
414.50 1.504
414.60 1.513
414.70 1.521
414.80 1.529
414.90 1.537
415.00 1.545
415.10 1.552
415.20 1.559
415.30 1.566
415.40 1.573
415.50 1.579
415.60 1.585
415.70 1.591
415.80 1.597
415.90 1.602
416.00 1.607
416.10 1.612
416.20 1.617
416.30 1.621
416.40 1.626
416.50 1.63
416.60 1.634
416.70 1.638
416.80 1.641
416.90 1.645
417.00 1.648
417.10 1.651
417.20 1.654
417.30 1.657
417.40 1.66
417.50 1.662
417.60 1.665
417.70 1.667
417.80 1.669
417.90 1.671
418.00 1.673
418.10 1.675
418.20 1.676
418.30 1.678
418.40 1.679
418.50 1.681
418.60 1.682
418.70 1.683
418.80 1.684
418.90 1.685
419.00 1.686
419.10 1.687
419.20 1.688
419.30 1.688
419.40 1.689
419.50 1.689
419.60 1.689
419.70 1.69
419.80 1.69
419.90 1.69
420.00 1.69
420.10 1.69
420.20 1.69
420.30 1.69
420.40 1.69
420.50 1.689
420.60 1.689
420.70 1.688
420.80 1.688
420.90 1.687
421.00 1.687
421.10 1.686
421.20 1.685
421.30 1.685
421.40 1.684
421.50 1.683
421.60 1.682
421.70 1.681
421.80 1.68
421.90 1.679
422.00 1.678
422.10 1.676
422.20 1.675
422.30 1.674
422.40 1.672
422.50 1.671
422.60 1.669
422.70 1.668
422.80 1.666
422.90 1.664
423.00 1.663
423.10 1.661
423.20 1.659
423.30 1.657
423.40 1.655
423.50 1.653
423.60 1.651
423.70 1.649
423.80 1.646
423.90 1.644
424.00 1.642
424.10 1.639
424.20 1.637
424.30 1.634
424.40 1.632
424.50 1.629
424.60 1.626
424.70 1.623
424.80 1.62
424.90 1.617
425.00 1.614
425.10 1.611
425.20 1.608
425.30 1.605
425.40 1.601
425.50 1.598
425.60 1.594
425.70 1.59
425.80 1.587
425.90 1.583
426.00 1.579
426.10 1.575
426.20 1.57
426.30 1.565
426.40 1.561
426.50 1.557
426.60 1.552
426.70 1.547
426.80 1.543
426.90 1.538
427.00 1.533
427.10 1.527
427.20 1.522
427.30 1.517
427.40 1.511
427.50 1.505
427.60 1.5
427.70 1.494
427.80 1.488
427.90 1.481
428.00 1.475
428.10 1.468
428.20 1.462
428.30 1.455
428.40 1.448
428.50 1.441
428.60 1.433
428.70 1.425
428.80 1.418
428.90 1.41
429.00 1.401
429.10 1.393
429.20 1.384
429.30 1.376
429.40 1.367
429.50 1.357
429.60 1.348
429.70 1.338
429.80 1.328
429.90 1.318
430.00 1.308
430.10 1.297
430.20 1.286
430.30 1.275
430.40 1.264
430.50 1.252
430.60 1.241
430.70 1.229
430.80 1.216
430.90 1.204
431.00 1.191
431.10 1.178
431.20 1.165
431.30 1.151
431.40 1.138
431.50 1.124
431.60 1.11
431.70 1.095
431.80 1.081
431.90 1.066
432.00 1.05
432.10 1.035
432.20 1.019
432.30 1.003
432.40 0.9872
432.50 0.9702
432.60 0.953
432.70 0.9355
432.80 0.9177
432.90 0.8999
433.00 0.8824
433.10 0.8654
433.20 0.8482
433.30 0.8308
433.40 0.8116
433.50 0.7908
433.60 0.7683
433.70 0.7402
433.80 0.7084
433.90 0.673
434.00 0.6141
434.10 0.6149
434.20 0.6754
434.30 0.7095
434.40 0.7401
434.50 0.767
434.60 0.7883
434.70 0.808
434.80 0.8261
434.90 0.8424
435.00 0.8585
435.10 0.8745
435.20 0.8909
435.30 0.9075
435.40 0.924
435.50 0.9402
435.60 0.956
435.70 0.9715
435.80 0.9863
435.90 1.001
436.00 1.015
436.10 1.029
436.20 1.042
436.30 1.056
436.40 1.069
436.50 1.081
436.60 1.094
436.70 1.106
436.80 1.118
436.90 1.129
437.00 1.141
437.10 1.152
437.20 1.163
437.30 1.173
437.40 1.183
437.50 1.193
437.60 1.203
437.70 1.213
437.80 1.222
437.90 1.231
438.00 1.239
438.10 1.248
438.20 1.256
438.30 1.264
438.40 1.272
438.50 1.279
438.60 1.286
438.70 1.294
438.80 1.3
438.90 1.307
439.00 1.313
439.10 1.319
439.20 1.325
439.30 1.331
439.40 1.336
439.50 1.342
439.60 1.347
439.70 1.352
439.80 1.357
439.90 1.361
440.00 1.366
440.10 1.37
440.20 1.374
440.30 1.378
440.40 1.382
440.50 1.386
440.60 1.389
440.70 1.392
440.80 1.396
440.90 1.399
441.00 1.402
441.10 1.405
441.20 1.408
441.30 1.41
441.40 1.413
441.50 1.415
441.60 1.418
441.70 1.42
441.80 1.422
441.90 1.424
442.00 1.426
442.10 1.428
442.20 1.43
442.30 1.431
442.40 1.433
442.50 1.434
442.60 1.436
442.70 1.437
442.80 1.439
442.90 1.44
443.00 1.441
443.10 1.442
443.20 1.443
443.30 1.444
443.40 1.445
443.50 1.446
443.60 1.447
443.70 1.447
443.80 1.448
443.90 1.449
444.00 1.449
444.10 1.45
444.20 1.45
444.30 1.451
444.40 1.451
444.50 1.452
444.60 1.452
444.70 1.452
444.80 1.453
444.90 1.453
445.00 1.453
445.10 1.453
445.20 1.453
445.30 1.453
445.40 1.453
445.50 1.453
445.60 1.453
445.70 1.453
445.80 1.453
445.90 1.453
446.00 1.453
446.10 1.453
446.20 1.453
446.30 1.453
446.40 1.452
446.50 1.452
446.60 1.452
446.70 1.452
446.80 1.451
446.90 1.451
447.00 1.451
447.10 1.45
447.20 1.45
447.30 1.45
447.40 1.449
447.50 1.449
447.60 1.448
447.70 1.448
447.80 1.447
447.90 1.447
448.00 1.447
448.10 1.446
448.20 1.445
448.30 1.445
448.40 1.444
448.50 1.444
448.60 1.443
448.70 1.443
448.80 1.442
448.90 1.441
449.00 1.441
449.10 1.44
449.20 1.44
449.30 1.439
449.40 1.439
449.50 1.438
449.60 1.437
449.70 1.436
449.80 1.436
449.90 1.435
450.00 1.434
450.10 1.434
450.20 1.433
450.30 1.432
450.40 1.431
450.50 1.431
450.60 1.43
450.70 1.429
450.80 1.428
450.90 1.428
451.00 1.427
451.10 1.426
451.20 1.425
451.30 1.425
451.40 1.424
451.50 1.423
451.60 1.422
451.70 1.421
451.80 1.42
451.90 1.42
452.00 1.419
452.10 1.418
452.20 1.417
452.30 1.416
452.40 1.415
452.50 1.415
452.60 1.414
452.70 1.413
452.80 1.412
452.90 1.411
453.00 1.41
453.10 1.409
453.20 1.408
453.30 1.407
453.40 1.407
453.50 1.406
453.60 1.405
453.70 1.404
453.80 1.403
453.90 1.402
454.00 1.401
454.10 1.4
454.20 1.399
454.30 1.398
454.40 1.398
454.50 1.397
454.60 1.396
454.70 1.395
454.80 1.394
454.90 1.393
455.00 1.392
455.10 1.391
455.20 1.39
455.30 1.389
455.40 1.388
455.50 1.387
455.60 1.386
455.70 1.385
455.80 1.385
455.90 1.384
456.00 1.383
456.10 1.382
456.20 1.381
456.30 1.38
456.40 1.379
456.50 1.378
456.60 1.377
456.70 1.376
456.80 1.375
456.90 1.374
457.00 1.373
457.10 1.372
457.20 1.371
457.30 1.37
457.40 1.37
457.50 1.369
457.60 1.368
457.70 1.367
457.80 1.366
457.90 1.365
458.00 1.364
458.10 1.363
458.20 1.362
458.30 1.361
458.40 1.36
458.50 1.359
458.60 1.358
458.70 1.357
458.80 1.356
458.90 1.355
459.00 1.354
459.10 1.353
459.20 1.352
459.30 1.351
459.40 1.35
459.50 1.349
459.60 1.348
459.70 1.347
459.80 1.346
459.90 1.345
460.00 1.344
460.10 1.343
460.20 1.342
460.30 1.341
460.40 1.34
460.50 1.339
460.60 1.338
460.70 1.337
460.80 1.336
460.90 1.335
461.00 1.334
461.10 1.333
461.20 1.332
461.30 1.33
461.40 1.329
461.50 1.328
461.60 1.327
461.70 1.326
461.80 1.325
461.90 1.324
462.00 1.323
462.10 1.322
462.20 1.321
462.30 1.32
462.40 1.319
462.50 1.318
462.60 1.317
462.70 1.316
462.80 1.315
462.90 1.314
463.00 1.313
463.10 1.312
463.20 1.311
463.30 1.31
463.40 1.309
463.50 1.308
463.60 1.307
463.70 1.306
463.80 1.304
463.90 1.303
464.00 1.302
464.10 1.301
464.20 1.3
464.30 1.299
464.40 1.298
464.50 1.297
464.60 1.296
464.70 1.295
464.80 1.294
464.90 1.293
465.00 1.292
465.10 1.291
465.20 1.289
465.30 1.288
465.40 1.287
465.50 1.286
465.60 1.285
465.70 1.284
465.80 1.283
465.90 1.282
466.00 1.281
466.10 1.28
466.20 1.278
466.30 1.277
466.40 1.276
466.50 1.275
466.60 1.274
466.70 1.273
466.80 1.272
466.90 1.271
467.00 1.269
467.10 1.268
467.20 1.267
467.30 1.266
467.40 1.265
467.50 1.264
467.60 1.263
467.70 1.261
467.80 1.26
467.90 1.259
468.00 1.258
468.10 1.257
468.20 1.256
468.30 1.254
468.40 1.253
468.50 1.252
468.60 1.251
468.70 1.25
468.80 1.248
468.90 1.247
469.00 1.246
469.10 1.245
469.20 1.243
469.30 1.242
469.40 1.241
469.50 1.24
469.60 1.238
469.70 1.237
469.80 1.236
469.90 1.235
470.00 1.233
470.10 1.232
470.20 1.231
470.30 1.23
470.40 1.228
470.50 1.227
470.60 1.226
470.70 1.224
470.80 1.223
470.90 1.222
471.00 1.221
471.10 1.219
471.20 1.218
471.30 1.217
471.40 1.215
471.50 1.214
471.60 1.212
471.70 1.211
471.80 1.21
471.90 1.208
472.00 1.207
472.10 1.205
472.20 1.204
472.30 1.202
472.40 1.201
472.50 1.199
472.60 1.198
472.70 1.196
472.80 1.195
472.90 1.193
473.00 1.192
473.10 1.19
473.20 1.189
473.30 1.187
473.40 1.185
473.50 1.184
473.60 1.182
473.70 1.18
473.80 1.179
473.90 1.177
474.00 1.175
474.10 1.174
474.20 1.172
474.30 1.17
474.40 1.168
474.50 1.166
474.60 1.164
474.70 1.163
474.80 1.161
474.90 1.159
475.00 1.157
475.10 1.155
475.20 1.153
475.30 1.151
475.40 1.149
475.50 1.147
475.60 1.145
475.70 1.143
475.80 1.141
475.90 1.139
476.00 1.136
476.10 1.134
476.20 1.132
476.30 1.13
476.40 1.127
476.50 1.125
476.60 1.123
476.70 1.12
476.80 1.118
476.90 1.115
477.00 1.113
477.10 1.111
477.20 1.108
477.30 1.105
477.40 1.102
477.50 1.099
477.60 1.097
477.70 1.094
477.80 1.091
477.90 1.088
478.00 1.085
478.10 1.083
478.20 1.079
478.30 1.076
478.40 1.073
478.50 1.069
478.60 1.066
478.70 1.063
478.80 1.059
478.90 1.056
479.00 1.053
479.10 1.049
479.20 1.046
479.30 1.042
479.40 1.038
479.50 1.034
479.60 1.029
479.70 1.025
479.80 1.021
479.90 1.017
480.00 1.013
480.10 1.009
480.20 1.005
480.30 1
480.40 0.9951
480.50 0.9902
480.60 0.9854
480.70 0.9805
480.80 0.9757
480.90 0.9709
481.00 0.966
481.10 0.9612
481.20 0.9556
481.30 0.9496
481.40 0.9437
481.50 0.9378
481.60 0.9319
481.70 0.9259
481.80 0.92
481.90 0.9141
482.00 0.9082
482.10 0.9023
482.20 0.8955
482.30 0.8883
482.40 0.8811
482.50 0.874
482.60 0.8668
482.70 0.8596
482.80 0.8524
482.90 0.8453
483.00 0.8381
483.10 0.831
483.20 0.8228
483.30 0.8141
483.40 0.8054
483.50 0.7967
483.60 0.788
483.70 0.7794
483.80 0.7707
483.90 0.7621
484.00 0.7534
484.10 0.7448
484.20 0.7353
484.30 0.7255
484.40 0.7157
484.50 0.7058
484.60 0.696
484.70 0.6857
484.80 0.6751
484.90 0.6645
485.00 0.6539
485.10 0.6434
485.20 0.6326
485.30 0.6217
485.40 0.6103
485.50 0.5987
485.60 0.5858
485.70 0.5724
485.80 0.5546
485.90 0.5347
486.00 0.5053
486.10 0.4342
486.20 0.4655
486.30 0.5172
486.40 0.5399
486.50 0.5594
486.60 0.5744
486.70 0.5872
486.80 0.5988
486.90 0.6098
487.00 0.6202
487.10 0.6304
487.20 0.6403
487.30 0.65
487.40 0.6598
487.50 0.6695
487.60 0.6793
487.70 0.6885
487.80 0.6974
487.90 0.7063
488.00 0.7151
488.10 0.724
488.20 0.732
488.30 0.7396
488.40 0.7472
488.50 0.7547
488.60 0.7623
488.70 0.7698
488.80 0.7774
488.90 0.7849
489.00 0.7924
489.10 0.8
489.20 0.8064
489.30 0.8122
489.40 0.8181
489.50 0.824
489.60 0.8298
489.70 0.8357
489.80 0.8415
489.90 0.8474
490.00 0.8532
490.10 0.8591
490.20 0.864
490.30 0.8685
490.40 0.8729
490.50 0.8774
490.60 0.8819
490.70 0.8864
490.80 0.8908
490.90 0.8953
491.00 0.8997
491.10 0.9042
491.20 0.9079
491.30 0.9111
491.40 0.9144
491.50 0.9177
491.60 0.921
491.70 0.9243
491.80 0.9276
491.90 0.9308
492.00 0.9341
492.10 0.9374
492.20 0.94
492.30 0.9424
492.40 0.9448
492.50 0.9471
492.60 0.9495
492.70 0.9519
492.80 0.9542
492.90 0.9566
493.00 0.959
493.10 0.9613
493.20 0.9632
493.30 0.9649
493.40 0.9666
493.50 0.9683
493.60 0.97
493.70 0.9716
493.80 0.9733
493.90 0.975
494.00 0.9767
494.10 0.9783
494.20 0.9796
494.30 0.9807
494.40 0.9818
494.50 0.9829
494.60 0.984
494.70 0.9851
494.80 0.9862
494.90 0.9873
495.00 0.9884
495.10 0.9895
495.20 0.9903
495.30 0.991
495.40 0.9917
495.50 0.9924
495.60 0.9931
495.70 0.9938
495.80 0.9944
495.90 0.9951
496.00 0.9958
496.10 0.9965
496.20 0.9969
496.30 0.9973
496.40 0.9977
496.50 0.9981
496.60 0.9984
496.70 0.9988
496.80 0.9992
496.90 0.9996
497.00 0.9999
497.10 1
497.20 1.001
497.30 1.001
497.40 1.001
497.50 1.001
497.60 1.001
497.70 1.001
497.80 1.001
497.90 1.001
498.00 1.002
498.10 1.002
498.20 1.002
498.30 1.002
498.40 1.002
498.50 1.002
498.60 1.002
498.70 1.002
498.80 1.002
498.90 1.002
499.00 1.002
499.10 1.001
499.20 1.001
499.30 1.001
499.40 1.001
499.50 1.001
499.60 1.001
499.70 1.001
499.80 1
499.90 1
500.00 1
500.10 0.9998
500.20 0.9996
500.30 0.9993
500.40 0.999
500.50 0.9988
500.60 0.9985
500.70 0.9982
500.80 0.9979
500.90 0.9977
501.00 0.9974
501.10 0.9971
501.20 0.9968
501.30 0.9965
501.40 0.9961
501.50 0.9958
501.60 0.9954
501.70 0.9951
501.80 0.9948
501.90 0.9944
502.00 0.9941
502.10 0.9937
502.20 0.9933
502.30 0.9929
502.40 0.9925
502.50 0.9921
502.60 0.9917
502.70 0.9913
502.80 0.9909
502.90 0.9905
503.00 0.9901
503.10 0.9897
503.20 0.9893
503.30 0.9889
503.40 0.9884
503.50 0.988
503.60 0.9875
503.70 0.9871
503.80 0.9866
503.90 0.9862
504.00 0.9857
504.10 0.9853
504.20 0.9848
504.30 0.9843
504.40 0.9838
504.50 0.9834
504.60 0.9829
504.70 0.9824
504.80 0.9819
504.90 0.9815
505.00 0.981
505.10 0.9805
505.20 0.98
505.30 0.9795
505.40 0.979
505.50 0.9785
505.60 0.978
505.70 0.9775
505.80 0.9769
505.90 0.9764
506.00 0.9759
506.10 0.9754
506.20 0.9749
506.30 0.9744
506.40 0.9738
506.50 0.9733
506.60 0.9728
506.70 0.9723
506.80 0.9717
506.90 0.9712
507.00 0.9707
507.10 0.9702
507.20 0.9696
507.30 0.9691
507.40 0.9685
507.50 0.968
507.60 0.9675
507.70 0.9669
507.80 0.9664
507.90 0.9658
508.00 0.9653
508.10 0.9647
508.20 0.9642
508.30 0.9636
508.40 0.9631
508.50 0.9625
508.60 0.962
508.70 0.9614
508.80 0.9609
508.90 0.9603
509.00 0.9598
509.10 0.9592
509.20 0.9587
509.30 0.9581
509.40 0.9575
509.50 0.957
509.60 0.9564
509.70 0.9558
509.80 0.9553
509.90 0.9547
510.00 0.9542
510.10 0.9536
510.20 0.953
510.30 0.9525
510.40 0.9519
510.50 0.9513
510.60 0.9507
510.70 0.9502
510.80 0.9496
510.90 0.949
511.00 0.9485
511.10 0.9479
511.20 0.9473
511.30 0.9467
511.40 0.9462
511.50 0.9456
511.60 0.945
511.70 0.9444
511.80 0.9438
511.90 0.9433
512.00 0.9427
512.10 0.9421
512.20 0.9416
512.30 0.941
512.40 0.9404
512.50 0.9398
512.60 0.9393
512.70 0.9387
512.80 0.9381
512.90 0.9376
513.00 0.937
513.10 0.9364
513.20 0.9358
513.30 0.9353
513.40 0.9347
513.50 0.9341
513.60 0.9335
513.70 0.9329
513.80 0.9324
513.90 0.9318
514.00 0.9312
514.10 0.9306
514.20 0.93
514.30 0.9295
514.40 0.9289
514.50 0.9283
514.60 0.9277
514.70 0.9271
514.80 0.9266
514.90 0.926
515.00 0.9254
515.10 0.9248
515.20 0.9243
515.30 0.9237
515.40 0.9231
515.50 0.9225
515.60 0.9219
515.70 0.9214
515.80 0.9208
515.90 0.9202
516.00 0.9196
516.10 0.919
516.20 0.9185
516.30 0.9179
516.40 0.9173
516.50 0.9167
516.60 0.9162
516.70 0.9156
516.80 0.915
516.90 0.9144
517.00 0.9139
517.10 0.9133
517.20 0.9127
517.30 0.9121
517.40 0.9115
517.50 0.911
517.60 0.9104
517.70 0.9098
517.80 0.9092
517.90 0.9087
518.00 0.9081
518.10 0.9075
518.20 0.9069
518.30 0.9064
518.40 0.9058
518.50 0.9052
518.60 0.9047
518.70 0.9041
518.80 0.9035
518.90 0.9029
519.00 0.9024
519.10 0.9018
519.20 0.9012
519.30 0.9007
519.40 0.9001
519.50 0.8995
519.60 0.899
519.70 0.8984
519.80 0.8978
519.90 0.8972
520.00 0.8967
520.10 0.8961
520.20 0.8955
520.30 0.895
520.40 0.8944
520.50 0.8938
520.60 0.8932
520.70 0.8927
520.80 0.8921
520.90 0.8915
521.00 0.8909
521.10 0.8904
521.20 0.8898
521.30 0.8892
521.40 0.8887
521.50 0.8881
521.60 0.8875
521.70 0.887
521.80 0.8864
521.90 0.8858
522.00 0.8853
522.10 0.8847
522.20 0.8842
522.30 0.8836
522.40 0.883
522.50 0.8825
522.60 0.8819
522.70 0.8814
522.80 0.8808
522.90 0.8802
523.00 0.8797
523.10 0.8791
523.20 0.8786
523.30 0.878
523.40 0.8774
523.50 0.8769
523.60 0.8763
523.70 0.8757
523.80 0.8752
523.90 0.8746
524.00 0.8741
524.10 0.8735
524.20 0.8729
524.30 0.8724
524.40 0.8718
524.50 0.8713
524.60 0.8707
524.70 0.8701
524.80 0.8696
524.90 0.869
525.00 0.8685
525.10 0.8679
525.20 0.8674
525.30 0.8668
525.40 0.8663
525.50 0.8657
525.60 0.8652
525.70 0.8646
525.80 0.8641
525.90 0.8635
526.00 0.863
526.10 0.8624
526.20 0.8619
526.30 0.8613
526.40 0.8608
526.50 0.8602
526.60 0.8597
526.70 0.8591
526.80 0.8585
526.90 0.858
527.00 0.8574
527.10 0.8569
527.20 0.8563
527.30 0.8558
527.40 0.8552
527.50 0.8547
527.60 0.8541
527.70 0.8536
527.80 0.8531
527.90 0.8525
528.00 0.852
528.10 0.8514
528.20 0.8509
528.30 0.8503
528.40 0.8498
528.50 0.8492
528.60 0.8487
528.70 0.8482
528.80 0.8476
528.90 0.8471
529.00 0.8466
529.10 0.846
529.20 0.8455
529.30 0.8449
529.40 0.8444
529.50 0.8439
529.60 0.8433
529.70 0.8428
529.80 0.8422
529.90 0.8417
530.00 0.8411
530.10 0.8406
530.20 0.8401
530.30 0.8395
530.40 0.839
530.50 0.8385
530.60 0.8379
530.70 0.8374
530.80 0.8368
530.90 0.8363
531.00 0.8358
531.10 0.8352
531.20 0.8347
531.30 0.8342
531.40 0.8336
531.50 0.8331
531.60 0.8326
531.70 0.8321
531.80 0.8315
531.90 0.831
532.00 0.8305
532.10 0.8299
532.20 0.8294
532.30 0.8289
532.40 0.8283
532.50 0.8278
532.60 0.8273
532.70 0.8268
532.80 0.8262
532.90 0.8257
533.00 0.8252
533.10 0.8246
533.20 0.8241
533.30 0.8236
533.40 0.8231
533.50 0.8225
533.60 0.822
533.70 0.8215
533.80 0.821
533.90 0.8205
534.00 0.8199
534.10 0.8194
534.20 0.8189
534.30 0.8184
534.40 0.8178
534.50 0.8173
534.60 0.8168
534.70 0.8163
534.80 0.8157
534.90 0.8152
535.00 0.8147
535.10 0.8142
535.20 0.8137
535.30 0.8131
535.40 0.8126
535.50 0.8121
535.60 0.8116
535.70 0.8111
535.80 0.8106
535.90 0.81
536.00 0.8095
536.10 0.809
536.20 0.8085
536.30 0.808
536.40 0.8075
536.50 0.807
536.60 0.8065
536.70 0.8059
536.80 0.8054
536.90 0.8049
537.00 0.8044
537.10 0.8039
537.20 0.8034
537.30 0.8029
537.40 0.8024
537.50 0.8019
537.60 0.8014
537.70 0.8008
537.80 0.8003
537.90 0.7998
538.00 0.7993
538.10 0.7988
538.20 0.7983
538.30 0.7978
538.40 0.7973
538.50 0.7968
538.60 0.7963
538.70 0.7958
538.80 0.7953
538.90 0.7948
539.00 0.7943
539.10 0.7938
539.20 0.7933
539.30 0.7928
539.40 0.7923
539.50 0.7918
539.60 0.7913
539.70 0.7908
539.80 0.7902
539.90 0.7897
540.00 0.7892
540.10 0.7887
540.20 0.7882
540.30 0.7877
540.40 0.7872
540.50 0.7867
540.60 0.7862
540.70 0.7857
540.80 0.7853
540.90 0.7848
541.00 0.7843
541.10 0.7838
541.20 0.7833
541.30 0.7828
541.40 0.7823
541.50 0.7818
541.60 0.7813
541.70 0.7808
541.80 0.7803
541.90 0.7798
542.00 0.7793
542.10 0.7789
542.20 0.7784
542.30 0.7779
542.40 0.7774
542.50 0.7769
542.60 0.7764
542.70 0.7759
542.80 0.7754
542.90 0.7749
543.00 0.7744
543.10 0.7739
543.20 0.7734
543.30 0.773
543.40 0.7725
543.50 0.772
543.60 0.7715
543.70 0.771
543.80 0.7705
543.90 0.7701
544.00 0.7696
544.10 0.7691
544.20 0.7686
544.30 0.7681
544.40 0.7676
544.50 0.7671
544.60 0.7667
544.70 0.7662
544.80 0.7657
544.90 0.7652
545.00 0.7647
545.10 0.7642
545.20 0.7637
545.30 0.7633
545.40 0.7628
545.50 0.7623
545.60 0.7618
545.70 0.7614
545.80 0.7609
545.90 0.7604
546.00 0.7599
546.10 0.7594
546.20 0.759
546.30 0.7586
546.40 0.7581
546.50 0.7577
546.60 0.7572
546.70 0.7568
546.80 0.7564
546.90 0.7559
547.00 0.7555
547.10 0.755
547.20 0.7546
547.30 0.7541
547.40 0.7536
547.50 0.7532
547.60 0.7527
547.70 0.7522
547.80 0.7517
547.90 0.7513
548.00 0.7508
548.10 0.7503
548.20 0.7499
548.30 0.7494
548.40 0.7489
548.50 0.7485
548.60 0.748
548.70 0.7475
548.80 0.747
548.90 0.7466
549.00 0.7461
549.10 0.7456
549.20 0.7452
549.30 0.7447
549.40 0.7442
549.50 0.7438
549.60 0.7433
549.70 0.7428
549.80 0.7424
549.90 0.7419
550.00 0.7414
550.10 0.741
550.20 0.7405
550.30 0.7401
550.40 0.7396
550.50 0.7391
550.60 0.7387
550.70 0.7382
550.80 0.7377
550.90 0.7373
551.00 0.7368
551.10 0.7364
551.20 0.7359
551.30 0.7354
551.40 0.735
551.50 0.7345
551.60 0.734
551.70 0.7336
551.80 0.7331
551.90 0.7327
552.00 0.7322
552.10 0.7317
552.20 0.7313
552.30 0.7308
552.40 0.7304
552.50 0.7299
552.60 0.7295
552.70 0.729
552.80 0.7285
552.90 0.7281
553.00 0.7276
553.10 0.7272
553.20 0.7267
553.30 0.7263
553.40 0.7258
553.50 0.7254
553.60 0.7249
553.70 0.7245
553.80 0.724
553.90 0.7236
554.00 0.7231
554.10 0.7227
554.20 0.7222
554.30 0.7218
554.40 0.7213
554.50 0.7209
554.60 0.7204
554.70 0.72
554.80 0.7196
554.90 0.7191
555.00 0.7187
555.10 0.7182
555.20 0.7178
555.30 0.7173
555.40 0.7169
555.50 0.7164
555.60 0.716
555.70 0.7155
555.80 0.7151
555.90 0.7146
556.00 0.7142
556.10 0.7137
556.20 0.7133
556.30 0.7128
556.40 0.7124
556.50 0.712
556.60 0.7115
556.70 0.7111
556.80 0.7106
556.90 0.7102
557.00 0.7098
557.10 0.7093
557.20 0.7089
557.30 0.7084
557.40 0.708
557.50 0.7076
557.60 0.7071
557.70 0.7067
557.80 0.7063
557.90 0.7058
558.00 0.7054
558.10 0.7049
558.20 0.7045
558.30 0.7041
558.40 0.7036
558.50 0.7032
558.60 0.7028
558.70 0.7023
558.80 0.7019
558.90 0.7015
559.00 0.701
559.10 0.7006
559.20 0.7002
559.30 0.6997
559.40 0.6993
559.50 0.6989
559.60 0.6984
559.70 0.698
559.80 0.6976
559.90 0.6972
560.00 0.6967
560.10 0.6963
560.20 0.6959
560.30 0.6955
560.40 0.695
560.50 0.6946
560.60 0.6942
560.70 0.6937
560.80 0.6933
560.90 0.6929
561.00 0.6924
561.10 0.692
561.20 0.6916
561.30 0.6912
561.40 0.6907
561.50 0.6903
561.60 0.6899
561.70 0.6895
561.80 0.6891
561.90 0.6886
562.00 0.6882
562.10 0.6878
562.20 0.6874
562.30 0.6869
562.40 0.6865
562.50 0.6861
562.60 0.6857
562.70 0.6852
562.80 0.6848
562.90 0.6844
563.00 0.684
563.10 0.6836
563.20 0.6831
563.30 0.6827
563.40 0.6823
563.50 0.6819
563.60 0.6815
563.70 0.681
563.80 0.6806
563.90 0.6802
564.00 0.6798
564.10 0.6794
564.20 0.679
564.30 0.6785
564.40 0.6781
564.50 0.6777
564.60 0.6773
564.70 0.6769
564.80 0.6765
564.90 0.6761
565.00 0.6757
565.10 0.6752
565.20 0.6748
565.30 0.6744
565.40 0.674
565.50 0.6736
565.60 0.6732
565.70 0.6728
565.80 0.6724
565.90 0.6719
566.00 0.6715
566.10 0.6711
566.20 0.6707
566.30 0.6703
566.40 0.6699
566.50 0.6695
566.60 0.6691
566.70 0.6687
566.80 0.6683
566.90 0.6678
567.00 0.6674
567.10 0.667
567.20 0.6666
567.30 0.6662
567.40 0.6658
567.50 0.6654
567.60 0.665
567.70 0.6646
567.80 0.6642
567.90 0.6638
568.00 0.6634
568.10 0.663
568.20 0.6626
568.30 0.6622
568.40 0.6618
568.50 0.6614
568.60 0.661
568.70 0.6606
568.80 0.6602
568.90 0.6598
569.00 0.6594
569.10 0.659
569.20 0.6586
569.30 0.6582
569.40 0.6578
569.50 0.6574
569.60 0.657
569.70 0.6566
569.80 0.6562
569.90 0.6557
570.00 0.6553
570.10 0.6549
570.20 0.6546
570.30 0.6542
570.40 0.6538
570.50 0.6534
570.60 0.653
570.70 0.6526
570.80 0.6522
570.90 0.6518
571.00 0.6514
571.10 0.651
571.20 0.6506
571.30 0.6502
571.40 0.6498
571.50 0.6494
571.60 0.649
571.70 0.6486
571.80 0.6483
571.90 0.6479
572.00 0.6475
572.10 0.6471
572.20 0.6467
572.30 0.6463
572.40 0.6459
572.50 0.6455
572.60 0.6451
572.70 0.6447
572.80 0.6444
572.90 0.644
573.00 0.6436
573.10 0.6432
573.20 0.6428
573.30 0.6424
573.40 0.642
573.50 0.6416
573.60 0.6412
573.70 0.6409
573.80 0.6405
573.90 0.6401
574.00 0.6397
574.10 0.6393
574.20 0.6389
574.30 0.6385
574.40 0.6382
574.50 0.6378
574.60 0.6374
574.70 0.637
574.80 0.6366
574.90 0.6362
575.00 0.6358
575.10 0.6355
575.20 0.6351
575.30 0.6347
575.40 0.6343
575.50 0.6339
575.60 0.6335
575.70 0.6332
575.80 0.6328
575.90 0.6324
576.00 0.632
576.10 0.6316
576.20 0.6313
576.30 0.6309
576.40 0.6305
576.50 0.6301
576.60 0.6298
576.70 0.6294
576.80 0.629
576.90 0.6286
577.00 0.6283
577.10 0.6279
577.20 0.6275
577.30 0.6271
577.40 0.6268
577.50 0.6264
577.60 0.626
577.70 0.6256
577.80 0.6252
577.90 0.6249
578.00 0.6245
578.10 0.6241
578.20 0.6237
578.30 0.6234
578.40 0.623
578.50 0.6226
578.60 0.6222
578.70 0.6219
578.80 0.6215
578.90 0.6211
579.00 0.6208
579.10 0.6204
579.20 0.62
579.30 0.6196
579.40 0.6193
579.50 0.6189
579.60 0.6185
579.70 0.6182
579.80 0.6178
579.90 0.6174
580.00 0.617
580.10 0.6167
580.20 0.6163
580.30 0.6159
580.40 0.6156
580.50 0.6152
580.60 0.6148
580.70 0.6145
580.80 0.6141
580.90 0.6137
581.00 0.6134
581.10 0.613
581.20 0.6126
581.30 0.6123
581.40 0.6119
581.50 0.6115
581.60 0.6112
581.70 0.6108
581.80 0.6104
581.90 0.6101
582.00 0.6097
582.10 0.6093
582.20 0.609
582.30 0.6086
582.40 0.6083
582.50 0.6079
582.60 0.6075
582.70 0.6072
582.80 0.6068
582.90 0.6065
583.00 0.6061
583.10 0.6057
583.20 0.6054
583.30 0.605
583.40 0.6046
583.50 0.6043
583.60 0.6039
583.70 0.6036
583.80 0.6032
583.90 0.6029
584.00 0.6025
584.10 0.6021
584.20 0.6018
584.30 0.6014
584.40 0.6011
584.50 0.6007
584.60 0.6004
584.70 0.6
584.80 0.5997
584.90 0.5993
585.00 0.599
585.10 0.5986
585.20 0.5982
585.30 0.5979
585.40 0.5975
585.50 0.5972
585.60 0.5968
585.70 0.5965
585.80 0.5961
585.90 0.5958
586.00 0.5954
586.10 0.595
586.20 0.5947
586.30 0.5943
586.40 0.594
586.50 0.5936
586.60 0.5933
586.70 0.5929
586.80 0.5926
586.90 0.5923
587.00 0.5919
587.10 0.5916
587.20 0.5912
587.30 0.5909
587.40 0.5905
587.50 0.5901
587.60 0.5898
587.70 0.5894
587.80 0.5891
587.90 0.5887
588.00 0.5884
588.10 0.588
588.20 0.5877
588.30 0.5873
588.40 0.587
588.50 0.5867
588.60 0.5863
588.70 0.586
588.80 0.5856
588.90 0.5853
589.00 0.5849
589.10 0.5846
589.20 0.5843
589.30 0.5839
589.40 0.5836
589.50 0.5832
589.60 0.5829
589.70 0.5825
589.80 0.5822
589.90 0.5819
590.00 0.5815
590.10 0.5812
590.20 0.5808
590.30 0.5805
590.40 0.5801
590.50 0.5798
590.60 0.5795
590.70 0.5791
590.80 0.5788
590.90 0.5784
591.00 0.5781
591.10 0.5778
591.20 0.5774
591.30 0.5771
591.40 0.5767
591.50 0.5764
591.60 0.5761
591.70 0.5757
591.80 0.5754
591.90 0.575
592.00 0.5747
592.10 0.5744
592.20 0.574
592.30 0.5737
592.40 0.5734
592.50 0.573
592.60 0.5727
592.70 0.5724
592.80 0.572
592.90 0.5717
593.00 0.5713
593.10 0.571
593.20 0.5707
593.30 0.5703
593.40 0.57
593.50 0.5697
593.60 0.5694
593.70 0.569
593.80 0.5687
593.90 0.5684
594.00 0.568
594.10 0.5677
594.20 0.5674
594.30 0.567
594.40 0.5667
594.50 0.5664
594.60 0.566
594.70 0.5657
594.80 0.5654
594.90 0.565
595.00 0.5647
595.10 0.5644
595.20 0.564
595.30 0.5637
595.40 0.5634
595.50 0.5631
595.60 0.5627
595.70 0.5624
595.80 0.5621
595.90 0.5617
596.00 0.5614
596.10 0.5611
596.20 0.5607
596.30 0.5603
596.40 0.5599
596.50 0.5595
596.60 0.5591
596.70 0.5587
596.80 0.5583
596.90 0.5579
597.00 0.5576
597.10 0.5572
597.20 0.5568
597.30 0.5565
597.40 0.5562
597.50 0.5558
597.60 0.5555
597.70 0.5552
597.80 0.5549
597.90 0.5545
598.00 0.5542
598.10 0.5539
598.20 0.5536
598.30 0.5532
598.40 0.5529
598.50 0.5526
598.60 0.5522
598.70 0.5519
598.80 0.5516
598.90 0.5513
599.00 0.5509
599.10 0.5506
599.20 0.5503
599.30 0.55
599.40 0.5497
599.50 0.5493
599.60 0.549
599.70 0.5487
599.80 0.5484
599.90 0.5481
600.00 0.5478
600.10 0.5474
600.20 0.5471
600.30 0.5468
600.40 0.5465
600.50 0.5462
600.60 0.5458
600.70 0.5455
600.80 0.5452
600.90 0.5449
601.00 0.5445
601.10 0.5442
601.20 0.5439
601.30 0.5436
601.40 0.5433
601.50 0.543
601.60 0.5426
601.70 0.5423
601.80 0.542
601.90 0.5417
602.00 0.5414
602.10 0.5411
602.20 0.5408
602.30 0.5404
602.40 0.5401
602.50 0.5398
602.60 0.5395
602.70 0.5392
602.80 0.5389
602.90 0.5386
603.00 0.5383
603.10 0.5379
603.20 0.5376
603.30 0.5373
603.40 0.537
603.50 0.5367
603.60 0.5364
603.70 0.5361
603.80 0.5357
603.90 0.5354
604.00 0.5351
604.10 0.5348
604.20 0.5345
604.30 0.5342
604.40 0.5339
604.50 0.5335
604.60 0.5332
604.70 0.5329
604.80 0.5326
604.90 0.5323
605.00 0.532
605.10 0.5317
605.20 0.5314
605.30 0.5311
605.40 0.5308
605.50 0.5305
605.60 0.5302
605.70 0.5298
605.80 0.5295
605.90 0.5292
606.00 0.5289
606.10 0.5286
606.20 0.5283
606.30 0.528
606.40 0.5277
606.50 0.5274
606.60 0.5271
606.70 0.5268
606.80 0.5265
606.90 0.5262
607.00 0.5259
607.10 0.5256
607.20 0.5253
607.30 0.5249
607.40 0.5246
607.50 0.5243
607.60 0.524
607.70 0.5237
607.80 0.5234
607.90 0.5231
608.00 0.5228
608.10 0.5225
608.20 0.5222
608.30 0.5219
608.40 0.5216
608.50 0.5213
608.60 0.521
608.70 0.5207
608.80 0.5204
608.90 0.5201
609.00 0.5198
609.10 0.5195
609.20 0.5192
609.30 0.5189
609.40 0.5186
609.50 0.5183
609.60 0.518
609.70 0.5177
609.80 0.5174
609.90 0.5171
610.00 0.5168
610.10 0.5165
610.20 0.5162
610.30 0.5159
610.40 0.5156
610.50 0.5153
610.60 0.515
610.70 0.5147
610.80 0.5144
610.90 0.5141
611.00 0.5138
611.10 0.5135
611.20 0.5132
611.30 0.5129
611.40 0.5126
611.50 0.5123
611.60 0.512
611.70 0.5117
611.80 0.5114
611.90 0.5111
612.00 0.5108
612.10 0.5105
612.20 0.5102
612.30 0.5099
612.40 0.5096
612.50 0.5093
612.60 0.509
612.70 0.5087
612.80 0.5084
612.90 0.5081
613.00 0.5079
613.10 0.5076
613.20 0.5073
613.30 0.507
613.40 0.5067
613.50 0.5064
613.60 0.5061
613.70 0.5058
613.80 0.5055
613.90 0.5052
614.00 0.5049
614.10 0.5046
614.20 0.5043
614.30 0.504
614.40 0.5037
614.50 0.5034
614.60 0.5031
614.70 0.5029
614.80 0.5026
614.90 0.5023
615.00 0.502
615.10 0.5017
615.20 0.5014
615.30 0.5011
615.40 0.5008
615.50 0.5005
615.60 0.5002
615.70 0.4999
615.80 0.4997
615.90 0.4994
616.00 0.4991
616.10 0.4988
616.20 0.4985
616.30 0.4982
616.40 0.4979
616.50 0.4976
616.60 0.4973
616.70 0.497
616.80 0.4968
616.90 0.4965
617.00 0.4962
617.10 0.4959
617.20 0.4956
617.30 0.4953
617.40 0.495
617.50 0.4947
617.60 0.4944
617.70 0.4942
617.80 0.4939
617.90 0.4936
618.00 0.4933
618.10 0.493
618.20 0.4927
618.30 0.4924
618.40 0.4922
618.50 0.4919
618.60 0.4916
618.70 0.4913
618.80 0.491
618.90 0.4907
619.00 0.4904
619.10 0.4902
619.20 0.4899
619.30 0.4896
619.40 0.4893
619.50 0.489
619.60 0.4887
619.70 0.4884
619.80 0.4882
619.90 0.4879
620.00 0.4876
620.10 0.4873
620.20 0.487
620.30 0.4867
620.40 0.4865
620.50 0.4862
620.60 0.4859
620.70 0.4856
620.80 0.4853
620.90 0.485
621.00 0.4848
621.10 0.4845
621.20 0.4842
621.30 0.4839
621.40 0.4836
621.50 0.4833
621.60 0.483
621.70 0.4828
621.80 0.4825
621.90 0.4822
622.00 0.4819
622.10 0.4816
622.20 0.4813
622.30 0.481
622.40 0.4808
622.50 0.4805
622.60 0.4802
622.70 0.4799
622.80 0.4796
622.90 0.4793
623.00 0.4791
623.10 0.4788
623.20 0.4785
623.30 0.4782
623.40 0.4779
623.50 0.4777
623.60 0.4774
623.70 0.4771
623.80 0.4768
623.90 0.4766
624.00 0.4763
624.10 0.476
624.20 0.4757
624.30 0.4754
624.40 0.4752
624.50 0.4749
624.60 0.4746
624.70 0.4743
624.80 0.474
624.90 0.4737
625.00 0.4735
625.10 0.4732
625.20 0.4729
625.30 0.4726
625.40 0.4723
625.50 0.4721
625.60 0.4718
625.70 0.4715
625.80 0.4712
625.90 0.4709
626.00 0.4706
626.10 0.4703
626.20 0.4701
626.30 0.4698
626.40 0.4695
626.50 0.4692
626.60 0.469
626.70 0.4687
626.80 0.4684
626.90 0.4681
627.00 0.4678
627.10 0.4676
627.20 0.4673
627.30 0.467
627.40 0.4667
627.50 0.4664
627.60 0.4662
627.70 0.4659
627.80 0.4656
627.90 0.4653
628.00 0.465
628.10 0.4648
628.20 0.4645
628.30 0.4642
628.40 0.4639
628.50 0.4636
628.60 0.4634
628.70 0.4631
628.80 0.4628
628.90 0.4625
629.00 0.4622
629.10 0.462
629.20 0.4617
629.30 0.4614
629.40 0.4611
629.50 0.4608
629.60 0.4606
629.70 0.4603
629.80 0.46
629.90 0.4597
630.00 0.4594
630.10 0.4591
630.20 0.4589
630.30 0.4586
630.40 0.4583
630.50 0.458
630.60 0.4577
630.70 0.4575
630.80 0.4572
630.90 0.4569
631.00 0.4566
631.10 0.4563
631.20 0.4561
631.30 0.4558
631.40 0.4555
631.50 0.4552
631.60 0.4549
631.70 0.4546
631.80 0.4543
631.90 0.4541
632.00 0.4538
632.10 0.4535
632.20 0.4532
632.30 0.4529
632.40 0.4526
632.50 0.4523
632.60 0.4521
632.70 0.4518
632.80 0.4515
632.90 0.4512
633.00 0.4509
633.10 0.4506
633.20 0.4503
633.30 0.45
633.40 0.4497
633.50 0.4494
633.60 0.4492
633.70 0.4489
633.80 0.4486
633.90 0.4483
634.00 0.448
634.10 0.4477
634.20 0.4474
634.30 0.4471
634.40 0.4468
634.50 0.4465
634.60 0.4463
634.70 0.446
634.80 0.4457
634.90 0.4454
635.00 0.4451
635.10 0.4448
635.20 0.4445
635.30 0.4442
635.40 0.4439
635.50 0.4436
635.60 0.4433
635.70 0.443
635.80 0.4427
635.90 0.4424
636.00 0.4421
636.10 0.4418
636.20 0.4415
636.30 0.4412
636.40 0.4409
636.50 0.4406
636.60 0.4403
636.70 0.44
636.80 0.4396
636.90 0.4393
637.00 0.439
637.10 0.4387
637.20 0.4384
637.30 0.4381
637.40 0.4378
637.50 0.4375
637.60 0.4372
637.70 0.4368
637.80 0.4365
637.90 0.4362
638.00 0.4359
638.10 0.4356
638.20 0.4353
638.30 0.4349
638.40 0.4346
638.50 0.4343
638.60 0.434
638.70 0.4336
638.80 0.4333
638.90 0.433
639.00 0.4326
639.10 0.4323
639.20 0.432
639.30 0.4317
639.40 0.4313
639.50 0.431
639.60 0.4306
639.70 0.4303
639.80 0.4299
639.90 0.4296
640.00 0.4293
640.10 0.4289
640.20 0.4286
640.30 0.4282
640.40 0.4279
640.50 0.4275
640.60 0.4271
640.70 0.4268
640.80 0.4264
640.90 0.4261
641.00 0.4257
641.10 0.4253
641.20 0.425
641.30 0.4246
641.40 0.4242
641.50 0.4239
641.60 0.4235
641.70 0.4231
641.80 0.4227
641.90 0.4223
642.00 0.422
642.10 0.4216
642.20 0.4212
642.30 0.4208
642.40 0.4204
642.50 0.42
642.60 0.4196
642.70 0.4192
642.80 0.4188
642.90 0.4184
643.00 0.418
643.10 0.4175
643.20 0.4171
643.30 0.4167
643.40 0.4163
643.50 0.4158
643.60 0.4154
643.70 0.4149
643.80 0.4145
643.90 0.414
644.00 0.4136
644.10 0.4132
644.20 0.4127
644.30 0.4123
644.40 0.4118
644.50 0.4113
644.60 0.4108
644.70 0.4103
644.80 0.4098
644.90 0.4093
645.00 0.4088
645.10 0.4083
645.20 0.4078
645.30 0.4073
645.40 0.4068
645.50 0.4062
645.60 0.4057
645.70 0.4051
645.80 0.4046
645.90 0.404
646.00 0.4035
646.10 0.4029
646.20 0.4024
646.30 0.4018
646.40 0.4012
646.50 0.4006
646.60 0.4
646.70 0.3993
646.80 0.3987
646.90 0.3981
647.00 0.3975
647.10 0.3968
647.20 0.3962
647.30 0.3956
647.40 0.3949
647.50 0.3941
647.60 0.3934
647.70 0.3927
647.80 0.392
647.90 0.3913
648.00 0.3905
648.10 0.3898
648.20 0.3891
648.30 0.3883
648.40 0.3875
648.50 0.3866
648.60 0.3858
648.70 0.3849
648.80 0.3841
648.90 0.3832
649.00 0.3824
649.10 0.3815
649.20 0.3807
649.30 0.3798
649.40 0.3788
649.50 0.3778
649.60 0.3767
649.70 0.3757
649.80 0.3747
649.90 0.3737
650.00 0.3727
650.10 0.3717
650.20 0.3707
650.30 0.3696
650.40 0.3684
650.50 0.3672
650.60 0.3659
650.70 0.3647
650.80 0.3635
650.90 0.3623
651.00 0.361
651.10 0.3598
651.20 0.3586
651.30 0.3573
651.40 0.3558
651.50 0.3544
651.60 0.3529
651.70 0.3514
651.80 0.3499
651.90 0.3484
652.00 0.347
652.10 0.3455
652.20 0.344
652.30 0.3425
652.40 0.3407
652.50 0.3389
652.60 0.3372
652.70 0.3354
652.80 0.3336
652.90 0.3318
653.00 0.3301
653.10 0.3283
653.20 0.3265
653.30 0.3247
653.40 0.3225
653.50 0.3204
653.60 0.3182
653.70 0.3161
653.80 0.3139
653.90 0.3118
654.00 0.3097
654.10 0.3075
654.20 0.3054
654.30 0.3032
654.40 0.3007
654.50 0.2983
654.60 0.2958
654.70 0.2933
654.80 0.2908
654.90 0.288
655.00 0.2852
655.10 0.2823
655.20 0.2795
655.30 0.2766
655.40 0.2735
655.50 0.2703
655.60 0.2667
655.70 0.2629
655.80 0.2585
655.90 0.2535
656.00 0.2461
656.10 0.2378
656.20 0.2132
656.30 0.1887
656.40 0.227
656.50 0.2409
656.60 0.2482
656.70 0.2549
656.80 0.2591
656.90 0.2631
657.00 0.2664
657.10 0.2696
657.20 0.2725
657.30 0.2753
657.40 0.2779
657.50 0.2804
657.60 0.283
657.70 0.2855
657.80 0.288
657.90 0.2901
658.00 0.2923
658.10 0.2944
658.20 0.2966
658.30 0.2987
658.40 0.3005
658.50 0.3023
658.60 0.3041
658.70 0.3059
658.80 0.3077
658.90 0.3095
659.00 0.3113
659.10 0.3132
659.20 0.315
659.30 0.3167
659.40 0.3181
659.50 0.3195
659.60 0.3209
659.70 0.3223
659.80 0.3237
659.90 0.3251
660.00 0.3265
660.10 0.3279
660.20 0.3293
660.30 0.3306
660.40 0.3317
660.50 0.3328
660.60 0.3339
660.70 0.3349
660.80 0.336
660.90 0.3371
661.00 0.3382
661.10 0.3392
661.20 0.3403
661.30 0.3413
661.40 0.3421
661.50 0.3429
661.60 0.3437
661.70 0.3445
661.80 0.3453
661.90 0.3461
662.00 0.3469
662.10 0.3477
662.20 0.3485
662.30 0.3493
662.40 0.3499
662.50 0.3504
662.60 0.351
662.70 0.3516
662.80 0.3522
662.90 0.3527
663.00 0.3533
663.10 0.3539
663.20 0.3544
663.30 0.355
663.40 0.3554
663.50 0.3558
663.60 0.3562
663.70 0.3566
663.80 0.357
663.90 0.3574
664.00 0.3578
664.10 0.3582
664.20 0.3586
664.30 0.359
664.40 0.3593
664.50 0.3595
664.60 0.3598
664.70 0.3601
664.80 0.3604
664.90 0.3606
665.00 0.3609
665.10 0.3612
665.20 0.3614
665.30 0.3617
665.40 0.3618
665.50 0.362
665.60 0.3622
665.70 0.3623
665.80 0.3625
665.90 0.3627
666.00 0.3628
666.10 0.363
666.20 0.3632
666.30 0.3633
666.40 0.3634
666.50 0.3635
666.60 0.3636
666.70 0.3637
666.80 0.3638
666.90 0.3639
667.00 0.364
667.10 0.3641
667.20 0.3642
667.30 0.3642
667.40 0.3643
667.50 0.3643
667.60 0.3643
667.70 0.3644
667.80 0.3644
667.90 0.3645
668.00 0.3645
668.10 0.3645
668.20 0.3646
668.30 0.3646
668.40 0.3646
668.50 0.3646
668.60 0.3646
668.70 0.3645
668.80 0.3645
668.90 0.3645
669.00 0.3645
669.10 0.3645
669.20 0.3645
669.30 0.3645
669.40 0.3644
669.50 0.3644
669.60 0.3643
669.70 0.3643
669.80 0.3643
669.90 0.3642
670.00 0.3642
670.10 0.3641
670.20 0.3641
670.30 0.364
670.40 0.364
670.50 0.3639
670.60 0.3638
670.70 0.3637
670.80 0.3637
670.90 0.3636
671.00 0.3635
671.10 0.3634
671.20 0.3634
671.30 0.3633
671.40 0.3632
671.50 0.3631
671.60 0.363
671.70 0.3629
671.80 0.3628
671.90 0.3627
672.00 0.3627
672.10 0.3626
672.20 0.3625
672.30 0.3624
672.40 0.3623
672.50 0.3622
672.60 0.362
672.70 0.3619
672.80 0.3618
672.90 0.3617
673.00 0.3616
673.10 0.3615
673.20 0.3614
673.30 0.3613
673.40 0.3612
673.50 0.361
673.60 0.3609
673.70 0.3608
673.80 0.3607
673.90 0.3606
674.00 0.3604
674.10 0.3603
674.20 0.3602
674.30 0.3601
674.40 0.3599
674.50 0.3598
674.60 0.3597
674.70 0.3595
674.80 0.3594
674.90 0.3593
675.00 0.3591
675.10 0.359
675.20 0.3589
675.30 0.3587
675.40 0.3586
675.50 0.3585
675.60 0.3583
675.70 0.3582
675.80 0.3581
675.90 0.3579
676.00 0.3578
676.10 0.3576
676.20 0.3575
676.30 0.3574
676.40 0.3572
676.50 0.3571
676.60 0.3569
676.70 0.3568
676.80 0.3566
676.90 0.3565
677.00 0.3563
677.10 0.3562
677.20 0.356
677.30 0.3559
677.40 0.3557
677.50 0.3556
677.60 0.3554
677.70 0.3553
677.80 0.3551
677.90 0.355
678.00 0.3548
678.10 0.3547
678.20 0.3545
678.30 0.3544
678.40 0.3542
678.50 0.3541
678.60 0.3539
678.70 0.3538
678.80 0.3536
678.90 0.3535
679.00 0.3533
679.10 0.3531
679.20 0.353
679.30 0.3528
679.40 0.3527
679.50 0.3525
679.60 0.3524
679.70 0.3522
679.80 0.352
679.90 0.3519
680.00 0.3517
680.10 0.3516
680.20 0.3514
680.30 0.3513
680.40 0.3511
680.50 0.3509
680.60 0.3508
680.70 0.3506
680.80 0.3505
680.90 0.3503
681.00 0.3501
681.10 0.35
681.20 0.3498
681.30 0.3497
681.40 0.3495
681.50 0.3493
681.60 0.3492
681.70 0.349
681.80 0.3488
681.90 0.3487
682.00 0.3485
682.10 0.3484
682.20 0.3482
682.30 0.348
682.40 0.3479
682.50 0.3477
682.60 0.3475
682.70 0.3474
682.80 0.3472
682.90 0.3471
683.00 0.3469
683.10 0.3467
683.20 0.3466
683.30 0.3464
683.40 0.3462
683.50 0.3461
683.60 0.3459
683.70 0.3457
683.80 0.3456
683.90 0.3454
684.00 0.3453
684.10 0.3451
684.20 0.3449
684.30 0.3448
684.40 0.3446
684.50 0.3444
684.60 0.3443
684.70 0.3441
684.80 0.3439
684.90 0.3438
685.00 0.3436
685.10 0.3434
685.20 0.3433
685.30 0.3431
685.40 0.343
685.50 0.3428
685.60 0.3426
685.70 0.3425
685.80 0.3423
685.90 0.3421
686.00 0.342
686.10 0.3418
686.20 0.3416
686.30 0.3415
686.40 0.3413
686.50 0.3411
686.60 0.341
686.70 0.3408
686.80 0.3406
686.90 0.3405
687.00 0.3403
687.10 0.3402
687.20 0.34
687.30 0.3398
687.40 0.3397
687.50 0.3395
687.60 0.3393
687.70 0.3392
687.80 0.339
687.90 0.3388
688.00 0.3387
688.10 0.3385
688.20 0.3383
688.30 0.3382
688.40 0.338
688.50 0.3378
688.60 0.3377
688.70 0.3375
688.80 0.3374
688.90 0.3372
689.00 0.337
689.10 0.3369
689.20 0.3367
689.30 0.3365
689.40 0.3364
689.50 0.3362
689.60 0.336
689.70 0.3359
689.80 0.3357
689.90 0.3355
690.00 0.3354
690.10 0.3352
690.20 0.335
690.30 0.3349
690.40 0.3347
690.50 0.3345
690.60 0.3344
690.70 0.3342
690.80 0.334
690.90 0.3339
691.00 0.3337
691.10 0.3335
691.20 0.3334
691.30 0.3332
691.40 0.3331
691.50 0.3329
691.60 0.3327
691.70 0.3326
691.80 0.3324
691.90 0.3322
692.00 0.3321
692.10 0.3319
692.20 0.3317
692.30 0.3316
692.40 0.3314
692.50 0.3312
692.60 0.3311
692.70 0.3309
692.80 0.3308
692.90 0.3306
693.00 0.3304
693.10 0.3303
693.20 0.3301
693.30 0.3299
693.40 0.3298
693.50 0.3296
693.60 0.3295
693.70 0.3293
693.80 0.3291
693.90 0.329
694.00 0.3288
694.10 0.3286
694.20 0.3285
694.30 0.3283
694.40 0.3282
694.50 0.328
694.60 0.3278
694.70 0.3277
694.80 0.3275
694.90 0.3273
695.00 0.3272
695.10 0.327
695.20 0.3269
695.30 0.3267
695.40 0.3265
695.50 0.3264
695.60 0.3262
695.70 0.3261
695.80 0.3259
695.90 0.3257
696.00 0.3256
696.10 0.3254
696.20 0.3252
696.30 0.3251
696.40 0.3249
696.50 0.3248
696.60 0.3246
696.70 0.3244
696.80 0.3243
696.90 0.3241
697.00 0.324
697.10 0.3238
697.20 0.3236
697.30 0.3235
697.40 0.3233
697.50 0.3232
697.60 0.323
697.70 0.3228
697.80 0.3227
697.90 0.3225
698.00 0.3224
698.10 0.3222
698.20 0.3221
698.30 0.3219
698.40 0.3217
698.50 0.3216
698.60 0.3214
698.70 0.3213
698.80 0.3211
698.90 0.3209
699.00 0.3208
699.10 0.3206
699.20 0.3205
699.30 0.3203
699.40 0.3201
699.50 0.32
699.60 0.3198
699.70 0.3197
699.80 0.3195
699.90 0.3194
700.00 0.3192
700.10 0.319
700.20 0.3188
700.30 0.3187
700.40 0.3185
700.50 0.3183
700.60 0.3181
700.70 0.3179
700.80 0.3177
700.90 0.3176
701.00 0.3174
701.10 0.3172
701.20 0.317
701.30 0.3168
701.40 0.3167
701.50 0.3165
701.60 0.3163
701.70 0.3161
701.80 0.3159
701.90 0.3158
702.00 0.3156
702.10 0.3154
702.20 0.3152
702.30 0.315
702.40 0.3149
702.50 0.3147
702.60 0.3145
702.70 0.3143
702.80 0.3141
702.90 0.314
703.00 0.3138
703.10 0.3136
703.20 0.3134
703.30 0.3132
703.40 0.3131
703.50 0.3129
703.60 0.3127
703.70 0.3125
703.80 0.3123
703.90 0.3122
704.00 0.312
704.10 0.3118
704.20 0.3116
704.30 0.3114
704.40 0.3113
704.50 0.3111
704.60 0.3109
704.70 0.3107
704.80 0.3106
704.90 0.3104
705.00 0.3102
705.10 0.31
705.20 0.3099
705.30 0.3097
705.40 0.3096
705.50 0.3094
705.60 0.3093
705.70 0.3091
705.80 0.309
705.90 0.3088
706.00 0.3087
706.10 0.3085
706.20 0.3084
706.30 0.3082
706.40 0.3081
706.50 0.3079
706.60 0.3078
706.70 0.3076
706.80 0.3074
706.90 0.3073
707.00 0.3071
707.10 0.307
707.20 0.3068
707.30 0.3067
707.40 0.3065
707.50 0.3064
707.60 0.3062
707.70 0.3061
707.80 0.3059
707.90 0.3058
708.00 0.3056
708.10 0.3055
708.20 0.3053
708.30 0.3052
708.40 0.305
708.50 0.3049
708.60 0.3047
708.70 0.3046
708.80 0.3044
708.90 0.3043
709.00 0.3041
709.10 0.304
709.20 0.3038
709.30 0.3037
709.40 0.3035
709.50 0.3034
709.60 0.3032
709.70 0.3031
709.80 0.3029
709.90 0.3028
710.00 0.3026
710.10 0.3025
710.20 0.3023
710.30 0.3022
710.40 0.302
710.50 0.3019
710.60 0.3017
710.70 0.3016
710.80 0.3014
710.90 0.3013
711.00 0.3011
711.10 0.301
711.20 0.3008
711.30 0.3007
711.40 0.3005
711.50 0.3004
711.60 0.3002
711.70 0.3001
711.80 0.2999
711.90 0.2998
712.00 0.2996
712.10 0.2995
712.20 0.2994
712.30 0.2992
712.40 0.2991
712.50 0.2989
712.60 0.2988
712.70 0.2986
712.80 0.2985
712.90 0.2983
713.00 0.2982
713.10 0.298
713.20 0.2979
713.30 0.2977
713.40 0.2976
713.50 0.2974
713.60 0.2973
713.70 0.2971
713.80 0.297
713.90 0.2969
714.00 0.2967
714.10 0.2966
714.20 0.2964
714.30 0.2963
714.40 0.2961
714.50 0.296
714.60 0.2958
714.70 0.2957
714.80 0.2955
714.90 0.2954
715.00 0.2952
715.10 0.2951
715.20 0.295
715.30 0.2948
715.40 0.2947
715.50 0.2945
715.60 0.2944
715.70 0.2942
715.80 0.2941
715.90 0.294
716.00 0.2938
716.10 0.2937
716.20 0.2935
716.30 0.2934
716.40 0.2933
716.50 0.2931
716.60 0.293
716.70 0.2928
716.80 0.2927
716.90 0.2926
717.00 0.2924
717.10 0.2923
717.20 0.2921
717.30 0.292
717.40 0.2918
717.50 0.2917
717.60 0.2916
717.70 0.2914
717.80 0.2913
717.90 0.2911
718.00 0.291
718.10 0.2909
718.20 0.2907
718.30 0.2906
718.40 0.2904
718.50 0.2903
718.60 0.2902
718.70 0.29
718.80 0.2899
718.90 0.2897
719.00 0.2896
719.10 0.2895
719.20 0.2893
719.30 0.2892
719.40 0.289
719.50 0.2889
719.60 0.2888
719.70 0.2886
719.80 0.2885
719.90 0.2883
720.00 0.2882
720.10 0.2881
720.20 0.2879
720.30 0.2878
720.40 0.2876
720.50 0.2875
720.60 0.2874
720.70 0.2872
720.80 0.2871
720.90 0.2869
721.00 0.2868
721.10 0.2867
721.20 0.2865
721.30 0.2864
721.40 0.2862
721.50 0.2861
721.60 0.286
721.70 0.2858
721.80 0.2857
721.90 0.2855
722.00 0.2854
722.10 0.2853
722.20 0.2851
722.30 0.285
722.40 0.2848
722.50 0.2847
722.60 0.2846
722.70 0.2844
722.80 0.2843
722.90 0.2841
723.00 0.284
723.10 0.2839
723.20 0.2837
723.30 0.2836
723.40 0.2834
723.50 0.2833
723.60 0.2832
723.70 0.283
723.80 0.2829
723.90 0.2828
724.00 0.2826
724.10 0.2825
724.20 0.2823
724.30 0.2822
724.40 0.2821
724.50 0.2819
724.60 0.2818
724.70 0.2816
724.80 0.2815
724.90 0.2814
725.00 0.2812
725.10 0.2811
725.20 0.281
725.30 0.2808
725.40 0.2807
725.50 0.2806
725.60 0.2804
725.70 0.2803
725.80 0.2801
725.90 0.28
726.00 0.2799
726.10 0.2797
726.20 0.2796
726.30 0.2795
726.40 0.2793
726.50 0.2792
726.60 0.2791
726.70 0.2789
726.80 0.2788
726.90 0.2786
727.00 0.2785
727.10 0.2784
727.20 0.2782
727.30 0.2781
727.40 0.278
727.50 0.2778
727.60 0.2777
727.70 0.2776
727.80 0.2774
727.90 0.2773
728.00 0.2772
728.10 0.277
728.20 0.2769
728.30 0.2768
728.40 0.2766
728.50 0.2765
728.60 0.2763
728.70 0.2762
728.80 0.2761
728.90 0.2759
729.00 0.2758
729.10 0.2757
729.20 0.2755
729.30 0.2754
729.40 0.2753
729.50 0.2751
729.60 0.275
729.70 0.2749
729.80 0.2747
729.90 0.2746
730.00 0.2745
730.10 0.2743
730.20 0.2742
730.30 0.2741
730.40 0.2739
730.50 0.2738
730.60 0.2737
730.70 0.2735
730.80 0.2734
730.90 0.2733
731.00 0.2731
731.10 0.273
731.20 0.2729
731.30 0.2728
731.40 0.2726
731.50 0.2725
731.60 0.2724
731.70 0.2722
731.80 0.2721
731.90 0.272
732.00 0.2718
732.10 0.2717
732.20 0.2716
732.30 0.2714
732.40 0.2713
732.50 0.2712
732.60 0.271
732.70 0.2709
732.80 0.2708
732.90 0.2707
733.00 0.2705
733.10 0.2704
733.20 0.2703
733.30 0.2701
733.40 0.27
733.50 0.2699
733.60 0.2697
733.70 0.2696
733.80 0.2695
733.90 0.2694
734.00 0.2692
734.10 0.2691
734.20 0.269
734.30 0.2688
734.40 0.2687
734.50 0.2686
734.60 0.2684
734.70 0.2683
734.80 0.2682
734.90 0.2681
735.00 0.2679
735.10 0.2678
735.20 0.2677
735.30 0.2675
735.40 0.2674
735.50 0.2673
735.60 0.2672
735.70 0.267
735.80 0.2669
735.90 0.2668
736.00 0.2666
736.10 0.2665
736.20 0.2664
736.30 0.2663
736.40 0.2661
736.50 0.266
736.60 0.2659
736.70 0.2657
736.80 0.2656
736.90 0.2655
737.00 0.2654
737.10 0.2652
737.20 0.2651
737.30 0.265
737.40 0.2648
737.50 0.2647
737.60 0.2646
737.70 0.2645
737.80 0.2643
737.90 0.2642
738.00 0.2641
738.10 0.264
738.20 0.2638
738.30 0.2637
738.40 0.2636
738.50 0.2634
738.60 0.2633
738.70 0.2632
738.80 0.2631
738.90 0.2629
739.00 0.2628
739.10 0.2627
739.20 0.2626
739.30 0.2624
739.40 0.2623
739.50 0.2622
739.60 0.262
739.70 0.2619
739.80 0.2618
739.90 0.2617
740.00 0.2615
740.10 0.2614
740.20 0.2613
740.30 0.2612
740.40 0.261
740.50 0.2609
740.60 0.2608
740.70 0.2607
740.80 0.2605
740.90 0.2604
741.00 0.2603
741.10 0.2602
741.20 0.2601
741.30 0.2599
741.40 0.2598
741.50 0.2597
741.60 0.2596
741.70 0.2594
741.80 0.2593
741.90 0.2592
742.00 0.2591
742.10 0.2589
742.20 0.2588
742.30 0.2587
742.40 0.2586
742.50 0.2584
742.60 0.2583
742.70 0.2582
742.80 0.2581
742.90 0.258
743.00 0.2578
743.10 0.2577
743.20 0.2576
743.30 0.2575
743.40 0.2573
743.50 0.2572
743.60 0.2571
743.70 0.257
743.80 0.2569
743.90 0.2567
744.00 0.2566
744.10 0.2565
744.20 0.2564
744.30 0.2562
744.40 0.2561
744.50 0.256
744.60 0.2559
744.70 0.2558
744.80 0.2556
744.90 0.2555
745.00 0.2554
745.10 0.2553
745.20 0.2551
745.30 0.255
745.40 0.2549
745.50 0.2548
745.60 0.2547
745.70 0.2545
745.80 0.2544
745.90 0.2543
746.00 0.2542
746.10 0.2541
746.20 0.2539
746.30 0.2538
746.40 0.2537
746.50 0.2536
746.60 0.2534
746.70 0.2533
746.80 0.2532
746.90 0.2531
747.00 0.253
747.10 0.2528
747.20 0.2527
747.30 0.2526
747.40 0.2525
747.50 0.2524
747.60 0.2522
747.70 0.2521
747.80 0.252
747.90 0.2519
748.00 0.2518
748.10 0.2516
748.20 0.2515
748.30 0.2514
748.40 0.2513
748.50 0.2512
748.60 0.251
748.70 0.2509
748.80 0.2508
748.90 0.2507
749.00 0.2506
749.10 0.2504
749.20 0.2503
749.30 0.2502
749.40 0.2501
749.50 0.25
749.60 0.2498
749.70 0.2497
749.80 0.2496
749.90 0.2495
750.00 0.2494
750.10 0.2493
750.20 0.2491
750.30 0.249
750.40 0.2489
750.50 0.2488
750.60 0.2487
750.70 0.2486
750.80 0.2484
750.90 0.2483
751.00 0.2482
751.10 0.2481
751.20 0.248
751.30 0.2479
751.40 0.2477
751.50 0.2476
751.60 0.2475
751.70 0.2474
751.80 0.2473
751.90 0.2472
752.00 0.247
752.10 0.2469
752.20 0.2468
752.30 0.2467
752.40 0.2466
752.50 0.2465
752.60 0.2463
752.70 0.2462
752.80 0.2461
752.90 0.246
753.00 0.2459
753.10 0.2458
753.20 0.2456
753.30 0.2455
753.40 0.2454
753.50 0.2453
753.60 0.2452
753.70 0.2451
753.80 0.245
753.90 0.2448
754.00 0.2447
754.10 0.2446
754.20 0.2445
754.30 0.2444
754.40 0.2443
754.50 0.2441
754.60 0.244
754.70 0.2439
754.80 0.2438
754.90 0.2437
755.00 0.2436
755.10 0.2435
755.20 0.2433
755.30 0.2432
755.40 0.2431
755.50 0.243
755.60 0.2429
755.70 0.2428
755.80 0.2427
755.90 0.2425
756.00 0.2424
756.10 0.2423
756.20 0.2422
756.30 0.2421
756.40 0.242
756.50 0.2419
756.60 0.2417
756.70 0.2416
756.80 0.2415
756.90 0.2414
757.00 0.2413
757.10 0.2412
757.20 0.2411
757.30 0.241
757.40 0.2408
757.50 0.2407
757.60 0.2406
757.70 0.2405
757.80 0.2404
757.90 0.2403
758.00 0.2402
758.10 0.24
758.20 0.2399
758.30 0.2398
758.40 0.2397
758.50 0.2396
758.60 0.2395
758.70 0.2394
758.80 0.2393
758.90 0.2391
759.00 0.239
759.10 0.2389
759.20 0.2388
759.30 0.2387
759.40 0.2386
759.50 0.2385
759.60 0.2384
759.70 0.2382
759.80 0.2381
759.90 0.238
760.00 0.2379
760.10 0.2378
760.20 0.2377
760.30 0.2376
760.40 0.2375
760.50 0.2374
760.60 0.2372
760.70 0.2371
760.80 0.237
760.90 0.2369
761.00 0.2368
761.10 0.2367
761.20 0.2366
761.30 0.2365
761.40 0.2364
761.50 0.2363
761.60 0.2361
761.70 0.236
761.80 0.2359
761.90 0.2358
762.00 0.2357
762.10 0.2356
762.20 0.2355
762.30 0.2354
762.40 0.2353
762.50 0.2352
762.60 0.235
762.70 0.2349
762.80 0.2348
762.90 0.2347
763.00 0.2346
763.10 0.2345
763.20 0.2344
763.30 0.2343
763.40 0.2342
763.50 0.2341
763.60 0.234
763.70 0.2339
763.80 0.2337
763.90 0.2336
764.00 0.2335
764.10 0.2334
764.20 0.2333
764.30 0.2332
764.40 0.2331
764.50 0.233
764.60 0.2329
764.70 0.2328
764.80 0.2327
764.90 0.2325
765.00 0.2324
765.10 0.2323
765.20 0.2322
765.30 0.2321
765.40 0.232
765.50 0.2319
765.60 0.2318
765.70 0.2317
765.80 0.2316
765.90 0.2315
766.00 0.2314
766.10 0.2313
766.20 0.2311
766.30 0.231
766.40 0.2309
766.50 0.2308
766.60 0.2307
766.70 0.2306
766.80 0.2305
766.90 0.2304
767.00 0.2303
767.10 0.2302
767.20 0.2301
767.30 0.23
767.40 0.2299
767.50 0.2298
767.60 0.2296
767.70 0.2295
767.80 0.2294
767.90 0.2293
768.00 0.2292
768.10 0.2291
768.20 0.229
768.30 0.2289
768.40 0.2288
768.50 0.2287
768.60 0.2286
768.70 0.2285
768.80 0.2284
768.90 0.2283
769.00 0.2282
769.10 0.2281
769.20 0.2279
769.30 0.2278
769.40 0.2277
769.50 0.2276
769.60 0.2275
769.70 0.2274
769.80 0.2273
769.90 0.2272
770.00 0.2271
770.10 0.227
770.20 0.2269
770.30 0.2268
770.40 0.2267
770.50 0.2266
770.60 0.2265
770.70 0.2264
770.80 0.2263
770.90 0.2262
771.00 0.2261
771.10 0.226
771.20 0.2258
771.30 0.2257
771.40 0.2256
771.50 0.2255
771.60 0.2254
771.70 0.2253
771.80 0.2252
771.90 0.2251
772.00 0.225
772.10 0.2249
772.20 0.2248
772.30 0.2247
772.40 0.2246
772.50 0.2245
772.60 0.2244
772.70 0.2243
772.80 0.2242
772.90 0.2241
773.00 0.224
773.10 0.2239
773.20 0.2238
773.30 0.2237
773.40 0.2236
773.50 0.2235
773.60 0.2234
773.70 0.2233
773.80 0.2232
773.90 0.2231
774.00 0.223
774.10 0.2229
774.20 0.2228
774.30 0.2227
774.40 0.2226
774.50 0.2224
774.60 0.2223
774.70 0.2222
774.80 0.2221
774.90 0.222
775.00 0.2219
775.10 0.2218
775.20 0.2217
775.30 0.2216
775.40 0.2215
775.50 0.2214
775.60 0.2213
775.70 0.2212
775.80 0.2211
775.90 0.221
776.00 0.2209
776.10 0.2208
776.20 0.2207
776.30 0.2206
776.40 0.2205
776.50 0.2204
776.60 0.2203
776.70 0.2202
776.80 0.2201
776.90 0.22
777.00 0.2199
777.10 0.2198
777.20 0.2197
777.30 0.2196
777.40 0.2195
777.50 0.2194
777.60 0.2193
777.70 0.2192
777.80 0.2191
777.90 0.219
778.00 0.2189
778.10 0.2188
778.20 0.2187
778.30 0.2186
778.40 0.2185
778.50 0.2184
778.60 0.2183
778.70 0.2182
778.80 0.2181
778.90 0.218
779.00 0.2179
779.10 0.2178
779.20 0.2177
779.30 0.2176
779.40 0.2175
779.50 0.2174
779.60 0.2173
779.70 0.2172
779.80 0.2171
779.90 0.217
780.00 0.2169
780.10 0.2168
780.20 0.2167
780.30 0.2166
780.40 0.2165
780.50 0.2164
780.60 0.2163
780.70 0.2162
780.80 0.2161
780.90 0.216
781.00 0.2159
781.10 0.2158
781.20 0.2157
781.30 0.2156
781.40 0.2155
781.50 0.2154
781.60 0.2153
781.70 0.2152
781.80 0.2151
781.90 0.215
782.00 0.2149
782.10 0.2148
782.20 0.2147
782.30 0.2146
782.40 0.2145
782.50 0.2144
782.60 0.2144
782.70 0.2143
782.80 0.2142
782.90 0.2141
783.00 0.214
783.10 0.2139
783.20 0.2138
783.30 0.2137
783.40 0.2136
783.50 0.2135
783.60 0.2134
783.70 0.2133
783.80 0.2132
783.90 0.2131
784.00 0.213
784.10 0.2129
784.20 0.2128
784.30 0.2127
784.40 0.2126
784.50 0.2125
784.60 0.2124
784.70 0.2123
784.80 0.2122
784.90 0.2121
785.00 0.212
785.10 0.2119
785.20 0.2118
785.30 0.2117
785.40 0.2116
785.50 0.2115
785.60 0.2115
785.70 0.2114
785.80 0.2113
785.90 0.2112
786.00 0.2111
786.10 0.211
786.20 0.2109
786.30 0.2108
786.40 0.2107
786.50 0.2106
786.60 0.2105
786.70 0.2104
786.80 0.2103
786.90 0.2102
787.00 0.2101
787.10 0.21
787.20 0.2099
787.30 0.2098
787.40 0.2097
787.50 0.2096
787.60 0.2095
787.70 0.2094
787.80 0.2093
787.90 0.2093
788.00 0.2092
788.10 0.2091
788.20 0.209
788.30 0.2089
788.40 0.2088
788.50 0.2087
788.60 0.2086
788.70 0.2085
788.80 0.2084
788.90 0.2083
789.00 0.2082
789.10 0.2081
789.20 0.208
789.30 0.2079
789.40 0.2078
789.50 0.2077
789.60 0.2076
789.70 0.2075
789.80 0.2075
789.90 0.2074
790.00 0.2073
790.10 0.2072
790.20 0.2071
790.30 0.207
790.40 0.2069
790.50 0.2068
790.60 0.2067
790.70 0.2066
790.80 0.2065
790.90 0.2064
791.00 0.2063
791.10 0.2062
791.20 0.2062
791.30 0.2061
791.40 0.206
791.50 0.2059
791.60 0.2058
791.70 0.2057
791.80 0.2056
791.90 0.2055
792.00 0.2054
792.10 0.2053
792.20 0.2052
792.30 0.2051
792.40 0.205
792.50 0.205
792.60 0.2049
792.70 0.2048
792.80 0.2047
792.90 0.2046
793.00 0.2045
793.10 0.2044
793.20 0.2043
793.30 0.2042
793.40 0.2041
793.50 0.204
793.60 0.2039
793.70 0.2039
793.80 0.2038
793.90 0.2037
794.00 0.2036
794.10 0.2035
794.20 0.2034
794.30 0.2033
794.40 0.2032
794.50 0.2031
794.60 0.203
794.70 0.2029
794.80 0.2028
794.90 0.2028
795.00 0.2027
795.10 0.2026
795.20 0.2025
795.30 0.2024
795.40 0.2023
795.50 0.2022
795.60 0.2021
795.70 0.202
795.80 0.2019
795.90 0.2018
796.00 0.2018
796.10 0.2017
796.20 0.2016
796.30 0.2015
796.40 0.2014
796.50 0.2013
796.60 0.2012
796.70 0.2011
796.80 0.201
796.90 0.2009
797.00 0.2009
797.10 0.2008
797.20 0.2007
797.30 0.2006
797.40 0.2005
797.50 0.2004
797.60 0.2003
797.70 0.2002
797.80 0.2001
797.90 0.2
798.00 0.2
798.10 0.1999
798.20 0.1998
798.30 0.1997
798.40 0.1996
798.50 0.1995
798.60 0.1994
798.70 0.1993
798.80 0.1992
798.90 0.1991
799.00 0.1991
799.10 0.199
799.20 0.1989
799.30 0.1988
799.40 0.1987
799.50 0.1986
799.60 0.1985
799.70 0.1984
799.80 0.1983
799.90 0.1983
800.00 0.1982
800.10 0.1981
800.20 0.198
800.30 0.1979
800.40 0.1978
800.50 0.1977
800.60 0.1976
800.70 0.1976
800.80 0.1975
800.90 0.1974
801.00 0.1973
801.10 0.1972
801.20 0.1971
801.30 0.197
801.40 0.1969
801.50 0.1969
801.60 0.1968
801.70 0.1967
801.80 0.1966
801.90 0.1965
802.00 0.1964
802.10 0.1963
802.20 0.1962
802.30 0.1962
802.40 0.1961
802.50 0.196
802.60 0.1959
802.70 0.1958
802.80 0.1957
802.90 0.1956
803.00 0.1955
803.10 0.1955
803.20 0.1954
803.30 0.1953
803.40 0.1952
803.50 0.1951
803.60 0.195
803.70 0.1949
803.80 0.1949
803.90 0.1948
804.00 0.1947
804.10 0.1946
804.20 0.1945
804.30 0.1944
804.40 0.1943
804.50 0.1942
804.60 0.1942
804.70 0.1941
804.80 0.194
804.90 0.1939
805.00 0.1938
805.10 0.1937
805.20 0.1936
805.30 0.1936
805.40 0.1935
805.50 0.1934
805.60 0.1933
805.70 0.1932
805.80 0.1931
805.90 0.193
806.00 0.193
806.10 0.1929
806.20 0.1928
806.30 0.1927
806.40 0.1926
806.50 0.1925
806.60 0.1924
806.70 0.1924
806.80 0.1923
806.90 0.1922
807.00 0.1921
807.10 0.192
807.20 0.1919
807.30 0.1918
807.40 0.1918
807.50 0.1917
807.60 0.1916
807.70 0.1915
807.80 0.1914
807.90 0.1913
808.00 0.1913
808.10 0.1912
808.20 0.1911
808.30 0.191
808.40 0.1909
808.50 0.1908
808.60 0.1907
808.70 0.1907
808.80 0.1906
808.90 0.1905
809.00 0.1904
809.10 0.1903
809.20 0.1902
809.30 0.1902
809.40 0.1901
809.50 0.19
809.60 0.1899
809.70 0.1898
809.80 0.1897
809.90 0.1896
810.00 0.1896
810.10 0.1895
810.20 0.1894
810.30 0.1893
810.40 0.1892
810.50 0.1891
810.60 0.1891
810.70 0.189
810.80 0.1889
810.90 0.1888
811.00 0.1887
811.10 0.1887
811.20 0.1886
811.30 0.1885
811.40 0.1884
811.50 0.1883
811.60 0.1882
811.70 0.1882
811.80 0.1881
811.90 0.188
812.00 0.1879
812.10 0.1878
812.20 0.1877
812.30 0.1877
812.40 0.1876
812.50 0.1875
812.60 0.1874
812.70 0.1873
812.80 0.1872
812.90 0.1872
813.00 0.1871
813.10 0.187
813.20 0.1869
813.30 0.1868
813.40 0.1868
813.50 0.1867
813.60 0.1866
813.70 0.1865
813.80 0.1864
813.90 0.1863
814.00 0.1863
814.10 0.1862
814.20 0.1861
814.30 0.186
814.40 0.1859
814.50 0.1859
814.60 0.1858
814.70 0.1857
814.80 0.1856
814.90 0.1855
815.00 0.1855
815.10 0.1854
815.20 0.1853
815.30 0.1852
815.40 0.1851
815.50 0.185
815.60 0.185
815.70 0.1849
815.80 0.1848
815.90 0.1847
816.00 0.1846
816.10 0.1846
816.20 0.1845
816.30 0.1844
816.40 0.1843
816.50 0.1842
816.60 0.1842
816.70 0.1841
816.80 0.184
816.90 0.1839
817.00 0.1838
817.10 0.1837
817.20 0.1837
817.30 0.1836
817.40 0.1835
817.50 0.1834
817.60 0.1833
817.70 0.1833
817.80 0.1832
817.90 0.1831
818.00 0.183
818.10 0.1829
818.20 0.1829
818.30 0.1828
818.40 0.1827
818.50 0.1826
818.60 0.1825
818.70 0.1825
818.80 0.1824
818.90 0.1823
819.00 0.1822
819.10 0.1821
819.20 0.1821
819.30 0.182
819.40 0.1819
819.50 0.1818
819.60 0.1817
819.70 0.1817
819.80 0.1816
819.90 0.1815
820.00 0.1814
820.10 0.1813
820.20 0.1813
820.30 0.1812
820.40 0.1811
820.50 0.181
820.60 0.181
820.70 0.1809
820.80 0.1808
820.90 0.1807
821.00 0.1806
821.10 0.1806
821.20 0.1805
821.30 0.1804
821.40 0.1803
821.50 0.1802
821.60 0.1802
821.70 0.1801
821.80 0.18
821.90 0.1799
822.00 0.1799
822.10 0.1798
822.20 0.1797
822.30 0.1796
822.40 0.1795
822.50 0.1795
822.60 0.1794
822.70 0.1793
822.80 0.1792
822.90 0.1792
823.00 0.1791
823.10 0.179
823.20 0.1789
823.30 0.1788
823.40 0.1788
823.50 0.1787
823.60 0.1786
823.70 0.1785
823.80 0.1785
823.90 0.1784
824.00 0.1783
824.10 0.1782
824.20 0.1781
824.30 0.1781
824.40 0.178
824.50 0.1779
824.60 0.1778
824.70 0.1778
824.80 0.1777
824.90 0.1776
825.00 0.1775
825.10 0.1775
825.20 0.1774
825.30 0.1773
825.40 0.1772
825.50 0.1771
825.60 0.1771
825.70 0.177
825.80 0.1769
825.90 0.1768
826.00 0.1768
826.10 0.1767
826.20 0.1766
826.30 0.1765
826.40 0.1765
826.50 0.1764
826.60 0.1763
826.70 0.1762
826.80 0.1761
826.90 0.1761
827.00 0.176
827.10 0.1759
827.20 0.1758
827.30 0.1758
827.40 0.1757
827.50 0.1756
827.60 0.1755
827.70 0.1755
827.80 0.1754
827.90 0.1753
828.00 0.1752
828.10 0.1752
828.20 0.1751
828.30 0.175
828.40 0.1749
828.50 0.1749
828.60 0.1748
828.70 0.1747
828.80 0.1746
828.90 0.1746
829.00 0.1745
829.10 0.1744
829.20 0.1743
829.30 0.1743
829.40 0.1742
829.50 0.1741
829.60 0.174
829.70 0.174
829.80 0.1739
829.90 0.1738
830.00 0.1737
830.10 0.1737
830.20 0.1736
830.30 0.1735
830.40 0.1734
830.50 0.1734
830.60 0.1733
830.70 0.1732
830.80 0.1731
830.90 0.1731
831.00 0.173
831.10 0.1729
831.20 0.1728
831.30 0.1728
831.40 0.1727
831.50 0.1726
831.60 0.1725
831.70 0.1725
831.80 0.1724
831.90 0.1723
832.00 0.1722
832.10 0.1722
832.20 0.1721
832.30 0.172
832.40 0.1719
832.50 0.1719
832.60 0.1718
832.70 0.1717
832.80 0.1716
832.90 0.1716
833.00 0.1715
833.10 0.1714
833.20 0.1713
833.30 0.1713
833.40 0.1712
833.50 0.1711
833.60 0.1711
833.70 0.171
833.80 0.1709
833.90 0.1708
834.00 0.1708
834.10 0.1707
834.20 0.1706
834.30 0.1705
834.40 0.1705
834.50 0.1704
834.60 0.1703
834.70 0.1702
834.80 0.1702
834.90 0.1701
835.00 0.17
835.10 0.17
835.20 0.1699
835.30 0.1698
835.40 0.1697
835.50 0.1697
835.60 0.1696
835.70 0.1695
835.80 0.1694
835.90 0.1694
836.00 0.1693
836.10 0.1692
836.20 0.1692
836.30 0.1691
836.40 0.169
836.50 0.1689
836.60 0.1689
836.70 0.1688
836.80 0.1687
836.90 0.1686
837.00 0.1686
837.10 0.1685
837.20 0.1684
837.30 0.1684
837.40 0.1683
837.50 0.1682
837.60 0.1681
837.70 0.1681
837.80 0.168
837.90 0.1679
838.00 0.1679
838.10 0.1678
838.20 0.1677
838.30 0.1676
838.40 0.1676
838.50 0.1675
838.60 0.1674
838.70 0.1674
838.80 0.1673
838.90 0.1672
839.00 0.1671
839.10 0.1671
839.20 0.167
839.30 0.1669
839.40 0.1669
839.50 0.1668
839.60 0.1667
839.70 0.1666
839.80 0.1666
839.90 0.1665
840.00 0.1664
840.10 0.1664
840.20 0.1663
840.30 0.1662
840.40 0.1661
840.50 0.1661
840.60 0.166
840.70 0.1659
840.80 0.1659
840.90 0.1658
841.00 0.1657
841.10 0.1657
841.20 0.1656
841.30 0.1655
841.40 0.1654
841.50 0.1654
841.60 0.1653
841.70 0.1652
841.80 0.1652
841.90 0.1651
842.00 0.165
842.10 0.1649
842.20 0.1649
842.30 0.1648
842.40 0.1647
842.50 0.1647
842.60 0.1646
842.70 0.1645
842.80 0.1645
842.90 0.1644
843.00 0.1643
843.10 0.1642
843.20 0.1642
843.30 0.1641
843.40 0.164
843.50 0.164
843.60 0.1639
843.70 0.1638
843.80 0.1638
843.90 0.1637
844.00 0.1636
844.10 0.1635
844.20 0.1635
844.30 0.1634
844.40 0.1633
844.50 0.1633
844.60 0.1632
844.70 0.1631
844.80 0.1631
844.90 0.163
845.00 0.1629
845.10 0.1629
845.20 0.1628
845.30 0.1627
845.40 0.1626
845.50 0.1626
845.60 0.1625
845.70 0.1624
845.80 0.1624
845.90 0.1623
846.00 0.1622
846.10 0.1622
846.20 0.1621
846.30 0.162
846.40 0.162
846.50 0.1619
846.60 0.1618
846.70 0.1618
846.80 0.1617
846.90 0.1616
847.00 0.1615
847.10 0.1615
847.20 0.1614
847.30 0.1614
847.40 0.1613
847.50 0.1612
847.60 0.1612
847.70 0.1611
847.80 0.161
847.90 0.161
848.00 0.1609
848.10 0.1608
848.20 0.1608
848.30 0.1607
848.40 0.1606
848.50 0.1606
848.60 0.1605
848.70 0.1605
848.80 0.1604
848.90 0.1603
849.00 0.1603
849.10 0.1602
849.20 0.1601
849.30 0.1601
849.40 0.16
849.50 0.1599
849.60 0.1599
849.70 0.1598
849.80 0.1598
849.90 0.1597
850.00 0.1596
850.10 0.1596
850.20 0.1595
850.30 0.1594
850.40 0.1594
850.50 0.1593
850.60 0.1592
850.70 0.1592
850.80 0.1591
850.90 0.1591
851.00 0.159
851.10 0.1589
851.20 0.1589
851.30 0.1588
851.40 0.1587
851.50 0.1587
851.60 0.1586
851.70 0.1586
851.80 0.1585
851.90 0.1584
852.00 0.1584
852.10 0.1583
852.20 0.1582
852.30 0.1582
852.40 0.1581
852.50 0.158
852.60 0.158
852.70 0.1579
852.80 0.1579
852.90 0.1578
853.00 0.1577
853.10 0.1577
853.20 0.1576
853.30 0.1576
853.40 0.1575
853.50 0.1574
853.60 0.1574
853.70 0.1573
853.80 0.1572
853.90 0.1572
854.00 0.1571
854.10 0.1571
854.20 0.157
854.30 0.1569
854.40 0.1569
854.50 0.1568
854.60 0.1567
854.70 0.1567
854.80 0.1566
854.90 0.1566
855.00 0.1565
855.10 0.1564
855.20 0.1564
855.30 0.1563
855.40 0.1563
855.50 0.1562
855.60 0.1561
855.70 0.1561
855.80 0.156
855.90 0.1559
856.00 0.1559
856.10 0.1558
856.20 0.1558
856.30 0.1557
856.40 0.1556
856.50 0.1556
856.60 0.1555
856.70 0.1555
856.80 0.1554
856.90 0.1553
857.00 0.1553
857.10 0.1552
857.20 0.1552
857.30 0.1551
857.40 0.155
857.50 0.155
857.60 0.1549
857.70 0.1549
857.80 0.1548
857.90 0.1547
858.00 0.1547
858.10 0.1546
858.20 0.1546
858.30 0.1545
858.40 0.1544
858.50 0.1544
858.60 0.1543
858.70 0.1543
858.80 0.1542
858.90 0.1542
859.00 0.1541
859.10 0.154
859.20 0.154
859.30 0.1539
859.40 0.1539
859.50 0.1538
859.60 0.1538
859.70 0.1537
859.80 0.1536
859.90 0.1536
860.00 0.1535
860.10 0.1535
860.20 0.1534
860.30 0.1533
860.40 0.1533
860.50 0.1532
860.60 0.1532
860.70 0.1531
860.80 0.1531
860.90 0.153
861.00 0.1529
861.10 0.1529
861.20 0.1528
861.30 0.1528
861.40 0.1527
861.50 0.1527
861.60 0.1526
861.70 0.1525
861.80 0.1525
861.90 0.1524
862.00 0.1524
862.10 0.1523
862.20 0.1522
862.30 0.1522
862.40 0.1521
862.50 0.1521
862.60 0.152
862.70 0.152
862.80 0.1519
862.90 0.1518
863.00 0.1518
863.10 0.1517
863.20 0.1517
863.30 0.1516
863.40 0.1516
863.50 0.1515
863.60 0.1514
863.70 0.1514
863.80 0.1513
863.90 0.1513
864.00 0.1512
864.10 0.1512
864.20 0.1511
864.30 0.1511
864.40 0.151
864.50 0.1509
864.60 0.1509
864.70 0.1508
864.80 0.1508
864.90 0.1507
865.00 0.1507
865.10 0.1506
865.20 0.1505
865.30 0.1505
865.40 0.1504
865.50 0.1504
865.60 0.1503
865.70 0.1503
865.80 0.1502
865.90 0.1501
866.00 0.1501
866.10 0.15
866.20 0.15
866.30 0.1499
866.40 0.1499
866.50 0.1498
866.60 0.1498
866.70 0.1497
866.80 0.1496
866.90 0.1496
867.00 0.1495
867.10 0.1495
867.20 0.1494
867.30 0.1494
867.40 0.1493
867.50 0.1493
867.60 0.1492
867.70 0.1492
867.80 0.1491
867.90 0.1491
868.00 0.149
868.10 0.149
868.20 0.149
868.30 0.1489
868.40 0.1489
868.50 0.1488
868.60 0.1488
868.70 0.1487
868.80 0.1487
868.90 0.1486
869.00 0.1486
869.10 0.1485
869.20 0.1485
869.30 0.1484
869.40 0.1484
869.50 0.1483
869.60 0.1483
869.70 0.1482
869.80 0.1482
869.90 0.1481
870.00 0.1481
870.10 0.148
870.20 0.148
870.30 0.148
870.40 0.1479
870.50 0.1479
870.60 0.1478
870.70 0.1478
870.80 0.1477
870.90 0.1477
871.00 0.1476
871.10 0.1476
871.20 0.1475
871.30 0.1475
871.40 0.1474
871.50 0.1474
871.60 0.1473
871.70 0.1473
871.80 0.1472
871.90 0.1472
872.00 0.1472
872.10 0.1471
872.20 0.147
872.30 0.147
872.40 0.1469
872.50 0.1469
872.60 0.1468
872.70 0.1468
872.80 0.1467
872.90 0.1467
873.00 0.1466
873.10 0.1466
873.20 0.1465
873.30 0.1465
873.40 0.1464
873.50 0.1464
873.60 0.1463
873.70 0.1463
873.80 0.1462
873.90 0.1462
874.00 0.1461
874.10 0.1461
874.20 0.146
874.30 0.146
874.40 0.1459
874.50 0.1459
874.60 0.1458
874.70 0.1458
874.80 0.1457
874.90 0.1457
875.00 0.1456
875.10 0.1456
875.20 0.1455
875.30 0.1455
875.40 0.1454
875.50 0.1454
875.60 0.1453
875.70 0.1453
875.80 0.1452
875.90 0.1452
876.00 0.1451
876.10 0.1451
876.20 0.145
876.30 0.145
876.40 0.1449
876.50 0.1449
876.60 0.1448
876.70 0.1448
876.80 0.1447
876.90 0.1447
877.00 0.1446
877.10 0.1446
877.20 0.1445
877.30 0.1445
877.40 0.1444
877.50 0.1444
877.60 0.1444
877.70 0.1443
877.80 0.1443
877.90 0.1442
878.00 0.1442
878.10 0.1442
878.20 0.1441
878.30 0.1441
878.40 0.144
878.50 0.144
878.60 0.144
878.70 0.1439
878.80 0.1439
878.90 0.1438
879.00 0.1438
879.10 0.1437
879.20 0.1437
879.30 0.1437
879.40 0.1436
879.50 0.1436
879.60 0.1435
879.70 0.1435
879.80 0.1435
879.90 0.1434
880.00 0.1434
880.10 0.1433
880.20 0.1433
880.30 0.1433
880.40 0.1432
880.50 0.1432
880.60 0.1431
880.70 0.1431
880.80 0.1431
880.90 0.143
881.00 0.143
881.10 0.1429
881.20 0.1429
881.30 0.1429
881.40 0.1428
881.50 0.1428
881.60 0.1427
881.70 0.1427
881.80 0.1427
881.90 0.1426
882.00 0.1426
882.10 0.1425
882.20 0.1424
882.30 0.1424
882.40 0.1423
882.50 0.1422
882.60 0.1421
882.70 0.142
882.80 0.142
882.90 0.1419
883.00 0.1418
883.10 0.1417
883.20 0.1417
883.30 0.1416
883.40 0.1415
883.50 0.1414
883.60 0.1414
883.70 0.1413
883.80 0.1412
883.90 0.1411
884.00 0.1411
884.10 0.141
884.20 0.1409
884.30 0.1408
884.40 0.1408
884.50 0.1407
884.60 0.1406
884.70 0.1405
884.80 0.1404
884.90 0.1404
885.00 0.1403
885.10 0.1402
885.20 0.1401
885.30 0.1401
885.40 0.14
885.50 0.1399
885.60 0.1398
885.70 0.1398
885.80 0.1397
885.90 0.1396
886.00 0.1395
886.10 0.1395
886.20 0.1394
886.30 0.1393
886.40 0.1392
886.50 0.1392
886.60 0.1391
886.70 0.139
886.80 0.1389
886.90 0.1389
887.00 0.1388
887.10 0.1388
887.20 0.1388
887.30 0.1388
887.40 0.1387
887.50 0.1387
887.60 0.1387
887.70 0.1387
887.80 0.1387
887.90 0.1387
888.00 0.1387
888.10 0.1387
888.20 0.1387
888.30 0.1387
888.40 0.1386
888.50 0.1386
888.60 0.1386
888.70 0.1386
888.80 0.1386
888.90 0.1386
889.00 0.1386
889.10 0.1386
889.20 0.1386
889.30 0.1385
889.40 0.1385
889.50 0.1385
889.60 0.1385
889.70 0.1385
889.80 0.1385
889.90 0.1385
890.00 0.1385
890.10 0.1385
890.20 0.1385
890.30 0.1384
890.40 0.1384
890.50 0.1384
890.60 0.1384
890.70 0.1384
890.80 0.1384
890.90 0.1384
891.00 0.1384
891.10 0.1384
891.20 0.1383
891.30 0.1383
891.40 0.1383
891.50 0.1383
891.60 0.1383
891.70 0.1383
891.80 0.1383
891.90 0.1383
892.00 0.1383
892.10 0.1382
892.20 0.1382
892.30 0.1381
892.40 0.1381
892.50 0.138
892.60 0.138
892.70 0.1379
892.80 0.1379
892.90 0.1378
893.00 0.1378
893.10 0.1377
893.20 0.1377
893.30 0.1376
893.40 0.1376
893.50 0.1375
893.60 0.1375
893.70 0.1375
893.80 0.1374
893.90 0.1374
894.00 0.1373
894.10 0.1373
894.20 0.1372
894.30 0.1372
894.40 0.1371
894.50 0.1371
894.60 0.137
894.70 0.137
894.80 0.1369
894.90 0.1369
895.00 0.1368
895.10 0.1368
895.20 0.1367
895.30 0.1367
895.40 0.1366
895.50 0.1366
895.60 0.1366
895.70 0.1365
895.80 0.1365
895.90 0.1364
896.00 0.1364
896.10 0.1363
896.20 0.1363
896.30 0.1362
896.40 0.1362
896.50 0.1361
896.60 0.1361
896.70 0.136
896.80 0.136
896.90 0.1359
897.00 0.1359
897.10 0.1358
897.20 0.1356
897.30 0.1355
897.40 0.1353
897.50 0.1352
897.60 0.1351
897.70 0.1349
897.80 0.1348
897.90 0.1347
898.00 0.1345
898.10 0.1344
898.20 0.1342
898.30 0.1341
898.40 0.134
898.50 0.1338
898.60 0.1337
898.70 0.1336
898.80 0.1334
898.90 0.1333
899.00 0.1332
899.10 0.133
899.20 0.1329
899.30 0.1327
899.40 0.1326
899.50 0.1325
899.60 0.1323
899.70 0.1322
899.80 0.1321
899.90 0.1319
900.00 0.1318
900.10 0.1317
900.20 0.1315
900.30 0.1314
900.40 0.1313
900.50 0.1311
900.60 0.131
900.70 0.1308
900.80 0.1307
900.90 0.1306
901.00 0.1304
901.10 0.1303
901.20 0.1302
901.30 0.13
901.40 0.1299
901.50 0.1298
901.60 0.1296
901.70 0.1295
901.80 0.1294
901.90 0.1292
902.00 0.1291
902.10 0.1291
902.20 0.1292
902.30 0.1292
902.40 0.1292
902.50 0.1293
902.60 0.1293
902.70 0.1293
902.80 0.1293
902.90 0.1294
903.00 0.1294
903.10 0.1294
903.20 0.1295
903.30 0.1295
903.40 0.1295
903.50 0.1296
903.60 0.1296
903.70 0.1296
903.80 0.1297
903.90 0.1297
904.00 0.1297
904.10 0.1298
904.20 0.1298
904.30 0.1298
904.40 0.1299
904.50 0.1299
904.60 0.1299
904.70 0.1299
904.80 0.13
904.90 0.13
905.00 0.13
905.10 0.1301
905.20 0.1301
905.30 0.1301
905.40 0.1302
905.50 0.1302
905.60 0.1302
905.70 0.1303
905.80 0.1303
905.90 0.1303
906.00 0.1304
906.10 0.1304
906.20 0.1304
906.30 0.1304
906.40 0.1305
906.50 0.1305
906.60 0.1305
906.70 0.1306
906.80 0.1306
906.90 0.1306
907.00 0.1307
907.10 0.1306
907.20 0.1306
907.30 0.1306
907.40 0.1306
907.50 0.1306
907.60 0.1305
907.70 0.1305
907.80 0.1305
907.90 0.1305
908.00 0.1305
908.10 0.1305
908.20 0.1304
908.30 0.1304
908.40 0.1304
908.50 0.1304
908.60 0.1304
908.70 0.1303
908.80 0.1303
908.90 0.1303
909.00 0.1303
909.10 0.1303
909.20 0.1303
909.30 0.1302
909.40 0.1302
909.50 0.1302
909.60 0.1302
909.70 0.1302
909.80 0.1301
909.90 0.1301
910.00 0.1301
910.10 0.1301
910.20 0.1301
910.30 0.1301
910.40 0.13
910.50 0.13
910.60 0.13
910.70 0.13
910.80 0.13
910.90 0.1299
911.00 0.1299
911.10 0.1299
911.20 0.1299
911.30 0.1299
911.40 0.1298
911.50 0.1298
911.60 0.1298
911.70 0.1298
911.80 0.1298
911.90 0.1298
912.00 0.1297
912.10 0.1297
912.20 0.1296
912.30 0.1295
912.40 0.1294
912.50 0.1293
912.60 0.1293
912.70 0.1292
912.80 0.1291
912.90 0.129
913.00 0.1289
913.10 0.1289
913.20 0.1288
913.30 0.1287
913.40 0.1286
913.50 0.1286
913.60 0.1285
913.70 0.1284
913.80 0.1283
913.90 0.1282
914.00 0.1282
914.10 0.1281
914.20 0.128
914.30 0.1279
914.40 0.1278
914.50 0.1278
914.60 0.1277
914.70 0.1276
914.80 0.1275
914.90 0.1275
915.00 0.1274
915.10 0.1273
915.20 0.1272
915.30 0.1271
915.40 0.1271
915.50 0.127
915.60 0.1269
915.70 0.1268
915.80 0.1268
915.90 0.1267
916.00 0.1266
916.10 0.1265
916.20 0.1264
916.30 0.1264
916.40 0.1263
916.50 0.1262
916.60 0.1261
916.70 0.1261
916.80 0.126
916.90 0.1259
917.00 0.1258
917.10 0.1256
917.20 0.1255
917.30 0.1253
917.40 0.1251
917.50 0.125
917.60 0.1248
917.70 0.1246
917.80 0.1245
917.90 0.1243
918.00 0.1241
918.10 0.1239
918.20 0.1238
918.30 0.1236
918.40 0.1234
918.50 0.1233
918.60 0.1231
918.70 0.1229
918.80 0.1227
918.90 0.1226
919.00 0.1224
919.10 0.1222
919.20 0.1221
919.30 0.1219
919.40 0.1217
919.50 0.1216
919.60 0.1214
919.70 0.1212
919.80 0.121
919.90 0.1209
920.00 0.1207
920.10 0.1205
920.20 0.1204
920.30 0.1202
920.40 0.12
920.50 0.1199
920.60 0.1197
920.70 0.1195
920.80 0.1194
920.90 0.1192
921.00 0.119
921.10 0.1188
921.20 0.1187
921.30 0.1185
921.40 0.1183
921.50 0.1182
921.60 0.118
921.70 0.1178
921.80 0.1177
921.90 0.1175
922.00 0.1173
922.10 0.1173
922.20 0.1172
922.30 0.1171
922.40 0.1171
922.50 0.117
922.60 0.1169
922.70 0.1169
922.80 0.1168
922.90 0.1167
923.00 0.1167
923.10 0.1166
923.20 0.1165
923.30 0.1164
923.40 0.1164
923.50 0.1163
923.60 0.1162
923.70 0.1162
923.80 0.1161
923.90 0.116
924.00 0.116
924.10 0.1159
924.20 0.1158
924.30 0.1158
924.40 0.1157
924.50 0.1156
924.60 0.1156
924.70 0.1155
924.80 0.1154
924.90 0.1154
925.00 0.1153
925.10 0.1152
925.20 0.1152
925.30 0.1151
925.40 0.115
925.50 0.115
925.60 0.1149
925.70 0.1148
925.80 0.1148
925.90 0.1147
926.00 0.1146
926.10 0.1146
926.20 0.1145
926.30 0.1144
926.40 0.1143
926.50 0.1143
926.60 0.1142
926.70 0.1141
926.80 0.1141
926.90 0.114
927.00 0.1139
927.10 0.114
927.20 0.1141
927.30 0.1142
927.40 0.1143
927.50 0.1144
927.60 0.1144
927.70 0.1145
927.80 0.1146
927.90 0.1147
928.00 0.1148
928.10 0.1148
928.20 0.1149
928.30 0.115
928.40 0.1151
928.50 0.1152
928.60 0.1152
928.70 0.1153
928.80 0.1154
928.90 0.1155
929.00 0.1156
929.10 0.1156
929.20 0.1157
929.30 0.1158
929.40 0.1159
929.50 0.116
929.60 0.116
929.70 0.1161
929.80 0.1162
929.90 0.1163
930.00 0.1164
930.10 0.1164
930.20 0.1165
930.30 0.1166
930.40 0.1167
930.50 0.1168
930.60 0.1168
930.70 0.1169
930.80 0.117
930.90 0.1171
931.00 0.1172
931.10 0.1172
931.20 0.1173
931.30 0.1174
931.40 0.1175
931.50 0.1176
931.60 0.1176
931.70 0.1177
931.80 0.1178
931.90 0.1179
932.00 0.118
932.10 0.118
932.20 0.118
932.30 0.118
932.40 0.118
932.50 0.118
932.60 0.1181
932.70 0.1181
932.80 0.1181
932.90 0.1181
933.00 0.1181
933.10 0.1181
933.20 0.1182
933.30 0.1182
933.40 0.1182
933.50 0.1182
933.60 0.1182
933.70 0.1182
933.80 0.1183
933.90 0.1183
934.00 0.1183
934.10 0.1183
934.20 0.1183
934.30 0.1183
934.40 0.1183
934.50 0.1183
934.60 0.1183
934.70 0.1183
934.80 0.1183
934.90 0.1182
935.00 0.1182
935.10 0.1182
935.20 0.1182
935.30 0.1182
935.40 0.1182
935.50 0.1182
935.60 0.1181
935.70 0.1181
935.80 0.1181
935.90 0.1181
936.00 0.1181
936.10 0.1181
936.20 0.118
936.30 0.118
936.40 0.118
936.50 0.118
936.60 0.118
936.70 0.118
936.80 0.118
936.90 0.1179
937.00 0.1179
937.10 0.1179
937.20 0.1179
937.30 0.1178
937.40 0.1178
937.50 0.1177
937.60 0.1177
937.70 0.1177
937.80 0.1176
937.90 0.1176
938.00 0.1176
938.10 0.1175
938.20 0.1175
938.30 0.1175
938.40 0.1174
938.50 0.1174
938.60 0.1173
938.70 0.1172
938.80 0.1172
938.90 0.1171
939.00 0.1171
939.10 0.117
939.20 0.117
939.30 0.1169
939.40 0.1169
939.50 0.1168
939.60 0.1168
939.70 0.1167
939.80 0.1167
939.90 0.1166
940.00 0.1166
940.10 0.1165
940.20 0.1165
940.30 0.1164
940.40 0.1163
940.50 0.1163
940.60 0.1162
940.70 0.1161
940.80 0.116
940.90 0.116
941.00 0.1159
941.10 0.1158
941.20 0.1158
941.30 0.1157
941.40 0.1156
941.50 0.1155
941.60 0.1155
941.70 0.1154
941.80 0.1153
941.90 0.1152
942.00 0.1152
942.10 0.1151
942.20 0.115
942.30 0.1149
942.40 0.1148
942.50 0.1147
942.60 0.1146
942.70 0.1145
942.80 0.1144
942.90 0.1143
943.00 0.1141
943.10 0.114
943.20 0.1139
943.30 0.1138
943.40 0.1137
943.50 0.1136
943.60 0.1135
943.70 0.1134
943.80 0.1133
943.90 0.1132
944.00 0.1131
944.10 0.113
944.20 0.1129
944.30 0.1127
944.40 0.1126
944.50 0.1125
944.60 0.1123
944.70 0.1122
944.80 0.112
944.90 0.1119
945.00 0.1118
945.10 0.1116
945.20 0.1115
945.30 0.1113
945.40 0.1112
945.50 0.111
945.60 0.1108
945.70 0.1106
945.80 0.1105
945.90 0.1103
946.00 0.1101
946.10 0.1099
946.20 0.1098
946.30 0.1096
946.40 0.1094
946.50 0.1092
946.60 0.1091
946.70 0.1089
946.80 0.1087
946.90 0.1085
947.00 0.1084
947.10 0.1082
947.20 0.1079
947.30 0.1077
947.40 0.1075
947.50 0.1073
947.60 0.107
947.70 0.1068
947.80 0.1066
947.90 0.1063
948.00 0.1061
948.10 0.1059
948.20 0.1056
948.30 0.1054
948.40 0.1052
948.50 0.1049
948.60 0.1047
948.70 0.1045
948.80 0.1043
948.90 0.104
949.00 0.1038
949.10 0.1036
949.20 0.1033
949.30 0.1031
949.40 0.1028
949.50 0.1026
949.60 0.1023
949.70 0.1021
949.80 0.1018
949.90 0.1016
950.00 0.1013
950.10 0.1011
950.20 0.1008
950.30 0.1005
950.40 0.1003
950.50 0.1
950.60 0.09978
950.70 0.09953
950.80 0.09927
950.90 0.09902
951.00 0.09877
951.10 0.09851
951.20 0.09826
951.30 0.09801
951.40 0.09777
951.50 0.09754
951.60 0.09731
951.70 0.09707
951.80 0.09684
951.90 0.09661
952.00 0.09637
952.10 0.09618
952.20 0.09599
952.30 0.0958
952.40 0.09561
952.50 0.09542
952.60 0.09523
952.70 0.09505
952.80 0.09486
952.90 0.09477
953.00 0.09468
953.10 0.09458
953.20 0.09449
953.30 0.0944
953.40 0.09431
953.50 0.09423
953.60 0.09443
953.70 0.09464
953.80 0.09485
953.90 0.09507
954.00 0.09588
954.10 0.09669
954.20 0.09754
954.30 0.09691
954.40 0.09526
954.50 0.09447
954.60 0.09375
954.70 0.09304
954.80 0.09279
954.90 0.09254
955.00 0.09229
955.10 0.09204
955.20 0.09205
955.30 0.09207
955.40 0.09208
955.50 0.09209
955.60 0.0921
955.70 0.09212
955.80 0.09213
955.90 0.09224
956.00 0.09235
956.10 0.09247
956.20 0.09258
956.30 0.09269
956.40 0.0928
956.50 0.09291
956.60 0.09302
956.70 0.09314
956.80 0.09325
956.90 0.09336
957.00 0.09347
957.10 0.0936
957.20 0.09374
957.30 0.09387
957.40 0.09401
957.50 0.09415
957.60 0.09429
957.70 0.09442
957.80 0.09456
957.90 0.0947
958.00 0.09484
958.10 0.09497
958.20 0.09511
958.30 0.09525
958.40 0.09538
958.50 0.09552
958.60 0.09566
958.70 0.0958
958.80 0.09593
958.90 0.09607
959.00 0.09621
959.10 0.09634
959.20 0.09648
959.30 0.09661
959.40 0.09673
959.50 0.09685
959.60 0.09697
959.70 0.09708
959.80 0.0972
959.90 0.09732
960.00 0.09744
960.10 0.09755
960.20 0.09767
960.30 0.09779
960.40 0.0979
960.50 0.09802
960.60 0.09814
960.70 0.09826
960.80 0.09837
960.90 0.09849
961.00 0.09861
961.10 0.09872
961.20 0.09884
961.30 0.09896
961.40 0.09905
961.50 0.09915
961.60 0.09925
961.70 0.09935
961.80 0.09944
961.90 0.09954
962.00 0.09964
962.10 0.09972
962.20 0.09981
962.30 0.09989
962.40 0.09997
962.50 0.1001
962.60 0.1001
962.70 0.1002
962.80 0.1003
962.90 0.1004
963.00 0.1005
963.10 0.1006
963.20 0.1006
963.30 0.1007
963.40 0.1008
963.50 0.1009
963.60 0.1009
963.70 0.101
963.80 0.1011
963.90 0.1011
964.00 0.1012
964.10 0.1013
964.20 0.1013
964.30 0.1014
964.40 0.1014
964.50 0.1015
964.60 0.1015
964.70 0.1016
964.80 0.1016
964.90 0.1017
965.00 0.1017
965.10 0.1018
965.20 0.1018
965.30 0.1019
965.40 0.1019
965.50 0.102
965.60 0.102
965.70 0.1021
965.80 0.1021
965.90 0.1022
966.00 0.1022
966.10 0.1022
966.20 0.1023
966.30 0.1023
966.40 0.1024
966.50 0.1024
966.60 0.1024
966.70 0.1025
966.80 0.1025
966.90 0.1025
967.00 0.1026
967.10 0.1026
967.20 0.1026
967.30 0.1026
967.40 0.1027
967.50 0.1027
967.60 0.1027
967.70 0.1027
967.80 0.1028
967.90 0.1028
968.00 0.1028
968.10 0.1028
968.20 0.1029
968.30 0.1029
968.40 0.1029
968.50 0.1029
968.60 0.1029
968.70 0.1029
968.80 0.1029
968.90 0.1029
969.00 0.1029
969.10 0.1029
969.20 0.103
969.30 0.103
969.40 0.103
969.50 0.103
969.60 0.103
969.70 0.103
969.80 0.103
969.90 0.103
970.00 0.103
970.10 0.103
970.20 0.103
970.30 0.1031
970.40 0.1031
970.50 0.1031
970.60 0.103
970.70 0.103
970.80 0.103
970.90 0.103
971.00 0.103
971.10 0.103
971.20 0.103
971.30 0.103
971.40 0.103
971.50 0.103
971.60 0.103
971.70 0.103
971.80 0.103
971.90 0.103
972.00 0.103
972.10 0.103
972.20 0.103
972.30 0.103
972.40 0.1029
972.50 0.1029
972.60 0.1029
972.70 0.1029
972.80 0.1029
972.90 0.1029
973.00 0.1029
973.10 0.1028
973.20 0.1028
973.30 0.1028
973.40 0.1028
973.50 0.1028
973.60 0.1028
973.70 0.1027
973.80 0.1027
973.90 0.1027
974.00 0.1027
974.10 0.1027
974.20 0.1027
974.30 0.1027
974.40 0.1026
974.50 0.1026
974.60 0.1026
974.70 0.1026
974.80 0.1025
974.90 0.1025
975.00 0.1025
975.10 0.1025
975.20 0.1024
975.30 0.1024
975.40 0.1024
975.50 0.1024
975.60 0.1023
975.70 0.1023
975.80 0.1023
975.90 0.1022
976.00 0.1022
976.10 0.1022
976.20 0.1022
976.30 0.1021
976.40 0.1021
976.50 0.1021
976.60 0.1021
976.70 0.102
976.80 0.102
976.90 0.102
977.00 0.102
977.10 0.1019
977.20 0.1019
977.30 0.1018
977.40 0.1018
977.50 0.1018
977.60 0.1017
977.70 0.1017
977.80 0.1016
977.90 0.1016
978.00 0.1016
978.10 0.1015
978.20 0.1015
978.30 0.1014
978.40 0.1014
978.50 0.1014
978.60 0.1013
978.70 0.1013
978.80 0.1012
978.90 0.1012
979.00 0.1012
979.10 0.1011
979.20 0.1011
979.30 0.101
979.40 0.101
979.50 0.101
979.60 0.1009
979.70 0.1009
979.80 0.1008
979.90 0.1008
980.00 0.1008
980.10 0.1007
980.20 0.1007
980.30 0.1006
980.40 0.1006
980.50 0.1006
980.60 0.1005
980.70 0.1005
980.80 0.1004
980.90 0.1004
981.00 0.1004
981.10 0.1003
981.20 0.1003
981.30 0.1002
981.40 0.1002
981.50 0.1002
981.60 0.1001
981.70 0.1001
981.80 0.1
981.90 0.1
982.00 0.09996
982.10 0.09991
982.20 0.09985
982.30 0.09979
982.40 0.09974
982.50 0.09968
982.60 0.09963
982.70 0.09957
982.80 0.09952
982.90 0.09946
983.00 0.09941
983.10 0.09935
983.20 0.0993
983.30 0.09924
983.40 0.09919
983.50 0.09913
983.60 0.09908
983.70 0.09902
983.80 0.09897
983.90 0.09891
984.00 0.09886
984.10 0.0988
984.20 0.09875
984.30 0.09869
984.40 0.09864
984.50 0.09858
984.60 0.09853
984.70 0.09847
984.80 0.0984
984.90 0.09833
985.00 0.09827
985.10 0.0982
985.20 0.09813
985.30 0.09807
985.40 0.098
985.50 0.09793
985.60 0.09787
985.70 0.0978
985.80 0.09773
985.90 0.09767
986.00 0.0976
986.10 0.09753
986.20 0.09747
986.30 0.0974
986.40 0.09734
986.50 0.09727
986.60 0.0972
986.70 0.09714
986.80 0.09707
986.90 0.09701
987.00 0.09694
987.10 0.09686
987.20 0.09678
987.30 0.09671
987.40 0.09663
987.50 0.09655
987.60 0.09647
987.70 0.0964
987.80 0.09632
987.90 0.09624
988.00 0.09616
988.10 0.09609
988.20 0.09601
988.30 0.09593
988.40 0.09585
988.50 0.09578
988.60 0.0957
988.70 0.09561
988.80 0.09552
988.90 0.09543
989.00 0.09534
989.10 0.09525
989.20 0.09516
989.30 0.09507
989.40 0.09498
989.50 0.09489
989.60 0.0948
989.70 0.09471
989.80 0.09462
989.90 0.09453
990.00 0.09444
990.10 0.09435
990.20 0.09426
990.30 0.09417
990.40 0.09408
990.50 0.09399
990.60 0.0939
990.70 0.0938
990.80 0.0937
990.90 0.0936
991.00 0.09349
991.10 0.09339
991.20 0.09329
991.30 0.09318
991.40 0.09308
991.50 0.09298
991.60 0.09288
991.70 0.09277
991.80 0.09267
991.90 0.09257
992.00 0.09246
992.10 0.09235
992.20 0.09224
992.30 0.09213
992.40 0.09201
992.50 0.0919
992.60 0.09179
992.70 0.09167
992.80 0.09154
992.90 0.09141
993.00 0.09129
993.10 0.09116
993.20 0.09104
993.30 0.09091
993.40 0.09079
993.50 0.09066
993.60 0.09054
993.70 0.09041
993.80 0.09029
993.90 0.09016
994.00 0.09004
994.10 0.08991
994.20 0.08979
994.30 0.08966
994.40 0.08954
994.50 0.08941
994.60 0.08929
994.70 0.08915
994.80 0.08901
994.90 0.08887
995.00 0.08873
995.10 0.08859
995.20 0.08844
995.30 0.0883
995.40 0.08816
995.50 0.08802
995.60 0.08788
995.70 0.08773
995.80 0.08757
995.90 0.08742
996.00 0.08726
996.10 0.0871
996.20 0.08695
996.30 0.08679
996.40 0.08664
996.50 0.08648
996.60 0.08633
996.70 0.08617
996.80 0.08602
996.90 0.08586
997.00 0.08571
997.10 0.08554
997.20 0.08537
997.30 0.0852
997.40 0.08504
997.50 0.08487
997.60 0.0847
997.70 0.08452
997.80 0.08434
997.90 0.08415
998.00 0.08397
998.10 0.08379
998.20 0.0836
998.30 0.08342
998.40 0.08324
998.50 0.08305
998.60 0.08287
998.70 0.08269
998.80 0.0825
998.90 0.08232
999.00 0.08214
999.10 0.08195
999.20 0.08177
999.30 0.08159
999.40 0.0814
999.50 0.08122
999.60 0.08104
999.70 0.08084
999.80 0.08063
999.90 0.08043
1000.00 0.08022
1000.10 0.08002
1000.20 0.07981
1000.30 0.07961
1000.40 0.0794
1000.50 0.0792
1000.60 0.07899
1000.70 0.07879
1000.80 0.07858
1000.90 0.07838
1001.00 0.07817
1001.10 0.07797
1001.20 0.07776
1001.30 0.07756
1001.40 0.07735
1001.50 0.07715
1001.60 0.07695
1001.70 0.07674
1001.80 0.07652
1001.90 0.07631
1002.00 0.0761
1002.10 0.07589
1002.20 0.07568
1002.30 0.07546
1002.40 0.07525
1002.50 0.07504
1002.60 0.07483
1002.70 0.07462
1002.80 0.07441
1002.90 0.0742
1003.00 0.07399
1003.10 0.07378
1003.20 0.07359
1003.30 0.0734
1003.40 0.07322
1003.50 0.07303
1003.60 0.07285
1003.70 0.07266
1003.80 0.07248
1003.90 0.07237
1004.00 0.07228
1004.10 0.0722
1004.20 0.07211
1004.30 0.07227
1004.40 0.0725
1004.50 0.07298
1004.60 0.0737
1004.70 0.07328
1004.80 0.07255
1004.90 0.07225
1005.00 0.07197
1005.10 0.07194
1005.20 0.07197
1005.30 0.07201
1005.40 0.07205
1005.50 0.07217
1005.60 0.0723
1005.70 0.07244
1005.80 0.07257
1005.90 0.07271
1006.00 0.07284
1006.10 0.07298
1006.20 0.07313
1006.30 0.07329
1006.40 0.07345
1006.50 0.0736
1006.60 0.07376
1006.70 0.07392
1006.80 0.07407
1006.90 0.07423
1007.00 0.07439
1007.10 0.07455
1007.20 0.07471
1007.30 0.07486
1007.40 0.07502
1007.50 0.07518
1007.60 0.07534
1007.70 0.07549
1007.80 0.07563
1007.90 0.07578
1008.00 0.07593
1008.10 0.07607
1008.20 0.07622
1008.30 0.07637
1008.40 0.07651
1008.50 0.07666
1008.60 0.0768
1008.70 0.07695
1008.80 0.0771
1008.90 0.07724
1009.00 0.07739
1009.10 0.07753
1009.20 0.07768
1009.30 0.07782
1009.40 0.07797
1009.50 0.07811
1009.60 0.07826
1009.70 0.07839
1009.80 0.07851
1009.90 0.07863
1010.00 0.07875
1010.10 0.07887
1010.20 0.07899
1010.30 0.07911
1010.40 0.07923
1010.50 0.07935
1010.60 0.07947
1010.70 0.07959
1010.80 0.0797
1010.90 0.07982
1011.00 0.07994
1011.10 0.08006
1011.20 0.08018
1011.30 0.0803
1011.40 0.08042
1011.50 0.08054
1011.60 0.08066
1011.70 0.08077
1011.80 0.08087
1011.90 0.08097
1012.00 0.08108
1012.10 0.08117
1012.20 0.08126
1012.30 0.08135
1012.40 0.08144
1012.50 0.08153
1012.60 0.08162
1012.70 0.08171
1012.80 0.0818
1012.90 0.08189
1013.00 0.08198
1013.10 0.08207
1013.20 0.08216
1013.30 0.08225
1013.40 0.08234
1013.50 0.08243
1013.60 0.08252
1013.70 0.08259
1013.80 0.08267
1013.90 0.08274
1014.00 0.08282
1014.10 0.08289
1014.20 0.08296
1014.30 0.08304
1014.40 0.08311
1014.50 0.08318
1014.60 0.08326
1014.70 0.08332
1014.80 0.08337
1014.90 0.08343
1015.00 0.08349
1015.10 0.08354
1015.20 0.0836
1015.30 0.08366
1015.40 0.08371
1015.50 0.08377
1015.60 0.08383
1015.70 0.08388
1015.80 0.08394
1015.90 0.084
1016.00 0.08405
1016.10 0.08411
1016.20 0.08417
1016.30 0.08422
1016.40 0.08428
1016.50 0.08434
1016.60 0.08439
1016.70 0.08444
1016.80 0.08449
1016.90 0.08453
1017.00 0.08457
1017.10 0.08461
1017.20 0.08465
1017.30 0.08468
1017.40 0.08472
1017.50 0.08475
1017.60 0.08479
1017.70 0.08483
1017.80 0.08486
1017.90 0.0849
1018.00 0.08493
1018.10 0.08497
1018.20 0.08501
1018.30 0.08504
1018.40 0.08508
1018.50 0.08511
1018.60 0.08515
1018.70 0.08518
1018.80 0.0852
1018.90 0.08522
1019.00 0.08524
1019.10 0.08526
1019.20 0.08529
1019.30 0.08531
1019.40 0.08533
1019.50 0.08535
1019.60 0.08537
1019.70 0.0854
1019.80 0.08542
1019.90 0.08544
1020.00 0.08546
1020.10 0.08548
1020.20 0.0855
1020.30 0.08553
1020.40 0.08555
1020.50 0.08557
1020.60 0.08559
1020.70 0.08561
1020.80 0.08562
1020.90 0.08563
1021.00 0.08564
1021.10 0.08565
1021.20 0.08566
1021.30 0.08568
1021.40 0.08569
1021.50 0.0857
1021.60 0.08571
1021.70 0.08572
1021.80 0.08573
1021.90 0.08574
1022.00 0.08576
1022.10 0.08576
1022.20 0.08576
1022.30 0.08576
1022.40 0.08576
1022.50 0.08577
1022.60 0.08577
1022.70 0.08577
1022.80 0.08577
1022.90 0.08577
1023.00 0.08577
1023.10 0.08578
1023.20 0.08578
1023.30 0.08578
1023.40 0.08578
1023.50 0.08578
1023.60 0.08578
1023.70 0.08579
1023.80 0.08579
1023.90 0.08579
1024.00 0.08579
1024.10 0.08579
1024.20 0.0858
1024.30 0.0858
1024.40 0.0858
1024.50 0.0858
1024.60 0.0858
1024.70 0.0858
1024.80 0.08579
1024.90 0.08578
1025.00 0.08578
1025.10 0.08577
1025.20 0.08576
1025.30 0.08575
1025.40 0.08575
1025.50 0.08574
1025.60 0.08573
1025.70 0.08572
1025.80 0.08572
1025.90 0.08571
1026.00 0.0857
1026.10 0.0857
1026.20 0.08569
1026.30 0.08568
1026.40 0.08567
1026.50 0.08567
1026.60 0.08566
1026.70 0.08565
1026.80 0.08565
1026.90 0.08564
1027.00 0.08563
1027.10 0.08562
1027.20 0.0856
1027.30 0.08558
1027.40 0.08557
1027.50 0.08555
1027.60 0.08554
1027.70 0.08552
1027.80 0.0855
1027.90 0.08549
1028.00 0.08547
1028.10 0.08546
1028.20 0.08544
1028.30 0.08543
1028.40 0.08541
1028.50 0.08539
1028.60 0.08538
1028.70 0.08536
1028.80 0.08535
1028.90 0.08533
1029.00 0.08532
1029.10 0.0853
1029.20 0.08528
1029.30 0.08527
1029.40 0.08525
1029.50 0.08524
1029.60 0.08522
1029.70 0.08521
1029.80 0.08519
1029.90 0.08517
1030.00 0.08516
1030.10 0.08514
1030.20 0.08513
1030.30 0.08511
1030.40 0.0851
1030.50 0.08508
1030.60 0.08506
1030.70 0.08505
1030.80 0.08503
1030.90 0.08502
1031.00 0.085
1031.10 0.08499
1031.20 0.08497
1031.30 0.08495
1031.40 0.08494
1031.50 0.08492
1031.60 0.08491
1031.70 0.08489
1031.80 0.08488
1031.90 0.08486
1032.00 0.08484
1032.10 0.08482
1032.20 0.0848
1032.30 0.08478
1032.40 0.08475
1032.50 0.08473
1032.60 0.08471
1032.70 0.08469
1032.80 0.08466
1032.90 0.08464
1033.00 0.08462
1033.10 0.0846
1033.20 0.08457
1033.30 0.08455
1033.40 0.08453
1033.50 0.08451
1033.60 0.08448
1033.70 0.08446
1033.80 0.08444
1033.90 0.08442
1034.00 0.08439
1034.10 0.08437
1034.20 0.08435
1034.30 0.08433
1034.40 0.0843
1034.50 0.08428
1034.60 0.08426
1034.70 0.08424
1034.80 0.08422
1034.90 0.08419
1035.00 0.08417
1035.10 0.08415
1035.20 0.08413
1035.30 0.0841
1035.40 0.08408
1035.50 0.08406
1035.60 0.08404
1035.70 0.08401
1035.80 0.08399
1035.90 0.08397
1036.00 0.08395
1036.10 0.08392
1036.20 0.0839
1036.30 0.08388
1036.40 0.08386
1036.50 0.08384
1036.60 0.08381
1036.70 0.08379
1036.80 0.08377
1036.90 0.08375
1037.00 0.08372
1037.10 0.0837
1037.20 0.08367
1037.30 0.08365
1037.40 0.08362
1037.50 0.0836
1037.60 0.08357
1037.70 0.08354
1037.80 0.08352
1037.90 0.08349
1038.00 0.08347
1038.10 0.08344
1038.20 0.08342
1038.30 0.08339
1038.40 0.08336
1038.50 0.08334
1038.60 0.08331
1038.70 0.08329
1038.80 0.08326
1038.90 0.08324
1039.00 0.08321
1039.10 0.08318
1039.20 0.08316
1039.30 0.08313
1039.40 0.08311
1039.50 0.08308
1039.60 0.08306
1039.70 0.08303
1039.80 0.08301
1039.90 0.08298
1040.00 0.08295
1040.10 0.08293
1040.20 0.0829
1040.30 0.08288
1040.40 0.08285
1040.50 0.08283
1040.60 0.0828
1040.70 0.08278
1040.80 0.08275
1040.90 0.08272
1041.00 0.0827
1041.10 0.08267
1041.20 0.08265
1041.30 0.08262
1041.40 0.0826
1041.50 0.08257
1041.60 0.08255
1041.70 0.08252
1041.80 0.0825
1041.90 0.08247
1042.00 0.08244
1042.10 0.08242
1042.20 0.08239
1042.30 0.08236
1042.40 0.08233
1042.50 0.08231
1042.60 0.08228
1042.70 0.08225
1042.80 0.08222
1042.90 0.0822
1043.00 0.08217
1043.10 0.08214
1043.20 0.08211
1043.30 0.08209
1043.40 0.08206
1043.50 0.08203
1043.60 0.082
1043.70 0.08198
1043.80 0.08195
1043.90 0.08192
1044.00 0.0819
1044.10 0.08187
1044.20 0.08184
1044.30 0.08181
1044.40 0.08179
1044.50 0.08176
1044.60 0.08173
1044.70 0.0817
1044.80 0.08168
1044.90 0.08165
1045.00 0.08162
1045.10 0.08159
1045.20 0.08157
1045.30 0.08154
1045.40 0.08151
1045.50 0.08149
1045.60 0.08146
1045.70 0.08143
1045.80 0.0814
1045.90 0.08138
1046.00 0.08135
1046.10 0.08132
1046.20 0.08129
1046.30 0.08127
1046.40 0.08124
1046.50 0.08121
1046.60 0.08119
1046.70 0.08116
1046.80 0.08113
1046.90 0.0811
1047.00 0.08108
1047.10 0.08105
1047.20 0.08102
1047.30 0.08099
1047.40 0.08096
1047.50 0.08093
1047.60 0.08091
1047.70 0.08088
1047.80 0.08085
1047.90 0.08082
1048.00 0.08079
1048.10 0.08076
1048.20 0.08073
1048.30 0.08071
1048.40 0.08068
1048.50 0.08065
1048.60 0.08062
1048.70 0.08059
1048.80 0.08056
1048.90 0.08053
1049.00 0.08051
1049.10 0.08048
1049.20 0.08045
1049.30 0.08042
1049.40 0.08039
1049.50 0.08036
1049.60 0.08033
1049.70 0.08031
1049.80 0.08028
1049.90 0.08025
1050.00 0.08022
1050.10 0.08019
1050.20 0.08016
1050.30 0.08014
1050.40 0.08011
1050.50 0.08008
1050.60 0.08005
1050.70 0.08002
1050.80 0.07999
1050.90 0.07997
1051.00 0.07994
1051.10 0.07991
1051.20 0.07988
1051.30 0.07985
1051.40 0.07982
1051.50 0.0798
1051.60 0.07977
1051.70 0.07974
1051.80 0.07971
1051.90 0.07968
1052.00 0.07965
1052.10 0.07962
1052.20 0.07959
1052.30 0.07956
1052.40 0.07954
1052.50 0.07951
1052.60 0.07948
1052.70 0.07945
1052.80 0.07942
1052.90 0.07939
1053.00 0.07936
1053.10 0.07933
1053.20 0.0793
1053.30 0.07927
1053.40 0.07924
1053.50 0.07921
1053.60 0.07918
1053.70 0.07915
1053.80 0.07912
1053.90 0.07909
1054.00 0.07906
1054.10 0.07903
1054.20 0.079
1054.30 0.07897
1054.40 0.07894
1054.50 0.07891
1054.60 0.07888
1054.70 0.07885
1054.80 0.07882
1054.90 0.07879
1055.00 0.07876
1055.10 0.07873
1055.20 0.07871
1055.30 0.07868
1055.40 0.07865
1055.50 0.07862
1055.60 0.07859
1055.70 0.07856
1055.80 0.07853
1055.90 0.0785
1056.00 0.07847
1056.10 0.07844
1056.20 0.07841
1056.30 0.07838
1056.40 0.07835
1056.50 0.07832
1056.60 0.07829
1056.70 0.07826
1056.80 0.07823
1056.90 0.07821
1057.00 0.07818
1057.10 0.07814
1057.20 0.07811
1057.30 0.07808
1057.40 0.07805
1057.50 0.07802
1057.60 0.07799
1057.70 0.07796
1057.80 0.07792
1057.90 0.07789
1058.00 0.07786
1058.10 0.07783
1058.20 0.0778
1058.30 0.07777
1058.40 0.07774
1058.50 0.07771
1058.60 0.07767
1058.70 0.07764
1058.80 0.07761
1058.90 0.07758
1059.00 0.07755
1059.10 0.07752
1059.20 0.07749
1059.30 0.07745
1059.40 0.07742
1059.50 0.07739
1059.60 0.07736
1059.70 0.07733
1059.80 0.0773
1059.90 0.07727
1060.00 0.07724
1060.10 0.07721
1060.20 0.07717
1060.30 0.07714
1060.40 0.07711
1060.50 0.07708
1060.60 0.07705
1060.70 0.07702
1060.80 0.07699
1060.90 0.07696
1061.00 0.07692
1061.10 0.07689
1061.20 0.07686
1061.30 0.07683
1061.40 0.0768
1061.50 0.07677
1061.60 0.07674
1061.70 0.07671
1061.80 0.07668
1061.90 0.07665
1062.00 0.07661
1062.10 0.07658
1062.20 0.07655
1062.30 0.07651
1062.40 0.07648
1062.50 0.07644
1062.60 0.07641
1062.70 0.07637
1062.80 0.07634
1062.90 0.07631
1063.00 0.07627
1063.10 0.07624
1063.20 0.0762
1063.30 0.07617
1063.40 0.07613
1063.50 0.0761
1063.60 0.07607
1063.70 0.07603
1063.80 0.076
1063.90 0.07596
1064.00 0.07593
1064.10 0.0759
1064.20 0.07586
1064.30 0.07583
1064.40 0.07579
1064.50 0.07576
1064.60 0.07572
1064.70 0.07569
1064.80 0.07566
1064.90 0.07562
1065.00 0.07559
1065.10 0.07555
1065.20 0.07552
1065.30 0.07549
1065.40 0.07545
1065.50 0.07542
1065.60 0.07538
1065.70 0.07535
1065.80 0.07532
1065.90 0.07528
1066.00 0.07525
1066.10 0.07521
1066.20 0.07518
1066.30 0.07515
1066.40 0.07511
1066.50 0.07508
1066.60 0.07505
1066.70 0.07501
1066.80 0.07498
1066.90 0.07494
1067.00 0.07491
1067.10 0.07487
1067.20 0.07483
1067.30 0.07479
1067.40 0.07475
1067.50 0.07471
1067.60 0.07467
1067.70 0.07463
1067.80 0.07459
1067.90 0.07455
1068.00 0.07451
1068.10 0.07447
1068.20 0.07443
1068.30 0.07439
1068.40 0.07434
1068.50 0.0743
1068.60 0.07426
1068.70 0.07422
1068.80 0.07418
1068.90 0.07414
1069.00 0.0741
1069.10 0.07406
1069.20 0.07402
1069.30 0.07398
1069.40 0.07394
1069.50 0.0739
1069.60 0.07386
1069.70 0.07382
1069.80 0.07378
1069.90 0.07374
1070.00 0.0737
1070.10 0.07366
1070.20 0.07362
1070.30 0.07358
1070.40 0.07354
1070.50 0.0735
1070.60 0.07346
1070.70 0.07342
1070.80 0.07338
1070.90 0.07334
1071.00 0.0733
1071.10 0.07326
1071.20 0.07322
1071.30 0.07318
1071.40 0.07314
1071.50 0.0731
1071.60 0.07306
1071.70 0.07302
1071.80 0.07298
1071.90 0.07294
1072.00 0.0729
1072.10 0.07286
1072.20 0.07281
1072.30 0.07277
1072.40 0.07272
1072.50 0.07267
1072.60 0.07263
1072.70 0.07258
1072.80 0.07253
1072.90 0.07249
1073.00 0.07244
1073.10 0.07239
1073.20 0.07235
1073.30 0.0723
1073.40 0.07225
1073.50 0.0722
1073.60 0.07215
1073.70 0.0721
1073.80 0.07204
1073.90 0.07199
1074.00 0.07194
1074.10 0.07188
1074.20 0.07183
1074.30 0.07178
1074.40 0.07172
1074.50 0.07167
1074.60 0.07162
1074.70 0.07157
1074.80 0.07151
1074.90 0.07146
1075.00 0.07141
1075.10 0.07135
1075.20 0.0713
1075.30 0.07125
1075.40 0.07119
1075.50 0.07114
1075.60 0.07109
1075.70 0.07103
1075.80 0.07098
1075.90 0.07093
1076.00 0.07088
1076.10 0.07082
1076.20 0.07077
1076.30 0.07072
1076.40 0.07066
1076.50 0.07061
1076.60 0.07056
1076.70 0.07051
1076.80 0.07045
1076.90 0.0704
1077.00 0.07035
1077.10 0.07028
1077.20 0.07022
1077.30 0.07016
1077.40 0.0701
1077.50 0.07003
1077.60 0.06997
1077.70 0.0699
1077.80 0.06984
1077.90 0.06977
1078.00 0.0697
1078.10 0.06964
1078.20 0.06957
1078.30 0.06951
1078.40 0.06944
1078.50 0.06937
1078.60 0.06931
1078.70 0.06924
1078.80 0.06918
1078.90 0.06911
1079.00 0.06904
1079.10 0.06898
1079.20 0.06891
1079.30 0.06885
1079.40 0.06878
1079.50 0.06871
1079.60 0.06864
1079.70 0.06856
1079.80 0.06848
1079.90 0.0684
1080.00 0.06833
1080.10 0.06825
1080.20 0.06818
1080.30 0.0681
1080.40 0.06802
1080.50 0.06795
1080.60 0.06787
1080.70 0.06779
1080.80 0.06772
1080.90 0.06764
1081.00 0.06756
1081.10 0.06749
1081.20 0.06741
1081.30 0.06733
1081.40 0.06726
1081.50 0.06718
1081.60 0.06709
1081.70 0.06701
1081.80 0.06692
1081.90 0.06684
1082.00 0.06675
1082.10 0.06666
1082.20 0.06657
1082.30 0.06648
1082.40 0.06639
1082.50 0.0663
1082.60 0.0662
1082.70 0.06611
1082.80 0.06602
1082.90 0.06593
1083.00 0.06584
1083.10 0.06575
1083.20 0.06566
1083.30 0.06557
1083.40 0.06547
1083.50 0.06538
1083.60 0.06528
1083.70 0.06518
1083.80 0.06508
1083.90 0.06498
1084.00 0.06488
1084.10 0.06478
1084.20 0.06467
1084.30 0.06457
1084.40 0.06447
1084.50 0.06437
1084.60 0.06426
1084.70 0.06414
1084.80 0.06403
1084.90 0.06391
1085.00 0.0638
1085.10 0.06369
1085.20 0.06357
1085.30 0.06346
1085.40 0.06335
1085.50 0.06323
1085.60 0.06312
1085.70 0.06301
1085.80 0.06289
1085.90 0.06278
1086.00 0.06267
1086.10 0.06255
1086.20 0.06244
1086.30 0.06233
1086.40 0.06221
1086.50 0.0621
1086.60 0.06197
1086.70 0.06185
1086.80 0.06172
1086.90 0.0616
1087.00 0.06147
1087.10 0.06134
1087.20 0.06121
1087.30 0.06107
1087.40 0.06094
1087.50 0.0608
1087.60 0.06067
1087.70 0.06053
1087.80 0.0604
1087.90 0.06027
1088.00 0.06013
1088.10 0.06
1088.20 0.05986
1088.30 0.05973
1088.40 0.0596
1088.50 0.05946
1088.60 0.05931
1088.70 0.05915
1088.80 0.059
1088.90 0.05885
1089.00 0.0587
1089.10 0.05854
1089.20 0.05839
1089.30 0.05824
1089.40 0.05809
1089.50 0.05794
1089.60 0.05778
1089.70 0.05763
1089.80 0.05748
1089.90 0.05733
1090.00 0.05718
1090.10 0.05702
1090.20 0.05687
1090.30 0.05672
1090.40 0.05657
1090.50 0.05641
1090.60 0.05624
1090.70 0.05606
1090.80 0.05588
1090.90 0.05571
1091.00 0.05553
1091.10 0.05536
1091.20 0.05518
1091.30 0.05501
1091.40 0.05483
1091.50 0.05466
1091.60 0.05448
1091.70 0.05431
1091.80 0.05413
1091.90 0.05396
1092.00 0.05378
1092.10 0.05357
1092.20 0.05337
1092.30 0.05316
1092.40 0.05296
1092.50 0.05275
1092.60 0.05255
1092.70 0.05234
1092.80 0.05212
1092.90 0.05191
1093.00 0.05169
1093.10 0.0515
1093.20 0.05139
1093.30 0.05131
1093.40 0.05156
1093.50 0.05174
1093.60 0.05132
1093.70 0.05129
1093.80 0.05136
1093.90 0.05148
1094.00 0.05166
1094.10 0.05184
1094.20 0.05203
1094.30 0.05221
1094.40 0.05238
1094.50 0.05255
1094.60 0.05272
1094.70 0.05289
1094.80 0.05306
1094.90 0.05323
1095.00 0.05339
1095.10 0.05353
1095.20 0.05366
1095.30 0.0538
1095.40 0.05394
1095.50 0.05408
1095.60 0.05422
1095.70 0.05436
1095.80 0.0545
1095.90 0.05463
1096.00 0.05477
1096.10 0.05491
1096.20 0.05505
1096.30 0.05519
1096.40 0.05532
1096.50 0.05546
1096.60 0.05558
1096.70 0.0557
1096.80 0.05582
1096.90 0.05594
1097.00 0.05606
1097.10 0.05617
1097.20 0.05628
1097.30 0.05638
1097.40 0.05649
1097.50 0.0566
1097.60 0.05671
1097.70 0.05682
1097.80 0.05692
1097.90 0.05703
1098.00 0.05714
1098.10 0.05725
1098.20 0.05735
1098.30 0.05746
1098.40 0.05757
1098.50 0.05767
1098.60 0.05776
1098.70 0.05785
1098.80 0.05794
1098.90 0.05802
1099.00 0.05811
1099.10 0.0582
1099.20 0.05829
1099.30 0.05838
1099.40 0.05846
1099.50 0.05855
1099.60 0.05864
1099.70 0.05873
1099.80 0.05881
1099.90 0.0589
1100.00 0.05899
1100.10 0.05908
1100.20 0.05916
1100.30 0.05925
1100.40 0.05934
1100.50 0.05942
1100.60 0.05949
1100.70 0.05956
1100.80 0.05963
1100.90 0.0597
1101.00 0.05977
1101.10 0.05984
1101.20 0.05991
1101.30 0.05998
1101.40 0.06005
1101.50 0.06012
1101.60 0.06018
1101.70 0.06025
1101.80 0.06032
1101.90 0.06039
1102.00 0.06046
1102.10 0.06052
1102.20 0.06058
1102.30 0.06064
1102.40 0.0607
1102.50 0.06076
1102.60 0.06081
1102.70 0.06087
1102.80 0.06092
1102.90 0.06097
1103.00 0.06103
1103.10 0.06108
1103.20 0.06113
1103.30 0.06119
1103.40 0.06124
1103.50 0.06129
1103.60 0.06133
1103.70 0.06137
1103.80 0.06141
1103.90 0.06145
1104.00 0.0615
1104.10 0.06154
1104.20 0.06158
1104.30 0.06162
1104.40 0.06166
1104.50 0.0617
1104.60 0.06174
1104.70 0.06178
1104.80 0.06182
1104.90 0.06187
1105.00 0.06191
1105.10 0.06195
1105.20 0.06199
1105.30 0.06203
1105.40 0.06207
1105.50 0.06211
1105.60 0.06214
1105.70 0.06217
1105.80 0.0622
1105.90 0.06223
1106.00 0.06226
1106.10 0.06229
1106.20 0.06231
1106.30 0.06234
1106.40 0.06237
1106.50 0.0624
1106.60 0.06243
1106.70 0.06246
1106.80 0.06249
1106.90 0.06252
1107.00 0.06255
1107.10 0.06257
1107.20 0.06259
1107.30 0.06262
1107.40 0.06264
1107.50 0.06266
1107.60 0.06268
1107.70 0.06269
1107.80 0.06271
1107.90 0.06273
1108.00 0.06274
1108.10 0.06276
1108.20 0.06278
1108.30 0.06279
1108.40 0.06281
1108.50 0.06283
1108.60 0.06284
1108.70 0.06286
1108.80 0.06288
1108.90 0.06289
1109.00 0.06291
1109.10 0.06293
1109.20 0.06294
1109.30 0.06296
1109.40 0.06298
1109.50 0.06299
1109.60 0.063
1109.70 0.063
1109.80 0.06301
1109.90 0.06302
1110.00 0.06303
1110.10 0.06303
1110.20 0.06304
1110.30 0.06305
1110.40 0.06305
1110.50 0.06306
1110.60 0.06307
1110.70 0.06308
1110.80 0.06308
1110.90 0.06309
1111.00 0.0631
1111.10 0.0631
1111.20 0.06311
1111.30 0.06312
1111.40 0.06313
1111.50 0.06313
1111.60 0.06314
1111.70 0.06315
1111.80 0.06315
1111.90 0.06316
1112.00 0.06317
1112.10 0.06317
1112.20 0.06317
1112.30 0.06317
1112.40 0.06317
1112.50 0.06317
1112.60 0.06317
1112.70 0.06318
1112.80 0.06318
1112.90 0.06318
1113.00 0.06318
1113.10 0.06318
1113.20 0.06318
1113.30 0.06318
1113.40 0.06318
1113.50 0.06318
1113.60 0.06318
1113.70 0.06317
1113.80 0.06316
1113.90 0.06316
1114.00 0.06315
1114.10 0.06315
1114.20 0.06314
1114.30 0.06314
1114.40 0.06313
1114.50 0.06313
1114.60 0.06312
1114.70 0.06312
1114.80 0.06311
1114.90 0.06311
1115.00 0.0631
1115.10 0.0631
1115.20 0.06309
1115.30 0.06309
1115.40 0.06308
1115.50 0.06308
1115.60 0.06307
1115.70 0.06307
1115.80 0.06306
1115.90 0.06306
1116.00 0.06305
1116.10 0.06305
1116.20 0.06304
1116.30 0.06304
1116.40 0.06303
1116.50 0.06302
1116.60 0.06302
1116.70 0.06301
1116.80 0.06301
1116.90 0.063
1117.00 0.063
1117.10 0.06299
1117.20 0.06298
1117.30 0.06296
1117.40 0.06295
1117.50 0.06294
1117.60 0.06293
1117.70 0.06292
1117.80 0.06291
1117.90 0.0629
1118.00 0.06288
1118.10 0.06287
1118.20 0.06286
1118.30 0.06285
1118.40 0.06284
1118.50 0.06283
1118.60 0.06282
1118.70 0.0628
1118.80 0.06279
1118.90 0.06278
1119.00 0.06277
1119.10 0.06276
1119.20 0.06275
1119.30 0.06274
1119.40 0.06272
1119.50 0.06271
1119.60 0.0627
1119.70 0.06269
1119.80 0.06268
1119.90 0.06267
1120.00 0.06266
1120.10 0.06265
1120.20 0.06263
1120.30 0.06262
1120.40 0.06261
1120.50 0.0626
1120.60 0.06259
1120.70 0.06258
1120.80 0.06257
1120.90 0.06255
1121.00 0.06254
1121.10 0.06253
1121.20 0.06252
1121.30 0.06251
1121.40 0.0625
1121.50 0.06249
1121.60 0.06248
1121.70 0.06246
1121.80 0.06245
1121.90 0.06244
1122.00 0.06243
1122.10 0.06241
1122.20 0.0624
1122.30 0.06238
1122.40 0.06237
1122.50 0.06235
1122.60 0.06234
1122.70 0.06232
1122.80 0.06231
1122.90 0.06229
1123.00 0.06228
1123.10 0.06226
1123.20 0.06224
1123.30 0.06223
1123.40 0.06221
1123.50 0.0622
1123.60 0.06218
1123.70 0.06217
1123.80 0.06215
1123.90 0.06214
1124.00 0.06212
1124.10 0.0621
1124.20 0.06209
1124.30 0.06207
1124.40 0.06206
1124.50 0.06204
1124.60 0.06203
1124.70 0.06201
1124.80 0.062
1124.90 0.06198
1125.00 0.06197
1125.10 0.06195
1125.20 0.06194
1125.30 0.06192
1125.40 0.0619
1125.50 0.06189
1125.60 0.06187
1125.70 0.06186
1125.80 0.06184
1125.90 0.06183
1126.00 0.06181
1126.10 0.0618
1126.20 0.06178
1126.30 0.06177
1126.40 0.06175
1126.50 0.06174
1126.60 0.06172
1126.70 0.0617
1126.80 0.06169
1126.90 0.06167
1127.00 0.06166
1127.10 0.06164
1127.20 0.06162
1127.30 0.06161
1127.40 0.06159
1127.50 0.06157
1127.60 0.06155
1127.70 0.06154
1127.80 0.06152
1127.90 0.0615
1128.00 0.06149
1128.10 0.06147
1128.20 0.06145
1128.30 0.06143
1128.40 0.06142
1128.50 0.0614
1128.60 0.06138
1128.70 0.06136
1128.80 0.06135
1128.90 0.06133
1129.00 0.06131
1129.10 0.0613
1129.20 0.06128
1129.30 0.06126
1129.40 0.06124
1129.50 0.06123
1129.60 0.06121
1129.70 0.06119
1129.80 0.06117
1129.90 0.06116
1130.00 0.06114
1130.10 0.06112
1130.20 0.06111
1130.30 0.06109
1130.40 0.06107
1130.50 0.06105
1130.60 0.06104
1130.70 0.06102
1130.80 0.061
1130.90 0.06099
1131.00 0.06097
1131.10 0.06095
1131.20 0.06093
1131.30 0.06092
1131.40 0.0609
1131.50 0.06088
1131.60 0.06087
1131.70 0.06085
1131.80 0.06083
1131.90 0.06081
1132.00 0.0608
1132.10 0.06078
1132.20 0.06076
1132.30 0.06074
1132.40 0.06072
1132.50 0.06071
1132.60 0.06069
1132.70 0.06067
1132.80 0.06065
1132.90 0.06063
1133.00 0.06062
1133.10 0.0606
1133.20 0.06058
1133.30 0.06056
1133.40 0.06054
1133.50 0.06052
1133.60 0.06051
1133.70 0.06049
1133.80 0.06047
1133.90 0.06045
1134.00 0.06043
1134.10 0.06042
1134.20 0.0604
1134.30 0.06038
1134.40 0.06036
1134.50 0.06034
1134.60 0.06033
1134.70 0.06031
1134.80 0.06029
1134.90 0.06027
1135.00 0.06025
1135.10 0.06024
1135.20 0.06022
1135.30 0.0602
1135.40 0.06018
1135.50 0.06016
1135.60 0.06015
1135.70 0.06013
1135.80 0.06011
1135.90 0.06009
1136.00 0.06007
1136.10 0.06006
1136.20 0.06004
1136.30 0.06002
1136.40 0.06
1136.50 0.05998
1136.60 0.05997
1136.70 0.05995
1136.80 0.05993
1136.90 0.05991
1137.00 0.05989
1137.10 0.05988
1137.20 0.05986
1137.30 0.05984
1137.40 0.05982
1137.50 0.0598
1137.60 0.05978
1137.70 0.05977
1137.80 0.05975
1137.90 0.05973
1138.00 0.05971
1138.10 0.05969
1138.20 0.05967
1138.30 0.05966
1138.40 0.05964
1138.50 0.05962
1138.60 0.0596
1138.70 0.05958
1138.80 0.05956
1138.90 0.05954
1139.00 0.05953
1139.10 0.05951
1139.20 0.05949
1139.30 0.05947
1139.40 0.05945
1139.50 0.05943
1139.60 0.05942
1139.70 0.0594
1139.80 0.05938
1139.90 0.05936
1140.00 0.05934
1140.10 0.05932
1140.20 0.05931
1140.30 0.05929
1140.40 0.05927
1140.50 0.05925
1140.60 0.05923
1140.70 0.05921
1140.80 0.0592
1140.90 0.05918
1141.00 0.05916
1141.10 0.05914
1141.20 0.05912
1141.30 0.05911
1141.40 0.05909
1141.50 0.05907
1141.60 0.05905
1141.70 0.05903
1141.80 0.05901
1141.90 0.059
1142.00 0.05898
1142.10 0.05896
1142.20 0.05894
1142.30 0.05892
1142.40 0.0589
1142.50 0.05888
1142.60 0.05887
1142.70 0.05885
1142.80 0.05883
1142.90 0.05881
1143.00 0.05879
1143.10 0.05877
1143.20 0.05876
1143.30 0.05874
1143.40 0.05872
1143.50 0.0587
1143.60 0.05868
1143.70 0.05866
1143.80 0.05865
1143.90 0.05863
1144.00 0.05861
1144.10 0.05859
1144.20 0.05857
1144.30 0.05855
1144.40 0.05853
1144.50 0.05852
1144.60 0.0585
1144.70 0.05848
1144.80 0.05846
1144.90 0.05844
1145.00 0.05842
1145.10 0.05841
1145.20 0.05839
1145.30 0.05837
1145.40 0.05835
1145.50 0.05833
1145.60 0.05831
1145.70 0.0583
1145.80 0.05828
1145.90 0.05826
1146.00 0.05824
1146.10 0.05822
1146.20 0.0582
1146.30 0.05819
1146.40 0.05817
1146.50 0.05815
1146.60 0.05813
1146.70 0.05811
1146.80 0.0581
1146.90 0.05808
1147.00 0.05806
1147.10 0.05804
1147.20 0.05802
1147.30 0.058
1147.40 0.05799
1147.50 0.05797
1147.60 0.05795
1147.70 0.05793
1147.80 0.05791
1147.90 0.05789
1148.00 0.05788
1148.10 0.05786
1148.20 0.05784
1148.30 0.05782
1148.40 0.0578
1148.50 0.05778
1148.60 0.05777
1148.70 0.05775
1148.80 0.05773
1148.90 0.05771
1149.00 0.05769
1149.10 0.05767
1149.20 0.05766
1149.30 0.05764
1149.40 0.05762
1149.50 0.0576
1149.60 0.05758
1149.70 0.05757
1149.80 0.05755
1149.90 0.05753
1150.00 0.05751
1150.10 0.05749
1150.20 0.05747
1150.30 0.05746
1150.40 0.05744
1150.50 0.05742
1150.60 0.0574
1150.70 0.05738
1150.80 0.05737
1150.90 0.05735
1151.00 0.05733
1151.10 0.05731
1151.20 0.05729
1151.30 0.05727
1151.40 0.05726
1151.50 0.05724
1151.60 0.05722
1151.70 0.0572
1151.80 0.05718
1151.90 0.05717
1152.00 0.05715
1152.10 0.05713
1152.20 0.05711
1152.30 0.05709
1152.40 0.05708
1152.50 0.05706
1152.60 0.05704
1152.70 0.05702
1152.80 0.057
1152.90 0.05698
1153.00 0.05697
1153.10 0.05695
1153.20 0.05693
1153.30 0.05691
1153.40 0.05689
1153.50 0.05688
1153.60 0.05686
1153.70 0.05684
1153.80 0.05682
1153.90 0.0568
1154.00 0.05679
1154.10 0.05677
1154.20 0.05675
1154.30 0.05673
1154.40 0.05671
1154.50 0.0567
1154.60 0.05668
1154.70 0.05666
1154.80 0.05664
1154.90 0.05662
1155.00 0.05661
1155.10 0.05659
1155.20 0.05657
1155.30 0.05655
1155.40 0.05653
1155.50 0.05652
1155.60 0.0565
1155.70 0.05648
1155.80 0.05646
1155.90 0.05644
1156.00 0.05643
1156.10 0.05641
1156.20 0.05639
1156.30 0.05637
1156.40 0.05635
1156.50 0.05634
1156.60 0.05632
1156.70 0.0563
1156.80 0.05628
1156.90 0.05626
1157.00 0.05625
1157.10 0.05623
1157.20 0.05621
1157.30 0.05619
1157.40 0.05617
1157.50 0.05616
1157.60 0.05614
1157.70 0.05612
1157.80 0.0561
1157.90 0.05608
1158.00 0.05607
1158.10 0.05605
1158.20 0.05603
1158.30 0.05601
1158.40 0.056
1158.50 0.05598
1158.60 0.05596
1158.70 0.05594
1158.80 0.05592
1158.90 0.05591
1159.00 0.05589
1159.10 0.05587
1159.20 0.05585
1159.30 0.05584
1159.40 0.05582
1159.50 0.0558
1159.60 0.05578
1159.70 0.05576
1159.80 0.05575
1159.90 0.05573
1160.00 0.05571
1160.10 0.05569
1160.20 0.05568
1160.30 0.05566
1160.40 0.05564
1160.50 0.05562
1160.60 0.0556
1160.70 0.05559
1160.80 0.05557
1160.90 0.05555
1161.00 0.05553
1161.10 0.05552
1161.20 0.0555
1161.30 0.05548
1161.40 0.05546
1161.50 0.05544
1161.60 0.05543
1161.70 0.05541
1161.80 0.05539
1161.90 0.05537
1162.00 0.05536
1162.10 0.05534
1162.20 0.05532
1162.30 0.0553
1162.40 0.05529
1162.50 0.05527
1162.60 0.05525
1162.70 0.05523
1162.80 0.05522
1162.90 0.0552
1163.00 0.05518
1163.10 0.05516
1163.20 0.05515
1163.30 0.05513
1163.40 0.05511
1163.50 0.05509
1163.60 0.05508
1163.70 0.05506
1163.80 0.05504
1163.90 0.05502
1164.00 0.055
1164.10 0.05499
1164.20 0.05497
1164.30 0.05495
1164.40 0.05493
1164.50 0.05492
1164.60 0.0549
1164.70 0.05488
1164.80 0.05486
1164.90 0.05485
1165.00 0.05483
1165.10 0.05481
1165.20 0.05479
1165.30 0.05478
1165.40 0.05476
1165.50 0.05474
1165.60 0.05473
1165.70 0.05471
1165.80 0.05469
1165.90 0.05467
1166.00 0.05466
1166.10 0.05464
1166.20 0.05462
1166.30 0.0546
1166.40 0.05459
1166.50 0.05457
1166.60 0.05455
1166.70 0.05453
1166.80 0.05452
1166.90 0.0545
1167.00 0.05448
1167.10 0.05446
1167.20 0.05445
1167.30 0.05443
1167.40 0.05441
1167.50 0.05439
1167.60 0.05438
1167.70 0.05436
1167.80 0.05434
1167.90 0.05433
1168.00 0.05431
1168.10 0.05429
1168.20 0.05427
1168.30 0.05426
1168.40 0.05424
1168.50 0.05422
1168.60 0.0542
1168.70 0.05419
1168.80 0.05417
1168.90 0.05415
1169.00 0.05414
1169.10 0.05412
1169.20 0.0541
1169.30 0.05408
1169.40 0.05407
1169.50 0.05405
1169.60 0.05403
1169.70 0.05401
1169.80 0.054
1169.90 0.05398
1170.00 0.05396
1170.10 0.05395
1170.20 0.05393
1170.30 0.05391
1170.40 0.05389
1170.50 0.05388
1170.60 0.05386
1170.70 0.05384
1170.80 0.05383
1170.90 0.05381
1171.00 0.05379
1171.10 0.05377
1171.20 0.05376
1171.30 0.05374
1171.40 0.05372
1171.50 0.05371
1171.60 0.05369
1171.70 0.05367
1171.80 0.05365
1171.90 0.05364
1172.00 0.05362
1172.10 0.0536
1172.20 0.05359
1172.30 0.05357
1172.40 0.05355
1172.50 0.05354
1172.60 0.05352
1172.70 0.0535
1172.80 0.05348
1172.90 0.05347
1173.00 0.05345
1173.10 0.05343
1173.20 0.05342
1173.30 0.0534
1173.40 0.05338
1173.50 0.05337
1173.60 0.05335
1173.70 0.05333
1173.80 0.05331
1173.90 0.0533
1174.00 0.05328
1174.10 0.05326
1174.20 0.05325
1174.30 0.05323
1174.40 0.05321
1174.50 0.0532
1174.60 0.05318
1174.70 0.05316
1174.80 0.05315
1174.90 0.05313
1175.00 0.05311
1175.10 0.05309
1175.20 0.05308
1175.30 0.05306
1175.40 0.05304
1175.50 0.05303
1175.60 0.05301
1175.70 0.05299
1175.80 0.05298
1175.90 0.05296
1176.00 0.05294
1176.10 0.05293
1176.20 0.05291
1176.30 0.05289
1176.40 0.05288
1176.50 0.05286
1176.60 0.05284
1176.70 0.05282
1176.80 0.05281
1176.90 0.05279
1177.00 0.05277
1177.10 0.05276
1177.20 0.05274
1177.30 0.05272
1177.40 0.05271
1177.50 0.05269
1177.60 0.05267
1177.70 0.05266
1177.80 0.05264
1177.90 0.05262
1178.00 0.05261
1178.10 0.05259
1178.20 0.05257
1178.30 0.05256
1178.40 0.05254
1178.50 0.05252
1178.60 0.05251
1178.70 0.05249
1178.80 0.05247
1178.90 0.05246
1179.00 0.05244
1179.10 0.05242
1179.20 0.05241
1179.30 0.05239
1179.40 0.05237
1179.50 0.05236
1179.60 0.05234
1179.70 0.05232
1179.80 0.05231
1179.90 0.05229
1180.00 0.05227
1180.10 0.05226
1180.20 0.05224
1180.30 0.05222
1180.40 0.05221
1180.50 0.05219
1180.60 0.05217
1180.70 0.05216
1180.80 0.05214
1180.90 0.05212
1181.00 0.05211
1181.10 0.05209
1181.20 0.05207
1181.30 0.05206
1181.40 0.05204
1181.50 0.05203
1181.60 0.05201
1181.70 0.05199
1181.80 0.05198
1181.90 0.05196
1182.00 0.05194
1182.10 0.05193
1182.20 0.05191
1182.30 0.05189
1182.40 0.05188
1182.50 0.05186
1182.60 0.05184
1182.70 0.05183
1182.80 0.05181
1182.90 0.05179
1183.00 0.05178
1183.10 0.05176
1183.20 0.05175
1183.30 0.05173
1183.40 0.05171
1183.50 0.0517
1183.60 0.05168
1183.70 0.05166
1183.80 0.05165
1183.90 0.05163
1184.00 0.05161
1184.10 0.0516
1184.20 0.05158
1184.30 0.05156
1184.40 0.05155
1184.50 0.05153
1184.60 0.05152
1184.70 0.0515
1184.80 0.05148
1184.90 0.05147
1185.00 0.05145
1185.10 0.05143
1185.20 0.05142
1185.30 0.0514
1185.40 0.05139
1185.50 0.05137
1185.60 0.05135
1185.70 0.05134
1185.80 0.05132
1185.90 0.0513
1186.00 0.05129
1186.10 0.05127
1186.20 0.05125
1186.30 0.05124
1186.40 0.05122
1186.50 0.05121
1186.60 0.05119
1186.70 0.05117
1186.80 0.05116
1186.90 0.05114
1187.00 0.05112
1187.10 0.05111
1187.20 0.05109
1187.30 0.05108
1187.40 0.05106
1187.50 0.05104
1187.60 0.05103
1187.70 0.05101
1187.80 0.051
1187.90 0.05098
1188.00 0.05096
1188.10 0.05095
1188.20 0.05093
1188.30 0.05091
1188.40 0.0509
1188.50 0.05088
1188.60 0.05087
1188.70 0.05085
1188.80 0.05083
1188.90 0.05082
1189.00 0.0508
1189.10 0.05079
1189.20 0.05077
1189.30 0.05075
1189.40 0.05074
1189.50 0.05072
1189.60 0.05071
1189.70 0.05069
1189.80 0.05067
1189.90 0.05066
1190.00 0.05064
1190.10 0.05063
1190.20 0.05061
1190.30 0.05059
1190.40 0.05058
1190.50 0.05056
1190.60 0.05055
1190.70 0.05053
1190.80 0.05051
1190.90 0.0505
1191.00 0.05048
1191.10 0.05047
1191.20 0.05045
1191.30 0.05043
1191.40 0.05042
1191.50 0.0504
1191.60 0.05039
1191.70 0.05037
1191.80 0.05035
1191.90 0.05034
1192.00 0.05032
1192.10 0.05031
1192.20 0.05029
1192.30 0.05027
1192.40 0.05026
1192.50 0.05024
1192.60 0.05023
1192.70 0.05021
1192.80 0.05019
1192.90 0.05018
1193.00 0.05016
1193.10 0.05015
1193.20 0.05013
1193.30 0.05012
1193.40 0.0501
1193.50 0.05008
1193.60 0.05007
1193.70 0.05005
1193.80 0.05004
1193.90 0.05002
1194.00 0.05
1194.10 0.04999
1194.20 0.04997
1194.30 0.04996
1194.40 0.04994
1194.50 0.04993
1194.60 0.04991
1194.70 0.04989
1194.80 0.04988
1194.90 0.04986
1195.00 0.04985
1195.10 0.04983
1195.20 0.04981
1195.30 0.0498
1195.40 0.04978
1195.50 0.04977
1195.60 0.04975
1195.70 0.04974
1195.80 0.04972
1195.90 0.0497
1196.00 0.04969
1196.10 0.04967
1196.20 0.04966
1196.30 0.04964
1196.40 0.04963
1196.50 0.04961
1196.60 0.04959
1196.70 0.04958
1196.80 0.04956
1196.90 0.04955
1197.00 0.04953
1197.10 0.04952
1197.20 0.0495
1197.30 0.04949
1197.40 0.04947
1197.50 0.04945
1197.60 0.04944
1197.70 0.04942
1197.80 0.04941
1197.90 0.04939
1198.00 0.04938
1198.10 0.04936
1198.20 0.04934
1198.30 0.04933
1198.40 0.04931
1198.50 0.0493
1198.60 0.04928
1198.70 0.04927
1198.80 0.04925
1198.90 0.04924
1199.00 0.04922
1199.10 0.0492
1199.20 0.04919
1199.30 0.04917
1199.40 0.04916
1199.50 0.04914
1199.60 0.04913
1199.70 0.04911
1199.80 0.0491
1199.90 0.04908
1200.00 0
