# Version 2.1 - nm, norm@500 to 1, cut digits, bergeron_16000_70.dat_16000
# Wavelength(nm)  Flambda(ergs/cm^s/s/nm)
300.00 2.357
300.10 2.355
300.20 2.353
300.30 2.351
300.40 2.35
300.50 2.348
300.60 2.346
300.70 2.344
300.80 2.342
300.90 2.34
301.00 2.338
301.10 2.336
301.20 2.334
301.30 2.333
301.40 2.331
301.50 2.329
301.60 2.327
301.70 2.325
301.80 2.323
301.90 2.321
302.00 2.319
302.10 2.318
302.20 2.316
302.30 2.314
302.40 2.312
302.50 2.31
302.60 2.308
302.70 2.306
302.80 2.305
302.90 2.303
303.00 2.301
303.10 2.299
303.20 2.297
303.30 2.295
303.40 2.294
303.50 2.292
303.60 2.29
303.70 2.288
303.80 2.286
303.90 2.284
304.00 2.283
304.10 2.281
304.20 2.279
304.30 2.277
304.40 2.275
304.50 2.274
304.60 2.272
304.70 2.27
304.80 2.268
304.90 2.266
305.00 2.264
305.10 2.263
305.20 2.261
305.30 2.259
305.40 2.257
305.50 2.255
305.60 2.254
305.70 2.252
305.80 2.25
305.90 2.248
306.00 2.246
306.10 2.245
306.20 2.243
306.30 2.241
306.40 2.239
306.50 2.238
306.60 2.236
306.70 2.234
306.80 2.232
306.90 2.231
307.00 2.229
307.10 2.227
307.20 2.225
307.30 2.223
307.40 2.222
307.50 2.22
307.60 2.218
307.70 2.216
307.80 2.215
307.90 2.213
308.00 2.211
308.10 2.209
308.20 2.208
308.30 2.206
308.40 2.204
308.50 2.203
308.60 2.201
308.70 2.199
308.80 2.197
308.90 2.196
309.00 2.194
309.10 2.192
309.20 2.19
309.30 2.189
309.40 2.187
309.50 2.185
309.60 2.184
309.70 2.182
309.80 2.18
309.90 2.178
310.00 2.177
310.10 2.175
310.20 2.173
310.30 2.172
310.40 2.17
310.50 2.168
310.60 2.166
310.70 2.165
310.80 2.163
310.90 2.161
311.00 2.16
311.10 2.158
311.20 2.156
311.30 2.155
311.40 2.153
311.50 2.151
311.60 2.15
311.70 2.148
311.80 2.146
311.90 2.145
312.00 2.143
312.10 2.141
312.20 2.14
312.30 2.138
312.40 2.136
312.50 2.135
312.60 2.133
312.70 2.131
312.80 2.13
312.90 2.128
313.00 2.126
313.10 2.125
313.20 2.123
313.30 2.121
313.40 2.12
313.50 2.118
313.60 2.116
313.70 2.115
313.80 2.113
313.90 2.111
314.00 2.11
314.10 2.108
314.20 2.106
314.30 2.105
314.40 2.103
314.50 2.102
314.60 2.1
314.70 2.098
314.80 2.097
314.90 2.095
315.00 2.093
315.10 2.092
315.20 2.09
315.30 2.089
315.40 2.087
315.50 2.085
315.60 2.084
315.70 2.082
315.80 2.08
315.90 2.079
316.00 2.077
316.10 2.076
316.20 2.074
316.30 2.072
316.40 2.071
316.50 2.069
316.60 2.068
316.70 2.066
316.80 2.064
316.90 2.063
317.00 2.061
317.10 2.06
317.20 2.058
317.30 2.057
317.40 2.055
317.50 2.053
317.60 2.052
317.70 2.05
317.80 2.049
317.90 2.047
318.00 2.045
318.10 2.044
318.20 2.042
318.30 2.041
318.40 2.039
318.50 2.038
318.60 2.036
318.70 2.035
318.80 2.033
318.90 2.031
319.00 2.03
319.10 2.028
319.20 2.027
319.30 2.025
319.40 2.024
319.50 2.022
319.60 2.021
319.70 2.019
319.80 2.017
319.90 2.016
320.00 2.014
320.10 2.013
320.20 2.011
320.30 2.01
320.40 2.008
320.50 2.007
320.60 2.005
320.70 2.004
320.80 2.002
320.90 2.001
321.00 1.999
321.10 1.998
321.20 1.996
321.30 1.994
321.40 1.993
321.50 1.991
321.60 1.99
321.70 1.988
321.80 1.987
321.90 1.985
322.00 1.984
322.10 1.982
322.20 1.981
322.30 1.979
322.40 1.978
322.50 1.976
322.60 1.975
322.70 1.973
322.80 1.972
322.90 1.97
323.00 1.969
323.10 1.967
323.20 1.966
323.30 1.964
323.40 1.963
323.50 1.961
323.60 1.96
323.70 1.958
323.80 1.957
323.90 1.955
324.00 1.954
324.10 1.952
324.20 1.951
324.30 1.949
324.40 1.948
324.50 1.946
324.60 1.945
324.70 1.944
324.80 1.942
324.90 1.941
325.00 1.939
325.10 1.938
325.20 1.936
325.30 1.935
325.40 1.933
325.50 1.932
325.60 1.93
325.70 1.929
325.80 1.928
325.90 1.926
326.00 1.925
326.10 1.923
326.20 1.922
326.30 1.92
326.40 1.919
326.50 1.917
326.60 1.916
326.70 1.915
326.80 1.913
326.90 1.912
327.00 1.91
327.10 1.909
327.20 1.907
327.30 1.906
327.40 1.905
327.50 1.903
327.60 1.902
327.70 1.9
327.80 1.899
327.90 1.897
328.00 1.896
328.10 1.895
328.20 1.893
328.30 1.892
328.40 1.89
328.50 1.889
328.60 1.887
328.70 1.886
328.80 1.885
328.90 1.883
329.00 1.882
329.10 1.88
329.20 1.879
329.30 1.878
329.40 1.876
329.50 1.875
329.60 1.873
329.70 1.872
329.80 1.871
329.90 1.869
330.00 1.868
330.10 1.866
330.20 1.865
330.30 1.864
330.40 1.862
330.50 1.861
330.60 1.859
330.70 1.858
330.80 1.857
330.90 1.855
331.00 1.854
331.10 1.852
331.20 1.851
331.30 1.85
331.40 1.848
331.50 1.847
331.60 1.846
331.70 1.844
331.80 1.843
331.90 1.842
332.00 1.84
332.10 1.839
332.20 1.837
332.30 1.836
332.40 1.835
332.50 1.833
332.60 1.832
332.70 1.831
332.80 1.829
332.90 1.828
333.00 1.827
333.10 1.825
333.20 1.824
333.30 1.823
333.40 1.821
333.50 1.82
333.60 1.818
333.70 1.817
333.80 1.816
333.90 1.814
334.00 1.813
334.10 1.812
334.20 1.81
334.30 1.809
334.40 1.808
334.50 1.806
334.60 1.805
334.70 1.804
334.80 1.802
334.90 1.801
335.00 1.8
335.10 1.798
335.20 1.797
335.30 1.796
335.40 1.794
335.50 1.793
335.60 1.792
335.70 1.791
335.80 1.789
335.90 1.788
336.00 1.787
336.10 1.785
336.20 1.784
336.30 1.783
336.40 1.781
336.50 1.78
336.60 1.779
336.70 1.777
336.80 1.776
336.90 1.775
337.00 1.773
337.10 1.772
337.20 1.771
337.30 1.77
337.40 1.768
337.50 1.767
337.60 1.766
337.70 1.764
337.80 1.763
337.90 1.762
338.00 1.761
338.10 1.759
338.20 1.758
338.30 1.757
338.40 1.755
338.50 1.754
338.60 1.753
338.70 1.752
338.80 1.75
338.90 1.749
339.00 1.748
339.10 1.746
339.20 1.745
339.30 1.744
339.40 1.743
339.50 1.741
339.60 1.74
339.70 1.739
339.80 1.738
339.90 1.736
340.00 1.735
340.10 1.734
340.20 1.732
340.30 1.731
340.40 1.73
340.50 1.729
340.60 1.727
340.70 1.726
340.80 1.725
340.90 1.724
341.00 1.722
341.10 1.721
341.20 1.72
341.30 1.719
341.40 1.717
341.50 1.716
341.60 1.715
341.70 1.714
341.80 1.712
341.90 1.711
342.00 1.71
342.10 1.709
342.20 1.707
342.30 1.706
342.40 1.705
342.50 1.704
342.60 1.703
342.70 1.701
342.80 1.7
342.90 1.699
343.00 1.698
343.10 1.696
343.20 1.695
343.30 1.694
343.40 1.693
343.50 1.692
343.60 1.69
343.70 1.689
343.80 1.688
343.90 1.687
344.00 1.685
344.10 1.684
344.20 1.683
344.30 1.682
344.40 1.681
344.50 1.679
344.60 1.678
344.70 1.677
344.80 1.676
344.90 1.675
345.00 1.673
345.10 1.672
345.20 1.671
345.30 1.67
345.40 1.669
345.50 1.667
345.60 1.666
345.70 1.665
345.80 1.664
345.90 1.663
346.00 1.661
346.10 1.66
346.20 1.659
346.30 1.658
346.40 1.657
346.50 1.655
346.60 1.654
346.70 1.653
346.80 1.652
346.90 1.651
347.00 1.649
347.10 1.648
347.20 1.647
347.30 1.646
347.40 1.645
347.50 1.644
347.60 1.642
347.70 1.641
347.80 1.64
347.90 1.639
348.00 1.638
348.10 1.636
348.20 1.635
348.30 1.634
348.40 1.633
348.50 1.632
348.60 1.631
348.70 1.63
348.80 1.628
348.90 1.627
349.00 1.626
349.10 1.625
349.20 1.624
349.30 1.623
349.40 1.621
349.50 1.62
349.60 1.619
349.70 1.618
349.80 1.617
349.90 1.616
350.00 1.615
350.10 1.613
350.20 1.612
350.30 1.611
350.40 1.61
350.50 1.609
350.60 1.608
350.70 1.606
350.80 1.605
350.90 1.604
351.00 1.603
351.10 1.602
351.20 1.601
351.30 1.6
351.40 1.598
351.50 1.597
351.60 1.596
351.70 1.595
351.80 1.594
351.90 1.593
352.00 1.592
352.10 1.591
352.20 1.589
352.30 1.588
352.40 1.587
352.50 1.586
352.60 1.585
352.70 1.584
352.80 1.583
352.90 1.582
353.00 1.58
353.10 1.579
353.20 1.578
353.30 1.577
353.40 1.576
353.50 1.575
353.60 1.574
353.70 1.573
353.80 1.572
353.90 1.57
354.00 1.569
354.10 1.568
354.20 1.567
354.30 1.566
354.40 1.565
354.50 1.564
354.60 1.563
354.70 1.562
354.80 1.561
354.90 1.559
355.00 1.558
355.10 1.557
355.20 1.556
355.30 1.555
355.40 1.554
355.50 1.553
355.60 1.552
355.70 1.551
355.80 1.55
355.90 1.549
356.00 1.547
356.10 1.546
356.20 1.545
356.30 1.544
356.40 1.543
356.50 1.542
356.60 1.541
356.70 1.54
356.80 1.539
356.90 1.538
357.00 1.537
357.10 1.536
357.20 1.534
357.30 1.533
357.40 1.532
357.50 1.531
357.60 1.53
357.70 1.529
357.80 1.528
357.90 1.527
358.00 1.526
358.10 1.525
358.20 1.524
358.30 1.523
358.40 1.522
358.50 1.521
358.60 1.519
358.70 1.518
358.80 1.517
358.90 1.516
359.00 1.515
359.10 1.514
359.20 1.513
359.30 1.512
359.40 1.511
359.50 1.51
359.60 1.509
359.70 1.508
359.80 1.507
359.90 1.506
360.00 1.505
360.10 1.504
360.20 1.503
360.30 1.502
360.40 1.501
360.50 1.499
360.60 1.498
360.70 1.497
360.80 1.496
360.90 1.495
361.00 1.494
361.10 1.493
361.20 1.492
361.30 1.491
361.40 1.49
361.50 1.489
361.60 1.488
361.70 1.487
361.80 1.486
361.90 1.485
362.00 1.484
362.10 1.483
362.20 1.482
362.30 1.481
362.40 1.48
362.50 1.479
362.60 1.478
362.70 1.477
362.80 1.476
362.90 1.475
363.00 1.474
363.10 1.473
363.20 1.472
363.30 1.471
363.40 1.469
363.50 1.468
363.60 1.467
363.70 1.466
363.80 1.465
363.90 1.464
364.00 1.463
364.10 1.462
364.20 1.461
364.30 1.46
364.40 1.459
364.50 1.458
364.60 1.457
364.70 1.456
364.80 1.455
364.90 1.454
365.00 1.453
365.10 1.452
365.20 1.451
365.30 1.45
365.40 1.449
365.50 1.448
365.60 1.447
365.70 1.446
365.80 1.445
365.90 1.444
366.00 1.443
366.10 1.442
366.20 1.441
366.30 1.44
366.40 1.439
366.50 1.438
366.60 1.437
366.70 1.436
366.80 1.435
366.90 1.434
367.00 1.433
367.10 1.432
367.20 1.431
367.30 1.43
367.40 1.429
367.50 1.428
367.60 1.428
367.70 1.427
367.80 1.426
367.90 1.425
368.00 1.424
368.10 1.424
368.20 1.423
368.30 1.423
368.40 1.423
368.50 1.423
368.60 1.422
368.70 1.422
368.80 1.422
368.90 1.422
369.00 1.421
369.10 1.421
369.20 1.421
369.30 1.421
369.40 1.42
369.50 1.42
369.60 1.42
369.70 1.42
369.80 1.419
369.90 1.419
370.00 1.419
370.10 1.42
370.20 1.422
370.30 1.423
370.40 1.425
370.50 1.426
370.60 1.428
370.70 1.429
370.80 1.431
370.90 1.432
371.00 1.434
371.10 1.435
371.20 1.436
371.30 1.438
371.40 1.439
371.50 1.441
371.60 1.442
371.70 1.444
371.80 1.445
371.90 1.447
372.00 1.448
372.10 1.451
372.20 1.455
372.30 1.458
372.40 1.461
372.50 1.465
372.60 1.468
372.70 1.471
372.80 1.475
372.90 1.478
373.00 1.481
373.10 1.484
373.20 1.488
373.30 1.491
373.40 1.494
373.50 1.498
373.60 1.501
373.70 1.504
373.80 1.507
373.90 1.511
374.00 1.514
374.10 1.518
374.20 1.522
374.30 1.526
374.40 1.529
374.50 1.533
374.60 1.537
374.70 1.541
374.80 1.545
374.90 1.549
375.00 1.552
375.10 1.556
375.20 1.56
375.30 1.564
375.40 1.568
375.50 1.571
375.60 1.575
375.70 1.579
375.80 1.583
375.90 1.587
376.00 1.59
376.10 1.592
376.20 1.594
376.30 1.596
376.40 1.598
376.50 1.6
376.60 1.602
376.70 1.603
376.80 1.605
376.90 1.607
377.00 1.609
377.10 1.606
377.20 1.602
377.30 1.599
377.40 1.595
377.50 1.592
377.60 1.588
377.70 1.585
377.80 1.581
377.90 1.578
378.00 1.574
378.10 1.555
378.20 1.536
378.30 1.517
378.40 1.498
378.50 1.479
378.60 1.46
378.70 1.441
378.80 1.422
378.90 1.403
379.00 1.384
379.10 1.37
379.20 1.355
379.30 1.341
379.40 1.326
379.50 1.312
379.60 1.298
379.70 1.283
379.80 1.269
379.90 1.254
380.00 1.24
380.10 1.263
380.20 1.286
380.30 1.309
380.40 1.331
380.50 1.354
380.60 1.377
380.70 1.399
380.80 1.422
380.90 1.445
381.00 1.467
381.10 1.477
381.20 1.487
381.30 1.496
381.40 1.506
381.50 1.516
381.60 1.516
381.70 1.513
381.80 1.508
381.90 1.499
382.00 1.487
382.10 1.471
382.20 1.452
382.30 1.419
382.40 1.386
382.50 1.353
382.60 1.32
382.70 1.287
382.80 1.254
382.90 1.221
383.00 1.189
383.10 1.156
383.20 1.123
383.30 1.092
383.40 1.058
383.50 1.022
383.60 1.029
383.70 1.065
383.80 1.098
383.90 1.128
384.00 1.161
384.10 1.197
384.20 1.235
384.30 1.274
384.40 1.313
384.50 1.351
384.60 1.387
384.70 1.42
384.80 1.45
384.90 1.477
385.00 1.501
385.10 1.521
385.20 1.539
385.30 1.555
385.40 1.568
385.50 1.58
385.60 1.589
385.70 1.596
385.80 1.602
385.90 1.606
386.00 1.608
386.10 1.608
386.20 1.607
386.30 1.604
386.40 1.599
386.50 1.593
386.60 1.584
386.70 1.574
386.80 1.562
386.90 1.548
387.00 1.533
387.10 1.516
387.20 1.496
387.30 1.474
387.40 1.451
387.50 1.424
387.60 1.394
387.70 1.363
387.80 1.327
387.90 1.289
388.00 1.248
388.10 1.204
388.20 1.16
388.30 1.115
388.40 1.071
388.50 1.028
388.60 0.9884
388.70 0.9482
388.80 0.9077
388.90 0.8667
389.00 0.9041
389.10 0.9425
389.20 0.982
389.30 1.021
389.40 1.062
389.50 1.105
389.60 1.149
389.70 1.193
389.80 1.237
389.90 1.278
390.00 1.316
390.10 1.353
390.20 1.386
390.30 1.417
390.40 1.446
390.50 1.472
390.60 1.496
390.70 1.52
390.80 1.54
390.90 1.56
391.00 1.579
391.10 1.597
391.20 1.613
391.30 1.629
391.40 1.643
391.50 1.656
391.60 1.668
391.70 1.679
391.80 1.69
391.90 1.699
392.00 1.707
392.10 1.715
392.20 1.721
392.30 1.727
392.40 1.731
392.50 1.735
392.60 1.737
392.70 1.738
392.80 1.739
392.90 1.739
393.00 1.737
393.10 1.735
393.20 1.731
393.30 1.727
393.40 1.722
393.50 1.715
393.60 1.707
393.70 1.699
393.80 1.689
393.90 1.678
394.00 1.667
394.10 1.654
394.20 1.64
394.30 1.625
394.40 1.609
394.50 1.592
394.60 1.574
394.70 1.555
394.80 1.534
394.90 1.513
395.00 1.491
395.10 1.468
395.20 1.444
395.30 1.418
395.40 1.391
395.50 1.363
395.60 1.333
395.70 1.301
395.80 1.268
395.90 1.233
396.00 1.196
396.10 1.158
396.20 1.117
396.30 1.074
396.40 1.03
396.50 0.9858
396.60 0.9426
396.70 0.9004
396.80 0.8569
396.90 0.8045
397.00 0.743
397.10 0.7993
397.20 0.8491
397.30 0.8924
397.40 0.9334
397.50 0.9754
397.60 1.018
397.70 1.061
397.80 1.103
397.90 1.143
398.00 1.18
398.10 1.216
398.20 1.25
398.30 1.282
398.40 1.312
398.50 1.341
398.60 1.368
398.70 1.394
398.80 1.419
398.90 1.442
399.00 1.465
399.10 1.487
399.20 1.508
399.30 1.528
399.40 1.548
399.50 1.566
399.60 1.583
399.70 1.601
399.80 1.617
399.90 1.632
400.00 1.647
400.10 1.661
400.20 1.674
400.30 1.686
400.40 1.698
400.50 1.709
400.60 1.72
400.70 1.73
400.80 1.739
400.90 1.748
401.00 1.756
401.10 1.763
401.20 1.771
401.30 1.777
401.40 1.783
401.50 1.789
401.60 1.794
401.70 1.799
401.80 1.803
401.90 1.807
402.00 1.811
402.10 1.814
402.20 1.817
402.30 1.82
402.40 1.822
402.50 1.824
402.60 1.825
402.70 1.826
402.80 1.827
402.90 1.828
403.00 1.828
403.10 1.828
403.20 1.828
403.30 1.828
403.40 1.827
403.50 1.826
403.60 1.825
403.70 1.823
403.80 1.821
403.90 1.819
404.00 1.817
404.10 1.814
404.20 1.811
404.30 1.808
404.40 1.805
404.50 1.801
404.60 1.797
404.70 1.793
404.80 1.788
404.90 1.783
405.00 1.778
405.10 1.772
405.20 1.766
405.30 1.76
405.40 1.753
405.50 1.746
405.60 1.738
405.70 1.73
405.80 1.722
405.90 1.713
406.00 1.703
406.10 1.694
406.20 1.683
406.30 1.673
406.40 1.661
406.50 1.65
406.60 1.637
406.70 1.624
406.80 1.61
406.90 1.596
407.00 1.581
407.10 1.565
407.20 1.549
407.30 1.532
407.40 1.514
407.50 1.495
407.60 1.476
407.70 1.455
407.80 1.435
407.90 1.413
408.00 1.39
408.10 1.367
408.20 1.344
408.30 1.319
408.40 1.295
408.50 1.269
408.60 1.242
408.70 1.216
408.80 1.188
408.90 1.159
409.00 1.13
409.10 1.099
409.20 1.068
409.30 1.035
409.40 1
409.50 0.9636
409.60 0.9259
409.70 0.8871
409.80 0.8484
409.90 0.8098
410.00 0.7633
410.10 0.7128
410.20 0.6581
410.30 0.7309
410.40 0.7877
410.50 0.8283
410.60 0.866
410.70 0.9036
410.80 0.9411
410.90 0.9768
411.00 1.011
411.10 1.044
411.20 1.074
411.30 1.103
411.40 1.132
411.50 1.159
411.60 1.185
411.70 1.211
411.80 1.236
411.90 1.26
412.00 1.283
412.10 1.305
412.20 1.327
412.30 1.349
412.40 1.369
412.50 1.389
412.60 1.408
412.70 1.427
412.80 1.444
412.90 1.461
413.00 1.477
413.10 1.493
413.20 1.508
413.30 1.521
413.40 1.534
413.50 1.547
413.60 1.559
413.70 1.57
413.80 1.581
413.90 1.591
414.00 1.6
414.10 1.61
414.20 1.618
414.30 1.626
414.40 1.634
414.50 1.641
414.60 1.648
414.70 1.655
414.80 1.661
414.90 1.667
415.00 1.672
415.10 1.677
415.20 1.682
415.30 1.687
415.40 1.691
415.50 1.695
415.60 1.699
415.70 1.702
415.80 1.706
415.90 1.709
416.00 1.712
416.10 1.714
416.20 1.717
416.30 1.719
416.40 1.722
416.50 1.724
416.60 1.726
416.70 1.727
416.80 1.729
416.90 1.73
417.00 1.732
417.10 1.733
417.20 1.734
417.30 1.735
417.40 1.736
417.50 1.737
417.60 1.738
417.70 1.739
417.80 1.739
417.90 1.74
418.00 1.74
418.10 1.74
418.20 1.741
418.30 1.741
418.40 1.741
418.50 1.741
418.60 1.741
418.70 1.741
418.80 1.741
418.90 1.741
419.00 1.741
419.10 1.74
419.20 1.74
419.30 1.74
419.40 1.739
419.50 1.739
419.60 1.738
419.70 1.738
419.80 1.737
419.90 1.737
420.00 1.736
420.10 1.735
420.20 1.735
420.30 1.734
420.40 1.733
420.50 1.732
420.60 1.732
420.70 1.731
420.80 1.73
420.90 1.729
421.00 1.728
421.10 1.727
421.20 1.726
421.30 1.725
421.40 1.724
421.50 1.723
421.60 1.722
421.70 1.721
421.80 1.719
421.90 1.718
422.00 1.717
422.10 1.716
422.20 1.714
422.30 1.713
422.40 1.712
422.50 1.71
422.60 1.709
422.70 1.708
422.80 1.706
422.90 1.705
423.00 1.703
423.10 1.702
423.20 1.7
423.30 1.699
423.40 1.697
423.50 1.695
423.60 1.694
423.70 1.692
423.80 1.69
423.90 1.689
424.00 1.687
424.10 1.685
424.20 1.683
424.30 1.681
424.40 1.679
424.50 1.677
424.60 1.675
424.70 1.673
424.80 1.671
424.90 1.669
425.00 1.667
425.10 1.664
425.20 1.662
425.30 1.66
425.40 1.657
425.50 1.655
425.60 1.652
425.70 1.65
425.80 1.647
425.90 1.644
426.00 1.642
426.10 1.639
426.20 1.636
426.30 1.632
426.40 1.629
426.50 1.626
426.60 1.623
426.70 1.62
426.80 1.616
426.90 1.613
427.00 1.609
427.10 1.606
427.20 1.602
427.30 1.598
427.40 1.594
427.50 1.59
427.60 1.586
427.70 1.581
427.80 1.577
427.90 1.572
428.00 1.568
428.10 1.563
428.20 1.558
428.30 1.552
428.40 1.547
428.50 1.542
428.60 1.536
428.70 1.53
428.80 1.524
428.90 1.518
429.00 1.511
429.10 1.504
429.20 1.497
429.30 1.49
429.40 1.483
429.50 1.475
429.60 1.467
429.70 1.459
429.80 1.45
429.90 1.441
430.00 1.432
430.10 1.422
430.20 1.413
430.30 1.403
430.40 1.392
430.50 1.381
430.60 1.37
430.70 1.358
430.80 1.346
430.90 1.334
431.00 1.321
431.10 1.307
431.20 1.294
431.30 1.28
431.40 1.265
431.50 1.25
431.60 1.234
431.70 1.218
431.80 1.201
431.90 1.183
432.00 1.164
432.10 1.145
432.20 1.125
432.30 1.104
432.40 1.082
432.50 1.058
432.60 1.034
432.70 1.009
432.80 0.9833
432.90 0.9578
433.00 0.9324
433.10 0.9079
433.20 0.883
433.30 0.8576
433.40 0.8298
433.50 0.8009
433.60 0.7708
433.70 0.7387
433.80 0.7036
433.90 0.6654
434.00 0.5749
434.10 0.576
434.20 0.6683
434.30 0.705
434.40 0.739
434.50 0.7702
434.60 0.7991
434.70 0.8269
434.80 0.8536
434.90 0.8777
435.00 0.9014
435.10 0.9247
435.20 0.9488
435.30 0.973
435.40 0.9972
435.50 1.021
435.60 1.043
435.70 1.065
435.80 1.085
435.90 1.104
436.00 1.123
436.10 1.14
436.20 1.156
436.30 1.172
436.40 1.187
436.50 1.201
436.60 1.215
436.70 1.228
436.80 1.24
436.90 1.252
437.00 1.264
437.10 1.275
437.20 1.285
437.30 1.295
437.40 1.305
437.50 1.314
437.60 1.323
437.70 1.331
437.80 1.34
437.90 1.347
438.00 1.354
438.10 1.362
438.20 1.368
438.30 1.375
438.40 1.381
438.50 1.386
438.60 1.392
438.70 1.397
438.80 1.402
438.90 1.406
439.00 1.411
439.10 1.415
439.20 1.419
439.30 1.423
439.40 1.426
439.50 1.43
439.60 1.433
439.70 1.436
439.80 1.438
439.90 1.441
440.00 1.444
440.10 1.446
440.20 1.448
440.30 1.45
440.40 1.452
440.50 1.454
440.60 1.456
440.70 1.457
440.80 1.459
440.90 1.46
441.00 1.461
441.10 1.462
441.20 1.463
441.30 1.464
441.40 1.465
441.50 1.466
441.60 1.467
441.70 1.468
441.80 1.468
441.90 1.469
442.00 1.469
442.10 1.47
442.20 1.47
442.30 1.47
442.40 1.471
442.50 1.471
442.60 1.471
442.70 1.471
442.80 1.471
442.90 1.471
443.00 1.471
443.10 1.471
443.20 1.471
443.30 1.471
443.40 1.47
443.50 1.47
443.60 1.47
443.70 1.47
443.80 1.469
443.90 1.469
444.00 1.469
444.10 1.468
444.20 1.468
444.30 1.468
444.40 1.467
444.50 1.467
444.60 1.466
444.70 1.466
444.80 1.465
444.90 1.464
445.00 1.464
445.10 1.463
445.20 1.463
445.30 1.462
445.40 1.461
445.50 1.461
445.60 1.46
445.70 1.459
445.80 1.459
445.90 1.458
446.00 1.457
446.10 1.456
446.20 1.456
446.30 1.455
446.40 1.454
446.50 1.453
446.60 1.453
446.70 1.452
446.80 1.451
446.90 1.45
447.00 1.449
447.10 1.449
447.20 1.448
447.30 1.447
447.40 1.446
447.50 1.445
447.60 1.444
447.70 1.444
447.80 1.443
447.90 1.442
448.00 1.441
448.10 1.44
448.20 1.439
448.30 1.438
448.40 1.438
448.50 1.437
448.60 1.436
448.70 1.435
448.80 1.434
448.90 1.433
449.00 1.432
449.10 1.431
449.20 1.431
449.30 1.43
449.40 1.429
449.50 1.428
449.60 1.427
449.70 1.426
449.80 1.425
449.90 1.424
450.00 1.423
450.10 1.422
450.20 1.421
450.30 1.42
450.40 1.42
450.50 1.419
450.60 1.418
450.70 1.417
450.80 1.416
450.90 1.415
451.00 1.414
451.10 1.413
451.20 1.412
451.30 1.411
451.40 1.41
451.50 1.409
451.60 1.408
451.70 1.407
451.80 1.406
451.90 1.405
452.00 1.405
452.10 1.404
452.20 1.403
452.30 1.402
452.40 1.401
452.50 1.4
452.60 1.399
452.70 1.398
452.80 1.397
452.90 1.396
453.00 1.395
453.10 1.394
453.20 1.393
453.30 1.392
453.40 1.391
453.50 1.39
453.60 1.389
453.70 1.388
453.80 1.387
453.90 1.386
454.00 1.385
454.10 1.384
454.20 1.383
454.30 1.382
454.40 1.382
454.50 1.381
454.60 1.38
454.70 1.379
454.80 1.378
454.90 1.377
455.00 1.376
455.10 1.375
455.20 1.374
455.30 1.373
455.40 1.372
455.50 1.371
455.60 1.37
455.70 1.369
455.80 1.368
455.90 1.367
456.00 1.366
456.10 1.365
456.20 1.364
456.30 1.363
456.40 1.362
456.50 1.361
456.60 1.36
456.70 1.359
456.80 1.358
456.90 1.357
457.00 1.357
457.10 1.356
457.20 1.355
457.30 1.354
457.40 1.353
457.50 1.352
457.60 1.351
457.70 1.35
457.80 1.349
457.90 1.348
458.00 1.347
458.10 1.346
458.20 1.345
458.30 1.344
458.40 1.343
458.50 1.342
458.60 1.341
458.70 1.34
458.80 1.339
458.90 1.338
459.00 1.337
459.10 1.336
459.20 1.335
459.30 1.334
459.40 1.333
459.50 1.332
459.60 1.331
459.70 1.33
459.80 1.33
459.90 1.329
460.00 1.328
460.10 1.327
460.20 1.326
460.30 1.325
460.40 1.324
460.50 1.323
460.60 1.322
460.70 1.321
460.80 1.32
460.90 1.319
461.00 1.318
461.10 1.317
461.20 1.316
461.30 1.315
461.40 1.314
461.50 1.313
461.60 1.312
461.70 1.311
461.80 1.31
461.90 1.309
462.00 1.308
462.10 1.307
462.20 1.306
462.30 1.305
462.40 1.304
462.50 1.303
462.60 1.303
462.70 1.302
462.80 1.301
462.90 1.3
463.00 1.299
463.10 1.298
463.20 1.297
463.30 1.296
463.40 1.295
463.50 1.294
463.60 1.293
463.70 1.292
463.80 1.291
463.90 1.29
464.00 1.289
464.10 1.288
464.20 1.287
464.30 1.286
464.40 1.285
464.50 1.284
464.60 1.283
464.70 1.282
464.80 1.281
464.90 1.28
465.00 1.279
465.10 1.278
465.20 1.277
465.30 1.276
465.40 1.275
465.50 1.274
465.60 1.274
465.70 1.273
465.80 1.272
465.90 1.271
466.00 1.27
466.10 1.269
466.20 1.268
466.30 1.267
466.40 1.266
466.50 1.265
466.60 1.264
466.70 1.263
466.80 1.262
466.90 1.261
467.00 1.26
467.10 1.259
467.20 1.258
467.30 1.257
467.40 1.256
467.50 1.255
467.60 1.254
467.70 1.253
467.80 1.252
467.90 1.251
468.00 1.25
468.10 1.249
468.20 1.248
468.30 1.247
468.40 1.246
468.50 1.245
468.60 1.244
468.70 1.243
468.80 1.242
468.90 1.241
469.00 1.24
469.10 1.239
469.20 1.238
469.30 1.237
469.40 1.236
469.50 1.235
469.60 1.234
469.70 1.233
469.80 1.232
469.90 1.231
470.00 1.23
470.10 1.229
470.20 1.228
470.30 1.227
470.40 1.226
470.50 1.225
470.60 1.224
470.70 1.223
470.80 1.222
470.90 1.221
471.00 1.22
471.10 1.219
471.20 1.218
471.30 1.217
471.40 1.215
471.50 1.214
471.60 1.213
471.70 1.212
471.80 1.211
471.90 1.21
472.00 1.209
472.10 1.208
472.20 1.207
472.30 1.206
472.40 1.205
472.50 1.203
472.60 1.202
472.70 1.201
472.80 1.2
472.90 1.199
473.00 1.198
473.10 1.197
473.20 1.195
473.30 1.194
473.40 1.193
473.50 1.192
473.60 1.191
473.70 1.19
473.80 1.188
473.90 1.187
474.00 1.186
474.10 1.185
474.20 1.184
474.30 1.182
474.40 1.181
474.50 1.18
474.60 1.178
474.70 1.177
474.80 1.176
474.90 1.175
475.00 1.173
475.10 1.172
475.20 1.171
475.30 1.169
475.40 1.168
475.50 1.166
475.60 1.165
475.70 1.163
475.80 1.162
475.90 1.161
476.00 1.159
476.10 1.158
476.20 1.156
476.30 1.155
476.40 1.153
476.50 1.151
476.60 1.15
476.70 1.148
476.80 1.147
476.90 1.145
477.00 1.143
477.10 1.142
477.20 1.14
477.30 1.138
477.40 1.136
477.50 1.134
477.60 1.132
477.70 1.131
477.80 1.129
477.90 1.127
478.00 1.125
478.10 1.123
478.20 1.121
478.30 1.119
478.40 1.116
478.50 1.114
478.60 1.112
478.70 1.109
478.80 1.107
478.90 1.105
479.00 1.102
479.10 1.1
479.20 1.097
479.30 1.094
479.40 1.091
479.50 1.089
479.60 1.086
479.70 1.083
479.80 1.08
479.90 1.077
480.00 1.074
480.10 1.071
480.20 1.067
480.30 1.064
480.40 1.06
480.50 1.056
480.60 1.052
480.70 1.048
480.80 1.044
480.90 1.04
481.00 1.036
481.10 1.033
481.20 1.028
481.30 1.022
481.40 1.017
481.50 1.012
481.60 1.006
481.70 1.001
481.80 0.9958
481.90 0.9904
482.00 0.9851
482.10 0.9798
482.20 0.9731
482.30 0.9657
482.40 0.9583
482.50 0.9509
482.60 0.9435
482.70 0.9362
482.80 0.9288
482.90 0.9214
483.00 0.9141
483.10 0.9067
483.20 0.8974
483.30 0.8872
483.40 0.877
483.50 0.8668
483.60 0.8567
483.70 0.8465
483.80 0.8364
483.90 0.8262
484.00 0.8161
484.10 0.8059
484.20 0.7943
484.30 0.782
484.40 0.7697
484.50 0.7574
484.60 0.7451
484.70 0.7318
484.80 0.7182
484.90 0.7046
485.00 0.6909
485.10 0.6773
485.20 0.6633
485.30 0.649
485.40 0.6339
485.50 0.6185
485.60 0.6019
485.70 0.5847
485.80 0.5645
485.90 0.543
486.00 0.5138
486.10 0.4191
486.20 0.4684
486.30 0.5252
486.40 0.5488
486.50 0.57
486.60 0.588
486.70 0.6046
486.80 0.6199
486.90 0.6346
487.00 0.6485
487.10 0.662
487.20 0.675
487.30 0.6877
487.40 0.7004
487.50 0.7132
487.60 0.7259
487.70 0.7376
487.80 0.7488
487.90 0.76
488.00 0.7713
488.10 0.7825
488.20 0.7921
488.30 0.801
488.40 0.8099
488.50 0.8187
488.60 0.8276
488.70 0.8365
488.80 0.8453
488.90 0.8542
489.00 0.863
489.10 0.8718
489.20 0.8787
489.30 0.8845
489.40 0.8904
489.50 0.8963
489.60 0.9022
489.70 0.908
489.80 0.9139
489.90 0.9197
490.00 0.9256
490.10 0.9314
490.20 0.9358
490.30 0.9395
490.40 0.9432
490.50 0.9469
490.60 0.9506
490.70 0.9543
490.80 0.958
490.90 0.9617
491.00 0.9654
491.10 0.9691
491.20 0.9718
491.30 0.974
491.40 0.9762
491.50 0.9784
491.60 0.9806
491.70 0.9828
491.80 0.985
491.90 0.9872
492.00 0.9894
492.10 0.9916
492.20 0.9932
492.30 0.9944
492.40 0.9957
492.50 0.997
492.60 0.9982
492.70 0.9995
492.80 1.001
492.90 1.002
493.00 1.003
493.10 1.004
493.20 1.005
493.30 1.006
493.40 1.007
493.50 1.007
493.60 1.008
493.70 1.009
493.80 1.009
493.90 1.01
494.00 1.01
494.10 1.011
494.20 1.012
494.30 1.012
494.40 1.012
494.50 1.012
494.60 1.012
494.70 1.013
494.80 1.013
494.90 1.013
495.00 1.013
495.10 1.014
495.20 1.014
495.30 1.014
495.40 1.014
495.50 1.014
495.60 1.014
495.70 1.014
495.80 1.014
495.90 1.013
496.00 1.013
496.10 1.013
496.20 1.013
496.30 1.013
496.40 1.013
496.50 1.013
496.60 1.012
496.70 1.012
496.80 1.012
496.90 1.012
497.00 1.012
497.10 1.011
497.20 1.011
497.30 1.011
497.40 1.011
497.50 1.01
497.60 1.01
497.70 1.01
497.80 1.009
497.90 1.009
498.00 1.009
498.10 1.008
498.20 1.008
498.30 1.007
498.40 1.007
498.50 1.007
498.60 1.006
498.70 1.006
498.80 1.005
498.90 1.005
499.00 1.005
499.10 1.004
499.20 1.004
499.30 1.003
499.40 1.003
499.50 1.002
499.60 1.002
499.70 1.001
499.80 1.001
499.90 1
500.00 1
500.10 0.9995
500.20 0.999
500.30 0.9985
500.40 0.998
500.50 0.9975
500.60 0.997
500.70 0.9965
500.80 0.996
500.90 0.9955
501.00 0.995
501.10 0.9945
501.20 0.9939
501.30 0.9934
501.40 0.9929
501.50 0.9923
501.60 0.9918
501.70 0.9913
501.80 0.9907
501.90 0.9902
502.00 0.9897
502.10 0.9891
502.20 0.9886
502.30 0.988
502.40 0.9874
502.50 0.9869
502.60 0.9863
502.70 0.9858
502.80 0.9852
502.90 0.9846
503.00 0.9841
503.10 0.9835
503.20 0.983
503.30 0.9824
503.40 0.9818
503.50 0.9813
503.60 0.9807
503.70 0.9801
503.80 0.9796
503.90 0.979
504.00 0.9784
504.10 0.9779
504.20 0.9773
504.30 0.9767
504.40 0.9761
504.50 0.9755
504.60 0.9749
504.70 0.9743
504.80 0.9738
504.90 0.9732
505.00 0.9726
505.10 0.972
505.20 0.9714
505.30 0.9708
505.40 0.9702
505.50 0.9697
505.60 0.9691
505.70 0.9685
505.80 0.9679
505.90 0.9673
506.00 0.9667
506.10 0.9661
506.20 0.9655
506.30 0.9649
506.40 0.9643
506.50 0.9637
506.60 0.9632
506.70 0.9626
506.80 0.962
506.90 0.9614
507.00 0.9608
507.10 0.9602
507.20 0.9596
507.30 0.959
507.40 0.9584
507.50 0.9578
507.60 0.9572
507.70 0.9566
507.80 0.956
507.90 0.9554
508.00 0.9548
508.10 0.9542
508.20 0.9536
508.30 0.953
508.40 0.9524
508.50 0.9518
508.60 0.9512
508.70 0.9506
508.80 0.95
508.90 0.9494
509.00 0.9488
509.10 0.9482
509.20 0.9476
509.30 0.947
509.40 0.9464
509.50 0.9458
509.60 0.9452
509.70 0.9447
509.80 0.9441
509.90 0.9435
510.00 0.9429
510.10 0.9423
510.20 0.9417
510.30 0.9411
510.40 0.9405
510.50 0.9399
510.60 0.9393
510.70 0.9387
510.80 0.9381
510.90 0.9375
511.00 0.9369
511.10 0.9364
511.20 0.9358
511.30 0.9352
511.40 0.9346
511.50 0.934
511.60 0.9334
511.70 0.9328
511.80 0.9322
511.90 0.9316
512.00 0.931
512.10 0.9304
512.20 0.9298
512.30 0.9292
512.40 0.9286
512.50 0.928
512.60 0.9274
512.70 0.9268
512.80 0.9262
512.90 0.9257
513.00 0.9251
513.10 0.9245
513.20 0.9239
513.30 0.9233
513.40 0.9227
513.50 0.9221
513.60 0.9215
513.70 0.9209
513.80 0.9204
513.90 0.9198
514.00 0.9192
514.10 0.9186
514.20 0.918
514.30 0.9174
514.40 0.9168
514.50 0.9162
514.60 0.9156
514.70 0.915
514.80 0.9145
514.90 0.9139
515.00 0.9133
515.10 0.9127
515.20 0.9121
515.30 0.9115
515.40 0.9109
515.50 0.9104
515.60 0.9098
515.70 0.9092
515.80 0.9086
515.90 0.908
516.00 0.9075
516.10 0.9069
516.20 0.9063
516.30 0.9057
516.40 0.9051
516.50 0.9046
516.60 0.904
516.70 0.9034
516.80 0.9028
516.90 0.9023
517.00 0.9017
517.10 0.9011
517.20 0.9005
517.30 0.9
517.40 0.8994
517.50 0.8988
517.60 0.8982
517.70 0.8976
517.80 0.8971
517.90 0.8965
518.00 0.8959
518.10 0.8953
518.20 0.8947
518.30 0.8942
518.40 0.8936
518.50 0.893
518.60 0.8925
518.70 0.8919
518.80 0.8913
518.90 0.8908
519.00 0.8902
519.10 0.8896
519.20 0.8891
519.30 0.8885
519.40 0.8879
519.50 0.8873
519.60 0.8868
519.70 0.8862
519.80 0.8856
519.90 0.8851
520.00 0.8845
520.10 0.8839
520.20 0.8833
520.30 0.8828
520.40 0.8822
520.50 0.8817
520.60 0.8811
520.70 0.8805
520.80 0.88
520.90 0.8794
521.00 0.8789
521.10 0.8783
521.20 0.8777
521.30 0.8772
521.40 0.8766
521.50 0.876
521.60 0.8755
521.70 0.8749
521.80 0.8743
521.90 0.8738
522.00 0.8732
522.10 0.8726
522.20 0.8721
522.30 0.8715
522.40 0.871
522.50 0.8704
522.60 0.8699
522.70 0.8693
522.80 0.8688
522.90 0.8682
523.00 0.8677
523.10 0.8671
523.20 0.8666
523.30 0.866
523.40 0.8654
523.50 0.8649
523.60 0.8643
523.70 0.8638
523.80 0.8632
523.90 0.8627
524.00 0.8621
524.10 0.8616
524.20 0.861
524.30 0.8605
524.40 0.8599
524.50 0.8594
524.60 0.8588
524.70 0.8583
524.80 0.8577
524.90 0.8572
525.00 0.8566
525.10 0.8561
525.20 0.8555
525.30 0.855
525.40 0.8544
525.50 0.8539
525.60 0.8533
525.70 0.8528
525.80 0.8522
525.90 0.8517
526.00 0.8512
526.10 0.8506
526.20 0.8501
526.30 0.8495
526.40 0.849
526.50 0.8485
526.60 0.8479
526.70 0.8474
526.80 0.8468
526.90 0.8463
527.00 0.8458
527.10 0.8452
527.20 0.8447
527.30 0.8441
527.40 0.8436
527.50 0.8431
527.60 0.8425
527.70 0.842
527.80 0.8415
527.90 0.8409
528.00 0.8404
528.10 0.8399
528.20 0.8393
528.30 0.8388
528.40 0.8383
528.50 0.8377
528.60 0.8372
528.70 0.8367
528.80 0.8361
528.90 0.8356
529.00 0.8351
529.10 0.8345
529.20 0.834
529.30 0.8335
529.40 0.8329
529.50 0.8324
529.60 0.8319
529.70 0.8313
529.80 0.8308
529.90 0.8303
530.00 0.8298
530.10 0.8292
530.20 0.8287
530.30 0.8282
530.40 0.8277
530.50 0.8271
530.60 0.8266
530.70 0.8261
530.80 0.8256
530.90 0.8251
531.00 0.8246
531.10 0.824
531.20 0.8235
531.30 0.823
531.40 0.8225
531.50 0.8219
531.60 0.8214
531.70 0.8209
531.80 0.8204
531.90 0.8199
532.00 0.8193
532.10 0.8188
532.20 0.8183
532.30 0.8178
532.40 0.8172
532.50 0.8167
532.60 0.8162
532.70 0.8157
532.80 0.8152
532.90 0.8147
533.00 0.8141
533.10 0.8136
533.20 0.8131
533.30 0.8126
533.40 0.8121
533.50 0.8116
533.60 0.8111
533.70 0.8106
533.80 0.81
533.90 0.8095
534.00 0.809
534.10 0.8085
534.20 0.808
534.30 0.8075
534.40 0.807
534.50 0.8065
534.60 0.806
534.70 0.8054
534.80 0.8049
534.90 0.8044
535.00 0.8039
535.10 0.8034
535.20 0.8029
535.30 0.8024
535.40 0.8019
535.50 0.8014
535.60 0.8009
535.70 0.8004
535.80 0.7999
535.90 0.7994
536.00 0.7989
536.10 0.7984
536.20 0.7979
536.30 0.7974
536.40 0.7969
536.50 0.7964
536.60 0.7959
536.70 0.7954
536.80 0.7949
536.90 0.7944
537.00 0.7939
537.10 0.7934
537.20 0.7929
537.30 0.7924
537.40 0.7919
537.50 0.7914
537.60 0.7909
537.70 0.7904
537.80 0.7899
537.90 0.7894
538.00 0.7889
538.10 0.7884
538.20 0.7879
538.30 0.7874
538.40 0.7869
538.50 0.7864
538.60 0.7859
538.70 0.7854
538.80 0.7849
538.90 0.7844
539.00 0.784
539.10 0.7835
539.20 0.783
539.30 0.7825
539.40 0.782
539.50 0.7815
539.60 0.781
539.70 0.7805
539.80 0.78
539.90 0.7795
540.00 0.7791
540.10 0.7786
540.20 0.7781
540.30 0.7776
540.40 0.7771
540.50 0.7766
540.60 0.7761
540.70 0.7756
540.80 0.7751
540.90 0.7747
541.00 0.7742
541.10 0.7737
541.20 0.7732
541.30 0.7727
541.40 0.7723
541.50 0.7718
541.60 0.7713
541.70 0.7708
541.80 0.7703
541.90 0.7699
542.00 0.7694
542.10 0.7689
542.20 0.7684
542.30 0.7679
542.40 0.7675
542.50 0.767
542.60 0.7665
542.70 0.766
542.80 0.7655
542.90 0.7651
543.00 0.7646
543.10 0.7641
543.20 0.7636
543.30 0.7632
543.40 0.7627
543.50 0.7622
543.60 0.7617
543.70 0.7613
543.80 0.7608
543.90 0.7603
544.00 0.7599
544.10 0.7594
544.20 0.7589
544.30 0.7584
544.40 0.758
544.50 0.7575
544.60 0.757
544.70 0.7565
544.80 0.7561
544.90 0.7556
545.00 0.7551
545.10 0.7546
545.20 0.7542
545.30 0.7537
545.40 0.7532
545.50 0.7528
545.60 0.7523
545.70 0.7518
545.80 0.7514
545.90 0.7509
546.00 0.7504
546.10 0.75
546.20 0.7495
546.30 0.7491
546.40 0.7486
546.50 0.7482
546.60 0.7477
546.70 0.7473
546.80 0.7468
546.90 0.7464
547.00 0.7459
547.10 0.7455
547.20 0.745
547.30 0.7446
547.40 0.7441
547.50 0.7436
547.60 0.7432
547.70 0.7427
547.80 0.7423
547.90 0.7418
548.00 0.7413
548.10 0.7409
548.20 0.7404
548.30 0.74
548.40 0.7395
548.50 0.739
548.60 0.7386
548.70 0.7381
548.80 0.7377
548.90 0.7372
549.00 0.7368
549.10 0.7363
549.20 0.7359
549.30 0.7354
549.40 0.7349
549.50 0.7345
549.60 0.734
549.70 0.7336
549.80 0.7331
549.90 0.7327
550.00 0.7322
550.10 0.7318
550.20 0.7313
550.30 0.7309
550.40 0.7304
550.50 0.73
550.60 0.7295
550.70 0.7291
550.80 0.7286
550.90 0.7282
551.00 0.7277
551.10 0.7273
551.20 0.7268
551.30 0.7264
551.40 0.7259
551.50 0.7255
551.60 0.725
551.70 0.7246
551.80 0.7241
551.90 0.7237
552.00 0.7233
552.10 0.7228
552.20 0.7224
552.30 0.7219
552.40 0.7215
552.50 0.721
552.60 0.7206
552.70 0.7201
552.80 0.7197
552.90 0.7193
553.00 0.7188
553.10 0.7184
553.20 0.7179
553.30 0.7175
553.40 0.7171
553.50 0.7166
553.60 0.7162
553.70 0.7157
553.80 0.7153
553.90 0.7149
554.00 0.7144
554.10 0.714
554.20 0.7136
554.30 0.7131
554.40 0.7127
554.50 0.7122
554.60 0.7118
554.70 0.7114
554.80 0.7109
554.90 0.7105
555.00 0.71
555.10 0.7096
555.20 0.7092
555.30 0.7087
555.40 0.7083
555.50 0.7079
555.60 0.7074
555.70 0.707
555.80 0.7066
555.90 0.7061
556.00 0.7057
556.10 0.7053
556.20 0.7049
556.30 0.7044
556.40 0.704
556.50 0.7036
556.60 0.7031
556.70 0.7027
556.80 0.7023
556.90 0.7018
557.00 0.7014
557.10 0.701
557.20 0.7006
557.30 0.7001
557.40 0.6997
557.50 0.6993
557.60 0.6989
557.70 0.6984
557.80 0.698
557.90 0.6976
558.00 0.6972
558.10 0.6967
558.20 0.6963
558.30 0.6959
558.40 0.6955
558.50 0.695
558.60 0.6946
558.70 0.6942
558.80 0.6938
558.90 0.6933
559.00 0.6929
559.10 0.6925
559.20 0.6921
559.30 0.6917
559.40 0.6912
559.50 0.6908
559.60 0.6904
559.70 0.69
559.80 0.6895
559.90 0.6891
560.00 0.6887
560.10 0.6883
560.20 0.6879
560.30 0.6875
560.40 0.687
560.50 0.6866
560.60 0.6862
560.70 0.6858
560.80 0.6854
560.90 0.685
561.00 0.6846
561.10 0.6842
561.20 0.6837
561.30 0.6833
561.40 0.6829
561.50 0.6825
561.60 0.6821
561.70 0.6817
561.80 0.6812
561.90 0.6808
562.00 0.6804
562.10 0.68
562.20 0.6796
562.30 0.6792
562.40 0.6788
562.50 0.6784
562.60 0.678
562.70 0.6776
562.80 0.6771
562.90 0.6767
563.00 0.6763
563.10 0.6759
563.20 0.6755
563.30 0.6751
563.40 0.6747
563.50 0.6743
563.60 0.6739
563.70 0.6735
563.80 0.6731
563.90 0.6726
564.00 0.6722
564.10 0.6718
564.20 0.6714
564.30 0.671
564.40 0.6706
564.50 0.6702
564.60 0.6698
564.70 0.6694
564.80 0.669
564.90 0.6686
565.00 0.6682
565.10 0.6678
565.20 0.6674
565.30 0.667
565.40 0.6666
565.50 0.6662
565.60 0.6658
565.70 0.6654
565.80 0.665
565.90 0.6646
566.00 0.6642
566.10 0.6638
566.20 0.6634
566.30 0.663
566.40 0.6626
566.50 0.6622
566.60 0.6618
566.70 0.6614
566.80 0.661
566.90 0.6606
567.00 0.6602
567.10 0.6598
567.20 0.6594
567.30 0.659
567.40 0.6586
567.50 0.6582
567.60 0.6578
567.70 0.6574
567.80 0.6571
567.90 0.6567
568.00 0.6563
568.10 0.6559
568.20 0.6555
568.30 0.6551
568.40 0.6547
568.50 0.6543
568.60 0.6539
568.70 0.6535
568.80 0.6531
568.90 0.6527
569.00 0.6523
569.10 0.6519
569.20 0.6515
569.30 0.6512
569.40 0.6508
569.50 0.6504
569.60 0.65
569.70 0.6496
569.80 0.6492
569.90 0.6488
570.00 0.6484
570.10 0.648
570.20 0.6476
570.30 0.6473
570.40 0.6469
570.50 0.6465
570.60 0.6461
570.70 0.6457
570.80 0.6453
570.90 0.6449
571.00 0.6445
571.10 0.6442
571.20 0.6438
571.30 0.6434
571.40 0.643
571.50 0.6426
571.60 0.6423
571.70 0.6419
571.80 0.6415
571.90 0.6411
572.00 0.6407
572.10 0.6404
572.20 0.64
572.30 0.6396
572.40 0.6392
572.50 0.6388
572.60 0.6384
572.70 0.6381
572.80 0.6377
572.90 0.6373
573.00 0.6369
573.10 0.6365
573.20 0.6361
573.30 0.6358
573.40 0.6354
573.50 0.635
573.60 0.6346
573.70 0.6343
573.80 0.6339
573.90 0.6335
574.00 0.6331
574.10 0.6328
574.20 0.6324
574.30 0.632
574.40 0.6316
574.50 0.6313
574.60 0.6309
574.70 0.6305
574.80 0.6302
574.90 0.6298
575.00 0.6294
575.10 0.629
575.20 0.6287
575.30 0.6283
575.40 0.6279
575.50 0.6276
575.60 0.6272
575.70 0.6268
575.80 0.6264
575.90 0.6261
576.00 0.6257
576.10 0.6253
576.20 0.625
576.30 0.6246
576.40 0.6242
576.50 0.6239
576.60 0.6235
576.70 0.6231
576.80 0.6227
576.90 0.6224
577.00 0.622
577.10 0.6216
577.20 0.6213
577.30 0.6209
577.40 0.6205
577.50 0.6202
577.60 0.6198
577.70 0.6194
577.80 0.6191
577.90 0.6187
578.00 0.6183
578.10 0.618
578.20 0.6176
578.30 0.6172
578.40 0.6169
578.50 0.6165
578.60 0.6162
578.70 0.6158
578.80 0.6154
578.90 0.6151
579.00 0.6147
579.10 0.6143
579.20 0.614
579.30 0.6136
579.40 0.6132
579.50 0.6129
579.60 0.6125
579.70 0.6122
579.80 0.6118
579.90 0.6114
580.00 0.6111
580.10 0.6107
580.20 0.6103
580.30 0.61
580.40 0.6096
580.50 0.6093
580.60 0.6089
580.70 0.6085
580.80 0.6082
580.90 0.6078
581.00 0.6075
581.10 0.6071
581.20 0.6068
581.30 0.6064
581.40 0.606
581.50 0.6057
581.60 0.6053
581.70 0.605
581.80 0.6046
581.90 0.6043
582.00 0.6039
582.10 0.6036
582.20 0.6032
582.30 0.6029
582.40 0.6025
582.50 0.6022
582.60 0.6018
582.70 0.6014
582.80 0.6011
582.90 0.6007
583.00 0.6004
583.10 0.6
583.20 0.5997
583.30 0.5993
583.40 0.599
583.50 0.5986
583.60 0.5983
583.70 0.5979
583.80 0.5976
583.90 0.5972
584.00 0.5969
584.10 0.5965
584.20 0.5962
584.30 0.5959
584.40 0.5955
584.50 0.5952
584.60 0.5948
584.70 0.5945
584.80 0.5941
584.90 0.5938
585.00 0.5934
585.10 0.5931
585.20 0.5927
585.30 0.5924
585.40 0.592
585.50 0.5917
585.60 0.5913
585.70 0.591
585.80 0.5906
585.90 0.5903
586.00 0.5899
586.10 0.5896
586.20 0.5892
586.30 0.5889
586.40 0.5886
586.50 0.5882
586.60 0.5879
586.70 0.5875
586.80 0.5872
586.90 0.5868
587.00 0.5865
587.10 0.5862
587.20 0.5858
587.30 0.5855
587.40 0.5851
587.50 0.5848
587.60 0.5845
587.70 0.5841
587.80 0.5838
587.90 0.5834
588.00 0.5831
588.10 0.5828
588.20 0.5824
588.30 0.5821
588.40 0.5817
588.50 0.5814
588.60 0.5811
588.70 0.5807
588.80 0.5804
588.90 0.5801
589.00 0.5797
589.10 0.5794
589.20 0.5791
589.30 0.5787
589.40 0.5784
589.50 0.5781
589.60 0.5777
589.70 0.5774
589.80 0.5771
589.90 0.5767
590.00 0.5764
590.10 0.5761
590.20 0.5757
590.30 0.5754
590.40 0.5751
590.50 0.5747
590.60 0.5744
590.70 0.5741
590.80 0.5737
590.90 0.5734
591.00 0.5731
591.10 0.5727
591.20 0.5724
591.30 0.5721
591.40 0.5717
591.50 0.5714
591.60 0.5711
591.70 0.5707
591.80 0.5704
591.90 0.5701
592.00 0.5697
592.10 0.5694
592.20 0.5691
592.30 0.5688
592.40 0.5684
592.50 0.5681
592.60 0.5678
592.70 0.5675
592.80 0.5671
592.90 0.5668
593.00 0.5665
593.10 0.5662
593.20 0.5658
593.30 0.5655
593.40 0.5652
593.50 0.5648
593.60 0.5645
593.70 0.5642
593.80 0.5639
593.90 0.5635
594.00 0.5632
594.10 0.5629
594.20 0.5626
594.30 0.5622
594.40 0.5619
594.50 0.5616
594.60 0.5613
594.70 0.561
594.80 0.5606
594.90 0.5603
595.00 0.56
595.10 0.5597
595.20 0.5593
595.30 0.559
595.40 0.5587
595.50 0.5584
595.60 0.558
595.70 0.5577
595.80 0.5574
595.90 0.5571
596.00 0.5567
596.10 0.5564
596.20 0.5561
596.30 0.5557
596.40 0.5554
596.50 0.5551
596.60 0.5547
596.70 0.5544
596.80 0.5541
596.90 0.5537
597.00 0.5534
597.10 0.553
597.20 0.5527
597.30 0.5524
597.40 0.5521
597.50 0.5518
597.60 0.5514
597.70 0.5511
597.80 0.5508
597.90 0.5505
598.00 0.5502
598.10 0.5499
598.20 0.5496
598.30 0.5492
598.40 0.5489
598.50 0.5486
598.60 0.5483
598.70 0.548
598.80 0.5476
598.90 0.5473
599.00 0.547
599.10 0.5467
599.20 0.5464
599.30 0.5461
599.40 0.5457
599.50 0.5454
599.60 0.5451
599.70 0.5448
599.80 0.5445
599.90 0.5442
600.00 0.5439
600.10 0.5436
600.20 0.5433
600.30 0.5429
600.40 0.5426
600.50 0.5423
600.60 0.542
600.70 0.5417
600.80 0.5414
600.90 0.5411
601.00 0.5408
601.10 0.5405
601.20 0.5402
601.30 0.5398
601.40 0.5395
601.50 0.5392
601.60 0.5389
601.70 0.5386
601.80 0.5383
601.90 0.538
602.00 0.5377
602.10 0.5374
602.20 0.5371
602.30 0.5368
602.40 0.5365
602.50 0.5362
602.60 0.5359
602.70 0.5356
602.80 0.5353
602.90 0.5349
603.00 0.5346
603.10 0.5343
603.20 0.534
603.30 0.5337
603.40 0.5334
603.50 0.5331
603.60 0.5328
603.70 0.5325
603.80 0.5322
603.90 0.5319
604.00 0.5316
604.10 0.5313
604.20 0.531
604.30 0.5307
604.40 0.5304
604.50 0.5301
604.60 0.5298
604.70 0.5295
604.80 0.5292
604.90 0.5289
605.00 0.5286
605.10 0.5283
605.20 0.528
605.30 0.5277
605.40 0.5274
605.50 0.5271
605.60 0.5268
605.70 0.5265
605.80 0.5262
605.90 0.5259
606.00 0.5256
606.10 0.5253
606.20 0.525
606.30 0.5247
606.40 0.5244
606.50 0.5241
606.60 0.5238
606.70 0.5235
606.80 0.5232
606.90 0.5229
607.00 0.5226
607.10 0.5223
607.20 0.522
607.30 0.5217
607.40 0.5214
607.50 0.5211
607.60 0.5208
607.70 0.5205
607.80 0.5202
607.90 0.5199
608.00 0.5196
608.10 0.5194
608.20 0.5191
608.30 0.5188
608.40 0.5185
608.50 0.5182
608.60 0.5179
608.70 0.5176
608.80 0.5173
608.90 0.517
609.00 0.5167
609.10 0.5164
609.20 0.5161
609.30 0.5158
609.40 0.5155
609.50 0.5152
609.60 0.515
609.70 0.5147
609.80 0.5144
609.90 0.5141
610.00 0.5138
610.10 0.5135
610.20 0.5132
610.30 0.5129
610.40 0.5126
610.50 0.5123
610.60 0.5121
610.70 0.5118
610.80 0.5115
610.90 0.5112
611.00 0.5109
611.10 0.5106
611.20 0.5103
611.30 0.51
611.40 0.5097
611.50 0.5095
611.60 0.5092
611.70 0.5089
611.80 0.5086
611.90 0.5083
612.00 0.508
612.10 0.5077
612.20 0.5074
612.30 0.5072
612.40 0.5069
612.50 0.5066
612.60 0.5063
612.70 0.506
612.80 0.5057
612.90 0.5054
613.00 0.5052
613.10 0.5049
613.20 0.5046
613.30 0.5043
613.40 0.504
613.50 0.5037
613.60 0.5034
613.70 0.5032
613.80 0.5029
613.90 0.5026
614.00 0.5023
614.10 0.502
614.20 0.5017
614.30 0.5015
614.40 0.5012
614.50 0.5009
614.60 0.5006
614.70 0.5003
614.80 0.5001
614.90 0.4998
615.00 0.4995
615.10 0.4992
615.20 0.4989
615.30 0.4986
615.40 0.4984
615.50 0.4981
615.60 0.4978
615.70 0.4975
615.80 0.4972
615.90 0.497
616.00 0.4967
616.10 0.4964
616.20 0.4961
616.30 0.4958
616.40 0.4956
616.50 0.4953
616.60 0.495
616.70 0.4947
616.80 0.4945
616.90 0.4942
617.00 0.4939
617.10 0.4936
617.20 0.4933
617.30 0.4931
617.40 0.4928
617.50 0.4925
617.60 0.4922
617.70 0.492
617.80 0.4917
617.90 0.4914
618.00 0.4911
618.10 0.4908
618.20 0.4906
618.30 0.4903
618.40 0.49
618.50 0.4897
618.60 0.4895
618.70 0.4892
618.80 0.4889
618.90 0.4886
619.00 0.4884
619.10 0.4881
619.20 0.4878
619.30 0.4875
619.40 0.4873
619.50 0.487
619.60 0.4867
619.70 0.4865
619.80 0.4862
619.90 0.4859
620.00 0.4856
620.10 0.4854
620.20 0.4851
620.30 0.4848
620.40 0.4845
620.50 0.4843
620.60 0.484
620.70 0.4837
620.80 0.4835
620.90 0.4832
621.00 0.4829
621.10 0.4826
621.20 0.4824
621.30 0.4821
621.40 0.4818
621.50 0.4816
621.60 0.4813
621.70 0.481
621.80 0.4807
621.90 0.4805
622.00 0.4802
622.10 0.4799
622.20 0.4797
622.30 0.4794
622.40 0.4791
622.50 0.4789
622.60 0.4786
622.70 0.4783
622.80 0.478
622.90 0.4778
623.00 0.4775
623.10 0.4772
623.20 0.477
623.30 0.4767
623.40 0.4764
623.50 0.4762
623.60 0.4759
623.70 0.4756
623.80 0.4754
623.90 0.4751
624.00 0.4748
624.10 0.4746
624.20 0.4743
624.30 0.474
624.40 0.4738
624.50 0.4735
624.60 0.4732
624.70 0.473
624.80 0.4727
624.90 0.4724
625.00 0.4722
625.10 0.4719
625.20 0.4716
625.30 0.4714
625.40 0.4711
625.50 0.4708
625.60 0.4706
625.70 0.4703
625.80 0.47
625.90 0.4698
626.00 0.4695
626.10 0.4693
626.20 0.469
626.30 0.4687
626.40 0.4685
626.50 0.4682
626.60 0.4679
626.70 0.4677
626.80 0.4674
626.90 0.4671
627.00 0.4669
627.10 0.4666
627.20 0.4663
627.30 0.4661
627.40 0.4658
627.50 0.4656
627.60 0.4653
627.70 0.465
627.80 0.4648
627.90 0.4645
628.00 0.4642
628.10 0.464
628.20 0.4637
628.30 0.4635
628.40 0.4632
628.50 0.4629
628.60 0.4627
628.70 0.4624
628.80 0.4622
628.90 0.4619
629.00 0.4616
629.10 0.4614
629.20 0.4611
629.30 0.4608
629.40 0.4606
629.50 0.4603
629.60 0.4601
629.70 0.4598
629.80 0.4595
629.90 0.4593
630.00 0.459
630.10 0.4588
630.20 0.4585
630.30 0.4582
630.40 0.458
630.50 0.4577
630.60 0.4575
630.70 0.4572
630.80 0.4569
630.90 0.4567
631.00 0.4564
631.10 0.4562
631.20 0.4559
631.30 0.4556
631.40 0.4554
631.50 0.4551
631.60 0.4549
631.70 0.4546
631.80 0.4543
631.90 0.4541
632.00 0.4538
632.10 0.4536
632.20 0.4533
632.30 0.453
632.40 0.4528
632.50 0.4525
632.60 0.4523
632.70 0.452
632.80 0.4517
632.90 0.4515
633.00 0.4512
633.10 0.451
633.20 0.4507
633.30 0.4504
633.40 0.4502
633.50 0.4499
633.60 0.4497
633.70 0.4494
633.80 0.4491
633.90 0.4489
634.00 0.4486
634.10 0.4484
634.20 0.4481
634.30 0.4478
634.40 0.4476
634.50 0.4473
634.60 0.447
634.70 0.4468
634.80 0.4465
634.90 0.4463
635.00 0.446
635.10 0.4457
635.20 0.4455
635.30 0.4452
635.40 0.445
635.50 0.4447
635.60 0.4444
635.70 0.4442
635.80 0.4439
635.90 0.4436
636.00 0.4434
636.10 0.4431
636.20 0.4429
636.30 0.4426
636.40 0.4423
636.50 0.4421
636.60 0.4418
636.70 0.4415
636.80 0.4413
636.90 0.441
637.00 0.4407
637.10 0.4405
637.20 0.4402
637.30 0.44
637.40 0.4397
637.50 0.4394
637.60 0.4392
637.70 0.4389
637.80 0.4386
637.90 0.4383
638.00 0.4381
638.10 0.4378
638.20 0.4375
638.30 0.4373
638.40 0.437
638.50 0.4367
638.60 0.4365
638.70 0.4362
638.80 0.4359
638.90 0.4357
639.00 0.4354
639.10 0.4351
639.20 0.4348
639.30 0.4346
639.40 0.4343
639.50 0.434
639.60 0.4337
639.70 0.4335
639.80 0.4332
639.90 0.4329
640.00 0.4326
640.10 0.4324
640.20 0.4321
640.30 0.4318
640.40 0.4315
640.50 0.4312
640.60 0.4309
640.70 0.4307
640.80 0.4304
640.90 0.4301
641.00 0.4298
641.10 0.4295
641.20 0.4292
641.30 0.429
641.40 0.4287
641.50 0.4284
641.60 0.4281
641.70 0.4278
641.80 0.4275
641.90 0.4272
642.00 0.4269
642.10 0.4266
642.20 0.4263
642.30 0.426
642.40 0.4257
642.50 0.4254
642.60 0.4251
642.70 0.4248
642.80 0.4245
642.90 0.4242
643.00 0.4239
643.10 0.4236
643.20 0.4233
643.30 0.4229
643.40 0.4226
643.50 0.4223
643.60 0.422
643.70 0.4216
643.80 0.4213
643.90 0.421
644.00 0.4207
644.10 0.4203
644.20 0.42
644.30 0.4197
644.40 0.4193
644.50 0.419
644.60 0.4186
644.70 0.4183
644.80 0.4179
644.90 0.4176
645.00 0.4172
645.10 0.4169
645.20 0.4165
645.30 0.4162
645.40 0.4158
645.50 0.4154
645.60 0.415
645.70 0.4146
645.80 0.4142
645.90 0.4138
646.00 0.4135
646.10 0.4131
646.20 0.4127
646.30 0.4123
646.40 0.4118
646.50 0.4114
646.60 0.411
646.70 0.4105
646.80 0.4101
646.90 0.4097
647.00 0.4092
647.10 0.4088
647.20 0.4084
647.30 0.4079
647.40 0.4074
647.50 0.4069
647.60 0.4064
647.70 0.4059
647.80 0.4054
647.90 0.4049
648.00 0.4044
648.10 0.4038
648.20 0.4033
648.30 0.4028
648.40 0.4022
648.50 0.4016
648.60 0.401
648.70 0.4003
648.80 0.3997
648.90 0.3991
649.00 0.3985
649.10 0.3979
649.20 0.3973
649.30 0.3966
649.40 0.3959
649.50 0.3951
649.60 0.3943
649.70 0.3936
649.80 0.3928
649.90 0.3921
650.00 0.3913
650.10 0.3905
650.20 0.3898
650.30 0.389
650.40 0.388
650.50 0.387
650.60 0.386
650.70 0.385
650.80 0.384
650.90 0.383
651.00 0.382
651.10 0.381
651.20 0.38
651.30 0.3789
651.40 0.3776
651.50 0.3762
651.60 0.3749
651.70 0.3735
651.80 0.3722
651.90 0.3709
652.00 0.3695
652.10 0.3682
652.20 0.3669
652.30 0.3654
652.40 0.3636
652.50 0.3618
652.60 0.36
652.70 0.3581
652.80 0.3563
652.90 0.3545
653.00 0.3527
653.10 0.3509
653.20 0.3491
653.30 0.3471
653.40 0.3447
653.50 0.3422
653.60 0.3398
653.70 0.3373
653.80 0.3349
653.90 0.3324
654.00 0.33
654.10 0.3275
654.20 0.3251
654.30 0.3225
654.40 0.3195
654.50 0.3165
654.60 0.3135
654.70 0.3105
654.80 0.3074
654.90 0.3039
655.00 0.3003
655.10 0.2968
655.20 0.2933
655.30 0.2897
655.40 0.2858
655.50 0.2818
655.60 0.2775
655.70 0.273
655.80 0.2679
655.90 0.2624
656.00 0.2551
656.10 0.2471
656.20 0.2176
656.30 0.1867
656.40 0.2364
656.50 0.2501
656.60 0.2572
656.70 0.2639
656.80 0.2687
656.90 0.2734
657.00 0.2774
657.10 0.2814
657.20 0.285
657.30 0.2886
657.40 0.2918
657.50 0.295
657.60 0.2983
657.70 0.3015
657.80 0.3046
657.90 0.3073
658.00 0.31
658.10 0.3126
658.20 0.3153
658.30 0.3178
658.40 0.3199
658.50 0.322
658.60 0.3241
658.70 0.3262
658.80 0.3282
658.90 0.3303
659.00 0.3324
659.10 0.3345
659.20 0.3365
659.30 0.3385
659.40 0.3399
659.50 0.3413
659.60 0.3427
659.70 0.3441
659.80 0.3455
659.90 0.3469
660.00 0.3483
660.10 0.3497
660.20 0.3511
660.30 0.3524
660.40 0.3533
660.50 0.3542
660.60 0.3551
660.70 0.356
660.80 0.3569
660.90 0.3578
661.00 0.3587
661.10 0.3596
661.20 0.3605
661.30 0.3614
661.40 0.3619
661.50 0.3625
661.60 0.363
661.70 0.3636
661.80 0.3641
661.90 0.3647
662.00 0.3652
662.10 0.3658
662.20 0.3664
662.30 0.3669
662.40 0.3672
662.50 0.3675
662.60 0.3678
662.70 0.3681
662.80 0.3684
662.90 0.3687
663.00 0.3691
663.10 0.3694
663.20 0.3697
663.30 0.37
663.40 0.3701
663.50 0.3703
663.60 0.3705
663.70 0.3706
663.80 0.3708
663.90 0.371
664.00 0.3711
664.10 0.3713
664.20 0.3715
664.30 0.3716
664.40 0.3717
664.50 0.3717
664.60 0.3718
664.70 0.3719
664.80 0.3719
664.90 0.372
665.00 0.3721
665.10 0.3721
665.20 0.3722
665.30 0.3722
665.40 0.3722
665.50 0.3722
665.60 0.3722
665.70 0.3722
665.80 0.3722
665.90 0.3722
666.00 0.3722
666.10 0.3722
666.20 0.3722
666.30 0.3721
666.40 0.3721
666.50 0.372
666.60 0.372
666.70 0.3719
666.80 0.3719
666.90 0.3718
667.00 0.3718
667.10 0.3717
667.20 0.3716
667.30 0.3716
667.40 0.3715
667.50 0.3714
667.60 0.3713
667.70 0.3712
667.80 0.3712
667.90 0.3711
668.00 0.371
668.10 0.3709
668.20 0.3708
668.30 0.3707
668.40 0.3706
668.50 0.3705
668.60 0.3704
668.70 0.3703
668.80 0.3701
668.90 0.37
669.00 0.3699
669.10 0.3698
669.20 0.3697
669.30 0.3696
669.40 0.3695
669.50 0.3693
669.60 0.3692
669.70 0.3691
669.80 0.3689
669.90 0.3688
670.00 0.3687
670.10 0.3686
670.20 0.3684
670.30 0.3683
670.40 0.3682
670.50 0.368
670.60 0.3679
670.70 0.3677
670.80 0.3676
670.90 0.3675
671.00 0.3673
671.10 0.3672
671.20 0.367
671.30 0.3669
671.40 0.3667
671.50 0.3666
671.60 0.3664
671.70 0.3663
671.80 0.3661
671.90 0.366
672.00 0.3658
672.10 0.3657
672.20 0.3655
672.30 0.3654
672.40 0.3652
672.50 0.3651
672.60 0.3649
672.70 0.3648
672.80 0.3646
672.90 0.3645
673.00 0.3643
673.10 0.3641
673.20 0.364
673.30 0.3638
673.40 0.3637
673.50 0.3635
673.60 0.3633
673.70 0.3632
673.80 0.363
673.90 0.3629
674.00 0.3627
674.10 0.3625
674.20 0.3624
674.30 0.3622
674.40 0.3621
674.50 0.3619
674.60 0.3617
674.70 0.3616
674.80 0.3614
674.90 0.3612
675.00 0.3611
675.10 0.3609
675.20 0.3607
675.30 0.3606
675.40 0.3604
675.50 0.3602
675.60 0.3601
675.70 0.3599
675.80 0.3597
675.90 0.3596
676.00 0.3594
676.10 0.3592
676.20 0.3591
676.30 0.3589
676.40 0.3587
676.50 0.3586
676.60 0.3584
676.70 0.3582
676.80 0.3581
676.90 0.3579
677.00 0.3577
677.10 0.3576
677.20 0.3574
677.30 0.3572
677.40 0.3571
677.50 0.3569
677.60 0.3567
677.70 0.3565
677.80 0.3564
677.90 0.3562
678.00 0.356
678.10 0.3559
678.20 0.3557
678.30 0.3555
678.40 0.3554
678.50 0.3552
678.60 0.355
678.70 0.3548
678.80 0.3547
678.90 0.3545
679.00 0.3543
679.10 0.3542
679.20 0.354
679.30 0.3538
679.40 0.3536
679.50 0.3535
679.60 0.3533
679.70 0.3531
679.80 0.353
679.90 0.3528
680.00 0.3526
680.10 0.3524
680.20 0.3523
680.30 0.3521
680.40 0.3519
680.50 0.3518
680.60 0.3516
680.70 0.3514
680.80 0.3512
680.90 0.3511
681.00 0.3509
681.10 0.3507
681.20 0.3506
681.30 0.3504
681.40 0.3502
681.50 0.35
681.60 0.3499
681.70 0.3497
681.80 0.3495
681.90 0.3494
682.00 0.3492
682.10 0.349
682.20 0.3488
682.30 0.3487
682.40 0.3485
682.50 0.3483
682.60 0.3482
682.70 0.348
682.80 0.3478
682.90 0.3477
683.00 0.3475
683.10 0.3473
683.20 0.3471
683.30 0.347
683.40 0.3468
683.50 0.3466
683.60 0.3465
683.70 0.3463
683.80 0.3461
683.90 0.3459
684.00 0.3458
684.10 0.3456
684.20 0.3454
684.30 0.3453
684.40 0.3451
684.50 0.3449
684.60 0.3448
684.70 0.3446
684.80 0.3444
684.90 0.3442
685.00 0.3441
685.10 0.3439
685.20 0.3437
685.30 0.3436
685.40 0.3434
685.50 0.3432
685.60 0.3431
685.70 0.3429
685.80 0.3427
685.90 0.3425
686.00 0.3424
686.10 0.3422
686.20 0.342
686.30 0.3419
686.40 0.3417
686.50 0.3415
686.60 0.3414
686.70 0.3412
686.80 0.341
686.90 0.3409
687.00 0.3407
687.10 0.3405
687.20 0.3403
687.30 0.3402
687.40 0.34
687.50 0.3398
687.60 0.3397
687.70 0.3395
687.80 0.3393
687.90 0.3392
688.00 0.339
688.10 0.3388
688.20 0.3387
688.30 0.3385
688.40 0.3383
688.50 0.3382
688.60 0.338
688.70 0.3378
688.80 0.3377
688.90 0.3375
689.00 0.3373
689.10 0.3372
689.20 0.337
689.30 0.3368
689.40 0.3367
689.50 0.3365
689.60 0.3363
689.70 0.3362
689.80 0.336
689.90 0.3358
690.00 0.3357
690.10 0.3355
690.20 0.3353
690.30 0.3352
690.40 0.335
690.50 0.3348
690.60 0.3347
690.70 0.3345
690.80 0.3343
690.90 0.3342
691.00 0.334
691.10 0.3338
691.20 0.3337
691.30 0.3335
691.40 0.3333
691.50 0.3332
691.60 0.333
691.70 0.3328
691.80 0.3327
691.90 0.3325
692.00 0.3323
692.10 0.3322
692.20 0.332
692.30 0.3319
692.40 0.3317
692.50 0.3315
692.60 0.3314
692.70 0.3312
692.80 0.331
692.90 0.3309
693.00 0.3307
693.10 0.3305
693.20 0.3304
693.30 0.3302
693.40 0.33
693.50 0.3299
693.60 0.3297
693.70 0.3296
693.80 0.3294
693.90 0.3292
694.00 0.3291
694.10 0.3289
694.20 0.3287
694.30 0.3286
694.40 0.3284
694.50 0.3283
694.60 0.3281
694.70 0.3279
694.80 0.3278
694.90 0.3276
695.00 0.3274
695.10 0.3273
695.20 0.3271
695.30 0.327
695.40 0.3268
695.50 0.3266
695.60 0.3265
695.70 0.3263
695.80 0.3261
695.90 0.326
696.00 0.3258
696.10 0.3257
696.20 0.3255
696.30 0.3253
696.40 0.3252
696.50 0.325
696.60 0.3249
696.70 0.3247
696.80 0.3245
696.90 0.3244
697.00 0.3242
697.10 0.324
697.20 0.3239
697.30 0.3237
697.40 0.3236
697.50 0.3234
697.60 0.3232
697.70 0.3231
697.80 0.3229
697.90 0.3228
698.00 0.3226
698.10 0.3224
698.20 0.3223
698.30 0.3221
698.40 0.322
698.50 0.3218
698.60 0.3216
698.70 0.3215
698.80 0.3213
698.90 0.3212
699.00 0.321
699.10 0.3209
699.20 0.3207
699.30 0.3205
699.40 0.3204
699.50 0.3202
699.60 0.3201
699.70 0.3199
699.80 0.3197
699.90 0.3196
700.00 0.3194
700.10 0.3192
700.20 0.3191
700.30 0.3189
700.40 0.3187
700.50 0.3186
700.60 0.3184
700.70 0.3182
700.80 0.318
700.90 0.3179
701.00 0.3177
701.10 0.3175
701.20 0.3173
701.30 0.3172
701.40 0.317
701.50 0.3168
701.60 0.3166
701.70 0.3165
701.80 0.3163
701.90 0.3161
702.00 0.316
702.10 0.3158
702.20 0.3156
702.30 0.3154
702.40 0.3153
702.50 0.3151
702.60 0.3149
702.70 0.3148
702.80 0.3146
702.90 0.3144
703.00 0.3142
703.10 0.3141
703.20 0.3139
703.30 0.3137
703.40 0.3135
703.50 0.3134
703.60 0.3132
703.70 0.313
703.80 0.3129
703.90 0.3127
704.00 0.3125
704.10 0.3124
704.20 0.3122
704.30 0.312
704.40 0.3118
704.50 0.3117
704.60 0.3115
704.70 0.3113
704.80 0.3112
704.90 0.311
705.00 0.3108
705.10 0.3107
705.20 0.3105
705.30 0.3104
705.40 0.3102
705.50 0.3101
705.60 0.3099
705.70 0.3098
705.80 0.3096
705.90 0.3094
706.00 0.3093
706.10 0.3091
706.20 0.309
706.30 0.3088
706.40 0.3087
706.50 0.3085
706.60 0.3084
706.70 0.3082
706.80 0.3081
706.90 0.3079
707.00 0.3078
707.10 0.3076
707.20 0.3075
707.30 0.3073
707.40 0.3072
707.50 0.307
707.60 0.3069
707.70 0.3067
707.80 0.3066
707.90 0.3064
708.00 0.3063
708.10 0.3061
708.20 0.306
708.30 0.3058
708.40 0.3057
708.50 0.3055
708.60 0.3054
708.70 0.3052
708.80 0.3051
708.90 0.3049
709.00 0.3048
709.10 0.3046
709.20 0.3045
709.30 0.3043
709.40 0.3042
709.50 0.304
709.60 0.3039
709.70 0.3037
709.80 0.3036
709.90 0.3034
710.00 0.3033
710.10 0.3031
710.20 0.303
710.30 0.3028
710.40 0.3027
710.50 0.3025
710.60 0.3024
710.70 0.3022
710.80 0.3021
710.90 0.3019
711.00 0.3018
711.10 0.3017
711.20 0.3015
711.30 0.3014
711.40 0.3012
711.50 0.3011
711.60 0.3009
711.70 0.3008
711.80 0.3006
711.90 0.3005
712.00 0.3003
712.10 0.3002
712.20 0.3
712.30 0.2999
712.40 0.2997
712.50 0.2996
712.60 0.2995
712.70 0.2993
712.80 0.2992
712.90 0.299
713.00 0.2989
713.10 0.2987
713.20 0.2986
713.30 0.2984
713.40 0.2983
713.50 0.2981
713.60 0.298
713.70 0.2978
713.80 0.2977
713.90 0.2976
714.00 0.2974
714.10 0.2973
714.20 0.2971
714.30 0.297
714.40 0.2968
714.50 0.2967
714.60 0.2965
714.70 0.2964
714.80 0.2962
714.90 0.2961
715.00 0.296
715.10 0.2958
715.20 0.2957
715.30 0.2955
715.40 0.2954
715.50 0.2952
715.60 0.2951
715.70 0.295
715.80 0.2948
715.90 0.2947
716.00 0.2945
716.10 0.2944
716.20 0.2942
716.30 0.2941
716.40 0.294
716.50 0.2938
716.60 0.2937
716.70 0.2935
716.80 0.2934
716.90 0.2933
717.00 0.2931
717.10 0.293
717.20 0.2928
717.30 0.2927
717.40 0.2925
717.50 0.2924
717.60 0.2923
717.70 0.2921
717.80 0.292
717.90 0.2918
718.00 0.2917
718.10 0.2916
718.20 0.2914
718.30 0.2913
718.40 0.2911
718.50 0.291
718.60 0.2909
718.70 0.2907
718.80 0.2906
718.90 0.2904
719.00 0.2903
719.10 0.2902
719.20 0.29
719.30 0.2899
719.40 0.2897
719.50 0.2896
719.60 0.2895
719.70 0.2893
719.80 0.2892
719.90 0.289
720.00 0.2889
720.10 0.2888
720.20 0.2886
720.30 0.2885
720.40 0.2883
720.50 0.2882
720.60 0.2881
720.70 0.2879
720.80 0.2878
720.90 0.2876
721.00 0.2875
721.10 0.2874
721.20 0.2872
721.30 0.2871
721.40 0.287
721.50 0.2868
721.60 0.2867
721.70 0.2865
721.80 0.2864
721.90 0.2863
722.00 0.2861
722.10 0.286
722.20 0.2858
722.30 0.2857
722.40 0.2856
722.50 0.2854
722.60 0.2853
722.70 0.2852
722.80 0.285
722.90 0.2849
723.00 0.2847
723.10 0.2846
723.20 0.2845
723.30 0.2843
723.40 0.2842
723.50 0.2841
723.60 0.2839
723.70 0.2838
723.80 0.2836
723.90 0.2835
724.00 0.2834
724.10 0.2832
724.20 0.2831
724.30 0.283
724.40 0.2828
724.50 0.2827
724.60 0.2825
724.70 0.2824
724.80 0.2823
724.90 0.2821
725.00 0.282
725.10 0.2819
725.20 0.2817
725.30 0.2816
725.40 0.2815
725.50 0.2813
725.60 0.2812
725.70 0.2811
725.80 0.2809
725.90 0.2808
726.00 0.2806
726.10 0.2805
726.20 0.2804
726.30 0.2802
726.40 0.2801
726.50 0.28
726.60 0.2798
726.70 0.2797
726.80 0.2796
726.90 0.2794
727.00 0.2793
727.10 0.2792
727.20 0.279
727.30 0.2789
727.40 0.2788
727.50 0.2786
727.60 0.2785
727.70 0.2784
727.80 0.2782
727.90 0.2781
728.00 0.278
728.10 0.2778
728.20 0.2777
728.30 0.2776
728.40 0.2774
728.50 0.2773
728.60 0.2772
728.70 0.277
728.80 0.2769
728.90 0.2768
729.00 0.2766
729.10 0.2765
729.20 0.2764
729.30 0.2762
729.40 0.2761
729.50 0.276
729.60 0.2758
729.70 0.2757
729.80 0.2756
729.90 0.2754
730.00 0.2753
730.10 0.2752
730.20 0.275
730.30 0.2749
730.40 0.2748
730.50 0.2747
730.60 0.2745
730.70 0.2744
730.80 0.2743
730.90 0.2741
731.00 0.274
731.10 0.2739
731.20 0.2737
731.30 0.2736
731.40 0.2735
731.50 0.2734
731.60 0.2732
731.70 0.2731
731.80 0.273
731.90 0.2728
732.00 0.2727
732.10 0.2726
732.20 0.2724
732.30 0.2723
732.40 0.2722
732.50 0.2721
732.60 0.2719
732.70 0.2718
732.80 0.2717
732.90 0.2715
733.00 0.2714
733.10 0.2713
733.20 0.2711
733.30 0.271
733.40 0.2709
733.50 0.2708
733.60 0.2706
733.70 0.2705
733.80 0.2704
733.90 0.2702
734.00 0.2701
734.10 0.27
734.20 0.2699
734.30 0.2697
734.40 0.2696
734.50 0.2695
734.60 0.2693
734.70 0.2692
734.80 0.2691
734.90 0.269
735.00 0.2688
735.10 0.2687
735.20 0.2686
735.30 0.2685
735.40 0.2683
735.50 0.2682
735.60 0.2681
735.70 0.2679
735.80 0.2678
735.90 0.2677
736.00 0.2676
736.10 0.2674
736.20 0.2673
736.30 0.2672
736.40 0.267
736.50 0.2669
736.60 0.2668
736.70 0.2667
736.80 0.2665
736.90 0.2664
737.00 0.2663
737.10 0.2662
737.20 0.266
737.30 0.2659
737.40 0.2658
737.50 0.2657
737.60 0.2655
737.70 0.2654
737.80 0.2653
737.90 0.2651
738.00 0.265
738.10 0.2649
738.20 0.2648
738.30 0.2646
738.40 0.2645
738.50 0.2644
738.60 0.2643
738.70 0.2641
738.80 0.264
738.90 0.2639
739.00 0.2638
739.10 0.2636
739.20 0.2635
739.30 0.2634
739.40 0.2633
739.50 0.2631
739.60 0.263
739.70 0.2629
739.80 0.2628
739.90 0.2626
740.00 0.2625
740.10 0.2624
740.20 0.2623
740.30 0.2621
740.40 0.262
740.50 0.2619
740.60 0.2618
740.70 0.2616
740.80 0.2615
740.90 0.2614
741.00 0.2613
741.10 0.2612
741.20 0.261
741.30 0.2609
741.40 0.2608
741.50 0.2607
741.60 0.2605
741.70 0.2604
741.80 0.2603
741.90 0.2602
742.00 0.2601
742.10 0.2599
742.20 0.2598
742.30 0.2597
742.40 0.2596
742.50 0.2594
742.60 0.2593
742.70 0.2592
742.80 0.2591
742.90 0.259
743.00 0.2588
743.10 0.2587
743.20 0.2586
743.30 0.2585
743.40 0.2583
743.50 0.2582
743.60 0.2581
743.70 0.258
743.80 0.2579
743.90 0.2577
744.00 0.2576
744.10 0.2575
744.20 0.2574
744.30 0.2573
744.40 0.2571
744.50 0.257
744.60 0.2569
744.70 0.2568
744.80 0.2567
744.90 0.2565
745.00 0.2564
745.10 0.2563
745.20 0.2562
745.30 0.2561
745.40 0.2559
745.50 0.2558
745.60 0.2557
745.70 0.2556
745.80 0.2554
745.90 0.2553
746.00 0.2552
746.10 0.2551
746.20 0.255
746.30 0.2548
746.40 0.2547
746.50 0.2546
746.60 0.2545
746.70 0.2544
746.80 0.2543
746.90 0.2541
747.00 0.254
747.10 0.2539
747.20 0.2538
747.30 0.2537
747.40 0.2535
747.50 0.2534
747.60 0.2533
747.70 0.2532
747.80 0.2531
747.90 0.2529
748.00 0.2528
748.10 0.2527
748.20 0.2526
748.30 0.2525
748.40 0.2523
748.50 0.2522
748.60 0.2521
748.70 0.252
748.80 0.2519
748.90 0.2518
749.00 0.2516
749.10 0.2515
749.20 0.2514
749.30 0.2513
749.40 0.2512
749.50 0.251
749.60 0.2509
749.70 0.2508
749.80 0.2507
749.90 0.2506
750.00 0.2505
750.10 0.2503
750.20 0.2502
750.30 0.2501
750.40 0.25
750.50 0.2499
750.60 0.2498
750.70 0.2496
750.80 0.2495
750.90 0.2494
751.00 0.2493
751.10 0.2492
751.20 0.2491
751.30 0.2489
751.40 0.2488
751.50 0.2487
751.60 0.2486
751.70 0.2485
751.80 0.2484
751.90 0.2483
752.00 0.2481
752.10 0.248
752.20 0.2479
752.30 0.2478
752.40 0.2477
752.50 0.2476
752.60 0.2474
752.70 0.2473
752.80 0.2472
752.90 0.2471
753.00 0.247
753.10 0.2469
753.20 0.2468
753.30 0.2466
753.40 0.2465
753.50 0.2464
753.60 0.2463
753.70 0.2462
753.80 0.2461
753.90 0.246
754.00 0.2458
754.10 0.2457
754.20 0.2456
754.30 0.2455
754.40 0.2454
754.50 0.2453
754.60 0.2452
754.70 0.245
754.80 0.2449
754.90 0.2448
755.00 0.2447
755.10 0.2446
755.20 0.2445
755.30 0.2444
755.40 0.2443
755.50 0.2441
755.60 0.244
755.70 0.2439
755.80 0.2438
755.90 0.2437
756.00 0.2436
756.10 0.2435
756.20 0.2433
756.30 0.2432
756.40 0.2431
756.50 0.243
756.60 0.2429
756.70 0.2428
756.80 0.2427
756.90 0.2426
757.00 0.2424
757.10 0.2423
757.20 0.2422
757.30 0.2421
757.40 0.242
757.50 0.2419
757.60 0.2418
757.70 0.2417
757.80 0.2415
757.90 0.2414
758.00 0.2413
758.10 0.2412
758.20 0.2411
758.30 0.241
758.40 0.2409
758.50 0.2408
758.60 0.2406
758.70 0.2405
758.80 0.2404
758.90 0.2403
759.00 0.2402
759.10 0.2401
759.20 0.24
759.30 0.2399
759.40 0.2398
759.50 0.2396
759.60 0.2395
759.70 0.2394
759.80 0.2393
759.90 0.2392
760.00 0.2391
760.10 0.239
760.20 0.2389
760.30 0.2388
760.40 0.2386
760.50 0.2385
760.60 0.2384
760.70 0.2383
760.80 0.2382
760.90 0.2381
761.00 0.238
761.10 0.2379
761.20 0.2378
761.30 0.2377
761.40 0.2376
761.50 0.2374
761.60 0.2373
761.70 0.2372
761.80 0.2371
761.90 0.237
762.00 0.2369
762.10 0.2368
762.20 0.2367
762.30 0.2366
762.40 0.2365
762.50 0.2364
762.60 0.2363
762.70 0.2361
762.80 0.236
762.90 0.2359
763.00 0.2358
763.10 0.2357
763.20 0.2356
763.30 0.2355
763.40 0.2354
763.50 0.2353
763.60 0.2352
763.70 0.2351
763.80 0.235
763.90 0.2348
764.00 0.2347
764.10 0.2346
764.20 0.2345
764.30 0.2344
764.40 0.2343
764.50 0.2342
764.60 0.2341
764.70 0.234
764.80 0.2339
764.90 0.2338
765.00 0.2337
765.10 0.2336
765.20 0.2334
765.30 0.2333
765.40 0.2332
765.50 0.2331
765.60 0.233
765.70 0.2329
765.80 0.2328
765.90 0.2327
766.00 0.2326
766.10 0.2325
766.20 0.2324
766.30 0.2323
766.40 0.2322
766.50 0.2321
766.60 0.232
766.70 0.2318
766.80 0.2317
766.90 0.2316
767.00 0.2315
767.10 0.2314
767.20 0.2313
767.30 0.2312
767.40 0.2311
767.50 0.231
767.60 0.2309
767.70 0.2308
767.80 0.2307
767.90 0.2306
768.00 0.2305
768.10 0.2304
768.20 0.2303
768.30 0.2302
768.40 0.23
768.50 0.2299
768.60 0.2298
768.70 0.2297
768.80 0.2296
768.90 0.2295
769.00 0.2294
769.10 0.2293
769.20 0.2292
769.30 0.2291
769.40 0.229
769.50 0.2289
769.60 0.2288
769.70 0.2287
769.80 0.2286
769.90 0.2285
770.00 0.2284
770.10 0.2283
770.20 0.2282
770.30 0.2281
770.40 0.2279
770.50 0.2278
770.60 0.2277
770.70 0.2276
770.80 0.2275
770.90 0.2274
771.00 0.2273
771.10 0.2272
771.20 0.2271
771.30 0.227
771.40 0.2269
771.50 0.2268
771.60 0.2267
771.70 0.2266
771.80 0.2265
771.90 0.2264
772.00 0.2263
772.10 0.2262
772.20 0.2261
772.30 0.226
772.40 0.2259
772.50 0.2258
772.60 0.2257
772.70 0.2256
772.80 0.2255
772.90 0.2254
773.00 0.2253
773.10 0.2252
773.20 0.2251
773.30 0.225
773.40 0.2249
773.50 0.2248
773.60 0.2247
773.70 0.2246
773.80 0.2245
773.90 0.2244
774.00 0.2243
774.10 0.2242
774.20 0.2241
774.30 0.224
774.40 0.2239
774.50 0.2237
774.60 0.2236
774.70 0.2235
774.80 0.2234
774.90 0.2233
775.00 0.2232
775.10 0.2231
775.20 0.223
775.30 0.2229
775.40 0.2228
775.50 0.2227
775.60 0.2226
775.70 0.2225
775.80 0.2224
775.90 0.2223
776.00 0.2222
776.10 0.2221
776.20 0.222
776.30 0.2219
776.40 0.2218
776.50 0.2217
776.60 0.2216
776.70 0.2215
776.80 0.2214
776.90 0.2213
777.00 0.2212
777.10 0.2211
777.20 0.221
777.30 0.2209
777.40 0.2208
777.50 0.2207
777.60 0.2206
777.70 0.2205
777.80 0.2204
777.90 0.2203
778.00 0.2202
778.10 0.2201
778.20 0.22
778.30 0.2199
778.40 0.2198
778.50 0.2197
778.60 0.2196
778.70 0.2195
778.80 0.2194
778.90 0.2193
779.00 0.2192
779.10 0.2191
779.20 0.219
779.30 0.2189
779.40 0.2188
779.50 0.2187
779.60 0.2186
779.70 0.2185
779.80 0.2184
779.90 0.2183
780.00 0.2182
780.10 0.2181
780.20 0.218
780.30 0.2179
780.40 0.2178
780.50 0.2177
780.60 0.2177
780.70 0.2176
780.80 0.2175
780.90 0.2174
781.00 0.2173
781.10 0.2172
781.20 0.2171
781.30 0.217
781.40 0.2169
781.50 0.2168
781.60 0.2167
781.70 0.2166
781.80 0.2165
781.90 0.2164
782.00 0.2163
782.10 0.2162
782.20 0.2161
782.30 0.216
782.40 0.2159
782.50 0.2158
782.60 0.2157
782.70 0.2156
782.80 0.2155
782.90 0.2154
783.00 0.2153
783.10 0.2152
783.20 0.2151
783.30 0.215
783.40 0.2149
783.50 0.2148
783.60 0.2147
783.70 0.2146
783.80 0.2146
783.90 0.2145
784.00 0.2144
784.10 0.2143
784.20 0.2142
784.30 0.2141
784.40 0.214
784.50 0.2139
784.60 0.2138
784.70 0.2137
784.80 0.2136
784.90 0.2135
785.00 0.2134
785.10 0.2133
785.20 0.2132
785.30 0.2131
785.40 0.213
785.50 0.2129
785.60 0.2128
785.70 0.2127
785.80 0.2126
785.90 0.2125
786.00 0.2124
786.10 0.2124
786.20 0.2123
786.30 0.2122
786.40 0.2121
786.50 0.212
786.60 0.2119
786.70 0.2118
786.80 0.2117
786.90 0.2116
787.00 0.2115
787.10 0.2114
787.20 0.2113
787.30 0.2112
787.40 0.2111
787.50 0.211
787.60 0.2109
787.70 0.2108
787.80 0.2107
787.90 0.2106
788.00 0.2105
788.10 0.2105
788.20 0.2104
788.30 0.2103
788.40 0.2102
788.50 0.2101
788.60 0.21
788.70 0.2099
788.80 0.2098
788.90 0.2097
789.00 0.2096
789.10 0.2095
789.20 0.2094
789.30 0.2093
789.40 0.2092
789.50 0.2091
789.60 0.209
789.70 0.2089
789.80 0.2089
789.90 0.2088
790.00 0.2087
790.10 0.2086
790.20 0.2085
790.30 0.2084
790.40 0.2083
790.50 0.2082
790.60 0.2081
790.70 0.208
790.80 0.2079
790.90 0.2078
791.00 0.2077
791.10 0.2077
791.20 0.2076
791.30 0.2075
791.40 0.2074
791.50 0.2073
791.60 0.2072
791.70 0.2071
791.80 0.207
791.90 0.2069
792.00 0.2068
792.10 0.2067
792.20 0.2066
792.30 0.2066
792.40 0.2065
792.50 0.2064
792.60 0.2063
792.70 0.2062
792.80 0.2061
792.90 0.206
793.00 0.2059
793.10 0.2058
793.20 0.2057
793.30 0.2056
793.40 0.2055
793.50 0.2055
793.60 0.2054
793.70 0.2053
793.80 0.2052
793.90 0.2051
794.00 0.205
794.10 0.2049
794.20 0.2048
794.30 0.2047
794.40 0.2046
794.50 0.2046
794.60 0.2045
794.70 0.2044
794.80 0.2043
794.90 0.2042
795.00 0.2041
795.10 0.204
795.20 0.2039
795.30 0.2038
795.40 0.2037
795.50 0.2036
795.60 0.2036
795.70 0.2035
795.80 0.2034
795.90 0.2033
796.00 0.2032
796.10 0.2031
796.20 0.203
796.30 0.2029
796.40 0.2028
796.50 0.2027
796.60 0.2027
796.70 0.2026
796.80 0.2025
796.90 0.2024
797.00 0.2023
797.10 0.2022
797.20 0.2021
797.30 0.202
797.40 0.2019
797.50 0.2018
797.60 0.2018
797.70 0.2017
797.80 0.2016
797.90 0.2015
798.00 0.2014
798.10 0.2013
798.20 0.2012
798.30 0.2011
798.40 0.201
798.50 0.201
798.60 0.2009
798.70 0.2008
798.80 0.2007
798.90 0.2006
799.00 0.2005
799.10 0.2004
799.20 0.2003
799.30 0.2002
799.40 0.2002
799.50 0.2001
799.60 0.2
799.70 0.1999
799.80 0.1998
799.90 0.1997
800.00 0.1996
800.10 0.1995
800.20 0.1995
800.30 0.1994
800.40 0.1993
800.50 0.1992
800.60 0.1991
800.70 0.199
800.80 0.1989
800.90 0.1988
801.00 0.1988
801.10 0.1987
801.20 0.1986
801.30 0.1985
801.40 0.1984
801.50 0.1983
801.60 0.1982
801.70 0.1981
801.80 0.1981
801.90 0.198
802.00 0.1979
802.10 0.1978
802.20 0.1977
802.30 0.1976
802.40 0.1975
802.50 0.1975
802.60 0.1974
802.70 0.1973
802.80 0.1972
802.90 0.1971
803.00 0.197
803.10 0.1969
803.20 0.1968
803.30 0.1968
803.40 0.1967
803.50 0.1966
803.60 0.1965
803.70 0.1964
803.80 0.1963
803.90 0.1962
804.00 0.1962
804.10 0.1961
804.20 0.196
804.30 0.1959
804.40 0.1958
804.50 0.1957
804.60 0.1956
804.70 0.1956
804.80 0.1955
804.90 0.1954
805.00 0.1953
805.10 0.1952
805.20 0.1951
805.30 0.195
805.40 0.195
805.50 0.1949
805.60 0.1948
805.70 0.1947
805.80 0.1946
805.90 0.1945
806.00 0.1944
806.10 0.1944
806.20 0.1943
806.30 0.1942
806.40 0.1941
806.50 0.194
806.60 0.1939
806.70 0.1939
806.80 0.1938
806.90 0.1937
807.00 0.1936
807.10 0.1935
807.20 0.1934
807.30 0.1933
807.40 0.1933
807.50 0.1932
807.60 0.1931
807.70 0.193
807.80 0.1929
807.90 0.1928
808.00 0.1928
808.10 0.1927
808.20 0.1926
808.30 0.1925
808.40 0.1924
808.50 0.1923
808.60 0.1922
808.70 0.1922
808.80 0.1921
808.90 0.192
809.00 0.1919
809.10 0.1918
809.20 0.1917
809.30 0.1917
809.40 0.1916
809.50 0.1915
809.60 0.1914
809.70 0.1913
809.80 0.1912
809.90 0.1912
810.00 0.1911
810.10 0.191
810.20 0.1909
810.30 0.1908
810.40 0.1907
810.50 0.1907
810.60 0.1906
810.70 0.1905
810.80 0.1904
810.90 0.1903
811.00 0.1902
811.10 0.1902
811.20 0.1901
811.30 0.19
811.40 0.1899
811.50 0.1898
811.60 0.1898
811.70 0.1897
811.80 0.1896
811.90 0.1895
812.00 0.1894
812.10 0.1893
812.20 0.1893
812.30 0.1892
812.40 0.1891
812.50 0.189
812.60 0.1889
812.70 0.1888
812.80 0.1888
812.90 0.1887
813.00 0.1886
813.10 0.1885
813.20 0.1884
813.30 0.1884
813.40 0.1883
813.50 0.1882
813.60 0.1881
813.70 0.188
813.80 0.188
813.90 0.1879
814.00 0.1878
814.10 0.1877
814.20 0.1876
814.30 0.1875
814.40 0.1875
814.50 0.1874
814.60 0.1873
814.70 0.1872
814.80 0.1871
814.90 0.1871
815.00 0.187
815.10 0.1869
815.20 0.1868
815.30 0.1867
815.40 0.1867
815.50 0.1866
815.60 0.1865
815.70 0.1864
815.80 0.1863
815.90 0.1862
816.00 0.1862
816.10 0.1861
816.20 0.186
816.30 0.1859
816.40 0.1858
816.50 0.1858
816.60 0.1857
816.70 0.1856
816.80 0.1855
816.90 0.1854
817.00 0.1854
817.10 0.1853
817.20 0.1852
817.30 0.1851
817.40 0.185
817.50 0.185
817.60 0.1849
817.70 0.1848
817.80 0.1847
817.90 0.1846
818.00 0.1846
818.10 0.1845
818.20 0.1844
818.30 0.1843
818.40 0.1842
818.50 0.1842
818.60 0.1841
818.70 0.184
818.80 0.1839
818.90 0.1838
819.00 0.1838
819.10 0.1837
819.20 0.1836
819.30 0.1835
819.40 0.1834
819.50 0.1834
819.60 0.1833
819.70 0.1832
819.80 0.1831
819.90 0.183
820.00 0.183
820.10 0.1829
820.20 0.1828
820.30 0.1827
820.40 0.1827
820.50 0.1826
820.60 0.1825
820.70 0.1824
820.80 0.1823
820.90 0.1823
821.00 0.1822
821.10 0.1821
821.20 0.182
821.30 0.182
821.40 0.1819
821.50 0.1818
821.60 0.1817
821.70 0.1816
821.80 0.1816
821.90 0.1815
822.00 0.1814
822.10 0.1813
822.20 0.1812
822.30 0.1812
822.40 0.1811
822.50 0.181
822.60 0.1809
822.70 0.1809
822.80 0.1808
822.90 0.1807
823.00 0.1806
823.10 0.1806
823.20 0.1805
823.30 0.1804
823.40 0.1803
823.50 0.1802
823.60 0.1802
823.70 0.1801
823.80 0.18
823.90 0.1799
824.00 0.1799
824.10 0.1798
824.20 0.1797
824.30 0.1796
824.40 0.1795
824.50 0.1795
824.60 0.1794
824.70 0.1793
824.80 0.1792
824.90 0.1792
825.00 0.1791
825.10 0.179
825.20 0.1789
825.30 0.1789
825.40 0.1788
825.50 0.1787
825.60 0.1786
825.70 0.1785
825.80 0.1785
825.90 0.1784
826.00 0.1783
826.10 0.1782
826.20 0.1782
826.30 0.1781
826.40 0.178
826.50 0.1779
826.60 0.1779
826.70 0.1778
826.80 0.1777
826.90 0.1776
827.00 0.1776
827.10 0.1775
827.20 0.1774
827.30 0.1773
827.40 0.1773
827.50 0.1772
827.60 0.1771
827.70 0.177
827.80 0.177
827.90 0.1769
828.00 0.1768
828.10 0.1767
828.20 0.1766
828.30 0.1766
828.40 0.1765
828.50 0.1764
828.60 0.1763
828.70 0.1763
828.80 0.1762
828.90 0.1761
829.00 0.176
829.10 0.176
829.20 0.1759
829.30 0.1758
829.40 0.1757
829.50 0.1757
829.60 0.1756
829.70 0.1755
829.80 0.1754
829.90 0.1754
830.00 0.1753
830.10 0.1752
830.20 0.1752
830.30 0.1751
830.40 0.175
830.50 0.1749
830.60 0.1749
830.70 0.1748
830.80 0.1747
830.90 0.1746
831.00 0.1746
831.10 0.1745
831.20 0.1744
831.30 0.1743
831.40 0.1743
831.50 0.1742
831.60 0.1741
831.70 0.174
831.80 0.174
831.90 0.1739
832.00 0.1738
832.10 0.1737
832.20 0.1737
832.30 0.1736
832.40 0.1735
832.50 0.1734
832.60 0.1734
832.70 0.1733
832.80 0.1732
832.90 0.1731
833.00 0.1731
833.10 0.173
833.20 0.1729
833.30 0.1729
833.40 0.1728
833.50 0.1727
833.60 0.1726
833.70 0.1726
833.80 0.1725
833.90 0.1724
834.00 0.1723
834.10 0.1723
834.20 0.1722
834.30 0.1721
834.40 0.1721
834.50 0.172
834.60 0.1719
834.70 0.1718
834.80 0.1718
834.90 0.1717
835.00 0.1716
835.10 0.1715
835.20 0.1715
835.30 0.1714
835.40 0.1713
835.50 0.1713
835.60 0.1712
835.70 0.1711
835.80 0.171
835.90 0.171
836.00 0.1709
836.10 0.1708
836.20 0.1707
836.30 0.1707
836.40 0.1706
836.50 0.1705
836.60 0.1705
836.70 0.1704
836.80 0.1703
836.90 0.1702
837.00 0.1702
837.10 0.1701
837.20 0.17
837.30 0.17
837.40 0.1699
837.50 0.1698
837.60 0.1697
837.70 0.1697
837.80 0.1696
837.90 0.1695
838.00 0.1695
838.10 0.1694
838.20 0.1693
838.30 0.1692
838.40 0.1692
838.50 0.1691
838.60 0.169
838.70 0.169
838.80 0.1689
838.90 0.1688
839.00 0.1687
839.10 0.1687
839.20 0.1686
839.30 0.1685
839.40 0.1685
839.50 0.1684
839.60 0.1683
839.70 0.1682
839.80 0.1682
839.90 0.1681
840.00 0.168
840.10 0.168
840.20 0.1679
840.30 0.1678
840.40 0.1677
840.50 0.1677
840.60 0.1676
840.70 0.1675
840.80 0.1675
840.90 0.1674
841.00 0.1673
841.10 0.1673
841.20 0.1672
841.30 0.1671
841.40 0.167
841.50 0.167
841.60 0.1669
841.70 0.1668
841.80 0.1668
841.90 0.1667
842.00 0.1666
842.10 0.1665
842.20 0.1665
842.30 0.1664
842.40 0.1663
842.50 0.1663
842.60 0.1662
842.70 0.1661
842.80 0.1661
842.90 0.166
843.00 0.1659
843.10 0.1658
843.20 0.1658
843.30 0.1657
843.40 0.1656
843.50 0.1656
843.60 0.1655
843.70 0.1654
843.80 0.1654
843.90 0.1653
844.00 0.1652
844.10 0.1651
844.20 0.1651
844.30 0.165
844.40 0.1649
844.50 0.1649
844.60 0.1648
844.70 0.1647
844.80 0.1647
844.90 0.1646
845.00 0.1645
845.10 0.1644
845.20 0.1644
845.30 0.1643
845.40 0.1642
845.50 0.1642
845.60 0.1641
845.70 0.164
845.80 0.164
845.90 0.1639
846.00 0.1638
846.10 0.1638
846.20 0.1637
846.30 0.1636
846.40 0.1635
846.50 0.1635
846.60 0.1634
846.70 0.1633
846.80 0.1633
846.90 0.1632
847.00 0.1631
847.10 0.1631
847.20 0.163
847.30 0.163
847.40 0.1629
847.50 0.1629
847.60 0.1628
847.70 0.1628
847.80 0.1627
847.90 0.1627
848.00 0.1627
848.10 0.1626
848.20 0.1626
848.30 0.1625
848.40 0.1625
848.50 0.1624
848.60 0.1624
848.70 0.1623
848.80 0.1623
848.90 0.1622
849.00 0.1622
849.10 0.1621
849.20 0.1621
849.30 0.162
849.40 0.162
849.50 0.1619
849.60 0.1619
849.70 0.1618
849.80 0.1618
849.90 0.1618
850.00 0.1617
850.10 0.1617
850.20 0.1616
850.30 0.1616
850.40 0.1615
850.50 0.1615
850.60 0.1614
850.70 0.1614
850.80 0.1613
850.90 0.1613
851.00 0.1612
851.10 0.1612
851.20 0.1611
851.30 0.1611
851.40 0.161
851.50 0.161
851.60 0.161
851.70 0.1609
851.80 0.1609
851.90 0.1608
852.00 0.1608
852.10 0.1607
852.20 0.1607
852.30 0.1606
852.40 0.1606
852.50 0.1605
852.60 0.1605
852.70 0.1604
852.80 0.1604
852.90 0.1603
853.00 0.1603
853.10 0.1602
853.20 0.1602
853.30 0.1601
853.40 0.1601
853.50 0.16
853.60 0.16
853.70 0.1599
853.80 0.1599
853.90 0.1598
854.00 0.1598
854.10 0.1597
854.20 0.1597
854.30 0.1596
854.40 0.1596
854.50 0.1595
854.60 0.1595
854.70 0.1594
854.80 0.1594
854.90 0.1593
855.00 0.1593
855.10 0.1592
855.20 0.1592
855.30 0.1591
855.40 0.1591
855.50 0.159
855.60 0.159
855.70 0.1589
855.80 0.1589
855.90 0.1588
856.00 0.1588
856.10 0.1587
856.20 0.1587
856.30 0.1586
856.40 0.1586
856.50 0.1585
856.60 0.1585
856.70 0.1584
856.80 0.1584
856.90 0.1583
857.00 0.1583
857.10 0.1582
857.20 0.1582
857.30 0.1581
857.40 0.1581
857.50 0.1581
857.60 0.158
857.70 0.158
857.80 0.1579
857.90 0.1579
858.00 0.1578
858.10 0.1578
858.20 0.1577
858.30 0.1577
858.40 0.1576
858.50 0.1576
858.60 0.1576
858.70 0.1575
858.80 0.1575
858.90 0.1574
859.00 0.1574
859.10 0.1573
859.20 0.1573
859.30 0.1572
859.40 0.1572
859.50 0.1571
859.60 0.1571
859.70 0.1571
859.80 0.157
859.90 0.157
860.00 0.1569
860.10 0.1569
860.20 0.1568
860.30 0.1568
860.40 0.1567
860.50 0.1567
860.60 0.1567
860.70 0.1566
860.80 0.1566
860.90 0.1565
861.00 0.1565
861.10 0.1564
861.20 0.1564
861.30 0.1563
861.40 0.1563
861.50 0.1563
861.60 0.1562
861.70 0.1562
861.80 0.1561
861.90 0.1561
862.00 0.156
862.10 0.156
862.20 0.1559
862.30 0.1558
862.40 0.1558
862.50 0.1557
862.60 0.1556
862.70 0.1556
862.80 0.1555
862.90 0.1555
863.00 0.1554
863.10 0.1553
863.20 0.1553
863.30 0.1552
863.40 0.1551
863.50 0.1551
863.60 0.155
863.70 0.1549
863.80 0.1549
863.90 0.1548
864.00 0.1547
864.10 0.1547
864.20 0.1546
864.30 0.1546
864.40 0.1545
864.50 0.1544
864.60 0.1544
864.70 0.1543
864.80 0.1542
864.90 0.1542
865.00 0.1541
865.10 0.154
865.20 0.154
865.30 0.1539
865.40 0.1539
865.50 0.1538
865.60 0.1537
865.70 0.1537
865.80 0.1536
865.90 0.1535
866.00 0.1535
866.10 0.1534
866.20 0.1533
866.30 0.1533
866.40 0.1532
866.50 0.1532
866.60 0.1531
866.70 0.153
866.80 0.153
866.90 0.1529
867.00 0.1528
867.10 0.1528
867.20 0.1528
867.30 0.1528
867.40 0.1528
867.50 0.1528
867.60 0.1528
867.70 0.1527
867.80 0.1527
867.90 0.1527
868.00 0.1527
868.10 0.1527
868.20 0.1527
868.30 0.1527
868.40 0.1527
868.50 0.1526
868.60 0.1526
868.70 0.1526
868.80 0.1526
868.90 0.1526
869.00 0.1526
869.10 0.1526
869.20 0.1525
869.30 0.1525
869.40 0.1525
869.50 0.1525
869.60 0.1525
869.70 0.1525
869.80 0.1525
869.90 0.1525
870.00 0.1524
870.10 0.1524
870.20 0.1524
870.30 0.1524
870.40 0.1524
870.50 0.1524
870.60 0.1524
870.70 0.1524
870.80 0.1523
870.90 0.1523
871.00 0.1523
871.10 0.1523
871.20 0.1523
871.30 0.1523
871.40 0.1523
871.50 0.1522
871.60 0.1522
871.70 0.1522
871.80 0.1522
871.90 0.1522
872.00 0.1522
872.10 0.1521
872.20 0.152
872.30 0.1519
872.40 0.1518
872.50 0.1518
872.60 0.1517
872.70 0.1516
872.80 0.1515
872.90 0.1514
873.00 0.1513
873.10 0.1512
873.20 0.1512
873.30 0.1511
873.40 0.151
873.50 0.1509
873.60 0.1508
873.70 0.1507
873.80 0.1506
873.90 0.1506
874.00 0.1505
874.10 0.1504
874.20 0.1503
874.30 0.1502
874.40 0.1501
874.50 0.1501
874.60 0.15
874.70 0.1499
874.80 0.1498
874.90 0.1497
875.00 0.1496
875.10 0.1496
875.20 0.1495
875.30 0.1494
875.40 0.1493
875.50 0.1492
875.60 0.1491
875.70 0.149
875.80 0.149
875.90 0.1489
876.00 0.1488
876.10 0.1487
876.20 0.1486
876.30 0.1485
876.40 0.1485
876.50 0.1484
876.60 0.1483
876.70 0.1482
876.80 0.1481
876.90 0.148
877.00 0.148
877.10 0.1479
877.20 0.1479
877.30 0.1479
877.40 0.1479
877.50 0.1479
877.60 0.1479
877.70 0.1479
877.80 0.1479
877.90 0.1479
878.00 0.1479
878.10 0.1479
878.20 0.1479
878.30 0.1479
878.40 0.1478
878.50 0.1478
878.60 0.1478
878.70 0.1478
878.80 0.1478
878.90 0.1478
879.00 0.1478
879.10 0.1478
879.20 0.1478
879.30 0.1478
879.40 0.1478
879.50 0.1478
879.60 0.1477
879.70 0.1477
879.80 0.1477
879.90 0.1477
880.00 0.1477
880.10 0.1477
880.20 0.1477
880.30 0.1477
880.40 0.1477
880.50 0.1477
880.60 0.1477
880.70 0.1477
880.80 0.1477
880.90 0.1476
881.00 0.1476
881.10 0.1476
881.20 0.1476
881.30 0.1476
881.40 0.1476
881.50 0.1476
881.60 0.1476
881.70 0.1476
881.80 0.1476
881.90 0.1476
882.00 0.1476
882.10 0.1473
882.20 0.147
882.30 0.1468
882.40 0.1465
882.50 0.1463
882.60 0.146
882.70 0.1458
882.80 0.1455
882.90 0.1453
883.00 0.145
883.10 0.1448
883.20 0.1445
883.30 0.1443
883.40 0.144
883.50 0.1437
883.60 0.1435
883.70 0.1432
883.80 0.143
883.90 0.1427
884.00 0.1425
884.10 0.1422
884.20 0.142
884.30 0.1417
884.40 0.1415
884.50 0.1412
884.60 0.141
884.70 0.1407
884.80 0.1405
884.90 0.1402
885.00 0.14
885.10 0.1397
885.20 0.1395
885.30 0.1392
885.40 0.139
885.50 0.1387
885.60 0.1385
885.70 0.1382
885.80 0.138
885.90 0.1377
886.00 0.1375
886.10 0.1372
886.20 0.137
886.30 0.1367
886.40 0.1365
886.50 0.1362
886.60 0.136
886.70 0.1357
886.80 0.1355
886.90 0.1352
887.00 0.135
887.10 0.1351
887.20 0.1353
887.30 0.1354
887.40 0.1356
887.50 0.1357
887.60 0.1359
887.70 0.136
887.80 0.1362
887.90 0.1363
888.00 0.1365
888.10 0.1366
888.20 0.1368
888.30 0.1369
888.40 0.1371
888.50 0.1372
888.60 0.1374
888.70 0.1375
888.80 0.1377
888.90 0.1378
889.00 0.138
889.10 0.1381
889.20 0.1383
889.30 0.1384
889.40 0.1386
889.50 0.1387
889.60 0.1388
889.70 0.139
889.80 0.1391
889.90 0.1393
890.00 0.1394
890.10 0.1396
890.20 0.1397
890.30 0.1399
890.40 0.14
890.50 0.1402
890.60 0.1403
890.70 0.1405
890.80 0.1406
890.90 0.1408
891.00 0.1409
891.10 0.1411
891.20 0.1412
891.30 0.1414
891.40 0.1415
891.50 0.1417
891.60 0.1418
891.70 0.142
891.80 0.1421
891.90 0.1423
892.00 0.1424
892.10 0.1423
892.20 0.1422
892.30 0.1421
892.40 0.142
892.50 0.1419
892.60 0.1418
892.70 0.1417
892.80 0.1416
892.90 0.1415
893.00 0.1414
893.10 0.1413
893.20 0.1412
893.30 0.1411
893.40 0.141
893.50 0.1409
893.60 0.1408
893.70 0.1407
893.80 0.1406
893.90 0.1405
894.00 0.1404
894.10 0.1403
894.20 0.1402
894.30 0.1401
894.40 0.14
894.50 0.1399
894.60 0.1398
894.70 0.1397
894.80 0.1396
894.90 0.1395
895.00 0.1394
895.10 0.1393
895.20 0.1393
895.30 0.1392
895.40 0.1391
895.50 0.139
895.60 0.1389
895.70 0.1388
895.80 0.1387
895.90 0.1386
896.00 0.1385
896.10 0.1384
896.20 0.1383
896.30 0.1382
896.40 0.1381
896.50 0.138
896.60 0.1379
896.70 0.1378
896.80 0.1377
896.90 0.1376
897.00 0.1375
897.10 0.1371
897.20 0.1367
897.30 0.1364
897.40 0.136
897.50 0.1356
897.60 0.1352
897.70 0.1348
897.80 0.1345
897.90 0.1341
898.00 0.1337
898.10 0.1333
898.20 0.1329
898.30 0.1326
898.40 0.1322
898.50 0.1318
898.60 0.1314
898.70 0.1311
898.80 0.1307
898.90 0.1303
899.00 0.1299
899.10 0.1295
899.20 0.1292
899.30 0.1288
899.40 0.1284
899.50 0.128
899.60 0.1277
899.70 0.1273
899.80 0.1269
899.90 0.1265
900.00 0.1262
900.10 0.1258
900.20 0.1254
900.30 0.125
900.40 0.1247
900.50 0.1243
900.60 0.1239
900.70 0.1235
900.80 0.1232
900.90 0.1228
901.00 0.1224
901.10 0.122
901.20 0.1217
901.30 0.1213
901.40 0.1209
901.50 0.1205
901.60 0.1202
901.70 0.1198
901.80 0.1194
901.90 0.1191
902.00 0.1187
902.10 0.1189
902.20 0.1192
902.30 0.1194
902.40 0.1196
902.50 0.1199
902.60 0.1201
902.70 0.1203
902.80 0.1206
902.90 0.1208
903.00 0.1211
903.10 0.1213
903.20 0.1215
903.30 0.1218
903.40 0.122
903.50 0.1222
903.60 0.1225
903.70 0.1227
903.80 0.1229
903.90 0.1232
904.00 0.1234
904.10 0.1237
904.20 0.1239
904.30 0.1241
904.40 0.1244
904.50 0.1246
904.60 0.1248
904.70 0.1251
904.80 0.1253
904.90 0.1255
905.00 0.1258
905.10 0.126
905.20 0.1262
905.30 0.1265
905.40 0.1267
905.50 0.1269
905.60 0.1272
905.70 0.1274
905.80 0.1276
905.90 0.1279
906.00 0.1281
906.10 0.1283
906.20 0.1286
906.30 0.1288
906.40 0.129
906.50 0.1293
906.60 0.1295
906.70 0.1297
906.80 0.13
906.90 0.1302
907.00 0.1304
907.10 0.1305
907.20 0.1305
907.30 0.1305
907.40 0.1306
907.50 0.1306
907.60 0.1306
907.70 0.1307
907.80 0.1307
907.90 0.1307
908.00 0.1308
908.10 0.1308
908.20 0.1308
908.30 0.1309
908.40 0.1309
908.50 0.1309
908.60 0.131
908.70 0.131
908.80 0.1311
908.90 0.1311
909.00 0.1311
909.10 0.1312
909.20 0.1312
909.30 0.1312
909.40 0.1313
909.50 0.1313
909.60 0.1313
909.70 0.1314
909.80 0.1314
909.90 0.1314
910.00 0.1315
910.10 0.1315
910.20 0.1315
910.30 0.1316
910.40 0.1316
910.50 0.1316
910.60 0.1317
910.70 0.1317
910.80 0.1317
910.90 0.1318
911.00 0.1318
911.10 0.1318
911.20 0.1319
911.30 0.1319
911.40 0.1319
911.50 0.132
911.60 0.132
911.70 0.132
911.80 0.1321
911.90 0.1321
912.00 0.1321
912.10 0.132
912.20 0.1318
912.30 0.1316
912.40 0.1314
912.50 0.1313
912.60 0.1311
912.70 0.1309
912.80 0.1308
912.90 0.1306
913.00 0.1304
913.10 0.1302
913.20 0.1301
913.30 0.1299
913.40 0.1297
913.50 0.1295
913.60 0.1294
913.70 0.1292
913.80 0.129
913.90 0.1288
914.00 0.1287
914.10 0.1285
914.20 0.1283
914.30 0.1282
914.40 0.128
914.50 0.1278
914.60 0.1276
914.70 0.1275
914.80 0.1273
914.90 0.1271
915.00 0.1269
915.10 0.1268
915.20 0.1266
915.30 0.1264
915.40 0.1263
915.50 0.1261
915.60 0.1259
915.70 0.1257
915.80 0.1256
915.90 0.1254
916.00 0.1252
916.10 0.1251
916.20 0.1249
916.30 0.1247
916.40 0.1245
916.50 0.1244
916.60 0.1242
916.70 0.124
916.80 0.1239
916.90 0.1237
917.00 0.1235
917.10 0.1231
917.20 0.1227
917.30 0.1223
917.40 0.1219
917.50 0.1215
917.60 0.1211
917.70 0.1207
917.80 0.1203
917.90 0.1199
918.00 0.1195
918.10 0.1191
918.20 0.1187
918.30 0.1183
918.40 0.1178
918.50 0.1174
918.60 0.117
918.70 0.1166
918.80 0.1162
918.90 0.1158
919.00 0.1154
919.10 0.115
919.20 0.1146
919.30 0.1142
919.40 0.1138
919.50 0.1134
919.60 0.113
919.70 0.1126
919.80 0.1122
919.90 0.1118
920.00 0.1114
920.10 0.111
920.20 0.1106
920.30 0.1102
920.40 0.1098
920.50 0.1094
920.60 0.109
920.70 0.1086
920.80 0.1082
920.90 0.1078
921.00 0.1074
921.10 0.107
921.20 0.1066
921.30 0.1062
921.40 0.1058
921.50 0.1054
921.60 0.105
921.70 0.1046
921.80 0.1042
921.90 0.1038
922.00 0.1034
922.10 0.1036
922.20 0.1038
922.30 0.104
922.40 0.1042
922.50 0.1044
922.60 0.1047
922.70 0.1049
922.80 0.1051
922.90 0.1053
923.00 0.1055
923.10 0.1057
923.20 0.1059
923.30 0.1061
923.40 0.1063
923.50 0.1065
923.60 0.1067
923.70 0.1069
923.80 0.1071
923.90 0.1073
924.00 0.1075
924.10 0.1077
924.20 0.1079
924.30 0.1081
924.40 0.1083
924.50 0.1085
924.60 0.1087
924.70 0.1089
924.80 0.1092
924.90 0.1094
925.00 0.1096
925.10 0.1098
925.20 0.11
925.30 0.1102
925.40 0.1104
925.50 0.1106
925.60 0.1108
925.70 0.111
925.80 0.1112
925.90 0.1114
926.00 0.1116
926.10 0.1118
926.20 0.112
926.30 0.1122
926.40 0.1124
926.50 0.1126
926.60 0.1128
926.70 0.113
926.80 0.1132
926.90 0.1134
927.00 0.1136
927.10 0.1138
927.20 0.1139
927.30 0.1141
927.40 0.1142
927.50 0.1144
927.60 0.1145
927.70 0.1147
927.80 0.1148
927.90 0.115
928.00 0.1151
928.10 0.1153
928.20 0.1154
928.30 0.1156
928.40 0.1157
928.50 0.1159
928.60 0.116
928.70 0.1162
928.80 0.1163
928.90 0.1165
929.00 0.1166
929.10 0.1167
929.20 0.1169
929.30 0.117
929.40 0.1172
929.50 0.1173
929.60 0.1175
929.70 0.1176
929.80 0.1178
929.90 0.1179
930.00 0.1181
930.10 0.1182
930.20 0.1184
930.30 0.1185
930.40 0.1187
930.50 0.1188
930.60 0.119
930.70 0.1191
930.80 0.1193
930.90 0.1194
931.00 0.1196
931.10 0.1197
931.20 0.1199
931.30 0.12
931.40 0.1201
931.50 0.1203
931.60 0.1204
931.70 0.1206
931.80 0.1207
931.90 0.1209
932.00 0.121
932.10 0.1211
932.20 0.1211
932.30 0.1211
932.40 0.1212
932.50 0.1212
932.60 0.1212
932.70 0.1213
932.80 0.1213
932.90 0.1213
933.00 0.1214
933.10 0.1214
933.20 0.1214
933.30 0.1215
933.40 0.1215
933.50 0.1216
933.60 0.1216
933.70 0.1216
933.80 0.1217
933.90 0.1217
934.00 0.1217
934.10 0.1218
934.20 0.1218
934.30 0.1218
934.40 0.1218
934.50 0.1218
934.60 0.1218
934.70 0.1218
934.80 0.1218
934.90 0.1218
935.00 0.1218
935.10 0.1217
935.20 0.1217
935.30 0.1217
935.40 0.1217
935.50 0.1217
935.60 0.1217
935.70 0.1217
935.80 0.1217
935.90 0.1217
936.00 0.1217
936.10 0.1217
936.20 0.1216
936.30 0.1216
936.40 0.1216
936.50 0.1216
936.60 0.1216
936.70 0.1216
936.80 0.1216
936.90 0.1216
937.00 0.1216
937.10 0.1215
937.20 0.1215
937.30 0.1215
937.40 0.1214
937.50 0.1214
937.60 0.1214
937.70 0.1213
937.80 0.1213
937.90 0.1212
938.00 0.1212
938.10 0.1212
938.20 0.1211
938.30 0.1211
938.40 0.121
938.50 0.121
938.60 0.1209
938.70 0.1209
938.80 0.1208
938.90 0.1208
939.00 0.1207
939.10 0.1207
939.20 0.1206
939.30 0.1205
939.40 0.1205
939.50 0.1204
939.60 0.1204
939.70 0.1203
939.80 0.1203
939.90 0.1202
940.00 0.1201
940.10 0.1201
940.20 0.12
940.30 0.12
940.40 0.1199
940.50 0.1198
940.60 0.1197
940.70 0.1197
940.80 0.1196
940.90 0.1195
941.00 0.1194
941.10 0.1193
941.20 0.1193
941.30 0.1192
941.40 0.1191
941.50 0.119
941.60 0.1189
941.70 0.1189
941.80 0.1188
941.90 0.1187
942.00 0.1186
942.10 0.1185
942.20 0.1184
942.30 0.1183
942.40 0.1182
942.50 0.1181
942.60 0.118
942.70 0.1179
942.80 0.1178
942.90 0.1176
943.00 0.1175
943.10 0.1174
943.20 0.1173
943.30 0.1172
943.40 0.1171
943.50 0.117
943.60 0.1168
943.70 0.1167
943.80 0.1166
943.90 0.1165
944.00 0.1164
944.10 0.1163
944.20 0.1161
944.30 0.116
944.40 0.1159
944.50 0.1157
944.60 0.1156
944.70 0.1154
944.80 0.1153
944.90 0.1151
945.00 0.115
945.10 0.1148
945.20 0.1147
945.30 0.1145
945.40 0.1144
945.50 0.1142
945.60 0.114
945.70 0.1138
945.80 0.1136
945.90 0.1134
946.00 0.1132
946.10 0.113
946.20 0.1129
946.30 0.1127
946.40 0.1125
946.50 0.1123
946.60 0.1121
946.70 0.1119
946.80 0.1117
946.90 0.1115
947.00 0.1114
947.10 0.1111
947.20 0.1109
947.30 0.1107
947.40 0.1104
947.50 0.1102
947.60 0.1099
947.70 0.1096
947.80 0.1094
947.90 0.1091
948.00 0.1088
948.10 0.1086
948.20 0.1083
948.30 0.108
948.40 0.1078
948.50 0.1075
948.60 0.1072
948.70 0.107
948.80 0.1067
948.90 0.1064
949.00 0.1062
949.10 0.1059
949.20 0.1056
949.30 0.1054
949.40 0.105
949.50 0.1047
949.60 0.1043
949.70 0.104
949.80 0.1036
949.90 0.1032
950.00 0.1029
950.10 0.1025
950.20 0.1022
950.30 0.1018
950.40 0.1015
950.50 0.1011
950.60 0.1008
950.70 0.1004
950.80 0.1001
950.90 0.09972
951.00 0.09937
951.10 0.09902
951.20 0.09867
951.30 0.09832
951.40 0.09791
951.50 0.0975
951.60 0.09709
951.70 0.09668
951.80 0.09628
951.90 0.09587
952.00 0.09546
952.10 0.09504
952.20 0.09461
952.30 0.09418
952.40 0.09375
952.50 0.09333
952.60 0.0929
952.70 0.09247
952.80 0.09205
952.90 0.09162
953.00 0.0912
953.10 0.09078
953.20 0.09036
953.30 0.08994
953.40 0.08952
953.50 0.0891
953.60 0.08876
953.70 0.08841
953.80 0.08806
953.90 0.08772
954.00 0.08762
954.10 0.08753
954.20 0.08805
954.30 0.08938
954.40 0.08798
954.50 0.08742
954.60 0.08745
954.70 0.08748
954.80 0.08777
954.90 0.08806
955.00 0.08834
955.10 0.08863
955.20 0.08899
955.30 0.08934
955.40 0.08969
955.50 0.09005
955.60 0.0904
955.70 0.09076
955.80 0.09111
955.90 0.09146
956.00 0.09181
956.10 0.09216
956.20 0.09251
956.30 0.09286
956.40 0.09321
956.50 0.09356
956.60 0.09391
956.70 0.09426
956.80 0.09461
956.90 0.09496
957.00 0.09531
957.10 0.09563
957.20 0.09595
957.30 0.09627
957.40 0.09655
957.50 0.09682
957.60 0.09709
957.70 0.09736
957.80 0.09763
957.90 0.0979
958.00 0.09817
958.10 0.09844
958.20 0.09871
958.30 0.09898
958.40 0.09925
958.50 0.09952
958.60 0.09979
958.70 0.1001
958.80 0.1003
958.90 0.1006
959.00 0.1009
959.10 0.1011
959.20 0.1014
959.30 0.1017
959.40 0.1019
959.50 0.102
959.60 0.1022
959.70 0.1024
959.80 0.1026
959.90 0.1028
960.00 0.1029
960.10 0.1031
960.20 0.1033
960.30 0.1035
960.40 0.1036
960.50 0.1038
960.60 0.104
960.70 0.1042
960.80 0.1044
960.90 0.1045
961.00 0.1047
961.10 0.1049
961.20 0.1051
961.30 0.1053
961.40 0.1054
961.50 0.1055
961.60 0.1056
961.70 0.1058
961.80 0.1059
961.90 0.106
962.00 0.1061
962.10 0.1062
962.20 0.1063
962.30 0.1064
962.40 0.1065
962.50 0.1066
962.60 0.1067
962.70 0.1068
962.80 0.1069
962.90 0.107
963.00 0.1071
963.10 0.1072
963.20 0.1073
963.30 0.1074
963.40 0.1075
963.50 0.1075
963.60 0.1076
963.70 0.1076
963.80 0.1077
963.90 0.1078
964.00 0.1078
964.10 0.1079
964.20 0.108
964.30 0.108
964.40 0.1081
964.50 0.1081
964.60 0.1081
964.70 0.1082
964.80 0.1082
964.90 0.1083
965.00 0.1083
965.10 0.1083
965.20 0.1084
965.30 0.1084
965.40 0.1084
965.50 0.1085
965.60 0.1085
965.70 0.1085
965.80 0.1086
965.90 0.1086
966.00 0.1087
966.10 0.1087
966.20 0.1087
966.30 0.1088
966.40 0.1088
966.50 0.1088
966.60 0.1088
966.70 0.1088
966.80 0.1088
966.90 0.1089
967.00 0.1089
967.10 0.1089
967.20 0.1089
967.30 0.1089
967.40 0.1089
967.50 0.1089
967.60 0.1089
967.70 0.1089
967.80 0.1089
967.90 0.1089
968.00 0.1089
968.10 0.1089
968.20 0.1089
968.30 0.1089
968.40 0.1089
968.50 0.1089
968.60 0.1089
968.70 0.1089
968.80 0.1089
968.90 0.1089
969.00 0.1089
969.10 0.1089
969.20 0.1088
969.30 0.1088
969.40 0.1088
969.50 0.1088
969.60 0.1088
969.70 0.1088
969.80 0.1088
969.90 0.1088
970.00 0.1088
970.10 0.1088
970.20 0.1088
970.30 0.1087
970.40 0.1087
970.50 0.1087
970.60 0.1087
970.70 0.1087
970.80 0.1086
970.90 0.1086
971.00 0.1086
971.10 0.1086
971.20 0.1086
971.30 0.1086
971.40 0.1085
971.50 0.1085
971.60 0.1085
971.70 0.1085
971.80 0.1085
971.90 0.1084
972.00 0.1084
972.10 0.1084
972.20 0.1084
972.30 0.1083
972.40 0.1083
972.50 0.1083
972.60 0.1083
972.70 0.1082
972.80 0.1082
972.90 0.1082
973.00 0.1081
973.10 0.1081
973.20 0.1081
973.30 0.1081
973.40 0.108
973.50 0.108
973.60 0.108
973.70 0.108
973.80 0.1079
973.90 0.1079
974.00 0.1079
974.10 0.1078
974.20 0.1078
974.30 0.1078
974.40 0.1078
974.50 0.1077
974.60 0.1077
974.70 0.1077
974.80 0.1076
974.90 0.1076
975.00 0.1076
975.10 0.1075
975.20 0.1075
975.30 0.1075
975.40 0.1074
975.50 0.1074
975.60 0.1074
975.70 0.1073
975.80 0.1073
975.90 0.1073
976.00 0.1072
976.10 0.1072
976.20 0.1072
976.30 0.1071
976.40 0.1071
976.50 0.1071
976.60 0.107
976.70 0.107
976.80 0.107
976.90 0.1069
977.00 0.1069
977.10 0.1069
977.20 0.1068
977.30 0.1068
977.40 0.1067
977.50 0.1067
977.60 0.1067
977.70 0.1066
977.80 0.1066
977.90 0.1065
978.00 0.1065
978.10 0.1065
978.20 0.1064
978.30 0.1064
978.40 0.1063
978.50 0.1063
978.60 0.1063
978.70 0.1062
978.80 0.1062
978.90 0.1061
979.00 0.1061
979.10 0.1061
979.20 0.106
979.30 0.106
979.40 0.1059
979.50 0.1059
979.60 0.1059
979.70 0.1058
979.80 0.1058
979.90 0.1057
980.00 0.1057
980.10 0.1057
980.20 0.1056
980.30 0.1056
980.40 0.1055
980.50 0.1055
980.60 0.1055
980.70 0.1054
980.80 0.1054
980.90 0.1053
981.00 0.1053
981.10 0.1053
981.20 0.1052
981.30 0.1052
981.40 0.1051
981.50 0.1051
981.60 0.1051
981.70 0.105
981.80 0.105
981.90 0.105
982.00 0.1049
982.10 0.1049
982.20 0.1048
982.30 0.1048
982.40 0.1047
982.50 0.1047
982.60 0.1046
982.70 0.1046
982.80 0.1045
982.90 0.1045
983.00 0.1044
983.10 0.1044
983.20 0.1044
983.30 0.1043
983.40 0.1043
983.50 0.1042
983.60 0.1042
983.70 0.1041
983.80 0.1041
983.90 0.104
984.00 0.104
984.10 0.1039
984.20 0.1039
984.30 0.1038
984.40 0.1038
984.50 0.1038
984.60 0.1037
984.70 0.1037
984.80 0.1036
984.90 0.1035
985.00 0.1035
985.10 0.1034
985.20 0.1034
985.30 0.1033
985.40 0.1033
985.50 0.1032
985.60 0.1032
985.70 0.1031
985.80 0.1031
985.90 0.103
986.00 0.103
986.10 0.1029
986.20 0.1029
986.30 0.1028
986.40 0.1028
986.50 0.1027
986.60 0.1027
986.70 0.1026
986.80 0.1026
986.90 0.1025
987.00 0.1024
987.10 0.1024
987.20 0.1023
987.30 0.1023
987.40 0.1022
987.50 0.1021
987.60 0.1021
987.70 0.102
987.80 0.102
987.90 0.1019
988.00 0.1018
988.10 0.1018
988.20 0.1017
988.30 0.1017
988.40 0.1016
988.50 0.1015
988.60 0.1015
988.70 0.1014
988.80 0.1013
988.90 0.1013
989.00 0.1012
989.10 0.1011
989.20 0.1011
989.30 0.101
989.40 0.1009
989.50 0.1009
989.60 0.1008
989.70 0.1007
989.80 0.1007
989.90 0.1006
990.00 0.1005
990.10 0.1004
990.20 0.1004
990.30 0.1003
990.40 0.1002
990.50 0.1002
990.60 0.1001
990.70 0.1
990.80 0.09993
990.90 0.09985
991.00 0.09977
991.10 0.09968
991.20 0.0996
991.30 0.09952
991.40 0.09944
991.50 0.09935
991.60 0.09927
991.70 0.09919
991.80 0.09911
991.90 0.09902
992.00 0.09894
992.10 0.09885
992.20 0.09876
992.30 0.09867
992.40 0.09857
992.50 0.09848
992.60 0.09839
992.70 0.09829
992.80 0.09818
992.90 0.09807
993.00 0.09795
993.10 0.09784
993.20 0.09773
993.30 0.09762
993.40 0.09751
993.50 0.0974
993.60 0.09729
993.70 0.09718
993.80 0.09707
993.90 0.09696
994.00 0.09685
994.10 0.09674
994.20 0.09663
994.30 0.09652
994.40 0.09641
994.50 0.0963
994.60 0.09619
994.70 0.09606
994.80 0.09593
994.90 0.09579
995.00 0.09566
995.10 0.09552
995.20 0.09539
995.30 0.09525
995.40 0.09512
995.50 0.09498
995.60 0.09485
995.70 0.0947
995.80 0.09454
995.90 0.09438
996.00 0.09422
996.10 0.09406
996.20 0.0939
996.30 0.09374
996.40 0.09358
996.50 0.09342
996.60 0.09326
996.70 0.0931
996.80 0.09294
996.90 0.09278
997.00 0.09262
997.10 0.09243
997.20 0.09225
997.30 0.09206
997.40 0.09188
997.50 0.09169
997.60 0.09151
997.70 0.09129
997.80 0.09107
997.90 0.09084
998.00 0.09062
998.10 0.09039
998.20 0.09017
998.30 0.08994
998.40 0.08972
998.50 0.0895
998.60 0.08927
998.70 0.08905
998.80 0.08882
998.90 0.0886
999.00 0.08838
999.10 0.08815
999.20 0.08793
999.30 0.0877
999.40 0.08748
999.50 0.08726
999.60 0.08703
999.70 0.08676
999.80 0.08647
999.90 0.08617
1000.00 0.08588
1000.10 0.08559
1000.20 0.0853
1000.30 0.08501
1000.40 0.08471
1000.50 0.08442
1000.60 0.08413
1000.70 0.08384
1000.80 0.08355
1000.90 0.08326
1001.00 0.08297
1001.10 0.08267
1001.20 0.08238
1001.30 0.08209
1001.40 0.0818
1001.50 0.08151
1001.60 0.08122
1001.70 0.0809
1001.80 0.08056
1001.90 0.08023
1002.00 0.0799
1002.10 0.07953
1002.20 0.07917
1002.30 0.07881
1002.40 0.07844
1002.50 0.07808
1002.60 0.07772
1002.70 0.07736
1002.80 0.07699
1002.90 0.07663
1003.00 0.07627
1003.10 0.07591
1003.20 0.07551
1003.30 0.0751
1003.40 0.07469
1003.50 0.07428
1003.60 0.07387
1003.70 0.07346
1003.80 0.07305
1003.90 0.07259
1004.00 0.07212
1004.10 0.07164
1004.20 0.07117
1004.30 0.07069
1004.40 0.0702
1004.50 0.06985
1004.60 0.07036
1004.70 0.06985
1004.80 0.0699
1004.90 0.07033
1005.00 0.07077
1005.10 0.0712
1005.20 0.07162
1005.30 0.07205
1005.40 0.07247
1005.50 0.07285
1005.60 0.0732
1005.70 0.07356
1005.80 0.07392
1005.90 0.07428
1006.00 0.07464
1006.10 0.07499
1006.20 0.07532
1006.30 0.07563
1006.40 0.07594
1006.50 0.07625
1006.60 0.07656
1006.70 0.07687
1006.80 0.07718
1006.90 0.07749
1007.00 0.0778
1007.10 0.07808
1007.20 0.07836
1007.30 0.07863
1007.40 0.07891
1007.50 0.07919
1007.60 0.07947
1007.70 0.0797
1007.80 0.07993
1007.90 0.08016
1008.00 0.08038
1008.10 0.08061
1008.20 0.08084
1008.30 0.08106
1008.40 0.08129
1008.50 0.08151
1008.60 0.08174
1008.70 0.08196
1008.80 0.08219
1008.90 0.08242
1009.00 0.08264
1009.10 0.08287
1009.20 0.08309
1009.30 0.08332
1009.40 0.08354
1009.50 0.08377
1009.60 0.08399
1009.70 0.08416
1009.80 0.08432
1009.90 0.08447
1010.00 0.08462
1010.10 0.08478
1010.20 0.08493
1010.30 0.08508
1010.40 0.08524
1010.50 0.08539
1010.60 0.08554
1010.70 0.0857
1010.80 0.08585
1010.90 0.086
1011.00 0.08615
1011.10 0.08631
1011.20 0.08646
1011.30 0.08661
1011.40 0.08677
1011.50 0.08692
1011.60 0.08707
1011.70 0.08719
1011.80 0.08731
1011.90 0.08742
1012.00 0.08754
1012.10 0.08763
1012.20 0.08772
1012.30 0.08781
1012.40 0.0879
1012.50 0.08799
1012.60 0.08808
1012.70 0.08817
1012.80 0.08826
1012.90 0.08835
1013.00 0.08844
1013.10 0.08853
1013.20 0.08862
1013.30 0.08871
1013.40 0.0888
1013.50 0.08889
1013.60 0.08898
1013.70 0.08905
1013.80 0.08911
1013.90 0.08917
1014.00 0.08923
1014.10 0.08929
1014.20 0.08936
1014.30 0.08942
1014.40 0.08948
1014.50 0.08954
1014.60 0.0896
1014.70 0.08964
1014.80 0.08968
1014.90 0.08972
1015.00 0.08975
1015.10 0.08979
1015.20 0.08983
1015.30 0.08986
1015.40 0.0899
1015.50 0.08994
1015.60 0.08997
1015.70 0.09001
1015.80 0.09005
1015.90 0.09008
1016.00 0.09012
1016.10 0.09016
1016.20 0.09019
1016.30 0.09023
1016.40 0.09027
1016.50 0.0903
1016.60 0.09034
1016.70 0.09037
1016.80 0.09039
1016.90 0.09041
1017.00 0.09042
1017.10 0.09044
1017.20 0.09045
1017.30 0.09046
1017.40 0.09047
1017.50 0.09048
1017.60 0.09049
1017.70 0.0905
1017.80 0.09051
1017.90 0.09052
1018.00 0.09053
1018.10 0.09055
1018.20 0.09056
1018.30 0.09057
1018.40 0.09058
1018.50 0.09059
1018.60 0.0906
1018.70 0.0906
1018.80 0.0906
1018.90 0.0906
1019.00 0.09059
1019.10 0.09059
1019.20 0.09059
1019.30 0.09059
1019.40 0.09058
1019.50 0.09058
1019.60 0.09058
1019.70 0.09058
1019.80 0.09057
1019.90 0.09057
1020.00 0.09057
1020.10 0.09057
1020.20 0.09056
1020.30 0.09056
1020.40 0.09056
1020.50 0.09056
1020.60 0.09056
1020.70 0.09055
1020.80 0.09054
1020.90 0.09053
1021.00 0.09051
1021.10 0.0905
1021.20 0.09049
1021.30 0.09048
1021.40 0.09047
1021.50 0.09046
1021.60 0.09045
1021.70 0.09044
1021.80 0.09043
1021.90 0.09042
1022.00 0.09041
1022.10 0.09039
1022.20 0.09037
1022.30 0.09035
1022.40 0.09034
1022.50 0.09032
1022.60 0.0903
1022.70 0.09028
1022.80 0.09027
1022.90 0.09025
1023.00 0.09023
1023.10 0.09021
1023.20 0.0902
1023.30 0.09018
1023.40 0.09016
1023.50 0.09014
1023.60 0.09012
1023.70 0.09011
1023.80 0.09009
1023.90 0.09007
1024.00 0.09005
1024.10 0.09004
1024.20 0.09002
1024.30 0.09
1024.40 0.08998
1024.50 0.08997
1024.60 0.08995
1024.70 0.08993
1024.80 0.0899
1024.90 0.08988
1025.00 0.08986
1025.10 0.08984
1025.20 0.08981
1025.30 0.08979
1025.40 0.08977
1025.50 0.08974
1025.60 0.08972
1025.70 0.0897
1025.80 0.08968
1025.90 0.08965
1026.00 0.08963
1026.10 0.08961
1026.20 0.08959
1026.30 0.08956
1026.40 0.08954
1026.50 0.08952
1026.60 0.08949
1026.70 0.08947
1026.80 0.08945
1026.90 0.08943
1027.00 0.0894
1027.10 0.08938
1027.20 0.08935
1027.30 0.08932
1027.40 0.0893
1027.50 0.08927
1027.60 0.08924
1027.70 0.08922
1027.80 0.08919
1027.90 0.08916
1028.00 0.08914
1028.10 0.08911
1028.20 0.08908
1028.30 0.08906
1028.40 0.08903
1028.50 0.089
1028.60 0.08898
1028.70 0.08895
1028.80 0.08892
1028.90 0.0889
1029.00 0.08887
1029.10 0.08884
1029.20 0.08882
1029.30 0.08879
1029.40 0.08876
1029.50 0.08874
1029.60 0.08871
1029.70 0.08868
1029.80 0.08866
1029.90 0.08863
1030.00 0.0886
1030.10 0.08858
1030.20 0.08855
1030.30 0.08852
1030.40 0.0885
1030.50 0.08847
1030.60 0.08844
1030.70 0.08842
1030.80 0.08839
1030.90 0.08836
1031.00 0.08834
1031.10 0.08831
1031.20 0.08828
1031.30 0.08826
1031.40 0.08823
1031.50 0.08821
1031.60 0.08818
1031.70 0.08815
1031.80 0.08813
1031.90 0.0881
1032.00 0.08807
1032.10 0.08804
1032.20 0.08802
1032.30 0.08799
1032.40 0.08796
1032.50 0.08793
1032.60 0.0879
1032.70 0.08787
1032.80 0.08784
1032.90 0.08781
1033.00 0.08778
1033.10 0.08776
1033.20 0.08773
1033.30 0.0877
1033.40 0.08767
1033.50 0.08764
1033.60 0.08761
1033.70 0.08758
1033.80 0.08755
1033.90 0.08753
1034.00 0.0875
1034.10 0.08747
1034.20 0.08744
1034.30 0.08741
1034.40 0.08738
1034.50 0.08735
1034.60 0.08733
1034.70 0.0873
1034.80 0.08727
1034.90 0.08724
1035.00 0.08721
1035.10 0.08718
1035.20 0.08715
1035.30 0.08713
1035.40 0.0871
1035.50 0.08707
1035.60 0.08704
1035.70 0.08701
1035.80 0.08698
1035.90 0.08695
1036.00 0.08693
1036.10 0.0869
1036.20 0.08687
1036.30 0.08684
1036.40 0.08681
1036.50 0.08678
1036.60 0.08675
1036.70 0.08673
1036.80 0.0867
1036.90 0.08667
1037.00 0.08664
1037.10 0.08661
1037.20 0.08658
1037.30 0.08655
1037.40 0.08652
1037.50 0.08649
1037.60 0.08646
1037.70 0.08643
1037.80 0.0864
1037.90 0.08637
1038.00 0.08635
1038.10 0.08632
1038.20 0.08629
1038.30 0.08626
1038.40 0.08623
1038.50 0.0862
1038.60 0.08617
1038.70 0.08614
1038.80 0.08611
1038.90 0.08608
1039.00 0.08605
1039.10 0.08602
1039.20 0.08599
1039.30 0.08596
1039.40 0.08593
1039.50 0.0859
1039.60 0.08587
1039.70 0.08585
1039.80 0.08582
1039.90 0.08579
1040.00 0.08576
1040.10 0.08573
1040.20 0.0857
1040.30 0.08567
1040.40 0.08564
1040.50 0.08561
1040.60 0.08558
1040.70 0.08555
1040.80 0.08552
1040.90 0.08549
1041.00 0.08547
1041.10 0.08544
1041.20 0.08541
1041.30 0.08538
1041.40 0.08535
1041.50 0.08532
1041.60 0.08529
1041.70 0.08526
1041.80 0.08523
1041.90 0.0852
1042.00 0.08517
1042.10 0.08514
1042.20 0.08511
1042.30 0.08509
1042.40 0.08506
1042.50 0.08503
1042.60 0.085
1042.70 0.08497
1042.80 0.08494
1042.90 0.08491
1043.00 0.08488
1043.10 0.08485
1043.20 0.08482
1043.30 0.08479
1043.40 0.08476
1043.50 0.08473
1043.60 0.0847
1043.70 0.08467
1043.80 0.08464
1043.90 0.08461
1044.00 0.08458
1044.10 0.08455
1044.20 0.08453
1044.30 0.0845
1044.40 0.08447
1044.50 0.08444
1044.60 0.08441
1044.70 0.08438
1044.80 0.08435
1044.90 0.08432
1045.00 0.08429
1045.10 0.08426
1045.20 0.08423
1045.30 0.0842
1045.40 0.08417
1045.50 0.08414
1045.60 0.08411
1045.70 0.08409
1045.80 0.08406
1045.90 0.08403
1046.00 0.084
1046.10 0.08397
1046.20 0.08394
1046.30 0.08391
1046.40 0.08388
1046.50 0.08385
1046.60 0.08382
1046.70 0.08379
1046.80 0.08376
1046.90 0.08374
1047.00 0.08371
1047.10 0.08368
1047.20 0.08365
1047.30 0.08362
1047.40 0.08359
1047.50 0.08356
1047.60 0.08353
1047.70 0.0835
1047.80 0.08347
1047.90 0.08344
1048.00 0.08341
1048.10 0.08338
1048.20 0.08335
1048.30 0.08332
1048.40 0.08329
1048.50 0.08326
1048.60 0.08324
1048.70 0.08321
1048.80 0.08318
1048.90 0.08315
1049.00 0.08312
1049.10 0.08309
1049.20 0.08306
1049.30 0.08303
1049.40 0.083
1049.50 0.08297
1049.60 0.08294
1049.70 0.08291
1049.80 0.08288
1049.90 0.08285
1050.00 0.08283
1050.10 0.0828
1050.20 0.08277
1050.30 0.08274
1050.40 0.08271
1050.50 0.08268
1050.60 0.08265
1050.70 0.08262
1050.80 0.08259
1050.90 0.08256
1051.00 0.08253
1051.10 0.0825
1051.20 0.08248
1051.30 0.08245
1051.40 0.08242
1051.50 0.08239
1051.60 0.08236
1051.70 0.08233
1051.80 0.0823
1051.90 0.08227
1052.00 0.08224
1052.10 0.08221
1052.20 0.08218
1052.30 0.08216
1052.40 0.08213
1052.50 0.0821
1052.60 0.08207
1052.70 0.08204
1052.80 0.08201
1052.90 0.08198
1053.00 0.08195
1053.10 0.08192
1053.20 0.08189
1053.30 0.08186
1053.40 0.08183
1053.50 0.0818
1053.60 0.08177
1053.70 0.08174
1053.80 0.08172
1053.90 0.08169
1054.00 0.08166
1054.10 0.08163
1054.20 0.0816
1054.30 0.08157
1054.40 0.08154
1054.50 0.08151
1054.60 0.08148
1054.70 0.08145
1054.80 0.08142
1054.90 0.08139
1055.00 0.08137
1055.10 0.08134
1055.20 0.08131
1055.30 0.08128
1055.40 0.08125
1055.50 0.08122
1055.60 0.08119
1055.70 0.08116
1055.80 0.08113
1055.90 0.0811
1056.00 0.08107
1056.10 0.08105
1056.20 0.08102
1056.30 0.08099
1056.40 0.08096
1056.50 0.08093
1056.60 0.0809
1056.70 0.08087
1056.80 0.08084
1056.90 0.08081
1057.00 0.08078
1057.10 0.08076
1057.20 0.08073
1057.30 0.0807
1057.40 0.08067
1057.50 0.08064
1057.60 0.08061
1057.70 0.08058
1057.80 0.08055
1057.90 0.08052
1058.00 0.08049
1058.10 0.08046
1058.20 0.08043
1058.30 0.0804
1058.40 0.08037
1058.50 0.08034
1058.60 0.08031
1058.70 0.08028
1058.80 0.08025
1058.90 0.08023
1059.00 0.0802
1059.10 0.08017
1059.20 0.08014
1059.30 0.08011
1059.40 0.08008
1059.50 0.08005
1059.60 0.08002
1059.70 0.07999
1059.80 0.07996
1059.90 0.07993
1060.00 0.0799
1060.10 0.07987
1060.20 0.07985
1060.30 0.07982
1060.40 0.07979
1060.50 0.07976
1060.60 0.07973
1060.70 0.0797
1060.80 0.07967
1060.90 0.07964
1061.00 0.07961
1061.10 0.07958
1061.20 0.07955
1061.30 0.07952
1061.40 0.0795
1061.50 0.07947
1061.60 0.07944
1061.70 0.07941
1061.80 0.07938
1061.90 0.07935
1062.00 0.07932
1062.10 0.07929
1062.20 0.07926
1062.30 0.07923
1062.40 0.0792
1062.50 0.07917
1062.60 0.07914
1062.70 0.07911
1062.80 0.07908
1062.90 0.07905
1063.00 0.07902
1063.10 0.07899
1063.20 0.07896
1063.30 0.07893
1063.40 0.0789
1063.50 0.07887
1063.60 0.07884
1063.70 0.07881
1063.80 0.07878
1063.90 0.07875
1064.00 0.07872
1064.10 0.07869
1064.20 0.07866
1064.30 0.07863
1064.40 0.0786
1064.50 0.07857
1064.60 0.07854
1064.70 0.07851
1064.80 0.07848
1064.90 0.07845
1065.00 0.07842
1065.10 0.07839
1065.20 0.07836
1065.30 0.07833
1065.40 0.0783
1065.50 0.07827
1065.60 0.07824
1065.70 0.07821
1065.80 0.07819
1065.90 0.07816
1066.00 0.07813
1066.10 0.0781
1066.20 0.07807
1066.30 0.07804
1066.40 0.07801
1066.50 0.07798
1066.60 0.07795
1066.70 0.07792
1066.80 0.07789
1066.90 0.07786
1067.00 0.07783
1067.10 0.0778
1067.20 0.07777
1067.30 0.07773
1067.40 0.0777
1067.50 0.07767
1067.60 0.07764
1067.70 0.07761
1067.80 0.07757
1067.90 0.07754
1068.00 0.07751
1068.10 0.07748
1068.20 0.07745
1068.30 0.07742
1068.40 0.07738
1068.50 0.07735
1068.60 0.07732
1068.70 0.07729
1068.80 0.07726
1068.90 0.07722
1069.00 0.07719
1069.10 0.07716
1069.20 0.07713
1069.30 0.0771
1069.40 0.07707
1069.50 0.07703
1069.60 0.077
1069.70 0.07697
1069.80 0.07694
1069.90 0.07691
1070.00 0.07688
1070.10 0.07685
1070.20 0.07681
1070.30 0.07678
1070.40 0.07675
1070.50 0.07672
1070.60 0.07669
1070.70 0.07666
1070.80 0.07662
1070.90 0.07659
1071.00 0.07656
1071.10 0.07653
1071.20 0.0765
1071.30 0.07647
1071.40 0.07644
1071.50 0.0764
1071.60 0.07637
1071.70 0.07634
1071.80 0.07631
1071.90 0.07628
1072.00 0.07625
1072.10 0.07621
1072.20 0.07618
1072.30 0.07614
1072.40 0.07611
1072.50 0.07607
1072.60 0.07604
1072.70 0.07601
1072.80 0.07597
1072.90 0.07594
1073.00 0.0759
1073.10 0.07587
1073.20 0.07583
1073.30 0.0758
1073.40 0.07577
1073.50 0.07573
1073.60 0.07569
1073.70 0.07565
1073.80 0.07561
1073.90 0.07558
1074.00 0.07554
1074.10 0.0755
1074.20 0.07546
1074.30 0.07542
1074.40 0.07538
1074.50 0.07534
1074.60 0.07531
1074.70 0.07527
1074.80 0.07523
1074.90 0.07519
1075.00 0.07515
1075.10 0.07511
1075.20 0.07508
1075.30 0.07504
1075.40 0.075
1075.50 0.07496
1075.60 0.07492
1075.70 0.07488
1075.80 0.07484
1075.90 0.07481
1076.00 0.07477
1076.10 0.07473
1076.20 0.07469
1076.30 0.07465
1076.40 0.07462
1076.50 0.07458
1076.60 0.07454
1076.70 0.0745
1076.80 0.07446
1076.90 0.07442
1077.00 0.07439
1077.10 0.07434
1077.20 0.0743
1077.30 0.07426
1077.40 0.07422
1077.50 0.07417
1077.60 0.07412
1077.70 0.07408
1077.80 0.07403
1077.90 0.07398
1078.00 0.07393
1078.10 0.07388
1078.20 0.07384
1078.30 0.07379
1078.40 0.07374
1078.50 0.07369
1078.60 0.07365
1078.70 0.0736
1078.80 0.07355
1078.90 0.0735
1079.00 0.07346
1079.10 0.07341
1079.20 0.07336
1079.30 0.07331
1079.40 0.07327
1079.50 0.07321
1079.60 0.07316
1079.70 0.0731
1079.80 0.07304
1079.90 0.07298
1080.00 0.07292
1080.10 0.07287
1080.20 0.07281
1080.30 0.07275
1080.40 0.07269
1080.50 0.07264
1080.60 0.07258
1080.70 0.07252
1080.80 0.07246
1080.90 0.0724
1081.00 0.07235
1081.10 0.07229
1081.20 0.07223
1081.30 0.07217
1081.40 0.07212
1081.50 0.07205
1081.60 0.07198
1081.70 0.07191
1081.80 0.07184
1081.90 0.07177
1082.00 0.0717
1082.10 0.07163
1082.20 0.07155
1082.30 0.07147
1082.40 0.0714
1082.50 0.07132
1082.60 0.07124
1082.70 0.07117
1082.80 0.07109
1082.90 0.07102
1083.00 0.07094
1083.10 0.07086
1083.20 0.07079
1083.30 0.07071
1083.40 0.07063
1083.50 0.07055
1083.60 0.07046
1083.70 0.07037
1083.80 0.07028
1083.90 0.07019
1084.00 0.0701
1084.10 0.07001
1084.20 0.06992
1084.30 0.06982
1084.40 0.06973
1084.50 0.06964
1084.60 0.06952
1084.70 0.06941
1084.80 0.0693
1084.90 0.06918
1085.00 0.06907
1085.10 0.06896
1085.20 0.06884
1085.30 0.06873
1085.40 0.06862
1085.50 0.06851
1085.60 0.06839
1085.70 0.06828
1085.80 0.06817
1085.90 0.06806
1086.00 0.06794
1086.10 0.06783
1086.20 0.06772
1086.30 0.06761
1086.40 0.06749
1086.50 0.06737
1086.60 0.06724
1086.70 0.0671
1086.80 0.06696
1086.90 0.06683
1087.00 0.06669
1087.10 0.06653
1087.20 0.06637
1087.30 0.06622
1087.40 0.06606
1087.50 0.0659
1087.60 0.06575
1087.70 0.06559
1087.80 0.06543
1087.90 0.06528
1088.00 0.06512
1088.10 0.06496
1088.20 0.06481
1088.30 0.06465
1088.40 0.06449
1088.50 0.06432
1088.60 0.06412
1088.70 0.06392
1088.80 0.06372
1088.90 0.06352
1089.00 0.06333
1089.10 0.06313
1089.20 0.06293
1089.30 0.06273
1089.40 0.06253
1089.50 0.06233
1089.60 0.06213
1089.70 0.06193
1089.80 0.06173
1089.90 0.06153
1090.00 0.06133
1090.10 0.06114
1090.20 0.06094
1090.30 0.06074
1090.40 0.06054
1090.50 0.06033
1090.60 0.06007
1090.70 0.05982
1090.80 0.05957
1090.90 0.05932
1091.00 0.05907
1091.10 0.05882
1091.20 0.05857
1091.30 0.05832
1091.40 0.05807
1091.50 0.05782
1091.60 0.05757
1091.70 0.05733
1091.80 0.05708
1091.90 0.05683
1092.00 0.05657
1092.10 0.05625
1092.20 0.05593
1092.30 0.05562
1092.40 0.05531
1092.50 0.05499
1092.60 0.05468
1092.70 0.05432
1092.80 0.05388
1092.90 0.05344
1093.00 0.05301
1093.10 0.0525
1093.20 0.05185
1093.30 0.05119
1093.40 0.05064
1093.50 0.05068
1093.60 0.0509
1093.70 0.05154
1093.80 0.05216
1093.90 0.05271
1094.00 0.05311
1094.10 0.05352
1094.20 0.05392
1094.30 0.05429
1094.40 0.05456
1094.50 0.05484
1094.60 0.05512
1094.70 0.05539
1094.80 0.05567
1094.90 0.05595
1095.00 0.0562
1095.10 0.05641
1095.20 0.05662
1095.30 0.05683
1095.40 0.05704
1095.50 0.05725
1095.60 0.05746
1095.70 0.05767
1095.80 0.05788
1095.90 0.05809
1096.00 0.0583
1096.10 0.05851
1096.20 0.05872
1096.30 0.05893
1096.40 0.05914
1096.50 0.05933
1096.60 0.05951
1096.70 0.05968
1096.80 0.05986
1096.90 0.06003
1097.00 0.0602
1097.10 0.06035
1097.20 0.0605
1097.30 0.06064
1097.40 0.06079
1097.50 0.06094
1097.60 0.06108
1097.70 0.06123
1097.80 0.06138
1097.90 0.06152
1098.00 0.06167
1098.10 0.06182
1098.20 0.06196
1098.30 0.06211
1098.40 0.06226
1098.50 0.06239
1098.60 0.06249
1098.70 0.0626
1098.80 0.0627
1098.90 0.0628
1099.00 0.0629
1099.10 0.06301
1099.20 0.06311
1099.30 0.06321
1099.40 0.06332
1099.50 0.06342
1099.60 0.06352
1099.70 0.06362
1099.80 0.06373
1099.90 0.06383
1100.00 0.06393
1100.10 0.06403
1100.20 0.06414
1100.30 0.06424
1100.40 0.06434
1100.50 0.06443
1100.60 0.0645
1100.70 0.06457
1100.80 0.06464
1100.90 0.0647
1101.00 0.06477
1101.10 0.06484
1101.20 0.0649
1101.30 0.06497
1101.40 0.06504
1101.50 0.06511
1101.60 0.06517
1101.70 0.06524
1101.80 0.06531
1101.90 0.06537
1102.00 0.06544
1102.10 0.06549
1102.20 0.06554
1102.30 0.06559
1102.40 0.06563
1102.50 0.06568
1102.60 0.06572
1102.70 0.06576
1102.80 0.0658
1102.90 0.06584
1103.00 0.06588
1103.10 0.06592
1103.20 0.06596
1103.30 0.066
1103.40 0.06604
1103.50 0.06608
1103.60 0.0661
1103.70 0.06613
1103.80 0.06615
1103.90 0.06617
1104.00 0.0662
1104.10 0.06622
1104.20 0.06625
1104.30 0.06627
1104.40 0.06629
1104.50 0.06632
1104.60 0.06634
1104.70 0.06637
1104.80 0.06639
1104.90 0.06641
1105.00 0.06644
1105.10 0.06646
1105.20 0.06649
1105.30 0.06651
1105.40 0.06653
1105.50 0.06655
1105.60 0.06656
1105.70 0.06657
1105.80 0.06658
1105.90 0.06659
1106.00 0.0666
1106.10 0.06661
1106.20 0.06662
1106.30 0.06663
1106.40 0.06664
1106.50 0.06664
1106.60 0.06665
1106.70 0.06666
1106.80 0.06667
1106.90 0.06668
1107.00 0.06669
1107.10 0.06669
1107.20 0.06669
1107.30 0.06669
1107.40 0.0667
1107.50 0.0667
1107.60 0.06669
1107.70 0.06669
1107.80 0.06669
1107.90 0.06669
1108.00 0.06668
1108.10 0.06668
1108.20 0.06668
1108.30 0.06668
1108.40 0.06667
1108.50 0.06667
1108.60 0.06667
1108.70 0.06667
1108.80 0.06666
1108.90 0.06666
1109.00 0.06666
1109.10 0.06666
1109.20 0.06665
1109.30 0.06665
1109.40 0.06665
1109.50 0.06664
1109.60 0.06663
1109.70 0.06663
1109.80 0.06662
1109.90 0.06661
1110.00 0.0666
1110.10 0.06659
1110.20 0.06658
1110.30 0.06657
1110.40 0.06656
1110.50 0.06655
1110.60 0.06654
1110.70 0.06653
1110.80 0.06652
1110.90 0.06651
1111.00 0.0665
1111.10 0.06649
1111.20 0.06648
1111.30 0.06647
1111.40 0.06646
1111.50 0.06645
1111.60 0.06644
1111.70 0.06644
1111.80 0.06643
1111.90 0.06642
1112.00 0.06641
1112.10 0.06639
1112.20 0.06638
1112.30 0.06637
1112.40 0.06635
1112.50 0.06634
1112.60 0.06633
1112.70 0.06631
1112.80 0.0663
1112.90 0.06629
1113.00 0.06627
1113.10 0.06626
1113.20 0.06625
1113.30 0.06624
1113.40 0.06622
1113.50 0.06621
1113.60 0.06619
1113.70 0.06618
1113.80 0.06616
1113.90 0.06614
1114.00 0.06613
1114.10 0.06611
1114.20 0.06609
1114.30 0.06608
1114.40 0.06606
1114.50 0.06605
1114.60 0.06603
1114.70 0.06601
1114.80 0.066
1114.90 0.06598
1115.00 0.06597
1115.10 0.06595
1115.20 0.06593
1115.30 0.06592
1115.40 0.0659
1115.50 0.06588
1115.60 0.06587
1115.70 0.06585
1115.80 0.06584
1115.90 0.06582
1116.00 0.0658
1116.10 0.06579
1116.20 0.06577
1116.30 0.06576
1116.40 0.06574
1116.50 0.06572
1116.60 0.06571
1116.70 0.06569
1116.80 0.06568
1116.90 0.06566
1117.00 0.06564
1117.10 0.06562
1117.20 0.06561
1117.30 0.06559
1117.40 0.06557
1117.50 0.06555
1117.60 0.06553
1117.70 0.06551
1117.80 0.06549
1117.90 0.06548
1118.00 0.06546
1118.10 0.06544
1118.20 0.06542
1118.30 0.0654
1118.40 0.06538
1118.50 0.06536
1118.60 0.06535
1118.70 0.06533
1118.80 0.06531
1118.90 0.06529
1119.00 0.06527
1119.10 0.06525
1119.20 0.06524
1119.30 0.06522
1119.40 0.0652
1119.50 0.06518
1119.60 0.06516
1119.70 0.06514
1119.80 0.06512
1119.90 0.06511
1120.00 0.06509
1120.10 0.06507
1120.20 0.06505
1120.30 0.06503
1120.40 0.06501
1120.50 0.065
1120.60 0.06498
1120.70 0.06496
1120.80 0.06494
1120.90 0.06492
1121.00 0.0649
1121.10 0.06488
1121.20 0.06487
1121.30 0.06485
1121.40 0.06483
1121.50 0.06481
1121.60 0.06479
1121.70 0.06477
1121.80 0.06476
1121.90 0.06474
1122.00 0.06472
1122.10 0.0647
1122.20 0.06468
1122.30 0.06466
1122.40 0.06464
1122.50 0.06462
1122.60 0.0646
1122.70 0.06458
1122.80 0.06456
1122.90 0.06454
1123.00 0.06452
1123.10 0.0645
1123.20 0.06448
1123.30 0.06446
1123.40 0.06444
1123.50 0.06442
1123.60 0.06441
1123.70 0.06439
1123.80 0.06437
1123.90 0.06435
1124.00 0.06433
1124.10 0.06431
1124.20 0.06429
1124.30 0.06427
1124.40 0.06425
1124.50 0.06423
1124.60 0.06421
1124.70 0.06419
1124.80 0.06417
1124.90 0.06415
1125.00 0.06413
1125.10 0.06411
1125.20 0.06409
1125.30 0.06407
1125.40 0.06405
1125.50 0.06403
1125.60 0.06401
1125.70 0.064
1125.80 0.06398
1125.90 0.06396
1126.00 0.06394
1126.10 0.06392
1126.20 0.0639
1126.30 0.06388
1126.40 0.06386
1126.50 0.06384
1126.60 0.06382
1126.70 0.0638
1126.80 0.06378
1126.90 0.06376
1127.00 0.06374
1127.10 0.06372
1127.20 0.0637
1127.30 0.06368
1127.40 0.06366
1127.50 0.06364
1127.60 0.06362
1127.70 0.0636
1127.80 0.06358
1127.90 0.06356
1128.00 0.06354
1128.10 0.06352
1128.20 0.0635
1128.30 0.06348
1128.40 0.06346
1128.50 0.06344
1128.60 0.06342
1128.70 0.0634
1128.80 0.06338
1128.90 0.06336
1129.00 0.06334
1129.10 0.06332
1129.20 0.0633
1129.30 0.06328
1129.40 0.06327
1129.50 0.06325
1129.60 0.06323
1129.70 0.06321
1129.80 0.06319
1129.90 0.06317
1130.00 0.06315
1130.10 0.06313
1130.20 0.06311
1130.30 0.06309
1130.40 0.06307
1130.50 0.06305
1130.60 0.06303
1130.70 0.06301
1130.80 0.06299
1130.90 0.06297
1131.00 0.06295
1131.10 0.06293
1131.20 0.06291
1131.30 0.06289
1131.40 0.06287
1131.50 0.06285
1131.60 0.06283
1131.70 0.06281
1131.80 0.06279
1131.90 0.06277
1132.00 0.06275
1132.10 0.06273
1132.20 0.06271
1132.30 0.06269
1132.40 0.06267
1132.50 0.06265
1132.60 0.06263
1132.70 0.06261
1132.80 0.06259
1132.90 0.06257
1133.00 0.06255
1133.10 0.06253
1133.20 0.06251
1133.30 0.06249
1133.40 0.06247
1133.50 0.06245
1133.60 0.06243
1133.70 0.06241
1133.80 0.06239
1133.90 0.06237
1134.00 0.06235
1134.10 0.06233
1134.20 0.06231
1134.30 0.06229
1134.40 0.06227
1134.50 0.06226
1134.60 0.06224
1134.70 0.06222
1134.80 0.0622
1134.90 0.06218
1135.00 0.06216
1135.10 0.06214
1135.20 0.06212
1135.30 0.0621
1135.40 0.06208
1135.50 0.06206
1135.60 0.06204
1135.70 0.06202
1135.80 0.062
1135.90 0.06198
1136.00 0.06196
1136.10 0.06194
1136.20 0.06192
1136.30 0.0619
1136.40 0.06188
1136.50 0.06186
1136.60 0.06184
1136.70 0.06182
1136.80 0.0618
1136.90 0.06178
1137.00 0.06176
1137.10 0.06174
1137.20 0.06172
1137.30 0.0617
1137.40 0.06168
1137.50 0.06166
1137.60 0.06164
1137.70 0.06162
1137.80 0.0616
1137.90 0.06158
1138.00 0.06157
1138.10 0.06155
1138.20 0.06153
1138.30 0.06151
1138.40 0.06149
1138.50 0.06147
1138.60 0.06145
1138.70 0.06143
1138.80 0.06141
1138.90 0.06139
1139.00 0.06137
1139.10 0.06135
1139.20 0.06133
1139.30 0.06131
1139.40 0.06129
1139.50 0.06127
1139.60 0.06125
1139.70 0.06123
1139.80 0.06121
1139.90 0.06119
1140.00 0.06117
1140.10 0.06115
1140.20 0.06113
1140.30 0.06111
1140.40 0.06109
1140.50 0.06107
1140.60 0.06105
1140.70 0.06104
1140.80 0.06102
1140.90 0.061
1141.00 0.06098
1141.10 0.06096
1141.20 0.06094
1141.30 0.06092
1141.40 0.0609
1141.50 0.06088
1141.60 0.06086
1141.70 0.06084
1141.80 0.06082
1141.90 0.0608
1142.00 0.06078
1142.10 0.06076
1142.20 0.06074
1142.30 0.06072
1142.40 0.0607
1142.50 0.06068
1142.60 0.06067
1142.70 0.06065
1142.80 0.06063
1142.90 0.06061
1143.00 0.06059
1143.10 0.06057
1143.20 0.06055
1143.30 0.06053
1143.40 0.06051
1143.50 0.06049
1143.60 0.06047
1143.70 0.06045
1143.80 0.06043
1143.90 0.06041
1144.00 0.06039
1144.10 0.06037
1144.20 0.06036
1144.30 0.06034
1144.40 0.06032
1144.50 0.0603
1144.60 0.06028
1144.70 0.06026
1144.80 0.06024
1144.90 0.06022
1145.00 0.0602
1145.10 0.06018
1145.20 0.06016
1145.30 0.06014
1145.40 0.06012
1145.50 0.0601
1145.60 0.06008
1145.70 0.06007
1145.80 0.06005
1145.90 0.06003
1146.00 0.06001
1146.10 0.05999
1146.20 0.05997
1146.30 0.05995
1146.40 0.05993
1146.50 0.05991
1146.60 0.05989
1146.70 0.05987
1146.80 0.05985
1146.90 0.05984
1147.00 0.05982
1147.10 0.0598
1147.20 0.05978
1147.30 0.05976
1147.40 0.05974
1147.50 0.05972
1147.60 0.0597
1147.70 0.05968
1147.80 0.05966
1147.90 0.05964
1148.00 0.05962
1148.10 0.05961
1148.20 0.05959
1148.30 0.05957
1148.40 0.05955
1148.50 0.05953
1148.60 0.05951
1148.70 0.05949
1148.80 0.05947
1148.90 0.05945
1149.00 0.05943
1149.10 0.05941
1149.20 0.0594
1149.30 0.05938
1149.40 0.05936
1149.50 0.05934
1149.60 0.05932
1149.70 0.0593
1149.80 0.05928
1149.90 0.05926
1150.00 0.05924
1150.10 0.05922
1150.20 0.05921
1150.30 0.05919
1150.40 0.05917
1150.50 0.05915
1150.60 0.05913
1150.70 0.05911
1150.80 0.05909
1150.90 0.05907
1151.00 0.05905
1151.10 0.05903
1151.20 0.05902
1151.30 0.059
1151.40 0.05898
1151.50 0.05896
1151.60 0.05894
1151.70 0.05892
1151.80 0.0589
1151.90 0.05888
1152.00 0.05886
1152.10 0.05885
1152.20 0.05883
1152.30 0.05881
1152.40 0.05879
1152.50 0.05877
1152.60 0.05875
1152.70 0.05873
1152.80 0.05871
1152.90 0.0587
1153.00 0.05868
1153.10 0.05866
1153.20 0.05864
1153.30 0.05862
1153.40 0.0586
1153.50 0.05858
1153.60 0.05856
1153.70 0.05855
1153.80 0.05853
1153.90 0.05851
1154.00 0.05849
1154.10 0.05847
1154.20 0.05845
1154.30 0.05843
1154.40 0.05841
1154.50 0.0584
1154.60 0.05838
1154.70 0.05836
1154.80 0.05834
1154.90 0.05832
1155.00 0.0583
1155.10 0.05828
1155.20 0.05827
1155.30 0.05825
1155.40 0.05823
1155.50 0.05821
1155.60 0.05819
1155.70 0.05817
1155.80 0.05815
1155.90 0.05813
1156.00 0.05812
1156.10 0.0581
1156.20 0.05808
1156.30 0.05806
1156.40 0.05804
1156.50 0.05802
1156.60 0.058
1156.70 0.05799
1156.80 0.05797
1156.90 0.05795
1157.00 0.05793
1157.10 0.05791
1157.20 0.05789
1157.30 0.05787
1157.40 0.05786
1157.50 0.05784
1157.60 0.05782
1157.70 0.0578
1157.80 0.05778
1157.90 0.05776
1158.00 0.05775
1158.10 0.05773
1158.20 0.05771
1158.30 0.05769
1158.40 0.05767
1158.50 0.05765
1158.60 0.05764
1158.70 0.05762
1158.80 0.0576
1158.90 0.05758
1159.00 0.05756
1159.10 0.05754
1159.20 0.05752
1159.30 0.05751
1159.40 0.05749
1159.50 0.05747
1159.60 0.05745
1159.70 0.05743
1159.80 0.05741
1159.90 0.0574
1160.00 0.05738
1160.10 0.05736
1160.20 0.05734
1160.30 0.05732
1160.40 0.0573
1160.50 0.05729
1160.60 0.05727
1160.70 0.05725
1160.80 0.05723
1160.90 0.05721
1161.00 0.0572
1161.10 0.05718
1161.20 0.05716
1161.30 0.05714
1161.40 0.05712
1161.50 0.0571
1161.60 0.05709
1161.70 0.05707
1161.80 0.05705
1161.90 0.05703
1162.00 0.05701
1162.10 0.05699
1162.20 0.05698
1162.30 0.05696
1162.40 0.05694
1162.50 0.05692
1162.60 0.0569
1162.70 0.05689
1162.80 0.05687
1162.90 0.05685
1163.00 0.05683
1163.10 0.05681
1163.20 0.0568
1163.30 0.05678
1163.40 0.05676
1163.50 0.05674
1163.60 0.05672
1163.70 0.0567
1163.80 0.05669
1163.90 0.05667
1164.00 0.05665
1164.10 0.05663
1164.20 0.05661
1164.30 0.0566
1164.40 0.05658
1164.50 0.05656
1164.60 0.05654
1164.70 0.05652
1164.80 0.05651
1164.90 0.05649
1165.00 0.05647
1165.10 0.05645
1165.20 0.05643
1165.30 0.05642
1165.40 0.0564
1165.50 0.05638
1165.60 0.05636
1165.70 0.05634
1165.80 0.05633
1165.90 0.05631
1166.00 0.05629
1166.10 0.05627
1166.20 0.05625
1166.30 0.05624
1166.40 0.05622
1166.50 0.0562
1166.60 0.05618
1166.70 0.05617
1166.80 0.05615
1166.90 0.05613
1167.00 0.05611
1167.10 0.05609
1167.20 0.05608
1167.30 0.05606
1167.40 0.05604
1167.50 0.05602
1167.60 0.056
1167.70 0.05599
1167.80 0.05597
1167.90 0.05595
1168.00 0.05593
1168.10 0.05592
1168.20 0.0559
1168.30 0.05588
1168.40 0.05586
1168.50 0.05584
1168.60 0.05583
1168.70 0.05581
1168.80 0.05579
1168.90 0.05577
1169.00 0.05576
1169.10 0.05574
1169.20 0.05572
1169.30 0.0557
1169.40 0.05569
1169.50 0.05567
1169.60 0.05565
1169.70 0.05563
1169.80 0.05561
1169.90 0.0556
1170.00 0.05558
1170.10 0.05556
1170.20 0.05554
1170.30 0.05553
1170.40 0.05551
1170.50 0.05549
1170.60 0.05547
1170.70 0.05546
1170.80 0.05544
1170.90 0.05542
1171.00 0.0554
1171.10 0.05539
1171.20 0.05537
1171.30 0.05535
1171.40 0.05533
1171.50 0.05531
1171.60 0.0553
1171.70 0.05528
1171.80 0.05526
1171.90 0.05524
1172.00 0.05523
1172.10 0.05521
1172.20 0.05519
1172.30 0.05517
1172.40 0.05516
1172.50 0.05514
1172.60 0.05512
1172.70 0.0551
1172.80 0.05509
1172.90 0.05507
1173.00 0.05505
1173.10 0.05503
1173.20 0.05502
1173.30 0.055
1173.40 0.05498
1173.50 0.05496
1173.60 0.05495
1173.70 0.05493
1173.80 0.05491
1173.90 0.0549
1174.00 0.05488
1174.10 0.05486
1174.20 0.05484
1174.30 0.05483
1174.40 0.05481
1174.50 0.05479
1174.60 0.05477
1174.70 0.05476
1174.80 0.05474
1174.90 0.05472
1175.00 0.0547
1175.10 0.05469
1175.20 0.05467
1175.30 0.05465
1175.40 0.05464
1175.50 0.05462
1175.60 0.0546
1175.70 0.05458
1175.80 0.05457
1175.90 0.05455
1176.00 0.05453
1176.10 0.05451
1176.20 0.0545
1176.30 0.05448
1176.40 0.05446
1176.50 0.05445
1176.60 0.05443
1176.70 0.05441
1176.80 0.05439
1176.90 0.05438
1177.00 0.05436
1177.10 0.05434
1177.20 0.05432
1177.30 0.05431
1177.40 0.05429
1177.50 0.05427
1177.60 0.05426
1177.70 0.05424
1177.80 0.05422
1177.90 0.0542
1178.00 0.05419
1178.10 0.05417
1178.20 0.05415
1178.30 0.05414
1178.40 0.05412
1178.50 0.0541
1178.60 0.05409
1178.70 0.05407
1178.80 0.05405
1178.90 0.05403
1179.00 0.05402
1179.10 0.054
1179.20 0.05398
1179.30 0.05397
1179.40 0.05395
1179.50 0.05393
1179.60 0.05391
1179.70 0.0539
1179.80 0.05388
1179.90 0.05386
1180.00 0.05385
1180.10 0.05383
1180.20 0.05381
1180.30 0.0538
1180.40 0.05378
1180.50 0.05376
1180.60 0.05374
1180.70 0.05373
1180.80 0.05371
1180.90 0.05369
1181.00 0.05368
1181.10 0.05366
1181.20 0.05364
1181.30 0.05363
1181.40 0.05361
1181.50 0.05359
1181.60 0.05358
1181.70 0.05356
1181.80 0.05354
1181.90 0.05352
1182.00 0.05351
1182.10 0.05349
1182.20 0.05347
1182.30 0.05346
1182.40 0.05344
1182.50 0.05342
1182.60 0.05341
1182.70 0.05339
1182.80 0.05337
1182.90 0.05336
1183.00 0.05334
1183.10 0.05332
1183.20 0.05331
1183.30 0.05329
1183.40 0.05327
1183.50 0.05326
1183.60 0.05324
1183.70 0.05322
1183.80 0.05321
1183.90 0.05319
1184.00 0.05317
1184.10 0.05316
1184.20 0.05314
1184.30 0.05312
1184.40 0.05311
1184.50 0.05309
1184.60 0.05307
1184.70 0.05306
1184.80 0.05304
1184.90 0.05302
1185.00 0.053
1185.10 0.05299
1185.20 0.05297
1185.30 0.05295
1185.40 0.05294
1185.50 0.05292
1185.60 0.0529
1185.70 0.05289
1185.80 0.05287
1185.90 0.05285
1186.00 0.05284
1186.10 0.05282
1186.20 0.05281
1186.30 0.05279
1186.40 0.05277
1186.50 0.05276
1186.60 0.05274
1186.70 0.05272
1186.80 0.05271
1186.90 0.05269
1187.00 0.05267
1187.10 0.05266
1187.20 0.05264
1187.30 0.05262
1187.40 0.05261
1187.50 0.05259
1187.60 0.05257
1187.70 0.05256
1187.80 0.05254
1187.90 0.05252
1188.00 0.05251
1188.10 0.05249
1188.20 0.05247
1188.30 0.05246
1188.40 0.05244
1188.50 0.05243
1188.60 0.05241
1188.70 0.05239
1188.80 0.05238
1188.90 0.05236
1189.00 0.05234
1189.10 0.05233
1189.20 0.05231
1189.30 0.05229
1189.40 0.05228
1189.50 0.05226
1189.60 0.05224
1189.70 0.05223
1189.80 0.05221
1189.90 0.0522
1190.00 0.05218
1190.10 0.05216
1190.20 0.05215
1190.30 0.05213
1190.40 0.05211
1190.50 0.0521
1190.60 0.05208
1190.70 0.05206
1190.80 0.05205
1190.90 0.05203
1191.00 0.05202
1191.10 0.052
1191.20 0.05198
1191.30 0.05197
1191.40 0.05195
1191.50 0.05193
1191.60 0.05192
1191.70 0.0519
1191.80 0.05189
1191.90 0.05187
1192.00 0.05185
1192.10 0.05184
1192.20 0.05182
1192.30 0.0518
1192.40 0.05179
1192.50 0.05177
1192.60 0.05176
1192.70 0.05174
1192.80 0.05172
1192.90 0.05171
1193.00 0.05169
1193.10 0.05167
1193.20 0.05166
1193.30 0.05164
1193.40 0.05163
1193.50 0.05161
1193.60 0.05159
1193.70 0.05158
1193.80 0.05156
1193.90 0.05155
1194.00 0.05153
1194.10 0.05151
1194.20 0.0515
1194.30 0.05148
1194.40 0.05146
1194.50 0.05145
1194.60 0.05143
1194.70 0.05142
1194.80 0.0514
1194.90 0.05138
1195.00 0.05137
1195.10 0.05135
1195.20 0.05134
1195.30 0.05132
1195.40 0.0513
1195.50 0.05129
1195.60 0.05127
1195.70 0.05126
1195.80 0.05124
1195.90 0.05122
1196.00 0.05121
1196.10 0.05119
1196.20 0.05118
1196.30 0.05116
1196.40 0.05114
1196.50 0.05113
1196.60 0.05111
1196.70 0.0511
1196.80 0.05108
1196.90 0.05106
1197.00 0.05105
1197.10 0.05103
1197.20 0.05102
1197.30 0.051
1197.40 0.05098
1197.50 0.05097
1197.60 0.05095
1197.70 0.05094
1197.80 0.05092
1197.90 0.0509
1198.00 0.05089
1198.10 0.05087
1198.20 0.05086
1198.30 0.05084
1198.40 0.05083
1198.50 0.05081
1198.60 0.05079
1198.70 0.05078
1198.80 0.05076
1198.90 0.05075
1199.00 0.05073
1199.10 0.05071
1199.20 0.0507
1199.30 0.05068
1199.40 0.05067
1199.50 0.05065
1199.60 0.05064
1199.70 0.05062
1199.80 0.0506
1199.90 0.05059
1200.00 0
