# Version 2.1 - nm, norm@500 to 1, cut digits, bergeron_30000_90.dat_30000
# Wavelength(nm)  Flambda(ergs/cm^s/s/nm)
300.00 5.141
300.10 5.135
300.20 5.129
300.30 5.123
300.40 5.117
300.50 5.111
300.60 5.106
300.70 5.1
300.80 5.094
300.90 5.088
301.00 5.082
301.10 5.077
301.20 5.071
301.30 5.065
301.40 5.059
301.50 5.053
301.60 5.048
301.70 5.042
301.80 5.036
301.90 5.031
302.00 5.025
302.10 5.019
302.20 5.013
302.30 5.008
302.40 5.002
302.50 4.996
302.60 4.991
302.70 4.985
302.80 4.979
302.90 4.974
303.00 4.968
303.10 4.962
303.20 4.957
303.30 4.951
303.40 4.946
303.50 4.94
303.60 4.934
303.70 4.929
303.80 4.923
303.90 4.918
304.00 4.912
304.10 4.907
304.20 4.901
304.30 4.896
304.40 4.89
304.50 4.885
304.60 4.879
304.70 4.874
304.80 4.868
304.90 4.863
305.00 4.857
305.10 4.852
305.20 4.846
305.30 4.841
305.40 4.835
305.50 4.83
305.60 4.824
305.70 4.819
305.80 4.814
305.90 4.808
306.00 4.803
306.10 4.797
306.20 4.792
306.30 4.787
306.40 4.781
306.50 4.776
306.60 4.771
306.70 4.765
306.80 4.76
306.90 4.755
307.00 4.749
307.10 4.744
307.20 4.739
307.30 4.733
307.40 4.728
307.50 4.723
307.60 4.717
307.70 4.712
307.80 4.707
307.90 4.702
308.00 4.696
308.10 4.691
308.20 4.686
308.30 4.681
308.40 4.676
308.50 4.67
308.60 4.665
308.70 4.66
308.80 4.655
308.90 4.65
309.00 4.644
309.10 4.639
309.20 4.634
309.30 4.629
309.40 4.624
309.50 4.619
309.60 4.614
309.70 4.608
309.80 4.603
309.90 4.598
310.00 4.593
310.10 4.588
310.20 4.583
310.30 4.578
310.40 4.573
310.50 4.568
310.60 4.563
310.70 4.558
310.80 4.553
310.90 4.548
311.00 4.543
311.10 4.537
311.20 4.532
311.30 4.527
311.40 4.522
311.50 4.517
311.60 4.512
311.70 4.507
311.80 4.503
311.90 4.498
312.00 4.493
312.10 4.488
312.20 4.483
312.30 4.478
312.40 4.473
312.50 4.468
312.60 4.463
312.70 4.458
312.80 4.453
312.90 4.448
313.00 4.443
313.10 4.438
313.20 4.434
313.30 4.429
313.40 4.424
313.50 4.419
313.60 4.414
313.70 4.409
313.80 4.405
313.90 4.4
314.00 4.395
314.10 4.39
314.20 4.385
314.30 4.38
314.40 4.376
314.50 4.371
314.60 4.366
314.70 4.361
314.80 4.357
314.90 4.352
315.00 4.347
315.10 4.342
315.20 4.338
315.30 4.333
315.40 4.328
315.50 4.323
315.60 4.319
315.70 4.314
315.80 4.309
315.90 4.305
316.00 4.3
316.10 4.295
316.20 4.29
316.30 4.286
316.40 4.281
316.50 4.276
316.60 4.272
316.70 4.267
316.80 4.263
316.90 4.258
317.00 4.253
317.10 4.249
317.20 4.244
317.30 4.239
317.40 4.235
317.50 4.23
317.60 4.226
317.70 4.221
317.80 4.216
317.90 4.212
318.00 4.207
318.10 4.203
318.20 4.198
318.30 4.194
318.40 4.189
318.50 4.185
318.60 4.18
318.70 4.176
318.80 4.171
318.90 4.167
319.00 4.162
319.10 4.158
319.20 4.153
319.30 4.149
319.40 4.144
319.50 4.14
319.60 4.135
319.70 4.131
319.80 4.126
319.90 4.122
320.00 4.117
320.10 4.113
320.20 4.109
320.30 4.104
320.40 4.1
320.50 4.095
320.60 4.091
320.70 4.086
320.80 4.082
320.90 4.078
321.00 4.073
321.10 4.069
321.20 4.065
321.30 4.06
321.40 4.056
321.50 4.052
321.60 4.047
321.70 4.043
321.80 4.038
321.90 4.034
322.00 4.03
322.10 4.026
322.20 4.021
322.30 4.017
322.40 4.013
322.50 4.008
322.60 4.004
322.70 4
322.80 3.995
322.90 3.991
323.00 3.987
323.10 3.983
323.20 3.978
323.30 3.974
323.40 3.97
323.50 3.966
323.60 3.962
323.70 3.957
323.80 3.953
323.90 3.949
324.00 3.945
324.10 3.94
324.20 3.936
324.30 3.932
324.40 3.928
324.50 3.924
324.60 3.92
324.70 3.915
324.80 3.911
324.90 3.907
325.00 3.903
325.10 3.899
325.20 3.895
325.30 3.891
325.40 3.886
325.50 3.882
325.60 3.878
325.70 3.874
325.80 3.87
325.90 3.866
326.00 3.862
326.10 3.858
326.20 3.854
326.30 3.849
326.40 3.845
326.50 3.841
326.60 3.837
326.70 3.833
326.80 3.829
326.90 3.825
327.00 3.821
327.10 3.817
327.20 3.813
327.30 3.809
327.40 3.805
327.50 3.801
327.60 3.797
327.70 3.793
327.80 3.789
327.90 3.785
328.00 3.781
328.10 3.777
328.20 3.773
328.30 3.769
328.40 3.765
328.50 3.761
328.60 3.757
328.70 3.753
328.80 3.749
328.90 3.745
329.00 3.741
329.10 3.738
329.20 3.734
329.30 3.73
329.40 3.726
329.50 3.722
329.60 3.718
329.70 3.714
329.80 3.71
329.90 3.706
330.00 3.702
330.10 3.699
330.20 3.695
330.30 3.691
330.40 3.687
330.50 3.683
330.60 3.679
330.70 3.675
330.80 3.672
330.90 3.668
331.00 3.664
331.10 3.66
331.20 3.656
331.30 3.652
331.40 3.649
331.50 3.645
331.60 3.641
331.70 3.637
331.80 3.633
331.90 3.63
332.00 3.626
332.10 3.622
332.20 3.618
332.30 3.615
332.40 3.611
332.50 3.607
332.60 3.603
332.70 3.6
332.80 3.596
332.90 3.592
333.00 3.588
333.10 3.585
333.20 3.581
333.30 3.577
333.40 3.574
333.50 3.57
333.60 3.566
333.70 3.562
333.80 3.559
333.90 3.555
334.00 3.551
334.10 3.548
334.20 3.544
334.30 3.54
334.40 3.537
334.50 3.533
334.60 3.529
334.70 3.526
334.80 3.522
334.90 3.518
335.00 3.515
335.10 3.511
335.20 3.508
335.30 3.504
335.40 3.5
335.50 3.497
335.60 3.493
335.70 3.489
335.80 3.486
335.90 3.482
336.00 3.479
336.10 3.475
336.20 3.472
336.30 3.468
336.40 3.464
336.50 3.461
336.60 3.457
336.70 3.454
336.80 3.45
336.90 3.447
337.00 3.443
337.10 3.44
337.20 3.436
337.30 3.433
337.40 3.429
337.50 3.425
337.60 3.422
337.70 3.418
337.80 3.415
337.90 3.411
338.00 3.408
338.10 3.404
338.20 3.401
338.30 3.398
338.40 3.394
338.50 3.391
338.60 3.387
338.70 3.384
338.80 3.38
338.90 3.377
339.00 3.373
339.10 3.37
339.20 3.366
339.30 3.363
339.40 3.36
339.50 3.356
339.60 3.353
339.70 3.349
339.80 3.346
339.90 3.342
340.00 3.339
340.10 3.336
340.20 3.332
340.30 3.329
340.40 3.325
340.50 3.322
340.60 3.319
340.70 3.315
340.80 3.312
340.90 3.309
341.00 3.305
341.10 3.302
341.20 3.299
341.30 3.295
341.40 3.292
341.50 3.288
341.60 3.285
341.70 3.282
341.80 3.278
341.90 3.275
342.00 3.272
342.10 3.268
342.20 3.265
342.30 3.262
342.40 3.259
342.50 3.255
342.60 3.252
342.70 3.249
342.80 3.245
342.90 3.242
343.00 3.239
343.10 3.236
343.20 3.232
343.30 3.229
343.40 3.226
343.50 3.223
343.60 3.219
343.70 3.216
343.80 3.213
343.90 3.21
344.00 3.206
344.10 3.203
344.20 3.2
344.30 3.197
344.40 3.193
344.50 3.19
344.60 3.187
344.70 3.184
344.80 3.181
344.90 3.177
345.00 3.174
345.10 3.171
345.20 3.168
345.30 3.165
345.40 3.161
345.50 3.158
345.60 3.155
345.70 3.152
345.80 3.149
345.90 3.146
346.00 3.142
346.10 3.139
346.20 3.136
346.30 3.133
346.40 3.13
346.50 3.127
346.60 3.124
346.70 3.121
346.80 3.117
346.90 3.114
347.00 3.111
347.10 3.108
347.20 3.105
347.30 3.102
347.40 3.099
347.50 3.096
347.60 3.093
347.70 3.089
347.80 3.086
347.90 3.083
348.00 3.08
348.10 3.077
348.20 3.074
348.30 3.071
348.40 3.068
348.50 3.065
348.60 3.062
348.70 3.059
348.80 3.056
348.90 3.053
349.00 3.05
349.10 3.047
349.20 3.044
349.30 3.041
349.40 3.038
349.50 3.035
349.60 3.032
349.70 3.029
349.80 3.026
349.90 3.023
350.00 3.02
350.10 3.017
350.20 3.014
350.30 3.011
350.40 3.008
350.50 3.005
350.60 3.002
350.70 2.999
350.80 2.996
350.90 2.993
351.00 2.99
351.10 2.987
351.20 2.984
351.30 2.981
351.40 2.978
351.50 2.975
351.60 2.972
351.70 2.969
351.80 2.966
351.90 2.963
352.00 2.96
352.10 2.957
352.20 2.955
352.30 2.952
352.40 2.949
352.50 2.946
352.60 2.943
352.70 2.94
352.80 2.937
352.90 2.934
353.00 2.931
353.10 2.928
353.20 2.926
353.30 2.923
353.40 2.92
353.50 2.917
353.60 2.914
353.70 2.911
353.80 2.908
353.90 2.905
354.00 2.903
354.10 2.9
354.20 2.897
354.30 2.894
354.40 2.891
354.50 2.888
354.60 2.886
354.70 2.883
354.80 2.88
354.90 2.877
355.00 2.874
355.10 2.872
355.20 2.869
355.30 2.866
355.40 2.863
355.50 2.86
355.60 2.857
355.70 2.855
355.80 2.852
355.90 2.849
356.00 2.846
356.10 2.844
356.20 2.841
356.30 2.838
356.40 2.835
356.50 2.832
356.60 2.83
356.70 2.827
356.80 2.824
356.90 2.821
357.00 2.819
357.10 2.816
357.20 2.813
357.30 2.81
357.40 2.808
357.50 2.805
357.60 2.802
357.70 2.8
357.80 2.797
357.90 2.794
358.00 2.791
358.10 2.789
358.20 2.786
358.30 2.783
358.40 2.781
358.50 2.778
358.60 2.775
358.70 2.773
358.80 2.77
358.90 2.767
359.00 2.764
359.10 2.762
359.20 2.759
359.30 2.756
359.40 2.754
359.50 2.751
359.60 2.748
359.70 2.746
359.80 2.743
359.90 2.74
360.00 2.738
360.10 2.735
360.20 2.733
360.30 2.73
360.40 2.727
360.50 2.725
360.60 2.722
360.70 2.719
360.80 2.717
360.90 2.714
361.00 2.712
361.10 2.709
361.20 2.706
361.30 2.704
361.40 2.701
361.50 2.698
361.60 2.696
361.70 2.693
361.80 2.691
361.90 2.688
362.00 2.685
362.10 2.683
362.20 2.68
362.30 2.678
362.40 2.675
362.50 2.673
362.60 2.67
362.70 2.667
362.80 2.665
362.90 2.662
363.00 2.66
363.10 2.657
363.20 2.655
363.30 2.652
363.40 2.65
363.50 2.647
363.60 2.645
363.70 2.642
363.80 2.639
363.90 2.637
364.00 2.634
364.10 2.632
364.20 2.629
364.30 2.627
364.40 2.624
364.50 2.622
364.60 2.619
364.70 2.617
364.80 2.614
364.90 2.612
365.00 2.609
365.10 2.607
365.20 2.604
365.30 2.602
365.40 2.599
365.50 2.597
365.60 2.594
365.70 2.592
365.80 2.59
365.90 2.587
366.00 2.585
366.10 2.582
366.20 2.579
366.30 2.577
366.40 2.574
366.50 2.572
366.60 2.569
366.70 2.566
366.80 2.564
366.90 2.561
367.00 2.559
367.10 2.556
367.20 2.554
367.30 2.551
367.40 2.548
367.50 2.546
367.60 2.543
367.70 2.541
367.80 2.538
367.90 2.536
368.00 2.533
368.10 2.53
368.20 2.528
368.30 2.525
368.40 2.522
368.50 2.52
368.60 2.517
368.70 2.514
368.80 2.512
368.90 2.509
369.00 2.506
369.10 2.504
369.20 2.501
369.30 2.498
369.40 2.496
369.50 2.493
369.60 2.49
369.70 2.488
369.80 2.485
369.90 2.483
370.00 2.48
370.10 2.477
370.20 2.475
370.30 2.472
370.40 2.47
370.50 2.467
370.60 2.465
370.70 2.462
370.80 2.46
370.90 2.457
371.00 2.454
371.10 2.452
371.20 2.449
371.30 2.447
371.40 2.444
371.50 2.442
371.60 2.439
371.70 2.437
371.80 2.434
371.90 2.432
372.00 2.429
372.10 2.427
372.20 2.425
372.30 2.422
372.40 2.42
372.50 2.418
372.60 2.415
372.70 2.413
372.80 2.411
372.90 2.408
373.00 2.406
373.10 2.404
373.20 2.402
373.30 2.399
373.40 2.397
373.50 2.395
373.60 2.392
373.70 2.39
373.80 2.388
373.90 2.386
374.00 2.383
374.10 2.381
374.20 2.379
374.30 2.376
374.40 2.374
374.50 2.371
374.60 2.369
374.70 2.367
374.80 2.364
374.90 2.362
375.00 2.36
375.10 2.357
375.20 2.355
375.30 2.352
375.40 2.35
375.50 2.348
375.60 2.345
375.70 2.343
375.80 2.341
375.90 2.338
376.00 2.336
376.10 2.334
376.20 2.331
376.30 2.329
376.40 2.327
376.50 2.325
376.60 2.322
376.70 2.32
376.80 2.318
376.90 2.316
377.00 2.313
377.10 2.311
377.20 2.309
377.30 2.307
377.40 2.305
377.50 2.303
377.60 2.301
377.70 2.299
377.80 2.297
377.90 2.295
378.00 2.293
378.10 2.29
378.20 2.288
378.30 2.286
378.40 2.284
378.50 2.282
378.60 2.28
378.70 2.278
378.80 2.276
378.90 2.274
379.00 2.272
379.10 2.27
379.20 2.268
379.30 2.266
379.40 2.264
379.50 2.262
379.60 2.26
379.70 2.258
379.80 2.256
379.90 2.254
380.00 2.252
380.10 2.25
380.20 2.248
380.30 2.247
380.40 2.245
380.50 2.243
380.60 2.242
380.70 2.24
380.80 2.238
380.90 2.236
381.00 2.235
381.10 2.233
381.20 2.231
381.30 2.229
381.40 2.227
381.50 2.226
381.60 2.224
381.70 2.222
381.80 2.22
381.90 2.218
382.00 2.216
382.10 2.214
382.20 2.212
382.30 2.21
382.40 2.208
382.50 2.206
382.60 2.204
382.70 2.201
382.80 2.199
382.90 2.197
383.00 2.195
383.10 2.193
383.20 2.191
383.30 2.189
383.40 2.187
383.50 2.185
383.60 2.184
383.70 2.183
383.80 2.181
383.90 2.18
384.00 2.179
384.10 2.178
384.20 2.178
384.30 2.177
384.40 2.176
384.50 2.175
384.60 2.173
384.70 2.172
384.80 2.171
384.90 2.17
385.00 2.169
385.10 2.168
385.20 2.166
385.30 2.165
385.40 2.163
385.50 2.162
385.60 2.16
385.70 2.159
385.80 2.157
385.90 2.155
386.00 2.153
386.10 2.151
386.20 2.15
386.30 2.147
386.40 2.145
386.50 2.143
386.60 2.141
386.70 2.139
386.80 2.136
386.90 2.134
387.00 2.131
387.10 2.129
387.20 2.126
387.30 2.123
387.40 2.121
387.50 2.118
387.60 2.115
387.70 2.112
387.80 2.109
387.90 2.106
388.00 2.103
388.10 2.1
388.20 2.097
388.30 2.094
388.40 2.091
388.50 2.089
388.60 2.086
388.70 2.084
388.80 2.082
388.90 2.08
389.00 2.079
389.10 2.079
389.20 2.079
389.30 2.079
389.40 2.08
389.50 2.08
389.60 2.081
389.70 2.081
389.80 2.082
389.90 2.082
390.00 2.083
390.10 2.083
390.20 2.084
390.30 2.084
390.40 2.085
390.50 2.085
390.60 2.085
390.70 2.085
390.80 2.085
390.90 2.085
391.00 2.085
391.10 2.085
391.20 2.084
391.30 2.084
391.40 2.083
391.50 2.083
391.60 2.082
391.70 2.081
391.80 2.08
391.90 2.079
392.00 2.077
392.10 2.076
392.20 2.074
392.30 2.073
392.40 2.071
392.50 2.069
392.60 2.067
392.70 2.065
392.80 2.063
392.90 2.06
393.00 2.058
393.10 2.055
393.20 2.052
393.30 2.049
393.40 2.046
393.50 2.043
393.60 2.04
393.70 2.036
393.80 2.033
393.90 2.029
394.00 2.025
394.10 2.021
394.20 2.017
394.30 2.012
394.40 2.008
394.50 2.003
394.60 1.999
394.70 1.994
394.80 1.989
394.90 1.983
395.00 1.978
395.10 1.972
395.20 1.967
395.30 1.961
395.40 1.955
395.50 1.949
395.60 1.943
395.70 1.936
395.80 1.93
395.90 1.923
396.00 1.917
396.10 1.91
396.20 1.903
396.30 1.897
396.40 1.89
396.50 1.883
396.60 1.876
396.70 1.87
396.80 1.863
396.90 1.857
397.00 1.851
397.10 1.855
397.20 1.858
397.30 1.862
397.40 1.867
397.50 1.872
397.60 1.876
397.70 1.881
397.80 1.886
397.90 1.891
398.00 1.895
398.10 1.9
398.20 1.904
398.30 1.909
398.40 1.913
398.50 1.917
398.60 1.921
398.70 1.925
398.80 1.929
398.90 1.932
399.00 1.936
399.10 1.939
399.20 1.942
399.30 1.946
399.40 1.949
399.50 1.951
399.60 1.954
399.70 1.957
399.80 1.959
399.90 1.961
400.00 1.963
400.10 1.965
400.20 1.967
400.30 1.969
400.40 1.971
400.50 1.972
400.60 1.973
400.70 1.975
400.80 1.976
400.90 1.977
401.00 1.978
401.10 1.978
401.20 1.979
401.30 1.979
401.40 1.98
401.50 1.98
401.60 1.98
401.70 1.98
401.80 1.98
401.90 1.979
402.00 1.979
402.10 1.978
402.20 1.978
402.30 1.977
402.40 1.976
402.50 1.975
402.60 1.974
402.70 1.972
402.80 1.971
402.90 1.969
403.00 1.968
403.10 1.966
403.20 1.964
403.30 1.962
403.40 1.96
403.50 1.958
403.60 1.955
403.70 1.953
403.80 1.95
403.90 1.947
404.00 1.944
404.10 1.941
404.20 1.938
404.30 1.935
404.40 1.931
404.50 1.928
404.60 1.924
404.70 1.92
404.80 1.916
404.90 1.912
405.00 1.908
405.10 1.903
405.20 1.899
405.30 1.894
405.40 1.889
405.50 1.884
405.60 1.879
405.70 1.874
405.80 1.868
405.90 1.862
406.00 1.857
406.10 1.851
406.20 1.844
406.30 1.838
406.40 1.832
406.50 1.825
406.60 1.818
406.70 1.811
406.80 1.804
406.90 1.796
407.00 1.789
407.10 1.781
407.20 1.773
407.30 1.765
407.40 1.757
407.50 1.748
407.60 1.739
407.70 1.73
407.80 1.721
407.90 1.712
408.00 1.702
408.10 1.693
408.20 1.683
408.30 1.673
408.40 1.662
408.50 1.652
408.60 1.641
408.70 1.63
408.80 1.619
408.90 1.607
409.00 1.596
409.10 1.584
409.20 1.573
409.30 1.561
409.40 1.549
409.50 1.537
409.60 1.526
409.70 1.515
409.80 1.505
409.90 1.496
410.00 1.491
410.10 1.488
410.20 1.489
410.30 1.487
410.40 1.489
410.50 1.494
410.60 1.501
410.70 1.51
410.80 1.519
410.90 1.528
411.00 1.537
411.10 1.547
411.20 1.556
411.30 1.566
411.40 1.575
411.50 1.584
411.60 1.593
411.70 1.602
411.80 1.61
411.90 1.618
412.00 1.626
412.10 1.634
412.20 1.642
412.30 1.649
412.40 1.656
412.50 1.663
412.60 1.67
412.70 1.677
412.80 1.683
412.90 1.689
413.00 1.695
413.10 1.701
413.20 1.707
413.30 1.712
413.40 1.717
413.50 1.723
413.60 1.728
413.70 1.732
413.80 1.737
413.90 1.741
414.00 1.746
414.10 1.75
414.20 1.754
414.30 1.758
414.40 1.762
414.50 1.765
414.60 1.769
414.70 1.772
414.80 1.775
414.90 1.778
415.00 1.781
415.10 1.784
415.20 1.787
415.30 1.789
415.40 1.792
415.50 1.794
415.60 1.796
415.70 1.798
415.80 1.8
415.90 1.802
416.00 1.804
416.10 1.806
416.20 1.808
416.30 1.809
416.40 1.811
416.50 1.812
416.60 1.813
416.70 1.815
416.80 1.816
416.90 1.817
417.00 1.818
417.10 1.819
417.20 1.82
417.30 1.82
417.40 1.821
417.50 1.822
417.60 1.822
417.70 1.823
417.80 1.823
417.90 1.823
418.00 1.824
418.10 1.824
418.20 1.824
418.30 1.824
418.40 1.824
418.50 1.824
418.60 1.824
418.70 1.824
418.80 1.824
418.90 1.824
419.00 1.824
419.10 1.823
419.20 1.823
419.30 1.822
419.40 1.822
419.50 1.822
419.60 1.821
419.70 1.82
419.80 1.82
419.90 1.819
420.00 1.818
420.10 1.818
420.20 1.817
420.30 1.816
420.40 1.815
420.50 1.814
420.60 1.813
420.70 1.812
420.80 1.811
420.90 1.81
421.00 1.809
421.10 1.807
421.20 1.806
421.30 1.805
421.40 1.804
421.50 1.802
421.60 1.801
421.70 1.799
421.80 1.798
421.90 1.797
422.00 1.795
422.10 1.793
422.20 1.792
422.30 1.79
422.40 1.788
422.50 1.787
422.60 1.785
422.70 1.783
422.80 1.781
422.90 1.779
423.00 1.778
423.10 1.776
423.20 1.774
423.30 1.772
423.40 1.769
423.50 1.767
423.60 1.765
423.70 1.763
423.80 1.761
423.90 1.758
424.00 1.756
424.10 1.754
424.20 1.751
424.30 1.749
424.40 1.746
424.50 1.744
424.60 1.741
424.70 1.738
424.80 1.736
424.90 1.733
425.00 1.73
425.10 1.727
425.20 1.724
425.30 1.721
425.40 1.718
425.50 1.715
425.60 1.712
425.70 1.709
425.80 1.705
425.90 1.702
426.00 1.699
426.10 1.695
426.20 1.692
426.30 1.688
426.40 1.684
426.50 1.681
426.60 1.677
426.70 1.673
426.80 1.669
426.90 1.665
427.00 1.661
427.10 1.657
427.20 1.653
427.30 1.648
427.40 1.644
427.50 1.639
427.60 1.635
427.70 1.63
427.80 1.625
427.90 1.62
428.00 1.615
428.10 1.61
428.20 1.605
428.30 1.6
428.40 1.595
428.50 1.589
428.60 1.584
428.70 1.578
428.80 1.572
428.90 1.566
429.00 1.56
429.10 1.554
429.20 1.548
429.30 1.542
429.40 1.535
429.50 1.529
429.60 1.522
429.70 1.515
429.80 1.508
429.90 1.501
430.00 1.494
430.10 1.487
430.20 1.479
430.30 1.471
430.40 1.464
430.50 1.456
430.60 1.448
430.70 1.439
430.80 1.431
430.90 1.423
431.00 1.414
431.10 1.405
431.20 1.396
431.30 1.387
431.40 1.377
431.50 1.367
431.60 1.358
431.70 1.348
431.80 1.337
431.90 1.327
432.00 1.316
432.10 1.305
432.20 1.294
432.30 1.283
432.40 1.271
432.50 1.259
432.60 1.247
432.70 1.234
432.80 1.221
432.90 1.208
433.00 1.195
433.10 1.181
433.20 1.167
433.30 1.153
433.40 1.138
433.50 1.123
433.60 1.108
433.70 1.092
433.80 1.075
433.90 1.056
434.00 1.03
434.10 1.03
434.20 1.055
434.30 1.072
434.40 1.088
434.50 1.102
434.60 1.116
434.70 1.129
434.80 1.142
434.90 1.155
435.00 1.167
435.10 1.179
435.20 1.19
435.30 1.201
435.40 1.212
435.50 1.223
435.60 1.233
435.70 1.243
435.80 1.252
435.90 1.262
436.00 1.271
436.10 1.279
436.20 1.288
436.30 1.296
436.40 1.304
436.50 1.312
436.60 1.32
436.70 1.327
436.80 1.334
436.90 1.341
437.00 1.348
437.10 1.354
437.20 1.361
437.30 1.367
437.40 1.373
437.50 1.379
437.60 1.384
437.70 1.39
437.80 1.395
437.90 1.4
438.00 1.405
438.10 1.41
438.20 1.415
438.30 1.419
438.40 1.424
438.50 1.428
438.60 1.432
438.70 1.436
438.80 1.44
438.90 1.444
439.00 1.448
439.10 1.451
439.20 1.455
439.30 1.458
439.40 1.461
439.50 1.464
439.60 1.467
439.70 1.47
439.80 1.473
439.90 1.476
440.00 1.478
440.10 1.481
440.20 1.483
440.30 1.485
440.40 1.487
440.50 1.49
440.60 1.492
440.70 1.494
440.80 1.495
440.90 1.497
441.00 1.499
441.10 1.5
441.20 1.502
441.30 1.503
441.40 1.505
441.50 1.506
441.60 1.507
441.70 1.509
441.80 1.51
441.90 1.511
442.00 1.512
442.10 1.513
442.20 1.514
442.30 1.515
442.40 1.515
442.50 1.516
442.60 1.517
442.70 1.517
442.80 1.518
442.90 1.518
443.00 1.519
443.10 1.519
443.20 1.52
443.30 1.52
443.40 1.52
443.50 1.521
443.60 1.521
443.70 1.521
443.80 1.521
443.90 1.521
444.00 1.521
444.10 1.522
444.20 1.522
444.30 1.522
444.40 1.521
444.50 1.521
444.60 1.521
444.70 1.521
444.80 1.521
444.90 1.521
445.00 1.521
445.10 1.52
445.20 1.52
445.30 1.52
445.40 1.519
445.50 1.519
445.60 1.519
445.70 1.518
445.80 1.518
445.90 1.518
446.00 1.517
446.10 1.517
446.20 1.516
446.30 1.516
446.40 1.515
446.50 1.515
446.60 1.514
446.70 1.514
446.80 1.513
446.90 1.512
447.00 1.512
447.10 1.511
447.20 1.511
447.30 1.51
447.40 1.509
447.50 1.509
447.60 1.508
447.70 1.507
447.80 1.506
447.90 1.506
448.00 1.505
448.10 1.504
448.20 1.503
448.30 1.503
448.40 1.502
448.50 1.501
448.60 1.5
448.70 1.5
448.80 1.499
448.90 1.498
449.00 1.497
449.10 1.496
449.20 1.495
449.30 1.495
449.40 1.494
449.50 1.493
449.60 1.492
449.70 1.491
449.80 1.49
449.90 1.489
450.00 1.488
450.10 1.487
450.20 1.487
450.30 1.486
450.40 1.485
450.50 1.484
450.60 1.483
450.70 1.482
450.80 1.481
450.90 1.48
451.00 1.479
451.10 1.478
451.20 1.477
451.30 1.476
451.40 1.475
451.50 1.474
451.60 1.473
451.70 1.472
451.80 1.471
451.90 1.47
452.00 1.469
452.10 1.468
452.20 1.467
452.30 1.466
452.40 1.465
452.50 1.464
452.60 1.463
452.70 1.462
452.80 1.461
452.90 1.46
453.00 1.459
453.10 1.458
453.20 1.457
453.30 1.456
453.40 1.455
453.50 1.454
453.60 1.453
453.70 1.452
453.80 1.45
453.90 1.449
454.00 1.448
454.10 1.447
454.20 1.446
454.30 1.445
454.40 1.444
454.50 1.443
454.60 1.442
454.70 1.441
454.80 1.44
454.90 1.439
455.00 1.438
455.10 1.436
455.20 1.435
455.30 1.434
455.40 1.433
455.50 1.432
455.60 1.431
455.70 1.43
455.80 1.429
455.90 1.428
456.00 1.427
456.10 1.426
456.20 1.424
456.30 1.423
456.40 1.422
456.50 1.421
456.60 1.42
456.70 1.419
456.80 1.418
456.90 1.417
457.00 1.416
457.10 1.414
457.20 1.413
457.30 1.412
457.40 1.411
457.50 1.41
457.60 1.409
457.70 1.408
457.80 1.407
457.90 1.405
458.00 1.404
458.10 1.403
458.20 1.402
458.30 1.401
458.40 1.4
458.50 1.399
458.60 1.398
458.70 1.396
458.80 1.395
458.90 1.394
459.00 1.393
459.10 1.392
459.20 1.391
459.30 1.39
459.40 1.389
459.50 1.387
459.60 1.386
459.70 1.385
459.80 1.384
459.90 1.383
460.00 1.382
460.10 1.381
460.20 1.379
460.30 1.378
460.40 1.377
460.50 1.376
460.60 1.375
460.70 1.374
460.80 1.372
460.90 1.371
461.00 1.37
461.10 1.369
461.20 1.368
461.30 1.367
461.40 1.366
461.50 1.364
461.60 1.363
461.70 1.362
461.80 1.361
461.90 1.36
462.00 1.359
462.10 1.357
462.20 1.356
462.30 1.355
462.40 1.354
462.50 1.353
462.60 1.352
462.70 1.35
462.80 1.349
462.90 1.348
463.00 1.347
463.10 1.346
463.20 1.345
463.30 1.343
463.40 1.342
463.50 1.341
463.60 1.34
463.70 1.339
463.80 1.337
463.90 1.336
464.00 1.335
464.10 1.334
464.20 1.333
464.30 1.332
464.40 1.33
464.50 1.329
464.60 1.328
464.70 1.327
464.80 1.326
464.90 1.324
465.00 1.323
465.10 1.322
465.20 1.321
465.30 1.32
465.40 1.318
465.50 1.317
465.60 1.316
465.70 1.315
465.80 1.314
465.90 1.312
466.00 1.311
466.10 1.31
466.20 1.309
466.30 1.307
466.40 1.306
466.50 1.305
466.60 1.304
466.70 1.303
466.80 1.301
466.90 1.3
467.00 1.299
467.10 1.298
467.20 1.296
467.30 1.295
467.40 1.294
467.50 1.293
467.60 1.291
467.70 1.29
467.80 1.289
467.90 1.288
468.00 1.286
468.10 1.285
468.20 1.284
468.30 1.283
468.40 1.281
468.50 1.28
468.60 1.279
468.70 1.277
468.80 1.276
468.90 1.275
469.00 1.274
469.10 1.272
469.20 1.271
469.30 1.27
469.40 1.268
469.50 1.267
469.60 1.266
469.70 1.264
469.80 1.263
469.90 1.262
470.00 1.26
470.10 1.259
470.20 1.258
470.30 1.256
470.40 1.255
470.50 1.253
470.60 1.252
470.70 1.251
470.80 1.249
470.90 1.248
471.00 1.247
471.10 1.245
471.20 1.244
471.30 1.242
471.40 1.241
471.50 1.239
471.60 1.238
471.70 1.237
471.80 1.235
471.90 1.234
472.00 1.232
472.10 1.231
472.20 1.229
472.30 1.228
472.40 1.226
472.50 1.225
472.60 1.223
472.70 1.222
472.80 1.22
472.90 1.219
473.00 1.217
473.10 1.216
473.20 1.214
473.30 1.212
473.40 1.211
473.50 1.209
473.60 1.207
473.70 1.206
473.80 1.204
473.90 1.203
474.00 1.201
474.10 1.199
474.20 1.198
474.30 1.196
474.40 1.194
474.50 1.192
474.60 1.191
474.70 1.189
474.80 1.187
474.90 1.185
475.00 1.184
475.10 1.182
475.20 1.18
475.30 1.178
475.40 1.176
475.50 1.174
475.60 1.172
475.70 1.17
475.80 1.168
475.90 1.167
476.00 1.165
476.10 1.163
476.20 1.161
476.30 1.159
476.40 1.156
476.50 1.154
476.60 1.152
476.70 1.15
476.80 1.148
476.90 1.146
477.00 1.144
477.10 1.142
477.20 1.139
477.30 1.137
477.40 1.134
477.50 1.132
477.60 1.13
477.70 1.127
477.80 1.125
477.90 1.122
478.00 1.12
478.10 1.118
478.20 1.115
478.30 1.112
478.40 1.11
478.50 1.107
478.60 1.104
478.70 1.101
478.80 1.099
478.90 1.096
479.00 1.093
479.10 1.09
479.20 1.087
479.30 1.084
479.40 1.081
479.50 1.078
479.60 1.075
479.70 1.072
479.80 1.068
479.90 1.065
480.00 1.062
480.10 1.059
480.20 1.055
480.30 1.052
480.40 1.048
480.50 1.044
480.60 1.041
480.70 1.037
480.80 1.033
480.90 1.03
481.00 1.026
481.10 1.022
481.20 1.018
481.30 1.014
481.40 1.009
481.50 1.005
481.60 1.001
481.70 0.9961
481.80 0.9918
481.90 0.9874
482.00 0.983
482.10 0.9787
482.20 0.9737
482.30 0.9684
482.40 0.9631
482.50 0.9578
482.60 0.9526
482.70 0.9473
482.80 0.942
482.90 0.9368
483.00 0.9315
483.10 0.9263
483.20 0.9202
483.30 0.9136
483.40 0.9071
483.50 0.9006
483.60 0.8941
483.70 0.8876
483.80 0.8811
483.90 0.8746
484.00 0.8681
484.10 0.8616
484.20 0.8542
484.30 0.8464
484.40 0.8385
484.50 0.8307
484.60 0.8228
484.70 0.8141
484.80 0.8048
484.90 0.7956
485.00 0.7864
485.10 0.7772
485.20 0.7671
485.30 0.7565
485.40 0.7452
485.50 0.7337
485.60 0.7213
485.70 0.7084
485.80 0.6948
485.90 0.6807
486.00 0.6674
486.10 0.6703
486.20 0.6633
486.30 0.6702
486.40 0.6832
486.50 0.6963
486.60 0.7086
486.70 0.7205
486.80 0.7314
486.90 0.742
487.00 0.7517
487.10 0.7612
487.20 0.7697
487.30 0.7777
487.40 0.7858
487.50 0.7938
487.60 0.8019
487.70 0.8089
487.80 0.8155
487.90 0.822
488.00 0.8286
488.10 0.8352
488.20 0.8407
488.30 0.8458
488.40 0.851
488.50 0.8561
488.60 0.8612
488.70 0.8663
488.80 0.8714
488.90 0.8764
489.00 0.8815
489.10 0.8866
489.20 0.8908
489.30 0.8945
489.40 0.8983
489.50 0.902
489.60 0.9058
489.70 0.9095
489.80 0.9132
489.90 0.917
490.00 0.9207
490.10 0.9244
490.20 0.9275
490.30 0.9303
490.40 0.933
490.50 0.9358
490.60 0.9385
490.70 0.9413
490.80 0.944
490.90 0.9468
491.00 0.9495
491.10 0.9523
491.20 0.9545
491.30 0.9565
491.40 0.9585
491.50 0.9605
491.60 0.9625
491.70 0.9645
491.80 0.9665
491.90 0.9685
492.00 0.9704
492.10 0.9724
492.20 0.974
492.30 0.9754
492.40 0.9768
492.50 0.9782
492.60 0.9796
492.70 0.981
492.80 0.9824
492.90 0.9838
493.00 0.9852
493.10 0.9866
493.20 0.9877
493.30 0.9886
493.40 0.9895
493.50 0.9905
493.60 0.9914
493.70 0.9923
493.80 0.9933
493.90 0.9942
494.00 0.9951
494.10 0.9961
494.20 0.9968
494.30 0.9973
494.40 0.9979
494.50 0.9985
494.60 0.9991
494.70 0.9996
494.80 1
494.90 1.001
495.00 1.001
495.10 1.002
495.20 1.002
495.30 1.003
495.40 1.003
495.50 1.003
495.60 1.003
495.70 1.004
495.80 1.004
495.90 1.004
496.00 1.005
496.10 1.005
496.20 1.005
496.30 1.005
496.40 1.005
496.50 1.005
496.60 1.005
496.70 1.005
496.80 1.006
496.90 1.006
497.00 1.006
497.10 1.006
497.20 1.006
497.30 1.006
497.40 1.006
497.50 1.005
497.60 1.005
497.70 1.005
497.80 1.005
497.90 1.005
498.00 1.005
498.10 1.005
498.20 1.005
498.30 1.005
498.40 1.004
498.50 1.004
498.60 1.004
498.70 1.004
498.80 1.003
498.90 1.003
499.00 1.003
499.10 1.003
499.20 1.003
499.30 1.002
499.40 1.002
499.50 1.002
499.60 1.001
499.70 1.001
499.80 1.001
499.90 1
500.00 1
500.10 0.9997
500.20 0.9993
500.30 0.9989
500.40 0.9985
500.50 0.9981
500.60 0.9977
500.70 0.9973
500.80 0.997
500.90 0.9966
501.00 0.9962
501.10 0.9958
501.20 0.9953
501.30 0.9949
501.40 0.9944
501.50 0.994
501.60 0.9935
501.70 0.9931
501.80 0.9926
501.90 0.9922
502.00 0.9917
502.10 0.9913
502.20 0.9908
502.30 0.9903
502.40 0.9898
502.50 0.9893
502.60 0.9888
502.70 0.9883
502.80 0.9878
502.90 0.9873
503.00 0.9868
503.10 0.9863
503.20 0.9858
503.30 0.9852
503.40 0.9847
503.50 0.9842
503.60 0.9836
503.70 0.9831
503.80 0.9826
503.90 0.982
504.00 0.9815
504.10 0.981
504.20 0.9804
504.30 0.9799
504.40 0.9793
504.50 0.9787
504.60 0.9782
504.70 0.9776
504.80 0.9771
504.90 0.9765
505.00 0.9759
505.10 0.9754
505.20 0.9748
505.30 0.9742
505.40 0.9736
505.50 0.973
505.60 0.9725
505.70 0.9719
505.80 0.9713
505.90 0.9707
506.00 0.9701
506.10 0.9696
506.20 0.969
506.30 0.9684
506.40 0.9678
506.50 0.9672
506.60 0.9666
506.70 0.966
506.80 0.9654
506.90 0.9648
507.00 0.9642
507.10 0.9636
507.20 0.963
507.30 0.9624
507.40 0.9618
507.50 0.9612
507.60 0.9605
507.70 0.9599
507.80 0.9593
507.90 0.9587
508.00 0.9581
508.10 0.9575
508.20 0.9569
508.30 0.9563
508.40 0.9557
508.50 0.955
508.60 0.9544
508.70 0.9538
508.80 0.9532
508.90 0.9526
509.00 0.9519
509.10 0.9513
509.20 0.9507
509.30 0.9501
509.40 0.9495
509.50 0.9488
509.60 0.9482
509.70 0.9476
509.80 0.947
509.90 0.9463
510.00 0.9457
510.10 0.9451
510.20 0.9445
510.30 0.9438
510.40 0.9432
510.50 0.9426
510.60 0.9419
510.70 0.9413
510.80 0.9407
510.90 0.9401
511.00 0.9394
511.10 0.9388
511.20 0.9382
511.30 0.9375
511.40 0.9369
511.50 0.9363
511.60 0.9357
511.70 0.935
511.80 0.9344
511.90 0.9338
512.00 0.9331
512.10 0.9325
512.20 0.9319
512.30 0.9312
512.40 0.9306
512.50 0.93
512.60 0.9293
512.70 0.9287
512.80 0.9281
512.90 0.9274
513.00 0.9268
513.10 0.9262
513.20 0.9256
513.30 0.9249
513.40 0.9243
513.50 0.9237
513.60 0.923
513.70 0.9224
513.80 0.9218
513.90 0.9211
514.00 0.9205
514.10 0.9199
514.20 0.9192
514.30 0.9186
514.40 0.918
514.50 0.9173
514.60 0.9167
514.70 0.9161
514.80 0.9154
514.90 0.9148
515.00 0.9142
515.10 0.9136
515.20 0.9129
515.30 0.9123
515.40 0.9117
515.50 0.911
515.60 0.9104
515.70 0.9098
515.80 0.9091
515.90 0.9085
516.00 0.9079
516.10 0.9073
516.20 0.9066
516.30 0.906
516.40 0.9054
516.50 0.9047
516.60 0.9041
516.70 0.9035
516.80 0.9029
516.90 0.9022
517.00 0.9016
517.10 0.901
517.20 0.9004
517.30 0.8997
517.40 0.8991
517.50 0.8985
517.60 0.8979
517.70 0.8972
517.80 0.8966
517.90 0.896
518.00 0.8954
518.10 0.8947
518.20 0.8941
518.30 0.8935
518.40 0.8929
518.50 0.8922
518.60 0.8916
518.70 0.891
518.80 0.8904
518.90 0.8897
519.00 0.8891
519.10 0.8885
519.20 0.8879
519.30 0.8873
519.40 0.8866
519.50 0.886
519.60 0.8854
519.70 0.8848
519.80 0.8842
519.90 0.8836
520.00 0.8829
520.10 0.8823
520.20 0.8817
520.30 0.8811
520.40 0.8805
520.50 0.8798
520.60 0.8792
520.70 0.8786
520.80 0.878
520.90 0.8774
521.00 0.8768
521.10 0.8762
521.20 0.8755
521.30 0.8749
521.40 0.8743
521.50 0.8737
521.60 0.8731
521.70 0.8725
521.80 0.8719
521.90 0.8713
522.00 0.8707
522.10 0.87
522.20 0.8694
522.30 0.8688
522.40 0.8682
522.50 0.8676
522.60 0.867
522.70 0.8664
522.80 0.8658
522.90 0.8652
523.00 0.8646
523.10 0.864
523.20 0.8634
523.30 0.8628
523.40 0.8622
523.50 0.8615
523.60 0.8609
523.70 0.8603
523.80 0.8597
523.90 0.8591
524.00 0.8585
524.10 0.8579
524.20 0.8573
524.30 0.8567
524.40 0.8561
524.50 0.8555
524.60 0.8549
524.70 0.8543
524.80 0.8537
524.90 0.8531
525.00 0.8525
525.10 0.8519
525.20 0.8513
525.30 0.8507
525.40 0.8501
525.50 0.8495
525.60 0.8489
525.70 0.8484
525.80 0.8478
525.90 0.8472
526.00 0.8466
526.10 0.846
526.20 0.8454
526.30 0.8448
526.40 0.8442
526.50 0.8436
526.60 0.843
526.70 0.8424
526.80 0.8418
526.90 0.8412
527.00 0.8407
527.10 0.8401
527.20 0.8395
527.30 0.8389
527.40 0.8383
527.50 0.8377
527.60 0.8371
527.70 0.8365
527.80 0.836
527.90 0.8354
528.00 0.8348
528.10 0.8342
528.20 0.8336
528.30 0.833
528.40 0.8324
528.50 0.8319
528.60 0.8313
528.70 0.8307
528.80 0.8301
528.90 0.8295
529.00 0.829
529.10 0.8284
529.20 0.8278
529.30 0.8272
529.40 0.8266
529.50 0.8261
529.60 0.8255
529.70 0.8249
529.80 0.8243
529.90 0.8237
530.00 0.8232
530.10 0.8226
530.20 0.822
530.30 0.8214
530.40 0.8209
530.50 0.8203
530.60 0.8197
530.70 0.8192
530.80 0.8186
530.90 0.818
531.00 0.8174
531.10 0.8169
531.20 0.8163
531.30 0.8157
531.40 0.8152
531.50 0.8146
531.60 0.814
531.70 0.8134
531.80 0.8129
531.90 0.8123
532.00 0.8117
532.10 0.8112
532.20 0.8106
532.30 0.81
532.40 0.8095
532.50 0.8089
532.60 0.8083
532.70 0.8078
532.80 0.8072
532.90 0.8067
533.00 0.8061
533.10 0.8055
533.20 0.805
533.30 0.8044
533.40 0.8038
533.50 0.8033
533.60 0.8027
533.70 0.8022
533.80 0.8016
533.90 0.8011
534.00 0.8005
534.10 0.7999
534.20 0.7994
534.30 0.7988
534.40 0.7983
534.50 0.7977
534.60 0.7972
534.70 0.7966
534.80 0.796
534.90 0.7955
535.00 0.7949
535.10 0.7944
535.20 0.7938
535.30 0.7933
535.40 0.7927
535.50 0.7922
535.60 0.7916
535.70 0.7911
535.80 0.7905
535.90 0.79
536.00 0.7894
536.10 0.7889
536.20 0.7883
536.30 0.7878
536.40 0.7872
536.50 0.7867
536.60 0.7861
536.70 0.7856
536.80 0.785
536.90 0.7845
537.00 0.784
537.10 0.7834
537.20 0.7829
537.30 0.7823
537.40 0.7818
537.50 0.7812
537.60 0.7807
537.70 0.7802
537.80 0.7796
537.90 0.7791
538.00 0.7785
538.10 0.778
538.20 0.7775
538.30 0.7769
538.40 0.7764
538.50 0.7758
538.60 0.7753
538.70 0.7748
538.80 0.7742
538.90 0.7737
539.00 0.7732
539.10 0.7726
539.20 0.7721
539.30 0.7716
539.40 0.771
539.50 0.7705
539.60 0.77
539.70 0.7694
539.80 0.7689
539.90 0.7684
540.00 0.7678
540.10 0.7673
540.20 0.7668
540.30 0.7662
540.40 0.7657
540.50 0.7652
540.60 0.7646
540.70 0.7641
540.80 0.7636
540.90 0.7631
541.00 0.7625
541.10 0.762
541.20 0.7615
541.30 0.761
541.40 0.7604
541.50 0.7599
541.60 0.7594
541.70 0.7589
541.80 0.7583
541.90 0.7578
542.00 0.7573
542.10 0.7568
542.20 0.7562
542.30 0.7557
542.40 0.7552
542.50 0.7547
542.60 0.7542
542.70 0.7536
542.80 0.7531
542.90 0.7526
543.00 0.7521
543.10 0.7516
543.20 0.751
543.30 0.7505
543.40 0.75
543.50 0.7495
543.60 0.749
543.70 0.7485
543.80 0.748
543.90 0.7474
544.00 0.7469
544.10 0.7464
544.20 0.7459
544.30 0.7454
544.40 0.7449
544.50 0.7444
544.60 0.7438
544.70 0.7433
544.80 0.7428
544.90 0.7423
545.00 0.7418
545.10 0.7413
545.20 0.7408
545.30 0.7403
545.40 0.7398
545.50 0.7393
545.60 0.7388
545.70 0.7383
545.80 0.7377
545.90 0.7372
546.00 0.7367
546.10 0.7362
546.20 0.7357
546.30 0.7352
546.40 0.7347
546.50 0.7342
546.60 0.7337
546.70 0.7332
546.80 0.7327
546.90 0.7322
547.00 0.7317
547.10 0.7312
547.20 0.7307
547.30 0.7302
547.40 0.7297
547.50 0.7292
547.60 0.7287
547.70 0.7282
547.80 0.7277
547.90 0.7272
548.00 0.7267
548.10 0.7262
548.20 0.7257
548.30 0.7252
548.40 0.7247
548.50 0.7242
548.60 0.7237
548.70 0.7232
548.80 0.7227
548.90 0.7223
549.00 0.7218
549.10 0.7213
549.20 0.7208
549.30 0.7203
549.40 0.7198
549.50 0.7193
549.60 0.7188
549.70 0.7183
549.80 0.7178
549.90 0.7173
550.00 0.7169
550.10 0.7164
550.20 0.7159
550.30 0.7154
550.40 0.7149
550.50 0.7144
550.60 0.7139
550.70 0.7134
550.80 0.713
550.90 0.7125
551.00 0.712
551.10 0.7115
551.20 0.711
551.30 0.7105
551.40 0.7101
551.50 0.7096
551.60 0.7091
551.70 0.7086
551.80 0.7081
551.90 0.7076
552.00 0.7072
552.10 0.7067
552.20 0.7062
552.30 0.7057
552.40 0.7052
552.50 0.7048
552.60 0.7043
552.70 0.7038
552.80 0.7033
552.90 0.7029
553.00 0.7024
553.10 0.7019
553.20 0.7014
553.30 0.7009
553.40 0.7005
553.50 0.7
553.60 0.6995
553.70 0.699
553.80 0.6986
553.90 0.6981
554.00 0.6976
554.10 0.6972
554.20 0.6967
554.30 0.6962
554.40 0.6957
554.50 0.6953
554.60 0.6948
554.70 0.6943
554.80 0.6939
554.90 0.6934
555.00 0.6929
555.10 0.6925
555.20 0.692
555.30 0.6915
555.40 0.691
555.50 0.6906
555.60 0.6901
555.70 0.6896
555.80 0.6892
555.90 0.6887
556.00 0.6883
556.10 0.6878
556.20 0.6873
556.30 0.6869
556.40 0.6864
556.50 0.6859
556.60 0.6855
556.70 0.685
556.80 0.6845
556.90 0.6841
557.00 0.6836
557.10 0.6832
557.20 0.6827
557.30 0.6822
557.40 0.6818
557.50 0.6813
557.60 0.6809
557.70 0.6804
557.80 0.6799
557.90 0.6795
558.00 0.679
558.10 0.6786
558.20 0.6781
558.30 0.6777
558.40 0.6772
558.50 0.6768
558.60 0.6763
558.70 0.6758
558.80 0.6754
558.90 0.6749
559.00 0.6745
559.10 0.674
559.20 0.6736
559.30 0.6731
559.40 0.6727
559.50 0.6722
559.60 0.6718
559.70 0.6713
559.80 0.6709
559.90 0.6704
560.00 0.67
560.10 0.6695
560.20 0.6691
560.30 0.6686
560.40 0.6682
560.50 0.6677
560.60 0.6673
560.70 0.6668
560.80 0.6664
560.90 0.6659
561.00 0.6655
561.10 0.665
561.20 0.6646
561.30 0.6641
561.40 0.6637
561.50 0.6633
561.60 0.6628
561.70 0.6624
561.80 0.6619
561.90 0.6615
562.00 0.661
562.10 0.6606
562.20 0.6602
562.30 0.6597
562.40 0.6593
562.50 0.6588
562.60 0.6584
562.70 0.658
562.80 0.6575
562.90 0.6571
563.00 0.6566
563.10 0.6562
563.20 0.6558
563.30 0.6553
563.40 0.6549
563.50 0.6544
563.60 0.654
563.70 0.6536
563.80 0.6531
563.90 0.6527
564.00 0.6523
564.10 0.6518
564.20 0.6514
564.30 0.651
564.40 0.6505
564.50 0.6501
564.60 0.6497
564.70 0.6492
564.80 0.6488
564.90 0.6484
565.00 0.6479
565.10 0.6475
565.20 0.6471
565.30 0.6466
565.40 0.6462
565.50 0.6458
565.60 0.6454
565.70 0.6449
565.80 0.6445
565.90 0.6441
566.00 0.6436
566.10 0.6432
566.20 0.6428
566.30 0.6424
566.40 0.6419
566.50 0.6415
566.60 0.6411
566.70 0.6407
566.80 0.6402
566.90 0.6398
567.00 0.6394
567.10 0.639
567.20 0.6385
567.30 0.6381
567.40 0.6377
567.50 0.6373
567.60 0.6368
567.70 0.6364
567.80 0.636
567.90 0.6356
568.00 0.6351
568.10 0.6347
568.20 0.6343
568.30 0.6339
568.40 0.6335
568.50 0.633
568.60 0.6326
568.70 0.6322
568.80 0.6318
568.90 0.6314
569.00 0.631
569.10 0.6305
569.20 0.6301
569.30 0.6297
569.40 0.6293
569.50 0.6289
569.60 0.6285
569.70 0.628
569.80 0.6276
569.90 0.6272
570.00 0.6268
570.10 0.6264
570.20 0.626
570.30 0.6256
570.40 0.6251
570.50 0.6247
570.60 0.6243
570.70 0.6239
570.80 0.6235
570.90 0.6231
571.00 0.6227
571.10 0.6223
571.20 0.6218
571.30 0.6214
571.40 0.621
571.50 0.6206
571.60 0.6202
571.70 0.6198
571.80 0.6194
571.90 0.619
572.00 0.6186
572.10 0.6182
572.20 0.6178
572.30 0.6174
572.40 0.617
572.50 0.6165
572.60 0.6161
572.70 0.6157
572.80 0.6153
572.90 0.6149
573.00 0.6145
573.10 0.6141
573.20 0.6137
573.30 0.6133
573.40 0.6129
573.50 0.6125
573.60 0.6121
573.70 0.6117
573.80 0.6113
573.90 0.6109
574.00 0.6105
574.10 0.6101
574.20 0.6097
574.30 0.6093
574.40 0.6089
574.50 0.6085
574.60 0.6081
574.70 0.6077
574.80 0.6073
574.90 0.6069
575.00 0.6065
575.10 0.6061
575.20 0.6057
575.30 0.6053
575.40 0.6049
575.50 0.6045
575.60 0.6041
575.70 0.6037
575.80 0.6033
575.90 0.6029
576.00 0.6025
576.10 0.6021
576.20 0.6018
576.30 0.6014
576.40 0.601
576.50 0.6006
576.60 0.6002
576.70 0.5998
576.80 0.5994
576.90 0.599
577.00 0.5986
577.10 0.5982
577.20 0.5978
577.30 0.5974
577.40 0.597
577.50 0.5967
577.60 0.5963
577.70 0.5959
577.80 0.5955
577.90 0.5951
578.00 0.5947
578.10 0.5943
578.20 0.5939
578.30 0.5935
578.40 0.5932
578.50 0.5928
578.60 0.5924
578.70 0.592
578.80 0.5916
578.90 0.5912
579.00 0.5908
579.10 0.5905
579.20 0.5901
579.30 0.5897
579.40 0.5893
579.50 0.5889
579.60 0.5885
579.70 0.5882
579.80 0.5878
579.90 0.5874
580.00 0.587
580.10 0.5866
580.20 0.5862
580.30 0.5859
580.40 0.5855
580.50 0.5851
580.60 0.5847
580.70 0.5843
580.80 0.584
580.90 0.5836
581.00 0.5832
581.10 0.5828
581.20 0.5824
581.30 0.5821
581.40 0.5817
581.50 0.5813
581.60 0.5809
581.70 0.5806
581.80 0.5802
581.90 0.5798
582.00 0.5794
582.10 0.5791
582.20 0.5787
582.30 0.5783
582.40 0.5779
582.50 0.5776
582.60 0.5772
582.70 0.5768
582.80 0.5764
582.90 0.5761
583.00 0.5757
583.10 0.5753
583.20 0.5749
583.30 0.5746
583.40 0.5742
583.50 0.5738
583.60 0.5735
583.70 0.5731
583.80 0.5727
583.90 0.5723
584.00 0.572
584.10 0.5716
584.20 0.5712
584.30 0.5709
584.40 0.5705
584.50 0.5701
584.60 0.5698
584.70 0.5694
584.80 0.569
584.90 0.5686
585.00 0.5683
585.10 0.5679
585.20 0.5675
585.30 0.5672
585.40 0.5668
585.50 0.5665
585.60 0.5661
585.70 0.5657
585.80 0.5654
585.90 0.565
586.00 0.5646
586.10 0.5643
586.20 0.5639
586.30 0.5635
586.40 0.5632
586.50 0.5628
586.60 0.5624
586.70 0.5621
586.80 0.5617
586.90 0.5614
587.00 0.561
587.10 0.5606
587.20 0.5603
587.30 0.5599
587.40 0.5596
587.50 0.5592
587.60 0.5588
587.70 0.5585
587.80 0.5581
587.90 0.5578
588.00 0.5574
588.10 0.557
588.20 0.5567
588.30 0.5563
588.40 0.556
588.50 0.5556
588.60 0.5553
588.70 0.5549
588.80 0.5545
588.90 0.5542
589.00 0.5538
589.10 0.5535
589.20 0.5531
589.30 0.5528
589.40 0.5524
589.50 0.5521
589.60 0.5517
589.70 0.5513
589.80 0.551
589.90 0.5506
590.00 0.5503
590.10 0.5499
590.20 0.5496
590.30 0.5492
590.40 0.5489
590.50 0.5485
590.60 0.5482
590.70 0.5478
590.80 0.5475
590.90 0.5471
591.00 0.5468
591.10 0.5464
591.20 0.5461
591.30 0.5457
591.40 0.5454
591.50 0.545
591.60 0.5447
591.70 0.5443
591.80 0.544
591.90 0.5436
592.00 0.5433
592.10 0.5429
592.20 0.5426
592.30 0.5422
592.40 0.5419
592.50 0.5415
592.60 0.5412
592.70 0.5409
592.80 0.5405
592.90 0.5402
593.00 0.5398
593.10 0.5395
593.20 0.5391
593.30 0.5388
593.40 0.5384
593.50 0.5381
593.60 0.5378
593.70 0.5374
593.80 0.5371
593.90 0.5367
594.00 0.5364
594.10 0.536
594.20 0.5357
594.30 0.5354
594.40 0.535
594.50 0.5347
594.60 0.5343
594.70 0.534
594.80 0.5337
594.90 0.5333
595.00 0.533
595.10 0.5326
595.20 0.5323
595.30 0.532
595.40 0.5316
595.50 0.5313
595.60 0.5309
595.70 0.5306
595.80 0.5303
595.90 0.5299
596.00 0.5296
596.10 0.5293
596.20 0.5289
596.30 0.5286
596.40 0.5282
596.50 0.5279
596.60 0.5276
596.70 0.5272
596.80 0.5269
596.90 0.5266
597.00 0.5262
597.10 0.5259
597.20 0.5256
597.30 0.5252
597.40 0.5249
597.50 0.5246
597.60 0.5242
597.70 0.5239
597.80 0.5236
597.90 0.5232
598.00 0.5229
598.10 0.5226
598.20 0.5222
598.30 0.5219
598.40 0.5216
598.50 0.5212
598.60 0.5209
598.70 0.5206
598.80 0.5203
598.90 0.5199
599.00 0.5196
599.10 0.5193
599.20 0.5189
599.30 0.5186
599.40 0.5183
599.50 0.5179
599.60 0.5176
599.70 0.5173
599.80 0.517
599.90 0.5166
600.00 0.5163
600.10 0.516
600.20 0.5157
600.30 0.5153
600.40 0.515
600.50 0.5147
600.60 0.5144
600.70 0.514
600.80 0.5137
600.90 0.5134
601.00 0.5131
601.10 0.5127
601.20 0.5124
601.30 0.5121
601.40 0.5118
601.50 0.5114
601.60 0.5111
601.70 0.5108
601.80 0.5105
601.90 0.5101
602.00 0.5098
602.10 0.5095
602.20 0.5092
602.30 0.5089
602.40 0.5085
602.50 0.5082
602.60 0.5079
602.70 0.5076
602.80 0.5072
602.90 0.5069
603.00 0.5066
603.10 0.5063
603.20 0.506
603.30 0.5057
603.40 0.5053
603.50 0.505
603.60 0.5047
603.70 0.5044
603.80 0.5041
603.90 0.5037
604.00 0.5034
604.10 0.5031
604.20 0.5028
604.30 0.5025
604.40 0.5022
604.50 0.5018
604.60 0.5015
604.70 0.5012
604.80 0.5009
604.90 0.5006
605.00 0.5003
605.10 0.4999
605.20 0.4996
605.30 0.4993
605.40 0.499
605.50 0.4987
605.60 0.4984
605.70 0.4981
605.80 0.4977
605.90 0.4974
606.00 0.4971
606.10 0.4968
606.20 0.4965
606.30 0.4962
606.40 0.4959
606.50 0.4956
606.60 0.4952
606.70 0.4949
606.80 0.4946
606.90 0.4943
607.00 0.494
607.10 0.4937
607.20 0.4934
607.30 0.4931
607.40 0.4928
607.50 0.4925
607.60 0.4921
607.70 0.4918
607.80 0.4915
607.90 0.4912
608.00 0.4909
608.10 0.4906
608.20 0.4903
608.30 0.49
608.40 0.4897
608.50 0.4894
608.60 0.4891
608.70 0.4888
608.80 0.4884
608.90 0.4881
609.00 0.4878
609.10 0.4875
609.20 0.4872
609.30 0.4869
609.40 0.4866
609.50 0.4863
609.60 0.486
609.70 0.4857
609.80 0.4854
609.90 0.4851
610.00 0.4848
610.10 0.4845
610.20 0.4842
610.30 0.4839
610.40 0.4836
610.50 0.4833
610.60 0.483
610.70 0.4827
610.80 0.4824
610.90 0.4821
611.00 0.4817
611.10 0.4814
611.20 0.4811
611.30 0.4808
611.40 0.4805
611.50 0.4802
611.60 0.4799
611.70 0.4796
611.80 0.4793
611.90 0.479
612.00 0.4787
612.10 0.4784
612.20 0.4781
612.30 0.4778
612.40 0.4775
612.50 0.4772
612.60 0.4769
612.70 0.4766
612.80 0.4763
612.90 0.476
613.00 0.4757
613.10 0.4754
613.20 0.4752
613.30 0.4749
613.40 0.4746
613.50 0.4743
613.60 0.474
613.70 0.4737
613.80 0.4734
613.90 0.4731
614.00 0.4728
614.10 0.4725
614.20 0.4722
614.30 0.4719
614.40 0.4716
614.50 0.4713
614.60 0.471
614.70 0.4707
614.80 0.4704
614.90 0.4701
615.00 0.4698
615.10 0.4695
615.20 0.4692
615.30 0.4689
615.40 0.4686
615.50 0.4684
615.60 0.4681
615.70 0.4678
615.80 0.4675
615.90 0.4672
616.00 0.4669
616.10 0.4666
616.20 0.4663
616.30 0.466
616.40 0.4657
616.50 0.4654
616.60 0.4651
616.70 0.4648
616.80 0.4646
616.90 0.4643
617.00 0.464
617.10 0.4637
617.20 0.4634
617.30 0.4631
617.40 0.4628
617.50 0.4625
617.60 0.4622
617.70 0.4619
617.80 0.4616
617.90 0.4614
618.00 0.4611
618.10 0.4608
618.20 0.4605
618.30 0.4602
618.40 0.4599
618.50 0.4596
618.60 0.4593
618.70 0.459
618.80 0.4588
618.90 0.4585
619.00 0.4582
619.10 0.4579
619.20 0.4576
619.30 0.4573
619.40 0.457
619.50 0.4568
619.60 0.4565
619.70 0.4562
619.80 0.4559
619.90 0.4556
620.00 0.4553
620.10 0.455
620.20 0.4547
620.30 0.4545
620.40 0.4542
620.50 0.4539
620.60 0.4536
620.70 0.4533
620.80 0.453
620.90 0.4528
621.00 0.4525
621.10 0.4522
621.20 0.4519
621.30 0.4516
621.40 0.4513
621.50 0.451
621.60 0.4508
621.70 0.4505
621.80 0.4502
621.90 0.4499
622.00 0.4496
622.10 0.4493
622.20 0.4491
622.30 0.4488
622.40 0.4485
622.50 0.4482
622.60 0.4479
622.70 0.4476
622.80 0.4474
622.90 0.4471
623.00 0.4468
623.10 0.4465
623.20 0.4462
623.30 0.446
623.40 0.4457
623.50 0.4454
623.60 0.4451
623.70 0.4448
623.80 0.4445
623.90 0.4443
624.00 0.444
624.10 0.4437
624.20 0.4434
624.30 0.4431
624.40 0.4429
624.50 0.4426
624.60 0.4423
624.70 0.442
624.80 0.4417
624.90 0.4415
625.00 0.4412
625.10 0.4409
625.20 0.4406
625.30 0.4403
625.40 0.4401
625.50 0.4398
625.60 0.4395
625.70 0.4392
625.80 0.4389
625.90 0.4387
626.00 0.4384
626.10 0.4381
626.20 0.4378
626.30 0.4375
626.40 0.4373
626.50 0.437
626.60 0.4367
626.70 0.4364
626.80 0.4362
626.90 0.4359
627.00 0.4356
627.10 0.4353
627.20 0.435
627.30 0.4348
627.40 0.4345
627.50 0.4342
627.60 0.4339
627.70 0.4336
627.80 0.4334
627.90 0.4331
628.00 0.4328
628.10 0.4325
628.20 0.4323
628.30 0.432
628.40 0.4317
628.50 0.4314
628.60 0.4311
628.70 0.4309
628.80 0.4306
628.90 0.4303
629.00 0.43
629.10 0.4297
629.20 0.4295
629.30 0.4292
629.40 0.4289
629.50 0.4286
629.60 0.4284
629.70 0.4281
629.80 0.4278
629.90 0.4275
630.00 0.4272
630.10 0.427
630.20 0.4267
630.30 0.4264
630.40 0.4261
630.50 0.4258
630.60 0.4256
630.70 0.4253
630.80 0.425
630.90 0.4247
631.00 0.4245
631.10 0.4242
631.20 0.4239
631.30 0.4236
631.40 0.4233
631.50 0.4231
631.60 0.4228
631.70 0.4225
631.80 0.4222
631.90 0.4219
632.00 0.4217
632.10 0.4214
632.20 0.4211
632.30 0.4208
632.40 0.4205
632.50 0.4203
632.60 0.42
632.70 0.4197
632.80 0.4194
632.90 0.4191
633.00 0.4189
633.10 0.4186
633.20 0.4183
633.30 0.418
633.40 0.4177
633.50 0.4174
633.60 0.4172
633.70 0.4169
633.80 0.4166
633.90 0.4163
634.00 0.416
634.10 0.4157
634.20 0.4155
634.30 0.4152
634.40 0.4149
634.50 0.4146
634.60 0.4143
634.70 0.414
634.80 0.4138
634.90 0.4135
635.00 0.4132
635.10 0.4129
635.20 0.4126
635.30 0.4123
635.40 0.412
635.50 0.4117
635.60 0.4115
635.70 0.4112
635.80 0.4109
635.90 0.4106
636.00 0.4103
636.10 0.41
636.20 0.4097
636.30 0.4094
636.40 0.4091
636.50 0.4088
636.60 0.4085
636.70 0.4083
636.80 0.408
636.90 0.4077
637.00 0.4074
637.10 0.4071
637.20 0.4068
637.30 0.4065
637.40 0.4062
637.50 0.4059
637.60 0.4056
637.70 0.4053
637.80 0.405
637.90 0.4047
638.00 0.4044
638.10 0.4041
638.20 0.4038
638.30 0.4035
638.40 0.4032
638.50 0.4029
638.60 0.4026
638.70 0.4023
638.80 0.402
638.90 0.4016
639.00 0.4013
639.10 0.401
639.20 0.4007
639.30 0.4004
639.40 0.4001
639.50 0.3998
639.60 0.3995
639.70 0.3991
639.80 0.3988
639.90 0.3985
640.00 0.3982
640.10 0.3979
640.20 0.3976
640.30 0.3972
640.40 0.3969
640.50 0.3966
640.60 0.3963
640.70 0.3959
640.80 0.3956
640.90 0.3953
641.00 0.3949
641.10 0.3946
641.20 0.3943
641.30 0.394
641.40 0.3936
641.50 0.3933
641.60 0.3929
641.70 0.3926
641.80 0.3922
641.90 0.3919
642.00 0.3915
642.10 0.3912
642.20 0.3909
642.30 0.3905
642.40 0.3901
642.50 0.3898
642.60 0.3894
642.70 0.389
642.80 0.3887
642.90 0.3883
643.00 0.388
643.10 0.3876
643.20 0.3872
643.30 0.3869
643.40 0.3865
643.50 0.3861
643.60 0.3857
643.70 0.3853
643.80 0.3849
643.90 0.3845
644.00 0.3841
644.10 0.3838
644.20 0.3834
644.30 0.383
644.40 0.3826
644.50 0.3821
644.60 0.3817
644.70 0.3813
644.80 0.3809
644.90 0.3805
645.00 0.38
645.10 0.3796
645.20 0.3792
645.30 0.3788
645.40 0.3783
645.50 0.3778
645.60 0.3774
645.70 0.3769
645.80 0.3765
645.90 0.376
646.00 0.3756
646.10 0.3751
646.20 0.3746
646.30 0.3742
646.40 0.3737
646.50 0.3731
646.60 0.3726
646.70 0.3721
646.80 0.3716
646.90 0.3711
647.00 0.3706
647.10 0.3701
647.20 0.3696
647.30 0.3691
647.40 0.3685
647.50 0.3679
647.60 0.3673
647.70 0.3667
647.80 0.3662
647.90 0.3656
648.00 0.365
648.10 0.3644
648.20 0.3639
648.30 0.3633
648.40 0.3626
648.50 0.362
648.60 0.3613
648.70 0.3606
648.80 0.36
648.90 0.3593
649.00 0.3587
649.10 0.358
649.20 0.3574
649.30 0.3567
649.40 0.3559
649.50 0.3551
649.60 0.3544
649.70 0.3536
649.80 0.3528
649.90 0.3521
650.00 0.3513
650.10 0.3506
650.20 0.3498
650.30 0.349
650.40 0.3481
650.50 0.3472
650.60 0.3463
650.70 0.3454
650.80 0.3445
650.90 0.3436
651.00 0.3427
651.10 0.3418
651.20 0.3408
651.30 0.3399
651.40 0.3388
651.50 0.3377
651.60 0.3366
651.70 0.3355
651.80 0.3345
651.90 0.3334
652.00 0.3323
652.10 0.3312
652.20 0.3301
652.30 0.329
652.40 0.3276
652.50 0.3263
652.60 0.3249
652.70 0.3236
652.80 0.3222
652.90 0.3209
653.00 0.3196
653.10 0.3182
653.20 0.3169
653.30 0.3155
653.40 0.3138
653.50 0.3121
653.60 0.3104
653.70 0.3087
653.80 0.307
653.90 0.3053
654.00 0.3036
654.10 0.3019
654.20 0.3002
654.30 0.2984
654.40 0.2963
654.50 0.2942
654.60 0.2921
654.70 0.29
654.80 0.2878
654.90 0.2853
655.00 0.2828
655.10 0.2803
655.20 0.2778
655.30 0.2752
655.40 0.2723
655.50 0.2694
655.60 0.2662
655.70 0.2629
655.80 0.2594
655.90 0.2557
656.00 0.2516
656.10 0.2474
656.20 0.2415
656.30 0.2378
656.40 0.2437
656.50 0.2484
656.60 0.2523
656.70 0.256
656.80 0.2593
656.90 0.2625
657.00 0.2654
657.10 0.2682
657.20 0.2708
657.30 0.2733
657.40 0.2755
657.50 0.2777
657.60 0.2799
657.70 0.2821
657.80 0.2842
657.90 0.2859
658.00 0.2877
658.10 0.2895
658.20 0.2912
658.30 0.2929
658.40 0.2943
658.50 0.2956
658.60 0.2969
658.70 0.2983
658.80 0.2996
658.90 0.3009
659.00 0.3023
659.10 0.3036
659.20 0.305
659.30 0.3062
659.40 0.3072
659.50 0.3081
659.60 0.3091
659.70 0.31
659.80 0.311
659.90 0.3119
660.00 0.3129
660.10 0.3138
660.20 0.3148
660.30 0.3157
660.40 0.3164
660.50 0.3171
660.60 0.3178
660.70 0.3184
660.80 0.3191
660.90 0.3198
661.00 0.3205
661.10 0.3212
661.20 0.3219
661.30 0.3225
661.40 0.323
661.50 0.3235
661.60 0.324
661.70 0.3245
661.80 0.3249
661.90 0.3254
662.00 0.3259
662.10 0.3264
662.20 0.3269
662.30 0.3273
662.40 0.3277
662.50 0.328
662.60 0.3284
662.70 0.3287
662.80 0.329
662.90 0.3294
663.00 0.3297
663.10 0.3301
663.20 0.3304
663.30 0.3307
663.40 0.3309
663.50 0.3311
663.60 0.3314
663.70 0.3316
663.80 0.3318
663.90 0.332
664.00 0.3323
664.10 0.3325
664.20 0.3327
664.30 0.3329
664.40 0.3331
664.50 0.3332
664.60 0.3333
664.70 0.3335
664.80 0.3336
664.90 0.3337
665.00 0.3339
665.10 0.334
665.20 0.3341
665.30 0.3343
665.40 0.3343
665.50 0.3344
665.60 0.3345
665.70 0.3345
665.80 0.3346
665.90 0.3347
666.00 0.3347
666.10 0.3348
666.20 0.3349
666.30 0.3349
666.40 0.3349
666.50 0.335
666.60 0.335
666.70 0.335
666.80 0.335
666.90 0.335
667.00 0.335
667.10 0.3351
667.20 0.3351
667.30 0.3351
667.40 0.3351
667.50 0.335
667.60 0.335
667.70 0.335
667.80 0.335
667.90 0.3349
668.00 0.3349
668.10 0.3349
668.20 0.3349
668.30 0.3348
668.40 0.3348
668.50 0.3347
668.60 0.3347
668.70 0.3346
668.80 0.3346
668.90 0.3345
669.00 0.3344
669.10 0.3344
669.20 0.3343
669.30 0.3343
669.40 0.3342
669.50 0.3341
669.60 0.334
669.70 0.3339
669.80 0.3339
669.90 0.3338
670.00 0.3337
670.10 0.3336
670.20 0.3335
670.30 0.3335
670.40 0.3334
670.50 0.3333
670.60 0.3332
670.70 0.3331
670.80 0.333
670.90 0.3329
671.00 0.3328
671.10 0.3327
671.20 0.3326
671.30 0.3325
671.40 0.3324
671.50 0.3322
671.60 0.3321
671.70 0.332
671.80 0.3319
671.90 0.3318
672.00 0.3317
672.10 0.3316
672.20 0.3314
672.30 0.3313
672.40 0.3312
672.50 0.3311
672.60 0.331
672.70 0.3308
672.80 0.3307
672.90 0.3306
673.00 0.3305
673.10 0.3303
673.20 0.3302
673.30 0.3301
673.40 0.3299
673.50 0.3298
673.60 0.3297
673.70 0.3295
673.80 0.3294
673.90 0.3293
674.00 0.3291
674.10 0.329
674.20 0.3289
674.30 0.3287
674.40 0.3286
674.50 0.3284
674.60 0.3283
674.70 0.3282
674.80 0.328
674.90 0.3279
675.00 0.3277
675.10 0.3276
675.20 0.3275
675.30 0.3273
675.40 0.3272
675.50 0.327
675.60 0.3269
675.70 0.3267
675.80 0.3266
675.90 0.3264
676.00 0.3263
676.10 0.3261
676.20 0.326
676.30 0.3258
676.40 0.3257
676.50 0.3255
676.60 0.3254
676.70 0.3252
676.80 0.3251
676.90 0.3249
677.00 0.3248
677.10 0.3246
677.20 0.3245
677.30 0.3243
677.40 0.3242
677.50 0.324
677.60 0.3239
677.70 0.3237
677.80 0.3236
677.90 0.3234
678.00 0.3232
678.10 0.3231
678.20 0.3229
678.30 0.3228
678.40 0.3226
678.50 0.3225
678.60 0.3223
678.70 0.3222
678.80 0.322
678.90 0.3218
679.00 0.3217
679.10 0.3215
679.20 0.3214
679.30 0.3212
679.40 0.321
679.50 0.3209
679.60 0.3207
679.70 0.3206
679.80 0.3204
679.90 0.3203
680.00 0.3201
680.10 0.3199
680.20 0.3198
680.30 0.3196
680.40 0.3195
680.50 0.3193
680.60 0.3191
680.70 0.319
680.80 0.3188
680.90 0.3187
681.00 0.3185
681.10 0.3183
681.20 0.3182
681.30 0.318
681.40 0.3178
681.50 0.3177
681.60 0.3175
681.70 0.3174
681.80 0.3172
681.90 0.317
682.00 0.3169
682.10 0.3167
682.20 0.3166
682.30 0.3164
682.40 0.3162
682.50 0.3161
682.60 0.3159
682.70 0.3157
682.80 0.3156
682.90 0.3154
683.00 0.3153
683.10 0.3151
683.20 0.3149
683.30 0.3148
683.40 0.3146
683.50 0.3144
683.60 0.3143
683.70 0.3141
683.80 0.3139
683.90 0.3138
684.00 0.3136
684.10 0.3135
684.20 0.3133
684.30 0.3131
684.40 0.313
684.50 0.3128
684.60 0.3126
684.70 0.3125
684.80 0.3123
684.90 0.3122
685.00 0.312
685.10 0.3118
685.20 0.3117
685.30 0.3115
685.40 0.3113
685.50 0.3112
685.60 0.311
685.70 0.3109
685.80 0.3107
685.90 0.3105
686.00 0.3104
686.10 0.3102
686.20 0.31
686.30 0.3099
686.40 0.3097
686.50 0.3095
686.60 0.3094
686.70 0.3092
686.80 0.3091
686.90 0.3089
687.00 0.3087
687.10 0.3086
687.20 0.3084
687.30 0.3082
687.40 0.3081
687.50 0.3079
687.60 0.3078
687.70 0.3076
687.80 0.3074
687.90 0.3073
688.00 0.3071
688.10 0.3069
688.20 0.3068
688.30 0.3066
688.40 0.3065
688.50 0.3063
688.60 0.3061
688.70 0.306
688.80 0.3058
688.90 0.3056
689.00 0.3055
689.10 0.3053
689.20 0.3052
689.30 0.305
689.40 0.3048
689.50 0.3047
689.60 0.3045
689.70 0.3043
689.80 0.3042
689.90 0.304
690.00 0.3039
690.10 0.3037
690.20 0.3035
690.30 0.3034
690.40 0.3032
690.50 0.303
690.60 0.3029
690.70 0.3027
690.80 0.3026
690.90 0.3024
691.00 0.3022
691.10 0.3021
691.20 0.3019
691.30 0.3018
691.40 0.3016
691.50 0.3014
691.60 0.3013
691.70 0.3011
691.80 0.301
691.90 0.3008
692.00 0.3006
692.10 0.3005
692.20 0.3003
692.30 0.3001
692.40 0.3
692.50 0.2998
692.60 0.2997
692.70 0.2995
692.80 0.2993
692.90 0.2992
693.00 0.299
693.10 0.2989
693.20 0.2987
693.30 0.2986
693.40 0.2984
693.50 0.2982
693.60 0.2981
693.70 0.2979
693.80 0.2978
693.90 0.2976
694.00 0.2974
694.10 0.2973
694.20 0.2971
694.30 0.297
694.40 0.2968
694.50 0.2966
694.60 0.2965
694.70 0.2963
694.80 0.2962
694.90 0.296
695.00 0.2959
695.10 0.2957
695.20 0.2955
695.30 0.2954
695.40 0.2952
695.50 0.2951
695.60 0.2949
695.70 0.2947
695.80 0.2946
695.90 0.2944
696.00 0.2943
696.10 0.2941
696.20 0.294
696.30 0.2938
696.40 0.2936
696.50 0.2935
696.60 0.2933
696.70 0.2932
696.80 0.293
696.90 0.2929
697.00 0.2927
697.10 0.2925
697.20 0.2924
697.30 0.2922
697.40 0.2921
697.50 0.2919
697.60 0.2918
697.70 0.2916
697.80 0.2914
697.90 0.2913
698.00 0.2911
698.10 0.291
698.20 0.2908
698.30 0.2907
698.40 0.2905
698.50 0.2904
698.60 0.2902
698.70 0.29
698.80 0.2899
698.90 0.2897
699.00 0.2896
699.10 0.2894
699.20 0.2893
699.30 0.2891
699.40 0.289
699.50 0.2888
699.60 0.2886
699.70 0.2885
699.80 0.2883
699.90 0.2882
700.00 0.288
700.10 0.2879
700.20 0.2877
700.30 0.2876
700.40 0.2874
700.50 0.2873
700.60 0.2871
700.70 0.287
700.80 0.2868
700.90 0.2866
701.00 0.2865
701.10 0.2863
701.20 0.2862
701.30 0.286
701.40 0.2859
701.50 0.2857
701.60 0.2856
701.70 0.2854
701.80 0.2853
701.90 0.2851
702.00 0.285
702.10 0.2848
702.20 0.2847
702.30 0.2845
702.40 0.2844
702.50 0.2842
702.60 0.2841
702.70 0.2839
702.80 0.2837
702.90 0.2836
703.00 0.2834
703.10 0.2833
703.20 0.2831
703.30 0.283
703.40 0.2828
703.50 0.2827
703.60 0.2825
703.70 0.2824
703.80 0.2822
703.90 0.2821
704.00 0.2819
704.10 0.2818
704.20 0.2816
704.30 0.2815
704.40 0.2813
704.50 0.2812
704.60 0.281
704.70 0.2809
704.80 0.2807
704.90 0.2806
705.00 0.2804
705.10 0.2803
705.20 0.2801
705.30 0.28
705.40 0.2798
705.50 0.2797
705.60 0.2795
705.70 0.2794
705.80 0.2792
705.90 0.2791
706.00 0.2789
706.10 0.2788
706.20 0.2786
706.30 0.2785
706.40 0.2783
706.50 0.2782
706.60 0.278
706.70 0.2779
706.80 0.2777
706.90 0.2776
707.00 0.2775
707.10 0.2773
707.20 0.2772
707.30 0.277
707.40 0.2769
707.50 0.2767
707.60 0.2766
707.70 0.2764
707.80 0.2763
707.90 0.2761
708.00 0.276
708.10 0.2758
708.20 0.2757
708.30 0.2755
708.40 0.2754
708.50 0.2752
708.60 0.2751
708.70 0.2749
708.80 0.2748
708.90 0.2747
709.00 0.2745
709.10 0.2744
709.20 0.2742
709.30 0.2741
709.40 0.2739
709.50 0.2738
709.60 0.2736
709.70 0.2735
709.80 0.2733
709.90 0.2732
710.00 0.273
710.10 0.2729
710.20 0.2728
710.30 0.2726
710.40 0.2725
710.50 0.2723
710.60 0.2722
710.70 0.272
710.80 0.2719
710.90 0.2717
711.00 0.2716
711.10 0.2715
711.20 0.2713
711.30 0.2712
711.40 0.271
711.50 0.2709
711.60 0.2707
711.70 0.2706
711.80 0.2705
711.90 0.2703
712.00 0.2702
712.10 0.27
712.20 0.2699
712.30 0.2697
712.40 0.2696
712.50 0.2694
712.60 0.2693
712.70 0.2692
712.80 0.269
712.90 0.2689
713.00 0.2687
713.10 0.2686
713.20 0.2684
713.30 0.2683
713.40 0.2682
713.50 0.268
713.60 0.2679
713.70 0.2677
713.80 0.2676
713.90 0.2675
714.00 0.2673
714.10 0.2672
714.20 0.267
714.30 0.2669
714.40 0.2667
714.50 0.2666
714.60 0.2665
714.70 0.2663
714.80 0.2662
714.90 0.266
715.00 0.2659
715.10 0.2658
715.20 0.2656
715.30 0.2655
715.40 0.2653
715.50 0.2652
715.60 0.2651
715.70 0.2649
715.80 0.2648
715.90 0.2646
716.00 0.2645
716.10 0.2644
716.20 0.2642
716.30 0.2641
716.40 0.2639
716.50 0.2638
716.60 0.2637
716.70 0.2635
716.80 0.2634
716.90 0.2632
717.00 0.2631
717.10 0.263
717.20 0.2628
717.30 0.2627
717.40 0.2625
717.50 0.2624
717.60 0.2623
717.70 0.2621
717.80 0.262
717.90 0.2619
718.00 0.2617
718.10 0.2616
718.20 0.2614
718.30 0.2613
718.40 0.2612
718.50 0.261
718.60 0.2609
718.70 0.2607
718.80 0.2606
718.90 0.2605
719.00 0.2603
719.10 0.2602
719.20 0.2601
719.30 0.2599
719.40 0.2598
719.50 0.2596
719.60 0.2595
719.70 0.2594
719.80 0.2592
719.90 0.2591
720.00 0.259
720.10 0.2588
720.20 0.2587
720.30 0.2586
720.40 0.2584
720.50 0.2583
720.60 0.2581
720.70 0.258
720.80 0.2579
720.90 0.2577
721.00 0.2576
721.10 0.2575
721.20 0.2573
721.30 0.2572
721.40 0.2571
721.50 0.2569
721.60 0.2568
721.70 0.2567
721.80 0.2565
721.90 0.2564
722.00 0.2563
722.10 0.2561
722.20 0.256
722.30 0.2559
722.40 0.2557
722.50 0.2556
722.60 0.2554
722.70 0.2553
722.80 0.2552
722.90 0.255
723.00 0.2549
723.10 0.2548
723.20 0.2546
723.30 0.2545
723.40 0.2544
723.50 0.2542
723.60 0.2541
723.70 0.254
723.80 0.2538
723.90 0.2537
724.00 0.2536
724.10 0.2534
724.20 0.2533
724.30 0.2532
724.40 0.253
724.50 0.2529
724.60 0.2528
724.70 0.2526
724.80 0.2525
724.90 0.2524
725.00 0.2522
725.10 0.2521
725.20 0.252
725.30 0.2519
725.40 0.2517
725.50 0.2516
725.60 0.2515
725.70 0.2513
725.80 0.2512
725.90 0.2511
726.00 0.2509
726.10 0.2508
726.20 0.2507
726.30 0.2505
726.40 0.2504
726.50 0.2503
726.60 0.2502
726.70 0.25
726.80 0.2499
726.90 0.2498
727.00 0.2496
727.10 0.2495
727.20 0.2494
727.30 0.2492
727.40 0.2491
727.50 0.249
727.60 0.2488
727.70 0.2487
727.80 0.2486
727.90 0.2485
728.00 0.2483
728.10 0.2482
728.20 0.2481
728.30 0.2479
728.40 0.2478
728.50 0.2477
728.60 0.2476
728.70 0.2474
728.80 0.2473
728.90 0.2472
729.00 0.247
729.10 0.2469
729.20 0.2468
729.30 0.2467
729.40 0.2465
729.50 0.2464
729.60 0.2463
729.70 0.2461
729.80 0.246
729.90 0.2459
730.00 0.2457
730.10 0.2456
730.20 0.2455
730.30 0.2454
730.40 0.2452
730.50 0.2451
730.60 0.245
730.70 0.2449
730.80 0.2447
730.90 0.2446
731.00 0.2445
731.10 0.2444
731.20 0.2442
731.30 0.2441
731.40 0.244
731.50 0.2439
731.60 0.2437
731.70 0.2436
731.80 0.2435
731.90 0.2433
732.00 0.2432
732.10 0.2431
732.20 0.243
732.30 0.2428
732.40 0.2427
732.50 0.2426
732.60 0.2425
732.70 0.2423
732.80 0.2422
732.90 0.2421
733.00 0.242
733.10 0.2418
733.20 0.2417
733.30 0.2416
733.40 0.2415
733.50 0.2413
733.60 0.2412
733.70 0.2411
733.80 0.241
733.90 0.2408
734.00 0.2407
734.10 0.2406
734.20 0.2405
734.30 0.2403
734.40 0.2402
734.50 0.2401
734.60 0.24
734.70 0.2399
734.80 0.2397
734.90 0.2396
735.00 0.2395
735.10 0.2394
735.20 0.2392
735.30 0.2391
735.40 0.239
735.50 0.2389
735.60 0.2387
735.70 0.2386
735.80 0.2385
735.90 0.2384
736.00 0.2382
736.10 0.2381
736.20 0.238
736.30 0.2379
736.40 0.2378
736.50 0.2376
736.60 0.2375
736.70 0.2374
736.80 0.2373
736.90 0.2371
737.00 0.237
737.10 0.2369
737.20 0.2368
737.30 0.2366
737.40 0.2365
737.50 0.2364
737.60 0.2363
737.70 0.2362
737.80 0.236
737.90 0.2359
738.00 0.2358
738.10 0.2357
738.20 0.2355
738.30 0.2354
738.40 0.2353
738.50 0.2352
738.60 0.2351
738.70 0.2349
738.80 0.2348
738.90 0.2347
739.00 0.2346
739.10 0.2344
739.20 0.2343
739.30 0.2342
739.40 0.2341
739.50 0.234
739.60 0.2338
739.70 0.2337
739.80 0.2336
739.90 0.2335
740.00 0.2334
740.10 0.2332
740.20 0.2331
740.30 0.233
740.40 0.2329
740.50 0.2328
740.60 0.2326
740.70 0.2325
740.80 0.2324
740.90 0.2323
741.00 0.2322
741.10 0.2321
741.20 0.2319
741.30 0.2318
741.40 0.2317
741.50 0.2316
741.60 0.2315
741.70 0.2313
741.80 0.2312
741.90 0.2311
742.00 0.231
742.10 0.2309
742.20 0.2308
742.30 0.2306
742.40 0.2305
742.50 0.2304
742.60 0.2303
742.70 0.2302
742.80 0.23
742.90 0.2299
743.00 0.2298
743.10 0.2297
743.20 0.2296
743.30 0.2295
743.40 0.2293
743.50 0.2292
743.60 0.2291
743.70 0.229
743.80 0.2289
743.90 0.2288
744.00 0.2286
744.10 0.2285
744.20 0.2284
744.30 0.2283
744.40 0.2282
744.50 0.2281
744.60 0.2279
744.70 0.2278
744.80 0.2277
744.90 0.2276
745.00 0.2275
745.10 0.2274
745.20 0.2272
745.30 0.2271
745.40 0.227
745.50 0.2269
745.60 0.2268
745.70 0.2267
745.80 0.2265
745.90 0.2264
746.00 0.2263
746.10 0.2262
746.20 0.2261
746.30 0.226
746.40 0.2259
746.50 0.2257
746.60 0.2256
746.70 0.2255
746.80 0.2254
746.90 0.2253
747.00 0.2252
747.10 0.225
747.20 0.2249
747.30 0.2248
747.40 0.2247
747.50 0.2246
747.60 0.2245
747.70 0.2244
747.80 0.2242
747.90 0.2241
748.00 0.224
748.10 0.2239
748.20 0.2238
748.30 0.2237
748.40 0.2236
748.50 0.2234
748.60 0.2233
748.70 0.2232
748.80 0.2231
748.90 0.223
749.00 0.2229
749.10 0.2228
749.20 0.2226
749.30 0.2225
749.40 0.2224
749.50 0.2223
749.60 0.2222
749.70 0.2221
749.80 0.222
749.90 0.2218
750.00 0.2217
750.10 0.2216
750.20 0.2215
750.30 0.2214
750.40 0.2213
750.50 0.2212
750.60 0.2211
750.70 0.2209
750.80 0.2208
750.90 0.2207
751.00 0.2206
751.10 0.2205
751.20 0.2204
751.30 0.2203
751.40 0.2202
751.50 0.2201
751.60 0.2199
751.70 0.2198
751.80 0.2197
751.90 0.2196
752.00 0.2195
752.10 0.2194
752.20 0.2193
752.30 0.2192
752.40 0.2191
752.50 0.219
752.60 0.2188
752.70 0.2187
752.80 0.2186
752.90 0.2185
753.00 0.2184
753.10 0.2183
753.20 0.2182
753.30 0.2181
753.40 0.218
753.50 0.2179
753.60 0.2177
753.70 0.2176
753.80 0.2175
753.90 0.2174
754.00 0.2173
754.10 0.2172
754.20 0.2171
754.30 0.217
754.40 0.2169
754.50 0.2168
754.60 0.2166
754.70 0.2165
754.80 0.2164
754.90 0.2163
755.00 0.2162
755.10 0.2161
755.20 0.216
755.30 0.2159
755.40 0.2158
755.50 0.2157
755.60 0.2156
755.70 0.2154
755.80 0.2153
755.90 0.2152
756.00 0.2151
756.10 0.215
756.20 0.2149
756.30 0.2148
756.40 0.2147
756.50 0.2146
756.60 0.2145
756.70 0.2144
756.80 0.2143
756.90 0.2141
757.00 0.214
757.10 0.2139
757.20 0.2138
757.30 0.2137
757.40 0.2136
757.50 0.2135
757.60 0.2134
757.70 0.2133
757.80 0.2132
757.90 0.2131
758.00 0.213
758.10 0.2129
758.20 0.2127
758.30 0.2126
758.40 0.2125
758.50 0.2124
758.60 0.2123
758.70 0.2122
758.80 0.2121
758.90 0.212
759.00 0.2119
759.10 0.2118
759.20 0.2117
759.30 0.2116
759.40 0.2115
759.50 0.2113
759.60 0.2112
759.70 0.2111
759.80 0.211
759.90 0.2109
760.00 0.2108
760.10 0.2107
760.20 0.2106
760.30 0.2105
760.40 0.2104
760.50 0.2103
760.60 0.2102
760.70 0.2101
760.80 0.21
760.90 0.2099
761.00 0.2098
761.10 0.2097
761.20 0.2096
761.30 0.2095
761.40 0.2094
761.50 0.2092
761.60 0.2091
761.70 0.209
761.80 0.2089
761.90 0.2088
762.00 0.2087
762.10 0.2086
762.20 0.2085
762.30 0.2084
762.40 0.2083
762.50 0.2082
762.60 0.2081
762.70 0.208
762.80 0.2079
762.90 0.2078
763.00 0.2077
763.10 0.2076
763.20 0.2075
763.30 0.2074
763.40 0.2073
763.50 0.2072
763.60 0.2071
763.70 0.207
763.80 0.2069
763.90 0.2068
764.00 0.2067
764.10 0.2066
764.20 0.2065
764.30 0.2063
764.40 0.2062
764.50 0.2061
764.60 0.206
764.70 0.2059
764.80 0.2058
764.90 0.2057
765.00 0.2056
765.10 0.2055
765.20 0.2054
765.30 0.2053
765.40 0.2052
765.50 0.2051
765.60 0.205
765.70 0.2049
765.80 0.2048
765.90 0.2047
766.00 0.2046
766.10 0.2045
766.20 0.2044
766.30 0.2043
766.40 0.2042
766.50 0.2041
766.60 0.204
766.70 0.2039
766.80 0.2038
766.90 0.2037
767.00 0.2036
767.10 0.2035
767.20 0.2034
767.30 0.2033
767.40 0.2032
767.50 0.2031
767.60 0.203
767.70 0.2029
767.80 0.2028
767.90 0.2027
768.00 0.2026
768.10 0.2025
768.20 0.2024
768.30 0.2023
768.40 0.2022
768.50 0.2021
768.60 0.202
768.70 0.2019
768.80 0.2018
768.90 0.2017
769.00 0.2016
769.10 0.2015
769.20 0.2014
769.30 0.2013
769.40 0.2012
769.50 0.2011
769.60 0.201
769.70 0.2009
769.80 0.2008
769.90 0.2007
770.00 0.2006
770.10 0.2005
770.20 0.2004
770.30 0.2003
770.40 0.2002
770.50 0.2001
770.60 0.2
770.70 0.1999
770.80 0.1998
770.90 0.1997
771.00 0.1996
771.10 0.1995
771.20 0.1994
771.30 0.1993
771.40 0.1992
771.50 0.1991
771.60 0.199
771.70 0.1989
771.80 0.1988
771.90 0.1987
772.00 0.1986
772.10 0.1985
772.20 0.1984
772.30 0.1983
772.40 0.1982
772.50 0.1981
772.60 0.198
772.70 0.1979
772.80 0.1978
772.90 0.1977
773.00 0.1976
773.10 0.1975
773.20 0.1974
773.30 0.1973
773.40 0.1972
773.50 0.1971
773.60 0.197
773.70 0.1969
773.80 0.1968
773.90 0.1968
774.00 0.1967
774.10 0.1966
774.20 0.1965
774.30 0.1964
774.40 0.1963
774.50 0.1962
774.60 0.1961
774.70 0.196
774.80 0.1959
774.90 0.1958
775.00 0.1957
775.10 0.1956
775.20 0.1955
775.30 0.1954
775.40 0.1953
775.50 0.1952
775.60 0.1951
775.70 0.195
775.80 0.1949
775.90 0.1948
776.00 0.1947
776.10 0.1946
776.20 0.1945
776.30 0.1944
776.40 0.1943
776.50 0.1942
776.60 0.1942
776.70 0.1941
776.80 0.194
776.90 0.1939
777.00 0.1938
777.10 0.1937
777.20 0.1936
777.30 0.1935
777.40 0.1934
777.50 0.1933
777.60 0.1932
777.70 0.1931
777.80 0.193
777.90 0.1929
778.00 0.1928
778.10 0.1927
778.20 0.1926
778.30 0.1925
778.40 0.1924
778.50 0.1923
778.60 0.1922
778.70 0.1922
778.80 0.1921
778.90 0.192
779.00 0.1919
779.10 0.1918
779.20 0.1917
779.30 0.1916
779.40 0.1915
779.50 0.1914
779.60 0.1913
779.70 0.1912
779.80 0.1911
779.90 0.191
780.00 0.1909
780.10 0.1908
780.20 0.1907
780.30 0.1906
780.40 0.1906
780.50 0.1905
780.60 0.1904
780.70 0.1903
780.80 0.1902
780.90 0.1901
781.00 0.19
781.10 0.1899
781.20 0.1898
781.30 0.1897
781.40 0.1896
781.50 0.1895
781.60 0.1894
781.70 0.1894
781.80 0.1893
781.90 0.1892
782.00 0.1891
782.10 0.189
782.20 0.1889
782.30 0.1888
782.40 0.1887
782.50 0.1886
782.60 0.1885
782.70 0.1884
782.80 0.1883
782.90 0.1883
783.00 0.1882
783.10 0.1881
783.20 0.188
783.30 0.1879
783.40 0.1878
783.50 0.1877
783.60 0.1876
783.70 0.1875
783.80 0.1874
783.90 0.1873
784.00 0.1872
784.10 0.1872
784.20 0.1871
784.30 0.187
784.40 0.1869
784.50 0.1868
784.60 0.1867
784.70 0.1866
784.80 0.1865
784.90 0.1864
785.00 0.1863
785.10 0.1863
785.20 0.1862
785.30 0.1861
785.40 0.186
785.50 0.1859
785.60 0.1858
785.70 0.1857
785.80 0.1856
785.90 0.1855
786.00 0.1854
786.10 0.1853
786.20 0.1853
786.30 0.1852
786.40 0.1851
786.50 0.185
786.60 0.1849
786.70 0.1848
786.80 0.1847
786.90 0.1846
787.00 0.1845
787.10 0.1844
787.20 0.1844
787.30 0.1843
787.40 0.1842
787.50 0.1841
787.60 0.184
787.70 0.1839
787.80 0.1838
787.90 0.1837
788.00 0.1836
788.10 0.1836
788.20 0.1835
788.30 0.1834
788.40 0.1833
788.50 0.1832
788.60 0.1831
788.70 0.183
788.80 0.1829
788.90 0.1828
789.00 0.1827
789.10 0.1827
789.20 0.1826
789.30 0.1825
789.40 0.1824
789.50 0.1823
789.60 0.1822
789.70 0.1821
789.80 0.182
789.90 0.1819
790.00 0.1819
790.10 0.1818
790.20 0.1817
790.30 0.1816
790.40 0.1815
790.50 0.1814
790.60 0.1813
790.70 0.1812
790.80 0.1812
790.90 0.1811
791.00 0.181
791.10 0.1809
791.20 0.1808
791.30 0.1807
791.40 0.1806
791.50 0.1806
791.60 0.1805
791.70 0.1804
791.80 0.1803
791.90 0.1802
792.00 0.1801
792.10 0.18
792.20 0.1799
792.30 0.1799
792.40 0.1798
792.50 0.1797
792.60 0.1796
792.70 0.1795
792.80 0.1794
792.90 0.1793
793.00 0.1793
793.10 0.1792
793.20 0.1791
793.30 0.179
793.40 0.1789
793.50 0.1788
793.60 0.1787
793.70 0.1787
793.80 0.1786
793.90 0.1785
794.00 0.1784
794.10 0.1783
794.20 0.1782
794.30 0.1781
794.40 0.1781
794.50 0.178
794.60 0.1779
794.70 0.1778
794.80 0.1777
794.90 0.1776
795.00 0.1775
795.10 0.1775
795.20 0.1774
795.30 0.1773
795.40 0.1772
795.50 0.1771
795.60 0.177
795.70 0.1769
795.80 0.1769
795.90 0.1768
796.00 0.1767
796.10 0.1766
796.20 0.1765
796.30 0.1764
796.40 0.1764
796.50 0.1763
796.60 0.1762
796.70 0.1761
796.80 0.176
796.90 0.1759
797.00 0.1758
797.10 0.1758
797.20 0.1757
797.30 0.1756
797.40 0.1755
797.50 0.1754
797.60 0.1753
797.70 0.1753
797.80 0.1752
797.90 0.1751
798.00 0.175
798.10 0.1749
798.20 0.1748
798.30 0.1747
798.40 0.1747
798.50 0.1746
798.60 0.1745
798.70 0.1744
798.80 0.1743
798.90 0.1742
799.00 0.1742
799.10 0.1741
799.20 0.174
799.30 0.1739
799.40 0.1738
799.50 0.1737
799.60 0.1737
799.70 0.1736
799.80 0.1735
799.90 0.1734
800.00 0.1733
800.10 0.1732
800.20 0.1732
800.30 0.1731
800.40 0.173
800.50 0.1729
800.60 0.1728
800.70 0.1727
800.80 0.1727
800.90 0.1726
801.00 0.1725
801.10 0.1724
801.20 0.1723
801.30 0.1723
801.40 0.1722
801.50 0.1721
801.60 0.172
801.70 0.1719
801.80 0.1719
801.90 0.1718
802.00 0.1717
802.10 0.1716
802.20 0.1715
802.30 0.1714
802.40 0.1714
802.50 0.1713
802.60 0.1712
802.70 0.1711
802.80 0.171
802.90 0.171
803.00 0.1709
803.10 0.1708
803.20 0.1707
803.30 0.1706
803.40 0.1706
803.50 0.1705
803.60 0.1704
803.70 0.1703
803.80 0.1702
803.90 0.1701
804.00 0.1701
804.10 0.17
804.20 0.1699
804.30 0.1698
804.40 0.1697
804.50 0.1697
804.60 0.1696
804.70 0.1695
804.80 0.1694
804.90 0.1693
805.00 0.1693
805.10 0.1692
805.20 0.1691
805.30 0.169
805.40 0.1689
805.50 0.1689
805.60 0.1688
805.70 0.1687
805.80 0.1686
805.90 0.1685
806.00 0.1685
806.10 0.1684
806.20 0.1683
806.30 0.1682
806.40 0.1681
806.50 0.1681
806.60 0.168
806.70 0.1679
806.80 0.1678
806.90 0.1677
807.00 0.1677
807.10 0.1676
807.20 0.1675
807.30 0.1674
807.40 0.1673
807.50 0.1673
807.60 0.1672
807.70 0.1671
807.80 0.167
807.90 0.1669
808.00 0.1669
808.10 0.1668
808.20 0.1667
808.30 0.1666
808.40 0.1665
808.50 0.1665
808.60 0.1664
808.70 0.1663
808.80 0.1662
808.90 0.1662
809.00 0.1661
809.10 0.166
809.20 0.1659
809.30 0.1658
809.40 0.1658
809.50 0.1657
809.60 0.1656
809.70 0.1655
809.80 0.1654
809.90 0.1654
810.00 0.1653
810.10 0.1652
810.20 0.1651
810.30 0.1651
810.40 0.165
810.50 0.1649
810.60 0.1648
810.70 0.1647
810.80 0.1647
810.90 0.1646
811.00 0.1645
811.10 0.1644
811.20 0.1644
811.30 0.1643
811.40 0.1642
811.50 0.1641
811.60 0.164
811.70 0.164
811.80 0.1639
811.90 0.1638
812.00 0.1637
812.10 0.1637
812.20 0.1636
812.30 0.1635
812.40 0.1634
812.50 0.1634
812.60 0.1633
812.70 0.1632
812.80 0.1631
812.90 0.1631
813.00 0.163
813.10 0.1629
813.20 0.1628
813.30 0.1627
813.40 0.1627
813.50 0.1626
813.60 0.1625
813.70 0.1624
813.80 0.1624
813.90 0.1623
814.00 0.1622
814.10 0.1621
814.20 0.1621
814.30 0.162
814.40 0.1619
814.50 0.1618
814.60 0.1618
814.70 0.1617
814.80 0.1616
814.90 0.1615
815.00 0.1615
815.10 0.1614
815.20 0.1613
815.30 0.1612
815.40 0.1612
815.50 0.1611
815.60 0.161
815.70 0.1609
815.80 0.1609
815.90 0.1608
816.00 0.1607
816.10 0.1606
816.20 0.1605
816.30 0.1605
816.40 0.1604
816.50 0.1603
816.60 0.1602
816.70 0.1602
816.80 0.1601
816.90 0.16
817.00 0.1599
817.10 0.1599
817.20 0.1598
817.30 0.1597
817.40 0.1596
817.50 0.1596
817.60 0.1595
817.70 0.1594
817.80 0.1593
817.90 0.1593
818.00 0.1592
818.10 0.1591
818.20 0.159
818.30 0.159
818.40 0.1589
818.50 0.1588
818.60 0.1587
818.70 0.1587
818.80 0.1586
818.90 0.1585
819.00 0.1585
819.10 0.1584
819.20 0.1583
819.30 0.1582
819.40 0.1582
819.50 0.1581
819.60 0.158
819.70 0.1579
819.80 0.1579
819.90 0.1578
820.00 0.1577
820.10 0.1576
820.20 0.1576
820.30 0.1575
820.40 0.1574
820.50 0.1573
820.60 0.1573
820.70 0.1572
820.80 0.1571
820.90 0.157
821.00 0.157
821.10 0.1569
821.20 0.1568
821.30 0.1568
821.40 0.1567
821.50 0.1566
821.60 0.1565
821.70 0.1565
821.80 0.1564
821.90 0.1563
822.00 0.1562
822.10 0.1562
822.20 0.1561
822.30 0.156
822.40 0.156
822.50 0.1559
822.60 0.1558
822.70 0.1557
822.80 0.1557
822.90 0.1556
823.00 0.1555
823.10 0.1554
823.20 0.1554
823.30 0.1553
823.40 0.1552
823.50 0.1552
823.60 0.1551
823.70 0.155
823.80 0.1549
823.90 0.1549
824.00 0.1548
824.10 0.1547
824.20 0.1547
824.30 0.1546
824.40 0.1545
824.50 0.1544
824.60 0.1544
824.70 0.1543
824.80 0.1542
824.90 0.1542
825.00 0.1541
825.10 0.154
825.20 0.1539
825.30 0.1539
825.40 0.1538
825.50 0.1537
825.60 0.1537
825.70 0.1536
825.80 0.1535
825.90 0.1534
826.00 0.1534
826.10 0.1533
826.20 0.1532
826.30 0.1532
826.40 0.1531
826.50 0.153
826.60 0.1529
826.70 0.1529
826.80 0.1528
826.90 0.1527
827.00 0.1527
827.10 0.1526
827.20 0.1525
827.30 0.1524
827.40 0.1524
827.50 0.1523
827.60 0.1522
827.70 0.1522
827.80 0.1521
827.90 0.152
828.00 0.152
828.10 0.1519
828.20 0.1518
828.30 0.1517
828.40 0.1517
828.50 0.1516
828.60 0.1515
828.70 0.1515
828.80 0.1514
828.90 0.1513
829.00 0.1513
829.10 0.1512
829.20 0.1511
829.30 0.151
829.40 0.151
829.50 0.1509
829.60 0.1508
829.70 0.1508
829.80 0.1507
829.90 0.1506
830.00 0.1506
830.10 0.1505
830.20 0.1504
830.30 0.1504
830.40 0.1503
830.50 0.1502
830.60 0.1501
830.70 0.1501
830.80 0.15
830.90 0.1499
831.00 0.1499
831.10 0.1498
831.20 0.1497
831.30 0.1497
831.40 0.1496
831.50 0.1495
831.60 0.1495
831.70 0.1494
831.80 0.1493
831.90 0.1492
832.00 0.1492
832.10 0.1491
832.20 0.149
832.30 0.149
832.40 0.1489
832.50 0.1488
832.60 0.1488
832.70 0.1487
832.80 0.1486
832.90 0.1486
833.00 0.1485
833.10 0.1484
833.20 0.1483
833.30 0.1483
833.40 0.1482
833.50 0.1481
833.60 0.1481
833.70 0.148
833.80 0.1479
833.90 0.1479
834.00 0.1478
834.10 0.1477
834.20 0.1477
834.30 0.1476
834.40 0.1475
834.50 0.1475
834.60 0.1474
834.70 0.1473
834.80 0.1473
834.90 0.1472
835.00 0.1471
835.10 0.147
835.20 0.147
835.30 0.1469
835.40 0.1468
835.50 0.1468
835.60 0.1467
835.70 0.1466
835.80 0.1466
835.90 0.1465
836.00 0.1464
836.10 0.1464
836.20 0.1463
836.30 0.1462
836.40 0.1462
836.50 0.1461
836.60 0.146
836.70 0.146
836.80 0.1459
836.90 0.1458
837.00 0.1458
837.10 0.1457
837.20 0.1456
837.30 0.1456
837.40 0.1455
837.50 0.1454
837.60 0.1454
837.70 0.1453
837.80 0.1452
837.90 0.1451
838.00 0.1451
838.10 0.145
838.20 0.1449
838.30 0.1449
838.40 0.1448
838.50 0.1447
838.60 0.1447
838.70 0.1446
838.80 0.1445
838.90 0.1445
839.00 0.1444
839.10 0.1443
839.20 0.1443
839.30 0.1442
839.40 0.1441
839.50 0.1441
839.60 0.144
839.70 0.1439
839.80 0.1439
839.90 0.1438
840.00 0.1437
840.10 0.1437
840.20 0.1436
840.30 0.1435
840.40 0.1435
840.50 0.1434
840.60 0.1434
840.70 0.1433
840.80 0.1432
840.90 0.1432
841.00 0.1431
841.10 0.143
841.20 0.143
841.30 0.1429
841.40 0.1428
841.50 0.1428
841.60 0.1427
841.70 0.1426
841.80 0.1426
841.90 0.1425
842.00 0.1424
842.10 0.1424
842.20 0.1423
842.30 0.1422
842.40 0.1422
842.50 0.1421
842.60 0.142
842.70 0.142
842.80 0.1419
842.90 0.1418
843.00 0.1418
843.10 0.1417
843.20 0.1416
843.30 0.1416
843.40 0.1415
843.50 0.1414
843.60 0.1414
843.70 0.1413
843.80 0.1412
843.90 0.1412
844.00 0.1411
844.10 0.1411
844.20 0.141
844.30 0.1409
844.40 0.1409
844.50 0.1408
844.60 0.1407
844.70 0.1407
844.80 0.1406
844.90 0.1405
845.00 0.1405
845.10 0.1404
845.20 0.1403
845.30 0.1403
845.40 0.1402
845.50 0.1401
845.60 0.1401
845.70 0.14
845.80 0.1399
845.90 0.1399
846.00 0.1398
846.10 0.1398
846.20 0.1397
846.30 0.1396
846.40 0.1396
846.50 0.1395
846.60 0.1394
846.70 0.1394
846.80 0.1393
846.90 0.1392
847.00 0.1392
847.10 0.1391
847.20 0.139
847.30 0.139
847.40 0.1389
847.50 0.1389
847.60 0.1388
847.70 0.1387
847.80 0.1387
847.90 0.1386
848.00 0.1385
848.10 0.1385
848.20 0.1384
848.30 0.1383
848.40 0.1383
848.50 0.1382
848.60 0.1382
848.70 0.1381
848.80 0.138
848.90 0.138
849.00 0.1379
849.10 0.1378
849.20 0.1378
849.30 0.1377
849.40 0.1377
849.50 0.1376
849.60 0.1375
849.70 0.1375
849.80 0.1374
849.90 0.1373
850.00 0.1373
850.10 0.1372
850.20 0.1371
850.30 0.1371
850.40 0.137
850.50 0.137
850.60 0.1369
850.70 0.1368
850.80 0.1368
850.90 0.1367
851.00 0.1366
851.10 0.1366
851.20 0.1365
851.30 0.1365
851.40 0.1364
851.50 0.1363
851.60 0.1363
851.70 0.1362
851.80 0.1361
851.90 0.1361
852.00 0.136
852.10 0.136
852.20 0.1359
852.30 0.1358
852.40 0.1358
852.50 0.1357
852.60 0.1356
852.70 0.1356
852.80 0.1355
852.90 0.1355
853.00 0.1354
853.10 0.1353
853.20 0.1353
853.30 0.1352
853.40 0.1352
853.50 0.1351
853.60 0.135
853.70 0.135
853.80 0.1349
853.90 0.1348
854.00 0.1348
854.10 0.1347
854.20 0.1347
854.30 0.1346
854.40 0.1345
854.50 0.1345
854.60 0.1344
854.70 0.1344
854.80 0.1343
854.90 0.1342
855.00 0.1342
855.10 0.1341
855.20 0.1341
855.30 0.134
855.40 0.1339
855.50 0.1339
855.60 0.1338
855.70 0.1338
855.80 0.1337
855.90 0.1336
856.00 0.1336
856.10 0.1335
856.20 0.1334
856.30 0.1334
856.40 0.1333
856.50 0.1333
856.60 0.1332
856.70 0.1331
856.80 0.1331
856.90 0.133
857.00 0.133
857.10 0.1329
857.20 0.1328
857.30 0.1328
857.40 0.1327
857.50 0.1327
857.60 0.1326
857.70 0.1326
857.80 0.1325
857.90 0.1324
858.00 0.1324
858.10 0.1323
858.20 0.1323
858.30 0.1322
858.40 0.1321
858.50 0.1321
858.60 0.132
858.70 0.132
858.80 0.1319
858.90 0.1319
859.00 0.1318
859.10 0.1317
859.20 0.1317
859.30 0.1316
859.40 0.1316
859.50 0.1315
859.60 0.1314
859.70 0.1314
859.80 0.1313
859.90 0.1313
860.00 0.1312
860.10 0.1312
860.20 0.1311
860.30 0.131
860.40 0.131
860.50 0.1309
860.60 0.1309
860.70 0.1308
860.80 0.1308
860.90 0.1307
861.00 0.1306
861.10 0.1306
861.20 0.1305
861.30 0.1305
861.40 0.1304
861.50 0.1303
861.60 0.1303
861.70 0.1302
861.80 0.1302
861.90 0.1301
862.00 0.1301
862.10 0.13
862.20 0.1299
862.30 0.1299
862.40 0.1298
862.50 0.1298
862.60 0.1297
862.70 0.1297
862.80 0.1296
862.90 0.1295
863.00 0.1295
863.10 0.1294
863.20 0.1294
863.30 0.1293
863.40 0.1292
863.50 0.1292
863.60 0.1291
863.70 0.1291
863.80 0.129
863.90 0.1289
864.00 0.1289
864.10 0.1288
864.20 0.1288
864.30 0.1287
864.40 0.1287
864.50 0.1286
864.60 0.1285
864.70 0.1285
864.80 0.1284
864.90 0.1284
865.00 0.1283
865.10 0.1283
865.20 0.1282
865.30 0.1281
865.40 0.1281
865.50 0.128
865.60 0.128
865.70 0.1279
865.80 0.1278
865.90 0.1278
866.00 0.1277
866.10 0.1277
866.20 0.1276
866.30 0.1276
866.40 0.1275
866.50 0.1274
866.60 0.1274
866.70 0.1273
866.80 0.1273
866.90 0.1272
867.00 0.1272
867.10 0.1271
867.20 0.127
867.30 0.127
867.40 0.1269
867.50 0.1269
867.60 0.1268
867.70 0.1268
867.80 0.1267
867.90 0.1266
868.00 0.1266
868.10 0.1265
868.20 0.1265
868.30 0.1264
868.40 0.1264
868.50 0.1263
868.60 0.1263
868.70 0.1262
868.80 0.1261
868.90 0.1261
869.00 0.126
869.10 0.126
869.20 0.1259
869.30 0.1259
869.40 0.1258
869.50 0.1258
869.60 0.1257
869.70 0.1256
869.80 0.1256
869.90 0.1255
870.00 0.1255
870.10 0.1254
870.20 0.1254
870.30 0.1253
870.40 0.1253
870.50 0.1252
870.60 0.1251
870.70 0.1251
870.80 0.125
870.90 0.125
871.00 0.1249
871.10 0.1249
871.20 0.1248
871.30 0.1248
871.40 0.1247
871.50 0.1246
871.60 0.1246
871.70 0.1245
871.80 0.1245
871.90 0.1244
872.00 0.1244
872.10 0.1243
872.20 0.1243
872.30 0.1242
872.40 0.1241
872.50 0.1241
872.60 0.124
872.70 0.124
872.80 0.1239
872.90 0.1239
873.00 0.1238
873.10 0.1238
873.20 0.1237
873.30 0.1237
873.40 0.1236
873.50 0.1235
873.60 0.1235
873.70 0.1234
873.80 0.1234
873.90 0.1233
874.00 0.1233
874.10 0.1232
874.20 0.1232
874.30 0.1231
874.40 0.1231
874.50 0.123
874.60 0.1229
874.70 0.1229
874.80 0.1228
874.90 0.1228
875.00 0.1227
875.10 0.1227
875.20 0.1226
875.30 0.1226
875.40 0.1225
875.50 0.1225
875.60 0.1224
875.70 0.1223
875.80 0.1223
875.90 0.1222
876.00 0.1222
876.10 0.1221
876.20 0.1221
876.30 0.122
876.40 0.122
876.50 0.1219
876.60 0.1219
876.70 0.1218
876.80 0.1217
876.90 0.1217
877.00 0.1216
877.10 0.1216
877.20 0.1215
877.30 0.1215
877.40 0.1214
877.50 0.1214
877.60 0.1213
877.70 0.1213
877.80 0.1212
877.90 0.1212
878.00 0.1211
878.10 0.1211
878.20 0.121
878.30 0.121
878.40 0.1209
878.50 0.1208
878.60 0.1208
878.70 0.1207
878.80 0.1207
878.90 0.1206
879.00 0.1206
879.10 0.1205
879.20 0.1205
879.30 0.1204
879.40 0.1204
879.50 0.1203
879.60 0.1203
879.70 0.1202
879.80 0.1202
879.90 0.1201
880.00 0.1201
880.10 0.12
880.20 0.12
880.30 0.1199
880.40 0.1198
880.50 0.1198
880.60 0.1197
880.70 0.1197
880.80 0.1196
880.90 0.1196
881.00 0.1195
881.10 0.1195
881.20 0.1194
881.30 0.1194
881.40 0.1193
881.50 0.1193
881.60 0.1192
881.70 0.1192
881.80 0.1191
881.90 0.1191
882.00 0.119
882.10 0.119
882.20 0.1189
882.30 0.1189
882.40 0.1188
882.50 0.1188
882.60 0.1187
882.70 0.1187
882.80 0.1186
882.90 0.1185
883.00 0.1185
883.10 0.1184
883.20 0.1184
883.30 0.1183
883.40 0.1183
883.50 0.1182
883.60 0.1182
883.70 0.1181
883.80 0.1181
883.90 0.118
884.00 0.118
884.10 0.1179
884.20 0.1179
884.30 0.1178
884.40 0.1178
884.50 0.1177
884.60 0.1177
884.70 0.1176
884.80 0.1176
884.90 0.1175
885.00 0.1175
885.10 0.1174
885.20 0.1174
885.30 0.1173
885.40 0.1173
885.50 0.1172
885.60 0.1172
885.70 0.1171
885.80 0.1171
885.90 0.117
886.00 0.117
886.10 0.1169
886.20 0.1169
886.30 0.1168
886.40 0.1168
886.50 0.1167
886.60 0.1167
886.70 0.1166
886.80 0.1166
886.90 0.1165
887.00 0.1165
887.10 0.1164
887.20 0.1164
887.30 0.1163
887.40 0.1163
887.50 0.1162
887.60 0.1162
887.70 0.1161
887.80 0.1161
887.90 0.116
888.00 0.116
888.10 0.1159
888.20 0.1159
888.30 0.1158
888.40 0.1158
888.50 0.1157
888.60 0.1157
888.70 0.1156
888.80 0.1156
888.90 0.1155
889.00 0.1155
889.10 0.1154
889.20 0.1154
889.30 0.1153
889.40 0.1153
889.50 0.1152
889.60 0.1152
889.70 0.1151
889.80 0.1151
889.90 0.115
890.00 0.115
890.10 0.1149
890.20 0.1149
890.30 0.1148
890.40 0.1148
890.50 0.1147
890.60 0.1147
890.70 0.1146
890.80 0.1146
890.90 0.1145
891.00 0.1145
891.10 0.1144
891.20 0.1144
891.30 0.1143
891.40 0.1143
891.50 0.1142
891.60 0.1142
891.70 0.1141
891.80 0.1141
891.90 0.114
892.00 0.114
892.10 0.1139
892.20 0.1139
892.30 0.1138
892.40 0.1138
892.50 0.1137
892.60 0.1137
892.70 0.1136
892.80 0.1136
892.90 0.1136
893.00 0.1135
893.10 0.1135
893.20 0.1134
893.30 0.1134
893.40 0.1133
893.50 0.1133
893.60 0.1132
893.70 0.1132
893.80 0.1131
893.90 0.1131
894.00 0.113
894.10 0.113
894.20 0.1129
894.30 0.1129
894.40 0.1128
894.50 0.1128
894.60 0.1127
894.70 0.1127
894.80 0.1126
894.90 0.1126
895.00 0.1125
895.10 0.1125
895.20 0.1124
895.30 0.1124
895.40 0.1123
895.50 0.1123
895.60 0.1122
895.70 0.1122
895.80 0.1122
895.90 0.1121
896.00 0.1121
896.10 0.112
896.20 0.112
896.30 0.1119
896.40 0.1119
896.50 0.1118
896.60 0.1118
896.70 0.1117
896.80 0.1117
896.90 0.1116
897.00 0.1116
897.10 0.1115
897.20 0.1115
897.30 0.1114
897.40 0.1114
897.50 0.1113
897.60 0.1113
897.70 0.1112
897.80 0.1112
897.90 0.1112
898.00 0.1111
898.10 0.1111
898.20 0.111
898.30 0.111
898.40 0.1109
898.50 0.1109
898.60 0.1108
898.70 0.1108
898.80 0.1107
898.90 0.1107
899.00 0.1106
899.10 0.1106
899.20 0.1105
899.30 0.1105
899.40 0.1104
899.50 0.1104
899.60 0.1104
899.70 0.1103
899.80 0.1103
899.90 0.1102
900.00 0.1102
900.10 0.1101
900.20 0.1101
900.30 0.11
900.40 0.11
900.50 0.1099
900.60 0.1099
900.70 0.1098
900.80 0.1098
900.90 0.1097
901.00 0.1097
901.10 0.1097
901.20 0.1096
901.30 0.1096
901.40 0.1095
901.50 0.1095
901.60 0.1094
901.70 0.1094
901.80 0.1093
901.90 0.1093
902.00 0.1092
902.10 0.1092
902.20 0.1091
902.30 0.1091
902.40 0.1091
902.50 0.109
902.60 0.109
902.70 0.1089
902.80 0.1089
902.90 0.1088
903.00 0.1088
903.10 0.1087
903.20 0.1087
903.30 0.1087
903.40 0.1086
903.50 0.1086
903.60 0.1085
903.70 0.1085
903.80 0.1084
903.90 0.1084
904.00 0.1083
904.10 0.1083
904.20 0.1082
904.30 0.1082
904.40 0.1082
904.50 0.1081
904.60 0.1081
904.70 0.108
904.80 0.108
904.90 0.1079
905.00 0.1079
905.10 0.1078
905.20 0.1078
905.30 0.1078
905.40 0.1077
905.50 0.1077
905.60 0.1076
905.70 0.1076
905.80 0.1075
905.90 0.1075
906.00 0.1075
906.10 0.1074
906.20 0.1074
906.30 0.1073
906.40 0.1073
906.50 0.1072
906.60 0.1072
906.70 0.1071
906.80 0.1071
906.90 0.1071
907.00 0.107
907.10 0.107
907.20 0.1069
907.30 0.1069
907.40 0.1068
907.50 0.1068
907.60 0.1067
907.70 0.1067
907.80 0.1067
907.90 0.1066
908.00 0.1066
908.10 0.1065
908.20 0.1065
908.30 0.1064
908.40 0.1064
908.50 0.1063
908.60 0.1063
908.70 0.1063
908.80 0.1062
908.90 0.1062
909.00 0.1061
909.10 0.1061
909.20 0.106
909.30 0.106
909.40 0.1059
909.50 0.1059
909.60 0.1059
909.70 0.1058
909.80 0.1058
909.90 0.1057
910.00 0.1057
910.10 0.1056
910.20 0.1056
910.30 0.1056
910.40 0.1055
910.50 0.1055
910.60 0.1054
910.70 0.1054
910.80 0.1053
910.90 0.1053
911.00 0.1052
911.10 0.1052
911.20 0.1052
911.30 0.1051
911.40 0.1051
911.50 0.105
911.60 0.105
911.70 0.1049
911.80 0.1049
911.90 0.1049
912.00 0.1048
912.10 0.1048
912.20 0.1047
912.30 0.1047
912.40 0.1046
912.50 0.1046
912.60 0.1045
912.70 0.1045
912.80 0.1045
912.90 0.1044
913.00 0.1044
913.10 0.1043
913.20 0.1043
913.30 0.1042
913.40 0.1042
913.50 0.1042
913.60 0.1041
913.70 0.1041
913.80 0.104
913.90 0.104
914.00 0.1039
914.10 0.1039
914.20 0.1038
914.30 0.1038
914.40 0.1038
914.50 0.1037
914.60 0.1037
914.70 0.1036
914.80 0.1036
914.90 0.1035
915.00 0.1035
915.10 0.1034
915.20 0.1034
915.30 0.1034
915.40 0.1033
915.50 0.1033
915.60 0.1032
915.70 0.1032
915.80 0.1031
915.90 0.1031
916.00 0.1031
916.10 0.103
916.20 0.103
916.30 0.1029
916.40 0.1029
916.50 0.1028
916.60 0.1028
916.70 0.1028
916.80 0.1027
916.90 0.1027
917.00 0.1026
917.10 0.1026
917.20 0.1025
917.30 0.1025
917.40 0.1024
917.50 0.1024
917.60 0.1024
917.70 0.1023
917.80 0.1023
917.90 0.1022
918.00 0.1022
918.10 0.1021
918.20 0.1021
918.30 0.1021
918.40 0.102
918.50 0.102
918.60 0.1019
918.70 0.1019
918.80 0.1018
918.90 0.1018
919.00 0.1018
919.10 0.1017
919.20 0.1017
919.30 0.1016
919.40 0.1016
919.50 0.1015
919.60 0.1015
919.70 0.1015
919.80 0.1014
919.90 0.1014
920.00 0.1013
920.10 0.1013
920.20 0.1012
920.30 0.1012
920.40 0.1012
920.50 0.1011
920.60 0.1011
920.70 0.101
920.80 0.101
920.90 0.1009
921.00 0.1009
921.10 0.1009
921.20 0.1008
921.30 0.1008
921.40 0.1007
921.50 0.1007
921.60 0.1006
921.70 0.1006
921.80 0.1006
921.90 0.1005
922.00 0.1005
922.10 0.1004
922.20 0.1004
922.30 0.1004
922.40 0.1003
922.50 0.1003
922.60 0.1002
922.70 0.1002
922.80 0.1002
922.90 0.1001
923.00 0.1001
923.10 0.1
923.20 0.1
923.30 0.09996
923.40 0.09992
923.50 0.09988
923.60 0.09985
923.70 0.09981
923.80 0.09977
923.90 0.09973
924.00 0.09969
924.10 0.09965
924.20 0.09961
924.30 0.09957
924.40 0.09954
924.50 0.0995
924.60 0.09946
924.70 0.09942
924.80 0.09938
924.90 0.09934
925.00 0.0993
925.10 0.09927
925.20 0.09923
925.30 0.09919
925.40 0.09915
925.50 0.09911
925.60 0.09907
925.70 0.09903
925.80 0.099
925.90 0.09896
926.00 0.09892
926.10 0.09888
926.20 0.09884
926.30 0.0988
926.40 0.09876
926.50 0.09873
926.60 0.09869
926.70 0.09865
926.80 0.09861
926.90 0.09857
927.00 0.09853
927.10 0.0985
927.20 0.09846
927.30 0.09842
927.40 0.09838
927.50 0.09835
927.60 0.09831
927.70 0.09827
927.80 0.09823
927.90 0.09819
928.00 0.09816
928.10 0.09812
928.20 0.09808
928.30 0.09804
928.40 0.09801
928.50 0.09797
928.60 0.09793
928.70 0.09789
928.80 0.09786
928.90 0.09782
929.00 0.09778
929.10 0.09774
929.20 0.09771
929.30 0.09767
929.40 0.09763
929.50 0.09759
929.60 0.09756
929.70 0.09752
929.80 0.09748
929.90 0.09744
930.00 0.09741
930.10 0.09737
930.20 0.09733
930.30 0.0973
930.40 0.09726
930.50 0.09722
930.60 0.09718
930.70 0.09715
930.80 0.09711
930.90 0.09707
931.00 0.09703
931.10 0.097
931.20 0.09696
931.30 0.09692
931.40 0.09689
931.50 0.09685
931.60 0.09681
931.70 0.09677
931.80 0.09674
931.90 0.0967
932.00 0.09666
932.10 0.09662
932.20 0.09659
932.30 0.09655
932.40 0.09651
932.50 0.09647
932.60 0.09643
932.70 0.0964
932.80 0.09636
932.90 0.09632
933.00 0.09628
933.10 0.09624
933.20 0.09621
933.30 0.09617
933.40 0.09613
933.50 0.09609
933.60 0.09605
933.70 0.09602
933.80 0.09598
933.90 0.09594
934.00 0.0959
934.10 0.09587
934.20 0.09583
934.30 0.09579
934.40 0.09575
934.50 0.09571
934.60 0.09567
934.70 0.09563
934.80 0.0956
934.90 0.09556
935.00 0.09552
935.10 0.09548
935.20 0.09544
935.30 0.0954
935.40 0.09536
935.50 0.09533
935.60 0.09529
935.70 0.09525
935.80 0.09521
935.90 0.09517
936.00 0.09513
936.10 0.09509
936.20 0.09506
936.30 0.09502
936.40 0.09498
936.50 0.09494
936.60 0.0949
936.70 0.09486
936.80 0.09482
936.90 0.09479
937.00 0.09475
937.10 0.09471
937.20 0.09467
937.30 0.09463
937.40 0.09459
937.50 0.09455
937.60 0.09451
937.70 0.09447
937.80 0.09443
937.90 0.0944
938.00 0.09436
938.10 0.09432
938.20 0.09428
938.30 0.09424
938.40 0.0942
938.50 0.09416
938.60 0.09412
938.70 0.09408
938.80 0.09404
938.90 0.094
939.00 0.09396
939.10 0.09392
939.20 0.09388
939.30 0.09384
939.40 0.0938
939.50 0.09376
939.60 0.09372
939.70 0.09368
939.80 0.09364
939.90 0.0936
940.00 0.09356
940.10 0.09353
940.20 0.09349
940.30 0.09345
940.40 0.09341
940.50 0.09337
940.60 0.09333
940.70 0.09329
940.80 0.09325
940.90 0.09321
941.00 0.09316
941.10 0.09312
941.20 0.09308
941.30 0.09304
941.40 0.093
941.50 0.09296
941.60 0.09292
941.70 0.09288
941.80 0.09284
941.90 0.0928
942.00 0.09276
942.10 0.09272
942.20 0.09268
942.30 0.09264
942.40 0.0926
942.50 0.09256
942.60 0.09252
942.70 0.09248
942.80 0.09244
942.90 0.0924
943.00 0.09236
943.10 0.09232
943.20 0.09228
943.30 0.09223
943.40 0.09219
943.50 0.09215
943.60 0.09211
943.70 0.09207
943.80 0.09203
943.90 0.09199
944.00 0.09195
944.10 0.09191
944.20 0.09187
944.30 0.09183
944.40 0.09179
944.50 0.09174
944.60 0.0917
944.70 0.09166
944.80 0.09162
944.90 0.09158
945.00 0.09154
945.10 0.0915
945.20 0.09146
945.30 0.09142
945.40 0.09137
945.50 0.09133
945.60 0.09129
945.70 0.09125
945.80 0.09121
945.90 0.09117
946.00 0.09112
946.10 0.09108
946.20 0.09104
946.30 0.091
946.40 0.09096
946.50 0.09092
946.60 0.09087
946.70 0.09083
946.80 0.09079
946.90 0.09075
947.00 0.09071
947.10 0.09067
947.20 0.09063
947.30 0.09058
947.40 0.09054
947.50 0.0905
947.60 0.09046
947.70 0.09042
947.80 0.09037
947.90 0.09033
948.00 0.09029
948.10 0.09025
948.20 0.09021
948.30 0.09016
948.40 0.09012
948.50 0.09008
948.60 0.09004
948.70 0.09
948.80 0.08995
948.90 0.08991
949.00 0.08987
949.10 0.08983
949.20 0.08979
949.30 0.08975
949.40 0.0897
949.50 0.08966
949.60 0.08962
949.70 0.08958
949.80 0.08953
949.90 0.08949
950.00 0.08945
950.10 0.08941
950.20 0.08937
950.30 0.08933
950.40 0.08928
950.50 0.08924
950.60 0.0892
950.70 0.08916
950.80 0.08912
950.90 0.08907
951.00 0.08903
951.10 0.08899
951.20 0.08895
951.30 0.08891
951.40 0.08887
951.50 0.08882
951.60 0.08878
951.70 0.08874
951.80 0.0887
951.90 0.08866
952.00 0.08862
952.10 0.08858
952.20 0.08853
952.30 0.08849
952.40 0.08845
952.50 0.08841
952.60 0.08837
952.70 0.08833
952.80 0.08829
952.90 0.08825
953.00 0.08821
953.10 0.08817
953.20 0.08813
953.30 0.08809
953.40 0.08805
953.50 0.08801
953.60 0.08797
953.70 0.08793
953.80 0.08789
953.90 0.08785
954.00 0.08781
954.10 0.08778
954.20 0.08774
954.30 0.0877
954.40 0.08767
954.50 0.08763
954.60 0.0876
954.70 0.08757
954.80 0.08753
954.90 0.0875
955.00 0.08747
955.10 0.08744
955.20 0.08741
955.30 0.08739
955.40 0.08736
955.50 0.08733
955.60 0.0873
955.70 0.08727
955.80 0.08724
955.90 0.08722
956.00 0.08719
956.10 0.08716
956.20 0.08714
956.30 0.08711
956.40 0.08708
956.50 0.08706
956.60 0.08703
956.70 0.087
956.80 0.08698
956.90 0.08695
957.00 0.08692
957.10 0.0869
957.20 0.08687
957.30 0.08684
957.40 0.08682
957.50 0.08679
957.60 0.08677
957.70 0.08674
957.80 0.08672
957.90 0.08669
958.00 0.08666
958.10 0.08664
958.20 0.08661
958.30 0.08659
958.40 0.08656
958.50 0.08654
958.60 0.08651
958.70 0.08648
958.80 0.08646
958.90 0.08643
959.00 0.08641
959.10 0.08638
959.20 0.08636
959.30 0.08633
959.40 0.0863
959.50 0.08628
959.60 0.08625
959.70 0.08623
959.80 0.0862
959.90 0.08617
960.00 0.08615
960.10 0.08612
960.20 0.0861
960.30 0.08607
960.40 0.08604
960.50 0.08602
960.60 0.08599
960.70 0.08597
960.80 0.08594
960.90 0.08592
961.00 0.08589
961.10 0.08586
961.20 0.08584
961.30 0.08581
961.40 0.08579
961.50 0.08576
961.60 0.08573
961.70 0.08571
961.80 0.08568
961.90 0.08565
962.00 0.08563
962.10 0.0856
962.20 0.08558
962.30 0.08555
962.40 0.08552
962.50 0.0855
962.60 0.08547
962.70 0.08544
962.80 0.08542
962.90 0.08539
963.00 0.08536
963.10 0.08534
963.20 0.08531
963.30 0.08528
963.40 0.08526
963.50 0.08523
963.60 0.0852
963.70 0.08517
963.80 0.08515
963.90 0.08512
964.00 0.08509
964.10 0.08507
964.20 0.08504
964.30 0.08501
964.40 0.08498
964.50 0.08496
964.60 0.08493
964.70 0.0849
964.80 0.08487
964.90 0.08485
965.00 0.08482
965.10 0.08479
965.20 0.08476
965.30 0.08474
965.40 0.08471
965.50 0.08468
965.60 0.08465
965.70 0.08463
965.80 0.0846
965.90 0.08457
966.00 0.08454
966.10 0.08452
966.20 0.08449
966.30 0.08446
966.40 0.08443
966.50 0.0844
966.60 0.08438
966.70 0.08435
966.80 0.08432
966.90 0.08429
967.00 0.08426
967.10 0.08423
967.20 0.08421
967.30 0.08418
967.40 0.08415
967.50 0.08412
967.60 0.08409
967.70 0.08406
967.80 0.08403
967.90 0.08401
968.00 0.08398
968.10 0.08395
968.20 0.08392
968.30 0.08389
968.40 0.08386
968.50 0.08383
968.60 0.0838
968.70 0.08377
968.80 0.08374
968.90 0.08371
969.00 0.08369
969.10 0.08366
969.20 0.08363
969.30 0.0836
969.40 0.08357
969.50 0.08354
969.60 0.08351
969.70 0.08348
969.80 0.08345
969.90 0.08342
970.00 0.08339
970.10 0.08336
970.20 0.08333
970.30 0.08331
970.40 0.08328
970.50 0.08325
970.60 0.08322
970.70 0.08319
970.80 0.08316
970.90 0.08313
971.00 0.0831
971.10 0.08307
971.20 0.08304
971.30 0.08301
971.40 0.08298
971.50 0.08295
971.60 0.08292
971.70 0.08289
971.80 0.08286
971.90 0.08283
972.00 0.0828
972.10 0.08276
972.20 0.08273
972.30 0.0827
972.40 0.08267
972.50 0.08264
972.60 0.08261
972.70 0.08258
972.80 0.08255
972.90 0.08252
973.00 0.08249
973.10 0.08246
973.20 0.08242
973.30 0.08239
973.40 0.08236
973.50 0.08233
973.60 0.0823
973.70 0.08227
973.80 0.08224
973.90 0.08221
974.00 0.08218
974.10 0.08215
974.20 0.08212
974.30 0.08209
974.40 0.08205
974.50 0.08202
974.60 0.08199
974.70 0.08196
974.80 0.08193
974.90 0.0819
975.00 0.08186
975.10 0.08183
975.20 0.0818
975.30 0.08177
975.40 0.08174
975.50 0.0817
975.60 0.08167
975.70 0.08164
975.80 0.08161
975.90 0.08158
976.00 0.08154
976.10 0.08151
976.20 0.08148
976.30 0.08145
976.40 0.08142
976.50 0.08139
976.60 0.08135
976.70 0.08132
976.80 0.08129
976.90 0.08126
977.00 0.08123
977.10 0.08119
977.20 0.08116
977.30 0.08113
977.40 0.08109
977.50 0.08106
977.60 0.08103
977.70 0.08099
977.80 0.08096
977.90 0.08093
978.00 0.08089
978.10 0.08086
978.20 0.08082
978.30 0.08079
978.40 0.08076
978.50 0.08072
978.60 0.08069
978.70 0.08066
978.80 0.08062
978.90 0.08059
979.00 0.08056
979.10 0.08052
979.20 0.08049
979.30 0.08046
979.40 0.08042
979.50 0.08039
979.60 0.08036
979.70 0.08032
979.80 0.08029
979.90 0.08026
980.00 0.08022
980.10 0.08019
980.20 0.08016
980.30 0.08012
980.40 0.08009
980.50 0.08006
980.60 0.08002
980.70 0.07999
980.80 0.07996
980.90 0.07992
981.00 0.07989
981.10 0.07986
981.20 0.07982
981.30 0.07979
981.40 0.07976
981.50 0.07972
981.60 0.07969
981.70 0.07966
981.80 0.07962
981.90 0.07959
982.00 0.07956
982.10 0.07952
982.20 0.07949
982.30 0.07945
982.40 0.07942
982.50 0.07938
982.60 0.07935
982.70 0.07931
982.80 0.07928
982.90 0.07924
983.00 0.07921
983.10 0.07917
983.20 0.07913
983.30 0.0791
983.40 0.07906
983.50 0.07903
983.60 0.07899
983.70 0.07896
983.80 0.07892
983.90 0.07889
984.00 0.07885
984.10 0.07882
984.20 0.07878
984.30 0.07875
984.40 0.07871
984.50 0.07868
984.60 0.07864
984.70 0.07861
984.80 0.07857
984.90 0.07853
985.00 0.0785
985.10 0.07846
985.20 0.07842
985.30 0.07839
985.40 0.07835
985.50 0.07831
985.60 0.07828
985.70 0.07824
985.80 0.0782
985.90 0.07817
986.00 0.07813
986.10 0.0781
986.20 0.07806
986.30 0.07802
986.40 0.07799
986.50 0.07795
986.60 0.07791
986.70 0.07788
986.80 0.07784
986.90 0.0778
987.00 0.07777
987.10 0.07773
987.20 0.07769
987.30 0.07765
987.40 0.07762
987.50 0.07758
987.60 0.07754
987.70 0.0775
987.80 0.07747
987.90 0.07743
988.00 0.07739
988.10 0.07735
988.20 0.07731
988.30 0.07728
988.40 0.07724
988.50 0.0772
988.60 0.07716
988.70 0.07713
988.80 0.07709
988.90 0.07705
989.00 0.07701
989.10 0.07697
989.20 0.07693
989.30 0.07689
989.40 0.07685
989.50 0.07681
989.60 0.07678
989.70 0.07674
989.80 0.0767
989.90 0.07666
990.00 0.07662
990.10 0.07658
990.20 0.07654
990.30 0.0765
990.40 0.07646
990.50 0.07643
990.60 0.07639
990.70 0.07635
990.80 0.07631
990.90 0.07627
991.00 0.07623
991.10 0.07619
991.20 0.07615
991.30 0.07611
991.40 0.07607
991.50 0.07603
991.60 0.07599
991.70 0.07595
991.80 0.07591
991.90 0.07587
992.00 0.07583
992.10 0.07578
992.20 0.07574
992.30 0.0757
992.40 0.07566
992.50 0.07562
992.60 0.07558
992.70 0.07554
992.80 0.0755
992.90 0.07545
993.00 0.07541
993.10 0.07537
993.20 0.07533
993.30 0.07529
993.40 0.07524
993.50 0.0752
993.60 0.07516
993.70 0.07512
993.80 0.07508
993.90 0.07503
994.00 0.07499
994.10 0.07495
994.20 0.07491
994.30 0.07487
994.40 0.07482
994.50 0.07478
994.60 0.07474
994.70 0.0747
994.80 0.07465
994.90 0.07461
995.00 0.07457
995.10 0.07452
995.20 0.07448
995.30 0.07444
995.40 0.07439
995.50 0.07435
995.60 0.07431
995.70 0.07426
995.80 0.07422
995.90 0.07418
996.00 0.07413
996.10 0.07409
996.20 0.07404
996.30 0.074
996.40 0.07395
996.50 0.07391
996.60 0.07387
996.70 0.07382
996.80 0.07378
996.90 0.07373
997.00 0.07369
997.10 0.07364
997.20 0.0736
997.30 0.07355
997.40 0.07351
997.50 0.07346
997.60 0.07342
997.70 0.07337
997.80 0.07333
997.90 0.07328
998.00 0.07323
998.10 0.07319
998.20 0.07314
998.30 0.0731
998.40 0.07305
998.50 0.07301
998.60 0.07296
998.70 0.07291
998.80 0.07287
998.90 0.07282
999.00 0.07278
999.10 0.07273
999.20 0.07269
999.30 0.07264
999.40 0.07259
999.50 0.07255
999.60 0.0725
999.70 0.07246
999.80 0.07241
999.90 0.07237
1000.00 0.07232
1000.10 0.07227
1000.20 0.07223
1000.30 0.07218
1000.40 0.07214
1000.50 0.07209
1000.60 0.07204
1000.70 0.072
1000.80 0.07195
1000.90 0.07191
1001.00 0.07186
1001.10 0.07182
1001.20 0.07177
1001.30 0.07172
1001.40 0.07168
1001.50 0.07163
1001.60 0.07159
1001.70 0.07154
1001.80 0.0715
1001.90 0.07145
1002.00 0.07141
1002.10 0.07137
1002.20 0.07133
1002.30 0.07128
1002.40 0.07124
1002.50 0.0712
1002.60 0.07116
1002.70 0.07112
1002.80 0.07108
1002.90 0.07103
1003.00 0.07099
1003.10 0.07095
1003.20 0.07091
1003.30 0.07088
1003.40 0.07084
1003.50 0.07081
1003.60 0.07077
1003.70 0.07074
1003.80 0.0707
1003.90 0.07067
1004.00 0.07064
1004.10 0.07061
1004.20 0.07058
1004.30 0.07056
1004.40 0.07053
1004.50 0.07051
1004.60 0.07049
1004.70 0.07048
1004.80 0.07046
1004.90 0.07044
1005.00 0.07041
1005.10 0.07038
1005.20 0.07035
1005.30 0.07031
1005.40 0.07028
1005.50 0.07025
1005.60 0.07023
1005.70 0.07021
1005.80 0.07018
1005.90 0.07016
1006.00 0.07014
1006.10 0.07011
1006.20 0.0701
1006.30 0.07008
1006.40 0.07007
1006.50 0.07005
1006.60 0.07004
1006.70 0.07002
1006.80 0.07001
1006.90 0.06999
1007.00 0.06998
1007.10 0.06997
1007.20 0.06996
1007.30 0.06995
1007.40 0.06994
1007.50 0.06993
1007.60 0.06992
1007.70 0.06991
1007.80 0.0699
1007.90 0.0699
1008.00 0.06989
1008.10 0.06988
1008.20 0.06988
1008.30 0.06987
1008.40 0.06986
1008.50 0.06985
1008.60 0.06985
1008.70 0.06984
1008.80 0.06983
1008.90 0.06982
1009.00 0.06982
1009.10 0.06981
1009.20 0.0698
1009.30 0.06979
1009.40 0.06979
1009.50 0.06978
1009.60 0.06977
1009.70 0.06977
1009.80 0.06976
1009.90 0.06975
1010.00 0.06974
1010.10 0.06974
1010.20 0.06973
1010.30 0.06972
1010.40 0.06972
1010.50 0.06971
1010.60 0.0697
1010.70 0.06969
1010.80 0.06969
1010.90 0.06968
1011.00 0.06967
1011.10 0.06967
1011.20 0.06966
1011.30 0.06965
1011.40 0.06964
1011.50 0.06964
1011.60 0.06963
1011.70 0.06962
1011.80 0.06961
1011.90 0.06961
1012.00 0.0696
1012.10 0.06959
1012.20 0.06958
1012.30 0.06957
1012.40 0.06956
1012.50 0.06955
1012.60 0.06954
1012.70 0.06954
1012.80 0.06953
1012.90 0.06952
1013.00 0.06951
1013.10 0.0695
1013.20 0.06949
1013.30 0.06948
1013.40 0.06947
1013.50 0.06946
1013.60 0.06946
1013.70 0.06945
1013.80 0.06944
1013.90 0.06942
1014.00 0.06941
1014.10 0.0694
1014.20 0.06939
1014.30 0.06938
1014.40 0.06937
1014.50 0.06936
1014.60 0.06935
1014.70 0.06934
1014.80 0.06933
1014.90 0.06932
1015.00 0.06931
1015.10 0.06929
1015.20 0.06928
1015.30 0.06927
1015.40 0.06926
1015.50 0.06925
1015.60 0.06923
1015.70 0.06922
1015.80 0.06921
1015.90 0.0692
1016.00 0.06919
1016.10 0.06918
1016.20 0.06916
1016.30 0.06915
1016.40 0.06914
1016.50 0.06913
1016.60 0.06912
1016.70 0.0691
1016.80 0.06909
1016.90 0.06908
1017.00 0.06907
1017.10 0.06905
1017.20 0.06904
1017.30 0.06902
1017.40 0.06901
1017.50 0.069
1017.60 0.06898
1017.70 0.06897
1017.80 0.06895
1017.90 0.06894
1018.00 0.06893
1018.10 0.06891
1018.20 0.0689
1018.30 0.06888
1018.40 0.06887
1018.50 0.06886
1018.60 0.06884
1018.70 0.06883
1018.80 0.06881
1018.90 0.0688
1019.00 0.06878
1019.10 0.06877
1019.20 0.06875
1019.30 0.06874
1019.40 0.06872
1019.50 0.06871
1019.60 0.06869
1019.70 0.06867
1019.80 0.06866
1019.90 0.06864
1020.00 0.06863
1020.10 0.06861
1020.20 0.0686
1020.30 0.06858
1020.40 0.06857
1020.50 0.06855
1020.60 0.06854
1020.70 0.06852
1020.80 0.0685
1020.90 0.06849
1021.00 0.06847
1021.10 0.06845
1021.20 0.06844
1021.30 0.06842
1021.40 0.0684
1021.50 0.06839
1021.60 0.06837
1021.70 0.06835
1021.80 0.06834
1021.90 0.06832
1022.00 0.0683
1022.10 0.06829
1022.20 0.06827
1022.30 0.06825
1022.40 0.06823
1022.50 0.06821
1022.60 0.0682
1022.70 0.06818
1022.80 0.06816
1022.90 0.06814
1023.00 0.06813
1023.10 0.06811
1023.20 0.06809
1023.30 0.06807
1023.40 0.06805
1023.50 0.06804
1023.60 0.06802
1023.70 0.068
1023.80 0.06798
1023.90 0.06797
1024.00 0.06795
1024.10 0.06793
1024.20 0.06791
1024.30 0.06789
1024.40 0.06788
1024.50 0.06786
1024.60 0.06784
1024.70 0.06782
1024.80 0.0678
1024.90 0.06778
1025.00 0.06776
1025.10 0.06775
1025.20 0.06773
1025.30 0.06771
1025.40 0.06769
1025.50 0.06767
1025.60 0.06765
1025.70 0.06763
1025.80 0.06761
1025.90 0.06759
1026.00 0.06757
1026.10 0.06755
1026.20 0.06753
1026.30 0.06752
1026.40 0.0675
1026.50 0.06748
1026.60 0.06746
1026.70 0.06744
1026.80 0.06742
1026.90 0.0674
1027.00 0.06738
1027.10 0.06736
1027.20 0.06734
1027.30 0.06732
1027.40 0.0673
1027.50 0.06728
1027.60 0.06726
1027.70 0.06724
1027.80 0.06722
1027.90 0.0672
1028.00 0.06718
1028.10 0.06715
1028.20 0.06713
1028.30 0.06711
1028.40 0.06709
1028.50 0.06707
1028.60 0.06705
1028.70 0.06703
1028.80 0.06701
1028.90 0.06699
1029.00 0.06697
1029.10 0.06695
1029.20 0.06693
1029.30 0.06691
1029.40 0.06689
1029.50 0.06687
1029.60 0.06685
1029.70 0.06683
1029.80 0.06681
1029.90 0.06678
1030.00 0.06676
1030.10 0.06674
1030.20 0.06672
1030.30 0.0667
1030.40 0.06668
1030.50 0.06666
1030.60 0.06664
1030.70 0.06662
1030.80 0.0666
1030.90 0.06658
1031.00 0.06656
1031.10 0.06654
1031.20 0.06652
1031.30 0.0665
1031.40 0.06648
1031.50 0.06646
1031.60 0.06644
1031.70 0.06642
1031.80 0.0664
1031.90 0.06638
1032.00 0.06636
1032.10 0.06633
1032.20 0.06631
1032.30 0.06629
1032.40 0.06627
1032.50 0.06625
1032.60 0.06622
1032.70 0.0662
1032.80 0.06618
1032.90 0.06616
1033.00 0.06614
1033.10 0.06611
1033.20 0.06609
1033.30 0.06607
1033.40 0.06605
1033.50 0.06603
1033.60 0.066
1033.70 0.06598
1033.80 0.06596
1033.90 0.06594
1034.00 0.06592
1034.10 0.0659
1034.20 0.06587
1034.30 0.06585
1034.40 0.06583
1034.50 0.06581
1034.60 0.06579
1034.70 0.06576
1034.80 0.06574
1034.90 0.06572
1035.00 0.0657
1035.10 0.06568
1035.20 0.06566
1035.30 0.06563
1035.40 0.06561
1035.50 0.06559
1035.60 0.06557
1035.70 0.06555
1035.80 0.06553
1035.90 0.0655
1036.00 0.06548
1036.10 0.06546
1036.20 0.06544
1036.30 0.06542
1036.40 0.0654
1036.50 0.06537
1036.60 0.06535
1036.70 0.06533
1036.80 0.06531
1036.90 0.06529
1037.00 0.06527
1037.10 0.06524
1037.20 0.06522
1037.30 0.0652
1037.40 0.06517
1037.50 0.06515
1037.60 0.06513
1037.70 0.06511
1037.80 0.06508
1037.90 0.06506
1038.00 0.06504
1038.10 0.06501
1038.20 0.06499
1038.30 0.06497
1038.40 0.06495
1038.50 0.06492
1038.60 0.0649
1038.70 0.06488
1038.80 0.06486
1038.90 0.06483
1039.00 0.06481
1039.10 0.06479
1039.20 0.06477
1039.30 0.06474
1039.40 0.06472
1039.50 0.0647
1039.60 0.06468
1039.70 0.06465
1039.80 0.06463
1039.90 0.06461
1040.00 0.06458
1040.10 0.06456
1040.20 0.06454
1040.30 0.06452
1040.40 0.06449
1040.50 0.06447
1040.60 0.06445
1040.70 0.06443
1040.80 0.0644
1040.90 0.06438
1041.00 0.06436
1041.10 0.06434
1041.20 0.06431
1041.30 0.06429
1041.40 0.06427
1041.50 0.06425
1041.60 0.06422
1041.70 0.0642
1041.80 0.06418
1041.90 0.06416
1042.00 0.06413
1042.10 0.06411
1042.20 0.06409
1042.30 0.06406
1042.40 0.06404
1042.50 0.06402
1042.60 0.064
1042.70 0.06397
1042.80 0.06395
1042.90 0.06393
1043.00 0.0639
1043.10 0.06388
1043.20 0.06386
1043.30 0.06383
1043.40 0.06381
1043.50 0.06379
1043.60 0.06376
1043.70 0.06374
1043.80 0.06372
1043.90 0.06369
1044.00 0.06367
1044.10 0.06365
1044.20 0.06362
1044.30 0.0636
1044.40 0.06358
1044.50 0.06355
1044.60 0.06353
1044.70 0.06351
1044.80 0.06348
1044.90 0.06346
1045.00 0.06344
1045.10 0.06342
1045.20 0.06339
1045.30 0.06337
1045.40 0.06335
1045.50 0.06332
1045.60 0.0633
1045.70 0.06328
1045.80 0.06325
1045.90 0.06323
1046.00 0.06321
1046.10 0.06318
1046.20 0.06316
1046.30 0.06314
1046.40 0.06312
1046.50 0.06309
1046.60 0.06307
1046.70 0.06305
1046.80 0.06302
1046.90 0.063
1047.00 0.06298
1047.10 0.06295
1047.20 0.06293
1047.30 0.06291
1047.40 0.06288
1047.50 0.06286
1047.60 0.06283
1047.70 0.06281
1047.80 0.06279
1047.90 0.06276
1048.00 0.06274
1048.10 0.06272
1048.20 0.06269
1048.30 0.06267
1048.40 0.06265
1048.50 0.06262
1048.60 0.0626
1048.70 0.06257
1048.80 0.06255
1048.90 0.06253
1049.00 0.0625
1049.10 0.06248
1049.20 0.06246
1049.30 0.06243
1049.40 0.06241
1049.50 0.06239
1049.60 0.06236
1049.70 0.06234
1049.80 0.06231
1049.90 0.06229
1050.00 0.06227
1050.10 0.06224
1050.20 0.06222
1050.30 0.0622
1050.40 0.06217
1050.50 0.06215
1050.60 0.06213
1050.70 0.0621
1050.80 0.06208
1050.90 0.06206
1051.00 0.06203
1051.10 0.06201
1051.20 0.06199
1051.30 0.06196
1051.40 0.06194
1051.50 0.06192
1051.60 0.06189
1051.70 0.06187
1051.80 0.06185
1051.90 0.06182
1052.00 0.0618
1052.10 0.06177
1052.20 0.06175
1052.30 0.06173
1052.40 0.0617
1052.50 0.06168
1052.60 0.06165
1052.70 0.06163
1052.80 0.0616
1052.90 0.06158
1053.00 0.06156
1053.10 0.06153
1053.20 0.06151
1053.30 0.06148
1053.40 0.06146
1053.50 0.06144
1053.60 0.06141
1053.70 0.06139
1053.80 0.06136
1053.90 0.06134
1054.00 0.06131
1054.10 0.06129
1054.20 0.06127
1054.30 0.06124
1054.40 0.06122
1054.50 0.06119
1054.60 0.06117
1054.70 0.06115
1054.80 0.06112
1054.90 0.0611
1055.00 0.06107
1055.10 0.06105
1055.20 0.06103
1055.30 0.061
1055.40 0.06098
1055.50 0.06095
1055.60 0.06093
1055.70 0.06091
1055.80 0.06088
1055.90 0.06086
1056.00 0.06083
1056.10 0.06081
1056.20 0.06079
1056.30 0.06076
1056.40 0.06074
1056.50 0.06071
1056.60 0.06069
1056.70 0.06067
1056.80 0.06064
1056.90 0.06062
1057.00 0.0606
1057.10 0.06057
1057.20 0.06055
1057.30 0.06052
1057.40 0.0605
1057.50 0.06047
1057.60 0.06045
1057.70 0.06042
1057.80 0.0604
1057.90 0.06037
1058.00 0.06035
1058.10 0.06032
1058.20 0.0603
1058.30 0.06027
1058.40 0.06025
1058.50 0.06022
1058.60 0.0602
1058.70 0.06017
1058.80 0.06015
1058.90 0.06012
1059.00 0.0601
1059.10 0.06007
1059.20 0.06005
1059.30 0.06002
1059.40 0.06
1059.50 0.05997
1059.60 0.05995
1059.70 0.05992
1059.80 0.0599
1059.90 0.05987
1060.00 0.05985
1060.10 0.05982
1060.20 0.0598
1060.30 0.05978
1060.40 0.05975
1060.50 0.05973
1060.60 0.0597
1060.70 0.05968
1060.80 0.05965
1060.90 0.05963
1061.00 0.0596
1061.10 0.05958
1061.20 0.05955
1061.30 0.05953
1061.40 0.0595
1061.50 0.05948
1061.60 0.05945
1061.70 0.05943
1061.80 0.05941
1061.90 0.05938
1062.00 0.05936
1062.10 0.05933
1062.20 0.0593
1062.30 0.05928
1062.40 0.05925
1062.50 0.05923
1062.60 0.0592
1062.70 0.05917
1062.80 0.05915
1062.90 0.05912
1063.00 0.0591
1063.10 0.05907
1063.20 0.05904
1063.30 0.05902
1063.40 0.05899
1063.50 0.05897
1063.60 0.05894
1063.70 0.05891
1063.80 0.05889
1063.90 0.05886
1064.00 0.05884
1064.10 0.05881
1064.20 0.05878
1064.30 0.05876
1064.40 0.05873
1064.50 0.05871
1064.60 0.05868
1064.70 0.05865
1064.80 0.05863
1064.90 0.0586
1065.00 0.05858
1065.10 0.05855
1065.20 0.05853
1065.30 0.0585
1065.40 0.05847
1065.50 0.05845
1065.60 0.05842
1065.70 0.0584
1065.80 0.05837
1065.90 0.05834
1066.00 0.05832
1066.10 0.05829
1066.20 0.05827
1066.30 0.05824
1066.40 0.05822
1066.50 0.05819
1066.60 0.05816
1066.70 0.05814
1066.80 0.05811
1066.90 0.05809
1067.00 0.05806
1067.10 0.05803
1067.20 0.05801
1067.30 0.05798
1067.40 0.05795
1067.50 0.05792
1067.60 0.05789
1067.70 0.05787
1067.80 0.05784
1067.90 0.05781
1068.00 0.05778
1068.10 0.05776
1068.20 0.05773
1068.30 0.0577
1068.40 0.05767
1068.50 0.05764
1068.60 0.05762
1068.70 0.05759
1068.80 0.05756
1068.90 0.05753
1069.00 0.05751
1069.10 0.05748
1069.20 0.05745
1069.30 0.05742
1069.40 0.05739
1069.50 0.05737
1069.60 0.05734
1069.70 0.05731
1069.80 0.05728
1069.90 0.05726
1070.00 0.05723
1070.10 0.0572
1070.20 0.05717
1070.30 0.05715
1070.40 0.05712
1070.50 0.05709
1070.60 0.05706
1070.70 0.05704
1070.80 0.05701
1070.90 0.05698
1071.00 0.05695
1071.10 0.05692
1071.20 0.0569
1071.30 0.05687
1071.40 0.05684
1071.50 0.05681
1071.60 0.05679
1071.70 0.05676
1071.80 0.05673
1071.90 0.0567
1072.00 0.05668
1072.10 0.05665
1072.20 0.05662
1072.30 0.05659
1072.40 0.05656
1072.50 0.05653
1072.60 0.0565
1072.70 0.05647
1072.80 0.05644
1072.90 0.05641
1073.00 0.05638
1073.10 0.05635
1073.20 0.05633
1073.30 0.0563
1073.40 0.05627
1073.50 0.05624
1073.60 0.05621
1073.70 0.05617
1073.80 0.05614
1073.90 0.05611
1074.00 0.05608
1074.10 0.05605
1074.20 0.05602
1074.30 0.05599
1074.40 0.05596
1074.50 0.05592
1074.60 0.05589
1074.70 0.05586
1074.80 0.05583
1074.90 0.0558
1075.00 0.05577
1075.10 0.05574
1075.20 0.05571
1075.30 0.05568
1075.40 0.05564
1075.50 0.05561
1075.60 0.05558
1075.70 0.05555
1075.80 0.05552
1075.90 0.05549
1076.00 0.05546
1076.10 0.05543
1076.20 0.0554
1076.30 0.05537
1076.40 0.05533
1076.50 0.0553
1076.60 0.05527
1076.70 0.05524
1076.80 0.05521
1076.90 0.05518
1077.00 0.05515
1077.10 0.05512
1077.20 0.05508
1077.30 0.05505
1077.40 0.05502
1077.50 0.05498
1077.60 0.05495
1077.70 0.05492
1077.80 0.05488
1077.90 0.05485
1078.00 0.05481
1078.10 0.05478
1078.20 0.05475
1078.30 0.05471
1078.40 0.05468
1078.50 0.05464
1078.60 0.05461
1078.70 0.05458
1078.80 0.05454
1078.90 0.05451
1079.00 0.05448
1079.10 0.05444
1079.20 0.05441
1079.30 0.05437
1079.40 0.05434
1079.50 0.05431
1079.60 0.05427
1079.70 0.05423
1079.80 0.0542
1079.90 0.05416
1080.00 0.05412
1080.10 0.05409
1080.20 0.05405
1080.30 0.05402
1080.40 0.05398
1080.50 0.05394
1080.60 0.05391
1080.70 0.05387
1080.80 0.05383
1080.90 0.0538
1081.00 0.05376
1081.10 0.05373
1081.20 0.05369
1081.30 0.05365
1081.40 0.05362
1081.50 0.05358
1081.60 0.05354
1081.70 0.05351
1081.80 0.05347
1081.90 0.05343
1082.00 0.05339
1082.10 0.05335
1082.20 0.05332
1082.30 0.05328
1082.40 0.05324
1082.50 0.0532
1082.60 0.05316
1082.70 0.05312
1082.80 0.05308
1082.90 0.05304
1083.00 0.053
1083.10 0.05296
1083.20 0.05293
1083.30 0.05289
1083.40 0.05285
1083.50 0.05281
1083.60 0.05277
1083.70 0.05273
1083.80 0.05269
1083.90 0.05264
1084.00 0.0526
1084.10 0.05256
1084.20 0.05252
1084.30 0.05248
1084.40 0.05244
1084.50 0.0524
1084.60 0.05236
1084.70 0.05231
1084.80 0.05227
1084.90 0.05223
1085.00 0.05218
1085.10 0.05214
1085.20 0.0521
1085.30 0.05205
1085.40 0.05201
1085.50 0.05197
1085.60 0.05192
1085.70 0.05188
1085.80 0.05184
1085.90 0.05179
1086.00 0.05175
1086.10 0.05171
1086.20 0.05167
1086.30 0.05162
1086.40 0.05158
1086.50 0.05154
1086.60 0.05149
1086.70 0.05145
1086.80 0.0514
1086.90 0.05136
1087.00 0.05131
1087.10 0.05126
1087.20 0.05122
1087.30 0.05117
1087.40 0.05112
1087.50 0.05108
1087.60 0.05103
1087.70 0.05098
1087.80 0.05093
1087.90 0.05089
1088.00 0.05084
1088.10 0.05079
1088.20 0.05075
1088.30 0.0507
1088.40 0.05065
1088.50 0.05061
1088.60 0.05056
1088.70 0.05051
1088.80 0.05045
1088.90 0.0504
1089.00 0.05035
1089.10 0.0503
1089.20 0.05025
1089.30 0.0502
1089.40 0.05015
1089.50 0.0501
1089.60 0.05005
1089.70 0.05
1089.80 0.04995
1089.90 0.0499
1090.00 0.04985
1090.10 0.0498
1090.20 0.04975
1090.30 0.0497
1090.40 0.04965
1090.50 0.0496
1090.60 0.04955
1090.70 0.04949
1090.80 0.04943
1090.90 0.04938
1091.00 0.04932
1091.10 0.04927
1091.20 0.04921
1091.30 0.04916
1091.40 0.0491
1091.50 0.04905
1091.60 0.04899
1091.70 0.04894
1091.80 0.04888
1091.90 0.04882
1092.00 0.04877
1092.10 0.0487
1092.20 0.04864
1092.30 0.04858
1092.40 0.04851
1092.50 0.04845
1092.60 0.04839
1092.70 0.04832
1092.80 0.04825
1092.90 0.04818
1093.00 0.04811
1093.10 0.04803
1093.20 0.04795
1093.30 0.04788
1093.40 0.0478
1093.50 0.04771
1093.60 0.04763
1093.70 0.04758
1093.80 0.04755
1093.90 0.04754
1094.00 0.04759
1094.10 0.04763
1094.20 0.04768
1094.30 0.04772
1094.40 0.04776
1094.50 0.0478
1094.60 0.04785
1094.70 0.04789
1094.80 0.04793
1094.90 0.04797
1095.00 0.04801
1095.10 0.04804
1095.20 0.04806
1095.30 0.04809
1095.40 0.04812
1095.50 0.04814
1095.60 0.04817
1095.70 0.0482
1095.80 0.04822
1095.90 0.04825
1096.00 0.04828
1096.10 0.0483
1096.20 0.04833
1096.30 0.04836
1096.40 0.04838
1096.50 0.04841
1096.60 0.04843
1096.70 0.04845
1096.80 0.04847
1096.90 0.04849
1097.00 0.04851
1097.10 0.04853
1097.20 0.04854
1097.30 0.04856
1097.40 0.04858
1097.50 0.04859
1097.60 0.04861
1097.70 0.04863
1097.80 0.04864
1097.90 0.04866
1098.00 0.04868
1098.10 0.04869
1098.20 0.04871
1098.30 0.04873
1098.40 0.04874
1098.50 0.04876
1098.60 0.04877
1098.70 0.04879
1098.80 0.0488
1098.90 0.04881
1099.00 0.04882
1099.10 0.04884
1099.20 0.04885
1099.30 0.04886
1099.40 0.04887
1099.50 0.04889
1099.60 0.0489
1099.70 0.04891
1099.80 0.04892
1099.90 0.04894
1100.00 0.04895
1100.10 0.04896
1100.20 0.04897
1100.30 0.04899
1100.40 0.049
1100.50 0.04901
1100.60 0.04902
1100.70 0.04903
1100.80 0.04904
1100.90 0.04905
1101.00 0.04905
1101.10 0.04906
1101.20 0.04907
1101.30 0.04908
1101.40 0.04909
1101.50 0.0491
1101.60 0.04911
1101.70 0.04912
1101.80 0.04912
1101.90 0.04913
1102.00 0.04914
1102.10 0.04915
1102.20 0.04916
1102.30 0.04916
1102.40 0.04917
1102.50 0.04918
1102.60 0.04918
1102.70 0.04919
1102.80 0.04919
1102.90 0.0492
1103.00 0.0492
1103.10 0.04921
1103.20 0.04921
1103.30 0.04922
1103.40 0.04922
1103.50 0.04923
1103.60 0.04923
1103.70 0.04923
1103.80 0.04924
1103.90 0.04924
1104.00 0.04924
1104.10 0.04925
1104.20 0.04925
1104.30 0.04925
1104.40 0.04925
1104.50 0.04926
1104.60 0.04926
1104.70 0.04926
1104.80 0.04927
1104.90 0.04927
1105.00 0.04927
1105.10 0.04927
1105.20 0.04928
1105.30 0.04928
1105.40 0.04928
1105.50 0.04928
1105.60 0.04928
1105.70 0.04928
1105.80 0.04928
1105.90 0.04928
1106.00 0.04928
1106.10 0.04928
1106.20 0.04928
1106.30 0.04928
1106.40 0.04928
1106.50 0.04928
1106.60 0.04928
1106.70 0.04928
1106.80 0.04928
1106.90 0.04928
1107.00 0.04928
1107.10 0.04928
1107.20 0.04928
1107.30 0.04928
1107.40 0.04928
1107.50 0.04928
1107.60 0.04927
1107.70 0.04927
1107.80 0.04927
1107.90 0.04926
1108.00 0.04926
1108.10 0.04926
1108.20 0.04925
1108.30 0.04925
1108.40 0.04925
1108.50 0.04924
1108.60 0.04924
1108.70 0.04924
1108.80 0.04924
1108.90 0.04923
1109.00 0.04923
1109.10 0.04923
1109.20 0.04922
1109.30 0.04922
1109.40 0.04922
1109.50 0.04921
1109.60 0.04921
1109.70 0.0492
1109.80 0.0492
1109.90 0.04919
1110.00 0.04919
1110.10 0.04918
1110.20 0.04917
1110.30 0.04917
1110.40 0.04916
1110.50 0.04916
1110.60 0.04915
1110.70 0.04915
1110.80 0.04914
1110.90 0.04914
1111.00 0.04913
1111.10 0.04912
1111.20 0.04912
1111.30 0.04911
1111.40 0.04911
1111.50 0.0491
1111.60 0.0491
1111.70 0.04909
1111.80 0.04909
1111.90 0.04908
1112.00 0.04908
1112.10 0.04907
1112.20 0.04906
1112.30 0.04905
1112.40 0.04905
1112.50 0.04904
1112.60 0.04903
1112.70 0.04902
1112.80 0.04902
1112.90 0.04901
1113.00 0.049
1113.10 0.04899
1113.20 0.04899
1113.30 0.04898
1113.40 0.04897
1113.50 0.04896
1113.60 0.04895
1113.70 0.04895
1113.80 0.04894
1113.90 0.04893
1114.00 0.04892
1114.10 0.04891
1114.20 0.0489
1114.30 0.04889
1114.40 0.04888
1114.50 0.04887
1114.60 0.04886
1114.70 0.04885
1114.80 0.04884
1114.90 0.04884
1115.00 0.04883
1115.10 0.04882
1115.20 0.04881
1115.30 0.0488
1115.40 0.04879
1115.50 0.04878
1115.60 0.04877
1115.70 0.04876
1115.80 0.04875
1115.90 0.04874
1116.00 0.04873
1116.10 0.04873
1116.20 0.04872
1116.30 0.04871
1116.40 0.0487
1116.50 0.04869
1116.60 0.04868
1116.70 0.04867
1116.80 0.04866
1116.90 0.04865
1117.00 0.04864
1117.10 0.04863
1117.20 0.04862
1117.30 0.04861
1117.40 0.0486
1117.50 0.04859
1117.60 0.04857
1117.70 0.04856
1117.80 0.04855
1117.90 0.04854
1118.00 0.04853
1118.10 0.04852
1118.20 0.04851
1118.30 0.04849
1118.40 0.04848
1118.50 0.04847
1118.60 0.04846
1118.70 0.04845
1118.80 0.04844
1118.90 0.04843
1119.00 0.04841
1119.10 0.0484
1119.20 0.04839
1119.30 0.04838
1119.40 0.04837
1119.50 0.04836
1119.60 0.04835
1119.70 0.04833
1119.80 0.04832
1119.90 0.04831
1120.00 0.0483
1120.10 0.04829
1120.20 0.04828
1120.30 0.04827
1120.40 0.04826
1120.50 0.04824
1120.60 0.04823
1120.70 0.04822
1120.80 0.04821
1120.90 0.0482
1121.00 0.04819
1121.10 0.04818
1121.20 0.04816
1121.30 0.04815
1121.40 0.04814
1121.50 0.04813
1121.60 0.04812
1121.70 0.04811
1121.80 0.0481
1121.90 0.04809
1122.00 0.04807
1122.10 0.04806
1122.20 0.04805
1122.30 0.04803
1122.40 0.04802
1122.50 0.04801
1122.60 0.048
1122.70 0.04798
1122.80 0.04797
1122.90 0.04796
1123.00 0.04794
1123.10 0.04793
1123.20 0.04792
1123.30 0.0479
1123.40 0.04789
1123.50 0.04788
1123.60 0.04787
1123.70 0.04785
1123.80 0.04784
1123.90 0.04783
1124.00 0.04781
1124.10 0.0478
1124.20 0.04779
1124.30 0.04777
1124.40 0.04776
1124.50 0.04775
1124.60 0.04774
1124.70 0.04772
1124.80 0.04771
1124.90 0.0477
1125.00 0.04768
1125.10 0.04767
1125.20 0.04766
1125.30 0.04764
1125.40 0.04763
1125.50 0.04762
1125.60 0.04761
1125.70 0.04759
1125.80 0.04758
1125.90 0.04757
1126.00 0.04755
1126.10 0.04754
1126.20 0.04753
1126.30 0.04752
1126.40 0.0475
1126.50 0.04749
1126.60 0.04748
1126.70 0.04746
1126.80 0.04745
1126.90 0.04744
1127.00 0.04743
1127.10 0.04741
1127.20 0.0474
1127.30 0.04738
1127.40 0.04737
1127.50 0.04736
1127.60 0.04734
1127.70 0.04733
1127.80 0.04731
1127.90 0.0473
1128.00 0.04729
1128.10 0.04727
1128.20 0.04726
1128.30 0.04724
1128.40 0.04723
1128.50 0.04722
1128.60 0.0472
1128.70 0.04719
1128.80 0.04717
1128.90 0.04716
1129.00 0.04715
1129.10 0.04713
1129.20 0.04712
1129.30 0.04711
1129.40 0.04709
1129.50 0.04708
1129.60 0.04706
1129.70 0.04705
1129.80 0.04704
1129.90 0.04702
1130.00 0.04701
1130.10 0.04699
1130.20 0.04698
1130.30 0.04697
1130.40 0.04695
1130.50 0.04694
1130.60 0.04693
1130.70 0.04691
1130.80 0.0469
1130.90 0.04688
1131.00 0.04687
1131.10 0.04686
1131.20 0.04684
1131.30 0.04683
1131.40 0.04681
1131.50 0.0468
1131.60 0.04679
1131.70 0.04677
1131.80 0.04676
1131.90 0.04675
1132.00 0.04673
1132.10 0.04672
1132.20 0.0467
1132.30 0.04669
1132.40 0.04667
1132.50 0.04666
1132.60 0.04665
1132.70 0.04663
1132.80 0.04662
1132.90 0.0466
1133.00 0.04659
1133.10 0.04657
1133.20 0.04656
1133.30 0.04654
1133.40 0.04653
1133.50 0.04652
1133.60 0.0465
1133.70 0.04649
1133.80 0.04647
1133.90 0.04646
1134.00 0.04644
1134.10 0.04643
1134.20 0.04642
1134.30 0.0464
1134.40 0.04639
1134.50 0.04637
1134.60 0.04636
1134.70 0.04634
1134.80 0.04633
1134.90 0.04632
1135.00 0.0463
1135.10 0.04629
1135.20 0.04627
1135.30 0.04626
1135.40 0.04624
1135.50 0.04623
1135.60 0.04622
1135.70 0.0462
1135.80 0.04619
1135.90 0.04617
1136.00 0.04616
1136.10 0.04614
1136.20 0.04613
1136.30 0.04612
1136.40 0.0461
1136.50 0.04609
1136.60 0.04607
1136.70 0.04606
1136.80 0.04604
1136.90 0.04603
1137.00 0.04602
1137.10 0.046
1137.20 0.04599
1137.30 0.04597
1137.40 0.04596
1137.50 0.04594
1137.60 0.04593
1137.70 0.04591
1137.80 0.0459
1137.90 0.04588
1138.00 0.04587
1138.10 0.04586
1138.20 0.04584
1138.30 0.04583
1138.40 0.04581
1138.50 0.0458
1138.60 0.04578
1138.70 0.04577
1138.80 0.04575
1138.90 0.04574
1139.00 0.04572
1139.10 0.04571
1139.20 0.0457
1139.30 0.04568
1139.40 0.04567
1139.50 0.04565
1139.60 0.04564
1139.70 0.04562
1139.80 0.04561
1139.90 0.04559
1140.00 0.04558
1140.10 0.04556
1140.20 0.04555
1140.30 0.04554
1140.40 0.04552
1140.50 0.04551
1140.60 0.04549
1140.70 0.04548
1140.80 0.04546
1140.90 0.04545
1141.00 0.04543
1141.10 0.04542
1141.20 0.04541
1141.30 0.04539
1141.40 0.04538
1141.50 0.04536
1141.60 0.04535
1141.70 0.04533
1141.80 0.04532
1141.90 0.0453
1142.00 0.04529
1142.10 0.04528
1142.20 0.04526
1142.30 0.04525
1142.40 0.04523
1142.50 0.04522
1142.60 0.0452
1142.70 0.04519
1142.80 0.04517
1142.90 0.04516
1143.00 0.04514
1143.10 0.04513
1143.20 0.04511
1143.30 0.0451
1143.40 0.04509
1143.50 0.04507
1143.60 0.04506
1143.70 0.04504
1143.80 0.04503
1143.90 0.04501
1144.00 0.045
1144.10 0.04498
1144.20 0.04497
1144.30 0.04495
1144.40 0.04494
1144.50 0.04493
1144.60 0.04491
1144.70 0.0449
1144.80 0.04488
1144.90 0.04487
1145.00 0.04485
1145.10 0.04484
1145.20 0.04482
1145.30 0.04481
1145.40 0.04479
1145.50 0.04478
1145.60 0.04477
1145.70 0.04475
1145.80 0.04474
1145.90 0.04472
1146.00 0.04471
1146.10 0.04469
1146.20 0.04468
1146.30 0.04466
1146.40 0.04465
1146.50 0.04464
1146.60 0.04462
1146.70 0.04461
1146.80 0.04459
1146.90 0.04458
1147.00 0.04456
1147.10 0.04455
1147.20 0.04453
1147.30 0.04452
1147.40 0.04451
1147.50 0.04449
1147.60 0.04448
1147.70 0.04446
1147.80 0.04445
1147.90 0.04443
1148.00 0.04442
1148.10 0.0444
1148.20 0.04439
1148.30 0.04437
1148.40 0.04436
1148.50 0.04435
1148.60 0.04433
1148.70 0.04432
1148.80 0.0443
1148.90 0.04429
1149.00 0.04427
1149.10 0.04426
1149.20 0.04424
1149.30 0.04423
1149.40 0.04422
1149.50 0.0442
1149.60 0.04419
1149.70 0.04417
1149.80 0.04416
1149.90 0.04414
1150.00 0.04413
1150.10 0.04411
1150.20 0.0441
1150.30 0.04409
1150.40 0.04407
1150.50 0.04406
1150.60 0.04404
1150.70 0.04403
1150.80 0.04401
1150.90 0.044
1151.00 0.04398
1151.10 0.04397
1151.20 0.04396
1151.30 0.04394
1151.40 0.04393
1151.50 0.04391
1151.60 0.0439
1151.70 0.04388
1151.80 0.04387
1151.90 0.04385
1152.00 0.04384
1152.10 0.04383
1152.20 0.04381
1152.30 0.0438
1152.40 0.04378
1152.50 0.04377
1152.60 0.04375
1152.70 0.04374
1152.80 0.04373
1152.90 0.04371
1153.00 0.0437
1153.10 0.04368
1153.20 0.04367
1153.30 0.04365
1153.40 0.04364
1153.50 0.04362
1153.60 0.04361
1153.70 0.0436
1153.80 0.04358
1153.90 0.04357
1154.00 0.04355
1154.10 0.04354
1154.20 0.04352
1154.30 0.04351
1154.40 0.0435
1154.50 0.04348
1154.60 0.04347
1154.70 0.04345
1154.80 0.04344
1154.90 0.04342
1155.00 0.04341
1155.10 0.0434
1155.20 0.04338
1155.30 0.04337
1155.40 0.04335
1155.50 0.04334
1155.60 0.04332
1155.70 0.04331
1155.80 0.0433
1155.90 0.04328
1156.00 0.04327
1156.10 0.04325
1156.20 0.04324
1156.30 0.04322
1156.40 0.04321
1156.50 0.0432
1156.60 0.04318
1156.70 0.04317
1156.80 0.04315
1156.90 0.04314
1157.00 0.04312
1157.10 0.04311
1157.20 0.0431
1157.30 0.04308
1157.40 0.04307
1157.50 0.04305
1157.60 0.04304
1157.70 0.04303
1157.80 0.04301
1157.90 0.043
1158.00 0.04298
1158.10 0.04297
1158.20 0.04295
1158.30 0.04294
1158.40 0.04293
1158.50 0.04291
1158.60 0.0429
1158.70 0.04288
1158.80 0.04287
1158.90 0.04286
1159.00 0.04284
1159.10 0.04283
1159.20 0.04281
1159.30 0.0428
1159.40 0.04278
1159.50 0.04277
1159.60 0.04276
1159.70 0.04274
1159.80 0.04273
1159.90 0.04271
1160.00 0.0427
1160.10 0.04269
1160.20 0.04267
1160.30 0.04266
1160.40 0.04264
1160.50 0.04263
1160.60 0.04262
1160.70 0.0426
1160.80 0.04259
1160.90 0.04257
1161.00 0.04256
1161.10 0.04254
1161.20 0.04253
1161.30 0.04252
1161.40 0.0425
1161.50 0.04249
1161.60 0.04247
1161.70 0.04246
1161.80 0.04245
1161.90 0.04243
1162.00 0.04242
1162.10 0.0424
1162.20 0.04239
1162.30 0.04238
1162.40 0.04236
1162.50 0.04235
1162.60 0.04233
1162.70 0.04232
1162.80 0.04231
1162.90 0.04229
1163.00 0.04228
1163.10 0.04226
1163.20 0.04225
1163.30 0.04224
1163.40 0.04222
1163.50 0.04221
1163.60 0.04219
1163.70 0.04218
1163.80 0.04217
1163.90 0.04215
1164.00 0.04214
1164.10 0.04212
1164.20 0.04211
1164.30 0.0421
1164.40 0.04208
1164.50 0.04207
1164.60 0.04206
1164.70 0.04204
1164.80 0.04203
1164.90 0.04201
1165.00 0.042
1165.10 0.04199
1165.20 0.04197
1165.30 0.04196
1165.40 0.04194
1165.50 0.04193
1165.60 0.04192
1165.70 0.0419
1165.80 0.04189
1165.90 0.04187
1166.00 0.04186
1166.10 0.04185
1166.20 0.04183
1166.30 0.04182
1166.40 0.04181
1166.50 0.04179
1166.60 0.04178
1166.70 0.04176
1166.80 0.04175
1166.90 0.04174
1167.00 0.04172
1167.10 0.04171
1167.20 0.04169
1167.30 0.04168
1167.40 0.04167
1167.50 0.04165
1167.60 0.04164
1167.70 0.04163
1167.80 0.04161
1167.90 0.0416
1168.00 0.04158
1168.10 0.04157
1168.20 0.04156
1168.30 0.04154
1168.40 0.04153
1168.50 0.04152
1168.60 0.0415
1168.70 0.04149
1168.80 0.04147
1168.90 0.04146
1169.00 0.04145
1169.10 0.04143
1169.20 0.04142
1169.30 0.04141
1169.40 0.04139
1169.50 0.04138
1169.60 0.04136
1169.70 0.04135
1169.80 0.04134
1169.90 0.04132
1170.00 0.04131
1170.10 0.0413
1170.20 0.04128
1170.30 0.04127
1170.40 0.04126
1170.50 0.04124
1170.60 0.04123
1170.70 0.04121
1170.80 0.0412
1170.90 0.04119
1171.00 0.04117
1171.10 0.04116
1171.20 0.04115
1171.30 0.04113
1171.40 0.04112
1171.50 0.04111
1171.60 0.04109
1171.70 0.04108
1171.80 0.04106
1171.90 0.04105
1172.00 0.04104
1172.10 0.04102
1172.20 0.04101
1172.30 0.041
1172.40 0.04098
1172.50 0.04097
1172.60 0.04096
1172.70 0.04094
1172.80 0.04093
1172.90 0.04092
1173.00 0.0409
1173.10 0.04089
1173.20 0.04087
1173.30 0.04086
1173.40 0.04085
1173.50 0.04083
1173.60 0.04082
1173.70 0.04081
1173.80 0.04079
1173.90 0.04078
1174.00 0.04077
1174.10 0.04075
1174.20 0.04074
1174.30 0.04073
1174.40 0.04071
1174.50 0.0407
1174.60 0.04069
1174.70 0.04067
1174.80 0.04066
1174.90 0.04065
1175.00 0.04063
1175.10 0.04062
1175.20 0.04061
1175.30 0.04059
1175.40 0.04058
1175.50 0.04056
1175.60 0.04055
1175.70 0.04054
1175.80 0.04052
1175.90 0.04051
1176.00 0.0405
1176.10 0.04048
1176.20 0.04047
1176.30 0.04046
1176.40 0.04044
1176.50 0.04043
1176.60 0.04042
1176.70 0.0404
1176.80 0.04039
1176.90 0.04038
1177.00 0.04036
1177.10 0.04035
1177.20 0.04034
1177.30 0.04032
1177.40 0.04031
1177.50 0.0403
1177.60 0.04028
1177.70 0.04027
1177.80 0.04026
1177.90 0.04024
1178.00 0.04023
1178.10 0.04022
1178.20 0.0402
1178.30 0.04019
1178.40 0.04018
1178.50 0.04016
1178.60 0.04015
1178.70 0.04014
1178.80 0.04012
1178.90 0.04011
1179.00 0.0401
1179.10 0.04008
1179.20 0.04007
1179.30 0.04006
1179.40 0.04004
1179.50 0.04003
1179.60 0.04002
1179.70 0.04
1179.80 0.03999
1179.90 0.03998
1180.00 0.03997
1180.10 0.03995
1180.20 0.03994
1180.30 0.03993
1180.40 0.03991
1180.50 0.0399
1180.60 0.03989
1180.70 0.03987
1180.80 0.03986
1180.90 0.03985
1181.00 0.03983
1181.10 0.03982
1181.20 0.03981
1181.30 0.03979
1181.40 0.03978
1181.50 0.03977
1181.60 0.03975
1181.70 0.03974
1181.80 0.03973
1181.90 0.03971
1182.00 0.0397
1182.10 0.03969
1182.20 0.03968
1182.30 0.03966
1182.40 0.03965
1182.50 0.03964
1182.60 0.03962
1182.70 0.03961
1182.80 0.0396
1182.90 0.03958
1183.00 0.03957
1183.10 0.03956
1183.20 0.03954
1183.30 0.03953
1183.40 0.03952
1183.50 0.03951
1183.60 0.03949
1183.70 0.03948
1183.80 0.03947
1183.90 0.03945
1184.00 0.03944
1184.10 0.03943
1184.20 0.03941
1184.30 0.0394
1184.40 0.03939
1184.50 0.03938
1184.60 0.03936
1184.70 0.03935
1184.80 0.03934
1184.90 0.03932
1185.00 0.03931
1185.10 0.0393
1185.20 0.03928
1185.30 0.03927
1185.40 0.03926
1185.50 0.03925
1185.60 0.03923
1185.70 0.03922
1185.80 0.03921
1185.90 0.03919
1186.00 0.03918
1186.10 0.03917
1186.20 0.03915
1186.30 0.03914
1186.40 0.03913
1186.50 0.03912
1186.60 0.0391
1186.70 0.03909
1186.80 0.03908
1186.90 0.03906
1187.00 0.03905
1187.10 0.03904
1187.20 0.03903
1187.30 0.03901
1187.40 0.039
1187.50 0.03899
1187.60 0.03897
1187.70 0.03896
1187.80 0.03895
1187.90 0.03894
1188.00 0.03892
1188.10 0.03891
1188.20 0.0389
1188.30 0.03888
1188.40 0.03887
1188.50 0.03886
1188.60 0.03885
1188.70 0.03883
1188.80 0.03882
1188.90 0.03881
1189.00 0.03879
1189.10 0.03878
1189.20 0.03877
1189.30 0.03876
1189.40 0.03874
1189.50 0.03873
1189.60 0.03872
1189.70 0.0387
1189.80 0.03869
1189.90 0.03868
1190.00 0.03867
1190.10 0.03865
1190.20 0.03864
1190.30 0.03863
1190.40 0.03862
1190.50 0.0386
1190.60 0.03859
1190.70 0.03858
1190.80 0.03856
1190.90 0.03855
1191.00 0.03854
1191.10 0.03853
1191.20 0.03851
1191.30 0.0385
1191.40 0.03849
1191.50 0.03848
1191.60 0.03846
1191.70 0.03845
1191.80 0.03844
1191.90 0.03842
1192.00 0.03841
1192.10 0.0384
1192.20 0.03839
1192.30 0.03837
1192.40 0.03836
1192.50 0.03835
1192.60 0.03834
1192.70 0.03832
1192.80 0.03831
1192.90 0.0383
1193.00 0.03829
1193.10 0.03827
1193.20 0.03826
1193.30 0.03825
1193.40 0.03823
1193.50 0.03822
1193.60 0.03821
1193.70 0.0382
1193.80 0.03818
1193.90 0.03817
1194.00 0.03816
1194.10 0.03815
1194.20 0.03813
1194.30 0.03812
1194.40 0.03811
1194.50 0.0381
1194.60 0.03808
1194.70 0.03807
1194.80 0.03806
1194.90 0.03805
1195.00 0.03803
1195.10 0.03802
1195.20 0.03801
1195.30 0.038
1195.40 0.03798
1195.50 0.03797
1195.60 0.03796
1195.70 0.03795
1195.80 0.03793
1195.90 0.03792
1196.00 0.03791
1196.10 0.0379
1196.20 0.03788
1196.30 0.03787
1196.40 0.03786
1196.50 0.03785
1196.60 0.03783
1196.70 0.03782
1196.80 0.03781
1196.90 0.0378
1197.00 0.03778
1197.10 0.03777
1197.20 0.03776
1197.30 0.03775
1197.40 0.03773
1197.50 0.03772
1197.60 0.03771
1197.70 0.0377
1197.80 0.03768
1197.90 0.03767
1198.00 0.03766
1198.10 0.03765
1198.20 0.03763
1198.30 0.03762
1198.40 0.03761
1198.50 0.0376
1198.60 0.03758
1198.70 0.03757
1198.80 0.03756
1198.90 0.03755
1199.00 0.03754
1199.10 0.03752
1199.20 0.03751
1199.30 0.0375
1199.40 0.03749
1199.50 0.03747
1199.60 0.03746
1199.70 0.03745
1199.80 0.03744
1199.90 0.03742
1200.00 0
