# Version 2.1 - nm, norm@500 to 1, cut digits, bergeron_60000_95.dat_60000
# Wavelength(nm)  Flambda(ergs/cm^s/s/nm)
300.00 6.477
300.10 6.469
300.20 6.461
300.30 6.453
300.40 6.445
300.50 6.438
300.60 6.43
300.70 6.422
300.80 6.414
300.90 6.406
301.00 6.398
301.10 6.39
301.20 6.383
301.30 6.375
301.40 6.367
301.50 6.359
301.60 6.352
301.70 6.344
301.80 6.336
301.90 6.328
302.00 6.321
302.10 6.313
302.20 6.305
302.30 6.298
302.40 6.29
302.50 6.282
302.60 6.275
302.70 6.267
302.80 6.259
302.90 6.252
303.00 6.244
303.10 6.237
303.20 6.229
303.30 6.222
303.40 6.214
303.50 6.206
303.60 6.199
303.70 6.191
303.80 6.184
303.90 6.176
304.00 6.169
304.10 6.162
304.20 6.154
304.30 6.147
304.40 6.139
304.50 6.132
304.60 6.124
304.70 6.117
304.80 6.11
304.90 6.102
305.00 6.095
305.10 6.088
305.20 6.08
305.30 6.073
305.40 6.066
305.50 6.058
305.60 6.051
305.70 6.044
305.80 6.036
305.90 6.029
306.00 6.022
306.10 6.015
306.20 6.007
306.30 6
306.40 5.993
306.50 5.986
306.60 5.979
306.70 5.971
306.80 5.964
306.90 5.957
307.00 5.95
307.10 5.943
307.20 5.936
307.30 5.929
307.40 5.921
307.50 5.914
307.60 5.907
307.70 5.9
307.80 5.893
307.90 5.886
308.00 5.879
308.10 5.872
308.20 5.865
308.30 5.858
308.40 5.851
308.50 5.844
308.60 5.837
308.70 5.83
308.80 5.823
308.90 5.816
309.00 5.809
309.10 5.802
309.20 5.795
309.30 5.789
309.40 5.782
309.50 5.775
309.60 5.768
309.70 5.761
309.80 5.754
309.90 5.747
310.00 5.741
310.10 5.734
310.20 5.727
310.30 5.72
310.40 5.713
310.50 5.707
310.60 5.7
310.70 5.693
310.80 5.686
310.90 5.68
311.00 5.673
311.10 5.666
311.20 5.659
311.30 5.653
311.40 5.646
311.50 5.639
311.60 5.633
311.70 5.626
311.80 5.619
311.90 5.613
312.00 5.606
312.10 5.599
312.20 5.593
312.30 5.586
312.40 5.58
312.50 5.573
312.60 5.566
312.70 5.56
312.80 5.553
312.90 5.547
313.00 5.54
313.10 5.534
313.20 5.527
313.30 5.521
313.40 5.514
313.50 5.508
313.60 5.501
313.70 5.495
313.80 5.488
313.90 5.482
314.00 5.476
314.10 5.469
314.20 5.463
314.30 5.456
314.40 5.45
314.50 5.443
314.60 5.437
314.70 5.431
314.80 5.424
314.90 5.418
315.00 5.412
315.10 5.405
315.20 5.399
315.30 5.393
315.40 5.386
315.50 5.38
315.60 5.374
315.70 5.368
315.80 5.361
315.90 5.355
316.00 5.349
316.10 5.343
316.20 5.336
316.30 5.33
316.40 5.324
316.50 5.318
316.60 5.311
316.70 5.305
316.80 5.299
316.90 5.293
317.00 5.287
317.10 5.281
317.20 5.275
317.30 5.268
317.40 5.262
317.50 5.256
317.60 5.25
317.70 5.244
317.80 5.238
317.90 5.232
318.00 5.226
318.10 5.22
318.20 5.214
318.30 5.208
318.40 5.202
318.50 5.195
318.60 5.189
318.70 5.183
318.80 5.177
318.90 5.171
319.00 5.165
319.10 5.159
319.20 5.154
319.30 5.148
319.40 5.142
319.50 5.136
319.60 5.13
319.70 5.124
319.80 5.118
319.90 5.112
320.00 5.106
320.10 5.1
320.20 5.094
320.30 5.088
320.40 5.083
320.50 5.077
320.60 5.071
320.70 5.065
320.80 5.059
320.90 5.053
321.00 5.048
321.10 5.042
321.20 5.036
321.30 5.03
321.40 5.024
321.50 5.019
321.60 5.013
321.70 5.007
321.80 5.001
321.90 4.996
322.00 4.99
322.10 4.984
322.20 4.979
322.30 4.973
322.40 4.967
322.50 4.961
322.60 4.956
322.70 4.95
322.80 4.944
322.90 4.939
323.00 4.933
323.10 4.928
323.20 4.922
323.30 4.916
323.40 4.911
323.50 4.905
323.60 4.899
323.70 4.894
323.80 4.888
323.90 4.883
324.00 4.877
324.10 4.872
324.20 4.866
324.30 4.86
324.40 4.855
324.50 4.849
324.60 4.844
324.70 4.838
324.80 4.833
324.90 4.827
325.00 4.822
325.10 4.816
325.20 4.811
325.30 4.805
325.40 4.8
325.50 4.795
325.60 4.789
325.70 4.784
325.80 4.778
325.90 4.773
326.00 4.767
326.10 4.762
326.20 4.757
326.30 4.751
326.40 4.746
326.50 4.741
326.60 4.735
326.70 4.73
326.80 4.724
326.90 4.719
327.00 4.714
327.10 4.708
327.20 4.703
327.30 4.698
327.40 4.693
327.50 4.687
327.60 4.682
327.70 4.677
327.80 4.671
327.90 4.666
328.00 4.661
328.10 4.656
328.20 4.65
328.30 4.645
328.40 4.64
328.50 4.635
328.60 4.629
328.70 4.624
328.80 4.619
328.90 4.614
329.00 4.609
329.10 4.603
329.20 4.598
329.30 4.593
329.40 4.588
329.50 4.583
329.60 4.578
329.70 4.573
329.80 4.567
329.90 4.562
330.00 4.557
330.10 4.552
330.20 4.547
330.30 4.542
330.40 4.537
330.50 4.532
330.60 4.527
330.70 4.522
330.80 4.517
330.90 4.512
331.00 4.507
331.10 4.502
331.20 4.497
331.30 4.491
331.40 4.486
331.50 4.481
331.60 4.476
331.70 4.471
331.80 4.466
331.90 4.461
332.00 4.456
332.10 4.452
332.20 4.447
332.30 4.442
332.40 4.437
332.50 4.432
332.60 4.427
332.70 4.422
332.80 4.417
332.90 4.412
333.00 4.407
333.10 4.402
333.20 4.397
333.30 4.393
333.40 4.388
333.50 4.383
333.60 4.378
333.70 4.373
333.80 4.368
333.90 4.363
334.00 4.359
334.10 4.354
334.20 4.349
334.30 4.344
334.40 4.339
334.50 4.334
334.60 4.33
334.70 4.325
334.80 4.32
334.90 4.315
335.00 4.311
335.10 4.306
335.20 4.301
335.30 4.296
335.40 4.292
335.50 4.287
335.60 4.282
335.70 4.277
335.80 4.273
335.90 4.268
336.00 4.263
336.10 4.259
336.20 4.254
336.30 4.249
336.40 4.245
336.50 4.24
336.60 4.235
336.70 4.231
336.80 4.226
336.90 4.221
337.00 4.217
337.10 4.212
337.20 4.207
337.30 4.203
337.40 4.198
337.50 4.194
337.60 4.189
337.70 4.184
337.80 4.18
337.90 4.175
338.00 4.171
338.10 4.166
338.20 4.161
338.30 4.157
338.40 4.152
338.50 4.148
338.60 4.143
338.70 4.139
338.80 4.134
338.90 4.13
339.00 4.125
339.10 4.121
339.20 4.116
339.30 4.112
339.40 4.107
339.50 4.103
339.60 4.098
339.70 4.094
339.80 4.089
339.90 4.085
340.00 4.08
340.10 4.076
340.20 4.072
340.30 4.067
340.40 4.063
340.50 4.058
340.60 4.054
340.70 4.049
340.80 4.045
340.90 4.041
341.00 4.036
341.10 4.032
341.20 4.027
341.30 4.023
341.40 4.019
341.50 4.014
341.60 4.01
341.70 4.006
341.80 4.001
341.90 3.997
342.00 3.993
342.10 3.988
342.20 3.984
342.30 3.98
342.40 3.975
342.50 3.971
342.60 3.967
342.70 3.963
342.80 3.958
342.90 3.954
343.00 3.95
343.10 3.945
343.20 3.941
343.30 3.937
343.40 3.933
343.50 3.928
343.60 3.924
343.70 3.92
343.80 3.916
343.90 3.911
344.00 3.907
344.10 3.903
344.20 3.899
344.30 3.895
344.40 3.89
344.50 3.886
344.60 3.882
344.70 3.878
344.80 3.874
344.90 3.87
345.00 3.865
345.10 3.861
345.20 3.857
345.30 3.853
345.40 3.849
345.50 3.845
345.60 3.841
345.70 3.836
345.80 3.832
345.90 3.828
346.00 3.824
346.10 3.82
346.20 3.816
346.30 3.812
346.40 3.808
346.50 3.804
346.60 3.8
346.70 3.796
346.80 3.792
346.90 3.787
347.00 3.783
347.10 3.779
347.20 3.775
347.30 3.771
347.40 3.767
347.50 3.763
347.60 3.759
347.70 3.755
347.80 3.751
347.90 3.747
348.00 3.743
348.10 3.739
348.20 3.735
348.30 3.731
348.40 3.727
348.50 3.723
348.60 3.719
348.70 3.715
348.80 3.711
348.90 3.708
349.00 3.704
349.10 3.7
349.20 3.696
349.30 3.692
349.40 3.688
349.50 3.684
349.60 3.68
349.70 3.676
349.80 3.672
349.90 3.668
350.00 3.664
350.10 3.661
350.20 3.657
350.30 3.653
350.40 3.649
350.50 3.645
350.60 3.641
350.70 3.637
350.80 3.634
350.90 3.63
351.00 3.626
351.10 3.622
351.20 3.618
351.30 3.614
351.40 3.611
351.50 3.607
351.60 3.603
351.70 3.599
351.80 3.595
351.90 3.592
352.00 3.588
352.10 3.584
352.20 3.58
352.30 3.576
352.40 3.573
352.50 3.569
352.60 3.565
352.70 3.561
352.80 3.558
352.90 3.554
353.00 3.55
353.10 3.546
353.20 3.543
353.30 3.539
353.40 3.535
353.50 3.532
353.60 3.528
353.70 3.524
353.80 3.52
353.90 3.517
354.00 3.513
354.10 3.509
354.20 3.506
354.30 3.502
354.40 3.498
354.50 3.495
354.60 3.491
354.70 3.487
354.80 3.484
354.90 3.48
355.00 3.476
355.10 3.473
355.20 3.469
355.30 3.466
355.40 3.462
355.50 3.458
355.60 3.455
355.70 3.451
355.80 3.447
355.90 3.444
356.00 3.44
356.10 3.437
356.20 3.433
356.30 3.43
356.40 3.426
356.50 3.422
356.60 3.419
356.70 3.415
356.80 3.412
356.90 3.408
357.00 3.405
357.10 3.401
357.20 3.398
357.30 3.394
357.40 3.39
357.50 3.387
357.60 3.383
357.70 3.38
357.80 3.376
357.90 3.373
358.00 3.369
358.10 3.366
358.20 3.362
358.30 3.359
358.40 3.355
358.50 3.352
358.60 3.349
358.70 3.345
358.80 3.342
358.90 3.338
359.00 3.335
359.10 3.331
359.20 3.328
359.30 3.324
359.40 3.321
359.50 3.317
359.60 3.314
359.70 3.311
359.80 3.307
359.90 3.304
360.00 3.3
360.10 3.297
360.20 3.294
360.30 3.29
360.40 3.287
360.50 3.283
360.60 3.28
360.70 3.277
360.80 3.273
360.90 3.27
361.00 3.267
361.10 3.263
361.20 3.26
361.30 3.256
361.40 3.253
361.50 3.25
361.60 3.246
361.70 3.243
361.80 3.24
361.90 3.236
362.00 3.233
362.10 3.23
362.20 3.226
362.30 3.223
362.40 3.22
362.50 3.216
362.60 3.213
362.70 3.21
362.80 3.207
362.90 3.203
363.00 3.2
363.10 3.197
363.20 3.193
363.30 3.19
363.40 3.187
363.50 3.184
363.60 3.18
363.70 3.177
363.80 3.174
363.90 3.171
364.00 3.167
364.10 3.164
364.20 3.161
364.30 3.158
364.40 3.155
364.50 3.151
364.60 3.148
364.70 3.145
364.80 3.142
364.90 3.138
365.00 3.135
365.10 3.132
365.20 3.129
365.30 3.126
365.40 3.123
365.50 3.119
365.60 3.116
365.70 3.113
365.80 3.11
365.90 3.107
366.00 3.104
366.10 3.1
366.20 3.097
366.30 3.094
366.40 3.091
366.50 3.088
366.60 3.085
366.70 3.081
366.80 3.078
366.90 3.075
367.00 3.072
367.10 3.069
367.20 3.066
367.30 3.063
367.40 3.059
367.50 3.056
367.60 3.053
367.70 3.05
367.80 3.047
367.90 3.044
368.00 3.041
368.10 3.038
368.20 3.034
368.30 3.031
368.40 3.028
368.50 3.025
368.60 3.022
368.70 3.019
368.80 3.015
368.90 3.012
369.00 3.009
369.10 3.006
369.20 3.003
369.30 3
369.40 2.997
369.50 2.993
369.60 2.99
369.70 2.987
369.80 2.984
369.90 2.981
370.00 2.978
370.10 2.975
370.20 2.972
370.30 2.968
370.40 2.965
370.50 2.962
370.60 2.959
370.70 2.956
370.80 2.953
370.90 2.95
371.00 2.947
371.10 2.944
371.20 2.941
371.30 2.937
371.40 2.934
371.50 2.931
371.60 2.928
371.70 2.925
371.80 2.922
371.90 2.919
372.00 2.916
372.10 2.913
372.20 2.91
372.30 2.907
372.40 2.905
372.50 2.902
372.60 2.899
372.70 2.896
372.80 2.893
372.90 2.89
373.00 2.888
373.10 2.885
373.20 2.882
373.30 2.879
373.40 2.876
373.50 2.874
373.60 2.871
373.70 2.868
373.80 2.865
373.90 2.862
374.00 2.86
374.10 2.857
374.20 2.854
374.30 2.851
374.40 2.848
374.50 2.845
374.60 2.842
374.70 2.839
374.80 2.836
374.90 2.833
375.00 2.83
375.10 2.827
375.20 2.824
375.30 2.821
375.40 2.818
375.50 2.815
375.60 2.813
375.70 2.81
375.80 2.807
375.90 2.804
376.00 2.801
376.10 2.798
376.20 2.795
376.30 2.792
376.40 2.789
376.50 2.786
376.60 2.784
376.70 2.781
376.80 2.778
376.90 2.775
377.00 2.772
377.10 2.769
377.20 2.767
377.30 2.764
377.40 2.761
377.50 2.758
377.60 2.755
377.70 2.753
377.80 2.75
377.90 2.747
378.00 2.744
378.10 2.742
378.20 2.739
378.30 2.736
378.40 2.733
378.50 2.731
378.60 2.728
378.70 2.725
378.80 2.722
378.90 2.72
379.00 2.717
379.10 2.714
379.20 2.712
379.30 2.709
379.40 2.706
379.50 2.703
379.60 2.701
379.70 2.698
379.80 2.695
379.90 2.693
380.00 2.69
380.10 2.687
380.20 2.685
380.30 2.682
380.40 2.679
380.50 2.677
380.60 2.674
380.70 2.671
380.80 2.669
380.90 2.666
381.00 2.663
381.10 2.661
381.20 2.658
381.30 2.656
381.40 2.653
381.50 2.65
381.60 2.648
381.70 2.645
381.80 2.643
381.90 2.64
382.00 2.637
382.10 2.635
382.20 2.632
382.30 2.63
382.40 2.627
382.50 2.624
382.60 2.622
382.70 2.619
382.80 2.617
382.90 2.614
383.00 2.612
383.10 2.609
383.20 2.607
383.30 2.604
383.40 2.602
383.50 2.599
383.60 2.597
383.70 2.594
383.80 2.592
383.90 2.589
384.00 2.587
384.10 2.584
384.20 2.582
384.30 2.579
384.40 2.577
384.50 2.574
384.60 2.572
384.70 2.569
384.80 2.567
384.90 2.564
385.00 2.562
385.10 2.56
385.20 2.557
385.30 2.555
385.40 2.552
385.50 2.55
385.60 2.547
385.70 2.545
385.80 2.543
385.90 2.54
386.00 2.538
386.10 2.535
386.20 2.533
386.30 2.531
386.40 2.528
386.50 2.526
386.60 2.523
386.70 2.521
386.80 2.519
386.90 2.516
387.00 2.514
387.10 2.511
387.20 2.509
387.30 2.507
387.40 2.504
387.50 2.502
387.60 2.5
387.70 2.497
387.80 2.495
387.90 2.492
388.00 2.49
388.10 2.488
388.20 2.485
388.30 2.483
388.40 2.481
388.50 2.479
388.60 2.476
388.70 2.474
388.80 2.472
388.90 2.469
389.00 2.467
389.10 2.465
389.20 2.463
389.30 2.461
389.40 2.458
389.50 2.456
389.60 2.454
389.70 2.452
389.80 2.449
389.90 2.447
390.00 2.445
390.10 2.443
390.20 2.441
390.30 2.439
390.40 2.436
390.50 2.434
390.60 2.432
390.70 2.43
390.80 2.428
390.90 2.426
391.00 2.423
391.10 2.421
391.20 2.419
391.30 2.417
391.40 2.415
391.50 2.413
391.60 2.41
391.70 2.408
391.80 2.406
391.90 2.404
392.00 2.402
392.10 2.399
392.20 2.397
392.30 2.395
392.40 2.393
392.50 2.391
392.60 2.388
392.70 2.386
392.80 2.384
392.90 2.382
393.00 2.379
393.10 2.377
393.20 2.375
393.30 2.373
393.40 2.371
393.50 2.368
393.60 2.366
393.70 2.364
393.80 2.362
393.90 2.359
394.00 2.357
394.10 2.355
394.20 2.352
394.30 2.35
394.40 2.348
394.50 2.346
394.60 2.343
394.70 2.341
394.80 2.339
394.90 2.336
395.00 2.334
395.10 2.332
395.20 2.329
395.30 2.327
395.40 2.325
395.50 2.323
395.60 2.32
395.70 2.318
395.80 2.316
395.90 2.313
396.00 2.311
396.10 2.309
396.20 2.306
396.30 2.304
396.40 2.302
396.50 2.3
396.60 2.298
396.70 2.295
396.80 2.293
396.90 2.291
397.00 2.289
397.10 2.287
397.20 2.285
397.30 2.284
397.40 2.282
397.50 2.28
397.60 2.279
397.70 2.277
397.80 2.275
397.90 2.274
398.00 2.272
398.10 2.27
398.20 2.269
398.30 2.267
398.40 2.266
398.50 2.264
398.60 2.262
398.70 2.261
398.80 2.259
398.90 2.257
399.00 2.256
399.10 2.254
399.20 2.253
399.30 2.251
399.40 2.249
399.50 2.248
399.60 2.246
399.70 2.244
399.80 2.242
399.90 2.241
400.00 2.239
400.10 2.237
400.20 2.236
400.30 2.234
400.40 2.232
400.50 2.23
400.60 2.228
400.70 2.227
400.80 2.225
400.90 2.223
401.00 2.221
401.10 2.219
401.20 2.217
401.30 2.216
401.40 2.214
401.50 2.212
401.60 2.21
401.70 2.208
401.80 2.206
401.90 2.204
402.00 2.202
402.10 2.2
402.20 2.198
402.30 2.196
402.40 2.194
402.50 2.192
402.60 2.19
402.70 2.188
402.80 2.186
402.90 2.184
403.00 2.182
403.10 2.179
403.20 2.177
403.30 2.175
403.40 2.173
403.50 2.171
403.60 2.169
403.70 2.166
403.80 2.164
403.90 2.162
404.00 2.16
404.10 2.157
404.20 2.155
404.30 2.153
404.40 2.15
404.50 2.148
404.60 2.146
404.70 2.143
404.80 2.141
404.90 2.138
405.00 2.136
405.10 2.133
405.20 2.131
405.30 2.128
405.40 2.126
405.50 2.123
405.60 2.121
405.70 2.118
405.80 2.116
405.90 2.113
406.00 2.11
406.10 2.108
406.20 2.105
406.30 2.102
406.40 2.1
406.50 2.097
406.60 2.094
406.70 2.091
406.80 2.089
406.90 2.086
407.00 2.083
407.10 2.08
407.20 2.078
407.30 2.075
407.40 2.072
407.50 2.069
407.60 2.066
407.70 2.063
407.80 2.061
407.90 2.058
408.00 2.055
408.10 2.052
408.20 2.049
408.30 2.046
408.40 2.043
408.50 2.041
408.60 2.038
408.70 2.035
408.80 2.032
408.90 2.03
409.00 2.027
409.10 2.024
409.20 2.022
409.30 2.019
409.40 2.017
409.50 2.015
409.60 2.012
409.70 2.01
409.80 2.009
409.90 2.007
410.00 2.006
410.10 2.004
410.20 2.003
410.30 2.001
410.40 1.999
410.50 1.997
410.60 1.996
410.70 1.994
410.80 1.993
410.90 1.992
411.00 1.991
411.10 1.99
411.20 1.989
411.30 1.989
411.40 1.988
411.50 1.987
411.60 1.987
411.70 1.986
411.80 1.986
411.90 1.985
412.00 1.985
412.10 1.984
412.20 1.984
412.30 1.983
412.40 1.983
412.50 1.982
412.60 1.982
412.70 1.981
412.80 1.981
412.90 1.98
413.00 1.98
413.10 1.979
413.20 1.979
413.30 1.978
413.40 1.978
413.50 1.977
413.60 1.977
413.70 1.976
413.80 1.975
413.90 1.975
414.00 1.974
414.10 1.973
414.20 1.973
414.30 1.972
414.40 1.971
414.50 1.97
414.60 1.97
414.70 1.969
414.80 1.968
414.90 1.967
415.00 1.966
415.10 1.966
415.20 1.965
415.30 1.964
415.40 1.963
415.50 1.962
415.60 1.961
415.70 1.96
415.80 1.959
415.90 1.958
416.00 1.957
416.10 1.956
416.20 1.955
416.30 1.954
416.40 1.953
416.50 1.952
416.60 1.951
416.70 1.95
416.80 1.949
416.90 1.948
417.00 1.946
417.10 1.945
417.20 1.944
417.30 1.943
417.40 1.942
417.50 1.94
417.60 1.939
417.70 1.938
417.80 1.937
417.90 1.935
418.00 1.934
418.10 1.933
418.20 1.932
418.30 1.93
418.40 1.929
418.50 1.927
418.60 1.926
418.70 1.925
418.80 1.923
418.90 1.922
419.00 1.921
419.10 1.919
419.20 1.918
419.30 1.916
419.40 1.915
419.50 1.913
419.60 1.912
419.70 1.91
419.80 1.909
419.90 1.907
420.00 1.906
420.10 1.904
420.20 1.903
420.30 1.901
420.40 1.899
420.50 1.898
420.60 1.896
420.70 1.895
420.80 1.893
420.90 1.891
421.00 1.89
421.10 1.888
421.20 1.886
421.30 1.884
421.40 1.883
421.50 1.881
421.60 1.879
421.70 1.878
421.80 1.876
421.90 1.874
422.00 1.872
422.10 1.871
422.20 1.869
422.30 1.867
422.40 1.865
422.50 1.863
422.60 1.861
422.70 1.859
422.80 1.858
422.90 1.856
423.00 1.854
423.10 1.852
423.20 1.85
423.30 1.848
423.40 1.846
423.50 1.844
423.60 1.842
423.70 1.84
423.80 1.838
423.90 1.836
424.00 1.834
424.10 1.832
424.20 1.83
424.30 1.828
424.40 1.826
424.50 1.824
424.60 1.821
424.70 1.819
424.80 1.817
424.90 1.815
425.00 1.813
425.10 1.811
425.20 1.808
425.30 1.806
425.40 1.804
425.50 1.801
425.60 1.799
425.70 1.797
425.80 1.795
425.90 1.792
426.00 1.79
426.10 1.787
426.20 1.785
426.30 1.783
426.40 1.78
426.50 1.778
426.60 1.775
426.70 1.773
426.80 1.77
426.90 1.767
427.00 1.765
427.10 1.762
427.20 1.76
427.30 1.757
427.40 1.754
427.50 1.752
427.60 1.749
427.70 1.746
427.80 1.743
427.90 1.741
428.00 1.738
428.10 1.735
428.20 1.732
428.30 1.729
428.40 1.726
428.50 1.723
428.60 1.72
428.70 1.717
428.80 1.714
428.90 1.711
429.00 1.708
429.10 1.705
429.20 1.702
429.30 1.699
429.40 1.695
429.50 1.692
429.60 1.689
429.70 1.686
429.80 1.682
429.90 1.679
430.00 1.676
430.10 1.672
430.20 1.669
430.30 1.665
430.40 1.662
430.50 1.658
430.60 1.655
430.70 1.651
430.80 1.647
430.90 1.644
431.00 1.64
431.10 1.636
431.20 1.633
431.30 1.629
431.40 1.625
431.50 1.621
431.60 1.618
431.70 1.614
431.80 1.61
431.90 1.606
432.00 1.602
432.10 1.598
432.20 1.594
432.30 1.59
432.40 1.586
432.50 1.582
432.60 1.578
432.70 1.574
432.80 1.57
432.90 1.566
433.00 1.562
433.10 1.557
433.20 1.553
433.30 1.548
433.40 1.544
433.50 1.539
433.60 1.534
433.70 1.528
433.80 1.523
433.90 1.517
434.00 1.512
434.10 1.511
434.20 1.514
434.30 1.518
434.40 1.521
434.50 1.524
434.60 1.526
434.70 1.529
434.80 1.531
434.90 1.533
435.00 1.535
435.10 1.537
435.20 1.538
435.30 1.54
435.40 1.541
435.50 1.543
435.60 1.544
435.70 1.546
435.80 1.547
435.90 1.549
436.00 1.55
436.10 1.551
436.20 1.552
436.30 1.554
436.40 1.555
436.50 1.556
436.60 1.557
436.70 1.558
436.80 1.559
436.90 1.56
437.00 1.561
437.10 1.562
437.20 1.563
437.30 1.564
437.40 1.565
437.50 1.566
437.60 1.567
437.70 1.568
437.80 1.568
437.90 1.569
438.00 1.57
438.10 1.57
438.20 1.571
438.30 1.571
438.40 1.572
438.50 1.573
438.60 1.573
438.70 1.573
438.80 1.574
438.90 1.574
439.00 1.575
439.10 1.575
439.20 1.575
439.30 1.575
439.40 1.576
439.50 1.576
439.60 1.576
439.70 1.576
439.80 1.576
439.90 1.576
440.00 1.576
440.10 1.576
440.20 1.576
440.30 1.576
440.40 1.576
440.50 1.576
440.60 1.576
440.70 1.576
440.80 1.576
440.90 1.575
441.00 1.575
441.10 1.575
441.20 1.575
441.30 1.574
441.40 1.574
441.50 1.574
441.60 1.573
441.70 1.573
441.80 1.573
441.90 1.572
442.00 1.572
442.10 1.571
442.20 1.571
442.30 1.57
442.40 1.57
442.50 1.569
442.60 1.569
442.70 1.568
442.80 1.568
442.90 1.567
443.00 1.566
443.10 1.566
443.20 1.565
443.30 1.565
443.40 1.564
443.50 1.563
443.60 1.563
443.70 1.562
443.80 1.561
443.90 1.56
444.00 1.56
444.10 1.559
444.20 1.558
444.30 1.557
444.40 1.557
444.50 1.556
444.60 1.555
444.70 1.554
444.80 1.553
444.90 1.553
445.00 1.552
445.10 1.551
445.20 1.55
445.30 1.549
445.40 1.548
445.50 1.547
445.60 1.546
445.70 1.546
445.80 1.545
445.90 1.544
446.00 1.543
446.10 1.542
446.20 1.541
446.30 1.54
446.40 1.539
446.50 1.538
446.60 1.537
446.70 1.536
446.80 1.535
446.90 1.534
447.00 1.533
447.10 1.532
447.20 1.531
447.30 1.53
447.40 1.529
447.50 1.528
447.60 1.527
447.70 1.526
447.80 1.525
447.90 1.524
448.00 1.523
448.10 1.522
448.20 1.521
448.30 1.52
448.40 1.519
448.50 1.518
448.60 1.517
448.70 1.515
448.80 1.514
448.90 1.513
449.00 1.512
449.10 1.511
449.20 1.51
449.30 1.509
449.40 1.508
449.50 1.507
449.60 1.506
449.70 1.505
449.80 1.503
449.90 1.502
450.00 1.501
450.10 1.5
450.20 1.499
450.30 1.498
450.40 1.497
450.50 1.496
450.60 1.495
450.70 1.493
450.80 1.492
450.90 1.491
451.00 1.49
451.10 1.489
451.20 1.488
451.30 1.487
451.40 1.485
451.50 1.484
451.60 1.483
451.70 1.482
451.80 1.481
451.90 1.48
452.00 1.479
452.10 1.477
452.20 1.476
452.30 1.475
452.40 1.474
452.50 1.473
452.60 1.472
452.70 1.471
452.80 1.469
452.90 1.468
453.00 1.467
453.10 1.466
453.20 1.465
453.30 1.464
453.40 1.462
453.50 1.461
453.60 1.46
453.70 1.459
453.80 1.458
453.90 1.457
454.00 1.455
454.10 1.454
454.20 1.453
454.30 1.452
454.40 1.451
454.50 1.45
454.60 1.449
454.70 1.447
454.80 1.446
454.90 1.445
455.00 1.444
455.10 1.443
455.20 1.441
455.30 1.44
455.40 1.439
455.50 1.438
455.60 1.437
455.70 1.436
455.80 1.434
455.90 1.433
456.00 1.432
456.10 1.431
456.20 1.43
456.30 1.429
456.40 1.427
456.50 1.426
456.60 1.425
456.70 1.424
456.80 1.423
456.90 1.422
457.00 1.42
457.10 1.419
457.20 1.418
457.30 1.417
457.40 1.416
457.50 1.415
457.60 1.413
457.70 1.412
457.80 1.411
457.90 1.41
458.00 1.409
458.10 1.408
458.20 1.406
458.30 1.405
458.40 1.404
458.50 1.403
458.60 1.402
458.70 1.401
458.80 1.399
458.90 1.398
459.00 1.397
459.10 1.396
459.20 1.395
459.30 1.394
459.40 1.392
459.50 1.391
459.60 1.39
459.70 1.389
459.80 1.388
459.90 1.387
460.00 1.385
460.10 1.384
460.20 1.383
460.30 1.382
460.40 1.381
460.50 1.38
460.60 1.378
460.70 1.377
460.80 1.376
460.90 1.375
461.00 1.374
461.10 1.373
461.20 1.371
461.30 1.37
461.40 1.369
461.50 1.368
461.60 1.367
461.70 1.366
461.80 1.364
461.90 1.363
462.00 1.362
462.10 1.361
462.20 1.36
462.30 1.359
462.40 1.357
462.50 1.356
462.60 1.355
462.70 1.354
462.80 1.353
462.90 1.352
463.00 1.35
463.10 1.349
463.20 1.348
463.30 1.347
463.40 1.346
463.50 1.345
463.60 1.343
463.70 1.342
463.80 1.341
463.90 1.34
464.00 1.339
464.10 1.338
464.20 1.336
464.30 1.335
464.40 1.334
464.50 1.333
464.60 1.332
464.70 1.331
464.80 1.329
464.90 1.328
465.00 1.327
465.10 1.326
465.20 1.325
465.30 1.324
465.40 1.322
465.50 1.321
465.60 1.32
465.70 1.319
465.80 1.318
465.90 1.316
466.00 1.315
466.10 1.314
466.20 1.313
466.30 1.312
466.40 1.311
466.50 1.309
466.60 1.308
466.70 1.307
466.80 1.306
466.90 1.305
467.00 1.304
467.10 1.302
467.20 1.301
467.30 1.3
467.40 1.299
467.50 1.298
467.60 1.296
467.70 1.295
467.80 1.294
467.90 1.293
468.00 1.292
468.10 1.291
468.20 1.289
468.30 1.288
468.40 1.287
468.50 1.286
468.60 1.285
468.70 1.283
468.80 1.282
468.90 1.281
469.00 1.28
469.10 1.279
469.20 1.277
469.30 1.276
469.40 1.275
469.50 1.274
469.60 1.273
469.70 1.271
469.80 1.27
469.90 1.269
470.00 1.268
470.10 1.267
470.20 1.265
470.30 1.264
470.40 1.263
470.50 1.262
470.60 1.26
470.70 1.259
470.80 1.258
470.90 1.257
471.00 1.255
471.10 1.254
471.20 1.253
471.30 1.252
471.40 1.25
471.50 1.249
471.60 1.248
471.70 1.247
471.80 1.245
471.90 1.244
472.00 1.243
472.10 1.242
472.20 1.24
472.30 1.239
472.40 1.238
472.50 1.236
472.60 1.235
472.70 1.234
472.80 1.233
472.90 1.231
473.00 1.23
473.10 1.229
473.20 1.227
473.30 1.226
473.40 1.225
473.50 1.223
473.60 1.222
473.70 1.221
473.80 1.219
473.90 1.218
474.00 1.217
474.10 1.215
474.20 1.214
474.30 1.213
474.40 1.211
474.50 1.21
474.60 1.208
474.70 1.207
474.80 1.206
474.90 1.204
475.00 1.203
475.10 1.201
475.20 1.2
475.30 1.198
475.40 1.197
475.50 1.195
475.60 1.194
475.70 1.193
475.80 1.191
475.90 1.19
476.00 1.188
476.10 1.187
476.20 1.185
476.30 1.184
476.40 1.182
476.50 1.18
476.60 1.179
476.70 1.177
476.80 1.176
476.90 1.174
477.00 1.173
477.10 1.171
477.20 1.169
477.30 1.168
477.40 1.166
477.50 1.164
477.60 1.163
477.70 1.161
477.80 1.159
477.90 1.157
478.00 1.156
478.10 1.154
478.20 1.152
478.30 1.15
478.40 1.149
478.50 1.147
478.60 1.145
478.70 1.143
478.80 1.141
478.90 1.139
479.00 1.138
479.10 1.136
479.20 1.134
479.30 1.132
479.40 1.13
479.50 1.128
479.60 1.126
479.70 1.124
479.80 1.122
479.90 1.12
480.00 1.118
480.10 1.116
480.20 1.113
480.30 1.111
480.40 1.109
480.50 1.107
480.60 1.104
480.70 1.102
480.80 1.1
480.90 1.098
481.00 1.095
481.10 1.093
481.20 1.091
481.30 1.088
481.40 1.086
481.50 1.083
481.60 1.081
481.70 1.078
481.80 1.076
481.90 1.073
482.00 1.071
482.10 1.068
482.20 1.065
482.30 1.063
482.40 1.06
482.50 1.057
482.60 1.054
482.70 1.051
482.80 1.048
482.90 1.046
483.00 1.043
483.10 1.04
483.20 1.037
483.30 1.034
483.40 1.031
483.50 1.027
483.60 1.024
483.70 1.021
483.80 1.018
483.90 1.015
484.00 1.012
484.10 1.008
484.20 1.005
484.30 1.002
484.40 0.9984
484.50 0.995
484.60 0.9916
484.70 0.9882
484.80 0.9848
484.90 0.9814
485.00 0.978
485.10 0.9746
485.20 0.9713
485.30 0.9681
485.40 0.9651
485.50 0.9622
485.60 0.96
485.70 0.9582
485.80 0.9586
485.90 0.9601
486.00 0.9655
486.10 0.9747
486.20 0.9711
486.30 0.9603
486.40 0.9559
486.50 0.9529
486.60 0.9522
486.70 0.9527
486.80 0.9538
486.90 0.9552
487.00 0.9569
487.10 0.9587
487.20 0.9606
487.30 0.9625
487.40 0.9645
487.50 0.9664
487.60 0.9683
487.70 0.9702
487.80 0.972
487.90 0.9739
488.00 0.9757
488.10 0.9775
488.20 0.9792
488.30 0.9808
488.40 0.9824
488.50 0.9839
488.60 0.9855
488.70 0.9871
488.80 0.9886
488.90 0.9902
489.00 0.9918
489.10 0.9933
489.20 0.9946
489.30 0.9958
489.40 0.997
489.50 0.9982
489.60 0.9993
489.70 1.001
489.80 1.002
489.90 1.003
490.00 1.004
490.10 1.005
490.20 1.006
490.30 1.007
490.40 1.008
490.50 1.009
490.60 1.009
490.70 1.01
490.80 1.011
490.90 1.012
491.00 1.013
491.10 1.013
491.20 1.014
491.30 1.015
491.40 1.015
491.50 1.016
491.60 1.016
491.70 1.017
491.80 1.017
491.90 1.018
492.00 1.018
492.10 1.019
492.20 1.019
492.30 1.019
492.40 1.019
492.50 1.02
492.60 1.02
492.70 1.02
492.80 1.02
492.90 1.021
493.00 1.021
493.10 1.021
493.20 1.021
493.30 1.021
493.40 1.021
493.50 1.021
493.60 1.021
493.70 1.021
493.80 1.021
493.90 1.021
494.00 1.021
494.10 1.021
494.20 1.021
494.30 1.021
494.40 1.021
494.50 1.021
494.60 1.021
494.70 1.021
494.80 1.021
494.90 1.021
495.00 1.02
495.10 1.02
495.20 1.02
495.30 1.02
495.40 1.02
495.50 1.019
495.60 1.019
495.70 1.019
495.80 1.018
495.90 1.018
496.00 1.018
496.10 1.018
496.20 1.017
496.30 1.017
496.40 1.017
496.50 1.016
496.60 1.016
496.70 1.016
496.80 1.015
496.90 1.015
497.00 1.015
497.10 1.014
497.20 1.014
497.30 1.013
497.40 1.013
497.50 1.012
497.60 1.012
497.70 1.012
497.80 1.011
497.90 1.011
498.00 1.01
498.10 1.01
498.20 1.009
498.30 1.009
498.40 1.008
498.50 1.008
498.60 1.007
498.70 1.007
498.80 1.006
498.90 1.006
499.00 1.005
499.10 1.005
499.20 1.004
499.30 1.004
499.40 1.003
499.50 1.003
499.60 1.002
499.70 1.002
499.80 1.001
499.90 1.001
500.00 1
500.10 0.9995
500.20 0.9989
500.30 0.9983
500.40 0.9977
500.50 0.9971
500.60 0.9966
500.70 0.996
500.80 0.9954
500.90 0.9948
501.00 0.9943
501.10 0.9937
501.20 0.9931
501.30 0.9925
501.40 0.9919
501.50 0.9913
501.60 0.9907
501.70 0.9901
501.80 0.9894
501.90 0.9888
502.00 0.9882
502.10 0.9876
502.20 0.987
502.30 0.9864
502.40 0.9858
502.50 0.9851
502.60 0.9845
502.70 0.9839
502.80 0.9833
502.90 0.9826
503.00 0.982
503.10 0.9814
503.20 0.9807
503.30 0.9801
503.40 0.9795
503.50 0.9788
503.60 0.9782
503.70 0.9775
503.80 0.9769
503.90 0.9763
504.00 0.9756
504.10 0.975
504.20 0.9743
504.30 0.9737
504.40 0.973
504.50 0.9724
504.60 0.9717
504.70 0.9711
504.80 0.9704
504.90 0.9698
505.00 0.9691
505.10 0.9685
505.20 0.9678
505.30 0.9672
505.40 0.9665
505.50 0.9658
505.60 0.9652
505.70 0.9645
505.80 0.9639
505.90 0.9632
506.00 0.9625
506.10 0.9619
506.20 0.9612
506.30 0.9606
506.40 0.9599
506.50 0.9592
506.60 0.9586
506.70 0.9579
506.80 0.9572
506.90 0.9566
507.00 0.9559
507.10 0.9553
507.20 0.9546
507.30 0.9539
507.40 0.9533
507.50 0.9526
507.60 0.9519
507.70 0.9513
507.80 0.9506
507.90 0.9499
508.00 0.9493
508.10 0.9486
508.20 0.9479
508.30 0.9473
508.40 0.9466
508.50 0.9459
508.60 0.9452
508.70 0.9446
508.80 0.9439
508.90 0.9432
509.00 0.9426
509.10 0.9419
509.20 0.9412
509.30 0.9406
509.40 0.9399
509.50 0.9392
509.60 0.9386
509.70 0.9379
509.80 0.9372
509.90 0.9366
510.00 0.9359
510.10 0.9352
510.20 0.9346
510.30 0.9339
510.40 0.9332
510.50 0.9326
510.60 0.9319
510.70 0.9312
510.80 0.9306
510.90 0.9299
511.00 0.9292
511.10 0.9286
511.20 0.9279
511.30 0.9272
511.40 0.9266
511.50 0.9259
511.60 0.9252
511.70 0.9246
511.80 0.9239
511.90 0.9232
512.00 0.9226
512.10 0.9219
512.20 0.9212
512.30 0.9206
512.40 0.9199
512.50 0.9193
512.60 0.9186
512.70 0.9179
512.80 0.9173
512.90 0.9166
513.00 0.9159
513.10 0.9153
513.20 0.9146
513.30 0.914
513.40 0.9133
513.50 0.9126
513.60 0.912
513.70 0.9113
513.80 0.9107
513.90 0.91
514.00 0.9093
514.10 0.9087
514.20 0.908
514.30 0.9074
514.40 0.9067
514.50 0.9061
514.60 0.9054
514.70 0.9047
514.80 0.9041
514.90 0.9034
515.00 0.9028
515.10 0.9021
515.20 0.9015
515.30 0.9008
515.40 0.9002
515.50 0.8995
515.60 0.8989
515.70 0.8982
515.80 0.8976
515.90 0.8969
516.00 0.8963
516.10 0.8956
516.20 0.8949
516.30 0.8943
516.40 0.8937
516.50 0.893
516.60 0.8924
516.70 0.8917
516.80 0.8911
516.90 0.8904
517.00 0.8898
517.10 0.8891
517.20 0.8885
517.30 0.8878
517.40 0.8872
517.50 0.8865
517.60 0.8859
517.70 0.8852
517.80 0.8846
517.90 0.884
518.00 0.8833
518.10 0.8827
518.20 0.882
518.30 0.8814
518.40 0.8808
518.50 0.8801
518.60 0.8795
518.70 0.8788
518.80 0.8782
518.90 0.8776
519.00 0.8769
519.10 0.8763
519.20 0.8756
519.30 0.875
519.40 0.8744
519.50 0.8737
519.60 0.8731
519.70 0.8725
519.80 0.8718
519.90 0.8712
520.00 0.8706
520.10 0.8699
520.20 0.8693
520.30 0.8687
520.40 0.868
520.50 0.8674
520.60 0.8668
520.70 0.8661
520.80 0.8655
520.90 0.8649
521.00 0.8643
521.10 0.8636
521.20 0.863
521.30 0.8624
521.40 0.8617
521.50 0.8611
521.60 0.8605
521.70 0.8599
521.80 0.8592
521.90 0.8586
522.00 0.858
522.10 0.8574
522.20 0.8567
522.30 0.8561
522.40 0.8555
522.50 0.8549
522.60 0.8543
522.70 0.8536
522.80 0.853
522.90 0.8524
523.00 0.8518
523.10 0.8512
523.20 0.8505
523.30 0.8499
523.40 0.8493
523.50 0.8487
523.60 0.8481
523.70 0.8475
523.80 0.8468
523.90 0.8462
524.00 0.8456
524.10 0.845
524.20 0.8444
524.30 0.8438
524.40 0.8432
524.50 0.8426
524.60 0.8419
524.70 0.8413
524.80 0.8407
524.90 0.8401
525.00 0.8395
525.10 0.8389
525.20 0.8383
525.30 0.8377
525.40 0.8371
525.50 0.8365
525.60 0.8359
525.70 0.8353
525.80 0.8347
525.90 0.834
526.00 0.8334
526.10 0.8328
526.20 0.8322
526.30 0.8316
526.40 0.831
526.50 0.8304
526.60 0.8298
526.70 0.8292
526.80 0.8286
526.90 0.828
527.00 0.8274
527.10 0.8268
527.20 0.8262
527.30 0.8256
527.40 0.825
527.50 0.8244
527.60 0.8238
527.70 0.8233
527.80 0.8227
527.90 0.8221
528.00 0.8215
528.10 0.8209
528.20 0.8203
528.30 0.8197
528.40 0.8191
528.50 0.8185
528.60 0.8179
528.70 0.8173
528.80 0.8167
528.90 0.8161
529.00 0.8156
529.10 0.815
529.20 0.8144
529.30 0.8138
529.40 0.8132
529.50 0.8126
529.60 0.812
529.70 0.8114
529.80 0.8109
529.90 0.8103
530.00 0.8097
530.10 0.8091
530.20 0.8085
530.30 0.8079
530.40 0.8074
530.50 0.8068
530.60 0.8062
530.70 0.8056
530.80 0.805
530.90 0.8045
531.00 0.8039
531.10 0.8033
531.20 0.8027
531.30 0.8021
531.40 0.8016
531.50 0.801
531.60 0.8004
531.70 0.7998
531.80 0.7993
531.90 0.7987
532.00 0.7981
532.10 0.7975
532.20 0.797
532.30 0.7964
532.40 0.7958
532.50 0.7953
532.60 0.7947
532.70 0.7941
532.80 0.7935
532.90 0.793
533.00 0.7924
533.10 0.7918
533.20 0.7913
533.30 0.7907
533.40 0.7901
533.50 0.7896
533.60 0.789
533.70 0.7884
533.80 0.7879
533.90 0.7873
534.00 0.7867
534.10 0.7862
534.20 0.7856
534.30 0.785
534.40 0.7845
534.50 0.7839
534.60 0.7834
534.70 0.7828
534.80 0.7822
534.90 0.7817
535.00 0.7811
535.10 0.7806
535.20 0.78
535.30 0.7794
535.40 0.7789
535.50 0.7783
535.60 0.7778
535.70 0.7772
535.80 0.7767
535.90 0.7761
536.00 0.7755
536.10 0.775
536.20 0.7744
536.30 0.7739
536.40 0.7733
536.50 0.7728
536.60 0.7722
536.70 0.7717
536.80 0.7711
536.90 0.7706
537.00 0.77
537.10 0.7695
537.20 0.7689
537.30 0.7684
537.40 0.7678
537.50 0.7673
537.60 0.7667
537.70 0.7662
537.80 0.7656
537.90 0.7651
538.00 0.7646
538.10 0.764
538.20 0.7635
538.30 0.7629
538.40 0.7624
538.50 0.7618
538.60 0.7613
538.70 0.7608
538.80 0.7602
538.90 0.7597
539.00 0.7591
539.10 0.7586
539.20 0.7581
539.30 0.7575
539.40 0.757
539.50 0.7564
539.60 0.7559
539.70 0.7554
539.80 0.7548
539.90 0.7543
540.00 0.7538
540.10 0.7532
540.20 0.7527
540.30 0.7521
540.40 0.7516
540.50 0.7511
540.60 0.7505
540.70 0.75
540.80 0.7495
540.90 0.749
541.00 0.7484
541.10 0.7479
541.20 0.7474
541.30 0.7468
541.40 0.7463
541.50 0.7458
541.60 0.7452
541.70 0.7447
541.80 0.7442
541.90 0.7437
542.00 0.7431
542.10 0.7426
542.20 0.7421
542.30 0.7416
542.40 0.741
542.50 0.7405
542.60 0.74
542.70 0.7395
542.80 0.7389
542.90 0.7384
543.00 0.7379
543.10 0.7374
543.20 0.7369
543.30 0.7363
543.40 0.7358
543.50 0.7353
543.60 0.7348
543.70 0.7343
543.80 0.7337
543.90 0.7332
544.00 0.7327
544.10 0.7322
544.20 0.7317
544.30 0.7311
544.40 0.7306
544.50 0.7301
544.60 0.7296
544.70 0.7291
544.80 0.7286
544.90 0.7281
545.00 0.7275
545.10 0.727
545.20 0.7265
545.30 0.726
545.40 0.7255
545.50 0.725
545.60 0.7245
545.70 0.724
545.80 0.7235
545.90 0.723
546.00 0.7224
546.10 0.7219
546.20 0.7214
546.30 0.7209
546.40 0.7204
546.50 0.7199
546.60 0.7194
546.70 0.7189
546.80 0.7184
546.90 0.7179
547.00 0.7174
547.10 0.7169
547.20 0.7164
547.30 0.7159
547.40 0.7154
547.50 0.7149
547.60 0.7144
547.70 0.7139
547.80 0.7134
547.90 0.7129
548.00 0.7124
548.10 0.7119
548.20 0.7114
548.30 0.7109
548.40 0.7104
548.50 0.7099
548.60 0.7094
548.70 0.7089
548.80 0.7084
548.90 0.7079
549.00 0.7074
549.10 0.7069
549.20 0.7064
549.30 0.7059
549.40 0.7054
549.50 0.7049
549.60 0.7044
549.70 0.7039
549.80 0.7034
549.90 0.7029
550.00 0.7025
550.10 0.702
550.20 0.7015
550.30 0.701
550.40 0.7005
550.50 0.7
550.60 0.6995
550.70 0.699
550.80 0.6985
550.90 0.6981
551.00 0.6976
551.10 0.6971
551.20 0.6966
551.30 0.6961
551.40 0.6956
551.50 0.6951
551.60 0.6947
551.70 0.6942
551.80 0.6937
551.90 0.6932
552.00 0.6927
552.10 0.6922
552.20 0.6918
552.30 0.6913
552.40 0.6908
552.50 0.6903
552.60 0.6898
552.70 0.6894
552.80 0.6889
552.90 0.6884
553.00 0.6879
553.10 0.6874
553.20 0.687
553.30 0.6865
553.40 0.686
553.50 0.6855
553.60 0.6851
553.70 0.6846
553.80 0.6841
553.90 0.6836
554.00 0.6831
554.10 0.6827
554.20 0.6822
554.30 0.6817
554.40 0.6813
554.50 0.6808
554.60 0.6803
554.70 0.6798
554.80 0.6794
554.90 0.6789
555.00 0.6784
555.10 0.678
555.20 0.6775
555.30 0.677
555.40 0.6765
555.50 0.6761
555.60 0.6756
555.70 0.6751
555.80 0.6747
555.90 0.6742
556.00 0.6737
556.10 0.6733
556.20 0.6728
556.30 0.6723
556.40 0.6719
556.50 0.6714
556.60 0.671
556.70 0.6705
556.80 0.67
556.90 0.6696
557.00 0.6691
557.10 0.6686
557.20 0.6682
557.30 0.6677
557.40 0.6673
557.50 0.6668
557.60 0.6663
557.70 0.6659
557.80 0.6654
557.90 0.665
558.00 0.6645
558.10 0.664
558.20 0.6636
558.30 0.6631
558.40 0.6627
558.50 0.6622
558.60 0.6618
558.70 0.6613
558.80 0.6608
558.90 0.6604
559.00 0.6599
559.10 0.6595
559.20 0.659
559.30 0.6586
559.40 0.6581
559.50 0.6577
559.60 0.6572
559.70 0.6568
559.80 0.6563
559.90 0.6559
560.00 0.6554
560.10 0.655
560.20 0.6545
560.30 0.6541
560.40 0.6536
560.50 0.6532
560.60 0.6527
560.70 0.6523
560.80 0.6518
560.90 0.6514
561.00 0.6509
561.10 0.6505
561.20 0.65
561.30 0.6496
561.40 0.6491
561.50 0.6487
561.60 0.6482
561.70 0.6478
561.80 0.6474
561.90 0.6469
562.00 0.6465
562.10 0.646
562.20 0.6456
562.30 0.6451
562.40 0.6447
562.50 0.6443
562.60 0.6438
562.70 0.6434
562.80 0.6429
562.90 0.6425
563.00 0.6421
563.10 0.6416
563.20 0.6412
563.30 0.6407
563.40 0.6403
563.50 0.6399
563.60 0.6394
563.70 0.639
563.80 0.6386
563.90 0.6381
564.00 0.6377
564.10 0.6372
564.20 0.6368
564.30 0.6364
564.40 0.6359
564.50 0.6355
564.60 0.6351
564.70 0.6346
564.80 0.6342
564.90 0.6338
565.00 0.6333
565.10 0.6329
565.20 0.6325
565.30 0.6321
565.40 0.6316
565.50 0.6312
565.60 0.6308
565.70 0.6303
565.80 0.6299
565.90 0.6295
566.00 0.629
566.10 0.6286
566.20 0.6282
566.30 0.6278
566.40 0.6273
566.50 0.6269
566.60 0.6265
566.70 0.6261
566.80 0.6256
566.90 0.6252
567.00 0.6248
567.10 0.6244
567.20 0.6239
567.30 0.6235
567.40 0.6231
567.50 0.6227
567.60 0.6222
567.70 0.6218
567.80 0.6214
567.90 0.621
568.00 0.6206
568.10 0.6201
568.20 0.6197
568.30 0.6193
568.40 0.6189
568.50 0.6185
568.60 0.618
568.70 0.6176
568.80 0.6172
568.90 0.6168
569.00 0.6164
569.10 0.6159
569.20 0.6155
569.30 0.6151
569.40 0.6147
569.50 0.6143
569.60 0.6139
569.70 0.6134
569.80 0.613
569.90 0.6126
570.00 0.6122
570.10 0.6118
570.20 0.6114
570.30 0.611
570.40 0.6106
570.50 0.6101
570.60 0.6097
570.70 0.6093
570.80 0.6089
570.90 0.6085
571.00 0.6081
571.10 0.6077
571.20 0.6073
571.30 0.6069
571.40 0.6064
571.50 0.606
571.60 0.6056
571.70 0.6052
571.80 0.6048
571.90 0.6044
572.00 0.604
572.10 0.6036
572.20 0.6032
572.30 0.6028
572.40 0.6024
572.50 0.602
572.60 0.6016
572.70 0.6012
572.80 0.6008
572.90 0.6003
573.00 0.5999
573.10 0.5995
573.20 0.5991
573.30 0.5987
573.40 0.5983
573.50 0.5979
573.60 0.5975
573.70 0.5971
573.80 0.5967
573.90 0.5963
574.00 0.5959
574.10 0.5955
574.20 0.5951
574.30 0.5947
574.40 0.5943
574.50 0.5939
574.60 0.5935
574.70 0.5931
574.80 0.5927
574.90 0.5923
575.00 0.5919
575.10 0.5915
575.20 0.5911
575.30 0.5907
575.40 0.5903
575.50 0.59
575.60 0.5896
575.70 0.5892
575.80 0.5888
575.90 0.5884
576.00 0.588
576.10 0.5876
576.20 0.5872
576.30 0.5868
576.40 0.5864
576.50 0.586
576.60 0.5856
576.70 0.5852
576.80 0.5848
576.90 0.5844
577.00 0.5841
577.10 0.5837
577.20 0.5833
577.30 0.5829
577.40 0.5825
577.50 0.5821
577.60 0.5817
577.70 0.5813
577.80 0.5809
577.90 0.5806
578.00 0.5802
578.10 0.5798
578.20 0.5794
578.30 0.579
578.40 0.5786
578.50 0.5782
578.60 0.5779
578.70 0.5775
578.80 0.5771
578.90 0.5767
579.00 0.5763
579.10 0.5759
579.20 0.5755
579.30 0.5752
579.40 0.5748
579.50 0.5744
579.60 0.574
579.70 0.5736
579.80 0.5733
579.90 0.5729
580.00 0.5725
580.10 0.5721
580.20 0.5717
580.30 0.5713
580.40 0.571
580.50 0.5706
580.60 0.5702
580.70 0.5698
580.80 0.5695
580.90 0.5691
581.00 0.5687
581.10 0.5683
581.20 0.5679
581.30 0.5676
581.40 0.5672
581.50 0.5668
581.60 0.5664
581.70 0.5661
581.80 0.5657
581.90 0.5653
582.00 0.5649
582.10 0.5646
582.20 0.5642
582.30 0.5638
582.40 0.5634
582.50 0.5631
582.60 0.5627
582.70 0.5623
582.80 0.5619
582.90 0.5616
583.00 0.5612
583.10 0.5608
583.20 0.5605
583.30 0.5601
583.40 0.5597
583.50 0.5593
583.60 0.559
583.70 0.5586
583.80 0.5582
583.90 0.5579
584.00 0.5575
584.10 0.5571
584.20 0.5568
584.30 0.5564
584.40 0.556
584.50 0.5557
584.60 0.5553
584.70 0.5549
584.80 0.5546
584.90 0.5542
585.00 0.5538
585.10 0.5535
585.20 0.5531
585.30 0.5527
585.40 0.5524
585.50 0.552
585.60 0.5516
585.70 0.5513
585.80 0.5509
585.90 0.5506
586.00 0.5502
586.10 0.5498
586.20 0.5495
586.30 0.5491
586.40 0.5487
586.50 0.5484
586.60 0.548
586.70 0.5477
586.80 0.5473
586.90 0.5469
587.00 0.5466
587.10 0.5462
587.20 0.5459
587.30 0.5455
587.40 0.5451
587.50 0.5448
587.60 0.5444
587.70 0.5441
587.80 0.5437
587.90 0.5434
588.00 0.543
588.10 0.5426
588.20 0.5423
588.30 0.5419
588.40 0.5416
588.50 0.5412
588.60 0.5409
588.70 0.5405
588.80 0.5401
588.90 0.5398
589.00 0.5394
589.10 0.5391
589.20 0.5387
589.30 0.5384
589.40 0.538
589.50 0.5377
589.60 0.5373
589.70 0.537
589.80 0.5366
589.90 0.5363
590.00 0.5359
590.10 0.5356
590.20 0.5352
590.30 0.5349
590.40 0.5345
590.50 0.5342
590.60 0.5338
590.70 0.5335
590.80 0.5331
590.90 0.5328
591.00 0.5324
591.10 0.5321
591.20 0.5317
591.30 0.5314
591.40 0.531
591.50 0.5307
591.60 0.5303
591.70 0.53
591.80 0.5296
591.90 0.5293
592.00 0.529
592.10 0.5286
592.20 0.5283
592.30 0.5279
592.40 0.5276
592.50 0.5272
592.60 0.5269
592.70 0.5265
592.80 0.5262
592.90 0.5259
593.00 0.5255
593.10 0.5252
593.20 0.5248
593.30 0.5245
593.40 0.5241
593.50 0.5238
593.60 0.5235
593.70 0.5231
593.80 0.5228
593.90 0.5224
594.00 0.5221
594.10 0.5218
594.20 0.5214
594.30 0.5211
594.40 0.5207
594.50 0.5204
594.60 0.5201
594.70 0.5197
594.80 0.5194
594.90 0.519
595.00 0.5187
595.10 0.5184
595.20 0.518
595.30 0.5177
595.40 0.5174
595.50 0.517
595.60 0.5167
595.70 0.5164
595.80 0.516
595.90 0.5157
596.00 0.5154
596.10 0.515
596.20 0.5147
596.30 0.5144
596.40 0.514
596.50 0.5137
596.60 0.5134
596.70 0.513
596.80 0.5127
596.90 0.5124
597.00 0.512
597.10 0.5117
597.20 0.5114
597.30 0.511
597.40 0.5107
597.50 0.5104
597.60 0.51
597.70 0.5097
597.80 0.5094
597.90 0.509
598.00 0.5087
598.10 0.5084
598.20 0.5081
598.30 0.5077
598.40 0.5074
598.50 0.5071
598.60 0.5067
598.70 0.5064
598.80 0.5061
598.90 0.5058
599.00 0.5054
599.10 0.5051
599.20 0.5048
599.30 0.5045
599.40 0.5041
599.50 0.5038
599.60 0.5035
599.70 0.5032
599.80 0.5028
599.90 0.5025
600.00 0.5022
600.10 0.5019
600.20 0.5015
600.30 0.5012
600.40 0.5009
600.50 0.5006
600.60 0.5002
600.70 0.4999
600.80 0.4996
600.90 0.4993
601.00 0.499
601.10 0.4986
601.20 0.4983
601.30 0.498
601.40 0.4977
601.50 0.4973
601.60 0.497
601.70 0.4967
601.80 0.4964
601.90 0.4961
602.00 0.4957
602.10 0.4954
602.20 0.4951
602.30 0.4948
602.40 0.4945
602.50 0.4942
602.60 0.4938
602.70 0.4935
602.80 0.4932
602.90 0.4929
603.00 0.4926
603.10 0.4923
603.20 0.4919
603.30 0.4916
603.40 0.4913
603.50 0.491
603.60 0.4907
603.70 0.4904
603.80 0.49
603.90 0.4897
604.00 0.4894
604.10 0.4891
604.20 0.4888
604.30 0.4885
604.40 0.4882
604.50 0.4878
604.60 0.4875
604.70 0.4872
604.80 0.4869
604.90 0.4866
605.00 0.4863
605.10 0.486
605.20 0.4857
605.30 0.4854
605.40 0.485
605.50 0.4847
605.60 0.4844
605.70 0.4841
605.80 0.4838
605.90 0.4835
606.00 0.4832
606.10 0.4829
606.20 0.4826
606.30 0.4823
606.40 0.4819
606.50 0.4816
606.60 0.4813
606.70 0.481
606.80 0.4807
606.90 0.4804
607.00 0.4801
607.10 0.4798
607.20 0.4795
607.30 0.4792
607.40 0.4789
607.50 0.4786
607.60 0.4783
607.70 0.478
607.80 0.4777
607.90 0.4773
608.00 0.477
608.10 0.4767
608.20 0.4764
608.30 0.4761
608.40 0.4758
608.50 0.4755
608.60 0.4752
608.70 0.4749
608.80 0.4746
608.90 0.4743
609.00 0.474
609.10 0.4737
609.20 0.4734
609.30 0.4731
609.40 0.4728
609.50 0.4725
609.60 0.4722
609.70 0.4719
609.80 0.4716
609.90 0.4713
610.00 0.471
610.10 0.4707
610.20 0.4704
610.30 0.4701
610.40 0.4698
610.50 0.4695
610.60 0.4692
610.70 0.4689
610.80 0.4686
610.90 0.4683
611.00 0.468
611.10 0.4677
611.20 0.4674
611.30 0.4671
611.40 0.4668
611.50 0.4665
611.60 0.4662
611.70 0.4659
611.80 0.4656
611.90 0.4653
612.00 0.465
612.10 0.4647
612.20 0.4644
612.30 0.4641
612.40 0.4639
612.50 0.4636
612.60 0.4633
612.70 0.463
612.80 0.4627
612.90 0.4624
613.00 0.4621
613.10 0.4618
613.20 0.4615
613.30 0.4612
613.40 0.4609
613.50 0.4606
613.60 0.4603
613.70 0.46
613.80 0.4597
613.90 0.4595
614.00 0.4592
614.10 0.4589
614.20 0.4586
614.30 0.4583
614.40 0.458
614.50 0.4577
614.60 0.4574
614.70 0.4571
614.80 0.4568
614.90 0.4565
615.00 0.4563
615.10 0.456
615.20 0.4557
615.30 0.4554
615.40 0.4551
615.50 0.4548
615.60 0.4545
615.70 0.4542
615.80 0.454
615.90 0.4537
616.00 0.4534
616.10 0.4531
616.20 0.4528
616.30 0.4525
616.40 0.4522
616.50 0.4519
616.60 0.4517
616.70 0.4514
616.80 0.4511
616.90 0.4508
617.00 0.4505
617.10 0.4502
617.20 0.4499
617.30 0.4497
617.40 0.4494
617.50 0.4491
617.60 0.4488
617.70 0.4485
617.80 0.4482
617.90 0.448
618.00 0.4477
618.10 0.4474
618.20 0.4471
618.30 0.4468
618.40 0.4465
618.50 0.4463
618.60 0.446
618.70 0.4457
618.80 0.4454
618.90 0.4451
619.00 0.4448
619.10 0.4446
619.20 0.4443
619.30 0.444
619.40 0.4437
619.50 0.4434
619.60 0.4432
619.70 0.4429
619.80 0.4426
619.90 0.4423
620.00 0.442
620.10 0.4418
620.20 0.4415
620.30 0.4412
620.40 0.4409
620.50 0.4406
620.60 0.4404
620.70 0.4401
620.80 0.4398
620.90 0.4395
621.00 0.4393
621.10 0.439
621.20 0.4387
621.30 0.4384
621.40 0.4381
621.50 0.4379
621.60 0.4376
621.70 0.4373
621.80 0.437
621.90 0.4368
622.00 0.4365
622.10 0.4362
622.20 0.4359
622.30 0.4357
622.40 0.4354
622.50 0.4351
622.60 0.4348
622.70 0.4346
622.80 0.4343
622.90 0.434
623.00 0.4337
623.10 0.4335
623.20 0.4332
623.30 0.4329
623.40 0.4326
623.50 0.4324
623.60 0.4321
623.70 0.4318
623.80 0.4315
623.90 0.4313
624.00 0.431
624.10 0.4307
624.20 0.4305
624.30 0.4302
624.40 0.4299
624.50 0.4296
624.60 0.4294
624.70 0.4291
624.80 0.4288
624.90 0.4286
625.00 0.4283
625.10 0.428
625.20 0.4277
625.30 0.4275
625.40 0.4272
625.50 0.4269
625.60 0.4267
625.70 0.4264
625.80 0.4261
625.90 0.4258
626.00 0.4256
626.10 0.4253
626.20 0.425
626.30 0.4248
626.40 0.4245
626.50 0.4242
626.60 0.424
626.70 0.4237
626.80 0.4234
626.90 0.4232
627.00 0.4229
627.10 0.4226
627.20 0.4223
627.30 0.4221
627.40 0.4218
627.50 0.4215
627.60 0.4213
627.70 0.421
627.80 0.4207
627.90 0.4205
628.00 0.4202
628.10 0.4199
628.20 0.4197
628.30 0.4194
628.40 0.4191
628.50 0.4189
628.60 0.4186
628.70 0.4183
628.80 0.4181
628.90 0.4178
629.00 0.4175
629.10 0.4173
629.20 0.417
629.30 0.4167
629.40 0.4165
629.50 0.4162
629.60 0.4159
629.70 0.4157
629.80 0.4154
629.90 0.4151
630.00 0.4149
630.10 0.4146
630.20 0.4144
630.30 0.4141
630.40 0.4138
630.50 0.4136
630.60 0.4133
630.70 0.413
630.80 0.4128
630.90 0.4125
631.00 0.4122
631.10 0.412
631.20 0.4117
631.30 0.4114
631.40 0.4112
631.50 0.4109
631.60 0.4107
631.70 0.4104
631.80 0.4101
631.90 0.4099
632.00 0.4096
632.10 0.4093
632.20 0.4091
632.30 0.4088
632.40 0.4085
632.50 0.4083
632.60 0.408
632.70 0.4077
632.80 0.4075
632.90 0.4072
633.00 0.407
633.10 0.4067
633.20 0.4064
633.30 0.4062
633.40 0.4059
633.50 0.4056
633.60 0.4054
633.70 0.4051
633.80 0.4048
633.90 0.4046
634.00 0.4043
634.10 0.4041
634.20 0.4038
634.30 0.4035
634.40 0.4033
634.50 0.403
634.60 0.4027
634.70 0.4025
634.80 0.4022
634.90 0.4019
635.00 0.4017
635.10 0.4014
635.20 0.4012
635.30 0.4009
635.40 0.4006
635.50 0.4004
635.60 0.4001
635.70 0.3998
635.80 0.3996
635.90 0.3993
636.00 0.399
636.10 0.3988
636.20 0.3985
636.30 0.3982
636.40 0.398
636.50 0.3977
636.60 0.3974
636.70 0.3972
636.80 0.3969
636.90 0.3966
637.00 0.3964
637.10 0.3961
637.20 0.3959
637.30 0.3956
637.40 0.3953
637.50 0.395
637.60 0.3948
637.70 0.3945
637.80 0.3942
637.90 0.394
638.00 0.3937
638.10 0.3934
638.20 0.3932
638.30 0.3929
638.40 0.3926
638.50 0.3924
638.60 0.3921
638.70 0.3918
638.80 0.3916
638.90 0.3913
639.00 0.391
639.10 0.3907
639.20 0.3905
639.30 0.3902
639.40 0.3899
639.50 0.3896
639.60 0.3894
639.70 0.3891
639.80 0.3888
639.90 0.3886
640.00 0.3883
640.10 0.388
640.20 0.3877
640.30 0.3875
640.40 0.3872
640.50 0.3869
640.60 0.3866
640.70 0.3863
640.80 0.3861
640.90 0.3858
641.00 0.3855
641.10 0.3852
641.20 0.3849
641.30 0.3847
641.40 0.3844
641.50 0.3841
641.60 0.3838
641.70 0.3835
641.80 0.3832
641.90 0.383
642.00 0.3827
642.10 0.3824
642.20 0.3821
642.30 0.3818
642.40 0.3815
642.50 0.3812
642.60 0.3809
642.70 0.3806
642.80 0.3803
642.90 0.38
643.00 0.3797
643.10 0.3795
643.20 0.3792
643.30 0.3789
643.40 0.3786
643.50 0.3783
643.60 0.378
643.70 0.3776
643.80 0.3773
643.90 0.377
644.00 0.3767
644.10 0.3764
644.20 0.3761
644.30 0.3758
644.40 0.3755
644.50 0.3752
644.60 0.3749
644.70 0.3745
644.80 0.3742
644.90 0.3739
645.00 0.3736
645.10 0.3733
645.20 0.3729
645.30 0.3726
645.40 0.3723
645.50 0.3719
645.60 0.3716
645.70 0.3713
645.80 0.3709
645.90 0.3706
646.00 0.3703
646.10 0.3699
646.20 0.3696
646.30 0.3692
646.40 0.3689
646.50 0.3685
646.60 0.3682
646.70 0.3678
646.80 0.3674
646.90 0.3671
647.00 0.3667
647.10 0.3664
647.20 0.366
647.30 0.3656
647.40 0.3652
647.50 0.3649
647.60 0.3645
647.70 0.3641
647.80 0.3637
647.90 0.3633
648.00 0.3629
648.10 0.3625
648.20 0.3621
648.30 0.3617
648.40 0.3613
648.50 0.3609
648.60 0.3604
648.70 0.36
648.80 0.3596
648.90 0.3592
649.00 0.3587
649.10 0.3583
649.20 0.3579
649.30 0.3574
649.40 0.357
649.50 0.3565
649.60 0.356
649.70 0.3555
649.80 0.3551
649.90 0.3546
650.00 0.3541
650.10 0.3536
650.20 0.3532
650.30 0.3527
650.40 0.3521
650.50 0.3516
650.60 0.3511
650.70 0.3505
650.80 0.35
650.90 0.3495
651.00 0.3489
651.10 0.3484
651.20 0.3479
651.30 0.3473
651.40 0.3467
651.50 0.3461
651.60 0.3455
651.70 0.3449
651.80 0.3443
651.90 0.3437
652.00 0.3431
652.10 0.3425
652.20 0.3419
652.30 0.3412
652.40 0.3405
652.50 0.3398
652.60 0.3392
652.70 0.3385
652.80 0.3378
652.90 0.3371
653.00 0.3364
653.10 0.3357
653.20 0.335
653.30 0.3343
653.40 0.3336
653.50 0.3328
653.60 0.332
653.70 0.3312
653.80 0.3304
653.90 0.3297
654.00 0.3289
654.10 0.3281
654.20 0.3274
654.30 0.3266
654.40 0.3257
654.50 0.3249
654.60 0.3241
654.70 0.3232
654.80 0.3224
654.90 0.3216
655.00 0.3207
655.10 0.3199
655.20 0.319
655.30 0.3182
655.40 0.3173
655.50 0.3165
655.60 0.3158
655.70 0.315
655.80 0.3145
655.90 0.3141
656.00 0.3145
656.10 0.3153
656.20 0.322
656.30 0.3324
656.40 0.3177
656.50 0.314
656.60 0.3132
656.70 0.3127
656.80 0.3128
656.90 0.3131
657.00 0.3135
657.10 0.3139
657.20 0.3144
657.30 0.3148
657.40 0.3153
657.50 0.3158
657.60 0.3163
657.70 0.3168
657.80 0.3172
657.90 0.3177
658.00 0.3182
658.10 0.3186
658.20 0.3191
658.30 0.3195
658.40 0.3199
658.50 0.3203
658.60 0.3207
658.70 0.3211
658.80 0.3215
658.90 0.3219
659.00 0.3222
659.10 0.3226
659.20 0.323
659.30 0.3234
659.40 0.3237
659.50 0.324
659.60 0.3243
659.70 0.3246
659.80 0.3248
659.90 0.3251
660.00 0.3254
660.10 0.3257
660.20 0.326
660.30 0.3263
660.40 0.3265
660.50 0.3267
660.60 0.3269
660.70 0.3271
660.80 0.3273
660.90 0.3275
661.00 0.3277
661.10 0.3279
661.20 0.3281
661.30 0.3283
661.40 0.3284
661.50 0.3285
661.60 0.3286
661.70 0.3287
661.80 0.3289
661.90 0.329
662.00 0.3291
662.10 0.3292
662.20 0.3293
662.30 0.3294
662.40 0.3295
662.50 0.3295
662.60 0.3296
662.70 0.3297
662.80 0.3297
662.90 0.3298
663.00 0.3298
663.10 0.3299
663.20 0.3299
663.30 0.33
663.40 0.33
663.50 0.33
663.60 0.33
663.70 0.33
663.80 0.33
663.90 0.33
664.00 0.33
664.10 0.33
664.20 0.33
664.30 0.33
664.40 0.33
664.50 0.3299
664.60 0.3299
664.70 0.3299
664.80 0.3298
664.90 0.3298
665.00 0.3298
665.10 0.3297
665.20 0.3297
665.30 0.3297
665.40 0.3296
665.50 0.3295
665.60 0.3294
665.70 0.3294
665.80 0.3293
665.90 0.3292
666.00 0.3292
666.10 0.3291
666.20 0.329
666.30 0.329
666.40 0.3289
666.50 0.3288
666.60 0.3287
666.70 0.3286
666.80 0.3285
666.90 0.3284
667.00 0.3283
667.10 0.3282
667.20 0.3281
667.30 0.3281
667.40 0.3279
667.50 0.3278
667.60 0.3277
667.70 0.3276
667.80 0.3275
667.90 0.3274
668.00 0.3273
668.10 0.3272
668.20 0.3271
668.30 0.3269
668.40 0.3268
668.50 0.3267
668.60 0.3266
668.70 0.3264
668.80 0.3263
668.90 0.3262
669.00 0.3261
669.10 0.326
669.20 0.3258
669.30 0.3257
669.40 0.3256
669.50 0.3254
669.60 0.3253
669.70 0.3252
669.80 0.325
669.90 0.3249
670.00 0.3248
670.10 0.3246
670.20 0.3245
670.30 0.3243
670.40 0.3242
670.50 0.3241
670.60 0.3239
670.70 0.3238
670.80 0.3236
670.90 0.3235
671.00 0.3233
671.10 0.3232
671.20 0.323
671.30 0.3229
671.40 0.3228
671.50 0.3226
671.60 0.3225
671.70 0.3223
671.80 0.3221
671.90 0.322
672.00 0.3218
672.10 0.3217
672.20 0.3215
672.30 0.3214
672.40 0.3212
672.50 0.3211
672.60 0.3209
672.70 0.3208
672.80 0.3206
672.90 0.3205
673.00 0.3203
673.10 0.3202
673.20 0.32
673.30 0.3198
673.40 0.3197
673.50 0.3195
673.60 0.3194
673.70 0.3192
673.80 0.3191
673.90 0.3189
674.00 0.3187
674.10 0.3186
674.20 0.3184
674.30 0.3183
674.40 0.3181
674.50 0.3179
674.60 0.3178
674.70 0.3176
674.80 0.3174
674.90 0.3173
675.00 0.3171
675.10 0.317
675.20 0.3168
675.30 0.3166
675.40 0.3165
675.50 0.3163
675.60 0.3162
675.70 0.316
675.80 0.3158
675.90 0.3157
676.00 0.3155
676.10 0.3153
676.20 0.3152
676.30 0.315
676.40 0.3148
676.50 0.3147
676.60 0.3145
676.70 0.3143
676.80 0.3142
676.90 0.314
677.00 0.3139
677.10 0.3137
677.20 0.3135
677.30 0.3134
677.40 0.3132
677.50 0.313
677.60 0.3129
677.70 0.3127
677.80 0.3125
677.90 0.3124
678.00 0.3122
678.10 0.312
678.20 0.3119
678.30 0.3117
678.40 0.3115
678.50 0.3114
678.60 0.3112
678.70 0.311
678.80 0.3109
678.90 0.3107
679.00 0.3105
679.10 0.3104
679.20 0.3102
679.30 0.31
679.40 0.3099
679.50 0.3097
679.60 0.3095
679.70 0.3094
679.80 0.3092
679.90 0.309
680.00 0.3089
680.10 0.3087
680.20 0.3085
680.30 0.3084
680.40 0.3082
680.50 0.308
680.60 0.3079
680.70 0.3077
680.80 0.3075
680.90 0.3074
681.00 0.3072
681.10 0.307
681.20 0.3069
681.30 0.3067
681.40 0.3065
681.50 0.3064
681.60 0.3062
681.70 0.306
681.80 0.3059
681.90 0.3057
682.00 0.3055
682.10 0.3054
682.20 0.3052
682.30 0.305
682.40 0.3049
682.50 0.3047
682.60 0.3045
682.70 0.3044
682.80 0.3042
682.90 0.304
683.00 0.3039
683.10 0.3037
683.20 0.3035
683.30 0.3034
683.40 0.3032
683.50 0.303
683.60 0.3029
683.70 0.3027
683.80 0.3025
683.90 0.3024
684.00 0.3022
684.10 0.302
684.20 0.3019
684.30 0.3017
684.40 0.3015
684.50 0.3014
684.60 0.3012
684.70 0.301
684.80 0.3009
684.90 0.3007
685.00 0.3006
685.10 0.3004
685.20 0.3002
685.30 0.3001
685.40 0.2999
685.50 0.2997
685.60 0.2996
685.70 0.2994
685.80 0.2992
685.90 0.2991
686.00 0.2989
686.10 0.2987
686.20 0.2986
686.30 0.2984
686.40 0.2982
686.50 0.2981
686.60 0.2979
686.70 0.2978
686.80 0.2976
686.90 0.2974
687.00 0.2973
687.10 0.2971
687.20 0.2969
687.30 0.2968
687.40 0.2966
687.50 0.2964
687.60 0.2963
687.70 0.2961
687.80 0.296
687.90 0.2958
688.00 0.2956
688.10 0.2955
688.20 0.2953
688.30 0.2951
688.40 0.295
688.50 0.2948
688.60 0.2946
688.70 0.2945
688.80 0.2943
688.90 0.2942
689.00 0.294
689.10 0.2938
689.20 0.2937
689.30 0.2935
689.40 0.2934
689.50 0.2932
689.60 0.293
689.70 0.2929
689.80 0.2927
689.90 0.2925
690.00 0.2924
690.10 0.2922
690.20 0.2921
690.30 0.2919
690.40 0.2917
690.50 0.2916
690.60 0.2914
690.70 0.2913
690.80 0.2911
690.90 0.2909
691.00 0.2908
691.10 0.2906
691.20 0.2905
691.30 0.2903
691.40 0.2901
691.50 0.29
691.60 0.2898
691.70 0.2897
691.80 0.2895
691.90 0.2893
692.00 0.2892
692.10 0.289
692.20 0.2889
692.30 0.2887
692.40 0.2885
692.50 0.2884
692.60 0.2882
692.70 0.2881
692.80 0.2879
692.90 0.2877
693.00 0.2876
693.10 0.2874
693.20 0.2873
693.30 0.2871
693.40 0.2869
693.50 0.2868
693.60 0.2866
693.70 0.2865
693.80 0.2863
693.90 0.2862
694.00 0.286
694.10 0.2858
694.20 0.2857
694.30 0.2855
694.40 0.2854
694.50 0.2852
694.60 0.285
694.70 0.2849
694.80 0.2847
694.90 0.2846
695.00 0.2844
695.10 0.2843
695.20 0.2841
695.30 0.2839
695.40 0.2838
695.50 0.2836
695.60 0.2835
695.70 0.2833
695.80 0.2832
695.90 0.283
696.00 0.2829
696.10 0.2827
696.20 0.2825
696.30 0.2824
696.40 0.2822
696.50 0.2821
696.60 0.2819
696.70 0.2818
696.80 0.2816
696.90 0.2815
697.00 0.2813
697.10 0.2811
697.20 0.281
697.30 0.2808
697.40 0.2807
697.50 0.2805
697.60 0.2804
697.70 0.2802
697.80 0.2801
697.90 0.2799
698.00 0.2798
698.10 0.2796
698.20 0.2794
698.30 0.2793
698.40 0.2791
698.50 0.279
698.60 0.2788
698.70 0.2787
698.80 0.2785
698.90 0.2784
699.00 0.2782
699.10 0.2781
699.20 0.2779
699.30 0.2778
699.40 0.2776
699.50 0.2775
699.60 0.2773
699.70 0.2771
699.80 0.277
699.90 0.2768
700.00 0.2767
700.10 0.2765
700.20 0.2764
700.30 0.2762
700.40 0.2761
700.50 0.2759
700.60 0.2758
700.70 0.2756
700.80 0.2755
700.90 0.2753
701.00 0.2752
701.10 0.275
701.20 0.2749
701.30 0.2747
701.40 0.2746
701.50 0.2744
701.60 0.2743
701.70 0.2741
701.80 0.274
701.90 0.2738
702.00 0.2737
702.10 0.2735
702.20 0.2734
702.30 0.2732
702.40 0.2731
702.50 0.2729
702.60 0.2728
702.70 0.2726
702.80 0.2725
702.90 0.2723
703.00 0.2722
703.10 0.272
703.20 0.2719
703.30 0.2717
703.40 0.2716
703.50 0.2714
703.60 0.2713
703.70 0.2711
703.80 0.271
703.90 0.2708
704.00 0.2707
704.10 0.2705
704.20 0.2704
704.30 0.2702
704.40 0.2701
704.50 0.2699
704.60 0.2698
704.70 0.2696
704.80 0.2695
704.90 0.2693
705.00 0.2692
705.10 0.2691
705.20 0.2689
705.30 0.2688
705.40 0.2686
705.50 0.2685
705.60 0.2683
705.70 0.2682
705.80 0.268
705.90 0.2679
706.00 0.2677
706.10 0.2676
706.20 0.2674
706.30 0.2673
706.40 0.2672
706.50 0.267
706.60 0.2669
706.70 0.2667
706.80 0.2666
706.90 0.2664
707.00 0.2663
707.10 0.2661
707.20 0.266
707.30 0.2658
707.40 0.2657
707.50 0.2656
707.60 0.2654
707.70 0.2653
707.80 0.2651
707.90 0.265
708.00 0.2648
708.10 0.2647
708.20 0.2645
708.30 0.2644
708.40 0.2643
708.50 0.2641
708.60 0.264
708.70 0.2638
708.80 0.2637
708.90 0.2635
709.00 0.2634
709.10 0.2632
709.20 0.2631
709.30 0.263
709.40 0.2628
709.50 0.2627
709.60 0.2625
709.70 0.2624
709.80 0.2622
709.90 0.2621
710.00 0.262
710.10 0.2618
710.20 0.2617
710.30 0.2615
710.40 0.2614
710.50 0.2612
710.60 0.2611
710.70 0.261
710.80 0.2608
710.90 0.2607
711.00 0.2605
711.10 0.2604
711.20 0.2603
711.30 0.2601
711.40 0.26
711.50 0.2598
711.60 0.2597
711.70 0.2595
711.80 0.2594
711.90 0.2593
712.00 0.2591
712.10 0.259
712.20 0.2588
712.30 0.2587
712.40 0.2586
712.50 0.2584
712.60 0.2583
712.70 0.2581
712.80 0.258
712.90 0.2579
713.00 0.2577
713.10 0.2576
713.20 0.2574
713.30 0.2573
713.40 0.2572
713.50 0.257
713.60 0.2569
713.70 0.2567
713.80 0.2566
713.90 0.2565
714.00 0.2563
714.10 0.2562
714.20 0.256
714.30 0.2559
714.40 0.2558
714.50 0.2556
714.60 0.2555
714.70 0.2554
714.80 0.2552
714.90 0.2551
715.00 0.2549
715.10 0.2548
715.20 0.2547
715.30 0.2545
715.40 0.2544
715.50 0.2543
715.60 0.2541
715.70 0.254
715.80 0.2538
715.90 0.2537
716.00 0.2536
716.10 0.2534
716.20 0.2533
716.30 0.2532
716.40 0.253
716.50 0.2529
716.60 0.2527
716.70 0.2526
716.80 0.2525
716.90 0.2523
717.00 0.2522
717.10 0.2521
717.20 0.2519
717.30 0.2518
717.40 0.2517
717.50 0.2515
717.60 0.2514
717.70 0.2513
717.80 0.2511
717.90 0.251
718.00 0.2508
718.10 0.2507
718.20 0.2506
718.30 0.2504
718.40 0.2503
718.50 0.2502
718.60 0.25
718.70 0.2499
718.80 0.2498
718.90 0.2496
719.00 0.2495
719.10 0.2494
719.20 0.2492
719.30 0.2491
719.40 0.249
719.50 0.2488
719.60 0.2487
719.70 0.2486
719.80 0.2484
719.90 0.2483
720.00 0.2482
720.10 0.248
720.20 0.2479
720.30 0.2478
720.40 0.2476
720.50 0.2475
720.60 0.2474
720.70 0.2472
720.80 0.2471
720.90 0.247
721.00 0.2468
721.10 0.2467
721.20 0.2466
721.30 0.2464
721.40 0.2463
721.50 0.2462
721.60 0.246
721.70 0.2459
721.80 0.2458
721.90 0.2456
722.00 0.2455
722.10 0.2454
722.20 0.2452
722.30 0.2451
722.40 0.245
722.50 0.2449
722.60 0.2447
722.70 0.2446
722.80 0.2445
722.90 0.2443
723.00 0.2442
723.10 0.2441
723.20 0.2439
723.30 0.2438
723.40 0.2437
723.50 0.2435
723.60 0.2434
723.70 0.2433
723.80 0.2432
723.90 0.243
724.00 0.2429
724.10 0.2428
724.20 0.2426
724.30 0.2425
724.40 0.2424
724.50 0.2422
724.60 0.2421
724.70 0.242
724.80 0.2419
724.90 0.2417
725.00 0.2416
725.10 0.2415
725.20 0.2413
725.30 0.2412
725.40 0.2411
725.50 0.2409
725.60 0.2408
725.70 0.2407
725.80 0.2406
725.90 0.2404
726.00 0.2403
726.10 0.2402
726.20 0.2401
726.30 0.2399
726.40 0.2398
726.50 0.2397
726.60 0.2395
726.70 0.2394
726.80 0.2393
726.90 0.2392
727.00 0.239
727.10 0.2389
727.20 0.2388
727.30 0.2387
727.40 0.2385
727.50 0.2384
727.60 0.2383
727.70 0.2381
727.80 0.238
727.90 0.2379
728.00 0.2378
728.10 0.2376
728.20 0.2375
728.30 0.2374
728.40 0.2373
728.50 0.2371
728.60 0.237
728.70 0.2369
728.80 0.2368
728.90 0.2366
729.00 0.2365
729.10 0.2364
729.20 0.2362
729.30 0.2361
729.40 0.236
729.50 0.2359
729.60 0.2357
729.70 0.2356
729.80 0.2355
729.90 0.2354
730.00 0.2352
730.10 0.2351
730.20 0.235
730.30 0.2349
730.40 0.2347
730.50 0.2346
730.60 0.2345
730.70 0.2344
730.80 0.2343
730.90 0.2341
731.00 0.234
731.10 0.2339
731.20 0.2338
731.30 0.2336
731.40 0.2335
731.50 0.2334
731.60 0.2333
731.70 0.2331
731.80 0.233
731.90 0.2329
732.00 0.2328
732.10 0.2327
732.20 0.2325
732.30 0.2324
732.40 0.2323
732.50 0.2322
732.60 0.232
732.70 0.2319
732.80 0.2318
732.90 0.2317
733.00 0.2316
733.10 0.2314
733.20 0.2313
733.30 0.2312
733.40 0.2311
733.50 0.2309
733.60 0.2308
733.70 0.2307
733.80 0.2306
733.90 0.2305
734.00 0.2303
734.10 0.2302
734.20 0.2301
734.30 0.23
734.40 0.2299
734.50 0.2297
734.60 0.2296
734.70 0.2295
734.80 0.2294
734.90 0.2292
735.00 0.2291
735.10 0.229
735.20 0.2289
735.30 0.2288
735.40 0.2286
735.50 0.2285
735.60 0.2284
735.70 0.2283
735.80 0.2282
735.90 0.228
736.00 0.2279
736.10 0.2278
736.20 0.2277
736.30 0.2276
736.40 0.2274
736.50 0.2273
736.60 0.2272
736.70 0.2271
736.80 0.227
736.90 0.2268
737.00 0.2267
737.10 0.2266
737.20 0.2265
737.30 0.2264
737.40 0.2262
737.50 0.2261
737.60 0.226
737.70 0.2259
737.80 0.2258
737.90 0.2256
738.00 0.2255
738.10 0.2254
738.20 0.2253
738.30 0.2252
738.40 0.225
738.50 0.2249
738.60 0.2248
738.70 0.2247
738.80 0.2246
738.90 0.2245
739.00 0.2243
739.10 0.2242
739.20 0.2241
739.30 0.224
739.40 0.2239
739.50 0.2237
739.60 0.2236
739.70 0.2235
739.80 0.2234
739.90 0.2233
740.00 0.2232
740.10 0.223
740.20 0.2229
740.30 0.2228
740.40 0.2227
740.50 0.2226
740.60 0.2225
740.70 0.2223
740.80 0.2222
740.90 0.2221
741.00 0.222
741.10 0.2219
741.20 0.2218
741.30 0.2217
741.40 0.2215
741.50 0.2214
741.60 0.2213
741.70 0.2212
741.80 0.2211
741.90 0.221
742.00 0.2208
742.10 0.2207
742.20 0.2206
742.30 0.2205
742.40 0.2204
742.50 0.2203
742.60 0.2202
742.70 0.22
742.80 0.2199
742.90 0.2198
743.00 0.2197
743.10 0.2196
743.20 0.2195
743.30 0.2194
743.40 0.2192
743.50 0.2191
743.60 0.219
743.70 0.2189
743.80 0.2188
743.90 0.2187
744.00 0.2186
744.10 0.2184
744.20 0.2183
744.30 0.2182
744.40 0.2181
744.50 0.218
744.60 0.2179
744.70 0.2178
744.80 0.2177
744.90 0.2175
745.00 0.2174
745.10 0.2173
745.20 0.2172
745.30 0.2171
745.40 0.217
745.50 0.2169
745.60 0.2167
745.70 0.2166
745.80 0.2165
745.90 0.2164
746.00 0.2163
746.10 0.2162
746.20 0.2161
746.30 0.216
746.40 0.2158
746.50 0.2157
746.60 0.2156
746.70 0.2155
746.80 0.2154
746.90 0.2153
747.00 0.2152
747.10 0.2151
747.20 0.2149
747.30 0.2148
747.40 0.2147
747.50 0.2146
747.60 0.2145
747.70 0.2144
747.80 0.2143
747.90 0.2142
748.00 0.2141
748.10 0.2139
748.20 0.2138
748.30 0.2137
748.40 0.2136
748.50 0.2135
748.60 0.2134
748.70 0.2133
748.80 0.2132
748.90 0.213
749.00 0.2129
749.10 0.2128
749.20 0.2127
749.30 0.2126
749.40 0.2125
749.50 0.2124
749.60 0.2123
749.70 0.2122
749.80 0.2121
749.90 0.2119
750.00 0.2118
750.10 0.2117
750.20 0.2116
750.30 0.2115
750.40 0.2114
750.50 0.2113
750.60 0.2112
750.70 0.2111
750.80 0.211
750.90 0.2109
751.00 0.2107
751.10 0.2106
751.20 0.2105
751.30 0.2104
751.40 0.2103
751.50 0.2102
751.60 0.2101
751.70 0.21
751.80 0.2099
751.90 0.2098
752.00 0.2097
752.10 0.2096
752.20 0.2095
752.30 0.2093
752.40 0.2092
752.50 0.2091
752.60 0.209
752.70 0.2089
752.80 0.2088
752.90 0.2087
753.00 0.2086
753.10 0.2085
753.20 0.2084
753.30 0.2083
753.40 0.2082
753.50 0.2081
753.60 0.208
753.70 0.2078
753.80 0.2077
753.90 0.2076
754.00 0.2075
754.10 0.2074
754.20 0.2073
754.30 0.2072
754.40 0.2071
754.50 0.207
754.60 0.2069
754.70 0.2068
754.80 0.2067
754.90 0.2066
755.00 0.2065
755.10 0.2064
755.20 0.2062
755.30 0.2061
755.40 0.206
755.50 0.2059
755.60 0.2058
755.70 0.2057
755.80 0.2056
755.90 0.2055
756.00 0.2054
756.10 0.2053
756.20 0.2052
756.30 0.2051
756.40 0.205
756.50 0.2049
756.60 0.2048
756.70 0.2047
756.80 0.2046
756.90 0.2045
757.00 0.2043
757.10 0.2042
757.20 0.2041
757.30 0.204
757.40 0.2039
757.50 0.2038
757.60 0.2037
757.70 0.2036
757.80 0.2035
757.90 0.2034
758.00 0.2033
758.10 0.2032
758.20 0.2031
758.30 0.203
758.40 0.2029
758.50 0.2028
758.60 0.2027
758.70 0.2026
758.80 0.2025
758.90 0.2024
759.00 0.2023
759.10 0.2021
759.20 0.202
759.30 0.2019
759.40 0.2018
759.50 0.2017
759.60 0.2016
759.70 0.2015
759.80 0.2014
759.90 0.2013
760.00 0.2012
760.10 0.2011
760.20 0.201
760.30 0.2009
760.40 0.2008
760.50 0.2007
760.60 0.2006
760.70 0.2005
760.80 0.2004
760.90 0.2003
761.00 0.2002
761.10 0.2001
761.20 0.2
761.30 0.1999
761.40 0.1998
761.50 0.1997
761.60 0.1996
761.70 0.1995
761.80 0.1994
761.90 0.1993
762.00 0.1992
762.10 0.1991
762.20 0.199
762.30 0.1989
762.40 0.1988
762.50 0.1987
762.60 0.1986
762.70 0.1985
762.80 0.1984
762.90 0.1983
763.00 0.1982
763.10 0.1981
763.20 0.198
763.30 0.1979
763.40 0.1978
763.50 0.1977
763.60 0.1976
763.70 0.1975
763.80 0.1974
763.90 0.1973
764.00 0.1972
764.10 0.1971
764.20 0.197
764.30 0.1969
764.40 0.1968
764.50 0.1967
764.60 0.1966
764.70 0.1965
764.80 0.1964
764.90 0.1963
765.00 0.1962
765.10 0.1961
765.20 0.196
765.30 0.1959
765.40 0.1958
765.50 0.1957
765.60 0.1956
765.70 0.1955
765.80 0.1954
765.90 0.1953
766.00 0.1952
766.10 0.1951
766.20 0.195
766.30 0.1949
766.40 0.1948
766.50 0.1947
766.60 0.1946
766.70 0.1945
766.80 0.1944
766.90 0.1943
767.00 0.1942
767.10 0.1941
767.20 0.194
767.30 0.1939
767.40 0.1938
767.50 0.1937
767.60 0.1936
767.70 0.1935
767.80 0.1934
767.90 0.1933
768.00 0.1932
768.10 0.1931
768.20 0.193
768.30 0.1929
768.40 0.1928
768.50 0.1927
768.60 0.1926
768.70 0.1925
768.80 0.1924
768.90 0.1923
769.00 0.1922
769.10 0.1921
769.20 0.192
769.30 0.1919
769.40 0.1918
769.50 0.1917
769.60 0.1916
769.70 0.1915
769.80 0.1915
769.90 0.1914
770.00 0.1913
770.10 0.1912
770.20 0.1911
770.30 0.191
770.40 0.1909
770.50 0.1908
770.60 0.1907
770.70 0.1906
770.80 0.1905
770.90 0.1904
771.00 0.1903
771.10 0.1902
771.20 0.1901
771.30 0.19
771.40 0.1899
771.50 0.1898
771.60 0.1897
771.70 0.1896
771.80 0.1895
771.90 0.1894
772.00 0.1894
772.10 0.1893
772.20 0.1892
772.30 0.1891
772.40 0.189
772.50 0.1889
772.60 0.1888
772.70 0.1887
772.80 0.1886
772.90 0.1885
773.00 0.1884
773.10 0.1883
773.20 0.1882
773.30 0.1881
773.40 0.188
773.50 0.1879
773.60 0.1878
773.70 0.1877
773.80 0.1877
773.90 0.1876
774.00 0.1875
774.10 0.1874
774.20 0.1873
774.30 0.1872
774.40 0.1871
774.50 0.187
774.60 0.1869
774.70 0.1868
774.80 0.1867
774.90 0.1866
775.00 0.1865
775.10 0.1864
775.20 0.1863
775.30 0.1862
775.40 0.1862
775.50 0.1861
775.60 0.186
775.70 0.1859
775.80 0.1858
775.90 0.1857
776.00 0.1856
776.10 0.1855
776.20 0.1854
776.30 0.1853
776.40 0.1852
776.50 0.1851
776.60 0.185
776.70 0.1849
776.80 0.1849
776.90 0.1848
777.00 0.1847
777.10 0.1846
777.20 0.1845
777.30 0.1844
777.40 0.1843
777.50 0.1842
777.60 0.1841
777.70 0.184
777.80 0.1839
777.90 0.1838
778.00 0.1837
778.10 0.1836
778.20 0.1836
778.30 0.1835
778.40 0.1834
778.50 0.1833
778.60 0.1832
778.70 0.1831
778.80 0.183
778.90 0.1829
779.00 0.1828
779.10 0.1827
779.20 0.1826
779.30 0.1825
779.40 0.1825
779.50 0.1824
779.60 0.1823
779.70 0.1822
779.80 0.1821
779.90 0.182
780.00 0.1819
780.10 0.1818
780.20 0.1817
780.30 0.1816
780.40 0.1815
780.50 0.1815
780.60 0.1814
780.70 0.1813
780.80 0.1812
780.90 0.1811
781.00 0.181
781.10 0.1809
781.20 0.1808
781.30 0.1807
781.40 0.1807
781.50 0.1806
781.60 0.1805
781.70 0.1804
781.80 0.1803
781.90 0.1802
782.00 0.1801
782.10 0.18
782.20 0.1799
782.30 0.1798
782.40 0.1798
782.50 0.1797
782.60 0.1796
782.70 0.1795
782.80 0.1794
782.90 0.1793
783.00 0.1792
783.10 0.1791
783.20 0.1791
783.30 0.179
783.40 0.1789
783.50 0.1788
783.60 0.1787
783.70 0.1786
783.80 0.1785
783.90 0.1784
784.00 0.1783
784.10 0.1783
784.20 0.1782
784.30 0.1781
784.40 0.178
784.50 0.1779
784.60 0.1778
784.70 0.1777
784.80 0.1776
784.90 0.1776
785.00 0.1775
785.10 0.1774
785.20 0.1773
785.30 0.1772
785.40 0.1771
785.50 0.177
785.60 0.1769
785.70 0.1768
785.80 0.1768
785.90 0.1767
786.00 0.1766
786.10 0.1765
786.20 0.1764
786.30 0.1763
786.40 0.1762
786.50 0.1761
786.60 0.1761
786.70 0.176
786.80 0.1759
786.90 0.1758
787.00 0.1757
787.10 0.1756
787.20 0.1755
787.30 0.1755
787.40 0.1754
787.50 0.1753
787.60 0.1752
787.70 0.1751
787.80 0.175
787.90 0.1749
788.00 0.1748
788.10 0.1748
788.20 0.1747
788.30 0.1746
788.40 0.1745
788.50 0.1744
788.60 0.1743
788.70 0.1742
788.80 0.1742
788.90 0.1741
789.00 0.174
789.10 0.1739
789.20 0.1738
789.30 0.1737
789.40 0.1736
789.50 0.1735
789.60 0.1735
789.70 0.1734
789.80 0.1733
789.90 0.1732
790.00 0.1731
790.10 0.173
790.20 0.1729
790.30 0.1729
790.40 0.1728
790.50 0.1727
790.60 0.1726
790.70 0.1725
790.80 0.1724
790.90 0.1724
791.00 0.1723
791.10 0.1722
791.20 0.1721
791.30 0.172
791.40 0.1719
791.50 0.1719
791.60 0.1718
791.70 0.1717
791.80 0.1716
791.90 0.1715
792.00 0.1714
792.10 0.1714
792.20 0.1713
792.30 0.1712
792.40 0.1711
792.50 0.171
792.60 0.1709
792.70 0.1709
792.80 0.1708
792.90 0.1707
793.00 0.1706
793.10 0.1705
793.20 0.1704
793.30 0.1704
793.40 0.1703
793.50 0.1702
793.60 0.1701
793.70 0.17
793.80 0.1699
793.90 0.1699
794.00 0.1698
794.10 0.1697
794.20 0.1696
794.30 0.1695
794.40 0.1694
794.50 0.1694
794.60 0.1693
794.70 0.1692
794.80 0.1691
794.90 0.169
795.00 0.1689
795.10 0.1689
795.20 0.1688
795.30 0.1687
795.40 0.1686
795.50 0.1685
795.60 0.1684
795.70 0.1684
795.80 0.1683
795.90 0.1682
796.00 0.1681
796.10 0.168
796.20 0.168
796.30 0.1679
796.40 0.1678
796.50 0.1677
796.60 0.1676
796.70 0.1675
796.80 0.1675
796.90 0.1674
797.00 0.1673
797.10 0.1672
797.20 0.1671
797.30 0.1671
797.40 0.167
797.50 0.1669
797.60 0.1668
797.70 0.1667
797.80 0.1666
797.90 0.1666
798.00 0.1665
798.10 0.1664
798.20 0.1663
798.30 0.1662
798.40 0.1662
798.50 0.1661
798.60 0.166
798.70 0.1659
798.80 0.1658
798.90 0.1657
799.00 0.1657
799.10 0.1656
799.20 0.1655
799.30 0.1654
799.40 0.1653
799.50 0.1653
799.60 0.1652
799.70 0.1651
799.80 0.165
799.90 0.1649
800.00 0.1649
800.10 0.1648
800.20 0.1647
800.30 0.1646
800.40 0.1645
800.50 0.1645
800.60 0.1644
800.70 0.1643
800.80 0.1642
800.90 0.1641
801.00 0.1641
801.10 0.164
801.20 0.1639
801.30 0.1638
801.40 0.1637
801.50 0.1637
801.60 0.1636
801.70 0.1635
801.80 0.1634
801.90 0.1634
802.00 0.1633
802.10 0.1632
802.20 0.1631
802.30 0.163
802.40 0.163
802.50 0.1629
802.60 0.1628
802.70 0.1627
802.80 0.1626
802.90 0.1626
803.00 0.1625
803.10 0.1624
803.20 0.1623
803.30 0.1623
803.40 0.1622
803.50 0.1621
803.60 0.162
803.70 0.1619
803.80 0.1619
803.90 0.1618
804.00 0.1617
804.10 0.1616
804.20 0.1616
804.30 0.1615
804.40 0.1614
804.50 0.1613
804.60 0.1612
804.70 0.1612
804.80 0.1611
804.90 0.161
805.00 0.1609
805.10 0.1608
805.20 0.1608
805.30 0.1607
805.40 0.1606
805.50 0.1605
805.60 0.1605
805.70 0.1604
805.80 0.1603
805.90 0.1602
806.00 0.1602
806.10 0.1601
806.20 0.16
806.30 0.1599
806.40 0.1598
806.50 0.1598
806.60 0.1597
806.70 0.1596
806.80 0.1595
806.90 0.1595
807.00 0.1594
807.10 0.1593
807.20 0.1592
807.30 0.1591
807.40 0.1591
807.50 0.159
807.60 0.1589
807.70 0.1588
807.80 0.1588
807.90 0.1587
808.00 0.1586
808.10 0.1585
808.20 0.1585
808.30 0.1584
808.40 0.1583
808.50 0.1582
808.60 0.1582
808.70 0.1581
808.80 0.158
808.90 0.1579
809.00 0.1578
809.10 0.1578
809.20 0.1577
809.30 0.1576
809.40 0.1575
809.50 0.1575
809.60 0.1574
809.70 0.1573
809.80 0.1572
809.90 0.1572
810.00 0.1571
810.10 0.157
810.20 0.1569
810.30 0.1569
810.40 0.1568
810.50 0.1567
810.60 0.1566
810.70 0.1566
810.80 0.1565
810.90 0.1564
811.00 0.1563
811.10 0.1563
811.20 0.1562
811.30 0.1561
811.40 0.156
811.50 0.156
811.60 0.1559
811.70 0.1558
811.80 0.1557
811.90 0.1557
812.00 0.1556
812.10 0.1555
812.20 0.1554
812.30 0.1554
812.40 0.1553
812.50 0.1552
812.60 0.1551
812.70 0.1551
812.80 0.155
812.90 0.1549
813.00 0.1549
813.10 0.1548
813.20 0.1547
813.30 0.1546
813.40 0.1546
813.50 0.1545
813.60 0.1544
813.70 0.1543
813.80 0.1543
813.90 0.1542
814.00 0.1541
814.10 0.154
814.20 0.154
814.30 0.1539
814.40 0.1538
814.50 0.1537
814.60 0.1537
814.70 0.1536
814.80 0.1535
814.90 0.1535
815.00 0.1534
815.10 0.1533
815.20 0.1532
815.30 0.1532
815.40 0.1531
815.50 0.153
815.60 0.1529
815.70 0.1529
815.80 0.1528
815.90 0.1527
816.00 0.1527
816.10 0.1526
816.20 0.1525
816.30 0.1524
816.40 0.1524
816.50 0.1523
816.60 0.1522
816.70 0.1521
816.80 0.1521
816.90 0.152
817.00 0.1519
817.10 0.1519
817.20 0.1518
817.30 0.1517
817.40 0.1516
817.50 0.1516
817.60 0.1515
817.70 0.1514
817.80 0.1513
817.90 0.1513
818.00 0.1512
818.10 0.1511
818.20 0.1511
818.30 0.151
818.40 0.1509
818.50 0.1508
818.60 0.1508
818.70 0.1507
818.80 0.1506
818.90 0.1506
819.00 0.1505
819.10 0.1504
819.20 0.1503
819.30 0.1503
819.40 0.1502
819.50 0.1501
819.60 0.15
819.70 0.15
819.80 0.1499
819.90 0.1498
820.00 0.1498
820.10 0.1497
820.20 0.1496
820.30 0.1495
820.40 0.1495
820.50 0.1494
820.60 0.1493
820.70 0.1493
820.80 0.1492
820.90 0.1491
821.00 0.1491
821.10 0.149
821.20 0.1489
821.30 0.1488
821.40 0.1488
821.50 0.1487
821.60 0.1486
821.70 0.1486
821.80 0.1485
821.90 0.1484
822.00 0.1484
822.10 0.1483
822.20 0.1482
822.30 0.1481
822.40 0.1481
822.50 0.148
822.60 0.1479
822.70 0.1479
822.80 0.1478
822.90 0.1477
823.00 0.1477
823.10 0.1476
823.20 0.1475
823.30 0.1474
823.40 0.1474
823.50 0.1473
823.60 0.1472
823.70 0.1472
823.80 0.1471
823.90 0.147
824.00 0.147
824.10 0.1469
824.20 0.1468
824.30 0.1467
824.40 0.1467
824.50 0.1466
824.60 0.1465
824.70 0.1465
824.80 0.1464
824.90 0.1463
825.00 0.1463
825.10 0.1462
825.20 0.1461
825.30 0.1461
825.40 0.146
825.50 0.1459
825.60 0.1459
825.70 0.1458
825.80 0.1457
825.90 0.1456
826.00 0.1456
826.10 0.1455
826.20 0.1454
826.30 0.1454
826.40 0.1453
826.50 0.1452
826.60 0.1452
826.70 0.1451
826.80 0.145
826.90 0.145
827.00 0.1449
827.10 0.1448
827.20 0.1448
827.30 0.1447
827.40 0.1446
827.50 0.1446
827.60 0.1445
827.70 0.1444
827.80 0.1443
827.90 0.1443
828.00 0.1442
828.10 0.1441
828.20 0.1441
828.30 0.144
828.40 0.1439
828.50 0.1439
828.60 0.1438
828.70 0.1437
828.80 0.1437
828.90 0.1436
829.00 0.1435
829.10 0.1435
829.20 0.1434
829.30 0.1433
829.40 0.1433
829.50 0.1432
829.60 0.1431
829.70 0.1431
829.80 0.143
829.90 0.1429
830.00 0.1429
830.10 0.1428
830.20 0.1427
830.30 0.1427
830.40 0.1426
830.50 0.1425
830.60 0.1425
830.70 0.1424
830.80 0.1423
830.90 0.1423
831.00 0.1422
831.10 0.1421
831.20 0.1421
831.30 0.142
831.40 0.1419
831.50 0.1419
831.60 0.1418
831.70 0.1417
831.80 0.1417
831.90 0.1416
832.00 0.1415
832.10 0.1415
832.20 0.1414
832.30 0.1413
832.40 0.1413
832.50 0.1412
832.60 0.1411
832.70 0.1411
832.80 0.141
832.90 0.1409
833.00 0.1409
833.10 0.1408
833.20 0.1407
833.30 0.1407
833.40 0.1406
833.50 0.1405
833.60 0.1405
833.70 0.1404
833.80 0.1403
833.90 0.1403
834.00 0.1402
834.10 0.1402
834.20 0.1401
834.30 0.14
834.40 0.14
834.50 0.1399
834.60 0.1398
834.70 0.1398
834.80 0.1397
834.90 0.1396
835.00 0.1396
835.10 0.1395
835.20 0.1394
835.30 0.1394
835.40 0.1393
835.50 0.1392
835.60 0.1392
835.70 0.1391
835.80 0.139
835.90 0.139
836.00 0.1389
836.10 0.1388
836.20 0.1388
836.30 0.1387
836.40 0.1387
836.50 0.1386
836.60 0.1385
836.70 0.1385
836.80 0.1384
836.90 0.1383
837.00 0.1383
837.10 0.1382
837.20 0.1381
837.30 0.1381
837.40 0.138
837.50 0.1379
837.60 0.1379
837.70 0.1378
837.80 0.1378
837.90 0.1377
838.00 0.1376
838.10 0.1376
838.20 0.1375
838.30 0.1374
838.40 0.1374
838.50 0.1373
838.60 0.1372
838.70 0.1372
838.80 0.1371
838.90 0.1371
839.00 0.137
839.10 0.1369
839.20 0.1369
839.30 0.1368
839.40 0.1367
839.50 0.1367
839.60 0.1366
839.70 0.1365
839.80 0.1365
839.90 0.1364
840.00 0.1364
840.10 0.1363
840.20 0.1362
840.30 0.1362
840.40 0.1361
840.50 0.136
840.60 0.136
840.70 0.1359
840.80 0.1358
840.90 0.1358
841.00 0.1357
841.10 0.1357
841.20 0.1356
841.30 0.1355
841.40 0.1355
841.50 0.1354
841.60 0.1353
841.70 0.1353
841.80 0.1352
841.90 0.1352
842.00 0.1351
842.10 0.135
842.20 0.135
842.30 0.1349
842.40 0.1348
842.50 0.1348
842.60 0.1347
842.70 0.1347
842.80 0.1346
842.90 0.1345
843.00 0.1345
843.10 0.1344
843.20 0.1343
843.30 0.1343
843.40 0.1342
843.50 0.1342
843.60 0.1341
843.70 0.134
843.80 0.134
843.90 0.1339
844.00 0.1338
844.10 0.1338
844.20 0.1337
844.30 0.1337
844.40 0.1336
844.50 0.1335
844.60 0.1335
844.70 0.1334
844.80 0.1334
844.90 0.1333
845.00 0.1332
845.10 0.1332
845.20 0.1331
845.30 0.133
845.40 0.133
845.50 0.1329
845.60 0.1329
845.70 0.1328
845.80 0.1327
845.90 0.1327
846.00 0.1326
846.10 0.1326
846.20 0.1325
846.30 0.1324
846.40 0.1324
846.50 0.1323
846.60 0.1322
846.70 0.1322
846.80 0.1321
846.90 0.1321
847.00 0.132
847.10 0.1319
847.20 0.1319
847.30 0.1318
847.40 0.1318
847.50 0.1317
847.60 0.1316
847.70 0.1316
847.80 0.1315
847.90 0.1315
848.00 0.1314
848.10 0.1313
848.20 0.1313
848.30 0.1312
848.40 0.1312
848.50 0.1311
848.60 0.131
848.70 0.131
848.80 0.1309
848.90 0.1308
849.00 0.1308
849.10 0.1307
849.20 0.1307
849.30 0.1306
849.40 0.1305
849.50 0.1305
849.60 0.1304
849.70 0.1304
849.80 0.1303
849.90 0.1302
850.00 0.1302
850.10 0.1301
850.20 0.1301
850.30 0.13
850.40 0.1299
850.50 0.1299
850.60 0.1298
850.70 0.1298
850.80 0.1297
850.90 0.1296
851.00 0.1296
851.10 0.1295
851.20 0.1295
851.30 0.1294
851.40 0.1293
851.50 0.1293
851.60 0.1292
851.70 0.1292
851.80 0.1291
851.90 0.1291
852.00 0.129
852.10 0.1289
852.20 0.1289
852.30 0.1288
852.40 0.1288
852.50 0.1287
852.60 0.1286
852.70 0.1286
852.80 0.1285
852.90 0.1285
853.00 0.1284
853.10 0.1283
853.20 0.1283
853.30 0.1282
853.40 0.1282
853.50 0.1281
853.60 0.1281
853.70 0.128
853.80 0.1279
853.90 0.1279
854.00 0.1278
854.10 0.1278
854.20 0.1277
854.30 0.1276
854.40 0.1276
854.50 0.1275
854.60 0.1275
854.70 0.1274
854.80 0.1273
854.90 0.1273
855.00 0.1272
855.10 0.1272
855.20 0.1271
855.30 0.1271
855.40 0.127
855.50 0.1269
855.60 0.1269
855.70 0.1268
855.80 0.1268
855.90 0.1267
856.00 0.1267
856.10 0.1266
856.20 0.1265
856.30 0.1265
856.40 0.1264
856.50 0.1264
856.60 0.1263
856.70 0.1262
856.80 0.1262
856.90 0.1261
857.00 0.1261
857.10 0.126
857.20 0.126
857.30 0.1259
857.40 0.1258
857.50 0.1258
857.60 0.1257
857.70 0.1257
857.80 0.1256
857.90 0.1256
858.00 0.1255
858.10 0.1254
858.20 0.1254
858.30 0.1253
858.40 0.1253
858.50 0.1252
858.60 0.1252
858.70 0.1251
858.80 0.1251
858.90 0.125
859.00 0.1249
859.10 0.1249
859.20 0.1248
859.30 0.1248
859.40 0.1247
859.50 0.1247
859.60 0.1246
859.70 0.1246
859.80 0.1245
859.90 0.1244
860.00 0.1244
860.10 0.1243
860.20 0.1243
860.30 0.1242
860.40 0.1242
860.50 0.1241
860.60 0.124
860.70 0.124
860.80 0.1239
860.90 0.1239
861.00 0.1238
861.10 0.1238
861.20 0.1237
861.30 0.1237
861.40 0.1236
861.50 0.1235
861.60 0.1235
861.70 0.1234
861.80 0.1234
861.90 0.1233
862.00 0.1233
862.10 0.1232
862.20 0.1232
862.30 0.1231
862.40 0.123
862.50 0.123
862.60 0.1229
862.70 0.1229
862.80 0.1228
862.90 0.1228
863.00 0.1227
863.10 0.1227
863.20 0.1226
863.30 0.1225
863.40 0.1225
863.50 0.1224
863.60 0.1224
863.70 0.1223
863.80 0.1223
863.90 0.1222
864.00 0.1222
864.10 0.1221
864.20 0.122
864.30 0.122
864.40 0.1219
864.50 0.1219
864.60 0.1218
864.70 0.1218
864.80 0.1217
864.90 0.1217
865.00 0.1216
865.10 0.1215
865.20 0.1215
865.30 0.1214
865.40 0.1214
865.50 0.1213
865.60 0.1213
865.70 0.1212
865.80 0.1212
865.90 0.1211
866.00 0.1211
866.10 0.121
866.20 0.1209
866.30 0.1209
866.40 0.1208
866.50 0.1208
866.60 0.1207
866.70 0.1207
866.80 0.1206
866.90 0.1206
867.00 0.1205
867.10 0.1205
867.20 0.1204
867.30 0.1203
867.40 0.1203
867.50 0.1202
867.60 0.1202
867.70 0.1201
867.80 0.1201
867.90 0.12
868.00 0.12
868.10 0.1199
868.20 0.1199
868.30 0.1198
868.40 0.1198
868.50 0.1197
868.60 0.1196
868.70 0.1196
868.80 0.1195
868.90 0.1195
869.00 0.1194
869.10 0.1194
869.20 0.1193
869.30 0.1193
869.40 0.1192
869.50 0.1192
869.60 0.1191
869.70 0.1191
869.80 0.119
869.90 0.1189
870.00 0.1189
870.10 0.1188
870.20 0.1188
870.30 0.1187
870.40 0.1187
870.50 0.1186
870.60 0.1186
870.70 0.1185
870.80 0.1185
870.90 0.1184
871.00 0.1184
871.10 0.1183
871.20 0.1183
871.30 0.1182
871.40 0.1181
871.50 0.1181
871.60 0.118
871.70 0.118
871.80 0.1179
871.90 0.1179
872.00 0.1178
872.10 0.1178
872.20 0.1177
872.30 0.1177
872.40 0.1176
872.50 0.1176
872.60 0.1175
872.70 0.1175
872.80 0.1174
872.90 0.1174
873.00 0.1173
873.10 0.1173
873.20 0.1172
873.30 0.1171
873.40 0.1171
873.50 0.117
873.60 0.117
873.70 0.1169
873.80 0.1169
873.90 0.1168
874.00 0.1168
874.10 0.1167
874.20 0.1167
874.30 0.1166
874.40 0.1166
874.50 0.1165
874.60 0.1165
874.70 0.1164
874.80 0.1164
874.90 0.1163
875.00 0.1163
875.10 0.1162
875.20 0.1162
875.30 0.1161
875.40 0.116
875.50 0.116
875.60 0.1159
875.70 0.1159
875.80 0.1158
875.90 0.1158
876.00 0.1157
876.10 0.1157
876.20 0.1156
876.30 0.1156
876.40 0.1155
876.50 0.1155
876.60 0.1154
876.70 0.1154
876.80 0.1153
876.90 0.1153
877.00 0.1152
877.10 0.1152
877.20 0.1151
877.30 0.1151
877.40 0.115
877.50 0.115
877.60 0.1149
877.70 0.1149
877.80 0.1148
877.90 0.1148
878.00 0.1147
878.10 0.1147
878.20 0.1146
878.30 0.1146
878.40 0.1145
878.50 0.1145
878.60 0.1144
878.70 0.1144
878.80 0.1143
878.90 0.1143
879.00 0.1142
879.10 0.1142
879.20 0.1141
879.30 0.1141
879.40 0.114
879.50 0.1139
879.60 0.1139
879.70 0.1138
879.80 0.1138
879.90 0.1137
880.00 0.1137
880.10 0.1136
880.20 0.1136
880.30 0.1135
880.40 0.1135
880.50 0.1134
880.60 0.1134
880.70 0.1133
880.80 0.1133
880.90 0.1132
881.00 0.1132
881.10 0.1131
881.20 0.1131
881.30 0.113
881.40 0.113
881.50 0.1129
881.60 0.1129
881.70 0.1128
881.80 0.1128
881.90 0.1127
882.00 0.1127
882.10 0.1126
882.20 0.1126
882.30 0.1125
882.40 0.1125
882.50 0.1124
882.60 0.1124
882.70 0.1123
882.80 0.1123
882.90 0.1122
883.00 0.1122
883.10 0.1121
883.20 0.1121
883.30 0.112
883.40 0.112
883.50 0.1119
883.60 0.1119
883.70 0.1118
883.80 0.1118
883.90 0.1117
884.00 0.1117
884.10 0.1116
884.20 0.1116
884.30 0.1116
884.40 0.1115
884.50 0.1115
884.60 0.1114
884.70 0.1114
884.80 0.1113
884.90 0.1113
885.00 0.1112
885.10 0.1112
885.20 0.1111
885.30 0.1111
885.40 0.111
885.50 0.111
885.60 0.1109
885.70 0.1109
885.80 0.1108
885.90 0.1108
886.00 0.1107
886.10 0.1107
886.20 0.1106
886.30 0.1106
886.40 0.1105
886.50 0.1105
886.60 0.1104
886.70 0.1104
886.80 0.1103
886.90 0.1103
887.00 0.1102
887.10 0.1102
887.20 0.1101
887.30 0.1101
887.40 0.11
887.50 0.11
887.60 0.1099
887.70 0.1099
887.80 0.1098
887.90 0.1098
888.00 0.1097
888.10 0.1097
888.20 0.1096
888.30 0.1096
888.40 0.1096
888.50 0.1095
888.60 0.1095
888.70 0.1094
888.80 0.1094
888.90 0.1093
889.00 0.1093
889.10 0.1092
889.20 0.1092
889.30 0.1091
889.40 0.1091
889.50 0.109
889.60 0.109
889.70 0.1089
889.80 0.1089
889.90 0.1088
890.00 0.1088
890.10 0.1087
890.20 0.1087
890.30 0.1086
890.40 0.1086
890.50 0.1085
890.60 0.1085
890.70 0.1085
890.80 0.1084
890.90 0.1084
891.00 0.1083
891.10 0.1083
891.20 0.1082
891.30 0.1082
891.40 0.1081
891.50 0.1081
891.60 0.108
891.70 0.108
891.80 0.1079
891.90 0.1079
892.00 0.1078
892.10 0.1078
892.20 0.1077
892.30 0.1077
892.40 0.1076
892.50 0.1076
892.60 0.1076
892.70 0.1075
892.80 0.1075
892.90 0.1074
893.00 0.1074
893.10 0.1073
893.20 0.1073
893.30 0.1072
893.40 0.1072
893.50 0.1071
893.60 0.1071
893.70 0.107
893.80 0.107
893.90 0.1069
894.00 0.1069
894.10 0.1069
894.20 0.1068
894.30 0.1068
894.40 0.1067
894.50 0.1067
894.60 0.1066
894.70 0.1066
894.80 0.1065
894.90 0.1065
895.00 0.1064
895.10 0.1064
895.20 0.1063
895.30 0.1063
895.40 0.1062
895.50 0.1062
895.60 0.1062
895.70 0.1061
895.80 0.1061
895.90 0.106
896.00 0.106
896.10 0.1059
896.20 0.1059
896.30 0.1058
896.40 0.1058
896.50 0.1057
896.60 0.1057
896.70 0.1056
896.80 0.1056
896.90 0.1056
897.00 0.1055
897.10 0.1055
897.20 0.1054
897.30 0.1054
897.40 0.1053
897.50 0.1053
897.60 0.1052
897.70 0.1052
897.80 0.1051
897.90 0.1051
898.00 0.1051
898.10 0.105
898.20 0.105
898.30 0.1049
898.40 0.1049
898.50 0.1048
898.60 0.1048
898.70 0.1047
898.80 0.1047
898.90 0.1046
899.00 0.1046
899.10 0.1046
899.20 0.1045
899.30 0.1045
899.40 0.1044
899.50 0.1044
899.60 0.1043
899.70 0.1043
899.80 0.1042
899.90 0.1042
900.00 0.1041
900.10 0.1041
900.20 0.1041
900.30 0.104
900.40 0.104
900.50 0.1039
900.60 0.1039
900.70 0.1038
900.80 0.1038
900.90 0.1037
901.00 0.1037
901.10 0.1036
901.20 0.1036
901.30 0.1036
901.40 0.1035
901.50 0.1035
901.60 0.1034
901.70 0.1034
901.80 0.1033
901.90 0.1033
902.00 0.1032
902.10 0.1032
902.20 0.1032
902.30 0.1031
902.40 0.1031
902.50 0.103
902.60 0.103
902.70 0.1029
902.80 0.1029
902.90 0.1028
903.00 0.1028
903.10 0.1028
903.20 0.1027
903.30 0.1027
903.40 0.1026
903.50 0.1026
903.60 0.1025
903.70 0.1025
903.80 0.1024
903.90 0.1024
904.00 0.1024
904.10 0.1023
904.20 0.1023
904.30 0.1022
904.40 0.1022
904.50 0.1021
904.60 0.1021
904.70 0.102
904.80 0.102
904.90 0.102
905.00 0.1019
905.10 0.1019
905.20 0.1018
905.30 0.1018
905.40 0.1017
905.50 0.1017
905.60 0.1017
905.70 0.1016
905.80 0.1016
905.90 0.1015
906.00 0.1015
906.10 0.1014
906.20 0.1014
906.30 0.1013
906.40 0.1013
906.50 0.1013
906.60 0.1012
906.70 0.1012
906.80 0.1011
906.90 0.1011
907.00 0.101
907.10 0.101
907.20 0.101
907.30 0.1009
907.40 0.1009
907.50 0.1008
907.60 0.1008
907.70 0.1007
907.80 0.1007
907.90 0.1007
908.00 0.1006
908.10 0.1006
908.20 0.1005
908.30 0.1005
908.40 0.1004
908.50 0.1004
908.60 0.1004
908.70 0.1003
908.80 0.1003
908.90 0.1002
909.00 0.1002
909.10 0.1001
909.20 0.1001
909.30 0.1001
909.40 0.1
909.50 0.09997
909.60 0.09992
909.70 0.09988
909.80 0.09984
909.90 0.09979
910.00 0.09975
910.10 0.09971
910.20 0.09967
910.30 0.09962
910.40 0.09958
910.50 0.09954
910.60 0.0995
910.70 0.09945
910.80 0.09941
910.90 0.09937
911.00 0.09932
911.10 0.09928
911.20 0.09924
911.30 0.0992
911.40 0.09915
911.50 0.09911
911.60 0.09907
911.70 0.09903
911.80 0.09898
911.90 0.09894
912.00 0.0989
912.10 0.09886
912.20 0.09882
912.30 0.09877
912.40 0.09873
912.50 0.09869
912.60 0.09865
912.70 0.09861
912.80 0.09856
912.90 0.09852
913.00 0.09848
913.10 0.09844
913.20 0.0984
913.30 0.09835
913.40 0.09831
913.50 0.09827
913.60 0.09823
913.70 0.09819
913.80 0.09815
913.90 0.0981
914.00 0.09806
914.10 0.09802
914.20 0.09798
914.30 0.09794
914.40 0.09789
914.50 0.09785
914.60 0.09781
914.70 0.09777
914.80 0.09773
914.90 0.09769
915.00 0.09764
915.10 0.0976
915.20 0.09756
915.30 0.09752
915.40 0.09748
915.50 0.09744
915.60 0.0974
915.70 0.09735
915.80 0.09731
915.90 0.09727
916.00 0.09723
916.10 0.09719
916.20 0.09715
916.30 0.09711
916.40 0.09706
916.50 0.09702
916.60 0.09698
916.70 0.09694
916.80 0.0969
916.90 0.09686
917.00 0.09682
917.10 0.09678
917.20 0.09673
917.30 0.09669
917.40 0.09665
917.50 0.09661
917.60 0.09657
917.70 0.09653
917.80 0.09649
917.90 0.09645
918.00 0.09641
918.10 0.09637
918.20 0.09633
918.30 0.09629
918.40 0.09625
918.50 0.0962
918.60 0.09616
918.70 0.09612
918.80 0.09608
918.90 0.09604
919.00 0.096
919.10 0.09596
919.20 0.09592
919.30 0.09588
919.40 0.09584
919.50 0.0958
919.60 0.09576
919.70 0.09572
919.80 0.09568
919.90 0.09564
920.00 0.0956
920.10 0.09556
920.20 0.09552
920.30 0.09547
920.40 0.09543
920.50 0.09539
920.60 0.09535
920.70 0.09531
920.80 0.09527
920.90 0.09523
921.00 0.09519
921.10 0.09515
921.20 0.09511
921.30 0.09507
921.40 0.09503
921.50 0.09499
921.60 0.09495
921.70 0.09491
921.80 0.09487
921.90 0.09483
922.00 0.09479
922.10 0.09475
922.20 0.09471
922.30 0.09467
922.40 0.09463
922.50 0.09459
922.60 0.09455
922.70 0.09451
922.80 0.09447
922.90 0.09443
923.00 0.09439
923.10 0.09435
923.20 0.09431
923.30 0.09427
923.40 0.09423
923.50 0.09419
923.60 0.09415
923.70 0.09412
923.80 0.09408
923.90 0.09404
924.00 0.094
924.10 0.09396
924.20 0.09392
924.30 0.09388
924.40 0.09384
924.50 0.0938
924.60 0.09376
924.70 0.09372
924.80 0.09368
924.90 0.09364
925.00 0.0936
925.10 0.09356
925.20 0.09352
925.30 0.09348
925.40 0.09344
925.50 0.0934
925.60 0.09337
925.70 0.09333
925.80 0.09329
925.90 0.09325
926.00 0.09321
926.10 0.09317
926.20 0.09313
926.30 0.09309
926.40 0.09305
926.50 0.09301
926.60 0.09297
926.70 0.09293
926.80 0.09289
926.90 0.09286
927.00 0.09282
927.10 0.09278
927.20 0.09274
927.30 0.0927
927.40 0.09266
927.50 0.09262
927.60 0.09258
927.70 0.09255
927.80 0.09251
927.90 0.09247
928.00 0.09243
928.10 0.09239
928.20 0.09235
928.30 0.09231
928.40 0.09227
928.50 0.09224
928.60 0.0922
928.70 0.09216
928.80 0.09212
928.90 0.09208
929.00 0.09204
929.10 0.092
929.20 0.09197
929.30 0.09193
929.40 0.09189
929.50 0.09185
929.60 0.09181
929.70 0.09177
929.80 0.09174
929.90 0.0917
930.00 0.09166
930.10 0.09162
930.20 0.09158
930.30 0.09154
930.40 0.09151
930.50 0.09147
930.60 0.09143
930.70 0.09139
930.80 0.09135
930.90 0.09131
931.00 0.09128
931.10 0.09124
931.20 0.0912
931.30 0.09116
931.40 0.09112
931.50 0.09109
931.60 0.09105
931.70 0.09101
931.80 0.09097
931.90 0.09093
932.00 0.0909
932.10 0.09086
932.20 0.09082
932.30 0.09078
932.40 0.09074
932.50 0.09071
932.60 0.09067
932.70 0.09063
932.80 0.09059
932.90 0.09055
933.00 0.09052
933.10 0.09048
933.20 0.09044
933.30 0.0904
933.40 0.09037
933.50 0.09033
933.60 0.09029
933.70 0.09025
933.80 0.09022
933.90 0.09018
934.00 0.09014
934.10 0.0901
934.20 0.09007
934.30 0.09003
934.40 0.08999
934.50 0.08995
934.60 0.08992
934.70 0.08988
934.80 0.08984
934.90 0.0898
935.00 0.08977
935.10 0.08973
935.20 0.08969
935.30 0.08965
935.40 0.08962
935.50 0.08958
935.60 0.08954
935.70 0.08951
935.80 0.08947
935.90 0.08943
936.00 0.08939
936.10 0.08936
936.20 0.08932
936.30 0.08928
936.40 0.08925
936.50 0.08921
936.60 0.08917
936.70 0.08913
936.80 0.0891
936.90 0.08906
937.00 0.08902
937.10 0.08899
937.20 0.08895
937.30 0.08891
937.40 0.08887
937.50 0.08884
937.60 0.0888
937.70 0.08876
937.80 0.08873
937.90 0.08869
938.00 0.08865
938.10 0.08862
938.20 0.08858
938.30 0.08854
938.40 0.08851
938.50 0.08847
938.60 0.08843
938.70 0.0884
938.80 0.08836
938.90 0.08832
939.00 0.08829
939.10 0.08825
939.20 0.08821
939.30 0.08818
939.40 0.08814
939.50 0.0881
939.60 0.08807
939.70 0.08803
939.80 0.08799
939.90 0.08796
940.00 0.08792
940.10 0.08789
940.20 0.08785
940.30 0.08781
940.40 0.08778
940.50 0.08774
940.60 0.0877
940.70 0.08767
940.80 0.08763
940.90 0.08759
941.00 0.08756
941.10 0.08752
941.20 0.08749
941.30 0.08745
941.40 0.08741
941.50 0.08738
941.60 0.08734
941.70 0.0873
941.80 0.08727
941.90 0.08723
942.00 0.0872
942.10 0.08716
942.20 0.08712
942.30 0.08709
942.40 0.08705
942.50 0.08702
942.60 0.08698
942.70 0.08694
942.80 0.08691
942.90 0.08687
943.00 0.08684
943.10 0.0868
943.20 0.08677
943.30 0.08673
943.40 0.08669
943.50 0.08666
943.60 0.08662
943.70 0.08659
943.80 0.08655
943.90 0.08652
944.00 0.08648
944.10 0.08644
944.20 0.08641
944.30 0.08637
944.40 0.08634
944.50 0.0863
944.60 0.08627
944.70 0.08623
944.80 0.08619
944.90 0.08616
945.00 0.08612
945.10 0.08609
945.20 0.08605
945.30 0.08602
945.40 0.08598
945.50 0.08595
945.60 0.08591
945.70 0.08587
945.80 0.08584
945.90 0.0858
946.00 0.08577
946.10 0.08573
946.20 0.0857
946.30 0.08566
946.40 0.08563
946.50 0.08559
946.60 0.08556
946.70 0.08552
946.80 0.08549
946.90 0.08545
947.00 0.08542
947.10 0.08538
947.20 0.08535
947.30 0.08531
947.40 0.08528
947.50 0.08524
947.60 0.08521
947.70 0.08517
947.80 0.08514
947.90 0.0851
948.00 0.08507
948.10 0.08503
948.20 0.085
948.30 0.08496
948.40 0.08493
948.50 0.08489
948.60 0.08486
948.70 0.08482
948.80 0.08479
948.90 0.08475
949.00 0.08472
949.10 0.08468
949.20 0.08465
949.30 0.08461
949.40 0.08458
949.50 0.08454
949.60 0.08451
949.70 0.08447
949.80 0.08444
949.90 0.08441
950.00 0.08437
950.10 0.08434
950.20 0.0843
950.30 0.08427
950.40 0.08423
950.50 0.0842
950.60 0.08416
950.70 0.08413
950.80 0.0841
950.90 0.08406
951.00 0.08403
951.10 0.08399
951.20 0.08396
951.30 0.08392
951.40 0.08389
951.50 0.08386
951.60 0.08382
951.70 0.08379
951.80 0.08375
951.90 0.08372
952.00 0.08368
952.10 0.08365
952.20 0.08362
952.30 0.08358
952.40 0.08355
952.50 0.08351
952.60 0.08348
952.70 0.08345
952.80 0.08341
952.90 0.08338
953.00 0.08334
953.10 0.08331
953.20 0.08328
953.30 0.08324
953.40 0.08321
953.50 0.08318
953.60 0.08314
953.70 0.08311
953.80 0.08307
953.90 0.08304
954.00 0.08301
954.10 0.08297
954.20 0.08294
954.30 0.08291
954.40 0.08287
954.50 0.08284
954.60 0.08281
954.70 0.08277
954.80 0.08274
954.90 0.0827
955.00 0.08267
955.10 0.08264
955.20 0.0826
955.30 0.08257
955.40 0.08254
955.50 0.0825
955.60 0.08247
955.70 0.08244
955.80 0.0824
955.90 0.08237
956.00 0.08234
956.10 0.0823
956.20 0.08227
956.30 0.08224
956.40 0.0822
956.50 0.08217
956.60 0.08214
956.70 0.0821
956.80 0.08207
956.90 0.08204
957.00 0.082
957.10 0.08197
957.20 0.08194
957.30 0.0819
957.40 0.08187
957.50 0.08184
957.60 0.0818
957.70 0.08177
957.80 0.08174
957.90 0.0817
958.00 0.08167
958.10 0.08164
958.20 0.08161
958.30 0.08157
958.40 0.08154
958.50 0.08151
958.60 0.08147
958.70 0.08144
958.80 0.08141
958.90 0.08137
959.00 0.08134
959.10 0.08131
959.20 0.08128
959.30 0.08124
959.40 0.08121
959.50 0.08118
959.60 0.08115
959.70 0.08111
959.80 0.08108
959.90 0.08105
960.00 0.08101
960.10 0.08098
960.20 0.08095
960.30 0.08092
960.40 0.08088
960.50 0.08085
960.60 0.08082
960.70 0.08079
960.80 0.08075
960.90 0.08072
961.00 0.08069
961.10 0.08066
961.20 0.08062
961.30 0.08059
961.40 0.08056
961.50 0.08053
961.60 0.0805
961.70 0.08046
961.80 0.08043
961.90 0.0804
962.00 0.08037
962.10 0.08033
962.20 0.0803
962.30 0.08027
962.40 0.08024
962.50 0.0802
962.60 0.08017
962.70 0.08014
962.80 0.08011
962.90 0.08008
963.00 0.08004
963.10 0.08001
963.20 0.07998
963.30 0.07995
963.40 0.07992
963.50 0.07988
963.60 0.07985
963.70 0.07982
963.80 0.07979
963.90 0.07976
964.00 0.07972
964.10 0.07969
964.20 0.07966
964.30 0.07963
964.40 0.0796
964.50 0.07956
964.60 0.07953
964.70 0.0795
964.80 0.07947
964.90 0.07944
965.00 0.0794
965.10 0.07937
965.20 0.07934
965.30 0.07931
965.40 0.07928
965.50 0.07925
965.60 0.07921
965.70 0.07918
965.80 0.07915
965.90 0.07912
966.00 0.07909
966.10 0.07905
966.20 0.07902
966.30 0.07899
966.40 0.07896
966.50 0.07893
966.60 0.0789
966.70 0.07887
966.80 0.07883
966.90 0.0788
967.00 0.07877
967.10 0.07874
967.20 0.07871
967.30 0.07868
967.40 0.07864
967.50 0.07861
967.60 0.07858
967.70 0.07855
967.80 0.07852
967.90 0.07849
968.00 0.07846
968.10 0.07842
968.20 0.07839
968.30 0.07836
968.40 0.07833
968.50 0.0783
968.60 0.07827
968.70 0.07824
968.80 0.0782
968.90 0.07817
969.00 0.07814
969.10 0.07811
969.20 0.07808
969.30 0.07805
969.40 0.07802
969.50 0.07799
969.60 0.07795
969.70 0.07792
969.80 0.07789
969.90 0.07786
970.00 0.07783
970.10 0.0778
970.20 0.07777
970.30 0.07774
970.40 0.07771
970.50 0.07767
970.60 0.07764
970.70 0.07761
970.80 0.07758
970.90 0.07755
971.00 0.07752
971.10 0.07749
971.20 0.07746
971.30 0.07743
971.40 0.07739
971.50 0.07736
971.60 0.07733
971.70 0.0773
971.80 0.07727
971.90 0.07724
972.00 0.07721
972.10 0.07718
972.20 0.07715
972.30 0.07712
972.40 0.07709
972.50 0.07705
972.60 0.07702
972.70 0.07699
972.80 0.07696
972.90 0.07693
973.00 0.0769
973.10 0.07687
973.20 0.07684
973.30 0.07681
973.40 0.07678
973.50 0.07675
973.60 0.07672
973.70 0.07669
973.80 0.07665
973.90 0.07662
974.00 0.07659
974.10 0.07656
974.20 0.07653
974.30 0.0765
974.40 0.07647
974.50 0.07644
974.60 0.07641
974.70 0.07638
974.80 0.07635
974.90 0.07632
975.00 0.07629
975.10 0.07626
975.20 0.07623
975.30 0.0762
975.40 0.07616
975.50 0.07613
975.60 0.0761
975.70 0.07607
975.80 0.07604
975.90 0.07601
976.00 0.07598
976.10 0.07595
976.20 0.07592
976.30 0.07589
976.40 0.07586
976.50 0.07583
976.60 0.0758
976.70 0.07577
976.80 0.07574
976.90 0.07571
977.00 0.07568
977.10 0.07565
977.20 0.07562
977.30 0.07559
977.40 0.07556
977.50 0.07553
977.60 0.0755
977.70 0.07547
977.80 0.07544
977.90 0.07541
978.00 0.07538
978.10 0.07535
978.20 0.07532
978.30 0.07528
978.40 0.07525
978.50 0.07522
978.60 0.07519
978.70 0.07516
978.80 0.07513
978.90 0.0751
979.00 0.07507
979.10 0.07504
979.20 0.07501
979.30 0.07498
979.40 0.07495
979.50 0.07492
979.60 0.07489
979.70 0.07486
979.80 0.07483
979.90 0.0748
980.00 0.07477
980.10 0.07474
980.20 0.07471
980.30 0.07468
980.40 0.07465
980.50 0.07462
980.60 0.07459
980.70 0.07456
980.80 0.07453
980.90 0.0745
981.00 0.07447
981.10 0.07444
981.20 0.07441
981.30 0.07438
981.40 0.07435
981.50 0.07432
981.60 0.07429
981.70 0.07427
981.80 0.07424
981.90 0.07421
982.00 0.07418
982.10 0.07415
982.20 0.07412
982.30 0.07409
982.40 0.07406
982.50 0.07403
982.60 0.074
982.70 0.07397
982.80 0.07394
982.90 0.07391
983.00 0.07388
983.10 0.07385
983.20 0.07382
983.30 0.07379
983.40 0.07376
983.50 0.07373
983.60 0.0737
983.70 0.07367
983.80 0.07364
983.90 0.07361
984.00 0.07358
984.10 0.07355
984.20 0.07352
984.30 0.07349
984.40 0.07346
984.50 0.07344
984.60 0.07341
984.70 0.07338
984.80 0.07335
984.90 0.07332
985.00 0.07329
985.10 0.07326
985.20 0.07323
985.30 0.0732
985.40 0.07317
985.50 0.07314
985.60 0.07311
985.70 0.07308
985.80 0.07305
985.90 0.07302
986.00 0.07299
986.10 0.07296
986.20 0.07294
986.30 0.07291
986.40 0.07288
986.50 0.07285
986.60 0.07282
986.70 0.07279
986.80 0.07276
986.90 0.07273
987.00 0.0727
987.10 0.07267
987.20 0.07264
987.30 0.07261
987.40 0.07258
987.50 0.07256
987.60 0.07253
987.70 0.0725
987.80 0.07247
987.90 0.07244
988.00 0.07241
988.10 0.07238
988.20 0.07235
988.30 0.07232
988.40 0.07229
988.50 0.07226
988.60 0.07224
988.70 0.07221
988.80 0.07218
988.90 0.07215
989.00 0.07212
989.10 0.07209
989.20 0.07206
989.30 0.07203
989.40 0.072
989.50 0.07197
989.60 0.07194
989.70 0.07192
989.80 0.07189
989.90 0.07186
990.00 0.07183
990.10 0.0718
990.20 0.07177
990.30 0.07174
990.40 0.07171
990.50 0.07168
990.60 0.07166
990.70 0.07163
990.80 0.0716
990.90 0.07157
991.00 0.07154
991.10 0.07151
991.20 0.07148
991.30 0.07145
991.40 0.07143
991.50 0.0714
991.60 0.07137
991.70 0.07134
991.80 0.07131
991.90 0.07128
992.00 0.07125
992.10 0.07122
992.20 0.0712
992.30 0.07117
992.40 0.07114
992.50 0.07111
992.60 0.07108
992.70 0.07105
992.80 0.07102
992.90 0.071
993.00 0.07097
993.10 0.07094
993.20 0.07091
993.30 0.07088
993.40 0.07085
993.50 0.07083
993.60 0.0708
993.70 0.07077
993.80 0.07074
993.90 0.07071
994.00 0.07068
994.10 0.07065
994.20 0.07063
994.30 0.0706
994.40 0.07057
994.50 0.07054
994.60 0.07051
994.70 0.07048
994.80 0.07046
994.90 0.07043
995.00 0.0704
995.10 0.07037
995.20 0.07034
995.30 0.07031
995.40 0.07029
995.50 0.07026
995.60 0.07023
995.70 0.0702
995.80 0.07017
995.90 0.07015
996.00 0.07012
996.10 0.07009
996.20 0.07006
996.30 0.07003
996.40 0.07001
996.50 0.06998
996.60 0.06995
996.70 0.06992
996.80 0.06989
996.90 0.06987
997.00 0.06984
997.10 0.06981
997.20 0.06978
997.30 0.06975
997.40 0.06973
997.50 0.0697
997.60 0.06967
997.70 0.06964
997.80 0.06961
997.90 0.06959
998.00 0.06956
998.10 0.06953
998.20 0.0695
998.30 0.06948
998.40 0.06945
998.50 0.06942
998.60 0.06939
998.70 0.06937
998.80 0.06934
998.90 0.06931
999.00 0.06928
999.10 0.06926
999.20 0.06923
999.30 0.0692
999.40 0.06917
999.50 0.06915
999.60 0.06912
999.70 0.06909
999.80 0.06906
999.90 0.06903
1000.00 0.069
1000.10 0.06897
1000.20 0.06895
1000.30 0.06892
1000.40 0.06889
1000.50 0.06886
1000.60 0.06883
1000.70 0.0688
1000.80 0.06877
1000.90 0.06874
1001.00 0.06872
1001.10 0.06869
1001.20 0.06866
1001.30 0.06863
1001.40 0.0686
1001.50 0.06857
1001.60 0.06854
1001.70 0.06852
1001.80 0.06849
1001.90 0.06846
1002.00 0.06844
1002.10 0.06841
1002.20 0.06839
1002.30 0.06836
1002.40 0.06833
1002.50 0.06831
1002.60 0.06828
1002.70 0.06825
1002.80 0.06823
1002.90 0.0682
1003.00 0.06818
1003.10 0.06815
1003.20 0.06812
1003.30 0.0681
1003.40 0.06807
1003.50 0.06805
1003.60 0.06802
1003.70 0.068
1003.80 0.06797
1003.90 0.06795
1004.00 0.06792
1004.10 0.06789
1004.20 0.06787
1004.30 0.06784
1004.40 0.06782
1004.50 0.06779
1004.60 0.06777
1004.70 0.06774
1004.80 0.06772
1004.90 0.06769
1005.00 0.06766
1005.10 0.06764
1005.20 0.06761
1005.30 0.06758
1005.40 0.06756
1005.50 0.06753
1005.60 0.06751
1005.70 0.06748
1005.80 0.06745
1005.90 0.06743
1006.00 0.0674
1006.10 0.06737
1006.20 0.06735
1006.30 0.06732
1006.40 0.06729
1006.50 0.06727
1006.60 0.06724
1006.70 0.06721
1006.80 0.06719
1006.90 0.06716
1007.00 0.06714
1007.10 0.06711
1007.20 0.06708
1007.30 0.06706
1007.40 0.06703
1007.50 0.06701
1007.60 0.06698
1007.70 0.06695
1007.80 0.06693
1007.90 0.0669
1008.00 0.06688
1008.10 0.06685
1008.20 0.06683
1008.30 0.0668
1008.40 0.06678
1008.50 0.06675
1008.60 0.06673
1008.70 0.0667
1008.80 0.06668
1008.90 0.06665
1009.00 0.06663
1009.10 0.0666
1009.20 0.06658
1009.30 0.06655
1009.40 0.06652
1009.50 0.0665
1009.60 0.06647
1009.70 0.06645
1009.80 0.06642
1009.90 0.0664
1010.00 0.06637
1010.10 0.06635
1010.20 0.06633
1010.30 0.0663
1010.40 0.06628
1010.50 0.06625
1010.60 0.06623
1010.70 0.0662
1010.80 0.06618
1010.90 0.06615
1011.00 0.06613
1011.10 0.0661
1011.20 0.06608
1011.30 0.06605
1011.40 0.06603
1011.50 0.066
1011.60 0.06598
1011.70 0.06596
1011.80 0.06593
1011.90 0.06591
1012.00 0.06588
1012.10 0.06586
1012.20 0.06583
1012.30 0.06581
1012.40 0.06578
1012.50 0.06576
1012.60 0.06574
1012.70 0.06571
1012.80 0.06569
1012.90 0.06566
1013.00 0.06564
1013.10 0.06561
1013.20 0.06559
1013.30 0.06557
1013.40 0.06554
1013.50 0.06552
1013.60 0.06549
1013.70 0.06547
1013.80 0.06545
1013.90 0.06542
1014.00 0.0654
1014.10 0.06537
1014.20 0.06535
1014.30 0.06532
1014.40 0.0653
1014.50 0.06528
1014.60 0.06525
1014.70 0.06523
1014.80 0.0652
1014.90 0.06518
1015.00 0.06516
1015.10 0.06513
1015.20 0.06511
1015.30 0.06508
1015.40 0.06506
1015.50 0.06504
1015.60 0.06501
1015.70 0.06499
1015.80 0.06496
1015.90 0.06494
1016.00 0.06492
1016.10 0.06489
1016.20 0.06487
1016.30 0.06484
1016.40 0.06482
1016.50 0.0648
1016.60 0.06477
1016.70 0.06475
1016.80 0.06473
1016.90 0.0647
1017.00 0.06468
1017.10 0.06465
1017.20 0.06463
1017.30 0.06461
1017.40 0.06458
1017.50 0.06456
1017.60 0.06454
1017.70 0.06451
1017.80 0.06449
1017.90 0.06446
1018.00 0.06444
1018.10 0.06442
1018.20 0.06439
1018.30 0.06437
1018.40 0.06435
1018.50 0.06432
1018.60 0.0643
1018.70 0.06427
1018.80 0.06425
1018.90 0.06423
1019.00 0.0642
1019.10 0.06418
1019.20 0.06416
1019.30 0.06413
1019.40 0.06411
1019.50 0.06409
1019.60 0.06406
1019.70 0.06404
1019.80 0.06401
1019.90 0.06399
1020.00 0.06397
1020.10 0.06394
1020.20 0.06392
1020.30 0.0639
1020.40 0.06387
1020.50 0.06385
1020.60 0.06383
1020.70 0.0638
1020.80 0.06378
1020.90 0.06376
1021.00 0.06373
1021.10 0.06371
1021.20 0.06368
1021.30 0.06366
1021.40 0.06364
1021.50 0.06361
1021.60 0.06359
1021.70 0.06357
1021.80 0.06354
1021.90 0.06352
1022.00 0.0635
1022.10 0.06347
1022.20 0.06345
1022.30 0.06343
1022.40 0.0634
1022.50 0.06338
1022.60 0.06336
1022.70 0.06333
1022.80 0.06331
1022.90 0.06329
1023.00 0.06326
1023.10 0.06324
1023.20 0.06322
1023.30 0.06319
1023.40 0.06317
1023.50 0.06315
1023.60 0.06312
1023.70 0.0631
1023.80 0.06308
1023.90 0.06305
1024.00 0.06303
1024.10 0.06301
1024.20 0.06298
1024.30 0.06296
1024.40 0.06294
1024.50 0.06291
1024.60 0.06289
1024.70 0.06287
1024.80 0.06284
1024.90 0.06282
1025.00 0.0628
1025.10 0.06277
1025.20 0.06275
1025.30 0.06273
1025.40 0.0627
1025.50 0.06268
1025.60 0.06266
1025.70 0.06264
1025.80 0.06261
1025.90 0.06259
1026.00 0.06257
1026.10 0.06254
1026.20 0.06252
1026.30 0.0625
1026.40 0.06247
1026.50 0.06245
1026.60 0.06243
1026.70 0.0624
1026.80 0.06238
1026.90 0.06236
1027.00 0.06233
1027.10 0.06231
1027.20 0.06229
1027.30 0.06227
1027.40 0.06224
1027.50 0.06222
1027.60 0.0622
1027.70 0.06217
1027.80 0.06215
1027.90 0.06213
1028.00 0.0621
1028.10 0.06208
1028.20 0.06206
1028.30 0.06204
1028.40 0.06201
1028.50 0.06199
1028.60 0.06197
1028.70 0.06194
1028.80 0.06192
1028.90 0.0619
1029.00 0.06187
1029.10 0.06185
1029.20 0.06183
1029.30 0.06181
1029.40 0.06178
1029.50 0.06176
1029.60 0.06174
1029.70 0.06171
1029.80 0.06169
1029.90 0.06167
1030.00 0.06165
1030.10 0.06162
1030.20 0.0616
1030.30 0.06158
1030.40 0.06155
1030.50 0.06153
1030.60 0.06151
1030.70 0.06149
1030.80 0.06146
1030.90 0.06144
1031.00 0.06142
1031.10 0.06139
1031.20 0.06137
1031.30 0.06135
1031.40 0.06133
1031.50 0.0613
1031.60 0.06128
1031.70 0.06126
1031.80 0.06123
1031.90 0.06121
1032.00 0.06119
1032.10 0.06117
1032.20 0.06114
1032.30 0.06112
1032.40 0.0611
1032.50 0.06108
1032.60 0.06105
1032.70 0.06103
1032.80 0.06101
1032.90 0.06098
1033.00 0.06096
1033.10 0.06094
1033.20 0.06092
1033.30 0.06089
1033.40 0.06087
1033.50 0.06085
1033.60 0.06083
1033.70 0.0608
1033.80 0.06078
1033.90 0.06076
1034.00 0.06074
1034.10 0.06071
1034.20 0.06069
1034.30 0.06067
1034.40 0.06065
1034.50 0.06062
1034.60 0.0606
1034.70 0.06058
1034.80 0.06056
1034.90 0.06053
1035.00 0.06051
1035.10 0.06049
1035.20 0.06047
1035.30 0.06044
1035.40 0.06042
1035.50 0.0604
1035.60 0.06038
1035.70 0.06035
1035.80 0.06033
1035.90 0.06031
1036.00 0.06029
1036.10 0.06026
1036.20 0.06024
1036.30 0.06022
1036.40 0.0602
1036.50 0.06017
1036.60 0.06015
1036.70 0.06013
1036.80 0.06011
1036.90 0.06008
1037.00 0.06006
1037.10 0.06004
1037.20 0.06002
1037.30 0.05999
1037.40 0.05997
1037.50 0.05995
1037.60 0.05993
1037.70 0.0599
1037.80 0.05988
1037.90 0.05986
1038.00 0.05984
1038.10 0.05981
1038.20 0.05979
1038.30 0.05977
1038.40 0.05975
1038.50 0.05973
1038.60 0.0597
1038.70 0.05968
1038.80 0.05966
1038.90 0.05964
1039.00 0.05961
1039.10 0.05959
1039.20 0.05957
1039.30 0.05955
1039.40 0.05953
1039.50 0.0595
1039.60 0.05948
1039.70 0.05946
1039.80 0.05944
1039.90 0.05941
1040.00 0.05939
1040.10 0.05937
1040.20 0.05935
1040.30 0.05933
1040.40 0.0593
1040.50 0.05928
1040.60 0.05926
1040.70 0.05924
1040.80 0.05921
1040.90 0.05919
1041.00 0.05917
1041.10 0.05915
1041.20 0.05913
1041.30 0.0591
1041.40 0.05908
1041.50 0.05906
1041.60 0.05904
1041.70 0.05902
1041.80 0.05899
1041.90 0.05897
1042.00 0.05895
1042.10 0.05893
1042.20 0.05891
1042.30 0.05888
1042.40 0.05886
1042.50 0.05884
1042.60 0.05882
1042.70 0.0588
1042.80 0.05877
1042.90 0.05875
1043.00 0.05873
1043.10 0.05871
1043.20 0.05869
1043.30 0.05866
1043.40 0.05864
1043.50 0.05862
1043.60 0.0586
1043.70 0.05858
1043.80 0.05855
1043.90 0.05853
1044.00 0.05851
1044.10 0.05849
1044.20 0.05847
1044.30 0.05844
1044.40 0.05842
1044.50 0.0584
1044.60 0.05838
1044.70 0.05836
1044.80 0.05833
1044.90 0.05831
1045.00 0.05829
1045.10 0.05827
1045.20 0.05825
1045.30 0.05822
1045.40 0.0582
1045.50 0.05818
1045.60 0.05816
1045.70 0.05814
1045.80 0.05812
1045.90 0.05809
1046.00 0.05807
1046.10 0.05805
1046.20 0.05803
1046.30 0.05801
1046.40 0.05799
1046.50 0.05796
1046.60 0.05794
1046.70 0.05792
1046.80 0.0579
1046.90 0.05788
1047.00 0.05785
1047.10 0.05783
1047.20 0.05781
1047.30 0.05779
1047.40 0.05777
1047.50 0.05775
1047.60 0.05772
1047.70 0.0577
1047.80 0.05768
1047.90 0.05766
1048.00 0.05764
1048.10 0.05762
1048.20 0.05759
1048.30 0.05757
1048.40 0.05755
1048.50 0.05753
1048.60 0.05751
1048.70 0.05749
1048.80 0.05746
1048.90 0.05744
1049.00 0.05742
1049.10 0.0574
1049.20 0.05738
1049.30 0.05736
1049.40 0.05733
1049.50 0.05731
1049.60 0.05729
1049.70 0.05727
1049.80 0.05725
1049.90 0.05723
1050.00 0.05721
1050.10 0.05718
1050.20 0.05716
1050.30 0.05714
1050.40 0.05712
1050.50 0.0571
1050.60 0.05708
1050.70 0.05705
1050.80 0.05703
1050.90 0.05701
1051.00 0.05699
1051.10 0.05697
1051.20 0.05695
1051.30 0.05693
1051.40 0.0569
1051.50 0.05688
1051.60 0.05686
1051.70 0.05684
1051.80 0.05682
1051.90 0.0568
1052.00 0.05678
1052.10 0.05675
1052.20 0.05673
1052.30 0.05671
1052.40 0.05669
1052.50 0.05667
1052.60 0.05665
1052.70 0.05663
1052.80 0.0566
1052.90 0.05658
1053.00 0.05656
1053.10 0.05654
1053.20 0.05652
1053.30 0.0565
1053.40 0.05648
1053.50 0.05645
1053.60 0.05643
1053.70 0.05641
1053.80 0.05639
1053.90 0.05637
1054.00 0.05635
1054.10 0.05633
1054.20 0.05631
1054.30 0.05628
1054.40 0.05626
1054.50 0.05624
1054.60 0.05622
1054.70 0.0562
1054.80 0.05618
1054.90 0.05616
1055.00 0.05614
1055.10 0.05611
1055.20 0.05609
1055.30 0.05607
1055.40 0.05605
1055.50 0.05603
1055.60 0.05601
1055.70 0.05599
1055.80 0.05597
1055.90 0.05594
1056.00 0.05592
1056.10 0.0559
1056.20 0.05588
1056.30 0.05586
1056.40 0.05584
1056.50 0.05582
1056.60 0.0558
1056.70 0.05577
1056.80 0.05575
1056.90 0.05573
1057.00 0.05571
1057.10 0.05569
1057.20 0.05567
1057.30 0.05565
1057.40 0.05563
1057.50 0.05561
1057.60 0.05558
1057.70 0.05556
1057.80 0.05554
1057.90 0.05552
1058.00 0.0555
1058.10 0.05548
1058.20 0.05546
1058.30 0.05544
1058.40 0.05542
1058.50 0.05539
1058.60 0.05537
1058.70 0.05535
1058.80 0.05533
1058.90 0.05531
1059.00 0.05529
1059.10 0.05527
1059.20 0.05525
1059.30 0.05523
1059.40 0.0552
1059.50 0.05518
1059.60 0.05516
1059.70 0.05514
1059.80 0.05512
1059.90 0.0551
1060.00 0.05508
1060.10 0.05506
1060.20 0.05504
1060.30 0.05502
1060.40 0.05499
1060.50 0.05497
1060.60 0.05495
1060.70 0.05493
1060.80 0.05491
1060.90 0.05489
1061.00 0.05487
1061.10 0.05485
1061.20 0.05483
1061.30 0.05481
1061.40 0.05479
1061.50 0.05476
1061.60 0.05474
1061.70 0.05472
1061.80 0.0547
1061.90 0.05468
1062.00 0.05466
1062.10 0.05464
1062.20 0.05462
1062.30 0.0546
1062.40 0.05458
1062.50 0.05456
1062.60 0.05453
1062.70 0.05451
1062.80 0.05449
1062.90 0.05447
1063.00 0.05445
1063.10 0.05443
1063.20 0.05441
1063.30 0.05439
1063.40 0.05437
1063.50 0.05435
1063.60 0.05433
1063.70 0.0543
1063.80 0.05428
1063.90 0.05426
1064.00 0.05424
1064.10 0.05422
1064.20 0.0542
1064.30 0.05418
1064.40 0.05416
1064.50 0.05414
1064.60 0.05412
1064.70 0.0541
1064.80 0.05408
1064.90 0.05406
1065.00 0.05403
1065.10 0.05401
1065.20 0.05399
1065.30 0.05397
1065.40 0.05395
1065.50 0.05393
1065.60 0.05391
1065.70 0.05389
1065.80 0.05387
1065.90 0.05385
1066.00 0.05383
1066.10 0.05381
1066.20 0.05379
1066.30 0.05376
1066.40 0.05374
1066.50 0.05372
1066.60 0.0537
1066.70 0.05368
1066.80 0.05366
1066.90 0.05364
1067.00 0.05362
1067.10 0.0536
1067.20 0.05358
1067.30 0.05356
1067.40 0.05354
1067.50 0.05352
1067.60 0.0535
1067.70 0.05347
1067.80 0.05345
1067.90 0.05343
1068.00 0.05341
1068.10 0.05339
1068.20 0.05337
1068.30 0.05335
1068.40 0.05333
1068.50 0.05331
1068.60 0.05329
1068.70 0.05327
1068.80 0.05325
1068.90 0.05323
1069.00 0.05321
1069.10 0.05318
1069.20 0.05316
1069.30 0.05314
1069.40 0.05312
1069.50 0.0531
1069.60 0.05308
1069.70 0.05306
1069.80 0.05304
1069.90 0.05302
1070.00 0.053
1070.10 0.05298
1070.20 0.05296
1070.30 0.05294
1070.40 0.05292
1070.50 0.0529
1070.60 0.05288
1070.70 0.05286
1070.80 0.05283
1070.90 0.05281
1071.00 0.05279
1071.10 0.05277
1071.20 0.05275
1071.30 0.05273
1071.40 0.05271
1071.50 0.05269
1071.60 0.05267
1071.70 0.05265
1071.80 0.05263
1071.90 0.05261
1072.00 0.05259
1072.10 0.05257
1072.20 0.05255
1072.30 0.05253
1072.40 0.05251
1072.50 0.05249
1072.60 0.05247
1072.70 0.05244
1072.80 0.05242
1072.90 0.0524
1073.00 0.05238
1073.10 0.05236
1073.20 0.05234
1073.30 0.05232
1073.40 0.0523
1073.50 0.05228
1073.60 0.05226
1073.70 0.05224
1073.80 0.05222
1073.90 0.0522
1074.00 0.05218
1074.10 0.05216
1074.20 0.05214
1074.30 0.05212
1074.40 0.0521
1074.50 0.05207
1074.60 0.05205
1074.70 0.05203
1074.80 0.05201
1074.90 0.05199
1075.00 0.05197
1075.10 0.05195
1075.20 0.05193
1075.30 0.05191
1075.40 0.05189
1075.50 0.05187
1075.60 0.05185
1075.70 0.05183
1075.80 0.05181
1075.90 0.05179
1076.00 0.05177
1076.10 0.05175
1076.20 0.05173
1076.30 0.05171
1076.40 0.05169
1076.50 0.05167
1076.60 0.05164
1076.70 0.05162
1076.80 0.0516
1076.90 0.05158
1077.00 0.05156
1077.10 0.05154
1077.20 0.05152
1077.30 0.0515
1077.40 0.05148
1077.50 0.05146
1077.60 0.05144
1077.70 0.05142
1077.80 0.0514
1077.90 0.05138
1078.00 0.05136
1078.10 0.05134
1078.20 0.05132
1078.30 0.0513
1078.40 0.05128
1078.50 0.05126
1078.60 0.05124
1078.70 0.05122
1078.80 0.0512
1078.90 0.05118
1079.00 0.05115
1079.10 0.05113
1079.20 0.05111
1079.30 0.05109
1079.40 0.05107
1079.50 0.05105
1079.60 0.05103
1079.70 0.05101
1079.80 0.05099
1079.90 0.05097
1080.00 0.05095
1080.10 0.05093
1080.20 0.05091
1080.30 0.05089
1080.40 0.05087
1080.50 0.05085
1080.60 0.05083
1080.70 0.05081
1080.80 0.05079
1080.90 0.05077
1081.00 0.05075
1081.10 0.05073
1081.20 0.05071
1081.30 0.05069
1081.40 0.05067
1081.50 0.05065
1081.60 0.05063
1081.70 0.05061
1081.80 0.05059
1081.90 0.05056
1082.00 0.05054
1082.10 0.05052
1082.20 0.0505
1082.30 0.05048
1082.40 0.05046
1082.50 0.05044
1082.60 0.05042
1082.70 0.0504
1082.80 0.05038
1082.90 0.05036
1083.00 0.05034
1083.10 0.05032
1083.20 0.0503
1083.30 0.05028
1083.40 0.05026
1083.50 0.05024
1083.60 0.05022
1083.70 0.0502
1083.80 0.05018
1083.90 0.05016
1084.00 0.05014
1084.10 0.05012
1084.20 0.0501
1084.30 0.05008
1084.40 0.05006
1084.50 0.05004
1084.60 0.05002
1084.70 0.05
1084.80 0.04998
1084.90 0.04996
1085.00 0.04994
1085.10 0.04992
1085.20 0.0499
1085.30 0.04988
1085.40 0.04986
1085.50 0.04984
1085.60 0.04982
1085.70 0.0498
1085.80 0.04977
1085.90 0.04975
1086.00 0.04973
1086.10 0.04971
1086.20 0.04969
1086.30 0.04967
1086.40 0.04965
1086.50 0.04963
1086.60 0.04961
1086.70 0.04959
1086.80 0.04957
1086.90 0.04955
1087.00 0.04953
1087.10 0.04951
1087.20 0.04949
1087.30 0.04947
1087.40 0.04945
1087.50 0.04943
1087.60 0.04941
1087.70 0.04939
1087.80 0.04937
1087.90 0.04935
1088.00 0.04933
1088.10 0.04931
1088.20 0.04929
1088.30 0.04927
1088.40 0.04925
1088.50 0.04923
1088.60 0.04921
1088.70 0.04919
1088.80 0.04917
1088.90 0.04915
1089.00 0.04913
1089.10 0.04911
1089.20 0.04909
1089.30 0.04907
1089.40 0.04905
1089.50 0.04903
1089.60 0.04901
1089.70 0.04899
1089.80 0.04897
1089.90 0.04895
1090.00 0.04893
1090.10 0.04891
1090.20 0.04889
1090.30 0.04887
1090.40 0.04885
1090.50 0.04883
1090.60 0.04881
1090.70 0.04879
1090.80 0.04877
1090.90 0.04875
1091.00 0.04873
1091.10 0.04871
1091.20 0.04869
1091.30 0.04867
1091.40 0.04864
1091.50 0.04862
1091.60 0.0486
1091.70 0.04858
1091.80 0.04856
1091.90 0.04854
1092.00 0.04852
1092.10 0.0485
1092.20 0.04848
1092.30 0.04846
1092.40 0.04844
1092.50 0.04842
1092.60 0.0484
1092.70 0.04838
1092.80 0.04836
1092.90 0.04834
1093.00 0.04832
1093.10 0.0483
1093.20 0.04828
1093.30 0.04827
1093.40 0.04825
1093.50 0.04823
1093.60 0.04822
1093.70 0.0482
1093.80 0.04819
1093.90 0.04817
1094.00 0.04816
1094.10 0.04815
1094.20 0.04814
1094.30 0.04812
1094.40 0.04811
1094.50 0.04809
1094.60 0.04808
1094.70 0.04806
1094.80 0.04805
1094.90 0.04803
1095.00 0.04802
1095.10 0.04801
1095.20 0.04799
1095.30 0.04798
1095.40 0.04796
1095.50 0.04795
1095.60 0.04794
1095.70 0.04792
1095.80 0.04791
1095.90 0.0479
1096.00 0.04788
1096.10 0.04787
1096.20 0.04785
1096.30 0.04784
1096.40 0.04783
1096.50 0.04781
1096.60 0.0478
1096.70 0.04778
1096.80 0.04777
1096.90 0.04776
1097.00 0.04774
1097.10 0.04773
1097.20 0.04771
1097.30 0.0477
1097.40 0.04769
1097.50 0.04767
1097.60 0.04766
1097.70 0.04764
1097.80 0.04763
1097.90 0.04762
1098.00 0.0476
1098.10 0.04759
1098.20 0.04757
1098.30 0.04756
1098.40 0.04755
1098.50 0.04753
1098.60 0.04752
1098.70 0.0475
1098.80 0.04749
1098.90 0.04747
1099.00 0.04746
1099.10 0.04745
1099.20 0.04743
1099.30 0.04742
1099.40 0.0474
1099.50 0.04739
1099.60 0.04738
1099.70 0.04736
1099.80 0.04735
1099.90 0.04733
1100.00 0.04732
1100.10 0.0473
1100.20 0.04729
1100.30 0.04728
1100.40 0.04726
1100.50 0.04725
1100.60 0.04723
1100.70 0.04722
1100.80 0.04721
1100.90 0.04719
1101.00 0.04718
1101.10 0.04716
1101.20 0.04715
1101.30 0.04713
1101.40 0.04712
1101.50 0.04711
1101.60 0.04709
1101.70 0.04708
1101.80 0.04706
1101.90 0.04705
1102.00 0.04703
1102.10 0.04702
1102.20 0.04701
1102.30 0.04699
1102.40 0.04698
1102.50 0.04696
1102.60 0.04695
1102.70 0.04693
1102.80 0.04692
1102.90 0.04691
1103.00 0.04689
1103.10 0.04688
1103.20 0.04686
1103.30 0.04685
1103.40 0.04683
1103.50 0.04682
1103.60 0.04681
1103.70 0.04679
1103.80 0.04678
1103.90 0.04676
1104.00 0.04675
1104.10 0.04673
1104.20 0.04672
1104.30 0.0467
1104.40 0.04669
1104.50 0.04668
1104.60 0.04666
1104.70 0.04665
1104.80 0.04663
1104.90 0.04662
1105.00 0.0466
1105.10 0.04659
1105.20 0.04658
1105.30 0.04656
1105.40 0.04655
1105.50 0.04653
1105.60 0.04652
1105.70 0.0465
1105.80 0.04649
1105.90 0.04648
1106.00 0.04646
1106.10 0.04645
1106.20 0.04643
1106.30 0.04642
1106.40 0.0464
1106.50 0.04639
1106.60 0.04638
1106.70 0.04636
1106.80 0.04635
1106.90 0.04633
1107.00 0.04632
1107.10 0.0463
1107.20 0.04629
1107.30 0.04627
1107.40 0.04626
1107.50 0.04625
1107.60 0.04623
1107.70 0.04622
1107.80 0.0462
1107.90 0.04619
1108.00 0.04617
1108.10 0.04616
1108.20 0.04615
1108.30 0.04613
1108.40 0.04612
1108.50 0.0461
1108.60 0.04609
1108.70 0.04607
1108.80 0.04606
1108.90 0.04604
1109.00 0.04603
1109.10 0.04602
1109.20 0.046
1109.30 0.04599
1109.40 0.04597
1109.50 0.04596
1109.60 0.04594
1109.70 0.04593
1109.80 0.04591
1109.90 0.0459
1110.00 0.04589
1110.10 0.04587
1110.20 0.04586
1110.30 0.04584
1110.40 0.04583
1110.50 0.04581
1110.60 0.0458
1110.70 0.04578
1110.80 0.04577
1110.90 0.04576
1111.00 0.04574
1111.10 0.04573
1111.20 0.04571
1111.30 0.0457
1111.40 0.04568
1111.50 0.04567
1111.60 0.04565
1111.70 0.04564
1111.80 0.04563
1111.90 0.04561
1112.00 0.0456
1112.10 0.04558
1112.20 0.04557
1112.30 0.04555
1112.40 0.04554
1112.50 0.04552
1112.60 0.04551
1112.70 0.0455
1112.80 0.04548
1112.90 0.04547
1113.00 0.04545
1113.10 0.04544
1113.20 0.04542
1113.30 0.04541
1113.40 0.04539
1113.50 0.04538
1113.60 0.04537
1113.70 0.04535
1113.80 0.04534
1113.90 0.04532
1114.00 0.04531
1114.10 0.04529
1114.20 0.04528
1114.30 0.04526
1114.40 0.04525
1114.50 0.04523
1114.60 0.04522
1114.70 0.04521
1114.80 0.04519
1114.90 0.04518
1115.00 0.04516
1115.10 0.04515
1115.20 0.04513
1115.30 0.04512
1115.40 0.0451
1115.50 0.04509
1115.60 0.04508
1115.70 0.04506
1115.80 0.04505
1115.90 0.04503
1116.00 0.04502
1116.10 0.045
1116.20 0.04499
1116.30 0.04497
1116.40 0.04496
1116.50 0.04495
1116.60 0.04493
1116.70 0.04492
1116.80 0.0449
1116.90 0.04489
1117.00 0.04487
1117.10 0.04486
1117.20 0.04484
1117.30 0.04483
1117.40 0.04481
1117.50 0.0448
1117.60 0.04479
1117.70 0.04477
1117.80 0.04476
1117.90 0.04474
1118.00 0.04473
1118.10 0.04471
1118.20 0.0447
1118.30 0.04468
1118.40 0.04467
1118.50 0.04465
1118.60 0.04464
1118.70 0.04463
1118.80 0.04461
1118.90 0.0446
1119.00 0.04458
1119.10 0.04457
1119.20 0.04455
1119.30 0.04454
1119.40 0.04452
1119.50 0.04451
1119.60 0.04449
1119.70 0.04448
1119.80 0.04447
1119.90 0.04445
1120.00 0.04444
1120.10 0.04442
1120.20 0.04441
1120.30 0.04439
1120.40 0.04438
1120.50 0.04436
1120.60 0.04435
1120.70 0.04434
1120.80 0.04432
1120.90 0.04431
1121.00 0.04429
1121.10 0.04428
1121.20 0.04426
1121.30 0.04425
1121.40 0.04423
1121.50 0.04422
1121.60 0.04421
1121.70 0.04419
1121.80 0.04418
1121.90 0.04416
1122.00 0.04415
1122.10 0.04413
1122.20 0.04412
1122.30 0.0441
1122.40 0.04409
1122.50 0.04408
1122.60 0.04406
1122.70 0.04405
1122.80 0.04403
1122.90 0.04402
1123.00 0.044
1123.10 0.04399
1123.20 0.04397
1123.30 0.04396
1123.40 0.04394
1123.50 0.04393
1123.60 0.04392
1123.70 0.0439
1123.80 0.04389
1123.90 0.04387
1124.00 0.04386
1124.10 0.04384
1124.20 0.04383
1124.30 0.04381
1124.40 0.0438
1124.50 0.04379
1124.60 0.04377
1124.70 0.04376
1124.80 0.04374
1124.90 0.04373
1125.00 0.04371
1125.10 0.0437
1125.20 0.04368
1125.30 0.04367
1125.40 0.04366
1125.50 0.04364
1125.60 0.04363
1125.70 0.04361
1125.80 0.0436
1125.90 0.04358
1126.00 0.04357
1126.10 0.04355
1126.20 0.04354
1126.30 0.04353
1126.40 0.04351
1126.50 0.0435
1126.60 0.04348
1126.70 0.04347
1126.80 0.04345
1126.90 0.04344
1127.00 0.04343
1127.10 0.04341
1127.20 0.0434
1127.30 0.04338
1127.40 0.04337
1127.50 0.04335
1127.60 0.04334
1127.70 0.04332
1127.80 0.04331
1127.90 0.0433
1128.00 0.04328
1128.10 0.04327
1128.20 0.04325
1128.30 0.04324
1128.40 0.04322
1128.50 0.04321
1128.60 0.04319
1128.70 0.04318
1128.80 0.04317
1128.90 0.04315
1129.00 0.04314
1129.10 0.04312
1129.20 0.04311
1129.30 0.04309
1129.40 0.04308
1129.50 0.04307
1129.60 0.04305
1129.70 0.04304
1129.80 0.04302
1129.90 0.04301
1130.00 0.04299
1130.10 0.04298
1130.20 0.04297
1130.30 0.04295
1130.40 0.04294
1130.50 0.04292
1130.60 0.04291
1130.70 0.04289
1130.80 0.04288
1130.90 0.04287
1131.00 0.04285
1131.10 0.04284
1131.20 0.04282
1131.30 0.04281
1131.40 0.04279
1131.50 0.04278
1131.60 0.04277
1131.70 0.04275
1131.80 0.04274
1131.90 0.04272
1132.00 0.04271
1132.10 0.04269
1132.20 0.04268
1132.30 0.04267
1132.40 0.04265
1132.50 0.04264
1132.60 0.04262
1132.70 0.04261
1132.80 0.04259
1132.90 0.04258
1133.00 0.04257
1133.10 0.04255
1133.20 0.04254
1133.30 0.04252
1133.40 0.04251
1133.50 0.04249
1133.60 0.04248
1133.70 0.04247
1133.80 0.04245
1133.90 0.04244
1134.00 0.04242
1134.10 0.04241
1134.20 0.04239
1134.30 0.04238
1134.40 0.04237
1134.50 0.04235
1134.60 0.04234
1134.70 0.04232
1134.80 0.04231
1134.90 0.0423
1135.00 0.04228
1135.10 0.04227
1135.20 0.04225
1135.30 0.04224
1135.40 0.04222
1135.50 0.04221
1135.60 0.0422
1135.70 0.04218
1135.80 0.04217
1135.90 0.04215
1136.00 0.04214
1136.10 0.04213
1136.20 0.04211
1136.30 0.0421
1136.40 0.04208
1136.50 0.04207
1136.60 0.04206
1136.70 0.04204
1136.80 0.04203
1136.90 0.04201
1137.00 0.042
1137.10 0.04198
1137.20 0.04197
1137.30 0.04196
1137.40 0.04194
1137.50 0.04193
1137.60 0.04191
1137.70 0.0419
1137.80 0.04189
1137.90 0.04187
1138.00 0.04186
1138.10 0.04184
1138.20 0.04183
1138.30 0.04182
1138.40 0.0418
1138.50 0.04179
1138.60 0.04177
1138.70 0.04176
1138.80 0.04175
1138.90 0.04173
1139.00 0.04172
1139.10 0.0417
1139.20 0.04169
1139.30 0.04168
1139.40 0.04166
1139.50 0.04165
1139.60 0.04163
1139.70 0.04162
1139.80 0.04161
1139.90 0.04159
1140.00 0.04158
1140.10 0.04156
1140.20 0.04155
1140.30 0.04154
1140.40 0.04152
1140.50 0.04151
1140.60 0.04149
1140.70 0.04148
1140.80 0.04147
1140.90 0.04145
1141.00 0.04144
1141.10 0.04142
1141.20 0.04141
1141.30 0.0414
1141.40 0.04138
1141.50 0.04137
1141.60 0.04135
1141.70 0.04134
1141.80 0.04133
1141.90 0.04131
1142.00 0.0413
1142.10 0.04128
1142.20 0.04127
1142.30 0.04126
1142.40 0.04124
1142.50 0.04123
1142.60 0.04122
1142.70 0.0412
1142.80 0.04119
1142.90 0.04117
1143.00 0.04116
1143.10 0.04115
1143.20 0.04113
1143.30 0.04112
1143.40 0.0411
1143.50 0.04109
1143.60 0.04108
1143.70 0.04106
1143.80 0.04105
1143.90 0.04104
1144.00 0.04102
1144.10 0.04101
1144.20 0.04099
1144.30 0.04098
1144.40 0.04097
1144.50 0.04095
1144.60 0.04094
1144.70 0.04092
1144.80 0.04091
1144.90 0.0409
1145.00 0.04088
1145.10 0.04087
1145.20 0.04086
1145.30 0.04084
1145.40 0.04083
1145.50 0.04081
1145.60 0.0408
1145.70 0.04079
1145.80 0.04077
1145.90 0.04076
1146.00 0.04075
1146.10 0.04073
1146.20 0.04072
1146.30 0.0407
1146.40 0.04069
1146.50 0.04068
1146.60 0.04066
1146.70 0.04065
1146.80 0.04064
1146.90 0.04062
1147.00 0.04061
1147.10 0.0406
1147.20 0.04058
1147.30 0.04057
1147.40 0.04055
1147.50 0.04054
1147.60 0.04053
1147.70 0.04051
1147.80 0.0405
1147.90 0.04049
1148.00 0.04047
1148.10 0.04046
1148.20 0.04045
1148.30 0.04043
1148.40 0.04042
1148.50 0.0404
1148.60 0.04039
1148.70 0.04038
1148.80 0.04036
1148.90 0.04035
1149.00 0.04034
1149.10 0.04032
1149.20 0.04031
1149.30 0.0403
1149.40 0.04028
1149.50 0.04027
1149.60 0.04026
1149.70 0.04024
1149.80 0.04023
1149.90 0.04021
1150.00 0.0402
1150.10 0.04019
1150.20 0.04017
1150.30 0.04016
1150.40 0.04015
1150.50 0.04013
1150.60 0.04012
1150.70 0.04011
1150.80 0.04009
1150.90 0.04008
1151.00 0.04007
1151.10 0.04005
1151.20 0.04004
1151.30 0.04003
1151.40 0.04001
1151.50 0.04
1151.60 0.03998
1151.70 0.03997
1151.80 0.03996
1151.90 0.03994
1152.00 0.03993
1152.10 0.03992
1152.20 0.0399
1152.30 0.03989
1152.40 0.03988
1152.50 0.03986
1152.60 0.03985
1152.70 0.03984
1152.80 0.03982
1152.90 0.03981
1153.00 0.0398
1153.10 0.03978
1153.20 0.03977
1153.30 0.03976
1153.40 0.03974
1153.50 0.03973
1153.60 0.03972
1153.70 0.0397
1153.80 0.03969
1153.90 0.03968
1154.00 0.03966
1154.10 0.03965
1154.20 0.03964
1154.30 0.03962
1154.40 0.03961
1154.50 0.0396
1154.60 0.03958
1154.70 0.03957
1154.80 0.03956
1154.90 0.03954
1155.00 0.03953
1155.10 0.03952
1155.20 0.0395
1155.30 0.03949
1155.40 0.03948
1155.50 0.03946
1155.60 0.03945
1155.70 0.03944
1155.80 0.03942
1155.90 0.03941
1156.00 0.0394
1156.10 0.03938
1156.20 0.03937
1156.30 0.03936
1156.40 0.03934
1156.50 0.03933
1156.60 0.03932
1156.70 0.0393
1156.80 0.03929
1156.90 0.03928
1157.00 0.03926
1157.10 0.03925
1157.20 0.03924
1157.30 0.03922
1157.40 0.03921
1157.50 0.0392
1157.60 0.03919
1157.70 0.03917
1157.80 0.03916
1157.90 0.03915
1158.00 0.03913
1158.10 0.03912
1158.20 0.03911
1158.30 0.03909
1158.40 0.03908
1158.50 0.03907
1158.60 0.03905
1158.70 0.03904
1158.80 0.03903
1158.90 0.03901
1159.00 0.039
1159.10 0.03899
1159.20 0.03898
1159.30 0.03896
1159.40 0.03895
1159.50 0.03894
1159.60 0.03892
1159.70 0.03891
1159.80 0.0389
1159.90 0.03888
1160.00 0.03887
1160.10 0.03886
1160.20 0.03884
1160.30 0.03883
1160.40 0.03882
1160.50 0.03881
1160.60 0.03879
1160.70 0.03878
1160.80 0.03877
1160.90 0.03875
1161.00 0.03874
1161.10 0.03873
1161.20 0.03871
1161.30 0.0387
1161.40 0.03869
1161.50 0.03868
1161.60 0.03866
1161.70 0.03865
1161.80 0.03864
1161.90 0.03862
1162.00 0.03861
1162.10 0.0386
1162.20 0.03858
1162.30 0.03857
1162.40 0.03856
1162.50 0.03855
1162.60 0.03853
1162.70 0.03852
1162.80 0.03851
1162.90 0.03849
1163.00 0.03848
1163.10 0.03847
1163.20 0.03846
1163.30 0.03844
1163.40 0.03843
1163.50 0.03842
1163.60 0.0384
1163.70 0.03839
1163.80 0.03838
1163.90 0.03837
1164.00 0.03835
1164.10 0.03834
1164.20 0.03833
1164.30 0.03831
1164.40 0.0383
1164.50 0.03829
1164.60 0.03828
1164.70 0.03826
1164.80 0.03825
1164.90 0.03824
1165.00 0.03822
1165.10 0.03821
1165.20 0.0382
1165.30 0.03819
1165.40 0.03817
1165.50 0.03816
1165.60 0.03815
1165.70 0.03813
1165.80 0.03812
1165.90 0.03811
1166.00 0.0381
1166.10 0.03808
1166.20 0.03807
1166.30 0.03806
1166.40 0.03804
1166.50 0.03803
1166.60 0.03802
1166.70 0.03801
1166.80 0.03799
1166.90 0.03798
1167.00 0.03797
1167.10 0.03796
1167.20 0.03794
1167.30 0.03793
1167.40 0.03792
1167.50 0.0379
1167.60 0.03789
1167.70 0.03788
1167.80 0.03787
1167.90 0.03785
1168.00 0.03784
1168.10 0.03783
1168.20 0.03782
1168.30 0.0378
1168.40 0.03779
1168.50 0.03778
1168.60 0.03777
1168.70 0.03775
1168.80 0.03774
1168.90 0.03773
1169.00 0.03772
1169.10 0.0377
1169.20 0.03769
1169.30 0.03768
1169.40 0.03766
1169.50 0.03765
1169.60 0.03764
1169.70 0.03763
1169.80 0.03761
1169.90 0.0376
1170.00 0.03759
1170.10 0.03758
1170.20 0.03756
1170.30 0.03755
1170.40 0.03754
1170.50 0.03753
1170.60 0.03751
1170.70 0.0375
1170.80 0.03749
1170.90 0.03748
1171.00 0.03746
1171.10 0.03745
1171.20 0.03744
1171.30 0.03743
1171.40 0.03741
1171.50 0.0374
1171.60 0.03739
1171.70 0.03738
1171.80 0.03736
1171.90 0.03735
1172.00 0.03734
1172.10 0.03733
1172.20 0.03731
1172.30 0.0373
1172.40 0.03729
1172.50 0.03728
1172.60 0.03726
1172.70 0.03725
1172.80 0.03724
1172.90 0.03723
1173.00 0.03721
1173.10 0.0372
1173.20 0.03719
1173.30 0.03718
1173.40 0.03716
1173.50 0.03715
1173.60 0.03714
1173.70 0.03713
1173.80 0.03712
1173.90 0.0371
1174.00 0.03709
1174.10 0.03708
1174.20 0.03707
1174.30 0.03705
1174.40 0.03704
1174.50 0.03703
1174.60 0.03702
1174.70 0.037
1174.80 0.03699
1174.90 0.03698
1175.00 0.03697
1175.10 0.03695
1175.20 0.03694
1175.30 0.03693
1175.40 0.03692
1175.50 0.0369
1175.60 0.03689
1175.70 0.03688
1175.80 0.03687
1175.90 0.03686
1176.00 0.03684
1176.10 0.03683
1176.20 0.03682
1176.30 0.03681
1176.40 0.03679
1176.50 0.03678
1176.60 0.03677
1176.70 0.03676
1176.80 0.03675
1176.90 0.03673
1177.00 0.03672
1177.10 0.03671
1177.20 0.0367
1177.30 0.03668
1177.40 0.03667
1177.50 0.03666
1177.60 0.03665
1177.70 0.03664
1177.80 0.03662
1177.90 0.03661
1178.00 0.0366
1178.10 0.03659
1178.20 0.03657
1178.30 0.03656
1178.40 0.03655
1178.50 0.03654
1178.60 0.03653
1178.70 0.03651
1178.80 0.0365
1178.90 0.03649
1179.00 0.03648
1179.10 0.03647
1179.20 0.03645
1179.30 0.03644
1179.40 0.03643
1179.50 0.03642
1179.60 0.0364
1179.70 0.03639
1179.80 0.03638
1179.90 0.03637
1180.00 0.03636
1180.10 0.03634
1180.20 0.03633
1180.30 0.03632
1180.40 0.03631
1180.50 0.0363
1180.60 0.03628
1180.70 0.03627
1180.80 0.03626
1180.90 0.03625
1181.00 0.03624
1181.10 0.03622
1181.20 0.03621
1181.30 0.0362
1181.40 0.03619
1181.50 0.03617
1181.60 0.03616
1181.70 0.03615
1181.80 0.03614
1181.90 0.03613
1182.00 0.03611
1182.10 0.0361
1182.20 0.03609
1182.30 0.03608
1182.40 0.03607
1182.50 0.03606
1182.60 0.03604
1182.70 0.03603
1182.80 0.03602
1182.90 0.03601
1183.00 0.036
1183.10 0.03598
1183.20 0.03597
1183.30 0.03596
1183.40 0.03595
1183.50 0.03594
1183.60 0.03592
1183.70 0.03591
1183.80 0.0359
1183.90 0.03589
1184.00 0.03588
1184.10 0.03586
1184.20 0.03585
1184.30 0.03584
1184.40 0.03583
1184.50 0.03582
1184.60 0.0358
1184.70 0.03579
1184.80 0.03578
1184.90 0.03577
1185.00 0.03576
1185.10 0.03575
1185.20 0.03573
1185.30 0.03572
1185.40 0.03571
1185.50 0.0357
1185.60 0.03569
1185.70 0.03567
1185.80 0.03566
1185.90 0.03565
1186.00 0.03564
1186.10 0.03563
1186.20 0.03562
1186.30 0.0356
1186.40 0.03559
1186.50 0.03558
1186.60 0.03557
1186.70 0.03556
1186.80 0.03554
1186.90 0.03553
1187.00 0.03552
1187.10 0.03551
1187.20 0.0355
1187.30 0.03549
1187.40 0.03547
1187.50 0.03546
1187.60 0.03545
1187.70 0.03544
1187.80 0.03543
1187.90 0.03542
1188.00 0.0354
1188.10 0.03539
1188.20 0.03538
1188.30 0.03537
1188.40 0.03536
1188.50 0.03534
1188.60 0.03533
1188.70 0.03532
1188.80 0.03531
1188.90 0.0353
1189.00 0.03529
1189.10 0.03527
1189.20 0.03526
1189.30 0.03525
1189.40 0.03524
1189.50 0.03523
1189.60 0.03522
1189.70 0.0352
1189.80 0.03519
1189.90 0.03518
1190.00 0.03517
1190.10 0.03516
1190.20 0.03515
1190.30 0.03513
1190.40 0.03512
1190.50 0.03511
1190.60 0.0351
1190.70 0.03509
1190.80 0.03508
1190.90 0.03507
1191.00 0.03505
1191.10 0.03504
1191.20 0.03503
1191.30 0.03502
1191.40 0.03501
1191.50 0.035
1191.60 0.03498
1191.70 0.03497
1191.80 0.03496
1191.90 0.03495
1192.00 0.03494
1192.10 0.03493
1192.20 0.03491
1192.30 0.0349
1192.40 0.03489
1192.50 0.03488
1192.60 0.03487
1192.70 0.03486
1192.80 0.03485
1192.90 0.03483
1193.00 0.03482
1193.10 0.03481
1193.20 0.0348
1193.30 0.03479
1193.40 0.03478
1193.50 0.03477
1193.60 0.03475
1193.70 0.03474
1193.80 0.03473
1193.90 0.03472
1194.00 0.03471
1194.10 0.0347
1194.20 0.03468
1194.30 0.03467
1194.40 0.03466
1194.50 0.03465
1194.60 0.03464
1194.70 0.03463
1194.80 0.03462
1194.90 0.0346
1195.00 0.03459
1195.10 0.03458
1195.20 0.03457
1195.30 0.03456
1195.40 0.03455
1195.50 0.03454
1195.60 0.03453
1195.70 0.03451
1195.80 0.0345
1195.90 0.03449
1196.00 0.03448
1196.10 0.03447
1196.20 0.03446
1196.30 0.03445
1196.40 0.03443
1196.50 0.03442
1196.60 0.03441
1196.70 0.0344
1196.80 0.03439
1196.90 0.03438
1197.00 0.03437
1197.10 0.03435
1197.20 0.03434
1197.30 0.03433
1197.40 0.03432
1197.50 0.03431
1197.60 0.0343
1197.70 0.03429
1197.80 0.03428
1197.90 0.03426
1198.00 0.03425
1198.10 0.03424
1198.20 0.03423
1198.30 0.03422
1198.40 0.03421
1198.50 0.0342
1198.60 0.03419
1198.70 0.03417
1198.80 0.03416
1198.90 0.03415
1199.00 0.03414
1199.10 0.03413
1199.20 0.03412
1199.30 0.03411
1199.40 0.0341
1199.50 0.03408
1199.60 0.03407
1199.70 0.03406
1199.80 0.03405
1199.90 0.03404
1200.00 0
