# Version 2.1 - nm, norm@500 to 1, cut digits, bergeron_20000_80.dat_20000
# Wavelength(nm)  Flambda(ergs/cm^s/s/nm)
300.00 3.287
300.10 3.284
300.20 3.281
300.30 3.278
300.40 3.275
300.50 3.272
300.60 3.269
300.70 3.265
300.80 3.262
300.90 3.259
301.00 3.256
301.10 3.253
301.20 3.25
301.30 3.247
301.40 3.244
301.50 3.241
301.60 3.238
301.70 3.234
301.80 3.231
301.90 3.228
302.00 3.225
302.10 3.222
302.20 3.219
302.30 3.216
302.40 3.213
302.50 3.21
302.60 3.207
302.70 3.204
302.80 3.201
302.90 3.198
303.00 3.195
303.10 3.192
303.20 3.189
303.30 3.186
303.40 3.183
303.50 3.18
303.60 3.177
303.70 3.174
303.80 3.171
303.90 3.168
304.00 3.165
304.10 3.162
304.20 3.159
304.30 3.156
304.40 3.153
304.50 3.15
304.60 3.147
304.70 3.144
304.80 3.141
304.90 3.138
305.00 3.135
305.10 3.132
305.20 3.129
305.30 3.126
305.40 3.123
305.50 3.12
305.60 3.117
305.70 3.114
305.80 3.111
305.90 3.108
306.00 3.106
306.10 3.103
306.20 3.1
306.30 3.097
306.40 3.094
306.50 3.091
306.60 3.088
306.70 3.085
306.80 3.082
306.90 3.079
307.00 3.076
307.10 3.074
307.20 3.071
307.30 3.068
307.40 3.065
307.50 3.062
307.60 3.059
307.70 3.056
307.80 3.054
307.90 3.051
308.00 3.048
308.10 3.045
308.20 3.042
308.30 3.039
308.40 3.036
308.50 3.034
308.60 3.031
308.70 3.028
308.80 3.025
308.90 3.022
309.00 3.019
309.10 3.017
309.20 3.014
309.30 3.011
309.40 3.008
309.50 3.005
309.60 3.003
309.70 3
309.80 2.997
309.90 2.994
310.00 2.992
310.10 2.989
310.20 2.986
310.30 2.983
310.40 2.98
310.50 2.978
310.60 2.975
310.70 2.972
310.80 2.969
310.90 2.967
311.00 2.964
311.10 2.961
311.20 2.958
311.30 2.956
311.40 2.953
311.50 2.95
311.60 2.947
311.70 2.945
311.80 2.942
311.90 2.939
312.00 2.937
312.10 2.934
312.20 2.931
312.30 2.928
312.40 2.926
312.50 2.923
312.60 2.92
312.70 2.918
312.80 2.915
312.90 2.912
313.00 2.91
313.10 2.907
313.20 2.904
313.30 2.902
313.40 2.899
313.50 2.896
313.60 2.894
313.70 2.891
313.80 2.888
313.90 2.886
314.00 2.883
314.10 2.88
314.20 2.878
314.30 2.875
314.40 2.872
314.50 2.87
314.60 2.867
314.70 2.864
314.80 2.862
314.90 2.859
315.00 2.857
315.10 2.854
315.20 2.851
315.30 2.849
315.40 2.846
315.50 2.844
315.60 2.841
315.70 2.838
315.80 2.836
315.90 2.833
316.00 2.831
316.10 2.828
316.20 2.825
316.30 2.823
316.40 2.82
316.50 2.818
316.60 2.815
316.70 2.812
316.80 2.81
316.90 2.807
317.00 2.805
317.10 2.802
317.20 2.8
317.30 2.797
317.40 2.795
317.50 2.792
317.60 2.79
317.70 2.787
317.80 2.784
317.90 2.782
318.00 2.779
318.10 2.777
318.20 2.774
318.30 2.772
318.40 2.769
318.50 2.767
318.60 2.764
318.70 2.762
318.80 2.759
318.90 2.757
319.00 2.754
319.10 2.752
319.20 2.749
319.30 2.747
319.40 2.744
319.50 2.742
319.60 2.739
319.70 2.737
319.80 2.734
319.90 2.732
320.00 2.729
320.10 2.727
320.20 2.725
320.30 2.722
320.40 2.72
320.50 2.717
320.60 2.715
320.70 2.712
320.80 2.71
320.90 2.707
321.00 2.705
321.10 2.702
321.20 2.7
321.30 2.698
321.40 2.695
321.50 2.693
321.60 2.69
321.70 2.688
321.80 2.685
321.90 2.683
322.00 2.681
322.10 2.678
322.20 2.676
322.30 2.673
322.40 2.671
322.50 2.669
322.60 2.666
322.70 2.664
322.80 2.661
322.90 2.659
323.00 2.657
323.10 2.654
323.20 2.652
323.30 2.65
323.40 2.647
323.50 2.645
323.60 2.642
323.70 2.64
323.80 2.638
323.90 2.635
324.00 2.633
324.10 2.631
324.20 2.628
324.30 2.626
324.40 2.624
324.50 2.621
324.60 2.619
324.70 2.617
324.80 2.614
324.90 2.612
325.00 2.61
325.10 2.607
325.20 2.605
325.30 2.603
325.40 2.6
325.50 2.598
325.60 2.596
325.70 2.593
325.80 2.591
325.90 2.589
326.00 2.586
326.10 2.584
326.20 2.582
326.30 2.58
326.40 2.577
326.50 2.575
326.60 2.573
326.70 2.57
326.80 2.568
326.90 2.566
327.00 2.564
327.10 2.561
327.20 2.559
327.30 2.557
327.40 2.554
327.50 2.552
327.60 2.55
327.70 2.548
327.80 2.545
327.90 2.543
328.00 2.541
328.10 2.539
328.20 2.536
328.30 2.534
328.40 2.532
328.50 2.53
328.60 2.528
328.70 2.525
328.80 2.523
328.90 2.521
329.00 2.519
329.10 2.516
329.20 2.514
329.30 2.512
329.40 2.51
329.50 2.508
329.60 2.505
329.70 2.503
329.80 2.501
329.90 2.499
330.00 2.496
330.10 2.494
330.20 2.492
330.30 2.49
330.40 2.488
330.50 2.486
330.60 2.483
330.70 2.481
330.80 2.479
330.90 2.477
331.00 2.475
331.10 2.472
331.20 2.47
331.30 2.468
331.40 2.466
331.50 2.464
331.60 2.462
331.70 2.459
331.80 2.457
331.90 2.455
332.00 2.453
332.10 2.451
332.20 2.449
332.30 2.447
332.40 2.444
332.50 2.442
332.60 2.44
332.70 2.438
332.80 2.436
332.90 2.434
333.00 2.432
333.10 2.43
333.20 2.427
333.30 2.425
333.40 2.423
333.50 2.421
333.60 2.419
333.70 2.417
333.80 2.415
333.90 2.413
334.00 2.411
334.10 2.408
334.20 2.406
334.30 2.404
334.40 2.402
334.50 2.4
334.60 2.398
334.70 2.396
334.80 2.394
334.90 2.392
335.00 2.39
335.10 2.388
335.20 2.386
335.30 2.383
335.40 2.381
335.50 2.379
335.60 2.377
335.70 2.375
335.80 2.373
335.90 2.371
336.00 2.369
336.10 2.367
336.20 2.365
336.30 2.363
336.40 2.361
336.50 2.359
336.60 2.357
336.70 2.355
336.80 2.353
336.90 2.351
337.00 2.349
337.10 2.347
337.20 2.345
337.30 2.343
337.40 2.341
337.50 2.339
337.60 2.336
337.70 2.334
337.80 2.332
337.90 2.33
338.00 2.328
338.10 2.326
338.20 2.324
338.30 2.322
338.40 2.32
338.50 2.318
338.60 2.316
338.70 2.314
338.80 2.312
338.90 2.31
339.00 2.308
339.10 2.306
339.20 2.305
339.30 2.303
339.40 2.301
339.50 2.299
339.60 2.297
339.70 2.295
339.80 2.293
339.90 2.291
340.00 2.289
340.10 2.287
340.20 2.285
340.30 2.283
340.40 2.281
340.50 2.279
340.60 2.277
340.70 2.275
340.80 2.273
340.90 2.271
341.00 2.269
341.10 2.267
341.20 2.265
341.30 2.263
341.40 2.261
341.50 2.26
341.60 2.258
341.70 2.256
341.80 2.254
341.90 2.252
342.00 2.25
342.10 2.248
342.20 2.246
342.30 2.244
342.40 2.242
342.50 2.24
342.60 2.238
342.70 2.237
342.80 2.235
342.90 2.233
343.00 2.231
343.10 2.229
343.20 2.227
343.30 2.225
343.40 2.223
343.50 2.221
343.60 2.219
343.70 2.218
343.80 2.216
343.90 2.214
344.00 2.212
344.10 2.21
344.20 2.208
344.30 2.206
344.40 2.204
344.50 2.203
344.60 2.201
344.70 2.199
344.80 2.197
344.90 2.195
345.00 2.193
345.10 2.191
345.20 2.19
345.30 2.188
345.40 2.186
345.50 2.184
345.60 2.182
345.70 2.18
345.80 2.178
345.90 2.177
346.00 2.175
346.10 2.173
346.20 2.171
346.30 2.169
346.40 2.167
346.50 2.166
346.60 2.164
346.70 2.162
346.80 2.16
346.90 2.158
347.00 2.156
347.10 2.155
347.20 2.153
347.30 2.151
347.40 2.149
347.50 2.147
347.60 2.146
347.70 2.144
347.80 2.142
347.90 2.14
348.00 2.138
348.10 2.137
348.20 2.135
348.30 2.133
348.40 2.131
348.50 2.129
348.60 2.128
348.70 2.126
348.80 2.124
348.90 2.122
349.00 2.121
349.10 2.119
349.20 2.117
349.30 2.115
349.40 2.113
349.50 2.112
349.60 2.11
349.70 2.108
349.80 2.106
349.90 2.105
350.00 2.103
350.10 2.101
350.20 2.099
350.30 2.098
350.40 2.096
350.50 2.094
350.60 2.092
350.70 2.091
350.80 2.089
350.90 2.087
351.00 2.085
351.10 2.084
351.20 2.082
351.30 2.08
351.40 2.078
351.50 2.077
351.60 2.075
351.70 2.073
351.80 2.071
351.90 2.07
352.00 2.068
352.10 2.066
352.20 2.065
352.30 2.063
352.40 2.061
352.50 2.059
352.60 2.058
352.70 2.056
352.80 2.054
352.90 2.053
353.00 2.051
353.10 2.049
353.20 2.047
353.30 2.046
353.40 2.044
353.50 2.042
353.60 2.041
353.70 2.039
353.80 2.037
353.90 2.036
354.00 2.034
354.10 2.032
354.20 2.031
354.30 2.029
354.40 2.027
354.50 2.026
354.60 2.024
354.70 2.022
354.80 2.021
354.90 2.019
355.00 2.017
355.10 2.015
355.20 2.014
355.30 2.012
355.40 2.011
355.50 2.009
355.60 2.007
355.70 2.006
355.80 2.004
355.90 2.002
356.00 2.001
356.10 1.999
356.20 1.997
356.30 1.996
356.40 1.994
356.50 1.992
356.60 1.991
356.70 1.989
356.80 1.987
356.90 1.986
357.00 1.984
357.10 1.983
357.20 1.981
357.30 1.979
357.40 1.978
357.50 1.976
357.60 1.974
357.70 1.973
357.80 1.971
357.90 1.97
358.00 1.968
358.10 1.966
358.20 1.965
358.30 1.963
358.40 1.961
358.50 1.96
358.60 1.958
358.70 1.957
358.80 1.955
358.90 1.953
359.00 1.952
359.10 1.95
359.20 1.949
359.30 1.947
359.40 1.945
359.50 1.944
359.60 1.942
359.70 1.941
359.80 1.939
359.90 1.938
360.00 1.936
360.10 1.934
360.20 1.933
360.30 1.931
360.40 1.93
360.50 1.928
360.60 1.927
360.70 1.925
360.80 1.923
360.90 1.922
361.00 1.92
361.10 1.919
361.20 1.917
361.30 1.916
361.40 1.914
361.50 1.912
361.60 1.911
361.70 1.909
361.80 1.908
361.90 1.906
362.00 1.905
362.10 1.903
362.20 1.902
362.30 1.9
362.40 1.898
362.50 1.897
362.60 1.895
362.70 1.894
362.80 1.892
362.90 1.891
363.00 1.889
363.10 1.888
363.20 1.886
363.30 1.885
363.40 1.883
363.50 1.882
363.60 1.88
363.70 1.879
363.80 1.877
363.90 1.876
364.00 1.874
364.10 1.873
364.20 1.871
364.30 1.869
364.40 1.868
364.50 1.866
364.60 1.865
364.70 1.863
364.80 1.862
364.90 1.86
365.00 1.859
365.10 1.857
365.20 1.856
365.30 1.854
365.40 1.853
365.50 1.851
365.60 1.85
365.70 1.848
365.80 1.847
365.90 1.845
366.00 1.844
366.10 1.842
366.20 1.84
366.30 1.839
366.40 1.837
366.50 1.835
366.60 1.833
366.70 1.831
366.80 1.829
366.90 1.828
367.00 1.826
367.10 1.824
367.20 1.822
367.30 1.82
367.40 1.819
367.50 1.817
367.60 1.815
367.70 1.813
367.80 1.811
367.90 1.81
368.00 1.808
368.10 1.806
368.20 1.804
368.30 1.803
368.40 1.801
368.50 1.799
368.60 1.797
368.70 1.796
368.80 1.794
368.90 1.792
369.00 1.79
369.10 1.789
369.20 1.787
369.30 1.785
369.40 1.784
369.50 1.782
369.60 1.78
369.70 1.778
369.80 1.777
369.90 1.775
370.00 1.773
370.10 1.772
370.20 1.77
370.30 1.768
370.40 1.767
370.50 1.765
370.60 1.763
370.70 1.762
370.80 1.76
370.90 1.759
371.00 1.757
371.10 1.755
371.20 1.754
371.30 1.752
371.40 1.751
371.50 1.749
371.60 1.747
371.70 1.746
371.80 1.744
371.90 1.742
372.00 1.741
372.10 1.74
372.20 1.738
372.30 1.737
372.40 1.736
372.50 1.734
372.60 1.733
372.70 1.732
372.80 1.731
372.90 1.729
373.00 1.728
373.10 1.727
373.20 1.725
373.30 1.724
373.40 1.723
373.50 1.722
373.60 1.72
373.70 1.719
373.80 1.718
373.90 1.717
374.00 1.715
374.10 1.714
374.20 1.713
374.30 1.712
374.40 1.711
374.50 1.711
374.60 1.71
374.70 1.709
374.80 1.708
374.90 1.707
375.00 1.706
375.10 1.705
375.20 1.704
375.30 1.703
375.40 1.702
375.50 1.701
375.60 1.7
375.70 1.699
375.80 1.698
375.90 1.697
376.00 1.696
376.10 1.695
376.20 1.693
376.30 1.691
376.40 1.689
376.50 1.687
376.60 1.686
376.70 1.684
376.80 1.682
376.90 1.68
377.00 1.679
377.10 1.679
377.20 1.68
377.30 1.681
377.40 1.681
377.50 1.682
377.60 1.683
377.70 1.683
377.80 1.684
377.90 1.685
378.00 1.685
378.10 1.684
378.20 1.682
378.30 1.68
378.40 1.679
378.50 1.677
378.60 1.675
378.70 1.674
378.80 1.672
378.90 1.67
379.00 1.669
379.10 1.666
379.20 1.664
379.30 1.662
379.40 1.66
379.50 1.657
379.60 1.655
379.70 1.653
379.80 1.651
379.90 1.649
380.00 1.646
380.10 1.649
380.20 1.652
380.30 1.655
380.40 1.658
380.50 1.661
380.60 1.664
380.70 1.667
380.80 1.67
380.90 1.673
381.00 1.676
381.10 1.676
381.20 1.676
381.30 1.676
381.40 1.676
381.50 1.675
381.60 1.673
381.70 1.671
381.80 1.668
381.90 1.664
382.00 1.66
382.10 1.656
382.20 1.65
382.30 1.642
382.40 1.634
382.50 1.625
382.60 1.617
382.70 1.609
382.80 1.601
382.90 1.592
383.00 1.584
383.10 1.576
383.20 1.568
383.30 1.558
383.40 1.548
383.50 1.54
383.60 1.542
383.70 1.551
383.80 1.561
383.90 1.571
384.00 1.581
384.10 1.592
384.20 1.602
384.30 1.611
384.40 1.62
384.50 1.629
384.60 1.637
384.70 1.645
384.80 1.652
384.90 1.658
385.00 1.664
385.10 1.669
385.20 1.674
385.30 1.678
385.40 1.681
385.50 1.683
385.60 1.685
385.70 1.686
385.80 1.687
385.90 1.686
386.00 1.685
386.10 1.683
386.20 1.68
386.30 1.677
386.40 1.672
386.50 1.668
386.60 1.661
386.70 1.655
386.80 1.647
386.90 1.639
387.00 1.629
387.10 1.62
387.20 1.609
387.30 1.597
387.40 1.585
387.50 1.571
387.60 1.557
387.70 1.543
387.80 1.527
387.90 1.511
388.00 1.494
388.10 1.476
388.20 1.459
388.30 1.44
388.40 1.422
388.50 1.403
388.60 1.384
388.70 1.366
388.80 1.351
388.90 1.338
389.00 1.349
389.10 1.363
389.20 1.38
389.30 1.399
389.40 1.417
389.50 1.435
389.60 1.453
389.70 1.471
389.80 1.489
389.90 1.506
390.00 1.522
390.10 1.538
390.20 1.554
390.30 1.569
390.40 1.583
390.50 1.597
390.60 1.61
390.70 1.623
390.80 1.634
390.90 1.646
391.00 1.656
391.10 1.666
391.20 1.675
391.30 1.684
391.40 1.692
391.50 1.699
391.60 1.706
391.70 1.712
391.80 1.718
391.90 1.723
392.00 1.727
392.10 1.73
392.20 1.733
392.30 1.735
392.40 1.737
392.50 1.738
392.60 1.738
392.70 1.737
392.80 1.736
392.90 1.734
393.00 1.732
393.10 1.729
393.20 1.725
393.30 1.721
393.40 1.716
393.50 1.709
393.60 1.703
393.70 1.696
393.80 1.688
393.90 1.679
394.00 1.67
394.10 1.659
394.20 1.648
394.30 1.637
394.40 1.625
394.50 1.612
394.60 1.598
394.70 1.583
394.80 1.568
394.90 1.553
395.00 1.536
395.10 1.518
395.20 1.501
395.30 1.482
395.40 1.462
395.50 1.443
395.60 1.422
395.70 1.401
395.80 1.379
395.90 1.356
396.00 1.333
396.10 1.31
396.20 1.286
396.30 1.261
396.40 1.236
396.50 1.21
396.60 1.184
396.70 1.157
396.80 1.128
396.90 1.097
397.00 1.065
397.10 1.093
397.20 1.121
397.30 1.149
397.40 1.175
397.50 1.2
397.60 1.225
397.70 1.248
397.80 1.272
397.90 1.295
398.00 1.317
398.10 1.339
398.20 1.36
398.30 1.38
398.40 1.4
398.50 1.42
398.60 1.439
398.70 1.458
398.80 1.476
398.90 1.493
399.00 1.51
399.10 1.526
399.20 1.541
399.30 1.557
399.40 1.571
399.50 1.585
399.60 1.599
399.70 1.612
399.80 1.624
399.90 1.636
400.00 1.648
400.10 1.659
400.20 1.669
400.30 1.679
400.40 1.689
400.50 1.698
400.60 1.707
400.70 1.715
400.80 1.723
400.90 1.73
401.00 1.737
401.10 1.744
401.20 1.75
401.30 1.756
401.40 1.761
401.50 1.766
401.60 1.771
401.70 1.775
401.80 1.779
401.90 1.783
402.00 1.786
402.10 1.789
402.20 1.792
402.30 1.794
402.40 1.796
402.50 1.798
402.60 1.799
402.70 1.8
402.80 1.801
402.90 1.802
403.00 1.802
403.10 1.802
403.20 1.801
403.30 1.801
403.40 1.8
403.50 1.798
403.60 1.797
403.70 1.795
403.80 1.793
403.90 1.79
404.00 1.788
404.10 1.785
404.20 1.781
404.30 1.778
404.40 1.774
404.50 1.769
404.60 1.765
404.70 1.76
404.80 1.755
404.90 1.749
405.00 1.743
405.10 1.737
405.20 1.731
405.30 1.724
405.40 1.717
405.50 1.709
405.60 1.701
405.70 1.693
405.80 1.684
405.90 1.675
406.00 1.666
406.10 1.656
406.20 1.646
406.30 1.636
406.40 1.625
406.50 1.613
406.60 1.602
406.70 1.589
406.80 1.577
406.90 1.564
407.00 1.55
407.10 1.536
407.20 1.522
407.30 1.507
407.40 1.492
407.50 1.477
407.60 1.461
407.70 1.444
407.80 1.427
407.90 1.409
408.00 1.392
408.10 1.373
408.20 1.354
408.30 1.335
408.40 1.316
408.50 1.295
408.60 1.275
408.70 1.254
408.80 1.232
408.90 1.21
409.00 1.188
409.10 1.165
409.20 1.141
409.30 1.118
409.40 1.093
409.50 1.068
409.60 1.042
409.70 1.015
409.80 0.9863
409.90 0.9564
410.00 0.9213
410.10 0.8919
410.20 0.8682
410.30 0.9041
410.40 0.9379
410.50 0.9696
410.60 0.9971
410.70 1.023
410.80 1.049
410.90 1.072
411.00 1.096
411.10 1.119
411.20 1.14
411.30 1.162
411.40 1.183
411.50 1.203
411.60 1.223
411.70 1.243
411.80 1.262
411.90 1.28
412.00 1.298
412.10 1.315
412.20 1.333
412.30 1.349
412.40 1.365
412.50 1.381
412.60 1.396
412.70 1.411
412.80 1.425
412.90 1.439
413.00 1.452
413.10 1.465
413.20 1.478
413.30 1.49
413.40 1.502
413.50 1.513
413.60 1.524
413.70 1.534
413.80 1.545
413.90 1.554
414.00 1.564
414.10 1.573
414.20 1.582
414.30 1.59
414.40 1.598
414.50 1.606
414.60 1.614
414.70 1.621
414.80 1.628
414.90 1.634
415.00 1.641
415.10 1.647
415.20 1.653
415.30 1.658
415.40 1.664
415.50 1.669
415.60 1.674
415.70 1.678
415.80 1.683
415.90 1.687
416.00 1.691
416.10 1.695
416.20 1.698
416.30 1.702
416.40 1.705
416.50 1.708
416.60 1.711
416.70 1.714
416.80 1.717
416.90 1.719
417.00 1.722
417.10 1.724
417.20 1.726
417.30 1.728
417.40 1.73
417.50 1.731
417.60 1.733
417.70 1.735
417.80 1.736
417.90 1.737
418.00 1.738
418.10 1.74
418.20 1.741
418.30 1.741
418.40 1.742
418.50 1.743
418.60 1.744
418.70 1.744
418.80 1.745
418.90 1.745
419.00 1.745
419.10 1.746
419.20 1.746
419.30 1.746
419.40 1.746
419.50 1.746
419.60 1.746
419.70 1.746
419.80 1.746
419.90 1.745
420.00 1.745
420.10 1.745
420.20 1.744
420.30 1.744
420.40 1.743
420.50 1.743
420.60 1.742
420.70 1.741
420.80 1.741
420.90 1.74
421.00 1.739
421.10 1.738
421.20 1.737
421.30 1.736
421.40 1.735
421.50 1.734
421.60 1.733
421.70 1.732
421.80 1.731
421.90 1.73
422.00 1.729
422.10 1.727
422.20 1.726
422.30 1.725
422.40 1.723
422.50 1.722
422.60 1.72
422.70 1.719
422.80 1.717
422.90 1.716
423.00 1.714
423.10 1.712
423.20 1.711
423.30 1.709
423.40 1.707
423.50 1.705
423.60 1.703
423.70 1.701
423.80 1.7
423.90 1.697
424.00 1.695
424.10 1.693
424.20 1.691
424.30 1.689
424.40 1.687
424.50 1.684
424.60 1.682
424.70 1.68
424.80 1.677
424.90 1.675
425.00 1.672
425.10 1.669
425.20 1.667
425.30 1.664
425.40 1.661
425.50 1.658
425.60 1.655
425.70 1.652
425.80 1.649
425.90 1.646
426.00 1.643
426.10 1.639
426.20 1.636
426.30 1.632
426.40 1.628
426.50 1.625
426.60 1.621
426.70 1.617
426.80 1.613
426.90 1.608
427.00 1.604
427.10 1.6
427.20 1.595
427.30 1.59
427.40 1.585
427.50 1.58
427.60 1.575
427.70 1.57
427.80 1.564
427.90 1.559
428.00 1.553
428.10 1.547
428.20 1.541
428.30 1.534
428.40 1.528
428.50 1.521
428.60 1.514
428.70 1.507
428.80 1.5
428.90 1.493
429.00 1.485
429.10 1.477
429.20 1.469
429.30 1.461
429.40 1.452
429.50 1.443
429.60 1.434
429.70 1.425
429.80 1.416
429.90 1.406
430.00 1.396
430.10 1.386
430.20 1.376
430.30 1.365
430.40 1.354
430.50 1.343
430.60 1.332
430.70 1.32
430.80 1.308
430.90 1.296
431.00 1.284
431.10 1.271
431.20 1.258
431.30 1.245
431.40 1.231
431.50 1.217
431.60 1.203
431.70 1.188
431.80 1.174
431.90 1.158
432.00 1.143
432.10 1.127
432.20 1.111
432.30 1.094
432.40 1.078
432.50 1.06
432.60 1.043
432.70 1.025
432.80 1.006
432.90 0.9878
433.00 0.9687
433.10 0.949
433.20 0.9289
433.30 0.9082
433.40 0.8865
433.50 0.8639
433.60 0.8404
433.70 0.8138
433.80 0.783
433.90 0.7482
434.00 0.685
434.10 0.6857
434.20 0.7502
434.30 0.7834
434.40 0.8127
434.50 0.8381
434.60 0.8604
434.70 0.8818
434.80 0.9022
434.90 0.9216
435.00 0.9404
435.10 0.9588
435.20 0.9764
435.30 0.9937
435.40 1.011
435.50 1.027
435.60 1.043
435.70 1.058
435.80 1.074
435.90 1.088
436.00 1.103
436.10 1.117
436.20 1.131
436.30 1.144
436.40 1.157
436.50 1.169
436.60 1.182
436.70 1.193
436.80 1.205
436.90 1.216
437.00 1.227
437.10 1.238
437.20 1.248
437.30 1.258
437.40 1.268
437.50 1.277
437.60 1.286
437.70 1.295
437.80 1.304
437.90 1.312
438.00 1.32
438.10 1.328
438.20 1.335
438.30 1.343
438.40 1.35
438.50 1.357
438.60 1.363
438.70 1.37
438.80 1.376
438.90 1.381
439.00 1.387
439.10 1.393
439.20 1.398
439.30 1.403
439.40 1.408
439.50 1.412
439.60 1.417
439.70 1.421
439.80 1.425
439.90 1.429
440.00 1.432
440.10 1.436
440.20 1.439
440.30 1.442
440.40 1.445
440.50 1.448
440.60 1.451
440.70 1.454
440.80 1.456
440.90 1.458
441.00 1.461
441.10 1.463
441.20 1.465
441.30 1.466
441.40 1.468
441.50 1.47
441.60 1.471
441.70 1.473
441.80 1.474
441.90 1.475
442.00 1.476
442.10 1.477
442.20 1.478
442.30 1.479
442.40 1.48
442.50 1.481
442.60 1.481
442.70 1.482
442.80 1.483
442.90 1.483
443.00 1.484
443.10 1.484
443.20 1.484
443.30 1.485
443.40 1.485
443.50 1.485
443.60 1.485
443.70 1.485
443.80 1.486
443.90 1.486
444.00 1.486
444.10 1.486
444.20 1.485
444.30 1.485
444.40 1.485
444.50 1.485
444.60 1.485
444.70 1.485
444.80 1.485
444.90 1.484
445.00 1.484
445.10 1.484
445.20 1.483
445.30 1.483
445.40 1.483
445.50 1.482
445.60 1.482
445.70 1.481
445.80 1.481
445.90 1.481
446.00 1.48
446.10 1.48
446.20 1.479
446.30 1.479
446.40 1.478
446.50 1.477
446.60 1.477
446.70 1.476
446.80 1.476
446.90 1.475
447.00 1.475
447.10 1.474
447.20 1.473
447.30 1.473
447.40 1.472
447.50 1.471
447.60 1.471
447.70 1.47
447.80 1.469
447.90 1.468
448.00 1.468
448.10 1.467
448.20 1.466
448.30 1.466
448.40 1.465
448.50 1.464
448.60 1.463
448.70 1.462
448.80 1.462
448.90 1.461
449.00 1.46
449.10 1.459
449.20 1.458
449.30 1.458
449.40 1.457
449.50 1.456
449.60 1.455
449.70 1.454
449.80 1.453
449.90 1.453
450.00 1.452
450.10 1.451
450.20 1.45
450.30 1.449
450.40 1.448
450.50 1.447
450.60 1.446
450.70 1.446
450.80 1.445
450.90 1.444
451.00 1.443
451.10 1.442
451.20 1.441
451.30 1.44
451.40 1.439
451.50 1.438
451.60 1.437
451.70 1.436
451.80 1.435
451.90 1.435
452.00 1.434
452.10 1.433
452.20 1.432
452.30 1.431
452.40 1.43
452.50 1.429
452.60 1.428
452.70 1.427
452.80 1.426
452.90 1.425
453.00 1.424
453.10 1.423
453.20 1.422
453.30 1.421
453.40 1.42
453.50 1.419
453.60 1.418
453.70 1.417
453.80 1.416
453.90 1.415
454.00 1.414
454.10 1.413
454.20 1.412
454.30 1.411
454.40 1.41
454.50 1.409
454.60 1.408
454.70 1.407
454.80 1.406
454.90 1.405
455.00 1.404
455.10 1.403
455.20 1.402
455.30 1.401
455.40 1.4
455.50 1.399
455.60 1.398
455.70 1.397
455.80 1.396
455.90 1.395
456.00 1.394
456.10 1.393
456.20 1.392
456.30 1.391
456.40 1.39
456.50 1.389
456.60 1.388
456.70 1.387
456.80 1.386
456.90 1.385
457.00 1.384
457.10 1.383
457.20 1.382
457.30 1.381
457.40 1.38
457.50 1.379
457.60 1.378
457.70 1.377
457.80 1.376
457.90 1.375
458.00 1.374
458.10 1.373
458.20 1.371
458.30 1.37
458.40 1.369
458.50 1.368
458.60 1.367
458.70 1.366
458.80 1.365
458.90 1.364
459.00 1.363
459.10 1.362
459.20 1.361
459.30 1.36
459.40 1.359
459.50 1.358
459.60 1.357
459.70 1.356
459.80 1.355
459.90 1.354
460.00 1.353
460.10 1.352
460.20 1.351
460.30 1.35
460.40 1.349
460.50 1.348
460.60 1.346
460.70 1.345
460.80 1.344
460.90 1.343
461.00 1.342
461.10 1.341
461.20 1.34
461.30 1.339
461.40 1.338
461.50 1.337
461.60 1.336
461.70 1.335
461.80 1.334
461.90 1.333
462.00 1.332
462.10 1.331
462.20 1.33
462.30 1.329
462.40 1.327
462.50 1.326
462.60 1.325
462.70 1.324
462.80 1.323
462.90 1.322
463.00 1.321
463.10 1.32
463.20 1.319
463.30 1.318
463.40 1.317
463.50 1.316
463.60 1.315
463.70 1.314
463.80 1.313
463.90 1.311
464.00 1.31
464.10 1.309
464.20 1.308
464.30 1.307
464.40 1.306
464.50 1.305
464.60 1.304
464.70 1.303
464.80 1.302
464.90 1.301
465.00 1.3
465.10 1.298
465.20 1.297
465.30 1.296
465.40 1.295
465.50 1.294
465.60 1.293
465.70 1.292
465.80 1.291
465.90 1.29
466.00 1.289
466.10 1.288
466.20 1.286
466.30 1.285
466.40 1.284
466.50 1.283
466.60 1.282
466.70 1.281
466.80 1.28
466.90 1.279
467.00 1.278
467.10 1.276
467.20 1.275
467.30 1.274
467.40 1.273
467.50 1.272
467.60 1.271
467.70 1.27
467.80 1.268
467.90 1.267
468.00 1.266
468.10 1.265
468.20 1.264
468.30 1.263
468.40 1.262
468.50 1.26
468.60 1.259
468.70 1.258
468.80 1.257
468.90 1.256
469.00 1.255
469.10 1.253
469.20 1.252
469.30 1.251
469.40 1.25
469.50 1.249
469.60 1.247
469.70 1.246
469.80 1.245
469.90 1.244
470.00 1.243
470.10 1.242
470.20 1.24
470.30 1.239
470.40 1.238
470.50 1.237
470.60 1.235
470.70 1.234
470.80 1.233
470.90 1.232
471.00 1.23
471.10 1.229
471.20 1.228
471.30 1.226
471.40 1.225
471.50 1.224
471.60 1.223
471.70 1.221
471.80 1.22
471.90 1.219
472.00 1.217
472.10 1.216
472.20 1.215
472.30 1.213
472.40 1.212
472.50 1.21
472.60 1.209
472.70 1.208
472.80 1.206
472.90 1.205
473.00 1.203
473.10 1.202
473.20 1.201
473.30 1.199
473.40 1.198
473.50 1.196
473.60 1.195
473.70 1.193
473.80 1.192
473.90 1.19
474.00 1.189
474.10 1.187
474.20 1.186
474.30 1.184
474.40 1.182
474.50 1.181
474.60 1.179
474.70 1.177
474.80 1.176
474.90 1.174
475.00 1.172
475.10 1.171
475.20 1.169
475.30 1.167
475.40 1.165
475.50 1.163
475.60 1.162
475.70 1.16
475.80 1.158
475.90 1.156
476.00 1.154
476.10 1.152
476.20 1.15
476.30 1.148
476.40 1.146
476.50 1.144
476.60 1.142
476.70 1.14
476.80 1.138
476.90 1.136
477.00 1.134
477.10 1.132
477.20 1.129
477.30 1.127
477.40 1.124
477.50 1.122
477.60 1.12
477.70 1.117
477.80 1.115
477.90 1.112
478.00 1.11
478.10 1.107
478.20 1.105
478.30 1.102
478.40 1.099
478.50 1.096
478.60 1.093
478.70 1.09
478.80 1.087
478.90 1.084
479.00 1.081
479.10 1.078
479.20 1.075
479.30 1.072
479.40 1.068
479.50 1.065
479.60 1.061
479.70 1.057
479.80 1.054
479.90 1.05
480.00 1.047
480.10 1.043
480.20 1.039
480.30 1.035
480.40 1.031
480.50 1.026
480.60 1.022
480.70 1.018
480.80 1.013
480.90 1.009
481.00 1.005
481.10 1
481.20 0.9951
481.30 0.9896
481.40 0.9842
481.50 0.9788
481.60 0.9733
481.70 0.9679
481.80 0.9625
481.90 0.9571
482.00 0.9516
482.10 0.9462
482.20 0.9399
482.30 0.9331
482.40 0.9263
482.50 0.9195
482.60 0.9127
482.70 0.906
482.80 0.8992
482.90 0.8924
483.00 0.8857
483.10 0.8789
483.20 0.871
483.30 0.8626
483.40 0.8542
483.50 0.8458
483.60 0.8374
483.70 0.829
483.80 0.8206
483.90 0.8122
484.00 0.8038
484.10 0.7955
484.20 0.7861
484.30 0.7763
484.40 0.7664
484.50 0.7566
484.60 0.7468
484.70 0.7362
484.80 0.7252
484.90 0.7142
485.00 0.7032
485.10 0.6922
485.20 0.6804
485.30 0.6682
485.40 0.6552
485.50 0.6419
485.60 0.6272
485.70 0.6117
485.80 0.5921
485.90 0.5704
486.00 0.5389
486.10 0.4654
486.20 0.4993
486.30 0.5516
486.40 0.5759
486.50 0.5972
486.60 0.614
486.70 0.6288
486.80 0.642
486.90 0.6545
487.00 0.6662
487.10 0.6775
487.20 0.688
487.30 0.6981
487.40 0.7082
487.50 0.7182
487.60 0.7283
487.70 0.7375
487.80 0.7462
487.90 0.7549
488.00 0.7636
488.10 0.7724
488.20 0.78
488.30 0.7872
488.40 0.7943
488.50 0.8015
488.60 0.8086
488.70 0.8158
488.80 0.8229
488.90 0.83
489.00 0.8372
489.10 0.8443
489.20 0.8502
489.30 0.8555
489.40 0.8609
489.50 0.8662
489.60 0.8716
489.70 0.8769
489.80 0.8822
489.90 0.8876
490.00 0.8929
490.10 0.8982
490.20 0.9025
490.30 0.9064
490.40 0.9102
490.50 0.9141
490.60 0.918
490.70 0.9218
490.80 0.9257
490.90 0.9295
491.00 0.9333
491.10 0.9372
491.20 0.9402
491.30 0.9429
491.40 0.9456
491.50 0.9483
491.60 0.951
491.70 0.9537
491.80 0.9564
491.90 0.9591
492.00 0.9618
492.10 0.9644
492.20 0.9665
492.30 0.9683
492.40 0.9701
492.50 0.972
492.60 0.9738
492.70 0.9756
492.80 0.9774
492.90 0.9792
493.00 0.981
493.10 0.9828
493.20 0.9842
493.30 0.9853
493.40 0.9865
493.50 0.9877
493.60 0.9888
493.70 0.99
493.80 0.9911
493.90 0.9923
494.00 0.9934
494.10 0.9946
494.20 0.9954
494.30 0.9961
494.40 0.9968
494.50 0.9975
494.60 0.9982
494.70 0.9989
494.80 0.9995
494.90 1
495.00 1.001
495.10 1.002
495.20 1.002
495.30 1.002
495.40 1.003
495.50 1.003
495.60 1.003
495.70 1.004
495.80 1.004
495.90 1.004
496.00 1.005
496.10 1.005
496.20 1.005
496.30 1.005
496.40 1.005
496.50 1.006
496.60 1.006
496.70 1.006
496.80 1.006
496.90 1.006
497.00 1.006
497.10 1.006
497.20 1.006
497.30 1.006
497.40 1.006
497.50 1.006
497.60 1.006
497.70 1.006
497.80 1.005
497.90 1.005
498.00 1.005
498.10 1.005
498.20 1.005
498.30 1.005
498.40 1.005
498.50 1.004
498.60 1.004
498.70 1.004
498.80 1.004
498.90 1.003
499.00 1.003
499.10 1.003
499.20 1.003
499.30 1.002
499.40 1.002
499.50 1.002
499.60 1.001
499.70 1.001
499.80 1.001
499.90 1
500.00 1
500.10 0.9997
500.20 0.9993
500.30 0.9989
500.40 0.9985
500.50 0.9981
500.60 0.9977
500.70 0.9973
500.80 0.9969
500.90 0.9965
501.00 0.9961
501.10 0.9957
501.20 0.9952
501.30 0.9948
501.40 0.9943
501.50 0.9939
501.60 0.9934
501.70 0.993
501.80 0.9925
501.90 0.9921
502.00 0.9916
502.10 0.9911
502.20 0.9907
502.30 0.9902
502.40 0.9897
502.50 0.9892
502.60 0.9887
502.70 0.9882
502.80 0.9877
502.90 0.9872
503.00 0.9867
503.10 0.9862
503.20 0.9857
503.30 0.9851
503.40 0.9846
503.50 0.9841
503.60 0.9836
503.70 0.983
503.80 0.9825
503.90 0.982
504.00 0.9814
504.10 0.9809
504.20 0.9804
504.30 0.9798
504.40 0.9793
504.50 0.9787
504.60 0.9782
504.70 0.9776
504.80 0.9771
504.90 0.9765
505.00 0.976
505.10 0.9754
505.20 0.9749
505.30 0.9743
505.40 0.9737
505.50 0.9732
505.60 0.9726
505.70 0.972
505.80 0.9714
505.90 0.9709
506.00 0.9703
506.10 0.9697
506.20 0.9692
506.30 0.9686
506.40 0.968
506.50 0.9674
506.60 0.9668
506.70 0.9663
506.80 0.9657
506.90 0.9651
507.00 0.9645
507.10 0.9639
507.20 0.9634
507.30 0.9628
507.40 0.9622
507.50 0.9616
507.60 0.961
507.70 0.9604
507.80 0.9598
507.90 0.9592
508.00 0.9587
508.10 0.9581
508.20 0.9575
508.30 0.9569
508.40 0.9563
508.50 0.9557
508.60 0.9551
508.70 0.9545
508.80 0.9539
508.90 0.9533
509.00 0.9527
509.10 0.9521
509.20 0.9515
509.30 0.9509
509.40 0.9503
509.50 0.9497
509.60 0.9491
509.70 0.9485
509.80 0.9479
509.90 0.9473
510.00 0.9467
510.10 0.9461
510.20 0.9455
510.30 0.9449
510.40 0.9443
510.50 0.9437
510.60 0.9431
510.70 0.9425
510.80 0.9419
510.90 0.9413
511.00 0.9407
511.10 0.9401
511.20 0.9395
511.30 0.9389
511.40 0.9383
511.50 0.9377
511.60 0.9371
511.70 0.9365
511.80 0.9359
511.90 0.9352
512.00 0.9346
512.10 0.934
512.20 0.9334
512.30 0.9328
512.40 0.9322
512.50 0.9316
512.60 0.931
512.70 0.9304
512.80 0.9298
512.90 0.9292
513.00 0.9286
513.10 0.928
513.20 0.9274
513.30 0.9268
513.40 0.9262
513.50 0.9256
513.60 0.925
513.70 0.9244
513.80 0.9238
513.90 0.9232
514.00 0.9226
514.10 0.922
514.20 0.9214
514.30 0.9208
514.40 0.9202
514.50 0.9196
514.60 0.919
514.70 0.9184
514.80 0.9178
514.90 0.9172
515.00 0.9166
515.10 0.916
515.20 0.9154
515.30 0.9147
515.40 0.9141
515.50 0.9135
515.60 0.9129
515.70 0.9123
515.80 0.9117
515.90 0.9111
516.00 0.9105
516.10 0.9099
516.20 0.9093
516.30 0.9087
516.40 0.9082
516.50 0.9076
516.60 0.907
516.70 0.9064
516.80 0.9058
516.90 0.9052
517.00 0.9046
517.10 0.904
517.20 0.9034
517.30 0.9028
517.40 0.9022
517.50 0.9016
517.60 0.901
517.70 0.9004
517.80 0.8998
517.90 0.8992
518.00 0.8986
518.10 0.898
518.20 0.8974
518.30 0.8968
518.40 0.8962
518.50 0.8956
518.60 0.8951
518.70 0.8945
518.80 0.8939
518.90 0.8933
519.00 0.8927
519.10 0.8921
519.20 0.8915
519.30 0.8909
519.40 0.8903
519.50 0.8897
519.60 0.8891
519.70 0.8886
519.80 0.888
519.90 0.8874
520.00 0.8868
520.10 0.8862
520.20 0.8856
520.30 0.885
520.40 0.8844
520.50 0.8839
520.60 0.8833
520.70 0.8827
520.80 0.8821
520.90 0.8815
521.00 0.8809
521.10 0.8803
521.20 0.8798
521.30 0.8792
521.40 0.8786
521.50 0.878
521.60 0.8774
521.70 0.8769
521.80 0.8763
521.90 0.8757
522.00 0.8751
522.10 0.8745
522.20 0.8739
522.30 0.8734
522.40 0.8728
522.50 0.8722
522.60 0.8716
522.70 0.8711
522.80 0.8705
522.90 0.8699
523.00 0.8693
523.10 0.8688
523.20 0.8682
523.30 0.8676
523.40 0.867
523.50 0.8665
523.60 0.8659
523.70 0.8653
523.80 0.8647
523.90 0.8642
524.00 0.8636
524.10 0.863
524.20 0.8624
524.30 0.8619
524.40 0.8613
524.50 0.8607
524.60 0.8602
524.70 0.8596
524.80 0.859
524.90 0.8584
525.00 0.8579
525.10 0.8573
525.20 0.8567
525.30 0.8562
525.40 0.8556
525.50 0.855
525.60 0.8545
525.70 0.8539
525.80 0.8533
525.90 0.8528
526.00 0.8522
526.10 0.8516
526.20 0.8511
526.30 0.8505
526.40 0.85
526.50 0.8494
526.60 0.8488
526.70 0.8483
526.80 0.8477
526.90 0.8471
527.00 0.8466
527.10 0.846
527.20 0.8455
527.30 0.8449
527.40 0.8443
527.50 0.8438
527.60 0.8432
527.70 0.8427
527.80 0.8421
527.90 0.8416
528.00 0.841
528.10 0.8404
528.20 0.8399
528.30 0.8393
528.40 0.8388
528.50 0.8382
528.60 0.8377
528.70 0.8371
528.80 0.8366
528.90 0.836
529.00 0.8354
529.10 0.8349
529.20 0.8343
529.30 0.8338
529.40 0.8332
529.50 0.8327
529.60 0.8321
529.70 0.8316
529.80 0.831
529.90 0.8305
530.00 0.8299
530.10 0.8294
530.20 0.8289
530.30 0.8283
530.40 0.8278
530.50 0.8272
530.60 0.8267
530.70 0.8261
530.80 0.8256
530.90 0.825
531.00 0.8245
531.10 0.8239
531.20 0.8234
531.30 0.8229
531.40 0.8223
531.50 0.8218
531.60 0.8212
531.70 0.8207
531.80 0.8201
531.90 0.8196
532.00 0.8191
532.10 0.8185
532.20 0.818
532.30 0.8174
532.40 0.8169
532.50 0.8164
532.60 0.8158
532.70 0.8153
532.80 0.8148
532.90 0.8142
533.00 0.8137
533.10 0.8132
533.20 0.8126
533.30 0.8121
533.40 0.8115
533.50 0.811
533.60 0.8105
533.70 0.8099
533.80 0.8094
533.90 0.8089
534.00 0.8083
534.10 0.8078
534.20 0.8073
534.30 0.8068
534.40 0.8062
534.50 0.8057
534.60 0.8052
534.70 0.8046
534.80 0.8041
534.90 0.8036
535.00 0.8031
535.10 0.8025
535.20 0.802
535.30 0.8015
535.40 0.8009
535.50 0.8004
535.60 0.7999
535.70 0.7994
535.80 0.7988
535.90 0.7983
536.00 0.7978
536.10 0.7973
536.20 0.7968
536.30 0.7962
536.40 0.7957
536.50 0.7952
536.60 0.7947
536.70 0.7941
536.80 0.7936
536.90 0.7931
537.00 0.7926
537.10 0.7921
537.20 0.7915
537.30 0.791
537.40 0.7905
537.50 0.79
537.60 0.7895
537.70 0.789
537.80 0.7884
537.90 0.7879
538.00 0.7874
538.10 0.7869
538.20 0.7864
538.30 0.7859
538.40 0.7854
538.50 0.7848
538.60 0.7843
538.70 0.7838
538.80 0.7833
538.90 0.7828
539.00 0.7823
539.10 0.7818
539.20 0.7813
539.30 0.7807
539.40 0.7802
539.50 0.7797
539.60 0.7792
539.70 0.7787
539.80 0.7782
539.90 0.7777
540.00 0.7772
540.10 0.7767
540.20 0.7762
540.30 0.7757
540.40 0.7752
540.50 0.7747
540.60 0.7742
540.70 0.7736
540.80 0.7731
540.90 0.7726
541.00 0.7721
541.10 0.7716
541.20 0.7711
541.30 0.7706
541.40 0.7701
541.50 0.7696
541.60 0.7691
541.70 0.7686
541.80 0.7681
541.90 0.7676
542.00 0.7671
542.10 0.7666
542.20 0.7661
542.30 0.7656
542.40 0.7651
542.50 0.7646
542.60 0.7641
542.70 0.7636
542.80 0.7631
542.90 0.7626
543.00 0.7622
543.10 0.7617
543.20 0.7612
543.30 0.7607
543.40 0.7602
543.50 0.7597
543.60 0.7592
543.70 0.7587
543.80 0.7582
543.90 0.7577
544.00 0.7572
544.10 0.7567
544.20 0.7562
544.30 0.7557
544.40 0.7553
544.50 0.7548
544.60 0.7543
544.70 0.7538
544.80 0.7533
544.90 0.7528
545.00 0.7523
545.10 0.7518
545.20 0.7513
545.30 0.7509
545.40 0.7504
545.50 0.7499
545.60 0.7494
545.70 0.7489
545.80 0.7484
545.90 0.748
546.00 0.7475
546.10 0.747
546.20 0.7465
546.30 0.746
546.40 0.7455
546.50 0.7451
546.60 0.7446
546.70 0.7441
546.80 0.7436
546.90 0.7431
547.00 0.7427
547.10 0.7422
547.20 0.7417
547.30 0.7412
547.40 0.7407
547.50 0.7403
547.60 0.7398
547.70 0.7393
547.80 0.7388
547.90 0.7383
548.00 0.7379
548.10 0.7374
548.20 0.7369
548.30 0.7364
548.40 0.736
548.50 0.7355
548.60 0.735
548.70 0.7345
548.80 0.7341
548.90 0.7336
549.00 0.7331
549.10 0.7327
549.20 0.7322
549.30 0.7317
549.40 0.7312
549.50 0.7308
549.60 0.7303
549.70 0.7298
549.80 0.7294
549.90 0.7289
550.00 0.7284
550.10 0.728
550.20 0.7275
550.30 0.727
550.40 0.7266
550.50 0.7261
550.60 0.7256
550.70 0.7252
550.80 0.7247
550.90 0.7242
551.00 0.7238
551.10 0.7233
551.20 0.7228
551.30 0.7224
551.40 0.7219
551.50 0.7214
551.60 0.721
551.70 0.7205
551.80 0.7201
551.90 0.7196
552.00 0.7191
552.10 0.7187
552.20 0.7182
552.30 0.7177
552.40 0.7173
552.50 0.7168
552.60 0.7164
552.70 0.7159
552.80 0.7155
552.90 0.715
553.00 0.7145
553.10 0.7141
553.20 0.7136
553.30 0.7132
553.40 0.7127
553.50 0.7123
553.60 0.7118
553.70 0.7113
553.80 0.7109
553.90 0.7104
554.00 0.71
554.10 0.7095
554.20 0.7091
554.30 0.7086
554.40 0.7082
554.50 0.7077
554.60 0.7073
554.70 0.7068
554.80 0.7064
554.90 0.7059
555.00 0.7055
555.10 0.705
555.20 0.7046
555.30 0.7041
555.40 0.7037
555.50 0.7032
555.60 0.7028
555.70 0.7023
555.80 0.7019
555.90 0.7014
556.00 0.701
556.10 0.7005
556.20 0.7001
556.30 0.6996
556.40 0.6992
556.50 0.6987
556.60 0.6983
556.70 0.6979
556.80 0.6974
556.90 0.697
557.00 0.6965
557.10 0.6961
557.20 0.6956
557.30 0.6952
557.40 0.6948
557.50 0.6943
557.60 0.6939
557.70 0.6934
557.80 0.693
557.90 0.6926
558.00 0.6921
558.10 0.6917
558.20 0.6912
558.30 0.6908
558.40 0.6904
558.50 0.6899
558.60 0.6895
558.70 0.689
558.80 0.6886
558.90 0.6882
559.00 0.6877
559.10 0.6873
559.20 0.6869
559.30 0.6864
559.40 0.686
559.50 0.6856
559.60 0.6851
559.70 0.6847
559.80 0.6843
559.90 0.6838
560.00 0.6834
560.10 0.683
560.20 0.6825
560.30 0.6821
560.40 0.6817
560.50 0.6812
560.60 0.6808
560.70 0.6804
560.80 0.6799
560.90 0.6795
561.00 0.6791
561.10 0.6786
561.20 0.6782
561.30 0.6778
561.40 0.6774
561.50 0.6769
561.60 0.6765
561.70 0.6761
561.80 0.6756
561.90 0.6752
562.00 0.6748
562.10 0.6744
562.20 0.6739
562.30 0.6735
562.40 0.6731
562.50 0.6727
562.60 0.6722
562.70 0.6718
562.80 0.6714
562.90 0.671
563.00 0.6706
563.10 0.6701
563.20 0.6697
563.30 0.6693
563.40 0.6689
563.50 0.6684
563.60 0.668
563.70 0.6676
563.80 0.6672
563.90 0.6668
564.00 0.6663
564.10 0.6659
564.20 0.6655
564.30 0.6651
564.40 0.6647
564.50 0.6643
564.60 0.6638
564.70 0.6634
564.80 0.663
564.90 0.6626
565.00 0.6622
565.10 0.6617
565.20 0.6613
565.30 0.6609
565.40 0.6605
565.50 0.6601
565.60 0.6597
565.70 0.6593
565.80 0.6588
565.90 0.6584
566.00 0.658
566.10 0.6576
566.20 0.6572
566.30 0.6568
566.40 0.6564
566.50 0.656
566.60 0.6555
566.70 0.6551
566.80 0.6547
566.90 0.6543
567.00 0.6539
567.10 0.6535
567.20 0.6531
567.30 0.6527
567.40 0.6523
567.50 0.6519
567.60 0.6515
567.70 0.651
567.80 0.6506
567.90 0.6502
568.00 0.6498
568.10 0.6494
568.20 0.649
568.30 0.6486
568.40 0.6482
568.50 0.6478
568.60 0.6474
568.70 0.647
568.80 0.6466
568.90 0.6462
569.00 0.6458
569.10 0.6454
569.20 0.645
569.30 0.6446
569.40 0.6442
569.50 0.6438
569.60 0.6434
569.70 0.643
569.80 0.6426
569.90 0.6422
570.00 0.6418
570.10 0.6414
570.20 0.641
570.30 0.6406
570.40 0.6402
570.50 0.6398
570.60 0.6394
570.70 0.639
570.80 0.6386
570.90 0.6382
571.00 0.6378
571.10 0.6374
571.20 0.637
571.30 0.6366
571.40 0.6362
571.50 0.6358
571.60 0.6354
571.70 0.635
571.80 0.6346
571.90 0.6342
572.00 0.6338
572.10 0.6334
572.20 0.633
572.30 0.6326
572.40 0.6322
572.50 0.6318
572.60 0.6315
572.70 0.6311
572.80 0.6307
572.90 0.6303
573.00 0.6299
573.10 0.6295
573.20 0.6291
573.30 0.6287
573.40 0.6283
573.50 0.6279
573.60 0.6275
573.70 0.6272
573.80 0.6268
573.90 0.6264
574.00 0.626
574.10 0.6256
574.20 0.6252
574.30 0.6248
574.40 0.6244
574.50 0.6241
574.60 0.6237
574.70 0.6233
574.80 0.6229
574.90 0.6225
575.00 0.6221
575.10 0.6217
575.20 0.6214
575.30 0.621
575.40 0.6206
575.50 0.6202
575.60 0.6198
575.70 0.6194
575.80 0.6191
575.90 0.6187
576.00 0.6183
576.10 0.6179
576.20 0.6175
576.30 0.6171
576.40 0.6168
576.50 0.6164
576.60 0.616
576.70 0.6156
576.80 0.6152
576.90 0.6149
577.00 0.6145
577.10 0.6141
577.20 0.6137
577.30 0.6133
577.40 0.613
577.50 0.6126
577.60 0.6122
577.70 0.6118
577.80 0.6115
577.90 0.6111
578.00 0.6107
578.10 0.6103
578.20 0.61
578.30 0.6096
578.40 0.6092
578.50 0.6088
578.60 0.6085
578.70 0.6081
578.80 0.6077
578.90 0.6073
579.00 0.607
579.10 0.6066
579.20 0.6062
579.30 0.6058
579.40 0.6055
579.50 0.6051
579.60 0.6047
579.70 0.6043
579.80 0.604
579.90 0.6036
580.00 0.6032
580.10 0.6029
580.20 0.6025
580.30 0.6021
580.40 0.6018
580.50 0.6014
580.60 0.601
580.70 0.6006
580.80 0.6003
580.90 0.5999
581.00 0.5995
581.10 0.5992
581.20 0.5988
581.30 0.5984
581.40 0.5981
581.50 0.5977
581.60 0.5973
581.70 0.597
581.80 0.5966
581.90 0.5962
582.00 0.5959
582.10 0.5955
582.20 0.5951
582.30 0.5948
582.40 0.5944
582.50 0.5941
582.60 0.5937
582.70 0.5933
582.80 0.593
582.90 0.5926
583.00 0.5922
583.10 0.5919
583.20 0.5915
583.30 0.5912
583.40 0.5908
583.50 0.5904
583.60 0.5901
583.70 0.5897
583.80 0.5894
583.90 0.589
584.00 0.5886
584.10 0.5883
584.20 0.5879
584.30 0.5876
584.40 0.5872
584.50 0.5868
584.60 0.5865
584.70 0.5861
584.80 0.5858
584.90 0.5854
585.00 0.585
585.10 0.5847
585.20 0.5843
585.30 0.584
585.40 0.5836
585.50 0.5833
585.60 0.5829
585.70 0.5826
585.80 0.5822
585.90 0.5818
586.00 0.5815
586.10 0.5811
586.20 0.5808
586.30 0.5804
586.40 0.5801
586.50 0.5797
586.60 0.5794
586.70 0.579
586.80 0.5787
586.90 0.5783
587.00 0.578
587.10 0.5776
587.20 0.5773
587.30 0.5769
587.40 0.5766
587.50 0.5762
587.60 0.5759
587.70 0.5755
587.80 0.5752
587.90 0.5748
588.00 0.5745
588.10 0.5741
588.20 0.5738
588.30 0.5734
588.40 0.5731
588.50 0.5727
588.60 0.5724
588.70 0.572
588.80 0.5717
588.90 0.5713
589.00 0.571
589.10 0.5706
589.20 0.5703
589.30 0.57
589.40 0.5696
589.50 0.5693
589.60 0.5689
589.70 0.5686
589.80 0.5682
589.90 0.5679
590.00 0.5675
590.10 0.5672
590.20 0.5668
590.30 0.5665
590.40 0.5662
590.50 0.5658
590.60 0.5655
590.70 0.5651
590.80 0.5648
590.90 0.5645
591.00 0.5641
591.10 0.5638
591.20 0.5634
591.30 0.5631
591.40 0.5628
591.50 0.5624
591.60 0.5621
591.70 0.5617
591.80 0.5614
591.90 0.5611
592.00 0.5607
592.10 0.5604
592.20 0.56
592.30 0.5597
592.40 0.5594
592.50 0.559
592.60 0.5587
592.70 0.5583
592.80 0.558
592.90 0.5577
593.00 0.5573
593.10 0.557
593.20 0.5567
593.30 0.5563
593.40 0.556
593.50 0.5557
593.60 0.5553
593.70 0.555
593.80 0.5547
593.90 0.5543
594.00 0.554
594.10 0.5537
594.20 0.5533
594.30 0.553
594.40 0.5527
594.50 0.5523
594.60 0.552
594.70 0.5517
594.80 0.5513
594.90 0.551
595.00 0.5507
595.10 0.5503
595.20 0.55
595.30 0.5497
595.40 0.5493
595.50 0.549
595.60 0.5487
595.70 0.5484
595.80 0.548
595.90 0.5477
596.00 0.5474
596.10 0.547
596.20 0.5467
596.30 0.5464
596.40 0.5461
596.50 0.5457
596.60 0.5454
596.70 0.5451
596.80 0.5447
596.90 0.5444
597.00 0.5441
597.10 0.5438
597.20 0.5434
597.30 0.5431
597.40 0.5428
597.50 0.5425
597.60 0.5421
597.70 0.5418
597.80 0.5415
597.90 0.5412
598.00 0.5408
598.10 0.5405
598.20 0.5402
598.30 0.5399
598.40 0.5395
598.50 0.5392
598.60 0.5389
598.70 0.5386
598.80 0.5383
598.90 0.5379
599.00 0.5376
599.10 0.5373
599.20 0.537
599.30 0.5366
599.40 0.5363
599.50 0.536
599.60 0.5357
599.70 0.5354
599.80 0.535
599.90 0.5347
600.00 0.5344
600.10 0.5341
600.20 0.5338
600.30 0.5334
600.40 0.5331
600.50 0.5328
600.60 0.5325
600.70 0.5322
600.80 0.5318
600.90 0.5315
601.00 0.5312
601.10 0.5309
601.20 0.5306
601.30 0.5303
601.40 0.5299
601.50 0.5296
601.60 0.5293
601.70 0.529
601.80 0.5287
601.90 0.5284
602.00 0.5281
602.10 0.5277
602.20 0.5274
602.30 0.5271
602.40 0.5268
602.50 0.5265
602.60 0.5262
602.70 0.5259
602.80 0.5255
602.90 0.5252
603.00 0.5249
603.10 0.5246
603.20 0.5243
603.30 0.524
603.40 0.5237
603.50 0.5234
603.60 0.523
603.70 0.5227
603.80 0.5224
603.90 0.5221
604.00 0.5218
604.10 0.5215
604.20 0.5212
604.30 0.5209
604.40 0.5206
604.50 0.5202
604.60 0.5199
604.70 0.5196
604.80 0.5193
604.90 0.519
605.00 0.5187
605.10 0.5184
605.20 0.5181
605.30 0.5178
605.40 0.5175
605.50 0.5172
605.60 0.5169
605.70 0.5166
605.80 0.5162
605.90 0.5159
606.00 0.5156
606.10 0.5153
606.20 0.515
606.30 0.5147
606.40 0.5144
606.50 0.5141
606.60 0.5138
606.70 0.5135
606.80 0.5132
606.90 0.5129
607.00 0.5126
607.10 0.5123
607.20 0.512
607.30 0.5117
607.40 0.5114
607.50 0.5111
607.60 0.5108
607.70 0.5105
607.80 0.5102
607.90 0.5098
608.00 0.5095
608.10 0.5092
608.20 0.5089
608.30 0.5086
608.40 0.5083
608.50 0.508
608.60 0.5077
608.70 0.5074
608.80 0.5071
608.90 0.5068
609.00 0.5065
609.10 0.5062
609.20 0.5059
609.30 0.5056
609.40 0.5053
609.50 0.505
609.60 0.5047
609.70 0.5044
609.80 0.5041
609.90 0.5038
610.00 0.5035
610.10 0.5032
610.20 0.5029
610.30 0.5027
610.40 0.5024
610.50 0.5021
610.60 0.5018
610.70 0.5015
610.80 0.5012
610.90 0.5009
611.00 0.5006
611.10 0.5003
611.20 0.5
611.30 0.4997
611.40 0.4994
611.50 0.4991
611.60 0.4988
611.70 0.4985
611.80 0.4982
611.90 0.4979
612.00 0.4976
612.10 0.4973
612.20 0.497
612.30 0.4967
612.40 0.4964
612.50 0.4962
612.60 0.4959
612.70 0.4956
612.80 0.4953
612.90 0.495
613.00 0.4947
613.10 0.4944
613.20 0.4941
613.30 0.4938
613.40 0.4935
613.50 0.4932
613.60 0.4929
613.70 0.4926
613.80 0.4924
613.90 0.4921
614.00 0.4918
614.10 0.4915
614.20 0.4912
614.30 0.4909
614.40 0.4906
614.50 0.4903
614.60 0.49
614.70 0.4897
614.80 0.4895
614.90 0.4892
615.00 0.4889
615.10 0.4886
615.20 0.4883
615.30 0.488
615.40 0.4877
615.50 0.4874
615.60 0.4871
615.70 0.4869
615.80 0.4866
615.90 0.4863
616.00 0.486
616.10 0.4857
616.20 0.4854
616.30 0.4851
616.40 0.4849
616.50 0.4846
616.60 0.4843
616.70 0.484
616.80 0.4837
616.90 0.4834
617.00 0.4831
617.10 0.4829
617.20 0.4826
617.30 0.4823
617.40 0.482
617.50 0.4817
617.60 0.4814
617.70 0.4811
617.80 0.4809
617.90 0.4806
618.00 0.4803
618.10 0.48
618.20 0.4797
618.30 0.4794
618.40 0.4792
618.50 0.4789
618.60 0.4786
618.70 0.4783
618.80 0.478
618.90 0.4777
619.00 0.4775
619.10 0.4772
619.20 0.4769
619.30 0.4766
619.40 0.4763
619.50 0.4761
619.60 0.4758
619.70 0.4755
619.80 0.4752
619.90 0.4749
620.00 0.4747
620.10 0.4744
620.20 0.4741
620.30 0.4738
620.40 0.4735
620.50 0.4732
620.60 0.473
620.70 0.4727
620.80 0.4724
620.90 0.4721
621.00 0.4718
621.10 0.4716
621.20 0.4713
621.30 0.471
621.40 0.4707
621.50 0.4705
621.60 0.4702
621.70 0.4699
621.80 0.4696
621.90 0.4693
622.00 0.4691
622.10 0.4688
622.20 0.4685
622.30 0.4682
622.40 0.468
622.50 0.4677
622.60 0.4674
622.70 0.4671
622.80 0.4668
622.90 0.4666
623.00 0.4663
623.10 0.466
623.20 0.4657
623.30 0.4655
623.40 0.4652
623.50 0.4649
623.60 0.4646
623.70 0.4644
623.80 0.4641
623.90 0.4638
624.00 0.4635
624.10 0.4633
624.20 0.463
624.30 0.4627
624.40 0.4624
624.50 0.4622
624.60 0.4619
624.70 0.4616
624.80 0.4613
624.90 0.4611
625.00 0.4608
625.10 0.4605
625.20 0.4602
625.30 0.46
625.40 0.4597
625.50 0.4594
625.60 0.4591
625.70 0.4589
625.80 0.4586
625.90 0.4583
626.00 0.458
626.10 0.4578
626.20 0.4575
626.30 0.4572
626.40 0.4569
626.50 0.4567
626.60 0.4564
626.70 0.4561
626.80 0.4558
626.90 0.4556
627.00 0.4553
627.10 0.455
627.20 0.4548
627.30 0.4545
627.40 0.4542
627.50 0.4539
627.60 0.4537
627.70 0.4534
627.80 0.4531
627.90 0.4528
628.00 0.4526
628.10 0.4523
628.20 0.452
628.30 0.4518
628.40 0.4515
628.50 0.4512
628.60 0.4509
628.70 0.4507
628.80 0.4504
628.90 0.4501
629.00 0.4498
629.10 0.4496
629.20 0.4493
629.30 0.449
629.40 0.4488
629.50 0.4485
629.60 0.4482
629.70 0.4479
629.80 0.4477
629.90 0.4474
630.00 0.4471
630.10 0.4468
630.20 0.4466
630.30 0.4463
630.40 0.446
630.50 0.4458
630.60 0.4455
630.70 0.4452
630.80 0.4449
630.90 0.4447
631.00 0.4444
631.10 0.4441
631.20 0.4438
631.30 0.4436
631.40 0.4433
631.50 0.443
631.60 0.4428
631.70 0.4425
631.80 0.4422
631.90 0.4419
632.00 0.4417
632.10 0.4414
632.20 0.4411
632.30 0.4408
632.40 0.4406
632.50 0.4403
632.60 0.44
632.70 0.4397
632.80 0.4395
632.90 0.4392
633.00 0.4389
633.10 0.4386
633.20 0.4384
633.30 0.4381
633.40 0.4378
633.50 0.4375
633.60 0.4373
633.70 0.437
633.80 0.4367
633.90 0.4364
634.00 0.4362
634.10 0.4359
634.20 0.4356
634.30 0.4353
634.40 0.435
634.50 0.4348
634.60 0.4345
634.70 0.4342
634.80 0.4339
634.90 0.4337
635.00 0.4334
635.10 0.4331
635.20 0.4328
635.30 0.4325
635.40 0.4323
635.50 0.432
635.60 0.4317
635.70 0.4314
635.80 0.4311
635.90 0.4308
636.00 0.4306
636.10 0.4303
636.20 0.43
636.30 0.4297
636.40 0.4294
636.50 0.4291
636.60 0.4289
636.70 0.4286
636.80 0.4283
636.90 0.428
637.00 0.4277
637.10 0.4274
637.20 0.4271
637.30 0.4268
637.40 0.4266
637.50 0.4263
637.60 0.426
637.70 0.4257
637.80 0.4254
637.90 0.4251
638.00 0.4248
638.10 0.4245
638.20 0.4242
638.30 0.4239
638.40 0.4236
638.50 0.4233
638.60 0.423
638.70 0.4227
638.80 0.4224
638.90 0.4221
639.00 0.4218
639.10 0.4215
639.20 0.4212
639.30 0.4209
639.40 0.4206
639.50 0.4203
639.60 0.42
639.70 0.4197
639.80 0.4194
639.90 0.4191
640.00 0.4188
640.10 0.4185
640.20 0.4182
640.30 0.4178
640.40 0.4175
640.50 0.4172
640.60 0.4169
640.70 0.4166
640.80 0.4162
640.90 0.4159
641.00 0.4156
641.10 0.4153
641.20 0.4149
641.30 0.4146
641.40 0.4143
641.50 0.4139
641.60 0.4136
641.70 0.4133
641.80 0.4129
641.90 0.4126
642.00 0.4123
642.10 0.4119
642.20 0.4116
642.30 0.4112
642.40 0.4109
642.50 0.4105
642.60 0.4102
642.70 0.4098
642.80 0.4095
642.90 0.4091
643.00 0.4087
643.10 0.4084
643.20 0.408
643.30 0.4077
643.40 0.4073
643.50 0.4069
643.60 0.4065
643.70 0.4061
643.80 0.4057
643.90 0.4054
644.00 0.405
644.10 0.4046
644.20 0.4042
644.30 0.4038
644.40 0.4034
644.50 0.403
644.60 0.4025
644.70 0.4021
644.80 0.4017
644.90 0.4013
645.00 0.4009
645.10 0.4004
645.20 0.4
645.30 0.3996
645.40 0.3991
645.50 0.3987
645.60 0.3982
645.70 0.3977
645.80 0.3972
645.90 0.3968
646.00 0.3963
646.10 0.3958
646.20 0.3954
646.30 0.3949
646.40 0.3944
646.50 0.3938
646.60 0.3933
646.70 0.3928
646.80 0.3922
646.90 0.3917
647.00 0.3912
647.10 0.3907
647.20 0.3901
647.30 0.3896
647.40 0.389
647.50 0.3883
647.60 0.3877
647.70 0.3871
647.80 0.3865
647.90 0.3859
648.00 0.3853
648.10 0.3847
648.20 0.3841
648.30 0.3834
648.40 0.3827
648.50 0.382
648.60 0.3812
648.70 0.3805
648.80 0.3798
648.90 0.3791
649.00 0.3783
649.10 0.3776
649.20 0.3769
649.30 0.3761
649.40 0.3753
649.50 0.3744
649.60 0.3735
649.70 0.3726
649.80 0.3718
649.90 0.3709
650.00 0.37
650.10 0.3691
650.20 0.3683
650.30 0.3673
650.40 0.3663
650.50 0.3652
650.60 0.3641
650.70 0.3631
650.80 0.362
650.90 0.3609
651.00 0.3598
651.10 0.3588
651.20 0.3577
651.30 0.3566
651.40 0.3553
651.50 0.3539
651.60 0.3526
651.70 0.3513
651.80 0.3499
651.90 0.3486
652.00 0.3473
652.10 0.346
652.20 0.3446
652.30 0.3432
652.40 0.3416
652.50 0.3399
652.60 0.3383
652.70 0.3366
652.80 0.3349
652.90 0.3333
653.00 0.3316
653.10 0.33
653.20 0.3283
653.30 0.3266
653.40 0.3245
653.50 0.3224
653.60 0.3203
653.70 0.3182
653.80 0.3162
653.90 0.3141
654.00 0.312
654.10 0.3099
654.20 0.3078
654.30 0.3057
654.40 0.3032
654.50 0.3007
654.60 0.2982
654.70 0.2957
654.80 0.2932
654.90 0.2903
655.00 0.2874
655.10 0.2845
655.20 0.2816
655.30 0.2786
655.40 0.2753
655.50 0.2718
655.60 0.268
655.70 0.264
655.80 0.2592
655.90 0.2538
656.00 0.246
656.10 0.2375
656.20 0.2154
656.30 0.1658
656.40 0.2264
656.50 0.2406
656.60 0.2482
656.70 0.2552
656.80 0.2598
656.90 0.2641
657.00 0.2677
657.10 0.2711
657.20 0.2742
657.30 0.2772
657.40 0.2798
657.50 0.2824
657.60 0.285
657.70 0.2876
657.80 0.2901
657.90 0.2922
658.00 0.2944
658.10 0.2966
658.20 0.2987
658.30 0.3008
658.40 0.3026
658.50 0.3043
658.60 0.306
658.70 0.3077
658.80 0.3095
658.90 0.3112
659.00 0.3129
659.10 0.3146
659.20 0.3164
659.30 0.318
659.40 0.3193
659.50 0.3205
659.60 0.3218
659.70 0.3231
659.80 0.3243
659.90 0.3256
660.00 0.3269
660.10 0.3282
660.20 0.3294
660.30 0.3306
660.40 0.3315
660.50 0.3325
660.60 0.3334
660.70 0.3343
660.80 0.3352
660.90 0.3361
661.00 0.337
661.10 0.338
661.20 0.3389
661.30 0.3397
661.40 0.3404
661.50 0.341
661.60 0.3417
661.70 0.3423
661.80 0.3429
661.90 0.3436
662.00 0.3442
662.10 0.3449
662.20 0.3455
662.30 0.3461
662.40 0.3465
662.50 0.347
662.60 0.3474
662.70 0.3478
662.80 0.3483
662.90 0.3487
663.00 0.3491
663.10 0.3496
663.20 0.35
663.30 0.3504
663.40 0.3507
663.50 0.351
663.60 0.3512
663.70 0.3515
663.80 0.3518
663.90 0.3521
664.00 0.3524
664.10 0.3526
664.20 0.3529
664.30 0.3532
664.40 0.3533
664.50 0.3535
664.60 0.3537
664.70 0.3538
664.80 0.354
664.90 0.3542
665.00 0.3543
665.10 0.3545
665.20 0.3547
665.30 0.3548
665.40 0.3549
665.50 0.355
665.60 0.3551
665.70 0.3551
665.80 0.3552
665.90 0.3553
666.00 0.3554
666.10 0.3555
666.20 0.3555
666.30 0.3556
666.40 0.3556
666.50 0.3556
666.60 0.3557
666.70 0.3557
666.80 0.3557
666.90 0.3557
667.00 0.3557
667.10 0.3558
667.20 0.3558
667.30 0.3558
667.40 0.3558
667.50 0.3557
667.60 0.3557
667.70 0.3557
667.80 0.3557
667.90 0.3556
668.00 0.3556
668.10 0.3556
668.20 0.3555
668.30 0.3555
668.40 0.3554
668.50 0.3554
668.60 0.3553
668.70 0.3553
668.80 0.3552
668.90 0.3551
669.00 0.3551
669.10 0.355
669.20 0.355
669.30 0.3549
669.40 0.3548
669.50 0.3547
669.60 0.3546
669.70 0.3545
669.80 0.3545
669.90 0.3544
670.00 0.3543
670.10 0.3542
670.20 0.3541
670.30 0.354
670.40 0.3539
670.50 0.3538
670.60 0.3537
670.70 0.3536
670.80 0.3535
670.90 0.3534
671.00 0.3533
671.10 0.3532
671.20 0.3531
671.30 0.3529
671.40 0.3528
671.50 0.3527
671.60 0.3526
671.70 0.3525
671.80 0.3523
671.90 0.3522
672.00 0.3521
672.10 0.352
672.20 0.3519
672.30 0.3517
672.40 0.3516
672.50 0.3515
672.60 0.3513
672.70 0.3512
672.80 0.3511
672.90 0.3509
673.00 0.3508
673.10 0.3507
673.20 0.3505
673.30 0.3504
673.40 0.3503
673.50 0.3501
673.60 0.35
673.70 0.3498
673.80 0.3497
673.90 0.3496
674.00 0.3494
674.10 0.3493
674.20 0.3491
674.30 0.349
674.40 0.3488
674.50 0.3487
674.60 0.3486
674.70 0.3484
674.80 0.3483
674.90 0.3481
675.00 0.348
675.10 0.3478
675.20 0.3477
675.30 0.3475
675.40 0.3474
675.50 0.3472
675.60 0.3471
675.70 0.3469
675.80 0.3468
675.90 0.3466
676.00 0.3464
676.10 0.3463
676.20 0.3461
676.30 0.346
676.40 0.3458
676.50 0.3457
676.60 0.3455
676.70 0.3454
676.80 0.3452
676.90 0.345
677.00 0.3449
677.10 0.3447
677.20 0.3446
677.30 0.3444
677.40 0.3443
677.50 0.3441
677.60 0.3439
677.70 0.3438
677.80 0.3436
677.90 0.3435
678.00 0.3433
678.10 0.3431
678.20 0.343
678.30 0.3428
678.40 0.3427
678.50 0.3425
678.60 0.3423
678.70 0.3422
678.80 0.342
678.90 0.3419
679.00 0.3417
679.10 0.3415
679.20 0.3414
679.30 0.3412
679.40 0.341
679.50 0.3409
679.60 0.3407
679.70 0.3405
679.80 0.3404
679.90 0.3402
680.00 0.3401
680.10 0.3399
680.20 0.3397
680.30 0.3396
680.40 0.3394
680.50 0.3392
680.60 0.3391
680.70 0.3389
680.80 0.3387
680.90 0.3386
681.00 0.3384
681.10 0.3383
681.20 0.3381
681.30 0.3379
681.40 0.3378
681.50 0.3376
681.60 0.3374
681.70 0.3373
681.80 0.3371
681.90 0.3369
682.00 0.3368
682.10 0.3366
682.20 0.3364
682.30 0.3363
682.40 0.3361
682.50 0.3359
682.60 0.3358
682.70 0.3356
682.80 0.3354
682.90 0.3353
683.00 0.3351
683.10 0.3349
683.20 0.3348
683.30 0.3346
683.40 0.3344
683.50 0.3343
683.60 0.3341
683.70 0.3339
683.80 0.3338
683.90 0.3336
684.00 0.3334
684.10 0.3333
684.20 0.3331
684.30 0.3329
684.40 0.3328
684.50 0.3326
684.60 0.3324
684.70 0.3323
684.80 0.3321
684.90 0.3319
685.00 0.3318
685.10 0.3316
685.20 0.3314
685.30 0.3313
685.40 0.3311
685.50 0.3309
685.60 0.3308
685.70 0.3306
685.80 0.3304
685.90 0.3303
686.00 0.3301
686.10 0.3299
686.20 0.3298
686.30 0.3296
686.40 0.3294
686.50 0.3293
686.60 0.3291
686.70 0.3289
686.80 0.3288
686.90 0.3286
687.00 0.3285
687.10 0.3283
687.20 0.3281
687.30 0.328
687.40 0.3278
687.50 0.3276
687.60 0.3275
687.70 0.3273
687.80 0.3271
687.90 0.327
688.00 0.3268
688.10 0.3266
688.20 0.3265
688.30 0.3263
688.40 0.3261
688.50 0.326
688.60 0.3258
688.70 0.3256
688.80 0.3255
688.90 0.3253
689.00 0.3251
689.10 0.325
689.20 0.3248
689.30 0.3246
689.40 0.3245
689.50 0.3243
689.60 0.3242
689.70 0.324
689.80 0.3238
689.90 0.3237
690.00 0.3235
690.10 0.3233
690.20 0.3232
690.30 0.323
690.40 0.3228
690.50 0.3227
690.60 0.3225
690.70 0.3223
690.80 0.3222
690.90 0.322
691.00 0.3218
691.10 0.3217
691.20 0.3215
691.30 0.3214
691.40 0.3212
691.50 0.321
691.60 0.3209
691.70 0.3207
691.80 0.3205
691.90 0.3204
692.00 0.3202
692.10 0.32
692.20 0.3199
692.30 0.3197
692.40 0.3196
692.50 0.3194
692.60 0.3192
692.70 0.3191
692.80 0.3189
692.90 0.3187
693.00 0.3186
693.10 0.3184
693.20 0.3183
693.30 0.3181
693.40 0.3179
693.50 0.3178
693.60 0.3176
693.70 0.3175
693.80 0.3173
693.90 0.3171
694.00 0.317
694.10 0.3168
694.20 0.3166
694.30 0.3165
694.40 0.3163
694.50 0.3162
694.60 0.316
694.70 0.3158
694.80 0.3157
694.90 0.3155
695.00 0.3154
695.10 0.3152
695.20 0.315
695.30 0.3149
695.40 0.3147
695.50 0.3146
695.60 0.3144
695.70 0.3142
695.80 0.3141
695.90 0.3139
696.00 0.3137
696.10 0.3136
696.20 0.3134
696.30 0.3133
696.40 0.3131
696.50 0.313
696.60 0.3128
696.70 0.3126
696.80 0.3125
696.90 0.3123
697.00 0.3122
697.10 0.312
697.20 0.3118
697.30 0.3117
697.40 0.3115
697.50 0.3114
697.60 0.3112
697.70 0.311
697.80 0.3109
697.90 0.3107
698.00 0.3106
698.10 0.3104
698.20 0.3102
698.30 0.3101
698.40 0.3099
698.50 0.3098
698.60 0.3096
698.70 0.3095
698.80 0.3093
698.90 0.3091
699.00 0.309
699.10 0.3088
699.20 0.3087
699.30 0.3085
699.40 0.3084
699.50 0.3082
699.60 0.308
699.70 0.3079
699.80 0.3077
699.90 0.3076
700.00 0.3074
700.10 0.3073
700.20 0.3071
700.30 0.3069
700.40 0.3068
700.50 0.3066
700.60 0.3065
700.70 0.3063
700.80 0.3062
700.90 0.306
701.00 0.3058
701.10 0.3057
701.20 0.3055
701.30 0.3054
701.40 0.3052
701.50 0.3051
701.60 0.3049
701.70 0.3048
701.80 0.3046
701.90 0.3045
702.00 0.3043
702.10 0.3041
702.20 0.304
702.30 0.3038
702.40 0.3037
702.50 0.3035
702.60 0.3034
702.70 0.3032
702.80 0.3031
702.90 0.3029
703.00 0.3027
703.10 0.3026
703.20 0.3024
703.30 0.3023
703.40 0.3021
703.50 0.302
703.60 0.3018
703.70 0.3017
703.80 0.3015
703.90 0.3014
704.00 0.3012
704.10 0.3011
704.20 0.3009
704.30 0.3008
704.40 0.3006
704.50 0.3004
704.60 0.3003
704.70 0.3001
704.80 0.3
704.90 0.2998
705.00 0.2997
705.10 0.2995
705.20 0.2994
705.30 0.2992
705.40 0.2991
705.50 0.2989
705.60 0.2988
705.70 0.2986
705.80 0.2985
705.90 0.2983
706.00 0.2982
706.10 0.298
706.20 0.2979
706.30 0.2977
706.40 0.2976
706.50 0.2974
706.60 0.2973
706.70 0.2971
706.80 0.297
706.90 0.2968
707.00 0.2967
707.10 0.2965
707.20 0.2964
707.30 0.2962
707.40 0.2961
707.50 0.2959
707.60 0.2958
707.70 0.2956
707.80 0.2955
707.90 0.2953
708.00 0.2952
708.10 0.295
708.20 0.2949
708.30 0.2947
708.40 0.2946
708.50 0.2944
708.60 0.2943
708.70 0.2941
708.80 0.294
708.90 0.2938
709.00 0.2937
709.10 0.2935
709.20 0.2934
709.30 0.2932
709.40 0.2931
709.50 0.2929
709.60 0.2928
709.70 0.2926
709.80 0.2925
709.90 0.2923
710.00 0.2922
710.10 0.292
710.20 0.2919
710.30 0.2917
710.40 0.2916
710.50 0.2914
710.60 0.2913
710.70 0.2911
710.80 0.291
710.90 0.2908
711.00 0.2907
711.10 0.2906
711.20 0.2904
711.30 0.2903
711.40 0.2901
711.50 0.29
711.60 0.2898
711.70 0.2897
711.80 0.2895
711.90 0.2894
712.00 0.2892
712.10 0.2891
712.20 0.2889
712.30 0.2888
712.40 0.2887
712.50 0.2885
712.60 0.2884
712.70 0.2882
712.80 0.2881
712.90 0.2879
713.00 0.2878
713.10 0.2876
713.20 0.2875
713.30 0.2873
713.40 0.2872
713.50 0.2871
713.60 0.2869
713.70 0.2868
713.80 0.2866
713.90 0.2865
714.00 0.2863
714.10 0.2862
714.20 0.286
714.30 0.2859
714.40 0.2858
714.50 0.2856
714.60 0.2855
714.70 0.2853
714.80 0.2852
714.90 0.285
715.00 0.2849
715.10 0.2847
715.20 0.2846
715.30 0.2845
715.40 0.2843
715.50 0.2842
715.60 0.284
715.70 0.2839
715.80 0.2837
715.90 0.2836
716.00 0.2835
716.10 0.2833
716.20 0.2832
716.30 0.283
716.40 0.2829
716.50 0.2828
716.60 0.2826
716.70 0.2825
716.80 0.2823
716.90 0.2822
717.00 0.282
717.10 0.2819
717.20 0.2818
717.30 0.2816
717.40 0.2815
717.50 0.2813
717.60 0.2812
717.70 0.2811
717.80 0.2809
717.90 0.2808
718.00 0.2806
718.10 0.2805
718.20 0.2803
718.30 0.2802
718.40 0.2801
718.50 0.2799
718.60 0.2798
718.70 0.2796
718.80 0.2795
718.90 0.2794
719.00 0.2792
719.10 0.2791
719.20 0.2789
719.30 0.2788
719.40 0.2787
719.50 0.2785
719.60 0.2784
719.70 0.2782
719.80 0.2781
719.90 0.278
720.00 0.2778
720.10 0.2777
720.20 0.2775
720.30 0.2774
720.40 0.2773
720.50 0.2771
720.60 0.277
720.70 0.2769
720.80 0.2767
720.90 0.2766
721.00 0.2764
721.10 0.2763
721.20 0.2762
721.30 0.276
721.40 0.2759
721.50 0.2758
721.60 0.2756
721.70 0.2755
721.80 0.2753
721.90 0.2752
722.00 0.2751
722.10 0.2749
722.20 0.2748
722.30 0.2747
722.40 0.2745
722.50 0.2744
722.60 0.2742
722.70 0.2741
722.80 0.274
722.90 0.2738
723.00 0.2737
723.10 0.2736
723.20 0.2734
723.30 0.2733
723.40 0.2731
723.50 0.273
723.60 0.2729
723.70 0.2727
723.80 0.2726
723.90 0.2725
724.00 0.2723
724.10 0.2722
724.20 0.2721
724.30 0.2719
724.40 0.2718
724.50 0.2717
724.60 0.2715
724.70 0.2714
724.80 0.2712
724.90 0.2711
725.00 0.271
725.10 0.2708
725.20 0.2707
725.30 0.2706
725.40 0.2704
725.50 0.2703
725.60 0.2702
725.70 0.27
725.80 0.2699
725.90 0.2698
726.00 0.2696
726.10 0.2695
726.20 0.2694
726.30 0.2692
726.40 0.2691
726.50 0.269
726.60 0.2688
726.70 0.2687
726.80 0.2686
726.90 0.2684
727.00 0.2683
727.10 0.2682
727.20 0.268
727.30 0.2679
727.40 0.2678
727.50 0.2676
727.60 0.2675
727.70 0.2674
727.80 0.2672
727.90 0.2671
728.00 0.267
728.10 0.2668
728.20 0.2667
728.30 0.2666
728.40 0.2664
728.50 0.2663
728.60 0.2662
728.70 0.266
728.80 0.2659
728.90 0.2658
729.00 0.2656
729.10 0.2655
729.20 0.2654
729.30 0.2653
729.40 0.2651
729.50 0.265
729.60 0.2649
729.70 0.2647
729.80 0.2646
729.90 0.2645
730.00 0.2643
730.10 0.2642
730.20 0.2641
730.30 0.2639
730.40 0.2638
730.50 0.2637
730.60 0.2636
730.70 0.2634
730.80 0.2633
730.90 0.2632
731.00 0.263
731.10 0.2629
731.20 0.2628
731.30 0.2626
731.40 0.2625
731.50 0.2624
731.60 0.2623
731.70 0.2621
731.80 0.262
731.90 0.2619
732.00 0.2617
732.10 0.2616
732.20 0.2615
732.30 0.2614
732.40 0.2612
732.50 0.2611
732.60 0.261
732.70 0.2608
732.80 0.2607
732.90 0.2606
733.00 0.2605
733.10 0.2603
733.20 0.2602
733.30 0.2601
733.40 0.2599
733.50 0.2598
733.60 0.2597
733.70 0.2596
733.80 0.2594
733.90 0.2593
734.00 0.2592
734.10 0.2591
734.20 0.2589
734.30 0.2588
734.40 0.2587
734.50 0.2585
734.60 0.2584
734.70 0.2583
734.80 0.2582
734.90 0.258
735.00 0.2579
735.10 0.2578
735.20 0.2577
735.30 0.2575
735.40 0.2574
735.50 0.2573
735.60 0.2572
735.70 0.257
735.80 0.2569
735.90 0.2568
736.00 0.2566
736.10 0.2565
736.20 0.2564
736.30 0.2563
736.40 0.2561
736.50 0.256
736.60 0.2559
736.70 0.2558
736.80 0.2556
736.90 0.2555
737.00 0.2554
737.10 0.2553
737.20 0.2551
737.30 0.255
737.40 0.2549
737.50 0.2548
737.60 0.2546
737.70 0.2545
737.80 0.2544
737.90 0.2543
738.00 0.2541
738.10 0.254
738.20 0.2539
738.30 0.2538
738.40 0.2536
738.50 0.2535
738.60 0.2534
738.70 0.2533
738.80 0.2531
738.90 0.253
739.00 0.2529
739.10 0.2528
739.20 0.2526
739.30 0.2525
739.40 0.2524
739.50 0.2523
739.60 0.2521
739.70 0.252
739.80 0.2519
739.90 0.2518
740.00 0.2516
740.10 0.2515
740.20 0.2514
740.30 0.2513
740.40 0.2512
740.50 0.251
740.60 0.2509
740.70 0.2508
740.80 0.2507
740.90 0.2505
741.00 0.2504
741.10 0.2503
741.20 0.2502
741.30 0.2501
741.40 0.2499
741.50 0.2498
741.60 0.2497
741.70 0.2496
741.80 0.2495
741.90 0.2493
742.00 0.2492
742.10 0.2491
742.20 0.249
742.30 0.2488
742.40 0.2487
742.50 0.2486
742.60 0.2485
742.70 0.2484
742.80 0.2482
742.90 0.2481
743.00 0.248
743.10 0.2479
743.20 0.2478
743.30 0.2476
743.40 0.2475
743.50 0.2474
743.60 0.2473
743.70 0.2472
743.80 0.247
743.90 0.2469
744.00 0.2468
744.10 0.2467
744.20 0.2466
744.30 0.2464
744.40 0.2463
744.50 0.2462
744.60 0.2461
744.70 0.246
744.80 0.2458
744.90 0.2457
745.00 0.2456
745.10 0.2455
745.20 0.2454
745.30 0.2452
745.40 0.2451
745.50 0.245
745.60 0.2449
745.70 0.2448
745.80 0.2446
745.90 0.2445
746.00 0.2444
746.10 0.2443
746.20 0.2442
746.30 0.2441
746.40 0.2439
746.50 0.2438
746.60 0.2437
746.70 0.2436
746.80 0.2435
746.90 0.2433
747.00 0.2432
747.10 0.2431
747.20 0.243
747.30 0.2429
747.40 0.2428
747.50 0.2426
747.60 0.2425
747.70 0.2424
747.80 0.2423
747.90 0.2422
748.00 0.242
748.10 0.2419
748.20 0.2418
748.30 0.2417
748.40 0.2416
748.50 0.2415
748.60 0.2413
748.70 0.2412
748.80 0.2411
748.90 0.241
749.00 0.2409
749.10 0.2408
749.20 0.2406
749.30 0.2405
749.40 0.2404
749.50 0.2403
749.60 0.2402
749.70 0.2401
749.80 0.2399
749.90 0.2398
750.00 0.2397
750.10 0.2396
750.20 0.2395
750.30 0.2394
750.40 0.2392
750.50 0.2391
750.60 0.239
750.70 0.2389
750.80 0.2388
750.90 0.2387
751.00 0.2386
751.10 0.2384
751.20 0.2383
751.30 0.2382
751.40 0.2381
751.50 0.238
751.60 0.2379
751.70 0.2378
751.80 0.2376
751.90 0.2375
752.00 0.2374
752.10 0.2373
752.20 0.2372
752.30 0.2371
752.40 0.237
752.50 0.2368
752.60 0.2367
752.70 0.2366
752.80 0.2365
752.90 0.2364
753.00 0.2363
753.10 0.2362
753.20 0.236
753.30 0.2359
753.40 0.2358
753.50 0.2357
753.60 0.2356
753.70 0.2355
753.80 0.2354
753.90 0.2353
754.00 0.2351
754.10 0.235
754.20 0.2349
754.30 0.2348
754.40 0.2347
754.50 0.2346
754.60 0.2345
754.70 0.2344
754.80 0.2342
754.90 0.2341
755.00 0.234
755.10 0.2339
755.20 0.2338
755.30 0.2337
755.40 0.2336
755.50 0.2335
755.60 0.2333
755.70 0.2332
755.80 0.2331
755.90 0.233
756.00 0.2329
756.10 0.2328
756.20 0.2327
756.30 0.2326
756.40 0.2324
756.50 0.2323
756.60 0.2322
756.70 0.2321
756.80 0.232
756.90 0.2319
757.00 0.2318
757.10 0.2317
757.20 0.2316
757.30 0.2314
757.40 0.2313
757.50 0.2312
757.60 0.2311
757.70 0.231
757.80 0.2309
757.90 0.2308
758.00 0.2307
758.10 0.2306
758.20 0.2304
758.30 0.2303
758.40 0.2302
758.50 0.2301
758.60 0.23
758.70 0.2299
758.80 0.2298
758.90 0.2297
759.00 0.2296
759.10 0.2295
759.20 0.2293
759.30 0.2292
759.40 0.2291
759.50 0.229
759.60 0.2289
759.70 0.2288
759.80 0.2287
759.90 0.2286
760.00 0.2285
760.10 0.2284
760.20 0.2282
760.30 0.2281
760.40 0.228
760.50 0.2279
760.60 0.2278
760.70 0.2277
760.80 0.2276
760.90 0.2275
761.00 0.2274
761.10 0.2273
761.20 0.2272
761.30 0.2271
761.40 0.227
761.50 0.2268
761.60 0.2267
761.70 0.2266
761.80 0.2265
761.90 0.2264
762.00 0.2263
762.10 0.2262
762.20 0.2261
762.30 0.226
762.40 0.2259
762.50 0.2258
762.60 0.2257
762.70 0.2256
762.80 0.2254
762.90 0.2253
763.00 0.2252
763.10 0.2251
763.20 0.225
763.30 0.2249
763.40 0.2248
763.50 0.2247
763.60 0.2246
763.70 0.2245
763.80 0.2244
763.90 0.2243
764.00 0.2242
764.10 0.2241
764.20 0.224
764.30 0.2239
764.40 0.2237
764.50 0.2236
764.60 0.2235
764.70 0.2234
764.80 0.2233
764.90 0.2232
765.00 0.2231
765.10 0.223
765.20 0.2229
765.30 0.2228
765.40 0.2227
765.50 0.2226
765.60 0.2225
765.70 0.2224
765.80 0.2223
765.90 0.2222
766.00 0.2221
766.10 0.2219
766.20 0.2218
766.30 0.2217
766.40 0.2216
766.50 0.2215
766.60 0.2214
766.70 0.2213
766.80 0.2212
766.90 0.2211
767.00 0.221
767.10 0.2209
767.20 0.2208
767.30 0.2207
767.40 0.2206
767.50 0.2205
767.60 0.2204
767.70 0.2203
767.80 0.2202
767.90 0.2201
768.00 0.22
768.10 0.2199
768.20 0.2197
768.30 0.2196
768.40 0.2195
768.50 0.2194
768.60 0.2193
768.70 0.2192
768.80 0.2191
768.90 0.219
769.00 0.2189
769.10 0.2188
769.20 0.2187
769.30 0.2186
769.40 0.2185
769.50 0.2184
769.60 0.2183
769.70 0.2182
769.80 0.2181
769.90 0.218
770.00 0.2179
770.10 0.2178
770.20 0.2177
770.30 0.2176
770.40 0.2175
770.50 0.2174
770.60 0.2173
770.70 0.2172
770.80 0.2171
770.90 0.217
771.00 0.2169
771.10 0.2168
771.20 0.2167
771.30 0.2166
771.40 0.2165
771.50 0.2164
771.60 0.2162
771.70 0.2161
771.80 0.216
771.90 0.2159
772.00 0.2158
772.10 0.2157
772.20 0.2156
772.30 0.2155
772.40 0.2154
772.50 0.2153
772.60 0.2152
772.70 0.2151
772.80 0.215
772.90 0.2149
773.00 0.2148
773.10 0.2147
773.20 0.2146
773.30 0.2145
773.40 0.2144
773.50 0.2143
773.60 0.2142
773.70 0.2141
773.80 0.214
773.90 0.2139
774.00 0.2138
774.10 0.2137
774.20 0.2136
774.30 0.2135
774.40 0.2134
774.50 0.2133
774.60 0.2132
774.70 0.2131
774.80 0.213
774.90 0.2129
775.00 0.2128
775.10 0.2127
775.20 0.2126
775.30 0.2125
775.40 0.2124
775.50 0.2123
775.60 0.2122
775.70 0.2121
775.80 0.212
775.90 0.2119
776.00 0.2118
776.10 0.2117
776.20 0.2116
776.30 0.2115
776.40 0.2114
776.50 0.2113
776.60 0.2112
776.70 0.2111
776.80 0.211
776.90 0.2109
777.00 0.2108
777.10 0.2107
777.20 0.2106
777.30 0.2105
777.40 0.2104
777.50 0.2104
777.60 0.2103
777.70 0.2102
777.80 0.2101
777.90 0.21
778.00 0.2099
778.10 0.2098
778.20 0.2097
778.30 0.2096
778.40 0.2095
778.50 0.2094
778.60 0.2093
778.70 0.2092
778.80 0.2091
778.90 0.209
779.00 0.2089
779.10 0.2088
779.20 0.2087
779.30 0.2086
779.40 0.2085
779.50 0.2084
779.60 0.2083
779.70 0.2082
779.80 0.2081
779.90 0.208
780.00 0.2079
780.10 0.2078
780.20 0.2077
780.30 0.2076
780.40 0.2075
780.50 0.2074
780.60 0.2073
780.70 0.2072
780.80 0.2071
780.90 0.207
781.00 0.2069
781.10 0.2068
781.20 0.2067
781.30 0.2067
781.40 0.2066
781.50 0.2065
781.60 0.2064
781.70 0.2063
781.80 0.2062
781.90 0.2061
782.00 0.206
782.10 0.2059
782.20 0.2058
782.30 0.2057
782.40 0.2056
782.50 0.2055
782.60 0.2054
782.70 0.2053
782.80 0.2052
782.90 0.2051
783.00 0.205
783.10 0.2049
783.20 0.2048
783.30 0.2047
783.40 0.2047
783.50 0.2046
783.60 0.2045
783.70 0.2044
783.80 0.2043
783.90 0.2042
784.00 0.2041
784.10 0.204
784.20 0.2039
784.30 0.2038
784.40 0.2037
784.50 0.2036
784.60 0.2035
784.70 0.2034
784.80 0.2033
784.90 0.2032
785.00 0.2031
785.10 0.203
785.20 0.203
785.30 0.2029
785.40 0.2028
785.50 0.2027
785.60 0.2026
785.70 0.2025
785.80 0.2024
785.90 0.2023
786.00 0.2022
786.10 0.2021
786.20 0.202
786.30 0.2019
786.40 0.2018
786.50 0.2017
786.60 0.2016
786.70 0.2015
786.80 0.2015
786.90 0.2014
787.00 0.2013
787.10 0.2012
787.20 0.2011
787.30 0.201
787.40 0.2009
787.50 0.2008
787.60 0.2007
787.70 0.2006
787.80 0.2005
787.90 0.2004
788.00 0.2003
788.10 0.2002
788.20 0.2002
788.30 0.2001
788.40 0.2
788.50 0.1999
788.60 0.1998
788.70 0.1997
788.80 0.1996
788.90 0.1995
789.00 0.1994
789.10 0.1993
789.20 0.1992
789.30 0.1991
789.40 0.199
789.50 0.1989
789.60 0.1989
789.70 0.1988
789.80 0.1987
789.90 0.1986
790.00 0.1985
790.10 0.1984
790.20 0.1983
790.30 0.1982
790.40 0.1981
790.50 0.198
790.60 0.1979
790.70 0.1979
790.80 0.1978
790.90 0.1977
791.00 0.1976
791.10 0.1975
791.20 0.1974
791.30 0.1973
791.40 0.1972
791.50 0.1971
791.60 0.197
791.70 0.1969
791.80 0.1969
791.90 0.1968
792.00 0.1967
792.10 0.1966
792.20 0.1965
792.30 0.1964
792.40 0.1963
792.50 0.1962
792.60 0.1961
792.70 0.1961
792.80 0.196
792.90 0.1959
793.00 0.1958
793.10 0.1957
793.20 0.1956
793.30 0.1955
793.40 0.1954
793.50 0.1953
793.60 0.1952
793.70 0.1952
793.80 0.1951
793.90 0.195
794.00 0.1949
794.10 0.1948
794.20 0.1947
794.30 0.1946
794.40 0.1945
794.50 0.1944
794.60 0.1944
794.70 0.1943
794.80 0.1942
794.90 0.1941
795.00 0.194
795.10 0.1939
795.20 0.1938
795.30 0.1937
795.40 0.1936
795.50 0.1936
795.60 0.1935
795.70 0.1934
795.80 0.1933
795.90 0.1932
796.00 0.1931
796.10 0.193
796.20 0.1929
796.30 0.1928
796.40 0.1928
796.50 0.1927
796.60 0.1926
796.70 0.1925
796.80 0.1924
796.90 0.1923
797.00 0.1922
797.10 0.1921
797.20 0.1921
797.30 0.192
797.40 0.1919
797.50 0.1918
797.60 0.1917
797.70 0.1916
797.80 0.1915
797.90 0.1914
798.00 0.1913
798.10 0.1913
798.20 0.1912
798.30 0.1911
798.40 0.191
798.50 0.1909
798.60 0.1908
798.70 0.1907
798.80 0.1906
798.90 0.1906
799.00 0.1905
799.10 0.1904
799.20 0.1903
799.30 0.1902
799.40 0.1901
799.50 0.19
799.60 0.19
799.70 0.1899
799.80 0.1898
799.90 0.1897
800.00 0.1896
800.10 0.1895
800.20 0.1894
800.30 0.1893
800.40 0.1893
800.50 0.1892
800.60 0.1891
800.70 0.189
800.80 0.1889
800.90 0.1888
801.00 0.1887
801.10 0.1887
801.20 0.1886
801.30 0.1885
801.40 0.1884
801.50 0.1883
801.60 0.1882
801.70 0.1882
801.80 0.1881
801.90 0.188
802.00 0.1879
802.10 0.1878
802.20 0.1877
802.30 0.1876
802.40 0.1876
802.50 0.1875
802.60 0.1874
802.70 0.1873
802.80 0.1872
802.90 0.1871
803.00 0.187
803.10 0.187
803.20 0.1869
803.30 0.1868
803.40 0.1867
803.50 0.1866
803.60 0.1865
803.70 0.1865
803.80 0.1864
803.90 0.1863
804.00 0.1862
804.10 0.1861
804.20 0.186
804.30 0.186
804.40 0.1859
804.50 0.1858
804.60 0.1857
804.70 0.1856
804.80 0.1855
804.90 0.1854
805.00 0.1854
805.10 0.1853
805.20 0.1852
805.30 0.1851
805.40 0.185
805.50 0.1849
805.60 0.1849
805.70 0.1848
805.80 0.1847
805.90 0.1846
806.00 0.1845
806.10 0.1844
806.20 0.1844
806.30 0.1843
806.40 0.1842
806.50 0.1841
806.60 0.184
806.70 0.1839
806.80 0.1839
806.90 0.1838
807.00 0.1837
807.10 0.1836
807.20 0.1835
807.30 0.1834
807.40 0.1834
807.50 0.1833
807.60 0.1832
807.70 0.1831
807.80 0.183
807.90 0.1829
808.00 0.1829
808.10 0.1828
808.20 0.1827
808.30 0.1826
808.40 0.1825
808.50 0.1825
808.60 0.1824
808.70 0.1823
808.80 0.1822
808.90 0.1821
809.00 0.182
809.10 0.182
809.20 0.1819
809.30 0.1818
809.40 0.1817
809.50 0.1816
809.60 0.1815
809.70 0.1815
809.80 0.1814
809.90 0.1813
810.00 0.1812
810.10 0.1811
810.20 0.1811
810.30 0.181
810.40 0.1809
810.50 0.1808
810.60 0.1807
810.70 0.1806
810.80 0.1806
810.90 0.1805
811.00 0.1804
811.10 0.1803
811.20 0.1802
811.30 0.1802
811.40 0.1801
811.50 0.18
811.60 0.1799
811.70 0.1798
811.80 0.1798
811.90 0.1797
812.00 0.1796
812.10 0.1795
812.20 0.1794
812.30 0.1794
812.40 0.1793
812.50 0.1792
812.60 0.1791
812.70 0.179
812.80 0.179
812.90 0.1789
813.00 0.1788
813.10 0.1787
813.20 0.1786
813.30 0.1786
813.40 0.1785
813.50 0.1784
813.60 0.1783
813.70 0.1782
813.80 0.1782
813.90 0.1781
814.00 0.178
814.10 0.1779
814.20 0.1778
814.30 0.1778
814.40 0.1777
814.50 0.1776
814.60 0.1775
814.70 0.1774
814.80 0.1774
814.90 0.1773
815.00 0.1772
815.10 0.1771
815.20 0.1771
815.30 0.177
815.40 0.1769
815.50 0.1768
815.60 0.1767
815.70 0.1767
815.80 0.1766
815.90 0.1765
816.00 0.1764
816.10 0.1763
816.20 0.1763
816.30 0.1762
816.40 0.1761
816.50 0.176
816.60 0.1759
816.70 0.1759
816.80 0.1758
816.90 0.1757
817.00 0.1756
817.10 0.1756
817.20 0.1755
817.30 0.1754
817.40 0.1753
817.50 0.1752
817.60 0.1752
817.70 0.1751
817.80 0.175
817.90 0.1749
818.00 0.1748
818.10 0.1748
818.20 0.1747
818.30 0.1746
818.40 0.1745
818.50 0.1745
818.60 0.1744
818.70 0.1743
818.80 0.1742
818.90 0.1741
819.00 0.1741
819.10 0.174
819.20 0.1739
819.30 0.1738
819.40 0.1738
819.50 0.1737
819.60 0.1736
819.70 0.1735
819.80 0.1734
819.90 0.1734
820.00 0.1733
820.10 0.1732
820.20 0.1731
820.30 0.1731
820.40 0.173
820.50 0.1729
820.60 0.1728
820.70 0.1728
820.80 0.1727
820.90 0.1726
821.00 0.1725
821.10 0.1724
821.20 0.1724
821.30 0.1723
821.40 0.1722
821.50 0.1721
821.60 0.1721
821.70 0.172
821.80 0.1719
821.90 0.1718
822.00 0.1718
822.10 0.1717
822.20 0.1716
822.30 0.1715
822.40 0.1715
822.50 0.1714
822.60 0.1713
822.70 0.1712
822.80 0.1711
822.90 0.1711
823.00 0.171
823.10 0.1709
823.20 0.1708
823.30 0.1708
823.40 0.1707
823.50 0.1706
823.60 0.1705
823.70 0.1705
823.80 0.1704
823.90 0.1703
824.00 0.1702
824.10 0.1702
824.20 0.1701
824.30 0.17
824.40 0.1699
824.50 0.1699
824.60 0.1698
824.70 0.1697
824.80 0.1696
824.90 0.1696
825.00 0.1695
825.10 0.1694
825.20 0.1693
825.30 0.1693
825.40 0.1692
825.50 0.1691
825.60 0.169
825.70 0.169
825.80 0.1689
825.90 0.1688
826.00 0.1687
826.10 0.1687
826.20 0.1686
826.30 0.1685
826.40 0.1684
826.50 0.1684
826.60 0.1683
826.70 0.1682
826.80 0.1681
826.90 0.1681
827.00 0.168
827.10 0.1679
827.20 0.1678
827.30 0.1678
827.40 0.1677
827.50 0.1676
827.60 0.1676
827.70 0.1675
827.80 0.1674
827.90 0.1673
828.00 0.1673
828.10 0.1672
828.20 0.1671
828.30 0.167
828.40 0.167
828.50 0.1669
828.60 0.1668
828.70 0.1667
828.80 0.1667
828.90 0.1666
829.00 0.1665
829.10 0.1664
829.20 0.1664
829.30 0.1663
829.40 0.1662
829.50 0.1662
829.60 0.1661
829.70 0.166
829.80 0.1659
829.90 0.1659
830.00 0.1658
830.10 0.1657
830.20 0.1656
830.30 0.1656
830.40 0.1655
830.50 0.1654
830.60 0.1653
830.70 0.1653
830.80 0.1652
830.90 0.1651
831.00 0.1651
831.10 0.165
831.20 0.1649
831.30 0.1648
831.40 0.1648
831.50 0.1647
831.60 0.1646
831.70 0.1645
831.80 0.1645
831.90 0.1644
832.00 0.1643
832.10 0.1642
832.20 0.1642
832.30 0.1641
832.40 0.164
832.50 0.1639
832.60 0.1639
832.70 0.1638
832.80 0.1637
832.90 0.1637
833.00 0.1636
833.10 0.1635
833.20 0.1634
833.30 0.1634
833.40 0.1633
833.50 0.1632
833.60 0.1631
833.70 0.1631
833.80 0.163
833.90 0.1629
834.00 0.1628
834.10 0.1628
834.20 0.1627
834.30 0.1626
834.40 0.1625
834.50 0.1625
834.60 0.1624
834.70 0.1623
834.80 0.1622
834.90 0.1622
835.00 0.1621
835.10 0.162
835.20 0.1619
835.30 0.1619
835.40 0.1618
835.50 0.1617
835.60 0.1617
835.70 0.1616
835.80 0.1615
835.90 0.1614
836.00 0.1614
836.10 0.1613
836.20 0.1612
836.30 0.1611
836.40 0.1611
836.50 0.161
836.60 0.1609
836.70 0.1608
836.80 0.1608
836.90 0.1607
837.00 0.1606
837.10 0.1605
837.20 0.1605
837.30 0.1604
837.40 0.1603
837.50 0.1603
837.60 0.1602
837.70 0.1601
837.80 0.16
837.90 0.16
838.00 0.1599
838.10 0.1598
838.20 0.1598
838.30 0.1597
838.40 0.1596
838.50 0.1595
838.60 0.1595
838.70 0.1594
838.80 0.1593
838.90 0.1593
839.00 0.1592
839.10 0.1591
839.20 0.1591
839.30 0.159
839.40 0.1589
839.50 0.1588
839.60 0.1588
839.70 0.1587
839.80 0.1586
839.90 0.1586
840.00 0.1585
840.10 0.1584
840.20 0.1583
840.30 0.1583
840.40 0.1582
840.50 0.1581
840.60 0.1581
840.70 0.158
840.80 0.1579
840.90 0.1578
841.00 0.1578
841.10 0.1577
841.20 0.1576
841.30 0.1576
841.40 0.1575
841.50 0.1574
841.60 0.1574
841.70 0.1573
841.80 0.1572
841.90 0.1571
842.00 0.1571
842.10 0.157
842.20 0.1569
842.30 0.1569
842.40 0.1568
842.50 0.1567
842.60 0.1567
842.70 0.1566
842.80 0.1565
842.90 0.1564
843.00 0.1564
843.10 0.1563
843.20 0.1562
843.30 0.1562
843.40 0.1561
843.50 0.156
843.60 0.156
843.70 0.1559
843.80 0.1558
843.90 0.1558
844.00 0.1557
844.10 0.1556
844.20 0.1555
844.30 0.1555
844.40 0.1554
844.50 0.1553
844.60 0.1553
844.70 0.1552
844.80 0.1551
844.90 0.1551
845.00 0.155
845.10 0.1549
845.20 0.1549
845.30 0.1548
845.40 0.1547
845.50 0.1547
845.60 0.1546
845.70 0.1545
845.80 0.1544
845.90 0.1544
846.00 0.1543
846.10 0.1542
846.20 0.1542
846.30 0.1541
846.40 0.154
846.50 0.154
846.60 0.1539
846.70 0.1538
846.80 0.1538
846.90 0.1537
847.00 0.1536
847.10 0.1536
847.20 0.1535
847.30 0.1534
847.40 0.1534
847.50 0.1533
847.60 0.1532
847.70 0.1532
847.80 0.1531
847.90 0.153
848.00 0.1529
848.10 0.1529
848.20 0.1528
848.30 0.1527
848.40 0.1527
848.50 0.1526
848.60 0.1525
848.70 0.1525
848.80 0.1524
848.90 0.1523
849.00 0.1523
849.10 0.1522
849.20 0.1521
849.30 0.1521
849.40 0.152
849.50 0.1519
849.60 0.1519
849.70 0.1518
849.80 0.1517
849.90 0.1517
850.00 0.1516
850.10 0.1515
850.20 0.1515
850.30 0.1514
850.40 0.1513
850.50 0.1513
850.60 0.1512
850.70 0.1511
850.80 0.1511
850.90 0.151
851.00 0.1509
851.10 0.1509
851.20 0.1508
851.30 0.1507
851.40 0.1507
851.50 0.1506
851.60 0.1505
851.70 0.1505
851.80 0.1504
851.90 0.1503
852.00 0.1503
852.10 0.1502
852.20 0.1502
852.30 0.1501
852.40 0.15
852.50 0.15
852.60 0.1499
852.70 0.1498
852.80 0.1498
852.90 0.1497
853.00 0.1496
853.10 0.1496
853.20 0.1495
853.30 0.1494
853.40 0.1494
853.50 0.1493
853.60 0.1492
853.70 0.1492
853.80 0.1491
853.90 0.149
854.00 0.149
854.10 0.1489
854.20 0.1489
854.30 0.1488
854.40 0.1487
854.50 0.1487
854.60 0.1486
854.70 0.1485
854.80 0.1485
854.90 0.1484
855.00 0.1483
855.10 0.1483
855.20 0.1482
855.30 0.1481
855.40 0.1481
855.50 0.148
855.60 0.1479
855.70 0.1479
855.80 0.1478
855.90 0.1478
856.00 0.1477
856.10 0.1476
856.20 0.1476
856.30 0.1475
856.40 0.1474
856.50 0.1474
856.60 0.1473
856.70 0.1472
856.80 0.1472
856.90 0.1471
857.00 0.1471
857.10 0.147
857.20 0.1469
857.30 0.1469
857.40 0.1468
857.50 0.1467
857.60 0.1467
857.70 0.1466
857.80 0.1466
857.90 0.1465
858.00 0.1464
858.10 0.1464
858.20 0.1463
858.30 0.1462
858.40 0.1462
858.50 0.1461
858.60 0.1461
858.70 0.146
858.80 0.1459
858.90 0.1459
859.00 0.1458
859.10 0.1458
859.20 0.1457
859.30 0.1456
859.40 0.1456
859.50 0.1455
859.60 0.1454
859.70 0.1454
859.80 0.1453
859.90 0.1453
860.00 0.1452
860.10 0.1451
860.20 0.1451
860.30 0.145
860.40 0.145
860.50 0.1449
860.60 0.1448
860.70 0.1448
860.80 0.1447
860.90 0.1446
861.00 0.1446
861.10 0.1445
861.20 0.1445
861.30 0.1444
861.40 0.1443
861.50 0.1443
861.60 0.1442
861.70 0.1442
861.80 0.1441
861.90 0.144
862.00 0.144
862.10 0.1439
862.20 0.1439
862.30 0.1438
862.40 0.1437
862.50 0.1437
862.60 0.1436
862.70 0.1435
862.80 0.1435
862.90 0.1434
863.00 0.1434
863.10 0.1433
863.20 0.1432
863.30 0.1432
863.40 0.1431
863.50 0.1431
863.60 0.143
863.70 0.1429
863.80 0.1429
863.90 0.1428
864.00 0.1428
864.10 0.1427
864.20 0.1426
864.30 0.1426
864.40 0.1425
864.50 0.1425
864.60 0.1424
864.70 0.1423
864.80 0.1423
864.90 0.1422
865.00 0.1422
865.10 0.1421
865.20 0.142
865.30 0.142
865.40 0.1419
865.50 0.1418
865.60 0.1418
865.70 0.1417
865.80 0.1417
865.90 0.1416
866.00 0.1415
866.10 0.1415
866.20 0.1414
866.30 0.1414
866.40 0.1413
866.50 0.1412
866.60 0.1412
866.70 0.1411
866.80 0.1411
866.90 0.141
867.00 0.1409
867.10 0.1409
867.20 0.1408
867.30 0.1408
867.40 0.1407
867.50 0.1407
867.60 0.1406
867.70 0.1405
867.80 0.1405
867.90 0.1404
868.00 0.1404
868.10 0.1403
868.20 0.1403
868.30 0.1402
868.40 0.1401
868.50 0.1401
868.60 0.14
868.70 0.14
868.80 0.1399
868.90 0.1399
869.00 0.1398
869.10 0.1397
869.20 0.1397
869.30 0.1396
869.40 0.1396
869.50 0.1395
869.60 0.1395
869.70 0.1394
869.80 0.1393
869.90 0.1393
870.00 0.1392
870.10 0.1392
870.20 0.1391
870.30 0.1391
870.40 0.139
870.50 0.1389
870.60 0.1389
870.70 0.1388
870.80 0.1388
870.90 0.1387
871.00 0.1387
871.10 0.1386
871.20 0.1385
871.30 0.1385
871.40 0.1384
871.50 0.1384
871.60 0.1383
871.70 0.1383
871.80 0.1382
871.90 0.1381
872.00 0.1381
872.10 0.138
872.20 0.138
872.30 0.1379
872.40 0.1379
872.50 0.1378
872.60 0.1378
872.70 0.1377
872.80 0.1376
872.90 0.1376
873.00 0.1375
873.10 0.1375
873.20 0.1374
873.30 0.1374
873.40 0.1373
873.50 0.1372
873.60 0.1372
873.70 0.1371
873.80 0.1371
873.90 0.137
874.00 0.137
874.10 0.1369
874.20 0.1369
874.30 0.1368
874.40 0.1367
874.50 0.1367
874.60 0.1366
874.70 0.1366
874.80 0.1365
874.90 0.1365
875.00 0.1364
875.10 0.1364
875.20 0.1363
875.30 0.1363
875.40 0.1362
875.50 0.1361
875.60 0.1361
875.70 0.136
875.80 0.136
875.90 0.1359
876.00 0.1359
876.10 0.1358
876.20 0.1358
876.30 0.1357
876.40 0.1356
876.50 0.1356
876.60 0.1355
876.70 0.1355
876.80 0.1354
876.90 0.1354
877.00 0.1353
877.10 0.1353
877.20 0.1352
877.30 0.1352
877.40 0.1351
877.50 0.135
877.60 0.135
877.70 0.1349
877.80 0.1349
877.90 0.1348
878.00 0.1348
878.10 0.1347
878.20 0.1347
878.30 0.1346
878.40 0.1346
878.50 0.1345
878.60 0.1345
878.70 0.1344
878.80 0.1344
878.90 0.1343
879.00 0.1342
879.10 0.1342
879.20 0.1341
879.30 0.1341
879.40 0.134
879.50 0.134
879.60 0.1339
879.70 0.1339
879.80 0.1338
879.90 0.1338
880.00 0.1337
880.10 0.1337
880.20 0.1336
880.30 0.1336
880.40 0.1335
880.50 0.1335
880.60 0.1334
880.70 0.1333
880.80 0.1333
880.90 0.1332
881.00 0.1332
881.10 0.1331
881.20 0.1331
881.30 0.133
881.40 0.133
881.50 0.1329
881.60 0.1329
881.70 0.1328
881.80 0.1328
881.90 0.1327
882.00 0.1327
882.10 0.1326
882.20 0.1326
882.30 0.1325
882.40 0.1324
882.50 0.1324
882.60 0.1323
882.70 0.1323
882.80 0.1322
882.90 0.1322
883.00 0.1321
883.10 0.1321
883.20 0.132
883.30 0.1319
883.40 0.1319
883.50 0.1318
883.60 0.1318
883.70 0.1317
883.80 0.1317
883.90 0.1316
884.00 0.1316
884.10 0.1315
884.20 0.1315
884.30 0.1314
884.40 0.1313
884.50 0.1313
884.60 0.1312
884.70 0.1312
884.80 0.1311
884.90 0.1311
885.00 0.131
885.10 0.131
885.20 0.1309
885.30 0.1308
885.40 0.1308
885.50 0.1307
885.60 0.1307
885.70 0.1306
885.80 0.1306
885.90 0.1305
886.00 0.1305
886.10 0.1304
886.20 0.1304
886.30 0.1303
886.40 0.1303
886.50 0.1302
886.60 0.1301
886.70 0.1301
886.80 0.13
886.90 0.13
887.00 0.1299
887.10 0.1299
887.20 0.1298
887.30 0.1298
887.40 0.1297
887.50 0.1297
887.60 0.1297
887.70 0.1296
887.80 0.1296
887.90 0.1295
888.00 0.1295
888.10 0.1294
888.20 0.1294
888.30 0.1293
888.40 0.1293
888.50 0.1292
888.60 0.1292
888.70 0.1292
888.80 0.1291
888.90 0.1291
889.00 0.129
889.10 0.129
889.20 0.1289
889.30 0.1289
889.40 0.1288
889.50 0.1288
889.60 0.1288
889.70 0.1287
889.80 0.1287
889.90 0.1286
890.00 0.1286
890.10 0.1285
890.20 0.1285
890.30 0.1284
890.40 0.1284
890.50 0.1284
890.60 0.1283
890.70 0.1283
890.80 0.1282
890.90 0.1282
891.00 0.1281
891.10 0.1281
891.20 0.128
891.30 0.128
891.40 0.128
891.50 0.1279
891.60 0.1279
891.70 0.1278
891.80 0.1278
891.90 0.1277
892.00 0.1277
892.10 0.1276
892.20 0.1276
892.30 0.1275
892.40 0.1275
892.50 0.1274
892.60 0.1274
892.70 0.1273
892.80 0.1272
892.90 0.1272
893.00 0.1271
893.10 0.1271
893.20 0.127
893.30 0.127
893.40 0.1269
893.50 0.1269
893.60 0.1268
893.70 0.1267
893.80 0.1267
893.90 0.1266
894.00 0.1266
894.10 0.1265
894.20 0.1265
894.30 0.1264
894.40 0.1264
894.50 0.1263
894.60 0.1262
894.70 0.1262
894.80 0.1261
894.90 0.1261
895.00 0.126
895.10 0.126
895.20 0.1259
895.30 0.1259
895.40 0.1258
895.50 0.1257
895.60 0.1257
895.70 0.1256
895.80 0.1256
895.90 0.1255
896.00 0.1255
896.10 0.1254
896.20 0.1254
896.30 0.1253
896.40 0.1253
896.50 0.1252
896.60 0.1251
896.70 0.1251
896.80 0.125
896.90 0.125
897.00 0.1249
897.10 0.1249
897.20 0.1248
897.30 0.1247
897.40 0.1247
897.50 0.1246
897.60 0.1246
897.70 0.1245
897.80 0.1244
897.90 0.1244
898.00 0.1243
898.10 0.1243
898.20 0.1242
898.30 0.1241
898.40 0.1241
898.50 0.124
898.60 0.124
898.70 0.1239
898.80 0.1238
898.90 0.1238
899.00 0.1237
899.10 0.1237
899.20 0.1236
899.30 0.1235
899.40 0.1235
899.50 0.1234
899.60 0.1234
899.70 0.1233
899.80 0.1232
899.90 0.1232
900.00 0.1231
900.10 0.1231
900.20 0.123
900.30 0.1229
900.40 0.1229
900.50 0.1228
900.60 0.1228
900.70 0.1227
900.80 0.1227
900.90 0.1226
901.00 0.1225
901.10 0.1225
901.20 0.1224
901.30 0.1224
901.40 0.1223
901.50 0.1222
901.60 0.1222
901.70 0.1221
901.80 0.1221
901.90 0.122
902.00 0.1219
902.10 0.1219
902.20 0.1219
902.30 0.1219
902.40 0.1218
902.50 0.1218
902.60 0.1218
902.70 0.1217
902.80 0.1217
902.90 0.1217
903.00 0.1217
903.10 0.1216
903.20 0.1216
903.30 0.1216
903.40 0.1216
903.50 0.1215
903.60 0.1215
903.70 0.1215
903.80 0.1214
903.90 0.1214
904.00 0.1214
904.10 0.1214
904.20 0.1213
904.30 0.1213
904.40 0.1213
904.50 0.1213
904.60 0.1212
904.70 0.1212
904.80 0.1212
904.90 0.1211
905.00 0.1211
905.10 0.1211
905.20 0.1211
905.30 0.121
905.40 0.121
905.50 0.121
905.60 0.121
905.70 0.1209
905.80 0.1209
905.90 0.1209
906.00 0.1208
906.10 0.1208
906.20 0.1208
906.30 0.1208
906.40 0.1207
906.50 0.1207
906.60 0.1207
906.70 0.1207
906.80 0.1206
906.90 0.1206
907.00 0.1206
907.10 0.1205
907.20 0.1205
907.30 0.1204
907.40 0.1204
907.50 0.1204
907.60 0.1203
907.70 0.1203
907.80 0.1202
907.90 0.1202
908.00 0.1201
908.10 0.1201
908.20 0.1201
908.30 0.12
908.40 0.12
908.50 0.1199
908.60 0.1199
908.70 0.1198
908.80 0.1198
908.90 0.1198
909.00 0.1197
909.10 0.1197
909.20 0.1196
909.30 0.1196
909.40 0.1195
909.50 0.1195
909.60 0.1195
909.70 0.1194
909.80 0.1194
909.90 0.1193
910.00 0.1193
910.10 0.1192
910.20 0.1192
910.30 0.1192
910.40 0.1191
910.50 0.1191
910.60 0.119
910.70 0.119
910.80 0.1189
910.90 0.1189
911.00 0.1189
911.10 0.1188
911.20 0.1188
911.30 0.1187
911.40 0.1187
911.50 0.1186
911.60 0.1186
911.70 0.1186
911.80 0.1185
911.90 0.1185
912.00 0.1184
912.10 0.1184
912.20 0.1183
912.30 0.1182
912.40 0.1182
912.50 0.1181
912.60 0.118
912.70 0.118
912.80 0.1179
912.90 0.1179
913.00 0.1178
913.10 0.1177
913.20 0.1177
913.30 0.1176
913.40 0.1175
913.50 0.1175
913.60 0.1174
913.70 0.1173
913.80 0.1173
913.90 0.1172
914.00 0.1172
914.10 0.1171
914.20 0.117
914.30 0.117
914.40 0.1169
914.50 0.1168
914.60 0.1168
914.70 0.1167
914.80 0.1166
914.90 0.1166
915.00 0.1165
915.10 0.1165
915.20 0.1164
915.30 0.1163
915.40 0.1163
915.50 0.1162
915.60 0.1161
915.70 0.1161
915.80 0.116
915.90 0.1159
916.00 0.1159
916.10 0.1158
916.20 0.1158
916.30 0.1157
916.40 0.1156
916.50 0.1156
916.60 0.1155
916.70 0.1154
916.80 0.1154
916.90 0.1153
917.00 0.1153
917.10 0.1152
917.20 0.1151
917.30 0.115
917.40 0.1149
917.50 0.1148
917.60 0.1148
917.70 0.1147
917.80 0.1146
917.90 0.1145
918.00 0.1144
918.10 0.1144
918.20 0.1143
918.30 0.1142
918.40 0.1141
918.50 0.114
918.60 0.114
918.70 0.1139
918.80 0.1138
918.90 0.1137
919.00 0.1136
919.10 0.1135
919.20 0.1135
919.30 0.1134
919.40 0.1133
919.50 0.1132
919.60 0.1131
919.70 0.1131
919.80 0.113
919.90 0.1129
920.00 0.1128
920.10 0.1127
920.20 0.1127
920.30 0.1126
920.40 0.1125
920.50 0.1124
920.60 0.1123
920.70 0.1123
920.80 0.1122
920.90 0.1121
921.00 0.112
921.10 0.1119
921.20 0.1119
921.30 0.1118
921.40 0.1117
921.50 0.1116
921.60 0.1115
921.70 0.1114
921.80 0.1114
921.90 0.1113
922.00 0.1112
922.10 0.1112
922.20 0.1112
922.30 0.1112
922.40 0.1112
922.50 0.1112
922.60 0.1111
922.70 0.1111
922.80 0.1111
922.90 0.1111
923.00 0.1111
923.10 0.1111
923.20 0.1111
923.30 0.1111
923.40 0.1111
923.50 0.111
923.60 0.111
923.70 0.111
923.80 0.111
923.90 0.111
924.00 0.111
924.10 0.111
924.20 0.111
924.30 0.1109
924.40 0.1109
924.50 0.1109
924.60 0.1109
924.70 0.1109
924.80 0.1109
924.90 0.1109
925.00 0.1109
925.10 0.1109
925.20 0.1108
925.30 0.1108
925.40 0.1108
925.50 0.1108
925.60 0.1108
925.70 0.1108
925.80 0.1108
925.90 0.1108
926.00 0.1108
926.10 0.1107
926.20 0.1107
926.30 0.1107
926.40 0.1107
926.50 0.1107
926.60 0.1107
926.70 0.1107
926.80 0.1107
926.90 0.1107
927.00 0.1106
927.10 0.1106
927.20 0.1106
927.30 0.1106
927.40 0.1106
927.50 0.1106
927.60 0.1106
927.70 0.1106
927.80 0.1106
927.90 0.1106
928.00 0.1106
928.10 0.1105
928.20 0.1105
928.30 0.1105
928.40 0.1105
928.50 0.1105
928.60 0.1105
928.70 0.1105
928.80 0.1105
928.90 0.1105
929.00 0.1105
929.10 0.1105
929.20 0.1104
929.30 0.1104
929.40 0.1104
929.50 0.1104
929.60 0.1104
929.70 0.1104
929.80 0.1104
929.90 0.1104
930.00 0.1104
930.10 0.1104
930.20 0.1104
930.30 0.1103
930.40 0.1103
930.50 0.1103
930.60 0.1103
930.70 0.1103
930.80 0.1103
930.90 0.1103
931.00 0.1103
931.10 0.1103
931.20 0.1103
931.30 0.1102
931.40 0.1102
931.50 0.1102
931.60 0.1102
931.70 0.1102
931.80 0.1102
931.90 0.1102
932.00 0.1102
932.10 0.1102
932.20 0.1101
932.30 0.1101
932.40 0.1101
932.50 0.1101
932.60 0.11
932.70 0.11
932.80 0.11
932.90 0.11
933.00 0.1099
933.10 0.1099
933.20 0.1099
933.30 0.1099
933.40 0.1098
933.50 0.1098
933.60 0.1098
933.70 0.1098
933.80 0.1097
933.90 0.1097
934.00 0.1097
934.10 0.1097
934.20 0.1096
934.30 0.1096
934.40 0.1096
934.50 0.1095
934.60 0.1095
934.70 0.1095
934.80 0.1094
934.90 0.1094
935.00 0.1094
935.10 0.1093
935.20 0.1093
935.30 0.1092
935.40 0.1092
935.50 0.1092
935.60 0.1091
935.70 0.1091
935.80 0.1091
935.90 0.109
936.00 0.109
936.10 0.109
936.20 0.1089
936.30 0.1089
936.40 0.1089
936.50 0.1088
936.60 0.1088
936.70 0.1087
936.80 0.1087
936.90 0.1087
937.00 0.1086
937.10 0.1086
937.20 0.1086
937.30 0.1085
937.40 0.1085
937.50 0.1084
937.60 0.1084
937.70 0.1083
937.80 0.1083
937.90 0.1082
938.00 0.1082
938.10 0.1082
938.20 0.1081
938.30 0.1081
938.40 0.108
938.50 0.108
938.60 0.1079
938.70 0.1079
938.80 0.1078
938.90 0.1078
939.00 0.1077
939.10 0.1077
939.20 0.1076
939.30 0.1076
939.40 0.1075
939.50 0.1075
939.60 0.1074
939.70 0.1074
939.80 0.1073
939.90 0.1072
940.00 0.1072
940.10 0.1071
940.20 0.1071
940.30 0.107
940.40 0.107
940.50 0.1069
940.60 0.1069
940.70 0.1068
940.80 0.1067
940.90 0.1067
941.00 0.1066
941.10 0.1066
941.20 0.1065
941.30 0.1065
941.40 0.1064
941.50 0.1063
941.60 0.1063
941.70 0.1062
941.80 0.1062
941.90 0.1061
942.00 0.106
942.10 0.106
942.20 0.1059
942.30 0.1058
942.40 0.1058
942.50 0.1057
942.60 0.1056
942.70 0.1056
942.80 0.1055
942.90 0.1054
943.00 0.1054
943.10 0.1053
943.20 0.1052
943.30 0.1051
943.40 0.1051
943.50 0.105
943.60 0.1049
943.70 0.1049
943.80 0.1048
943.90 0.1047
944.00 0.1047
944.10 0.1046
944.20 0.1045
944.30 0.1044
944.40 0.1044
944.50 0.1043
944.60 0.1042
944.70 0.1041
944.80 0.1041
944.90 0.104
945.00 0.1039
945.10 0.1038
945.20 0.1037
945.30 0.1037
945.40 0.1036
945.50 0.1035
945.60 0.1034
945.70 0.1033
945.80 0.1032
945.90 0.1032
946.00 0.1031
946.10 0.103
946.20 0.1029
946.30 0.1028
946.40 0.1027
946.50 0.1026
946.60 0.1026
946.70 0.1025
946.80 0.1024
946.90 0.1023
947.00 0.1022
947.10 0.1021
947.20 0.102
947.30 0.1019
947.40 0.1018
947.50 0.1017
947.60 0.1016
947.70 0.1015
947.80 0.1014
947.90 0.1013
948.00 0.1012
948.10 0.1011
948.20 0.1011
948.30 0.101
948.40 0.1009
948.50 0.1008
948.60 0.1007
948.70 0.1006
948.80 0.1005
948.90 0.1004
949.00 0.1003
949.10 0.1002
949.20 0.1001
949.30 0.09997
949.40 0.09985
949.50 0.09974
949.60 0.09963
949.70 0.09952
949.80 0.09941
949.90 0.0993
950.00 0.09918
950.10 0.09907
950.20 0.09896
950.30 0.09885
950.40 0.09874
950.50 0.09863
950.60 0.09852
950.70 0.0984
950.80 0.09829
950.90 0.09818
951.00 0.09807
951.10 0.09796
951.20 0.09785
951.30 0.09774
951.40 0.09762
951.50 0.0975
951.60 0.09738
951.70 0.09726
951.80 0.09714
951.90 0.09702
952.00 0.0969
952.10 0.09678
952.20 0.09666
952.30 0.09654
952.40 0.09641
952.50 0.09629
952.60 0.09617
952.70 0.09604
952.80 0.09592
952.90 0.0958
953.00 0.09567
953.10 0.09554
953.20 0.09542
953.30 0.09529
953.40 0.09517
953.50 0.09504
953.60 0.09492
953.70 0.09479
953.80 0.09467
953.90 0.09454
954.00 0.09442
954.10 0.0943
954.20 0.09418
954.30 0.09407
954.40 0.09396
954.50 0.09387
954.60 0.09384
954.70 0.0938
954.80 0.09385
954.90 0.09389
955.00 0.09394
955.10 0.09398
955.20 0.09404
955.30 0.0941
955.40 0.09416
955.50 0.09421
955.60 0.09427
955.70 0.09433
955.80 0.09439
955.90 0.09444
956.00 0.0945
956.10 0.09456
956.20 0.09461
956.30 0.09467
956.40 0.09473
956.50 0.09478
956.60 0.09484
956.70 0.0949
956.80 0.09495
956.90 0.09501
957.00 0.09507
957.10 0.09512
957.20 0.09517
957.30 0.09522
957.40 0.09527
957.50 0.09531
957.60 0.09536
957.70 0.0954
957.80 0.09545
957.90 0.09549
958.00 0.09554
958.10 0.09558
958.20 0.09563
958.30 0.09567
958.40 0.09572
958.50 0.09576
958.60 0.09581
958.70 0.09585
958.80 0.0959
958.90 0.09594
959.00 0.09598
959.10 0.09603
959.20 0.09607
959.30 0.09612
959.40 0.09615
959.50 0.09618
959.60 0.09621
959.70 0.09624
959.80 0.09627
959.90 0.09631
960.00 0.09634
960.10 0.09637
960.20 0.0964
960.30 0.09643
960.40 0.09646
960.50 0.09649
960.60 0.09652
960.70 0.09656
960.80 0.09659
960.90 0.09662
961.00 0.09665
961.10 0.09668
961.20 0.09671
961.30 0.09674
961.40 0.09676
961.50 0.09679
961.60 0.09681
961.70 0.09683
961.80 0.09685
961.90 0.09687
962.00 0.0969
962.10 0.09691
962.20 0.09693
962.30 0.09694
962.40 0.09696
962.50 0.09698
962.60 0.09699
962.70 0.09701
962.80 0.09702
962.90 0.09704
963.00 0.09706
963.10 0.09707
963.20 0.09709
963.30 0.0971
963.40 0.09711
963.50 0.09712
963.60 0.09713
963.70 0.09714
963.80 0.09715
963.90 0.09716
964.00 0.09717
964.10 0.09718
964.20 0.09719
964.30 0.0972
964.40 0.0972
964.50 0.0972
964.60 0.0972
964.70 0.0972
964.80 0.09721
964.90 0.09721
965.00 0.09721
965.10 0.09721
965.20 0.09721
965.30 0.09721
965.40 0.09722
965.50 0.09722
965.60 0.09722
965.70 0.09722
965.80 0.09722
965.90 0.09722
966.00 0.09722
966.10 0.09723
966.20 0.09723
966.30 0.09723
966.40 0.09722
966.50 0.09722
966.60 0.09722
966.70 0.09721
966.80 0.09721
966.90 0.0972
967.00 0.0972
967.10 0.09719
967.20 0.09718
967.30 0.09717
967.40 0.09716
967.50 0.09716
967.60 0.09715
967.70 0.09714
967.80 0.09713
967.90 0.09712
968.00 0.09711
968.10 0.0971
968.20 0.0971
968.30 0.09709
968.40 0.09707
968.50 0.09706
968.60 0.09704
968.70 0.09703
968.80 0.09702
968.90 0.097
969.00 0.09699
969.10 0.09697
969.20 0.09696
969.30 0.09694
969.40 0.09693
969.50 0.09692
969.60 0.0969
969.70 0.09689
969.80 0.09687
969.90 0.09686
970.00 0.09684
970.10 0.09683
970.20 0.09682
970.30 0.0968
970.40 0.09678
970.50 0.09676
970.60 0.09674
970.70 0.09672
970.80 0.0967
970.90 0.09668
971.00 0.09666
971.10 0.09664
971.20 0.09662
971.30 0.0966
971.40 0.09658
971.50 0.09656
971.60 0.09654
971.70 0.09652
971.80 0.0965
971.90 0.09648
972.00 0.09646
972.10 0.09644
972.20 0.09641
972.30 0.09639
972.40 0.09636
972.50 0.09634
972.60 0.09632
972.70 0.09629
972.80 0.09627
972.90 0.09624
973.00 0.09622
973.10 0.09619
973.20 0.09617
973.30 0.09614
973.40 0.09612
973.50 0.09609
973.60 0.09607
973.70 0.09604
973.80 0.09602
973.90 0.09599
974.00 0.09597
974.10 0.09594
974.20 0.09592
974.30 0.0959
974.40 0.09586
974.50 0.09583
974.60 0.0958
974.70 0.09577
974.80 0.09574
974.90 0.09571
975.00 0.09568
975.10 0.09565
975.20 0.09562
975.30 0.09559
975.40 0.09556
975.50 0.09553
975.60 0.0955
975.70 0.09547
975.80 0.09544
975.90 0.09541
976.00 0.09538
976.10 0.09535
976.20 0.09533
976.30 0.0953
976.40 0.09527
976.50 0.09524
976.60 0.09521
976.70 0.09518
976.80 0.09515
976.90 0.09512
977.00 0.09509
977.10 0.09505
977.20 0.09501
977.30 0.09497
977.40 0.09494
977.50 0.0949
977.60 0.09486
977.70 0.09483
977.80 0.09479
977.90 0.09475
978.00 0.09471
978.10 0.09468
978.20 0.09464
978.30 0.0946
978.40 0.09457
978.50 0.09453
978.60 0.09449
978.70 0.09445
978.80 0.09442
978.90 0.09438
979.00 0.09434
979.10 0.09431
979.20 0.09427
979.30 0.09423
979.40 0.0942
979.50 0.09416
979.60 0.09412
979.70 0.09408
979.80 0.09405
979.90 0.09401
980.00 0.09397
980.10 0.09394
980.20 0.0939
980.30 0.09386
980.40 0.09383
980.50 0.09379
980.60 0.09375
980.70 0.09372
980.80 0.09368
980.90 0.09364
981.00 0.09361
981.10 0.09357
981.20 0.09353
981.30 0.0935
981.40 0.09346
981.50 0.09342
981.60 0.09339
981.70 0.09335
981.80 0.09331
981.90 0.09328
982.00 0.09324
982.10 0.0932
982.20 0.09315
982.30 0.09311
982.40 0.09306
982.50 0.09302
982.60 0.09297
982.70 0.09293
982.80 0.09289
982.90 0.09284
983.00 0.0928
983.10 0.09275
983.20 0.09271
983.30 0.09267
983.40 0.09262
983.50 0.09258
983.60 0.09253
983.70 0.09249
983.80 0.09245
983.90 0.0924
984.00 0.09236
984.10 0.09231
984.20 0.09227
984.30 0.09223
984.40 0.09218
984.50 0.09214
984.60 0.09209
984.70 0.09205
984.80 0.092
984.90 0.09195
985.00 0.0919
985.10 0.09185
985.20 0.0918
985.30 0.09175
985.40 0.0917
985.50 0.09165
985.60 0.0916
985.70 0.09155
985.80 0.0915
985.90 0.09145
986.00 0.0914
986.10 0.09135
986.20 0.0913
986.30 0.09125
986.40 0.0912
986.50 0.09115
986.60 0.0911
986.70 0.09105
986.80 0.091
986.90 0.09095
987.00 0.0909
987.10 0.09085
987.20 0.09079
987.30 0.09074
987.40 0.09068
987.50 0.09063
987.60 0.09057
987.70 0.09052
987.80 0.09046
987.90 0.09041
988.00 0.09035
988.10 0.0903
988.20 0.09024
988.30 0.09019
988.40 0.09013
988.50 0.09008
988.60 0.09002
988.70 0.08996
988.80 0.0899
988.90 0.08984
989.00 0.08978
989.10 0.08972
989.20 0.08966
989.30 0.0896
989.40 0.08953
989.50 0.08947
989.60 0.08941
989.70 0.08935
989.80 0.08929
989.90 0.08923
990.00 0.08917
990.10 0.08911
990.20 0.08904
990.30 0.08898
990.40 0.08892
990.50 0.08886
990.60 0.0888
990.70 0.08873
990.80 0.08867
990.90 0.0886
991.00 0.08853
991.10 0.08846
991.20 0.08839
991.30 0.08833
991.40 0.08826
991.50 0.08819
991.60 0.08812
991.70 0.08805
991.80 0.08799
991.90 0.08792
992.00 0.08785
992.10 0.08778
992.20 0.0877
992.30 0.08763
992.40 0.08756
992.50 0.08749
992.60 0.08741
992.70 0.08734
992.80 0.08726
992.90 0.08718
993.00 0.0871
993.10 0.08702
993.20 0.08694
993.30 0.08686
993.40 0.08678
993.50 0.0867
993.60 0.08662
993.70 0.08654
993.80 0.08646
993.90 0.08638
994.00 0.0863
994.10 0.08622
994.20 0.08614
994.30 0.08606
994.40 0.08598
994.50 0.0859
994.60 0.08582
994.70 0.08573
994.80 0.08564
994.90 0.08555
995.00 0.08546
995.10 0.08538
995.20 0.08529
995.30 0.0852
995.40 0.08511
995.50 0.08502
995.60 0.08493
995.70 0.08483
995.80 0.08474
995.90 0.08464
996.00 0.08454
996.10 0.08444
996.20 0.08435
996.30 0.08425
996.40 0.08415
996.50 0.08405
996.60 0.08395
996.70 0.08386
996.80 0.08376
996.90 0.08366
997.00 0.08356
997.10 0.08346
997.20 0.08335
997.30 0.08325
997.40 0.08314
997.50 0.08304
997.60 0.08293
997.70 0.08282
997.80 0.0827
997.90 0.08258
998.00 0.08246
998.10 0.08234
998.20 0.08223
998.30 0.08211
998.40 0.08199
998.50 0.08187
998.60 0.08175
998.70 0.08164
998.80 0.08152
998.90 0.0814
999.00 0.08128
999.10 0.08117
999.20 0.08105
999.30 0.08093
999.40 0.08082
999.50 0.0807
999.60 0.08058
999.70 0.08045
999.80 0.08031
999.90 0.08017
1000.00 0.08003
1000.10 0.07989
1000.20 0.07975
1000.30 0.07962
1000.40 0.07948
1000.50 0.07934
1000.60 0.0792
1000.70 0.07906
1000.80 0.07892
1000.90 0.07879
1001.00 0.07865
1001.10 0.07851
1001.20 0.07837
1001.30 0.07823
1001.40 0.0781
1001.50 0.07796
1001.60 0.07782
1001.70 0.07767
1001.80 0.07752
1001.90 0.07737
1002.00 0.07722
1002.10 0.07706
1002.20 0.07689
1002.30 0.07673
1002.40 0.07657
1002.50 0.07641
1002.60 0.07625
1002.70 0.07609
1002.80 0.07593
1002.90 0.07577
1003.00 0.07561
1003.10 0.07545
1003.20 0.07529
1003.30 0.07512
1003.40 0.07495
1003.50 0.07479
1003.60 0.07462
1003.70 0.07445
1003.80 0.07429
1003.90 0.07413
1004.00 0.07397
1004.10 0.07381
1004.20 0.07365
1004.30 0.07351
1004.40 0.07337
1004.50 0.07324
1004.60 0.07315
1004.70 0.07309
1004.80 0.07308
1004.90 0.07307
1005.00 0.07305
1005.10 0.07305
1005.20 0.07306
1005.30 0.07306
1005.40 0.07307
1005.50 0.07315
1005.60 0.07325
1005.70 0.07335
1005.80 0.07345
1005.90 0.07356
1006.00 0.07366
1006.10 0.07376
1006.20 0.07387
1006.30 0.07399
1006.40 0.0741
1006.50 0.07421
1006.60 0.07433
1006.70 0.07444
1006.80 0.07456
1006.90 0.07467
1007.00 0.07478
1007.10 0.07489
1007.20 0.075
1007.30 0.0751
1007.40 0.07521
1007.50 0.07531
1007.60 0.07542
1007.70 0.07551
1007.80 0.0756
1007.90 0.07569
1008.00 0.07578
1008.10 0.07587
1008.20 0.07596
1008.30 0.07605
1008.40 0.07614
1008.50 0.07623
1008.60 0.07632
1008.70 0.0764
1008.80 0.07649
1008.90 0.07658
1009.00 0.07667
1009.10 0.07676
1009.20 0.07685
1009.30 0.07694
1009.40 0.07703
1009.50 0.07711
1009.60 0.0772
1009.70 0.07727
1009.80 0.07734
1009.90 0.0774
1010.00 0.07747
1010.10 0.07753
1010.20 0.0776
1010.30 0.07766
1010.40 0.07772
1010.50 0.07779
1010.60 0.07785
1010.70 0.07792
1010.80 0.07798
1010.90 0.07805
1011.00 0.07811
1011.10 0.07817
1011.20 0.07824
1011.30 0.0783
1011.40 0.07837
1011.50 0.07843
1011.60 0.07849
1011.70 0.07855
1011.80 0.0786
1011.90 0.07865
1012.00 0.0787
1012.10 0.07874
1012.20 0.07879
1012.30 0.07883
1012.40 0.07887
1012.50 0.07891
1012.60 0.07896
1012.70 0.079
1012.80 0.07904
1012.90 0.07908
1013.00 0.07912
1013.10 0.07917
1013.20 0.07921
1013.30 0.07925
1013.40 0.07929
1013.50 0.07933
1013.60 0.07938
1013.70 0.07941
1013.80 0.07944
1013.90 0.07947
1014.00 0.0795
1014.10 0.07953
1014.20 0.07956
1014.30 0.0796
1014.40 0.07963
1014.50 0.07966
1014.60 0.07969
1014.70 0.07971
1014.80 0.07973
1014.90 0.07975
1015.00 0.07977
1015.10 0.07979
1015.20 0.07981
1015.30 0.07983
1015.40 0.07985
1015.50 0.07988
1015.60 0.0799
1015.70 0.07992
1015.80 0.07994
1015.90 0.07996
1016.00 0.07998
1016.10 0.08
1016.20 0.08002
1016.30 0.08004
1016.40 0.08006
1016.50 0.08008
1016.60 0.0801
1016.70 0.08011
1016.80 0.08013
1016.90 0.08014
1017.00 0.08015
1017.10 0.08016
1017.20 0.08017
1017.30 0.08018
1017.40 0.08019
1017.50 0.08019
1017.60 0.0802
1017.70 0.08021
1017.80 0.08022
1017.90 0.08023
1018.00 0.08023
1018.10 0.08024
1018.20 0.08025
1018.30 0.08026
1018.40 0.08027
1018.50 0.08027
1018.60 0.08028
1018.70 0.08028
1018.80 0.08028
1018.90 0.08028
1019.00 0.08028
1019.10 0.08029
1019.20 0.08029
1019.30 0.08029
1019.40 0.08029
1019.50 0.08029
1019.60 0.08029
1019.70 0.08029
1019.80 0.08029
1019.90 0.08029
1020.00 0.08029
1020.10 0.08029
1020.20 0.08029
1020.30 0.08029
1020.40 0.08029
1020.50 0.08029
1020.60 0.08029
1020.70 0.08028
1020.80 0.08028
1020.90 0.08027
1021.00 0.08027
1021.10 0.08026
1021.20 0.08026
1021.30 0.08025
1021.40 0.08024
1021.50 0.08024
1021.60 0.08023
1021.70 0.08023
1021.80 0.08022
1021.90 0.08022
1022.00 0.08021
1022.10 0.0802
1022.20 0.08019
1022.30 0.08018
1022.40 0.08017
1022.50 0.08016
1022.60 0.08015
1022.70 0.08013
1022.80 0.08012
1022.90 0.08011
1023.00 0.0801
1023.10 0.08009
1023.20 0.08008
1023.30 0.08007
1023.40 0.08006
1023.50 0.08005
1023.60 0.08004
1023.70 0.08003
1023.80 0.08002
1023.90 0.08
1024.00 0.07999
1024.10 0.07998
1024.20 0.07997
1024.30 0.07996
1024.40 0.07995
1024.50 0.07994
1024.60 0.07993
1024.70 0.07991
1024.80 0.0799
1024.90 0.07988
1025.00 0.07987
1025.10 0.07985
1025.20 0.07984
1025.30 0.07982
1025.40 0.0798
1025.50 0.07979
1025.60 0.07977
1025.70 0.07976
1025.80 0.07974
1025.90 0.07973
1026.00 0.07971
1026.10 0.07969
1026.20 0.07968
1026.30 0.07966
1026.40 0.07965
1026.50 0.07963
1026.60 0.07962
1026.70 0.0796
1026.80 0.07958
1026.90 0.07957
1027.00 0.07955
1027.10 0.07953
1027.20 0.07951
1027.30 0.07949
1027.40 0.07947
1027.50 0.07945
1027.60 0.07943
1027.70 0.07941
1027.80 0.07939
1027.90 0.07937
1028.00 0.07935
1028.10 0.07933
1028.20 0.07931
1028.30 0.07929
1028.40 0.07927
1028.50 0.07925
1028.60 0.07923
1028.70 0.07921
1028.80 0.07919
1028.90 0.07917
1029.00 0.07915
1029.10 0.07913
1029.20 0.07911
1029.30 0.07909
1029.40 0.07907
1029.50 0.07905
1029.60 0.07903
1029.70 0.07901
1029.80 0.07898
1029.90 0.07896
1030.00 0.07894
1030.10 0.07892
1030.20 0.0789
1030.30 0.07888
1030.40 0.07886
1030.50 0.07884
1030.60 0.07882
1030.70 0.0788
1030.80 0.07878
1030.90 0.07876
1031.00 0.07874
1031.10 0.07872
1031.20 0.0787
1031.30 0.07868
1031.40 0.07866
1031.50 0.07864
1031.60 0.07862
1031.70 0.0786
1031.80 0.07858
1031.90 0.07856
1032.00 0.07854
1032.10 0.07852
1032.20 0.07849
1032.30 0.07847
1032.40 0.07845
1032.50 0.07842
1032.60 0.0784
1032.70 0.07838
1032.80 0.07835
1032.90 0.07833
1033.00 0.0783
1033.10 0.07828
1033.20 0.07826
1033.30 0.07823
1033.40 0.07821
1033.50 0.07819
1033.60 0.07816
1033.70 0.07814
1033.80 0.07811
1033.90 0.07809
1034.00 0.07807
1034.10 0.07804
1034.20 0.07802
1034.30 0.078
1034.40 0.07797
1034.50 0.07795
1034.60 0.07792
1034.70 0.0779
1034.80 0.07788
1034.90 0.07785
1035.00 0.07783
1035.10 0.07781
1035.20 0.07778
1035.30 0.07776
1035.40 0.07774
1035.50 0.07771
1035.60 0.07769
1035.70 0.07766
1035.80 0.07764
1035.90 0.07762
1036.00 0.07759
1036.10 0.07757
1036.20 0.07755
1036.30 0.07752
1036.40 0.0775
1036.50 0.07748
1036.60 0.07745
1036.70 0.07743
1036.80 0.07741
1036.90 0.07738
1037.00 0.07736
1037.10 0.07733
1037.20 0.07731
1037.30 0.07728
1037.40 0.07726
1037.50 0.07723
1037.60 0.07721
1037.70 0.07718
1037.80 0.07715
1037.90 0.07713
1038.00 0.0771
1038.10 0.07708
1038.20 0.07705
1038.30 0.07703
1038.40 0.077
1038.50 0.07698
1038.60 0.07695
1038.70 0.07693
1038.80 0.0769
1038.90 0.07687
1039.00 0.07685
1039.10 0.07682
1039.20 0.0768
1039.30 0.07677
1039.40 0.07675
1039.50 0.07672
1039.60 0.0767
1039.70 0.07667
1039.80 0.07665
1039.90 0.07662
1040.00 0.0766
1040.10 0.07657
1040.20 0.07655
1040.30 0.07652
1040.40 0.07649
1040.50 0.07647
1040.60 0.07644
1040.70 0.07642
1040.80 0.07639
1040.90 0.07637
1041.00 0.07634
1041.10 0.07632
1041.20 0.07629
1041.30 0.07627
1041.40 0.07624
1041.50 0.07622
1041.60 0.07619
1041.70 0.07617
1041.80 0.07614
1041.90 0.07612
1042.00 0.07609
1042.10 0.07606
1042.20 0.07604
1042.30 0.07601
1042.40 0.07599
1042.50 0.07596
1042.60 0.07593
1042.70 0.07591
1042.80 0.07588
1042.90 0.07585
1043.00 0.07583
1043.10 0.0758
1043.20 0.07577
1043.30 0.07575
1043.40 0.07572
1043.50 0.07569
1043.60 0.07567
1043.70 0.07564
1043.80 0.07562
1043.90 0.07559
1044.00 0.07556
1044.10 0.07554
1044.20 0.07551
1044.30 0.07548
1044.40 0.07546
1044.50 0.07543
1044.60 0.07541
1044.70 0.07538
1044.80 0.07535
1044.90 0.07533
1045.00 0.0753
1045.10 0.07527
1045.20 0.07525
1045.30 0.07522
1045.40 0.0752
1045.50 0.07517
1045.60 0.07514
1045.70 0.07512
1045.80 0.07509
1045.90 0.07506
1046.00 0.07504
1046.10 0.07501
1046.20 0.07499
1046.30 0.07496
1046.40 0.07493
1046.50 0.07491
1046.60 0.07488
1046.70 0.07486
1046.80 0.07483
1046.90 0.0748
1047.00 0.07478
1047.10 0.07475
1047.20 0.07472
1047.30 0.0747
1047.40 0.07467
1047.50 0.07464
1047.60 0.07462
1047.70 0.07459
1047.80 0.07456
1047.90 0.07453
1048.00 0.07451
1048.10 0.07448
1048.20 0.07445
1048.30 0.07443
1048.40 0.0744
1048.50 0.07437
1048.60 0.07435
1048.70 0.07432
1048.80 0.07429
1048.90 0.07427
1049.00 0.07424
1049.10 0.07421
1049.20 0.07418
1049.30 0.07416
1049.40 0.07413
1049.50 0.0741
1049.60 0.07408
1049.70 0.07405
1049.80 0.07402
1049.90 0.074
1050.00 0.07397
1050.10 0.07394
1050.20 0.07392
1050.30 0.07389
1050.40 0.07386
1050.50 0.07384
1050.60 0.07381
1050.70 0.07378
1050.80 0.07376
1050.90 0.07373
1051.00 0.0737
1051.10 0.07368
1051.20 0.07365
1051.30 0.07362
1051.40 0.0736
1051.50 0.07357
1051.60 0.07354
1051.70 0.07352
1051.80 0.07349
1051.90 0.07346
1052.00 0.07344
1052.10 0.07341
1052.20 0.07338
1052.30 0.07335
1052.40 0.07333
1052.50 0.0733
1052.60 0.07327
1052.70 0.07324
1052.80 0.07322
1052.90 0.07319
1053.00 0.07316
1053.10 0.07313
1053.20 0.0731
1053.30 0.07308
1053.40 0.07305
1053.50 0.07302
1053.60 0.07299
1053.70 0.07297
1053.80 0.07294
1053.90 0.07291
1054.00 0.07288
1054.10 0.07286
1054.20 0.07283
1054.30 0.0728
1054.40 0.07278
1054.50 0.07275
1054.60 0.07272
1054.70 0.07269
1054.80 0.07267
1054.90 0.07264
1055.00 0.07261
1055.10 0.07258
1055.20 0.07256
1055.30 0.07253
1055.40 0.0725
1055.50 0.07247
1055.60 0.07245
1055.70 0.07242
1055.80 0.07239
1055.90 0.07236
1056.00 0.07234
1056.10 0.07231
1056.20 0.07228
1056.30 0.07226
1056.40 0.07223
1056.50 0.0722
1056.60 0.07217
1056.70 0.07215
1056.80 0.07212
1056.90 0.07209
1057.00 0.07207
1057.10 0.07204
1057.20 0.07201
1057.30 0.07198
1057.40 0.07195
1057.50 0.07192
1057.60 0.07189
1057.70 0.07187
1057.80 0.07184
1057.90 0.07181
1058.00 0.07178
1058.10 0.07175
1058.20 0.07172
1058.30 0.07169
1058.40 0.07167
1058.50 0.07164
1058.60 0.07161
1058.70 0.07158
1058.80 0.07155
1058.90 0.07152
1059.00 0.0715
1059.10 0.07147
1059.20 0.07144
1059.30 0.07141
1059.40 0.07138
1059.50 0.07135
1059.60 0.07133
1059.70 0.0713
1059.80 0.07127
1059.90 0.07124
1060.00 0.07121
1060.10 0.07118
1060.20 0.07116
1060.30 0.07113
1060.40 0.0711
1060.50 0.07107
1060.60 0.07104
1060.70 0.07102
1060.80 0.07099
1060.90 0.07096
1061.00 0.07093
1061.10 0.0709
1061.20 0.07087
1061.30 0.07085
1061.40 0.07082
1061.50 0.07079
1061.60 0.07076
1061.70 0.07073
1061.80 0.07071
1061.90 0.07068
1062.00 0.07065
1062.10 0.07062
1062.20 0.07059
1062.30 0.07056
1062.40 0.07053
1062.50 0.0705
1062.60 0.07047
1062.70 0.07044
1062.80 0.07041
1062.90 0.07038
1063.00 0.07035
1063.10 0.07032
1063.20 0.07029
1063.30 0.07026
1063.40 0.07023
1063.50 0.0702
1063.60 0.07017
1063.70 0.07014
1063.80 0.07011
1063.90 0.07008
1064.00 0.07005
1064.10 0.07002
1064.20 0.06999
1064.30 0.06996
1064.40 0.06993
1064.50 0.0699
1064.60 0.06987
1064.70 0.06984
1064.80 0.06981
1064.90 0.06978
1065.00 0.06975
1065.10 0.06972
1065.20 0.06969
1065.30 0.06966
1065.40 0.06963
1065.50 0.0696
1065.60 0.06957
1065.70 0.06954
1065.80 0.06951
1065.90 0.06948
1066.00 0.06945
1066.10 0.06942
1066.20 0.06939
1066.30 0.06936
1066.40 0.06933
1066.50 0.0693
1066.60 0.06927
1066.70 0.06924
1066.80 0.06921
1066.90 0.06918
1067.00 0.06915
1067.10 0.06912
1067.20 0.06908
1067.30 0.06905
1067.40 0.06902
1067.50 0.06898
1067.60 0.06895
1067.70 0.06892
1067.80 0.06888
1067.90 0.06885
1068.00 0.06881
1068.10 0.06878
1068.20 0.06875
1068.30 0.06871
1068.40 0.06868
1068.50 0.06865
1068.60 0.06861
1068.70 0.06858
1068.80 0.06855
1068.90 0.06851
1069.00 0.06848
1069.10 0.06845
1069.20 0.06841
1069.30 0.06838
1069.40 0.06835
1069.50 0.06831
1069.60 0.06828
1069.70 0.06825
1069.80 0.06822
1069.90 0.06818
1070.00 0.06815
1070.10 0.06812
1070.20 0.06808
1070.30 0.06805
1070.40 0.06802
1070.50 0.06798
1070.60 0.06795
1070.70 0.06792
1070.80 0.06788
1070.90 0.06785
1071.00 0.06782
1071.10 0.06778
1071.20 0.06775
1071.30 0.06772
1071.40 0.06769
1071.50 0.06765
1071.60 0.06762
1071.70 0.06759
1071.80 0.06755
1071.90 0.06752
1072.00 0.06749
1072.10 0.06745
1072.20 0.06741
1072.30 0.06738
1072.40 0.06734
1072.50 0.0673
1072.60 0.06727
1072.70 0.06723
1072.80 0.06719
1072.90 0.06716
1073.00 0.06712
1073.10 0.06708
1073.20 0.06705
1073.30 0.06701
1073.40 0.06697
1073.50 0.06694
1073.60 0.06689
1073.70 0.06685
1073.80 0.06681
1073.90 0.06677
1074.00 0.06673
1074.10 0.06669
1074.20 0.06665
1074.30 0.06661
1074.40 0.06657
1074.50 0.06652
1074.60 0.06648
1074.70 0.06644
1074.80 0.0664
1074.90 0.06636
1075.00 0.06632
1075.10 0.06628
1075.20 0.06624
1075.30 0.0662
1075.40 0.06616
1075.50 0.06612
1075.60 0.06607
1075.70 0.06603
1075.80 0.06599
1075.90 0.06595
1076.00 0.06591
1076.10 0.06587
1076.20 0.06583
1076.30 0.06579
1076.40 0.06575
1076.50 0.06571
1076.60 0.06567
1076.70 0.06563
1076.80 0.06559
1076.90 0.06555
1077.00 0.0655
1077.10 0.06546
1077.20 0.06541
1077.30 0.06537
1077.40 0.06532
1077.50 0.06528
1077.60 0.06523
1077.70 0.06518
1077.80 0.06513
1077.90 0.06508
1078.00 0.06503
1078.10 0.06499
1078.20 0.06494
1078.30 0.06489
1078.40 0.06484
1078.50 0.06479
1078.60 0.06474
1078.70 0.06469
1078.80 0.06465
1078.90 0.0646
1079.00 0.06455
1079.10 0.0645
1079.20 0.06445
1079.30 0.0644
1079.40 0.06436
1079.50 0.0643
1079.60 0.06425
1079.70 0.06419
1079.80 0.06414
1079.90 0.06408
1080.00 0.06403
1080.10 0.06397
1080.20 0.06392
1080.30 0.06386
1080.40 0.06381
1080.50 0.06375
1080.60 0.0637
1080.70 0.06364
1080.80 0.06359
1080.90 0.06353
1081.00 0.06347
1081.10 0.06342
1081.20 0.06336
1081.30 0.06331
1081.40 0.06325
1081.50 0.0632
1081.60 0.06314
1081.70 0.06308
1081.80 0.06302
1081.90 0.06296
1082.00 0.06289
1082.10 0.06283
1082.20 0.06276
1082.30 0.0627
1082.40 0.06263
1082.50 0.06257
1082.60 0.0625
1082.70 0.06244
1082.80 0.06237
1082.90 0.06231
1083.00 0.06224
1083.10 0.06218
1083.20 0.06211
1083.30 0.06205
1083.40 0.06198
1083.50 0.06191
1083.60 0.06184
1083.70 0.06177
1083.80 0.0617
1083.90 0.06163
1084.00 0.06155
1084.10 0.06148
1084.20 0.06141
1084.30 0.06134
1084.40 0.06127
1084.50 0.06119
1084.60 0.06111
1084.70 0.06103
1084.80 0.06095
1084.90 0.06086
1085.00 0.06078
1085.10 0.0607
1085.20 0.06062
1085.30 0.06054
1085.40 0.06046
1085.50 0.06037
1085.60 0.06029
1085.70 0.06021
1085.80 0.06013
1085.90 0.06005
1086.00 0.05997
1086.10 0.05989
1086.20 0.0598
1086.30 0.05972
1086.40 0.05964
1086.50 0.05956
1086.60 0.05947
1086.70 0.05937
1086.80 0.05928
1086.90 0.05919
1087.00 0.0591
1087.10 0.059
1087.20 0.0589
1087.30 0.0588
1087.40 0.0587
1087.50 0.0586
1087.60 0.0585
1087.70 0.05841
1087.80 0.05831
1087.90 0.05821
1088.00 0.05811
1088.10 0.05801
1088.20 0.05791
1088.30 0.05781
1088.40 0.05771
1088.50 0.05761
1088.60 0.05749
1088.70 0.05737
1088.80 0.05725
1088.90 0.05714
1089.00 0.05702
1089.10 0.0569
1089.20 0.05679
1089.30 0.05667
1089.40 0.05655
1089.50 0.05644
1089.60 0.05632
1089.70 0.0562
1089.80 0.05609
1089.90 0.05597
1090.00 0.05585
1090.10 0.05574
1090.20 0.05562
1090.30 0.05551
1090.40 0.05539
1090.50 0.05527
1090.60 0.05512
1090.70 0.05498
1090.80 0.05484
1090.90 0.0547
1091.00 0.05456
1091.10 0.05442
1091.20 0.05428
1091.30 0.05414
1091.40 0.054
1091.50 0.05386
1091.60 0.05372
1091.70 0.05358
1091.80 0.05344
1091.90 0.05331
1092.00 0.05316
1092.10 0.05299
1092.20 0.05283
1092.30 0.05266
1092.40 0.0525
1092.50 0.05233
1092.60 0.05217
1092.70 0.05199
1092.80 0.0518
1092.90 0.05161
1093.00 0.05141
1093.10 0.05121
1093.20 0.05099
1093.30 0.05076
1093.40 0.05051
1093.50 0.05023
1093.60 0.04989
1093.70 0.04964
1093.80 0.04949
1093.90 0.04947
1094.00 0.04975
1094.10 0.05004
1094.20 0.05032
1094.30 0.05057
1094.40 0.05074
1094.50 0.05091
1094.60 0.05109
1094.70 0.05126
1094.80 0.05143
1094.90 0.05161
1095.00 0.05176
1095.10 0.05188
1095.20 0.052
1095.30 0.05212
1095.40 0.05224
1095.50 0.05236
1095.60 0.05248
1095.70 0.0526
1095.80 0.05272
1095.90 0.05284
1096.00 0.05295
1096.10 0.05307
1096.20 0.05319
1096.30 0.05331
1096.40 0.05343
1096.50 0.05354
1096.60 0.05364
1096.70 0.05374
1096.80 0.05383
1096.90 0.05393
1097.00 0.05403
1097.10 0.05411
1097.20 0.0542
1097.30 0.05428
1097.40 0.05436
1097.50 0.05445
1097.60 0.05453
1097.70 0.05461
1097.80 0.05469
1097.90 0.05478
1098.00 0.05486
1098.10 0.05494
1098.20 0.05503
1098.30 0.05511
1098.40 0.05519
1098.50 0.05527
1098.60 0.05533
1098.70 0.0554
1098.80 0.05546
1098.90 0.05552
1099.00 0.05559
1099.10 0.05565
1099.20 0.05571
1099.30 0.05578
1099.40 0.05584
1099.50 0.0559
1099.60 0.05596
1099.70 0.05603
1099.80 0.05609
1099.90 0.05615
1100.00 0.05622
1100.10 0.05628
1100.20 0.05634
1100.30 0.05641
1100.40 0.05647
1100.50 0.05653
1100.60 0.05657
1100.70 0.05662
1100.80 0.05667
1100.90 0.05671
1101.00 0.05676
1101.10 0.05681
1101.20 0.05685
1101.30 0.0569
1101.40 0.05694
1101.50 0.05699
1101.60 0.05704
1101.70 0.05708
1101.80 0.05713
1101.90 0.05718
1102.00 0.05722
1102.10 0.05726
1102.20 0.0573
1102.30 0.05734
1102.40 0.05738
1102.50 0.05741
1102.60 0.05744
1102.70 0.05748
1102.80 0.05751
1102.90 0.05754
1103.00 0.05758
1103.10 0.05761
1103.20 0.05764
1103.30 0.05768
1103.40 0.05771
1103.50 0.05774
1103.60 0.05776
1103.70 0.05779
1103.80 0.05781
1103.90 0.05783
1104.00 0.05786
1104.10 0.05788
1104.20 0.05791
1104.30 0.05793
1104.40 0.05795
1104.50 0.05798
1104.60 0.058
1104.70 0.05802
1104.80 0.05805
1104.90 0.05807
1105.00 0.0581
1105.10 0.05812
1105.20 0.05814
1105.30 0.05817
1105.40 0.05819
1105.50 0.05821
1105.60 0.05823
1105.70 0.05824
1105.80 0.05825
1105.90 0.05827
1106.00 0.05828
1106.10 0.0583
1106.20 0.05831
1106.30 0.05833
1106.40 0.05834
1106.50 0.05836
1106.60 0.05837
1106.70 0.05839
1106.80 0.0584
1106.90 0.05841
1107.00 0.05843
1107.10 0.05844
1107.20 0.05845
1107.30 0.05846
1107.40 0.05847
1107.50 0.05848
1107.60 0.05848
1107.70 0.05849
1107.80 0.0585
1107.90 0.0585
1108.00 0.05851
1108.10 0.05851
1108.20 0.05852
1108.30 0.05852
1108.40 0.05853
1108.50 0.05854
1108.60 0.05854
1108.70 0.05855
1108.80 0.05855
1108.90 0.05856
1109.00 0.05857
1109.10 0.05857
1109.20 0.05858
1109.30 0.05858
1109.40 0.05859
1109.50 0.05859
1109.60 0.05859
1109.70 0.05859
1109.80 0.05859
1109.90 0.05859
1110.00 0.05859
1110.10 0.05859
1110.20 0.05859
1110.30 0.05859
1110.40 0.05858
1110.50 0.05858
1110.60 0.05858
1110.70 0.05858
1110.80 0.05858
1110.90 0.05858
1111.00 0.05858
1111.10 0.05858
1111.20 0.05858
1111.30 0.05858
1111.40 0.05858
1111.50 0.05858
1111.60 0.05857
1111.70 0.05857
1111.80 0.05857
1111.90 0.05857
1112.00 0.05857
1112.10 0.05857
1112.20 0.05856
1112.30 0.05856
1112.40 0.05855
1112.50 0.05855
1112.60 0.05854
1112.70 0.05854
1112.80 0.05853
1112.90 0.05853
1113.00 0.05852
1113.10 0.05851
1113.20 0.05851
1113.30 0.0585
1113.40 0.0585
1113.50 0.05849
1113.60 0.05848
1113.70 0.05848
1113.80 0.05847
1113.90 0.05846
1114.00 0.05845
1114.10 0.05844
1114.20 0.05843
1114.30 0.05842
1114.40 0.05841
1114.50 0.0584
1114.60 0.05839
1114.70 0.05839
1114.80 0.05838
1114.90 0.05837
1115.00 0.05836
1115.10 0.05835
1115.20 0.05834
1115.30 0.05833
1115.40 0.05832
1115.50 0.05831
1115.60 0.0583
1115.70 0.0583
1115.80 0.05829
1115.90 0.05828
1116.00 0.05827
1116.10 0.05826
1116.20 0.05825
1116.30 0.05824
1116.40 0.05823
1116.50 0.05822
1116.60 0.05822
1116.70 0.05821
1116.80 0.0582
1116.90 0.05819
1117.00 0.05818
1117.10 0.05817
1117.20 0.05815
1117.30 0.05814
1117.40 0.05813
1117.50 0.05811
1117.60 0.0581
1117.70 0.05809
1117.80 0.05808
1117.90 0.05806
1118.00 0.05805
1118.10 0.05804
1118.20 0.05802
1118.30 0.05801
1118.40 0.058
1118.50 0.05798
1118.60 0.05797
1118.70 0.05796
1118.80 0.05795
1118.90 0.05793
1119.00 0.05792
1119.10 0.05791
1119.20 0.05789
1119.30 0.05788
1119.40 0.05787
1119.50 0.05785
1119.60 0.05784
1119.70 0.05783
1119.80 0.05782
1119.90 0.0578
1120.00 0.05779
1120.10 0.05778
1120.20 0.05776
1120.30 0.05775
1120.40 0.05774
1120.50 0.05772
1120.60 0.05771
1120.70 0.0577
1120.80 0.05769
1120.90 0.05767
1121.00 0.05766
1121.10 0.05765
1121.20 0.05763
1121.30 0.05762
1121.40 0.05761
1121.50 0.0576
1121.60 0.05758
1121.70 0.05757
1121.80 0.05756
1121.90 0.05754
1122.00 0.05753
1122.10 0.05752
1122.20 0.0575
1122.30 0.05748
1122.40 0.05747
1122.50 0.05745
1122.60 0.05744
1122.70 0.05742
1122.80 0.05741
1122.90 0.05739
1123.00 0.05738
1123.10 0.05736
1123.20 0.05734
1123.30 0.05733
1123.40 0.05731
1123.50 0.0573
1123.60 0.05728
1123.70 0.05727
1123.80 0.05725
1123.90 0.05724
1124.00 0.05722
1124.10 0.05721
1124.20 0.05719
1124.30 0.05717
1124.40 0.05716
1124.50 0.05714
1124.60 0.05713
1124.70 0.05711
1124.80 0.0571
1124.90 0.05708
1125.00 0.05707
1125.10 0.05705
1125.20 0.05704
1125.30 0.05702
1125.40 0.057
1125.50 0.05699
1125.60 0.05697
1125.70 0.05696
1125.80 0.05694
1125.90 0.05693
1126.00 0.05691
1126.10 0.0569
1126.20 0.05688
1126.30 0.05687
1126.40 0.05685
1126.50 0.05684
1126.60 0.05682
1126.70 0.0568
1126.80 0.05679
1126.90 0.05677
1127.00 0.05676
1127.10 0.05674
1127.20 0.05672
1127.30 0.05671
1127.40 0.05669
1127.50 0.05667
1127.60 0.05666
1127.70 0.05664
1127.80 0.05662
1127.90 0.05661
1128.00 0.05659
1128.10 0.05657
1128.20 0.05656
1128.30 0.05654
1128.40 0.05652
1128.50 0.05651
1128.60 0.05649
1128.70 0.05647
1128.80 0.05646
1128.90 0.05644
1129.00 0.05642
1129.10 0.05641
1129.20 0.05639
1129.30 0.05638
1129.40 0.05636
1129.50 0.05634
1129.60 0.05633
1129.70 0.05631
1129.80 0.05629
1129.90 0.05628
1130.00 0.05626
1130.10 0.05624
1130.20 0.05623
1130.30 0.05621
1130.40 0.05619
1130.50 0.05618
1130.60 0.05616
1130.70 0.05614
1130.80 0.05613
1130.90 0.05611
1131.00 0.05609
1131.10 0.05608
1131.20 0.05606
1131.30 0.05604
1131.40 0.05603
1131.50 0.05601
1131.60 0.05599
1131.70 0.05598
1131.80 0.05596
1131.90 0.05594
1132.00 0.05593
1132.10 0.05591
1132.20 0.05589
1132.30 0.05588
1132.40 0.05586
1132.50 0.05584
1132.60 0.05583
1132.70 0.05581
1132.80 0.05579
1132.90 0.05577
1133.00 0.05576
1133.10 0.05574
1133.20 0.05572
1133.30 0.05571
1133.40 0.05569
1133.50 0.05567
1133.60 0.05565
1133.70 0.05564
1133.80 0.05562
1133.90 0.0556
1134.00 0.05559
1134.10 0.05557
1134.20 0.05555
1134.30 0.05553
1134.40 0.05552
1134.50 0.0555
1134.60 0.05548
1134.70 0.05547
1134.80 0.05545
1134.90 0.05543
1135.00 0.05541
1135.10 0.0554
1135.20 0.05538
1135.30 0.05536
1135.40 0.05535
1135.50 0.05533
1135.60 0.05531
1135.70 0.05529
1135.80 0.05528
1135.90 0.05526
1136.00 0.05524
1136.10 0.05523
1136.20 0.05521
1136.30 0.05519
1136.40 0.05518
1136.50 0.05516
1136.60 0.05514
1136.70 0.05512
1136.80 0.05511
1136.90 0.05509
1137.00 0.05507
1137.10 0.05506
1137.20 0.05504
1137.30 0.05502
1137.40 0.055
1137.50 0.05499
1137.60 0.05497
1137.70 0.05495
1137.80 0.05494
1137.90 0.05492
1138.00 0.0549
1138.10 0.05488
1138.20 0.05487
1138.30 0.05485
1138.40 0.05483
1138.50 0.05481
1138.60 0.0548
1138.70 0.05478
1138.80 0.05476
1138.90 0.05475
1139.00 0.05473
1139.10 0.05471
1139.20 0.05469
1139.30 0.05468
1139.40 0.05466
1139.50 0.05464
1139.60 0.05462
1139.70 0.05461
1139.80 0.05459
1139.90 0.05457
1140.00 0.05456
1140.10 0.05454
1140.20 0.05452
1140.30 0.0545
1140.40 0.05449
1140.50 0.05447
1140.60 0.05445
1140.70 0.05444
1140.80 0.05442
1140.90 0.0544
1141.00 0.05438
1141.10 0.05437
1141.20 0.05435
1141.30 0.05433
1141.40 0.05432
1141.50 0.0543
1141.60 0.05428
1141.70 0.05426
1141.80 0.05425
1141.90 0.05423
1142.00 0.05421
1142.10 0.0542
1142.20 0.05418
1142.30 0.05416
1142.40 0.05414
1142.50 0.05413
1142.60 0.05411
1142.70 0.05409
1142.80 0.05407
1142.90 0.05406
1143.00 0.05404
1143.10 0.05402
1143.20 0.05401
1143.30 0.05399
1143.40 0.05397
1143.50 0.05395
1143.60 0.05394
1143.70 0.05392
1143.80 0.0539
1143.90 0.05389
1144.00 0.05387
1144.10 0.05385
1144.20 0.05383
1144.30 0.05382
1144.40 0.0538
1144.50 0.05378
1144.60 0.05377
1144.70 0.05375
1144.80 0.05373
1144.90 0.05371
1145.00 0.0537
1145.10 0.05368
1145.20 0.05366
1145.30 0.05365
1145.40 0.05363
1145.50 0.05361
1145.60 0.05359
1145.70 0.05358
1145.80 0.05356
1145.90 0.05354
1146.00 0.05353
1146.10 0.05351
1146.20 0.05349
1146.30 0.05347
1146.40 0.05346
1146.50 0.05344
1146.60 0.05342
1146.70 0.05341
1146.80 0.05339
1146.90 0.05337
1147.00 0.05335
1147.10 0.05334
1147.20 0.05332
1147.30 0.0533
1147.40 0.05329
1147.50 0.05327
1147.60 0.05325
1147.70 0.05324
1147.80 0.05322
1147.90 0.0532
1148.00 0.05318
1148.10 0.05317
1148.20 0.05315
1148.30 0.05313
1148.40 0.05312
1148.50 0.0531
1148.60 0.05308
1148.70 0.05306
1148.80 0.05305
1148.90 0.05303
1149.00 0.05301
1149.10 0.053
1149.20 0.05298
1149.30 0.05296
1149.40 0.05294
1149.50 0.05293
1149.60 0.05291
1149.70 0.05289
1149.80 0.05288
1149.90 0.05286
1150.00 0.05284
1150.10 0.05283
1150.20 0.05281
1150.30 0.05279
1150.40 0.05278
1150.50 0.05276
1150.60 0.05274
1150.70 0.05272
1150.80 0.05271
1150.90 0.05269
1151.00 0.05267
1151.10 0.05266
1151.20 0.05264
1151.30 0.05262
1151.40 0.05261
1151.50 0.05259
1151.60 0.05257
1151.70 0.05255
1151.80 0.05254
1151.90 0.05252
1152.00 0.0525
1152.10 0.05249
1152.20 0.05247
1152.30 0.05245
1152.40 0.05244
1152.50 0.05242
1152.60 0.0524
1152.70 0.05239
1152.80 0.05237
1152.90 0.05235
1153.00 0.05234
1153.10 0.05232
1153.20 0.0523
1153.30 0.05228
1153.40 0.05227
1153.50 0.05225
1153.60 0.05223
1153.70 0.05222
1153.80 0.0522
1153.90 0.05218
1154.00 0.05217
1154.10 0.05215
1154.20 0.05213
1154.30 0.05212
1154.40 0.0521
1154.50 0.05208
1154.60 0.05207
1154.70 0.05205
1154.80 0.05203
1154.90 0.05202
1155.00 0.052
1155.10 0.05198
1155.20 0.05197
1155.30 0.05195
1155.40 0.05193
1155.50 0.05192
1155.60 0.0519
1155.70 0.05188
1155.80 0.05186
1155.90 0.05185
1156.00 0.05183
1156.10 0.05181
1156.20 0.0518
1156.30 0.05178
1156.40 0.05176
1156.50 0.05175
1156.60 0.05173
1156.70 0.05171
1156.80 0.0517
1156.90 0.05168
1157.00 0.05166
1157.10 0.05165
1157.20 0.05163
1157.30 0.05161
1157.40 0.0516
1157.50 0.05158
1157.60 0.05156
1157.70 0.05155
1157.80 0.05153
1157.90 0.05151
1158.00 0.0515
1158.10 0.05148
1158.20 0.05146
1158.30 0.05145
1158.40 0.05143
1158.50 0.05142
1158.60 0.0514
1158.70 0.05138
1158.80 0.05137
1158.90 0.05135
1159.00 0.05133
1159.10 0.05132
1159.20 0.0513
1159.30 0.05128
1159.40 0.05127
1159.50 0.05125
1159.60 0.05123
1159.70 0.05122
1159.80 0.0512
1159.90 0.05118
1160.00 0.05117
1160.10 0.05115
1160.20 0.05113
1160.30 0.05112
1160.40 0.0511
1160.50 0.05108
1160.60 0.05107
1160.70 0.05105
1160.80 0.05103
1160.90 0.05102
1161.00 0.051
1161.10 0.05099
1161.20 0.05097
1161.30 0.05095
1161.40 0.05094
1161.50 0.05092
1161.60 0.0509
1161.70 0.05089
1161.80 0.05087
1161.90 0.05085
1162.00 0.05084
1162.10 0.05082
1162.20 0.0508
1162.30 0.05079
1162.40 0.05077
1162.50 0.05076
1162.60 0.05074
1162.70 0.05072
1162.80 0.05071
1162.90 0.05069
1163.00 0.05067
1163.10 0.05066
1163.20 0.05064
1163.30 0.05062
1163.40 0.05061
1163.50 0.05059
1163.60 0.05058
1163.70 0.05056
1163.80 0.05054
1163.90 0.05053
1164.00 0.05051
1164.10 0.05049
1164.20 0.05048
1164.30 0.05046
1164.40 0.05045
1164.50 0.05043
1164.60 0.05041
1164.70 0.0504
1164.80 0.05038
1164.90 0.05036
1165.00 0.05035
1165.10 0.05033
1165.20 0.05032
1165.30 0.0503
1165.40 0.05028
1165.50 0.05027
1165.60 0.05025
1165.70 0.05023
1165.80 0.05022
1165.90 0.0502
1166.00 0.05019
1166.10 0.05017
1166.20 0.05015
1166.30 0.05014
1166.40 0.05012
1166.50 0.0501
1166.60 0.05009
1166.70 0.05007
1166.80 0.05006
1166.90 0.05004
1167.00 0.05002
1167.10 0.05001
1167.20 0.04999
1167.30 0.04998
1167.40 0.04996
1167.50 0.04994
1167.60 0.04993
1167.70 0.04991
1167.80 0.0499
1167.90 0.04988
1168.00 0.04986
1168.10 0.04985
1168.20 0.04983
1168.30 0.04982
1168.40 0.0498
1168.50 0.04978
1168.60 0.04977
1168.70 0.04975
1168.80 0.04973
1168.90 0.04972
1169.00 0.0497
1169.10 0.04969
1169.20 0.04967
1169.30 0.04965
1169.40 0.04964
1169.50 0.04962
1169.60 0.04961
1169.70 0.04959
1169.80 0.04957
1169.90 0.04956
1170.00 0.04954
1170.10 0.04953
1170.20 0.04951
1170.30 0.04949
1170.40 0.04948
1170.50 0.04946
1170.60 0.04945
1170.70 0.04943
1170.80 0.04942
1170.90 0.0494
1171.00 0.04938
1171.10 0.04937
1171.20 0.04935
1171.30 0.04934
1171.40 0.04932
1171.50 0.0493
1171.60 0.04929
1171.70 0.04927
1171.80 0.04926
1171.90 0.04924
1172.00 0.04922
1172.10 0.04921
1172.20 0.04919
1172.30 0.04918
1172.40 0.04916
1172.50 0.04915
1172.60 0.04913
1172.70 0.04911
1172.80 0.0491
1172.90 0.04908
1173.00 0.04907
1173.10 0.04905
1173.20 0.04903
1173.30 0.04902
1173.40 0.049
1173.50 0.04899
1173.60 0.04897
1173.70 0.04896
1173.80 0.04894
1173.90 0.04892
1174.00 0.04891
1174.10 0.04889
1174.20 0.04888
1174.30 0.04886
1174.40 0.04885
1174.50 0.04883
1174.60 0.04881
1174.70 0.0488
1174.80 0.04878
1174.90 0.04877
1175.00 0.04875
1175.10 0.04874
1175.20 0.04872
1175.30 0.0487
1175.40 0.04869
1175.50 0.04867
1175.60 0.04866
1175.70 0.04864
1175.80 0.04863
1175.90 0.04861
1176.00 0.04859
1176.10 0.04858
1176.20 0.04856
1176.30 0.04855
1176.40 0.04853
1176.50 0.04852
1176.60 0.0485
1176.70 0.04849
1176.80 0.04847
1176.90 0.04845
1177.00 0.04844
1177.10 0.04842
1177.20 0.04841
1177.30 0.04839
1177.40 0.04838
1177.50 0.04836
1177.60 0.04835
1177.70 0.04833
1177.80 0.04831
1177.90 0.0483
1178.00 0.04828
1178.10 0.04827
1178.20 0.04825
1178.30 0.04824
1178.40 0.04822
1178.50 0.04821
1178.60 0.04819
1178.70 0.04817
1178.80 0.04816
1178.90 0.04814
1179.00 0.04813
1179.10 0.04811
1179.20 0.0481
1179.30 0.04808
1179.40 0.04807
1179.50 0.04805
1179.60 0.04804
1179.70 0.04802
1179.80 0.04801
1179.90 0.04799
1180.00 0.04797
1180.10 0.04796
1180.20 0.04794
1180.30 0.04793
1180.40 0.04791
1180.50 0.0479
1180.60 0.04788
1180.70 0.04787
1180.80 0.04785
1180.90 0.04784
1181.00 0.04782
1181.10 0.0478
1181.20 0.04779
1181.30 0.04777
1181.40 0.04776
1181.50 0.04774
1181.60 0.04773
1181.70 0.04771
1181.80 0.0477
1181.90 0.04768
1182.00 0.04767
1182.10 0.04765
1182.20 0.04764
1182.30 0.04762
1182.40 0.04761
1182.50 0.04759
1182.60 0.04758
1182.70 0.04756
1182.80 0.04754
1182.90 0.04753
1183.00 0.04751
1183.10 0.0475
1183.20 0.04748
1183.30 0.04747
1183.40 0.04745
1183.50 0.04744
1183.60 0.04742
1183.70 0.04741
1183.80 0.04739
1183.90 0.04738
1184.00 0.04736
1184.10 0.04735
1184.20 0.04733
1184.30 0.04732
1184.40 0.0473
1184.50 0.04729
1184.60 0.04727
1184.70 0.04726
1184.80 0.04724
1184.90 0.04723
1185.00 0.04721
1185.10 0.0472
1185.20 0.04718
1185.30 0.04717
1185.40 0.04715
1185.50 0.04714
1185.60 0.04712
1185.70 0.0471
1185.80 0.04709
1185.90 0.04707
1186.00 0.04706
1186.10 0.04704
1186.20 0.04703
1186.30 0.04701
1186.40 0.047
1186.50 0.04698
1186.60 0.04697
1186.70 0.04695
1186.80 0.04694
1186.90 0.04692
1187.00 0.04691
1187.10 0.04689
1187.20 0.04688
1187.30 0.04686
1187.40 0.04685
1187.50 0.04683
1187.60 0.04682
1187.70 0.0468
1187.80 0.04679
1187.90 0.04677
1188.00 0.04676
1188.10 0.04674
1188.20 0.04673
1188.30 0.04671
1188.40 0.0467
1188.50 0.04668
1188.60 0.04667
1188.70 0.04665
1188.80 0.04664
1188.90 0.04662
1189.00 0.04661
1189.10 0.0466
1189.20 0.04658
1189.30 0.04657
1189.40 0.04655
1189.50 0.04654
1189.60 0.04652
1189.70 0.04651
1189.80 0.04649
1189.90 0.04648
1190.00 0.04646
1190.10 0.04645
1190.20 0.04643
1190.30 0.04642
1190.40 0.0464
1190.50 0.04639
1190.60 0.04637
1190.70 0.04636
1190.80 0.04634
1190.90 0.04633
1191.00 0.04631
1191.10 0.0463
1191.20 0.04628
1191.30 0.04627
1191.40 0.04625
1191.50 0.04624
1191.60 0.04622
1191.70 0.04621
1191.80 0.04619
1191.90 0.04618
1192.00 0.04616
1192.10 0.04615
1192.20 0.04614
1192.30 0.04612
1192.40 0.04611
1192.50 0.04609
1192.60 0.04608
1192.70 0.04606
1192.80 0.04605
1192.90 0.04603
1193.00 0.04602
1193.10 0.046
1193.20 0.04599
1193.30 0.04597
1193.40 0.04596
1193.50 0.04594
1193.60 0.04593
1193.70 0.04591
1193.80 0.0459
1193.90 0.04589
1194.00 0.04587
1194.10 0.04586
1194.20 0.04584
1194.30 0.04583
1194.40 0.04581
1194.50 0.0458
1194.60 0.04578
1194.70 0.04577
1194.80 0.04575
1194.90 0.04574
1195.00 0.04572
1195.10 0.04571
1195.20 0.0457
1195.30 0.04568
1195.40 0.04567
1195.50 0.04565
1195.60 0.04564
1195.70 0.04562
1195.80 0.04561
1195.90 0.04559
1196.00 0.04558
1196.10 0.04556
1196.20 0.04555
1196.30 0.04554
1196.40 0.04552
1196.50 0.04551
1196.60 0.04549
1196.70 0.04548
1196.80 0.04546
1196.90 0.04545
1197.00 0.04543
1197.10 0.04542
1197.20 0.0454
1197.30 0.04539
1197.40 0.04538
1197.50 0.04536
1197.60 0.04535
1197.70 0.04533
1197.80 0.04532
1197.90 0.0453
1198.00 0.04529
1198.10 0.04527
1198.20 0.04526
1198.30 0.04525
1198.40 0.04523
1198.50 0.04522
1198.60 0.0452
1198.70 0.04519
1198.80 0.04517
1198.90 0.04516
1199.00 0.04514
1199.10 0.04513
1199.20 0.04512
1199.30 0.0451
1199.40 0.04509
1199.50 0.04507
1199.60 0.04506
1199.70 0.04504
1199.80 0.04503
1199.90 0.04502
1200.00 0
