# Version 2.1 - nm, norm@500 to 1, cut digits, bergeron_100000_90.dat_100000
# Wavelength(nm)  Flambda(ergs/cm^s/s/nm)
300.00 6.858
300.10 6.85
300.20 6.841
300.30 6.832
300.40 6.824
300.50 6.815
300.60 6.807
300.70 6.798
300.80 6.79
300.90 6.781
301.00 6.773
301.10 6.764
301.20 6.756
301.30 6.747
301.40 6.739
301.50 6.73
301.60 6.722
301.70 6.714
301.80 6.705
301.90 6.697
302.00 6.688
302.10 6.68
302.20 6.672
302.30 6.663
302.40 6.655
302.50 6.647
302.60 6.638
302.70 6.63
302.80 6.622
302.90 6.614
303.00 6.605
303.10 6.597
303.20 6.589
303.30 6.581
303.40 6.573
303.50 6.564
303.60 6.556
303.70 6.548
303.80 6.54
303.90 6.532
304.00 6.524
304.10 6.516
304.20 6.508
304.30 6.5
304.40 6.491
304.50 6.483
304.60 6.475
304.70 6.467
304.80 6.459
304.90 6.451
305.00 6.443
305.10 6.435
305.20 6.427
305.30 6.42
305.40 6.412
305.50 6.404
305.60 6.396
305.70 6.388
305.80 6.38
305.90 6.372
306.00 6.364
306.10 6.356
306.20 6.349
306.30 6.341
306.40 6.333
306.50 6.325
306.60 6.317
306.70 6.31
306.80 6.302
306.90 6.294
307.00 6.286
307.10 6.279
307.20 6.271
307.30 6.263
307.40 6.255
307.50 6.248
307.60 6.24
307.70 6.232
307.80 6.225
307.90 6.217
308.00 6.21
308.10 6.202
308.20 6.194
308.30 6.187
308.40 6.179
308.50 6.172
308.60 6.164
308.70 6.157
308.80 6.149
308.90 6.142
309.00 6.134
309.10 6.127
309.20 6.119
309.30 6.112
309.40 6.104
309.50 6.097
309.60 6.089
309.70 6.082
309.80 6.074
309.90 6.067
310.00 6.06
310.10 6.052
310.20 6.045
310.30 6.037
310.40 6.03
310.50 6.023
310.60 6.015
310.70 6.008
310.80 6.001
310.90 5.994
311.00 5.986
311.10 5.979
311.20 5.972
311.30 5.965
311.40 5.957
311.50 5.95
311.60 5.943
311.70 5.936
311.80 5.928
311.90 5.921
312.00 5.914
312.10 5.907
312.20 5.9
312.30 5.893
312.40 5.886
312.50 5.878
312.60 5.871
312.70 5.864
312.80 5.857
312.90 5.85
313.00 5.843
313.10 5.836
313.20 5.829
313.30 5.822
313.40 5.815
313.50 5.808
313.60 5.801
313.70 5.794
313.80 5.787
313.90 5.78
314.00 5.773
314.10 5.766
314.20 5.759
314.30 5.752
314.40 5.745
314.50 5.738
314.60 5.731
314.70 5.725
314.80 5.718
314.90 5.711
315.00 5.704
315.10 5.697
315.20 5.69
315.30 5.683
315.40 5.677
315.50 5.67
315.60 5.663
315.70 5.656
315.80 5.65
315.90 5.643
316.00 5.636
316.10 5.629
316.20 5.623
316.30 5.616
316.40 5.609
316.50 5.602
316.60 5.596
316.70 5.589
316.80 5.582
316.90 5.576
317.00 5.569
317.10 5.562
317.20 5.556
317.30 5.549
317.40 5.543
317.50 5.536
317.60 5.529
317.70 5.523
317.80 5.516
317.90 5.51
318.00 5.503
318.10 5.497
318.20 5.49
318.30 5.484
318.40 5.477
318.50 5.471
318.60 5.464
318.70 5.458
318.80 5.451
318.90 5.445
319.00 5.438
319.10 5.432
319.20 5.425
319.30 5.419
319.40 5.412
319.50 5.406
319.60 5.4
319.70 5.393
319.80 5.387
319.90 5.381
320.00 5.374
320.10 5.368
320.20 5.361
320.30 5.355
320.40 5.349
320.50 5.343
320.60 5.336
320.70 5.33
320.80 5.324
320.90 5.317
321.00 5.311
321.10 5.305
321.20 5.299
321.30 5.292
321.40 5.286
321.50 5.28
321.60 5.274
321.70 5.268
321.80 5.261
321.90 5.255
322.00 5.249
322.10 5.243
322.20 5.237
322.30 5.23
322.40 5.224
322.50 5.218
322.60 5.212
322.70 5.206
322.80 5.2
322.90 5.194
323.00 5.188
323.10 5.182
323.20 5.176
323.30 5.17
323.40 5.163
323.50 5.157
323.60 5.151
323.70 5.145
323.80 5.139
323.90 5.133
324.00 5.127
324.10 5.121
324.20 5.115
324.30 5.109
324.40 5.103
324.50 5.098
324.60 5.092
324.70 5.086
324.80 5.08
324.90 5.074
325.00 5.068
325.10 5.062
325.20 5.056
325.30 5.05
325.40 5.044
325.50 5.039
325.60 5.033
325.70 5.027
325.80 5.021
325.90 5.015
326.00 5.009
326.10 5.004
326.20 4.998
326.30 4.992
326.40 4.986
326.50 4.98
326.60 4.975
326.70 4.969
326.80 4.963
326.90 4.957
327.00 4.952
327.10 4.946
327.20 4.94
327.30 4.934
327.40 4.929
327.50 4.923
327.60 4.917
327.70 4.912
327.80 4.906
327.90 4.9
328.00 4.895
328.10 4.889
328.20 4.883
328.30 4.878
328.40 4.872
328.50 4.866
328.60 4.861
328.70 4.855
328.80 4.85
328.90 4.844
329.00 4.839
329.10 4.833
329.20 4.827
329.30 4.822
329.40 4.816
329.50 4.811
329.60 4.805
329.70 4.8
329.80 4.794
329.90 4.789
330.00 4.783
330.10 4.778
330.20 4.772
330.30 4.767
330.40 4.761
330.50 4.756
330.60 4.751
330.70 4.745
330.80 4.74
330.90 4.734
331.00 4.729
331.10 4.723
331.20 4.718
331.30 4.713
331.40 4.707
331.50 4.702
331.60 4.696
331.70 4.691
331.80 4.686
331.90 4.68
332.00 4.675
332.10 4.67
332.20 4.664
332.30 4.659
332.40 4.654
332.50 4.649
332.60 4.643
332.70 4.638
332.80 4.633
332.90 4.627
333.00 4.622
333.10 4.617
333.20 4.612
333.30 4.606
333.40 4.601
333.50 4.596
333.60 4.591
333.70 4.585
333.80 4.58
333.90 4.575
334.00 4.57
334.10 4.565
334.20 4.559
334.30 4.554
334.40 4.549
334.50 4.544
334.60 4.539
334.70 4.534
334.80 4.529
334.90 4.524
335.00 4.518
335.10 4.513
335.20 4.508
335.30 4.503
335.40 4.498
335.50 4.493
335.60 4.488
335.70 4.483
335.80 4.478
335.90 4.473
336.00 4.468
336.10 4.463
336.20 4.458
336.30 4.453
336.40 4.448
336.50 4.443
336.60 4.438
336.70 4.433
336.80 4.428
336.90 4.423
337.00 4.418
337.10 4.413
337.20 4.408
337.30 4.403
337.40 4.398
337.50 4.393
337.60 4.388
337.70 4.383
337.80 4.378
337.90 4.373
338.00 4.368
338.10 4.363
338.20 4.358
338.30 4.354
338.40 4.349
338.50 4.344
338.60 4.339
338.70 4.334
338.80 4.329
338.90 4.324
339.00 4.32
339.10 4.315
339.20 4.31
339.30 4.305
339.40 4.3
339.50 4.296
339.60 4.291
339.70 4.286
339.80 4.281
339.90 4.276
340.00 4.272
340.10 4.267
340.20 4.262
340.30 4.257
340.40 4.253
340.50 4.248
340.60 4.243
340.70 4.238
340.80 4.234
340.90 4.229
341.00 4.224
341.10 4.22
341.20 4.215
341.30 4.21
341.40 4.206
341.50 4.201
341.60 4.196
341.70 4.192
341.80 4.187
341.90 4.182
342.00 4.178
342.10 4.173
342.20 4.168
342.30 4.164
342.40 4.159
342.50 4.155
342.60 4.15
342.70 4.145
342.80 4.141
342.90 4.136
343.00 4.132
343.10 4.127
343.20 4.123
343.30 4.118
343.40 4.113
343.50 4.109
343.60 4.104
343.70 4.1
343.80 4.095
343.90 4.091
344.00 4.086
344.10 4.082
344.20 4.077
344.30 4.073
344.40 4.068
344.50 4.064
344.60 4.059
344.70 4.055
344.80 4.05
344.90 4.046
345.00 4.042
345.10 4.037
345.20 4.033
345.30 4.028
345.40 4.024
345.50 4.019
345.60 4.015
345.70 4.011
345.80 4.006
345.90 4.002
346.00 3.997
346.10 3.993
346.20 3.989
346.30 3.984
346.40 3.98
346.50 3.976
346.60 3.971
346.70 3.967
346.80 3.963
346.90 3.958
347.00 3.954
347.10 3.95
347.20 3.945
347.30 3.941
347.40 3.937
347.50 3.932
347.60 3.928
347.70 3.924
347.80 3.919
347.90 3.915
348.00 3.911
348.10 3.907
348.20 3.902
348.30 3.898
348.40 3.894
348.50 3.89
348.60 3.885
348.70 3.881
348.80 3.877
348.90 3.873
349.00 3.869
349.10 3.864
349.20 3.86
349.30 3.856
349.40 3.852
349.50 3.848
349.60 3.843
349.70 3.839
349.80 3.835
349.90 3.831
350.00 3.827
350.10 3.823
350.20 3.818
350.30 3.814
350.40 3.81
350.50 3.806
350.60 3.802
350.70 3.798
350.80 3.794
350.90 3.79
351.00 3.786
351.10 3.781
351.20 3.777
351.30 3.773
351.40 3.769
351.50 3.765
351.60 3.761
351.70 3.757
351.80 3.753
351.90 3.749
352.00 3.745
352.10 3.741
352.20 3.737
352.30 3.733
352.40 3.729
352.50 3.725
352.60 3.721
352.70 3.717
352.80 3.713
352.90 3.709
353.00 3.705
353.10 3.701
353.20 3.697
353.30 3.693
353.40 3.689
353.50 3.685
353.60 3.681
353.70 3.677
353.80 3.673
353.90 3.669
354.00 3.665
354.10 3.661
354.20 3.657
354.30 3.653
354.40 3.649
354.50 3.646
354.60 3.642
354.70 3.638
354.80 3.634
354.90 3.63
355.00 3.626
355.10 3.622
355.20 3.618
355.30 3.614
355.40 3.611
355.50 3.607
355.60 3.603
355.70 3.599
355.80 3.595
355.90 3.591
356.00 3.587
356.10 3.584
356.20 3.58
356.30 3.576
356.40 3.572
356.50 3.568
356.60 3.565
356.70 3.561
356.80 3.557
356.90 3.553
357.00 3.55
357.10 3.546
357.20 3.542
357.30 3.538
357.40 3.534
357.50 3.531
357.60 3.527
357.70 3.523
357.80 3.519
357.90 3.516
358.00 3.512
358.10 3.508
358.20 3.504
358.30 3.501
358.40 3.497
358.50 3.493
358.60 3.49
358.70 3.486
358.80 3.482
358.90 3.479
359.00 3.475
359.10 3.471
359.20 3.468
359.30 3.464
359.40 3.46
359.50 3.457
359.60 3.453
359.70 3.449
359.80 3.446
359.90 3.442
360.00 3.438
360.10 3.435
360.20 3.431
360.30 3.428
360.40 3.424
360.50 3.42
360.60 3.417
360.70 3.413
360.80 3.41
360.90 3.406
361.00 3.402
361.10 3.399
361.20 3.395
361.30 3.392
361.40 3.388
361.50 3.384
361.60 3.381
361.70 3.377
361.80 3.374
361.90 3.37
362.00 3.367
362.10 3.363
362.20 3.36
362.30 3.356
362.40 3.353
362.50 3.349
362.60 3.346
362.70 3.342
362.80 3.339
362.90 3.335
363.00 3.332
363.10 3.328
363.20 3.325
363.30 3.321
363.40 3.318
363.50 3.314
363.60 3.311
363.70 3.307
363.80 3.304
363.90 3.3
364.00 3.297
364.10 3.294
364.20 3.29
364.30 3.287
364.40 3.283
364.50 3.28
364.60 3.276
364.70 3.273
364.80 3.27
364.90 3.266
365.00 3.263
365.10 3.259
365.20 3.256
365.30 3.253
365.40 3.249
365.50 3.246
365.60 3.242
365.70 3.239
365.80 3.236
365.90 3.232
366.00 3.229
366.10 3.226
366.20 3.222
366.30 3.219
366.40 3.216
366.50 3.212
366.60 3.209
366.70 3.206
366.80 3.202
366.90 3.199
367.00 3.196
367.10 3.192
367.20 3.189
367.30 3.186
367.40 3.182
367.50 3.179
367.60 3.176
367.70 3.172
367.80 3.169
367.90 3.166
368.00 3.162
368.10 3.159
368.20 3.156
368.30 3.152
368.40 3.149
368.50 3.146
368.60 3.143
368.70 3.139
368.80 3.136
368.90 3.133
369.00 3.129
369.10 3.126
369.20 3.123
369.30 3.119
369.40 3.116
369.50 3.113
369.60 3.11
369.70 3.106
369.80 3.103
369.90 3.1
370.00 3.097
370.10 3.093
370.20 3.09
370.30 3.087
370.40 3.084
370.50 3.08
370.60 3.077
370.70 3.074
370.80 3.071
370.90 3.067
371.00 3.064
371.10 3.061
371.20 3.058
371.30 3.055
371.40 3.051
371.50 3.048
371.60 3.045
371.70 3.042
371.80 3.039
371.90 3.036
372.00 3.032
372.10 3.029
372.20 3.026
372.30 3.023
372.40 3.02
372.50 3.017
372.60 3.014
372.70 3.011
372.80 3.008
372.90 3.005
373.00 3.002
373.10 2.999
373.20 2.996
373.30 2.993
373.40 2.99
373.50 2.987
373.60 2.984
373.70 2.981
373.80 2.978
373.90 2.975
374.00 2.972
374.10 2.968
374.20 2.965
374.30 2.962
374.40 2.959
374.50 2.956
374.60 2.953
374.70 2.95
374.80 2.947
374.90 2.944
375.00 2.941
375.10 2.938
375.20 2.935
375.30 2.932
375.40 2.929
375.50 2.926
375.60 2.923
375.70 2.92
375.80 2.917
375.90 2.914
376.00 2.911
376.10 2.908
376.20 2.905
376.30 2.902
376.40 2.899
376.50 2.896
376.60 2.893
376.70 2.89
376.80 2.887
376.90 2.884
377.00 2.881
377.10 2.878
377.20 2.875
377.30 2.872
377.40 2.869
377.50 2.866
377.60 2.863
377.70 2.86
377.80 2.857
377.90 2.854
378.00 2.851
378.10 2.849
378.20 2.846
378.30 2.843
378.40 2.84
378.50 2.837
378.60 2.834
378.70 2.831
378.80 2.828
378.90 2.826
379.00 2.823
379.10 2.82
379.20 2.817
379.30 2.814
379.40 2.811
379.50 2.808
379.60 2.806
379.70 2.803
379.80 2.8
379.90 2.797
380.00 2.794
380.10 2.791
380.20 2.789
380.30 2.786
380.40 2.783
380.50 2.78
380.60 2.777
380.70 2.775
380.80 2.772
380.90 2.769
381.00 2.766
381.10 2.764
381.20 2.761
381.30 2.758
381.40 2.755
381.50 2.753
381.60 2.75
381.70 2.747
381.80 2.744
381.90 2.742
382.00 2.739
382.10 2.736
382.20 2.733
382.30 2.731
382.40 2.728
382.50 2.725
382.60 2.723
382.70 2.72
382.80 2.717
382.90 2.715
383.00 2.712
383.10 2.709
383.20 2.706
383.30 2.704
383.40 2.701
383.50 2.699
383.60 2.696
383.70 2.693
383.80 2.691
383.90 2.688
384.00 2.685
384.10 2.683
384.20 2.68
384.30 2.677
384.40 2.675
384.50 2.672
384.60 2.67
384.70 2.667
384.80 2.664
384.90 2.662
385.00 2.659
385.10 2.657
385.20 2.654
385.30 2.651
385.40 2.649
385.50 2.646
385.60 2.644
385.70 2.641
385.80 2.638
385.90 2.636
386.00 2.633
386.10 2.631
386.20 2.628
386.30 2.626
386.40 2.623
386.50 2.621
386.60 2.618
386.70 2.615
386.80 2.613
386.90 2.61
387.00 2.608
387.10 2.605
387.20 2.603
387.30 2.6
387.40 2.598
387.50 2.595
387.60 2.593
387.70 2.59
387.80 2.588
387.90 2.585
388.00 2.583
388.10 2.58
388.20 2.578
388.30 2.575
388.40 2.573
388.50 2.57
388.60 2.568
388.70 2.566
388.80 2.563
388.90 2.561
389.00 2.558
389.10 2.556
389.20 2.554
389.30 2.551
389.40 2.549
389.50 2.546
389.60 2.544
389.70 2.542
389.80 2.539
389.90 2.537
390.00 2.534
390.10 2.532
390.20 2.53
390.30 2.527
390.40 2.525
390.50 2.523
390.60 2.52
390.70 2.518
390.80 2.516
390.90 2.513
391.00 2.511
391.10 2.509
391.20 2.506
391.30 2.504
391.40 2.502
391.50 2.499
391.60 2.497
391.70 2.495
391.80 2.492
391.90 2.49
392.00 2.487
392.10 2.485
392.20 2.483
392.30 2.48
392.40 2.478
392.50 2.476
392.60 2.473
392.70 2.471
392.80 2.468
392.90 2.466
393.00 2.464
393.10 2.461
393.20 2.459
393.30 2.456
393.40 2.454
393.50 2.452
393.60 2.449
393.70 2.447
393.80 2.444
393.90 2.442
394.00 2.44
394.10 2.437
394.20 2.435
394.30 2.432
394.40 2.43
394.50 2.427
394.60 2.425
394.70 2.422
394.80 2.42
394.90 2.418
395.00 2.415
395.10 2.413
395.20 2.41
395.30 2.408
395.40 2.405
395.50 2.403
395.60 2.4
395.70 2.398
395.80 2.396
395.90 2.393
396.00 2.391
396.10 2.388
396.20 2.386
396.30 2.383
396.40 2.381
396.50 2.379
396.60 2.376
396.70 2.374
396.80 2.372
396.90 2.37
397.00 2.367
397.10 2.365
397.20 2.363
397.30 2.361
397.40 2.359
397.50 2.357
397.60 2.355
397.70 2.354
397.80 2.352
397.90 2.35
398.00 2.348
398.10 2.346
398.20 2.344
398.30 2.342
398.40 2.341
398.50 2.339
398.60 2.337
398.70 2.335
398.80 2.333
398.90 2.331
399.00 2.33
399.10 2.328
399.20 2.326
399.30 2.324
399.40 2.322
399.50 2.32
399.60 2.318
399.70 2.317
399.80 2.315
399.90 2.313
400.00 2.311
400.10 2.309
400.20 2.307
400.30 2.305
400.40 2.303
400.50 2.301
400.60 2.299
400.70 2.297
400.80 2.295
400.90 2.293
401.00 2.291
401.10 2.289
401.20 2.287
401.30 2.285
401.40 2.283
401.50 2.281
401.60 2.279
401.70 2.277
401.80 2.275
401.90 2.273
402.00 2.271
402.10 2.269
402.20 2.267
402.30 2.265
402.40 2.263
402.50 2.26
402.60 2.258
402.70 2.256
402.80 2.254
402.90 2.252
403.00 2.25
403.10 2.247
403.20 2.245
403.30 2.243
403.40 2.241
403.50 2.238
403.60 2.236
403.70 2.234
403.80 2.231
403.90 2.229
404.00 2.227
404.10 2.225
404.20 2.222
404.30 2.22
404.40 2.217
404.50 2.215
404.60 2.213
404.70 2.21
404.80 2.208
404.90 2.205
405.00 2.203
405.10 2.2
405.20 2.198
405.30 2.195
405.40 2.193
405.50 2.19
405.60 2.188
405.70 2.185
405.80 2.183
405.90 2.18
406.00 2.177
406.10 2.175
406.20 2.172
406.30 2.17
406.40 2.167
406.50 2.164
406.60 2.161
406.70 2.159
406.80 2.156
406.90 2.153
407.00 2.151
407.10 2.148
407.20 2.145
407.30 2.142
407.40 2.139
407.50 2.137
407.60 2.134
407.70 2.131
407.80 2.128
407.90 2.125
408.00 2.122
408.10 2.12
408.20 2.117
408.30 2.114
408.40 2.111
408.50 2.108
408.60 2.105
408.70 2.103
408.80 2.1
408.90 2.097
409.00 2.094
409.10 2.092
409.20 2.089
409.30 2.086
409.40 2.084
409.50 2.082
409.60 2.08
409.70 2.078
409.80 2.076
409.90 2.074
410.00 2.073
410.10 2.071
410.20 2.07
410.30 2.068
410.40 2.065
410.50 2.063
410.60 2.061
410.70 2.059
410.80 2.058
410.90 2.057
411.00 2.055
411.10 2.054
411.20 2.053
411.30 2.052
411.40 2.051
411.50 2.05
411.60 2.049
411.70 2.048
411.80 2.047
411.90 2.047
412.00 2.046
412.10 2.045
412.20 2.044
412.30 2.043
412.40 2.042
412.50 2.041
412.60 2.041
412.70 2.04
412.80 2.039
412.90 2.038
413.00 2.037
413.10 2.036
413.20 2.035
413.30 2.034
413.40 2.033
413.50 2.032
413.60 2.031
413.70 2.03
413.80 2.029
413.90 2.028
414.00 2.027
414.10 2.026
414.20 2.025
414.30 2.024
414.40 2.023
414.50 2.022
414.60 2.021
414.70 2.02
414.80 2.018
414.90 2.017
415.00 2.016
415.10 2.015
415.20 2.014
415.30 2.012
415.40 2.011
415.50 2.01
415.60 2.009
415.70 2.007
415.80 2.006
415.90 2.005
416.00 2.003
416.10 2.002
416.20 2.001
416.30 1.999
416.40 1.998
416.50 1.997
416.60 1.995
416.70 1.994
416.80 1.992
416.90 1.991
417.00 1.99
417.10 1.988
417.20 1.987
417.30 1.985
417.40 1.984
417.50 1.982
417.60 1.981
417.70 1.979
417.80 1.978
417.90 1.976
418.00 1.975
418.10 1.973
418.20 1.972
418.30 1.97
418.40 1.969
418.50 1.967
418.60 1.966
418.70 1.964
418.80 1.962
418.90 1.961
419.00 1.959
419.10 1.958
419.20 1.956
419.30 1.954
419.40 1.953
419.50 1.951
419.60 1.95
419.70 1.948
419.80 1.946
419.90 1.945
420.00 1.943
420.10 1.941
420.20 1.94
420.30 1.938
420.40 1.936
420.50 1.935
420.60 1.933
420.70 1.931
420.80 1.93
420.90 1.928
421.00 1.926
421.10 1.924
421.20 1.923
421.30 1.921
421.40 1.919
421.50 1.917
421.60 1.916
421.70 1.914
421.80 1.912
421.90 1.91
422.00 1.909
422.10 1.907
422.20 1.905
422.30 1.903
422.40 1.902
422.50 1.9
422.60 1.898
422.70 1.896
422.80 1.894
422.90 1.893
423.00 1.891
423.10 1.889
423.20 1.887
423.30 1.885
423.40 1.883
423.50 1.881
423.60 1.88
423.70 1.878
423.80 1.876
423.90 1.874
424.00 1.872
424.10 1.87
424.20 1.868
424.30 1.866
424.40 1.864
424.50 1.862
424.60 1.861
424.70 1.859
424.80 1.857
424.90 1.855
425.00 1.853
425.10 1.851
425.20 1.849
425.30 1.847
425.40 1.845
425.50 1.843
425.60 1.841
425.70 1.839
425.80 1.836
425.90 1.834
426.00 1.832
426.10 1.83
426.20 1.828
426.30 1.826
426.40 1.824
426.50 1.822
426.60 1.82
426.70 1.817
426.80 1.815
426.90 1.813
427.00 1.811
427.10 1.809
427.20 1.806
427.30 1.804
427.40 1.802
427.50 1.799
427.60 1.797
427.70 1.795
427.80 1.792
427.90 1.79
428.00 1.788
428.10 1.785
428.20 1.783
428.30 1.78
428.40 1.778
428.50 1.775
428.60 1.773
428.70 1.77
428.80 1.768
428.90 1.765
429.00 1.763
429.10 1.76
429.20 1.757
429.30 1.755
429.40 1.752
429.50 1.749
429.60 1.747
429.70 1.744
429.80 1.741
429.90 1.738
430.00 1.735
430.10 1.732
430.20 1.729
430.30 1.727
430.40 1.724
430.50 1.721
430.60 1.718
430.70 1.714
430.80 1.711
430.90 1.708
431.00 1.705
431.10 1.702
431.20 1.699
431.30 1.696
431.40 1.692
431.50 1.689
431.60 1.686
431.70 1.682
431.80 1.679
431.90 1.676
432.00 1.672
432.10 1.669
432.20 1.666
432.30 1.662
432.40 1.659
432.50 1.655
432.60 1.652
432.70 1.649
432.80 1.645
432.90 1.642
433.00 1.638
433.10 1.635
433.20 1.631
433.30 1.628
433.40 1.624
433.50 1.62
433.60 1.616
433.70 1.612
433.80 1.608
433.90 1.603
434.00 1.6
434.10 1.599
434.20 1.599
434.30 1.601
434.40 1.603
434.50 1.605
434.60 1.606
434.70 1.607
434.80 1.608
434.90 1.608
435.00 1.609
435.10 1.61
435.20 1.611
435.30 1.611
435.40 1.612
435.50 1.612
435.60 1.613
435.70 1.614
435.80 1.614
435.90 1.615
436.00 1.615
436.10 1.616
436.20 1.616
436.30 1.617
436.40 1.617
436.50 1.618
436.60 1.618
436.70 1.618
436.80 1.619
436.90 1.619
437.00 1.619
437.10 1.619
437.20 1.62
437.30 1.62
437.40 1.62
437.50 1.62
437.60 1.62
437.70 1.62
437.80 1.62
437.90 1.62
438.00 1.62
438.10 1.62
438.20 1.62
438.30 1.62
438.40 1.619
438.50 1.619
438.60 1.619
438.70 1.619
438.80 1.618
438.90 1.618
439.00 1.618
439.10 1.617
439.20 1.617
439.30 1.616
439.40 1.616
439.50 1.615
439.60 1.615
439.70 1.614
439.80 1.614
439.90 1.613
440.00 1.613
440.10 1.612
440.20 1.611
440.30 1.611
440.40 1.61
440.50 1.609
440.60 1.609
440.70 1.608
440.80 1.607
440.90 1.606
441.00 1.605
441.10 1.605
441.20 1.604
441.30 1.603
441.40 1.602
441.50 1.601
441.60 1.6
441.70 1.599
441.80 1.599
441.90 1.598
442.00 1.597
442.10 1.596
442.20 1.595
442.30 1.594
442.40 1.593
442.50 1.592
442.60 1.591
442.70 1.59
442.80 1.589
442.90 1.588
443.00 1.587
443.10 1.586
443.20 1.585
443.30 1.584
443.40 1.583
443.50 1.582
443.60 1.581
443.70 1.579
443.80 1.578
443.90 1.577
444.00 1.576
444.10 1.575
444.20 1.574
444.30 1.573
444.40 1.572
444.50 1.571
444.60 1.569
444.70 1.568
444.80 1.567
444.90 1.566
445.00 1.565
445.10 1.564
445.20 1.563
445.30 1.561
445.40 1.56
445.50 1.559
445.60 1.558
445.70 1.557
445.80 1.556
445.90 1.554
446.00 1.553
446.10 1.552
446.20 1.551
446.30 1.55
446.40 1.548
446.50 1.547
446.60 1.546
446.70 1.545
446.80 1.544
446.90 1.542
447.00 1.541
447.10 1.54
447.20 1.539
447.30 1.538
447.40 1.536
447.50 1.535
447.60 1.534
447.70 1.533
447.80 1.531
447.90 1.53
448.00 1.529
448.10 1.528
448.20 1.527
448.30 1.525
448.40 1.524
448.50 1.523
448.60 1.522
448.70 1.52
448.80 1.519
448.90 1.518
449.00 1.517
449.10 1.516
449.20 1.514
449.30 1.513
449.40 1.512
449.50 1.511
449.60 1.509
449.70 1.508
449.80 1.507
449.90 1.506
450.00 1.504
450.10 1.503
450.20 1.502
450.30 1.501
450.40 1.5
450.50 1.498
450.60 1.497
450.70 1.496
450.80 1.495
450.90 1.493
451.00 1.492
451.10 1.491
451.20 1.49
451.30 1.488
451.40 1.487
451.50 1.486
451.60 1.485
451.70 1.484
451.80 1.482
451.90 1.481
452.00 1.48
452.10 1.479
452.20 1.477
452.30 1.476
452.40 1.475
452.50 1.474
452.60 1.472
452.70 1.471
452.80 1.47
452.90 1.469
453.00 1.468
453.10 1.466
453.20 1.465
453.30 1.464
453.40 1.463
453.50 1.461
453.60 1.46
453.70 1.459
453.80 1.458
453.90 1.457
454.00 1.455
454.10 1.454
454.20 1.453
454.30 1.452
454.40 1.45
454.50 1.449
454.60 1.448
454.70 1.447
454.80 1.446
454.90 1.444
455.00 1.443
455.10 1.442
455.20 1.441
455.30 1.44
455.40 1.438
455.50 1.437
455.60 1.436
455.70 1.435
455.80 1.434
455.90 1.432
456.00 1.431
456.10 1.43
456.20 1.429
456.30 1.428
456.40 1.426
456.50 1.425
456.60 1.424
456.70 1.423
456.80 1.422
456.90 1.42
457.00 1.419
457.10 1.418
457.20 1.417
457.30 1.416
457.40 1.414
457.50 1.413
457.60 1.412
457.70 1.411
457.80 1.41
457.90 1.408
458.00 1.407
458.10 1.406
458.20 1.405
458.30 1.404
458.40 1.403
458.50 1.401
458.60 1.4
458.70 1.399
458.80 1.398
458.90 1.397
459.00 1.395
459.10 1.394
459.20 1.393
459.30 1.392
459.40 1.391
459.50 1.39
459.60 1.388
459.70 1.387
459.80 1.386
459.90 1.385
460.00 1.384
460.10 1.383
460.20 1.381
460.30 1.38
460.40 1.379
460.50 1.378
460.60 1.377
460.70 1.376
460.80 1.374
460.90 1.373
461.00 1.372
461.10 1.371
461.20 1.37
461.30 1.369
461.40 1.367
461.50 1.366
461.60 1.365
461.70 1.364
461.80 1.363
461.90 1.362
462.00 1.361
462.10 1.359
462.20 1.358
462.30 1.357
462.40 1.356
462.50 1.355
462.60 1.354
462.70 1.353
462.80 1.351
462.90 1.35
463.00 1.349
463.10 1.348
463.20 1.347
463.30 1.346
463.40 1.345
463.50 1.343
463.60 1.342
463.70 1.341
463.80 1.34
463.90 1.339
464.00 1.338
464.10 1.337
464.20 1.335
464.30 1.334
464.40 1.333
464.50 1.332
464.60 1.331
464.70 1.33
464.80 1.329
464.90 1.328
465.00 1.326
465.10 1.325
465.20 1.324
465.30 1.323
465.40 1.322
465.50 1.321
465.60 1.32
465.70 1.319
465.80 1.317
465.90 1.316
466.00 1.315
466.10 1.314
466.20 1.313
466.30 1.312
466.40 1.311
466.50 1.31
466.60 1.308
466.70 1.307
466.80 1.306
466.90 1.305
467.00 1.304
467.10 1.303
467.20 1.302
467.30 1.301
467.40 1.3
467.50 1.298
467.60 1.297
467.70 1.296
467.80 1.295
467.90 1.294
468.00 1.293
468.10 1.292
468.20 1.291
468.30 1.29
468.40 1.288
468.50 1.287
468.60 1.286
468.70 1.285
468.80 1.284
468.90 1.283
469.00 1.282
469.10 1.281
469.20 1.28
469.30 1.278
469.40 1.277
469.50 1.276
469.60 1.275
469.70 1.274
469.80 1.273
469.90 1.272
470.00 1.271
470.10 1.27
470.20 1.268
470.30 1.267
470.40 1.266
470.50 1.265
470.60 1.264
470.70 1.263
470.80 1.262
470.90 1.261
471.00 1.26
471.10 1.258
471.20 1.257
471.30 1.256
471.40 1.255
471.50 1.254
471.60 1.253
471.70 1.252
471.80 1.251
471.90 1.25
472.00 1.248
472.10 1.247
472.20 1.246
472.30 1.245
472.40 1.244
472.50 1.243
472.60 1.242
472.70 1.241
472.80 1.239
472.90 1.238
473.00 1.237
473.10 1.236
473.20 1.235
473.30 1.234
473.40 1.233
473.50 1.232
473.60 1.23
473.70 1.229
473.80 1.228
473.90 1.227
474.00 1.226
474.10 1.225
474.20 1.224
474.30 1.222
474.40 1.221
474.50 1.22
474.60 1.219
474.70 1.218
474.80 1.217
474.90 1.215
475.00 1.214
475.10 1.213
475.20 1.212
475.30 1.211
475.40 1.21
475.50 1.208
475.60 1.207
475.70 1.206
475.80 1.205
475.90 1.204
476.00 1.202
476.10 1.201
476.20 1.2
476.30 1.199
476.40 1.197
476.50 1.196
476.60 1.195
476.70 1.194
476.80 1.192
476.90 1.191
477.00 1.19
477.10 1.189
477.20 1.187
477.30 1.186
477.40 1.185
477.50 1.184
477.60 1.182
477.70 1.181
477.80 1.18
477.90 1.178
478.00 1.177
478.10 1.176
478.20 1.174
478.30 1.173
478.40 1.172
478.50 1.17
478.60 1.169
478.70 1.167
478.80 1.166
478.90 1.164
479.00 1.163
479.10 1.162
479.20 1.16
479.30 1.159
479.40 1.157
479.50 1.156
479.60 1.154
479.70 1.153
479.80 1.151
479.90 1.149
480.00 1.148
480.10 1.146
480.20 1.145
480.30 1.143
480.40 1.141
480.50 1.14
480.60 1.138
480.70 1.136
480.80 1.134
480.90 1.133
481.00 1.131
481.10 1.129
481.20 1.127
481.30 1.126
481.40 1.124
481.50 1.122
481.60 1.12
481.70 1.118
481.80 1.116
481.90 1.114
482.00 1.112
482.10 1.11
482.20 1.108
482.30 1.106
482.40 1.103
482.50 1.101
482.60 1.099
482.70 1.097
482.80 1.094
482.90 1.092
483.00 1.09
483.10 1.088
483.20 1.085
483.30 1.083
483.40 1.08
483.50 1.078
483.60 1.075
483.70 1.073
483.80 1.07
483.90 1.067
484.00 1.065
484.10 1.062
484.20 1.06
484.30 1.057
484.40 1.054
484.50 1.052
484.60 1.049
484.70 1.046
484.80 1.043
484.90 1.041
485.00 1.038
485.10 1.035
485.20 1.033
485.30 1.03
485.40 1.028
485.50 1.026
485.60 1.024
485.70 1.023
485.80 1.024
485.90 1.026
486.00 1.031
486.10 1.037
486.20 1.034
486.30 1.026
486.40 1.021
486.50 1.018
486.60 1.016
486.70 1.016
486.80 1.016
486.90 1.017
487.00 1.017
487.10 1.018
487.20 1.019
487.30 1.02
487.40 1.022
487.50 1.023
487.60 1.024
487.70 1.025
487.80 1.026
487.90 1.027
488.00 1.028
488.10 1.029
488.20 1.03
488.30 1.031
488.40 1.032
488.50 1.033
488.60 1.034
488.70 1.034
488.80 1.035
488.90 1.036
489.00 1.037
489.10 1.038
489.20 1.038
489.30 1.039
489.40 1.039
489.50 1.04
489.60 1.04
489.70 1.041
489.80 1.041
489.90 1.042
490.00 1.042
490.10 1.043
490.20 1.043
490.30 1.043
490.40 1.043
490.50 1.044
490.60 1.044
490.70 1.044
490.80 1.044
490.90 1.044
491.00 1.044
491.10 1.045
491.20 1.045
491.30 1.044
491.40 1.044
491.50 1.044
491.60 1.044
491.70 1.044
491.80 1.044
491.90 1.044
492.00 1.044
492.10 1.044
492.20 1.044
492.30 1.043
492.40 1.043
492.50 1.043
492.60 1.042
492.70 1.042
492.80 1.042
492.90 1.042
493.00 1.041
493.10 1.041
493.20 1.041
493.30 1.04
493.40 1.04
493.50 1.039
493.60 1.039
493.70 1.039
493.80 1.038
493.90 1.038
494.00 1.037
494.10 1.037
494.20 1.036
494.30 1.036
494.40 1.035
494.50 1.035
494.60 1.034
494.70 1.034
494.80 1.033
494.90 1.033
495.00 1.032
495.10 1.032
495.20 1.031
495.30 1.031
495.40 1.03
495.50 1.029
495.60 1.029
495.70 1.028
495.80 1.028
495.90 1.027
496.00 1.027
496.10 1.026
496.20 1.025
496.30 1.025
496.40 1.024
496.50 1.023
496.60 1.023
496.70 1.022
496.80 1.022
496.90 1.021
497.00 1.02
497.10 1.02
497.20 1.019
497.30 1.018
497.40 1.018
497.50 1.017
497.60 1.016
497.70 1.016
497.80 1.015
497.90 1.014
498.00 1.014
498.10 1.013
498.20 1.012
498.30 1.012
498.40 1.011
498.50 1.01
498.60 1.01
498.70 1.009
498.80 1.008
498.90 1.008
499.00 1.007
499.10 1.006
499.20 1.006
499.30 1.005
499.40 1.004
499.50 1.003
499.60 1.003
499.70 1.002
499.80 1.001
499.90 1.001
500.00 1
500.10 0.9993
500.20 0.9986
500.30 0.9979
500.40 0.9972
500.50 0.9965
500.60 0.9958
500.70 0.9951
500.80 0.9943
500.90 0.9936
501.00 0.9929
501.10 0.9922
501.20 0.9915
501.30 0.9908
501.40 0.9901
501.50 0.9894
501.60 0.9887
501.70 0.9879
501.80 0.9872
501.90 0.9865
502.00 0.9858
502.10 0.9851
502.20 0.9844
502.30 0.9837
502.40 0.9829
502.50 0.9822
502.60 0.9815
502.70 0.9808
502.80 0.9801
502.90 0.9794
503.00 0.9787
503.10 0.9779
503.20 0.9772
503.30 0.9765
503.40 0.9758
503.50 0.9751
503.60 0.9744
503.70 0.9736
503.80 0.9729
503.90 0.9722
504.00 0.9715
504.10 0.9708
504.20 0.9701
504.30 0.9693
504.40 0.9686
504.50 0.9679
504.60 0.9672
504.70 0.9665
504.80 0.9658
504.90 0.9651
505.00 0.9643
505.10 0.9636
505.20 0.9629
505.30 0.9622
505.40 0.9615
505.50 0.9608
505.60 0.9601
505.70 0.9593
505.80 0.9586
505.90 0.9579
506.00 0.9572
506.10 0.9565
506.20 0.9558
506.30 0.9551
506.40 0.9544
506.50 0.9537
506.60 0.9529
506.70 0.9522
506.80 0.9515
506.90 0.9508
507.00 0.9501
507.10 0.9494
507.20 0.9487
507.30 0.948
507.40 0.9473
507.50 0.9466
507.60 0.9459
507.70 0.9452
507.80 0.9444
507.90 0.9437
508.00 0.943
508.10 0.9423
508.20 0.9416
508.30 0.9409
508.40 0.9402
508.50 0.9395
508.60 0.9388
508.70 0.9381
508.80 0.9374
508.90 0.9367
509.00 0.936
509.10 0.9353
509.20 0.9346
509.30 0.9339
509.40 0.9332
509.50 0.9325
509.60 0.9318
509.70 0.9311
509.80 0.9304
509.90 0.9297
510.00 0.929
510.10 0.9284
510.20 0.9277
510.30 0.927
510.40 0.9263
510.50 0.9256
510.60 0.9249
510.70 0.9242
510.80 0.9235
510.90 0.9228
511.00 0.9221
511.10 0.9214
511.20 0.9207
511.30 0.92
511.40 0.9194
511.50 0.9187
511.60 0.918
511.70 0.9173
511.80 0.9166
511.90 0.9159
512.00 0.9152
512.10 0.9146
512.20 0.9139
512.30 0.9132
512.40 0.9125
512.50 0.9118
512.60 0.9111
512.70 0.9105
512.80 0.9098
512.90 0.9091
513.00 0.9084
513.10 0.9077
513.20 0.9071
513.30 0.9064
513.40 0.9057
513.50 0.905
513.60 0.9044
513.70 0.9037
513.80 0.903
513.90 0.9023
514.00 0.9017
514.10 0.901
514.20 0.9003
514.30 0.8996
514.40 0.899
514.50 0.8983
514.60 0.8976
514.70 0.8969
514.80 0.8963
514.90 0.8956
515.00 0.8949
515.10 0.8943
515.20 0.8936
515.30 0.8929
515.40 0.8923
515.50 0.8916
515.60 0.8909
515.70 0.8903
515.80 0.8896
515.90 0.8889
516.00 0.8883
516.10 0.8876
516.20 0.887
516.30 0.8863
516.40 0.8856
516.50 0.885
516.60 0.8843
516.70 0.8837
516.80 0.883
516.90 0.8823
517.00 0.8817
517.10 0.881
517.20 0.8804
517.30 0.8797
517.40 0.8791
517.50 0.8784
517.60 0.8778
517.70 0.8771
517.80 0.8765
517.90 0.8758
518.00 0.8752
518.10 0.8745
518.20 0.8738
518.30 0.8732
518.40 0.8725
518.50 0.8719
518.60 0.8713
518.70 0.8706
518.80 0.87
518.90 0.8693
519.00 0.8687
519.10 0.868
519.20 0.8674
519.30 0.8667
519.40 0.8661
519.50 0.8654
519.60 0.8648
519.70 0.8642
519.80 0.8635
519.90 0.8629
520.00 0.8622
520.10 0.8616
520.20 0.861
520.30 0.8603
520.40 0.8597
520.50 0.859
520.60 0.8584
520.70 0.8578
520.80 0.8571
520.90 0.8565
521.00 0.8559
521.10 0.8552
521.20 0.8546
521.30 0.854
521.40 0.8533
521.50 0.8527
521.60 0.8521
521.70 0.8514
521.80 0.8508
521.90 0.8502
522.00 0.8495
522.10 0.8489
522.20 0.8483
522.30 0.8477
522.40 0.847
522.50 0.8464
522.60 0.8458
522.70 0.8452
522.80 0.8445
522.90 0.8439
523.00 0.8433
523.10 0.8427
523.20 0.842
523.30 0.8414
523.40 0.8408
523.50 0.8402
523.60 0.8396
523.70 0.8389
523.80 0.8383
523.90 0.8377
524.00 0.8371
524.10 0.8365
524.20 0.8358
524.30 0.8352
524.40 0.8346
524.50 0.834
524.60 0.8334
524.70 0.8328
524.80 0.8322
524.90 0.8315
525.00 0.8309
525.10 0.8303
525.20 0.8297
525.30 0.8291
525.40 0.8285
525.50 0.8279
525.60 0.8273
525.70 0.8267
525.80 0.8261
525.90 0.8254
526.00 0.8248
526.10 0.8242
526.20 0.8236
526.30 0.823
526.40 0.8224
526.50 0.8218
526.60 0.8212
526.70 0.8206
526.80 0.82
526.90 0.8194
527.00 0.8188
527.10 0.8182
527.20 0.8176
527.30 0.817
527.40 0.8164
527.50 0.8158
527.60 0.8152
527.70 0.8146
527.80 0.814
527.90 0.8134
528.00 0.8128
528.10 0.8122
528.20 0.8116
528.30 0.811
528.40 0.8104
528.50 0.8098
528.60 0.8092
528.70 0.8087
528.80 0.8081
528.90 0.8075
529.00 0.8069
529.10 0.8063
529.20 0.8057
529.30 0.8051
529.40 0.8045
529.50 0.8039
529.60 0.8033
529.70 0.8028
529.80 0.8022
529.90 0.8016
530.00 0.801
530.10 0.8004
530.20 0.7998
530.30 0.7992
530.40 0.7987
530.50 0.7981
530.60 0.7975
530.70 0.7969
530.80 0.7963
530.90 0.7958
531.00 0.7952
531.10 0.7946
531.20 0.794
531.30 0.7934
531.40 0.7929
531.50 0.7923
531.60 0.7917
531.70 0.7911
531.80 0.7905
531.90 0.79
532.00 0.7894
532.10 0.7888
532.20 0.7883
532.30 0.7877
532.40 0.7871
532.50 0.7865
532.60 0.786
532.70 0.7854
532.80 0.7848
532.90 0.7843
533.00 0.7837
533.10 0.7831
533.20 0.7825
533.30 0.782
533.40 0.7814
533.50 0.7808
533.60 0.7803
533.70 0.7797
533.80 0.7791
533.90 0.7786
534.00 0.778
534.10 0.7774
534.20 0.7769
534.30 0.7763
534.40 0.7758
534.50 0.7752
534.60 0.7746
534.70 0.7741
534.80 0.7735
534.90 0.773
535.00 0.7724
535.10 0.7718
535.20 0.7713
535.30 0.7707
535.40 0.7702
535.50 0.7696
535.60 0.769
535.70 0.7685
535.80 0.7679
535.90 0.7674
536.00 0.7668
536.10 0.7663
536.20 0.7657
536.30 0.7652
536.40 0.7646
536.50 0.7641
536.60 0.7635
536.70 0.763
536.80 0.7624
536.90 0.7619
537.00 0.7613
537.10 0.7608
537.20 0.7602
537.30 0.7597
537.40 0.7591
537.50 0.7586
537.60 0.758
537.70 0.7575
537.80 0.7569
537.90 0.7564
538.00 0.7558
538.10 0.7553
538.20 0.7547
538.30 0.7542
538.40 0.7537
538.50 0.7531
538.60 0.7526
538.70 0.752
538.80 0.7515
538.90 0.7509
539.00 0.7504
539.10 0.7499
539.20 0.7493
539.30 0.7488
539.40 0.7483
539.50 0.7477
539.60 0.7472
539.70 0.7466
539.80 0.7461
539.90 0.7456
540.00 0.745
540.10 0.7445
540.20 0.744
540.30 0.7434
540.40 0.7429
540.50 0.7424
540.60 0.7418
540.70 0.7413
540.80 0.7408
540.90 0.7402
541.00 0.7397
541.10 0.7392
541.20 0.7387
541.30 0.7381
541.40 0.7376
541.50 0.7371
541.60 0.7365
541.70 0.736
541.80 0.7355
541.90 0.735
542.00 0.7344
542.10 0.7339
542.20 0.7334
542.30 0.7329
542.40 0.7323
542.50 0.7318
542.60 0.7313
542.70 0.7308
542.80 0.7302
542.90 0.7297
543.00 0.7292
543.10 0.7287
543.20 0.7282
543.30 0.7276
543.40 0.7271
543.50 0.7266
543.60 0.7261
543.70 0.7256
543.80 0.725
543.90 0.7245
544.00 0.724
544.10 0.7235
544.20 0.723
544.30 0.7225
544.40 0.722
544.50 0.7214
544.60 0.7209
544.70 0.7204
544.80 0.7199
544.90 0.7194
545.00 0.7189
545.10 0.7184
545.20 0.7179
545.30 0.7173
545.40 0.7168
545.50 0.7163
545.60 0.7158
545.70 0.7153
545.80 0.7148
545.90 0.7143
546.00 0.7138
546.10 0.7133
546.20 0.7128
546.30 0.7123
546.40 0.7118
546.50 0.7113
546.60 0.7107
546.70 0.7102
546.80 0.7097
546.90 0.7092
547.00 0.7087
547.10 0.7082
547.20 0.7077
547.30 0.7072
547.40 0.7067
547.50 0.7062
547.60 0.7057
547.70 0.7052
547.80 0.7047
547.90 0.7042
548.00 0.7037
548.10 0.7032
548.20 0.7027
548.30 0.7022
548.40 0.7017
548.50 0.7012
548.60 0.7007
548.70 0.7003
548.80 0.6998
548.90 0.6993
549.00 0.6988
549.10 0.6983
549.20 0.6978
549.30 0.6973
549.40 0.6968
549.50 0.6963
549.60 0.6958
549.70 0.6953
549.80 0.6948
549.90 0.6943
550.00 0.6939
550.10 0.6934
550.20 0.6929
550.30 0.6924
550.40 0.6919
550.50 0.6914
550.60 0.6909
550.70 0.6904
550.80 0.6899
550.90 0.6895
551.00 0.689
551.10 0.6885
551.20 0.688
551.30 0.6875
551.40 0.687
551.50 0.6866
551.60 0.6861
551.70 0.6856
551.80 0.6851
551.90 0.6846
552.00 0.6841
552.10 0.6837
552.20 0.6832
552.30 0.6827
552.40 0.6822
552.50 0.6817
552.60 0.6813
552.70 0.6808
552.80 0.6803
552.90 0.6798
553.00 0.6794
553.10 0.6789
553.20 0.6784
553.30 0.6779
553.40 0.6775
553.50 0.677
553.60 0.6765
553.70 0.676
553.80 0.6756
553.90 0.6751
554.00 0.6746
554.10 0.6741
554.20 0.6737
554.30 0.6732
554.40 0.6727
554.50 0.6723
554.60 0.6718
554.70 0.6713
554.80 0.6708
554.90 0.6704
555.00 0.6699
555.10 0.6694
555.20 0.669
555.30 0.6685
555.40 0.668
555.50 0.6676
555.60 0.6671
555.70 0.6666
555.80 0.6662
555.90 0.6657
556.00 0.6652
556.10 0.6648
556.20 0.6643
556.30 0.6638
556.40 0.6634
556.50 0.6629
556.60 0.6625
556.70 0.662
556.80 0.6615
556.90 0.6611
557.00 0.6606
557.10 0.6602
557.20 0.6597
557.30 0.6592
557.40 0.6588
557.50 0.6583
557.60 0.6579
557.70 0.6574
557.80 0.6569
557.90 0.6565
558.00 0.656
558.10 0.6556
558.20 0.6551
558.30 0.6547
558.40 0.6542
558.50 0.6538
558.60 0.6533
558.70 0.6528
558.80 0.6524
558.90 0.6519
559.00 0.6515
559.10 0.651
559.20 0.6506
559.30 0.6501
559.40 0.6497
559.50 0.6492
559.60 0.6488
559.70 0.6483
559.80 0.6479
559.90 0.6474
560.00 0.647
560.10 0.6465
560.20 0.6461
560.30 0.6456
560.40 0.6452
560.50 0.6447
560.60 0.6443
560.70 0.6439
560.80 0.6434
560.90 0.643
561.00 0.6425
561.10 0.6421
561.20 0.6416
561.30 0.6412
561.40 0.6407
561.50 0.6403
561.60 0.6399
561.70 0.6394
561.80 0.639
561.90 0.6385
562.00 0.6381
562.10 0.6376
562.20 0.6372
562.30 0.6368
562.40 0.6363
562.50 0.6359
562.60 0.6355
562.70 0.635
562.80 0.6346
562.90 0.6341
563.00 0.6337
563.10 0.6333
563.20 0.6328
563.30 0.6324
563.40 0.632
563.50 0.6315
563.60 0.6311
563.70 0.6306
563.80 0.6302
563.90 0.6298
564.00 0.6293
564.10 0.6289
564.20 0.6285
564.30 0.628
564.40 0.6276
564.50 0.6272
564.60 0.6268
564.70 0.6263
564.80 0.6259
564.90 0.6255
565.00 0.625
565.10 0.6246
565.20 0.6242
565.30 0.6237
565.40 0.6233
565.50 0.6229
565.60 0.6225
565.70 0.622
565.80 0.6216
565.90 0.6212
566.00 0.6208
566.10 0.6203
566.20 0.6199
566.30 0.6195
566.40 0.6191
566.50 0.6186
566.60 0.6182
566.70 0.6178
566.80 0.6174
566.90 0.6169
567.00 0.6165
567.10 0.6161
567.20 0.6157
567.30 0.6152
567.40 0.6148
567.50 0.6144
567.60 0.614
567.70 0.6136
567.80 0.6131
567.90 0.6127
568.00 0.6123
568.10 0.6119
568.20 0.6115
568.30 0.6111
568.40 0.6106
568.50 0.6102
568.60 0.6098
568.70 0.6094
568.80 0.609
568.90 0.6086
569.00 0.6081
569.10 0.6077
569.20 0.6073
569.30 0.6069
569.40 0.6065
569.50 0.6061
569.60 0.6057
569.70 0.6052
569.80 0.6048
569.90 0.6044
570.00 0.604
570.10 0.6036
570.20 0.6032
570.30 0.6028
570.40 0.6024
570.50 0.602
570.60 0.6015
570.70 0.6011
570.80 0.6007
570.90 0.6003
571.00 0.5999
571.10 0.5995
571.20 0.5991
571.30 0.5987
571.40 0.5983
571.50 0.5979
571.60 0.5975
571.70 0.5971
571.80 0.5967
571.90 0.5962
572.00 0.5958
572.10 0.5954
572.20 0.595
572.30 0.5946
572.40 0.5942
572.50 0.5938
572.60 0.5934
572.70 0.593
572.80 0.5926
572.90 0.5922
573.00 0.5918
573.10 0.5914
573.20 0.591
573.30 0.5906
573.40 0.5902
573.50 0.5898
573.60 0.5894
573.70 0.589
573.80 0.5886
573.90 0.5882
574.00 0.5878
574.10 0.5874
574.20 0.587
574.30 0.5866
574.40 0.5862
574.50 0.5858
574.60 0.5854
574.70 0.585
574.80 0.5846
574.90 0.5842
575.00 0.5839
575.10 0.5835
575.20 0.5831
575.30 0.5827
575.40 0.5823
575.50 0.5819
575.60 0.5815
575.70 0.5811
575.80 0.5807
575.90 0.5803
576.00 0.5799
576.10 0.5795
576.20 0.5791
576.30 0.5788
576.40 0.5784
576.50 0.578
576.60 0.5776
576.70 0.5772
576.80 0.5768
576.90 0.5764
577.00 0.576
577.10 0.5756
577.20 0.5753
577.30 0.5749
577.40 0.5745
577.50 0.5741
577.60 0.5737
577.70 0.5733
577.80 0.5729
577.90 0.5726
578.00 0.5722
578.10 0.5718
578.20 0.5714
578.30 0.571
578.40 0.5706
578.50 0.5702
578.60 0.5699
578.70 0.5695
578.80 0.5691
578.90 0.5687
579.00 0.5683
579.10 0.568
579.20 0.5676
579.30 0.5672
579.40 0.5668
579.50 0.5664
579.60 0.5661
579.70 0.5657
579.80 0.5653
579.90 0.5649
580.00 0.5645
580.10 0.5642
580.20 0.5638
580.30 0.5634
580.40 0.563
580.50 0.5626
580.60 0.5623
580.70 0.5619
580.80 0.5615
580.90 0.5611
581.00 0.5608
581.10 0.5604
581.20 0.56
581.30 0.5596
581.40 0.5593
581.50 0.5589
581.60 0.5585
581.70 0.5582
581.80 0.5578
581.90 0.5574
582.00 0.557
582.10 0.5567
582.20 0.5563
582.30 0.5559
582.40 0.5555
582.50 0.5552
582.60 0.5548
582.70 0.5544
582.80 0.5541
582.90 0.5537
583.00 0.5533
583.10 0.553
583.20 0.5526
583.30 0.5522
583.40 0.5519
583.50 0.5515
583.60 0.5511
583.70 0.5508
583.80 0.5504
583.90 0.55
584.00 0.5497
584.10 0.5493
584.20 0.5489
584.30 0.5486
584.40 0.5482
584.50 0.5478
584.60 0.5475
584.70 0.5471
584.80 0.5467
584.90 0.5464
585.00 0.546
585.10 0.5456
585.20 0.5453
585.30 0.5449
585.40 0.5446
585.50 0.5442
585.60 0.5438
585.70 0.5435
585.80 0.5431
585.90 0.5428
586.00 0.5424
586.10 0.542
586.20 0.5417
586.30 0.5413
586.40 0.541
586.50 0.5406
586.60 0.5402
586.70 0.5399
586.80 0.5395
586.90 0.5392
587.00 0.5388
587.10 0.5385
587.20 0.5381
587.30 0.5377
587.40 0.5374
587.50 0.537
587.60 0.5367
587.70 0.5363
587.80 0.536
587.90 0.5356
588.00 0.5353
588.10 0.5349
588.20 0.5346
588.30 0.5342
588.40 0.5338
588.50 0.5335
588.60 0.5331
588.70 0.5328
588.80 0.5324
588.90 0.5321
589.00 0.5317
589.10 0.5314
589.20 0.531
589.30 0.5307
589.40 0.5303
589.50 0.53
589.60 0.5296
589.70 0.5293
589.80 0.5289
589.90 0.5286
590.00 0.5282
590.10 0.5279
590.20 0.5275
590.30 0.5272
590.40 0.5268
590.50 0.5265
590.60 0.5262
590.70 0.5258
590.80 0.5255
590.90 0.5251
591.00 0.5248
591.10 0.5244
591.20 0.5241
591.30 0.5237
591.40 0.5234
591.50 0.523
591.60 0.5227
591.70 0.5224
591.80 0.522
591.90 0.5217
592.00 0.5213
592.10 0.521
592.20 0.5206
592.30 0.5203
592.40 0.52
592.50 0.5196
592.60 0.5193
592.70 0.5189
592.80 0.5186
592.90 0.5183
593.00 0.5179
593.10 0.5176
593.20 0.5172
593.30 0.5169
593.40 0.5166
593.50 0.5162
593.60 0.5159
593.70 0.5155
593.80 0.5152
593.90 0.5149
594.00 0.5145
594.10 0.5142
594.20 0.5139
594.30 0.5135
594.40 0.5132
594.50 0.5129
594.60 0.5125
594.70 0.5122
594.80 0.5119
594.90 0.5115
595.00 0.5112
595.10 0.5108
595.20 0.5105
595.30 0.5102
595.40 0.5098
595.50 0.5095
595.60 0.5092
595.70 0.5088
595.80 0.5085
595.90 0.5082
596.00 0.5079
596.10 0.5075
596.20 0.5072
596.30 0.5069
596.40 0.5065
596.50 0.5062
596.60 0.5059
596.70 0.5055
596.80 0.5052
596.90 0.5049
597.00 0.5046
597.10 0.5042
597.20 0.5039
597.30 0.5036
597.40 0.5032
597.50 0.5029
597.60 0.5026
597.70 0.5023
597.80 0.5019
597.90 0.5016
598.00 0.5013
598.10 0.501
598.20 0.5006
598.30 0.5003
598.40 0.5
598.50 0.4996
598.60 0.4993
598.70 0.499
598.80 0.4987
598.90 0.4984
599.00 0.498
599.10 0.4977
599.20 0.4974
599.30 0.4971
599.40 0.4967
599.50 0.4964
599.60 0.4961
599.70 0.4958
599.80 0.4954
599.90 0.4951
600.00 0.4948
600.10 0.4945
600.20 0.4942
600.30 0.4938
600.40 0.4935
600.50 0.4932
600.60 0.4929
600.70 0.4926
600.80 0.4922
600.90 0.4919
601.00 0.4916
601.10 0.4913
601.20 0.491
601.30 0.4907
601.40 0.4903
601.50 0.49
601.60 0.4897
601.70 0.4894
601.80 0.4891
601.90 0.4888
602.00 0.4884
602.10 0.4881
602.20 0.4878
602.30 0.4875
602.40 0.4872
602.50 0.4869
602.60 0.4865
602.70 0.4862
602.80 0.4859
602.90 0.4856
603.00 0.4853
603.10 0.485
603.20 0.4847
603.30 0.4844
603.40 0.484
603.50 0.4837
603.60 0.4834
603.70 0.4831
603.80 0.4828
603.90 0.4825
604.00 0.4822
604.10 0.4819
604.20 0.4816
604.30 0.4812
604.40 0.4809
604.50 0.4806
604.60 0.4803
604.70 0.48
604.80 0.4797
604.90 0.4794
605.00 0.4791
605.10 0.4788
605.20 0.4785
605.30 0.4782
605.40 0.4778
605.50 0.4775
605.60 0.4772
605.70 0.4769
605.80 0.4766
605.90 0.4763
606.00 0.476
606.10 0.4757
606.20 0.4754
606.30 0.4751
606.40 0.4748
606.50 0.4745
606.60 0.4742
606.70 0.4739
606.80 0.4736
606.90 0.4733
607.00 0.473
607.10 0.4727
607.20 0.4724
607.30 0.472
607.40 0.4717
607.50 0.4714
607.60 0.4711
607.70 0.4708
607.80 0.4705
607.90 0.4702
608.00 0.4699
608.10 0.4696
608.20 0.4693
608.30 0.469
608.40 0.4687
608.50 0.4684
608.60 0.4681
608.70 0.4678
608.80 0.4675
608.90 0.4672
609.00 0.4669
609.10 0.4666
609.20 0.4663
609.30 0.466
609.40 0.4657
609.50 0.4654
609.60 0.4652
609.70 0.4649
609.80 0.4646
609.90 0.4643
610.00 0.464
610.10 0.4637
610.20 0.4634
610.30 0.4631
610.40 0.4628
610.50 0.4625
610.60 0.4622
610.70 0.4619
610.80 0.4616
610.90 0.4613
611.00 0.461
611.10 0.4607
611.20 0.4604
611.30 0.4601
611.40 0.4598
611.50 0.4595
611.60 0.4593
611.70 0.459
611.80 0.4587
611.90 0.4584
612.00 0.4581
612.10 0.4578
612.20 0.4575
612.30 0.4572
612.40 0.4569
612.50 0.4566
612.60 0.4563
612.70 0.456
612.80 0.4558
612.90 0.4555
613.00 0.4552
613.10 0.4549
613.20 0.4546
613.30 0.4543
613.40 0.454
613.50 0.4537
613.60 0.4534
613.70 0.4532
613.80 0.4529
613.90 0.4526
614.00 0.4523
614.10 0.452
614.20 0.4517
614.30 0.4514
614.40 0.4511
614.50 0.4509
614.60 0.4506
614.70 0.4503
614.80 0.45
614.90 0.4497
615.00 0.4494
615.10 0.4491
615.20 0.4489
615.30 0.4486
615.40 0.4483
615.50 0.448
615.60 0.4477
615.70 0.4474
615.80 0.4472
615.90 0.4469
616.00 0.4466
616.10 0.4463
616.20 0.446
616.30 0.4457
616.40 0.4455
616.50 0.4452
616.60 0.4449
616.70 0.4446
616.80 0.4443
616.90 0.4441
617.00 0.4438
617.10 0.4435
617.20 0.4432
617.30 0.4429
617.40 0.4427
617.50 0.4424
617.60 0.4421
617.70 0.4418
617.80 0.4415
617.90 0.4413
618.00 0.441
618.10 0.4407
618.20 0.4404
618.30 0.4401
618.40 0.4399
618.50 0.4396
618.60 0.4393
618.70 0.439
618.80 0.4388
618.90 0.4385
619.00 0.4382
619.10 0.4379
619.20 0.4376
619.30 0.4374
619.40 0.4371
619.50 0.4368
619.60 0.4365
619.70 0.4363
619.80 0.436
619.90 0.4357
620.00 0.4354
620.10 0.4352
620.20 0.4349
620.30 0.4346
620.40 0.4344
620.50 0.4341
620.60 0.4338
620.70 0.4335
620.80 0.4333
620.90 0.433
621.00 0.4327
621.10 0.4324
621.20 0.4322
621.30 0.4319
621.40 0.4316
621.50 0.4314
621.60 0.4311
621.70 0.4308
621.80 0.4305
621.90 0.4303
622.00 0.43
622.10 0.4297
622.20 0.4295
622.30 0.4292
622.40 0.4289
622.50 0.4287
622.60 0.4284
622.70 0.4281
622.80 0.4278
622.90 0.4276
623.00 0.4273
623.10 0.427
623.20 0.4268
623.30 0.4265
623.40 0.4262
623.50 0.426
623.60 0.4257
623.70 0.4254
623.80 0.4252
623.90 0.4249
624.00 0.4246
624.10 0.4244
624.20 0.4241
624.30 0.4238
624.40 0.4236
624.50 0.4233
624.60 0.423
624.70 0.4228
624.80 0.4225
624.90 0.4222
625.00 0.422
625.10 0.4217
625.20 0.4215
625.30 0.4212
625.40 0.4209
625.50 0.4207
625.60 0.4204
625.70 0.4201
625.80 0.4199
625.90 0.4196
626.00 0.4193
626.10 0.4191
626.20 0.4188
626.30 0.4186
626.40 0.4183
626.50 0.418
626.60 0.4178
626.70 0.4175
626.80 0.4173
626.90 0.417
627.00 0.4167
627.10 0.4165
627.20 0.4162
627.30 0.4159
627.40 0.4157
627.50 0.4154
627.60 0.4152
627.70 0.4149
627.80 0.4146
627.90 0.4144
628.00 0.4141
628.10 0.4139
628.20 0.4136
628.30 0.4134
628.40 0.4131
628.50 0.4128
628.60 0.4126
628.70 0.4123
628.80 0.4121
628.90 0.4118
629.00 0.4115
629.10 0.4113
629.20 0.411
629.30 0.4108
629.40 0.4105
629.50 0.4103
629.60 0.41
629.70 0.4098
629.80 0.4095
629.90 0.4092
630.00 0.409
630.10 0.4087
630.20 0.4085
630.30 0.4082
630.40 0.408
630.50 0.4077
630.60 0.4075
630.70 0.4072
630.80 0.4069
630.90 0.4067
631.00 0.4064
631.10 0.4062
631.20 0.4059
631.30 0.4057
631.40 0.4054
631.50 0.4052
631.60 0.4049
631.70 0.4047
631.80 0.4044
631.90 0.4042
632.00 0.4039
632.10 0.4036
632.20 0.4034
632.30 0.4031
632.40 0.4029
632.50 0.4026
632.60 0.4024
632.70 0.4021
632.80 0.4019
632.90 0.4016
633.00 0.4014
633.10 0.4011
633.20 0.4009
633.30 0.4006
633.40 0.4004
633.50 0.4001
633.60 0.3999
633.70 0.3996
633.80 0.3994
633.90 0.3991
634.00 0.3989
634.10 0.3986
634.20 0.3984
634.30 0.3981
634.40 0.3979
634.50 0.3976
634.60 0.3974
634.70 0.3971
634.80 0.3969
634.90 0.3966
635.00 0.3964
635.10 0.3961
635.20 0.3959
635.30 0.3956
635.40 0.3954
635.50 0.3951
635.60 0.3949
635.70 0.3946
635.80 0.3944
635.90 0.3942
636.00 0.3939
636.10 0.3937
636.20 0.3934
636.30 0.3932
636.40 0.3929
636.50 0.3927
636.60 0.3924
636.70 0.3922
636.80 0.3919
636.90 0.3917
637.00 0.3914
637.10 0.3912
637.20 0.3909
637.30 0.3907
637.40 0.3904
637.50 0.3902
637.60 0.39
637.70 0.3897
637.80 0.3895
637.90 0.3892
638.00 0.389
638.10 0.3887
638.20 0.3885
638.30 0.3882
638.40 0.388
638.50 0.3877
638.60 0.3875
638.70 0.3872
638.80 0.387
638.90 0.3868
639.00 0.3865
639.10 0.3863
639.20 0.386
639.30 0.3858
639.40 0.3855
639.50 0.3853
639.60 0.385
639.70 0.3848
639.80 0.3845
639.90 0.3843
640.00 0.384
640.10 0.3838
640.20 0.3836
640.30 0.3833
640.40 0.3831
640.50 0.3828
640.60 0.3826
640.70 0.3823
640.80 0.3821
640.90 0.3818
641.00 0.3816
641.10 0.3813
641.20 0.3811
641.30 0.3808
641.40 0.3806
641.50 0.3803
641.60 0.3801
641.70 0.3798
641.80 0.3796
641.90 0.3793
642.00 0.3791
642.10 0.3789
642.20 0.3786
642.30 0.3784
642.40 0.3781
642.50 0.3779
642.60 0.3776
642.70 0.3774
642.80 0.3771
642.90 0.3769
643.00 0.3766
643.10 0.3764
643.20 0.3761
643.30 0.3759
643.40 0.3756
643.50 0.3753
643.60 0.3751
643.70 0.3748
643.80 0.3746
643.90 0.3743
644.00 0.3741
644.10 0.3738
644.20 0.3736
644.30 0.3733
644.40 0.3731
644.50 0.3728
644.60 0.3725
644.70 0.3723
644.80 0.372
644.90 0.3718
645.00 0.3715
645.10 0.3712
645.20 0.371
645.30 0.3707
645.40 0.3705
645.50 0.3702
645.60 0.3699
645.70 0.3697
645.80 0.3694
645.90 0.3691
646.00 0.3689
646.10 0.3686
646.20 0.3683
646.30 0.3681
646.40 0.3678
646.50 0.3675
646.60 0.3672
646.70 0.367
646.80 0.3667
646.90 0.3664
647.00 0.3661
647.10 0.3659
647.20 0.3656
647.30 0.3653
647.40 0.365
647.50 0.3647
647.60 0.3644
647.70 0.3641
647.80 0.3638
647.90 0.3635
648.00 0.3633
648.10 0.363
648.20 0.3627
648.30 0.3624
648.40 0.3621
648.50 0.3617
648.60 0.3614
648.70 0.3611
648.80 0.3608
648.90 0.3605
649.00 0.3602
649.10 0.3599
649.20 0.3596
649.30 0.3592
649.40 0.3589
649.50 0.3585
649.60 0.3582
649.70 0.3579
649.80 0.3575
649.90 0.3572
650.00 0.3568
650.10 0.3565
650.20 0.3561
650.30 0.3558
650.40 0.3554
650.50 0.355
650.60 0.3546
650.70 0.3542
650.80 0.3538
650.90 0.3535
651.00 0.3531
651.10 0.3527
651.20 0.3523
651.30 0.3519
651.40 0.3515
651.50 0.351
651.60 0.3506
651.70 0.3501
651.80 0.3497
651.90 0.3492
652.00 0.3488
652.10 0.3483
652.20 0.3479
652.30 0.3474
652.40 0.3469
652.50 0.3464
652.60 0.3459
652.70 0.3454
652.80 0.3448
652.90 0.3443
653.00 0.3438
653.10 0.3433
653.20 0.3428
653.30 0.3422
653.40 0.3416
653.50 0.341
653.60 0.3404
653.70 0.3398
653.80 0.3392
653.90 0.3386
654.00 0.338
654.10 0.3374
654.20 0.3368
654.30 0.3362
654.40 0.3356
654.50 0.3349
654.60 0.3343
654.70 0.3337
654.80 0.333
654.90 0.3324
655.00 0.3318
655.10 0.3312
655.20 0.3306
655.30 0.33
655.40 0.3294
655.50 0.3289
655.60 0.3286
655.70 0.3283
655.80 0.3283
655.90 0.3286
656.00 0.3303
656.10 0.3325
656.20 0.3427
656.30 0.3527
656.40 0.337
656.50 0.3306
656.60 0.3285
656.70 0.3267
656.80 0.3263
656.90 0.326
657.00 0.326
657.10 0.326
657.20 0.3262
657.30 0.3263
657.40 0.3265
657.50 0.3268
657.60 0.327
657.70 0.3272
657.80 0.3275
657.90 0.3277
658.00 0.328
658.10 0.3282
658.20 0.3285
658.30 0.3287
658.40 0.3289
658.50 0.3291
658.60 0.3293
658.70 0.3295
658.80 0.3297
658.90 0.3299
659.00 0.3301
659.10 0.3303
659.20 0.3305
659.30 0.3307
659.40 0.3308
659.50 0.3309
659.60 0.331
659.70 0.3311
659.80 0.3312
659.90 0.3313
660.00 0.3314
660.10 0.3316
660.20 0.3317
660.30 0.3318
660.40 0.3318
660.50 0.3318
660.60 0.3319
660.70 0.3319
660.80 0.3319
660.90 0.3319
661.00 0.332
661.10 0.332
661.20 0.332
661.30 0.3321
661.40 0.332
661.50 0.332
661.60 0.332
661.70 0.3319
661.80 0.3319
661.90 0.3319
662.00 0.3318
662.10 0.3318
662.20 0.3318
662.30 0.3317
662.40 0.3317
662.50 0.3316
662.60 0.3315
662.70 0.3314
662.80 0.3314
662.90 0.3313
663.00 0.3312
663.10 0.3311
663.20 0.3311
663.30 0.331
663.40 0.3309
663.50 0.3308
663.60 0.3307
663.70 0.3306
663.80 0.3304
663.90 0.3303
664.00 0.3302
664.10 0.3301
664.20 0.33
664.30 0.3299
664.40 0.3298
664.50 0.3297
664.60 0.3295
664.70 0.3294
664.80 0.3293
664.90 0.3291
665.00 0.329
665.10 0.3289
665.20 0.3287
665.30 0.3286
665.40 0.3285
665.50 0.3283
665.60 0.3282
665.70 0.328
665.80 0.3279
665.90 0.3278
666.00 0.3276
666.10 0.3275
666.20 0.3273
666.30 0.3272
666.40 0.327
666.50 0.3269
666.60 0.3267
666.70 0.3266
666.80 0.3264
666.90 0.3262
667.00 0.3261
667.10 0.3259
667.20 0.3258
667.30 0.3256
667.40 0.3255
667.50 0.3253
667.60 0.3251
667.70 0.325
667.80 0.3248
667.90 0.3247
668.00 0.3245
668.10 0.3243
668.20 0.3242
668.30 0.324
668.40 0.3238
668.50 0.3237
668.60 0.3235
668.70 0.3233
668.80 0.3232
668.90 0.323
669.00 0.3228
669.10 0.3227
669.20 0.3225
669.30 0.3223
669.40 0.3222
669.50 0.322
669.60 0.3218
669.70 0.3217
669.80 0.3215
669.90 0.3213
670.00 0.3212
670.10 0.321
670.20 0.3208
670.30 0.3206
670.40 0.3205
670.50 0.3203
670.60 0.3201
670.70 0.32
670.80 0.3198
670.90 0.3196
671.00 0.3194
671.10 0.3193
671.20 0.3191
671.30 0.3189
671.40 0.3187
671.50 0.3186
671.60 0.3184
671.70 0.3182
671.80 0.318
671.90 0.3179
672.00 0.3177
672.10 0.3175
672.20 0.3174
672.30 0.3172
672.40 0.317
672.50 0.3168
672.60 0.3167
672.70 0.3165
672.80 0.3163
672.90 0.3161
673.00 0.316
673.10 0.3158
673.20 0.3156
673.30 0.3154
673.40 0.3153
673.50 0.3151
673.60 0.3149
673.70 0.3147
673.80 0.3146
673.90 0.3144
674.00 0.3142
674.10 0.314
674.20 0.3139
674.30 0.3137
674.40 0.3135
674.50 0.3133
674.60 0.3132
674.70 0.313
674.80 0.3128
674.90 0.3126
675.00 0.3125
675.10 0.3123
675.20 0.3121
675.30 0.3119
675.40 0.3118
675.50 0.3116
675.60 0.3114
675.70 0.3112
675.80 0.3111
675.90 0.3109
676.00 0.3107
676.10 0.3106
676.20 0.3104
676.30 0.3102
676.40 0.31
676.50 0.3099
676.60 0.3097
676.70 0.3095
676.80 0.3093
676.90 0.3092
677.00 0.309
677.10 0.3088
677.20 0.3086
677.30 0.3085
677.40 0.3083
677.50 0.3081
677.60 0.3079
677.70 0.3078
677.80 0.3076
677.90 0.3074
678.00 0.3073
678.10 0.3071
678.20 0.3069
678.30 0.3067
678.40 0.3066
678.50 0.3064
678.60 0.3062
678.70 0.306
678.80 0.3059
678.90 0.3057
679.00 0.3055
679.10 0.3054
679.20 0.3052
679.30 0.305
679.40 0.3048
679.50 0.3047
679.60 0.3045
679.70 0.3043
679.80 0.3041
679.90 0.304
680.00 0.3038
680.10 0.3036
680.20 0.3035
680.30 0.3033
680.40 0.3031
680.50 0.3029
680.60 0.3028
680.70 0.3026
680.80 0.3024
680.90 0.3023
681.00 0.3021
681.10 0.3019
681.20 0.3018
681.30 0.3016
681.40 0.3014
681.50 0.3012
681.60 0.3011
681.70 0.3009
681.80 0.3007
681.90 0.3006
682.00 0.3004
682.10 0.3002
682.20 0.3001
682.30 0.2999
682.40 0.2997
682.50 0.2995
682.60 0.2994
682.70 0.2992
682.80 0.299
682.90 0.2989
683.00 0.2987
683.10 0.2985
683.20 0.2984
683.30 0.2982
683.40 0.298
683.50 0.2979
683.60 0.2977
683.70 0.2975
683.80 0.2974
683.90 0.2972
684.00 0.297
684.10 0.2968
684.20 0.2967
684.30 0.2965
684.40 0.2963
684.50 0.2962
684.60 0.296
684.70 0.2958
684.80 0.2957
684.90 0.2955
685.00 0.2953
685.10 0.2952
685.20 0.295
685.30 0.2948
685.40 0.2947
685.50 0.2945
685.60 0.2943
685.70 0.2942
685.80 0.294
685.90 0.2938
686.00 0.2937
686.10 0.2935
686.20 0.2934
686.30 0.2932
686.40 0.293
686.50 0.2929
686.60 0.2927
686.70 0.2925
686.80 0.2924
686.90 0.2922
687.00 0.292
687.10 0.2919
687.20 0.2917
687.30 0.2915
687.40 0.2914
687.50 0.2912
687.60 0.291
687.70 0.2909
687.80 0.2907
687.90 0.2906
688.00 0.2904
688.10 0.2902
688.20 0.2901
688.30 0.2899
688.40 0.2897
688.50 0.2896
688.60 0.2894
688.70 0.2892
688.80 0.2891
688.90 0.2889
689.00 0.2888
689.10 0.2886
689.20 0.2884
689.30 0.2883
689.40 0.2881
689.50 0.2879
689.60 0.2878
689.70 0.2876
689.80 0.2875
689.90 0.2873
690.00 0.2871
690.10 0.287
690.20 0.2868
690.30 0.2867
690.40 0.2865
690.50 0.2863
690.60 0.2862
690.70 0.286
690.80 0.2859
690.90 0.2857
691.00 0.2855
691.10 0.2854
691.20 0.2852
691.30 0.2851
691.40 0.2849
691.50 0.2847
691.60 0.2846
691.70 0.2844
691.80 0.2843
691.90 0.2841
692.00 0.2839
692.10 0.2838
692.20 0.2836
692.30 0.2835
692.40 0.2833
692.50 0.2831
692.60 0.283
692.70 0.2828
692.80 0.2827
692.90 0.2825
693.00 0.2824
693.10 0.2822
693.20 0.282
693.30 0.2819
693.40 0.2817
693.50 0.2816
693.60 0.2814
693.70 0.2812
693.80 0.2811
693.90 0.2809
694.00 0.2808
694.10 0.2806
694.20 0.2805
694.30 0.2803
694.40 0.2801
694.50 0.28
694.60 0.2798
694.70 0.2797
694.80 0.2795
694.90 0.2794
695.00 0.2792
695.10 0.279
695.20 0.2789
695.30 0.2787
695.40 0.2786
695.50 0.2784
695.60 0.2783
695.70 0.2781
695.80 0.278
695.90 0.2778
696.00 0.2776
696.10 0.2775
696.20 0.2773
696.30 0.2772
696.40 0.277
696.50 0.2769
696.60 0.2767
696.70 0.2766
696.80 0.2764
696.90 0.2763
697.00 0.2761
697.10 0.2759
697.20 0.2758
697.30 0.2756
697.40 0.2755
697.50 0.2753
697.60 0.2752
697.70 0.275
697.80 0.2749
697.90 0.2747
698.00 0.2746
698.10 0.2744
698.20 0.2743
698.30 0.2741
698.40 0.274
698.50 0.2738
698.60 0.2736
698.70 0.2735
698.80 0.2733
698.90 0.2732
699.00 0.273
699.10 0.2729
699.20 0.2727
699.30 0.2726
699.40 0.2724
699.50 0.2723
699.60 0.2721
699.70 0.272
699.80 0.2718
699.90 0.2717
700.00 0.2715
700.10 0.2714
700.20 0.2712
700.30 0.2711
700.40 0.2709
700.50 0.2708
700.60 0.2706
700.70 0.2705
700.80 0.2703
700.90 0.2702
701.00 0.27
701.10 0.2699
701.20 0.2697
701.30 0.2696
701.40 0.2694
701.50 0.2693
701.60 0.2691
701.70 0.269
701.80 0.2688
701.90 0.2687
702.00 0.2685
702.10 0.2684
702.20 0.2682
702.30 0.2681
702.40 0.2679
702.50 0.2678
702.60 0.2676
702.70 0.2675
702.80 0.2673
702.90 0.2672
703.00 0.267
703.10 0.2669
703.20 0.2667
703.30 0.2666
703.40 0.2665
703.50 0.2663
703.60 0.2662
703.70 0.266
703.80 0.2659
703.90 0.2657
704.00 0.2656
704.10 0.2654
704.20 0.2653
704.30 0.2651
704.40 0.265
704.50 0.2648
704.60 0.2647
704.70 0.2645
704.80 0.2644
704.90 0.2642
705.00 0.2641
705.10 0.264
705.20 0.2638
705.30 0.2637
705.40 0.2635
705.50 0.2634
705.60 0.2632
705.70 0.2631
705.80 0.2629
705.90 0.2628
706.00 0.2627
706.10 0.2625
706.20 0.2624
706.30 0.2622
706.40 0.2621
706.50 0.2619
706.60 0.2618
706.70 0.2616
706.80 0.2615
706.90 0.2614
707.00 0.2612
707.10 0.2611
707.20 0.2609
707.30 0.2608
707.40 0.2606
707.50 0.2605
707.60 0.2603
707.70 0.2602
707.80 0.2601
707.90 0.2599
708.00 0.2598
708.10 0.2596
708.20 0.2595
708.30 0.2593
708.40 0.2592
708.50 0.2591
708.60 0.2589
708.70 0.2588
708.80 0.2586
708.90 0.2585
709.00 0.2583
709.10 0.2582
709.20 0.2581
709.30 0.2579
709.40 0.2578
709.50 0.2576
709.60 0.2575
709.70 0.2574
709.80 0.2572
709.90 0.2571
710.00 0.2569
710.10 0.2568
710.20 0.2566
710.30 0.2565
710.40 0.2564
710.50 0.2562
710.60 0.2561
710.70 0.2559
710.80 0.2558
710.90 0.2557
711.00 0.2555
711.10 0.2554
711.20 0.2552
711.30 0.2551
711.40 0.255
711.50 0.2548
711.60 0.2547
711.70 0.2546
711.80 0.2544
711.90 0.2543
712.00 0.2541
712.10 0.254
712.20 0.2539
712.30 0.2537
712.40 0.2536
712.50 0.2534
712.60 0.2533
712.70 0.2532
712.80 0.253
712.90 0.2529
713.00 0.2527
713.10 0.2526
713.20 0.2525
713.30 0.2523
713.40 0.2522
713.50 0.2521
713.60 0.2519
713.70 0.2518
713.80 0.2516
713.90 0.2515
714.00 0.2514
714.10 0.2512
714.20 0.2511
714.30 0.251
714.40 0.2508
714.50 0.2507
714.60 0.2505
714.70 0.2504
714.80 0.2503
714.90 0.2501
715.00 0.25
715.10 0.2499
715.20 0.2497
715.30 0.2496
715.40 0.2495
715.50 0.2493
715.60 0.2492
715.70 0.249
715.80 0.2489
715.90 0.2488
716.00 0.2486
716.10 0.2485
716.20 0.2484
716.30 0.2482
716.40 0.2481
716.50 0.248
716.60 0.2478
716.70 0.2477
716.80 0.2476
716.90 0.2474
717.00 0.2473
717.10 0.2472
717.20 0.247
717.30 0.2469
717.40 0.2468
717.50 0.2466
717.60 0.2465
717.70 0.2464
717.80 0.2462
717.90 0.2461
718.00 0.246
718.10 0.2458
718.20 0.2457
718.30 0.2456
718.40 0.2454
718.50 0.2453
718.60 0.2452
718.70 0.245
718.80 0.2449
718.90 0.2448
719.00 0.2446
719.10 0.2445
719.20 0.2444
719.30 0.2442
719.40 0.2441
719.50 0.244
719.60 0.2438
719.70 0.2437
719.80 0.2436
719.90 0.2434
720.00 0.2433
720.10 0.2432
720.20 0.243
720.30 0.2429
720.40 0.2428
720.50 0.2426
720.60 0.2425
720.70 0.2424
720.80 0.2422
720.90 0.2421
721.00 0.242
721.10 0.2419
721.20 0.2417
721.30 0.2416
721.40 0.2415
721.50 0.2413
721.60 0.2412
721.70 0.2411
721.80 0.2409
721.90 0.2408
722.00 0.2407
722.10 0.2406
722.20 0.2404
722.30 0.2403
722.40 0.2402
722.50 0.24
722.60 0.2399
722.70 0.2398
722.80 0.2396
722.90 0.2395
723.00 0.2394
723.10 0.2393
723.20 0.2391
723.30 0.239
723.40 0.2389
723.50 0.2387
723.60 0.2386
723.70 0.2385
723.80 0.2384
723.90 0.2382
724.00 0.2381
724.10 0.238
724.20 0.2378
724.30 0.2377
724.40 0.2376
724.50 0.2375
724.60 0.2373
724.70 0.2372
724.80 0.2371
724.90 0.2369
725.00 0.2368
725.10 0.2367
725.20 0.2366
725.30 0.2364
725.40 0.2363
725.50 0.2362
725.60 0.2361
725.70 0.2359
725.80 0.2358
725.90 0.2357
726.00 0.2356
726.10 0.2354
726.20 0.2353
726.30 0.2352
726.40 0.2351
726.50 0.2349
726.60 0.2348
726.70 0.2347
726.80 0.2345
726.90 0.2344
727.00 0.2343
727.10 0.2342
727.20 0.234
727.30 0.2339
727.40 0.2338
727.50 0.2337
727.60 0.2335
727.70 0.2334
727.80 0.2333
727.90 0.2332
728.00 0.233
728.10 0.2329
728.20 0.2328
728.30 0.2327
728.40 0.2325
728.50 0.2324
728.60 0.2323
728.70 0.2322
728.80 0.232
728.90 0.2319
729.00 0.2318
729.10 0.2317
729.20 0.2315
729.30 0.2314
729.40 0.2313
729.50 0.2312
729.60 0.2311
729.70 0.2309
729.80 0.2308
729.90 0.2307
730.00 0.2306
730.10 0.2304
730.20 0.2303
730.30 0.2302
730.40 0.2301
730.50 0.2299
730.60 0.2298
730.70 0.2297
730.80 0.2296
730.90 0.2295
731.00 0.2293
731.10 0.2292
731.20 0.2291
731.30 0.229
731.40 0.2289
731.50 0.2287
731.60 0.2286
731.70 0.2285
731.80 0.2284
731.90 0.2282
732.00 0.2281
732.10 0.228
732.20 0.2279
732.30 0.2278
732.40 0.2276
732.50 0.2275
732.60 0.2274
732.70 0.2273
732.80 0.2272
732.90 0.227
733.00 0.2269
733.10 0.2268
733.20 0.2267
733.30 0.2266
733.40 0.2264
733.50 0.2263
733.60 0.2262
733.70 0.2261
733.80 0.226
733.90 0.2258
734.00 0.2257
734.10 0.2256
734.20 0.2255
734.30 0.2254
734.40 0.2252
734.50 0.2251
734.60 0.225
734.70 0.2249
734.80 0.2248
734.90 0.2246
735.00 0.2245
735.10 0.2244
735.20 0.2243
735.30 0.2242
735.40 0.2241
735.50 0.2239
735.60 0.2238
735.70 0.2237
735.80 0.2236
735.90 0.2235
736.00 0.2233
736.10 0.2232
736.20 0.2231
736.30 0.223
736.40 0.2229
736.50 0.2227
736.60 0.2226
736.70 0.2225
736.80 0.2224
736.90 0.2223
737.00 0.2222
737.10 0.222
737.20 0.2219
737.30 0.2218
737.40 0.2217
737.50 0.2216
737.60 0.2214
737.70 0.2213
737.80 0.2212
737.90 0.2211
738.00 0.221
738.10 0.2209
738.20 0.2207
738.30 0.2206
738.40 0.2205
738.50 0.2204
738.60 0.2203
738.70 0.2202
738.80 0.22
738.90 0.2199
739.00 0.2198
739.10 0.2197
739.20 0.2196
739.30 0.2195
739.40 0.2193
739.50 0.2192
739.60 0.2191
739.70 0.219
739.80 0.2189
739.90 0.2188
740.00 0.2186
740.10 0.2185
740.20 0.2184
740.30 0.2183
740.40 0.2182
740.50 0.2181
740.60 0.218
740.70 0.2178
740.80 0.2177
740.90 0.2176
741.00 0.2175
741.10 0.2174
741.20 0.2173
741.30 0.2172
741.40 0.217
741.50 0.2169
741.60 0.2168
741.70 0.2167
741.80 0.2166
741.90 0.2165
742.00 0.2164
742.10 0.2163
742.20 0.2161
742.30 0.216
742.40 0.2159
742.50 0.2158
742.60 0.2157
742.70 0.2156
742.80 0.2155
742.90 0.2153
743.00 0.2152
743.10 0.2151
743.20 0.215
743.30 0.2149
743.40 0.2148
743.50 0.2147
743.60 0.2146
743.70 0.2144
743.80 0.2143
743.90 0.2142
744.00 0.2141
744.10 0.214
744.20 0.2139
744.30 0.2138
744.40 0.2137
744.50 0.2136
744.60 0.2134
744.70 0.2133
744.80 0.2132
744.90 0.2131
745.00 0.213
745.10 0.2129
745.20 0.2128
745.30 0.2127
745.40 0.2125
745.50 0.2124
745.60 0.2123
745.70 0.2122
745.80 0.2121
745.90 0.212
746.00 0.2119
746.10 0.2118
746.20 0.2117
746.30 0.2115
746.40 0.2114
746.50 0.2113
746.60 0.2112
746.70 0.2111
746.80 0.211
746.90 0.2109
747.00 0.2108
747.10 0.2107
747.20 0.2106
747.30 0.2104
747.40 0.2103
747.50 0.2102
747.60 0.2101
747.70 0.21
747.80 0.2099
747.90 0.2098
748.00 0.2097
748.10 0.2096
748.20 0.2095
748.30 0.2093
748.40 0.2092
748.50 0.2091
748.60 0.209
748.70 0.2089
748.80 0.2088
748.90 0.2087
749.00 0.2086
749.10 0.2085
749.20 0.2084
749.30 0.2082
749.40 0.2081
749.50 0.208
749.60 0.2079
749.70 0.2078
749.80 0.2077
749.90 0.2076
750.00 0.2075
750.10 0.2074
750.20 0.2073
750.30 0.2072
750.40 0.2071
750.50 0.2069
750.60 0.2068
750.70 0.2067
750.80 0.2066
750.90 0.2065
751.00 0.2064
751.10 0.2063
751.20 0.2062
751.30 0.2061
751.40 0.206
751.50 0.2059
751.60 0.2058
751.70 0.2057
751.80 0.2056
751.90 0.2055
752.00 0.2054
752.10 0.2052
752.20 0.2051
752.30 0.205
752.40 0.2049
752.50 0.2048
752.60 0.2047
752.70 0.2046
752.80 0.2045
752.90 0.2044
753.00 0.2043
753.10 0.2042
753.20 0.2041
753.30 0.204
753.40 0.2039
753.50 0.2038
753.60 0.2037
753.70 0.2036
753.80 0.2035
753.90 0.2033
754.00 0.2032
754.10 0.2031
754.20 0.203
754.30 0.2029
754.40 0.2028
754.50 0.2027
754.60 0.2026
754.70 0.2025
754.80 0.2024
754.90 0.2023
755.00 0.2022
755.10 0.2021
755.20 0.202
755.30 0.2019
755.40 0.2018
755.50 0.2017
755.60 0.2016
755.70 0.2015
755.80 0.2014
755.90 0.2013
756.00 0.2012
756.10 0.201
756.20 0.2009
756.30 0.2008
756.40 0.2007
756.50 0.2006
756.60 0.2005
756.70 0.2004
756.80 0.2003
756.90 0.2002
757.00 0.2001
757.10 0.2
757.20 0.1999
757.30 0.1998
757.40 0.1997
757.50 0.1996
757.60 0.1995
757.70 0.1994
757.80 0.1993
757.90 0.1992
758.00 0.1991
758.10 0.199
758.20 0.1989
758.30 0.1988
758.40 0.1987
758.50 0.1986
758.60 0.1985
758.70 0.1984
758.80 0.1983
758.90 0.1982
759.00 0.1981
759.10 0.1979
759.20 0.1978
759.30 0.1977
759.40 0.1976
759.50 0.1975
759.60 0.1974
759.70 0.1973
759.80 0.1972
759.90 0.1971
760.00 0.197
760.10 0.1969
760.20 0.1968
760.30 0.1967
760.40 0.1966
760.50 0.1965
760.60 0.1964
760.70 0.1963
760.80 0.1962
760.90 0.1961
761.00 0.196
761.10 0.1959
761.20 0.1958
761.30 0.1957
761.40 0.1956
761.50 0.1955
761.60 0.1954
761.70 0.1953
761.80 0.1952
761.90 0.1951
762.00 0.195
762.10 0.1949
762.20 0.1948
762.30 0.1947
762.40 0.1946
762.50 0.1945
762.60 0.1944
762.70 0.1943
762.80 0.1942
762.90 0.1941
763.00 0.194
763.10 0.1939
763.20 0.1938
763.30 0.1937
763.40 0.1936
763.50 0.1935
763.60 0.1934
763.70 0.1933
763.80 0.1933
763.90 0.1932
764.00 0.1931
764.10 0.193
764.20 0.1929
764.30 0.1928
764.40 0.1927
764.50 0.1926
764.60 0.1925
764.70 0.1924
764.80 0.1923
764.90 0.1922
765.00 0.1921
765.10 0.192
765.20 0.1919
765.30 0.1918
765.40 0.1917
765.50 0.1916
765.60 0.1915
765.70 0.1914
765.80 0.1913
765.90 0.1912
766.00 0.1911
766.10 0.191
766.20 0.1909
766.30 0.1908
766.40 0.1907
766.50 0.1906
766.60 0.1905
766.70 0.1904
766.80 0.1903
766.90 0.1902
767.00 0.1901
767.10 0.19
767.20 0.1899
767.30 0.1898
767.40 0.1897
767.50 0.1896
767.60 0.1895
767.70 0.1894
767.80 0.1893
767.90 0.1892
768.00 0.1892
768.10 0.1891
768.20 0.189
768.30 0.1889
768.40 0.1888
768.50 0.1887
768.60 0.1886
768.70 0.1885
768.80 0.1884
768.90 0.1883
769.00 0.1882
769.10 0.1881
769.20 0.188
769.30 0.1879
769.40 0.1878
769.50 0.1877
769.60 0.1876
769.70 0.1875
769.80 0.1874
769.90 0.1873
770.00 0.1872
770.10 0.1871
770.20 0.187
770.30 0.1869
770.40 0.1868
770.50 0.1868
770.60 0.1867
770.70 0.1866
770.80 0.1865
770.90 0.1864
771.00 0.1863
771.10 0.1862
771.20 0.1861
771.30 0.186
771.40 0.1859
771.50 0.1858
771.60 0.1857
771.70 0.1856
771.80 0.1855
771.90 0.1854
772.00 0.1854
772.10 0.1853
772.20 0.1852
772.30 0.1851
772.40 0.185
772.50 0.1849
772.60 0.1848
772.70 0.1847
772.80 0.1846
772.90 0.1845
773.00 0.1844
773.10 0.1843
773.20 0.1842
773.30 0.1841
773.40 0.1841
773.50 0.184
773.60 0.1839
773.70 0.1838
773.80 0.1837
773.90 0.1836
774.00 0.1835
774.10 0.1834
774.20 0.1833
774.30 0.1832
774.40 0.1831
774.50 0.183
774.60 0.1829
774.70 0.1829
774.80 0.1828
774.90 0.1827
775.00 0.1826
775.10 0.1825
775.20 0.1824
775.30 0.1823
775.40 0.1822
775.50 0.1821
775.60 0.182
775.70 0.1819
775.80 0.1818
775.90 0.1817
776.00 0.1817
776.10 0.1816
776.20 0.1815
776.30 0.1814
776.40 0.1813
776.50 0.1812
776.60 0.1811
776.70 0.181
776.80 0.1809
776.90 0.1808
777.00 0.1807
777.10 0.1807
777.20 0.1806
777.30 0.1805
777.40 0.1804
777.50 0.1803
777.60 0.1802
777.70 0.1801
777.80 0.18
777.90 0.1799
778.00 0.1798
778.10 0.1797
778.20 0.1797
778.30 0.1796
778.40 0.1795
778.50 0.1794
778.60 0.1793
778.70 0.1792
778.80 0.1791
778.90 0.179
779.00 0.1789
779.10 0.1788
779.20 0.1787
779.30 0.1787
779.40 0.1786
779.50 0.1785
779.60 0.1784
779.70 0.1783
779.80 0.1782
779.90 0.1781
780.00 0.178
780.10 0.1779
780.20 0.1778
780.30 0.1778
780.40 0.1777
780.50 0.1776
780.60 0.1775
780.70 0.1774
780.80 0.1773
780.90 0.1772
781.00 0.1771
781.10 0.1771
781.20 0.177
781.30 0.1769
781.40 0.1768
781.50 0.1767
781.60 0.1766
781.70 0.1765
781.80 0.1764
781.90 0.1764
782.00 0.1763
782.10 0.1762
782.20 0.1761
782.30 0.176
782.40 0.1759
782.50 0.1758
782.60 0.1757
782.70 0.1757
782.80 0.1756
782.90 0.1755
783.00 0.1754
783.10 0.1753
783.20 0.1752
783.30 0.1751
783.40 0.175
783.50 0.175
783.60 0.1749
783.70 0.1748
783.80 0.1747
783.90 0.1746
784.00 0.1745
784.10 0.1744
784.20 0.1744
784.30 0.1743
784.40 0.1742
784.50 0.1741
784.60 0.174
784.70 0.1739
784.80 0.1738
784.90 0.1737
785.00 0.1737
785.10 0.1736
785.20 0.1735
785.30 0.1734
785.40 0.1733
785.50 0.1732
785.60 0.1731
785.70 0.1731
785.80 0.173
785.90 0.1729
786.00 0.1728
786.10 0.1727
786.20 0.1726
786.30 0.1725
786.40 0.1725
786.50 0.1724
786.60 0.1723
786.70 0.1722
786.80 0.1721
786.90 0.172
787.00 0.1719
787.10 0.1719
787.20 0.1718
787.30 0.1717
787.40 0.1716
787.50 0.1715
787.60 0.1714
787.70 0.1713
787.80 0.1713
787.90 0.1712
788.00 0.1711
788.10 0.171
788.20 0.1709
788.30 0.1708
788.40 0.1707
788.50 0.1707
788.60 0.1706
788.70 0.1705
788.80 0.1704
788.90 0.1703
789.00 0.1702
789.10 0.1701
789.20 0.1701
789.30 0.17
789.40 0.1699
789.50 0.1698
789.60 0.1697
789.70 0.1696
789.80 0.1696
789.90 0.1695
790.00 0.1694
790.10 0.1693
790.20 0.1692
790.30 0.1691
790.40 0.1691
790.50 0.169
790.60 0.1689
790.70 0.1688
790.80 0.1687
790.90 0.1686
791.00 0.1686
791.10 0.1685
791.20 0.1684
791.30 0.1683
791.40 0.1682
791.50 0.1681
791.60 0.1681
791.70 0.168
791.80 0.1679
791.90 0.1678
792.00 0.1677
792.10 0.1677
792.20 0.1676
792.30 0.1675
792.40 0.1674
792.50 0.1673
792.60 0.1672
792.70 0.1672
792.80 0.1671
792.90 0.167
793.00 0.1669
793.10 0.1668
793.20 0.1667
793.30 0.1667
793.40 0.1666
793.50 0.1665
793.60 0.1664
793.70 0.1663
793.80 0.1663
793.90 0.1662
794.00 0.1661
794.10 0.166
794.20 0.1659
794.30 0.1658
794.40 0.1658
794.50 0.1657
794.60 0.1656
794.70 0.1655
794.80 0.1654
794.90 0.1654
795.00 0.1653
795.10 0.1652
795.20 0.1651
795.30 0.165
795.40 0.165
795.50 0.1649
795.60 0.1648
795.70 0.1647
795.80 0.1646
795.90 0.1646
796.00 0.1645
796.10 0.1644
796.20 0.1643
796.30 0.1642
796.40 0.1641
796.50 0.1641
796.60 0.164
796.70 0.1639
796.80 0.1638
796.90 0.1637
797.00 0.1637
797.10 0.1636
797.20 0.1635
797.30 0.1634
797.40 0.1633
797.50 0.1633
797.60 0.1632
797.70 0.1631
797.80 0.163
797.90 0.1629
798.00 0.1629
798.10 0.1628
798.20 0.1627
798.30 0.1626
798.40 0.1625
798.50 0.1625
798.60 0.1624
798.70 0.1623
798.80 0.1622
798.90 0.1621
799.00 0.1621
799.10 0.162
799.20 0.1619
799.30 0.1618
799.40 0.1617
799.50 0.1617
799.60 0.1616
799.70 0.1615
799.80 0.1614
799.90 0.1613
800.00 0.1613
800.10 0.1612
800.20 0.1611
800.30 0.161
800.40 0.161
800.50 0.1609
800.60 0.1608
800.70 0.1607
800.80 0.1606
800.90 0.1606
801.00 0.1605
801.10 0.1604
801.20 0.1603
801.30 0.1603
801.40 0.1602
801.50 0.1601
801.60 0.16
801.70 0.1599
801.80 0.1599
801.90 0.1598
802.00 0.1597
802.10 0.1596
802.20 0.1596
802.30 0.1595
802.40 0.1594
802.50 0.1593
802.60 0.1592
802.70 0.1592
802.80 0.1591
802.90 0.159
803.00 0.1589
803.10 0.1589
803.20 0.1588
803.30 0.1587
803.40 0.1586
803.50 0.1586
803.60 0.1585
803.70 0.1584
803.80 0.1583
803.90 0.1582
804.00 0.1582
804.10 0.1581
804.20 0.158
804.30 0.1579
804.40 0.1579
804.50 0.1578
804.60 0.1577
804.70 0.1576
804.80 0.1576
804.90 0.1575
805.00 0.1574
805.10 0.1573
805.20 0.1572
805.30 0.1572
805.40 0.1571
805.50 0.157
805.60 0.1569
805.70 0.1569
805.80 0.1568
805.90 0.1567
806.00 0.1566
806.10 0.1566
806.20 0.1565
806.30 0.1564
806.40 0.1563
806.50 0.1563
806.60 0.1562
806.70 0.1561
806.80 0.156
806.90 0.156
807.00 0.1559
807.10 0.1558
807.20 0.1557
807.30 0.1557
807.40 0.1556
807.50 0.1555
807.60 0.1554
807.70 0.1554
807.80 0.1553
807.90 0.1552
808.00 0.1551
808.10 0.155
808.20 0.155
808.30 0.1549
808.40 0.1548
808.50 0.1547
808.60 0.1547
808.70 0.1546
808.80 0.1545
808.90 0.1544
809.00 0.1544
809.10 0.1543
809.20 0.1542
809.30 0.1541
809.40 0.1541
809.50 0.154
809.60 0.1539
809.70 0.1538
809.80 0.1538
809.90 0.1537
810.00 0.1536
810.10 0.1535
810.20 0.1535
810.30 0.1534
810.40 0.1533
810.50 0.1533
810.60 0.1532
810.70 0.1531
810.80 0.153
810.90 0.153
811.00 0.1529
811.10 0.1528
811.20 0.1527
811.30 0.1527
811.40 0.1526
811.50 0.1525
811.60 0.1525
811.70 0.1524
811.80 0.1523
811.90 0.1522
812.00 0.1522
812.10 0.1521
812.20 0.152
812.30 0.1519
812.40 0.1519
812.50 0.1518
812.60 0.1517
812.70 0.1517
812.80 0.1516
812.90 0.1515
813.00 0.1514
813.10 0.1514
813.20 0.1513
813.30 0.1512
813.40 0.1511
813.50 0.1511
813.60 0.151
813.70 0.1509
813.80 0.1509
813.90 0.1508
814.00 0.1507
814.10 0.1506
814.20 0.1506
814.30 0.1505
814.40 0.1504
814.50 0.1503
814.60 0.1503
814.70 0.1502
814.80 0.1501
814.90 0.1501
815.00 0.15
815.10 0.1499
815.20 0.1498
815.30 0.1498
815.40 0.1497
815.50 0.1496
815.60 0.1496
815.70 0.1495
815.80 0.1494
815.90 0.1493
816.00 0.1493
816.10 0.1492
816.20 0.1491
816.30 0.1491
816.40 0.149
816.50 0.1489
816.60 0.1488
816.70 0.1488
816.80 0.1487
816.90 0.1486
817.00 0.1486
817.10 0.1485
817.20 0.1484
817.30 0.1483
817.40 0.1483
817.50 0.1482
817.60 0.1481
817.70 0.1481
817.80 0.148
817.90 0.1479
818.00 0.1478
818.10 0.1478
818.20 0.1477
818.30 0.1476
818.40 0.1476
818.50 0.1475
818.60 0.1474
818.70 0.1473
818.80 0.1473
818.90 0.1472
819.00 0.1471
819.10 0.1471
819.20 0.147
819.30 0.1469
819.40 0.1469
819.50 0.1468
819.60 0.1467
819.70 0.1466
819.80 0.1466
819.90 0.1465
820.00 0.1464
820.10 0.1464
820.20 0.1463
820.30 0.1462
820.40 0.1462
820.50 0.1461
820.60 0.146
820.70 0.1459
820.80 0.1459
820.90 0.1458
821.00 0.1457
821.10 0.1457
821.20 0.1456
821.30 0.1455
821.40 0.1455
821.50 0.1454
821.60 0.1453
821.70 0.1453
821.80 0.1452
821.90 0.1451
822.00 0.145
822.10 0.145
822.20 0.1449
822.30 0.1448
822.40 0.1448
822.50 0.1447
822.60 0.1446
822.70 0.1446
822.80 0.1445
822.90 0.1444
823.00 0.1444
823.10 0.1443
823.20 0.1442
823.30 0.1442
823.40 0.1441
823.50 0.144
823.60 0.1439
823.70 0.1439
823.80 0.1438
823.90 0.1437
824.00 0.1437
824.10 0.1436
824.20 0.1435
824.30 0.1435
824.40 0.1434
824.50 0.1433
824.60 0.1433
824.70 0.1432
824.80 0.1431
824.90 0.1431
825.00 0.143
825.10 0.1429
825.20 0.1429
825.30 0.1428
825.40 0.1427
825.50 0.1427
825.60 0.1426
825.70 0.1425
825.80 0.1425
825.90 0.1424
826.00 0.1423
826.10 0.1423
826.20 0.1422
826.30 0.1421
826.40 0.142
826.50 0.142
826.60 0.1419
826.70 0.1418
826.80 0.1418
826.90 0.1417
827.00 0.1416
827.10 0.1416
827.20 0.1415
827.30 0.1414
827.40 0.1414
827.50 0.1413
827.60 0.1412
827.70 0.1412
827.80 0.1411
827.90 0.141
828.00 0.141
828.10 0.1409
828.20 0.1408
828.30 0.1408
828.40 0.1407
828.50 0.1406
828.60 0.1406
828.70 0.1405
828.80 0.1405
828.90 0.1404
829.00 0.1403
829.10 0.1403
829.20 0.1402
829.30 0.1401
829.40 0.1401
829.50 0.14
829.60 0.1399
829.70 0.1399
829.80 0.1398
829.90 0.1397
830.00 0.1397
830.10 0.1396
830.20 0.1395
830.30 0.1395
830.40 0.1394
830.50 0.1393
830.60 0.1393
830.70 0.1392
830.80 0.1391
830.90 0.1391
831.00 0.139
831.10 0.1389
831.20 0.1389
831.30 0.1388
831.40 0.1387
831.50 0.1387
831.60 0.1386
831.70 0.1385
831.80 0.1385
831.90 0.1384
832.00 0.1383
832.10 0.1383
832.20 0.1382
832.30 0.1382
832.40 0.1381
832.50 0.138
832.60 0.138
832.70 0.1379
832.80 0.1378
832.90 0.1378
833.00 0.1377
833.10 0.1376
833.20 0.1376
833.30 0.1375
833.40 0.1374
833.50 0.1374
833.60 0.1373
833.70 0.1373
833.80 0.1372
833.90 0.1371
834.00 0.1371
834.10 0.137
834.20 0.1369
834.30 0.1369
834.40 0.1368
834.50 0.1367
834.60 0.1367
834.70 0.1366
834.80 0.1365
834.90 0.1365
835.00 0.1364
835.10 0.1364
835.20 0.1363
835.30 0.1362
835.40 0.1362
835.50 0.1361
835.60 0.136
835.70 0.136
835.80 0.1359
835.90 0.1358
836.00 0.1358
836.10 0.1357
836.20 0.1357
836.30 0.1356
836.40 0.1355
836.50 0.1355
836.60 0.1354
836.70 0.1353
836.80 0.1353
836.90 0.1352
837.00 0.1351
837.10 0.1351
837.20 0.135
837.30 0.135
837.40 0.1349
837.50 0.1348
837.60 0.1348
837.70 0.1347
837.80 0.1346
837.90 0.1346
838.00 0.1345
838.10 0.1345
838.20 0.1344
838.30 0.1343
838.40 0.1343
838.50 0.1342
838.60 0.1341
838.70 0.1341
838.80 0.134
838.90 0.134
839.00 0.1339
839.10 0.1338
839.20 0.1338
839.30 0.1337
839.40 0.1336
839.50 0.1336
839.60 0.1335
839.70 0.1335
839.80 0.1334
839.90 0.1333
840.00 0.1333
840.10 0.1332
840.20 0.1331
840.30 0.1331
840.40 0.133
840.50 0.133
840.60 0.1329
840.70 0.1328
840.80 0.1328
840.90 0.1327
841.00 0.1326
841.10 0.1326
841.20 0.1325
841.30 0.1325
841.40 0.1324
841.50 0.1323
841.60 0.1323
841.70 0.1322
841.80 0.1322
841.90 0.1321
842.00 0.132
842.10 0.132
842.20 0.1319
842.30 0.1318
842.40 0.1318
842.50 0.1317
842.60 0.1317
842.70 0.1316
842.80 0.1315
842.90 0.1315
843.00 0.1314
843.10 0.1314
843.20 0.1313
843.30 0.1312
843.40 0.1312
843.50 0.1311
843.60 0.1311
843.70 0.131
843.80 0.1309
843.90 0.1309
844.00 0.1308
844.10 0.1308
844.20 0.1307
844.30 0.1306
844.40 0.1306
844.50 0.1305
844.60 0.1304
844.70 0.1304
844.80 0.1303
844.90 0.1303
845.00 0.1302
845.10 0.1301
845.20 0.1301
845.30 0.13
845.40 0.13
845.50 0.1299
845.60 0.1298
845.70 0.1298
845.80 0.1297
845.90 0.1297
846.00 0.1296
846.10 0.1295
846.20 0.1295
846.30 0.1294
846.40 0.1294
846.50 0.1293
846.60 0.1292
846.70 0.1292
846.80 0.1291
846.90 0.1291
847.00 0.129
847.10 0.1289
847.20 0.1289
847.30 0.1288
847.40 0.1288
847.50 0.1287
847.60 0.1286
847.70 0.1286
847.80 0.1285
847.90 0.1285
848.00 0.1284
848.10 0.1284
848.20 0.1283
848.30 0.1282
848.40 0.1282
848.50 0.1281
848.60 0.1281
848.70 0.128
848.80 0.1279
848.90 0.1279
849.00 0.1278
849.10 0.1278
849.20 0.1277
849.30 0.1276
849.40 0.1276
849.50 0.1275
849.60 0.1275
849.70 0.1274
849.80 0.1273
849.90 0.1273
850.00 0.1272
850.10 0.1272
850.20 0.1271
850.30 0.1271
850.40 0.127
850.50 0.1269
850.60 0.1269
850.70 0.1268
850.80 0.1268
850.90 0.1267
851.00 0.1266
851.10 0.1266
851.20 0.1265
851.30 0.1265
851.40 0.1264
851.50 0.1264
851.60 0.1263
851.70 0.1262
851.80 0.1262
851.90 0.1261
852.00 0.1261
852.10 0.126
852.20 0.1259
852.30 0.1259
852.40 0.1258
852.50 0.1258
852.60 0.1257
852.70 0.1257
852.80 0.1256
852.90 0.1255
853.00 0.1255
853.10 0.1254
853.20 0.1254
853.30 0.1253
853.40 0.1253
853.50 0.1252
853.60 0.1251
853.70 0.1251
853.80 0.125
853.90 0.125
854.00 0.1249
854.10 0.1249
854.20 0.1248
854.30 0.1247
854.40 0.1247
854.50 0.1246
854.60 0.1246
854.70 0.1245
854.80 0.1245
854.90 0.1244
855.00 0.1243
855.10 0.1243
855.20 0.1242
855.30 0.1242
855.40 0.1241
855.50 0.1241
855.60 0.124
855.70 0.1239
855.80 0.1239
855.90 0.1238
856.00 0.1238
856.10 0.1237
856.20 0.1237
856.30 0.1236
856.40 0.1235
856.50 0.1235
856.60 0.1234
856.70 0.1234
856.80 0.1233
856.90 0.1233
857.00 0.1232
857.10 0.1231
857.20 0.1231
857.30 0.123
857.40 0.123
857.50 0.1229
857.60 0.1229
857.70 0.1228
857.80 0.1228
857.90 0.1227
858.00 0.1226
858.10 0.1226
858.20 0.1225
858.30 0.1225
858.40 0.1224
858.50 0.1224
858.60 0.1223
858.70 0.1223
858.80 0.1222
858.90 0.1221
859.00 0.1221
859.10 0.122
859.20 0.122
859.30 0.1219
859.40 0.1219
859.50 0.1218
859.60 0.1218
859.70 0.1217
859.80 0.1216
859.90 0.1216
860.00 0.1215
860.10 0.1215
860.20 0.1214
860.30 0.1214
860.40 0.1213
860.50 0.1213
860.60 0.1212
860.70 0.1212
860.80 0.1211
860.90 0.121
861.00 0.121
861.10 0.1209
861.20 0.1209
861.30 0.1208
861.40 0.1208
861.50 0.1207
861.60 0.1207
861.70 0.1206
861.80 0.1205
861.90 0.1205
862.00 0.1204
862.10 0.1204
862.20 0.1203
862.30 0.1203
862.40 0.1202
862.50 0.1202
862.60 0.1201
862.70 0.1201
862.80 0.12
862.90 0.12
863.00 0.1199
863.10 0.1198
863.20 0.1198
863.30 0.1197
863.40 0.1197
863.50 0.1196
863.60 0.1196
863.70 0.1195
863.80 0.1195
863.90 0.1194
864.00 0.1194
864.10 0.1193
864.20 0.1192
864.30 0.1192
864.40 0.1191
864.50 0.1191
864.60 0.119
864.70 0.119
864.80 0.1189
864.90 0.1189
865.00 0.1188
865.10 0.1188
865.20 0.1187
865.30 0.1187
865.40 0.1186
865.50 0.1185
865.60 0.1185
865.70 0.1184
865.80 0.1184
865.90 0.1183
866.00 0.1183
866.10 0.1182
866.20 0.1182
866.30 0.1181
866.40 0.1181
866.50 0.118
866.60 0.118
866.70 0.1179
866.80 0.1178
866.90 0.1178
867.00 0.1177
867.10 0.1177
867.20 0.1176
867.30 0.1176
867.40 0.1175
867.50 0.1175
867.60 0.1174
867.70 0.1174
867.80 0.1173
867.90 0.1173
868.00 0.1172
868.10 0.1172
868.20 0.1171
868.30 0.1171
868.40 0.117
868.50 0.1169
868.60 0.1169
868.70 0.1168
868.80 0.1168
868.90 0.1167
869.00 0.1167
869.10 0.1166
869.20 0.1166
869.30 0.1165
869.40 0.1165
869.50 0.1164
869.60 0.1164
869.70 0.1163
869.80 0.1163
869.90 0.1162
870.00 0.1162
870.10 0.1161
870.20 0.1161
870.30 0.116
870.40 0.116
870.50 0.1159
870.60 0.1158
870.70 0.1158
870.80 0.1157
870.90 0.1157
871.00 0.1156
871.10 0.1156
871.20 0.1155
871.30 0.1155
871.40 0.1154
871.50 0.1154
871.60 0.1153
871.70 0.1153
871.80 0.1152
871.90 0.1152
872.00 0.1151
872.10 0.1151
872.20 0.115
872.30 0.115
872.40 0.1149
872.50 0.1149
872.60 0.1148
872.70 0.1148
872.80 0.1147
872.90 0.1147
873.00 0.1146
873.10 0.1146
873.20 0.1145
873.30 0.1145
873.40 0.1144
873.50 0.1143
873.60 0.1143
873.70 0.1142
873.80 0.1142
873.90 0.1141
874.00 0.1141
874.10 0.114
874.20 0.114
874.30 0.1139
874.40 0.1139
874.50 0.1138
874.60 0.1138
874.70 0.1137
874.80 0.1137
874.90 0.1136
875.00 0.1136
875.10 0.1135
875.20 0.1135
875.30 0.1134
875.40 0.1134
875.50 0.1133
875.60 0.1133
875.70 0.1132
875.80 0.1132
875.90 0.1131
876.00 0.1131
876.10 0.113
876.20 0.113
876.30 0.1129
876.40 0.1129
876.50 0.1128
876.60 0.1128
876.70 0.1127
876.80 0.1127
876.90 0.1126
877.00 0.1126
877.10 0.1125
877.20 0.1125
877.30 0.1124
877.40 0.1124
877.50 0.1123
877.60 0.1123
877.70 0.1122
877.80 0.1122
877.90 0.1121
878.00 0.1121
878.10 0.112
878.20 0.112
878.30 0.1119
878.40 0.1119
878.50 0.1118
878.60 0.1118
878.70 0.1117
878.80 0.1117
878.90 0.1116
879.00 0.1116
879.10 0.1115
879.20 0.1115
879.30 0.1114
879.40 0.1114
879.50 0.1113
879.60 0.1113
879.70 0.1112
879.80 0.1112
879.90 0.1111
880.00 0.1111
880.10 0.111
880.20 0.111
880.30 0.1109
880.40 0.1109
880.50 0.1108
880.60 0.1108
880.70 0.1107
880.80 0.1107
880.90 0.1106
881.00 0.1106
881.10 0.1105
881.20 0.1105
881.30 0.1104
881.40 0.1104
881.50 0.1103
881.60 0.1103
881.70 0.1102
881.80 0.1102
881.90 0.1101
882.00 0.1101
882.10 0.11
882.20 0.11
882.30 0.1099
882.40 0.1099
882.50 0.1098
882.60 0.1098
882.70 0.1097
882.80 0.1097
882.90 0.1097
883.00 0.1096
883.10 0.1096
883.20 0.1095
883.30 0.1095
883.40 0.1094
883.50 0.1094
883.60 0.1093
883.70 0.1093
883.80 0.1092
883.90 0.1092
884.00 0.1091
884.10 0.1091
884.20 0.109
884.30 0.109
884.40 0.1089
884.50 0.1089
884.60 0.1088
884.70 0.1088
884.80 0.1087
884.90 0.1087
885.00 0.1086
885.10 0.1086
885.20 0.1085
885.30 0.1085
885.40 0.1084
885.50 0.1084
885.60 0.1083
885.70 0.1083
885.80 0.1083
885.90 0.1082
886.00 0.1082
886.10 0.1081
886.20 0.1081
886.30 0.108
886.40 0.108
886.50 0.1079
886.60 0.1079
886.70 0.1078
886.80 0.1078
886.90 0.1077
887.00 0.1077
887.10 0.1076
887.20 0.1076
887.30 0.1075
887.40 0.1075
887.50 0.1074
887.60 0.1074
887.70 0.1073
887.80 0.1073
887.90 0.1073
888.00 0.1072
888.10 0.1072
888.20 0.1071
888.30 0.1071
888.40 0.107
888.50 0.107
888.60 0.1069
888.70 0.1069
888.80 0.1068
888.90 0.1068
889.00 0.1067
889.10 0.1067
889.20 0.1066
889.30 0.1066
889.40 0.1065
889.50 0.1065
889.60 0.1065
889.70 0.1064
889.80 0.1064
889.90 0.1063
890.00 0.1063
890.10 0.1062
890.20 0.1062
890.30 0.1061
890.40 0.1061
890.50 0.106
890.60 0.106
890.70 0.1059
890.80 0.1059
890.90 0.1058
891.00 0.1058
891.10 0.1058
891.20 0.1057
891.30 0.1057
891.40 0.1056
891.50 0.1056
891.60 0.1055
891.70 0.1055
891.80 0.1054
891.90 0.1054
892.00 0.1053
892.10 0.1053
892.20 0.1052
892.30 0.1052
892.40 0.1051
892.50 0.1051
892.60 0.1051
892.70 0.105
892.80 0.105
892.90 0.1049
893.00 0.1049
893.10 0.1048
893.20 0.1048
893.30 0.1047
893.40 0.1047
893.50 0.1046
893.60 0.1046
893.70 0.1046
893.80 0.1045
893.90 0.1045
894.00 0.1044
894.10 0.1044
894.20 0.1043
894.30 0.1043
894.40 0.1042
894.50 0.1042
894.60 0.1041
894.70 0.1041
894.80 0.1041
894.90 0.104
895.00 0.104
895.10 0.1039
895.20 0.1039
895.30 0.1038
895.40 0.1038
895.50 0.1037
895.60 0.1037
895.70 0.1036
895.80 0.1036
895.90 0.1036
896.00 0.1035
896.10 0.1035
896.20 0.1034
896.30 0.1034
896.40 0.1033
896.50 0.1033
896.60 0.1032
896.70 0.1032
896.80 0.1031
896.90 0.1031
897.00 0.1031
897.10 0.103
897.20 0.103
897.30 0.1029
897.40 0.1029
897.50 0.1028
897.60 0.1028
897.70 0.1027
897.80 0.1027
897.90 0.1027
898.00 0.1026
898.10 0.1026
898.20 0.1025
898.30 0.1025
898.40 0.1024
898.50 0.1024
898.60 0.1023
898.70 0.1023
898.80 0.1023
898.90 0.1022
899.00 0.1022
899.10 0.1021
899.20 0.1021
899.30 0.102
899.40 0.102
899.50 0.1019
899.60 0.1019
899.70 0.1019
899.80 0.1018
899.90 0.1018
900.00 0.1017
900.10 0.1017
900.20 0.1016
900.30 0.1016
900.40 0.1015
900.50 0.1015
900.60 0.1015
900.70 0.1014
900.80 0.1014
900.90 0.1013
901.00 0.1013
901.10 0.1012
901.20 0.1012
901.30 0.1011
901.40 0.1011
901.50 0.1011
901.60 0.101
901.70 0.101
901.80 0.1009
901.90 0.1009
902.00 0.1008
902.10 0.1008
902.20 0.1008
902.30 0.1007
902.40 0.1007
902.50 0.1006
902.60 0.1006
902.70 0.1005
902.80 0.1005
902.90 0.1004
903.00 0.1004
903.10 0.1004
903.20 0.1003
903.30 0.1003
903.40 0.1002
903.50 0.1002
903.60 0.1001
903.70 0.1001
903.80 0.1001
903.90 0.1
904.00 0.09997
904.10 0.09993
904.20 0.09988
904.30 0.09984
904.40 0.0998
904.50 0.09975
904.60 0.09971
904.70 0.09967
904.80 0.09962
904.90 0.09958
905.00 0.09954
905.10 0.09949
905.20 0.09945
905.30 0.09941
905.40 0.09937
905.50 0.09932
905.60 0.09928
905.70 0.09924
905.80 0.09919
905.90 0.09915
906.00 0.09911
906.10 0.09906
906.20 0.09902
906.30 0.09898
906.40 0.09894
906.50 0.09889
906.60 0.09885
906.70 0.09881
906.80 0.09876
906.90 0.09872
907.00 0.09868
907.10 0.09864
907.20 0.09859
907.30 0.09855
907.40 0.09851
907.50 0.09847
907.60 0.09842
907.70 0.09838
907.80 0.09834
907.90 0.0983
908.00 0.09826
908.10 0.09821
908.20 0.09817
908.30 0.09813
908.40 0.09809
908.50 0.09804
908.60 0.098
908.70 0.09796
908.80 0.09792
908.90 0.09788
909.00 0.09783
909.10 0.09779
909.20 0.09775
909.30 0.09771
909.40 0.09767
909.50 0.09762
909.60 0.09758
909.70 0.09754
909.80 0.0975
909.90 0.09746
910.00 0.09741
910.10 0.09737
910.20 0.09733
910.30 0.09729
910.40 0.09725
910.50 0.0972
910.60 0.09716
910.70 0.09712
910.80 0.09708
910.90 0.09704
911.00 0.097
911.10 0.09695
911.20 0.09691
911.30 0.09687
911.40 0.09683
911.50 0.09679
911.60 0.09675
911.70 0.0967
911.80 0.09666
911.90 0.09662
912.00 0.09658
912.10 0.09654
912.20 0.0965
912.30 0.09645
912.40 0.09641
912.50 0.09637
912.60 0.09633
912.70 0.09629
912.80 0.09625
912.90 0.09621
913.00 0.09617
913.10 0.09613
913.20 0.09609
913.30 0.09604
913.40 0.096
913.50 0.09596
913.60 0.09592
913.70 0.09588
913.80 0.09584
913.90 0.0958
914.00 0.09576
914.10 0.09572
914.20 0.09568
914.30 0.09563
914.40 0.09559
914.50 0.09555
914.60 0.09551
914.70 0.09547
914.80 0.09543
914.90 0.09539
915.00 0.09535
915.10 0.09531
915.20 0.09527
915.30 0.09523
915.40 0.09519
915.50 0.09515
915.60 0.0951
915.70 0.09506
915.80 0.09502
915.90 0.09498
916.00 0.09494
916.10 0.0949
916.20 0.09486
916.30 0.09482
916.40 0.09478
916.50 0.09474
916.60 0.0947
916.70 0.09466
916.80 0.09462
916.90 0.09458
917.00 0.09454
917.10 0.0945
917.20 0.09446
917.30 0.09442
917.40 0.09438
917.50 0.09434
917.60 0.0943
917.70 0.09426
917.80 0.09422
917.90 0.09418
918.00 0.09414
918.10 0.0941
918.20 0.09406
918.30 0.09402
918.40 0.09398
918.50 0.09394
918.60 0.0939
918.70 0.09386
918.80 0.09382
918.90 0.09378
919.00 0.09374
919.10 0.0937
919.20 0.09366
919.30 0.09362
919.40 0.09358
919.50 0.09354
919.60 0.0935
919.70 0.09346
919.80 0.09342
919.90 0.09338
920.00 0.09334
920.10 0.0933
920.20 0.09326
920.30 0.09322
920.40 0.09318
920.50 0.09315
920.60 0.09311
920.70 0.09307
920.80 0.09303
920.90 0.09299
921.00 0.09295
921.10 0.09291
921.20 0.09287
921.30 0.09283
921.40 0.09279
921.50 0.09275
921.60 0.09271
921.70 0.09267
921.80 0.09263
921.90 0.09259
922.00 0.09255
922.10 0.09251
922.20 0.09248
922.30 0.09244
922.40 0.0924
922.50 0.09236
922.60 0.09232
922.70 0.09228
922.80 0.09224
922.90 0.0922
923.00 0.09216
923.10 0.09212
923.20 0.09209
923.30 0.09205
923.40 0.09201
923.50 0.09197
923.60 0.09193
923.70 0.09189
923.80 0.09185
923.90 0.09181
924.00 0.09177
924.10 0.09173
924.20 0.0917
924.30 0.09166
924.40 0.09162
924.50 0.09158
924.60 0.09154
924.70 0.0915
924.80 0.09146
924.90 0.09142
925.00 0.09139
925.10 0.09135
925.20 0.09131
925.30 0.09127
925.40 0.09123
925.50 0.09119
925.60 0.09115
925.70 0.09111
925.80 0.09108
925.90 0.09104
926.00 0.091
926.10 0.09096
926.20 0.09092
926.30 0.09088
926.40 0.09084
926.50 0.09081
926.60 0.09077
926.70 0.09073
926.80 0.09069
926.90 0.09065
927.00 0.09061
927.10 0.09058
927.20 0.09054
927.30 0.0905
927.40 0.09046
927.50 0.09042
927.60 0.09039
927.70 0.09035
927.80 0.09031
927.90 0.09027
928.00 0.09023
928.10 0.0902
928.20 0.09016
928.30 0.09012
928.40 0.09008
928.50 0.09004
928.60 0.09001
928.70 0.08997
928.80 0.08993
928.90 0.08989
929.00 0.08985
929.10 0.08982
929.20 0.08978
929.30 0.08974
929.40 0.0897
929.50 0.08967
929.60 0.08963
929.70 0.08959
929.80 0.08955
929.90 0.08951
930.00 0.08948
930.10 0.08944
930.20 0.0894
930.30 0.08936
930.40 0.08933
930.50 0.08929
930.60 0.08925
930.70 0.08921
930.80 0.08918
930.90 0.08914
931.00 0.0891
931.10 0.08906
931.20 0.08903
931.30 0.08899
931.40 0.08895
931.50 0.08891
931.60 0.08888
931.70 0.08884
931.80 0.0888
931.90 0.08876
932.00 0.08873
932.10 0.08869
932.20 0.08865
932.30 0.08861
932.40 0.08858
932.50 0.08854
932.60 0.0885
932.70 0.08847
932.80 0.08843
932.90 0.08839
933.00 0.08835
933.10 0.08832
933.20 0.08828
933.30 0.08824
933.40 0.08821
933.50 0.08817
933.60 0.08813
933.70 0.0881
933.80 0.08806
933.90 0.08802
934.00 0.08799
934.10 0.08795
934.20 0.08791
934.30 0.08787
934.40 0.08784
934.50 0.0878
934.60 0.08776
934.70 0.08773
934.80 0.08769
934.90 0.08765
935.00 0.08762
935.10 0.08758
935.20 0.08754
935.30 0.08751
935.40 0.08747
935.50 0.08743
935.60 0.0874
935.70 0.08736
935.80 0.08733
935.90 0.08729
936.00 0.08725
936.10 0.08722
936.20 0.08718
936.30 0.08714
936.40 0.08711
936.50 0.08707
936.60 0.08703
936.70 0.087
936.80 0.08696
936.90 0.08692
937.00 0.08689
937.10 0.08685
937.20 0.08682
937.30 0.08678
937.40 0.08674
937.50 0.08671
937.60 0.08667
937.70 0.08663
937.80 0.0866
937.90 0.08656
938.00 0.08653
938.10 0.08649
938.20 0.08645
938.30 0.08642
938.40 0.08638
938.50 0.08635
938.60 0.08631
938.70 0.08627
938.80 0.08624
938.90 0.0862
939.00 0.08617
939.10 0.08613
939.20 0.08609
939.30 0.08606
939.40 0.08602
939.50 0.08599
939.60 0.08595
939.70 0.08592
939.80 0.08588
939.90 0.08584
940.00 0.08581
940.10 0.08577
940.20 0.08574
940.30 0.0857
940.40 0.08567
940.50 0.08563
940.60 0.08559
940.70 0.08556
940.80 0.08552
940.90 0.08549
941.00 0.08545
941.10 0.08542
941.20 0.08538
941.30 0.08535
941.40 0.08531
941.50 0.08528
941.60 0.08524
941.70 0.0852
941.80 0.08517
941.90 0.08513
942.00 0.0851
942.10 0.08506
942.20 0.08503
942.30 0.08499
942.40 0.08496
942.50 0.08492
942.60 0.08489
942.70 0.08485
942.80 0.08482
942.90 0.08478
943.00 0.08475
943.10 0.08471
943.20 0.08468
943.30 0.08464
943.40 0.08461
943.50 0.08457
943.60 0.08454
943.70 0.0845
943.80 0.08447
943.90 0.08443
944.00 0.0844
944.10 0.08436
944.20 0.08433
944.30 0.08429
944.40 0.08426
944.50 0.08422
944.60 0.08419
944.70 0.08415
944.80 0.08412
944.90 0.08408
945.00 0.08405
945.10 0.08401
945.20 0.08398
945.30 0.08394
945.40 0.08391
945.50 0.08387
945.60 0.08384
945.70 0.0838
945.80 0.08377
945.90 0.08374
946.00 0.0837
946.10 0.08367
946.20 0.08363
946.30 0.0836
946.40 0.08356
946.50 0.08353
946.60 0.08349
946.70 0.08346
946.80 0.08342
946.90 0.08339
947.00 0.08336
947.10 0.08332
947.20 0.08329
947.30 0.08325
947.40 0.08322
947.50 0.08318
947.60 0.08315
947.70 0.08312
947.80 0.08308
947.90 0.08305
948.00 0.08301
948.10 0.08298
948.20 0.08294
948.30 0.08291
948.40 0.08288
948.50 0.08284
948.60 0.08281
948.70 0.08277
948.80 0.08274
948.90 0.08271
949.00 0.08267
949.10 0.08264
949.20 0.0826
949.30 0.08257
949.40 0.08254
949.50 0.0825
949.60 0.08247
949.70 0.08244
949.80 0.0824
949.90 0.08237
950.00 0.08233
950.10 0.0823
950.20 0.08227
950.30 0.08223
950.40 0.0822
950.50 0.08217
950.60 0.08213
950.70 0.0821
950.80 0.08207
950.90 0.08203
951.00 0.082
951.10 0.08196
951.20 0.08193
951.30 0.0819
951.40 0.08186
951.50 0.08183
951.60 0.0818
951.70 0.08176
951.80 0.08173
951.90 0.0817
952.00 0.08166
952.10 0.08163
952.20 0.0816
952.30 0.08156
952.40 0.08153
952.50 0.0815
952.60 0.08146
952.70 0.08143
952.80 0.0814
952.90 0.08137
953.00 0.08133
953.10 0.0813
953.20 0.08127
953.30 0.08123
953.40 0.0812
953.50 0.08117
953.60 0.08114
953.70 0.0811
953.80 0.08107
953.90 0.08104
954.00 0.081
954.10 0.08097
954.20 0.08094
954.30 0.08091
954.40 0.08087
954.50 0.08084
954.60 0.08081
954.70 0.08077
954.80 0.08074
954.90 0.08071
955.00 0.08067
955.10 0.08064
955.20 0.08061
955.30 0.08057
955.40 0.08054
955.50 0.08051
955.60 0.08047
955.70 0.08044
955.80 0.08041
955.90 0.08037
956.00 0.08034
956.10 0.08031
956.20 0.08028
956.30 0.08024
956.40 0.08021
956.50 0.08018
956.60 0.08014
956.70 0.08011
956.80 0.08008
956.90 0.08004
957.00 0.08001
957.10 0.07998
957.20 0.07995
957.30 0.07991
957.40 0.07988
957.50 0.07985
957.60 0.07982
957.70 0.07978
957.80 0.07975
957.90 0.07972
958.00 0.07968
958.10 0.07965
958.20 0.07962
958.30 0.07959
958.40 0.07955
958.50 0.07952
958.60 0.07949
958.70 0.07946
958.80 0.07942
958.90 0.07939
959.00 0.07936
959.10 0.07933
959.20 0.07929
959.30 0.07926
959.40 0.07923
959.50 0.0792
959.60 0.07917
959.70 0.07913
959.80 0.0791
959.90 0.07907
960.00 0.07904
960.10 0.079
960.20 0.07897
960.30 0.07894
960.40 0.07891
960.50 0.07888
960.60 0.07884
960.70 0.07881
960.80 0.07878
960.90 0.07875
961.00 0.07871
961.10 0.07868
961.20 0.07865
961.30 0.07862
961.40 0.07859
961.50 0.07855
961.60 0.07852
961.70 0.07849
961.80 0.07846
961.90 0.07843
962.00 0.0784
962.10 0.07836
962.20 0.07833
962.30 0.0783
962.40 0.07827
962.50 0.07824
962.60 0.0782
962.70 0.07817
962.80 0.07814
962.90 0.07811
963.00 0.07808
963.10 0.07805
963.20 0.07801
963.30 0.07798
963.40 0.07795
963.50 0.07792
963.60 0.07789
963.70 0.07786
963.80 0.07783
963.90 0.07779
964.00 0.07776
964.10 0.07773
964.20 0.0777
964.30 0.07767
964.40 0.07764
964.50 0.07761
964.60 0.07757
964.70 0.07754
964.80 0.07751
964.90 0.07748
965.00 0.07745
965.10 0.07742
965.20 0.07739
965.30 0.07735
965.40 0.07732
965.50 0.07729
965.60 0.07726
965.70 0.07723
965.80 0.0772
965.90 0.07717
966.00 0.07714
966.10 0.0771
966.20 0.07707
966.30 0.07704
966.40 0.07701
966.50 0.07698
966.60 0.07695
966.70 0.07692
966.80 0.07689
966.90 0.07686
967.00 0.07682
967.10 0.07679
967.20 0.07676
967.30 0.07673
967.40 0.0767
967.50 0.07667
967.60 0.07664
967.70 0.07661
967.80 0.07658
967.90 0.07655
968.00 0.07652
968.10 0.07648
968.20 0.07645
968.30 0.07642
968.40 0.07639
968.50 0.07636
968.60 0.07633
968.70 0.0763
968.80 0.07627
968.90 0.07624
969.00 0.07621
969.10 0.07618
969.20 0.07615
969.30 0.07611
969.40 0.07608
969.50 0.07605
969.60 0.07602
969.70 0.07599
969.80 0.07596
969.90 0.07593
970.00 0.0759
970.10 0.07587
970.20 0.07584
970.30 0.07581
970.40 0.07578
970.50 0.07575
970.60 0.07572
970.70 0.07569
970.80 0.07566
970.90 0.07563
971.00 0.0756
971.10 0.07556
971.20 0.07553
971.30 0.0755
971.40 0.07547
971.50 0.07544
971.60 0.07541
971.70 0.07538
971.80 0.07535
971.90 0.07532
972.00 0.07529
972.10 0.07526
972.20 0.07523
972.30 0.0752
972.40 0.07517
972.50 0.07514
972.60 0.07511
972.70 0.07508
972.80 0.07505
972.90 0.07502
973.00 0.07499
973.10 0.07496
973.20 0.07493
973.30 0.0749
973.40 0.07487
973.50 0.07484
973.60 0.07481
973.70 0.07478
973.80 0.07475
973.90 0.07472
974.00 0.07469
974.10 0.07466
974.20 0.07463
974.30 0.0746
974.40 0.07457
974.50 0.07454
974.60 0.07451
974.70 0.07448
974.80 0.07445
974.90 0.07442
975.00 0.07439
975.10 0.07436
975.20 0.07433
975.30 0.0743
975.40 0.07427
975.50 0.07424
975.60 0.07421
975.70 0.07418
975.80 0.07415
975.90 0.07412
976.00 0.07409
976.10 0.07406
976.20 0.07403
976.30 0.074
976.40 0.07397
976.50 0.07394
976.60 0.07391
976.70 0.07388
976.80 0.07385
976.90 0.07382
977.00 0.07379
977.10 0.07376
977.20 0.07373
977.30 0.0737
977.40 0.07367
977.50 0.07364
977.60 0.07361
977.70 0.07359
977.80 0.07356
977.90 0.07353
978.00 0.0735
978.10 0.07347
978.20 0.07344
978.30 0.07341
978.40 0.07338
978.50 0.07335
978.60 0.07332
978.70 0.07329
978.80 0.07326
978.90 0.07323
979.00 0.0732
979.10 0.07317
979.20 0.07314
979.30 0.07311
979.40 0.07308
979.50 0.07306
979.60 0.07303
979.70 0.073
979.80 0.07297
979.90 0.07294
980.00 0.07291
980.10 0.07288
980.20 0.07285
980.30 0.07282
980.40 0.07279
980.50 0.07276
980.60 0.07273
980.70 0.0727
980.80 0.07267
980.90 0.07265
981.00 0.07262
981.10 0.07259
981.20 0.07256
981.30 0.07253
981.40 0.0725
981.50 0.07247
981.60 0.07244
981.70 0.07241
981.80 0.07238
981.90 0.07235
982.00 0.07232
982.10 0.0723
982.20 0.07227
982.30 0.07224
982.40 0.07221
982.50 0.07218
982.60 0.07215
982.70 0.07212
982.80 0.07209
982.90 0.07206
983.00 0.07204
983.10 0.07201
983.20 0.07198
983.30 0.07195
983.40 0.07192
983.50 0.07189
983.60 0.07186
983.70 0.07183
983.80 0.0718
983.90 0.07178
984.00 0.07175
984.10 0.07172
984.20 0.07169
984.30 0.07166
984.40 0.07163
984.50 0.0716
984.60 0.07157
984.70 0.07155
984.80 0.07152
984.90 0.07149
985.00 0.07146
985.10 0.07143
985.20 0.0714
985.30 0.07137
985.40 0.07134
985.50 0.07132
985.60 0.07129
985.70 0.07126
985.80 0.07123
985.90 0.0712
986.00 0.07117
986.10 0.07114
986.20 0.07112
986.30 0.07109
986.40 0.07106
986.50 0.07103
986.60 0.071
986.70 0.07097
986.80 0.07095
986.90 0.07092
987.00 0.07089
987.10 0.07086
987.20 0.07083
987.30 0.0708
987.40 0.07077
987.50 0.07075
987.60 0.07072
987.70 0.07069
987.80 0.07066
987.90 0.07063
988.00 0.0706
988.10 0.07058
988.20 0.07055
988.30 0.07052
988.40 0.07049
988.50 0.07046
988.60 0.07043
988.70 0.07041
988.80 0.07038
988.90 0.07035
989.00 0.07032
989.10 0.07029
989.20 0.07027
989.30 0.07024
989.40 0.07021
989.50 0.07018
989.60 0.07015
989.70 0.07013
989.80 0.0701
989.90 0.07007
990.00 0.07004
990.10 0.07001
990.20 0.06998
990.30 0.06996
990.40 0.06993
990.50 0.0699
990.60 0.06987
990.70 0.06984
990.80 0.06982
990.90 0.06979
991.00 0.06976
991.10 0.06973
991.20 0.06971
991.30 0.06968
991.40 0.06965
991.50 0.06962
991.60 0.06959
991.70 0.06957
991.80 0.06954
991.90 0.06951
992.00 0.06948
992.10 0.06945
992.20 0.06943
992.30 0.0694
992.40 0.06937
992.50 0.06934
992.60 0.06932
992.70 0.06929
992.80 0.06926
992.90 0.06923
993.00 0.06921
993.10 0.06918
993.20 0.06915
993.30 0.06912
993.40 0.06909
993.50 0.06907
993.60 0.06904
993.70 0.06901
993.80 0.06898
993.90 0.06896
994.00 0.06893
994.10 0.0689
994.20 0.06887
994.30 0.06885
994.40 0.06882
994.50 0.06879
994.60 0.06876
994.70 0.06874
994.80 0.06871
994.90 0.06868
995.00 0.06865
995.10 0.06863
995.20 0.0686
995.30 0.06857
995.40 0.06855
995.50 0.06852
995.60 0.06849
995.70 0.06846
995.80 0.06844
995.90 0.06841
996.00 0.06838
996.10 0.06835
996.20 0.06833
996.30 0.0683
996.40 0.06827
996.50 0.06825
996.60 0.06822
996.70 0.06819
996.80 0.06816
996.90 0.06814
997.00 0.06811
997.10 0.06808
997.20 0.06806
997.30 0.06803
997.40 0.068
997.50 0.06798
997.60 0.06795
997.70 0.06792
997.80 0.0679
997.90 0.06787
998.00 0.06784
998.10 0.06782
998.20 0.06779
998.30 0.06776
998.40 0.06774
998.50 0.06771
998.60 0.06768
998.70 0.06766
998.80 0.06763
998.90 0.0676
999.00 0.06758
999.10 0.06755
999.20 0.06752
999.30 0.0675
999.40 0.06747
999.50 0.06744
999.60 0.06742
999.70 0.06739
999.80 0.06736
999.90 0.06733
1000.00 0.0673
1000.10 0.06727
1000.20 0.06725
1000.30 0.06722
1000.40 0.06719
1000.50 0.06716
1000.60 0.06713
1000.70 0.0671
1000.80 0.06708
1000.90 0.06705
1001.00 0.06702
1001.10 0.06699
1001.20 0.06696
1001.30 0.06693
1001.40 0.06691
1001.50 0.06688
1001.60 0.06685
1001.70 0.06682
1001.80 0.0668
1001.90 0.06677
1002.00 0.06675
1002.10 0.06672
1002.20 0.0667
1002.30 0.06667
1002.40 0.06665
1002.50 0.06662
1002.60 0.0666
1002.70 0.06657
1002.80 0.06655
1002.90 0.06652
1003.00 0.0665
1003.10 0.06647
1003.20 0.06645
1003.30 0.06642
1003.40 0.0664
1003.50 0.06637
1003.60 0.06635
1003.70 0.06632
1003.80 0.0663
1003.90 0.06627
1004.00 0.06625
1004.10 0.06622
1004.20 0.0662
1004.30 0.06617
1004.40 0.06615
1004.50 0.06612
1004.60 0.0661
1004.70 0.06607
1004.80 0.06605
1004.90 0.06602
1005.00 0.066
1005.10 0.06597
1005.20 0.06594
1005.30 0.06592
1005.40 0.06589
1005.50 0.06587
1005.60 0.06584
1005.70 0.06581
1005.80 0.06579
1005.90 0.06576
1006.00 0.06574
1006.10 0.06571
1006.20 0.06568
1006.30 0.06566
1006.40 0.06563
1006.50 0.0656
1006.60 0.06558
1006.70 0.06555
1006.80 0.06552
1006.90 0.0655
1007.00 0.06547
1007.10 0.06544
1007.20 0.06542
1007.30 0.06539
1007.40 0.06537
1007.50 0.06534
1007.60 0.06531
1007.70 0.06529
1007.80 0.06526
1007.90 0.06524
1008.00 0.06521
1008.10 0.06519
1008.20 0.06516
1008.30 0.06514
1008.40 0.06511
1008.50 0.06508
1008.60 0.06506
1008.70 0.06503
1008.80 0.06501
1008.90 0.06498
1009.00 0.06496
1009.10 0.06493
1009.20 0.06491
1009.30 0.06488
1009.40 0.06486
1009.50 0.06483
1009.60 0.06481
1009.70 0.06478
1009.80 0.06476
1009.90 0.06473
1010.00 0.06471
1010.10 0.06468
1010.20 0.06466
1010.30 0.06463
1010.40 0.06461
1010.50 0.06458
1010.60 0.06456
1010.70 0.06453
1010.80 0.06451
1010.90 0.06448
1011.00 0.06446
1011.10 0.06443
1011.20 0.06441
1011.30 0.06438
1011.40 0.06436
1011.50 0.06433
1011.60 0.06431
1011.70 0.06428
1011.80 0.06426
1011.90 0.06424
1012.00 0.06421
1012.10 0.06419
1012.20 0.06416
1012.30 0.06414
1012.40 0.06411
1012.50 0.06409
1012.60 0.06406
1012.70 0.06404
1012.80 0.06402
1012.90 0.06399
1013.00 0.06397
1013.10 0.06394
1013.20 0.06392
1013.30 0.06389
1013.40 0.06387
1013.50 0.06385
1013.60 0.06382
1013.70 0.0638
1013.80 0.06377
1013.90 0.06375
1014.00 0.06372
1014.10 0.0637
1014.20 0.06368
1014.30 0.06365
1014.40 0.06363
1014.50 0.0636
1014.60 0.06358
1014.70 0.06356
1014.80 0.06353
1014.90 0.06351
1015.00 0.06348
1015.10 0.06346
1015.20 0.06344
1015.30 0.06341
1015.40 0.06339
1015.50 0.06336
1015.60 0.06334
1015.70 0.06332
1015.80 0.06329
1015.90 0.06327
1016.00 0.06324
1016.10 0.06322
1016.20 0.0632
1016.30 0.06317
1016.40 0.06315
1016.50 0.06313
1016.60 0.0631
1016.70 0.06308
1016.80 0.06305
1016.90 0.06303
1017.00 0.06301
1017.10 0.06298
1017.20 0.06296
1017.30 0.06293
1017.40 0.06291
1017.50 0.06289
1017.60 0.06286
1017.70 0.06284
1017.80 0.06282
1017.90 0.06279
1018.00 0.06277
1018.10 0.06275
1018.20 0.06272
1018.30 0.0627
1018.40 0.06267
1018.50 0.06265
1018.60 0.06263
1018.70 0.0626
1018.80 0.06258
1018.90 0.06256
1019.00 0.06253
1019.10 0.06251
1019.20 0.06249
1019.30 0.06246
1019.40 0.06244
1019.50 0.06242
1019.60 0.06239
1019.70 0.06237
1019.80 0.06234
1019.90 0.06232
1020.00 0.0623
1020.10 0.06227
1020.20 0.06225
1020.30 0.06223
1020.40 0.0622
1020.50 0.06218
1020.60 0.06216
1020.70 0.06213
1020.80 0.06211
1020.90 0.06209
1021.00 0.06206
1021.10 0.06204
1021.20 0.06202
1021.30 0.06199
1021.40 0.06197
1021.50 0.06195
1021.60 0.06192
1021.70 0.0619
1021.80 0.06188
1021.90 0.06185
1022.00 0.06183
1022.10 0.06181
1022.20 0.06178
1022.30 0.06176
1022.40 0.06174
1022.50 0.06171
1022.60 0.06169
1022.70 0.06167
1022.80 0.06164
1022.90 0.06162
1023.00 0.0616
1023.10 0.06157
1023.20 0.06155
1023.30 0.06153
1023.40 0.06151
1023.50 0.06148
1023.60 0.06146
1023.70 0.06144
1023.80 0.06141
1023.90 0.06139
1024.00 0.06137
1024.10 0.06134
1024.20 0.06132
1024.30 0.0613
1024.40 0.06127
1024.50 0.06125
1024.60 0.06123
1024.70 0.0612
1024.80 0.06118
1024.90 0.06116
1025.00 0.06114
1025.10 0.06111
1025.20 0.06109
1025.30 0.06107
1025.40 0.06104
1025.50 0.06102
1025.60 0.061
1025.70 0.06098
1025.80 0.06095
1025.90 0.06093
1026.00 0.06091
1026.10 0.06088
1026.20 0.06086
1026.30 0.06084
1026.40 0.06081
1026.50 0.06079
1026.60 0.06077
1026.70 0.06075
1026.80 0.06072
1026.90 0.0607
1027.00 0.06068
1027.10 0.06065
1027.20 0.06063
1027.30 0.06061
1027.40 0.06059
1027.50 0.06056
1027.60 0.06054
1027.70 0.06052
1027.80 0.0605
1027.90 0.06047
1028.00 0.06045
1028.10 0.06043
1028.20 0.0604
1028.30 0.06038
1028.40 0.06036
1028.50 0.06034
1028.60 0.06031
1028.70 0.06029
1028.80 0.06027
1028.90 0.06025
1029.00 0.06022
1029.10 0.0602
1029.20 0.06018
1029.30 0.06016
1029.40 0.06013
1029.50 0.06011
1029.60 0.06009
1029.70 0.06006
1029.80 0.06004
1029.90 0.06002
1030.00 0.06
1030.10 0.05997
1030.20 0.05995
1030.30 0.05993
1030.40 0.05991
1030.50 0.05988
1030.60 0.05986
1030.70 0.05984
1030.80 0.05982
1030.90 0.05979
1031.00 0.05977
1031.10 0.05975
1031.20 0.05973
1031.30 0.0597
1031.40 0.05968
1031.50 0.05966
1031.60 0.05964
1031.70 0.05961
1031.80 0.05959
1031.90 0.05957
1032.00 0.05955
1032.10 0.05952
1032.20 0.0595
1032.30 0.05948
1032.40 0.05946
1032.50 0.05944
1032.60 0.05941
1032.70 0.05939
1032.80 0.05937
1032.90 0.05935
1033.00 0.05932
1033.10 0.0593
1033.20 0.05928
1033.30 0.05926
1033.40 0.05923
1033.50 0.05921
1033.60 0.05919
1033.70 0.05917
1033.80 0.05915
1033.90 0.05912
1034.00 0.0591
1034.10 0.05908
1034.20 0.05906
1034.30 0.05903
1034.40 0.05901
1034.50 0.05899
1034.60 0.05897
1034.70 0.05895
1034.80 0.05892
1034.90 0.0589
1035.00 0.05888
1035.10 0.05886
1035.20 0.05884
1035.30 0.05881
1035.40 0.05879
1035.50 0.05877
1035.60 0.05875
1035.70 0.05872
1035.80 0.0587
1035.90 0.05868
1036.00 0.05866
1036.10 0.05864
1036.20 0.05861
1036.30 0.05859
1036.40 0.05857
1036.50 0.05855
1036.60 0.05853
1036.70 0.0585
1036.80 0.05848
1036.90 0.05846
1037.00 0.05844
1037.10 0.05842
1037.20 0.05839
1037.30 0.05837
1037.40 0.05835
1037.50 0.05833
1037.60 0.05831
1037.70 0.05828
1037.80 0.05826
1037.90 0.05824
1038.00 0.05822
1038.10 0.0582
1038.20 0.05818
1038.30 0.05815
1038.40 0.05813
1038.50 0.05811
1038.60 0.05809
1038.70 0.05807
1038.80 0.05804
1038.90 0.05802
1039.00 0.058
1039.10 0.05798
1039.20 0.05796
1039.30 0.05794
1039.40 0.05791
1039.50 0.05789
1039.60 0.05787
1039.70 0.05785
1039.80 0.05783
1039.90 0.05781
1040.00 0.05778
1040.10 0.05776
1040.20 0.05774
1040.30 0.05772
1040.40 0.0577
1040.50 0.05768
1040.60 0.05765
1040.70 0.05763
1040.80 0.05761
1040.90 0.05759
1041.00 0.05757
1041.10 0.05755
1041.20 0.05752
1041.30 0.0575
1041.40 0.05748
1041.50 0.05746
1041.60 0.05744
1041.70 0.05742
1041.80 0.05739
1041.90 0.05737
1042.00 0.05735
1042.10 0.05733
1042.20 0.05731
1042.30 0.05729
1042.40 0.05727
1042.50 0.05724
1042.60 0.05722
1042.70 0.0572
1042.80 0.05718
1042.90 0.05716
1043.00 0.05714
1043.10 0.05711
1043.20 0.05709
1043.30 0.05707
1043.40 0.05705
1043.50 0.05703
1043.60 0.05701
1043.70 0.05699
1043.80 0.05697
1043.90 0.05694
1044.00 0.05692
1044.10 0.0569
1044.20 0.05688
1044.30 0.05686
1044.40 0.05684
1044.50 0.05682
1044.60 0.05679
1044.70 0.05677
1044.80 0.05675
1044.90 0.05673
1045.00 0.05671
1045.10 0.05669
1045.20 0.05667
1045.30 0.05665
1045.40 0.05662
1045.50 0.0566
1045.60 0.05658
1045.70 0.05656
1045.80 0.05654
1045.90 0.05652
1046.00 0.0565
1046.10 0.05648
1046.20 0.05645
1046.30 0.05643
1046.40 0.05641
1046.50 0.05639
1046.60 0.05637
1046.70 0.05635
1046.80 0.05633
1046.90 0.05631
1047.00 0.05629
1047.10 0.05626
1047.20 0.05624
1047.30 0.05622
1047.40 0.0562
1047.50 0.05618
1047.60 0.05616
1047.70 0.05614
1047.80 0.05612
1047.90 0.0561
1048.00 0.05607
1048.10 0.05605
1048.20 0.05603
1048.30 0.05601
1048.40 0.05599
1048.50 0.05597
1048.60 0.05595
1048.70 0.05593
1048.80 0.05591
1048.90 0.05589
1049.00 0.05587
1049.10 0.05584
1049.20 0.05582
1049.30 0.0558
1049.40 0.05578
1049.50 0.05576
1049.60 0.05574
1049.70 0.05572
1049.80 0.0557
1049.90 0.05568
1050.00 0.05566
1050.10 0.05564
1050.20 0.05561
1050.30 0.05559
1050.40 0.05557
1050.50 0.05555
1050.60 0.05553
1050.70 0.05551
1050.80 0.05549
1050.90 0.05547
1051.00 0.05545
1051.10 0.05543
1051.20 0.05541
1051.30 0.05539
1051.40 0.05536
1051.50 0.05534
1051.60 0.05532
1051.70 0.0553
1051.80 0.05528
1051.90 0.05526
1052.00 0.05524
1052.10 0.05522
1052.20 0.0552
1052.30 0.05518
1052.40 0.05516
1052.50 0.05514
1052.60 0.05512
1052.70 0.0551
1052.80 0.05508
1052.90 0.05505
1053.00 0.05503
1053.10 0.05501
1053.20 0.05499
1053.30 0.05497
1053.40 0.05495
1053.50 0.05493
1053.60 0.05491
1053.70 0.05489
1053.80 0.05487
1053.90 0.05485
1054.00 0.05483
1054.10 0.05481
1054.20 0.05479
1054.30 0.05477
1054.40 0.05475
1054.50 0.05473
1054.60 0.05471
1054.70 0.05468
1054.80 0.05466
1054.90 0.05464
1055.00 0.05462
1055.10 0.0546
1055.20 0.05458
1055.30 0.05456
1055.40 0.05454
1055.50 0.05452
1055.60 0.0545
1055.70 0.05448
1055.80 0.05446
1055.90 0.05444
1056.00 0.05442
1056.10 0.0544
1056.20 0.05438
1056.30 0.05436
1056.40 0.05434
1056.50 0.05432
1056.60 0.0543
1056.70 0.05428
1056.80 0.05426
1056.90 0.05424
1057.00 0.05422
1057.10 0.05419
1057.20 0.05417
1057.30 0.05415
1057.40 0.05413
1057.50 0.05411
1057.60 0.05409
1057.70 0.05407
1057.80 0.05405
1057.90 0.05403
1058.00 0.05401
1058.10 0.05399
1058.20 0.05397
1058.30 0.05395
1058.40 0.05393
1058.50 0.05391
1058.60 0.05389
1058.70 0.05387
1058.80 0.05385
1058.90 0.05383
1059.00 0.05381
1059.10 0.05379
1059.20 0.05377
1059.30 0.05375
1059.40 0.05373
1059.50 0.05371
1059.60 0.05369
1059.70 0.05367
1059.80 0.05365
1059.90 0.05363
1060.00 0.05361
1060.10 0.05359
1060.20 0.05357
1060.30 0.05355
1060.40 0.05353
1060.50 0.05351
1060.60 0.05349
1060.70 0.05347
1060.80 0.05345
1060.90 0.05343
1061.00 0.05341
1061.10 0.05339
1061.20 0.05337
1061.30 0.05335
1061.40 0.05333
1061.50 0.05331
1061.60 0.05329
1061.70 0.05327
1061.80 0.05325
1061.90 0.05323
1062.00 0.05321
1062.10 0.05319
1062.20 0.05317
1062.30 0.05315
1062.40 0.05313
1062.50 0.05311
1062.60 0.05309
1062.70 0.05307
1062.80 0.05305
1062.90 0.05303
1063.00 0.05301
1063.10 0.05299
1063.20 0.05297
1063.30 0.05295
1063.40 0.05293
1063.50 0.05291
1063.60 0.05289
1063.70 0.05287
1063.80 0.05285
1063.90 0.05283
1064.00 0.05281
1064.10 0.05279
1064.20 0.05277
1064.30 0.05275
1064.40 0.05273
1064.50 0.05271
1064.60 0.05269
1064.70 0.05267
1064.80 0.05265
1064.90 0.05263
1065.00 0.05261
1065.10 0.05259
1065.20 0.05257
1065.30 0.05255
1065.40 0.05253
1065.50 0.05251
1065.60 0.05249
1065.70 0.05247
1065.80 0.05245
1065.90 0.05244
1066.00 0.05242
1066.10 0.0524
1066.20 0.05238
1066.30 0.05236
1066.40 0.05234
1066.50 0.05232
1066.60 0.0523
1066.70 0.05228
1066.80 0.05226
1066.90 0.05224
1067.00 0.05222
1067.10 0.0522
1067.20 0.05218
1067.30 0.05216
1067.40 0.05214
1067.50 0.05212
1067.60 0.0521
1067.70 0.05208
1067.80 0.05206
1067.90 0.05204
1068.00 0.05202
1068.10 0.052
1068.20 0.05198
1068.30 0.05196
1068.40 0.05194
1068.50 0.05192
1068.60 0.05191
1068.70 0.05189
1068.80 0.05187
1068.90 0.05185
1069.00 0.05183
1069.10 0.05181
1069.20 0.05179
1069.30 0.05177
1069.40 0.05175
1069.50 0.05173
1069.60 0.05171
1069.70 0.05169
1069.80 0.05167
1069.90 0.05165
1070.00 0.05163
1070.10 0.05161
1070.20 0.05159
1070.30 0.05157
1070.40 0.05155
1070.50 0.05153
1070.60 0.05152
1070.70 0.0515
1070.80 0.05148
1070.90 0.05146
1071.00 0.05144
1071.10 0.05142
1071.20 0.0514
1071.30 0.05138
1071.40 0.05136
1071.50 0.05134
1071.60 0.05132
1071.70 0.0513
1071.80 0.05128
1071.90 0.05126
1072.00 0.05124
1072.10 0.05122
1072.20 0.05121
1072.30 0.05119
1072.40 0.05117
1072.50 0.05115
1072.60 0.05113
1072.70 0.05111
1072.80 0.05109
1072.90 0.05107
1073.00 0.05105
1073.10 0.05103
1073.20 0.05101
1073.30 0.05099
1073.40 0.05097
1073.50 0.05095
1073.60 0.05093
1073.70 0.05092
1073.80 0.0509
1073.90 0.05088
1074.00 0.05086
1074.10 0.05084
1074.20 0.05082
1074.30 0.0508
1074.40 0.05078
1074.50 0.05076
1074.60 0.05074
1074.70 0.05072
1074.80 0.0507
1074.90 0.05068
1075.00 0.05066
1075.10 0.05065
1075.20 0.05063
1075.30 0.05061
1075.40 0.05059
1075.50 0.05057
1075.60 0.05055
1075.70 0.05053
1075.80 0.05051
1075.90 0.05049
1076.00 0.05047
1076.10 0.05045
1076.20 0.05043
1076.30 0.05042
1076.40 0.0504
1076.50 0.05038
1076.60 0.05036
1076.70 0.05034
1076.80 0.05032
1076.90 0.0503
1077.00 0.05028
1077.10 0.05026
1077.20 0.05024
1077.30 0.05022
1077.40 0.05021
1077.50 0.05019
1077.60 0.05017
1077.70 0.05015
1077.80 0.05013
1077.90 0.05011
1078.00 0.05009
1078.10 0.05007
1078.20 0.05005
1078.30 0.05003
1078.40 0.05001
1078.50 0.05
1078.60 0.04998
1078.70 0.04996
1078.80 0.04994
1078.90 0.04992
1079.00 0.0499
1079.10 0.04988
1079.20 0.04986
1079.30 0.04984
1079.40 0.04982
1079.50 0.04981
1079.60 0.04979
1079.70 0.04977
1079.80 0.04975
1079.90 0.04973
1080.00 0.04971
1080.10 0.04969
1080.20 0.04967
1080.30 0.04965
1080.40 0.04963
1080.50 0.04962
1080.60 0.0496
1080.70 0.04958
1080.80 0.04956
1080.90 0.04954
1081.00 0.04952
1081.10 0.0495
1081.20 0.04948
1081.30 0.04946
1081.40 0.04945
1081.50 0.04943
1081.60 0.04941
1081.70 0.04939
1081.80 0.04937
1081.90 0.04935
1082.00 0.04933
1082.10 0.04931
1082.20 0.04929
1082.30 0.04928
1082.40 0.04926
1082.50 0.04924
1082.60 0.04922
1082.70 0.0492
1082.80 0.04918
1082.90 0.04916
1083.00 0.04914
1083.10 0.04913
1083.20 0.04911
1083.30 0.04909
1083.40 0.04907
1083.50 0.04905
1083.60 0.04903
1083.70 0.04901
1083.80 0.04899
1083.90 0.04898
1084.00 0.04896
1084.10 0.04894
1084.20 0.04892
1084.30 0.0489
1084.40 0.04888
1084.50 0.04886
1084.60 0.04885
1084.70 0.04883
1084.80 0.04881
1084.90 0.04879
1085.00 0.04877
1085.10 0.04875
1085.20 0.04873
1085.30 0.04872
1085.40 0.0487
1085.50 0.04868
1085.60 0.04866
1085.70 0.04864
1085.80 0.04862
1085.90 0.04861
1086.00 0.04859
1086.10 0.04857
1086.20 0.04855
1086.30 0.04853
1086.40 0.04851
1086.50 0.0485
1086.60 0.04848
1086.70 0.04846
1086.80 0.04844
1086.90 0.04842
1087.00 0.0484
1087.10 0.04839
1087.20 0.04837
1087.30 0.04835
1087.40 0.04833
1087.50 0.04831
1087.60 0.04829
1087.70 0.04828
1087.80 0.04826
1087.90 0.04824
1088.00 0.04822
1088.10 0.0482
1088.20 0.04819
1088.30 0.04817
1088.40 0.04815
1088.50 0.04813
1088.60 0.04811
1088.70 0.0481
1088.80 0.04808
1088.90 0.04806
1089.00 0.04804
1089.10 0.04803
1089.20 0.04801
1089.30 0.04799
1089.40 0.04797
1089.50 0.04795
1089.60 0.04794
1089.70 0.04792
1089.80 0.0479
1089.90 0.04788
1090.00 0.04787
1090.10 0.04785
1090.20 0.04783
1090.30 0.04781
1090.40 0.0478
1090.50 0.04778
1090.60 0.04776
1090.70 0.04774
1090.80 0.04773
1090.90 0.04771
1091.00 0.04769
1091.10 0.04767
1091.20 0.04766
1091.30 0.04764
1091.40 0.04762
1091.50 0.0476
1091.60 0.04759
1091.70 0.04757
1091.80 0.04755
1091.90 0.04754
1092.00 0.04752
1092.10 0.0475
1092.20 0.04749
1092.30 0.04747
1092.40 0.04745
1092.50 0.04743
1092.60 0.04742
1092.70 0.0474
1092.80 0.04739
1092.90 0.04737
1093.00 0.04735
1093.10 0.04734
1093.20 0.04732
1093.30 0.04731
1093.40 0.0473
1093.50 0.04729
1093.60 0.04728
1093.70 0.04727
1093.80 0.04725
1093.90 0.04724
1094.00 0.04722
1094.10 0.04719
1094.20 0.04717
1094.30 0.04715
1094.40 0.04713
1094.50 0.04711
1094.60 0.04709
1094.70 0.04708
1094.80 0.04706
1094.90 0.04704
1095.00 0.04702
1095.10 0.047
1095.20 0.04699
1095.30 0.04697
1095.40 0.04695
1095.50 0.04694
1095.60 0.04692
1095.70 0.0469
1095.80 0.04689
1095.90 0.04687
1096.00 0.04685
1096.10 0.04684
1096.20 0.04682
1096.30 0.0468
1096.40 0.04679
1096.50 0.04677
1096.60 0.04675
1096.70 0.04674
1096.80 0.04672
1096.90 0.04671
1097.00 0.04669
1097.10 0.04667
1097.20 0.04666
1097.30 0.04664
1097.40 0.04662
1097.50 0.04661
1097.60 0.04659
1097.70 0.04658
1097.80 0.04656
1097.90 0.04654
1098.00 0.04653
1098.10 0.04651
1098.20 0.0465
1098.30 0.04648
1098.40 0.04646
1098.50 0.04645
1098.60 0.04643
1098.70 0.04642
1098.80 0.0464
1098.90 0.04638
1099.00 0.04637
1099.10 0.04635
1099.20 0.04634
1099.30 0.04632
1099.40 0.04631
1099.50 0.04629
1099.60 0.04627
1099.70 0.04626
1099.80 0.04624
1099.90 0.04623
1100.00 0.04621
1100.10 0.0462
1100.20 0.04618
1100.30 0.04616
1100.40 0.04615
1100.50 0.04613
1100.60 0.04612
1100.70 0.0461
1100.80 0.04609
1100.90 0.04607
1101.00 0.04606
1101.10 0.04604
1101.20 0.04602
1101.30 0.04601
1101.40 0.04599
1101.50 0.04598
1101.60 0.04596
1101.70 0.04595
1101.80 0.04593
1101.90 0.04592
1102.00 0.0459
1102.10 0.04589
1102.20 0.04587
1102.30 0.04585
1102.40 0.04584
1102.50 0.04582
1102.60 0.04581
1102.70 0.04579
1102.80 0.04578
1102.90 0.04576
1103.00 0.04575
1103.10 0.04573
1103.20 0.04572
1103.30 0.0457
1103.40 0.04569
1103.50 0.04567
1103.60 0.04566
1103.70 0.04564
1103.80 0.04562
1103.90 0.04561
1104.00 0.04559
1104.10 0.04558
1104.20 0.04556
1104.30 0.04555
1104.40 0.04553
1104.50 0.04552
1104.60 0.0455
1104.70 0.04549
1104.80 0.04547
1104.90 0.04546
1105.00 0.04544
1105.10 0.04543
1105.20 0.04541
1105.30 0.0454
1105.40 0.04538
1105.50 0.04537
1105.60 0.04535
1105.70 0.04534
1105.80 0.04532
1105.90 0.04531
1106.00 0.04529
1106.10 0.04528
1106.20 0.04526
1106.30 0.04525
1106.40 0.04523
1106.50 0.04522
1106.60 0.0452
1106.70 0.04519
1106.80 0.04517
1106.90 0.04516
1107.00 0.04514
1107.10 0.04512
1107.20 0.04511
1107.30 0.04509
1107.40 0.04508
1107.50 0.04506
1107.60 0.04505
1107.70 0.04503
1107.80 0.04502
1107.90 0.045
1108.00 0.04499
1108.10 0.04497
1108.20 0.04496
1108.30 0.04494
1108.40 0.04493
1108.50 0.04491
1108.60 0.0449
1108.70 0.04488
1108.80 0.04487
1108.90 0.04485
1109.00 0.04484
1109.10 0.04482
1109.20 0.04481
1109.30 0.04479
1109.40 0.04478
1109.50 0.04476
1109.60 0.04475
1109.70 0.04473
1109.80 0.04472
1109.90 0.0447
1110.00 0.04469
1110.10 0.04467
1110.20 0.04466
1110.30 0.04464
1110.40 0.04463
1110.50 0.04461
1110.60 0.0446
1110.70 0.04458
1110.80 0.04457
1110.90 0.04455
1111.00 0.04454
1111.10 0.04452
1111.20 0.04451
1111.30 0.04449
1111.40 0.04448
1111.50 0.04446
1111.60 0.04445
1111.70 0.04443
1111.80 0.04442
1111.90 0.0444
1112.00 0.04439
1112.10 0.04437
1112.20 0.04436
1112.30 0.04434
1112.40 0.04433
1112.50 0.04431
1112.60 0.0443
1112.70 0.04428
1112.80 0.04427
1112.90 0.04425
1113.00 0.04424
1113.10 0.04422
1113.20 0.04421
1113.30 0.0442
1113.40 0.04418
1113.50 0.04417
1113.60 0.04415
1113.70 0.04414
1113.80 0.04412
1113.90 0.04411
1114.00 0.04409
1114.10 0.04408
1114.20 0.04406
1114.30 0.04405
1114.40 0.04403
1114.50 0.04402
1114.60 0.044
1114.70 0.04399
1114.80 0.04397
1114.90 0.04396
1115.00 0.04394
1115.10 0.04393
1115.20 0.04391
1115.30 0.0439
1115.40 0.04388
1115.50 0.04387
1115.60 0.04385
1115.70 0.04384
1115.80 0.04382
1115.90 0.04381
1116.00 0.04379
1116.10 0.04378
1116.20 0.04376
1116.30 0.04375
1116.40 0.04373
1116.50 0.04372
1116.60 0.0437
1116.70 0.04369
1116.80 0.04367
1116.90 0.04366
1117.00 0.04364
1117.10 0.04363
1117.20 0.04362
1117.30 0.0436
1117.40 0.04359
1117.50 0.04357
1117.60 0.04356
1117.70 0.04354
1117.80 0.04353
1117.90 0.04351
1118.00 0.0435
1118.10 0.04348
1118.20 0.04347
1118.30 0.04345
1118.40 0.04344
1118.50 0.04342
1118.60 0.04341
1118.70 0.04339
1118.80 0.04338
1118.90 0.04336
1119.00 0.04335
1119.10 0.04333
1119.20 0.04332
1119.30 0.0433
1119.40 0.04329
1119.50 0.04327
1119.60 0.04326
1119.70 0.04325
1119.80 0.04323
1119.90 0.04322
1120.00 0.0432
1120.10 0.04319
1120.20 0.04317
1120.30 0.04316
1120.40 0.04314
1120.50 0.04313
1120.60 0.04311
1120.70 0.0431
1120.80 0.04308
1120.90 0.04307
1121.00 0.04305
1121.10 0.04304
1121.20 0.04302
1121.30 0.04301
1121.40 0.043
1121.50 0.04298
1121.60 0.04297
1121.70 0.04295
1121.80 0.04294
1121.90 0.04292
1122.00 0.04291
1122.10 0.04289
1122.20 0.04288
1122.30 0.04286
1122.40 0.04285
1122.50 0.04283
1122.60 0.04282
1122.70 0.04281
1122.80 0.04279
1122.90 0.04278
1123.00 0.04276
1123.10 0.04275
1123.20 0.04273
1123.30 0.04272
1123.40 0.0427
1123.50 0.04269
1123.60 0.04267
1123.70 0.04266
1123.80 0.04264
1123.90 0.04263
1124.00 0.04262
1124.10 0.0426
1124.20 0.04259
1124.30 0.04257
1124.40 0.04256
1124.50 0.04254
1124.60 0.04253
1124.70 0.04251
1124.80 0.0425
1124.90 0.04248
1125.00 0.04247
1125.10 0.04246
1125.20 0.04244
1125.30 0.04243
1125.40 0.04241
1125.50 0.0424
1125.60 0.04238
1125.70 0.04237
1125.80 0.04235
1125.90 0.04234
1126.00 0.04232
1126.10 0.04231
1126.20 0.0423
1126.30 0.04228
1126.40 0.04227
1126.50 0.04225
1126.60 0.04224
1126.70 0.04222
1126.80 0.04221
1126.90 0.04219
1127.00 0.04218
1127.10 0.04217
1127.20 0.04215
1127.30 0.04214
1127.40 0.04212
1127.50 0.04211
1127.60 0.04209
1127.70 0.04208
1127.80 0.04206
1127.90 0.04205
1128.00 0.04204
1128.10 0.04202
1128.20 0.04201
1128.30 0.04199
1128.40 0.04198
1128.50 0.04196
1128.60 0.04195
1128.70 0.04194
1128.80 0.04192
1128.90 0.04191
1129.00 0.04189
1129.10 0.04188
1129.20 0.04186
1129.30 0.04185
1129.40 0.04183
1129.50 0.04182
1129.60 0.04181
1129.70 0.04179
1129.80 0.04178
1129.90 0.04176
1130.00 0.04175
1130.10 0.04173
1130.20 0.04172
1130.30 0.04171
1130.40 0.04169
1130.50 0.04168
1130.60 0.04166
1130.70 0.04165
1130.80 0.04163
1130.90 0.04162
1131.00 0.04161
1131.10 0.04159
1131.20 0.04158
1131.30 0.04156
1131.40 0.04155
1131.50 0.04153
1131.60 0.04152
1131.70 0.04151
1131.80 0.04149
1131.90 0.04148
1132.00 0.04146
1132.10 0.04145
1132.20 0.04144
1132.30 0.04142
1132.40 0.04141
1132.50 0.04139
1132.60 0.04138
1132.70 0.04136
1132.80 0.04135
1132.90 0.04134
1133.00 0.04132
1133.10 0.04131
1133.20 0.04129
1133.30 0.04128
1133.40 0.04127
1133.50 0.04125
1133.60 0.04124
1133.70 0.04122
1133.80 0.04121
1133.90 0.04119
1134.00 0.04118
1134.10 0.04117
1134.20 0.04115
1134.30 0.04114
1134.40 0.04112
1134.50 0.04111
1134.60 0.0411
1134.70 0.04108
1134.80 0.04107
1134.90 0.04105
1135.00 0.04104
1135.10 0.04103
1135.20 0.04101
1135.30 0.041
1135.40 0.04098
1135.50 0.04097
1135.60 0.04096
1135.70 0.04094
1135.80 0.04093
1135.90 0.04091
1136.00 0.0409
1136.10 0.04089
1136.20 0.04087
1136.30 0.04086
1136.40 0.04084
1136.50 0.04083
1136.60 0.04082
1136.70 0.0408
1136.80 0.04079
1136.90 0.04077
1137.00 0.04076
1137.10 0.04075
1137.20 0.04073
1137.30 0.04072
1137.40 0.0407
1137.50 0.04069
1137.60 0.04068
1137.70 0.04066
1137.80 0.04065
1137.90 0.04063
1138.00 0.04062
1138.10 0.04061
1138.20 0.04059
1138.30 0.04058
1138.40 0.04056
1138.50 0.04055
1138.60 0.04054
1138.70 0.04052
1138.80 0.04051
1138.90 0.0405
1139.00 0.04048
1139.10 0.04047
1139.20 0.04045
1139.30 0.04044
1139.40 0.04043
1139.50 0.04041
1139.60 0.0404
1139.70 0.04038
1139.80 0.04037
1139.90 0.04036
1140.00 0.04034
1140.10 0.04033
1140.20 0.04032
1140.30 0.0403
1140.40 0.04029
1140.50 0.04027
1140.60 0.04026
1140.70 0.04025
1140.80 0.04023
1140.90 0.04022
1141.00 0.04021
1141.10 0.04019
1141.20 0.04018
1141.30 0.04016
1141.40 0.04015
1141.50 0.04014
1141.60 0.04012
1141.70 0.04011
1141.80 0.0401
1141.90 0.04008
1142.00 0.04007
1142.10 0.04005
1142.20 0.04004
1142.30 0.04003
1142.40 0.04001
1142.50 0.04
1142.60 0.03999
1142.70 0.03997
1142.80 0.03996
1142.90 0.03995
1143.00 0.03993
1143.10 0.03992
1143.20 0.0399
1143.30 0.03989
1143.40 0.03988
1143.50 0.03986
1143.60 0.03985
1143.70 0.03984
1143.80 0.03982
1143.90 0.03981
1144.00 0.0398
1144.10 0.03978
1144.20 0.03977
1144.30 0.03976
1144.40 0.03974
1144.50 0.03973
1144.60 0.03971
1144.70 0.0397
1144.80 0.03969
1144.90 0.03967
1145.00 0.03966
1145.10 0.03965
1145.20 0.03963
1145.30 0.03962
1145.40 0.03961
1145.50 0.03959
1145.60 0.03958
1145.70 0.03957
1145.80 0.03955
1145.90 0.03954
1146.00 0.03953
1146.10 0.03951
1146.20 0.0395
1146.30 0.03948
1146.40 0.03947
1146.50 0.03946
1146.60 0.03944
1146.70 0.03943
1146.80 0.03942
1146.90 0.0394
1147.00 0.03939
1147.10 0.03938
1147.20 0.03936
1147.30 0.03935
1147.40 0.03934
1147.50 0.03932
1147.60 0.03931
1147.70 0.0393
1147.80 0.03928
1147.90 0.03927
1148.00 0.03926
1148.10 0.03924
1148.20 0.03923
1148.30 0.03922
1148.40 0.0392
1148.50 0.03919
1148.60 0.03918
1148.70 0.03916
1148.80 0.03915
1148.90 0.03914
1149.00 0.03912
1149.10 0.03911
1149.20 0.0391
1149.30 0.03908
1149.40 0.03907
1149.50 0.03906
1149.60 0.03904
1149.70 0.03903
1149.80 0.03902
1149.90 0.039
1150.00 0.03899
1150.10 0.03898
1150.20 0.03896
1150.30 0.03895
1150.40 0.03894
1150.50 0.03892
1150.60 0.03891
1150.70 0.0389
1150.80 0.03888
1150.90 0.03887
1151.00 0.03886
1151.10 0.03884
1151.20 0.03883
1151.30 0.03882
1151.40 0.03881
1151.50 0.03879
1151.60 0.03878
1151.70 0.03877
1151.80 0.03875
1151.90 0.03874
1152.00 0.03873
1152.10 0.03871
1152.20 0.0387
1152.30 0.03869
1152.40 0.03867
1152.50 0.03866
1152.60 0.03865
1152.70 0.03863
1152.80 0.03862
1152.90 0.03861
1153.00 0.03859
1153.10 0.03858
1153.20 0.03857
1153.30 0.03856
1153.40 0.03854
1153.50 0.03853
1153.60 0.03852
1153.70 0.0385
1153.80 0.03849
1153.90 0.03848
1154.00 0.03846
1154.10 0.03845
1154.20 0.03844
1154.30 0.03843
1154.40 0.03841
1154.50 0.0384
1154.60 0.03839
1154.70 0.03837
1154.80 0.03836
1154.90 0.03835
1155.00 0.03833
1155.10 0.03832
1155.20 0.03831
1155.30 0.03829
1155.40 0.03828
1155.50 0.03827
1155.60 0.03826
1155.70 0.03824
1155.80 0.03823
1155.90 0.03822
1156.00 0.0382
1156.10 0.03819
1156.20 0.03818
1156.30 0.03817
1156.40 0.03815
1156.50 0.03814
1156.60 0.03813
1156.70 0.03811
1156.80 0.0381
1156.90 0.03809
1157.00 0.03807
1157.10 0.03806
1157.20 0.03805
1157.30 0.03804
1157.40 0.03802
1157.50 0.03801
1157.60 0.038
1157.70 0.03798
1157.80 0.03797
1157.90 0.03796
1158.00 0.03795
1158.10 0.03793
1158.20 0.03792
1158.30 0.03791
1158.40 0.03789
1158.50 0.03788
1158.60 0.03787
1158.70 0.03786
1158.80 0.03784
1158.90 0.03783
1159.00 0.03782
1159.10 0.03781
1159.20 0.03779
1159.30 0.03778
1159.40 0.03777
1159.50 0.03775
1159.60 0.03774
1159.70 0.03773
1159.80 0.03772
1159.90 0.0377
1160.00 0.03769
1160.10 0.03768
1160.20 0.03767
1160.30 0.03765
1160.40 0.03764
1160.50 0.03763
1160.60 0.03761
1160.70 0.0376
1160.80 0.03759
1160.90 0.03758
1161.00 0.03756
1161.10 0.03755
1161.20 0.03754
1161.30 0.03753
1161.40 0.03751
1161.50 0.0375
1161.60 0.03749
1161.70 0.03747
1161.80 0.03746
1161.90 0.03745
1162.00 0.03744
1162.10 0.03742
1162.20 0.03741
1162.30 0.0374
1162.40 0.03739
1162.50 0.03737
1162.60 0.03736
1162.70 0.03735
1162.80 0.03734
1162.90 0.03732
1163.00 0.03731
1163.10 0.0373
1163.20 0.03729
1163.30 0.03727
1163.40 0.03726
1163.50 0.03725
1163.60 0.03724
1163.70 0.03722
1163.80 0.03721
1163.90 0.0372
1164.00 0.03719
1164.10 0.03717
1164.20 0.03716
1164.30 0.03715
1164.40 0.03714
1164.50 0.03712
1164.60 0.03711
1164.70 0.0371
1164.80 0.03709
1164.90 0.03707
1165.00 0.03706
1165.10 0.03705
1165.20 0.03704
1165.30 0.03702
1165.40 0.03701
1165.50 0.037
1165.60 0.03699
1165.70 0.03697
1165.80 0.03696
1165.90 0.03695
1166.00 0.03694
1166.10 0.03692
1166.20 0.03691
1166.30 0.0369
1166.40 0.03689
1166.50 0.03687
1166.60 0.03686
1166.70 0.03685
1166.80 0.03684
1166.90 0.03682
1167.00 0.03681
1167.10 0.0368
1167.20 0.03679
1167.30 0.03677
1167.40 0.03676
1167.50 0.03675
1167.60 0.03674
1167.70 0.03673
1167.80 0.03671
1167.90 0.0367
1168.00 0.03669
1168.10 0.03668
1168.20 0.03666
1168.30 0.03665
1168.40 0.03664
1168.50 0.03663
1168.60 0.03661
1168.70 0.0366
1168.80 0.03659
1168.90 0.03658
1169.00 0.03657
1169.10 0.03655
1169.20 0.03654
1169.30 0.03653
1169.40 0.03652
1169.50 0.0365
1169.60 0.03649
1169.70 0.03648
1169.80 0.03647
1169.90 0.03645
1170.00 0.03644
1170.10 0.03643
1170.20 0.03642
1170.30 0.03641
1170.40 0.03639
1170.50 0.03638
1170.60 0.03637
1170.70 0.03636
1170.80 0.03635
1170.90 0.03633
1171.00 0.03632
1171.10 0.03631
1171.20 0.0363
1171.30 0.03628
1171.40 0.03627
1171.50 0.03626
1171.60 0.03625
1171.70 0.03624
1171.80 0.03622
1171.90 0.03621
1172.00 0.0362
1172.10 0.03619
1172.20 0.03617
1172.30 0.03616
1172.40 0.03615
1172.50 0.03614
1172.60 0.03613
1172.70 0.03611
1172.80 0.0361
1172.90 0.03609
1173.00 0.03608
1173.10 0.03607
1173.20 0.03605
1173.30 0.03604
1173.40 0.03603
1173.50 0.03602
1173.60 0.03601
1173.70 0.03599
1173.80 0.03598
1173.90 0.03597
1174.00 0.03596
1174.10 0.03595
1174.20 0.03593
1174.30 0.03592
1174.40 0.03591
1174.50 0.0359
1174.60 0.03589
1174.70 0.03587
1174.80 0.03586
1174.90 0.03585
1175.00 0.03584
1175.10 0.03583
1175.20 0.03581
1175.30 0.0358
1175.40 0.03579
1175.50 0.03578
1175.60 0.03577
1175.70 0.03575
1175.80 0.03574
1175.90 0.03573
1176.00 0.03572
1176.10 0.03571
1176.20 0.03569
1176.30 0.03568
1176.40 0.03567
1176.50 0.03566
1176.60 0.03565
1176.70 0.03563
1176.80 0.03562
1176.90 0.03561
1177.00 0.0356
1177.10 0.03559
1177.20 0.03558
1177.30 0.03556
1177.40 0.03555
1177.50 0.03554
1177.60 0.03553
1177.70 0.03552
1177.80 0.0355
1177.90 0.03549
1178.00 0.03548
1178.10 0.03547
1178.20 0.03546
1178.30 0.03545
1178.40 0.03543
1178.50 0.03542
1178.60 0.03541
1178.70 0.0354
1178.80 0.03539
1178.90 0.03537
1179.00 0.03536
1179.10 0.03535
1179.20 0.03534
1179.30 0.03533
1179.40 0.03532
1179.50 0.0353
1179.60 0.03529
1179.70 0.03528
1179.80 0.03527
1179.90 0.03526
1180.00 0.03525
1180.10 0.03523
1180.20 0.03522
1180.30 0.03521
1180.40 0.0352
1180.50 0.03519
1180.60 0.03517
1180.70 0.03516
1180.80 0.03515
1180.90 0.03514
1181.00 0.03513
1181.10 0.03512
1181.20 0.0351
1181.30 0.03509
1181.40 0.03508
1181.50 0.03507
1181.60 0.03506
1181.70 0.03505
1181.80 0.03503
1181.90 0.03502
1182.00 0.03501
1182.10 0.035
1182.20 0.03499
1182.30 0.03498
1182.40 0.03496
1182.50 0.03495
1182.60 0.03494
1182.70 0.03493
1182.80 0.03492
1182.90 0.03491
1183.00 0.0349
1183.10 0.03488
1183.20 0.03487
1183.30 0.03486
1183.40 0.03485
1183.50 0.03484
1183.60 0.03483
1183.70 0.03481
1183.80 0.0348
1183.90 0.03479
1184.00 0.03478
1184.10 0.03477
1184.20 0.03476
1184.30 0.03475
1184.40 0.03473
1184.50 0.03472
1184.60 0.03471
1184.70 0.0347
1184.80 0.03469
1184.90 0.03468
1185.00 0.03466
1185.10 0.03465
1185.20 0.03464
1185.30 0.03463
1185.40 0.03462
1185.50 0.03461
1185.60 0.0346
1185.70 0.03458
1185.80 0.03457
1185.90 0.03456
1186.00 0.03455
1186.10 0.03454
1186.20 0.03453
1186.30 0.03452
1186.40 0.0345
1186.50 0.03449
1186.60 0.03448
1186.70 0.03447
1186.80 0.03446
1186.90 0.03445
1187.00 0.03444
1187.10 0.03442
1187.20 0.03441
1187.30 0.0344
1187.40 0.03439
1187.50 0.03438
1187.60 0.03437
1187.70 0.03436
1187.80 0.03434
1187.90 0.03433
1188.00 0.03432
1188.10 0.03431
1188.20 0.0343
1188.30 0.03429
1188.40 0.03428
1188.50 0.03427
1188.60 0.03425
1188.70 0.03424
1188.80 0.03423
1188.90 0.03422
1189.00 0.03421
1189.10 0.0342
1189.20 0.03419
1189.30 0.03417
1189.40 0.03416
1189.50 0.03415
1189.60 0.03414
1189.70 0.03413
1189.80 0.03412
1189.90 0.03411
1190.00 0.0341
1190.10 0.03408
1190.20 0.03407
1190.30 0.03406
1190.40 0.03405
1190.50 0.03404
1190.60 0.03403
1190.70 0.03402
1190.80 0.03401
1190.90 0.03399
1191.00 0.03398
1191.10 0.03397
1191.20 0.03396
1191.30 0.03395
1191.40 0.03394
1191.50 0.03393
1191.60 0.03392
1191.70 0.0339
1191.80 0.03389
1191.90 0.03388
1192.00 0.03387
1192.10 0.03386
1192.20 0.03385
1192.30 0.03384
1192.40 0.03383
1192.50 0.03382
1192.60 0.0338
1192.70 0.03379
1192.80 0.03378
1192.90 0.03377
1193.00 0.03376
1193.10 0.03375
1193.20 0.03374
1193.30 0.03373
1193.40 0.03372
1193.50 0.0337
1193.60 0.03369
1193.70 0.03368
1193.80 0.03367
1193.90 0.03366
1194.00 0.03365
1194.10 0.03364
1194.20 0.03363
1194.30 0.03362
1194.40 0.0336
1194.50 0.03359
1194.60 0.03358
1194.70 0.03357
1194.80 0.03356
1194.90 0.03355
1195.00 0.03354
1195.10 0.03353
1195.20 0.03352
1195.30 0.03351
1195.40 0.03349
1195.50 0.03348
1195.60 0.03347
1195.70 0.03346
1195.80 0.03345
1195.90 0.03344
1196.00 0.03343
1196.10 0.03342
1196.20 0.03341
1196.30 0.0334
1196.40 0.03338
1196.50 0.03337
1196.60 0.03336
1196.70 0.03335
1196.80 0.03334
1196.90 0.03333
1197.00 0.03332
1197.10 0.03331
1197.20 0.0333
1197.30 0.03329
1197.40 0.03327
1197.50 0.03326
1197.60 0.03325
1197.70 0.03324
1197.80 0.03323
1197.90 0.03322
1198.00 0.03321
1198.10 0.0332
1198.20 0.03319
1198.30 0.03318
1198.40 0.03317
1198.50 0.03315
1198.60 0.03314
1198.70 0.03313
1198.80 0.03312
1198.90 0.03311
1199.00 0.0331
1199.10 0.03309
1199.20 0.03308
1199.30 0.03307
1199.40 0.03306
1199.50 0.03305
1199.60 0.03304
1199.70 0.03302
1199.80 0.03301
1199.90 0.033
1200.00 0
