# Version 2.1 - nm, norm@500 to 1, cut digits, bergeron_3000_80.dat_3000
# Wavelength(nm)  Flambda(ergs/cm^s/s/nm)
300.00 0.09669
300.10 0.09693
300.20 0.09717
300.30 0.09741
300.40 0.09765
300.50 0.0979
300.60 0.09814
300.70 0.09838
300.80 0.09862
300.90 0.09886
301.00 0.09911
301.10 0.09935
301.20 0.09959
301.30 0.09983
301.40 0.1001
301.50 0.1003
301.60 0.1005
301.70 0.1008
301.80 0.101
301.90 0.1013
302.00 0.1015
302.10 0.1017
302.20 0.102
302.30 0.1022
302.40 0.1025
302.50 0.1027
302.60 0.103
302.70 0.1032
302.80 0.1035
302.90 0.1037
303.00 0.104
303.10 0.1042
303.20 0.1045
303.30 0.1047
303.40 0.105
303.50 0.1052
303.60 0.1055
303.70 0.1057
303.80 0.106
303.90 0.1062
304.00 0.1065
304.10 0.1067
304.20 0.107
304.30 0.1072
304.40 0.1075
304.50 0.1077
304.60 0.108
304.70 0.1083
304.80 0.1085
304.90 0.1088
305.00 0.109
305.10 0.1093
305.20 0.1095
305.30 0.1098
305.40 0.11
305.50 0.1103
305.60 0.1105
305.70 0.1108
305.80 0.111
305.90 0.1113
306.00 0.1116
306.10 0.1118
306.20 0.1121
306.30 0.1123
306.40 0.1126
306.50 0.1129
306.60 0.1131
306.70 0.1134
306.80 0.1137
306.90 0.1139
307.00 0.1142
307.10 0.1144
307.20 0.1147
307.30 0.115
307.40 0.1152
307.50 0.1155
307.60 0.1158
307.70 0.116
307.80 0.1163
307.90 0.1165
308.00 0.1168
308.10 0.1171
308.20 0.1173
308.30 0.1176
308.40 0.1179
308.50 0.1181
308.60 0.1184
308.70 0.1187
308.80 0.119
308.90 0.1192
309.00 0.1195
309.10 0.1198
309.20 0.12
309.30 0.1203
309.40 0.1206
309.50 0.1208
309.60 0.1211
309.70 0.1214
309.80 0.1216
309.90 0.1219
310.00 0.1222
310.10 0.1225
310.20 0.1227
310.30 0.123
310.40 0.1233
310.50 0.1236
310.60 0.1238
310.70 0.1241
310.80 0.1244
310.90 0.1247
311.00 0.125
311.10 0.1252
311.20 0.1255
311.30 0.1258
311.40 0.1261
311.50 0.1263
311.60 0.1266
311.70 0.1269
311.80 0.1272
311.90 0.1274
312.00 0.1277
312.10 0.128
312.20 0.1283
312.30 0.1285
312.40 0.1288
312.50 0.1291
312.60 0.1294
312.70 0.1297
312.80 0.13
312.90 0.1302
313.00 0.1305
313.10 0.1308
313.20 0.1311
313.30 0.1314
313.40 0.1317
313.50 0.1319
313.60 0.1322
313.70 0.1325
313.80 0.1328
313.90 0.1331
314.00 0.1334
314.10 0.1336
314.20 0.1339
314.30 0.1342
314.40 0.1345
314.50 0.1348
314.60 0.1351
314.70 0.1354
314.80 0.1357
314.90 0.136
315.00 0.1363
315.10 0.1366
315.20 0.1369
315.30 0.1371
315.40 0.1374
315.50 0.1377
315.60 0.138
315.70 0.1383
315.80 0.1386
315.90 0.1389
316.00 0.1392
316.10 0.1395
316.20 0.1398
316.30 0.1401
316.40 0.1404
316.50 0.1407
316.60 0.141
316.70 0.1413
316.80 0.1416
316.90 0.1418
317.00 0.1421
317.10 0.1424
317.20 0.1427
317.30 0.143
317.40 0.1433
317.50 0.1436
317.60 0.1439
317.70 0.1442
317.80 0.1445
317.90 0.1448
318.00 0.1451
318.10 0.1454
318.20 0.1457
318.30 0.146
318.40 0.1463
318.50 0.1466
318.60 0.1469
318.70 0.1472
318.80 0.1476
318.90 0.1479
319.00 0.1482
319.10 0.1485
319.20 0.1488
319.30 0.1491
319.40 0.1494
319.50 0.1497
319.60 0.15
319.70 0.1503
319.80 0.1506
319.90 0.1509
320.00 0.1512
320.10 0.1515
320.20 0.1518
320.30 0.1521
320.40 0.1524
320.50 0.1528
320.60 0.1531
320.70 0.1534
320.80 0.1537
320.90 0.154
321.00 0.1543
321.10 0.1546
321.20 0.1549
321.30 0.1552
321.40 0.1556
321.50 0.1559
321.60 0.1562
321.70 0.1565
321.80 0.1568
321.90 0.1571
322.00 0.1574
322.10 0.1577
322.20 0.158
322.30 0.1584
322.40 0.1587
322.50 0.159
322.60 0.1593
322.70 0.1596
322.80 0.16
322.90 0.1603
323.00 0.1606
323.10 0.1609
323.20 0.1612
323.30 0.1616
323.40 0.1619
323.50 0.1622
323.60 0.1625
323.70 0.1628
323.80 0.1631
323.90 0.1635
324.00 0.1638
324.10 0.1641
324.20 0.1644
324.30 0.1647
324.40 0.1651
324.50 0.1654
324.60 0.1657
324.70 0.1661
324.80 0.1664
324.90 0.1667
325.00 0.167
325.10 0.1674
325.20 0.1677
325.30 0.168
325.40 0.1683
325.50 0.1687
325.60 0.169
325.70 0.1693
325.80 0.1696
325.90 0.1699
326.00 0.1703
326.10 0.1706
326.20 0.1709
326.30 0.1713
326.40 0.1716
326.50 0.1719
326.60 0.1723
326.70 0.1726
326.80 0.1729
326.90 0.1733
327.00 0.1736
327.10 0.1739
327.20 0.1743
327.30 0.1746
327.40 0.1749
327.50 0.1752
327.60 0.1756
327.70 0.1759
327.80 0.1762
327.90 0.1766
328.00 0.1769
328.10 0.1772
328.20 0.1776
328.30 0.1779
328.40 0.1783
328.50 0.1786
328.60 0.1789
328.70 0.1793
328.80 0.1796
328.90 0.18
329.00 0.1803
329.10 0.1806
329.20 0.181
329.30 0.1813
329.40 0.1816
329.50 0.182
329.60 0.1823
329.70 0.1827
329.80 0.183
329.90 0.1833
330.00 0.1837
330.10 0.184
330.20 0.1844
330.30 0.1847
330.40 0.1851
330.50 0.1854
330.60 0.1857
330.70 0.1861
330.80 0.1864
330.90 0.1868
331.00 0.1871
331.10 0.1875
331.20 0.1878
331.30 0.1882
331.40 0.1885
331.50 0.1888
331.60 0.1892
331.70 0.1895
331.80 0.1899
331.90 0.1902
332.00 0.1906
332.10 0.1909
332.20 0.1913
332.30 0.1916
332.40 0.192
332.50 0.1923
332.60 0.1927
332.70 0.193
332.80 0.1934
332.90 0.1937
333.00 0.1941
333.10 0.1944
333.20 0.1948
333.30 0.1951
333.40 0.1955
333.50 0.1958
333.60 0.1962
333.70 0.1965
333.80 0.1969
333.90 0.1972
334.00 0.1976
334.10 0.1979
334.20 0.1983
334.30 0.1987
334.40 0.199
334.50 0.1994
334.60 0.1997
334.70 0.2001
334.80 0.2005
334.90 0.2008
335.00 0.2012
335.10 0.2015
335.20 0.2019
335.30 0.2023
335.40 0.2026
335.50 0.203
335.60 0.2033
335.70 0.2037
335.80 0.204
335.90 0.2044
336.00 0.2047
336.10 0.2051
336.20 0.2055
336.30 0.2058
336.40 0.2062
336.50 0.2066
336.60 0.2069
336.70 0.2073
336.80 0.2077
336.90 0.208
337.00 0.2084
337.10 0.2088
337.20 0.2091
337.30 0.2095
337.40 0.2099
337.50 0.2102
337.60 0.2106
337.70 0.2109
337.80 0.2113
337.90 0.2117
338.00 0.212
338.10 0.2124
338.20 0.2128
338.30 0.2132
338.40 0.2135
338.50 0.2139
338.60 0.2143
338.70 0.2146
338.80 0.215
338.90 0.2154
339.00 0.2158
339.10 0.2161
339.20 0.2165
339.30 0.2169
339.40 0.2172
339.50 0.2176
339.60 0.218
339.70 0.2183
339.80 0.2187
339.90 0.2191
340.00 0.2194
340.10 0.2198
340.20 0.2202
340.30 0.2206
340.40 0.221
340.50 0.2213
340.60 0.2217
340.70 0.2221
340.80 0.2225
340.90 0.2229
341.00 0.2232
341.10 0.2236
341.20 0.224
341.30 0.2244
341.40 0.2247
341.50 0.2251
341.60 0.2255
341.70 0.2259
341.80 0.2262
341.90 0.2266
342.00 0.227
342.10 0.2274
342.20 0.2278
342.30 0.2281
342.40 0.2285
342.50 0.2289
342.60 0.2293
342.70 0.2297
342.80 0.2301
342.90 0.2305
343.00 0.2308
343.10 0.2312
343.20 0.2316
343.30 0.232
343.40 0.2324
343.50 0.2327
343.60 0.2331
343.70 0.2335
343.80 0.2339
343.90 0.2343
344.00 0.2346
344.10 0.235
344.20 0.2354
344.30 0.2358
344.40 0.2362
344.50 0.2366
344.60 0.237
344.70 0.2374
344.80 0.2378
344.90 0.2382
345.00 0.2386
345.10 0.2389
345.20 0.2393
345.30 0.2397
345.40 0.2401
345.50 0.2405
345.60 0.2409
345.70 0.2413
345.80 0.2417
345.90 0.242
346.00 0.2424
346.10 0.2428
346.20 0.2432
346.30 0.2436
346.40 0.244
346.50 0.2444
346.60 0.2448
346.70 0.2452
346.80 0.2456
346.90 0.246
347.00 0.2464
347.10 0.2468
347.20 0.2472
347.30 0.2476
347.40 0.248
347.50 0.2484
347.60 0.2488
347.70 0.2491
347.80 0.2495
347.90 0.2499
348.00 0.2503
348.10 0.2507
348.20 0.2511
348.30 0.2515
348.40 0.2519
348.50 0.2523
348.60 0.2527
348.70 0.2531
348.80 0.2535
348.90 0.2539
349.00 0.2543
349.10 0.2548
349.20 0.2552
349.30 0.2555
349.40 0.2559
349.50 0.2563
349.60 0.2567
349.70 0.2571
349.80 0.2575
349.90 0.2579
350.00 0.2583
350.10 0.2587
350.20 0.2592
350.30 0.2596
350.40 0.26
350.50 0.2604
350.60 0.2608
350.70 0.2612
350.80 0.2616
350.90 0.262
351.00 0.2624
351.10 0.2628
351.20 0.2632
351.30 0.2636
351.40 0.264
351.50 0.2645
351.60 0.2649
351.70 0.2653
351.80 0.2657
351.90 0.2661
352.00 0.2665
352.10 0.2669
352.20 0.2673
352.30 0.2677
352.40 0.2681
352.50 0.2685
352.60 0.269
352.70 0.2694
352.80 0.2698
352.90 0.2702
353.00 0.2706
353.10 0.271
353.20 0.2714
353.30 0.2718
353.40 0.2723
353.50 0.2727
353.60 0.2731
353.70 0.2735
353.80 0.2739
353.90 0.2743
354.00 0.2747
354.10 0.2751
354.20 0.2755
354.30 0.276
354.40 0.2764
354.50 0.2768
354.60 0.2772
354.70 0.2777
354.80 0.2781
354.90 0.2785
355.00 0.2789
355.10 0.2793
355.20 0.2797
355.30 0.2802
355.40 0.2806
355.50 0.281
355.60 0.2814
355.70 0.2818
355.80 0.2822
355.90 0.2826
356.00 0.2831
356.10 0.2835
356.20 0.2839
356.30 0.2843
356.40 0.2848
356.50 0.2852
356.60 0.2856
356.70 0.286
356.80 0.2865
356.90 0.2869
357.00 0.2873
357.10 0.2877
357.20 0.2882
357.30 0.2886
357.40 0.289
357.50 0.2894
357.60 0.2898
357.70 0.2903
357.80 0.2907
357.90 0.2911
358.00 0.2915
358.10 0.2919
358.20 0.2924
358.30 0.2928
358.40 0.2932
358.50 0.2937
358.60 0.2941
358.70 0.2945
358.80 0.295
358.90 0.2954
359.00 0.2958
359.10 0.2963
359.20 0.2967
359.30 0.2971
359.40 0.2975
359.50 0.298
359.60 0.2984
359.70 0.2988
359.80 0.2992
359.90 0.2997
360.00 0.3001
360.10 0.3005
360.20 0.301
360.30 0.3014
360.40 0.3018
360.50 0.3023
360.60 0.3027
360.70 0.3031
360.80 0.3036
360.90 0.304
361.00 0.3044
361.10 0.3049
361.20 0.3053
361.30 0.3057
361.40 0.3062
361.50 0.3066
361.60 0.307
361.70 0.3075
361.80 0.3079
361.90 0.3083
362.00 0.3087
362.10 0.3092
362.20 0.3096
362.30 0.3101
362.40 0.3105
362.50 0.3109
362.60 0.3114
362.70 0.3118
362.80 0.3122
362.90 0.3127
363.00 0.3131
363.10 0.3136
363.20 0.314
363.30 0.3144
363.40 0.3149
363.50 0.3153
363.60 0.3158
363.70 0.3162
363.80 0.3166
363.90 0.3171
364.00 0.3175
364.10 0.318
364.20 0.3184
364.30 0.3188
364.40 0.3193
364.50 0.3197
364.60 0.3202
364.70 0.3206
364.80 0.3211
364.90 0.3215
365.00 0.3219
365.10 0.3224
365.20 0.3228
365.30 0.3233
365.40 0.3237
365.50 0.3242
365.60 0.3246
365.70 0.325
365.80 0.3255
365.90 0.3259
366.00 0.3264
366.10 0.3268
366.20 0.3273
366.30 0.3277
366.40 0.3282
366.50 0.3286
366.60 0.3291
366.70 0.3295
366.80 0.33
366.90 0.3304
367.00 0.3309
367.10 0.3313
367.20 0.3318
367.30 0.3322
367.40 0.3327
367.50 0.3331
367.60 0.3336
367.70 0.334
367.80 0.3344
367.90 0.3349
368.00 0.3353
368.10 0.3358
368.20 0.3362
368.30 0.3367
368.40 0.3372
368.50 0.3376
368.60 0.3381
368.70 0.3385
368.80 0.339
368.90 0.3394
369.00 0.3399
369.10 0.3403
369.20 0.3408
369.30 0.3412
369.40 0.3417
369.50 0.3421
369.60 0.3426
369.70 0.343
369.80 0.3435
369.90 0.3439
370.00 0.3444
370.10 0.3448
370.20 0.3453
370.30 0.3458
370.40 0.3462
370.50 0.3467
370.60 0.3471
370.70 0.3476
370.80 0.3481
370.90 0.3485
371.00 0.349
371.10 0.3494
371.20 0.3499
371.30 0.3503
371.40 0.3508
371.50 0.3513
371.60 0.3517
371.70 0.3522
371.80 0.3526
371.90 0.3531
372.00 0.3535
372.10 0.354
372.20 0.3545
372.30 0.3549
372.40 0.3554
372.50 0.3559
372.60 0.3563
372.70 0.3568
372.80 0.3572
372.90 0.3577
373.00 0.3582
373.10 0.3586
373.20 0.3591
373.30 0.3595
373.40 0.36
373.50 0.3605
373.60 0.3609
373.70 0.3614
373.80 0.3618
373.90 0.3623
374.00 0.3627
374.10 0.3632
374.20 0.3637
374.30 0.3642
374.40 0.3646
374.50 0.3651
374.60 0.3656
374.70 0.366
374.80 0.3665
374.90 0.367
375.00 0.3674
375.10 0.3679
375.20 0.3684
375.30 0.3688
375.40 0.3693
375.50 0.3698
375.60 0.3702
375.70 0.3707
375.80 0.3711
375.90 0.3716
376.00 0.3721
376.10 0.3725
376.20 0.373
376.30 0.3735
376.40 0.3739
376.50 0.3744
376.60 0.3749
376.70 0.3753
376.80 0.3758
376.90 0.3763
377.00 0.3767
377.10 0.3772
377.20 0.3777
377.30 0.3782
377.40 0.3786
377.50 0.3791
377.60 0.3796
377.70 0.38
377.80 0.3805
377.90 0.381
378.00 0.3815
378.10 0.3819
378.20 0.3824
378.30 0.3829
378.40 0.3833
378.50 0.3838
378.60 0.3843
378.70 0.3848
378.80 0.3852
378.90 0.3857
379.00 0.3862
379.10 0.3867
379.20 0.3871
379.30 0.3876
379.40 0.3881
379.50 0.3886
379.60 0.389
379.70 0.3895
379.80 0.39
379.90 0.3904
380.00 0.3909
380.10 0.3914
380.20 0.3919
380.30 0.3924
380.40 0.3928
380.50 0.3933
380.60 0.3938
380.70 0.3943
380.80 0.3947
380.90 0.3952
381.00 0.3957
381.10 0.3962
381.20 0.3966
381.30 0.3971
381.40 0.3976
381.50 0.3981
381.60 0.3985
381.70 0.399
381.80 0.3995
381.90 0.4
382.00 0.4005
382.10 0.4009
382.20 0.4014
382.30 0.4019
382.40 0.4024
382.50 0.4029
382.60 0.4034
382.70 0.4038
382.80 0.4043
382.90 0.4048
383.00 0.4053
383.10 0.4058
383.20 0.4062
383.30 0.4067
383.40 0.4072
383.50 0.4077
383.60 0.4082
383.70 0.4086
383.80 0.4091
383.90 0.4096
384.00 0.4101
384.10 0.4106
384.20 0.411
384.30 0.4115
384.40 0.412
384.50 0.4125
384.60 0.413
384.70 0.4135
384.80 0.414
384.90 0.4144
385.00 0.4149
385.10 0.4154
385.20 0.4159
385.30 0.4164
385.40 0.4169
385.50 0.4173
385.60 0.4178
385.70 0.4183
385.80 0.4188
385.90 0.4193
386.00 0.4198
386.10 0.4203
386.20 0.4207
386.30 0.4212
386.40 0.4217
386.50 0.4222
386.60 0.4227
386.70 0.4232
386.80 0.4237
386.90 0.4242
387.00 0.4246
387.10 0.4251
387.20 0.4256
387.30 0.4261
387.40 0.4266
387.50 0.4271
387.60 0.4276
387.70 0.4281
387.80 0.4285
387.90 0.429
388.00 0.4295
388.10 0.43
388.20 0.4305
388.30 0.431
388.40 0.4315
388.50 0.432
388.60 0.4325
388.70 0.433
388.80 0.4334
388.90 0.4339
389.00 0.4344
389.10 0.4349
389.20 0.4354
389.30 0.4359
389.40 0.4364
389.50 0.4369
389.60 0.4374
389.70 0.4379
389.80 0.4384
389.90 0.4388
390.00 0.4393
390.10 0.4398
390.20 0.4403
390.30 0.4408
390.40 0.4413
390.50 0.4418
390.60 0.4423
390.70 0.4428
390.80 0.4433
390.90 0.4438
391.00 0.4443
391.10 0.4448
391.20 0.4453
391.30 0.4458
391.40 0.4463
391.50 0.4468
391.60 0.4473
391.70 0.4478
391.80 0.4482
391.90 0.4487
392.00 0.4492
392.10 0.4497
392.20 0.4502
392.30 0.4507
392.40 0.4512
392.50 0.4517
392.60 0.4522
392.70 0.4527
392.80 0.4532
392.90 0.4537
393.00 0.4542
393.10 0.4547
393.20 0.4552
393.30 0.4557
393.40 0.4562
393.50 0.4567
393.60 0.4572
393.70 0.4577
393.80 0.4582
393.90 0.4587
394.00 0.4591
394.10 0.4597
394.20 0.4602
394.30 0.4607
394.40 0.4612
394.50 0.4617
394.60 0.4621
394.70 0.4626
394.80 0.4632
394.90 0.4637
395.00 0.4642
395.10 0.4647
395.20 0.4652
395.30 0.4657
395.40 0.4662
395.50 0.4667
395.60 0.4672
395.70 0.4677
395.80 0.4682
395.90 0.4687
396.00 0.4692
396.10 0.4697
396.20 0.4701
396.30 0.4707
396.40 0.4712
396.50 0.4717
396.60 0.4722
396.70 0.4727
396.80 0.4732
396.90 0.4737
397.00 0.4742
397.10 0.4747
397.20 0.4752
397.30 0.4757
397.40 0.4762
397.50 0.4767
397.60 0.4772
397.70 0.4777
397.80 0.4782
397.90 0.4787
398.00 0.4792
398.10 0.4797
398.20 0.4802
398.30 0.4807
398.40 0.4812
398.50 0.4817
398.60 0.4822
398.70 0.4827
398.80 0.4832
398.90 0.4837
399.00 0.4842
399.10 0.4848
399.20 0.4853
399.30 0.4858
399.40 0.4863
399.50 0.4868
399.60 0.4873
399.70 0.4878
399.80 0.4883
399.90 0.4888
400.00 0.4893
400.10 0.4898
400.20 0.4903
400.30 0.4908
400.40 0.4913
400.50 0.4918
400.60 0.4923
400.70 0.4928
400.80 0.4934
400.90 0.4939
401.00 0.4944
401.10 0.4949
401.20 0.4954
401.30 0.4959
401.40 0.4964
401.50 0.4969
401.60 0.4974
401.70 0.4979
401.80 0.4984
401.90 0.4989
402.00 0.4995
402.10 0.5
402.20 0.5005
402.30 0.501
402.40 0.5015
402.50 0.502
402.60 0.5025
402.70 0.503
402.80 0.5035
402.90 0.504
403.00 0.5045
403.10 0.505
403.20 0.5055
403.30 0.5061
403.40 0.5066
403.50 0.5071
403.60 0.5076
403.70 0.5081
403.80 0.5086
403.90 0.5091
404.00 0.5096
404.10 0.5101
404.20 0.5107
404.30 0.5112
404.40 0.5117
404.50 0.5122
404.60 0.5127
404.70 0.5132
404.80 0.5137
404.90 0.5142
405.00 0.5147
405.10 0.5152
405.20 0.5158
405.30 0.5163
405.40 0.5168
405.50 0.5173
405.60 0.5178
405.70 0.5183
405.80 0.5188
405.90 0.5194
406.00 0.5199
406.10 0.5204
406.20 0.5209
406.30 0.5214
406.40 0.5219
406.50 0.5224
406.60 0.5229
406.70 0.5235
406.80 0.524
406.90 0.5245
407.00 0.525
407.10 0.5255
407.20 0.526
407.30 0.5265
407.40 0.527
407.50 0.5275
407.60 0.5281
407.70 0.5286
407.80 0.5291
407.90 0.5296
408.00 0.5301
408.10 0.5307
408.20 0.5312
408.30 0.5317
408.40 0.5322
408.50 0.5327
408.60 0.5332
408.70 0.5337
408.80 0.5343
408.90 0.5348
409.00 0.5353
409.10 0.5358
409.20 0.5363
409.30 0.5368
409.40 0.5373
409.50 0.5379
409.60 0.5384
409.70 0.5389
409.80 0.5394
409.90 0.5399
410.00 0.5405
410.10 0.541
410.20 0.5415
410.30 0.542
410.40 0.5425
410.50 0.543
410.60 0.5435
410.70 0.544
410.80 0.5446
410.90 0.5451
411.00 0.5456
411.10 0.5461
411.20 0.5466
411.30 0.5472
411.40 0.5477
411.50 0.5482
411.60 0.5487
411.70 0.5492
411.80 0.5498
411.90 0.5503
412.00 0.5508
412.10 0.5513
412.20 0.5518
412.30 0.5523
412.40 0.5528
412.50 0.5534
412.60 0.5539
412.70 0.5544
412.80 0.5549
412.90 0.5554
413.00 0.5559
413.10 0.5565
413.20 0.557
413.30 0.5575
413.40 0.558
413.50 0.5586
413.60 0.5591
413.70 0.5596
413.80 0.5601
413.90 0.5606
414.00 0.5611
414.10 0.5617
414.20 0.5622
414.30 0.5627
414.40 0.5632
414.50 0.5637
414.60 0.5643
414.70 0.5648
414.80 0.5653
414.90 0.5658
415.00 0.5663
415.10 0.5669
415.20 0.5674
415.30 0.5679
415.40 0.5684
415.50 0.5689
415.60 0.5695
415.70 0.57
415.80 0.5705
415.90 0.571
416.00 0.5715
416.10 0.5721
416.20 0.5726
416.30 0.5731
416.40 0.5736
416.50 0.5741
416.60 0.5747
416.70 0.5752
416.80 0.5757
416.90 0.5762
417.00 0.5767
417.10 0.5773
417.20 0.5778
417.30 0.5783
417.40 0.5788
417.50 0.5793
417.60 0.5799
417.70 0.5804
417.80 0.5809
417.90 0.5814
418.00 0.5819
418.10 0.5825
418.20 0.583
418.30 0.5835
418.40 0.584
418.50 0.5846
418.60 0.5851
418.70 0.5856
418.80 0.5861
418.90 0.5866
419.00 0.5872
419.10 0.5877
419.20 0.5882
419.30 0.5887
419.40 0.5893
419.50 0.5898
419.60 0.5903
419.70 0.5908
419.80 0.5914
419.90 0.5919
420.00 0.5924
420.10 0.5929
420.20 0.5934
420.30 0.594
420.40 0.5945
420.50 0.595
420.60 0.5955
420.70 0.5961
420.80 0.5966
420.90 0.5971
421.00 0.5976
421.10 0.5981
421.20 0.5987
421.30 0.5992
421.40 0.5997
421.50 0.6002
421.60 0.6008
421.70 0.6013
421.80 0.6018
421.90 0.6023
422.00 0.6029
422.10 0.6034
422.20 0.6039
422.30 0.6044
422.40 0.6049
422.50 0.6055
422.60 0.606
422.70 0.6065
422.80 0.607
422.90 0.6076
423.00 0.6081
423.10 0.6086
423.20 0.6091
423.30 0.6097
423.40 0.6102
423.50 0.6107
423.60 0.6112
423.70 0.6118
423.80 0.6123
423.90 0.6128
424.00 0.6133
424.10 0.6139
424.20 0.6144
424.30 0.6149
424.40 0.6154
424.50 0.6159
424.60 0.6165
424.70 0.617
424.80 0.6175
424.90 0.618
425.00 0.6186
425.10 0.6191
425.20 0.6196
425.30 0.6201
425.40 0.6207
425.50 0.6212
425.60 0.6217
425.70 0.6222
425.80 0.6228
425.90 0.6233
426.00 0.6238
426.10 0.6244
426.20 0.6249
426.30 0.6254
426.40 0.6259
426.50 0.6264
426.60 0.627
426.70 0.6275
426.80 0.628
426.90 0.6285
427.00 0.6291
427.10 0.6296
427.20 0.6301
427.30 0.6306
427.40 0.6312
427.50 0.6317
427.60 0.6322
427.70 0.6327
427.80 0.6333
427.90 0.6338
428.00 0.6343
428.10 0.6348
428.20 0.6354
428.30 0.6359
428.40 0.6364
428.50 0.6369
428.60 0.6375
428.70 0.638
428.80 0.6385
428.90 0.639
429.00 0.6396
429.10 0.6401
429.20 0.6406
429.30 0.6411
429.40 0.6417
429.50 0.6422
429.60 0.6427
429.70 0.6432
429.80 0.6438
429.90 0.6443
430.00 0.6448
430.10 0.6454
430.20 0.6459
430.30 0.6464
430.40 0.6469
430.50 0.6475
430.60 0.648
430.70 0.6485
430.80 0.649
430.90 0.6496
431.00 0.6501
431.10 0.6506
431.20 0.6511
431.30 0.6517
431.40 0.6522
431.50 0.6527
431.60 0.6532
431.70 0.6537
431.80 0.6543
431.90 0.6548
432.00 0.6553
432.10 0.6559
432.20 0.6564
432.30 0.6569
432.40 0.6574
432.50 0.658
432.60 0.6585
432.70 0.659
432.80 0.6595
432.90 0.6601
433.00 0.6606
433.10 0.6611
433.20 0.6616
433.30 0.6622
433.40 0.6627
433.50 0.6632
433.60 0.6638
433.70 0.6643
433.80 0.6648
433.90 0.6653
434.00 0.6659
434.10 0.6664
434.20 0.6669
434.30 0.6674
434.40 0.668
434.50 0.6685
434.60 0.669
434.70 0.6695
434.80 0.6701
434.90 0.6706
435.00 0.6711
435.10 0.6716
435.20 0.6722
435.30 0.6727
435.40 0.6732
435.50 0.6737
435.60 0.6743
435.70 0.6748
435.80 0.6753
435.90 0.6758
436.00 0.6764
436.10 0.6769
436.20 0.6774
436.30 0.678
436.40 0.6785
436.50 0.679
436.60 0.6795
436.70 0.6801
436.80 0.6806
436.90 0.6811
437.00 0.6816
437.10 0.6821
437.20 0.6827
437.30 0.6832
437.40 0.6837
437.50 0.6843
437.60 0.6848
437.70 0.6853
437.80 0.6858
437.90 0.6864
438.00 0.6869
438.10 0.6874
438.20 0.6879
438.30 0.6885
438.40 0.689
438.50 0.6895
438.60 0.69
438.70 0.6906
438.80 0.6911
438.90 0.6916
439.00 0.6921
439.10 0.6927
439.20 0.6932
439.30 0.6937
439.40 0.6942
439.50 0.6948
439.60 0.6953
439.70 0.6958
439.80 0.6964
439.90 0.6969
440.00 0.6974
440.10 0.6979
440.20 0.6984
440.30 0.699
440.40 0.6995
440.50 0.7
440.60 0.7006
440.70 0.7011
440.80 0.7016
440.90 0.7021
441.00 0.7026
441.10 0.7032
441.20 0.7037
441.30 0.7042
441.40 0.7047
441.50 0.7053
441.60 0.7058
441.70 0.7063
441.80 0.7069
441.90 0.7074
442.00 0.7079
442.10 0.7084
442.20 0.709
442.30 0.7095
442.40 0.71
442.50 0.7105
442.60 0.7111
442.70 0.7116
442.80 0.7121
442.90 0.7126
443.00 0.7131
443.10 0.7137
443.20 0.7142
443.30 0.7147
443.40 0.7153
443.50 0.7158
443.60 0.7163
443.70 0.7168
443.80 0.7174
443.90 0.7179
444.00 0.7184
444.10 0.7189
444.20 0.7194
444.30 0.72
444.40 0.7205
444.50 0.721
444.60 0.7216
444.70 0.7221
444.80 0.7226
444.90 0.7231
445.00 0.7236
445.10 0.7242
445.20 0.7247
445.30 0.7252
445.40 0.7258
445.50 0.7263
445.60 0.7268
445.70 0.7273
445.80 0.7278
445.90 0.7284
446.00 0.7289
446.10 0.7294
446.20 0.7299
446.30 0.7305
446.40 0.731
446.50 0.7315
446.60 0.732
446.70 0.7326
446.80 0.7331
446.90 0.7336
447.00 0.7341
447.10 0.7346
447.20 0.7352
447.30 0.7357
447.40 0.7362
447.50 0.7367
447.60 0.7372
447.70 0.7378
447.80 0.7383
447.90 0.7388
448.00 0.7393
448.10 0.7399
448.20 0.7404
448.30 0.7409
448.40 0.7415
448.50 0.742
448.60 0.7425
448.70 0.743
448.80 0.7435
448.90 0.7441
449.00 0.7446
449.10 0.7451
449.20 0.7456
449.30 0.7462
449.40 0.7467
449.50 0.7472
449.60 0.7477
449.70 0.7482
449.80 0.7488
449.90 0.7493
450.00 0.7498
450.10 0.7503
450.20 0.7509
450.30 0.7514
450.40 0.7519
450.50 0.7524
450.60 0.7529
450.70 0.7535
450.80 0.754
450.90 0.7545
451.00 0.755
451.10 0.7555
451.20 0.7561
451.30 0.7566
451.40 0.7571
451.50 0.7576
451.60 0.7582
451.70 0.7587
451.80 0.7592
451.90 0.7597
452.00 0.7602
452.10 0.7608
452.20 0.7613
452.30 0.7618
452.40 0.7623
452.50 0.7629
452.60 0.7634
452.70 0.7639
452.80 0.7644
452.90 0.7649
453.00 0.7655
453.10 0.766
453.20 0.7665
453.30 0.767
453.40 0.7675
453.50 0.7681
453.60 0.7686
453.70 0.7691
453.80 0.7696
453.90 0.7701
454.00 0.7707
454.10 0.7712
454.20 0.7717
454.30 0.7722
454.40 0.7727
454.50 0.7733
454.60 0.7738
454.70 0.7743
454.80 0.7748
454.90 0.7753
455.00 0.7759
455.10 0.7764
455.20 0.7769
455.30 0.7774
455.40 0.7779
455.50 0.7785
455.60 0.779
455.70 0.7795
455.80 0.78
455.90 0.7805
456.00 0.7811
456.10 0.7816
456.20 0.7821
456.30 0.7826
456.40 0.7831
456.50 0.7837
456.60 0.7842
456.70 0.7847
456.80 0.7852
456.90 0.7857
457.00 0.7863
457.10 0.7868
457.20 0.7873
457.30 0.7878
457.40 0.7883
457.50 0.7888
457.60 0.7894
457.70 0.7899
457.80 0.7904
457.90 0.7909
458.00 0.7914
458.10 0.7919
458.20 0.7924
458.30 0.793
458.40 0.7935
458.50 0.794
458.60 0.7945
458.70 0.795
458.80 0.7956
458.90 0.7961
459.00 0.7966
459.10 0.7971
459.20 0.7976
459.30 0.7982
459.40 0.7987
459.50 0.7992
459.60 0.7997
459.70 0.8002
459.80 0.8007
459.90 0.8013
460.00 0.8018
460.10 0.8023
460.20 0.8028
460.30 0.8033
460.40 0.8038
460.50 0.8044
460.60 0.8049
460.70 0.8054
460.80 0.8059
460.90 0.8064
461.00 0.8069
461.10 0.8075
461.20 0.808
461.30 0.8085
461.40 0.809
461.50 0.8095
461.60 0.81
461.70 0.8105
461.80 0.8111
461.90 0.8116
462.00 0.8121
462.10 0.8126
462.20 0.8131
462.30 0.8136
462.40 0.8141
462.50 0.8147
462.60 0.8152
462.70 0.8157
462.80 0.8162
462.90 0.8167
463.00 0.8172
463.10 0.8177
463.20 0.8182
463.30 0.8188
463.40 0.8193
463.50 0.8198
463.60 0.8203
463.70 0.8208
463.80 0.8213
463.90 0.8218
464.00 0.8224
464.10 0.8229
464.20 0.8234
464.30 0.8239
464.40 0.8244
464.50 0.8249
464.60 0.8254
464.70 0.826
464.80 0.8265
464.90 0.827
465.00 0.8275
465.10 0.828
465.20 0.8285
465.30 0.829
465.40 0.8295
465.50 0.83
465.60 0.8306
465.70 0.8311
465.80 0.8316
465.90 0.8321
466.00 0.8326
466.10 0.8331
466.20 0.8336
466.30 0.8341
466.40 0.8347
466.50 0.8352
466.60 0.8357
466.70 0.8362
466.80 0.8367
466.90 0.8372
467.00 0.8377
467.10 0.8382
467.20 0.8387
467.30 0.8393
467.40 0.8398
467.50 0.8403
467.60 0.8408
467.70 0.8413
467.80 0.8418
467.90 0.8423
468.00 0.8428
468.10 0.8433
468.20 0.8438
468.30 0.8443
468.40 0.8449
468.50 0.8454
468.60 0.8459
468.70 0.8464
468.80 0.8469
468.90 0.8474
469.00 0.8479
469.10 0.8484
469.20 0.8489
469.30 0.8494
469.40 0.8499
469.50 0.8505
469.60 0.851
469.70 0.8515
469.80 0.852
469.90 0.8525
470.00 0.853
470.10 0.8535
470.20 0.854
470.30 0.8545
470.40 0.855
470.50 0.8555
470.60 0.856
470.70 0.8566
470.80 0.8571
470.90 0.8576
471.00 0.8581
471.10 0.8586
471.20 0.8591
471.30 0.8596
471.40 0.8601
471.50 0.8606
471.60 0.8611
471.70 0.8616
471.80 0.8621
471.90 0.8626
472.00 0.8631
472.10 0.8636
472.20 0.8641
472.30 0.8647
472.40 0.8652
472.50 0.8657
472.60 0.8662
472.70 0.8667
472.80 0.8672
472.90 0.8677
473.00 0.8682
473.10 0.8687
473.20 0.8692
473.30 0.8697
473.40 0.8702
473.50 0.8707
473.60 0.8712
473.70 0.8717
473.80 0.8722
473.90 0.8727
474.00 0.8732
474.10 0.8737
474.20 0.8742
474.30 0.8747
474.40 0.8752
474.50 0.8758
474.60 0.8763
474.70 0.8768
474.80 0.8773
474.90 0.8778
475.00 0.8783
475.10 0.8788
475.20 0.8793
475.30 0.8798
475.40 0.8803
475.50 0.8808
475.60 0.8813
475.70 0.8818
475.80 0.8823
475.90 0.8828
476.00 0.8833
476.10 0.8838
476.20 0.8843
476.30 0.8848
476.40 0.8853
476.50 0.8858
476.60 0.8863
476.70 0.8868
476.80 0.8873
476.90 0.8878
477.00 0.8883
477.10 0.8888
477.20 0.8893
477.30 0.8898
477.40 0.8903
477.50 0.8908
477.60 0.8913
477.70 0.8918
477.80 0.8923
477.90 0.8928
478.00 0.8933
478.10 0.8938
478.20 0.8943
478.30 0.8948
478.40 0.8953
478.50 0.8958
478.60 0.8963
478.70 0.8968
478.80 0.8973
478.90 0.8978
479.00 0.8983
479.10 0.8988
479.20 0.8993
479.30 0.8998
479.40 0.9003
479.50 0.9008
479.60 0.9013
479.70 0.9018
479.80 0.9023
479.90 0.9028
480.00 0.9033
480.10 0.9037
480.20 0.9042
480.30 0.9047
480.40 0.9052
480.50 0.9057
480.60 0.9062
480.70 0.9067
480.80 0.9072
480.90 0.9077
481.00 0.9082
481.10 0.9087
481.20 0.9092
481.30 0.9097
481.40 0.9102
481.50 0.9107
481.60 0.9112
481.70 0.9117
481.80 0.9122
481.90 0.9127
482.00 0.9132
482.10 0.9136
482.20 0.9141
482.30 0.9146
482.40 0.9151
482.50 0.9156
482.60 0.9161
482.70 0.9166
482.80 0.9171
482.90 0.9176
483.00 0.9181
483.10 0.9186
483.20 0.9191
483.30 0.9196
483.40 0.9201
483.50 0.9206
483.60 0.9211
483.70 0.9216
483.80 0.9221
483.90 0.9225
484.00 0.923
484.10 0.9235
484.20 0.924
484.30 0.9245
484.40 0.925
484.50 0.9255
484.60 0.926
484.70 0.9265
484.80 0.927
484.90 0.9275
485.00 0.928
485.10 0.9284
485.20 0.9289
485.30 0.9294
485.40 0.9299
485.50 0.9304
485.60 0.9309
485.70 0.9314
485.80 0.9319
485.90 0.9324
486.00 0.9328
486.10 0.9333
486.20 0.9338
486.30 0.9343
486.40 0.9348
486.50 0.9353
486.60 0.9358
486.70 0.9363
486.80 0.9368
486.90 0.9372
487.00 0.9377
487.10 0.9382
487.20 0.9387
487.30 0.9392
487.40 0.9397
487.50 0.9402
487.60 0.9406
487.70 0.9411
487.80 0.9416
487.90 0.9421
488.00 0.9426
488.10 0.9431
488.20 0.9436
488.30 0.9441
488.40 0.9446
488.50 0.945
488.60 0.9455
488.70 0.946
488.80 0.9465
488.90 0.947
489.00 0.9475
489.10 0.948
489.20 0.9484
489.30 0.9489
489.40 0.9494
489.50 0.9499
489.60 0.9504
489.70 0.9509
489.80 0.9513
489.90 0.9518
490.00 0.9523
490.10 0.9528
490.20 0.9533
490.30 0.9538
490.40 0.9542
490.50 0.9547
490.60 0.9552
490.70 0.9557
490.80 0.9562
490.90 0.9567
491.00 0.9571
491.10 0.9576
491.20 0.9581
491.30 0.9586
491.40 0.9591
491.50 0.9596
491.60 0.96
491.70 0.9605
491.80 0.961
491.90 0.9615
492.00 0.962
492.10 0.9624
492.20 0.9629
492.30 0.9634
492.40 0.9639
492.50 0.9644
492.60 0.9649
492.70 0.9653
492.80 0.9658
492.90 0.9663
493.00 0.9668
493.10 0.9673
493.20 0.9677
493.30 0.9682
493.40 0.9687
493.50 0.9692
493.60 0.9697
493.70 0.9701
493.80 0.9706
493.90 0.9711
494.00 0.9716
494.10 0.972
494.20 0.9725
494.30 0.973
494.40 0.9735
494.50 0.974
494.60 0.9744
494.70 0.9749
494.80 0.9754
494.90 0.9759
495.00 0.9763
495.10 0.9768
495.20 0.9773
495.30 0.9778
495.40 0.9783
495.50 0.9787
495.60 0.9792
495.70 0.9797
495.80 0.9802
495.90 0.9806
496.00 0.9811
496.10 0.9816
496.20 0.982
496.30 0.9825
496.40 0.983
496.50 0.9835
496.60 0.9839
496.70 0.9844
496.80 0.9849
496.90 0.9854
497.00 0.9858
497.10 0.9863
497.20 0.9868
497.30 0.9873
497.40 0.9877
497.50 0.9882
497.60 0.9887
497.70 0.9892
497.80 0.9896
497.90 0.9901
498.00 0.9906
498.10 0.991
498.20 0.9915
498.30 0.992
498.40 0.9925
498.50 0.9929
498.60 0.9934
498.70 0.9939
498.80 0.9944
498.90 0.9948
499.00 0.9953
499.10 0.9958
499.20 0.9962
499.30 0.9967
499.40 0.9972
499.50 0.9977
499.60 0.9981
499.70 0.9986
499.80 0.9991
499.90 0.9995
500.00 1
500.10 1
500.20 1.001
500.30 1.001
500.40 1.002
500.50 1.002
500.60 1.003
500.70 1.003
500.80 1.004
500.90 1.004
501.00 1.005
501.10 1.005
501.20 1.006
501.30 1.006
501.40 1.007
501.50 1.007
501.60 1.007
501.70 1.008
501.80 1.008
501.90 1.009
502.00 1.009
502.10 1.01
502.20 1.01
502.30 1.011
502.40 1.011
502.50 1.012
502.60 1.012
502.70 1.013
502.80 1.013
502.90 1.014
503.00 1.014
503.10 1.014
503.20 1.015
503.30 1.015
503.40 1.016
503.50 1.016
503.60 1.017
503.70 1.017
503.80 1.018
503.90 1.018
504.00 1.019
504.10 1.019
504.20 1.02
504.30 1.02
504.40 1.02
504.50 1.021
504.60 1.021
504.70 1.022
504.80 1.022
504.90 1.023
505.00 1.023
505.10 1.024
505.20 1.024
505.30 1.025
505.40 1.025
505.50 1.026
505.60 1.026
505.70 1.026
505.80 1.027
505.90 1.027
506.00 1.028
506.10 1.028
506.20 1.029
506.30 1.029
506.40 1.03
506.50 1.03
506.60 1.031
506.70 1.031
506.80 1.032
506.90 1.032
507.00 1.032
507.10 1.033
507.20 1.033
507.30 1.034
507.40 1.034
507.50 1.035
507.60 1.035
507.70 1.036
507.80 1.036
507.90 1.037
508.00 1.037
508.10 1.037
508.20 1.038
508.30 1.038
508.40 1.039
508.50 1.039
508.60 1.04
508.70 1.04
508.80 1.041
508.90 1.041
509.00 1.042
509.10 1.042
509.20 1.042
509.30 1.043
509.40 1.043
509.50 1.044
509.60 1.044
509.70 1.045
509.80 1.045
509.90 1.046
510.00 1.046
510.10 1.047
510.20 1.047
510.30 1.047
510.40 1.048
510.50 1.048
510.60 1.049
510.70 1.049
510.80 1.05
510.90 1.05
511.00 1.051
511.10 1.051
511.20 1.052
511.30 1.052
511.40 1.052
511.50 1.053
511.60 1.053
511.70 1.054
511.80 1.054
511.90 1.055
512.00 1.055
512.10 1.056
512.20 1.056
512.30 1.056
512.40 1.057
512.50 1.057
512.60 1.058
512.70 1.058
512.80 1.059
512.90 1.059
513.00 1.06
513.10 1.06
513.20 1.061
513.30 1.061
513.40 1.061
513.50 1.062
513.60 1.062
513.70 1.063
513.80 1.063
513.90 1.064
514.00 1.064
514.10 1.065
514.20 1.065
514.30 1.065
514.40 1.066
514.50 1.066
514.60 1.067
514.70 1.067
514.80 1.068
514.90 1.068
515.00 1.069
515.10 1.069
515.20 1.069
515.30 1.07
515.40 1.07
515.50 1.071
515.60 1.071
515.70 1.072
515.80 1.072
515.90 1.073
516.00 1.073
516.10 1.073
516.20 1.074
516.30 1.074
516.40 1.075
516.50 1.075
516.60 1.076
516.70 1.076
516.80 1.076
516.90 1.077
517.00 1.077
517.10 1.078
517.20 1.078
517.30 1.079
517.40 1.079
517.50 1.08
517.60 1.08
517.70 1.08
517.80 1.081
517.90 1.081
518.00 1.082
518.10 1.082
518.20 1.083
518.30 1.083
518.40 1.084
518.50 1.084
518.60 1.084
518.70 1.085
518.80 1.085
518.90 1.086
519.00 1.086
519.10 1.087
519.20 1.087
519.30 1.087
519.40 1.088
519.50 1.088
519.60 1.089
519.70 1.089
519.80 1.09
519.90 1.09
520.00 1.091
520.10 1.091
520.20 1.091
520.30 1.092
520.40 1.092
520.50 1.093
520.60 1.093
520.70 1.094
520.80 1.094
520.90 1.094
521.00 1.095
521.10 1.095
521.20 1.096
521.30 1.096
521.40 1.097
521.50 1.097
521.60 1.097
521.70 1.098
521.80 1.098
521.90 1.099
522.00 1.099
522.10 1.1
522.20 1.1
522.30 1.1
522.40 1.101
522.50 1.101
522.60 1.102
522.70 1.102
522.80 1.103
522.90 1.103
523.00 1.103
523.10 1.104
523.20 1.104
523.30 1.105
523.40 1.105
523.50 1.106
523.60 1.106
523.70 1.106
523.80 1.107
523.90 1.107
524.00 1.108
524.10 1.108
524.20 1.109
524.30 1.109
524.40 1.109
524.50 1.11
524.60 1.11
524.70 1.111
524.80 1.111
524.90 1.112
525.00 1.112
525.10 1.112
525.20 1.113
525.30 1.113
525.40 1.114
525.50 1.114
525.60 1.115
525.70 1.115
525.80 1.115
525.90 1.116
526.00 1.116
526.10 1.117
526.20 1.117
526.30 1.118
526.40 1.118
526.50 1.118
526.60 1.119
526.70 1.119
526.80 1.12
526.90 1.12
527.00 1.12
527.10 1.121
527.20 1.121
527.30 1.122
527.40 1.122
527.50 1.123
527.60 1.123
527.70 1.123
527.80 1.124
527.90 1.124
528.00 1.125
528.10 1.125
528.20 1.126
528.30 1.126
528.40 1.126
528.50 1.127
528.60 1.127
528.70 1.128
528.80 1.128
528.90 1.128
529.00 1.129
529.10 1.129
529.20 1.13
529.30 1.13
529.40 1.131
529.50 1.131
529.60 1.131
529.70 1.132
529.80 1.132
529.90 1.133
530.00 1.133
530.10 1.133
530.20 1.134
530.30 1.134
530.40 1.135
530.50 1.135
530.60 1.136
530.70 1.136
530.80 1.136
530.90 1.137
531.00 1.137
531.10 1.138
531.20 1.138
531.30 1.138
531.40 1.139
531.50 1.139
531.60 1.14
531.70 1.14
531.80 1.14
531.90 1.141
532.00 1.141
532.10 1.142
532.20 1.142
532.30 1.143
532.40 1.143
532.50 1.143
532.60 1.144
532.70 1.144
532.80 1.145
532.90 1.145
533.00 1.145
533.10 1.146
533.20 1.146
533.30 1.147
533.40 1.147
533.50 1.147
533.60 1.148
533.70 1.148
533.80 1.149
533.90 1.149
534.00 1.15
534.10 1.15
534.20 1.15
534.30 1.151
534.40 1.151
534.50 1.152
534.60 1.152
534.70 1.152
534.80 1.153
534.90 1.153
535.00 1.154
535.10 1.154
535.20 1.154
535.30 1.155
535.40 1.155
535.50 1.156
535.60 1.156
535.70 1.156
535.80 1.157
535.90 1.157
536.00 1.158
536.10 1.158
536.20 1.158
536.30 1.159
536.40 1.159
536.50 1.16
536.60 1.16
536.70 1.16
536.80 1.161
536.90 1.161
537.00 1.162
537.10 1.162
537.20 1.162
537.30 1.163
537.40 1.163
537.50 1.164
537.60 1.164
537.70 1.164
537.80 1.165
537.90 1.165
538.00 1.166
538.10 1.166
538.20 1.166
538.30 1.167
538.40 1.167
538.50 1.168
538.60 1.168
538.70 1.168
538.80 1.169
538.90 1.169
539.00 1.17
539.10 1.17
539.20 1.17
539.30 1.171
539.40 1.171
539.50 1.172
539.60 1.172
539.70 1.172
539.80 1.173
539.90 1.173
540.00 1.174
540.10 1.174
540.20 1.174
540.30 1.175
540.40 1.175
540.50 1.176
540.60 1.176
540.70 1.176
540.80 1.177
540.90 1.177
541.00 1.178
541.10 1.178
541.20 1.178
541.30 1.179
541.40 1.179
541.50 1.18
541.60 1.18
541.70 1.18
541.80 1.181
541.90 1.181
542.00 1.181
542.10 1.182
542.20 1.182
542.30 1.183
542.40 1.183
542.50 1.183
542.60 1.184
542.70 1.184
542.80 1.185
542.90 1.185
543.00 1.185
543.10 1.186
543.20 1.186
543.30 1.187
543.40 1.187
543.50 1.187
543.60 1.188
543.70 1.188
543.80 1.188
543.90 1.189
544.00 1.189
544.10 1.19
544.20 1.19
544.30 1.19
544.40 1.191
544.50 1.191
544.60 1.192
544.70 1.192
544.80 1.192
544.90 1.193
545.00 1.193
545.10 1.194
545.20 1.194
545.30 1.194
545.40 1.195
545.50 1.195
545.60 1.195
545.70 1.196
545.80 1.196
545.90 1.197
546.00 1.197
546.10 1.197
546.20 1.198
546.30 1.198
546.40 1.198
546.50 1.199
546.60 1.199
546.70 1.2
546.80 1.2
546.90 1.2
547.00 1.201
547.10 1.201
547.20 1.202
547.30 1.202
547.40 1.202
547.50 1.203
547.60 1.203
547.70 1.203
547.80 1.204
547.90 1.204
548.00 1.205
548.10 1.205
548.20 1.205
548.30 1.206
548.40 1.206
548.50 1.206
548.60 1.207
548.70 1.207
548.80 1.208
548.90 1.208
549.00 1.208
549.10 1.209
549.20 1.209
549.30 1.209
549.40 1.21
549.50 1.21
549.60 1.211
549.70 1.211
549.80 1.211
549.90 1.212
550.00 1.212
550.10 1.212
550.20 1.213
550.30 1.213
550.40 1.214
550.50 1.214
550.60 1.214
550.70 1.215
550.80 1.215
550.90 1.215
551.00 1.216
551.10 1.216
551.20 1.217
551.30 1.217
551.40 1.217
551.50 1.218
551.60 1.218
551.70 1.218
551.80 1.219
551.90 1.219
552.00 1.22
552.10 1.22
552.20 1.22
552.30 1.221
552.40 1.221
552.50 1.221
552.60 1.222
552.70 1.222
552.80 1.222
552.90 1.223
553.00 1.223
553.10 1.224
553.20 1.224
553.30 1.224
553.40 1.225
553.50 1.225
553.60 1.225
553.70 1.226
553.80 1.226
553.90 1.227
554.00 1.227
554.10 1.227
554.20 1.228
554.30 1.228
554.40 1.228
554.50 1.229
554.60 1.229
554.70 1.229
554.80 1.23
554.90 1.23
555.00 1.231
555.10 1.231
555.20 1.231
555.30 1.232
555.40 1.232
555.50 1.232
555.60 1.233
555.70 1.233
555.80 1.233
555.90 1.234
556.00 1.234
556.10 1.234
556.20 1.235
556.30 1.235
556.40 1.236
556.50 1.236
556.60 1.236
556.70 1.237
556.80 1.237
556.90 1.237
557.00 1.238
557.10 1.238
557.20 1.238
557.30 1.239
557.40 1.239
557.50 1.24
557.60 1.24
557.70 1.24
557.80 1.241
557.90 1.241
558.00 1.241
558.10 1.242
558.20 1.242
558.30 1.242
558.40 1.243
558.50 1.243
558.60 1.243
558.70 1.244
558.80 1.244
558.90 1.245
559.00 1.245
559.10 1.245
559.20 1.246
559.30 1.246
559.40 1.246
559.50 1.247
559.60 1.247
559.70 1.247
559.80 1.248
559.90 1.248
560.00 1.248
560.10 1.249
560.20 1.249
560.30 1.249
560.40 1.25
560.50 1.25
560.60 1.251
560.70 1.251
560.80 1.251
560.90 1.252
561.00 1.252
561.10 1.252
561.20 1.253
561.30 1.253
561.40 1.253
561.50 1.254
561.60 1.254
561.70 1.254
561.80 1.255
561.90 1.255
562.00 1.255
562.10 1.256
562.20 1.256
562.30 1.256
562.40 1.257
562.50 1.257
562.60 1.257
562.70 1.258
562.80 1.258
562.90 1.258
563.00 1.259
563.10 1.259
563.20 1.26
563.30 1.26
563.40 1.26
563.50 1.261
563.60 1.261
563.70 1.261
563.80 1.262
563.90 1.262
564.00 1.262
564.10 1.263
564.20 1.263
564.30 1.263
564.40 1.264
564.50 1.264
564.60 1.264
564.70 1.265
564.80 1.265
564.90 1.265
565.00 1.266
565.10 1.266
565.20 1.266
565.30 1.267
565.40 1.267
565.50 1.267
565.60 1.268
565.70 1.268
565.80 1.268
565.90 1.269
566.00 1.269
566.10 1.269
566.20 1.27
566.30 1.27
566.40 1.27
566.50 1.271
566.60 1.271
566.70 1.271
566.80 1.272
566.90 1.272
567.00 1.272
567.10 1.273
567.20 1.273
567.30 1.273
567.40 1.274
567.50 1.274
567.60 1.274
567.70 1.275
567.80 1.275
567.90 1.275
568.00 1.276
568.10 1.276
568.20 1.276
568.30 1.277
568.40 1.277
568.50 1.277
568.60 1.278
568.70 1.278
568.80 1.278
568.90 1.279
569.00 1.279
569.10 1.279
569.20 1.28
569.30 1.28
569.40 1.28
569.50 1.281
569.60 1.281
569.70 1.281
569.80 1.282
569.90 1.282
570.00 1.282
570.10 1.283
570.20 1.283
570.30 1.283
570.40 1.284
570.50 1.284
570.60 1.284
570.70 1.285
570.80 1.285
570.90 1.285
571.00 1.286
571.10 1.286
571.20 1.286
571.30 1.287
571.40 1.287
571.50 1.287
571.60 1.288
571.70 1.288
571.80 1.288
571.90 1.289
572.00 1.289
572.10 1.289
572.20 1.29
572.30 1.29
572.40 1.29
572.50 1.291
572.60 1.291
572.70 1.291
572.80 1.292
572.90 1.292
573.00 1.292
573.10 1.292
573.20 1.293
573.30 1.293
573.40 1.293
573.50 1.294
573.60 1.294
573.70 1.294
573.80 1.295
573.90 1.295
574.00 1.295
574.10 1.296
574.20 1.296
574.30 1.296
574.40 1.297
574.50 1.297
574.60 1.297
574.70 1.298
574.80 1.298
574.90 1.298
575.00 1.299
575.10 1.299
575.20 1.299
575.30 1.299
575.40 1.3
575.50 1.3
575.60 1.3
575.70 1.301
575.80 1.301
575.90 1.301
576.00 1.302
576.10 1.302
576.20 1.302
576.30 1.303
576.40 1.303
576.50 1.303
576.60 1.304
576.70 1.304
576.80 1.304
576.90 1.305
577.00 1.305
577.10 1.305
577.20 1.305
577.30 1.306
577.40 1.306
577.50 1.306
577.60 1.307
577.70 1.307
577.80 1.307
577.90 1.308
578.00 1.308
578.10 1.308
578.20 1.309
578.30 1.309
578.40 1.309
578.50 1.309
578.60 1.31
578.70 1.31
578.80 1.31
578.90 1.311
579.00 1.311
579.10 1.311
579.20 1.312
579.30 1.312
579.40 1.312
579.50 1.313
579.60 1.313
579.70 1.313
579.80 1.313
579.90 1.314
580.00 1.314
580.10 1.314
580.20 1.315
580.30 1.315
580.40 1.315
580.50 1.316
580.60 1.316
580.70 1.316
580.80 1.316
580.90 1.317
581.00 1.317
581.10 1.317
581.20 1.318
581.30 1.318
581.40 1.318
581.50 1.319
581.60 1.319
581.70 1.319
581.80 1.319
581.90 1.32
582.00 1.32
582.10 1.32
582.20 1.321
582.30 1.321
582.40 1.321
582.50 1.322
582.60 1.322
582.70 1.322
582.80 1.322
582.90 1.323
583.00 1.323
583.10 1.323
583.20 1.324
583.30 1.324
583.40 1.324
583.50 1.325
583.60 1.325
583.70 1.325
583.80 1.325
583.90 1.326
584.00 1.326
584.10 1.326
584.20 1.327
584.30 1.327
584.40 1.327
584.50 1.327
584.60 1.328
584.70 1.328
584.80 1.328
584.90 1.329
585.00 1.329
585.10 1.329
585.20 1.33
585.30 1.33
585.40 1.33
585.50 1.33
585.60 1.331
585.70 1.331
585.80 1.331
585.90 1.332
586.00 1.332
586.10 1.332
586.20 1.332
586.30 1.333
586.40 1.333
586.50 1.333
586.60 1.334
586.70 1.334
586.80 1.334
586.90 1.334
587.00 1.335
587.10 1.335
587.20 1.335
587.30 1.336
587.40 1.336
587.50 1.336
587.60 1.336
587.70 1.337
587.80 1.337
587.90 1.337
588.00 1.338
588.10 1.338
588.20 1.338
588.30 1.338
588.40 1.339
588.50 1.339
588.60 1.339
588.70 1.34
588.80 1.34
588.90 1.34
589.00 1.34
589.10 1.341
589.20 1.341
589.30 1.341
589.40 1.342
589.50 1.342
589.60 1.342
589.70 1.342
589.80 1.343
589.90 1.343
590.00 1.343
590.10 1.343
590.20 1.344
590.30 1.344
590.40 1.344
590.50 1.345
590.60 1.345
590.70 1.345
590.80 1.345
590.90 1.346
591.00 1.346
591.10 1.346
591.20 1.347
591.30 1.347
591.40 1.347
591.50 1.347
591.60 1.348
591.70 1.348
591.80 1.348
591.90 1.348
592.00 1.349
592.10 1.349
592.20 1.349
592.30 1.35
592.40 1.35
592.50 1.35
592.60 1.35
592.70 1.351
592.80 1.351
592.90 1.351
593.00 1.351
593.10 1.352
593.20 1.352
593.30 1.352
593.40 1.352
593.50 1.353
593.60 1.353
593.70 1.353
593.80 1.354
593.90 1.354
594.00 1.354
594.10 1.354
594.20 1.355
594.30 1.355
594.40 1.355
594.50 1.355
594.60 1.356
594.70 1.356
594.80 1.356
594.90 1.357
595.00 1.357
595.10 1.357
595.20 1.357
595.30 1.358
595.40 1.358
595.50 1.358
595.60 1.358
595.70 1.359
595.80 1.359
595.90 1.359
596.00 1.359
596.10 1.36
596.20 1.36
596.30 1.36
596.40 1.36
596.50 1.361
596.60 1.361
596.70 1.361
596.80 1.362
596.90 1.362
597.00 1.362
597.10 1.362
597.20 1.363
597.30 1.363
597.40 1.363
597.50 1.363
597.60 1.364
597.70 1.364
597.80 1.364
597.90 1.364
598.00 1.365
598.10 1.365
598.20 1.365
598.30 1.365
598.40 1.366
598.50 1.366
598.60 1.366
598.70 1.366
598.80 1.367
598.90 1.367
599.00 1.367
599.10 1.367
599.20 1.368
599.30 1.368
599.40 1.368
599.50 1.368
599.60 1.369
599.70 1.369
599.80 1.369
599.90 1.369
600.00 1.37
600.10 1.37
600.20 1.37
600.30 1.37
600.40 1.371
600.50 1.371
600.60 1.371
600.70 1.371
600.80 1.372
600.90 1.372
601.00 1.372
601.10 1.372
601.20 1.373
601.30 1.373
601.40 1.373
601.50 1.373
601.60 1.374
601.70 1.374
601.80 1.374
601.90 1.374
602.00 1.375
602.10 1.375
602.20 1.375
602.30 1.375
602.40 1.376
602.50 1.376
602.60 1.376
602.70 1.376
602.80 1.377
602.90 1.377
603.00 1.377
603.10 1.377
603.20 1.378
603.30 1.378
603.40 1.378
603.50 1.378
603.60 1.379
603.70 1.379
603.80 1.379
603.90 1.379
604.00 1.38
604.10 1.38
604.20 1.38
604.30 1.38
604.40 1.38
604.50 1.381
604.60 1.381
604.70 1.381
604.80 1.381
604.90 1.382
605.00 1.382
605.10 1.382
605.20 1.382
605.30 1.383
605.40 1.383
605.50 1.383
605.60 1.383
605.70 1.384
605.80 1.384
605.90 1.384
606.00 1.384
606.10 1.385
606.20 1.385
606.30 1.385
606.40 1.385
606.50 1.385
606.60 1.386
606.70 1.386
606.80 1.386
606.90 1.386
607.00 1.387
607.10 1.387
607.20 1.387
607.30 1.387
607.40 1.388
607.50 1.388
607.60 1.388
607.70 1.388
607.80 1.388
607.90 1.389
608.00 1.389
608.10 1.389
608.20 1.389
608.30 1.39
608.40 1.39
608.50 1.39
608.60 1.39
608.70 1.391
608.80 1.391
608.90 1.391
609.00 1.391
609.10 1.391
609.20 1.392
609.30 1.392
609.40 1.392
609.50 1.392
609.60 1.393
609.70 1.393
609.80 1.393
609.90 1.393
610.00 1.393
610.10 1.394
610.20 1.394
610.30 1.394
610.40 1.394
610.50 1.395
610.60 1.395
610.70 1.395
610.80 1.395
610.90 1.395
611.00 1.396
611.10 1.396
611.20 1.396
611.30 1.396
611.40 1.397
611.50 1.397
611.60 1.397
611.70 1.397
611.80 1.397
611.90 1.398
612.00 1.398
612.10 1.398
612.20 1.398
612.30 1.398
612.40 1.399
612.50 1.399
612.60 1.399
612.70 1.399
612.80 1.4
612.90 1.4
613.00 1.4
613.10 1.4
613.20 1.4
613.30 1.401
613.40 1.401
613.50 1.401
613.60 1.401
613.70 1.401
613.80 1.402
613.90 1.402
614.00 1.402
614.10 1.402
614.20 1.403
614.30 1.403
614.40 1.403
614.50 1.403
614.60 1.403
614.70 1.404
614.80 1.404
614.90 1.404
615.00 1.404
615.10 1.404
615.20 1.405
615.30 1.405
615.40 1.405
615.50 1.405
615.60 1.405
615.70 1.406
615.80 1.406
615.90 1.406
616.00 1.406
616.10 1.406
616.20 1.407
616.30 1.407
616.40 1.407
616.50 1.407
616.60 1.407
616.70 1.408
616.80 1.408
616.90 1.408
617.00 1.408
617.10 1.408
617.20 1.409
617.30 1.409
617.40 1.409
617.50 1.409
617.60 1.409
617.70 1.41
617.80 1.41
617.90 1.41
618.00 1.41
618.10 1.41
618.20 1.411
618.30 1.411
618.40 1.411
618.50 1.411
618.60 1.411
618.70 1.412
618.80 1.412
618.90 1.412
619.00 1.412
619.10 1.412
619.20 1.413
619.30 1.413
619.40 1.413
619.50 1.413
619.60 1.413
619.70 1.414
619.80 1.414
619.90 1.414
620.00 1.414
620.10 1.414
620.20 1.415
620.30 1.415
620.40 1.415
620.50 1.415
620.60 1.415
620.70 1.415
620.80 1.416
620.90 1.416
621.00 1.416
621.10 1.416
621.20 1.416
621.30 1.417
621.40 1.417
621.50 1.417
621.60 1.417
621.70 1.417
621.80 1.418
621.90 1.418
622.00 1.418
622.10 1.418
622.20 1.418
622.30 1.418
622.40 1.419
622.50 1.419
622.60 1.419
622.70 1.419
622.80 1.419
622.90 1.42
623.00 1.42
623.10 1.42
623.20 1.42
623.30 1.42
623.40 1.42
623.50 1.421
623.60 1.421
623.70 1.421
623.80 1.421
623.90 1.421
624.00 1.422
624.10 1.422
624.20 1.422
624.30 1.422
624.40 1.422
624.50 1.422
624.60 1.423
624.70 1.423
624.80 1.423
624.90 1.423
625.00 1.423
625.10 1.424
625.20 1.424
625.30 1.424
625.40 1.424
625.50 1.424
625.60 1.424
625.70 1.425
625.80 1.425
625.90 1.425
626.00 1.425
626.10 1.425
626.20 1.425
626.30 1.426
626.40 1.426
626.50 1.426
626.60 1.426
626.70 1.426
626.80 1.426
626.90 1.427
627.00 1.427
627.10 1.427
627.20 1.427
627.30 1.427
627.40 1.427
627.50 1.428
627.60 1.428
627.70 1.428
627.80 1.428
627.90 1.428
628.00 1.428
628.10 1.429
628.20 1.429
628.30 1.429
628.40 1.429
628.50 1.429
628.60 1.429
628.70 1.43
628.80 1.43
628.90 1.43
629.00 1.43
629.10 1.43
629.20 1.43
629.30 1.431
629.40 1.431
629.50 1.431
629.60 1.431
629.70 1.431
629.80 1.431
629.90 1.431
630.00 1.432
630.10 1.432
630.20 1.432
630.30 1.432
630.40 1.432
630.50 1.432
630.60 1.433
630.70 1.433
630.80 1.433
630.90 1.433
631.00 1.433
631.10 1.433
631.20 1.434
631.30 1.434
631.40 1.434
631.50 1.434
631.60 1.434
631.70 1.434
631.80 1.434
631.90 1.435
632.00 1.435
632.10 1.435
632.20 1.435
632.30 1.435
632.40 1.435
632.50 1.435
632.60 1.436
632.70 1.436
632.80 1.436
632.90 1.436
633.00 1.436
633.10 1.436
633.20 1.436
633.30 1.437
633.40 1.437
633.50 1.437
633.60 1.437
633.70 1.437
633.80 1.437
633.90 1.438
634.00 1.438
634.10 1.438
634.20 1.438
634.30 1.438
634.40 1.438
634.50 1.438
634.60 1.438
634.70 1.439
634.80 1.439
634.90 1.439
635.00 1.439
635.10 1.439
635.20 1.439
635.30 1.439
635.40 1.44
635.50 1.44
635.60 1.44
635.70 1.44
635.80 1.44
635.90 1.44
636.00 1.44
636.10 1.441
636.20 1.441
636.30 1.441
636.40 1.441
636.50 1.441
636.60 1.441
636.70 1.441
636.80 1.441
636.90 1.442
637.00 1.442
637.10 1.442
637.20 1.442
637.30 1.442
637.40 1.442
637.50 1.442
637.60 1.443
637.70 1.443
637.80 1.443
637.90 1.443
638.00 1.443
638.10 1.443
638.20 1.443
638.30 1.443
638.40 1.444
638.50 1.444
638.60 1.444
638.70 1.444
638.80 1.444
638.90 1.444
639.00 1.444
639.10 1.444
639.20 1.445
639.30 1.445
639.40 1.445
639.50 1.445
639.60 1.445
639.70 1.445
639.80 1.445
639.90 1.445
640.00 1.445
640.10 1.446
640.20 1.446
640.30 1.446
640.40 1.446
640.50 1.446
640.60 1.446
640.70 1.446
640.80 1.446
640.90 1.447
641.00 1.447
641.10 1.447
641.20 1.447
641.30 1.447
641.40 1.447
641.50 1.447
641.60 1.447
641.70 1.447
641.80 1.448
641.90 1.448
642.00 1.448
642.10 1.448
642.20 1.448
642.30 1.448
642.40 1.448
642.50 1.448
642.60 1.448
642.70 1.449
642.80 1.449
642.90 1.449
643.00 1.449
643.10 1.449
643.20 1.449
643.30 1.449
643.40 1.449
643.50 1.449
643.60 1.449
643.70 1.45
643.80 1.45
643.90 1.45
644.00 1.45
644.10 1.45
644.20 1.45
644.30 1.45
644.40 1.45
644.50 1.45
644.60 1.45
644.70 1.451
644.80 1.451
644.90 1.451
645.00 1.451
645.10 1.451
645.20 1.451
645.30 1.451
645.40 1.451
645.50 1.451
645.60 1.451
645.70 1.451
645.80 1.452
645.90 1.452
646.00 1.452
646.10 1.452
646.20 1.452
646.30 1.452
646.40 1.452
646.50 1.452
646.60 1.452
646.70 1.452
646.80 1.452
646.90 1.453
647.00 1.453
647.10 1.453
647.20 1.453
647.30 1.453
647.40 1.453
647.50 1.453
647.60 1.453
647.70 1.453
647.80 1.453
647.90 1.453
648.00 1.453
648.10 1.454
648.20 1.454
648.30 1.454
648.40 1.454
648.50 1.454
648.60 1.454
648.70 1.454
648.80 1.454
648.90 1.454
649.00 1.454
649.10 1.454
649.20 1.454
649.30 1.455
649.40 1.455
649.50 1.455
649.60 1.455
649.70 1.455
649.80 1.455
649.90 1.455
650.00 1.455
650.10 1.455
650.20 1.455
650.30 1.455
650.40 1.455
650.50 1.455
650.60 1.455
650.70 1.456
650.80 1.456
650.90 1.456
651.00 1.456
651.10 1.456
651.20 1.456
651.30 1.456
651.40 1.456
651.50 1.456
651.60 1.456
651.70 1.456
651.80 1.456
651.90 1.456
652.00 1.456
652.10 1.456
652.20 1.456
652.30 1.457
652.40 1.457
652.50 1.457
652.60 1.457
652.70 1.457
652.80 1.457
652.90 1.457
653.00 1.457
653.10 1.457
653.20 1.457
653.30 1.457
653.40 1.457
653.50 1.457
653.60 1.457
653.70 1.457
653.80 1.457
653.90 1.457
654.00 1.457
654.10 1.458
654.20 1.458
654.30 1.458
654.40 1.458
654.50 1.458
654.60 1.458
654.70 1.458
654.80 1.458
654.90 1.458
655.00 1.458
655.10 1.458
655.20 1.458
655.30 1.458
655.40 1.458
655.50 1.458
655.60 1.458
655.70 1.458
655.80 1.458
655.90 1.458
656.00 1.458
656.10 1.458
656.20 1.458
656.30 1.459
656.40 1.459
656.50 1.459
656.60 1.459
656.70 1.459
656.80 1.459
656.90 1.459
657.00 1.459
657.10 1.459
657.20 1.459
657.30 1.459
657.40 1.459
657.50 1.459
657.60 1.459
657.70 1.459
657.80 1.459
657.90 1.459
658.00 1.459
658.10 1.459
658.20 1.459
658.30 1.459
658.40 1.459
658.50 1.459
658.60 1.459
658.70 1.459
658.80 1.459
658.90 1.459
659.00 1.459
659.10 1.459
659.20 1.459
659.30 1.459
659.40 1.459
659.50 1.459
659.60 1.459
659.70 1.459
659.80 1.46
659.90 1.46
660.00 1.46
660.10 1.46
660.20 1.46
660.30 1.46
660.40 1.46
660.50 1.46
660.60 1.46
660.70 1.46
660.80 1.46
660.90 1.46
661.00 1.46
661.10 1.46
661.20 1.46
661.30 1.46
661.40 1.46
661.50 1.46
661.60 1.46
661.70 1.46
661.80 1.46
661.90 1.46
662.00 1.46
662.10 1.46
662.20 1.46
662.30 1.46
662.40 1.46
662.50 1.46
662.60 1.46
662.70 1.46
662.80 1.46
662.90 1.46
663.00 1.46
663.10 1.46
663.20 1.46
663.30 1.46
663.40 1.46
663.50 1.46
663.60 1.46
663.70 1.46
663.80 1.46
663.90 1.46
664.00 1.46
664.10 1.46
664.20 1.46
664.30 1.46
664.40 1.46
664.50 1.46
664.60 1.46
664.70 1.46
664.80 1.46
664.90 1.46
665.00 1.46
665.10 1.46
665.20 1.46
665.30 1.46
665.40 1.46
665.50 1.46
665.60 1.46
665.70 1.459
665.80 1.459
665.90 1.459
666.00 1.459
666.10 1.459
666.20 1.459
666.30 1.459
666.40 1.459
666.50 1.459
666.60 1.459
666.70 1.459
666.80 1.459
666.90 1.459
667.00 1.459
667.10 1.459
667.20 1.459
667.30 1.459
667.40 1.459
667.50 1.459
667.60 1.459
667.70 1.459
667.80 1.459
667.90 1.459
668.00 1.459
668.10 1.459
668.20 1.459
668.30 1.459
668.40 1.459
668.50 1.459
668.60 1.459
668.70 1.459
668.80 1.459
668.90 1.458
669.00 1.458
669.10 1.458
669.20 1.458
669.30 1.458
669.40 1.458
669.50 1.458
669.60 1.458
669.70 1.458
669.80 1.458
669.90 1.458
670.00 1.458
670.10 1.458
670.20 1.458
670.30 1.458
670.40 1.458
670.50 1.458
670.60 1.458
670.70 1.458
670.80 1.457
670.90 1.457
671.00 1.457
671.10 1.457
671.20 1.457
671.30 1.457
671.40 1.457
671.50 1.457
671.60 1.457
671.70 1.457
671.80 1.457
671.90 1.457
672.00 1.457
672.10 1.457
672.20 1.457
672.30 1.457
672.40 1.456
672.50 1.456
672.60 1.456
672.70 1.456
672.80 1.456
672.90 1.456
673.00 1.456
673.10 1.456
673.20 1.456
673.30 1.456
673.40 1.456
673.50 1.456
673.60 1.456
673.70 1.455
673.80 1.455
673.90 1.455
674.00 1.455
674.10 1.455
674.20 1.455
674.30 1.455
674.40 1.455
674.50 1.455
674.60 1.455
674.70 1.455
674.80 1.455
674.90 1.454
675.00 1.454
675.10 1.454
675.20 1.454
675.30 1.454
675.40 1.454
675.50 1.454
675.60 1.454
675.70 1.454
675.80 1.454
675.90 1.453
676.00 1.453
676.10 1.453
676.20 1.453
676.30 1.453
676.40 1.453
676.50 1.453
676.60 1.453
676.70 1.453
676.80 1.452
676.90 1.452
677.00 1.452
677.10 1.452
677.20 1.452
677.30 1.452
677.40 1.452
677.50 1.452
677.60 1.452
677.70 1.451
677.80 1.451
677.90 1.451
678.00 1.451
678.10 1.451
678.20 1.451
678.30 1.451
678.40 1.451
678.50 1.451
678.60 1.45
678.70 1.45
678.80 1.45
678.90 1.45
679.00 1.45
679.10 1.45
679.20 1.45
679.30 1.449
679.40 1.449
679.50 1.449
679.60 1.449
679.70 1.449
679.80 1.449
679.90 1.449
680.00 1.449
680.10 1.448
680.20 1.448
680.30 1.448
680.40 1.448
680.50 1.448
680.60 1.448
680.70 1.448
680.80 1.447
680.90 1.447
681.00 1.447
681.10 1.447
681.20 1.447
681.30 1.447
681.40 1.446
681.50 1.446
681.60 1.446
681.70 1.446
681.80 1.446
681.90 1.446
682.00 1.446
682.10 1.445
682.20 1.445
682.30 1.445
682.40 1.445
682.50 1.445
682.60 1.445
682.70 1.444
682.80 1.444
682.90 1.444
683.00 1.444
683.10 1.444
683.20 1.444
683.30 1.443
683.40 1.443
683.50 1.443
683.60 1.443
683.70 1.443
683.80 1.443
683.90 1.442
684.00 1.442
684.10 1.442
684.20 1.442
684.30 1.442
684.40 1.441
684.50 1.441
684.60 1.441
684.70 1.441
684.80 1.441
684.90 1.44
685.00 1.44
685.10 1.44
685.20 1.44
685.30 1.44
685.40 1.439
685.50 1.439
685.60 1.439
685.70 1.439
685.80 1.439
685.90 1.438
686.00 1.438
686.10 1.438
686.20 1.438
686.30 1.438
686.40 1.437
686.50 1.437
686.60 1.437
686.70 1.437
686.80 1.437
686.90 1.436
687.00 1.436
687.10 1.436
687.20 1.436
687.30 1.436
687.40 1.435
687.50 1.435
687.60 1.435
687.70 1.435
687.80 1.434
687.90 1.434
688.00 1.434
688.10 1.434
688.20 1.434
688.30 1.433
688.40 1.433
688.50 1.433
688.60 1.433
688.70 1.432
688.80 1.432
688.90 1.432
689.00 1.432
689.10 1.431
689.20 1.431
689.30 1.431
689.40 1.431
689.50 1.43
689.60 1.43
689.70 1.43
689.80 1.43
689.90 1.429
690.00 1.429
690.10 1.429
690.20 1.428
690.30 1.428
690.40 1.428
690.50 1.428
690.60 1.427
690.70 1.427
690.80 1.427
690.90 1.427
691.00 1.426
691.10 1.426
691.20 1.426
691.30 1.425
691.40 1.425
691.50 1.425
691.60 1.425
691.70 1.424
691.80 1.424
691.90 1.424
692.00 1.423
692.10 1.423
692.20 1.423
692.30 1.423
692.40 1.422
692.50 1.422
692.60 1.422
692.70 1.421
692.80 1.421
692.90 1.421
693.00 1.421
693.10 1.42
693.20 1.42
693.30 1.42
693.40 1.42
693.50 1.419
693.60 1.419
693.70 1.419
693.80 1.418
693.90 1.418
694.00 1.418
694.10 1.418
694.20 1.417
694.30 1.417
694.40 1.417
694.50 1.417
694.60 1.416
694.70 1.416
694.80 1.416
694.90 1.415
695.00 1.415
695.10 1.415
695.20 1.414
695.30 1.414
695.40 1.414
695.50 1.413
695.60 1.413
695.70 1.413
695.80 1.412
695.90 1.412
696.00 1.412
696.10 1.411
696.20 1.411
696.30 1.411
696.40 1.41
696.50 1.41
696.60 1.41
696.70 1.409
696.80 1.409
696.90 1.409
697.00 1.408
697.10 1.408
697.20 1.408
697.30 1.407
697.40 1.407
697.50 1.407
697.60 1.406
697.70 1.406
697.80 1.405
697.90 1.405
698.00 1.405
698.10 1.404
698.20 1.404
698.30 1.404
698.40 1.403
698.50 1.403
698.60 1.403
698.70 1.402
698.80 1.402
698.90 1.402
699.00 1.401
699.10 1.401
699.20 1.401
699.30 1.4
699.40 1.4
699.50 1.4
699.60 1.399
699.70 1.399
699.80 1.399
699.90 1.398
700.00 1.398
700.10 1.398
700.20 1.397
700.30 1.397
700.40 1.396
700.50 1.396
700.60 1.396
700.70 1.395
700.80 1.395
700.90 1.394
701.00 1.394
701.10 1.393
701.20 1.393
701.30 1.393
701.40 1.392
701.50 1.392
701.60 1.391
701.70 1.391
701.80 1.391
701.90 1.39
702.00 1.39
702.10 1.389
702.20 1.389
702.30 1.389
702.40 1.388
702.50 1.388
702.60 1.387
702.70 1.387
702.80 1.387
702.90 1.386
703.00 1.386
703.10 1.385
703.20 1.385
703.30 1.385
703.40 1.384
703.50 1.384
703.60 1.383
703.70 1.383
703.80 1.383
703.90 1.382
704.00 1.382
704.10 1.381
704.20 1.381
704.30 1.38
704.40 1.38
704.50 1.38
704.60 1.379
704.70 1.379
704.80 1.378
704.90 1.378
705.00 1.378
705.10 1.377
705.20 1.377
705.30 1.376
705.40 1.376
705.50 1.375
705.60 1.375
705.70 1.374
705.80 1.374
705.90 1.374
706.00 1.373
706.10 1.373
706.20 1.372
706.30 1.372
706.40 1.371
706.50 1.371
706.60 1.37
706.70 1.37
706.80 1.369
706.90 1.369
707.00 1.368
707.10 1.368
707.20 1.367
707.30 1.367
707.40 1.367
707.50 1.366
707.60 1.366
707.70 1.365
707.80 1.365
707.90 1.364
708.00 1.364
708.10 1.363
708.20 1.363
708.30 1.362
708.40 1.362
708.50 1.362
708.60 1.361
708.70 1.361
708.80 1.36
708.90 1.36
709.00 1.359
709.10 1.359
709.20 1.358
709.30 1.358
709.40 1.357
709.50 1.357
709.60 1.356
709.70 1.356
709.80 1.356
709.90 1.355
710.00 1.355
710.10 1.354
710.20 1.354
710.30 1.353
710.40 1.353
710.50 1.352
710.60 1.352
710.70 1.351
710.80 1.351
710.90 1.35
711.00 1.35
711.10 1.349
711.20 1.349
711.30 1.348
711.40 1.347
711.50 1.347
711.60 1.346
711.70 1.346
711.80 1.345
711.90 1.345
712.00 1.344
712.10 1.344
712.20 1.343
712.30 1.343
712.40 1.342
712.50 1.342
712.60 1.341
712.70 1.341
712.80 1.34
712.90 1.34
713.00 1.339
713.10 1.339
713.20 1.338
713.30 1.338
713.40 1.337
713.50 1.337
713.60 1.336
713.70 1.336
713.80 1.335
713.90 1.335
714.00 1.334
714.10 1.334
714.20 1.333
714.30 1.333
714.40 1.332
714.50 1.332
714.60 1.331
714.70 1.331
714.80 1.33
714.90 1.33
715.00 1.329
715.10 1.329
715.20 1.328
715.30 1.328
715.40 1.327
715.50 1.327
715.60 1.326
715.70 1.325
715.80 1.325
715.90 1.324
716.00 1.324
716.10 1.323
716.20 1.323
716.30 1.322
716.40 1.322
716.50 1.321
716.60 1.321
716.70 1.32
716.80 1.319
716.90 1.319
717.00 1.318
717.10 1.318
717.20 1.317
717.30 1.317
717.40 1.316
717.50 1.316
717.60 1.315
717.70 1.314
717.80 1.314
717.90 1.313
718.00 1.313
718.10 1.312
718.20 1.312
718.30 1.311
718.40 1.311
718.50 1.31
718.60 1.31
718.70 1.309
718.80 1.309
718.90 1.308
719.00 1.307
719.10 1.307
719.20 1.306
719.30 1.306
719.40 1.305
719.50 1.305
719.60 1.304
719.70 1.304
719.80 1.303
719.90 1.303
720.00 1.302
720.10 1.301
720.20 1.301
720.30 1.3
720.40 1.3
720.50 1.299
720.60 1.299
720.70 1.298
720.80 1.298
720.90 1.297
721.00 1.296
721.10 1.296
721.20 1.295
721.30 1.295
721.40 1.294
721.50 1.294
721.60 1.293
721.70 1.292
721.80 1.292
721.90 1.291
722.00 1.291
722.10 1.29
722.20 1.29
722.30 1.289
722.40 1.289
722.50 1.288
722.60 1.287
722.70 1.287
722.80 1.286
722.90 1.286
723.00 1.285
723.10 1.285
723.20 1.284
723.30 1.284
723.40 1.283
723.50 1.282
723.60 1.282
723.70 1.281
723.80 1.281
723.90 1.28
724.00 1.28
724.10 1.279
724.20 1.279
724.30 1.278
724.40 1.277
724.50 1.277
724.60 1.276
724.70 1.276
724.80 1.275
724.90 1.275
725.00 1.274
725.10 1.274
725.20 1.273
725.30 1.272
725.40 1.272
725.50 1.271
725.60 1.271
725.70 1.27
725.80 1.27
725.90 1.269
726.00 1.269
726.10 1.268
726.20 1.267
726.30 1.267
726.40 1.266
726.50 1.266
726.60 1.265
726.70 1.265
726.80 1.264
726.90 1.264
727.00 1.263
727.10 1.262
727.20 1.262
727.30 1.261
727.40 1.261
727.50 1.26
727.60 1.26
727.70 1.259
727.80 1.259
727.90 1.258
728.00 1.258
728.10 1.257
728.20 1.256
728.30 1.256
728.40 1.255
728.50 1.255
728.60 1.254
728.70 1.254
728.80 1.253
728.90 1.253
729.00 1.252
729.10 1.251
729.20 1.251
729.30 1.25
729.40 1.25
729.50 1.249
729.60 1.249
729.70 1.248
729.80 1.248
729.90 1.247
730.00 1.247
730.10 1.246
730.20 1.246
730.30 1.245
730.40 1.245
730.50 1.244
730.60 1.244
730.70 1.243
730.80 1.243
730.90 1.242
731.00 1.242
731.10 1.241
731.20 1.241
731.30 1.24
731.40 1.24
731.50 1.239
731.60 1.239
731.70 1.238
731.80 1.238
731.90 1.237
732.00 1.237
732.10 1.236
732.20 1.235
732.30 1.235
732.40 1.234
732.50 1.234
732.60 1.233
732.70 1.233
732.80 1.232
732.90 1.232
733.00 1.232
733.10 1.231
733.20 1.231
733.30 1.23
733.40 1.23
733.50 1.229
733.60 1.229
733.70 1.228
733.80 1.228
733.90 1.227
734.00 1.227
734.10 1.226
734.20 1.226
734.30 1.225
734.40 1.225
734.50 1.224
734.60 1.224
734.70 1.223
734.80 1.223
734.90 1.222
735.00 1.222
735.10 1.221
735.20 1.221
735.30 1.22
735.40 1.22
735.50 1.219
735.60 1.219
735.70 1.218
735.80 1.218
735.90 1.217
736.00 1.217
736.10 1.216
736.20 1.216
736.30 1.215
736.40 1.215
736.50 1.214
736.60 1.214
736.70 1.213
736.80 1.213
736.90 1.212
737.00 1.212
737.10 1.211
737.20 1.211
737.30 1.21
737.40 1.21
737.50 1.209
737.60 1.209
737.70 1.208
737.80 1.208
737.90 1.207
738.00 1.207
738.10 1.206
738.20 1.206
738.30 1.205
738.40 1.205
738.50 1.204
738.60 1.204
738.70 1.203
738.80 1.203
738.90 1.202
739.00 1.202
739.10 1.201
739.20 1.201
739.30 1.201
739.40 1.2
739.50 1.2
739.60 1.199
739.70 1.199
739.80 1.198
739.90 1.198
740.00 1.197
740.10 1.197
740.20 1.196
740.30 1.196
740.40 1.196
740.50 1.195
740.60 1.195
740.70 1.194
740.80 1.194
740.90 1.194
741.00 1.193
741.10 1.193
741.20 1.192
741.30 1.192
741.40 1.192
741.50 1.191
741.60 1.191
741.70 1.19
741.80 1.19
741.90 1.19
742.00 1.189
742.10 1.189
742.20 1.188
742.30 1.188
742.40 1.188
742.50 1.187
742.60 1.187
742.70 1.186
742.80 1.186
742.90 1.186
743.00 1.185
743.10 1.185
743.20 1.184
743.30 1.184
743.40 1.184
743.50 1.183
743.60 1.183
743.70 1.182
743.80 1.182
743.90 1.182
744.00 1.181
744.10 1.181
744.20 1.181
744.30 1.18
744.40 1.18
744.50 1.179
744.60 1.179
744.70 1.179
744.80 1.178
744.90 1.178
745.00 1.177
745.10 1.177
745.20 1.177
745.30 1.176
745.40 1.176
745.50 1.175
745.60 1.175
745.70 1.175
745.80 1.174
745.90 1.174
746.00 1.173
746.10 1.173
746.20 1.173
746.30 1.172
746.40 1.172
746.50 1.172
746.60 1.171
746.70 1.171
746.80 1.17
746.90 1.17
747.00 1.17
747.10 1.169
747.20 1.169
747.30 1.168
747.40 1.168
747.50 1.168
747.60 1.167
747.70 1.167
747.80 1.167
747.90 1.166
748.00 1.166
748.10 1.165
748.20 1.165
748.30 1.165
748.40 1.164
748.50 1.164
748.60 1.163
748.70 1.163
748.80 1.163
748.90 1.162
749.00 1.162
749.10 1.162
749.20 1.161
749.30 1.161
749.40 1.16
749.50 1.16
749.60 1.16
749.70 1.159
749.80 1.159
749.90 1.158
750.00 1.158
750.10 1.158
750.20 1.157
750.30 1.157
750.40 1.157
750.50 1.156
750.60 1.156
750.70 1.156
750.80 1.156
750.90 1.155
751.00 1.155
751.10 1.155
751.20 1.154
751.30 1.154
751.40 1.154
751.50 1.153
751.60 1.153
751.70 1.153
751.80 1.152
751.90 1.152
752.00 1.152
752.10 1.151
752.20 1.151
752.30 1.151
752.40 1.15
752.50 1.15
752.60 1.15
752.70 1.15
752.80 1.149
752.90 1.149
753.00 1.149
753.10 1.148
753.20 1.148
753.30 1.148
753.40 1.147
753.50 1.147
753.60 1.147
753.70 1.146
753.80 1.146
753.90 1.146
754.00 1.145
754.10 1.145
754.20 1.145
754.30 1.145
754.40 1.144
754.50 1.144
754.60 1.144
754.70 1.143
754.80 1.143
754.90 1.143
755.00 1.142
755.10 1.142
755.20 1.142
755.30 1.141
755.40 1.141
755.50 1.141
755.60 1.14
755.70 1.14
755.80 1.14
755.90 1.14
756.00 1.139
756.10 1.139
756.20 1.139
756.30 1.138
756.40 1.138
756.50 1.138
756.60 1.137
756.70 1.137
756.80 1.137
756.90 1.136
757.00 1.136
757.10 1.136
757.20 1.136
757.30 1.135
757.40 1.135
757.50 1.135
757.60 1.134
757.70 1.134
757.80 1.134
757.90 1.133
758.00 1.133
758.10 1.133
758.20 1.132
758.30 1.132
758.40 1.132
758.50 1.131
758.60 1.131
758.70 1.131
758.80 1.131
758.90 1.13
759.00 1.13
759.10 1.13
759.20 1.129
759.30 1.129
759.40 1.129
759.50 1.128
759.60 1.128
759.70 1.128
759.80 1.128
759.90 1.127
760.00 1.127
760.10 1.127
760.20 1.126
760.30 1.126
760.40 1.126
760.50 1.126
760.60 1.125
760.70 1.125
760.80 1.125
760.90 1.125
761.00 1.124
761.10 1.124
761.20 1.124
761.30 1.123
761.40 1.123
761.50 1.123
761.60 1.123
761.70 1.122
761.80 1.122
761.90 1.122
762.00 1.122
762.10 1.121
762.20 1.121
762.30 1.121
762.40 1.121
762.50 1.12
762.60 1.12
762.70 1.12
762.80 1.12
762.90 1.119
763.00 1.119
763.10 1.119
763.20 1.119
763.30 1.118
763.40 1.118
763.50 1.118
763.60 1.118
763.70 1.117
763.80 1.117
763.90 1.117
764.00 1.116
764.10 1.116
764.20 1.116
764.30 1.116
764.40 1.115
764.50 1.115
764.60 1.115
764.70 1.115
764.80 1.114
764.90 1.114
765.00 1.114
765.10 1.114
765.20 1.113
765.30 1.113
765.40 1.113
765.50 1.113
765.60 1.112
765.70 1.112
765.80 1.112
765.90 1.112
766.00 1.111
766.10 1.111
766.20 1.111
766.30 1.111
766.40 1.11
766.50 1.11
766.60 1.11
766.70 1.11
766.80 1.109
766.90 1.109
767.00 1.109
767.10 1.108
767.20 1.108
767.30 1.108
767.40 1.108
767.50 1.107
767.60 1.107
767.70 1.107
767.80 1.107
767.90 1.106
768.00 1.106
768.10 1.106
768.20 1.106
768.30 1.105
768.40 1.105
768.50 1.105
768.60 1.105
768.70 1.104
768.80 1.104
768.90 1.104
769.00 1.104
769.10 1.103
769.20 1.103
769.30 1.103
769.40 1.103
769.50 1.102
769.60 1.102
769.70 1.102
769.80 1.102
769.90 1.101
770.00 1.101
770.10 1.101
770.20 1.101
770.30 1.101
770.40 1.1
770.50 1.1
770.60 1.1
770.70 1.1
770.80 1.1
770.90 1.099
771.00 1.099
771.10 1.099
771.20 1.099
771.30 1.099
771.40 1.098
771.50 1.098
771.60 1.098
771.70 1.098
771.80 1.098
771.90 1.097
772.00 1.097
772.10 1.097
772.20 1.097
772.30 1.097
772.40 1.097
772.50 1.096
772.60 1.096
772.70 1.096
772.80 1.096
772.90 1.096
773.00 1.095
773.10 1.095
773.20 1.095
773.30 1.095
773.40 1.095
773.50 1.094
773.60 1.094
773.70 1.094
773.80 1.094
773.90 1.094
774.00 1.094
774.10 1.093
774.20 1.093
774.30 1.093
774.40 1.093
774.50 1.093
774.60 1.092
774.70 1.092
774.80 1.092
774.90 1.092
775.00 1.092
775.10 1.091
775.20 1.091
775.30 1.091
775.40 1.091
775.50 1.091
775.60 1.091
775.70 1.09
775.80 1.09
775.90 1.09
776.00 1.09
776.10 1.09
776.20 1.089
776.30 1.089
776.40 1.089
776.50 1.089
776.60 1.089
776.70 1.089
776.80 1.088
776.90 1.088
777.00 1.088
777.10 1.088
777.20 1.088
777.30 1.087
777.40 1.087
777.50 1.087
777.60 1.087
777.70 1.087
777.80 1.086
777.90 1.086
778.00 1.086
778.10 1.086
778.20 1.086
778.30 1.086
778.40 1.085
778.50 1.085
778.60 1.085
778.70 1.085
778.80 1.085
778.90 1.084
779.00 1.084
779.10 1.084
779.20 1.084
779.30 1.084
779.40 1.084
779.50 1.083
779.60 1.083
779.70 1.083
779.80 1.083
779.90 1.083
780.00 1.082
780.10 1.082
780.20 1.082
780.30 1.082
780.40 1.082
780.50 1.082
780.60 1.082
780.70 1.082
780.80 1.082
780.90 1.081
781.00 1.081
781.10 1.081
781.20 1.081
781.30 1.081
781.40 1.081
781.50 1.081
781.60 1.081
781.70 1.081
781.80 1.08
781.90 1.08
782.00 1.08
782.10 1.08
782.20 1.08
782.30 1.08
782.40 1.08
782.50 1.08
782.60 1.08
782.70 1.08
782.80 1.079
782.90 1.079
783.00 1.079
783.10 1.079
783.20 1.079
783.30 1.079
783.40 1.079
783.50 1.079
783.60 1.079
783.70 1.078
783.80 1.078
783.90 1.078
784.00 1.078
784.10 1.078
784.20 1.078
784.30 1.078
784.40 1.078
784.50 1.078
784.60 1.077
784.70 1.077
784.80 1.077
784.90 1.077
785.00 1.077
785.10 1.077
785.20 1.077
785.30 1.077
785.40 1.077
785.50 1.077
785.60 1.076
785.70 1.076
785.80 1.076
785.90 1.076
786.00 1.076
786.10 1.076
786.20 1.076
786.30 1.076
786.40 1.076
786.50 1.075
786.60 1.075
786.70 1.075
786.80 1.075
786.90 1.075
787.00 1.075
787.10 1.075
787.20 1.075
787.30 1.075
787.40 1.074
787.50 1.074
787.60 1.074
787.70 1.074
787.80 1.074
787.90 1.074
788.00 1.074
788.10 1.074
788.20 1.074
788.30 1.074
788.40 1.073
788.50 1.073
788.60 1.073
788.70 1.073
788.80 1.073
788.90 1.073
789.00 1.073
789.10 1.073
789.20 1.073
789.30 1.072
789.40 1.072
789.50 1.072
789.60 1.072
789.70 1.072
789.80 1.072
789.90 1.072
790.00 1.072
790.10 1.072
790.20 1.072
790.30 1.071
790.40 1.071
790.50 1.071
790.60 1.071
790.70 1.071
790.80 1.071
790.90 1.071
791.00 1.071
791.10 1.071
791.20 1.071
791.30 1.071
791.40 1.071
791.50 1.07
791.60 1.07
791.70 1.07
791.80 1.07
791.90 1.07
792.00 1.07
792.10 1.07
792.20 1.07
792.30 1.07
792.40 1.07
792.50 1.07
792.60 1.07
792.70 1.069
792.80 1.069
792.90 1.069
793.00 1.069
793.10 1.069
793.20 1.069
793.30 1.069
793.40 1.069
793.50 1.069
793.60 1.069
793.70 1.069
793.80 1.069
793.90 1.068
794.00 1.068
794.10 1.068
794.20 1.068
794.30 1.068
794.40 1.068
794.50 1.068
794.60 1.068
794.70 1.068
794.80 1.068
794.90 1.068
795.00 1.067
795.10 1.067
795.20 1.067
795.30 1.067
795.40 1.067
795.50 1.067
795.60 1.067
795.70 1.067
795.80 1.067
795.90 1.067
796.00 1.067
796.10 1.067
796.20 1.066
796.30 1.066
796.40 1.066
796.50 1.066
796.60 1.066
796.70 1.066
796.80 1.066
796.90 1.066
797.00 1.066
797.10 1.066
797.20 1.066
797.30 1.066
797.40 1.065
797.50 1.065
797.60 1.065
797.70 1.065
797.80 1.065
797.90 1.065
798.00 1.065
798.10 1.065
798.20 1.065
798.30 1.065
798.40 1.065
798.50 1.065
798.60 1.064
798.70 1.064
798.80 1.064
798.90 1.064
799.00 1.064
799.10 1.064
799.20 1.064
799.30 1.064
799.40 1.064
799.50 1.064
799.60 1.064
799.70 1.064
799.80 1.063
799.90 1.063
800.00 1.063
800.10 1.063
800.20 1.063
800.30 1.063
800.40 1.063
800.50 1.063
800.60 1.062
800.70 1.062
800.80 1.062
800.90 1.062
801.00 1.062
801.10 1.062
801.20 1.062
801.30 1.061
801.40 1.061
801.50 1.061
801.60 1.061
801.70 1.061
801.80 1.061
801.90 1.061
802.00 1.061
802.10 1.06
802.20 1.06
802.30 1.06
802.40 1.06
802.50 1.06
802.60 1.06
802.70 1.06
802.80 1.059
802.90 1.059
803.00 1.059
803.10 1.059
803.20 1.059
803.30 1.059
803.40 1.059
803.50 1.058
803.60 1.058
803.70 1.058
803.80 1.058
803.90 1.058
804.00 1.058
804.10 1.058
804.20 1.057
804.30 1.057
804.40 1.057
804.50 1.057
804.60 1.057
804.70 1.057
804.80 1.057
804.90 1.057
805.00 1.056
805.10 1.056
805.20 1.056
805.30 1.056
805.40 1.056
805.50 1.056
805.60 1.056
805.70 1.055
805.80 1.055
805.90 1.055
806.00 1.055
806.10 1.055
806.20 1.055
806.30 1.055
806.40 1.054
806.50 1.054
806.60 1.054
806.70 1.054
806.80 1.054
806.90 1.054
807.00 1.054
807.10 1.054
807.20 1.053
807.30 1.053
807.40 1.053
807.50 1.053
807.60 1.053
807.70 1.053
807.80 1.053
807.90 1.052
808.00 1.052
808.10 1.052
808.20 1.052
808.30 1.052
808.40 1.052
808.50 1.052
808.60 1.052
808.70 1.051
808.80 1.051
808.90 1.051
809.00 1.051
809.10 1.051
809.20 1.051
809.30 1.051
809.40 1.05
809.50 1.05
809.60 1.05
809.70 1.05
809.80 1.05
809.90 1.05
810.00 1.05
810.10 1.049
810.20 1.049
810.30 1.049
810.40 1.049
810.50 1.049
810.60 1.048
810.70 1.048
810.80 1.048
810.90 1.048
811.00 1.048
811.10 1.047
811.20 1.047
811.30 1.047
811.40 1.047
811.50 1.047
811.60 1.046
811.70 1.046
811.80 1.046
811.90 1.046
812.00 1.046
812.10 1.045
812.20 1.045
812.30 1.045
812.40 1.045
812.50 1.044
812.60 1.044
812.70 1.044
812.80 1.044
812.90 1.044
813.00 1.043
813.10 1.043
813.20 1.043
813.30 1.043
813.40 1.043
813.50 1.042
813.60 1.042
813.70 1.042
813.80 1.042
813.90 1.042
814.00 1.041
814.10 1.041
814.20 1.041
814.30 1.041
814.40 1.041
814.50 1.04
814.60 1.04
814.70 1.04
814.80 1.04
814.90 1.04
815.00 1.039
815.10 1.039
815.20 1.039
815.30 1.039
815.40 1.039
815.50 1.038
815.60 1.038
815.70 1.038
815.80 1.038
815.90 1.038
816.00 1.037
816.10 1.037
816.20 1.037
816.30 1.037
816.40 1.037
816.50 1.036
816.60 1.036
816.70 1.036
816.80 1.036
816.90 1.036
817.00 1.035
817.10 1.035
817.20 1.035
817.30 1.035
817.40 1.034
817.50 1.034
817.60 1.034
817.70 1.034
817.80 1.034
817.90 1.033
818.00 1.033
818.10 1.033
818.20 1.033
818.30 1.033
818.40 1.032
818.50 1.032
818.60 1.032
818.70 1.032
818.80 1.032
818.90 1.031
819.00 1.031
819.10 1.031
819.20 1.031
819.30 1.031
819.40 1.03
819.50 1.03
819.60 1.03
819.70 1.03
819.80 1.03
819.90 1.029
820.00 1.029
820.10 1.029
820.20 1.029
820.30 1.029
820.40 1.028
820.50 1.028
820.60 1.028
820.70 1.028
820.80 1.027
820.90 1.027
821.00 1.027
821.10 1.027
821.20 1.027
821.30 1.026
821.40 1.026
821.50 1.026
821.60 1.026
821.70 1.025
821.80 1.025
821.90 1.025
822.00 1.025
822.10 1.024
822.20 1.024
822.30 1.024
822.40 1.024
822.50 1.023
822.60 1.023
822.70 1.023
822.80 1.023
822.90 1.023
823.00 1.022
823.10 1.022
823.20 1.022
823.30 1.022
823.40 1.021
823.50 1.021
823.60 1.021
823.70 1.021
823.80 1.02
823.90 1.02
824.00 1.02
824.10 1.02
824.20 1.019
824.30 1.019
824.40 1.019
824.50 1.019
824.60 1.018
824.70 1.018
824.80 1.018
824.90 1.018
825.00 1.017
825.10 1.017
825.20 1.017
825.30 1.017
825.40 1.016
825.50 1.016
825.60 1.016
825.70 1.016
825.80 1.015
825.90 1.015
826.00 1.015
826.10 1.015
826.20 1.014
826.30 1.014
826.40 1.014
826.50 1.014
826.60 1.014
826.70 1.013
826.80 1.013
826.90 1.013
827.00 1.013
827.10 1.012
827.20 1.012
827.30 1.012
827.40 1.012
827.50 1.011
827.60 1.011
827.70 1.011
827.80 1.01
827.90 1.01
828.00 1.01
828.10 1.01
828.20 1.009
828.30 1.009
828.40 1.009
828.50 1.009
828.60 1.008
828.70 1.008
828.80 1.008
828.90 1.008
829.00 1.007
829.10 1.007
829.20 1.007
829.30 1.007
829.40 1.006
829.50 1.006
829.60 1.006
829.70 1.006
829.80 1.005
829.90 1.005
830.00 1.005
830.10 1.005
830.20 1.004
830.30 1.004
830.40 1.004
830.50 1.004
830.60 1.003
830.70 1.003
830.80 1.003
830.90 1.003
831.00 1.002
831.10 1.002
831.20 1.002
831.30 1.002
831.40 1.001
831.50 1.001
831.60 1.001
831.70 1.001
831.80 1
831.90 1
832.00 0.9998
832.10 0.9996
832.20 0.9993
832.30 0.999
832.40 0.9988
832.50 0.9985
832.60 0.9982
832.70 0.998
832.80 0.9977
832.90 0.9974
833.00 0.9972
833.10 0.9969
833.20 0.9966
833.30 0.9964
833.40 0.9961
833.50 0.9958
833.60 0.9956
833.70 0.9953
833.80 0.995
833.90 0.9948
834.00 0.9945
834.10 0.9942
834.20 0.994
834.30 0.9937
834.40 0.9935
834.50 0.9932
834.60 0.9929
834.70 0.9927
834.80 0.9924
834.90 0.9921
835.00 0.9919
835.10 0.9916
835.20 0.9913
835.30 0.9911
835.40 0.9908
835.50 0.9905
835.60 0.9903
835.70 0.99
835.80 0.9898
835.90 0.9895
836.00 0.9892
836.10 0.989
836.20 0.9887
836.30 0.9884
836.40 0.9882
836.50 0.9879
836.60 0.9877
836.70 0.9874
836.80 0.9871
836.90 0.9869
837.00 0.9866
837.10 0.9863
837.20 0.9861
837.30 0.9858
837.40 0.9855
837.50 0.9852
837.60 0.985
837.70 0.9847
837.80 0.9844
837.90 0.9841
838.00 0.9839
838.10 0.9836
838.20 0.9833
838.30 0.9831
838.40 0.9828
838.50 0.9825
838.60 0.9822
838.70 0.982
838.80 0.9817
838.90 0.9814
839.00 0.9811
839.10 0.9809
839.20 0.9806
839.30 0.9803
839.40 0.9801
839.50 0.9798
839.60 0.9795
839.70 0.9793
839.80 0.979
839.90 0.9787
840.00 0.9784
840.10 0.9782
840.20 0.9779
840.30 0.9776
840.40 0.9774
840.50 0.9771
840.60 0.9768
840.70 0.9765
840.80 0.9763
840.90 0.976
841.00 0.9757
841.10 0.9755
841.20 0.9752
841.30 0.9749
841.40 0.9747
841.50 0.9744
841.60 0.9741
841.70 0.9739
841.80 0.9736
841.90 0.9733
842.00 0.973
842.10 0.9728
842.20 0.9725
842.30 0.9722
842.40 0.9719
842.50 0.9716
842.60 0.9714
842.70 0.9711
842.80 0.9708
842.90 0.9705
843.00 0.9702
843.10 0.97
843.20 0.9697
843.30 0.9694
843.40 0.9691
843.50 0.9688
843.60 0.9686
843.70 0.9683
843.80 0.968
843.90 0.9677
844.00 0.9674
844.10 0.9672
844.20 0.9669
844.30 0.9666
844.40 0.9663
844.50 0.966
844.60 0.9658
844.70 0.9655
844.80 0.9652
844.90 0.9649
845.00 0.9646
845.10 0.9644
845.20 0.9641
845.30 0.9638
845.40 0.9635
845.50 0.9633
845.60 0.963
845.70 0.9627
845.80 0.9624
845.90 0.9621
846.00 0.9619
846.10 0.9616
846.20 0.9613
846.30 0.961
846.40 0.9608
846.50 0.9605
846.60 0.9602
846.70 0.9599
846.80 0.9596
846.90 0.9594
847.00 0.9591
847.10 0.9588
847.20 0.9585
847.30 0.9582
847.40 0.958
847.50 0.9577
847.60 0.9574
847.70 0.9571
847.80 0.9568
847.90 0.9565
848.00 0.9562
848.10 0.956
848.20 0.9557
848.30 0.9554
848.40 0.9551
848.50 0.9548
848.60 0.9545
848.70 0.9543
848.80 0.954
848.90 0.9537
849.00 0.9534
849.10 0.9531
849.20 0.9528
849.30 0.9526
849.40 0.9523
849.50 0.952
849.60 0.9517
849.70 0.9514
849.80 0.9511
849.90 0.9509
850.00 0.9506
850.10 0.9503
850.20 0.95
850.30 0.9497
850.40 0.9494
850.50 0.9492
850.60 0.9489
850.70 0.9486
850.80 0.9483
850.90 0.948
851.00 0.9478
851.10 0.9475
851.20 0.9472
851.30 0.9469
851.40 0.9466
851.50 0.9463
851.60 0.9461
851.70 0.9458
851.80 0.9455
851.90 0.9452
852.00 0.9449
852.10 0.9446
852.20 0.9444
852.30 0.9441
852.40 0.9438
852.50 0.9435
852.60 0.9432
852.70 0.9429
852.80 0.9426
852.90 0.9423
853.00 0.942
853.10 0.9417
853.20 0.9414
853.30 0.9411
853.40 0.9408
853.50 0.9406
853.60 0.9403
853.70 0.94
853.80 0.9397
853.90 0.9394
854.00 0.9391
854.10 0.9388
854.20 0.9385
854.30 0.9382
854.40 0.9379
854.50 0.9376
854.60 0.9374
854.70 0.9371
854.80 0.9368
854.90 0.9365
855.00 0.9362
855.10 0.9359
855.20 0.9356
855.30 0.9353
855.40 0.935
855.50 0.9348
855.60 0.9345
855.70 0.9342
855.80 0.9339
855.90 0.9336
856.00 0.9333
856.10 0.933
856.20 0.9327
856.30 0.9324
856.40 0.9322
856.50 0.9319
856.60 0.9316
856.70 0.9313
856.80 0.931
856.90 0.9307
857.00 0.9304
857.10 0.9301
857.20 0.9298
857.30 0.9295
857.40 0.9292
857.50 0.9289
857.60 0.9286
857.70 0.9283
857.80 0.928
857.90 0.9277
858.00 0.9274
858.10 0.9271
858.20 0.9268
858.30 0.9265
858.40 0.9262
858.50 0.9259
858.60 0.9256
858.70 0.9253
858.80 0.925
858.90 0.9247
859.00 0.9244
859.10 0.9241
859.20 0.9238
859.30 0.9235
859.40 0.9232
859.50 0.9229
859.60 0.9226
859.70 0.9223
859.80 0.922
859.90 0.9217
860.00 0.9214
860.10 0.9211
860.20 0.9208
860.30 0.9205
860.40 0.9202
860.50 0.9199
860.60 0.9196
860.70 0.9193
860.80 0.919
860.90 0.9187
861.00 0.9184
861.10 0.9181
861.20 0.9178
861.30 0.9175
861.40 0.9172
861.50 0.9169
861.60 0.9166
861.70 0.9164
861.80 0.9161
861.90 0.9158
862.00 0.9155
862.10 0.9152
862.20 0.9148
862.30 0.9145
862.40 0.9142
862.50 0.9139
862.60 0.9136
862.70 0.9133
862.80 0.913
862.90 0.9127
863.00 0.9124
863.10 0.9121
863.20 0.9117
863.30 0.9114
863.40 0.9111
863.50 0.9108
863.60 0.9105
863.70 0.9102
863.80 0.9099
863.90 0.9096
864.00 0.9093
864.10 0.909
864.20 0.9087
864.30 0.9083
864.40 0.908
864.50 0.9077
864.60 0.9074
864.70 0.9071
864.80 0.9068
864.90 0.9065
865.00 0.9062
865.10 0.9059
865.20 0.9056
865.30 0.9053
865.40 0.905
865.50 0.9047
865.60 0.9044
865.70 0.904
865.80 0.9037
865.90 0.9034
866.00 0.9031
866.10 0.9028
866.20 0.9025
866.30 0.9022
866.40 0.9019
866.50 0.9016
866.60 0.9013
866.70 0.901
866.80 0.9007
866.90 0.9004
867.00 0.9001
867.10 0.8997
867.20 0.8994
867.30 0.8991
867.40 0.8988
867.50 0.8984
867.60 0.8981
867.70 0.8978
867.80 0.8975
867.90 0.8971
868.00 0.8968
868.10 0.8965
868.20 0.8962
868.30 0.8958
868.40 0.8955
868.50 0.8952
868.60 0.8948
868.70 0.8945
868.80 0.8942
868.90 0.8939
869.00 0.8935
869.10 0.8932
869.20 0.8929
869.30 0.8926
869.40 0.8922
869.50 0.8919
869.60 0.8916
869.70 0.8913
869.80 0.8909
869.90 0.8906
870.00 0.8903
870.10 0.89
870.20 0.8897
870.30 0.8893
870.40 0.889
870.50 0.8887
870.60 0.8884
870.70 0.888
870.80 0.8877
870.90 0.8874
871.00 0.8871
871.10 0.8867
871.20 0.8864
871.30 0.8861
871.40 0.8858
871.50 0.8855
871.60 0.8851
871.70 0.8848
871.80 0.8845
871.90 0.8842
872.00 0.8838
872.10 0.8835
872.20 0.8832
872.30 0.8828
872.40 0.8825
872.50 0.8821
872.60 0.8818
872.70 0.8815
872.80 0.8811
872.90 0.8808
873.00 0.8804
873.10 0.8801
873.20 0.8797
873.30 0.8794
873.40 0.8791
873.50 0.8787
873.60 0.8784
873.70 0.878
873.80 0.8777
873.90 0.8774
874.00 0.877
874.10 0.8767
874.20 0.8763
874.30 0.876
874.40 0.8757
874.50 0.8753
874.60 0.875
874.70 0.8746
874.80 0.8743
874.90 0.874
875.00 0.8736
875.10 0.8733
875.20 0.873
875.30 0.8726
875.40 0.8723
875.50 0.8719
875.60 0.8716
875.70 0.8713
875.80 0.8709
875.90 0.8706
876.00 0.8703
876.10 0.8699
876.20 0.8696
876.30 0.8692
876.40 0.8689
876.50 0.8686
876.60 0.8682
876.70 0.8679
876.80 0.8676
876.90 0.8672
877.00 0.8669
877.10 0.8665
877.20 0.8662
877.30 0.8658
877.40 0.8654
877.50 0.8651
877.60 0.8647
877.70 0.8644
877.80 0.864
877.90 0.8636
878.00 0.8633
878.10 0.8629
878.20 0.8625
878.30 0.8622
878.40 0.8618
878.50 0.8615
878.60 0.8611
878.70 0.8607
878.80 0.8604
878.90 0.86
879.00 0.8597
879.10 0.8593
879.20 0.8589
879.30 0.8586
879.40 0.8582
879.50 0.8579
879.60 0.8575
879.70 0.8571
879.80 0.8568
879.90 0.8564
880.00 0.8561
880.10 0.8557
880.20 0.8554
880.30 0.855
880.40 0.8546
880.50 0.8543
880.60 0.8539
880.70 0.8536
880.80 0.8532
880.90 0.8528
881.00 0.8525
881.10 0.8521
881.20 0.8518
881.30 0.8514
881.40 0.8511
881.50 0.8507
881.60 0.8504
881.70 0.85
881.80 0.8496
881.90 0.8493
882.00 0.8489
882.10 0.8485
882.20 0.8482
882.30 0.8478
882.40 0.8474
882.50 0.847
882.60 0.8466
882.70 0.8462
882.80 0.8459
882.90 0.8455
883.00 0.8451
883.10 0.8447
883.20 0.8443
883.30 0.8439
883.40 0.8436
883.50 0.8432
883.60 0.8428
883.70 0.8424
883.80 0.842
883.90 0.8417
884.00 0.8413
884.10 0.8409
884.20 0.8405
884.30 0.8401
884.40 0.8398
884.50 0.8394
884.60 0.839
884.70 0.8386
884.80 0.8382
884.90 0.8379
885.00 0.8375
885.10 0.8371
885.20 0.8367
885.30 0.8363
885.40 0.836
885.50 0.8356
885.60 0.8352
885.70 0.8348
885.80 0.8344
885.90 0.8341
886.00 0.8337
886.10 0.8333
886.20 0.8329
886.30 0.8325
886.40 0.8322
886.50 0.8318
886.60 0.8314
886.70 0.831
886.80 0.8307
886.90 0.8303
887.00 0.8299
887.10 0.8295
887.20 0.8291
887.30 0.8287
887.40 0.8283
887.50 0.8279
887.60 0.8275
887.70 0.8271
887.80 0.8267
887.90 0.8263
888.00 0.8259
888.10 0.8255
888.20 0.8251
888.30 0.8247
888.40 0.8243
888.50 0.8239
888.60 0.8235
888.70 0.8231
888.80 0.8227
888.90 0.8223
889.00 0.8218
889.10 0.8214
889.20 0.821
889.30 0.8206
889.40 0.8202
889.50 0.8198
889.60 0.8194
889.70 0.819
889.80 0.8186
889.90 0.8182
890.00 0.8178
890.10 0.8174
890.20 0.817
890.30 0.8166
890.40 0.8162
890.50 0.8158
890.60 0.8154
890.70 0.8151
890.80 0.8147
890.90 0.8143
891.00 0.8139
891.10 0.8135
891.20 0.8131
891.30 0.8127
891.40 0.8123
891.50 0.8119
891.60 0.8115
891.70 0.8111
891.80 0.8107
891.90 0.8103
892.00 0.8099
892.10 0.8095
892.20 0.8091
892.30 0.8087
892.40 0.8083
892.50 0.8079
892.60 0.8074
892.70 0.807
892.80 0.8066
892.90 0.8062
893.00 0.8058
893.10 0.8054
893.20 0.805
893.30 0.8046
893.40 0.8042
893.50 0.8038
893.60 0.8034
893.70 0.803
893.80 0.8026
893.90 0.8022
894.00 0.8018
894.10 0.8014
894.20 0.801
894.30 0.8006
894.40 0.8002
894.50 0.7998
894.60 0.7994
894.70 0.799
894.80 0.7986
894.90 0.7982
895.00 0.7978
895.10 0.7974
895.20 0.797
895.30 0.7966
895.40 0.7962
895.50 0.7958
895.60 0.7953
895.70 0.7949
895.80 0.7945
895.90 0.7941
896.00 0.7937
896.10 0.7933
896.20 0.7929
896.30 0.7925
896.40 0.7921
896.50 0.7917
896.60 0.7913
896.70 0.791
896.80 0.7906
896.90 0.7902
897.00 0.7898
897.10 0.7893
897.20 0.7889
897.30 0.7884
897.40 0.788
897.50 0.7875
897.60 0.7871
897.70 0.7866
897.80 0.7862
897.90 0.7858
898.00 0.7853
898.10 0.7849
898.20 0.7844
898.30 0.784
898.40 0.7835
898.50 0.7831
898.60 0.7827
898.70 0.7822
898.80 0.7818
898.90 0.7813
899.00 0.7809
899.10 0.7804
899.20 0.78
899.30 0.7796
899.40 0.7791
899.50 0.7787
899.60 0.7782
899.70 0.7778
899.80 0.7774
899.90 0.7769
900.00 0.7765
900.10 0.776
900.20 0.7756
900.30 0.7752
900.40 0.7747
900.50 0.7743
900.60 0.7738
900.70 0.7734
900.80 0.773
900.90 0.7725
901.00 0.7721
901.10 0.7716
901.20 0.7712
901.30 0.7708
901.40 0.7703
901.50 0.7699
901.60 0.7695
901.70 0.769
901.80 0.7686
901.90 0.7681
902.00 0.7677
902.10 0.7672
902.20 0.7667
902.30 0.7662
902.40 0.7657
902.50 0.7653
902.60 0.7648
902.70 0.7643
902.80 0.7638
902.90 0.7633
903.00 0.7628
903.10 0.7623
903.20 0.7618
903.30 0.7613
903.40 0.7609
903.50 0.7604
903.60 0.7599
903.70 0.7594
903.80 0.7589
903.90 0.7584
904.00 0.7579
904.10 0.7575
904.20 0.757
904.30 0.7565
904.40 0.756
904.50 0.7555
904.60 0.755
904.70 0.7545
904.80 0.7541
904.90 0.7536
905.00 0.7531
905.10 0.7526
905.20 0.7521
905.30 0.7516
905.40 0.7512
905.50 0.7507
905.60 0.7502
905.70 0.7497
905.80 0.7492
905.90 0.7487
906.00 0.7483
906.10 0.7478
906.20 0.7473
906.30 0.7468
906.40 0.7463
906.50 0.7458
906.60 0.7454
906.70 0.7449
906.80 0.7444
906.90 0.7439
907.00 0.7434
907.10 0.743
907.20 0.7425
907.30 0.742
907.40 0.7416
907.50 0.7411
907.60 0.7406
907.70 0.7401
907.80 0.7397
907.90 0.7392
908.00 0.7387
908.10 0.7383
908.20 0.7378
908.30 0.7373
908.40 0.7368
908.50 0.7364
908.60 0.7359
908.70 0.7354
908.80 0.735
908.90 0.7345
909.00 0.734
909.10 0.7336
909.20 0.7331
909.30 0.7326
909.40 0.7322
909.50 0.7317
909.60 0.7312
909.70 0.7308
909.80 0.7303
909.90 0.7298
910.00 0.7293
910.10 0.7289
910.20 0.7284
910.30 0.7279
910.40 0.7275
910.50 0.727
910.60 0.7265
910.70 0.7261
910.80 0.7256
910.90 0.7252
911.00 0.7247
911.10 0.7242
911.20 0.7238
911.30 0.7233
911.40 0.7228
911.50 0.7224
911.60 0.7219
911.70 0.7214
911.80 0.721
911.90 0.7205
912.00 0.72
912.10 0.7196
912.20 0.7191
912.30 0.7186
912.40 0.7182
912.50 0.7177
912.60 0.7172
912.70 0.7168
912.80 0.7163
912.90 0.7158
913.00 0.7154
913.10 0.7149
913.20 0.7145
913.30 0.714
913.40 0.7135
913.50 0.7131
913.60 0.7126
913.70 0.7121
913.80 0.7117
913.90 0.7112
914.00 0.7107
914.10 0.7103
914.20 0.7098
914.30 0.7094
914.40 0.7089
914.50 0.7084
914.60 0.708
914.70 0.7075
914.80 0.707
914.90 0.7066
915.00 0.7061
915.10 0.7057
915.20 0.7052
915.30 0.7047
915.40 0.7043
915.50 0.7038
915.60 0.7034
915.70 0.7029
915.80 0.7024
915.90 0.702
916.00 0.7015
916.10 0.7011
916.20 0.7006
916.30 0.7001
916.40 0.6997
916.50 0.6992
916.60 0.6988
916.70 0.6983
916.80 0.6978
916.90 0.6974
917.00 0.6969
917.10 0.6964
917.20 0.696
917.30 0.6955
917.40 0.695
917.50 0.6945
917.60 0.694
917.70 0.6936
917.80 0.6931
917.90 0.6926
918.00 0.6921
918.10 0.6916
918.20 0.6912
918.30 0.6907
918.40 0.6902
918.50 0.6897
918.60 0.6892
918.70 0.6888
918.80 0.6883
918.90 0.6878
919.00 0.6873
919.10 0.6868
919.20 0.6864
919.30 0.6859
919.40 0.6854
919.50 0.6849
919.60 0.6844
919.70 0.684
919.80 0.6835
919.90 0.683
920.00 0.6825
920.10 0.6821
920.20 0.6816
920.30 0.6811
920.40 0.6806
920.50 0.6802
920.60 0.6797
920.70 0.6792
920.80 0.6787
920.90 0.6783
921.00 0.6778
921.10 0.6773
921.20 0.6768
921.30 0.6764
921.40 0.6759
921.50 0.6754
921.60 0.6749
921.70 0.6745
921.80 0.674
921.90 0.6735
922.00 0.673
922.10 0.6726
922.20 0.6721
922.30 0.6716
922.40 0.6711
922.50 0.6706
922.60 0.6701
922.70 0.6696
922.80 0.6692
922.90 0.6687
923.00 0.6682
923.10 0.6677
923.20 0.6672
923.30 0.6667
923.40 0.6663
923.50 0.6658
923.60 0.6653
923.70 0.6648
923.80 0.6643
923.90 0.6638
924.00 0.6634
924.10 0.6629
924.20 0.6624
924.30 0.6619
924.40 0.6614
924.50 0.661
924.60 0.6605
924.70 0.66
924.80 0.6595
924.90 0.659
925.00 0.6586
925.10 0.6581
925.20 0.6576
925.30 0.6571
925.40 0.6566
925.50 0.6562
925.60 0.6557
925.70 0.6552
925.80 0.6547
925.90 0.6542
926.00 0.6538
926.10 0.6533
926.20 0.6528
926.30 0.6523
926.40 0.6519
926.50 0.6514
926.60 0.6509
926.70 0.6504
926.80 0.6499
926.90 0.6495
927.00 0.649
927.10 0.6485
927.20 0.648
927.30 0.6475
927.40 0.647
927.50 0.6466
927.60 0.6461
927.70 0.6456
927.80 0.6451
927.90 0.6446
928.00 0.6441
928.10 0.6436
928.20 0.6431
928.30 0.6427
928.40 0.6422
928.50 0.6417
928.60 0.6412
928.70 0.6407
928.80 0.6402
928.90 0.6397
929.00 0.6393
929.10 0.6388
929.20 0.6383
929.30 0.6378
929.40 0.6373
929.50 0.6368
929.60 0.6363
929.70 0.6359
929.80 0.6354
929.90 0.6349
930.00 0.6344
930.10 0.6339
930.20 0.6334
930.30 0.633
930.40 0.6325
930.50 0.632
930.60 0.6315
930.70 0.631
930.80 0.6306
930.90 0.6301
931.00 0.6296
931.10 0.6291
931.20 0.6286
931.30 0.6282
931.40 0.6277
931.50 0.6272
931.60 0.6267
931.70 0.6262
931.80 0.6257
931.90 0.6253
932.00 0.6248
932.10 0.6243
932.20 0.6238
932.30 0.6233
932.40 0.6229
932.50 0.6224
932.60 0.6219
932.70 0.6214
932.80 0.6209
932.90 0.6204
933.00 0.62
933.10 0.6195
933.20 0.619
933.30 0.6185
933.40 0.618
933.50 0.6175
933.60 0.6171
933.70 0.6166
933.80 0.6161
933.90 0.6156
934.00 0.6151
934.10 0.6147
934.20 0.6142
934.30 0.6137
934.40 0.6132
934.50 0.6127
934.60 0.6122
934.70 0.6118
934.80 0.6113
934.90 0.6108
935.00 0.6103
935.10 0.6098
935.20 0.6093
935.30 0.6089
935.40 0.6084
935.50 0.6079
935.60 0.6074
935.70 0.6069
935.80 0.6064
935.90 0.606
936.00 0.6055
936.10 0.605
936.20 0.6045
936.30 0.604
936.40 0.6036
936.50 0.6031
936.60 0.6026
936.70 0.6021
936.80 0.6016
936.90 0.6012
937.00 0.6007
937.10 0.6002
937.20 0.5997
937.30 0.5992
937.40 0.5987
937.50 0.5983
937.60 0.5978
937.70 0.5973
937.80 0.5968
937.90 0.5963
938.00 0.5959
938.10 0.5954
938.20 0.5949
938.30 0.5944
938.40 0.5939
938.50 0.5934
938.60 0.593
938.70 0.5925
938.80 0.592
938.90 0.5915
939.00 0.591
939.10 0.5905
939.20 0.59
939.30 0.5896
939.40 0.5891
939.50 0.5886
939.60 0.5881
939.70 0.5876
939.80 0.5871
939.90 0.5867
940.00 0.5862
940.10 0.5857
940.20 0.5852
940.30 0.5847
940.40 0.5842
940.50 0.5838
940.60 0.5833
940.70 0.5828
940.80 0.5823
940.90 0.5819
941.00 0.5814
941.10 0.5809
941.20 0.5804
941.30 0.5799
941.40 0.5795
941.50 0.579
941.60 0.5785
941.70 0.578
941.80 0.5776
941.90 0.5771
942.00 0.5766
942.10 0.5761
942.20 0.5757
942.30 0.5752
942.40 0.5747
942.50 0.5742
942.60 0.5737
942.70 0.5733
942.80 0.5728
942.90 0.5723
943.00 0.5718
943.10 0.5714
943.20 0.5709
943.30 0.5704
943.40 0.5699
943.50 0.5695
943.60 0.569
943.70 0.5685
943.80 0.5681
943.90 0.5676
944.00 0.5671
944.10 0.5666
944.20 0.5662
944.30 0.5657
944.40 0.5652
944.50 0.5647
944.60 0.5643
944.70 0.5638
944.80 0.5633
944.90 0.5629
945.00 0.5624
945.10 0.5619
945.20 0.5614
945.30 0.561
945.40 0.5605
945.50 0.56
945.60 0.5596
945.70 0.5591
945.80 0.5586
945.90 0.5581
946.00 0.5577
946.10 0.5572
946.20 0.5567
946.30 0.5563
946.40 0.5558
946.50 0.5553
946.60 0.5549
946.70 0.5544
946.80 0.5539
946.90 0.5535
947.00 0.553
947.10 0.5525
947.20 0.552
947.30 0.5516
947.40 0.5511
947.50 0.5506
947.60 0.5502
947.70 0.5497
947.80 0.5492
947.90 0.5487
948.00 0.5483
948.10 0.5478
948.20 0.5473
948.30 0.5469
948.40 0.5464
948.50 0.5459
948.60 0.5454
948.70 0.545
948.80 0.5445
948.90 0.544
949.00 0.5436
949.10 0.5431
949.20 0.5426
949.30 0.5422
949.40 0.5417
949.50 0.5412
949.60 0.5408
949.70 0.5403
949.80 0.5398
949.90 0.5394
950.00 0.5389
950.10 0.5385
950.20 0.538
950.30 0.5375
950.40 0.5371
950.50 0.5366
950.60 0.5361
950.70 0.5357
950.80 0.5352
950.90 0.5348
951.00 0.5343
951.10 0.5338
951.20 0.5334
951.30 0.5329
951.40 0.5325
951.50 0.532
951.60 0.5315
951.70 0.5311
951.80 0.5306
951.90 0.5302
952.00 0.5297
952.10 0.5293
952.20 0.5288
952.30 0.5283
952.40 0.5279
952.50 0.5274
952.60 0.527
952.70 0.5265
952.80 0.5261
952.90 0.5256
953.00 0.5251
953.10 0.5247
953.20 0.5242
953.30 0.5238
953.40 0.5233
953.50 0.5229
953.60 0.5224
953.70 0.522
953.80 0.5215
953.90 0.5211
954.00 0.5206
954.10 0.5202
954.20 0.5197
954.30 0.5192
954.40 0.5188
954.50 0.5183
954.60 0.5179
954.70 0.5174
954.80 0.517
954.90 0.5165
955.00 0.5161
955.10 0.5156
955.20 0.5152
955.30 0.5147
955.40 0.5143
955.50 0.5138
955.60 0.5134
955.70 0.5129
955.80 0.5125
955.90 0.512
956.00 0.5116
956.10 0.5111
956.20 0.5107
956.30 0.5102
956.40 0.5097
956.50 0.5093
956.60 0.5088
956.70 0.5084
956.80 0.5079
956.90 0.5074
957.00 0.507
957.10 0.5065
957.20 0.5061
957.30 0.5057
957.40 0.5052
957.50 0.5048
957.60 0.5043
957.70 0.5039
957.80 0.5034
957.90 0.503
958.00 0.5026
958.10 0.5021
958.20 0.5017
958.30 0.5012
958.40 0.5008
958.50 0.5004
958.60 0.4999
958.70 0.4995
958.80 0.499
958.90 0.4986
959.00 0.4982
959.10 0.4977
959.20 0.4973
959.30 0.4968
959.40 0.4964
959.50 0.496
959.60 0.4955
959.70 0.4951
959.80 0.4947
959.90 0.4942
960.00 0.4938
960.10 0.4934
960.20 0.4929
960.30 0.4925
960.40 0.492
960.50 0.4916
960.60 0.4912
960.70 0.4907
960.80 0.4903
960.90 0.4899
961.00 0.4894
961.10 0.489
961.20 0.4886
961.30 0.4882
961.40 0.4877
961.50 0.4873
961.60 0.4869
961.70 0.4864
961.80 0.486
961.90 0.4856
962.00 0.4851
962.10 0.4847
962.20 0.4843
962.30 0.4839
962.40 0.4834
962.50 0.483
962.60 0.4826
962.70 0.4821
962.80 0.4817
962.90 0.4813
963.00 0.4809
963.10 0.4804
963.20 0.48
963.30 0.4796
963.40 0.4792
963.50 0.4787
963.60 0.4783
963.70 0.4779
963.80 0.4775
963.90 0.4771
964.00 0.4766
964.10 0.4762
964.20 0.4758
964.30 0.4754
964.40 0.4749
964.50 0.4745
964.60 0.4741
964.70 0.4737
964.80 0.4732
964.90 0.4728
965.00 0.4724
965.10 0.472
965.20 0.4715
965.30 0.4711
965.40 0.4707
965.50 0.4703
965.60 0.4699
965.70 0.4694
965.80 0.469
965.90 0.4686
966.00 0.4682
966.10 0.4677
966.20 0.4673
966.30 0.4669
966.40 0.4665
966.50 0.4661
966.60 0.4657
966.70 0.4652
966.80 0.4648
966.90 0.4644
967.00 0.464
967.10 0.4636
967.20 0.4632
967.30 0.4628
967.40 0.4624
967.50 0.462
967.60 0.4615
967.70 0.4611
967.80 0.4607
967.90 0.4603
968.00 0.4599
968.10 0.4595
968.20 0.4591
968.30 0.4587
968.40 0.4583
968.50 0.4579
968.60 0.4575
968.70 0.4571
968.80 0.4567
968.90 0.4563
969.00 0.4559
969.10 0.4555
969.20 0.4551
969.30 0.4547
969.40 0.4543
969.50 0.4539
969.60 0.4535
969.70 0.4531
969.80 0.4527
969.90 0.4523
970.00 0.4519
970.10 0.4515
970.20 0.4511
970.30 0.4507
970.40 0.4503
970.50 0.4499
970.60 0.4495
970.70 0.4491
970.80 0.4487
970.90 0.4483
971.00 0.4479
971.10 0.4475
971.20 0.4471
971.30 0.4467
971.40 0.4463
971.50 0.4459
971.60 0.4456
971.70 0.4452
971.80 0.4448
971.90 0.4444
972.00 0.444
972.10 0.4436
972.20 0.4432
972.30 0.4428
972.40 0.4424
972.50 0.4421
972.60 0.4417
972.70 0.4413
972.80 0.4409
972.90 0.4405
973.00 0.4401
973.10 0.4397
973.20 0.4394
973.30 0.439
973.40 0.4386
973.50 0.4382
973.60 0.4378
973.70 0.4374
973.80 0.4371
973.90 0.4367
974.00 0.4363
974.10 0.4359
974.20 0.4355
974.30 0.4351
974.40 0.4348
974.50 0.4344
974.60 0.434
974.70 0.4336
974.80 0.4332
974.90 0.4329
975.00 0.4325
975.10 0.4321
975.20 0.4317
975.30 0.4313
975.40 0.431
975.50 0.4306
975.60 0.4302
975.70 0.4298
975.80 0.4295
975.90 0.4291
976.00 0.4287
976.10 0.4283
976.20 0.428
976.30 0.4276
976.40 0.4272
976.50 0.4268
976.60 0.4264
976.70 0.4261
976.80 0.4257
976.90 0.4253
977.00 0.4249
977.10 0.4246
977.20 0.4242
977.30 0.4239
977.40 0.4235
977.50 0.4231
977.60 0.4228
977.70 0.4224
977.80 0.4221
977.90 0.4217
978.00 0.4213
978.10 0.421
978.20 0.4206
978.30 0.4203
978.40 0.4199
978.50 0.4195
978.60 0.4192
978.70 0.4188
978.80 0.4185
978.90 0.4181
979.00 0.4177
979.10 0.4174
979.20 0.417
979.30 0.4167
979.40 0.4163
979.50 0.416
979.60 0.4156
979.70 0.4152
979.80 0.4149
979.90 0.4145
980.00 0.4142
980.10 0.4138
980.20 0.4135
980.30 0.4131
980.40 0.4127
980.50 0.4124
980.60 0.412
980.70 0.4117
980.80 0.4113
980.90 0.411
981.00 0.4106
981.10 0.4103
981.20 0.4099
981.30 0.4095
981.40 0.4092
981.50 0.4088
981.60 0.4085
981.70 0.4081
981.80 0.4078
981.90 0.4074
982.00 0.4071
982.10 0.4067
982.20 0.4064
982.30 0.406
982.40 0.4057
982.50 0.4053
982.60 0.405
982.70 0.4047
982.80 0.4043
982.90 0.404
983.00 0.4036
983.10 0.4033
983.20 0.4029
983.30 0.4026
983.40 0.4023
983.50 0.4019
983.60 0.4016
983.70 0.4012
983.80 0.4009
983.90 0.4006
984.00 0.4002
984.10 0.3999
984.20 0.3995
984.30 0.3992
984.40 0.3989
984.50 0.3985
984.60 0.3982
984.70 0.3979
984.80 0.3975
984.90 0.3972
985.00 0.3969
985.10 0.3966
985.20 0.3963
985.30 0.3959
985.40 0.3956
985.50 0.3953
985.60 0.395
985.70 0.3947
985.80 0.3944
985.90 0.394
986.00 0.3937
986.10 0.3934
986.20 0.3931
986.30 0.3928
986.40 0.3925
986.50 0.3921
986.60 0.3918
986.70 0.3915
986.80 0.3912
986.90 0.3909
987.00 0.3906
987.10 0.3902
987.20 0.3899
987.30 0.3896
987.40 0.3892
987.50 0.3889
987.60 0.3886
987.70 0.3882
987.80 0.3879
987.90 0.3876
988.00 0.3872
988.10 0.3869
988.20 0.3866
988.30 0.3862
988.40 0.3859
988.50 0.3856
988.60 0.3853
988.70 0.3849
988.80 0.3846
988.90 0.3843
989.00 0.3839
989.10 0.3836
989.20 0.3833
989.30 0.3829
989.40 0.3826
989.50 0.3823
989.60 0.382
989.70 0.3816
989.80 0.3813
989.90 0.381
990.00 0.3806
990.10 0.3803
990.20 0.38
990.30 0.3797
990.40 0.3793
990.50 0.379
990.60 0.3787
990.70 0.3783
990.80 0.378
990.90 0.3777
991.00 0.3774
991.10 0.377
991.20 0.3767
991.30 0.3764
991.40 0.3761
991.50 0.3757
991.60 0.3754
991.70 0.3751
991.80 0.3747
991.90 0.3744
992.00 0.3741
992.10 0.3738
992.20 0.3734
992.30 0.3731
992.40 0.3728
992.50 0.3725
992.60 0.3721
992.70 0.3718
992.80 0.3715
992.90 0.3712
993.00 0.3708
993.10 0.3705
993.20 0.3702
993.30 0.3699
993.40 0.3695
993.50 0.3692
993.60 0.3689
993.70 0.3686
993.80 0.3682
993.90 0.3679
994.00 0.3676
994.10 0.3673
994.20 0.3669
994.30 0.3666
994.40 0.3663
994.50 0.366
994.60 0.3656
994.70 0.3653
994.80 0.3649
994.90 0.3645
995.00 0.3641
995.10 0.3637
995.20 0.3633
995.30 0.3629
995.40 0.3625
995.50 0.3621
995.60 0.3617
995.70 0.3614
995.80 0.3611
995.90 0.3608
996.00 0.3605
996.10 0.3601
996.20 0.3598
996.30 0.3595
996.40 0.3592
996.50 0.3589
996.60 0.3586
996.70 0.3583
996.80 0.3579
996.90 0.3576
997.00 0.3573
997.10 0.357
997.20 0.3567
997.30 0.3564
997.40 0.3561
997.50 0.3558
997.60 0.3555
997.70 0.3552
997.80 0.3549
997.90 0.3546
998.00 0.3543
998.10 0.354
998.20 0.3537
998.30 0.3534
998.40 0.3531
998.50 0.3528
998.60 0.3525
998.70 0.3522
998.80 0.3519
998.90 0.3516
999.00 0.3513
999.10 0.351
999.20 0.3507
999.30 0.3504
999.40 0.3501
999.50 0.3498
999.60 0.3495
999.70 0.3492
999.80 0.3489
999.90 0.3486
1000.00 0.3483
1000.10 0.348
1000.20 0.3477
1000.30 0.3475
1000.40 0.3472
1000.50 0.3469
1000.60 0.3466
1000.70 0.3463
1000.80 0.346
1000.90 0.3457
1001.00 0.3454
1001.10 0.3452
1001.20 0.3449
1001.30 0.3446
1001.40 0.3443
1001.50 0.344
1001.60 0.3437
1001.70 0.3434
1001.80 0.3432
1001.90 0.3429
1002.00 0.3426
1002.10 0.3423
1002.20 0.342
1002.30 0.3418
1002.40 0.3415
1002.50 0.3412
1002.60 0.3409
1002.70 0.3407
1002.80 0.3404
1002.90 0.3401
1003.00 0.3398
1003.10 0.3396
1003.20 0.3393
1003.30 0.339
1003.40 0.3387
1003.50 0.3385
1003.60 0.3382
1003.70 0.3379
1003.80 0.3377
1003.90 0.3374
1004.00 0.3371
1004.10 0.3369
1004.20 0.3366
1004.30 0.3363
1004.40 0.3361
1004.50 0.3358
1004.60 0.3355
1004.70 0.3353
1004.80 0.335
1004.90 0.3347
1005.00 0.3343
1005.10 0.3341
1005.20 0.3338
1005.30 0.3335
1005.40 0.3333
1005.50 0.333
1005.60 0.3328
1005.70 0.3325
1005.80 0.3322
1005.90 0.332
1006.00 0.3317
1006.10 0.3315
1006.20 0.3312
1006.30 0.331
1006.40 0.3307
1006.50 0.3305
1006.60 0.3302
1006.70 0.33
1006.80 0.3297
1006.90 0.3295
1007.00 0.3292
1007.10 0.329
1007.20 0.3287
1007.30 0.3285
1007.40 0.3282
1007.50 0.328
1007.60 0.3277
1007.70 0.3275
1007.80 0.3273
1007.90 0.327
1008.00 0.3268
1008.10 0.3266
1008.20 0.3263
1008.30 0.3261
1008.40 0.3258
1008.50 0.3256
1008.60 0.3254
1008.70 0.3251
1008.80 0.3249
1008.90 0.3247
1009.00 0.3244
1009.10 0.3242
1009.20 0.324
1009.30 0.3237
1009.40 0.3235
1009.50 0.3233
1009.60 0.323
1009.70 0.3228
1009.80 0.3226
1009.90 0.3223
1010.00 0.3221
1010.10 0.3219
1010.20 0.3217
1010.30 0.3214
1010.40 0.3212
1010.50 0.321
1010.60 0.3208
1010.70 0.3205
1010.80 0.3203
1010.90 0.3201
1011.00 0.3199
1011.10 0.3197
1011.20 0.3194
1011.30 0.3192
1011.40 0.319
1011.50 0.3188
1011.60 0.3185
1011.70 0.3183
1011.80 0.3181
1011.90 0.3179
1012.00 0.3177
1012.10 0.3175
1012.20 0.3173
1012.30 0.317
1012.40 0.3168
1012.50 0.3166
1012.60 0.3164
1012.70 0.3162
1012.80 0.316
1012.90 0.3158
1013.00 0.3156
1013.10 0.3154
1013.20 0.3152
1013.30 0.3149
1013.40 0.3147
1013.50 0.3145
1013.60 0.3143
1013.70 0.3141
1013.80 0.3139
1013.90 0.3137
1014.00 0.3135
1014.10 0.3133
1014.20 0.3131
1014.30 0.3129
1014.40 0.3127
1014.50 0.3125
1014.60 0.3123
1014.70 0.3121
1014.80 0.3119
1014.90 0.3118
1015.00 0.3116
1015.10 0.3114
1015.20 0.3112
1015.30 0.3111
1015.40 0.3109
1015.50 0.3107
1015.60 0.3106
1015.70 0.3104
1015.80 0.3102
1015.90 0.31
1016.00 0.3099
1016.10 0.3097
1016.20 0.3095
1016.30 0.3093
1016.40 0.3092
1016.50 0.309
1016.60 0.3088
1016.70 0.3086
1016.80 0.3084
1016.90 0.3082
1017.00 0.3081
1017.10 0.3079
1017.20 0.3077
1017.30 0.3075
1017.40 0.3073
1017.50 0.3071
1017.60 0.3069
1017.70 0.3067
1017.80 0.3066
1017.90 0.3064
1018.00 0.3062
1018.10 0.306
1018.20 0.3058
1018.30 0.3056
1018.40 0.3054
1018.50 0.3053
1018.60 0.3051
1018.70 0.3049
1018.80 0.3047
1018.90 0.3045
1019.00 0.3043
1019.10 0.3042
1019.20 0.304
1019.30 0.3038
1019.40 0.3036
1019.50 0.3034
1019.60 0.3032
1019.70 0.3031
1019.80 0.3029
1019.90 0.3027
1020.00 0.3025
1020.10 0.3023
1020.20 0.3022
1020.30 0.302
1020.40 0.3018
1020.50 0.3016
1020.60 0.3014
1020.70 0.3013
1020.80 0.3011
1020.90 0.3009
1021.00 0.3007
1021.10 0.3006
1021.20 0.3004
1021.30 0.3002
1021.40 0.3
1021.50 0.2998
1021.60 0.2997
1021.70 0.2995
1021.80 0.2993
1021.90 0.2991
1022.00 0.299
1022.10 0.2988
1022.20 0.2986
1022.30 0.2984
1022.40 0.2983
1022.50 0.2981
1022.60 0.2979
1022.70 0.2978
1022.80 0.2976
1022.90 0.2974
1023.00 0.2972
1023.10 0.2971
1023.20 0.2969
1023.30 0.2967
1023.40 0.2966
1023.50 0.2964
1023.60 0.2962
1023.70 0.296
1023.80 0.2959
1023.90 0.2957
1024.00 0.2955
1024.10 0.2954
1024.20 0.2952
1024.30 0.295
1024.40 0.2949
1024.50 0.2947
1024.60 0.2945
1024.70 0.2943
1024.80 0.2942
1024.90 0.294
1025.00 0.2938
1025.10 0.2937
1025.20 0.2935
1025.30 0.2933
1025.40 0.2932
1025.50 0.293
1025.60 0.2929
1025.70 0.2927
1025.80 0.2925
1025.90 0.2924
1026.00 0.2922
1026.10 0.292
1026.20 0.2919
1026.30 0.2917
1026.40 0.2915
1026.50 0.2914
1026.60 0.2912
1026.70 0.291
1026.80 0.2909
1026.90 0.2907
1027.00 0.2905
1027.10 0.2904
1027.20 0.2902
1027.30 0.2901
1027.40 0.2899
1027.50 0.2898
1027.60 0.2896
1027.70 0.2895
1027.80 0.2893
1027.90 0.2891
1028.00 0.289
1028.10 0.2888
1028.20 0.2887
1028.30 0.2885
1028.40 0.2884
1028.50 0.2882
1028.60 0.2881
1028.70 0.2879
1028.80 0.2878
1028.90 0.2876
1029.00 0.2875
1029.10 0.2873
1029.20 0.2872
1029.30 0.287
1029.40 0.2868
1029.50 0.2867
1029.60 0.2865
1029.70 0.2864
1029.80 0.2862
1029.90 0.2861
1030.00 0.2859
1030.10 0.2858
1030.20 0.2856
1030.30 0.2855
1030.40 0.2853
1030.50 0.2852
1030.60 0.285
1030.70 0.2849
1030.80 0.2847
1030.90 0.2846
1031.00 0.2844
1031.10 0.2843
1031.20 0.2841
1031.30 0.2839
1031.40 0.2838
1031.50 0.2836
1031.60 0.2835
1031.70 0.2833
1031.80 0.2832
1031.90 0.283
1032.00 0.2829
1032.10 0.2827
1032.20 0.2826
1032.30 0.2825
1032.40 0.2823
1032.50 0.2822
1032.60 0.282
1032.70 0.2819
1032.80 0.2818
1032.90 0.2816
1033.00 0.2815
1033.10 0.2813
1033.20 0.2812
1033.30 0.2811
1033.40 0.2809
1033.50 0.2808
1033.60 0.2806
1033.70 0.2805
1033.80 0.2803
1033.90 0.2802
1034.00 0.2801
1034.10 0.2799
1034.20 0.2798
1034.30 0.2796
1034.40 0.2795
1034.50 0.2794
1034.60 0.2792
1034.70 0.2791
1034.80 0.2789
1034.90 0.2788
1035.00 0.2787
1035.10 0.2785
1035.20 0.2784
1035.30 0.2782
1035.40 0.2781
1035.50 0.278
1035.60 0.2778
1035.70 0.2777
1035.80 0.2775
1035.90 0.2774
1036.00 0.2773
1036.10 0.2771
1036.20 0.277
1036.30 0.2769
1036.40 0.2767
1036.50 0.2766
1036.60 0.2764
1036.70 0.2763
1036.80 0.2762
1036.90 0.276
1037.00 0.2759
1037.10 0.2758
1037.20 0.2756
1037.30 0.2755
1037.40 0.2754
1037.50 0.2752
1037.60 0.2751
1037.70 0.275
1037.80 0.2749
1037.90 0.2747
1038.00 0.2746
1038.10 0.2745
1038.20 0.2744
1038.30 0.2742
1038.40 0.2741
1038.50 0.274
1038.60 0.2739
1038.70 0.2737
1038.80 0.2736
1038.90 0.2735
1039.00 0.2734
1039.10 0.2732
1039.20 0.2731
1039.30 0.273
1039.40 0.2729
1039.50 0.2727
1039.60 0.2726
1039.70 0.2725
1039.80 0.2724
1039.90 0.2722
1040.00 0.2721
1040.10 0.272
1040.20 0.2719
1040.30 0.2717
1040.40 0.2716
1040.50 0.2715
1040.60 0.2714
1040.70 0.2712
1040.80 0.2711
1040.90 0.271
1041.00 0.2709
1041.10 0.2707
1041.20 0.2706
1041.30 0.2705
1041.40 0.2704
1041.50 0.2702
1041.60 0.2701
1041.70 0.27
1041.80 0.2699
1041.90 0.2697
1042.00 0.2696
1042.10 0.2695
1042.20 0.2694
1042.30 0.2693
1042.40 0.2692
1042.50 0.2691
1042.60 0.2689
1042.70 0.2688
1042.80 0.2687
1042.90 0.2686
1043.00 0.2685
1043.10 0.2684
1043.20 0.2683
1043.30 0.2682
1043.40 0.268
1043.50 0.2679
1043.60 0.2678
1043.70 0.2677
1043.80 0.2676
1043.90 0.2675
1044.00 0.2674
1044.10 0.2673
1044.20 0.2672
1044.30 0.267
1044.40 0.2669
1044.50 0.2668
1044.60 0.2667
1044.70 0.2666
1044.80 0.2665
1044.90 0.2664
1045.00 0.2663
1045.10 0.2662
1045.20 0.266
1045.30 0.2659
1045.40 0.2658
1045.50 0.2657
1045.60 0.2656
1045.70 0.2655
1045.80 0.2654
1045.90 0.2653
1046.00 0.2652
1046.10 0.265
1046.20 0.2649
1046.30 0.2648
1046.40 0.2647
1046.50 0.2646
1046.60 0.2645
1046.70 0.2644
1046.80 0.2643
1046.90 0.2642
1047.00 0.264
1047.10 0.2639
1047.20 0.2638
1047.30 0.2637
1047.40 0.2636
1047.50 0.2635
1047.60 0.2634
1047.70 0.2633
1047.80 0.2632
1047.90 0.2631
1048.00 0.2631
1048.10 0.263
1048.20 0.2629
1048.30 0.2628
1048.40 0.2627
1048.50 0.2626
1048.60 0.2625
1048.70 0.2624
1048.80 0.2623
1048.90 0.2622
1049.00 0.2621
1049.10 0.262
1049.20 0.2619
1049.30 0.2618
1049.40 0.2617
1049.50 0.2616
1049.60 0.2615
1049.70 0.2614
1049.80 0.2613
1049.90 0.2612
1050.00 0.2611
1050.10 0.261
1050.20 0.2609
1050.30 0.2608
1050.40 0.2607
1050.50 0.2606
1050.60 0.2605
1050.70 0.2604
1050.80 0.2603
1050.90 0.2602
1051.00 0.2601
1051.10 0.26
1051.20 0.2599
1051.30 0.2598
1051.40 0.2597
1051.50 0.2596
1051.60 0.2595
1051.70 0.2594
1051.80 0.2593
1051.90 0.2592
1052.00 0.2591
1052.10 0.259
1052.20 0.2589
1052.30 0.2589
1052.40 0.2588
1052.50 0.2587
1052.60 0.2586
1052.70 0.2585
1052.80 0.2584
1052.90 0.2583
1053.00 0.2583
1053.10 0.2582
1053.20 0.2581
1053.30 0.258
1053.40 0.2579
1053.50 0.2578
1053.60 0.2577
1053.70 0.2577
1053.80 0.2576
1053.90 0.2575
1054.00 0.2574
1054.10 0.2573
1054.20 0.2572
1054.30 0.2571
1054.40 0.2571
1054.50 0.257
1054.60 0.2569
1054.70 0.2568
1054.80 0.2567
1054.90 0.2566
1055.00 0.2565
1055.10 0.2565
1055.20 0.2564
1055.30 0.2563
1055.40 0.2562
1055.50 0.2561
1055.60 0.256
1055.70 0.2559
1055.80 0.2559
1055.90 0.2558
1056.00 0.2557
1056.10 0.2556
1056.20 0.2555
1056.30 0.2554
1056.40 0.2553
1056.50 0.2553
1056.60 0.2552
1056.70 0.2551
1056.80 0.255
1056.90 0.2549
1057.00 0.2548
1057.10 0.2548
1057.20 0.2547
1057.30 0.2546
1057.40 0.2545
1057.50 0.2545
1057.60 0.2544
1057.70 0.2543
1057.80 0.2542
1057.90 0.2542
1058.00 0.2541
1058.10 0.254
1058.20 0.254
1058.30 0.2539
1058.40 0.2538
1058.50 0.2537
1058.60 0.2537
1058.70 0.2536
1058.80 0.2535
1058.90 0.2534
1059.00 0.2534
1059.10 0.2533
1059.20 0.2532
1059.30 0.2531
1059.40 0.2531
1059.50 0.253
1059.60 0.2529
1059.70 0.2529
1059.80 0.2528
1059.90 0.2527
1060.00 0.2526
1060.10 0.2526
1060.20 0.2525
1060.30 0.2524
1060.40 0.2523
1060.50 0.2523
1060.60 0.2522
1060.70 0.2521
1060.80 0.252
1060.90 0.252
1061.00 0.2519
1061.10 0.2518
1061.20 0.2518
1061.30 0.2517
1061.40 0.2516
1061.50 0.2515
1061.60 0.2515
1061.70 0.2514
1061.80 0.2513
1061.90 0.2512
1062.00 0.2512
1062.10 0.2511
1062.20 0.251
1062.30 0.251
1062.40 0.2509
1062.50 0.2509
1062.60 0.2508
1062.70 0.2507
1062.80 0.2507
1062.90 0.2506
1063.00 0.2505
1063.10 0.2505
1063.20 0.2504
1063.30 0.2504
1063.40 0.2503
1063.50 0.2502
1063.60 0.2502
1063.70 0.2501
1063.80 0.25
1063.90 0.25
1064.00 0.2499
1064.10 0.2499
1064.20 0.2498
1064.30 0.2497
1064.40 0.2497
1064.50 0.2496
1064.60 0.2495
1064.70 0.2495
1064.80 0.2494
1064.90 0.2494
1065.00 0.2493
1065.10 0.2492
1065.20 0.2492
1065.30 0.2491
1065.40 0.2491
1065.50 0.249
1065.60 0.2489
1065.70 0.2489
1065.80 0.2488
1065.90 0.2487
1066.00 0.2487
1066.10 0.2486
1066.20 0.2486
1066.30 0.2485
1066.40 0.2484
1066.50 0.2484
1066.60 0.2483
1066.70 0.2482
1066.80 0.2482
1066.90 0.2481
1067.00 0.2481
1067.10 0.248
1067.20 0.248
1067.30 0.2479
1067.40 0.2479
1067.50 0.2478
1067.60 0.2478
1067.70 0.2477
1067.80 0.2477
1067.90 0.2476
1068.00 0.2475
1068.10 0.2475
1068.20 0.2474
1068.30 0.2474
1068.40 0.2473
1068.50 0.2473
1068.60 0.2472
1068.70 0.2472
1068.80 0.2471
1068.90 0.2471
1069.00 0.247
1069.10 0.247
1069.20 0.2469
1069.30 0.2469
1069.40 0.2468
1069.50 0.2468
1069.60 0.2467
1069.70 0.2467
1069.80 0.2466
1069.90 0.2466
1070.00 0.2465
1070.10 0.2465
1070.20 0.2464
1070.30 0.2464
1070.40 0.2463
1070.50 0.2463
1070.60 0.2462
1070.70 0.2462
1070.80 0.2461
1070.90 0.2461
1071.00 0.246
1071.10 0.246
1071.20 0.2459
1071.30 0.2459
1071.40 0.2458
1071.50 0.2458
1071.60 0.2457
1071.70 0.2457
1071.80 0.2456
1071.90 0.2456
1072.00 0.2455
1072.10 0.2455
1072.20 0.2454
1072.30 0.2454
1072.40 0.2453
1072.50 0.2453
1072.60 0.2452
1072.70 0.2452
1072.80 0.2451
1072.90 0.2451
1073.00 0.245
1073.10 0.245
1073.20 0.245
1073.30 0.2449
1073.40 0.2449
1073.50 0.2448
1073.60 0.2448
1073.70 0.2447
1073.80 0.2447
1073.90 0.2446
1074.00 0.2446
1074.10 0.2446
1074.20 0.2445
1074.30 0.2445
1074.40 0.2444
1074.50 0.2444
1074.60 0.2444
1074.70 0.2443
1074.80 0.2443
1074.90 0.2442
1075.00 0.2442
1075.10 0.2441
1075.20 0.2441
1075.30 0.2441
1075.40 0.244
1075.50 0.244
1075.60 0.2439
1075.70 0.2439
1075.80 0.2439
1075.90 0.2438
1076.00 0.2438
1076.10 0.2437
1076.20 0.2437
1076.30 0.2436
1076.40 0.2436
1076.50 0.2436
1076.60 0.2435
1076.70 0.2435
1076.80 0.2434
1076.90 0.2434
1077.00 0.2434
1077.10 0.2433
1077.20 0.2433
1077.30 0.2432
1077.40 0.2432
1077.50 0.2432
1077.60 0.2431
1077.70 0.2431
1077.80 0.2431
1077.90 0.243
1078.00 0.243
1078.10 0.243
1078.20 0.2429
1078.30 0.2429
1078.40 0.2428
1078.50 0.2428
1078.60 0.2428
1078.70 0.2427
1078.80 0.2427
1078.90 0.2427
1079.00 0.2426
1079.10 0.2426
1079.20 0.2426
1079.30 0.2425
1079.40 0.2425
1079.50 0.2424
1079.60 0.2424
1079.70 0.2424
1079.80 0.2424
1079.90 0.2423
1080.00 0.2423
1080.10 0.2423
1080.20 0.2422
1080.30 0.2422
1080.40 0.2422
1080.50 0.2421
1080.60 0.2421
1080.70 0.2421
1080.80 0.242
1080.90 0.242
1081.00 0.242
1081.10 0.242
1081.20 0.2419
1081.30 0.2419
1081.40 0.2419
1081.50 0.2418
1081.60 0.2418
1081.70 0.2418
1081.80 0.2417
1081.90 0.2417
1082.00 0.2417
1082.10 0.2416
1082.20 0.2416
1082.30 0.2416
1082.40 0.2416
1082.50 0.2415
1082.60 0.2415
1082.70 0.2415
1082.80 0.2414
1082.90 0.2414
1083.00 0.2414
1083.10 0.2414
1083.20 0.2413
1083.30 0.2413
1083.40 0.2413
1083.50 0.2412
1083.60 0.2412
1083.70 0.2412
1083.80 0.2412
1083.90 0.2411
1084.00 0.2411
1084.10 0.2411
1084.20 0.241
1084.30 0.241
1084.40 0.241
1084.50 0.241
1084.60 0.2409
1084.70 0.2409
1084.80 0.2409
1084.90 0.2409
1085.00 0.2408
1085.10 0.2408
1085.20 0.2408
1085.30 0.2408
1085.40 0.2407
1085.50 0.2407
1085.60 0.2407
1085.70 0.2407
1085.80 0.2406
1085.90 0.2406
1086.00 0.2406
1086.10 0.2406
1086.20 0.2405
1086.30 0.2405
1086.40 0.2405
1086.50 0.2405
1086.60 0.2404
1086.70 0.2404
1086.80 0.2404
1086.90 0.2404
1087.00 0.2403
1087.10 0.2403
1087.20 0.2403
1087.30 0.2403
1087.40 0.2402
1087.50 0.2402
1087.60 0.2402
1087.70 0.2402
1087.80 0.2402
1087.90 0.2401
1088.00 0.2401
1088.10 0.2401
1088.20 0.2401
1088.30 0.24
1088.40 0.24
1088.50 0.24
1088.60 0.24
1088.70 0.24
1088.80 0.2399
1088.90 0.2399
1089.00 0.2399
1089.10 0.2399
1089.20 0.2399
1089.30 0.2398
1089.40 0.2398
1089.50 0.2398
1089.60 0.2398
1089.70 0.2398
1089.80 0.2397
1089.90 0.2397
1090.00 0.2397
1090.10 0.2397
1090.20 0.2397
1090.30 0.2396
1090.40 0.2396
1090.50 0.2396
1090.60 0.2396
1090.70 0.2396
1090.80 0.2395
1090.90 0.2395
1091.00 0.2395
1091.10 0.2395
1091.20 0.2395
1091.30 0.2395
1091.40 0.2394
1091.50 0.2394
1091.60 0.2394
1091.70 0.2394
1091.80 0.2394
1091.90 0.2394
1092.00 0.2393
1092.10 0.2393
1092.20 0.2393
1092.30 0.2393
1092.40 0.2393
1092.50 0.2393
1092.60 0.2392
1092.70 0.2392
1092.80 0.2392
1092.90 0.2392
1093.00 0.2392
1093.10 0.2392
1093.20 0.2392
1093.30 0.2392
1093.40 0.2392
1093.50 0.2392
1093.60 0.2392
1093.70 0.2391
1093.80 0.2391
1093.90 0.2391
1094.00 0.2391
1094.10 0.2391
1094.20 0.2391
1094.30 0.2391
1094.40 0.239
1094.50 0.239
1094.60 0.239
1094.70 0.239
1094.80 0.239
1094.90 0.239
1095.00 0.239
1095.10 0.239
1095.20 0.2389
1095.30 0.2389
1095.40 0.2389
1095.50 0.2389
1095.60 0.2389
1095.70 0.2389
1095.80 0.2389
1095.90 0.2388
1096.00 0.2388
1096.10 0.2388
1096.20 0.2388
1096.30 0.2388
1096.40 0.2388
1096.50 0.2388
1096.60 0.2388
1096.70 0.2387
1096.80 0.2387
1096.90 0.2387
1097.00 0.2387
1097.10 0.2387
1097.20 0.2387
1097.30 0.2387
1097.40 0.2387
1097.50 0.2387
1097.60 0.2386
1097.70 0.2386
1097.80 0.2386
1097.90 0.2386
1098.00 0.2386
1098.10 0.2386
1098.20 0.2386
1098.30 0.2386
1098.40 0.2386
1098.50 0.2385
1098.60 0.2385
1098.70 0.2385
1098.80 0.2385
1098.90 0.2385
1099.00 0.2385
1099.10 0.2385
1099.20 0.2385
1099.30 0.2385
1099.40 0.2385
1099.50 0.2385
1099.60 0.2384
1099.70 0.2384
1099.80 0.2384
1099.90 0.2384
1100.00 0.2384
1100.10 0.2384
1100.20 0.2384
1100.30 0.2384
1100.40 0.2384
1100.50 0.2384
1100.60 0.2384
1100.70 0.2383
1100.80 0.2383
1100.90 0.2383
1101.00 0.2383
1101.10 0.2383
1101.20 0.2383
1101.30 0.2383
1101.40 0.2383
1101.50 0.2383
1101.60 0.2383
1101.70 0.2383
1101.80 0.2383
1101.90 0.2382
1102.00 0.2382
1102.10 0.2382
1102.20 0.2382
1102.30 0.2382
1102.40 0.2382
1102.50 0.2382
1102.60 0.2382
1102.70 0.2382
1102.80 0.2382
1102.90 0.2382
1103.00 0.2382
1103.10 0.2382
1103.20 0.2382
1103.30 0.2381
1103.40 0.2381
1103.50 0.2381
1103.60 0.2381
1103.70 0.2381
1103.80 0.2381
1103.90 0.2381
1104.00 0.2381
1104.10 0.2381
1104.20 0.2381
1104.30 0.2381
1104.40 0.2381
1104.50 0.2381
1104.60 0.2381
1104.70 0.2381
1104.80 0.2381
1104.90 0.2381
1105.00 0.2381
1105.10 0.2381
1105.20 0.2381
1105.30 0.2381
1105.40 0.2381
1105.50 0.2381
1105.60 0.2381
1105.70 0.2381
1105.80 0.2381
1105.90 0.2381
1106.00 0.2381
1106.10 0.2381
1106.20 0.2381
1106.30 0.2381
1106.40 0.238
1106.50 0.238
1106.60 0.238
1106.70 0.238
1106.80 0.238
1106.90 0.238
1107.00 0.238
1107.10 0.238
1107.20 0.238
1107.30 0.238
1107.40 0.238
1107.50 0.238
1107.60 0.238
1107.70 0.238
1107.80 0.238
1107.90 0.238
1108.00 0.238
1108.10 0.238
1108.20 0.238
1108.30 0.238
1108.40 0.238
1108.50 0.238
1108.60 0.238
1108.70 0.238
1108.80 0.238
1108.90 0.238
1109.00 0.238
1109.10 0.238
1109.20 0.238
1109.30 0.238
1109.40 0.2379
1109.50 0.2379
1109.60 0.2379
1109.70 0.2379
1109.80 0.2379
1109.90 0.2379
1110.00 0.2379
1110.10 0.2379
1110.20 0.2379
1110.30 0.2379
1110.40 0.2379
1110.50 0.2379
1110.60 0.2379
1110.70 0.2379
1110.80 0.2379
1110.90 0.2379
1111.00 0.2379
1111.10 0.2379
1111.20 0.2379
1111.30 0.2379
1111.40 0.2379
1111.50 0.2379
1111.60 0.2379
1111.70 0.2379
1111.80 0.2379
1111.90 0.2379
1112.00 0.2379
1112.10 0.2379
1112.20 0.2379
1112.30 0.2379
1112.40 0.2379
1112.50 0.2379
1112.60 0.2379
1112.70 0.2379
1112.80 0.2379
1112.90 0.2379
1113.00 0.2379
1113.10 0.2379
1113.20 0.2379
1113.30 0.2379
1113.40 0.2379
1113.50 0.2379
1113.60 0.2379
1113.70 0.2379
1113.80 0.2379
1113.90 0.2379
1114.00 0.2379
1114.10 0.2379
1114.20 0.2379
1114.30 0.2379
1114.40 0.2379
1114.50 0.2379
1114.60 0.2379
1114.70 0.2379
1114.80 0.2379
1114.90 0.2379
1115.00 0.2379
1115.10 0.2379
1115.20 0.2379
1115.30 0.2379
1115.40 0.2379
1115.50 0.2379
1115.60 0.2379
1115.70 0.2379
1115.80 0.2379
1115.90 0.2379
1116.00 0.2379
1116.10 0.2379
1116.20 0.2379
1116.30 0.2379
1116.40 0.2379
1116.50 0.2379
1116.60 0.2379
1116.70 0.2379
1116.80 0.2379
1116.90 0.2379
1117.00 0.2379
1117.10 0.2379
1117.20 0.2379
1117.30 0.2379
1117.40 0.2379
1117.50 0.2379
1117.60 0.2379
1117.70 0.2379
1117.80 0.2379
1117.90 0.2379
1118.00 0.2379
1118.10 0.2379
1118.20 0.238
1118.30 0.238
1118.40 0.238
1118.50 0.238
1118.60 0.238
1118.70 0.238
1118.80 0.238
1118.90 0.238
1119.00 0.238
1119.10 0.238
1119.20 0.238
1119.30 0.238
1119.40 0.238
1119.50 0.238
1119.60 0.238
1119.70 0.238
1119.80 0.238
1119.90 0.238
1120.00 0.238
1120.10 0.238
1120.20 0.238
1120.30 0.238
1120.40 0.238
1120.50 0.238
1120.60 0.238
1120.70 0.238
1120.80 0.238
1120.90 0.238
1121.00 0.238
1121.10 0.238
1121.20 0.2381
1121.30 0.2381
1121.40 0.2381
1121.50 0.2381
1121.60 0.2381
1121.70 0.2381
1121.80 0.2381
1121.90 0.2381
1122.00 0.2381
1122.10 0.2381
1122.20 0.2381
1122.30 0.2381
1122.40 0.2381
1122.50 0.2381
1122.60 0.2381
1122.70 0.2381
1122.80 0.2381
1122.90 0.2381
1123.00 0.2381
1123.10 0.2381
1123.20 0.2381
1123.30 0.2381
1123.40 0.2381
1123.50 0.2381
1123.60 0.2381
1123.70 0.2381
1123.80 0.2381
1123.90 0.2381
1124.00 0.2381
1124.10 0.2381
1124.20 0.2381
1124.30 0.2381
1124.40 0.2381
1124.50 0.2381
1124.60 0.2381
1124.70 0.2381
1124.80 0.2381
1124.90 0.2382
1125.00 0.2382
1125.10 0.2382
1125.20 0.2382
1125.30 0.2382
1125.40 0.2382
1125.50 0.2382
1125.60 0.2382
1125.70 0.2382
1125.80 0.2382
1125.90 0.2382
1126.00 0.2382
1126.10 0.2382
1126.20 0.2382
1126.30 0.2382
1126.40 0.2382
1126.50 0.2382
1126.60 0.2382
1126.70 0.2382
1126.80 0.2382
1126.90 0.2382
1127.00 0.2382
1127.10 0.2382
1127.20 0.2382
1127.30 0.2382
1127.40 0.2382
1127.50 0.2382
1127.60 0.2382
1127.70 0.2382
1127.80 0.2382
1127.90 0.2382
1128.00 0.2383
1128.10 0.2383
1128.20 0.2383
1128.30 0.2383
1128.40 0.2383
1128.50 0.2383
1128.60 0.2383
1128.70 0.2383
1128.80 0.2383
1128.90 0.2383
1129.00 0.2383
1129.10 0.2383
1129.20 0.2383
1129.30 0.2383
1129.40 0.2383
1129.50 0.2383
1129.60 0.2383
1129.70 0.2383
1129.80 0.2383
1129.90 0.2383
1130.00 0.2384
1130.10 0.2384
1130.20 0.2384
1130.30 0.2384
1130.40 0.2384
1130.50 0.2384
1130.60 0.2384
1130.70 0.2384
1130.80 0.2384
1130.90 0.2384
1131.00 0.2384
1131.10 0.2384
1131.20 0.2384
1131.30 0.2384
1131.40 0.2384
1131.50 0.2384
1131.60 0.2384
1131.70 0.2384
1131.80 0.2384
1131.90 0.2384
1132.00 0.2384
1132.10 0.2385
1132.20 0.2385
1132.30 0.2385
1132.40 0.2385
1132.50 0.2385
1132.60 0.2385
1132.70 0.2385
1132.80 0.2385
1132.90 0.2385
1133.00 0.2385
1133.10 0.2385
1133.20 0.2385
1133.30 0.2385
1133.40 0.2385
1133.50 0.2385
1133.60 0.2385
1133.70 0.2385
1133.80 0.2385
1133.90 0.2385
1134.00 0.2385
1134.10 0.2385
1134.20 0.2385
1134.30 0.2385
1134.40 0.2385
1134.50 0.2385
1134.60 0.2385
1134.70 0.2385
1134.80 0.2385
1134.90 0.2385
1135.00 0.2385
1135.10 0.2385
1135.20 0.2385
1135.30 0.2385
1135.40 0.2385
1135.50 0.2385
1135.60 0.2385
1135.70 0.2385
1135.80 0.2385
1135.90 0.2385
1136.00 0.2385
1136.10 0.2385
1136.20 0.2385
1136.30 0.2385
1136.40 0.2385
1136.50 0.2385
1136.60 0.2385
1136.70 0.2385
1136.80 0.2385
1136.90 0.2385
1137.00 0.2385
1137.10 0.2385
1137.20 0.2385
1137.30 0.2385
1137.40 0.2385
1137.50 0.2385
1137.60 0.2385
1137.70 0.2385
1137.80 0.2385
1137.90 0.2385
1138.00 0.2385
1138.10 0.2385
1138.20 0.2385
1138.30 0.2385
1138.40 0.2385
1138.50 0.2385
1138.60 0.2385
1138.70 0.2385
1138.80 0.2385
1138.90 0.2385
1139.00 0.2385
1139.10 0.2385
1139.20 0.2385
1139.30 0.2385
1139.40 0.2385
1139.50 0.2385
1139.60 0.2385
1139.70 0.2385
1139.80 0.2385
1139.90 0.2385
1140.00 0.2385
1140.10 0.2385
1140.20 0.2385
1140.30 0.2385
1140.40 0.2385
1140.50 0.2385
1140.60 0.2385
1140.70 0.2385
1140.80 0.2385
1140.90 0.2385
1141.00 0.2385
1141.10 0.2385
1141.20 0.2385
1141.30 0.2385
1141.40 0.2385
1141.50 0.2385
1141.60 0.2385
1141.70 0.2385
1141.80 0.2385
1141.90 0.2385
1142.00 0.2385
1142.10 0.2384
1142.20 0.2384
1142.30 0.2384
1142.40 0.2384
1142.50 0.2384
1142.60 0.2384
1142.70 0.2384
1142.80 0.2384
1142.90 0.2384
1143.00 0.2384
1143.10 0.2384
1143.20 0.2384
1143.30 0.2384
1143.40 0.2384
1143.50 0.2384
1143.60 0.2384
1143.70 0.2384
1143.80 0.2384
1143.90 0.2384
1144.00 0.2384
1144.10 0.2384
1144.20 0.2384
1144.30 0.2384
1144.40 0.2384
1144.50 0.2384
1144.60 0.2384
1144.70 0.2384
1144.80 0.2384
1144.90 0.2384
1145.00 0.2384
1145.10 0.2384
1145.20 0.2384
1145.30 0.2384
1145.40 0.2384
1145.50 0.2384
1145.60 0.2384
1145.70 0.2384
1145.80 0.2384
1145.90 0.2384
1146.00 0.2384
1146.10 0.2384
1146.20 0.2384
1146.30 0.2384
1146.40 0.2384
1146.50 0.2384
1146.60 0.2384
1146.70 0.2384
1146.80 0.2384
1146.90 0.2384
1147.00 0.2383
1147.10 0.2383
1147.20 0.2383
1147.30 0.2383
1147.40 0.2383
1147.50 0.2383
1147.60 0.2383
1147.70 0.2383
1147.80 0.2383
1147.90 0.2383
1148.00 0.2383
1148.10 0.2383
1148.20 0.2383
1148.30 0.2382
1148.40 0.2382
1148.50 0.2382
1148.60 0.2382
1148.70 0.2382
1148.80 0.2382
1148.90 0.2382
1149.00 0.2382
1149.10 0.2382
1149.20 0.2382
1149.30 0.2382
1149.40 0.2382
1149.50 0.2382
1149.60 0.2381
1149.70 0.2381
1149.80 0.2381
1149.90 0.2381
1150.00 0.2381
1150.10 0.2381
1150.20 0.2381
1150.30 0.2381
1150.40 0.2381
1150.50 0.2381
1150.60 0.2381
1150.70 0.2381
1150.80 0.2381
1150.90 0.238
1151.00 0.238
1151.10 0.238
1151.20 0.238
1151.30 0.238
1151.40 0.238
1151.50 0.238
1151.60 0.238
1151.70 0.238
1151.80 0.238
1151.90 0.238
1152.00 0.238
1152.10 0.2379
1152.20 0.2379
1152.30 0.2379
1152.40 0.2379
1152.50 0.2379
1152.60 0.2379
1152.70 0.2379
1152.80 0.2379
1152.90 0.2379
1153.00 0.2379
1153.10 0.2378
1153.20 0.2378
1153.30 0.2378
1153.40 0.2378
1153.50 0.2378
1153.60 0.2378
1153.70 0.2378
1153.80 0.2378
1153.90 0.2378
1154.00 0.2378
1154.10 0.2377
1154.20 0.2377
1154.30 0.2377
1154.40 0.2377
1154.50 0.2377
1154.60 0.2377
1154.70 0.2377
1154.80 0.2377
1154.90 0.2377
1155.00 0.2377
1155.10 0.2376
1155.20 0.2376
1155.30 0.2376
1155.40 0.2376
1155.50 0.2376
1155.60 0.2376
1155.70 0.2376
1155.80 0.2376
1155.90 0.2376
1156.00 0.2376
1156.10 0.2375
1156.20 0.2375
1156.30 0.2375
1156.40 0.2375
1156.50 0.2375
1156.60 0.2375
1156.70 0.2375
1156.80 0.2375
1156.90 0.2375
1157.00 0.2375
1157.10 0.2374
1157.20 0.2374
1157.30 0.2374
1157.40 0.2374
1157.50 0.2374
1157.60 0.2374
1157.70 0.2373
1157.80 0.2373
1157.90 0.2373
1158.00 0.2373
1158.10 0.2373
1158.20 0.2373
1158.30 0.2372
1158.40 0.2372
1158.50 0.2372
1158.60 0.2372
1158.70 0.2372
1158.80 0.2372
1158.90 0.2371
1159.00 0.2371
1159.10 0.2371
1159.20 0.2371
1159.30 0.2371
1159.40 0.2371
1159.50 0.237
1159.60 0.237
1159.70 0.237
1159.80 0.237
1159.90 0.237
1160.00 0.237
1160.10 0.2369
1160.20 0.2369
1160.30 0.2369
1160.40 0.2369
1160.50 0.2369
1160.60 0.2369
1160.70 0.2368
1160.80 0.2368
1160.90 0.2368
1161.00 0.2368
1161.10 0.2368
1161.20 0.2368
1161.30 0.2367
1161.40 0.2367
1161.50 0.2367
1161.60 0.2367
1161.70 0.2367
1161.80 0.2367
1161.90 0.2366
1162.00 0.2366
1162.10 0.2366
1162.20 0.2366
1162.30 0.2366
1162.40 0.2365
1162.50 0.2365
1162.60 0.2365
1162.70 0.2365
1162.80 0.2364
1162.90 0.2364
1163.00 0.2364
1163.10 0.2364
1163.20 0.2364
1163.30 0.2363
1163.40 0.2363
1163.50 0.2363
1163.60 0.2363
1163.70 0.2362
1163.80 0.2362
1163.90 0.2362
1164.00 0.2362
1164.10 0.2362
1164.20 0.2361
1164.30 0.2361
1164.40 0.2361
1164.50 0.2361
1164.60 0.236
1164.70 0.236
1164.80 0.236
1164.90 0.236
1165.00 0.236
1165.10 0.2359
1165.20 0.2359
1165.30 0.2359
1165.40 0.2359
1165.50 0.2358
1165.60 0.2358
1165.70 0.2358
1165.80 0.2358
1165.90 0.2358
1166.00 0.2357
1166.10 0.2357
1166.20 0.2357
1166.30 0.2357
1166.40 0.2356
1166.50 0.2356
1166.60 0.2356
1166.70 0.2356
1166.80 0.2356
1166.90 0.2355
1167.00 0.2355
1167.10 0.2355
1167.20 0.2355
1167.30 0.2354
1167.40 0.2354
1167.50 0.2354
1167.60 0.2354
1167.70 0.2353
1167.80 0.2353
1167.90 0.2353
1168.00 0.2352
1168.10 0.2352
1168.20 0.2352
1168.30 0.2352
1168.40 0.2351
1168.50 0.2351
1168.60 0.2351
1168.70 0.2351
1168.80 0.235
1168.90 0.235
1169.00 0.235
1169.10 0.2349
1169.20 0.2349
1169.30 0.2349
1169.40 0.2349
1169.50 0.2348
1169.60 0.2348
1169.70 0.2348
1169.80 0.2348
1169.90 0.2347
1170.00 0.2347
1170.10 0.2347
1170.20 0.2347
1170.30 0.2346
1170.40 0.2346
1170.50 0.2346
1170.60 0.2345
1170.70 0.2345
1170.80 0.2345
1170.90 0.2345
1171.00 0.2344
1171.10 0.2344
1171.20 0.2344
1171.30 0.2344
1171.40 0.2343
1171.50 0.2343
1171.60 0.2343
1171.70 0.2343
1171.80 0.2342
1171.90 0.2342
1172.00 0.2342
1172.10 0.2341
1172.20 0.2341
1172.30 0.2341
1172.40 0.234
1172.50 0.234
1172.60 0.234
1172.70 0.2339
1172.80 0.2339
1172.90 0.2339
1173.00 0.2339
1173.10 0.2338
1173.20 0.2338
1173.30 0.2338
1173.40 0.2337
1173.50 0.2337
1173.60 0.2337
1173.70 0.2336
1173.80 0.2336
1173.90 0.2336
1174.00 0.2335
1174.10 0.2335
1174.20 0.2335
1174.30 0.2334
1174.40 0.2334
1174.50 0.2334
1174.60 0.2333
1174.70 0.2333
1174.80 0.2333
1174.90 0.2332
1175.00 0.2332
1175.10 0.2332
1175.20 0.2331
1175.30 0.2331
1175.40 0.2331
1175.50 0.2331
1175.60 0.233
1175.70 0.233
1175.80 0.233
1175.90 0.2329
1176.00 0.2329
1176.10 0.2329
1176.20 0.2328
1176.30 0.2328
1176.40 0.2328
1176.50 0.2327
1176.60 0.2327
1176.70 0.2327
1176.80 0.2326
1176.90 0.2326
1177.00 0.2326
1177.10 0.2325
1177.20 0.2325
1177.30 0.2325
1177.40 0.2324
1177.50 0.2324
1177.60 0.2324
1177.70 0.2323
1177.80 0.2323
1177.90 0.2322
1178.00 0.2322
1178.10 0.2322
1178.20 0.2321
1178.30 0.2321
1178.40 0.2321
1178.50 0.232
1178.60 0.232
1178.70 0.232
1178.80 0.2319
1178.90 0.2319
1179.00 0.2318
1179.10 0.2318
1179.20 0.2318
1179.30 0.2317
1179.40 0.2317
1179.50 0.2317
1179.60 0.2316
1179.70 0.2316
1179.80 0.2315
1179.90 0.2315
1180.00 0.2315
1180.10 0.2314
1180.20 0.2314
1180.30 0.2314
1180.40 0.2313
1180.50 0.2313
1180.60 0.2313
1180.70 0.2312
1180.80 0.2312
1180.90 0.2311
1181.00 0.2311
1181.10 0.2311
1181.20 0.231
1181.30 0.231
1181.40 0.231
1181.50 0.2309
1181.60 0.2309
1181.70 0.2309
1181.80 0.2308
1181.90 0.2308
1182.00 0.2307
1182.10 0.2307
1182.20 0.2307
1182.30 0.2306
1182.40 0.2306
1182.50 0.2305
1182.60 0.2305
1182.70 0.2304
1182.80 0.2304
1182.90 0.2304
1183.00 0.2303
1183.10 0.2303
1183.20 0.2302
1183.30 0.2302
1183.40 0.2301
1183.50 0.2301
1183.60 0.2301
1183.70 0.23
1183.80 0.23
1183.90 0.2299
1184.00 0.2299
1184.10 0.2298
1184.20 0.2298
1184.30 0.2298
1184.40 0.2297
1184.50 0.2297
1184.60 0.2296
1184.70 0.2296
1184.80 0.2296
1184.90 0.2295
1185.00 0.2295
1185.10 0.2294
1185.20 0.2294
1185.30 0.2293
1185.40 0.2293
1185.50 0.2293
1185.60 0.2292
1185.70 0.2292
1185.80 0.2291
1185.90 0.2291
1186.00 0.229
1186.10 0.229
1186.20 0.229
1186.30 0.2289
1186.40 0.2289
1186.50 0.2288
1186.60 0.2288
1186.70 0.2287
1186.80 0.2287
1186.90 0.2287
1187.00 0.2286
1187.10 0.2286
1187.20 0.2285
1187.30 0.2285
1187.40 0.2284
1187.50 0.2284
1187.60 0.2284
1187.70 0.2283
1187.80 0.2283
1187.90 0.2282
1188.00 0.2282
1188.10 0.2281
1188.20 0.2281
1188.30 0.2281
1188.40 0.228
1188.50 0.228
1188.60 0.2279
1188.70 0.2279
1188.80 0.2278
1188.90 0.2278
1189.00 0.2278
1189.10 0.2277
1189.20 0.2277
1189.30 0.2276
1189.40 0.2276
1189.50 0.2275
1189.60 0.2275
1189.70 0.2275
1189.80 0.2274
1189.90 0.2274
1190.00 0.2273
1190.10 0.2273
1190.20 0.2272
1190.30 0.2272
1190.40 0.2272
1190.50 0.2271
1190.60 0.2271
1190.70 0.227
1190.80 0.227
1190.90 0.227
1191.00 0.2269
1191.10 0.2269
1191.20 0.2268
1191.30 0.2268
1191.40 0.2267
1191.50 0.2267
1191.60 0.2267
1191.70 0.2266
1191.80 0.2266
1191.90 0.2265
1192.00 0.2265
1192.10 0.2264
1192.20 0.2264
1192.30 0.2263
1192.40 0.2263
1192.50 0.2263
1192.60 0.2262
1192.70 0.2262
1192.80 0.2261
1192.90 0.2261
1193.00 0.226
1193.10 0.226
1193.20 0.2259
1193.30 0.2259
1193.40 0.2259
1193.50 0.2258
1193.60 0.2258
1193.70 0.2257
1193.80 0.2257
1193.90 0.2256
1194.00 0.2256
1194.10 0.2255
1194.20 0.2255
1194.30 0.2254
1194.40 0.2254
1194.50 0.2254
1194.60 0.2253
1194.70 0.2253
1194.80 0.2252
1194.90 0.2252
1195.00 0.2251
1195.10 0.2251
1195.20 0.225
1195.30 0.225
1195.40 0.225
1195.50 0.2249
1195.60 0.2249
1195.70 0.2248
1195.80 0.2248
1195.90 0.2247
1196.00 0.2247
1196.10 0.2246
1196.20 0.2246
1196.30 0.2246
1196.40 0.2245
1196.50 0.2245
1196.60 0.2244
1196.70 0.2244
1196.80 0.2243
1196.90 0.2243
1197.00 0.2242
1197.10 0.2242
1197.20 0.2241
1197.30 0.2241
1197.40 0.224
1197.50 0.224
1197.60 0.2239
1197.70 0.2239
1197.80 0.2238
1197.90 0.2238
1198.00 0.2238
1198.10 0.2237
1198.20 0.2237
1198.30 0.2236
1198.40 0.2236
1198.50 0.2235
1198.60 0.2235
1198.70 0.2234
1198.80 0.2234
1198.90 0.2233
1199.00 0.2233
1199.10 0.2232
1199.20 0.2232
1199.30 0.2231
1199.40 0.2231
1199.50 0.223
1199.60 0.223
1199.70 0.2229
1199.80 0.2229
1199.90 0.2228
1200.00 0
