# Version 2.1 - nm, norm@500 to 1, cut digits, bergeron_4500_70.dat_4500
# Wavelength(nm)  Flambda(ergs/cm^s/s/nm)
300.00 0.2379
300.10 0.2383
300.20 0.2386
300.30 0.239
300.40 0.2394
300.50 0.2398
300.60 0.2402
300.70 0.2406
300.80 0.241
300.90 0.2414
301.00 0.2417
301.10 0.2421
301.20 0.2425
301.30 0.2429
301.40 0.2433
301.50 0.2437
301.60 0.244
301.70 0.2444
301.80 0.2448
301.90 0.2452
302.00 0.2456
302.10 0.246
302.20 0.2464
302.30 0.2468
302.40 0.2471
302.50 0.2475
302.60 0.2479
302.70 0.2483
302.80 0.2487
302.90 0.2491
303.00 0.2495
303.10 0.2499
303.20 0.2503
303.30 0.2507
303.40 0.251
303.50 0.2514
303.60 0.2518
303.70 0.2522
303.80 0.2526
303.90 0.253
304.00 0.2534
304.10 0.2538
304.20 0.2542
304.30 0.2546
304.40 0.255
304.50 0.2554
304.60 0.2557
304.70 0.2561
304.80 0.2565
304.90 0.2569
305.00 0.2573
305.10 0.2577
305.20 0.2581
305.30 0.2585
305.40 0.2589
305.50 0.2593
305.60 0.2597
305.70 0.2601
305.80 0.2605
305.90 0.2609
306.00 0.2613
306.10 0.2617
306.20 0.2621
306.30 0.2625
306.40 0.2629
306.50 0.2633
306.60 0.2637
306.70 0.2641
306.80 0.2645
306.90 0.2649
307.00 0.2653
307.10 0.2657
307.20 0.2661
307.30 0.2665
307.40 0.2669
307.50 0.2672
307.60 0.2676
307.70 0.268
307.80 0.2684
307.90 0.2688
308.00 0.2692
308.10 0.2696
308.20 0.27
308.30 0.2704
308.40 0.2708
308.50 0.2713
308.60 0.2717
308.70 0.2721
308.80 0.2725
308.90 0.2729
309.00 0.2733
309.10 0.2737
309.20 0.2741
309.30 0.2745
309.40 0.2749
309.50 0.2753
309.60 0.2757
309.70 0.2761
309.80 0.2765
309.90 0.2769
310.00 0.2773
310.10 0.2777
310.20 0.2781
310.30 0.2785
310.40 0.2789
310.50 0.2793
310.60 0.2797
310.70 0.2801
310.80 0.2806
310.90 0.281
311.00 0.2814
311.10 0.2818
311.20 0.2822
311.30 0.2826
311.40 0.283
311.50 0.2834
311.60 0.2838
311.70 0.2842
311.80 0.2846
311.90 0.285
312.00 0.2854
312.10 0.2858
312.20 0.2862
312.30 0.2866
312.40 0.2871
312.50 0.2875
312.60 0.2879
312.70 0.2883
312.80 0.2887
312.90 0.2891
313.00 0.2895
313.10 0.2899
313.20 0.2904
313.30 0.2908
313.40 0.2912
313.50 0.2916
313.60 0.292
313.70 0.2924
313.80 0.2928
313.90 0.2932
314.00 0.2936
314.10 0.294
314.20 0.2944
314.30 0.2949
314.40 0.2953
314.50 0.2957
314.60 0.2961
314.70 0.2965
314.80 0.2969
314.90 0.2974
315.00 0.2978
315.10 0.2982
315.20 0.2986
315.30 0.299
315.40 0.2994
315.50 0.2998
315.60 0.3003
315.70 0.3007
315.80 0.3011
315.90 0.3015
316.00 0.3019
316.10 0.3023
316.20 0.3027
316.30 0.3032
316.40 0.3036
316.50 0.304
316.60 0.3044
316.70 0.3048
316.80 0.3053
316.90 0.3057
317.00 0.3061
317.10 0.3065
317.20 0.3069
317.30 0.3073
317.40 0.3078
317.50 0.3082
317.60 0.3086
317.70 0.309
317.80 0.3094
317.90 0.3098
318.00 0.3103
318.10 0.3107
318.20 0.3111
318.30 0.3115
318.40 0.3119
318.50 0.3124
318.60 0.3128
318.70 0.3132
318.80 0.3136
318.90 0.3141
319.00 0.3145
319.10 0.3149
319.20 0.3153
319.30 0.3157
319.40 0.3162
319.50 0.3166
319.60 0.317
319.70 0.3174
319.80 0.3178
319.90 0.3182
320.00 0.3187
320.10 0.3191
320.20 0.3195
320.30 0.3199
320.40 0.3204
320.50 0.3208
320.60 0.3212
320.70 0.3217
320.80 0.3221
320.90 0.3225
321.00 0.3229
321.10 0.3234
321.20 0.3238
321.30 0.3242
321.40 0.3246
321.50 0.325
321.60 0.3255
321.70 0.3259
321.80 0.3263
321.90 0.3267
322.00 0.3271
322.10 0.3276
322.20 0.328
322.30 0.3284
322.40 0.3289
322.50 0.3293
322.60 0.3297
322.70 0.3302
322.80 0.3306
322.90 0.331
323.00 0.3314
323.10 0.3319
323.20 0.3323
323.30 0.3327
323.40 0.3331
323.50 0.3336
323.60 0.334
323.70 0.3344
323.80 0.3348
323.90 0.3353
324.00 0.3357
324.10 0.3361
324.20 0.3365
324.30 0.337
324.40 0.3374
324.50 0.3378
324.60 0.3383
324.70 0.3387
324.80 0.3391
324.90 0.3396
325.00 0.34
325.10 0.3404
325.20 0.3409
325.30 0.3413
325.40 0.3417
325.50 0.3421
325.60 0.3426
325.70 0.343
325.80 0.3434
325.90 0.3439
326.00 0.3443
326.10 0.3447
326.20 0.3451
326.30 0.3456
326.40 0.346
326.50 0.3465
326.60 0.3469
326.70 0.3473
326.80 0.3478
326.90 0.3482
327.00 0.3486
327.10 0.3491
327.20 0.3495
327.30 0.3499
327.40 0.3504
327.50 0.3508
327.60 0.3512
327.70 0.3516
327.80 0.3521
327.90 0.3525
328.00 0.3529
328.10 0.3534
328.20 0.3538
328.30 0.3542
328.40 0.3547
328.50 0.3551
328.60 0.3556
328.70 0.356
328.80 0.3564
328.90 0.3569
329.00 0.3573
329.10 0.3577
329.20 0.3582
329.30 0.3586
329.40 0.359
329.50 0.3595
329.60 0.3599
329.70 0.3603
329.80 0.3608
329.90 0.3612
330.00 0.3616
330.10 0.3621
330.20 0.3625
330.30 0.3629
330.40 0.3634
330.50 0.3638
330.60 0.3643
330.70 0.3647
330.80 0.3651
330.90 0.3656
331.00 0.366
331.10 0.3664
331.20 0.3669
331.30 0.3673
331.40 0.3678
331.50 0.3682
331.60 0.3686
331.70 0.3691
331.80 0.3695
331.90 0.3699
332.00 0.3703
332.10 0.3708
332.20 0.3712
332.30 0.3717
332.40 0.3721
332.50 0.3726
332.60 0.373
332.70 0.3735
332.80 0.3739
332.90 0.3743
333.00 0.3748
333.10 0.3752
333.20 0.3756
333.30 0.3761
333.40 0.3765
333.50 0.377
333.60 0.3774
333.70 0.3778
333.80 0.3783
333.90 0.3787
334.00 0.3791
334.10 0.3796
334.20 0.38
334.30 0.3805
334.40 0.3809
334.50 0.3814
334.60 0.3818
334.70 0.3822
334.80 0.3827
334.90 0.3831
335.00 0.3836
335.10 0.384
335.20 0.3844
335.30 0.3849
335.40 0.3853
335.50 0.3858
335.60 0.3862
335.70 0.3866
335.80 0.3871
335.90 0.3875
336.00 0.3879
336.10 0.3884
336.20 0.3888
336.30 0.3893
336.40 0.3897
336.50 0.3902
336.60 0.3906
336.70 0.3911
336.80 0.3915
336.90 0.392
337.00 0.3924
337.10 0.3928
337.20 0.3933
337.30 0.3937
337.40 0.3942
337.50 0.3946
337.60 0.3951
337.70 0.3955
337.80 0.3959
337.90 0.3964
338.00 0.3968
338.10 0.3973
338.20 0.3977
338.30 0.3982
338.40 0.3986
338.50 0.3991
338.60 0.3995
338.70 0.3999
338.80 0.4004
338.90 0.4008
339.00 0.4013
339.10 0.4017
339.20 0.4022
339.30 0.4026
339.40 0.403
339.50 0.4035
339.60 0.4039
339.70 0.4044
339.80 0.4048
339.90 0.4053
340.00 0.4057
340.10 0.4061
340.20 0.4066
340.30 0.407
340.40 0.4075
340.50 0.4079
340.60 0.4084
340.70 0.4088
340.80 0.4093
340.90 0.4097
341.00 0.4102
341.10 0.4106
341.20 0.4111
341.30 0.4115
341.40 0.412
341.50 0.4124
341.60 0.4128
341.70 0.4133
341.80 0.4137
341.90 0.4142
342.00 0.4146
342.10 0.4151
342.20 0.4155
342.30 0.416
342.40 0.4164
342.50 0.4169
342.60 0.4173
342.70 0.4178
342.80 0.4182
342.90 0.4186
343.00 0.4191
343.10 0.4195
343.20 0.42
343.30 0.4204
343.40 0.4209
343.50 0.4213
343.60 0.4218
343.70 0.4222
343.80 0.4227
343.90 0.4231
344.00 0.4235
344.10 0.424
344.20 0.4244
344.30 0.4249
344.40 0.4253
344.50 0.4258
344.60 0.4262
344.70 0.4267
344.80 0.4271
344.90 0.4276
345.00 0.428
345.10 0.4285
345.20 0.4289
345.30 0.4294
345.40 0.4298
345.50 0.4303
345.60 0.4307
345.70 0.4312
345.80 0.4316
345.90 0.4321
346.00 0.4325
346.10 0.433
346.20 0.4334
346.30 0.4339
346.40 0.4343
346.50 0.4348
346.60 0.4352
346.70 0.4357
346.80 0.4361
346.90 0.4366
347.00 0.437
347.10 0.4375
347.20 0.4379
347.30 0.4384
347.40 0.4388
347.50 0.4393
347.60 0.4397
347.70 0.4401
347.80 0.4406
347.90 0.441
348.00 0.4415
348.10 0.4419
348.20 0.4424
348.30 0.4428
348.40 0.4433
348.50 0.4438
348.60 0.4442
348.70 0.4447
348.80 0.4451
348.90 0.4456
349.00 0.446
349.10 0.4465
349.20 0.4469
349.30 0.4474
349.40 0.4478
349.50 0.4482
349.60 0.4487
349.70 0.4491
349.80 0.4496
349.90 0.45
350.00 0.4505
350.10 0.4509
350.20 0.4514
350.30 0.4518
350.40 0.4523
350.50 0.4527
350.60 0.4532
350.70 0.4536
350.80 0.4541
350.90 0.4546
351.00 0.455
351.10 0.4555
351.20 0.4559
351.30 0.4564
351.40 0.4568
351.50 0.4572
351.60 0.4577
351.70 0.4581
351.80 0.4586
351.90 0.459
352.00 0.4595
352.10 0.4599
352.20 0.4604
352.30 0.4608
352.40 0.4613
352.50 0.4617
352.60 0.4622
352.70 0.4627
352.80 0.4631
352.90 0.4636
353.00 0.464
353.10 0.4645
353.20 0.4649
353.30 0.4654
353.40 0.4658
353.50 0.4663
353.60 0.4667
353.70 0.4671
353.80 0.4676
353.90 0.468
354.00 0.4685
354.10 0.4689
354.20 0.4694
354.30 0.4699
354.40 0.4703
354.50 0.4708
354.60 0.4712
354.70 0.4717
354.80 0.4721
354.90 0.4726
355.00 0.473
355.10 0.4735
355.20 0.4739
355.30 0.4744
355.40 0.4748
355.50 0.4753
355.60 0.4757
355.70 0.4762
355.80 0.4766
355.90 0.4771
356.00 0.4775
356.10 0.478
356.20 0.4784
356.30 0.4789
356.40 0.4793
356.50 0.4798
356.60 0.4802
356.70 0.4807
356.80 0.4811
356.90 0.4816
357.00 0.482
357.10 0.4825
357.20 0.4829
357.30 0.4834
357.40 0.4838
357.50 0.4843
357.60 0.4847
357.70 0.4852
357.80 0.4856
357.90 0.4861
358.00 0.4865
358.10 0.487
358.20 0.4874
358.30 0.4879
358.40 0.4883
358.50 0.4888
358.60 0.4893
358.70 0.4897
358.80 0.4902
358.90 0.4906
359.00 0.4911
359.10 0.4915
359.20 0.492
359.30 0.4924
359.40 0.4929
359.50 0.4933
359.60 0.4938
359.70 0.4942
359.80 0.4947
359.90 0.4951
360.00 0.4955
360.10 0.496
360.20 0.4965
360.30 0.4969
360.40 0.4974
360.50 0.4978
360.60 0.4983
360.70 0.4987
360.80 0.4992
360.90 0.4996
361.00 0.5001
361.10 0.5005
361.20 0.501
361.30 0.5014
361.40 0.5019
361.50 0.5023
361.60 0.5028
361.70 0.5032
361.80 0.5037
361.90 0.5041
362.00 0.5046
362.10 0.505
362.20 0.5055
362.30 0.5059
362.40 0.5064
362.50 0.5068
362.60 0.5073
362.70 0.5077
362.80 0.5082
362.90 0.5086
363.00 0.5091
363.10 0.5095
363.20 0.51
363.30 0.5104
363.40 0.5109
363.50 0.5113
363.60 0.5118
363.70 0.5122
363.80 0.5127
363.90 0.5131
364.00 0.5136
364.10 0.514
364.20 0.5145
364.30 0.5149
364.40 0.5154
364.50 0.5158
364.60 0.5163
364.70 0.5167
364.80 0.5172
364.90 0.5176
365.00 0.5181
365.10 0.5185
365.20 0.519
365.30 0.5194
365.40 0.5199
365.50 0.5203
365.60 0.5208
365.70 0.5212
365.80 0.5217
365.90 0.5221
366.00 0.5226
366.10 0.523
366.20 0.5235
366.30 0.5239
366.40 0.5244
366.50 0.5248
366.60 0.5253
366.70 0.5257
366.80 0.5262
366.90 0.5266
367.00 0.5271
367.10 0.5275
367.20 0.528
367.30 0.5284
367.40 0.5289
367.50 0.5293
367.60 0.5298
367.70 0.5302
367.80 0.5307
367.90 0.5311
368.00 0.5315
368.10 0.532
368.20 0.5325
368.30 0.5329
368.40 0.5334
368.50 0.5338
368.60 0.5343
368.70 0.5347
368.80 0.5352
368.90 0.5356
369.00 0.5361
369.10 0.5365
369.20 0.537
369.30 0.5374
369.40 0.5379
369.50 0.5383
369.60 0.5387
369.70 0.5392
369.80 0.5396
369.90 0.5401
370.00 0.5405
370.10 0.541
370.20 0.5414
370.30 0.5419
370.40 0.5423
370.50 0.5428
370.60 0.5432
370.70 0.5437
370.80 0.5441
370.90 0.5446
371.00 0.545
371.10 0.5455
371.20 0.5459
371.30 0.5464
371.40 0.5468
371.50 0.5473
371.60 0.5477
371.70 0.5481
371.80 0.5486
371.90 0.549
372.00 0.5495
372.10 0.5499
372.20 0.5504
372.30 0.5508
372.40 0.5513
372.50 0.5517
372.60 0.5522
372.70 0.5526
372.80 0.5531
372.90 0.5535
373.00 0.554
373.10 0.5544
373.20 0.5549
373.30 0.5553
373.40 0.5558
373.50 0.5562
373.60 0.5566
373.70 0.5571
373.80 0.5575
373.90 0.558
374.00 0.5584
374.10 0.5589
374.20 0.5593
374.30 0.5598
374.40 0.5602
374.50 0.5607
374.60 0.5611
374.70 0.5615
374.80 0.562
374.90 0.5624
375.00 0.5629
375.10 0.5633
375.20 0.5638
375.30 0.5642
375.40 0.5647
375.50 0.5651
375.60 0.5656
375.70 0.566
375.80 0.5664
375.90 0.5669
376.00 0.5673
376.10 0.5678
376.20 0.5682
376.30 0.5687
376.40 0.5691
376.50 0.5695
376.60 0.57
376.70 0.5704
376.80 0.5709
376.90 0.5713
377.00 0.5718
377.10 0.5722
377.20 0.5727
377.30 0.5731
377.40 0.5735
377.50 0.574
377.60 0.5744
377.70 0.5749
377.80 0.5753
377.90 0.5757
378.00 0.5762
378.10 0.5766
378.20 0.5771
378.30 0.5775
378.40 0.578
378.50 0.5784
378.60 0.5789
378.70 0.5793
378.80 0.5797
378.90 0.5802
379.00 0.5806
379.10 0.5811
379.20 0.5815
379.30 0.582
379.40 0.5824
379.50 0.5828
379.60 0.5833
379.70 0.5837
379.80 0.5842
379.90 0.5846
380.00 0.585
380.10 0.5855
380.20 0.5859
380.30 0.5864
380.40 0.5868
380.50 0.5873
380.60 0.5877
380.70 0.5881
380.80 0.5886
380.90 0.589
381.00 0.5895
381.10 0.5899
381.20 0.5903
381.30 0.5908
381.40 0.5912
381.50 0.5917
381.60 0.5921
381.70 0.5925
381.80 0.593
381.90 0.5934
382.00 0.5939
382.10 0.5943
382.20 0.5947
382.30 0.5952
382.40 0.5956
382.50 0.5961
382.60 0.5965
382.70 0.597
382.80 0.5974
382.90 0.5978
383.00 0.5983
383.10 0.5987
383.20 0.5992
383.30 0.5996
383.40 0.6
383.50 0.6005
383.60 0.6009
383.70 0.6013
383.80 0.6018
383.90 0.6022
384.00 0.6027
384.10 0.6031
384.20 0.6035
384.30 0.604
384.40 0.6044
384.50 0.6049
384.60 0.6053
384.70 0.6057
384.80 0.6062
384.90 0.6066
385.00 0.607
385.10 0.6075
385.20 0.6079
385.30 0.6083
385.40 0.6088
385.50 0.6092
385.60 0.6097
385.70 0.6101
385.80 0.6105
385.90 0.611
386.00 0.6114
386.10 0.6118
386.20 0.6123
386.30 0.6127
386.40 0.6132
386.50 0.6136
386.60 0.614
386.70 0.6145
386.80 0.6149
386.90 0.6153
387.00 0.6158
387.10 0.6162
387.20 0.6166
387.30 0.6171
387.40 0.6175
387.50 0.618
387.60 0.6184
387.70 0.6188
387.80 0.6193
387.90 0.6197
388.00 0.6201
388.10 0.6206
388.20 0.621
388.30 0.6214
388.40 0.6219
388.50 0.6223
388.60 0.6227
388.70 0.6232
388.80 0.6236
388.90 0.624
389.00 0.6245
389.10 0.6249
389.20 0.6253
389.30 0.6258
389.40 0.6262
389.50 0.6266
389.60 0.6271
389.70 0.6275
389.80 0.6279
389.90 0.6284
390.00 0.6288
390.10 0.6292
390.20 0.6297
390.30 0.6301
390.40 0.6305
390.50 0.631
390.60 0.6314
390.70 0.6318
390.80 0.6323
390.90 0.6327
391.00 0.6331
391.10 0.6335
391.20 0.634
391.30 0.6344
391.40 0.6348
391.50 0.6353
391.60 0.6357
391.70 0.6361
391.80 0.6366
391.90 0.637
392.00 0.6374
392.10 0.6379
392.20 0.6383
392.30 0.6387
392.40 0.6391
392.50 0.6396
392.60 0.64
392.70 0.6404
392.80 0.6409
392.90 0.6413
393.00 0.6417
393.10 0.6422
393.20 0.6426
393.30 0.643
393.40 0.6434
393.50 0.6439
393.60 0.6443
393.70 0.6447
393.80 0.6452
393.90 0.6456
394.00 0.646
394.10 0.6464
394.20 0.6469
394.30 0.6473
394.40 0.6477
394.50 0.6481
394.60 0.6486
394.70 0.649
394.80 0.6494
394.90 0.6499
395.00 0.6503
395.10 0.6507
395.20 0.6511
395.30 0.6516
395.40 0.652
395.50 0.6524
395.60 0.6528
395.70 0.6533
395.80 0.6537
395.90 0.6541
396.00 0.6545
396.10 0.655
396.20 0.6554
396.30 0.6558
396.40 0.6563
396.50 0.6567
396.60 0.6571
396.70 0.6575
396.80 0.658
396.90 0.6584
397.00 0.6588
397.10 0.6592
397.20 0.6597
397.30 0.6601
397.40 0.6605
397.50 0.6609
397.60 0.6613
397.70 0.6618
397.80 0.6622
397.90 0.6626
398.00 0.663
398.10 0.6635
398.20 0.6639
398.30 0.6643
398.40 0.6647
398.50 0.6652
398.60 0.6656
398.70 0.666
398.80 0.6664
398.90 0.6668
399.00 0.6673
399.10 0.6677
399.20 0.6681
399.30 0.6685
399.40 0.6689
399.50 0.6694
399.60 0.6698
399.70 0.6702
399.80 0.6706
399.90 0.6711
400.00 0.6715
400.10 0.6719
400.20 0.6723
400.30 0.6727
400.40 0.6731
400.50 0.6736
400.60 0.674
400.70 0.6744
400.80 0.6748
400.90 0.6753
401.00 0.6757
401.10 0.6761
401.20 0.6765
401.30 0.6769
401.40 0.6774
401.50 0.6778
401.60 0.6782
401.70 0.6786
401.80 0.679
401.90 0.6794
402.00 0.6799
402.10 0.6803
402.20 0.6807
402.30 0.6811
402.40 0.6815
402.50 0.6819
402.60 0.6824
402.70 0.6828
402.80 0.6832
402.90 0.6836
403.00 0.684
403.10 0.6844
403.20 0.6849
403.30 0.6853
403.40 0.6857
403.50 0.6861
403.60 0.6865
403.70 0.6869
403.80 0.6874
403.90 0.6878
404.00 0.6882
404.10 0.6886
404.20 0.689
404.30 0.6894
404.40 0.6898
404.50 0.6903
404.60 0.6907
404.70 0.6911
404.80 0.6915
404.90 0.6919
405.00 0.6923
405.10 0.6927
405.20 0.6932
405.30 0.6936
405.40 0.694
405.50 0.6944
405.60 0.6948
405.70 0.6952
405.80 0.6956
405.90 0.696
406.00 0.6965
406.10 0.6969
406.20 0.6973
406.30 0.6977
406.40 0.6981
406.50 0.6985
406.60 0.6989
406.70 0.6993
406.80 0.6997
406.90 0.7002
407.00 0.7006
407.10 0.701
407.20 0.7014
407.30 0.7018
407.40 0.7022
407.50 0.7026
407.60 0.703
407.70 0.7034
407.80 0.7038
407.90 0.7043
408.00 0.7047
408.10 0.7051
408.20 0.7055
408.30 0.7059
408.40 0.7063
408.50 0.7067
408.60 0.7071
408.70 0.7075
408.80 0.7079
408.90 0.7083
409.00 0.7087
409.10 0.7091
409.20 0.7095
409.30 0.7099
409.40 0.7103
409.50 0.7107
409.60 0.7111
409.70 0.7115
409.80 0.7118
409.90 0.7122
410.00 0.7124
410.10 0.7125
410.20 0.7127
410.30 0.7134
410.40 0.7141
410.50 0.7147
410.60 0.7151
410.70 0.7156
410.80 0.716
410.90 0.7164
411.00 0.7168
411.10 0.7172
411.20 0.7177
411.30 0.7181
411.40 0.7185
411.50 0.7189
411.60 0.7193
411.70 0.7197
411.80 0.7201
411.90 0.7205
412.00 0.7209
412.10 0.7213
412.20 0.7217
412.30 0.7221
412.40 0.7225
412.50 0.7229
412.60 0.7233
412.70 0.7237
412.80 0.7241
412.90 0.7245
413.00 0.7249
413.10 0.7253
413.20 0.7257
413.30 0.7261
413.40 0.7265
413.50 0.7269
413.60 0.7273
413.70 0.7277
413.80 0.7281
413.90 0.7285
414.00 0.7289
414.10 0.7293
414.20 0.7297
414.30 0.7301
414.40 0.7305
414.50 0.7309
414.60 0.7313
414.70 0.7317
414.80 0.7321
414.90 0.7325
415.00 0.7329
415.10 0.7333
415.20 0.7337
415.30 0.7341
415.40 0.7345
415.50 0.7349
415.60 0.7353
415.70 0.7357
415.80 0.7361
415.90 0.7365
416.00 0.7369
416.10 0.7373
416.20 0.7377
416.30 0.7381
416.40 0.7385
416.50 0.7389
416.60 0.7393
416.70 0.7397
416.80 0.7401
416.90 0.7405
417.00 0.7408
417.10 0.7412
417.20 0.7416
417.30 0.742
417.40 0.7424
417.50 0.7428
417.60 0.7432
417.70 0.7436
417.80 0.744
417.90 0.7444
418.00 0.7448
418.10 0.7452
418.20 0.7456
418.30 0.746
418.40 0.7464
418.50 0.7468
418.60 0.7471
418.70 0.7475
418.80 0.7479
418.90 0.7483
419.00 0.7487
419.10 0.7491
419.20 0.7495
419.30 0.7499
419.40 0.7503
419.50 0.7507
419.60 0.7511
419.70 0.7514
419.80 0.7518
419.90 0.7522
420.00 0.7526
420.10 0.753
420.20 0.7534
420.30 0.7538
420.40 0.7542
420.50 0.7546
420.60 0.755
420.70 0.7553
420.80 0.7557
420.90 0.7561
421.00 0.7565
421.10 0.7569
421.20 0.7573
421.30 0.7577
421.40 0.7581
421.50 0.7584
421.60 0.7588
421.70 0.7592
421.80 0.7596
421.90 0.76
422.00 0.7604
422.10 0.7608
422.20 0.7611
422.30 0.7615
422.40 0.7619
422.50 0.7623
422.60 0.7627
422.70 0.7631
422.80 0.7635
422.90 0.7638
423.00 0.7642
423.10 0.7646
423.20 0.765
423.30 0.7654
423.40 0.7658
423.50 0.7661
423.60 0.7665
423.70 0.7669
423.80 0.7673
423.90 0.7677
424.00 0.7681
424.10 0.7684
424.20 0.7688
424.30 0.7692
424.40 0.7696
424.50 0.77
424.60 0.7703
424.70 0.7707
424.80 0.7711
424.90 0.7715
425.00 0.7719
425.10 0.7723
425.20 0.7726
425.30 0.773
425.40 0.7734
425.50 0.7738
425.60 0.7742
425.70 0.7745
425.80 0.7749
425.90 0.7753
426.00 0.7757
426.10 0.776
426.20 0.7764
426.30 0.7768
426.40 0.7772
426.50 0.7776
426.60 0.7779
426.70 0.7783
426.80 0.7787
426.90 0.7791
427.00 0.7795
427.10 0.7798
427.20 0.7802
427.30 0.7806
427.40 0.781
427.50 0.7813
427.60 0.7817
427.70 0.7821
427.80 0.7825
427.90 0.7828
428.00 0.7832
428.10 0.7836
428.20 0.784
428.30 0.7843
428.40 0.7847
428.50 0.7851
428.60 0.7855
428.70 0.7858
428.80 0.7862
428.90 0.7866
429.00 0.787
429.10 0.7873
429.20 0.7877
429.30 0.7881
429.40 0.7884
429.50 0.7888
429.60 0.7892
429.70 0.7896
429.80 0.7899
429.90 0.7903
430.00 0.7907
430.10 0.791
430.20 0.7914
430.30 0.7918
430.40 0.7922
430.50 0.7925
430.60 0.7929
430.70 0.7933
430.80 0.7936
430.90 0.794
431.00 0.7944
431.10 0.7947
431.20 0.7951
431.30 0.7955
431.40 0.7959
431.50 0.7962
431.60 0.7966
431.70 0.797
431.80 0.7973
431.90 0.7977
432.00 0.7981
432.10 0.7984
432.20 0.7988
432.30 0.7992
432.40 0.7995
432.50 0.7999
432.60 0.8002
432.70 0.8006
432.80 0.801
432.90 0.8013
433.00 0.8017
433.10 0.802
433.20 0.8024
433.30 0.8027
433.40 0.803
433.50 0.8034
433.60 0.8036
433.70 0.8038
433.80 0.8038
433.90 0.8036
434.00 0.8028
434.10 0.8032
434.20 0.8048
434.30 0.8057
434.40 0.8064
434.50 0.8069
434.60 0.8074
434.70 0.8078
434.80 0.8082
434.90 0.8086
435.00 0.8089
435.10 0.8093
435.20 0.8097
435.30 0.8101
435.40 0.8104
435.50 0.8108
435.60 0.8112
435.70 0.8115
435.80 0.8119
435.90 0.8123
436.00 0.8126
436.10 0.813
436.20 0.8133
436.30 0.8137
436.40 0.8141
436.50 0.8144
436.60 0.8148
436.70 0.8151
436.80 0.8155
436.90 0.8159
437.00 0.8162
437.10 0.8166
437.20 0.8169
437.30 0.8173
437.40 0.8176
437.50 0.818
437.60 0.8184
437.70 0.8187
437.80 0.8191
437.90 0.8194
438.00 0.8198
438.10 0.8201
438.20 0.8205
438.30 0.8209
438.40 0.8212
438.50 0.8216
438.60 0.8219
438.70 0.8223
438.80 0.8226
438.90 0.823
439.00 0.8233
439.10 0.8237
439.20 0.824
439.30 0.8244
439.40 0.8248
439.50 0.8251
439.60 0.8255
439.70 0.8258
439.80 0.8262
439.90 0.8265
440.00 0.8269
440.10 0.8272
440.20 0.8276
440.30 0.8279
440.40 0.8283
440.50 0.8286
440.60 0.829
440.70 0.8293
440.80 0.8297
440.90 0.83
441.00 0.8304
441.10 0.8307
441.20 0.8311
441.30 0.8314
441.40 0.8318
441.50 0.8321
441.60 0.8325
441.70 0.8328
441.80 0.8332
441.90 0.8335
442.00 0.8339
442.10 0.8342
442.20 0.8346
442.30 0.8349
442.40 0.8353
442.50 0.8356
442.60 0.836
442.70 0.8363
442.80 0.8367
442.90 0.837
443.00 0.8373
443.10 0.8377
443.20 0.838
443.30 0.8384
443.40 0.8387
443.50 0.8391
443.60 0.8394
443.70 0.8398
443.80 0.8401
443.90 0.8405
444.00 0.8408
444.10 0.8411
444.20 0.8415
444.30 0.8418
444.40 0.8422
444.50 0.8425
444.60 0.8429
444.70 0.8432
444.80 0.8435
444.90 0.8439
445.00 0.8442
445.10 0.8446
445.20 0.8449
445.30 0.8453
445.40 0.8456
445.50 0.8459
445.60 0.8463
445.70 0.8466
445.80 0.847
445.90 0.8473
446.00 0.8476
446.10 0.848
446.20 0.8483
446.30 0.8487
446.40 0.849
446.50 0.8493
446.60 0.8497
446.70 0.85
446.80 0.8504
446.90 0.8507
447.00 0.851
447.10 0.8514
447.20 0.8517
447.30 0.852
447.40 0.8524
447.50 0.8527
447.60 0.8531
447.70 0.8534
447.80 0.8537
447.90 0.8541
448.00 0.8544
448.10 0.8547
448.20 0.8551
448.30 0.8554
448.40 0.8557
448.50 0.8561
448.60 0.8564
448.70 0.8567
448.80 0.8571
448.90 0.8574
449.00 0.8577
449.10 0.8581
449.20 0.8584
449.30 0.8587
449.40 0.8591
449.50 0.8594
449.60 0.8597
449.70 0.8601
449.80 0.8604
449.90 0.8607
450.00 0.8611
450.10 0.8614
450.20 0.8617
450.30 0.8621
450.40 0.8624
450.50 0.8627
450.60 0.8631
450.70 0.8634
450.80 0.8637
450.90 0.8641
451.00 0.8644
451.10 0.8647
451.20 0.865
451.30 0.8654
451.40 0.8657
451.50 0.866
451.60 0.8664
451.70 0.8667
451.80 0.867
451.90 0.8673
452.00 0.8677
452.10 0.868
452.20 0.8683
452.30 0.8686
452.40 0.869
452.50 0.8693
452.60 0.8696
452.70 0.87
452.80 0.8703
452.90 0.8706
453.00 0.8709
453.10 0.8713
453.20 0.8716
453.30 0.8719
453.40 0.8722
453.50 0.8726
453.60 0.8729
453.70 0.8732
453.80 0.8735
453.90 0.8739
454.00 0.8742
454.10 0.8745
454.20 0.8748
454.30 0.8751
454.40 0.8755
454.50 0.8758
454.60 0.8761
454.70 0.8764
454.80 0.8768
454.90 0.8771
455.00 0.8774
455.10 0.8778
455.20 0.8781
455.30 0.8784
455.40 0.8787
455.50 0.879
455.60 0.8794
455.70 0.8797
455.80 0.88
455.90 0.8803
456.00 0.8806
456.10 0.8809
456.20 0.8812
456.30 0.8816
456.40 0.8819
456.50 0.8822
456.60 0.8825
456.70 0.8828
456.80 0.8831
456.90 0.8835
457.00 0.8838
457.10 0.8841
457.20 0.8844
457.30 0.8847
457.40 0.8851
457.50 0.8854
457.60 0.8857
457.70 0.886
457.80 0.8863
457.90 0.8866
458.00 0.887
458.10 0.8873
458.20 0.8876
458.30 0.8879
458.40 0.8882
458.50 0.8885
458.60 0.8888
458.70 0.8892
458.80 0.8895
458.90 0.8898
459.00 0.8901
459.10 0.8904
459.20 0.8907
459.30 0.891
459.40 0.8913
459.50 0.8916
459.60 0.892
459.70 0.8923
459.80 0.8926
459.90 0.8929
460.00 0.8932
460.10 0.8935
460.20 0.8938
460.30 0.8941
460.40 0.8944
460.50 0.8947
460.60 0.895
460.70 0.8953
460.80 0.8957
460.90 0.896
461.00 0.8963
461.10 0.8966
461.20 0.8969
461.30 0.8972
461.40 0.8975
461.50 0.8978
461.60 0.8981
461.70 0.8984
461.80 0.8987
461.90 0.899
462.00 0.8993
462.10 0.8996
462.20 0.8999
462.30 0.9003
462.40 0.9006
462.50 0.9009
462.60 0.9012
462.70 0.9015
462.80 0.9018
462.90 0.9021
463.00 0.9024
463.10 0.9027
463.20 0.903
463.30 0.9033
463.40 0.9036
463.50 0.9039
463.60 0.9042
463.70 0.9045
463.80 0.9048
463.90 0.9051
464.00 0.9055
464.10 0.9058
464.20 0.9061
464.30 0.9064
464.40 0.9067
464.50 0.907
464.60 0.9073
464.70 0.9076
464.80 0.9079
464.90 0.9082
465.00 0.9085
465.10 0.9088
465.20 0.9091
465.30 0.9094
465.40 0.9097
465.50 0.91
465.60 0.9102
465.70 0.9105
465.80 0.9108
465.90 0.9111
466.00 0.9114
466.10 0.9117
466.20 0.912
466.30 0.9123
466.40 0.9126
466.50 0.9129
466.60 0.9132
466.70 0.9135
466.80 0.9138
466.90 0.9141
467.00 0.9144
467.10 0.9147
467.20 0.915
467.30 0.9153
467.40 0.9156
467.50 0.9159
467.60 0.9162
467.70 0.9165
467.80 0.9168
467.90 0.9171
468.00 0.9174
468.10 0.9177
468.20 0.9179
468.30 0.9182
468.40 0.9185
468.50 0.9188
468.60 0.9191
468.70 0.9194
468.80 0.9197
468.90 0.92
469.00 0.9202
469.10 0.9205
469.20 0.9208
469.30 0.9211
469.40 0.9214
469.50 0.9217
469.60 0.922
469.70 0.9223
469.80 0.9226
469.90 0.9229
470.00 0.9232
470.10 0.9235
470.20 0.9237
470.30 0.924
470.40 0.9243
470.50 0.9246
470.60 0.9249
470.70 0.9252
470.80 0.9255
470.90 0.9258
471.00 0.926
471.10 0.9263
471.20 0.9266
471.30 0.9269
471.40 0.9272
471.50 0.9275
471.60 0.9278
471.70 0.928
471.80 0.9283
471.90 0.9286
472.00 0.9289
472.10 0.9292
472.20 0.9295
472.30 0.9298
472.40 0.93
472.50 0.9303
472.60 0.9306
472.70 0.9309
472.80 0.9312
472.90 0.9314
473.00 0.9317
473.10 0.932
473.20 0.9323
473.30 0.9326
473.40 0.9328
473.50 0.9331
473.60 0.9334
473.70 0.9337
473.80 0.934
473.90 0.9342
474.00 0.9345
474.10 0.9348
474.20 0.9351
474.30 0.9354
474.40 0.9357
474.50 0.9359
474.60 0.9362
474.70 0.9365
474.80 0.9368
474.90 0.9371
475.00 0.9374
475.10 0.9376
475.20 0.9379
475.30 0.9382
475.40 0.9385
475.50 0.9387
475.60 0.939
475.70 0.9393
475.80 0.9396
475.90 0.9398
476.00 0.9401
476.10 0.9404
476.20 0.9406
476.30 0.9409
476.40 0.9412
476.50 0.9415
476.60 0.9418
476.70 0.942
476.80 0.9423
476.90 0.9426
477.00 0.9429
477.10 0.9431
477.20 0.9434
477.30 0.9437
477.40 0.944
477.50 0.9442
477.60 0.9445
477.70 0.9448
477.80 0.9451
477.90 0.9453
478.00 0.9456
478.10 0.9459
478.20 0.9462
478.30 0.9464
478.40 0.9467
478.50 0.947
478.60 0.9472
478.70 0.9475
478.80 0.9478
478.90 0.9481
479.00 0.9483
479.10 0.9486
479.20 0.9489
479.30 0.9491
479.40 0.9494
479.50 0.9496
479.60 0.9499
479.70 0.9502
479.80 0.9504
479.90 0.9507
480.00 0.951
480.10 0.9512
480.20 0.9515
480.30 0.9517
480.40 0.952
480.50 0.9523
480.60 0.9525
480.70 0.9528
480.80 0.9531
480.90 0.9533
481.00 0.9536
481.10 0.9539
481.20 0.9541
481.30 0.9544
481.40 0.9547
481.50 0.9549
481.60 0.9552
481.70 0.9555
481.80 0.9557
481.90 0.956
482.00 0.9563
482.10 0.9566
482.20 0.9568
482.30 0.9571
482.40 0.9573
482.50 0.9576
482.60 0.9579
482.70 0.9581
482.80 0.9584
482.90 0.9586
483.00 0.9589
483.10 0.9591
483.20 0.9594
483.30 0.9597
483.40 0.9599
483.50 0.9602
483.60 0.9604
483.70 0.9607
483.80 0.9609
483.90 0.9612
484.00 0.9615
484.10 0.9617
484.20 0.962
484.30 0.9622
484.40 0.9624
484.50 0.9627
484.60 0.9629
484.70 0.9631
484.80 0.9634
484.90 0.9636
485.00 0.9639
485.10 0.9641
485.20 0.9643
485.30 0.9645
485.40 0.9647
485.50 0.9648
485.60 0.9649
485.70 0.9648
485.80 0.9643
485.90 0.9635
486.00 0.9616
486.10 0.9568
486.20 0.959
486.30 0.9634
486.40 0.9651
486.50 0.9664
486.60 0.9672
486.70 0.9677
486.80 0.9682
486.90 0.9685
487.00 0.9689
487.10 0.9692
487.20 0.9695
487.30 0.9697
487.40 0.97
487.50 0.9703
487.60 0.9705
487.70 0.9708
487.80 0.971
487.90 0.9713
488.00 0.9716
488.10 0.9718
488.20 0.9721
488.30 0.9723
488.40 0.9726
488.50 0.9728
488.60 0.9731
488.70 0.9733
488.80 0.9736
488.90 0.9738
489.00 0.9741
489.10 0.9743
489.20 0.9746
489.30 0.9748
489.40 0.9751
489.50 0.9753
489.60 0.9756
489.70 0.9758
489.80 0.9761
489.90 0.9763
490.00 0.9766
490.10 0.9769
490.20 0.9771
490.30 0.9773
490.40 0.9776
490.50 0.9778
490.60 0.9781
490.70 0.9783
490.80 0.9786
490.90 0.9788
491.00 0.979
491.10 0.9793
491.20 0.9795
491.30 0.9798
491.40 0.98
491.50 0.9803
491.60 0.9805
491.70 0.9807
491.80 0.981
491.90 0.9812
492.00 0.9815
492.10 0.9817
492.20 0.982
492.30 0.9822
492.40 0.9824
492.50 0.9827
492.60 0.9829
492.70 0.9831
492.80 0.9834
492.90 0.9836
493.00 0.9838
493.10 0.9841
493.20 0.9843
493.30 0.9846
493.40 0.9848
493.50 0.985
493.60 0.9853
493.70 0.9855
493.80 0.9857
493.90 0.986
494.00 0.9862
494.10 0.9864
494.20 0.9867
494.30 0.9869
494.40 0.9871
494.50 0.9874
494.60 0.9876
494.70 0.9878
494.80 0.9881
494.90 0.9883
495.00 0.9885
495.10 0.9888
495.20 0.989
495.30 0.9892
495.40 0.9895
495.50 0.9897
495.60 0.99
495.70 0.9902
495.80 0.9904
495.90 0.9907
496.00 0.9909
496.10 0.9911
496.20 0.9914
496.30 0.9916
496.40 0.9918
496.50 0.9921
496.60 0.9923
496.70 0.9925
496.80 0.9927
496.90 0.993
497.00 0.9932
497.10 0.9934
497.20 0.9936
497.30 0.9939
497.40 0.9941
497.50 0.9943
497.60 0.9946
497.70 0.9948
497.80 0.995
497.90 0.9953
498.00 0.9955
498.10 0.9957
498.20 0.996
498.30 0.9962
498.40 0.9964
498.50 0.9966
498.60 0.9969
498.70 0.9971
498.80 0.9973
498.90 0.9975
499.00 0.9977
499.10 0.998
499.20 0.9982
499.30 0.9984
499.40 0.9986
499.50 0.9989
499.60 0.9991
499.70 0.9993
499.80 0.9995
499.90 0.9998
500.00 1
500.10 1
500.20 1
500.30 1.001
500.40 1.001
500.50 1.001
500.60 1.001
500.70 1.002
500.80 1.002
500.90 1.002
501.00 1.002
501.10 1.002
501.20 1.003
501.30 1.003
501.40 1.003
501.50 1.003
501.60 1.004
501.70 1.004
501.80 1.004
501.90 1.004
502.00 1.004
502.10 1.005
502.20 1.005
502.30 1.005
502.40 1.005
502.50 1.006
502.60 1.006
502.70 1.006
502.80 1.006
502.90 1.006
503.00 1.007
503.10 1.007
503.20 1.007
503.30 1.007
503.40 1.007
503.50 1.008
503.60 1.008
503.70 1.008
503.80 1.008
503.90 1.009
504.00 1.009
504.10 1.009
504.20 1.009
504.30 1.009
504.40 1.01
504.50 1.01
504.60 1.01
504.70 1.01
504.80 1.01
504.90 1.011
505.00 1.011
505.10 1.011
505.20 1.011
505.30 1.012
505.40 1.012
505.50 1.012
505.60 1.012
505.70 1.012
505.80 1.013
505.90 1.013
506.00 1.013
506.10 1.013
506.20 1.013
506.30 1.014
506.40 1.014
506.50 1.014
506.60 1.014
506.70 1.014
506.80 1.015
506.90 1.015
507.00 1.015
507.10 1.015
507.20 1.016
507.30 1.016
507.40 1.016
507.50 1.016
507.60 1.016
507.70 1.017
507.80 1.017
507.90 1.017
508.00 1.017
508.10 1.017
508.20 1.018
508.30 1.018
508.40 1.018
508.50 1.018
508.60 1.018
508.70 1.019
508.80 1.019
508.90 1.019
509.00 1.019
509.10 1.019
509.20 1.02
509.30 1.02
509.40 1.02
509.50 1.02
509.60 1.02
509.70 1.021
509.80 1.021
509.90 1.021
510.00 1.021
510.10 1.021
510.20 1.022
510.30 1.022
510.40 1.022
510.50 1.022
510.60 1.022
510.70 1.023
510.80 1.023
510.90 1.023
511.00 1.023
511.10 1.023
511.20 1.024
511.30 1.024
511.40 1.024
511.50 1.024
511.60 1.024
511.70 1.025
511.80 1.025
511.90 1.025
512.00 1.025
512.10 1.025
512.20 1.026
512.30 1.026
512.40 1.026
512.50 1.026
512.60 1.026
512.70 1.027
512.80 1.027
512.90 1.027
513.00 1.027
513.10 1.027
513.20 1.028
513.30 1.028
513.40 1.028
513.50 1.028
513.60 1.028
513.70 1.029
513.80 1.029
513.90 1.029
514.00 1.029
514.10 1.029
514.20 1.03
514.30 1.03
514.40 1.03
514.50 1.03
514.60 1.03
514.70 1.031
514.80 1.031
514.90 1.031
515.00 1.031
515.10 1.031
515.20 1.031
515.30 1.032
515.40 1.032
515.50 1.032
515.60 1.032
515.70 1.032
515.80 1.033
515.90 1.033
516.00 1.033
516.10 1.033
516.20 1.033
516.30 1.034
516.40 1.034
516.50 1.034
516.60 1.034
516.70 1.034
516.80 1.035
516.90 1.035
517.00 1.035
517.10 1.035
517.20 1.035
517.30 1.035
517.40 1.036
517.50 1.036
517.60 1.036
517.70 1.036
517.80 1.036
517.90 1.037
518.00 1.037
518.10 1.037
518.20 1.037
518.30 1.037
518.40 1.037
518.50 1.038
518.60 1.038
518.70 1.038
518.80 1.038
518.90 1.038
519.00 1.039
519.10 1.039
519.20 1.039
519.30 1.039
519.40 1.039
519.50 1.039
519.60 1.04
519.70 1.04
519.80 1.04
519.90 1.04
520.00 1.04
520.10 1.041
520.20 1.041
520.30 1.041
520.40 1.041
520.50 1.041
520.60 1.041
520.70 1.042
520.80 1.042
520.90 1.042
521.00 1.042
521.10 1.042
521.20 1.043
521.30 1.043
521.40 1.043
521.50 1.043
521.60 1.043
521.70 1.043
521.80 1.044
521.90 1.044
522.00 1.044
522.10 1.044
522.20 1.044
522.30 1.044
522.40 1.045
522.50 1.045
522.60 1.045
522.70 1.045
522.80 1.045
522.90 1.046
523.00 1.046
523.10 1.046
523.20 1.046
523.30 1.046
523.40 1.046
523.50 1.047
523.60 1.047
523.70 1.047
523.80 1.047
523.90 1.047
524.00 1.047
524.10 1.048
524.20 1.048
524.30 1.048
524.40 1.048
524.50 1.048
524.60 1.048
524.70 1.049
524.80 1.049
524.90 1.049
525.00 1.049
525.10 1.049
525.20 1.049
525.30 1.05
525.40 1.05
525.50 1.05
525.60 1.05
525.70 1.05
525.80 1.051
525.90 1.051
526.00 1.051
526.10 1.051
526.20 1.051
526.30 1.051
526.40 1.052
526.50 1.052
526.60 1.052
526.70 1.052
526.80 1.052
526.90 1.052
527.00 1.053
527.10 1.053
527.20 1.053
527.30 1.053
527.40 1.053
527.50 1.053
527.60 1.054
527.70 1.054
527.80 1.054
527.90 1.054
528.00 1.054
528.10 1.054
528.20 1.055
528.30 1.055
528.40 1.055
528.50 1.055
528.60 1.055
528.70 1.055
528.80 1.056
528.90 1.056
529.00 1.056
529.10 1.056
529.20 1.056
529.30 1.056
529.40 1.056
529.50 1.057
529.60 1.057
529.70 1.057
529.80 1.057
529.90 1.057
530.00 1.057
530.10 1.058
530.20 1.058
530.30 1.058
530.40 1.058
530.50 1.058
530.60 1.058
530.70 1.059
530.80 1.059
530.90 1.059
531.00 1.059
531.10 1.059
531.20 1.059
531.30 1.06
531.40 1.06
531.50 1.06
531.60 1.06
531.70 1.06
531.80 1.06
531.90 1.06
532.00 1.061
532.10 1.061
532.20 1.061
532.30 1.061
532.40 1.061
532.50 1.061
532.60 1.062
532.70 1.062
532.80 1.062
532.90 1.062
533.00 1.062
533.10 1.062
533.20 1.062
533.30 1.063
533.40 1.063
533.50 1.063
533.60 1.063
533.70 1.063
533.80 1.063
533.90 1.063
534.00 1.064
534.10 1.064
534.20 1.064
534.30 1.064
534.40 1.064
534.50 1.064
534.60 1.065
534.70 1.065
534.80 1.065
534.90 1.065
535.00 1.065
535.10 1.065
535.20 1.066
535.30 1.066
535.40 1.066
535.50 1.066
535.60 1.066
535.70 1.066
535.80 1.066
535.90 1.067
536.00 1.067
536.10 1.067
536.20 1.067
536.30 1.067
536.40 1.067
536.50 1.067
536.60 1.068
536.70 1.068
536.80 1.068
536.90 1.068
537.00 1.068
537.10 1.068
537.20 1.068
537.30 1.069
537.40 1.069
537.50 1.069
537.60 1.069
537.70 1.069
537.80 1.069
537.90 1.069
538.00 1.07
538.10 1.07
538.20 1.07
538.30 1.07
538.40 1.07
538.50 1.07
538.60 1.07
538.70 1.071
538.80 1.071
538.90 1.071
539.00 1.071
539.10 1.071
539.20 1.071
539.30 1.071
539.40 1.072
539.50 1.072
539.60 1.072
539.70 1.072
539.80 1.072
539.90 1.072
540.00 1.072
540.10 1.073
540.20 1.073
540.30 1.073
540.40 1.073
540.50 1.073
540.60 1.073
540.70 1.073
540.80 1.074
540.90 1.074
541.00 1.074
541.10 1.074
541.20 1.074
541.30 1.074
541.40 1.074
541.50 1.075
541.60 1.075
541.70 1.075
541.80 1.075
541.90 1.075
542.00 1.075
542.10 1.075
542.20 1.075
542.30 1.076
542.40 1.076
542.50 1.076
542.60 1.076
542.70 1.076
542.80 1.076
542.90 1.076
543.00 1.077
543.10 1.077
543.20 1.077
543.30 1.077
543.40 1.077
543.50 1.077
543.60 1.077
543.70 1.077
543.80 1.078
543.90 1.078
544.00 1.078
544.10 1.078
544.20 1.078
544.30 1.078
544.40 1.078
544.50 1.079
544.60 1.079
544.70 1.079
544.80 1.079
544.90 1.079
545.00 1.079
545.10 1.079
545.20 1.079
545.30 1.08
545.40 1.08
545.50 1.08
545.60 1.08
545.70 1.08
545.80 1.08
545.90 1.08
546.00 1.081
546.10 1.081
546.20 1.081
546.30 1.081
546.40 1.081
546.50 1.081
546.60 1.081
546.70 1.081
546.80 1.082
546.90 1.082
547.00 1.082
547.10 1.082
547.20 1.082
547.30 1.082
547.40 1.082
547.50 1.082
547.60 1.083
547.70 1.083
547.80 1.083
547.90 1.083
548.00 1.083
548.10 1.083
548.20 1.083
548.30 1.083
548.40 1.084
548.50 1.084
548.60 1.084
548.70 1.084
548.80 1.084
548.90 1.084
549.00 1.084
549.10 1.084
549.20 1.084
549.30 1.085
549.40 1.085
549.50 1.085
549.60 1.085
549.70 1.085
549.80 1.085
549.90 1.085
550.00 1.085
550.10 1.086
550.20 1.086
550.30 1.086
550.40 1.086
550.50 1.086
550.60 1.086
550.70 1.086
550.80 1.086
550.90 1.087
551.00 1.087
551.10 1.087
551.20 1.087
551.30 1.087
551.40 1.087
551.50 1.087
551.60 1.087
551.70 1.088
551.80 1.088
551.90 1.088
552.00 1.088
552.10 1.088
552.20 1.088
552.30 1.088
552.40 1.088
552.50 1.088
552.60 1.089
552.70 1.089
552.80 1.089
552.90 1.089
553.00 1.089
553.10 1.089
553.20 1.089
553.30 1.089
553.40 1.089
553.50 1.09
553.60 1.09
553.70 1.09
553.80 1.09
553.90 1.09
554.00 1.09
554.10 1.09
554.20 1.09
554.30 1.091
554.40 1.091
554.50 1.091
554.60 1.091
554.70 1.091
554.80 1.091
554.90 1.091
555.00 1.091
555.10 1.091
555.20 1.092
555.30 1.092
555.40 1.092
555.50 1.092
555.60 1.092
555.70 1.092
555.80 1.092
555.90 1.092
556.00 1.092
556.10 1.092
556.20 1.093
556.30 1.093
556.40 1.093
556.50 1.093
556.60 1.093
556.70 1.093
556.80 1.093
556.90 1.093
557.00 1.093
557.10 1.094
557.20 1.094
557.30 1.094
557.40 1.094
557.50 1.094
557.60 1.094
557.70 1.094
557.80 1.094
557.90 1.094
558.00 1.095
558.10 1.095
558.20 1.095
558.30 1.095
558.40 1.095
558.50 1.095
558.60 1.095
558.70 1.095
558.80 1.095
558.90 1.095
559.00 1.096
559.10 1.096
559.20 1.096
559.30 1.096
559.40 1.096
559.50 1.096
559.60 1.096
559.70 1.096
559.80 1.096
559.90 1.097
560.00 1.097
560.10 1.097
560.20 1.097
560.30 1.097
560.40 1.097
560.50 1.097
560.60 1.097
560.70 1.097
560.80 1.097
560.90 1.098
561.00 1.098
561.10 1.098
561.20 1.098
561.30 1.098
561.40 1.098
561.50 1.098
561.60 1.098
561.70 1.098
561.80 1.098
561.90 1.099
562.00 1.099
562.10 1.099
562.20 1.099
562.30 1.099
562.40 1.099
562.50 1.099
562.60 1.099
562.70 1.099
562.80 1.099
562.90 1.1
563.00 1.1
563.10 1.1
563.20 1.1
563.30 1.1
563.40 1.1
563.50 1.1
563.60 1.1
563.70 1.1
563.80 1.1
563.90 1.101
564.00 1.101
564.10 1.101
564.20 1.101
564.30 1.101
564.40 1.101
564.50 1.101
564.60 1.101
564.70 1.101
564.80 1.101
564.90 1.101
565.00 1.102
565.10 1.102
565.20 1.102
565.30 1.102
565.40 1.102
565.50 1.102
565.60 1.102
565.70 1.102
565.80 1.102
565.90 1.102
566.00 1.102
566.10 1.103
566.20 1.103
566.30 1.103
566.40 1.103
566.50 1.103
566.60 1.103
566.70 1.103
566.80 1.103
566.90 1.103
567.00 1.103
567.10 1.103
567.20 1.104
567.30 1.104
567.40 1.104
567.50 1.104
567.60 1.104
567.70 1.104
567.80 1.104
567.90 1.104
568.00 1.104
568.10 1.104
568.20 1.104
568.30 1.104
568.40 1.105
568.50 1.105
568.60 1.105
568.70 1.105
568.80 1.105
568.90 1.105
569.00 1.105
569.10 1.105
569.20 1.105
569.30 1.105
569.40 1.105
569.50 1.106
569.60 1.106
569.70 1.106
569.80 1.106
569.90 1.106
570.00 1.106
570.10 1.106
570.20 1.106
570.30 1.106
570.40 1.106
570.50 1.106
570.60 1.106
570.70 1.107
570.80 1.107
570.90 1.107
571.00 1.107
571.10 1.107
571.20 1.107
571.30 1.107
571.40 1.107
571.50 1.107
571.60 1.107
571.70 1.107
571.80 1.107
571.90 1.108
572.00 1.108
572.10 1.108
572.20 1.108
572.30 1.108
572.40 1.108
572.50 1.108
572.60 1.108
572.70 1.108
572.80 1.108
572.90 1.108
573.00 1.108
573.10 1.109
573.20 1.109
573.30 1.109
573.40 1.109
573.50 1.109
573.60 1.109
573.70 1.109
573.80 1.109
573.90 1.109
574.00 1.109
574.10 1.109
574.20 1.109
574.30 1.109
574.40 1.11
574.50 1.11
574.60 1.11
574.70 1.11
574.80 1.11
574.90 1.11
575.00 1.11
575.10 1.11
575.20 1.11
575.30 1.11
575.40 1.11
575.50 1.11
575.60 1.11
575.70 1.111
575.80 1.111
575.90 1.111
576.00 1.111
576.10 1.111
576.20 1.111
576.30 1.111
576.40 1.111
576.50 1.111
576.60 1.111
576.70 1.111
576.80 1.111
576.90 1.111
577.00 1.111
577.10 1.112
577.20 1.112
577.30 1.112
577.40 1.112
577.50 1.112
577.60 1.112
577.70 1.112
577.80 1.112
577.90 1.112
578.00 1.112
578.10 1.112
578.20 1.112
578.30 1.112
578.40 1.112
578.50 1.113
578.60 1.113
578.70 1.113
578.80 1.113
578.90 1.113
579.00 1.113
579.10 1.113
579.20 1.113
579.30 1.113
579.40 1.113
579.50 1.113
579.60 1.113
579.70 1.113
579.80 1.113
579.90 1.114
580.00 1.114
580.10 1.114
580.20 1.114
580.30 1.114
580.40 1.114
580.50 1.114
580.60 1.114
580.70 1.114
580.80 1.114
580.90 1.114
581.00 1.114
581.10 1.114
581.20 1.114
581.30 1.114
581.40 1.114
581.50 1.115
581.60 1.115
581.70 1.115
581.80 1.115
581.90 1.115
582.00 1.115
582.10 1.115
582.20 1.115
582.30 1.115
582.40 1.115
582.50 1.115
582.60 1.115
582.70 1.115
582.80 1.115
582.90 1.115
583.00 1.116
583.10 1.116
583.20 1.116
583.30 1.116
583.40 1.116
583.50 1.116
583.60 1.116
583.70 1.116
583.80 1.116
583.90 1.116
584.00 1.116
584.10 1.116
584.20 1.116
584.30 1.116
584.40 1.116
584.50 1.116
584.60 1.117
584.70 1.117
584.80 1.117
584.90 1.117
585.00 1.117
585.10 1.117
585.20 1.117
585.30 1.117
585.40 1.117
585.50 1.117
585.60 1.117
585.70 1.117
585.80 1.117
585.90 1.117
586.00 1.117
586.10 1.117
586.20 1.117
586.30 1.118
586.40 1.118
586.50 1.118
586.60 1.118
586.70 1.118
586.80 1.118
586.90 1.118
587.00 1.118
587.10 1.118
587.20 1.118
587.30 1.118
587.40 1.118
587.50 1.118
587.60 1.118
587.70 1.118
587.80 1.118
587.90 1.118
588.00 1.118
588.10 1.119
588.20 1.119
588.30 1.119
588.40 1.119
588.50 1.119
588.60 1.119
588.70 1.119
588.80 1.119
588.90 1.119
589.00 1.119
589.10 1.119
589.20 1.119
589.30 1.119
589.40 1.119
589.50 1.119
589.60 1.119
589.70 1.119
589.80 1.119
589.90 1.119
590.00 1.12
590.10 1.12
590.20 1.12
590.30 1.12
590.40 1.12
590.50 1.12
590.60 1.12
590.70 1.12
590.80 1.12
590.90 1.12
591.00 1.12
591.10 1.12
591.20 1.12
591.30 1.12
591.40 1.12
591.50 1.12
591.60 1.12
591.70 1.12
591.80 1.12
591.90 1.12
592.00 1.121
592.10 1.121
592.20 1.121
592.30 1.121
592.40 1.121
592.50 1.121
592.60 1.121
592.70 1.121
592.80 1.121
592.90 1.121
593.00 1.121
593.10 1.121
593.20 1.121
593.30 1.121
593.40 1.121
593.50 1.121
593.60 1.121
593.70 1.121
593.80 1.121
593.90 1.121
594.00 1.121
594.10 1.122
594.20 1.122
594.30 1.122
594.40 1.122
594.50 1.122
594.60 1.122
594.70 1.122
594.80 1.122
594.90 1.122
595.00 1.122
595.10 1.122
595.20 1.122
595.30 1.122
595.40 1.122
595.50 1.122
595.60 1.122
595.70 1.122
595.80 1.122
595.90 1.122
596.00 1.122
596.10 1.122
596.20 1.122
596.30 1.122
596.40 1.122
596.50 1.123
596.60 1.123
596.70 1.123
596.80 1.123
596.90 1.123
597.00 1.123
597.10 1.123
597.20 1.123
597.30 1.123
597.40 1.123
597.50 1.123
597.60 1.123
597.70 1.123
597.80 1.123
597.90 1.123
598.00 1.123
598.10 1.123
598.20 1.123
598.30 1.123
598.40 1.123
598.50 1.123
598.60 1.123
598.70 1.123
598.80 1.123
598.90 1.123
599.00 1.124
599.10 1.124
599.20 1.124
599.30 1.124
599.40 1.124
599.50 1.124
599.60 1.124
599.70 1.124
599.80 1.124
599.90 1.124
600.00 1.124
600.10 1.124
600.20 1.124
600.30 1.124
600.40 1.124
600.50 1.124
600.60 1.124
600.70 1.124
600.80 1.124
600.90 1.124
601.00 1.124
601.10 1.124
601.20 1.124
601.30 1.124
601.40 1.124
601.50 1.124
601.60 1.124
601.70 1.125
601.80 1.125
601.90 1.125
602.00 1.125
602.10 1.125
602.20 1.125
602.30 1.125
602.40 1.125
602.50 1.125
602.60 1.125
602.70 1.125
602.80 1.125
602.90 1.125
603.00 1.125
603.10 1.125
603.20 1.125
603.30 1.125
603.40 1.125
603.50 1.125
603.60 1.125
603.70 1.125
603.80 1.125
603.90 1.125
604.00 1.125
604.10 1.125
604.20 1.125
604.30 1.125
604.40 1.125
604.50 1.125
604.60 1.125
604.70 1.125
604.80 1.125
604.90 1.125
605.00 1.126
605.10 1.126
605.20 1.126
605.30 1.126
605.40 1.126
605.50 1.126
605.60 1.126
605.70 1.126
605.80 1.126
605.90 1.126
606.00 1.126
606.10 1.126
606.20 1.126
606.30 1.126
606.40 1.126
606.50 1.126
606.60 1.126
606.70 1.126
606.80 1.126
606.90 1.126
607.00 1.126
607.10 1.126
607.20 1.126
607.30 1.126
607.40 1.126
607.50 1.126
607.60 1.126
607.70 1.126
607.80 1.126
607.90 1.126
608.00 1.126
608.10 1.126
608.20 1.126
608.30 1.126
608.40 1.126
608.50 1.126
608.60 1.126
608.70 1.127
608.80 1.127
608.90 1.127
609.00 1.127
609.10 1.127
609.20 1.127
609.30 1.127
609.40 1.127
609.50 1.127
609.60 1.127
609.70 1.127
609.80 1.127
609.90 1.127
610.00 1.127
610.10 1.127
610.20 1.127
610.30 1.127
610.40 1.127
610.50 1.127
610.60 1.127
610.70 1.127
610.80 1.127
610.90 1.127
611.00 1.127
611.10 1.127
611.20 1.127
611.30 1.127
611.40 1.127
611.50 1.127
611.60 1.127
611.70 1.127
611.80 1.127
611.90 1.127
612.00 1.127
612.10 1.127
612.20 1.127
612.30 1.127
612.40 1.127
612.50 1.127
612.60 1.127
612.70 1.127
612.80 1.127
612.90 1.127
613.00 1.127
613.10 1.127
613.20 1.127
613.30 1.127
613.40 1.127
613.50 1.127
613.60 1.127
613.70 1.128
613.80 1.128
613.90 1.128
614.00 1.128
614.10 1.128
614.20 1.128
614.30 1.128
614.40 1.128
614.50 1.128
614.60 1.128
614.70 1.128
614.80 1.128
614.90 1.128
615.00 1.128
615.10 1.128
615.20 1.128
615.30 1.128
615.40 1.128
615.50 1.128
615.60 1.128
615.70 1.128
615.80 1.128
615.90 1.128
616.00 1.128
616.10 1.128
616.20 1.128
616.30 1.128
616.40 1.128
616.50 1.128
616.60 1.128
616.70 1.128
616.80 1.128
616.90 1.128
617.00 1.128
617.10 1.128
617.20 1.128
617.30 1.128
617.40 1.128
617.50 1.128
617.60 1.128
617.70 1.128
617.80 1.128
617.90 1.128
618.00 1.128
618.10 1.128
618.20 1.128
618.30 1.128
618.40 1.128
618.50 1.128
618.60 1.128
618.70 1.128
618.80 1.128
618.90 1.128
619.00 1.128
619.10 1.128
619.20 1.128
619.30 1.128
619.40 1.128
619.50 1.128
619.60 1.128
619.70 1.128
619.80 1.128
619.90 1.128
620.00 1.128
620.10 1.128
620.20 1.128
620.30 1.128
620.40 1.128
620.50 1.128
620.60 1.128
620.70 1.128
620.80 1.128
620.90 1.128
621.00 1.128
621.10 1.128
621.20 1.128
621.30 1.128
621.40 1.128
621.50 1.128
621.60 1.128
621.70 1.128
621.80 1.128
621.90 1.128
622.00 1.128
622.10 1.128
622.20 1.128
622.30 1.128
622.40 1.128
622.50 1.128
622.60 1.128
622.70 1.128
622.80 1.128
622.90 1.128
623.00 1.128
623.10 1.128
623.20 1.128
623.30 1.128
623.40 1.128
623.50 1.128
623.60 1.128
623.70 1.128
623.80 1.128
623.90 1.128
624.00 1.128
624.10 1.128
624.20 1.128
624.30 1.128
624.40 1.129
624.50 1.129
624.60 1.129
624.70 1.129
624.80 1.129
624.90 1.129
625.00 1.129
625.10 1.129
625.20 1.129
625.30 1.129
625.40 1.129
625.50 1.129
625.60 1.129
625.70 1.129
625.80 1.129
625.90 1.129
626.00 1.129
626.10 1.129
626.20 1.129
626.30 1.129
626.40 1.129
626.50 1.129
626.60 1.129
626.70 1.129
626.80 1.129
626.90 1.129
627.00 1.129
627.10 1.129
627.20 1.129
627.30 1.129
627.40 1.129
627.50 1.129
627.60 1.129
627.70 1.129
627.80 1.129
627.90 1.129
628.00 1.129
628.10 1.129
628.20 1.129
628.30 1.128
628.40 1.128
628.50 1.128
628.60 1.128
628.70 1.128
628.80 1.128
628.90 1.128
629.00 1.128
629.10 1.128
629.20 1.128
629.30 1.128
629.40 1.128
629.50 1.128
629.60 1.128
629.70 1.128
629.80 1.128
629.90 1.128
630.00 1.128
630.10 1.128
630.20 1.128
630.30 1.128
630.40 1.128
630.50 1.128
630.60 1.128
630.70 1.128
630.80 1.128
630.90 1.128
631.00 1.128
631.10 1.128
631.20 1.128
631.30 1.128
631.40 1.128
631.50 1.128
631.60 1.128
631.70 1.128
631.80 1.128
631.90 1.128
632.00 1.128
632.10 1.128
632.20 1.128
632.30 1.128
632.40 1.128
632.50 1.128
632.60 1.128
632.70 1.128
632.80 1.128
632.90 1.128
633.00 1.128
633.10 1.128
633.20 1.128
633.30 1.128
633.40 1.128
633.50 1.128
633.60 1.128
633.70 1.128
633.80 1.128
633.90 1.128
634.00 1.128
634.10 1.128
634.20 1.128
634.30 1.128
634.40 1.128
634.50 1.128
634.60 1.128
634.70 1.128
634.80 1.128
634.90 1.128
635.00 1.128
635.10 1.128
635.20 1.128
635.30 1.128
635.40 1.128
635.50 1.128
635.60 1.128
635.70 1.128
635.80 1.128
635.90 1.128
636.00 1.128
636.10 1.128
636.20 1.128
636.30 1.128
636.40 1.128
636.50 1.128
636.60 1.128
636.70 1.128
636.80 1.128
636.90 1.128
637.00 1.128
637.10 1.128
637.20 1.128
637.30 1.128
637.40 1.128
637.50 1.128
637.60 1.128
637.70 1.128
637.80 1.128
637.90 1.128
638.00 1.128
638.10 1.128
638.20 1.128
638.30 1.128
638.40 1.128
638.50 1.128
638.60 1.128
638.70 1.128
638.80 1.128
638.90 1.128
639.00 1.128
639.10 1.128
639.20 1.128
639.30 1.128
639.40 1.127
639.50 1.127
639.60 1.127
639.70 1.127
639.80 1.127
639.90 1.127
640.00 1.127
640.10 1.127
640.20 1.127
640.30 1.127
640.40 1.127
640.50 1.127
640.60 1.127
640.70 1.127
640.80 1.127
640.90 1.127
641.00 1.127
641.10 1.127
641.20 1.127
641.30 1.127
641.40 1.127
641.50 1.127
641.60 1.127
641.70 1.127
641.80 1.127
641.90 1.127
642.00 1.127
642.10 1.127
642.20 1.127
642.30 1.127
642.40 1.127
642.50 1.127
642.60 1.127
642.70 1.127
642.80 1.127
642.90 1.127
643.00 1.127
643.10 1.127
643.20 1.127
643.30 1.127
643.40 1.127
643.50 1.127
643.60 1.127
643.70 1.127
643.80 1.127
643.90 1.127
644.00 1.127
644.10 1.127
644.20 1.127
644.30 1.127
644.40 1.127
644.50 1.127
644.60 1.126
644.70 1.126
644.80 1.126
644.90 1.126
645.00 1.126
645.10 1.126
645.20 1.126
645.30 1.126
645.40 1.126
645.50 1.126
645.60 1.126
645.70 1.126
645.80 1.126
645.90 1.126
646.00 1.126
646.10 1.126
646.20 1.126
646.30 1.126
646.40 1.126
646.50 1.126
646.60 1.126
646.70 1.126
646.80 1.126
646.90 1.126
647.00 1.126
647.10 1.126
647.20 1.126
647.30 1.126
647.40 1.126
647.50 1.126
647.60 1.126
647.70 1.126
647.80 1.126
647.90 1.126
648.00 1.126
648.10 1.126
648.20 1.126
648.30 1.126
648.40 1.126
648.50 1.126
648.60 1.126
648.70 1.125
648.80 1.125
648.90 1.125
649.00 1.125
649.10 1.125
649.20 1.125
649.30 1.125
649.40 1.125
649.50 1.125
649.60 1.125
649.70 1.125
649.80 1.125
649.90 1.125
650.00 1.125
650.10 1.125
650.20 1.125
650.30 1.125
650.40 1.125
650.50 1.125
650.60 1.125
650.70 1.125
650.80 1.125
650.90 1.125
651.00 1.125
651.10 1.125
651.20 1.125
651.30 1.125
651.40 1.125
651.50 1.125
651.60 1.125
651.70 1.125
651.80 1.125
651.90 1.125
652.00 1.124
652.10 1.124
652.20 1.124
652.30 1.124
652.40 1.124
652.50 1.124
652.60 1.124
652.70 1.124
652.80 1.124
652.90 1.124
653.00 1.124
653.10 1.124
653.20 1.124
653.30 1.124
653.40 1.124
653.50 1.124
653.60 1.124
653.70 1.124
653.80 1.124
653.90 1.124
654.00 1.124
654.10 1.124
654.20 1.123
654.30 1.123
654.40 1.123
654.50 1.123
654.60 1.123
654.70 1.123
654.80 1.123
654.90 1.123
655.00 1.123
655.10 1.122
655.20 1.122
655.30 1.122
655.40 1.121
655.50 1.121
655.60 1.12
655.70 1.119
655.80 1.117
655.90 1.115
656.00 1.109
656.10 1.103
656.20 1.09
656.30 1.08
656.40 1.096
656.50 1.106
656.60 1.111
656.70 1.116
656.80 1.118
656.90 1.119
657.00 1.12
657.10 1.121
657.20 1.121
657.30 1.121
657.40 1.121
657.50 1.122
657.60 1.122
657.70 1.122
657.80 1.122
657.90 1.122
658.00 1.122
658.10 1.122
658.20 1.122
658.30 1.122
658.40 1.122
658.50 1.122
658.60 1.122
658.70 1.122
658.80 1.122
658.90 1.122
659.00 1.122
659.10 1.122
659.20 1.122
659.30 1.122
659.40 1.122
659.50 1.122
659.60 1.122
659.70 1.122
659.80 1.122
659.90 1.122
660.00 1.122
660.10 1.122
660.20 1.122
660.30 1.122
660.40 1.122
660.50 1.122
660.60 1.122
660.70 1.122
660.80 1.121
660.90 1.121
661.00 1.121
661.10 1.121
661.20 1.121
661.30 1.121
661.40 1.121
661.50 1.121
661.60 1.121
661.70 1.121
661.80 1.121
661.90 1.121
662.00 1.121
662.10 1.121
662.20 1.121
662.30 1.121
662.40 1.121
662.50 1.121
662.60 1.121
662.70 1.121
662.80 1.121
662.90 1.121
663.00 1.121
663.10 1.121
663.20 1.121
663.30 1.121
663.40 1.12
663.50 1.12
663.60 1.12
663.70 1.12
663.80 1.12
663.90 1.12
664.00 1.12
664.10 1.12
664.20 1.12
664.30 1.12
664.40 1.12
664.50 1.12
664.60 1.12
664.70 1.12
664.80 1.12
664.90 1.12
665.00 1.12
665.10 1.12
665.20 1.12
665.30 1.12
665.40 1.12
665.50 1.12
665.60 1.12
665.70 1.12
665.80 1.119
665.90 1.119
666.00 1.119
666.10 1.119
666.20 1.119
666.30 1.119
666.40 1.119
666.50 1.119
666.60 1.119
666.70 1.119
666.80 1.119
666.90 1.119
667.00 1.119
667.10 1.119
667.20 1.119
667.30 1.119
667.40 1.119
667.50 1.119
667.60 1.119
667.70 1.119
667.80 1.119
667.90 1.119
668.00 1.119
668.10 1.118
668.20 1.118
668.30 1.118
668.40 1.118
668.50 1.118
668.60 1.118
668.70 1.118
668.80 1.118
668.90 1.118
669.00 1.118
669.10 1.118
669.20 1.118
669.30 1.118
669.40 1.118
669.50 1.118
669.60 1.118
669.70 1.118
669.80 1.118
669.90 1.118
670.00 1.118
670.10 1.118
670.20 1.117
670.30 1.117
670.40 1.117
670.50 1.117
670.60 1.117
670.70 1.117
670.80 1.117
670.90 1.117
671.00 1.117
671.10 1.117
671.20 1.117
671.30 1.117
671.40 1.117
671.50 1.117
671.60 1.117
671.70 1.117
671.80 1.117
671.90 1.117
672.00 1.117
672.10 1.117
672.20 1.117
672.30 1.116
672.40 1.116
672.50 1.116
672.60 1.116
672.70 1.116
672.80 1.116
672.90 1.116
673.00 1.116
673.10 1.116
673.20 1.116
673.30 1.116
673.40 1.116
673.50 1.116
673.60 1.116
673.70 1.116
673.80 1.116
673.90 1.116
674.00 1.116
674.10 1.116
674.20 1.115
674.30 1.115
674.40 1.115
674.50 1.115
674.60 1.115
674.70 1.115
674.80 1.115
674.90 1.115
675.00 1.115
675.10 1.115
675.20 1.115
675.30 1.115
675.40 1.115
675.50 1.115
675.60 1.115
675.70 1.115
675.80 1.115
675.90 1.115
676.00 1.115
676.10 1.114
676.20 1.114
676.30 1.114
676.40 1.114
676.50 1.114
676.60 1.114
676.70 1.114
676.80 1.114
676.90 1.114
677.00 1.114
677.10 1.114
677.20 1.114
677.30 1.114
677.40 1.114
677.50 1.114
677.60 1.114
677.70 1.114
677.80 1.114
677.90 1.114
678.00 1.113
678.10 1.113
678.20 1.113
678.30 1.113
678.40 1.113
678.50 1.113
678.60 1.113
678.70 1.113
678.80 1.113
678.90 1.113
679.00 1.113
679.10 1.113
679.20 1.113
679.30 1.113
679.40 1.113
679.50 1.113
679.60 1.113
679.70 1.113
679.80 1.112
679.90 1.112
680.00 1.112
680.10 1.112
680.20 1.112
680.30 1.112
680.40 1.112
680.50 1.112
680.60 1.112
680.70 1.112
680.80 1.112
680.90 1.112
681.00 1.112
681.10 1.112
681.20 1.112
681.30 1.112
681.40 1.112
681.50 1.111
681.60 1.111
681.70 1.111
681.80 1.111
681.90 1.111
682.00 1.111
682.10 1.111
682.20 1.111
682.30 1.111
682.40 1.111
682.50 1.111
682.60 1.111
682.70 1.111
682.80 1.111
682.90 1.111
683.00 1.111
683.10 1.111
683.20 1.111
683.30 1.11
683.40 1.11
683.50 1.11
683.60 1.11
683.70 1.11
683.80 1.11
683.90 1.11
684.00 1.11
684.10 1.11
684.20 1.11
684.30 1.11
684.40 1.11
684.50 1.11
684.60 1.11
684.70 1.11
684.80 1.11
684.90 1.109
685.00 1.109
685.10 1.109
685.20 1.109
685.30 1.109
685.40 1.109
685.50 1.109
685.60 1.109
685.70 1.109
685.80 1.109
685.90 1.109
686.00 1.109
686.10 1.109
686.20 1.109
686.30 1.109
686.40 1.109
686.50 1.109
686.60 1.108
686.70 1.108
686.80 1.108
686.90 1.108
687.00 1.108
687.10 1.108
687.20 1.108
687.30 1.108
687.40 1.108
687.50 1.108
687.60 1.108
687.70 1.108
687.80 1.108
687.90 1.108
688.00 1.108
688.10 1.108
688.20 1.107
688.30 1.107
688.40 1.107
688.50 1.107
688.60 1.107
688.70 1.107
688.80 1.107
688.90 1.107
689.00 1.107
689.10 1.107
689.20 1.107
689.30 1.107
689.40 1.107
689.50 1.107
689.60 1.107
689.70 1.106
689.80 1.106
689.90 1.106
690.00 1.106
690.10 1.106
690.20 1.106
690.30 1.106
690.40 1.106
690.50 1.106
690.60 1.106
690.70 1.106
690.80 1.106
690.90 1.106
691.00 1.106
691.10 1.106
691.20 1.105
691.30 1.105
691.40 1.105
691.50 1.105
691.60 1.105
691.70 1.105
691.80 1.105
691.90 1.105
692.00 1.105
692.10 1.105
692.20 1.105
692.30 1.105
692.40 1.105
692.50 1.105
692.60 1.105
692.70 1.104
692.80 1.104
692.90 1.104
693.00 1.104
693.10 1.104
693.20 1.104
693.30 1.104
693.40 1.104
693.50 1.104
693.60 1.104
693.70 1.104
693.80 1.104
693.90 1.104
694.00 1.104
694.10 1.104
694.20 1.103
694.30 1.103
694.40 1.103
694.50 1.103
694.60 1.103
694.70 1.103
694.80 1.103
694.90 1.103
695.00 1.103
695.10 1.103
695.20 1.103
695.30 1.103
695.40 1.103
695.50 1.103
695.60 1.103
695.70 1.102
695.80 1.102
695.90 1.102
696.00 1.102
696.10 1.102
696.20 1.102
696.30 1.102
696.40 1.102
696.50 1.102
696.60 1.102
696.70 1.102
696.80 1.102
696.90 1.102
697.00 1.102
697.10 1.101
697.20 1.101
697.30 1.101
697.40 1.101
697.50 1.101
697.60 1.101
697.70 1.101
697.80 1.101
697.90 1.101
698.00 1.101
698.10 1.101
698.20 1.101
698.30 1.101
698.40 1.101
698.50 1.101
698.60 1.1
698.70 1.1
698.80 1.1
698.90 1.1
699.00 1.1
699.10 1.1
699.20 1.1
699.30 1.1
699.40 1.1
699.50 1.1
699.60 1.1
699.70 1.1
699.80 1.1
699.90 1.1
700.00 1.099
700.10 1.099
700.20 1.099
700.30 1.099
700.40 1.099
700.50 1.099
700.60 1.099
700.70 1.099
700.80 1.099
700.90 1.099
701.00 1.099
701.10 1.099
701.20 1.099
701.30 1.098
701.40 1.098
701.50 1.098
701.60 1.098
701.70 1.098
701.80 1.098
701.90 1.098
702.00 1.098
702.10 1.098
702.20 1.098
702.30 1.098
702.40 1.098
702.50 1.098
702.60 1.098
702.70 1.097
702.80 1.097
702.90 1.097
703.00 1.097
703.10 1.097
703.20 1.097
703.30 1.097
703.40 1.097
703.50 1.097
703.60 1.097
703.70 1.097
703.80 1.097
703.90 1.097
704.00 1.096
704.10 1.096
704.20 1.096
704.30 1.096
704.40 1.096
704.50 1.096
704.60 1.096
704.70 1.096
704.80 1.096
704.90 1.096
705.00 1.096
705.10 1.096
705.20 1.096
705.30 1.095
705.40 1.095
705.50 1.095
705.60 1.095
705.70 1.095
705.80 1.095
705.90 1.095
706.00 1.095
706.10 1.095
706.20 1.095
706.30 1.095
706.40 1.095
706.50 1.095
706.60 1.094
706.70 1.094
706.80 1.094
706.90 1.094
707.00 1.094
707.10 1.094
707.20 1.094
707.30 1.094
707.40 1.094
707.50 1.094
707.60 1.094
707.70 1.094
707.80 1.094
707.90 1.093
708.00 1.093
708.10 1.093
708.20 1.093
708.30 1.093
708.40 1.093
708.50 1.093
708.60 1.093
708.70 1.093
708.80 1.093
708.90 1.093
709.00 1.093
709.10 1.093
709.20 1.092
709.30 1.092
709.40 1.092
709.50 1.092
709.60 1.092
709.70 1.092
709.80 1.092
709.90 1.092
710.00 1.092
710.10 1.092
710.20 1.092
710.30 1.092
710.40 1.092
710.50 1.091
710.60 1.091
710.70 1.091
710.80 1.091
710.90 1.091
711.00 1.091
711.10 1.091
711.20 1.091
711.30 1.091
711.40 1.091
711.50 1.091
711.60 1.091
711.70 1.09
711.80 1.09
711.90 1.09
712.00 1.09
712.10 1.09
712.20 1.09
712.30 1.09
712.40 1.09
712.50 1.09
712.60 1.09
712.70 1.09
712.80 1.09
712.90 1.089
713.00 1.089
713.10 1.089
713.20 1.089
713.30 1.089
713.40 1.089
713.50 1.089
713.60 1.089
713.70 1.089
713.80 1.089
713.90 1.089
714.00 1.089
714.10 1.089
714.20 1.088
714.30 1.088
714.40 1.088
714.50 1.088
714.60 1.088
714.70 1.088
714.80 1.088
714.90 1.088
715.00 1.088
715.10 1.088
715.20 1.088
715.30 1.088
715.40 1.087
715.50 1.087
715.60 1.087
715.70 1.087
715.80 1.087
715.90 1.087
716.00 1.087
716.10 1.087
716.20 1.087
716.30 1.087
716.40 1.087
716.50 1.087
716.60 1.086
716.70 1.086
716.80 1.086
716.90 1.086
717.00 1.086
717.10 1.086
717.20 1.086
717.30 1.086
717.40 1.086
717.50 1.086
717.60 1.086
717.70 1.086
717.80 1.085
717.90 1.085
718.00 1.085
718.10 1.085
718.20 1.085
718.30 1.085
718.40 1.085
718.50 1.085
718.60 1.085
718.70 1.085
718.80 1.085
718.90 1.084
719.00 1.084
719.10 1.084
719.20 1.084
719.30 1.084
719.40 1.084
719.50 1.084
719.60 1.084
719.70 1.084
719.80 1.084
719.90 1.084
720.00 1.084
720.10 1.083
720.20 1.083
720.30 1.083
720.40 1.083
720.50 1.083
720.60 1.083
720.70 1.083
720.80 1.083
720.90 1.083
721.00 1.083
721.10 1.083
721.20 1.083
721.30 1.082
721.40 1.082
721.50 1.082
721.60 1.082
721.70 1.082
721.80 1.082
721.90 1.082
722.00 1.082
722.10 1.082
722.20 1.082
722.30 1.082
722.40 1.081
722.50 1.081
722.60 1.081
722.70 1.081
722.80 1.081
722.90 1.081
723.00 1.081
723.10 1.081
723.20 1.081
723.30 1.081
723.40 1.081
723.50 1.081
723.60 1.08
723.70 1.08
723.80 1.08
723.90 1.08
724.00 1.08
724.10 1.08
724.20 1.08
724.30 1.08
724.40 1.08
724.50 1.08
724.60 1.08
724.70 1.079
724.80 1.079
724.90 1.079
725.00 1.079
725.10 1.079
725.20 1.079
725.30 1.079
725.40 1.079
725.50 1.079
725.60 1.079
725.70 1.079
725.80 1.079
725.90 1.078
726.00 1.078
726.10 1.078
726.20 1.078
726.30 1.078
726.40 1.078
726.50 1.078
726.60 1.078
726.70 1.078
726.80 1.078
726.90 1.078
727.00 1.077
727.10 1.077
727.20 1.077
727.30 1.077
727.40 1.077
727.50 1.077
727.60 1.077
727.70 1.077
727.80 1.077
727.90 1.077
728.00 1.077
728.10 1.076
728.20 1.076
728.30 1.076
728.40 1.076
728.50 1.076
728.60 1.076
728.70 1.076
728.80 1.076
728.90 1.076
729.00 1.076
729.10 1.076
729.20 1.075
729.30 1.075
729.40 1.075
729.50 1.075
729.60 1.075
729.70 1.075
729.80 1.075
729.90 1.075
730.00 1.075
730.10 1.075
730.20 1.075
730.30 1.074
730.40 1.074
730.50 1.074
730.60 1.074
730.70 1.074
730.80 1.074
730.90 1.074
731.00 1.074
731.10 1.074
731.20 1.074
731.30 1.074
731.40 1.073
731.50 1.073
731.60 1.073
731.70 1.073
731.80 1.073
731.90 1.073
732.00 1.073
732.10 1.073
732.20 1.073
732.30 1.073
732.40 1.072
732.50 1.072
732.60 1.072
732.70 1.072
732.80 1.072
732.90 1.072
733.00 1.072
733.10 1.072
733.20 1.072
733.30 1.072
733.40 1.072
733.50 1.071
733.60 1.071
733.70 1.071
733.80 1.071
733.90 1.071
734.00 1.071
734.10 1.071
734.20 1.071
734.30 1.071
734.40 1.071
734.50 1.07
734.60 1.07
734.70 1.07
734.80 1.07
734.90 1.07
735.00 1.07
735.10 1.07
735.20 1.07
735.30 1.07
735.40 1.07
735.50 1.07
735.60 1.069
735.70 1.069
735.80 1.069
735.90 1.069
736.00 1.069
736.10 1.069
736.20 1.069
736.30 1.069
736.40 1.069
736.50 1.069
736.60 1.069
736.70 1.068
736.80 1.068
736.90 1.068
737.00 1.068
737.10 1.068
737.20 1.068
737.30 1.068
737.40 1.068
737.50 1.068
737.60 1.068
737.70 1.067
737.80 1.067
737.90 1.067
738.00 1.067
738.10 1.067
738.20 1.067
738.30 1.067
738.40 1.067
738.50 1.067
738.60 1.067
738.70 1.067
738.80 1.066
738.90 1.066
739.00 1.066
739.10 1.066
739.20 1.066
739.30 1.066
739.40 1.066
739.50 1.066
739.60 1.066
739.70 1.066
739.80 1.066
739.90 1.065
740.00 1.065
740.10 1.065
740.20 1.065
740.30 1.065
740.40 1.065
740.50 1.065
740.60 1.065
740.70 1.065
740.80 1.065
740.90 1.064
741.00 1.064
741.10 1.064
741.20 1.064
741.30 1.064
741.40 1.064
741.50 1.064
741.60 1.064
741.70 1.064
741.80 1.064
741.90 1.063
742.00 1.063
742.10 1.063
742.20 1.063
742.30 1.063
742.40 1.063
742.50 1.063
742.60 1.063
742.70 1.063
742.80 1.063
742.90 1.062
743.00 1.062
743.10 1.062
743.20 1.062
743.30 1.062
743.40 1.062
743.50 1.062
743.60 1.062
743.70 1.062
743.80 1.062
743.90 1.061
744.00 1.061
744.10 1.061
744.20 1.061
744.30 1.061
744.40 1.061
744.50 1.061
744.60 1.061
744.70 1.061
744.80 1.061
744.90 1.06
745.00 1.06
745.10 1.06
745.20 1.06
745.30 1.06
745.40 1.06
745.50 1.06
745.60 1.06
745.70 1.06
745.80 1.06
745.90 1.059
746.00 1.059
746.10 1.059
746.20 1.059
746.30 1.059
746.40 1.059
746.50 1.059
746.60 1.059
746.70 1.059
746.80 1.059
746.90 1.058
747.00 1.058
747.10 1.058
747.20 1.058
747.30 1.058
747.40 1.058
747.50 1.058
747.60 1.058
747.70 1.058
747.80 1.058
747.90 1.058
748.00 1.057
748.10 1.057
748.20 1.057
748.30 1.057
748.40 1.057
748.50 1.057
748.60 1.057
748.70 1.057
748.80 1.057
748.90 1.057
749.00 1.056
749.10 1.056
749.20 1.056
749.30 1.056
749.40 1.056
749.50 1.056
749.60 1.056
749.70 1.056
749.80 1.056
749.90 1.056
750.00 1.055
750.10 1.055
750.20 1.055
750.30 1.055
750.40 1.055
750.50 1.055
750.60 1.055
750.70 1.055
750.80 1.055
750.90 1.055
751.00 1.054
751.10 1.054
751.20 1.054
751.30 1.054
751.40 1.054
751.50 1.054
751.60 1.054
751.70 1.054
751.80 1.054
751.90 1.053
752.00 1.053
752.10 1.053
752.20 1.053
752.30 1.053
752.40 1.053
752.50 1.053
752.60 1.053
752.70 1.053
752.80 1.053
752.90 1.052
753.00 1.052
753.10 1.052
753.20 1.052
753.30 1.052
753.40 1.052
753.50 1.052
753.60 1.052
753.70 1.052
753.80 1.051
753.90 1.051
754.00 1.051
754.10 1.051
754.20 1.051
754.30 1.051
754.40 1.051
754.50 1.051
754.60 1.051
754.70 1.051
754.80 1.05
754.90 1.05
755.00 1.05
755.10 1.05
755.20 1.05
755.30 1.05
755.40 1.05
755.50 1.05
755.60 1.05
755.70 1.05
755.80 1.049
755.90 1.049
756.00 1.049
756.10 1.049
756.20 1.049
756.30 1.049
756.40 1.049
756.50 1.049
756.60 1.049
756.70 1.049
756.80 1.048
756.90 1.048
757.00 1.048
757.10 1.048
757.20 1.048
757.30 1.048
757.40 1.048
757.50 1.048
757.60 1.048
757.70 1.047
757.80 1.047
757.90 1.047
758.00 1.047
758.10 1.047
758.20 1.047
758.30 1.047
758.40 1.047
758.50 1.047
758.60 1.047
758.70 1.046
758.80 1.046
758.90 1.046
759.00 1.046
759.10 1.046
759.20 1.046
759.30 1.046
759.40 1.046
759.50 1.046
759.60 1.046
759.70 1.045
759.80 1.045
759.90 1.045
760.00 1.045
760.10 1.045
760.20 1.045
760.30 1.045
760.40 1.045
760.50 1.045
760.60 1.044
760.70 1.044
760.80 1.044
760.90 1.044
761.00 1.044
761.10 1.044
761.20 1.044
761.30 1.044
761.40 1.044
761.50 1.043
761.60 1.043
761.70 1.043
761.80 1.043
761.90 1.043
762.00 1.043
762.10 1.043
762.20 1.043
762.30 1.043
762.40 1.043
762.50 1.042
762.60 1.042
762.70 1.042
762.80 1.042
762.90 1.042
763.00 1.042
763.10 1.042
763.20 1.042
763.30 1.042
763.40 1.041
763.50 1.041
763.60 1.041
763.70 1.041
763.80 1.041
763.90 1.041
764.00 1.041
764.10 1.041
764.20 1.041
764.30 1.04
764.40 1.04
764.50 1.04
764.60 1.04
764.70 1.04
764.80 1.04
764.90 1.04
765.00 1.04
765.10 1.04
765.20 1.04
765.30 1.039
765.40 1.039
765.50 1.039
765.60 1.039
765.70 1.039
765.80 1.039
765.90 1.039
766.00 1.039
766.10 1.039
766.20 1.038
766.30 1.038
766.40 1.038
766.50 1.038
766.60 1.038
766.70 1.038
766.80 1.038
766.90 1.038
767.00 1.038
767.10 1.037
767.20 1.037
767.30 1.037
767.40 1.037
767.50 1.037
767.60 1.037
767.70 1.037
767.80 1.037
767.90 1.037
768.00 1.037
768.10 1.036
768.20 1.036
768.30 1.036
768.40 1.036
768.50 1.036
768.60 1.036
768.70 1.036
768.80 1.036
768.90 1.036
769.00 1.035
769.10 1.035
769.20 1.035
769.30 1.035
769.40 1.035
769.50 1.035
769.60 1.035
769.70 1.035
769.80 1.035
769.90 1.035
770.00 1.034
770.10 1.034
770.20 1.034
770.30 1.034
770.40 1.034
770.50 1.034
770.60 1.034
770.70 1.034
770.80 1.034
770.90 1.033
771.00 1.033
771.10 1.033
771.20 1.033
771.30 1.033
771.40 1.033
771.50 1.033
771.60 1.033
771.70 1.033
771.80 1.032
771.90 1.032
772.00 1.032
772.10 1.032
772.20 1.032
772.30 1.032
772.40 1.032
772.50 1.032
772.60 1.032
772.70 1.031
772.80 1.031
772.90 1.031
773.00 1.031
773.10 1.031
773.20 1.031
773.30 1.031
773.40 1.031
773.50 1.031
773.60 1.03
773.70 1.03
773.80 1.03
773.90 1.03
774.00 1.03
774.10 1.03
774.20 1.03
774.30 1.03
774.40 1.03
774.50 1.029
774.60 1.029
774.70 1.029
774.80 1.029
774.90 1.029
775.00 1.029
775.10 1.029
775.20 1.029
775.30 1.029
775.40 1.028
775.50 1.028
775.60 1.028
775.70 1.028
775.80 1.028
775.90 1.028
776.00 1.028
776.10 1.028
776.20 1.028
776.30 1.027
776.40 1.027
776.50 1.027
776.60 1.027
776.70 1.027
776.80 1.027
776.90 1.027
777.00 1.027
777.10 1.027
777.20 1.026
777.30 1.026
777.40 1.026
777.50 1.026
777.60 1.026
777.70 1.026
777.80 1.026
777.90 1.026
778.00 1.026
778.10 1.025
778.20 1.025
778.30 1.025
778.40 1.025
778.50 1.025
778.60 1.025
778.70 1.025
778.80 1.025
778.90 1.025
779.00 1.024
779.10 1.024
779.20 1.024
779.30 1.024
779.40 1.024
779.50 1.024
779.60 1.024
779.70 1.024
779.80 1.024
779.90 1.023
780.00 1.023
780.10 1.023
780.20 1.023
780.30 1.023
780.40 1.023
780.50 1.023
780.60 1.023
780.70 1.023
780.80 1.022
780.90 1.022
781.00 1.022
781.10 1.022
781.20 1.022
781.30 1.022
781.40 1.022
781.50 1.022
781.60 1.021
781.70 1.021
781.80 1.021
781.90 1.021
782.00 1.021
782.10 1.021
782.20 1.021
782.30 1.021
782.40 1.021
782.50 1.02
782.60 1.02
782.70 1.02
782.80 1.02
782.90 1.02
783.00 1.02
783.10 1.02
783.20 1.02
783.30 1.02
783.40 1.019
783.50 1.019
783.60 1.019
783.70 1.019
783.80 1.019
783.90 1.019
784.00 1.019
784.10 1.019
784.20 1.019
784.30 1.018
784.40 1.018
784.50 1.018
784.60 1.018
784.70 1.018
784.80 1.018
784.90 1.018
785.00 1.018
785.10 1.018
785.20 1.017
785.30 1.017
785.40 1.017
785.50 1.017
785.60 1.017
785.70 1.017
785.80 1.017
785.90 1.017
786.00 1.016
786.10 1.016
786.20 1.016
786.30 1.016
786.40 1.016
786.50 1.016
786.60 1.016
786.70 1.016
786.80 1.016
786.90 1.015
787.00 1.015
787.10 1.015
787.20 1.015
787.30 1.015
787.40 1.015
787.50 1.015
787.60 1.015
787.70 1.015
787.80 1.014
787.90 1.014
788.00 1.014
788.10 1.014
788.20 1.014
788.30 1.014
788.40 1.014
788.50 1.014
788.60 1.014
788.70 1.013
788.80 1.013
788.90 1.013
789.00 1.013
789.10 1.013
789.20 1.013
789.30 1.013
789.40 1.013
789.50 1.013
789.60 1.012
789.70 1.012
789.80 1.012
789.90 1.012
790.00 1.012
790.10 1.012
790.20 1.012
790.30 1.012
790.40 1.011
790.50 1.011
790.60 1.011
790.70 1.011
790.80 1.011
790.90 1.011
791.00 1.011
791.10 1.011
791.20 1.011
791.30 1.01
791.40 1.01
791.50 1.01
791.60 1.01
791.70 1.01
791.80 1.01
791.90 1.01
792.00 1.01
792.10 1.009
792.20 1.009
792.30 1.009
792.40 1.009
792.50 1.009
792.60 1.009
792.70 1.009
792.80 1.009
792.90 1.009
793.00 1.008
793.10 1.008
793.20 1.008
793.30 1.008
793.40 1.008
793.50 1.008
793.60 1.008
793.70 1.008
793.80 1.007
793.90 1.007
794.00 1.007
794.10 1.007
794.20 1.007
794.30 1.007
794.40 1.007
794.50 1.007
794.60 1.007
794.70 1.006
794.80 1.006
794.90 1.006
795.00 1.006
795.10 1.006
795.20 1.006
795.30 1.006
795.40 1.006
795.50 1.006
795.60 1.005
795.70 1.005
795.80 1.005
795.90 1.005
796.00 1.005
796.10 1.005
796.20 1.005
796.30 1.005
796.40 1.004
796.50 1.004
796.60 1.004
796.70 1.004
796.80 1.004
796.90 1.004
797.00 1.004
797.10 1.004
797.20 1.004
797.30 1.003
797.40 1.003
797.50 1.003
797.60 1.003
797.70 1.003
797.80 1.003
797.90 1.003
798.00 1.003
798.10 1.002
798.20 1.002
798.30 1.002
798.40 1.002
798.50 1.002
798.60 1.002
798.70 1.002
798.80 1.002
798.90 1.002
799.00 1.001
799.10 1.001
799.20 1.001
799.30 1.001
799.40 1.001
799.50 1.001
799.60 1.001
799.70 1.001
799.80 1.001
799.90 1
800.00 1
800.10 1
800.20 1
800.30 0.9999
800.40 0.9998
800.50 0.9997
800.60 0.9996
800.70 0.9995
800.80 0.9993
800.90 0.9992
801.00 0.9991
801.10 0.999
801.20 0.9989
801.30 0.9987
801.40 0.9986
801.50 0.9985
801.60 0.9984
801.70 0.9983
801.80 0.9981
801.90 0.998
802.00 0.9979
802.10 0.9978
802.20 0.9977
802.30 0.9975
802.40 0.9974
802.50 0.9973
802.60 0.9972
802.70 0.9971
802.80 0.9969
802.90 0.9968
803.00 0.9967
803.10 0.9966
803.20 0.9965
803.30 0.9963
803.40 0.9962
803.50 0.9961
803.60 0.996
803.70 0.9959
803.80 0.9957
803.90 0.9956
804.00 0.9955
804.10 0.9954
804.20 0.9953
804.30 0.9952
804.40 0.995
804.50 0.9949
804.60 0.9948
804.70 0.9947
804.80 0.9946
804.90 0.9944
805.00 0.9943
805.10 0.9942
805.20 0.9941
805.30 0.994
805.40 0.9938
805.50 0.9937
805.60 0.9936
805.70 0.9935
805.80 0.9934
805.90 0.9933
806.00 0.9931
806.10 0.993
806.20 0.9929
806.30 0.9928
806.40 0.9927
806.50 0.9925
806.60 0.9924
806.70 0.9923
806.80 0.9922
806.90 0.9921
807.00 0.992
807.10 0.9918
807.20 0.9917
807.30 0.9916
807.40 0.9915
807.50 0.9914
807.60 0.9912
807.70 0.9911
807.80 0.991
807.90 0.9909
808.00 0.9908
808.10 0.9907
808.20 0.9905
808.30 0.9904
808.40 0.9903
808.50 0.9902
808.60 0.9901
808.70 0.9899
808.80 0.9898
808.90 0.9897
809.00 0.9896
809.10 0.9895
809.20 0.9894
809.30 0.9892
809.40 0.9891
809.50 0.989
809.60 0.9889
809.70 0.9888
809.80 0.9887
809.90 0.9885
810.00 0.9884
810.10 0.9883
810.20 0.9882
810.30 0.9881
810.40 0.9879
810.50 0.9878
810.60 0.9877
810.70 0.9876
810.80 0.9874
810.90 0.9873
811.00 0.9872
811.10 0.9871
811.20 0.987
811.30 0.9868
811.40 0.9867
811.50 0.9866
811.60 0.9865
811.70 0.9863
811.80 0.9862
811.90 0.9861
812.00 0.986
812.10 0.9859
812.20 0.9857
812.30 0.9856
812.40 0.9855
812.50 0.9854
812.60 0.9853
812.70 0.9851
812.80 0.985
812.90 0.9849
813.00 0.9848
813.10 0.9846
813.20 0.9845
813.30 0.9844
813.40 0.9843
813.50 0.9842
813.60 0.984
813.70 0.9839
813.80 0.9838
813.90 0.9837
814.00 0.9836
814.10 0.9834
814.20 0.9833
814.30 0.9832
814.40 0.9831
814.50 0.9829
814.60 0.9828
814.70 0.9827
814.80 0.9826
814.90 0.9825
815.00 0.9823
815.10 0.9822
815.20 0.9821
815.30 0.982
815.40 0.9819
815.50 0.9817
815.60 0.9816
815.70 0.9815
815.80 0.9814
815.90 0.9813
816.00 0.9811
816.10 0.981
816.20 0.9809
816.30 0.9808
816.40 0.9807
816.50 0.9805
816.60 0.9804
816.70 0.9803
816.80 0.9802
816.90 0.9801
817.00 0.9799
817.10 0.9798
817.20 0.9797
817.30 0.9796
817.40 0.9795
817.50 0.9793
817.60 0.9792
817.70 0.9791
817.80 0.979
817.90 0.9789
818.00 0.9787
818.10 0.9786
818.20 0.9785
818.30 0.9784
818.40 0.9783
818.50 0.9781
818.60 0.978
818.70 0.9779
818.80 0.9778
818.90 0.9777
819.00 0.9775
819.10 0.9774
819.20 0.9773
819.30 0.9772
819.40 0.9771
819.50 0.9769
819.60 0.9768
819.70 0.9767
819.80 0.9766
819.90 0.9765
820.00 0.9763
820.10 0.9762
820.20 0.9761
820.30 0.976
820.40 0.9758
820.50 0.9757
820.60 0.9756
820.70 0.9755
820.80 0.9753
820.90 0.9752
821.00 0.9751
821.10 0.975
821.20 0.9749
821.30 0.9747
821.40 0.9746
821.50 0.9745
821.60 0.9744
821.70 0.9742
821.80 0.9741
821.90 0.974
822.00 0.9739
822.10 0.9738
822.20 0.9736
822.30 0.9735
822.40 0.9734
822.50 0.9733
822.60 0.9731
822.70 0.973
822.80 0.9729
822.90 0.9728
823.00 0.9726
823.10 0.9725
823.20 0.9724
823.30 0.9723
823.40 0.9722
823.50 0.972
823.60 0.9719
823.70 0.9718
823.80 0.9717
823.90 0.9715
824.00 0.9714
824.10 0.9713
824.20 0.9712
824.30 0.9711
824.40 0.9709
824.50 0.9708
824.60 0.9707
824.70 0.9706
824.80 0.9704
824.90 0.9703
825.00 0.9702
825.10 0.9701
825.20 0.97
825.30 0.9698
825.40 0.9697
825.50 0.9696
825.60 0.9695
825.70 0.9693
825.80 0.9692
825.90 0.9691
826.00 0.969
826.10 0.9689
826.20 0.9687
826.30 0.9686
826.40 0.9685
826.50 0.9684
826.60 0.9682
826.70 0.9681
826.80 0.968
826.90 0.9679
827.00 0.9678
827.10 0.9676
827.20 0.9675
827.30 0.9674
827.40 0.9673
827.50 0.9671
827.60 0.967
827.70 0.9669
827.80 0.9668
827.90 0.9666
828.00 0.9665
828.10 0.9664
828.20 0.9663
828.30 0.9661
828.40 0.966
828.50 0.9659
828.60 0.9658
828.70 0.9657
828.80 0.9655
828.90 0.9654
829.00 0.9653
829.10 0.9652
829.20 0.965
829.30 0.9649
829.40 0.9648
829.50 0.9647
829.60 0.9645
829.70 0.9644
829.80 0.9643
829.90 0.9642
830.00 0.9641
830.10 0.9639
830.20 0.9638
830.30 0.9637
830.40 0.9636
830.50 0.9634
830.60 0.9633
830.70 0.9632
830.80 0.9631
830.90 0.9629
831.00 0.9628
831.10 0.9627
831.20 0.9626
831.30 0.9625
831.40 0.9623
831.50 0.9622
831.60 0.9621
831.70 0.962
831.80 0.9618
831.90 0.9617
832.00 0.9616
832.10 0.9615
832.20 0.9613
832.30 0.9612
832.40 0.9611
832.50 0.961
832.60 0.9609
832.70 0.9607
832.80 0.9606
832.90 0.9605
833.00 0.9604
833.10 0.9602
833.20 0.9601
833.30 0.96
833.40 0.9599
833.50 0.9597
833.60 0.9596
833.70 0.9595
833.80 0.9594
833.90 0.9592
834.00 0.9591
834.10 0.959
834.20 0.9589
834.30 0.9587
834.40 0.9586
834.50 0.9585
834.60 0.9584
834.70 0.9582
834.80 0.9581
834.90 0.958
835.00 0.9579
835.10 0.9578
835.20 0.9576
835.30 0.9575
835.40 0.9574
835.50 0.9573
835.60 0.9571
835.70 0.957
835.80 0.9569
835.90 0.9568
836.00 0.9566
836.10 0.9565
836.20 0.9564
836.30 0.9563
836.40 0.9562
836.50 0.956
836.60 0.9559
836.70 0.9558
836.80 0.9557
836.90 0.9555
837.00 0.9554
837.10 0.9553
837.20 0.9552
837.30 0.955
837.40 0.9549
837.50 0.9548
837.60 0.9547
837.70 0.9545
837.80 0.9544
837.90 0.9543
838.00 0.9542
838.10 0.954
838.20 0.9539
838.30 0.9538
838.40 0.9537
838.50 0.9535
838.60 0.9534
838.70 0.9533
838.80 0.9532
838.90 0.953
839.00 0.9529
839.10 0.9528
839.20 0.9527
839.30 0.9525
839.40 0.9524
839.50 0.9523
839.60 0.9522
839.70 0.952
839.80 0.9519
839.90 0.9518
840.00 0.9517
840.10 0.9515
840.20 0.9514
840.30 0.9513
840.40 0.9512
840.50 0.951
840.60 0.9509
840.70 0.9508
840.80 0.9507
840.90 0.9505
841.00 0.9504
841.10 0.9503
841.20 0.9502
841.30 0.95
841.40 0.9499
841.50 0.9498
841.60 0.9497
841.70 0.9496
841.80 0.9494
841.90 0.9493
842.00 0.9492
842.10 0.9491
842.20 0.9489
842.30 0.9488
842.40 0.9487
842.50 0.9486
842.60 0.9484
842.70 0.9483
842.80 0.9482
842.90 0.9481
843.00 0.9479
843.10 0.9478
843.20 0.9477
843.30 0.9475
843.40 0.9474
843.50 0.9473
843.60 0.9472
843.70 0.947
843.80 0.9469
843.90 0.9468
844.00 0.9467
844.10 0.9465
844.20 0.9464
844.30 0.9463
844.40 0.9462
844.50 0.946
844.60 0.9459
844.70 0.9458
844.80 0.9457
844.90 0.9455
845.00 0.9454
845.10 0.9453
845.20 0.9452
845.30 0.945
845.40 0.9449
845.50 0.9448
845.60 0.9447
845.70 0.9445
845.80 0.9444
845.90 0.9443
846.00 0.9442
846.10 0.944
846.20 0.9439
846.30 0.9438
846.40 0.9437
846.50 0.9436
846.60 0.9434
846.70 0.9433
846.80 0.9432
846.90 0.9431
847.00 0.9429
847.10 0.9428
847.20 0.9427
847.30 0.9425
847.40 0.9424
847.50 0.9423
847.60 0.9422
847.70 0.942
847.80 0.9419
847.90 0.9418
848.00 0.9417
848.10 0.9415
848.20 0.9414
848.30 0.9413
848.40 0.9412
848.50 0.941
848.60 0.9409
848.70 0.9408
848.80 0.9407
848.90 0.9405
849.00 0.9404
849.10 0.9403
849.20 0.9402
849.30 0.94
849.40 0.9399
849.50 0.9398
849.60 0.9397
849.70 0.9395
849.80 0.9394
849.90 0.9393
850.00 0.9392
850.10 0.939
850.20 0.9389
850.30 0.9388
850.40 0.9387
850.50 0.9385
850.60 0.9384
850.70 0.9383
850.80 0.9382
850.90 0.938
851.00 0.9379
851.10 0.9378
851.20 0.9377
851.30 0.9375
851.40 0.9374
851.50 0.9373
851.60 0.9372
851.70 0.937
851.80 0.9369
851.90 0.9368
852.00 0.9367
852.10 0.9365
852.20 0.9364
852.30 0.9363
852.40 0.9361
852.50 0.936
852.60 0.9359
852.70 0.9358
852.80 0.9356
852.90 0.9355
853.00 0.9354
853.10 0.9353
853.20 0.9351
853.30 0.935
853.40 0.9349
853.50 0.9348
853.60 0.9346
853.70 0.9345
853.80 0.9344
853.90 0.9342
854.00 0.9341
854.10 0.934
854.20 0.9339
854.30 0.9337
854.40 0.9336
854.50 0.9335
854.60 0.9334
854.70 0.9332
854.80 0.9331
854.90 0.933
855.00 0.9329
855.10 0.9327
855.20 0.9326
855.30 0.9325
855.40 0.9324
855.50 0.9322
855.60 0.9321
855.70 0.932
855.80 0.9318
855.90 0.9317
856.00 0.9316
856.10 0.9315
856.20 0.9313
856.30 0.9312
856.40 0.9311
856.50 0.931
856.60 0.9308
856.70 0.9307
856.80 0.9306
856.90 0.9305
857.00 0.9303
857.10 0.9302
857.20 0.9301
857.30 0.93
857.40 0.9298
857.50 0.9297
857.60 0.9296
857.70 0.9295
857.80 0.9293
857.90 0.9292
858.00 0.9291
858.10 0.9289
858.20 0.9288
858.30 0.9287
858.40 0.9286
858.50 0.9284
858.60 0.9283
858.70 0.9282
858.80 0.9281
858.90 0.9279
859.00 0.9278
859.10 0.9277
859.20 0.9276
859.30 0.9274
859.40 0.9273
859.50 0.9272
859.60 0.9271
859.70 0.9269
859.80 0.9268
859.90 0.9267
860.00 0.9265
860.10 0.9264
860.20 0.9263
860.30 0.9262
860.40 0.926
860.50 0.9259
860.60 0.9258
860.70 0.9257
860.80 0.9255
860.90 0.9254
861.00 0.9253
861.10 0.9252
861.20 0.925
861.30 0.9249
861.40 0.9248
861.50 0.9247
861.60 0.9245
861.70 0.9244
861.80 0.9243
861.90 0.9242
862.00 0.924
862.10 0.9239
862.20 0.9238
862.30 0.9237
862.40 0.9235
862.50 0.9234
862.60 0.9233
862.70 0.9231
862.80 0.923
862.90 0.9229
863.00 0.9228
863.10 0.9226
863.20 0.9225
863.30 0.9224
863.40 0.9223
863.50 0.9221
863.60 0.922
863.70 0.9219
863.80 0.9218
863.90 0.9216
864.00 0.9215
864.10 0.9214
864.20 0.9212
864.30 0.9211
864.40 0.921
864.50 0.9209
864.60 0.9207
864.70 0.9206
864.80 0.9205
864.90 0.9204
865.00 0.9202
865.10 0.9201
865.20 0.92
865.30 0.9199
865.40 0.9197
865.50 0.9196
865.60 0.9195
865.70 0.9194
865.80 0.9192
865.90 0.9191
866.00 0.919
866.10 0.9188
866.20 0.9187
866.30 0.9186
866.40 0.9185
866.50 0.9183
866.60 0.9182
866.70 0.9181
866.80 0.918
866.90 0.9178
867.00 0.9177
867.10 0.9176
867.20 0.9175
867.30 0.9173
867.40 0.9172
867.50 0.9171
867.60 0.9169
867.70 0.9168
867.80 0.9167
867.90 0.9166
868.00 0.9164
868.10 0.9163
868.20 0.9162
868.30 0.9161
868.40 0.9159
868.50 0.9158
868.60 0.9157
868.70 0.9155
868.80 0.9154
868.90 0.9153
869.00 0.9152
869.10 0.915
869.20 0.9149
869.30 0.9148
869.40 0.9147
869.50 0.9145
869.60 0.9144
869.70 0.9143
869.80 0.9141
869.90 0.914
870.00 0.9139
870.10 0.9138
870.20 0.9136
870.30 0.9135
870.40 0.9134
870.50 0.9133
870.60 0.9131
870.70 0.913
870.80 0.9129
870.90 0.9128
871.00 0.9126
871.10 0.9125
871.20 0.9124
871.30 0.9122
871.40 0.9121
871.50 0.912
871.60 0.9119
871.70 0.9117
871.80 0.9116
871.90 0.9115
872.00 0.9114
872.10 0.9112
872.20 0.9111
872.30 0.911
872.40 0.9109
872.50 0.9107
872.60 0.9106
872.70 0.9105
872.80 0.9103
872.90 0.9102
873.00 0.9101
873.10 0.91
873.20 0.9098
873.30 0.9097
873.40 0.9096
873.50 0.9095
873.60 0.9093
873.70 0.9092
873.80 0.9091
873.90 0.9089
874.00 0.9088
874.10 0.9087
874.20 0.9086
874.30 0.9084
874.40 0.9083
874.50 0.9082
874.60 0.9081
874.70 0.9079
874.80 0.9078
874.90 0.9077
875.00 0.9075
875.10 0.9074
875.20 0.9073
875.30 0.9072
875.40 0.907
875.50 0.9069
875.60 0.9068
875.70 0.9067
875.80 0.9065
875.90 0.9064
876.00 0.9063
876.10 0.9062
876.20 0.906
876.30 0.9059
876.40 0.9058
876.50 0.9057
876.60 0.9055
876.70 0.9054
876.80 0.9053
876.90 0.9051
877.00 0.905
877.10 0.9049
877.20 0.9048
877.30 0.9046
877.40 0.9045
877.50 0.9044
877.60 0.9043
877.70 0.9041
877.80 0.904
877.90 0.9039
878.00 0.9037
878.10 0.9036
878.20 0.9035
878.30 0.9034
878.40 0.9032
878.50 0.9031
878.60 0.903
878.70 0.9028
878.80 0.9027
878.90 0.9026
879.00 0.9025
879.10 0.9023
879.20 0.9022
879.30 0.9021
879.40 0.902
879.50 0.9018
879.60 0.9017
879.70 0.9016
879.80 0.9014
879.90 0.9013
880.00 0.9012
880.10 0.9011
880.20 0.9009
880.30 0.9008
880.40 0.9007
880.50 0.9006
880.60 0.9004
880.70 0.9003
880.80 0.9002
880.90 0.9
881.00 0.8999
881.10 0.8998
881.20 0.8997
881.30 0.8995
881.40 0.8994
881.50 0.8993
881.60 0.8992
881.70 0.899
881.80 0.8989
881.90 0.8988
882.00 0.8986
882.10 0.8985
882.20 0.8984
882.30 0.8983
882.40 0.8981
882.50 0.898
882.60 0.8979
882.70 0.8978
882.80 0.8976
882.90 0.8975
883.00 0.8974
883.10 0.8972
883.20 0.8971
883.30 0.897
883.40 0.8969
883.50 0.8967
883.60 0.8966
883.70 0.8965
883.80 0.8963
883.90 0.8962
884.00 0.8961
884.10 0.896
884.20 0.8958
884.30 0.8957
884.40 0.8956
884.50 0.8955
884.60 0.8953
884.70 0.8952
884.80 0.8951
884.90 0.8949
885.00 0.8948
885.10 0.8947
885.20 0.8946
885.30 0.8944
885.40 0.8943
885.50 0.8942
885.60 0.8941
885.70 0.8939
885.80 0.8938
885.90 0.8937
886.00 0.8936
886.10 0.8934
886.20 0.8933
886.30 0.8932
886.40 0.893
886.50 0.8929
886.60 0.8928
886.70 0.8927
886.80 0.8925
886.90 0.8924
887.00 0.8923
887.10 0.8922
887.20 0.892
887.30 0.8919
887.40 0.8918
887.50 0.8917
887.60 0.8915
887.70 0.8914
887.80 0.8913
887.90 0.8911
888.00 0.891
888.10 0.8909
888.20 0.8908
888.30 0.8906
888.40 0.8905
888.50 0.8904
888.60 0.8902
888.70 0.8901
888.80 0.89
888.90 0.8899
889.00 0.8897
889.10 0.8896
889.20 0.8895
889.30 0.8894
889.40 0.8892
889.50 0.8891
889.60 0.889
889.70 0.8888
889.80 0.8887
889.90 0.8886
890.00 0.8885
890.10 0.8883
890.20 0.8882
890.30 0.8881
890.40 0.888
890.50 0.8878
890.60 0.8877
890.70 0.8876
890.80 0.8874
890.90 0.8873
891.00 0.8872
891.10 0.8871
891.20 0.8869
891.30 0.8868
891.40 0.8867
891.50 0.8866
891.60 0.8864
891.70 0.8863
891.80 0.8862
891.90 0.8861
892.00 0.8859
892.10 0.8858
892.20 0.8857
892.30 0.8855
892.40 0.8854
892.50 0.8853
892.60 0.8852
892.70 0.885
892.80 0.8849
892.90 0.8848
893.00 0.8846
893.10 0.8845
893.20 0.8844
893.30 0.8843
893.40 0.8841
893.50 0.884
893.60 0.8839
893.70 0.8838
893.80 0.8836
893.90 0.8835
894.00 0.8834
894.10 0.8832
894.20 0.8831
894.30 0.883
894.40 0.8829
894.50 0.8827
894.60 0.8826
894.70 0.8825
894.80 0.8824
894.90 0.8822
895.00 0.8821
895.10 0.882
895.20 0.8818
895.30 0.8817
895.40 0.8816
895.50 0.8815
895.60 0.8813
895.70 0.8812
895.80 0.8811
895.90 0.881
896.00 0.8808
896.10 0.8807
896.20 0.8806
896.30 0.8804
896.40 0.8803
896.50 0.8802
896.60 0.8801
896.70 0.8799
896.80 0.8798
896.90 0.8797
897.00 0.8796
897.10 0.8794
897.20 0.8793
897.30 0.8792
897.40 0.879
897.50 0.8789
897.60 0.8788
897.70 0.8787
897.80 0.8785
897.90 0.8784
898.00 0.8783
898.10 0.8782
898.20 0.878
898.30 0.8779
898.40 0.8778
898.50 0.8776
898.60 0.8775
898.70 0.8774
898.80 0.8773
898.90 0.8771
899.00 0.877
899.10 0.8769
899.20 0.8767
899.30 0.8766
899.40 0.8765
899.50 0.8764
899.60 0.8762
899.70 0.8761
899.80 0.876
899.90 0.8759
900.00 0.8757
900.10 0.8756
900.20 0.8755
900.30 0.8753
900.40 0.8752
900.50 0.8751
900.60 0.875
900.70 0.8748
900.80 0.8747
900.90 0.8746
901.00 0.8745
901.10 0.8743
901.20 0.8742
901.30 0.8741
901.40 0.874
901.50 0.8738
901.60 0.8737
901.70 0.8736
901.80 0.8734
901.90 0.8733
902.00 0.8732
902.10 0.8731
902.20 0.8729
902.30 0.8728
902.40 0.8727
902.50 0.8725
902.60 0.8724
902.70 0.8723
902.80 0.8722
902.90 0.872
903.00 0.8719
903.10 0.8718
903.20 0.8716
903.30 0.8715
903.40 0.8714
903.50 0.8713
903.60 0.8711
903.70 0.871
903.80 0.8709
903.90 0.8708
904.00 0.8706
904.10 0.8705
904.20 0.8704
904.30 0.8702
904.40 0.8701
904.50 0.87
904.60 0.8699
904.70 0.8697
904.80 0.8696
904.90 0.8695
905.00 0.8693
905.10 0.8692
905.20 0.8691
905.30 0.869
905.40 0.8688
905.50 0.8687
905.60 0.8686
905.70 0.8685
905.80 0.8683
905.90 0.8682
906.00 0.8681
906.10 0.8679
906.20 0.8678
906.30 0.8677
906.40 0.8676
906.50 0.8674
906.60 0.8673
906.70 0.8672
906.80 0.8671
906.90 0.8669
907.00 0.8668
907.10 0.8667
907.20 0.8665
907.30 0.8664
907.40 0.8663
907.50 0.8662
907.60 0.866
907.70 0.8659
907.80 0.8658
907.90 0.8656
908.00 0.8655
908.10 0.8654
908.20 0.8653
908.30 0.8651
908.40 0.865
908.50 0.8649
908.60 0.8648
908.70 0.8646
908.80 0.8645
908.90 0.8644
909.00 0.8642
909.10 0.8641
909.20 0.864
909.30 0.8639
909.40 0.8637
909.50 0.8636
909.60 0.8635
909.70 0.8634
909.80 0.8632
909.90 0.8631
910.00 0.863
910.10 0.8628
910.20 0.8627
910.30 0.8626
910.40 0.8625
910.50 0.8623
910.60 0.8622
910.70 0.8621
910.80 0.862
910.90 0.8618
911.00 0.8617
911.10 0.8616
911.20 0.8615
911.30 0.8613
911.40 0.8612
911.50 0.8611
911.60 0.861
911.70 0.8608
911.80 0.8607
911.90 0.8606
912.00 0.8604
912.10 0.8603
912.20 0.8602
912.30 0.8601
912.40 0.8599
912.50 0.8598
912.60 0.8597
912.70 0.8596
912.80 0.8594
912.90 0.8593
913.00 0.8592
913.10 0.859
913.20 0.8589
913.30 0.8588
913.40 0.8587
913.50 0.8585
913.60 0.8584
913.70 0.8583
913.80 0.8582
913.90 0.858
914.00 0.8579
914.10 0.8578
914.20 0.8576
914.30 0.8575
914.40 0.8574
914.50 0.8573
914.60 0.8571
914.70 0.857
914.80 0.8569
914.90 0.8568
915.00 0.8566
915.10 0.8565
915.20 0.8564
915.30 0.8562
915.40 0.8561
915.50 0.856
915.60 0.8559
915.70 0.8557
915.80 0.8556
915.90 0.8555
916.00 0.8554
916.10 0.8552
916.20 0.8551
916.30 0.855
916.40 0.8549
916.50 0.8547
916.60 0.8546
916.70 0.8545
916.80 0.8543
916.90 0.8542
917.00 0.8541
917.10 0.854
917.20 0.8538
917.30 0.8537
917.40 0.8536
917.50 0.8535
917.60 0.8533
917.70 0.8532
917.80 0.8531
917.90 0.8529
918.00 0.8528
918.10 0.8527
918.20 0.8526
918.30 0.8524
918.40 0.8523
918.50 0.8522
918.60 0.8521
918.70 0.8519
918.80 0.8518
918.90 0.8517
919.00 0.8515
919.10 0.8514
919.20 0.8513
919.30 0.8512
919.40 0.851
919.50 0.8509
919.60 0.8508
919.70 0.8507
919.80 0.8505
919.90 0.8504
920.00 0.8503
920.10 0.8501
920.20 0.85
920.30 0.8499
920.40 0.8498
920.50 0.8496
920.60 0.8495
920.70 0.8494
920.80 0.8493
920.90 0.8491
921.00 0.849
921.10 0.8489
921.20 0.8488
921.30 0.8486
921.40 0.8485
921.50 0.8484
921.60 0.8483
921.70 0.8481
921.80 0.848
921.90 0.8479
922.00 0.8477
922.10 0.8476
922.20 0.8475
922.30 0.8474
922.40 0.8472
922.50 0.8471
922.60 0.847
922.70 0.8469
922.80 0.8467
922.90 0.8466
923.00 0.8465
923.10 0.8463
923.20 0.8462
923.30 0.8461
923.40 0.846
923.50 0.8458
923.60 0.8457
923.70 0.8456
923.80 0.8455
923.90 0.8453
924.00 0.8452
924.10 0.8451
924.20 0.8449
924.30 0.8448
924.40 0.8447
924.50 0.8446
924.60 0.8444
924.70 0.8443
924.80 0.8442
924.90 0.8441
925.00 0.8439
925.10 0.8438
925.20 0.8437
925.30 0.8435
925.40 0.8434
925.50 0.8433
925.60 0.8432
925.70 0.843
925.80 0.8429
925.90 0.8428
926.00 0.8427
926.10 0.8425
926.20 0.8424
926.30 0.8423
926.40 0.8422
926.50 0.842
926.60 0.8419
926.70 0.8418
926.80 0.8417
926.90 0.8415
927.00 0.8414
927.10 0.8413
927.20 0.8411
927.30 0.841
927.40 0.8409
927.50 0.8408
927.60 0.8406
927.70 0.8405
927.80 0.8404
927.90 0.8403
928.00 0.8401
928.10 0.84
928.20 0.8399
928.30 0.8398
928.40 0.8396
928.50 0.8395
928.60 0.8394
928.70 0.8392
928.80 0.8391
928.90 0.839
929.00 0.8389
929.10 0.8387
929.20 0.8386
929.30 0.8385
929.40 0.8384
929.50 0.8382
929.60 0.8381
929.70 0.838
929.80 0.8379
929.90 0.8377
930.00 0.8376
930.10 0.8375
930.20 0.8374
930.30 0.8372
930.40 0.8371
930.50 0.837
930.60 0.8369
930.70 0.8367
930.80 0.8366
930.90 0.8365
931.00 0.8364
931.10 0.8362
931.20 0.8361
931.30 0.836
931.40 0.8358
931.50 0.8357
931.60 0.8356
931.70 0.8355
931.80 0.8353
931.90 0.8352
932.00 0.8351
932.10 0.835
932.20 0.8348
932.30 0.8347
932.40 0.8346
932.50 0.8345
932.60 0.8343
932.70 0.8342
932.80 0.8341
932.90 0.834
933.00 0.8338
933.10 0.8337
933.20 0.8336
933.30 0.8334
933.40 0.8333
933.50 0.8332
933.60 0.8331
933.70 0.8329
933.80 0.8328
933.90 0.8327
934.00 0.8326
934.10 0.8324
934.20 0.8323
934.30 0.8322
934.40 0.8321
934.50 0.8319
934.60 0.8318
934.70 0.8317
934.80 0.8315
934.90 0.8314
935.00 0.8313
935.10 0.8312
935.20 0.831
935.30 0.8309
935.40 0.8308
935.50 0.8307
935.60 0.8305
935.70 0.8304
935.80 0.8303
935.90 0.8302
936.00 0.83
936.10 0.8299
936.20 0.8298
936.30 0.8297
936.40 0.8295
936.50 0.8294
936.60 0.8293
936.70 0.8292
936.80 0.829
936.90 0.8289
937.00 0.8288
937.10 0.8287
937.20 0.8285
937.30 0.8284
937.40 0.8283
937.50 0.8281
937.60 0.828
937.70 0.8279
937.80 0.8278
937.90 0.8276
938.00 0.8275
938.10 0.8274
938.20 0.8273
938.30 0.8271
938.40 0.827
938.50 0.8269
938.60 0.8268
938.70 0.8266
938.80 0.8265
938.90 0.8264
939.00 0.8263
939.10 0.8261
939.20 0.826
939.30 0.8259
939.40 0.8258
939.50 0.8256
939.60 0.8255
939.70 0.8254
939.80 0.8252
939.90 0.8251
940.00 0.825
940.10 0.8249
940.20 0.8247
940.30 0.8246
940.40 0.8245
940.50 0.8244
940.60 0.8242
940.70 0.8241
940.80 0.824
940.90 0.8239
941.00 0.8237
941.10 0.8236
941.20 0.8235
941.30 0.8234
941.40 0.8232
941.50 0.8231
941.60 0.823
941.70 0.8229
941.80 0.8227
941.90 0.8226
942.00 0.8225
942.10 0.8224
942.20 0.8222
942.30 0.8221
942.40 0.822
942.50 0.8219
942.60 0.8217
942.70 0.8216
942.80 0.8215
942.90 0.8214
943.00 0.8212
943.10 0.8211
943.20 0.821
943.30 0.8209
943.40 0.8207
943.50 0.8206
943.60 0.8205
943.70 0.8204
943.80 0.8202
943.90 0.8201
944.00 0.82
944.10 0.8199
944.20 0.8197
944.30 0.8196
944.40 0.8195
944.50 0.8194
944.60 0.8192
944.70 0.8191
944.80 0.819
944.90 0.8188
945.00 0.8187
945.10 0.8186
945.20 0.8185
945.30 0.8183
945.40 0.8182
945.50 0.8181
945.60 0.818
945.70 0.8178
945.80 0.8177
945.90 0.8176
946.00 0.8175
946.10 0.8173
946.20 0.8172
946.30 0.8171
946.40 0.817
946.50 0.8168
946.60 0.8167
946.70 0.8166
946.80 0.8165
946.90 0.8163
947.00 0.8162
947.10 0.8161
947.20 0.816
947.30 0.8158
947.40 0.8157
947.50 0.8156
947.60 0.8155
947.70 0.8153
947.80 0.8152
947.90 0.8151
948.00 0.815
948.10 0.8148
948.20 0.8147
948.30 0.8146
948.40 0.8145
948.50 0.8143
948.60 0.8142
948.70 0.8141
948.80 0.814
948.90 0.8138
949.00 0.8137
949.10 0.8136
949.20 0.8135
949.30 0.8133
949.40 0.8132
949.50 0.8131
949.60 0.813
949.70 0.8128
949.80 0.8127
949.90 0.8126
950.00 0.8125
950.10 0.8123
950.20 0.8122
950.30 0.8121
950.40 0.812
950.50 0.8118
950.60 0.8117
950.70 0.8116
950.80 0.8115
950.90 0.8113
951.00 0.8112
951.10 0.8111
951.20 0.8109
951.30 0.8108
951.40 0.8107
951.50 0.8106
951.60 0.8105
951.70 0.8103
951.80 0.8102
951.90 0.8101
952.00 0.81
952.10 0.8098
952.20 0.8097
952.30 0.8096
952.40 0.8095
952.50 0.8093
952.60 0.8092
952.70 0.8091
952.80 0.809
952.90 0.8088
953.00 0.8087
953.10 0.8086
953.20 0.8085
953.30 0.8083
953.40 0.8082
953.50 0.8081
953.60 0.808
953.70 0.8078
953.80 0.8077
953.90 0.8076
954.00 0.8074
954.10 0.8073
954.20 0.8072
954.30 0.8071
954.40 0.8069
954.50 0.8068
954.60 0.8067
954.70 0.8066
954.80 0.8065
954.90 0.8063
955.00 0.8062
955.10 0.8061
955.20 0.806
955.30 0.8058
955.40 0.8057
955.50 0.8056
955.60 0.8055
955.70 0.8053
955.80 0.8052
955.90 0.8051
956.00 0.805
956.10 0.8048
956.20 0.8047
956.30 0.8046
956.40 0.8045
956.50 0.8043
956.60 0.8042
956.70 0.8041
956.80 0.804
956.90 0.8038
957.00 0.8037
957.10 0.8036
957.20 0.8035
957.30 0.8033
957.40 0.8032
957.50 0.8031
957.60 0.803
957.70 0.8028
957.80 0.8027
957.90 0.8026
958.00 0.8025
958.10 0.8023
958.20 0.8022
958.30 0.8021
958.40 0.802
958.50 0.8018
958.60 0.8017
958.70 0.8016
958.80 0.8015
958.90 0.8014
959.00 0.8012
959.10 0.8011
959.20 0.801
959.30 0.8009
959.40 0.8007
959.50 0.8006
959.60 0.8005
959.70 0.8004
959.80 0.8002
959.90 0.8001
960.00 0.8
960.10 0.7999
960.20 0.7997
960.30 0.7996
960.40 0.7995
960.50 0.7994
960.60 0.7992
960.70 0.7991
960.80 0.799
960.90 0.7989
961.00 0.7987
961.10 0.7986
961.20 0.7985
961.30 0.7984
961.40 0.7982
961.50 0.7981
961.60 0.798
961.70 0.7979
961.80 0.7977
961.90 0.7976
962.00 0.7975
962.10 0.7974
962.20 0.7972
962.30 0.7971
962.40 0.797
962.50 0.7969
962.60 0.7967
962.70 0.7966
962.80 0.7965
962.90 0.7964
963.00 0.7963
963.10 0.7961
963.20 0.796
963.30 0.7959
963.40 0.7958
963.50 0.7956
963.60 0.7955
963.70 0.7954
963.80 0.7953
963.90 0.7951
964.00 0.795
964.10 0.7949
964.20 0.7948
964.30 0.7946
964.40 0.7945
964.50 0.7944
964.60 0.7943
964.70 0.7941
964.80 0.794
964.90 0.7939
965.00 0.7938
965.10 0.7937
965.20 0.7935
965.30 0.7934
965.40 0.7933
965.50 0.7932
965.60 0.793
965.70 0.7929
965.80 0.7928
965.90 0.7927
966.00 0.7925
966.10 0.7924
966.20 0.7923
966.30 0.7922
966.40 0.792
966.50 0.7919
966.60 0.7918
966.70 0.7917
966.80 0.7915
966.90 0.7914
967.00 0.7913
967.10 0.7912
967.20 0.7911
967.30 0.7909
967.40 0.7908
967.50 0.7907
967.60 0.7906
967.70 0.7904
967.80 0.7903
967.90 0.7902
968.00 0.7901
968.10 0.7899
968.20 0.7898
968.30 0.7897
968.40 0.7896
968.50 0.7894
968.60 0.7893
968.70 0.7892
968.80 0.7891
968.90 0.7889
969.00 0.7888
969.10 0.7887
969.20 0.7886
969.30 0.7885
969.40 0.7883
969.50 0.7882
969.60 0.7881
969.70 0.788
969.80 0.7878
969.90 0.7877
970.00 0.7876
970.10 0.7875
970.20 0.7873
970.30 0.7872
970.40 0.7871
970.50 0.787
970.60 0.7869
970.70 0.7867
970.80 0.7866
970.90 0.7865
971.00 0.7864
971.10 0.7862
971.20 0.7861
971.30 0.786
971.40 0.7859
971.50 0.7857
971.60 0.7856
971.70 0.7855
971.80 0.7854
971.90 0.7853
972.00 0.7851
972.10 0.785
972.20 0.7849
972.30 0.7848
972.40 0.7846
972.50 0.7845
972.60 0.7844
972.70 0.7843
972.80 0.7841
972.90 0.784
973.00 0.7839
973.10 0.7838
973.20 0.7836
973.30 0.7835
973.40 0.7834
973.50 0.7833
973.60 0.7832
973.70 0.783
973.80 0.7829
973.90 0.7828
974.00 0.7827
974.10 0.7825
974.20 0.7824
974.30 0.7823
974.40 0.7822
974.50 0.782
974.60 0.7819
974.70 0.7818
974.80 0.7817
974.90 0.7816
975.00 0.7814
975.10 0.7813
975.20 0.7812
975.30 0.7811
975.40 0.7809
975.50 0.7808
975.60 0.7807
975.70 0.7806
975.80 0.7804
975.90 0.7803
976.00 0.7802
976.10 0.7801
976.20 0.78
976.30 0.7798
976.40 0.7797
976.50 0.7796
976.60 0.7795
976.70 0.7793
976.80 0.7792
976.90 0.7791
977.00 0.779
977.10 0.7789
977.20 0.7787
977.30 0.7786
977.40 0.7785
977.50 0.7784
977.60 0.7782
977.70 0.7781
977.80 0.778
977.90 0.7779
978.00 0.7778
978.10 0.7776
978.20 0.7775
978.30 0.7774
978.40 0.7773
978.50 0.7771
978.60 0.777
978.70 0.7769
978.80 0.7768
978.90 0.7766
979.00 0.7765
979.10 0.7764
979.20 0.7763
979.30 0.7762
979.40 0.776
979.50 0.7759
979.60 0.7758
979.70 0.7757
979.80 0.7755
979.90 0.7754
980.00 0.7753
980.10 0.7752
980.20 0.7751
980.30 0.7749
980.40 0.7748
980.50 0.7747
980.60 0.7746
980.70 0.7744
980.80 0.7743
980.90 0.7742
981.00 0.7741
981.10 0.774
981.20 0.7738
981.30 0.7737
981.40 0.7736
981.50 0.7735
981.60 0.7733
981.70 0.7732
981.80 0.7731
981.90 0.773
982.00 0.7729
982.10 0.7727
982.20 0.7726
982.30 0.7725
982.40 0.7724
982.50 0.7722
982.60 0.7721
982.70 0.772
982.80 0.7719
982.90 0.7718
983.00 0.7716
983.10 0.7715
983.20 0.7714
983.30 0.7713
983.40 0.7711
983.50 0.771
983.60 0.7709
983.70 0.7708
983.80 0.7707
983.90 0.7705
984.00 0.7704
984.10 0.7703
984.20 0.7702
984.30 0.77
984.40 0.7699
984.50 0.7698
984.60 0.7697
984.70 0.7696
984.80 0.7694
984.90 0.7693
985.00 0.7692
985.10 0.7691
985.20 0.7689
985.30 0.7688
985.40 0.7687
985.50 0.7686
985.60 0.7685
985.70 0.7683
985.80 0.7682
985.90 0.7681
986.00 0.768
986.10 0.7679
986.20 0.7677
986.30 0.7676
986.40 0.7675
986.50 0.7674
986.60 0.7673
986.70 0.7671
986.80 0.767
986.90 0.7669
987.00 0.7668
987.10 0.7666
987.20 0.7665
987.30 0.7664
987.40 0.7663
987.50 0.7662
987.60 0.766
987.70 0.7659
987.80 0.7658
987.90 0.7657
988.00 0.7656
988.10 0.7654
988.20 0.7653
988.30 0.7652
988.40 0.7651
988.50 0.7649
988.60 0.7648
988.70 0.7647
988.80 0.7646
988.90 0.7645
989.00 0.7643
989.10 0.7642
989.20 0.7641
989.30 0.764
989.40 0.7638
989.50 0.7637
989.60 0.7636
989.70 0.7635
989.80 0.7634
989.90 0.7632
990.00 0.7631
990.10 0.763
990.20 0.7629
990.30 0.7627
990.40 0.7626
990.50 0.7625
990.60 0.7624
990.70 0.7623
990.80 0.7621
990.90 0.762
991.00 0.7619
991.10 0.7618
991.20 0.7617
991.30 0.7615
991.40 0.7614
991.50 0.7613
991.60 0.7612
991.70 0.7611
991.80 0.7609
991.90 0.7608
992.00 0.7607
992.10 0.7606
992.20 0.7605
992.30 0.7603
992.40 0.7602
992.50 0.7601
992.60 0.76
992.70 0.7599
992.80 0.7597
992.90 0.7596
993.00 0.7595
993.10 0.7594
993.20 0.7593
993.30 0.7591
993.40 0.759
993.50 0.7589
993.60 0.7588
993.70 0.7586
993.80 0.7585
993.90 0.7584
994.00 0.7583
994.10 0.7582
994.20 0.758
994.30 0.7579
994.40 0.7578
994.50 0.7577
994.60 0.7576
994.70 0.7574
994.80 0.7573
994.90 0.7572
995.00 0.7571
995.10 0.757
995.20 0.7568
995.30 0.7567
995.40 0.7566
995.50 0.7565
995.60 0.7564
995.70 0.7562
995.80 0.7561
995.90 0.756
996.00 0.7559
996.10 0.7558
996.20 0.7556
996.30 0.7555
996.40 0.7554
996.50 0.7553
996.60 0.7552
996.70 0.755
996.80 0.7549
996.90 0.7548
997.00 0.7547
997.10 0.7545
997.20 0.7544
997.30 0.7543
997.40 0.7542
997.50 0.7541
997.60 0.754
997.70 0.7538
997.80 0.7537
997.90 0.7536
998.00 0.7535
998.10 0.7533
998.20 0.7532
998.30 0.7531
998.40 0.753
998.50 0.7529
998.60 0.7527
998.70 0.7526
998.80 0.7525
998.90 0.7524
999.00 0.7523
999.10 0.7521
999.20 0.752
999.30 0.7519
999.40 0.7518
999.50 0.7517
999.60 0.7515
999.70 0.7514
999.80 0.7513
999.90 0.7512
1000.00 0.7511
1000.10 0.7509
1000.20 0.7508
1000.30 0.7507
1000.40 0.7506
1000.50 0.7505
1000.60 0.7503
1000.70 0.7502
1000.80 0.7501
1000.90 0.75
1001.00 0.7499
1001.10 0.7497
1001.20 0.7496
1001.30 0.7495
1001.40 0.7494
1001.50 0.7493
1001.60 0.7491
1001.70 0.749
1001.80 0.7489
1001.90 0.7488
1002.00 0.7487
1002.10 0.7486
1002.20 0.7484
1002.30 0.7483
1002.40 0.7482
1002.50 0.7481
1002.60 0.748
1002.70 0.7478
1002.80 0.7477
1002.90 0.7476
1003.00 0.7475
1003.10 0.7474
1003.20 0.7472
1003.30 0.7471
1003.40 0.747
1003.50 0.7469
1003.60 0.7468
1003.70 0.7466
1003.80 0.7465
1003.90 0.7464
1004.00 0.7463
1004.10 0.7462
1004.20 0.746
1004.30 0.7459
1004.40 0.7458
1004.50 0.7457
1004.60 0.7455
1004.70 0.7454
1004.80 0.7453
1004.90 0.7452
1005.00 0.7451
1005.10 0.745
1005.20 0.7448
1005.30 0.7447
1005.40 0.7446
1005.50 0.7445
1005.60 0.7444
1005.70 0.7442
1005.80 0.7441
1005.90 0.744
1006.00 0.7439
1006.10 0.7438
1006.20 0.7436
1006.30 0.7435
1006.40 0.7434
1006.50 0.7433
1006.60 0.7432
1006.70 0.7431
1006.80 0.7429
1006.90 0.7428
1007.00 0.7427
1007.10 0.7426
1007.20 0.7425
1007.30 0.7423
1007.40 0.7422
1007.50 0.7421
1007.60 0.742
1007.70 0.7419
1007.80 0.7417
1007.90 0.7416
1008.00 0.7415
1008.10 0.7414
1008.20 0.7413
1008.30 0.7412
1008.40 0.741
1008.50 0.7409
1008.60 0.7408
1008.70 0.7407
1008.80 0.7406
1008.90 0.7404
1009.00 0.7403
1009.10 0.7402
1009.20 0.7401
1009.30 0.74
1009.40 0.7399
1009.50 0.7397
1009.60 0.7396
1009.70 0.7395
1009.80 0.7394
1009.90 0.7393
1010.00 0.7391
1010.10 0.739
1010.20 0.7389
1010.30 0.7388
1010.40 0.7387
1010.50 0.7386
1010.60 0.7384
1010.70 0.7383
1010.80 0.7382
1010.90 0.7381
1011.00 0.738
1011.10 0.7378
1011.20 0.7377
1011.30 0.7376
1011.40 0.7375
1011.50 0.7374
1011.60 0.7372
1011.70 0.7371
1011.80 0.737
1011.90 0.7369
1012.00 0.7368
1012.10 0.7366
1012.20 0.7365
1012.30 0.7364
1012.40 0.7363
1012.50 0.7362
1012.60 0.7361
1012.70 0.7359
1012.80 0.7358
1012.90 0.7357
1013.00 0.7356
1013.10 0.7355
1013.20 0.7353
1013.30 0.7352
1013.40 0.7351
1013.50 0.735
1013.60 0.7349
1013.70 0.7348
1013.80 0.7346
1013.90 0.7345
1014.00 0.7344
1014.10 0.7343
1014.20 0.7342
1014.30 0.734
1014.40 0.7339
1014.50 0.7338
1014.60 0.7337
1014.70 0.7336
1014.80 0.7335
1014.90 0.7333
1015.00 0.7332
1015.10 0.7331
1015.20 0.733
1015.30 0.7329
1015.40 0.7327
1015.50 0.7326
1015.60 0.7325
1015.70 0.7324
1015.80 0.7323
1015.90 0.7322
1016.00 0.732
1016.10 0.7319
1016.20 0.7318
1016.30 0.7317
1016.40 0.7316
1016.50 0.7315
1016.60 0.7313
1016.70 0.7312
1016.80 0.7311
1016.90 0.731
1017.00 0.7309
1017.10 0.7308
1017.20 0.7306
1017.30 0.7305
1017.40 0.7304
1017.50 0.7303
1017.60 0.7302
1017.70 0.73
1017.80 0.7299
1017.90 0.7298
1018.00 0.7297
1018.10 0.7296
1018.20 0.7294
1018.30 0.7293
1018.40 0.7292
1018.50 0.7291
1018.60 0.729
1018.70 0.7289
1018.80 0.7287
1018.90 0.7286
1019.00 0.7285
1019.10 0.7284
1019.20 0.7283
1019.30 0.7282
1019.40 0.728
1019.50 0.7279
1019.60 0.7278
1019.70 0.7277
1019.80 0.7276
1019.90 0.7275
1020.00 0.7273
1020.10 0.7272
1020.20 0.7271
1020.30 0.727
1020.40 0.7269
1020.50 0.7268
1020.60 0.7266
1020.70 0.7265
1020.80 0.7264
1020.90 0.7263
1021.00 0.7262
1021.10 0.7261
1021.20 0.7259
1021.30 0.7258
1021.40 0.7257
1021.50 0.7256
1021.60 0.7255
1021.70 0.7253
1021.80 0.7252
1021.90 0.7251
1022.00 0.725
1022.10 0.7249
1022.20 0.7248
1022.30 0.7246
1022.40 0.7245
1022.50 0.7244
1022.60 0.7243
1022.70 0.7242
1022.80 0.7241
1022.90 0.7239
1023.00 0.7238
1023.10 0.7237
1023.20 0.7236
1023.30 0.7235
1023.40 0.7234
1023.50 0.7232
1023.60 0.7231
1023.70 0.723
1023.80 0.7229
1023.90 0.7228
1024.00 0.7227
1024.10 0.7225
1024.20 0.7224
1024.30 0.7223
1024.40 0.7222
1024.50 0.7221
1024.60 0.722
1024.70 0.7218
1024.80 0.7217
1024.90 0.7216
1025.00 0.7215
1025.10 0.7214
1025.20 0.7213
1025.30 0.7211
1025.40 0.721
1025.50 0.7209
1025.60 0.7208
1025.70 0.7207
1025.80 0.7206
1025.90 0.7204
1026.00 0.7203
1026.10 0.7202
1026.20 0.7201
1026.30 0.72
1026.40 0.7199
1026.50 0.7197
1026.60 0.7196
1026.70 0.7195
1026.80 0.7194
1026.90 0.7193
1027.00 0.7192
1027.10 0.719
1027.20 0.7189
1027.30 0.7188
1027.40 0.7187
1027.50 0.7186
1027.60 0.7185
1027.70 0.7183
1027.80 0.7182
1027.90 0.7181
1028.00 0.718
1028.10 0.7179
1028.20 0.7178
1028.30 0.7176
1028.40 0.7175
1028.50 0.7174
1028.60 0.7173
1028.70 0.7172
1028.80 0.7171
1028.90 0.7169
1029.00 0.7168
1029.10 0.7167
1029.20 0.7166
1029.30 0.7165
1029.40 0.7164
1029.50 0.7163
1029.60 0.7161
1029.70 0.716
1029.80 0.7159
1029.90 0.7158
1030.00 0.7157
1030.10 0.7156
1030.20 0.7154
1030.30 0.7153
1030.40 0.7152
1030.50 0.7151
1030.60 0.715
1030.70 0.7149
1030.80 0.7147
1030.90 0.7146
1031.00 0.7145
1031.10 0.7144
1031.20 0.7143
1031.30 0.7142
1031.40 0.7141
1031.50 0.7139
1031.60 0.7138
1031.70 0.7137
1031.80 0.7136
1031.90 0.7135
1032.00 0.7134
1032.10 0.7133
1032.20 0.7131
1032.30 0.713
1032.40 0.7129
1032.50 0.7128
1032.60 0.7127
1032.70 0.7126
1032.80 0.7124
1032.90 0.7123
1033.00 0.7122
1033.10 0.7121
1033.20 0.712
1033.30 0.7119
1033.40 0.7117
1033.50 0.7116
1033.60 0.7115
1033.70 0.7114
1033.80 0.7113
1033.90 0.7112
1034.00 0.7111
1034.10 0.7109
1034.20 0.7108
1034.30 0.7107
1034.40 0.7106
1034.50 0.7105
1034.60 0.7104
1034.70 0.7103
1034.80 0.7101
1034.90 0.71
1035.00 0.7099
1035.10 0.7098
1035.20 0.7097
1035.30 0.7096
1035.40 0.7095
1035.50 0.7093
1035.60 0.7092
1035.70 0.7091
1035.80 0.709
1035.90 0.7089
1036.00 0.7088
1036.10 0.7086
1036.20 0.7085
1036.30 0.7084
1036.40 0.7083
1036.50 0.7082
1036.60 0.7081
1036.70 0.708
1036.80 0.7078
1036.90 0.7077
1037.00 0.7076
1037.10 0.7075
1037.20 0.7074
1037.30 0.7073
1037.40 0.7072
1037.50 0.707
1037.60 0.7069
1037.70 0.7068
1037.80 0.7067
1037.90 0.7066
1038.00 0.7065
1038.10 0.7064
1038.20 0.7062
1038.30 0.7061
1038.40 0.706
1038.50 0.7059
1038.60 0.7058
1038.70 0.7057
1038.80 0.7056
1038.90 0.7054
1039.00 0.7053
1039.10 0.7052
1039.20 0.7051
1039.30 0.705
1039.40 0.7049
1039.50 0.7048
1039.60 0.7046
1039.70 0.7045
1039.80 0.7044
1039.90 0.7043
1040.00 0.7042
1040.10 0.7041
1040.20 0.704
1040.30 0.7038
1040.40 0.7037
1040.50 0.7036
1040.60 0.7035
1040.70 0.7034
1040.80 0.7033
1040.90 0.7032
1041.00 0.703
1041.10 0.7029
1041.20 0.7028
1041.30 0.7027
1041.40 0.7026
1041.50 0.7025
1041.60 0.7024
1041.70 0.7022
1041.80 0.7021
1041.90 0.702
1042.00 0.7019
1042.10 0.7018
1042.20 0.7017
1042.30 0.7016
1042.40 0.7014
1042.50 0.7013
1042.60 0.7012
1042.70 0.7011
1042.80 0.701
1042.90 0.7009
1043.00 0.7008
1043.10 0.7006
1043.20 0.7005
1043.30 0.7004
1043.40 0.7003
1043.50 0.7002
1043.60 0.7001
1043.70 0.7
1043.80 0.6998
1043.90 0.6997
1044.00 0.6996
1044.10 0.6995
1044.20 0.6994
1044.30 0.6993
1044.40 0.6992
1044.50 0.699
1044.60 0.6989
1044.70 0.6988
1044.80 0.6987
1044.90 0.6986
1045.00 0.6985
1045.10 0.6984
1045.20 0.6982
1045.30 0.6981
1045.40 0.698
1045.50 0.6979
1045.60 0.6978
1045.70 0.6977
1045.80 0.6976
1045.90 0.6975
1046.00 0.6973
1046.10 0.6972
1046.20 0.6971
1046.30 0.697
1046.40 0.6969
1046.50 0.6968
1046.60 0.6967
1046.70 0.6965
1046.80 0.6964
1046.90 0.6963
1047.00 0.6962
1047.10 0.6961
1047.20 0.696
1047.30 0.6959
1047.40 0.6958
1047.50 0.6956
1047.60 0.6955
1047.70 0.6954
1047.80 0.6953
1047.90 0.6952
1048.00 0.6951
1048.10 0.695
1048.20 0.6949
1048.30 0.6947
1048.40 0.6946
1048.50 0.6945
1048.60 0.6944
1048.70 0.6943
1048.80 0.6942
1048.90 0.6941
1049.00 0.6939
1049.10 0.6938
1049.20 0.6937
1049.30 0.6936
1049.40 0.6935
1049.50 0.6934
1049.60 0.6933
1049.70 0.6932
1049.80 0.693
1049.90 0.6929
1050.00 0.6928
1050.10 0.6927
1050.20 0.6926
1050.30 0.6925
1050.40 0.6924
1050.50 0.6923
1050.60 0.6921
1050.70 0.692
1050.80 0.6919
1050.90 0.6918
1051.00 0.6917
1051.10 0.6916
1051.20 0.6915
1051.30 0.6914
1051.40 0.6912
1051.50 0.6911
1051.60 0.691
1051.70 0.6909
1051.80 0.6908
1051.90 0.6907
1052.00 0.6906
1052.10 0.6905
1052.20 0.6904
1052.30 0.6902
1052.40 0.6901
1052.50 0.69
1052.60 0.6899
1052.70 0.6898
1052.80 0.6897
1052.90 0.6896
1053.00 0.6894
1053.10 0.6893
1053.20 0.6892
1053.30 0.6891
1053.40 0.689
1053.50 0.6889
1053.60 0.6888
1053.70 0.6887
1053.80 0.6886
1053.90 0.6884
1054.00 0.6883
1054.10 0.6882
1054.20 0.6881
1054.30 0.688
1054.40 0.6879
1054.50 0.6878
1054.60 0.6877
1054.70 0.6875
1054.80 0.6874
1054.90 0.6873
1055.00 0.6872
1055.10 0.6871
1055.20 0.687
1055.30 0.6869
1055.40 0.6868
1055.50 0.6866
1055.60 0.6865
1055.70 0.6864
1055.80 0.6863
1055.90 0.6862
1056.00 0.6861
1056.10 0.686
1056.20 0.6859
1056.30 0.6858
1056.40 0.6856
1056.50 0.6855
1056.60 0.6854
1056.70 0.6853
1056.80 0.6852
1056.90 0.6851
1057.00 0.685
1057.10 0.6849
1057.20 0.6847
1057.30 0.6846
1057.40 0.6845
1057.50 0.6844
1057.60 0.6843
1057.70 0.6842
1057.80 0.6841
1057.90 0.684
1058.00 0.6839
1058.10 0.6837
1058.20 0.6836
1058.30 0.6835
1058.40 0.6834
1058.50 0.6833
1058.60 0.6832
1058.70 0.6831
1058.80 0.683
1058.90 0.6829
1059.00 0.6827
1059.10 0.6826
1059.20 0.6825
1059.30 0.6824
1059.40 0.6823
1059.50 0.6822
1059.60 0.6821
1059.70 0.682
1059.80 0.6819
1059.90 0.6817
1060.00 0.6816
1060.10 0.6815
1060.20 0.6814
1060.30 0.6813
1060.40 0.6812
1060.50 0.6811
1060.60 0.681
1060.70 0.6809
1060.80 0.6807
1060.90 0.6806
1061.00 0.6805
1061.10 0.6804
1061.20 0.6803
1061.30 0.6802
1061.40 0.6801
1061.50 0.68
1061.60 0.6799
1061.70 0.6798
1061.80 0.6796
1061.90 0.6795
1062.00 0.6794
1062.10 0.6793
1062.20 0.6792
1062.30 0.6791
1062.40 0.679
1062.50 0.6789
1062.60 0.6788
1062.70 0.6786
1062.80 0.6785
1062.90 0.6784
1063.00 0.6783
1063.10 0.6782
1063.20 0.6781
1063.30 0.678
1063.40 0.6779
1063.50 0.6778
1063.60 0.6776
1063.70 0.6775
1063.80 0.6774
1063.90 0.6773
1064.00 0.6772
1064.10 0.6771
1064.20 0.677
1064.30 0.6769
1064.40 0.6768
1064.50 0.6767
1064.60 0.6765
1064.70 0.6764
1064.80 0.6763
1064.90 0.6762
1065.00 0.6761
1065.10 0.676
1065.20 0.6759
1065.30 0.6758
1065.40 0.6757
1065.50 0.6756
1065.60 0.6754
1065.70 0.6753
1065.80 0.6752
1065.90 0.6751
1066.00 0.675
1066.10 0.6749
1066.20 0.6748
1066.30 0.6747
1066.40 0.6746
1066.50 0.6745
1066.60 0.6743
1066.70 0.6742
1066.80 0.6741
1066.90 0.674
1067.00 0.6739
1067.10 0.6738
1067.20 0.6737
1067.30 0.6736
1067.40 0.6735
1067.50 0.6734
1067.60 0.6732
1067.70 0.6731
1067.80 0.673
1067.90 0.6729
1068.00 0.6728
1068.10 0.6727
1068.20 0.6726
1068.30 0.6725
1068.40 0.6724
1068.50 0.6722
1068.60 0.6721
1068.70 0.672
1068.80 0.6719
1068.90 0.6718
1069.00 0.6717
1069.10 0.6716
1069.20 0.6715
1069.30 0.6714
1069.40 0.6713
1069.50 0.6712
1069.60 0.671
1069.70 0.6709
1069.80 0.6708
1069.90 0.6707
1070.00 0.6706
1070.10 0.6705
1070.20 0.6704
1070.30 0.6703
1070.40 0.6702
1070.50 0.6701
1070.60 0.6699
1070.70 0.6698
1070.80 0.6697
1070.90 0.6696
1071.00 0.6695
1071.10 0.6694
1071.20 0.6693
1071.30 0.6692
1071.40 0.6691
1071.50 0.669
1071.60 0.6689
1071.70 0.6687
1071.80 0.6686
1071.90 0.6685
1072.00 0.6684
1072.10 0.6683
1072.20 0.6682
1072.30 0.6681
1072.40 0.668
1072.50 0.6679
1072.60 0.6678
1072.70 0.6677
1072.80 0.6676
1072.90 0.6674
1073.00 0.6673
1073.10 0.6672
1073.20 0.6671
1073.30 0.667
1073.40 0.6669
1073.50 0.6668
1073.60 0.6667
1073.70 0.6666
1073.80 0.6665
1073.90 0.6664
1074.00 0.6662
1074.10 0.6661
1074.20 0.666
1074.30 0.6659
1074.40 0.6658
1074.50 0.6657
1074.60 0.6656
1074.70 0.6655
1074.80 0.6654
1074.90 0.6653
1075.00 0.6652
1075.10 0.665
1075.20 0.6649
1075.30 0.6648
1075.40 0.6647
1075.50 0.6646
1075.60 0.6645
1075.70 0.6644
1075.80 0.6643
1075.90 0.6642
1076.00 0.6641
1076.10 0.664
1076.20 0.6639
1076.30 0.6637
1076.40 0.6636
1076.50 0.6635
1076.60 0.6634
1076.70 0.6633
1076.80 0.6632
1076.90 0.6631
1077.00 0.663
1077.10 0.6629
1077.20 0.6628
1077.30 0.6627
1077.40 0.6626
1077.50 0.6625
1077.60 0.6623
1077.70 0.6622
1077.80 0.6621
1077.90 0.662
1078.00 0.6619
1078.10 0.6618
1078.20 0.6617
1078.30 0.6616
1078.40 0.6615
1078.50 0.6614
1078.60 0.6613
1078.70 0.6611
1078.80 0.661
1078.90 0.6609
1079.00 0.6608
1079.10 0.6607
1079.20 0.6606
1079.30 0.6605
1079.40 0.6604
1079.50 0.6603
1079.60 0.6602
1079.70 0.6601
1079.80 0.66
1079.90 0.6598
1080.00 0.6597
1080.10 0.6596
1080.20 0.6595
1080.30 0.6594
1080.40 0.6593
1080.50 0.6592
1080.60 0.6591
1080.70 0.659
1080.80 0.6589
1080.90 0.6588
1081.00 0.6587
1081.10 0.6586
1081.20 0.6585
1081.30 0.6583
1081.40 0.6582
1081.50 0.6581
1081.60 0.658
1081.70 0.6579
1081.80 0.6578
1081.90 0.6577
1082.00 0.6576
1082.10 0.6575
1082.20 0.6574
1082.30 0.6573
1082.40 0.6572
1082.50 0.6571
1082.60 0.657
1082.70 0.6568
1082.80 0.6567
1082.90 0.6566
1083.00 0.6565
1083.10 0.6564
1083.20 0.6563
1083.30 0.6562
1083.40 0.6561
1083.50 0.656
1083.60 0.6559
1083.70 0.6558
1083.80 0.6557
1083.90 0.6556
1084.00 0.6555
1084.10 0.6553
1084.20 0.6552
1084.30 0.6551
1084.40 0.655
1084.50 0.6549
1084.60 0.6548
1084.70 0.6547
1084.80 0.6546
1084.90 0.6545
1085.00 0.6544
1085.10 0.6543
1085.20 0.6542
1085.30 0.6541
1085.40 0.6539
1085.50 0.6538
1085.60 0.6537
1085.70 0.6536
1085.80 0.6535
1085.90 0.6534
1086.00 0.6533
1086.10 0.6532
1086.20 0.6531
1086.30 0.653
1086.40 0.6529
1086.50 0.6528
1086.60 0.6527
1086.70 0.6526
1086.80 0.6525
1086.90 0.6523
1087.00 0.6522
1087.10 0.6521
1087.20 0.652
1087.30 0.6519
1087.40 0.6518
1087.50 0.6517
1087.60 0.6516
1087.70 0.6515
1087.80 0.6514
1087.90 0.6513
1088.00 0.6512
1088.10 0.6511
1088.20 0.651
1088.30 0.6508
1088.40 0.6507
1088.50 0.6506
1088.60 0.6505
1088.70 0.6504
1088.80 0.6503
1088.90 0.6502
1089.00 0.6501
1089.10 0.65
1089.20 0.6499
1089.30 0.6498
1089.40 0.6497
1089.50 0.6496
1089.60 0.6495
1089.70 0.6494
1089.80 0.6493
1089.90 0.6491
1090.00 0.649
1090.10 0.6489
1090.20 0.6488
1090.30 0.6487
1090.40 0.6486
1090.50 0.6485
1090.60 0.6484
1090.70 0.6483
1090.80 0.6482
1090.90 0.6481
1091.00 0.648
1091.10 0.6479
1091.20 0.6478
1091.30 0.6477
1091.40 0.6476
1091.50 0.6475
1091.60 0.6473
1091.70 0.6472
1091.80 0.6471
1091.90 0.647
1092.00 0.6469
1092.10 0.6468
1092.20 0.6467
1092.30 0.6466
1092.40 0.6465
1092.50 0.6464
1092.60 0.6463
1092.70 0.6462
1092.80 0.6461
1092.90 0.646
1093.00 0.6459
1093.10 0.6457
1093.20 0.6456
1093.30 0.6455
1093.40 0.6454
1093.50 0.6452
1093.60 0.6452
1093.70 0.6451
1093.80 0.645
1093.90 0.6449
1094.00 0.6448
1094.10 0.6447
1094.20 0.6446
1094.30 0.6445
1094.40 0.6444
1094.50 0.6443
1094.60 0.6442
1094.70 0.6441
1094.80 0.644
1094.90 0.6439
1095.00 0.6438
1095.10 0.6436
1095.20 0.6435
1095.30 0.6434
1095.40 0.6433
1095.50 0.6432
1095.60 0.6431
1095.70 0.643
1095.80 0.6429
1095.90 0.6428
1096.00 0.6427
1096.10 0.6426
1096.20 0.6425
1096.30 0.6424
1096.40 0.6423
1096.50 0.6422
1096.60 0.6421
1096.70 0.642
1096.80 0.6419
1096.90 0.6417
1097.00 0.6416
1097.10 0.6415
1097.20 0.6414
1097.30 0.6413
1097.40 0.6412
1097.50 0.6411
1097.60 0.641
1097.70 0.6409
1097.80 0.6408
1097.90 0.6407
1098.00 0.6406
1098.10 0.6405
1098.20 0.6404
1098.30 0.6403
1098.40 0.6402
1098.50 0.6401
1098.60 0.64
1098.70 0.6399
1098.80 0.6398
1098.90 0.6397
1099.00 0.6396
1099.10 0.6394
1099.20 0.6393
1099.30 0.6392
1099.40 0.6391
1099.50 0.639
1099.60 0.6389
1099.70 0.6388
1099.80 0.6387
1099.90 0.6386
1100.00 0.6385
1100.10 0.6384
1100.20 0.6383
1100.30 0.6382
1100.40 0.6381
1100.50 0.638
1100.60 0.6379
1100.70 0.6378
1100.80 0.6377
1100.90 0.6376
1101.00 0.6375
1101.10 0.6373
1101.20 0.6372
1101.30 0.6371
1101.40 0.637
1101.50 0.6369
1101.60 0.6368
1101.70 0.6367
1101.80 0.6366
1101.90 0.6365
1102.00 0.6364
1102.10 0.6363
1102.20 0.6362
1102.30 0.6361
1102.40 0.636
1102.50 0.6359
1102.60 0.6358
1102.70 0.6357
1102.80 0.6356
1102.90 0.6355
1103.00 0.6354
1103.10 0.6353
1103.20 0.6352
1103.30 0.6351
1103.40 0.6349
1103.50 0.6348
1103.60 0.6347
1103.70 0.6346
1103.80 0.6345
1103.90 0.6344
1104.00 0.6343
1104.10 0.6342
1104.20 0.6341
1104.30 0.634
1104.40 0.6339
1104.50 0.6338
1104.60 0.6337
1104.70 0.6336
1104.80 0.6335
1104.90 0.6334
1105.00 0.6333
1105.10 0.6332
1105.20 0.6331
1105.30 0.633
1105.40 0.6329
1105.50 0.6328
1105.60 0.6327
1105.70 0.6326
1105.80 0.6325
1105.90 0.6324
1106.00 0.6323
1106.10 0.6321
1106.20 0.632
1106.30 0.6319
1106.40 0.6318
1106.50 0.6317
1106.60 0.6316
1106.70 0.6315
1106.80 0.6314
1106.90 0.6313
1107.00 0.6312
1107.10 0.6311
1107.20 0.631
1107.30 0.6309
1107.40 0.6308
1107.50 0.6307
1107.60 0.6306
1107.70 0.6305
1107.80 0.6304
1107.90 0.6303
1108.00 0.6302
1108.10 0.6301
1108.20 0.63
1108.30 0.6299
1108.40 0.6298
1108.50 0.6297
1108.60 0.6296
1108.70 0.6295
1108.80 0.6294
1108.90 0.6292
1109.00 0.6291
1109.10 0.629
1109.20 0.6289
1109.30 0.6288
1109.40 0.6287
1109.50 0.6286
1109.60 0.6285
1109.70 0.6284
1109.80 0.6283
1109.90 0.6282
1110.00 0.6281
1110.10 0.628
1110.20 0.6279
1110.30 0.6278
1110.40 0.6277
1110.50 0.6276
1110.60 0.6275
1110.70 0.6274
1110.80 0.6273
1110.90 0.6272
1111.00 0.6271
1111.10 0.627
1111.20 0.6269
1111.30 0.6268
1111.40 0.6267
1111.50 0.6266
1111.60 0.6265
1111.70 0.6264
1111.80 0.6263
1111.90 0.6262
1112.00 0.6261
1112.10 0.626
1112.20 0.6258
1112.30 0.6257
1112.40 0.6256
1112.50 0.6255
1112.60 0.6254
1112.70 0.6253
1112.80 0.6252
1112.90 0.6251
1113.00 0.625
1113.10 0.6249
1113.20 0.6248
1113.30 0.6247
1113.40 0.6246
1113.50 0.6245
1113.60 0.6244
1113.70 0.6243
1113.80 0.6242
1113.90 0.6241
1114.00 0.624
1114.10 0.6239
1114.20 0.6238
1114.30 0.6237
1114.40 0.6236
1114.50 0.6235
1114.60 0.6234
1114.70 0.6233
1114.80 0.6232
1114.90 0.6231
1115.00 0.623
1115.10 0.6229
1115.20 0.6228
1115.30 0.6227
1115.40 0.6226
1115.50 0.6225
1115.60 0.6224
1115.70 0.6223
1115.80 0.6222
1115.90 0.6221
1116.00 0.622
1116.10 0.6219
1116.20 0.6218
1116.30 0.6217
1116.40 0.6216
1116.50 0.6215
1116.60 0.6213
1116.70 0.6212
1116.80 0.6211
1116.90 0.621
1117.00 0.6209
1117.10 0.6208
1117.20 0.6207
1117.30 0.6206
1117.40 0.6205
1117.50 0.6204
1117.60 0.6203
1117.70 0.6202
1117.80 0.6201
1117.90 0.62
1118.00 0.6199
1118.10 0.6198
1118.20 0.6197
1118.30 0.6196
1118.40 0.6195
1118.50 0.6194
1118.60 0.6193
1118.70 0.6192
1118.80 0.6191
1118.90 0.619
1119.00 0.6189
1119.10 0.6188
1119.20 0.6187
1119.30 0.6186
1119.40 0.6185
1119.50 0.6184
1119.60 0.6183
1119.70 0.6182
1119.80 0.6181
1119.90 0.618
1120.00 0.6179
1120.10 0.6178
1120.20 0.6177
1120.30 0.6176
1120.40 0.6175
1120.50 0.6174
1120.60 0.6173
1120.70 0.6172
1120.80 0.6171
1120.90 0.617
1121.00 0.6169
1121.10 0.6168
1121.20 0.6167
1121.30 0.6166
1121.40 0.6165
1121.50 0.6164
1121.60 0.6163
1121.70 0.6162
1121.80 0.6161
1121.90 0.616
1122.00 0.6159
1122.10 0.6158
1122.20 0.6157
1122.30 0.6156
1122.40 0.6155
1122.50 0.6154
1122.60 0.6153
1122.70 0.6152
1122.80 0.6151
1122.90 0.615
1123.00 0.6149
1123.10 0.6148
1123.20 0.6147
1123.30 0.6146
1123.40 0.6145
1123.50 0.6144
1123.60 0.6142
1123.70 0.6141
1123.80 0.614
1123.90 0.6139
1124.00 0.6138
1124.10 0.6137
1124.20 0.6136
1124.30 0.6135
1124.40 0.6134
1124.50 0.6133
1124.60 0.6132
1124.70 0.6131
1124.80 0.613
1124.90 0.6129
1125.00 0.6128
1125.10 0.6127
1125.20 0.6126
1125.30 0.6125
1125.40 0.6124
1125.50 0.6123
1125.60 0.6122
1125.70 0.6121
1125.80 0.612
1125.90 0.6119
1126.00 0.6118
1126.10 0.6117
1126.20 0.6116
1126.30 0.6115
1126.40 0.6114
1126.50 0.6113
1126.60 0.6112
1126.70 0.6111
1126.80 0.611
1126.90 0.6109
1127.00 0.6108
1127.10 0.6107
1127.20 0.6106
1127.30 0.6105
1127.40 0.6104
1127.50 0.6103
1127.60 0.6102
1127.70 0.6101
1127.80 0.61
1127.90 0.6099
1128.00 0.6098
1128.10 0.6097
1128.20 0.6096
1128.30 0.6095
1128.40 0.6094
1128.50 0.6093
1128.60 0.6092
1128.70 0.6091
1128.80 0.609
1128.90 0.6089
1129.00 0.6088
1129.10 0.6087
1129.20 0.6086
1129.30 0.6085
1129.40 0.6084
1129.50 0.6083
1129.60 0.6082
1129.70 0.6081
1129.80 0.608
1129.90 0.6079
1130.00 0.6078
1130.10 0.6077
1130.20 0.6076
1130.30 0.6075
1130.40 0.6074
1130.50 0.6073
1130.60 0.6072
1130.70 0.6071
1130.80 0.607
1130.90 0.6069
1131.00 0.6068
1131.10 0.6067
1131.20 0.6066
1131.30 0.6065
1131.40 0.6064
1131.50 0.6063
1131.60 0.6062
1131.70 0.6061
1131.80 0.606
1131.90 0.6059
1132.00 0.6058
1132.10 0.6057
1132.20 0.6056
1132.30 0.6055
1132.40 0.6054
1132.50 0.6053
1132.60 0.6052
1132.70 0.6051
1132.80 0.605
1132.90 0.6049
1133.00 0.6048
1133.10 0.6047
1133.20 0.6046
1133.30 0.6045
1133.40 0.6044
1133.50 0.6043
1133.60 0.6042
1133.70 0.6041
1133.80 0.604
1133.90 0.6039
1134.00 0.6038
1134.10 0.6037
1134.20 0.6036
1134.30 0.6035
1134.40 0.6034
1134.50 0.6033
1134.60 0.6032
1134.70 0.6031
1134.80 0.6031
1134.90 0.603
1135.00 0.6029
1135.10 0.6028
1135.20 0.6027
1135.30 0.6026
1135.40 0.6025
1135.50 0.6024
1135.60 0.6023
1135.70 0.6022
1135.80 0.6021
1135.90 0.602
1136.00 0.6019
1136.10 0.6018
1136.20 0.6017
1136.30 0.6016
1136.40 0.6015
1136.50 0.6014
1136.60 0.6013
1136.70 0.6012
1136.80 0.6011
1136.90 0.601
1137.00 0.6009
1137.10 0.6008
1137.20 0.6007
1137.30 0.6006
1137.40 0.6005
1137.50 0.6004
1137.60 0.6003
1137.70 0.6002
1137.80 0.6001
1137.90 0.6
1138.00 0.5999
1138.10 0.5998
1138.20 0.5997
1138.30 0.5996
1138.40 0.5995
1138.50 0.5994
1138.60 0.5993
1138.70 0.5992
1138.80 0.5991
1138.90 0.599
1139.00 0.5989
1139.10 0.5988
1139.20 0.5987
1139.30 0.5986
1139.40 0.5985
1139.50 0.5984
1139.60 0.5983
1139.70 0.5982
1139.80 0.5981
1139.90 0.598
1140.00 0.5979
1140.10 0.5978
1140.20 0.5977
1140.30 0.5976
1140.40 0.5975
1140.50 0.5974
1140.60 0.5973
1140.70 0.5972
1140.80 0.5971
1140.90 0.597
1141.00 0.5969
1141.10 0.5968
1141.20 0.5967
1141.30 0.5966
1141.40 0.5965
1141.50 0.5964
1141.60 0.5963
1141.70 0.5962
1141.80 0.5961
1141.90 0.596
1142.00 0.596
1142.10 0.5959
1142.20 0.5958
1142.30 0.5957
1142.40 0.5956
1142.50 0.5955
1142.60 0.5954
1142.70 0.5953
1142.80 0.5952
1142.90 0.5951
1143.00 0.595
1143.10 0.5949
1143.20 0.5948
1143.30 0.5947
1143.40 0.5946
1143.50 0.5945
1143.60 0.5944
1143.70 0.5943
1143.80 0.5942
1143.90 0.5941
1144.00 0.594
1144.10 0.5939
1144.20 0.5938
1144.30 0.5937
1144.40 0.5936
1144.50 0.5935
1144.60 0.5934
1144.70 0.5933
1144.80 0.5932
1144.90 0.5931
1145.00 0.593
1145.10 0.5929
1145.20 0.5928
1145.30 0.5927
1145.40 0.5926
1145.50 0.5925
1145.60 0.5924
1145.70 0.5923
1145.80 0.5922
1145.90 0.5921
1146.00 0.592
1146.10 0.5919
1146.20 0.5918
1146.30 0.5918
1146.40 0.5917
1146.50 0.5916
1146.60 0.5915
1146.70 0.5914
1146.80 0.5913
1146.90 0.5912
1147.00 0.5911
1147.10 0.591
1147.20 0.5909
1147.30 0.5908
1147.40 0.5907
1147.50 0.5906
1147.60 0.5905
1147.70 0.5904
1147.80 0.5903
1147.90 0.5902
1148.00 0.5901
1148.10 0.59
1148.20 0.5899
1148.30 0.5898
1148.40 0.5897
1148.50 0.5896
1148.60 0.5895
1148.70 0.5894
1148.80 0.5893
1148.90 0.5892
1149.00 0.5891
1149.10 0.589
1149.20 0.5889
1149.30 0.5888
1149.40 0.5887
1149.50 0.5886
1149.60 0.5886
1149.70 0.5885
1149.80 0.5884
1149.90 0.5883
1150.00 0.5882
1150.10 0.5881
1150.20 0.588
1150.30 0.5879
1150.40 0.5878
1150.50 0.5877
1150.60 0.5876
1150.70 0.5875
1150.80 0.5874
1150.90 0.5873
1151.00 0.5872
1151.10 0.5871
1151.20 0.587
1151.30 0.5869
1151.40 0.5868
1151.50 0.5867
1151.60 0.5866
1151.70 0.5865
1151.80 0.5864
1151.90 0.5863
1152.00 0.5862
1152.10 0.5861
1152.20 0.586
1152.30 0.5859
1152.40 0.5859
1152.50 0.5858
1152.60 0.5857
1152.70 0.5856
1152.80 0.5855
1152.90 0.5854
1153.00 0.5853
1153.10 0.5852
1153.20 0.5851
1153.30 0.585
1153.40 0.5849
1153.50 0.5848
1153.60 0.5847
1153.70 0.5846
1153.80 0.5845
1153.90 0.5844
1154.00 0.5843
1154.10 0.5842
1154.20 0.5841
1154.30 0.584
1154.40 0.5839
1154.50 0.5838
1154.60 0.5837
1154.70 0.5836
1154.80 0.5835
1154.90 0.5834
1155.00 0.5833
1155.10 0.5832
1155.20 0.5832
1155.30 0.5831
1155.40 0.583
1155.50 0.5829
1155.60 0.5828
1155.70 0.5827
1155.80 0.5826
1155.90 0.5825
1156.00 0.5824
1156.10 0.5823
1156.20 0.5822
1156.30 0.5821
1156.40 0.582
1156.50 0.5819
1156.60 0.5818
1156.70 0.5817
1156.80 0.5816
1156.90 0.5815
1157.00 0.5814
1157.10 0.5813
1157.20 0.5812
1157.30 0.5811
1157.40 0.581
1157.50 0.5809
1157.60 0.5809
1157.70 0.5808
1157.80 0.5807
1157.90 0.5806
1158.00 0.5805
1158.10 0.5804
1158.20 0.5803
1158.30 0.5802
1158.40 0.5801
1158.50 0.58
1158.60 0.5799
1158.70 0.5798
1158.80 0.5797
1158.90 0.5796
1159.00 0.5795
1159.10 0.5794
1159.20 0.5793
1159.30 0.5792
1159.40 0.5791
1159.50 0.579
1159.60 0.5789
1159.70 0.5788
1159.80 0.5788
1159.90 0.5787
1160.00 0.5786
1160.10 0.5785
1160.20 0.5784
1160.30 0.5783
1160.40 0.5782
1160.50 0.5781
1160.60 0.578
1160.70 0.5779
1160.80 0.5778
1160.90 0.5777
1161.00 0.5776
1161.10 0.5775
1161.20 0.5774
1161.30 0.5773
1161.40 0.5772
1161.50 0.5771
1161.60 0.577
1161.70 0.5769
1161.80 0.5769
1161.90 0.5768
1162.00 0.5767
1162.10 0.5766
1162.20 0.5765
1162.30 0.5764
1162.40 0.5763
1162.50 0.5762
1162.60 0.5761
1162.70 0.576
1162.80 0.5759
1162.90 0.5758
1163.00 0.5757
1163.10 0.5756
1163.20 0.5755
1163.30 0.5754
1163.40 0.5753
1163.50 0.5752
1163.60 0.5751
1163.70 0.5751
1163.80 0.575
1163.90 0.5749
1164.00 0.5748
1164.10 0.5747
1164.20 0.5746
1164.30 0.5745
1164.40 0.5744
1164.50 0.5743
1164.60 0.5742
1164.70 0.5741
1164.80 0.574
1164.90 0.5739
1165.00 0.5738
1165.10 0.5737
1165.20 0.5736
1165.30 0.5735
1165.40 0.5734
1165.50 0.5734
1165.60 0.5733
1165.70 0.5732
1165.80 0.5731
1165.90 0.573
1166.00 0.5729
1166.10 0.5728
1166.20 0.5727
1166.30 0.5726
1166.40 0.5725
1166.50 0.5724
1166.60 0.5723
1166.70 0.5722
1166.80 0.5721
1166.90 0.572
1167.00 0.5719
1167.10 0.5719
1167.20 0.5718
1167.30 0.5717
1167.40 0.5716
1167.50 0.5715
1167.60 0.5714
1167.70 0.5713
1167.80 0.5712
1167.90 0.5711
1168.00 0.571
1168.10 0.5709
1168.20 0.5708
1168.30 0.5707
1168.40 0.5706
1168.50 0.5705
1168.60 0.5704
1168.70 0.5703
1168.80 0.5702
1168.90 0.5702
1169.00 0.5701
1169.10 0.57
1169.20 0.5699
1169.30 0.5698
1169.40 0.5697
1169.50 0.5696
1169.60 0.5695
1169.70 0.5694
1169.80 0.5693
1169.90 0.5692
1170.00 0.5691
1170.10 0.569
1170.20 0.5689
1170.30 0.5688
1170.40 0.5687
1170.50 0.5687
1170.60 0.5686
1170.70 0.5685
1170.80 0.5684
1170.90 0.5683
1171.00 0.5682
1171.10 0.5681
1171.20 0.568
1171.30 0.5679
1171.40 0.5678
1171.50 0.5677
1171.60 0.5676
1171.70 0.5675
1171.80 0.5674
1171.90 0.5673
1172.00 0.5672
1172.10 0.5672
1172.20 0.5671
1172.30 0.567
1172.40 0.5669
1172.50 0.5668
1172.60 0.5667
1172.70 0.5666
1172.80 0.5665
1172.90 0.5664
1173.00 0.5663
1173.10 0.5662
1173.20 0.5661
1173.30 0.566
1173.40 0.5659
1173.50 0.5658
1173.60 0.5658
1173.70 0.5657
1173.80 0.5656
1173.90 0.5655
1174.00 0.5654
1174.10 0.5653
1174.20 0.5652
1174.30 0.5651
1174.40 0.565
1174.50 0.5649
1174.60 0.5648
1174.70 0.5647
1174.80 0.5646
1174.90 0.5645
1175.00 0.5645
1175.10 0.5644
1175.20 0.5643
1175.30 0.5642
1175.40 0.5641
1175.50 0.564
1175.60 0.5639
1175.70 0.5638
1175.80 0.5637
1175.90 0.5636
1176.00 0.5635
1176.10 0.5634
1176.20 0.5633
1176.30 0.5632
1176.40 0.5632
1176.50 0.5631
1176.60 0.563
1176.70 0.5629
1176.80 0.5628
1176.90 0.5627
1177.00 0.5626
1177.10 0.5625
1177.20 0.5624
1177.30 0.5623
1177.40 0.5622
1177.50 0.5621
1177.60 0.562
1177.70 0.5619
1177.80 0.5619
1177.90 0.5618
1178.00 0.5617
1178.10 0.5616
1178.20 0.5615
1178.30 0.5614
1178.40 0.5613
1178.50 0.5612
1178.60 0.5611
1178.70 0.561
1178.80 0.5609
1178.90 0.5608
1179.00 0.5607
1179.10 0.5607
1179.20 0.5606
1179.30 0.5605
1179.40 0.5604
1179.50 0.5603
1179.60 0.5602
1179.70 0.5601
1179.80 0.56
1179.90 0.5599
1180.00 0.5598
1180.10 0.5597
1180.20 0.5596
1180.30 0.5596
1180.40 0.5595
1180.50 0.5594
1180.60 0.5593
1180.70 0.5592
1180.80 0.5591
1180.90 0.559
1181.00 0.5589
1181.10 0.5588
1181.20 0.5587
1181.30 0.5586
1181.40 0.5585
1181.50 0.5584
1181.60 0.5584
1181.70 0.5583
1181.80 0.5582
1181.90 0.5581
1182.00 0.558
1182.10 0.5579
1182.20 0.5578
1182.30 0.5577
1182.40 0.5576
1182.50 0.5575
1182.60 0.5574
1182.70 0.5573
1182.80 0.5573
1182.90 0.5572
1183.00 0.5571
1183.10 0.557
1183.20 0.5569
1183.30 0.5568
1183.40 0.5567
1183.50 0.5566
1183.60 0.5565
1183.70 0.5564
1183.80 0.5563
1183.90 0.5562
1184.00 0.5562
1184.10 0.5561
1184.20 0.556
1184.30 0.5559
1184.40 0.5558
1184.50 0.5557
1184.60 0.5556
1184.70 0.5555
1184.80 0.5554
1184.90 0.5553
1185.00 0.5552
1185.10 0.5551
1185.20 0.5551
1185.30 0.555
1185.40 0.5549
1185.50 0.5548
1185.60 0.5547
1185.70 0.5546
1185.80 0.5545
1185.90 0.5544
1186.00 0.5543
1186.10 0.5542
1186.20 0.5541
1186.30 0.5541
1186.40 0.554
1186.50 0.5539
1186.60 0.5538
1186.70 0.5537
1186.80 0.5536
1186.90 0.5535
1187.00 0.5534
1187.10 0.5533
1187.20 0.5532
1187.30 0.5531
1187.40 0.5531
1187.50 0.553
1187.60 0.5529
1187.70 0.5528
1187.80 0.5527
1187.90 0.5526
1188.00 0.5525
1188.10 0.5524
1188.20 0.5523
1188.30 0.5522
1188.40 0.5521
1188.50 0.552
1188.60 0.552
1188.70 0.5519
1188.80 0.5518
1188.90 0.5517
1189.00 0.5516
1189.10 0.5515
1189.20 0.5514
1189.30 0.5513
1189.40 0.5512
1189.50 0.5511
1189.60 0.551
1189.70 0.551
1189.80 0.5509
1189.90 0.5508
1190.00 0.5507
1190.10 0.5506
1190.20 0.5505
1190.30 0.5504
1190.40 0.5503
1190.50 0.5502
1190.60 0.5501
1190.70 0.55
1190.80 0.55
1190.90 0.5499
1191.00 0.5498
1191.10 0.5497
1191.20 0.5496
1191.30 0.5495
1191.40 0.5494
1191.50 0.5493
1191.60 0.5492
1191.70 0.5491
1191.80 0.5491
1191.90 0.549
1192.00 0.5489
1192.10 0.5488
1192.20 0.5487
1192.30 0.5486
1192.40 0.5485
1192.50 0.5484
1192.60 0.5483
1192.70 0.5482
1192.80 0.5481
1192.90 0.5481
1193.00 0.548
1193.10 0.5479
1193.20 0.5478
1193.30 0.5477
1193.40 0.5476
1193.50 0.5475
1193.60 0.5474
1193.70 0.5473
1193.80 0.5472
1193.90 0.5472
1194.00 0.5471
1194.10 0.547
1194.20 0.5469
1194.30 0.5468
1194.40 0.5467
1194.50 0.5466
1194.60 0.5465
1194.70 0.5464
1194.80 0.5463
1194.90 0.5463
1195.00 0.5462
1195.10 0.5461
1195.20 0.546
1195.30 0.5459
1195.40 0.5458
1195.50 0.5457
1195.60 0.5456
1195.70 0.5455
1195.80 0.5454
1195.90 0.5454
1196.00 0.5453
1196.10 0.5452
1196.20 0.5451
1196.30 0.545
1196.40 0.5449
1196.50 0.5448
1196.60 0.5447
1196.70 0.5446
1196.80 0.5446
1196.90 0.5445
1197.00 0.5444
1197.10 0.5443
1197.20 0.5442
1197.30 0.5441
1197.40 0.544
1197.50 0.5439
1197.60 0.5438
1197.70 0.5437
1197.80 0.5437
1197.90 0.5436
1198.00 0.5435
1198.10 0.5434
1198.20 0.5433
1198.30 0.5432
1198.40 0.5431
1198.50 0.543
1198.60 0.5429
1198.70 0.5428
1198.80 0.5428
1198.90 0.5427
1199.00 0.5426
1199.10 0.5425
1199.20 0.5424
1199.30 0.5423
1199.40 0.5422
1199.50 0.5421
1199.60 0.542
1199.70 0.542
1199.80 0.5419
1199.90 0.5418
1200.00 0
