# Version 2.1 - nm, norm@500 to 1, cut digits, bergeron_2750_90.dat_2750
# Wavelength(nm)  Flambda(ergs/cm^s/s/nm)
300.00 0.1057
300.10 0.1059
300.20 0.1062
300.30 0.1064
300.40 0.1067
300.50 0.1069
300.60 0.1072
300.70 0.1074
300.80 0.1077
300.90 0.1079
301.00 0.1082
301.10 0.1084
301.20 0.1087
301.30 0.1089
301.40 0.1092
301.50 0.1094
301.60 0.1097
301.70 0.1099
301.80 0.1102
301.90 0.1104
302.00 0.1107
302.10 0.1109
302.20 0.1112
302.30 0.1115
302.40 0.1117
302.50 0.112
302.60 0.1122
302.70 0.1125
302.80 0.1128
302.90 0.113
303.00 0.1133
303.10 0.1135
303.20 0.1138
303.30 0.114
303.40 0.1143
303.50 0.1145
303.60 0.1148
303.70 0.1151
303.80 0.1153
303.90 0.1156
304.00 0.1158
304.10 0.1161
304.20 0.1164
304.30 0.1166
304.40 0.1169
304.50 0.1172
304.60 0.1174
304.70 0.1177
304.80 0.118
304.90 0.1182
305.00 0.1185
305.10 0.1187
305.20 0.119
305.30 0.1193
305.40 0.1195
305.50 0.1198
305.60 0.1201
305.70 0.1203
305.80 0.1206
305.90 0.1208
306.00 0.1211
306.10 0.1214
306.20 0.1217
306.30 0.1219
306.40 0.1222
306.50 0.1225
306.60 0.1227
306.70 0.123
306.80 0.1233
306.90 0.1236
307.00 0.1238
307.10 0.1241
307.20 0.1244
307.30 0.1246
307.40 0.1249
307.50 0.1252
307.60 0.1254
307.70 0.1257
307.80 0.126
307.90 0.1262
308.00 0.1265
308.10 0.1268
308.20 0.1271
308.30 0.1274
308.40 0.1276
308.50 0.1279
308.60 0.1282
308.70 0.1285
308.80 0.1288
308.90 0.129
309.00 0.1293
309.10 0.1296
309.20 0.1299
309.30 0.1301
309.40 0.1304
309.50 0.1307
309.60 0.131
309.70 0.1312
309.80 0.1315
309.90 0.1318
310.00 0.1321
310.10 0.1324
310.20 0.1326
310.30 0.1329
310.40 0.1332
310.50 0.1335
310.60 0.1338
310.70 0.1341
310.80 0.1344
310.90 0.1347
311.00 0.1349
311.10 0.1352
311.20 0.1355
311.30 0.1358
311.40 0.1361
311.50 0.1364
311.60 0.1366
311.70 0.1369
311.80 0.1372
311.90 0.1375
312.00 0.1378
312.10 0.1381
312.20 0.1383
312.30 0.1386
312.40 0.1389
312.50 0.1392
312.60 0.1395
312.70 0.1398
312.80 0.1401
312.90 0.1404
313.00 0.1407
313.10 0.141
313.20 0.1413
313.30 0.1416
313.40 0.1418
313.50 0.1421
313.60 0.1424
313.70 0.1427
313.80 0.143
313.90 0.1433
314.00 0.1436
314.10 0.1439
314.20 0.1442
314.30 0.1445
314.40 0.1448
314.50 0.1451
314.60 0.1454
314.70 0.1457
314.80 0.146
314.90 0.1463
315.00 0.1466
315.10 0.1469
315.20 0.1472
315.30 0.1475
315.40 0.1478
315.50 0.1481
315.60 0.1484
315.70 0.1487
315.80 0.149
315.90 0.1493
316.00 0.1496
316.10 0.1499
316.20 0.1502
316.30 0.1505
316.40 0.1508
316.50 0.1511
316.60 0.1514
316.70 0.1517
316.80 0.152
316.90 0.1523
317.00 0.1526
317.10 0.1529
317.20 0.1532
317.30 0.1535
317.40 0.1538
317.50 0.1541
317.60 0.1544
317.70 0.1547
317.80 0.155
317.90 0.1553
318.00 0.1557
318.10 0.156
318.20 0.1563
318.30 0.1566
318.40 0.1569
318.50 0.1572
318.60 0.1575
318.70 0.1578
318.80 0.1582
318.90 0.1585
319.00 0.1588
319.10 0.1591
319.20 0.1594
319.30 0.1597
319.40 0.16
319.50 0.1603
319.60 0.1606
319.70 0.1609
319.80 0.1613
319.90 0.1616
320.00 0.1619
320.10 0.1622
320.20 0.1625
320.30 0.1628
320.40 0.1632
320.50 0.1635
320.60 0.1638
320.70 0.1641
320.80 0.1644
320.90 0.1648
321.00 0.1651
321.10 0.1654
321.20 0.1657
321.30 0.166
321.40 0.1663
321.50 0.1667
321.60 0.167
321.70 0.1673
321.80 0.1676
321.90 0.1679
322.00 0.1682
322.10 0.1686
322.20 0.1689
322.30 0.1692
322.40 0.1695
322.50 0.1699
322.60 0.1702
322.70 0.1705
322.80 0.1709
322.90 0.1712
323.00 0.1715
323.10 0.1718
323.20 0.1721
323.30 0.1725
323.40 0.1728
323.50 0.1731
323.60 0.1734
323.70 0.1738
323.80 0.1741
323.90 0.1744
324.00 0.1747
324.10 0.1751
324.20 0.1754
324.30 0.1757
324.40 0.1761
324.50 0.1764
324.60 0.1767
324.70 0.1771
324.80 0.1774
324.90 0.1777
325.00 0.1781
325.10 0.1784
325.20 0.1787
325.30 0.1791
325.40 0.1794
325.50 0.1797
325.60 0.18
325.70 0.1804
325.80 0.1807
325.90 0.181
326.00 0.1814
326.10 0.1817
326.20 0.182
326.30 0.1824
326.40 0.1827
326.50 0.1831
326.60 0.1834
326.70 0.1837
326.80 0.1841
326.90 0.1844
327.00 0.1847
327.10 0.1851
327.20 0.1854
327.30 0.1858
327.40 0.1861
327.50 0.1864
327.60 0.1868
327.70 0.1871
327.80 0.1874
327.90 0.1878
328.00 0.1881
328.10 0.1885
328.20 0.1888
328.30 0.1891
328.40 0.1895
328.50 0.1898
328.60 0.1902
328.70 0.1905
328.80 0.1909
328.90 0.1912
329.00 0.1916
329.10 0.1919
329.20 0.1923
329.30 0.1926
329.40 0.1929
329.50 0.1933
329.60 0.1936
329.70 0.194
329.80 0.1943
329.90 0.1946
330.00 0.195
330.10 0.1953
330.20 0.1957
330.30 0.196
330.40 0.1964
330.50 0.1968
330.60 0.1971
330.70 0.1975
330.80 0.1978
330.90 0.1982
331.00 0.1985
331.10 0.1989
331.20 0.1992
331.30 0.1996
331.40 0.1999
331.50 0.2003
331.60 0.2006
331.70 0.201
331.80 0.2013
331.90 0.2016
332.00 0.202
332.10 0.2024
332.20 0.2027
332.30 0.2031
332.40 0.2034
332.50 0.2038
332.60 0.2041
332.70 0.2045
332.80 0.2049
332.90 0.2052
333.00 0.2056
333.10 0.2059
333.20 0.2063
333.30 0.2066
333.40 0.207
333.50 0.2074
333.60 0.2077
333.70 0.2081
333.80 0.2084
333.90 0.2088
334.00 0.2091
334.10 0.2095
334.20 0.2099
334.30 0.2102
334.40 0.2106
334.50 0.211
334.60 0.2113
334.70 0.2117
334.80 0.212
334.90 0.2124
335.00 0.2128
335.10 0.2131
335.20 0.2135
335.30 0.2139
335.40 0.2142
335.50 0.2146
335.60 0.2149
335.70 0.2153
335.80 0.2157
335.90 0.216
336.00 0.2164
336.10 0.2168
336.20 0.2171
336.30 0.2175
336.40 0.2179
336.50 0.2182
336.60 0.2186
336.70 0.219
336.80 0.2194
336.90 0.2197
337.00 0.2201
337.10 0.2205
337.20 0.2208
337.30 0.2212
337.40 0.2216
337.50 0.2219
337.60 0.2223
337.70 0.2227
337.80 0.223
337.90 0.2234
338.00 0.2238
338.10 0.2241
338.20 0.2245
338.30 0.2249
338.40 0.2253
338.50 0.2256
338.60 0.226
338.70 0.2264
338.80 0.2268
338.90 0.2272
339.00 0.2275
339.10 0.2279
339.20 0.2283
339.30 0.2287
339.40 0.229
339.50 0.2294
339.60 0.2298
339.70 0.2301
339.80 0.2305
339.90 0.2309
340.00 0.2313
340.10 0.2316
340.20 0.232
340.30 0.2324
340.40 0.2328
340.50 0.2332
340.60 0.2336
340.70 0.2339
340.80 0.2343
340.90 0.2347
341.00 0.2351
341.10 0.2355
341.20 0.2358
341.30 0.2362
341.40 0.2366
341.50 0.237
341.60 0.2374
341.70 0.2377
341.80 0.2381
341.90 0.2385
342.00 0.2389
342.10 0.2393
342.20 0.2396
342.30 0.24
342.40 0.2404
342.50 0.2408
342.60 0.2412
342.70 0.2416
342.80 0.242
342.90 0.2424
343.00 0.2428
343.10 0.2431
343.20 0.2435
343.30 0.2439
343.40 0.2443
343.50 0.2447
343.60 0.2451
343.70 0.2454
343.80 0.2458
343.90 0.2462
344.00 0.2466
344.10 0.247
344.20 0.2474
344.30 0.2478
344.40 0.2482
344.50 0.2486
344.60 0.249
344.70 0.2494
344.80 0.2498
344.90 0.2501
345.00 0.2505
345.10 0.2509
345.20 0.2513
345.30 0.2517
345.40 0.2521
345.50 0.2525
345.60 0.2529
345.70 0.2533
345.80 0.2537
345.90 0.254
346.00 0.2544
346.10 0.2548
346.20 0.2552
346.30 0.2556
346.40 0.256
346.50 0.2564
346.60 0.2568
346.70 0.2572
346.80 0.2576
346.90 0.258
347.00 0.2584
347.10 0.2588
347.20 0.2592
347.30 0.2596
347.40 0.26
347.50 0.2604
347.60 0.2608
347.70 0.2612
347.80 0.2616
347.90 0.262
348.00 0.2624
348.10 0.2628
348.20 0.2632
348.30 0.2636
348.40 0.264
348.50 0.2644
348.60 0.2648
348.70 0.2652
348.80 0.2656
348.90 0.266
349.00 0.2664
349.10 0.2669
349.20 0.2673
349.30 0.2677
349.40 0.2681
349.50 0.2685
349.60 0.2689
349.70 0.2693
349.80 0.2697
349.90 0.2701
350.00 0.2705
350.10 0.2709
350.20 0.2713
350.30 0.2717
350.40 0.2721
350.50 0.2725
350.60 0.2729
350.70 0.2733
350.80 0.2737
350.90 0.2742
351.00 0.2746
351.10 0.275
351.20 0.2754
351.30 0.2758
351.40 0.2762
351.50 0.2766
351.60 0.277
351.70 0.2774
351.80 0.2778
351.90 0.2782
352.00 0.2786
352.10 0.279
352.20 0.2795
352.30 0.2799
352.40 0.2803
352.50 0.2807
352.60 0.2811
352.70 0.2815
352.80 0.282
352.90 0.2824
353.00 0.2828
353.10 0.2832
353.20 0.2836
353.30 0.284
353.40 0.2844
353.50 0.2848
353.60 0.2853
353.70 0.2857
353.80 0.2861
353.90 0.2865
354.00 0.2869
354.10 0.2873
354.20 0.2877
354.30 0.2882
354.40 0.2886
354.50 0.289
354.60 0.2894
354.70 0.2899
354.80 0.2903
354.90 0.2907
355.00 0.2911
355.10 0.2915
355.20 0.2919
355.30 0.2924
355.40 0.2928
355.50 0.2932
355.60 0.2936
355.70 0.294
355.80 0.2944
355.90 0.2949
356.00 0.2953
356.10 0.2957
356.20 0.2961
356.30 0.2966
356.40 0.297
356.50 0.2974
356.60 0.2978
356.70 0.2983
356.80 0.2987
356.90 0.2991
357.00 0.2995
357.10 0.3
357.20 0.3004
357.30 0.3008
357.40 0.3012
357.50 0.3017
357.60 0.3021
357.70 0.3025
357.80 0.3029
357.90 0.3033
358.00 0.3038
358.10 0.3042
358.20 0.3046
358.30 0.3051
358.40 0.3055
358.50 0.3059
358.60 0.3064
358.70 0.3068
358.80 0.3072
358.90 0.3076
359.00 0.3081
359.10 0.3085
359.20 0.3089
359.30 0.3094
359.40 0.3098
359.50 0.3102
359.60 0.3106
359.70 0.3111
359.80 0.3115
359.90 0.3119
360.00 0.3123
360.10 0.3128
360.20 0.3132
360.30 0.3136
360.40 0.3141
360.50 0.3145
360.60 0.315
360.70 0.3154
360.80 0.3158
360.90 0.3163
361.00 0.3167
361.10 0.3171
361.20 0.3176
361.30 0.318
361.40 0.3184
361.50 0.3189
361.60 0.3193
361.70 0.3197
361.80 0.3201
361.90 0.3206
362.00 0.321
362.10 0.3214
362.20 0.3219
362.30 0.3223
362.40 0.3228
362.50 0.3232
362.60 0.3236
362.70 0.3241
362.80 0.3245
362.90 0.3249
363.00 0.3254
363.10 0.3258
363.20 0.3263
363.30 0.3267
363.40 0.3271
363.50 0.3276
363.60 0.328
363.70 0.3285
363.80 0.3289
363.90 0.3293
364.00 0.3298
364.10 0.3302
364.20 0.3307
364.30 0.3311
364.40 0.3315
364.50 0.332
364.60 0.3324
364.70 0.3329
364.80 0.3333
364.90 0.3338
365.00 0.3342
365.10 0.3346
365.20 0.3351
365.30 0.3355
365.40 0.336
365.50 0.3364
365.60 0.3369
365.70 0.3373
365.80 0.3377
365.90 0.3382
366.00 0.3386
366.10 0.3391
366.20 0.3395
366.30 0.34
366.40 0.3404
366.50 0.3409
366.60 0.3413
366.70 0.3418
366.80 0.3422
366.90 0.3427
367.00 0.3431
367.10 0.3436
367.20 0.344
367.30 0.3445
367.40 0.3449
367.50 0.3454
367.60 0.3458
367.70 0.3462
367.80 0.3467
367.90 0.3471
368.00 0.3476
368.10 0.348
368.20 0.3485
368.30 0.3489
368.40 0.3494
368.50 0.3499
368.60 0.3503
368.70 0.3508
368.80 0.3512
368.90 0.3517
369.00 0.3521
369.10 0.3526
369.20 0.353
369.30 0.3535
369.40 0.3539
369.50 0.3544
369.60 0.3548
369.70 0.3553
369.80 0.3557
369.90 0.3562
370.00 0.3566
370.10 0.3571
370.20 0.3575
370.30 0.358
370.40 0.3584
370.50 0.3589
370.60 0.3594
370.70 0.3598
370.80 0.3603
370.90 0.3607
371.00 0.3612
371.10 0.3616
371.20 0.3621
371.30 0.3626
371.40 0.363
371.50 0.3635
371.60 0.3639
371.70 0.3644
371.80 0.3648
371.90 0.3653
372.00 0.3657
372.10 0.3662
372.20 0.3666
372.30 0.3671
372.40 0.3676
372.50 0.368
372.60 0.3685
372.70 0.369
372.80 0.3694
372.90 0.3699
373.00 0.3703
373.10 0.3708
373.20 0.3713
373.30 0.3717
373.40 0.3722
373.50 0.3726
373.60 0.3731
373.70 0.3735
373.80 0.374
373.90 0.3745
374.00 0.3749
374.10 0.3754
374.20 0.3758
374.30 0.3763
374.40 0.3768
374.50 0.3772
374.60 0.3777
374.70 0.3782
374.80 0.3786
374.90 0.3791
375.00 0.3796
375.10 0.38
375.20 0.3805
375.30 0.381
375.40 0.3814
375.50 0.3819
375.60 0.3823
375.70 0.3828
375.80 0.3833
375.90 0.3837
376.00 0.3842
376.10 0.3846
376.20 0.3851
376.30 0.3856
376.40 0.386
376.50 0.3865
376.60 0.387
376.70 0.3874
376.80 0.3879
376.90 0.3884
377.00 0.3888
377.10 0.3893
377.20 0.3898
377.30 0.3903
377.40 0.3907
377.50 0.3912
377.60 0.3917
377.70 0.3921
377.80 0.3926
377.90 0.3931
378.00 0.3935
378.10 0.394
378.20 0.3945
378.30 0.3949
378.40 0.3954
378.50 0.3959
378.60 0.3963
378.70 0.3968
378.80 0.3973
378.90 0.3978
379.00 0.3982
379.10 0.3987
379.20 0.3992
379.30 0.3996
379.40 0.4001
379.50 0.4006
379.60 0.4011
379.70 0.4015
379.80 0.402
379.90 0.4025
380.00 0.4029
380.10 0.4034
380.20 0.4039
380.30 0.4044
380.40 0.4048
380.50 0.4053
380.60 0.4058
380.70 0.4063
380.80 0.4067
380.90 0.4072
381.00 0.4077
381.10 0.4081
381.20 0.4086
381.30 0.4091
381.40 0.4096
381.50 0.41
381.60 0.4105
381.70 0.411
381.80 0.4115
381.90 0.412
382.00 0.4124
382.10 0.4129
382.20 0.4134
382.30 0.4139
382.40 0.4143
382.50 0.4148
382.60 0.4153
382.70 0.4158
382.80 0.4162
382.90 0.4167
383.00 0.4172
383.10 0.4177
383.20 0.4181
383.30 0.4186
383.40 0.4191
383.50 0.4196
383.60 0.4201
383.70 0.4205
383.80 0.421
383.90 0.4215
384.00 0.422
384.10 0.4225
384.20 0.4229
384.30 0.4234
384.40 0.4239
384.50 0.4244
384.60 0.4249
384.70 0.4253
384.80 0.4258
384.90 0.4263
385.00 0.4268
385.10 0.4273
385.20 0.4277
385.30 0.4282
385.40 0.4287
385.50 0.4292
385.60 0.4297
385.70 0.4301
385.80 0.4306
385.90 0.4311
386.00 0.4316
386.10 0.4321
386.20 0.4326
386.30 0.433
386.40 0.4335
386.50 0.434
386.60 0.4345
386.70 0.435
386.80 0.4355
386.90 0.4359
387.00 0.4364
387.10 0.4369
387.20 0.4374
387.30 0.4379
387.40 0.4384
387.50 0.4388
387.60 0.4393
387.70 0.4398
387.80 0.4403
387.90 0.4408
388.00 0.4413
388.10 0.4418
388.20 0.4422
388.30 0.4427
388.40 0.4432
388.50 0.4437
388.60 0.4442
388.70 0.4447
388.80 0.4452
388.90 0.4456
389.00 0.4461
389.10 0.4466
389.20 0.4471
389.30 0.4476
389.40 0.4481
389.50 0.4486
389.60 0.4491
389.70 0.4495
389.80 0.45
389.90 0.4505
390.00 0.451
390.10 0.4515
390.20 0.452
390.30 0.4525
390.40 0.453
390.50 0.4535
390.60 0.4539
390.70 0.4544
390.80 0.4549
390.90 0.4554
391.00 0.4559
391.10 0.4564
391.20 0.4569
391.30 0.4574
391.40 0.4579
391.50 0.4583
391.60 0.4588
391.70 0.4593
391.80 0.4598
391.90 0.4603
392.00 0.4608
392.10 0.4613
392.20 0.4618
392.30 0.4623
392.40 0.4628
392.50 0.4632
392.60 0.4638
392.70 0.4642
392.80 0.4647
392.90 0.4652
393.00 0.4657
393.10 0.4662
393.20 0.4667
393.30 0.4672
393.40 0.4677
393.50 0.4682
393.60 0.4687
393.70 0.4692
393.80 0.4697
393.90 0.4702
394.00 0.4706
394.10 0.4711
394.20 0.4716
394.30 0.4721
394.40 0.4726
394.50 0.4731
394.60 0.4736
394.70 0.4741
394.80 0.4746
394.90 0.4751
395.00 0.4756
395.10 0.4761
395.20 0.4766
395.30 0.4771
395.40 0.4776
395.50 0.478
395.60 0.4786
395.70 0.4791
395.80 0.4795
395.90 0.48
396.00 0.4805
396.10 0.481
396.20 0.4815
396.30 0.482
396.40 0.4825
396.50 0.483
396.60 0.4835
396.70 0.484
396.80 0.4845
396.90 0.485
397.00 0.4855
397.10 0.486
397.20 0.4865
397.30 0.487
397.40 0.4875
397.50 0.488
397.60 0.4885
397.70 0.489
397.80 0.4895
397.90 0.49
398.00 0.4905
398.10 0.491
398.20 0.4915
398.30 0.492
398.40 0.4925
398.50 0.493
398.60 0.4935
398.70 0.494
398.80 0.4945
398.90 0.495
399.00 0.4955
399.10 0.496
399.20 0.4965
399.30 0.497
399.40 0.4975
399.50 0.498
399.60 0.4985
399.70 0.4989
399.80 0.4995
399.90 0.5
400.00 0.5005
400.10 0.501
400.20 0.5015
400.30 0.502
400.40 0.5025
400.50 0.503
400.60 0.5034
400.70 0.504
400.80 0.5045
400.90 0.505
401.00 0.5055
401.10 0.506
401.20 0.5065
401.30 0.507
401.40 0.5075
401.50 0.508
401.60 0.5085
401.70 0.509
401.80 0.5095
401.90 0.51
402.00 0.5105
402.10 0.511
402.20 0.5115
402.30 0.512
402.40 0.5125
402.50 0.513
402.60 0.5135
402.70 0.514
402.80 0.5145
402.90 0.515
403.00 0.5155
403.10 0.516
403.20 0.5165
403.30 0.517
403.40 0.5175
403.50 0.518
403.60 0.5185
403.70 0.519
403.80 0.5196
403.90 0.5201
404.00 0.5206
404.10 0.5211
404.20 0.5215
404.30 0.5221
404.40 0.5226
404.50 0.5231
404.60 0.5236
404.70 0.5241
404.80 0.5246
404.90 0.5251
405.00 0.5256
405.10 0.5261
405.20 0.5266
405.30 0.5271
405.40 0.5276
405.50 0.5281
405.60 0.5286
405.70 0.5291
405.80 0.5297
405.90 0.5302
406.00 0.5306
406.10 0.5312
406.20 0.5317
406.30 0.5322
406.40 0.5327
406.50 0.5332
406.60 0.5337
406.70 0.5342
406.80 0.5347
406.90 0.5352
407.00 0.5357
407.10 0.5362
407.20 0.5367
407.30 0.5372
407.40 0.5377
407.50 0.5382
407.60 0.5387
407.70 0.5393
407.80 0.5398
407.90 0.5403
408.00 0.5408
408.10 0.5413
408.20 0.5418
408.30 0.5423
408.40 0.5428
408.50 0.5433
408.60 0.5438
408.70 0.5444
408.80 0.5448
408.90 0.5454
409.00 0.5459
409.10 0.5464
409.20 0.5469
409.30 0.5474
409.40 0.5479
409.50 0.5484
409.60 0.5489
409.70 0.5494
409.80 0.5499
409.90 0.5505
410.00 0.551
410.10 0.5515
410.20 0.552
410.30 0.5525
410.40 0.553
410.50 0.5535
410.60 0.554
410.70 0.5545
410.80 0.555
410.90 0.5555
411.00 0.5561
411.10 0.5566
411.20 0.5571
411.30 0.5576
411.40 0.5581
411.50 0.5586
411.60 0.5591
411.70 0.5596
411.80 0.5601
411.90 0.5606
412.00 0.5612
412.10 0.5617
412.20 0.5622
412.30 0.5627
412.40 0.5632
412.50 0.5637
412.60 0.5642
412.70 0.5647
412.80 0.5652
412.90 0.5657
413.00 0.5662
413.10 0.5668
413.20 0.5673
413.30 0.5678
413.40 0.5683
413.50 0.5688
413.60 0.5693
413.70 0.5698
413.80 0.5704
413.90 0.5709
414.00 0.5714
414.10 0.5719
414.20 0.5724
414.30 0.5729
414.40 0.5734
414.50 0.5739
414.60 0.5744
414.70 0.5749
414.80 0.5755
414.90 0.576
415.00 0.5765
415.10 0.577
415.20 0.5775
415.30 0.578
415.40 0.5785
415.50 0.579
415.60 0.5795
415.70 0.5801
415.80 0.5806
415.90 0.5811
416.00 0.5816
416.10 0.5821
416.20 0.5826
416.30 0.5831
416.40 0.5837
416.50 0.5842
416.60 0.5847
416.70 0.5852
416.80 0.5857
416.90 0.5862
417.00 0.5867
417.10 0.5873
417.20 0.5878
417.30 0.5883
417.40 0.5888
417.50 0.5893
417.60 0.5898
417.70 0.5903
417.80 0.5908
417.90 0.5913
418.00 0.5919
418.10 0.5924
418.20 0.5929
418.30 0.5934
418.40 0.5939
418.50 0.5944
418.60 0.5949
418.70 0.5955
418.80 0.596
418.90 0.5965
419.00 0.597
419.10 0.5975
419.20 0.598
419.30 0.5985
419.40 0.5991
419.50 0.5996
419.60 0.6001
419.70 0.6006
419.80 0.6011
419.90 0.6016
420.00 0.6021
420.10 0.6026
420.20 0.6032
420.30 0.6037
420.40 0.6042
420.50 0.6047
420.60 0.6052
420.70 0.6057
420.80 0.6063
420.90 0.6068
421.00 0.6073
421.10 0.6078
421.20 0.6083
421.30 0.6088
421.40 0.6093
421.50 0.6099
421.60 0.6104
421.70 0.6109
421.80 0.6114
421.90 0.6119
422.00 0.6124
422.10 0.6129
422.20 0.6135
422.30 0.614
422.40 0.6145
422.50 0.615
422.60 0.6155
422.70 0.616
422.80 0.6165
422.90 0.6171
423.00 0.6176
423.10 0.6181
423.20 0.6186
423.30 0.6191
423.40 0.6196
423.50 0.6202
423.60 0.6207
423.70 0.6212
423.80 0.6217
423.90 0.6222
424.00 0.6227
424.10 0.6232
424.20 0.6238
424.30 0.6243
424.40 0.6248
424.50 0.6253
424.60 0.6258
424.70 0.6263
424.80 0.6269
424.90 0.6274
425.00 0.6279
425.10 0.6284
425.20 0.6289
425.30 0.6294
425.40 0.63
425.50 0.6305
425.60 0.631
425.70 0.6315
425.80 0.632
425.90 0.6325
426.00 0.6331
426.10 0.6336
426.20 0.6341
426.30 0.6346
426.40 0.6351
426.50 0.6356
426.60 0.6361
426.70 0.6367
426.80 0.6372
426.90 0.6377
427.00 0.6382
427.10 0.6387
427.20 0.6392
427.30 0.6398
427.40 0.6403
427.50 0.6408
427.60 0.6413
427.70 0.6418
427.80 0.6423
427.90 0.6429
428.00 0.6434
428.10 0.6439
428.20 0.6444
428.30 0.6449
428.40 0.6454
428.50 0.646
428.60 0.6465
428.70 0.647
428.80 0.6475
428.90 0.648
429.00 0.6485
429.10 0.6491
429.20 0.6496
429.30 0.6501
429.40 0.6506
429.50 0.6511
429.60 0.6516
429.70 0.6521
429.80 0.6527
429.90 0.6532
430.00 0.6537
430.10 0.6542
430.20 0.6547
430.30 0.6552
430.40 0.6558
430.50 0.6563
430.60 0.6568
430.70 0.6573
430.80 0.6578
430.90 0.6583
431.00 0.6589
431.10 0.6594
431.20 0.6599
431.30 0.6604
431.40 0.6609
431.50 0.6614
431.60 0.6619
431.70 0.6625
431.80 0.663
431.90 0.6635
432.00 0.664
432.10 0.6645
432.20 0.6651
432.30 0.6656
432.40 0.6661
432.50 0.6666
432.60 0.6671
432.70 0.6676
432.80 0.6682
432.90 0.6687
433.00 0.6692
433.10 0.6697
433.20 0.6702
433.30 0.6707
433.40 0.6713
433.50 0.6718
433.60 0.6723
433.70 0.6728
433.80 0.6733
433.90 0.6738
434.00 0.6743
434.10 0.6749
434.20 0.6754
434.30 0.6759
434.40 0.6764
434.50 0.6769
434.60 0.6775
434.70 0.678
434.80 0.6785
434.90 0.679
435.00 0.6795
435.10 0.68
435.20 0.6805
435.30 0.6811
435.40 0.6816
435.50 0.6821
435.60 0.6826
435.70 0.6831
435.80 0.6836
435.90 0.6842
436.00 0.6847
436.10 0.6852
436.20 0.6857
436.30 0.6862
436.40 0.6867
436.50 0.6872
436.60 0.6878
436.70 0.6883
436.80 0.6888
436.90 0.6893
437.00 0.6898
437.10 0.6903
437.20 0.6909
437.30 0.6914
437.40 0.6919
437.50 0.6924
437.60 0.6929
437.70 0.6934
437.80 0.694
437.90 0.6945
438.00 0.695
438.10 0.6955
438.20 0.696
438.30 0.6965
438.40 0.697
438.50 0.6976
438.60 0.6981
438.70 0.6986
438.80 0.6991
438.90 0.6996
439.00 0.7002
439.10 0.7007
439.20 0.7012
439.30 0.7017
439.40 0.7022
439.50 0.7027
439.60 0.7032
439.70 0.7037
439.80 0.7043
439.90 0.7048
440.00 0.7053
440.10 0.7058
440.20 0.7063
440.30 0.7068
440.40 0.7073
440.50 0.7078
440.60 0.7084
440.70 0.7089
440.80 0.7094
440.90 0.7099
441.00 0.7104
441.10 0.711
441.20 0.7115
441.30 0.712
441.40 0.7125
441.50 0.713
441.60 0.7135
441.70 0.714
441.80 0.7146
441.90 0.7151
442.00 0.7156
442.10 0.7161
442.20 0.7166
442.30 0.7171
442.40 0.7176
442.50 0.7181
442.60 0.7187
442.70 0.7192
442.80 0.7197
442.90 0.7202
443.00 0.7207
443.10 0.7213
443.20 0.7218
443.30 0.7223
443.40 0.7228
443.50 0.7233
443.60 0.7238
443.70 0.7243
443.80 0.7249
443.90 0.7254
444.00 0.7259
444.10 0.7264
444.20 0.7269
444.30 0.7274
444.40 0.7279
444.50 0.7284
444.60 0.7289
444.70 0.7295
444.80 0.73
444.90 0.7305
445.00 0.731
445.10 0.7315
445.20 0.732
445.30 0.7325
445.40 0.7331
445.50 0.7336
445.60 0.7341
445.70 0.7346
445.80 0.7351
445.90 0.7356
446.00 0.7361
446.10 0.7366
446.20 0.7372
446.30 0.7377
446.40 0.7382
446.50 0.7387
446.60 0.7392
446.70 0.7397
446.80 0.7403
446.90 0.7407
447.00 0.7413
447.10 0.7418
447.20 0.7423
447.30 0.7428
447.40 0.7433
447.50 0.7438
447.60 0.7443
447.70 0.7449
447.80 0.7454
447.90 0.7459
448.00 0.7464
448.10 0.7469
448.20 0.7474
448.30 0.7479
448.40 0.7484
448.50 0.7489
448.60 0.7495
448.70 0.75
448.80 0.7505
448.90 0.751
449.00 0.7515
449.10 0.752
449.20 0.7525
449.30 0.753
449.40 0.7536
449.50 0.7541
449.60 0.7546
449.70 0.7551
449.80 0.7556
449.90 0.7561
450.00 0.7566
450.10 0.7571
450.20 0.7576
450.30 0.7582
450.40 0.7587
450.50 0.7592
450.60 0.7597
450.70 0.7602
450.80 0.7607
450.90 0.7612
451.00 0.7617
451.10 0.7622
451.20 0.7627
451.30 0.7633
451.40 0.7638
451.50 0.7643
451.60 0.7648
451.70 0.7653
451.80 0.7658
451.90 0.7663
452.00 0.7668
452.10 0.7673
452.20 0.7678
452.30 0.7684
452.40 0.7689
452.50 0.7694
452.60 0.7699
452.70 0.7704
452.80 0.7709
452.90 0.7714
453.00 0.7719
453.10 0.7724
453.20 0.7729
453.30 0.7734
453.40 0.7739
453.50 0.7745
453.60 0.775
453.70 0.7755
453.80 0.776
453.90 0.7765
454.00 0.777
454.10 0.7775
454.20 0.778
454.30 0.7785
454.40 0.779
454.50 0.7795
454.60 0.7801
454.70 0.7806
454.80 0.7811
454.90 0.7816
455.00 0.7821
455.10 0.7826
455.20 0.7831
455.30 0.7836
455.40 0.7841
455.50 0.7846
455.60 0.7852
455.70 0.7857
455.80 0.7862
455.90 0.7867
456.00 0.7872
456.10 0.7877
456.20 0.7882
456.30 0.7887
456.40 0.7892
456.50 0.7897
456.60 0.7902
456.70 0.7907
456.80 0.7912
456.90 0.7918
457.00 0.7923
457.10 0.7928
457.20 0.7933
457.30 0.7938
457.40 0.7943
457.50 0.7948
457.60 0.7953
457.70 0.7958
457.80 0.7963
457.90 0.7968
458.00 0.7973
458.10 0.7978
458.20 0.7983
458.30 0.7988
458.40 0.7993
458.50 0.7998
458.60 0.8003
458.70 0.8008
458.80 0.8013
458.90 0.8019
459.00 0.8024
459.10 0.8029
459.20 0.8034
459.30 0.8039
459.40 0.8044
459.50 0.8049
459.60 0.8054
459.70 0.8059
459.80 0.8064
459.90 0.8069
460.00 0.8074
460.10 0.8079
460.20 0.8084
460.30 0.8089
460.40 0.8094
460.50 0.8099
460.60 0.8104
460.70 0.8109
460.80 0.8114
460.90 0.812
461.00 0.8125
461.10 0.813
461.20 0.8135
461.30 0.814
461.40 0.8145
461.50 0.815
461.60 0.8155
461.70 0.816
461.80 0.8165
461.90 0.817
462.00 0.8175
462.10 0.818
462.20 0.8185
462.30 0.819
462.40 0.8195
462.50 0.82
462.60 0.8205
462.70 0.821
462.80 0.8215
462.90 0.822
463.00 0.8225
463.10 0.823
463.20 0.8235
463.30 0.824
463.40 0.8245
463.50 0.825
463.60 0.8255
463.70 0.826
463.80 0.8265
463.90 0.827
464.00 0.8275
464.10 0.828
464.20 0.8285
464.30 0.829
464.40 0.8295
464.50 0.83
464.60 0.8305
464.70 0.831
464.80 0.8315
464.90 0.832
465.00 0.8325
465.10 0.833
465.20 0.8335
465.30 0.834
465.40 0.8345
465.50 0.835
465.60 0.8355
465.70 0.836
465.80 0.8365
465.90 0.837
466.00 0.8375
466.10 0.838
466.20 0.8385
466.30 0.839
466.40 0.8395
466.50 0.84
466.60 0.8405
466.70 0.841
466.80 0.8415
466.90 0.842
467.00 0.8425
467.10 0.843
467.20 0.8435
467.30 0.844
467.40 0.8445
467.50 0.845
467.60 0.8455
467.70 0.846
467.80 0.8465
467.90 0.847
468.00 0.8475
468.10 0.848
468.20 0.8485
468.30 0.849
468.40 0.8495
468.50 0.8499
468.60 0.8504
468.70 0.8509
468.80 0.8514
468.90 0.8519
469.00 0.8524
469.10 0.8529
469.20 0.8534
469.30 0.8539
469.40 0.8544
469.50 0.8549
469.60 0.8554
469.70 0.8559
469.80 0.8564
469.90 0.8569
470.00 0.8574
470.10 0.8578
470.20 0.8583
470.30 0.8588
470.40 0.8593
470.50 0.8598
470.60 0.8603
470.70 0.8608
470.80 0.8613
470.90 0.8618
471.00 0.8623
471.10 0.8628
471.20 0.8633
471.30 0.8638
471.40 0.8643
471.50 0.8648
471.60 0.8653
471.70 0.8658
471.80 0.8663
471.90 0.8668
472.00 0.8673
472.10 0.8677
472.20 0.8682
472.30 0.8687
472.40 0.8692
472.50 0.8697
472.60 0.8702
472.70 0.8707
472.80 0.8712
472.90 0.8717
473.00 0.8722
473.10 0.8726
473.20 0.8731
473.30 0.8736
473.40 0.8741
473.50 0.8746
473.60 0.8751
473.70 0.8756
473.80 0.8761
473.90 0.8766
474.00 0.8771
474.10 0.8776
474.20 0.878
474.30 0.8785
474.40 0.879
474.50 0.8795
474.60 0.88
474.70 0.8805
474.80 0.881
474.90 0.8815
475.00 0.882
475.10 0.8824
475.20 0.8829
475.30 0.8834
475.40 0.8839
475.50 0.8844
475.60 0.8849
475.70 0.8854
475.80 0.8859
475.90 0.8864
476.00 0.8869
476.10 0.8874
476.20 0.8878
476.30 0.8883
476.40 0.8888
476.50 0.8893
476.60 0.8898
476.70 0.8903
476.80 0.8908
476.90 0.8912
477.00 0.8917
477.10 0.8922
477.20 0.8927
477.30 0.8932
477.40 0.8937
477.50 0.8942
477.60 0.8946
477.70 0.8951
477.80 0.8956
477.90 0.8961
478.00 0.8966
478.10 0.8971
478.20 0.8976
478.30 0.898
478.40 0.8985
478.50 0.899
478.60 0.8995
478.70 0.9
478.80 0.9005
478.90 0.901
479.00 0.9014
479.10 0.9019
479.20 0.9024
479.30 0.9029
479.40 0.9034
479.50 0.9039
479.60 0.9043
479.70 0.9048
479.80 0.9053
479.90 0.9058
480.00 0.9063
480.10 0.9067
480.20 0.9072
480.30 0.9077
480.40 0.9082
480.50 0.9087
480.60 0.9092
480.70 0.9096
480.80 0.9101
480.90 0.9106
481.00 0.9111
481.10 0.9116
481.20 0.912
481.30 0.9125
481.40 0.913
481.50 0.9135
481.60 0.914
481.70 0.9145
481.80 0.9149
481.90 0.9154
482.00 0.9159
482.10 0.9164
482.20 0.9169
482.30 0.9173
482.40 0.9178
482.50 0.9183
482.60 0.9188
482.70 0.9193
482.80 0.9198
482.90 0.9202
483.00 0.9207
483.10 0.9212
483.20 0.9217
483.30 0.9221
483.40 0.9226
483.50 0.9231
483.60 0.9236
483.70 0.9241
483.80 0.9245
483.90 0.925
484.00 0.9255
484.10 0.9259
484.20 0.9264
484.30 0.9269
484.40 0.9274
484.50 0.9279
484.60 0.9284
484.70 0.9288
484.80 0.9293
484.90 0.9298
485.00 0.9302
485.10 0.9307
485.20 0.9312
485.30 0.9317
485.40 0.9322
485.50 0.9326
485.60 0.9331
485.70 0.9336
485.80 0.9341
485.90 0.9345
486.00 0.935
486.10 0.9355
486.20 0.9359
486.30 0.9364
486.40 0.9369
486.50 0.9374
486.60 0.9378
486.70 0.9383
486.80 0.9388
486.90 0.9393
487.00 0.9397
487.10 0.9402
487.20 0.9407
487.30 0.9412
487.40 0.9416
487.50 0.9421
487.60 0.9426
487.70 0.9431
487.80 0.9435
487.90 0.944
488.00 0.9445
488.10 0.9449
488.20 0.9454
488.30 0.9459
488.40 0.9464
488.50 0.9468
488.60 0.9473
488.70 0.9478
488.80 0.9483
488.90 0.9487
489.00 0.9492
489.10 0.9497
489.20 0.9501
489.30 0.9506
489.40 0.9511
489.50 0.9515
489.60 0.952
489.70 0.9525
489.80 0.9529
489.90 0.9534
490.00 0.9539
490.10 0.9543
490.20 0.9548
490.30 0.9553
490.40 0.9558
490.50 0.9562
490.60 0.9567
490.70 0.9572
490.80 0.9576
490.90 0.9581
491.00 0.9586
491.10 0.959
491.20 0.9595
491.30 0.96
491.40 0.9604
491.50 0.9609
491.60 0.9614
491.70 0.9618
491.80 0.9623
491.90 0.9628
492.00 0.9632
492.10 0.9637
492.20 0.9642
492.30 0.9646
492.40 0.9651
492.50 0.9656
492.60 0.966
492.70 0.9665
492.80 0.967
492.90 0.9674
493.00 0.9679
493.10 0.9684
493.20 0.9688
493.30 0.9693
493.40 0.9697
493.50 0.9702
493.60 0.9707
493.70 0.9711
493.80 0.9716
493.90 0.972
494.00 0.9725
494.10 0.973
494.20 0.9734
494.30 0.9739
494.40 0.9744
494.50 0.9748
494.60 0.9753
494.70 0.9757
494.80 0.9762
494.90 0.9767
495.00 0.9771
495.10 0.9776
495.20 0.978
495.30 0.9785
495.40 0.979
495.50 0.9794
495.60 0.9799
495.70 0.9804
495.80 0.9808
495.90 0.9813
496.00 0.9817
496.10 0.9822
496.20 0.9826
496.30 0.9831
496.40 0.9836
496.50 0.984
496.60 0.9845
496.70 0.985
496.80 0.9854
496.90 0.9859
497.00 0.9863
497.10 0.9868
497.20 0.9873
497.30 0.9877
497.40 0.9882
497.50 0.9886
497.60 0.9891
497.70 0.9895
497.80 0.99
497.90 0.9905
498.00 0.9909
498.10 0.9914
498.20 0.9918
498.30 0.9923
498.40 0.9927
498.50 0.9932
498.60 0.9936
498.70 0.9941
498.80 0.9946
498.90 0.995
499.00 0.9955
499.10 0.9959
499.20 0.9964
499.30 0.9968
499.40 0.9973
499.50 0.9977
499.60 0.9982
499.70 0.9986
499.80 0.9991
499.90 0.9995
500.00 1
500.10 1
500.20 1.001
500.30 1.001
500.40 1.002
500.50 1.002
500.60 1.003
500.70 1.003
500.80 1.004
500.90 1.004
501.00 1.005
501.10 1.005
501.20 1.005
501.30 1.006
501.40 1.006
501.50 1.007
501.60 1.007
501.70 1.008
501.80 1.008
501.90 1.009
502.00 1.009
502.10 1.009
502.20 1.01
502.30 1.01
502.40 1.011
502.50 1.011
502.60 1.012
502.70 1.012
502.80 1.013
502.90 1.013
503.00 1.014
503.10 1.014
503.20 1.014
503.30 1.015
503.40 1.015
503.50 1.016
503.60 1.016
503.70 1.017
503.80 1.017
503.90 1.018
504.00 1.018
504.10 1.018
504.20 1.019
504.30 1.019
504.40 1.02
504.50 1.02
504.60 1.021
504.70 1.021
504.80 1.022
504.90 1.022
505.00 1.022
505.10 1.023
505.20 1.023
505.30 1.024
505.40 1.024
505.50 1.025
505.60 1.025
505.70 1.026
505.80 1.026
505.90 1.026
506.00 1.027
506.10 1.027
506.20 1.028
506.30 1.028
506.40 1.029
506.50 1.029
506.60 1.029
506.70 1.03
506.80 1.03
506.90 1.031
507.00 1.031
507.10 1.032
507.20 1.032
507.30 1.033
507.40 1.033
507.50 1.033
507.60 1.034
507.70 1.034
507.80 1.035
507.90 1.035
508.00 1.036
508.10 1.036
508.20 1.037
508.30 1.037
508.40 1.037
508.50 1.038
508.60 1.038
508.70 1.039
508.80 1.039
508.90 1.04
509.00 1.04
509.10 1.04
509.20 1.041
509.30 1.041
509.40 1.042
509.50 1.042
509.60 1.043
509.70 1.043
509.80 1.043
509.90 1.044
510.00 1.044
510.10 1.045
510.20 1.045
510.30 1.046
510.40 1.046
510.50 1.047
510.60 1.047
510.70 1.047
510.80 1.048
510.90 1.048
511.00 1.049
511.10 1.049
511.20 1.05
511.30 1.05
511.40 1.05
511.50 1.051
511.60 1.051
511.70 1.052
511.80 1.052
511.90 1.053
512.00 1.053
512.10 1.053
512.20 1.054
512.30 1.054
512.40 1.055
512.50 1.055
512.60 1.056
512.70 1.056
512.80 1.056
512.90 1.057
513.00 1.057
513.10 1.058
513.20 1.058
513.30 1.059
513.40 1.059
513.50 1.059
513.60 1.06
513.70 1.06
513.80 1.061
513.90 1.061
514.00 1.062
514.10 1.062
514.20 1.062
514.30 1.063
514.40 1.063
514.50 1.064
514.60 1.064
514.70 1.065
514.80 1.065
514.90 1.065
515.00 1.066
515.10 1.066
515.20 1.067
515.30 1.067
515.40 1.068
515.50 1.068
515.60 1.068
515.70 1.069
515.80 1.069
515.90 1.07
516.00 1.07
516.10 1.071
516.20 1.071
516.30 1.071
516.40 1.072
516.50 1.072
516.60 1.073
516.70 1.073
516.80 1.074
516.90 1.074
517.00 1.074
517.10 1.075
517.20 1.075
517.30 1.076
517.40 1.076
517.50 1.076
517.60 1.077
517.70 1.077
517.80 1.078
517.90 1.078
518.00 1.079
518.10 1.079
518.20 1.079
518.30 1.08
518.40 1.08
518.50 1.081
518.60 1.081
518.70 1.081
518.80 1.082
518.90 1.082
519.00 1.083
519.10 1.083
519.20 1.084
519.30 1.084
519.40 1.084
519.50 1.085
519.60 1.085
519.70 1.086
519.80 1.086
519.90 1.086
520.00 1.087
520.10 1.087
520.20 1.088
520.30 1.088
520.40 1.089
520.50 1.089
520.60 1.089
520.70 1.09
520.80 1.09
520.90 1.091
521.00 1.091
521.10 1.091
521.20 1.092
521.30 1.092
521.40 1.093
521.50 1.093
521.60 1.094
521.70 1.094
521.80 1.094
521.90 1.095
522.00 1.095
522.10 1.096
522.20 1.096
522.30 1.096
522.40 1.097
522.50 1.097
522.60 1.098
522.70 1.098
522.80 1.098
522.90 1.099
523.00 1.099
523.10 1.1
523.20 1.1
523.30 1.1
523.40 1.101
523.50 1.101
523.60 1.102
523.70 1.102
523.80 1.103
523.90 1.103
524.00 1.103
524.10 1.104
524.20 1.104
524.30 1.105
524.40 1.105
524.50 1.105
524.60 1.106
524.70 1.106
524.80 1.107
524.90 1.107
525.00 1.107
525.10 1.108
525.20 1.108
525.30 1.109
525.40 1.109
525.50 1.109
525.60 1.11
525.70 1.11
525.80 1.111
525.90 1.111
526.00 1.111
526.10 1.112
526.20 1.112
526.30 1.113
526.40 1.113
526.50 1.113
526.60 1.114
526.70 1.114
526.80 1.115
526.90 1.115
527.00 1.115
527.10 1.116
527.20 1.116
527.30 1.117
527.40 1.117
527.50 1.117
527.60 1.118
527.70 1.118
527.80 1.119
527.90 1.119
528.00 1.119
528.10 1.12
528.20 1.12
528.30 1.121
528.40 1.121
528.50 1.121
528.60 1.122
528.70 1.122
528.80 1.123
528.90 1.123
529.00 1.123
529.10 1.124
529.20 1.124
529.30 1.125
529.40 1.125
529.50 1.125
529.60 1.126
529.70 1.126
529.80 1.127
529.90 1.127
530.00 1.127
530.10 1.128
530.20 1.128
530.30 1.129
530.40 1.129
530.50 1.129
530.60 1.13
530.70 1.13
530.80 1.131
530.90 1.131
531.00 1.131
531.10 1.132
531.20 1.132
531.30 1.132
531.40 1.133
531.50 1.133
531.60 1.134
531.70 1.134
531.80 1.134
531.90 1.135
532.00 1.135
532.10 1.136
532.20 1.136
532.30 1.136
532.40 1.137
532.50 1.137
532.60 1.138
532.70 1.138
532.80 1.138
532.90 1.139
533.00 1.139
533.10 1.139
533.20 1.14
533.30 1.14
533.40 1.141
533.50 1.141
533.60 1.141
533.70 1.142
533.80 1.142
533.90 1.143
534.00 1.143
534.10 1.143
534.20 1.144
534.30 1.144
534.40 1.144
534.50 1.145
534.60 1.145
534.70 1.146
534.80 1.146
534.90 1.146
535.00 1.147
535.10 1.147
535.20 1.148
535.30 1.148
535.40 1.148
535.50 1.149
535.60 1.149
535.70 1.149
535.80 1.15
535.90 1.15
536.00 1.151
536.10 1.151
536.20 1.151
536.30 1.152
536.40 1.152
536.50 1.152
536.60 1.153
536.70 1.153
536.80 1.154
536.90 1.154
537.00 1.154
537.10 1.155
537.20 1.155
537.30 1.155
537.40 1.156
537.50 1.156
537.60 1.157
537.70 1.157
537.80 1.157
537.90 1.158
538.00 1.158
538.10 1.158
538.20 1.159
538.30 1.159
538.40 1.16
538.50 1.16
538.60 1.16
538.70 1.161
538.80 1.161
538.90 1.161
539.00 1.162
539.10 1.162
539.20 1.163
539.30 1.163
539.40 1.163
539.50 1.164
539.60 1.164
539.70 1.164
539.80 1.165
539.90 1.165
540.00 1.166
540.10 1.166
540.20 1.166
540.30 1.167
540.40 1.167
540.50 1.167
540.60 1.168
540.70 1.168
540.80 1.169
540.90 1.169
541.00 1.169
541.10 1.17
541.20 1.17
541.30 1.17
541.40 1.171
541.50 1.171
541.60 1.171
541.70 1.172
541.80 1.172
541.90 1.173
542.00 1.173
542.10 1.173
542.20 1.174
542.30 1.174
542.40 1.174
542.50 1.175
542.60 1.175
542.70 1.175
542.80 1.176
542.90 1.176
543.00 1.177
543.10 1.177
543.20 1.177
543.30 1.178
543.40 1.178
543.50 1.178
543.60 1.179
543.70 1.179
543.80 1.179
543.90 1.18
544.00 1.18
544.10 1.181
544.20 1.181
544.30 1.181
544.40 1.182
544.50 1.182
544.60 1.182
544.70 1.183
544.80 1.183
544.90 1.183
545.00 1.184
545.10 1.184
545.20 1.184
545.30 1.185
545.40 1.185
545.50 1.186
545.60 1.186
545.70 1.186
545.80 1.187
545.90 1.187
546.00 1.187
546.10 1.188
546.20 1.188
546.30 1.188
546.40 1.189
546.50 1.189
546.60 1.189
546.70 1.19
546.80 1.19
546.90 1.19
547.00 1.191
547.10 1.191
547.20 1.192
547.30 1.192
547.40 1.192
547.50 1.193
547.60 1.193
547.70 1.193
547.80 1.194
547.90 1.194
548.00 1.194
548.10 1.195
548.20 1.195
548.30 1.195
548.40 1.196
548.50 1.196
548.60 1.196
548.70 1.197
548.80 1.197
548.90 1.197
549.00 1.198
549.10 1.198
549.20 1.199
549.30 1.199
549.40 1.199
549.50 1.2
549.60 1.2
549.70 1.2
549.80 1.201
549.90 1.201
550.00 1.201
550.10 1.202
550.20 1.202
550.30 1.202
550.40 1.203
550.50 1.203
550.60 1.203
550.70 1.204
550.80 1.204
550.90 1.204
551.00 1.205
551.10 1.205
551.20 1.205
551.30 1.206
551.40 1.206
551.50 1.206
551.60 1.207
551.70 1.207
551.80 1.207
551.90 1.208
552.00 1.208
552.10 1.208
552.20 1.209
552.30 1.209
552.40 1.209
552.50 1.21
552.60 1.21
552.70 1.21
552.80 1.211
552.90 1.211
553.00 1.211
553.10 1.212
553.20 1.212
553.30 1.212
553.40 1.213
553.50 1.213
553.60 1.213
553.70 1.214
553.80 1.214
553.90 1.214
554.00 1.215
554.10 1.215
554.20 1.215
554.30 1.216
554.40 1.216
554.50 1.216
554.60 1.217
554.70 1.217
554.80 1.217
554.90 1.218
555.00 1.218
555.10 1.218
555.20 1.219
555.30 1.219
555.40 1.219
555.50 1.22
555.60 1.22
555.70 1.22
555.80 1.221
555.90 1.221
556.00 1.221
556.10 1.222
556.20 1.222
556.30 1.222
556.40 1.223
556.50 1.223
556.60 1.223
556.70 1.224
556.80 1.224
556.90 1.224
557.00 1.225
557.10 1.225
557.20 1.225
557.30 1.226
557.40 1.226
557.50 1.226
557.60 1.227
557.70 1.227
557.80 1.227
557.90 1.228
558.00 1.228
558.10 1.228
558.20 1.228
558.30 1.229
558.40 1.229
558.50 1.229
558.60 1.23
558.70 1.23
558.80 1.23
558.90 1.231
559.00 1.231
559.10 1.231
559.20 1.232
559.30 1.232
559.40 1.232
559.50 1.233
559.60 1.233
559.70 1.233
559.80 1.234
559.90 1.234
560.00 1.234
560.10 1.235
560.20 1.235
560.30 1.235
560.40 1.235
560.50 1.236
560.60 1.236
560.70 1.236
560.80 1.237
560.90 1.237
561.00 1.237
561.10 1.238
561.20 1.238
561.30 1.238
561.40 1.239
561.50 1.239
561.60 1.239
561.70 1.24
561.80 1.24
561.90 1.24
562.00 1.24
562.10 1.241
562.20 1.241
562.30 1.241
562.40 1.242
562.50 1.242
562.60 1.242
562.70 1.243
562.80 1.243
562.90 1.243
563.00 1.244
563.10 1.244
563.20 1.244
563.30 1.244
563.40 1.245
563.50 1.245
563.60 1.245
563.70 1.246
563.80 1.246
563.90 1.246
564.00 1.247
564.10 1.247
564.20 1.247
564.30 1.247
564.40 1.248
564.50 1.248
564.60 1.248
564.70 1.249
564.80 1.249
564.90 1.249
565.00 1.25
565.10 1.25
565.20 1.25
565.30 1.25
565.40 1.251
565.50 1.251
565.60 1.251
565.70 1.252
565.80 1.252
565.90 1.252
566.00 1.253
566.10 1.253
566.20 1.253
566.30 1.253
566.40 1.254
566.50 1.254
566.60 1.254
566.70 1.255
566.80 1.255
566.90 1.255
567.00 1.256
567.10 1.256
567.20 1.256
567.30 1.256
567.40 1.257
567.50 1.257
567.60 1.257
567.70 1.258
567.80 1.258
567.90 1.258
568.00 1.258
568.10 1.259
568.20 1.259
568.30 1.259
568.40 1.26
568.50 1.26
568.60 1.26
568.70 1.26
568.80 1.261
568.90 1.261
569.00 1.261
569.10 1.262
569.20 1.262
569.30 1.262
569.40 1.262
569.50 1.263
569.60 1.263
569.70 1.263
569.80 1.264
569.90 1.264
570.00 1.264
570.10 1.264
570.20 1.265
570.30 1.265
570.40 1.265
570.50 1.266
570.60 1.266
570.70 1.266
570.80 1.266
570.90 1.267
571.00 1.267
571.10 1.267
571.20 1.268
571.30 1.268
571.40 1.268
571.50 1.268
571.60 1.269
571.70 1.269
571.80 1.269
571.90 1.269
572.00 1.27
572.10 1.27
572.20 1.27
572.30 1.271
572.40 1.271
572.50 1.271
572.60 1.271
572.70 1.272
572.80 1.272
572.90 1.272
573.00 1.272
573.10 1.273
573.20 1.273
573.30 1.273
573.40 1.274
573.50 1.274
573.60 1.274
573.70 1.274
573.80 1.275
573.90 1.275
574.00 1.275
574.10 1.275
574.20 1.276
574.30 1.276
574.40 1.276
574.50 1.277
574.60 1.277
574.70 1.277
574.80 1.277
574.90 1.278
575.00 1.278
575.10 1.278
575.20 1.278
575.30 1.279
575.40 1.279
575.50 1.279
575.60 1.279
575.70 1.28
575.80 1.28
575.90 1.28
576.00 1.281
576.10 1.281
576.20 1.281
576.30 1.281
576.40 1.282
576.50 1.282
576.60 1.282
576.70 1.282
576.80 1.283
576.90 1.283
577.00 1.283
577.10 1.283
577.20 1.284
577.30 1.284
577.40 1.284
577.50 1.284
577.60 1.285
577.70 1.285
577.80 1.285
577.90 1.285
578.00 1.286
578.10 1.286
578.20 1.286
578.30 1.286
578.40 1.287
578.50 1.287
578.60 1.287
578.70 1.287
578.80 1.288
578.90 1.288
579.00 1.288
579.10 1.288
579.20 1.289
579.30 1.289
579.40 1.289
579.50 1.289
579.60 1.29
579.70 1.29
579.80 1.29
579.90 1.29
580.00 1.291
580.10 1.291
580.20 1.291
580.30 1.291
580.40 1.292
580.50 1.292
580.60 1.292
580.70 1.292
580.80 1.293
580.90 1.293
581.00 1.293
581.10 1.293
581.20 1.294
581.30 1.294
581.40 1.294
581.50 1.294
581.60 1.295
581.70 1.295
581.80 1.295
581.90 1.295
582.00 1.296
582.10 1.296
582.20 1.296
582.30 1.296
582.40 1.297
582.50 1.297
582.60 1.297
582.70 1.297
582.80 1.297
582.90 1.298
583.00 1.298
583.10 1.298
583.20 1.298
583.30 1.299
583.40 1.299
583.50 1.299
583.60 1.299
583.70 1.3
583.80 1.3
583.90 1.3
584.00 1.3
584.10 1.301
584.20 1.301
584.30 1.301
584.40 1.301
584.50 1.301
584.60 1.302
584.70 1.302
584.80 1.302
584.90 1.302
585.00 1.303
585.10 1.303
585.20 1.303
585.30 1.303
585.40 1.303
585.50 1.304
585.60 1.304
585.70 1.304
585.80 1.304
585.90 1.305
586.00 1.305
586.10 1.305
586.20 1.305
586.30 1.305
586.40 1.306
586.50 1.306
586.60 1.306
586.70 1.306
586.80 1.307
586.90 1.307
587.00 1.307
587.10 1.307
587.20 1.307
587.30 1.308
587.40 1.308
587.50 1.308
587.60 1.308
587.70 1.309
587.80 1.309
587.90 1.309
588.00 1.309
588.10 1.309
588.20 1.31
588.30 1.31
588.40 1.31
588.50 1.31
588.60 1.31
588.70 1.311
588.80 1.311
588.90 1.311
589.00 1.311
589.10 1.311
589.20 1.312
589.30 1.312
589.40 1.312
589.50 1.312
589.60 1.313
589.70 1.313
589.80 1.313
589.90 1.313
590.00 1.313
590.10 1.314
590.20 1.314
590.30 1.314
590.40 1.314
590.50 1.314
590.60 1.315
590.70 1.315
590.80 1.315
590.90 1.315
591.00 1.315
591.10 1.316
591.20 1.316
591.30 1.316
591.40 1.316
591.50 1.316
591.60 1.317
591.70 1.317
591.80 1.317
591.90 1.317
592.00 1.317
592.10 1.318
592.20 1.318
592.30 1.318
592.40 1.318
592.50 1.318
592.60 1.318
592.70 1.319
592.80 1.319
592.90 1.319
593.00 1.319
593.10 1.319
593.20 1.32
593.30 1.32
593.40 1.32
593.50 1.32
593.60 1.32
593.70 1.321
593.80 1.321
593.90 1.321
594.00 1.321
594.10 1.321
594.20 1.322
594.30 1.322
594.40 1.322
594.50 1.322
594.60 1.322
594.70 1.322
594.80 1.323
594.90 1.323
595.00 1.323
595.10 1.323
595.20 1.323
595.30 1.324
595.40 1.324
595.50 1.324
595.60 1.324
595.70 1.324
595.80 1.324
595.90 1.325
596.00 1.325
596.10 1.325
596.20 1.325
596.30 1.325
596.40 1.326
596.50 1.326
596.60 1.326
596.70 1.326
596.80 1.326
596.90 1.326
597.00 1.327
597.10 1.327
597.20 1.327
597.30 1.327
597.40 1.327
597.50 1.327
597.60 1.328
597.70 1.328
597.80 1.328
597.90 1.328
598.00 1.328
598.10 1.328
598.20 1.329
598.30 1.329
598.40 1.329
598.50 1.329
598.60 1.329
598.70 1.329
598.80 1.33
598.90 1.33
599.00 1.33
599.10 1.33
599.20 1.33
599.30 1.33
599.40 1.331
599.50 1.331
599.60 1.331
599.70 1.331
599.80 1.331
599.90 1.331
600.00 1.332
600.10 1.332
600.20 1.332
600.30 1.332
600.40 1.332
600.50 1.332
600.60 1.333
600.70 1.333
600.80 1.333
600.90 1.333
601.00 1.333
601.10 1.333
601.20 1.333
601.30 1.334
601.40 1.334
601.50 1.334
601.60 1.334
601.70 1.334
601.80 1.334
601.90 1.335
602.00 1.335
602.10 1.335
602.20 1.335
602.30 1.335
602.40 1.335
602.50 1.335
602.60 1.336
602.70 1.336
602.80 1.336
602.90 1.336
603.00 1.336
603.10 1.336
603.20 1.336
603.30 1.337
603.40 1.337
603.50 1.337
603.60 1.337
603.70 1.337
603.80 1.337
603.90 1.337
604.00 1.338
604.10 1.338
604.20 1.338
604.30 1.338
604.40 1.338
604.50 1.338
604.60 1.338
604.70 1.338
604.80 1.339
604.90 1.339
605.00 1.339
605.10 1.339
605.20 1.339
605.30 1.339
605.40 1.339
605.50 1.34
605.60 1.34
605.70 1.34
605.80 1.34
605.90 1.34
606.00 1.34
606.10 1.34
606.20 1.34
606.30 1.341
606.40 1.341
606.50 1.341
606.60 1.341
606.70 1.341
606.80 1.341
606.90 1.341
607.00 1.341
607.10 1.342
607.20 1.342
607.30 1.342
607.40 1.342
607.50 1.342
607.60 1.342
607.70 1.342
607.80 1.342
607.90 1.343
608.00 1.343
608.10 1.343
608.20 1.343
608.30 1.343
608.40 1.343
608.50 1.343
608.60 1.343
608.70 1.343
608.80 1.344
608.90 1.344
609.00 1.344
609.10 1.344
609.20 1.344
609.30 1.344
609.40 1.344
609.50 1.344
609.60 1.344
609.70 1.345
609.80 1.345
609.90 1.345
610.00 1.345
610.10 1.345
610.20 1.345
610.30 1.345
610.40 1.345
610.50 1.345
610.60 1.345
610.70 1.346
610.80 1.346
610.90 1.346
611.00 1.346
611.10 1.346
611.20 1.346
611.30 1.346
611.40 1.346
611.50 1.346
611.60 1.346
611.70 1.347
611.80 1.347
611.90 1.347
612.00 1.347
612.10 1.347
612.20 1.347
612.30 1.347
612.40 1.347
612.50 1.347
612.60 1.347
612.70 1.347
612.80 1.348
612.90 1.348
613.00 1.348
613.10 1.348
613.20 1.348
613.30 1.348
613.40 1.348
613.50 1.348
613.60 1.348
613.70 1.348
613.80 1.348
613.90 1.348
614.00 1.349
614.10 1.349
614.20 1.349
614.30 1.349
614.40 1.349
614.50 1.349
614.60 1.349
614.70 1.349
614.80 1.349
614.90 1.349
615.00 1.349
615.10 1.349
615.20 1.349
615.30 1.35
615.40 1.35
615.50 1.35
615.60 1.35
615.70 1.35
615.80 1.35
615.90 1.35
616.00 1.35
616.10 1.35
616.20 1.35
616.30 1.35
616.40 1.35
616.50 1.35
616.60 1.35
616.70 1.35
616.80 1.351
616.90 1.351
617.00 1.351
617.10 1.351
617.20 1.351
617.30 1.351
617.40 1.351
617.50 1.351
617.60 1.351
617.70 1.351
617.80 1.351
617.90 1.351
618.00 1.351
618.10 1.351
618.20 1.351
618.30 1.351
618.40 1.351
618.50 1.351
618.60 1.352
618.70 1.352
618.80 1.352
618.90 1.352
619.00 1.352
619.10 1.352
619.20 1.352
619.30 1.352
619.40 1.352
619.50 1.352
619.60 1.352
619.70 1.352
619.80 1.352
619.90 1.352
620.00 1.352
620.10 1.352
620.20 1.352
620.30 1.352
620.40 1.352
620.50 1.352
620.60 1.352
620.70 1.352
620.80 1.352
620.90 1.352
621.00 1.353
621.10 1.353
621.20 1.353
621.30 1.353
621.40 1.353
621.50 1.353
621.60 1.353
621.70 1.353
621.80 1.353
621.90 1.353
622.00 1.353
622.10 1.353
622.20 1.353
622.30 1.353
622.40 1.353
622.50 1.353
622.60 1.353
622.70 1.353
622.80 1.353
622.90 1.353
623.00 1.353
623.10 1.353
623.20 1.353
623.30 1.353
623.40 1.353
623.50 1.353
623.60 1.353
623.70 1.353
623.80 1.353
623.90 1.353
624.00 1.353
624.10 1.353
624.20 1.353
624.30 1.353
624.40 1.353
624.50 1.353
624.60 1.353
624.70 1.353
624.80 1.353
624.90 1.353
625.00 1.353
625.10 1.353
625.20 1.353
625.30 1.353
625.40 1.353
625.50 1.353
625.60 1.353
625.70 1.353
625.80 1.353
625.90 1.353
626.00 1.353
626.10 1.353
626.20 1.353
626.30 1.353
626.40 1.353
626.50 1.353
626.60 1.353
626.70 1.353
626.80 1.353
626.90 1.353
627.00 1.353
627.10 1.353
627.20 1.353
627.30 1.353
627.40 1.353
627.50 1.353
627.60 1.353
627.70 1.353
627.80 1.353
627.90 1.353
628.00 1.353
628.10 1.353
628.20 1.353
628.30 1.353
628.40 1.353
628.50 1.353
628.60 1.353
628.70 1.353
628.80 1.353
628.90 1.353
629.00 1.353
629.10 1.353
629.20 1.353
629.30 1.353
629.40 1.353
629.50 1.353
629.60 1.353
629.70 1.353
629.80 1.353
629.90 1.353
630.00 1.353
630.10 1.353
630.20 1.353
630.30 1.352
630.40 1.352
630.50 1.352
630.60 1.352
630.70 1.352
630.80 1.352
630.90 1.352
631.00 1.352
631.10 1.352
631.20 1.352
631.30 1.352
631.40 1.352
631.50 1.352
631.60 1.352
631.70 1.352
631.80 1.352
631.90 1.352
632.00 1.352
632.10 1.352
632.20 1.352
632.30 1.352
632.40 1.352
632.50 1.351
632.60 1.351
632.70 1.351
632.80 1.351
632.90 1.351
633.00 1.351
633.10 1.351
633.20 1.351
633.30 1.351
633.40 1.351
633.50 1.351
633.60 1.351
633.70 1.351
633.80 1.351
633.90 1.351
634.00 1.351
634.10 1.35
634.20 1.35
634.30 1.35
634.40 1.35
634.50 1.35
634.60 1.35
634.70 1.35
634.80 1.35
634.90 1.35
635.00 1.35
635.10 1.35
635.20 1.35
635.30 1.35
635.40 1.35
635.50 1.349
635.60 1.349
635.70 1.349
635.80 1.349
635.90 1.349
636.00 1.349
636.10 1.349
636.20 1.349
636.30 1.349
636.40 1.349
636.50 1.349
636.60 1.348
636.70 1.348
636.80 1.348
636.90 1.348
637.00 1.348
637.10 1.348
637.20 1.348
637.30 1.348
637.40 1.348
637.50 1.348
637.60 1.348
637.70 1.347
637.80 1.347
637.90 1.347
638.00 1.347
638.10 1.347
638.20 1.347
638.30 1.347
638.40 1.347
638.50 1.347
638.60 1.346
638.70 1.346
638.80 1.346
638.90 1.346
639.00 1.346
639.10 1.346
639.20 1.346
639.30 1.346
639.40 1.346
639.50 1.345
639.60 1.345
639.70 1.345
639.80 1.345
639.90 1.345
640.00 1.345
640.10 1.345
640.20 1.345
640.30 1.344
640.40 1.344
640.50 1.344
640.60 1.344
640.70 1.344
640.80 1.344
640.90 1.344
641.00 1.344
641.10 1.343
641.20 1.343
641.30 1.343
641.40 1.343
641.50 1.343
641.60 1.343
641.70 1.343
641.80 1.342
641.90 1.342
642.00 1.342
642.10 1.342
642.20 1.342
642.30 1.342
642.40 1.342
642.50 1.341
642.60 1.341
642.70 1.341
642.80 1.341
642.90 1.341
643.00 1.341
643.10 1.34
643.20 1.34
643.30 1.34
643.40 1.34
643.50 1.34
643.60 1.34
643.70 1.339
643.80 1.339
643.90 1.339
644.00 1.339
644.10 1.339
644.20 1.339
644.30 1.338
644.40 1.338
644.50 1.338
644.60 1.338
644.70 1.338
644.80 1.338
644.90 1.337
645.00 1.337
645.10 1.337
645.20 1.337
645.30 1.337
645.40 1.337
645.50 1.336
645.60 1.336
645.70 1.336
645.80 1.336
645.90 1.336
646.00 1.335
646.10 1.335
646.20 1.335
646.30 1.335
646.40 1.335
646.50 1.334
646.60 1.334
646.70 1.334
646.80 1.334
646.90 1.334
647.00 1.334
647.10 1.333
647.20 1.333
647.30 1.333
647.40 1.333
647.50 1.333
647.60 1.332
647.70 1.332
647.80 1.332
647.90 1.332
648.00 1.331
648.10 1.331
648.20 1.331
648.30 1.331
648.40 1.331
648.50 1.33
648.60 1.33
648.70 1.33
648.80 1.33
648.90 1.33
649.00 1.329
649.10 1.329
649.20 1.329
649.30 1.329
649.40 1.328
649.50 1.328
649.60 1.328
649.70 1.328
649.80 1.328
649.90 1.327
650.00 1.327
650.10 1.327
650.20 1.327
650.30 1.326
650.40 1.326
650.50 1.326
650.60 1.326
650.70 1.325
650.80 1.325
650.90 1.325
651.00 1.325
651.10 1.324
651.20 1.324
651.30 1.324
651.40 1.324
651.50 1.323
651.60 1.323
651.70 1.323
651.80 1.323
651.90 1.322
652.00 1.322
652.10 1.322
652.20 1.322
652.30 1.321
652.40 1.321
652.50 1.321
652.60 1.321
652.70 1.32
652.80 1.32
652.90 1.32
653.00 1.319
653.10 1.319
653.20 1.319
653.30 1.319
653.40 1.318
653.50 1.318
653.60 1.318
653.70 1.318
653.80 1.317
653.90 1.317
654.00 1.317
654.10 1.316
654.20 1.316
654.30 1.316
654.40 1.316
654.50 1.315
654.60 1.315
654.70 1.315
654.80 1.314
654.90 1.314
655.00 1.314
655.10 1.314
655.20 1.313
655.30 1.313
655.40 1.313
655.50 1.312
655.60 1.312
655.70 1.312
655.80 1.311
655.90 1.311
656.00 1.311
656.10 1.311
656.20 1.31
656.30 1.31
656.40 1.31
656.50 1.309
656.60 1.309
656.70 1.309
656.80 1.308
656.90 1.308
657.00 1.308
657.10 1.307
657.20 1.307
657.30 1.307
657.40 1.306
657.50 1.306
657.60 1.306
657.70 1.305
657.80 1.305
657.90 1.305
658.00 1.304
658.10 1.304
658.20 1.304
658.30 1.303
658.40 1.303
658.50 1.303
658.60 1.302
658.70 1.302
658.80 1.302
658.90 1.301
659.00 1.301
659.10 1.301
659.20 1.3
659.30 1.3
659.40 1.3
659.50 1.299
659.60 1.299
659.70 1.299
659.80 1.298
659.90 1.298
660.00 1.297
660.10 1.297
660.20 1.297
660.30 1.296
660.40 1.296
660.50 1.296
660.60 1.295
660.70 1.295
660.80 1.295
660.90 1.294
661.00 1.294
661.10 1.293
661.20 1.293
661.30 1.293
661.40 1.292
661.50 1.292
661.60 1.292
661.70 1.291
661.80 1.291
661.90 1.29
662.00 1.29
662.10 1.29
662.20 1.289
662.30 1.289
662.40 1.288
662.50 1.288
662.60 1.288
662.70 1.287
662.80 1.287
662.90 1.286
663.00 1.286
663.10 1.286
663.20 1.285
663.30 1.285
663.40 1.284
663.50 1.284
663.60 1.284
663.70 1.283
663.80 1.283
663.90 1.282
664.00 1.282
664.10 1.281
664.20 1.281
664.30 1.281
664.40 1.28
664.50 1.28
664.60 1.279
664.70 1.279
664.80 1.279
664.90 1.278
665.00 1.278
665.10 1.277
665.20 1.277
665.30 1.276
665.40 1.276
665.50 1.275
665.60 1.275
665.70 1.275
665.80 1.274
665.90 1.274
666.00 1.273
666.10 1.273
666.20 1.272
666.30 1.272
666.40 1.271
666.50 1.271
666.60 1.271
666.70 1.27
666.80 1.27
666.90 1.269
667.00 1.269
667.10 1.268
667.20 1.268
667.30 1.267
667.40 1.267
667.50 1.266
667.60 1.266
667.70 1.265
667.80 1.265
667.90 1.264
668.00 1.264
668.10 1.263
668.20 1.263
668.30 1.263
668.40 1.262
668.50 1.262
668.60 1.261
668.70 1.261
668.80 1.26
668.90 1.26
669.00 1.259
669.10 1.259
669.20 1.258
669.30 1.258
669.40 1.257
669.50 1.257
669.60 1.256
669.70 1.256
669.80 1.255
669.90 1.255
670.00 1.254
670.10 1.254
670.20 1.253
670.30 1.253
670.40 1.252
670.50 1.251
670.60 1.251
670.70 1.25
670.80 1.25
670.90 1.249
671.00 1.249
671.10 1.248
671.20 1.248
671.30 1.247
671.40 1.247
671.50 1.246
671.60 1.246
671.70 1.245
671.80 1.245
671.90 1.244
672.00 1.243
672.10 1.243
672.20 1.242
672.30 1.242
672.40 1.241
672.50 1.241
672.60 1.24
672.70 1.24
672.80 1.239
672.90 1.238
673.00 1.238
673.10 1.237
673.20 1.237
673.30 1.236
673.40 1.236
673.50 1.235
673.60 1.235
673.70 1.234
673.80 1.233
673.90 1.233
674.00 1.232
674.10 1.232
674.20 1.231
674.30 1.231
674.40 1.23
674.50 1.229
674.60 1.229
674.70 1.228
674.80 1.228
674.90 1.227
675.00 1.226
675.10 1.226
675.20 1.225
675.30 1.225
675.40 1.224
675.50 1.223
675.60 1.223
675.70 1.222
675.80 1.222
675.90 1.221
676.00 1.22
676.10 1.22
676.20 1.219
676.30 1.219
676.40 1.218
676.50 1.217
676.60 1.217
676.70 1.216
676.80 1.215
676.90 1.215
677.00 1.214
677.10 1.214
677.20 1.213
677.30 1.212
677.40 1.212
677.50 1.211
677.60 1.21
677.70 1.21
677.80 1.209
677.90 1.208
678.00 1.208
678.10 1.207
678.20 1.207
678.30 1.206
678.40 1.205
678.50 1.205
678.60 1.204
678.70 1.203
678.80 1.203
678.90 1.202
679.00 1.201
679.10 1.201
679.20 1.2
679.30 1.199
679.40 1.199
679.50 1.198
679.60 1.197
679.70 1.197
679.80 1.196
679.90 1.195
680.00 1.195
680.10 1.194
680.20 1.193
680.30 1.193
680.40 1.192
680.50 1.191
680.60 1.19
680.70 1.19
680.80 1.189
680.90 1.188
681.00 1.188
681.10 1.187
681.20 1.186
681.30 1.186
681.40 1.185
681.50 1.184
681.60 1.183
681.70 1.183
681.80 1.182
681.90 1.181
682.00 1.181
682.10 1.18
682.20 1.179
682.30 1.178
682.40 1.178
682.50 1.177
682.60 1.176
682.70 1.176
682.80 1.175
682.90 1.174
683.00 1.173
683.10 1.173
683.20 1.172
683.30 1.171
683.40 1.17
683.50 1.17
683.60 1.169
683.70 1.168
683.80 1.167
683.90 1.167
684.00 1.166
684.10 1.165
684.20 1.164
684.30 1.164
684.40 1.163
684.50 1.162
684.60 1.161
684.70 1.161
684.80 1.16
684.90 1.159
685.00 1.158
685.10 1.158
685.20 1.157
685.30 1.156
685.40 1.155
685.50 1.154
685.60 1.154
685.70 1.153
685.80 1.152
685.90 1.151
686.00 1.151
686.10 1.15
686.20 1.149
686.30 1.148
686.40 1.147
686.50 1.147
686.60 1.146
686.70 1.145
686.80 1.144
686.90 1.143
687.00 1.143
687.10 1.142
687.20 1.141
687.30 1.14
687.40 1.139
687.50 1.139
687.60 1.138
687.70 1.137
687.80 1.136
687.90 1.135
688.00 1.134
688.10 1.134
688.20 1.133
688.30 1.132
688.40 1.131
688.50 1.13
688.60 1.13
688.70 1.129
688.80 1.128
688.90 1.127
689.00 1.126
689.10 1.125
689.20 1.125
689.30 1.124
689.40 1.123
689.50 1.122
689.60 1.121
689.70 1.12
689.80 1.119
689.90 1.118
690.00 1.117
690.10 1.116
690.20 1.116
690.30 1.115
690.40 1.114
690.50 1.113
690.60 1.112
690.70 1.111
690.80 1.11
690.90 1.109
691.00 1.108
691.10 1.107
691.20 1.107
691.30 1.106
691.40 1.105
691.50 1.104
691.60 1.103
691.70 1.102
691.80 1.101
691.90 1.1
692.00 1.099
692.10 1.099
692.20 1.098
692.30 1.097
692.40 1.096
692.50 1.095
692.60 1.094
692.70 1.093
692.80 1.092
692.90 1.091
693.00 1.091
693.10 1.09
693.20 1.089
693.30 1.088
693.40 1.087
693.50 1.086
693.60 1.085
693.70 1.084
693.80 1.083
693.90 1.083
694.00 1.082
694.10 1.081
694.20 1.08
694.30 1.079
694.40 1.078
694.50 1.077
694.60 1.076
694.70 1.075
694.80 1.075
694.90 1.074
695.00 1.073
695.10 1.072
695.20 1.071
695.30 1.07
695.40 1.069
695.50 1.068
695.60 1.067
695.70 1.066
695.80 1.065
695.90 1.064
696.00 1.063
696.10 1.062
696.20 1.061
696.30 1.06
696.40 1.059
696.50 1.058
696.60 1.057
696.70 1.056
696.80 1.056
696.90 1.055
697.00 1.054
697.10 1.053
697.20 1.052
697.30 1.051
697.40 1.05
697.50 1.049
697.60 1.048
697.70 1.047
697.80 1.046
697.90 1.045
698.00 1.044
698.10 1.043
698.20 1.042
698.30 1.041
698.40 1.04
698.50 1.039
698.60 1.038
698.70 1.037
698.80 1.036
698.90 1.036
699.00 1.035
699.10 1.034
699.20 1.033
699.30 1.032
699.40 1.031
699.50 1.03
699.60 1.029
699.70 1.028
699.80 1.027
699.90 1.026
700.00 1.025
700.10 1.024
700.20 1.023
700.30 1.022
700.40 1.021
700.50 1.02
700.60 1.019
700.70 1.018
700.80 1.017
700.90 1.016
701.00 1.015
701.10 1.014
701.20 1.013
701.30 1.012
701.40 1.011
701.50 1.01
701.60 1.009
701.70 1.008
701.80 1.007
701.90 1.006
702.00 1.005
702.10 1.004
702.20 1.003
702.30 1.002
702.40 1.001
702.50 0.9998
702.60 0.9988
702.70 0.9978
702.80 0.9968
702.90 0.9958
703.00 0.9948
703.10 0.9938
703.20 0.9928
703.30 0.9918
703.40 0.9908
703.50 0.9898
703.60 0.9888
703.70 0.9878
703.80 0.9868
703.90 0.9858
704.00 0.9848
704.10 0.9838
704.20 0.9828
704.30 0.9818
704.40 0.9808
704.50 0.9798
704.60 0.9788
704.70 0.9778
704.80 0.9768
704.90 0.9758
705.00 0.9749
705.10 0.9738
705.20 0.9728
705.30 0.9718
705.40 0.9707
705.50 0.9697
705.60 0.9687
705.70 0.9676
705.80 0.9666
705.90 0.9656
706.00 0.9646
706.10 0.9635
706.20 0.9625
706.30 0.9615
706.40 0.9605
706.50 0.9594
706.60 0.9584
706.70 0.9574
706.80 0.9564
706.90 0.9553
707.00 0.9543
707.10 0.9533
707.20 0.9523
707.30 0.9512
707.40 0.9502
707.50 0.9492
707.60 0.9482
707.70 0.9472
707.80 0.9462
707.90 0.9451
708.00 0.9441
708.10 0.9431
708.20 0.9421
708.30 0.9411
708.40 0.9401
708.50 0.939
708.60 0.938
708.70 0.937
708.80 0.936
708.90 0.935
709.00 0.934
709.10 0.933
709.20 0.932
709.30 0.9309
709.40 0.9299
709.50 0.9289
709.60 0.9279
709.70 0.9269
709.80 0.9259
709.90 0.9249
710.00 0.9239
710.10 0.9229
710.20 0.9218
710.30 0.9208
710.40 0.9198
710.50 0.9188
710.60 0.9178
710.70 0.9167
710.80 0.9157
710.90 0.9147
711.00 0.9137
711.10 0.9127
711.20 0.9116
711.30 0.9106
711.40 0.9096
711.50 0.9086
711.60 0.9076
711.70 0.9066
711.80 0.9055
711.90 0.9045
712.00 0.9035
712.10 0.9025
712.20 0.9015
712.30 0.9005
712.40 0.8995
712.50 0.8984
712.60 0.8974
712.70 0.8964
712.80 0.8954
712.90 0.8944
713.00 0.8934
713.10 0.8924
713.20 0.8914
713.30 0.8904
713.40 0.8894
713.50 0.8884
713.60 0.8874
713.70 0.8864
713.80 0.8853
713.90 0.8843
714.00 0.8833
714.10 0.8823
714.20 0.8813
714.30 0.8803
714.40 0.8793
714.50 0.8783
714.60 0.8773
714.70 0.8763
714.80 0.8753
714.90 0.8743
715.00 0.8733
715.10 0.8723
715.20 0.8713
715.30 0.8704
715.40 0.8694
715.50 0.8684
715.60 0.8674
715.70 0.8664
715.80 0.8654
715.90 0.8644
716.00 0.8634
716.10 0.8624
716.20 0.8615
716.30 0.8605
716.40 0.8595
716.50 0.8585
716.60 0.8575
716.70 0.8565
716.80 0.8555
716.90 0.8546
717.00 0.8536
717.10 0.8526
717.20 0.8516
717.30 0.8506
717.40 0.8497
717.50 0.8487
717.60 0.8477
717.70 0.8467
717.80 0.8457
717.90 0.8448
718.00 0.8438
718.10 0.8428
718.20 0.8418
718.30 0.8409
718.40 0.8399
718.50 0.8389
718.60 0.8379
718.70 0.837
718.80 0.836
718.90 0.835
719.00 0.834
719.10 0.8331
719.20 0.8321
719.30 0.8311
719.40 0.8302
719.50 0.8292
719.60 0.8282
719.70 0.8272
719.80 0.8263
719.90 0.8253
720.00 0.8243
720.10 0.8234
720.20 0.8225
720.30 0.8216
720.40 0.8207
720.50 0.8197
720.60 0.8188
720.70 0.8179
720.80 0.817
720.90 0.8161
721.00 0.8151
721.10 0.8142
721.20 0.8133
721.30 0.8124
721.40 0.8115
721.50 0.8105
721.60 0.8096
721.70 0.8087
721.80 0.8078
721.90 0.8069
722.00 0.806
722.10 0.8051
722.20 0.8041
722.30 0.8032
722.40 0.8023
722.50 0.8014
722.60 0.8005
722.70 0.7996
722.80 0.7987
722.90 0.7978
723.00 0.7969
723.10 0.796
723.20 0.795
723.30 0.7941
723.40 0.7932
723.50 0.7923
723.60 0.7914
723.70 0.7905
723.80 0.7896
723.90 0.7887
724.00 0.7878
724.10 0.7869
724.20 0.786
724.30 0.7851
724.40 0.7842
724.50 0.7833
724.60 0.7824
724.70 0.7815
724.80 0.7806
724.90 0.7797
725.00 0.7788
725.10 0.7779
725.20 0.7771
725.30 0.7763
725.40 0.7754
725.50 0.7746
725.60 0.7738
725.70 0.7729
725.80 0.7721
725.90 0.7713
726.00 0.7704
726.10 0.7696
726.20 0.7688
726.30 0.768
726.40 0.7671
726.50 0.7663
726.60 0.7655
726.70 0.7646
726.80 0.7638
726.90 0.763
727.00 0.7622
727.10 0.7613
727.20 0.7605
727.30 0.7597
727.40 0.7589
727.50 0.758
727.60 0.7572
727.70 0.7564
727.80 0.7556
727.90 0.7548
728.00 0.7539
728.10 0.7531
728.20 0.7523
728.30 0.7515
728.40 0.7507
728.50 0.7498
728.60 0.749
728.70 0.7482
728.80 0.7474
728.90 0.7466
729.00 0.7457
729.10 0.7449
729.20 0.7441
729.30 0.7433
729.40 0.7425
729.50 0.7417
729.60 0.7408
729.70 0.74
729.80 0.7392
729.90 0.7384
730.00 0.7376
730.10 0.7369
730.20 0.7362
730.30 0.7356
730.40 0.7349
730.50 0.7342
730.60 0.7336
730.70 0.7329
730.80 0.7322
730.90 0.7316
731.00 0.7309
731.10 0.7302
731.20 0.7296
731.30 0.7289
731.40 0.7282
731.50 0.7276
731.60 0.7269
731.70 0.7262
731.80 0.7256
731.90 0.7249
732.00 0.7242
732.10 0.7236
732.20 0.7229
732.30 0.7223
732.40 0.7216
732.50 0.7209
732.60 0.7203
732.70 0.7196
732.80 0.7189
732.90 0.7183
733.00 0.7176
733.10 0.717
733.20 0.7163
733.30 0.7156
733.40 0.715
733.50 0.7143
733.60 0.7137
733.70 0.713
733.80 0.7123
733.90 0.7117
734.00 0.711
734.10 0.7104
734.20 0.7097
734.30 0.7091
734.40 0.7084
734.50 0.7078
734.60 0.7071
734.70 0.7064
734.80 0.7058
734.90 0.7051
735.00 0.7045
735.10 0.7038
735.20 0.7032
735.30 0.7025
735.40 0.7019
735.50 0.7012
735.60 0.7006
735.70 0.6999
735.80 0.6993
735.90 0.6986
736.00 0.698
736.10 0.6973
736.20 0.6967
736.30 0.696
736.40 0.6954
736.50 0.6947
736.60 0.6941
736.70 0.6934
736.80 0.6928
736.90 0.6921
737.00 0.6915
737.10 0.6908
737.20 0.6902
737.30 0.6895
737.40 0.6889
737.50 0.6882
737.60 0.6876
737.70 0.6869
737.80 0.6863
737.90 0.6857
738.00 0.685
738.10 0.6844
738.20 0.6837
738.30 0.6831
738.40 0.6824
738.50 0.6818
738.60 0.6812
738.70 0.6805
738.80 0.6799
738.90 0.6792
739.00 0.6786
739.10 0.6779
739.20 0.6773
739.30 0.6767
739.40 0.676
739.50 0.6754
739.60 0.6747
739.70 0.6741
739.80 0.6735
739.90 0.6728
740.00 0.6722
740.10 0.6717
740.20 0.6713
740.30 0.6708
740.40 0.6704
740.50 0.6699
740.60 0.6695
740.70 0.669
740.80 0.6686
740.90 0.6681
741.00 0.6677
741.10 0.6672
741.20 0.6668
741.30 0.6663
741.40 0.6659
741.50 0.6654
741.60 0.665
741.70 0.6645
741.80 0.6641
741.90 0.6636
742.00 0.6632
742.10 0.6627
742.20 0.6623
742.30 0.6618
742.40 0.6614
742.50 0.6609
742.60 0.6605
742.70 0.66
742.80 0.6596
742.90 0.6591
743.00 0.6587
743.10 0.6582
743.20 0.6578
743.30 0.6574
743.40 0.6569
743.50 0.6565
743.60 0.656
743.70 0.6556
743.80 0.6551
743.90 0.6547
744.00 0.6542
744.10 0.6538
744.20 0.6533
744.30 0.6529
744.40 0.6525
744.50 0.652
744.60 0.6516
744.70 0.6511
744.80 0.6507
744.90 0.6502
745.00 0.6498
745.10 0.6494
745.20 0.6489
745.30 0.6485
745.40 0.648
745.50 0.6476
745.60 0.6471
745.70 0.6467
745.80 0.6463
745.90 0.6458
746.00 0.6454
746.10 0.6449
746.20 0.6445
746.30 0.6441
746.40 0.6436
746.50 0.6432
746.60 0.6427
746.70 0.6423
746.80 0.6419
746.90 0.6414
747.00 0.641
747.10 0.6406
747.20 0.6401
747.30 0.6397
747.40 0.6392
747.50 0.6388
747.60 0.6384
747.70 0.6379
747.80 0.6375
747.90 0.6371
748.00 0.6366
748.10 0.6362
748.20 0.6357
748.30 0.6353
748.40 0.6349
748.50 0.6344
748.60 0.634
748.70 0.6336
748.80 0.6331
748.90 0.6327
749.00 0.6323
749.10 0.6318
749.20 0.6314
749.30 0.631
749.40 0.6305
749.50 0.6301
749.60 0.6297
749.70 0.6292
749.80 0.6288
749.90 0.6284
750.00 0.6279
750.10 0.6276
750.20 0.6273
750.30 0.627
750.40 0.6267
750.50 0.6264
750.60 0.626
750.70 0.6257
750.80 0.6254
750.90 0.6251
751.00 0.6248
751.10 0.6245
751.20 0.6241
751.30 0.6238
751.40 0.6235
751.50 0.6232
751.60 0.6229
751.70 0.6226
751.80 0.6223
751.90 0.6219
752.00 0.6216
752.10 0.6213
752.20 0.621
752.30 0.6207
752.40 0.6204
752.50 0.6201
752.60 0.6198
752.70 0.6194
752.80 0.6191
752.90 0.6188
753.00 0.6185
753.10 0.6182
753.20 0.6179
753.30 0.6176
753.40 0.6173
753.50 0.6169
753.60 0.6166
753.70 0.6163
753.80 0.616
753.90 0.6157
754.00 0.6154
754.10 0.6151
754.20 0.6148
754.30 0.6145
754.40 0.6141
754.50 0.6138
754.60 0.6135
754.70 0.6132
754.80 0.6129
754.90 0.6126
755.00 0.6123
755.10 0.612
755.20 0.6117
755.30 0.6114
755.40 0.611
755.50 0.6107
755.60 0.6104
755.70 0.6101
755.80 0.6098
755.90 0.6095
756.00 0.6092
756.10 0.6089
756.20 0.6086
756.30 0.6083
756.40 0.608
756.50 0.6077
756.60 0.6073
756.70 0.607
756.80 0.6067
756.90 0.6064
757.00 0.6061
757.10 0.6058
757.20 0.6055
757.30 0.6052
757.40 0.6049
757.50 0.6046
757.60 0.6043
757.70 0.604
757.80 0.6037
757.90 0.6034
758.00 0.6031
758.10 0.6028
758.20 0.6024
758.30 0.6021
758.40 0.6018
758.50 0.6015
758.60 0.6012
758.70 0.6009
758.80 0.6006
758.90 0.6003
759.00 0.6
759.10 0.5997
759.20 0.5994
759.30 0.5991
759.40 0.5988
759.50 0.5985
759.60 0.5982
759.70 0.5979
759.80 0.5976
759.90 0.5973
760.00 0.597
760.10 0.5967
760.20 0.5965
760.30 0.5963
760.40 0.596
760.50 0.5958
760.60 0.5956
760.70 0.5953
760.80 0.5951
760.90 0.5949
761.00 0.5946
761.10 0.5944
761.20 0.5942
761.30 0.5939
761.40 0.5937
761.50 0.5935
761.60 0.5932
761.70 0.593
761.80 0.5928
761.90 0.5925
762.00 0.5923
762.10 0.5921
762.20 0.5918
762.30 0.5916
762.40 0.5914
762.50 0.5911
762.60 0.5909
762.70 0.5907
762.80 0.5904
762.90 0.5902
763.00 0.59
763.10 0.5897
763.20 0.5895
763.30 0.5893
763.40 0.589
763.50 0.5888
763.60 0.5886
763.70 0.5884
763.80 0.5881
763.90 0.5879
764.00 0.5877
764.10 0.5874
764.20 0.5872
764.30 0.587
764.40 0.5867
764.50 0.5865
764.60 0.5863
764.70 0.586
764.80 0.5858
764.90 0.5856
765.00 0.5854
765.10 0.5851
765.20 0.5849
765.30 0.5847
765.40 0.5844
765.50 0.5842
765.60 0.584
765.70 0.5838
765.80 0.5835
765.90 0.5833
766.00 0.5831
766.10 0.5828
766.20 0.5826
766.30 0.5824
766.40 0.5821
766.50 0.5819
766.60 0.5817
766.70 0.5815
766.80 0.5812
766.90 0.581
767.00 0.5808
767.10 0.5806
767.20 0.5803
767.30 0.5801
767.40 0.5799
767.50 0.5796
767.60 0.5794
767.70 0.5792
767.80 0.579
767.90 0.5787
768.00 0.5785
768.10 0.5783
768.20 0.5781
768.30 0.5778
768.40 0.5776
768.50 0.5774
768.60 0.5771
768.70 0.5769
768.80 0.5767
768.90 0.5765
769.00 0.5762
769.10 0.576
769.20 0.5758
769.30 0.5756
769.40 0.5753
769.50 0.5751
769.60 0.5749
769.70 0.5747
769.80 0.5744
769.90 0.5742
770.00 0.574
770.10 0.5738
770.20 0.5737
770.30 0.5736
770.40 0.5734
770.50 0.5733
770.60 0.5731
770.70 0.573
770.80 0.5729
770.90 0.5727
771.00 0.5726
771.10 0.5724
771.20 0.5723
771.30 0.5722
771.40 0.572
771.50 0.5719
771.60 0.5717
771.70 0.5716
771.80 0.5715
771.90 0.5713
772.00 0.5712
772.10 0.571
772.20 0.5709
772.30 0.5708
772.40 0.5706
772.50 0.5705
772.60 0.5703
772.70 0.5702
772.80 0.5701
772.90 0.5699
773.00 0.5698
773.10 0.5696
773.20 0.5695
773.30 0.5694
773.40 0.5692
773.50 0.5691
773.60 0.5689
773.70 0.5688
773.80 0.5687
773.90 0.5685
774.00 0.5684
774.10 0.5682
774.20 0.5681
774.30 0.568
774.40 0.5678
774.50 0.5677
774.60 0.5676
774.70 0.5674
774.80 0.5673
774.90 0.5671
775.00 0.567
775.10 0.5669
775.20 0.5667
775.30 0.5666
775.40 0.5664
775.50 0.5663
775.60 0.5662
775.70 0.566
775.80 0.5659
775.90 0.5658
776.00 0.5656
776.10 0.5655
776.20 0.5653
776.30 0.5652
776.40 0.5651
776.50 0.5649
776.60 0.5648
776.70 0.5647
776.80 0.5645
776.90 0.5644
777.00 0.5642
777.10 0.5641
777.20 0.564
777.30 0.5638
777.40 0.5637
777.50 0.5636
777.60 0.5634
777.70 0.5633
777.80 0.5631
777.90 0.563
778.00 0.5629
778.10 0.5627
778.20 0.5626
778.30 0.5625
778.40 0.5623
778.50 0.5622
778.60 0.562
778.70 0.5619
778.80 0.5618
778.90 0.5616
779.00 0.5615
779.10 0.5614
779.20 0.5612
779.30 0.5611
779.40 0.561
779.50 0.5608
779.60 0.5607
779.70 0.5605
779.80 0.5604
779.90 0.5603
780.00 0.5601
780.10 0.5601
780.20 0.5601
780.30 0.56
780.40 0.56
780.50 0.5599
780.60 0.5599
780.70 0.5599
780.80 0.5598
780.90 0.5598
781.00 0.5597
781.10 0.5597
781.20 0.5597
781.30 0.5596
781.40 0.5596
781.50 0.5595
781.60 0.5595
781.70 0.5595
781.80 0.5594
781.90 0.5594
782.00 0.5593
782.10 0.5593
782.20 0.5593
782.30 0.5592
782.40 0.5592
782.50 0.5591
782.60 0.5591
782.70 0.5591
782.80 0.559
782.90 0.559
783.00 0.5589
783.10 0.5589
783.20 0.5589
783.30 0.5588
783.40 0.5588
783.50 0.5587
783.60 0.5587
783.70 0.5587
783.80 0.5586
783.90 0.5586
784.00 0.5585
784.10 0.5585
784.20 0.5584
784.30 0.5584
784.40 0.5584
784.50 0.5583
784.60 0.5583
784.70 0.5582
784.80 0.5582
784.90 0.5582
785.00 0.5581
785.10 0.5581
785.20 0.558
785.30 0.558
785.40 0.558
785.50 0.5579
785.60 0.5579
785.70 0.5578
785.80 0.5578
785.90 0.5578
786.00 0.5577
786.10 0.5577
786.20 0.5576
786.30 0.5576
786.40 0.5576
786.50 0.5575
786.60 0.5575
786.70 0.5574
786.80 0.5574
786.90 0.5574
787.00 0.5573
787.10 0.5573
787.20 0.5572
787.30 0.5572
787.40 0.5572
787.50 0.5571
787.60 0.5571
787.70 0.557
787.80 0.557
787.90 0.557
788.00 0.5569
788.10 0.5569
788.20 0.5568
788.30 0.5568
788.40 0.5568
788.50 0.5567
788.60 0.5567
788.70 0.5566
788.80 0.5566
788.90 0.5566
789.00 0.5565
789.10 0.5565
789.20 0.5564
789.30 0.5564
789.40 0.5564
789.50 0.5563
789.60 0.5563
789.70 0.5562
789.80 0.5562
789.90 0.5562
790.00 0.5561
790.10 0.5561
790.20 0.5561
790.30 0.5561
790.40 0.5561
790.50 0.5561
790.60 0.5561
790.70 0.5561
790.80 0.5561
790.90 0.5561
791.00 0.5561
791.10 0.5561
791.20 0.5561
791.30 0.5561
791.40 0.556
791.50 0.556
791.60 0.556
791.70 0.556
791.80 0.556
791.90 0.556
792.00 0.556
792.10 0.556
792.20 0.556
792.30 0.556
792.40 0.556
792.50 0.556
792.60 0.556
792.70 0.556
792.80 0.556
792.90 0.556
793.00 0.556
793.10 0.556
793.20 0.556
793.30 0.5559
793.40 0.5559
793.50 0.5559
793.60 0.5559
793.70 0.5559
793.80 0.5559
793.90 0.5559
794.00 0.5559
794.10 0.5559
794.20 0.5559
794.30 0.5559
794.40 0.5559
794.50 0.5559
794.60 0.5559
794.70 0.5559
794.80 0.5559
794.90 0.5559
795.00 0.5559
795.10 0.5558
795.20 0.5558
795.30 0.5558
795.40 0.5558
795.50 0.5558
795.60 0.5558
795.70 0.5558
795.80 0.5558
795.90 0.5558
796.00 0.5558
796.10 0.5558
796.20 0.5558
796.30 0.5558
796.40 0.5558
796.50 0.5558
796.60 0.5558
796.70 0.5558
796.80 0.5557
796.90 0.5557
797.00 0.5557
797.10 0.5557
797.20 0.5557
797.30 0.5557
797.40 0.5557
797.50 0.5557
797.60 0.5557
797.70 0.5557
797.80 0.5557
797.90 0.5557
798.00 0.5557
798.10 0.5557
798.20 0.5557
798.30 0.5557
798.40 0.5556
798.50 0.5556
798.60 0.5556
798.70 0.5556
798.80 0.5556
798.90 0.5556
799.00 0.5556
799.10 0.5556
799.20 0.5556
799.30 0.5556
799.40 0.5556
799.50 0.5556
799.60 0.5556
799.70 0.5556
799.80 0.5556
799.90 0.5556
800.00 0.5555
800.10 0.5555
800.20 0.5554
800.30 0.5554
800.40 0.5553
800.50 0.5553
800.60 0.5552
800.70 0.5552
800.80 0.5551
800.90 0.5551
801.00 0.555
801.10 0.555
801.20 0.5549
801.30 0.5549
801.40 0.5548
801.50 0.5548
801.60 0.5547
801.70 0.5547
801.80 0.5546
801.90 0.5546
802.00 0.5545
802.10 0.5545
802.20 0.5544
802.30 0.5544
802.40 0.5543
802.50 0.5543
802.60 0.5542
802.70 0.5542
802.80 0.5541
802.90 0.5541
803.00 0.554
803.10 0.554
803.20 0.5539
803.30 0.5539
803.40 0.5538
803.50 0.5538
803.60 0.5537
803.70 0.5536
803.80 0.5536
803.90 0.5535
804.00 0.5535
804.10 0.5534
804.20 0.5534
804.30 0.5533
804.40 0.5533
804.50 0.5532
804.60 0.5532
804.70 0.5531
804.80 0.5531
804.90 0.553
805.00 0.553
805.10 0.5529
805.20 0.5529
805.30 0.5528
805.40 0.5528
805.50 0.5527
805.60 0.5527
805.70 0.5526
805.80 0.5526
805.90 0.5525
806.00 0.5525
806.10 0.5524
806.20 0.5524
806.30 0.5523
806.40 0.5523
806.50 0.5522
806.60 0.5522
806.70 0.5521
806.80 0.5521
806.90 0.552
807.00 0.552
807.10 0.5519
807.20 0.5519
807.30 0.5518
807.40 0.5518
807.50 0.5517
807.60 0.5517
807.70 0.5516
807.80 0.5516
807.90 0.5515
808.00 0.5515
808.10 0.5514
808.20 0.5514
808.30 0.5513
808.40 0.5513
808.50 0.5512
808.60 0.5511
808.70 0.5511
808.80 0.551
808.90 0.551
809.00 0.5509
809.10 0.5509
809.20 0.5508
809.30 0.5508
809.40 0.5507
809.50 0.5507
809.60 0.5506
809.70 0.5506
809.80 0.5505
809.90 0.5505
810.00 0.5504
810.10 0.5503
810.20 0.5502
810.30 0.5501
810.40 0.55
810.50 0.5499
810.60 0.5498
810.70 0.5496
810.80 0.5495
810.90 0.5494
811.00 0.5493
811.10 0.5492
811.20 0.5491
811.30 0.549
811.40 0.5489
811.50 0.5487
811.60 0.5486
811.70 0.5485
811.80 0.5484
811.90 0.5483
812.00 0.5482
812.10 0.5481
812.20 0.548
812.30 0.5478
812.40 0.5477
812.50 0.5476
812.60 0.5475
812.70 0.5474
812.80 0.5473
812.90 0.5472
813.00 0.5471
813.10 0.5469
813.20 0.5468
813.30 0.5467
813.40 0.5466
813.50 0.5465
813.60 0.5464
813.70 0.5463
813.80 0.5462
813.90 0.546
814.00 0.5459
814.10 0.5458
814.20 0.5457
814.30 0.5456
814.40 0.5455
814.50 0.5454
814.60 0.5453
814.70 0.5451
814.80 0.545
814.90 0.5449
815.00 0.5448
815.10 0.5447
815.20 0.5446
815.30 0.5445
815.40 0.5444
815.50 0.5443
815.60 0.5441
815.70 0.544
815.80 0.5439
815.90 0.5438
816.00 0.5437
816.10 0.5436
816.20 0.5435
816.30 0.5434
816.40 0.5433
816.50 0.5431
816.60 0.543
816.70 0.5429
816.80 0.5428
816.90 0.5427
817.00 0.5426
817.10 0.5425
817.20 0.5424
817.30 0.5423
817.40 0.5421
817.50 0.542
817.60 0.5419
817.70 0.5418
817.80 0.5417
817.90 0.5416
818.00 0.5415
818.10 0.5414
818.20 0.5413
818.30 0.5412
818.40 0.541
818.50 0.5409
818.60 0.5408
818.70 0.5407
818.80 0.5406
818.90 0.5405
819.00 0.5404
819.10 0.5403
819.20 0.5402
819.30 0.5401
819.40 0.5399
819.50 0.5398
819.60 0.5397
819.70 0.5396
819.80 0.5395
819.90 0.5394
820.00 0.5393
820.10 0.5392
820.20 0.539
820.30 0.5389
820.40 0.5388
820.50 0.5386
820.60 0.5385
820.70 0.5384
820.80 0.5383
820.90 0.5381
821.00 0.538
821.10 0.5379
821.20 0.5377
821.30 0.5376
821.40 0.5375
821.50 0.5373
821.60 0.5372
821.70 0.5371
821.80 0.5369
821.90 0.5368
822.00 0.5367
822.10 0.5365
822.20 0.5364
822.30 0.5363
822.40 0.5361
822.50 0.536
822.60 0.5358
822.70 0.5357
822.80 0.5355
822.90 0.5354
823.00 0.5353
823.10 0.5351
823.20 0.535
823.30 0.5348
823.40 0.5347
823.50 0.5346
823.60 0.5344
823.70 0.5343
823.80 0.5341
823.90 0.534
824.00 0.5339
824.10 0.5337
824.20 0.5336
824.30 0.5334
824.40 0.5333
824.50 0.5332
824.60 0.533
824.70 0.5329
824.80 0.5327
824.90 0.5326
825.00 0.5325
825.10 0.5323
825.20 0.5322
825.30 0.532
825.40 0.5319
825.50 0.5318
825.60 0.5316
825.70 0.5315
825.80 0.5313
825.90 0.5312
826.00 0.5311
826.10 0.5309
826.20 0.5308
826.30 0.5306
826.40 0.5305
826.50 0.5304
826.60 0.5302
826.70 0.5301
826.80 0.5299
826.90 0.5298
827.00 0.5297
827.10 0.5295
827.20 0.5294
827.30 0.5292
827.40 0.5291
827.50 0.5289
827.60 0.5288
827.70 0.5286
827.80 0.5285
827.90 0.5283
828.00 0.5282
828.10 0.5281
828.20 0.5279
828.30 0.5278
828.40 0.5276
828.50 0.5275
828.60 0.5273
828.70 0.5272
828.80 0.527
828.90 0.5269
829.00 0.5267
829.10 0.5266
829.20 0.5265
829.30 0.5263
829.40 0.5262
829.50 0.526
829.60 0.5259
829.70 0.5257
829.80 0.5256
829.90 0.5254
830.00 0.5253
830.10 0.5251
830.20 0.525
830.30 0.5249
830.40 0.5247
830.50 0.5246
830.60 0.5244
830.70 0.5243
830.80 0.5241
830.90 0.524
831.00 0.5238
831.10 0.5237
831.20 0.5236
831.30 0.5234
831.40 0.5233
831.50 0.5231
831.60 0.523
831.70 0.5228
831.80 0.5227
831.90 0.5226
832.00 0.5224
832.10 0.5223
832.20 0.5221
832.30 0.522
832.40 0.5218
832.50 0.5217
832.60 0.5215
832.70 0.5214
832.80 0.5212
832.90 0.5211
833.00 0.521
833.10 0.5208
833.20 0.5207
833.30 0.5205
833.40 0.5204
833.50 0.5202
833.60 0.5201
833.70 0.5199
833.80 0.5198
833.90 0.5196
834.00 0.5195
834.10 0.5194
834.20 0.5192
834.30 0.5191
834.40 0.5189
834.50 0.5188
834.60 0.5186
834.70 0.5185
834.80 0.5183
834.90 0.5182
835.00 0.5181
835.10 0.5179
835.20 0.5178
835.30 0.5176
835.40 0.5175
835.50 0.5173
835.60 0.5172
835.70 0.5171
835.80 0.5169
835.90 0.5168
836.00 0.5166
836.10 0.5165
836.20 0.5163
836.30 0.5162
836.40 0.516
836.50 0.5159
836.60 0.5158
836.70 0.5156
836.80 0.5155
836.90 0.5153
837.00 0.5152
837.10 0.515
837.20 0.5149
837.30 0.5147
837.40 0.5146
837.50 0.5145
837.60 0.5143
837.70 0.5142
837.80 0.514
837.90 0.5139
838.00 0.5137
838.10 0.5136
838.20 0.5134
838.30 0.5133
838.40 0.5131
838.50 0.513
838.60 0.5129
838.70 0.5127
838.80 0.5126
838.90 0.5124
839.00 0.5123
839.10 0.5121
839.20 0.512
839.30 0.5118
839.40 0.5117
839.50 0.5116
839.60 0.5114
839.70 0.5113
839.80 0.5111
839.90 0.511
840.00 0.5108
840.10 0.5107
840.20 0.5105
840.30 0.5104
840.40 0.5103
840.50 0.5101
840.60 0.51
840.70 0.5098
840.80 0.5097
840.90 0.5095
841.00 0.5094
841.10 0.5092
841.20 0.5091
841.30 0.509
841.40 0.5088
841.50 0.5087
841.60 0.5085
841.70 0.5084
841.80 0.5082
841.90 0.5081
842.00 0.508
842.10 0.5078
842.20 0.5077
842.30 0.5075
842.40 0.5074
842.50 0.5072
842.60 0.5071
842.70 0.5069
842.80 0.5068
842.90 0.5066
843.00 0.5065
843.10 0.5064
843.20 0.5062
843.30 0.5061
843.40 0.5059
843.50 0.5058
843.60 0.5056
843.70 0.5055
843.80 0.5053
843.90 0.5052
844.00 0.5051
844.10 0.5049
844.20 0.5048
844.30 0.5046
844.40 0.5045
844.50 0.5043
844.60 0.5042
844.70 0.504
844.80 0.5039
844.90 0.5038
845.00 0.5036
845.10 0.5035
845.20 0.5033
845.30 0.5032
845.40 0.503
845.50 0.5029
845.60 0.5028
845.70 0.5026
845.80 0.5025
845.90 0.5023
846.00 0.5022
846.10 0.502
846.20 0.5019
846.30 0.5017
846.40 0.5016
846.50 0.5015
846.60 0.5013
846.70 0.5012
846.80 0.501
846.90 0.5009
847.00 0.5007
847.10 0.5006
847.20 0.5005
847.30 0.5003
847.40 0.5002
847.50 0.5
847.60 0.4999
847.70 0.4997
847.80 0.4996
847.90 0.4994
848.00 0.4993
848.10 0.4991
848.20 0.499
848.30 0.4988
848.40 0.4987
848.50 0.4985
848.60 0.4984
848.70 0.4982
848.80 0.4981
848.90 0.4979
849.00 0.4978
849.10 0.4977
849.20 0.4975
849.30 0.4974
849.40 0.4972
849.50 0.4971
849.60 0.4969
849.70 0.4968
849.80 0.4966
849.90 0.4965
850.00 0.4963
850.10 0.4962
850.20 0.496
850.30 0.4959
850.40 0.4957
850.50 0.4956
850.60 0.4955
850.70 0.4953
850.80 0.4952
850.90 0.495
851.00 0.4949
851.10 0.4947
851.20 0.4946
851.30 0.4944
851.40 0.4943
851.50 0.4941
851.60 0.494
851.70 0.4939
851.80 0.4937
851.90 0.4936
852.00 0.4934
852.10 0.4933
852.20 0.4931
852.30 0.493
852.40 0.4928
852.50 0.4927
852.60 0.4925
852.70 0.4923
852.80 0.4922
852.90 0.492
853.00 0.4919
853.10 0.4917
853.20 0.4916
853.30 0.4914
853.40 0.4913
853.50 0.4911
853.60 0.491
853.70 0.4908
853.80 0.4907
853.90 0.4905
854.00 0.4904
854.10 0.4902
854.20 0.4901
854.30 0.4899
854.40 0.4898
854.50 0.4896
854.60 0.4895
854.70 0.4893
854.80 0.4892
854.90 0.489
855.00 0.4889
855.10 0.4887
855.20 0.4885
855.30 0.4884
855.40 0.4882
855.50 0.4881
855.60 0.4879
855.70 0.4878
855.80 0.4876
855.90 0.4875
856.00 0.4873
856.10 0.4872
856.20 0.487
856.30 0.4869
856.40 0.4867
856.50 0.4866
856.60 0.4864
856.70 0.4863
856.80 0.4861
856.90 0.486
857.00 0.4858
857.10 0.4857
857.20 0.4855
857.30 0.4854
857.40 0.4852
857.50 0.4851
857.60 0.4849
857.70 0.4847
857.80 0.4846
857.90 0.4844
858.00 0.4843
858.10 0.4841
858.20 0.484
858.30 0.4838
858.40 0.4836
858.50 0.4835
858.60 0.4833
858.70 0.4832
858.80 0.483
858.90 0.4829
859.00 0.4827
859.10 0.4825
859.20 0.4824
859.30 0.4822
859.40 0.4821
859.50 0.4819
859.60 0.4818
859.70 0.4816
859.80 0.4815
859.90 0.4813
860.00 0.4811
860.10 0.481
860.20 0.4808
860.30 0.4807
860.40 0.4805
860.50 0.4804
860.60 0.4802
860.70 0.48
860.80 0.4799
860.90 0.4797
861.00 0.4796
861.10 0.4794
861.20 0.4793
861.30 0.4791
861.40 0.479
861.50 0.4788
861.60 0.4787
861.70 0.4785
861.80 0.4783
861.90 0.4782
862.00 0.478
862.10 0.4779
862.20 0.4777
862.30 0.4775
862.40 0.4774
862.50 0.4772
862.60 0.4771
862.70 0.4769
862.80 0.4767
862.90 0.4766
863.00 0.4764
863.10 0.4762
863.20 0.4761
863.30 0.4759
863.40 0.4757
863.50 0.4756
863.60 0.4754
863.70 0.4753
863.80 0.4751
863.90 0.4749
864.00 0.4748
864.10 0.4746
864.20 0.4744
864.30 0.4743
864.40 0.4741
864.50 0.474
864.60 0.4738
864.70 0.4736
864.80 0.4735
864.90 0.4733
865.00 0.4731
865.10 0.473
865.20 0.4728
865.30 0.4727
865.40 0.4725
865.50 0.4723
865.60 0.4722
865.70 0.472
865.80 0.4719
865.90 0.4717
866.00 0.4715
866.10 0.4714
866.20 0.4712
866.30 0.471
866.40 0.4709
866.50 0.4707
866.60 0.4706
866.70 0.4704
866.80 0.4702
866.90 0.4701
867.00 0.4699
867.10 0.4697
867.20 0.4696
867.30 0.4694
867.40 0.4692
867.50 0.469
867.60 0.4689
867.70 0.4687
867.80 0.4685
867.90 0.4683
868.00 0.4682
868.10 0.468
868.20 0.4678
868.30 0.4676
868.40 0.4675
868.50 0.4673
868.60 0.4671
868.70 0.4669
868.80 0.4668
868.90 0.4666
869.00 0.4664
869.10 0.4662
869.20 0.4661
869.30 0.4659
869.40 0.4657
869.50 0.4655
869.60 0.4654
869.70 0.4652
869.80 0.465
869.90 0.4649
870.00 0.4647
870.10 0.4645
870.20 0.4643
870.30 0.4642
870.40 0.464
870.50 0.4638
870.60 0.4636
870.70 0.4635
870.80 0.4633
870.90 0.4631
871.00 0.4629
871.10 0.4628
871.20 0.4626
871.30 0.4624
871.40 0.4623
871.50 0.4621
871.60 0.4619
871.70 0.4617
871.80 0.4616
871.90 0.4614
872.00 0.4612
872.10 0.461
872.20 0.4608
872.30 0.4607
872.40 0.4605
872.50 0.4603
872.60 0.4601
872.70 0.4599
872.80 0.4597
872.90 0.4595
873.00 0.4594
873.10 0.4592
873.20 0.459
873.30 0.4588
873.40 0.4586
873.50 0.4584
873.60 0.4582
873.70 0.4581
873.80 0.4579
873.90 0.4577
874.00 0.4575
874.10 0.4573
874.20 0.4571
874.30 0.4569
874.40 0.4568
874.50 0.4566
874.60 0.4564
874.70 0.4562
874.80 0.456
874.90 0.4558
875.00 0.4557
875.10 0.4555
875.20 0.4553
875.30 0.4551
875.40 0.4549
875.50 0.4547
875.60 0.4546
875.70 0.4544
875.80 0.4542
875.90 0.454
876.00 0.4538
876.10 0.4536
876.20 0.4535
876.30 0.4533
876.40 0.4531
876.50 0.4529
876.60 0.4527
876.70 0.4525
876.80 0.4524
876.90 0.4522
877.00 0.452
877.10 0.4518
877.20 0.4516
877.30 0.4514
877.40 0.4512
877.50 0.451
877.60 0.4508
877.70 0.4506
877.80 0.4504
877.90 0.4502
878.00 0.45
878.10 0.4498
878.20 0.4496
878.30 0.4494
878.40 0.4492
878.50 0.449
878.60 0.4488
878.70 0.4486
878.80 0.4484
878.90 0.4482
879.00 0.448
879.10 0.4478
879.20 0.4476
879.30 0.4474
879.40 0.4472
879.50 0.447
879.60 0.4468
879.70 0.4466
879.80 0.4464
879.90 0.4462
880.00 0.446
880.10 0.4458
880.20 0.4456
880.30 0.4454
880.40 0.4452
880.50 0.445
880.60 0.4448
880.70 0.4446
880.80 0.4444
880.90 0.4442
881.00 0.444
881.10 0.4438
881.20 0.4436
881.30 0.4434
881.40 0.4433
881.50 0.4431
881.60 0.4429
881.70 0.4427
881.80 0.4425
881.90 0.4423
882.00 0.4421
882.10 0.4419
882.20 0.4416
882.30 0.4414
882.40 0.4412
882.50 0.441
882.60 0.4408
882.70 0.4406
882.80 0.4404
882.90 0.4401
883.00 0.4399
883.10 0.4397
883.20 0.4395
883.30 0.4393
883.40 0.4391
883.50 0.4389
883.60 0.4386
883.70 0.4384
883.80 0.4382
883.90 0.438
884.00 0.4378
884.10 0.4376
884.20 0.4374
884.30 0.4372
884.40 0.4369
884.50 0.4367
884.60 0.4365
884.70 0.4363
884.80 0.4361
884.90 0.4359
885.00 0.4357
885.10 0.4355
885.20 0.4352
885.30 0.435
885.40 0.4348
885.50 0.4346
885.60 0.4344
885.70 0.4342
885.80 0.434
885.90 0.4338
886.00 0.4336
886.10 0.4333
886.20 0.4331
886.30 0.4329
886.40 0.4327
886.50 0.4325
886.60 0.4323
886.70 0.4321
886.80 0.4319
886.90 0.4317
887.00 0.4314
887.10 0.4312
887.20 0.431
887.30 0.4308
887.40 0.4305
887.50 0.4303
887.60 0.4301
887.70 0.4299
887.80 0.4296
887.90 0.4294
888.00 0.4292
888.10 0.429
888.20 0.4287
888.30 0.4285
888.40 0.4283
888.50 0.428
888.60 0.4278
888.70 0.4276
888.80 0.4274
888.90 0.4271
889.00 0.4269
889.10 0.4267
889.20 0.4265
889.30 0.4262
889.40 0.426
889.50 0.4258
889.60 0.4256
889.70 0.4253
889.80 0.4251
889.90 0.4249
890.00 0.4247
890.10 0.4244
890.20 0.4242
890.30 0.424
890.40 0.4238
890.50 0.4236
890.60 0.4233
890.70 0.4231
890.80 0.4229
890.90 0.4227
891.00 0.4224
891.10 0.4222
891.20 0.422
891.30 0.4218
891.40 0.4215
891.50 0.4213
891.60 0.4211
891.70 0.4209
891.80 0.4206
891.90 0.4204
892.00 0.4202
892.10 0.42
892.20 0.4197
892.30 0.4195
892.40 0.4192
892.50 0.419
892.60 0.4187
892.70 0.4185
892.80 0.4182
892.90 0.418
893.00 0.4178
893.10 0.4175
893.20 0.4173
893.30 0.417
893.40 0.4168
893.50 0.4165
893.60 0.4163
893.70 0.4161
893.80 0.4158
893.90 0.4156
894.00 0.4153
894.10 0.4151
894.20 0.4148
894.30 0.4146
894.40 0.4144
894.50 0.4141
894.60 0.4139
894.70 0.4136
894.80 0.4134
894.90 0.4131
895.00 0.4129
895.10 0.4127
895.20 0.4124
895.30 0.4122
895.40 0.4119
895.50 0.4117
895.60 0.4114
895.70 0.4112
895.80 0.411
895.90 0.4107
896.00 0.4105
896.10 0.4102
896.20 0.41
896.30 0.4098
896.40 0.4095
896.50 0.4093
896.60 0.409
896.70 0.4088
896.80 0.4086
896.90 0.4083
897.00 0.4081
897.10 0.4078
897.20 0.4076
897.30 0.4073
897.40 0.4071
897.50 0.4068
897.60 0.4066
897.70 0.4063
897.80 0.4061
897.90 0.4058
898.00 0.4056
898.10 0.4053
898.20 0.4051
898.30 0.4048
898.40 0.4046
898.50 0.4043
898.60 0.4041
898.70 0.4038
898.80 0.4036
898.90 0.4033
899.00 0.4031
899.10 0.4028
899.20 0.4026
899.30 0.4023
899.40 0.4021
899.50 0.4018
899.60 0.4016
899.70 0.4013
899.80 0.4011
899.90 0.4008
900.00 0.4006
900.10 0.4003
900.20 0.4001
900.30 0.3998
900.40 0.3996
900.50 0.3993
900.60 0.3991
900.70 0.3988
900.80 0.3986
900.90 0.3983
901.00 0.3981
901.10 0.3979
901.20 0.3976
901.30 0.3974
901.40 0.3971
901.50 0.3969
901.60 0.3966
901.70 0.3964
901.80 0.3961
901.90 0.3959
902.00 0.3956
902.10 0.3954
902.20 0.3951
902.30 0.3949
902.40 0.3946
902.50 0.3944
902.60 0.3941
902.70 0.3939
902.80 0.3936
902.90 0.3934
903.00 0.3931
903.10 0.3929
903.20 0.3926
903.30 0.3924
903.40 0.3921
903.50 0.3919
903.60 0.3916
903.70 0.3914
903.80 0.3911
903.90 0.3909
904.00 0.3906
904.10 0.3904
904.20 0.3901
904.30 0.3899
904.40 0.3896
904.50 0.3894
904.60 0.3891
904.70 0.3889
904.80 0.3886
904.90 0.3884
905.00 0.3881
905.10 0.3879
905.20 0.3876
905.30 0.3874
905.40 0.3871
905.50 0.3869
905.60 0.3866
905.70 0.3864
905.80 0.3861
905.90 0.3859
906.00 0.3856
906.10 0.3854
906.20 0.3852
906.30 0.3849
906.40 0.3847
906.50 0.3844
906.60 0.3842
906.70 0.3839
906.80 0.3837
906.90 0.3834
907.00 0.3832
907.10 0.3829
907.20 0.3826
907.30 0.3824
907.40 0.3821
907.50 0.3818
907.60 0.3816
907.70 0.3813
907.80 0.381
907.90 0.3808
908.00 0.3805
908.10 0.3802
908.20 0.38
908.30 0.3797
908.40 0.3794
908.50 0.3792
908.60 0.3789
908.70 0.3786
908.80 0.3784
908.90 0.3781
909.00 0.3778
909.10 0.3776
909.20 0.3773
909.30 0.377
909.40 0.3768
909.50 0.3765
909.60 0.3763
909.70 0.376
909.80 0.3757
909.90 0.3755
910.00 0.3752
910.10 0.3749
910.20 0.3747
910.30 0.3744
910.40 0.3741
910.50 0.3739
910.60 0.3736
910.70 0.3733
910.80 0.3731
910.90 0.3728
911.00 0.3726
911.10 0.3723
911.20 0.372
911.30 0.3718
911.40 0.3715
911.50 0.3712
911.60 0.371
911.70 0.3707
911.80 0.3705
911.90 0.3702
912.00 0.3699
912.10 0.3696
912.20 0.3694
912.30 0.3691
912.40 0.3688
912.50 0.3685
912.60 0.3682
912.70 0.368
912.80 0.3677
912.90 0.3674
913.00 0.3671
913.10 0.3668
913.20 0.3666
913.30 0.3663
913.40 0.366
913.50 0.3657
913.60 0.3654
913.70 0.3652
913.80 0.3649
913.90 0.3646
914.00 0.3643
914.10 0.364
914.20 0.3638
914.30 0.3635
914.40 0.3632
914.50 0.3629
914.60 0.3627
914.70 0.3624
914.80 0.3621
914.90 0.3618
915.00 0.3615
915.10 0.3613
915.20 0.361
915.30 0.3607
915.40 0.3604
915.50 0.3602
915.60 0.3599
915.70 0.3596
915.80 0.3593
915.90 0.359
916.00 0.3588
916.10 0.3585
916.20 0.3582
916.30 0.3579
916.40 0.3577
916.50 0.3574
916.60 0.3571
916.70 0.3568
916.80 0.3566
916.90 0.3563
917.00 0.356
917.10 0.3557
917.20 0.3554
917.30 0.3552
917.40 0.3549
917.50 0.3546
917.60 0.3543
917.70 0.354
917.80 0.3537
917.90 0.3535
918.00 0.3532
918.10 0.3529
918.20 0.3526
918.30 0.3523
918.40 0.3521
918.50 0.3518
918.60 0.3515
918.70 0.3512
918.80 0.3509
918.90 0.3507
919.00 0.3504
919.10 0.3501
919.20 0.3498
919.30 0.3495
919.40 0.3493
919.50 0.349
919.60 0.3487
919.70 0.3484
919.80 0.3481
919.90 0.3479
920.00 0.3476
920.10 0.3473
920.20 0.347
920.30 0.3467
920.40 0.3465
920.50 0.3462
920.60 0.3459
920.70 0.3456
920.80 0.3453
920.90 0.3451
921.00 0.3448
921.10 0.3445
921.20 0.3442
921.30 0.344
921.40 0.3437
921.50 0.3434
921.60 0.3431
921.70 0.3428
921.80 0.3426
921.90 0.3423
922.00 0.342
922.10 0.3417
922.20 0.3414
922.30 0.3412
922.40 0.3409
922.50 0.3406
922.60 0.3403
922.70 0.34
922.80 0.3397
922.90 0.3395
923.00 0.3392
923.10 0.3389
923.20 0.3386
923.30 0.3383
923.40 0.338
923.50 0.3378
923.60 0.3375
923.70 0.3372
923.80 0.3369
923.90 0.3366
924.00 0.3363
924.10 0.3361
924.20 0.3358
924.30 0.3355
924.40 0.3352
924.50 0.3349
924.60 0.3346
924.70 0.3344
924.80 0.3341
924.90 0.3338
925.00 0.3335
925.10 0.3332
925.20 0.333
925.30 0.3327
925.40 0.3324
925.50 0.3321
925.60 0.3318
925.70 0.3316
925.80 0.3313
925.90 0.331
926.00 0.3307
926.10 0.3304
926.20 0.3302
926.30 0.3299
926.40 0.3296
926.50 0.3293
926.60 0.329
926.70 0.3288
926.80 0.3285
926.90 0.3282
927.00 0.3279
927.10 0.3276
927.20 0.3274
927.30 0.3271
927.40 0.3268
927.50 0.3265
927.60 0.3262
927.70 0.3259
927.80 0.3256
927.90 0.3253
928.00 0.3251
928.10 0.3248
928.20 0.3245
928.30 0.3242
928.40 0.3239
928.50 0.3236
928.60 0.3234
928.70 0.3231
928.80 0.3228
928.90 0.3225
929.00 0.3222
929.10 0.3219
929.20 0.3216
929.30 0.3214
929.40 0.3211
929.50 0.3208
929.60 0.3205
929.70 0.3202
929.80 0.3199
929.90 0.3197
930.00 0.3194
930.10 0.3191
930.20 0.3188
930.30 0.3185
930.40 0.3182
930.50 0.318
930.60 0.3177
930.70 0.3174
930.80 0.3171
930.90 0.3168
931.00 0.3166
931.10 0.3163
931.20 0.316
931.30 0.3157
931.40 0.3154
931.50 0.3151
931.60 0.3149
931.70 0.3146
931.80 0.3143
931.90 0.314
932.00 0.3137
932.10 0.3135
932.20 0.3132
932.30 0.3129
932.40 0.3126
932.50 0.3123
932.60 0.312
932.70 0.3118
932.80 0.3115
932.90 0.3112
933.00 0.3109
933.10 0.3106
933.20 0.3103
933.30 0.3101
933.40 0.3098
933.50 0.3095
933.60 0.3092
933.70 0.3089
933.80 0.3087
933.90 0.3084
934.00 0.3081
934.10 0.3078
934.20 0.3075
934.30 0.3072
934.40 0.307
934.50 0.3067
934.60 0.3064
934.70 0.3061
934.80 0.3058
934.90 0.3056
935.00 0.3053
935.10 0.305
935.20 0.3047
935.30 0.3044
935.40 0.3041
935.50 0.3039
935.60 0.3036
935.70 0.3033
935.80 0.303
935.90 0.3027
936.00 0.3025
936.10 0.3022
936.20 0.3019
936.30 0.3016
936.40 0.3013
936.50 0.3011
936.60 0.3008
936.70 0.3005
936.80 0.3002
936.90 0.2999
937.00 0.2997
937.10 0.2994
937.20 0.2991
937.30 0.2988
937.40 0.2985
937.50 0.2983
937.60 0.298
937.70 0.2977
937.80 0.2974
937.90 0.2971
938.00 0.2969
938.10 0.2966
938.20 0.2963
938.30 0.296
938.40 0.2957
938.50 0.2955
938.60 0.2952
938.70 0.2949
938.80 0.2946
938.90 0.2943
939.00 0.294
939.10 0.2938
939.20 0.2935
939.30 0.2932
939.40 0.2929
939.50 0.2926
939.60 0.2923
939.70 0.2921
939.80 0.2918
939.90 0.2915
940.00 0.2912
940.10 0.2909
940.20 0.2907
940.30 0.2904
940.40 0.2901
940.50 0.2898
940.60 0.2895
940.70 0.2893
940.80 0.289
940.90 0.2887
941.00 0.2884
941.10 0.2882
941.20 0.2879
941.30 0.2876
941.40 0.2873
941.50 0.2871
941.60 0.2868
941.70 0.2865
941.80 0.2862
941.90 0.2859
942.00 0.2857
942.10 0.2854
942.20 0.2851
942.30 0.2848
942.40 0.2846
942.50 0.2843
942.60 0.284
942.70 0.2837
942.80 0.2835
942.90 0.2832
943.00 0.2829
943.10 0.2826
943.20 0.2824
943.30 0.2821
943.40 0.2818
943.50 0.2815
943.60 0.2813
943.70 0.281
943.80 0.2807
943.90 0.2804
944.00 0.2802
944.10 0.2799
944.20 0.2796
944.30 0.2793
944.40 0.2791
944.50 0.2788
944.60 0.2785
944.70 0.2783
944.80 0.278
944.90 0.2777
945.00 0.2774
945.10 0.2772
945.20 0.2769
945.30 0.2766
945.40 0.2763
945.50 0.2761
945.60 0.2758
945.70 0.2755
945.80 0.2753
945.90 0.275
946.00 0.2747
946.10 0.2744
946.20 0.2742
946.30 0.2739
946.40 0.2736
946.50 0.2733
946.60 0.2731
946.70 0.2728
946.80 0.2725
946.90 0.2723
947.00 0.272
947.10 0.2717
947.20 0.2715
947.30 0.2712
947.40 0.2709
947.50 0.2706
947.60 0.2704
947.70 0.2701
947.80 0.2698
947.90 0.2695
948.00 0.2693
948.10 0.269
948.20 0.2687
948.30 0.2685
948.40 0.2682
948.50 0.2679
948.60 0.2676
948.70 0.2674
948.80 0.2671
948.90 0.2668
949.00 0.2666
949.10 0.2663
949.20 0.266
949.30 0.2657
949.40 0.2655
949.50 0.2652
949.60 0.2649
949.70 0.2647
949.80 0.2644
949.90 0.2641
950.00 0.2639
950.10 0.2636
950.20 0.2633
950.30 0.2631
950.40 0.2628
950.50 0.2625
950.60 0.2623
950.70 0.262
950.80 0.2618
950.90 0.2615
951.00 0.2612
951.10 0.261
951.20 0.2607
951.30 0.2604
951.40 0.2602
951.50 0.2599
951.60 0.2596
951.70 0.2594
951.80 0.2591
951.90 0.2588
952.00 0.2586
952.10 0.2583
952.20 0.2581
952.30 0.2578
952.40 0.2575
952.50 0.2573
952.60 0.257
952.70 0.2567
952.80 0.2565
952.90 0.2562
953.00 0.256
953.10 0.2557
953.20 0.2554
953.30 0.2552
953.40 0.2549
953.50 0.2546
953.60 0.2544
953.70 0.2541
953.80 0.2539
953.90 0.2536
954.00 0.2533
954.10 0.2531
954.20 0.2528
954.30 0.2526
954.40 0.2523
954.50 0.252
954.60 0.2518
954.70 0.2515
954.80 0.2513
954.90 0.251
955.00 0.2508
955.10 0.2505
955.20 0.2502
955.30 0.25
955.40 0.2497
955.50 0.2495
955.60 0.2492
955.70 0.2489
955.80 0.2487
955.90 0.2484
956.00 0.2482
956.10 0.2479
956.20 0.2476
956.30 0.2474
956.40 0.2471
956.50 0.2468
956.60 0.2466
956.70 0.2463
956.80 0.2461
956.90 0.2458
957.00 0.2455
957.10 0.2453
957.20 0.245
957.30 0.2448
957.40 0.2445
957.50 0.2443
957.60 0.244
957.70 0.2437
957.80 0.2435
957.90 0.2432
958.00 0.243
958.10 0.2427
958.20 0.2425
958.30 0.2422
958.40 0.242
958.50 0.2417
958.60 0.2415
958.70 0.2412
958.80 0.241
958.90 0.2407
959.00 0.2405
959.10 0.2402
959.20 0.24
959.30 0.2397
959.40 0.2395
959.50 0.2392
959.60 0.239
959.70 0.2387
959.80 0.2385
959.90 0.2382
960.00 0.238
960.10 0.2377
960.20 0.2375
960.30 0.2372
960.40 0.237
960.50 0.2367
960.60 0.2365
960.70 0.2362
960.80 0.236
960.90 0.2357
961.00 0.2355
961.10 0.2353
961.20 0.235
961.30 0.2348
961.40 0.2345
961.50 0.2343
961.60 0.234
961.70 0.2338
961.80 0.2335
961.90 0.2333
962.00 0.233
962.10 0.2328
962.20 0.2326
962.30 0.2323
962.40 0.2321
962.50 0.2318
962.60 0.2316
962.70 0.2313
962.80 0.2311
962.90 0.2309
963.00 0.2306
963.10 0.2304
963.20 0.2301
963.30 0.2299
963.40 0.2296
963.50 0.2294
963.60 0.2292
963.70 0.2289
963.80 0.2287
963.90 0.2284
964.00 0.2282
964.10 0.228
964.20 0.2277
964.30 0.2275
964.40 0.2272
964.50 0.227
964.60 0.2268
964.70 0.2265
964.80 0.2263
964.90 0.226
965.00 0.2258
965.10 0.2255
965.20 0.2253
965.30 0.2251
965.40 0.2248
965.50 0.2246
965.60 0.2243
965.70 0.2241
965.80 0.2239
965.90 0.2236
966.00 0.2234
966.10 0.2231
966.20 0.2229
966.30 0.2226
966.40 0.2224
966.50 0.2222
966.60 0.2219
966.70 0.2217
966.80 0.2215
966.90 0.2212
967.00 0.221
967.10 0.2208
967.20 0.2205
967.30 0.2203
967.40 0.2201
967.50 0.2199
967.60 0.2196
967.70 0.2194
967.80 0.2192
967.90 0.2189
968.00 0.2187
968.10 0.2185
968.20 0.2182
968.30 0.218
968.40 0.2178
968.50 0.2175
968.60 0.2173
968.70 0.2171
968.80 0.2169
968.90 0.2166
969.00 0.2164
969.10 0.2162
969.20 0.216
969.30 0.2157
969.40 0.2155
969.50 0.2153
969.60 0.2151
969.70 0.2148
969.80 0.2146
969.90 0.2144
970.00 0.2141
970.10 0.2139
970.20 0.2137
970.30 0.2135
970.40 0.2132
970.50 0.213
970.60 0.2128
970.70 0.2126
970.80 0.2124
970.90 0.2121
971.00 0.2119
971.10 0.2117
971.20 0.2115
971.30 0.2113
971.40 0.211
971.50 0.2108
971.60 0.2106
971.70 0.2104
971.80 0.2101
971.90 0.2099
972.00 0.2097
972.10 0.2095
972.20 0.2093
972.30 0.2091
972.40 0.2088
972.50 0.2086
972.60 0.2084
972.70 0.2082
972.80 0.208
972.90 0.2077
973.00 0.2075
973.10 0.2073
973.20 0.2071
973.30 0.2069
973.40 0.2067
973.50 0.2064
973.60 0.2062
973.70 0.206
973.80 0.2058
973.90 0.2056
974.00 0.2054
974.10 0.2052
974.20 0.2049
974.30 0.2047
974.40 0.2045
974.50 0.2043
974.60 0.2041
974.70 0.2039
974.80 0.2037
974.90 0.2034
975.00 0.2032
975.10 0.203
975.20 0.2028
975.30 0.2026
975.40 0.2024
975.50 0.2022
975.60 0.202
975.70 0.2017
975.80 0.2015
975.90 0.2013
976.00 0.2011
976.10 0.2009
976.20 0.2007
976.30 0.2005
976.40 0.2003
976.50 0.2001
976.60 0.1998
976.70 0.1996
976.80 0.1994
976.90 0.1992
977.00 0.199
977.10 0.1988
977.20 0.1986
977.30 0.1984
977.40 0.1982
977.50 0.198
977.60 0.1978
977.70 0.1976
977.80 0.1974
977.90 0.1972
978.00 0.197
978.10 0.1968
978.20 0.1966
978.30 0.1964
978.40 0.1962
978.50 0.196
978.60 0.1958
978.70 0.1956
978.80 0.1954
978.90 0.1952
979.00 0.195
979.10 0.1948
979.20 0.1946
979.30 0.1944
979.40 0.1942
979.50 0.194
979.60 0.1938
979.70 0.1936
979.80 0.1934
979.90 0.1932
980.00 0.193
980.10 0.1928
980.20 0.1926
980.30 0.1924
980.40 0.1922
980.50 0.192
980.60 0.1918
980.70 0.1916
980.80 0.1914
980.90 0.1912
981.00 0.191
981.10 0.1908
981.20 0.1906
981.30 0.1904
981.40 0.1902
981.50 0.19
981.60 0.1898
981.70 0.1896
981.80 0.1894
981.90 0.1892
982.00 0.189
982.10 0.1888
982.20 0.1886
982.30 0.1884
982.40 0.1883
982.50 0.1881
982.60 0.1879
982.70 0.1877
982.80 0.1875
982.90 0.1873
983.00 0.1871
983.10 0.1869
983.20 0.1867
983.30 0.1865
983.40 0.1864
983.50 0.1862
983.60 0.186
983.70 0.1858
983.80 0.1856
983.90 0.1854
984.00 0.1852
984.10 0.185
984.20 0.1848
984.30 0.1847
984.40 0.1845
984.50 0.1843
984.60 0.1841
984.70 0.1839
984.80 0.1837
984.90 0.1835
985.00 0.1834
985.10 0.1832
985.20 0.183
985.30 0.1828
985.40 0.1827
985.50 0.1825
985.60 0.1823
985.70 0.1821
985.80 0.182
985.90 0.1818
986.00 0.1816
986.10 0.1814
986.20 0.1813
986.30 0.1811
986.40 0.1809
986.50 0.1807
986.60 0.1806
986.70 0.1804
986.80 0.1802
986.90 0.18
987.00 0.1798
987.10 0.1797
987.20 0.1795
987.30 0.1793
987.40 0.1791
987.50 0.1789
987.60 0.1787
987.70 0.1786
987.80 0.1784
987.90 0.1782
988.00 0.178
988.10 0.1778
988.20 0.1777
988.30 0.1775
988.40 0.1773
988.50 0.1771
988.60 0.1769
988.70 0.1767
988.80 0.1766
988.90 0.1764
989.00 0.1762
989.10 0.176
989.20 0.1758
989.30 0.1756
989.40 0.1755
989.50 0.1753
989.60 0.1751
989.70 0.1749
989.80 0.1747
989.90 0.1746
990.00 0.1744
990.10 0.1742
990.20 0.174
990.30 0.1738
990.40 0.1736
990.50 0.1735
990.60 0.1733
990.70 0.1731
990.80 0.1729
990.90 0.1727
991.00 0.1726
991.10 0.1724
991.20 0.1722
991.30 0.172
991.40 0.1718
991.50 0.1716
991.60 0.1715
991.70 0.1713
991.80 0.1711
991.90 0.1709
992.00 0.1707
992.10 0.1706
992.20 0.1704
992.30 0.1702
992.40 0.17
992.50 0.1698
992.60 0.1697
992.70 0.1695
992.80 0.1693
992.90 0.1691
993.00 0.1689
993.10 0.1688
993.20 0.1686
993.30 0.1684
993.40 0.1682
993.50 0.168
993.60 0.1679
993.70 0.1677
993.80 0.1675
993.90 0.1673
994.00 0.1672
994.10 0.167
994.20 0.1668
994.30 0.1666
994.40 0.1664
994.50 0.1663
994.60 0.1661
994.70 0.1659
994.80 0.1657
994.90 0.1654
995.00 0.1652
995.10 0.165
995.20 0.1648
995.30 0.1646
995.40 0.1643
995.50 0.1641
995.60 0.1639
995.70 0.1637
995.80 0.1636
995.90 0.1634
996.00 0.1632
996.10 0.163
996.20 0.1629
996.30 0.1627
996.40 0.1625
996.50 0.1623
996.60 0.1622
996.70 0.162
996.80 0.1618
996.90 0.1617
997.00 0.1615
997.10 0.1613
997.20 0.1611
997.30 0.161
997.40 0.1608
997.50 0.1606
997.60 0.1605
997.70 0.1603
997.80 0.1601
997.90 0.16
998.00 0.1598
998.10 0.1596
998.20 0.1595
998.30 0.1593
998.40 0.1591
998.50 0.159
998.60 0.1588
998.70 0.1587
998.80 0.1585
998.90 0.1583
999.00 0.1582
999.10 0.158
999.20 0.1578
999.30 0.1577
999.40 0.1575
999.50 0.1573
999.60 0.1572
999.70 0.157
999.80 0.1569
999.90 0.1567
1000.00 0.1566
1000.10 0.1564
1000.20 0.1562
1000.30 0.1561
1000.40 0.1559
1000.50 0.1558
1000.60 0.1556
1000.70 0.1555
1000.80 0.1553
1000.90 0.1551
1001.00 0.155
1001.10 0.1548
1001.20 0.1547
1001.30 0.1545
1001.40 0.1544
1001.50 0.1542
1001.60 0.1541
1001.70 0.1539
1001.80 0.1537
1001.90 0.1536
1002.00 0.1534
1002.10 0.1533
1002.20 0.1531
1002.30 0.153
1002.40 0.1528
1002.50 0.1527
1002.60 0.1525
1002.70 0.1524
1002.80 0.1522
1002.90 0.1521
1003.00 0.1519
1003.10 0.1518
1003.20 0.1516
1003.30 0.1515
1003.40 0.1513
1003.50 0.1512
1003.60 0.1511
1003.70 0.1509
1003.80 0.1508
1003.90 0.1506
1004.00 0.1505
1004.10 0.1503
1004.20 0.1502
1004.30 0.15
1004.40 0.1499
1004.50 0.1497
1004.60 0.1496
1004.70 0.1495
1004.80 0.1493
1004.90 0.1491
1005.00 0.1489
1005.10 0.1488
1005.20 0.1487
1005.30 0.1485
1005.40 0.1484
1005.50 0.1482
1005.60 0.1481
1005.70 0.148
1005.80 0.1478
1005.90 0.1477
1006.00 0.1475
1006.10 0.1474
1006.20 0.1473
1006.30 0.1471
1006.40 0.147
1006.50 0.1469
1006.60 0.1467
1006.70 0.1466
1006.80 0.1465
1006.90 0.1463
1007.00 0.1462
1007.10 0.1461
1007.20 0.1459
1007.30 0.1458
1007.40 0.1457
1007.50 0.1455
1007.60 0.1454
1007.70 0.1453
1007.80 0.1451
1007.90 0.145
1008.00 0.1449
1008.10 0.1447
1008.20 0.1446
1008.30 0.1445
1008.40 0.1444
1008.50 0.1442
1008.60 0.1441
1008.70 0.144
1008.80 0.1439
1008.90 0.1437
1009.00 0.1436
1009.10 0.1435
1009.20 0.1433
1009.30 0.1432
1009.40 0.1431
1009.50 0.143
1009.60 0.1428
1009.70 0.1427
1009.80 0.1426
1009.90 0.1425
1010.00 0.1424
1010.10 0.1422
1010.20 0.1421
1010.30 0.142
1010.40 0.1419
1010.50 0.1418
1010.60 0.1416
1010.70 0.1415
1010.80 0.1414
1010.90 0.1413
1011.00 0.1412
1011.10 0.141
1011.20 0.1409
1011.30 0.1408
1011.40 0.1407
1011.50 0.1406
1011.60 0.1404
1011.70 0.1403
1011.80 0.1402
1011.90 0.1401
1012.00 0.14
1012.10 0.1399
1012.20 0.1398
1012.30 0.1396
1012.40 0.1395
1012.50 0.1394
1012.60 0.1393
1012.70 0.1392
1012.80 0.1391
1012.90 0.139
1013.00 0.1389
1013.10 0.1387
1013.20 0.1386
1013.30 0.1385
1013.40 0.1384
1013.50 0.1383
1013.60 0.1382
1013.70 0.1381
1013.80 0.138
1013.90 0.1379
1014.00 0.1378
1014.10 0.1377
1014.20 0.1375
1014.30 0.1374
1014.40 0.1373
1014.50 0.1372
1014.60 0.1371
1014.70 0.137
1014.80 0.1369
1014.90 0.1368
1015.00 0.1367
1015.10 0.1367
1015.20 0.1366
1015.30 0.1365
1015.40 0.1364
1015.50 0.1363
1015.60 0.1362
1015.70 0.1361
1015.80 0.136
1015.90 0.1359
1016.00 0.1358
1016.10 0.1357
1016.20 0.1356
1016.30 0.1355
1016.40 0.1355
1016.50 0.1354
1016.60 0.1353
1016.70 0.1352
1016.80 0.1351
1016.90 0.135
1017.00 0.1349
1017.10 0.1348
1017.20 0.1347
1017.30 0.1346
1017.40 0.1345
1017.50 0.1344
1017.60 0.1343
1017.70 0.1342
1017.80 0.1341
1017.90 0.134
1018.00 0.1339
1018.10 0.1338
1018.20 0.1337
1018.30 0.1336
1018.40 0.1335
1018.50 0.1334
1018.60 0.1333
1018.70 0.1332
1018.80 0.1331
1018.90 0.133
1019.00 0.1329
1019.10 0.1328
1019.20 0.1327
1019.30 0.1326
1019.40 0.1325
1019.50 0.1324
1019.60 0.1323
1019.70 0.1322
1019.80 0.1321
1019.90 0.132
1020.00 0.1319
1020.10 0.1318
1020.20 0.1317
1020.30 0.1316
1020.40 0.1316
1020.50 0.1315
1020.60 0.1314
1020.70 0.1313
1020.80 0.1312
1020.90 0.1311
1021.00 0.131
1021.10 0.1309
1021.20 0.1308
1021.30 0.1307
1021.40 0.1306
1021.50 0.1305
1021.60 0.1304
1021.70 0.1303
1021.80 0.1302
1021.90 0.1301
1022.00 0.13
1022.10 0.13
1022.20 0.1299
1022.30 0.1298
1022.40 0.1297
1022.50 0.1296
1022.60 0.1295
1022.70 0.1294
1022.80 0.1293
1022.90 0.1292
1023.00 0.1291
1023.10 0.129
1023.20 0.129
1023.30 0.1289
1023.40 0.1288
1023.50 0.1287
1023.60 0.1286
1023.70 0.1285
1023.80 0.1284
1023.90 0.1283
1024.00 0.1282
1024.10 0.1281
1024.20 0.1281
1024.30 0.128
1024.40 0.1279
1024.50 0.1278
1024.60 0.1277
1024.70 0.1276
1024.80 0.1275
1024.90 0.1274
1025.00 0.1273
1025.10 0.1273
1025.20 0.1272
1025.30 0.1271
1025.40 0.127
1025.50 0.1269
1025.60 0.1268
1025.70 0.1267
1025.80 0.1266
1025.90 0.1266
1026.00 0.1265
1026.10 0.1264
1026.20 0.1263
1026.30 0.1262
1026.40 0.1261
1026.50 0.126
1026.60 0.1259
1026.70 0.1259
1026.80 0.1258
1026.90 0.1257
1027.00 0.1256
1027.10 0.1255
1027.20 0.1254
1027.30 0.1253
1027.40 0.1253
1027.50 0.1252
1027.60 0.1251
1027.70 0.125
1027.80 0.1249
1027.90 0.1249
1028.00 0.1248
1028.10 0.1247
1028.20 0.1246
1028.30 0.1245
1028.40 0.1245
1028.50 0.1244
1028.60 0.1243
1028.70 0.1242
1028.80 0.1241
1028.90 0.124
1029.00 0.124
1029.10 0.1239
1029.20 0.1238
1029.30 0.1237
1029.40 0.1236
1029.50 0.1236
1029.60 0.1235
1029.70 0.1234
1029.80 0.1233
1029.90 0.1232
1030.00 0.1232
1030.10 0.1231
1030.20 0.123
1030.30 0.1229
1030.40 0.1228
1030.50 0.1228
1030.60 0.1227
1030.70 0.1226
1030.80 0.1225
1030.90 0.1224
1031.00 0.1224
1031.10 0.1223
1031.20 0.1222
1031.30 0.1221
1031.40 0.122
1031.50 0.122
1031.60 0.1219
1031.70 0.1218
1031.80 0.1217
1031.90 0.1216
1032.00 0.1216
1032.10 0.1215
1032.20 0.1214
1032.30 0.1213
1032.40 0.1213
1032.50 0.1212
1032.60 0.1211
1032.70 0.121
1032.80 0.121
1032.90 0.1209
1033.00 0.1208
1033.10 0.1207
1033.20 0.1207
1033.30 0.1206
1033.40 0.1205
1033.50 0.1204
1033.60 0.1204
1033.70 0.1203
1033.80 0.1202
1033.90 0.1201
1034.00 0.1201
1034.10 0.12
1034.20 0.1199
1034.30 0.1198
1034.40 0.1198
1034.50 0.1197
1034.60 0.1196
1034.70 0.1196
1034.80 0.1195
1034.90 0.1194
1035.00 0.1193
1035.10 0.1193
1035.20 0.1192
1035.30 0.1191
1035.40 0.119
1035.50 0.119
1035.60 0.1189
1035.70 0.1188
1035.80 0.1187
1035.90 0.1187
1036.00 0.1186
1036.10 0.1185
1036.20 0.1184
1036.30 0.1184
1036.40 0.1183
1036.50 0.1182
1036.60 0.1182
1036.70 0.1181
1036.80 0.118
1036.90 0.1179
1037.00 0.1179
1037.10 0.1178
1037.20 0.1177
1037.30 0.1177
1037.40 0.1176
1037.50 0.1175
1037.60 0.1175
1037.70 0.1174
1037.80 0.1173
1037.90 0.1173
1038.00 0.1172
1038.10 0.1171
1038.20 0.1171
1038.30 0.117
1038.40 0.1169
1038.50 0.1169
1038.60 0.1168
1038.70 0.1167
1038.80 0.1167
1038.90 0.1166
1039.00 0.1165
1039.10 0.1165
1039.20 0.1164
1039.30 0.1164
1039.40 0.1163
1039.50 0.1162
1039.60 0.1162
1039.70 0.1161
1039.80 0.116
1039.90 0.116
1040.00 0.1159
1040.10 0.1158
1040.20 0.1158
1040.30 0.1157
1040.40 0.1156
1040.50 0.1156
1040.60 0.1155
1040.70 0.1154
1040.80 0.1154
1040.90 0.1153
1041.00 0.1152
1041.10 0.1152
1041.20 0.1151
1041.30 0.1151
1041.40 0.115
1041.50 0.1149
1041.60 0.1149
1041.70 0.1148
1041.80 0.1147
1041.90 0.1147
1042.00 0.1146
1042.10 0.1145
1042.20 0.1145
1042.30 0.1144
1042.40 0.1144
1042.50 0.1143
1042.60 0.1142
1042.70 0.1142
1042.80 0.1141
1042.90 0.1141
1043.00 0.114
1043.10 0.114
1043.20 0.1139
1043.30 0.1138
1043.40 0.1138
1043.50 0.1137
1043.60 0.1137
1043.70 0.1136
1043.80 0.1136
1043.90 0.1135
1044.00 0.1134
1044.10 0.1134
1044.20 0.1133
1044.30 0.1133
1044.40 0.1132
1044.50 0.1131
1044.60 0.1131
1044.70 0.113
1044.80 0.113
1044.90 0.1129
1045.00 0.1129
1045.10 0.1128
1045.20 0.1127
1045.30 0.1127
1045.40 0.1126
1045.50 0.1126
1045.60 0.1125
1045.70 0.1125
1045.80 0.1124
1045.90 0.1123
1046.00 0.1123
1046.10 0.1122
1046.20 0.1122
1046.30 0.1121
1046.40 0.1121
1046.50 0.112
1046.60 0.1119
1046.70 0.1119
1046.80 0.1118
1046.90 0.1118
1047.00 0.1117
1047.10 0.1117
1047.20 0.1116
1047.30 0.1116
1047.40 0.1115
1047.50 0.1115
1047.60 0.1114
1047.70 0.1114
1047.80 0.1113
1047.90 0.1113
1048.00 0.1112
1048.10 0.1112
1048.20 0.1111
1048.30 0.1111
1048.40 0.111
1048.50 0.111
1048.60 0.1109
1048.70 0.1108
1048.80 0.1108
1048.90 0.1107
1049.00 0.1107
1049.10 0.1106
1049.20 0.1106
1049.30 0.1105
1049.40 0.1105
1049.50 0.1104
1049.60 0.1104
1049.70 0.1103
1049.80 0.1103
1049.90 0.1102
1050.00 0.1102
1050.10 0.1101
1050.20 0.1101
1050.30 0.11
1050.40 0.11
1050.50 0.1099
1050.60 0.1099
1050.70 0.1098
1050.80 0.1098
1050.90 0.1097
1051.00 0.1097
1051.10 0.1096
1051.20 0.1096
1051.30 0.1095
1051.40 0.1095
1051.50 0.1094
1051.60 0.1094
1051.70 0.1093
1051.80 0.1093
1051.90 0.1092
1052.00 0.1092
1052.10 0.1091
1052.20 0.1091
1052.30 0.1091
1052.40 0.109
1052.50 0.109
1052.60 0.1089
1052.70 0.1089
1052.80 0.1088
1052.90 0.1088
1053.00 0.1087
1053.10 0.1087
1053.20 0.1087
1053.30 0.1086
1053.40 0.1086
1053.50 0.1085
1053.60 0.1085
1053.70 0.1084
1053.80 0.1084
1053.90 0.1084
1054.00 0.1083
1054.10 0.1083
1054.20 0.1082
1054.30 0.1082
1054.40 0.1081
1054.50 0.1081
1054.60 0.1081
1054.70 0.108
1054.80 0.108
1054.90 0.1079
1055.00 0.1079
1055.10 0.1078
1055.20 0.1078
1055.30 0.1077
1055.40 0.1077
1055.50 0.1077
1055.60 0.1076
1055.70 0.1076
1055.80 0.1075
1055.90 0.1075
1056.00 0.1074
1056.10 0.1074
1056.20 0.1074
1056.30 0.1073
1056.40 0.1073
1056.50 0.1072
1056.60 0.1072
1056.70 0.1071
1056.80 0.1071
1056.90 0.1071
1057.00 0.107
1057.10 0.107
1057.20 0.1069
1057.30 0.1069
1057.40 0.1069
1057.50 0.1068
1057.60 0.1068
1057.70 0.1067
1057.80 0.1067
1057.90 0.1067
1058.00 0.1066
1058.10 0.1066
1058.20 0.1066
1058.30 0.1065
1058.40 0.1065
1058.50 0.1065
1058.60 0.1064
1058.70 0.1064
1058.80 0.1063
1058.90 0.1063
1059.00 0.1063
1059.10 0.1062
1059.20 0.1062
1059.30 0.1062
1059.40 0.1061
1059.50 0.1061
1059.60 0.106
1059.70 0.106
1059.80 0.106
1059.90 0.1059
1060.00 0.1059
1060.10 0.1059
1060.20 0.1058
1060.30 0.1058
1060.40 0.1057
1060.50 0.1057
1060.60 0.1057
1060.70 0.1056
1060.80 0.1056
1060.90 0.1056
1061.00 0.1055
1061.10 0.1055
1061.20 0.1055
1061.30 0.1054
1061.40 0.1054
1061.50 0.1053
1061.60 0.1053
1061.70 0.1053
1061.80 0.1052
1061.90 0.1052
1062.00 0.1052
1062.10 0.1051
1062.20 0.1051
1062.30 0.1051
1062.40 0.105
1062.50 0.105
1062.60 0.105
1062.70 0.1049
1062.80 0.1049
1062.90 0.1049
1063.00 0.1048
1063.10 0.1048
1063.20 0.1048
1063.30 0.1048
1063.40 0.1047
1063.50 0.1047
1063.60 0.1047
1063.70 0.1046
1063.80 0.1046
1063.90 0.1046
1064.00 0.1045
1064.10 0.1045
1064.20 0.1045
1064.30 0.1044
1064.40 0.1044
1064.50 0.1044
1064.60 0.1044
1064.70 0.1043
1064.80 0.1043
1064.90 0.1043
1065.00 0.1042
1065.10 0.1042
1065.20 0.1042
1065.30 0.1041
1065.40 0.1041
1065.50 0.1041
1065.60 0.104
1065.70 0.104
1065.80 0.104
1065.90 0.104
1066.00 0.1039
1066.10 0.1039
1066.20 0.1039
1066.30 0.1038
1066.40 0.1038
1066.50 0.1038
1066.60 0.1037
1066.70 0.1037
1066.80 0.1037
1066.90 0.1036
1067.00 0.1036
1067.10 0.1036
1067.20 0.1036
1067.30 0.1035
1067.40 0.1035
1067.50 0.1035
1067.60 0.1035
1067.70 0.1034
1067.80 0.1034
1067.90 0.1034
1068.00 0.1034
1068.10 0.1033
1068.20 0.1033
1068.30 0.1033
1068.40 0.1033
1068.50 0.1032
1068.60 0.1032
1068.70 0.1032
1068.80 0.1032
1068.90 0.1031
1069.00 0.1031
1069.10 0.1031
1069.20 0.103
1069.30 0.103
1069.40 0.103
1069.50 0.103
1069.60 0.1029
1069.70 0.1029
1069.80 0.1029
1069.90 0.1029
1070.00 0.1028
1070.10 0.1028
1070.20 0.1028
1070.30 0.1028
1070.40 0.1027
1070.50 0.1027
1070.60 0.1027
1070.70 0.1027
1070.80 0.1026
1070.90 0.1026
1071.00 0.1026
1071.10 0.1026
1071.20 0.1025
1071.30 0.1025
1071.40 0.1025
1071.50 0.1025
1071.60 0.1024
1071.70 0.1024
1071.80 0.1024
1071.90 0.1024
1072.00 0.1023
1072.10 0.1023
1072.20 0.1023
1072.30 0.1023
1072.40 0.1023
1072.50 0.1022
1072.60 0.1022
1072.70 0.1022
1072.80 0.1022
1072.90 0.1021
1073.00 0.1021
1073.10 0.1021
1073.20 0.1021
1073.30 0.1021
1073.40 0.102
1073.50 0.102
1073.60 0.102
1073.70 0.102
1073.80 0.102
1073.90 0.1019
1074.00 0.1019
1074.10 0.1019
1074.20 0.1019
1074.30 0.1019
1074.40 0.1018
1074.50 0.1018
1074.60 0.1018
1074.70 0.1018
1074.80 0.1018
1074.90 0.1018
1075.00 0.1017
1075.10 0.1017
1075.20 0.1017
1075.30 0.1017
1075.40 0.1017
1075.50 0.1016
1075.60 0.1016
1075.70 0.1016
1075.80 0.1016
1075.90 0.1016
1076.00 0.1015
1076.10 0.1015
1076.20 0.1015
1076.30 0.1015
1076.40 0.1015
1076.50 0.1015
1076.60 0.1014
1076.70 0.1014
1076.80 0.1014
1076.90 0.1014
1077.00 0.1014
1077.10 0.1013
1077.20 0.1013
1077.30 0.1013
1077.40 0.1013
1077.50 0.1013
1077.60 0.1013
1077.70 0.1012
1077.80 0.1012
1077.90 0.1012
1078.00 0.1012
1078.10 0.1012
1078.20 0.1012
1078.30 0.1012
1078.40 0.1011
1078.50 0.1011
1078.60 0.1011
1078.70 0.1011
1078.80 0.1011
1078.90 0.1011
1079.00 0.1011
1079.10 0.101
1079.20 0.101
1079.30 0.101
1079.40 0.101
1079.50 0.101
1079.60 0.101
1079.70 0.101
1079.80 0.1009
1079.90 0.1009
1080.00 0.1009
1080.10 0.1009
1080.20 0.1009
1080.30 0.1009
1080.40 0.1009
1080.50 0.1009
1080.60 0.1008
1080.70 0.1008
1080.80 0.1008
1080.90 0.1008
1081.00 0.1008
1081.10 0.1008
1081.20 0.1008
1081.30 0.1008
1081.40 0.1008
1081.50 0.1007
1081.60 0.1007
1081.70 0.1007
1081.80 0.1007
1081.90 0.1007
1082.00 0.1007
1082.10 0.1007
1082.20 0.1007
1082.30 0.1007
1082.40 0.1006
1082.50 0.1006
1082.60 0.1006
1082.70 0.1006
1082.80 0.1006
1082.90 0.1006
1083.00 0.1006
1083.10 0.1006
1083.20 0.1006
1083.30 0.1005
1083.40 0.1005
1083.50 0.1005
1083.60 0.1005
1083.70 0.1005
1083.80 0.1005
1083.90 0.1005
1084.00 0.1005
1084.10 0.1005
1084.20 0.1005
1084.30 0.1005
1084.40 0.1004
1084.50 0.1004
1084.60 0.1004
1084.70 0.1004
1084.80 0.1004
1084.90 0.1004
1085.00 0.1004
1085.10 0.1004
1085.20 0.1004
1085.30 0.1004
1085.40 0.1004
1085.50 0.1004
1085.60 0.1003
1085.70 0.1003
1085.80 0.1003
1085.90 0.1003
1086.00 0.1003
1086.10 0.1003
1086.20 0.1003
1086.30 0.1003
1086.40 0.1003
1086.50 0.1003
1086.60 0.1003
1086.70 0.1003
1086.80 0.1003
1086.90 0.1002
1087.00 0.1002
1087.10 0.1002
1087.20 0.1002
1087.30 0.1002
1087.40 0.1002
1087.50 0.1002
1087.60 0.1002
1087.70 0.1002
1087.80 0.1002
1087.90 0.1002
1088.00 0.1002
1088.10 0.1002
1088.20 0.1002
1088.30 0.1002
1088.40 0.1002
1088.50 0.1001
1088.60 0.1001
1088.70 0.1001
1088.80 0.1001
1088.90 0.1001
1089.00 0.1001
1089.10 0.1001
1089.20 0.1001
1089.30 0.1001
1089.40 0.1001
1089.50 0.1001
1089.60 0.1001
1089.70 0.1001
1089.80 0.1001
1089.90 0.1001
1090.00 0.1001
1090.10 0.1001
1090.20 0.1001
1090.30 0.1001
1090.40 0.1001
1090.50 0.1001
1090.60 0.1001
1090.70 0.1001
1090.80 0.1
1090.90 0.1
1091.00 0.1
1091.10 0.1
1091.20 0.1
1091.30 0.1
1091.40 0.1
1091.50 0.1
1091.60 0.1
1091.70 0.1
1091.80 0.1
1091.90 0.1
1092.00 0.1
1092.10 0.1
1092.20 0.1
1092.30 0.1
1092.40 0.1
1092.50 0.1
1092.60 0.1
1092.70 0.1
1092.80 0.1
1092.90 0.1
1093.00 0.1
1093.10 0.1
1093.20 0.1
1093.30 0.1
1093.40 0.1
1093.50 0.1
1093.60 0.1
1093.70 0.1
1093.80 0.1
1093.90 0.1
1094.00 0.1
1094.10 0.1
1094.20 0.1
1094.30 0.1
1094.40 0.1
1094.50 0.1
1094.60 0.1
1094.70 0.1
1094.80 0.1
1094.90 0.1
1095.00 0.1
1095.10 0.1
1095.20 0.1
1095.30 0.1
1095.40 0.1
1095.50 0.1
1095.60 0.1
1095.70 0.1
1095.80 0.1
1095.90 0.1
1096.00 0.1
1096.10 0.1
1096.20 0.1
1096.30 0.1
1096.40 0.1
1096.50 0.1
1096.60 0.1
1096.70 0.1
1096.80 0.1
1096.90 0.1
1097.00 0.1
1097.10 0.1
1097.20 0.1
1097.30 0.1
1097.40 0.1
1097.50 0.1001
1097.60 0.1001
1097.70 0.1001
1097.80 0.1001
1097.90 0.1001
1098.00 0.1001
1098.10 0.1001
1098.20 0.1001
1098.30 0.1001
1098.40 0.1001
1098.50 0.1001
1098.60 0.1001
1098.70 0.1001
1098.80 0.1001
1098.90 0.1001
1099.00 0.1001
1099.10 0.1001
1099.20 0.1001
1099.30 0.1001
1099.40 0.1001
1099.50 0.1001
1099.60 0.1001
1099.70 0.1001
1099.80 0.1001
1099.90 0.1001
1100.00 0.1001
1100.10 0.1001
1100.20 0.1001
1100.30 0.1001
1100.40 0.1001
1100.50 0.1001
1100.60 0.1001
1100.70 0.1001
1100.80 0.1001
1100.90 0.1001
1101.00 0.1001
1101.10 0.1001
1101.20 0.1001
1101.30 0.1001
1101.40 0.1001
1101.50 0.1001
1101.60 0.1002
1101.70 0.1002
1101.80 0.1002
1101.90 0.1002
1102.00 0.1002
1102.10 0.1002
1102.20 0.1002
1102.30 0.1002
1102.40 0.1002
1102.50 0.1002
1102.60 0.1002
1102.70 0.1002
1102.80 0.1002
1102.90 0.1002
1103.00 0.1002
1103.10 0.1002
1103.20 0.1002
1103.30 0.1002
1103.40 0.1002
1103.50 0.1002
1103.60 0.1002
1103.70 0.1002
1103.80 0.1002
1103.90 0.1003
1104.00 0.1003
1104.10 0.1003
1104.20 0.1003
1104.30 0.1003
1104.40 0.1003
1104.50 0.1003
1104.60 0.1003
1104.70 0.1003
1104.80 0.1003
1104.90 0.1003
1105.00 0.1003
1105.10 0.1003
1105.20 0.1003
1105.30 0.1003
1105.40 0.1003
1105.50 0.1004
1105.60 0.1004
1105.70 0.1004
1105.80 0.1004
1105.90 0.1004
1106.00 0.1004
1106.10 0.1004
1106.20 0.1004
1106.30 0.1004
1106.40 0.1004
1106.50 0.1004
1106.60 0.1004
1106.70 0.1004
1106.80 0.1004
1106.90 0.1004
1107.00 0.1004
1107.10 0.1005
1107.20 0.1005
1107.30 0.1005
1107.40 0.1005
1107.50 0.1005
1107.60 0.1005
1107.70 0.1005
1107.80 0.1005
1107.90 0.1005
1108.00 0.1005
1108.10 0.1005
1108.20 0.1005
1108.30 0.1005
1108.40 0.1005
1108.50 0.1005
1108.60 0.1006
1108.70 0.1006
1108.80 0.1006
1108.90 0.1006
1109.00 0.1006
1109.10 0.1006
1109.20 0.1006
1109.30 0.1006
1109.40 0.1006
1109.50 0.1006
1109.60 0.1006
1109.70 0.1006
1109.80 0.1006
1109.90 0.1006
1110.00 0.1007
1110.10 0.1007
1110.20 0.1007
1110.30 0.1007
1110.40 0.1007
1110.50 0.1007
1110.60 0.1007
1110.70 0.1007
1110.80 0.1007
1110.90 0.1007
1111.00 0.1007
1111.10 0.1007
1111.20 0.1007
1111.30 0.1008
1111.40 0.1008
1111.50 0.1008
1111.60 0.1008
1111.70 0.1008
1111.80 0.1008
1111.90 0.1008
1112.00 0.1008
1112.10 0.1008
1112.20 0.1008
1112.30 0.1008
1112.40 0.1008
1112.50 0.1008
1112.60 0.1009
1112.70 0.1009
1112.80 0.1009
1112.90 0.1009
1113.00 0.1009
1113.10 0.1009
1113.20 0.1009
1113.30 0.1009
1113.40 0.1009
1113.50 0.1009
1113.60 0.1009
1113.70 0.101
1113.80 0.101
1113.90 0.101
1114.00 0.101
1114.10 0.101
1114.20 0.101
1114.30 0.101
1114.40 0.101
1114.50 0.101
1114.60 0.101
1114.70 0.1011
1114.80 0.1011
1114.90 0.1011
1115.00 0.1011
1115.10 0.1011
1115.20 0.1011
1115.30 0.1011
1115.40 0.1011
1115.50 0.1011
1115.60 0.1011
1115.70 0.1011
1115.80 0.1012
1115.90 0.1012
1116.00 0.1012
1116.10 0.1012
1116.20 0.1012
1116.30 0.1012
1116.40 0.1012
1116.50 0.1012
1116.60 0.1012
1116.70 0.1012
1116.80 0.1013
1116.90 0.1013
1117.00 0.1013
1117.10 0.1013
1117.20 0.1013
1117.30 0.1013
1117.40 0.1013
1117.50 0.1013
1117.60 0.1013
1117.70 0.1014
1117.80 0.1014
1117.90 0.1014
1118.00 0.1014
1118.10 0.1014
1118.20 0.1014
1118.30 0.1014
1118.40 0.1014
1118.50 0.1014
1118.60 0.1015
1118.70 0.1015
1118.80 0.1015
1118.90 0.1015
1119.00 0.1015
1119.10 0.1015
1119.20 0.1015
1119.30 0.1015
1119.40 0.1015
1119.50 0.1016
1119.60 0.1016
1119.70 0.1016
1119.80 0.1016
1119.90 0.1016
1120.00 0.1016
1120.10 0.1016
1120.20 0.1016
1120.30 0.1017
1120.40 0.1017
1120.50 0.1017
1120.60 0.1017
1120.70 0.1017
1120.80 0.1017
1120.90 0.1017
1121.00 0.1017
1121.10 0.1017
1121.20 0.1018
1121.30 0.1018
1121.40 0.1018
1121.50 0.1018
1121.60 0.1018
1121.70 0.1018
1121.80 0.1018
1121.90 0.1018
1122.00 0.1018
1122.10 0.1019
1122.20 0.1019
1122.30 0.1019
1122.40 0.1019
1122.50 0.1019
1122.60 0.1019
1122.70 0.1019
1122.80 0.1019
1122.90 0.102
1123.00 0.102
1123.10 0.102
1123.20 0.102
1123.30 0.102
1123.40 0.102
1123.50 0.102
1123.60 0.102
1123.70 0.1021
1123.80 0.1021
1123.90 0.1021
1124.00 0.1021
1124.10 0.1021
1124.20 0.1021
1124.30 0.1021
1124.40 0.1021
1124.50 0.1022
1124.60 0.1022
1124.70 0.1022
1124.80 0.1022
1124.90 0.1022
1125.00 0.1022
1125.10 0.1022
1125.20 0.1022
1125.30 0.1023
1125.40 0.1023
1125.50 0.1023
1125.60 0.1023
1125.70 0.1023
1125.80 0.1023
1125.90 0.1023
1126.00 0.1023
1126.10 0.1024
1126.20 0.1024
1126.30 0.1024
1126.40 0.1024
1126.50 0.1024
1126.60 0.1024
1126.70 0.1024
1126.80 0.1024
1126.90 0.1025
1127.00 0.1025
1127.10 0.1025
1127.20 0.1025
1127.30 0.1025
1127.40 0.1025
1127.50 0.1025
1127.60 0.1026
1127.70 0.1026
1127.80 0.1026
1127.90 0.1026
1128.00 0.1026
1128.10 0.1026
1128.20 0.1026
1128.30 0.1027
1128.40 0.1027
1128.50 0.1027
1128.60 0.1027
1128.70 0.1027
1128.80 0.1027
1128.90 0.1027
1129.00 0.1028
1129.10 0.1028
1129.20 0.1028
1129.30 0.1028
1129.40 0.1028
1129.50 0.1028
1129.60 0.1029
1129.70 0.1029
1129.80 0.1029
1129.90 0.1029
1130.00 0.1029
1130.10 0.1029
1130.20 0.1029
1130.30 0.103
1130.40 0.103
1130.50 0.103
1130.60 0.103
1130.70 0.103
1130.80 0.103
1130.90 0.103
1131.00 0.1031
1131.10 0.1031
1131.20 0.1031
1131.30 0.1031
1131.40 0.1031
1131.50 0.1031
1131.60 0.1031
1131.70 0.1032
1131.80 0.1032
1131.90 0.1032
1132.00 0.1032
1132.10 0.1032
1132.20 0.1032
1132.30 0.1032
1132.40 0.1033
1132.50 0.1033
1132.60 0.1033
1132.70 0.1033
1132.80 0.1033
1132.90 0.1033
1133.00 0.1033
1133.10 0.1034
1133.20 0.1034
1133.30 0.1034
1133.40 0.1034
1133.50 0.1034
1133.60 0.1034
1133.70 0.1034
1133.80 0.1034
1133.90 0.1035
1134.00 0.1035
1134.10 0.1035
1134.20 0.1035
1134.30 0.1035
1134.40 0.1035
1134.50 0.1035
1134.60 0.1036
1134.70 0.1036
1134.80 0.1036
1134.90 0.1036
1135.00 0.1036
1135.10 0.1036
1135.20 0.1036
1135.30 0.1036
1135.40 0.1037
1135.50 0.1037
1135.60 0.1037
1135.70 0.1037
1135.80 0.1037
1135.90 0.1037
1136.00 0.1037
1136.10 0.1037
1136.20 0.1038
1136.30 0.1038
1136.40 0.1038
1136.50 0.1038
1136.60 0.1038
1136.70 0.1038
1136.80 0.1038
1136.90 0.1039
1137.00 0.1039
1137.10 0.1039
1137.20 0.1039
1137.30 0.1039
1137.40 0.1039
1137.50 0.1039
1137.60 0.1039
1137.70 0.104
1137.80 0.104
1137.90 0.104
1138.00 0.104
1138.10 0.104
1138.20 0.104
1138.30 0.104
1138.40 0.104
1138.50 0.1041
1138.60 0.1041
1138.70 0.1041
1138.80 0.1041
1138.90 0.1041
1139.00 0.1041
1139.10 0.1041
1139.20 0.1041
1139.30 0.1042
1139.40 0.1042
1139.50 0.1042
1139.60 0.1042
1139.70 0.1042
1139.80 0.1042
1139.90 0.1042
1140.00 0.1043
1140.10 0.1043
1140.20 0.1043
1140.30 0.1043
1140.40 0.1043
1140.50 0.1043
1140.60 0.1043
1140.70 0.1043
1140.80 0.1044
1140.90 0.1044
1141.00 0.1044
1141.10 0.1044
1141.20 0.1044
1141.30 0.1044
1141.40 0.1044
1141.50 0.1044
1141.60 0.1045
1141.70 0.1045
1141.80 0.1045
1141.90 0.1045
1142.00 0.1045
1142.10 0.1045
1142.20 0.1045
1142.30 0.1045
1142.40 0.1046
1142.50 0.1046
1142.60 0.1046
1142.70 0.1046
1142.80 0.1046
1142.90 0.1046
1143.00 0.1046
1143.10 0.1046
1143.20 0.1047
1143.30 0.1047
1143.40 0.1047
1143.50 0.1047
1143.60 0.1047
1143.70 0.1047
1143.80 0.1047
1143.90 0.1048
1144.00 0.1048
1144.10 0.1048
1144.20 0.1048
1144.30 0.1048
1144.40 0.1048
1144.50 0.1048
1144.60 0.1048
1144.70 0.1049
1144.80 0.1049
1144.90 0.1049
1145.00 0.1049
1145.10 0.1049
1145.20 0.1049
1145.30 0.1049
1145.40 0.105
1145.50 0.105
1145.60 0.105
1145.70 0.105
1145.80 0.105
1145.90 0.105
1146.00 0.105
1146.10 0.105
1146.20 0.1051
1146.30 0.1051
1146.40 0.1051
1146.50 0.1051
1146.60 0.1051
1146.70 0.1051
1146.80 0.1051
1146.90 0.1051
1147.00 0.1052
1147.10 0.1052
1147.20 0.1052
1147.30 0.1052
1147.40 0.1052
1147.50 0.1052
1147.60 0.1052
1147.70 0.1052
1147.80 0.1052
1147.90 0.1052
1148.00 0.1053
1148.10 0.1053
1148.20 0.1053
1148.30 0.1053
1148.40 0.1053
1148.50 0.1053
1148.60 0.1053
1148.70 0.1053
1148.80 0.1053
1148.90 0.1053
1149.00 0.1053
1149.10 0.1054
1149.20 0.1054
1149.30 0.1054
1149.40 0.1054
1149.50 0.1054
1149.60 0.1054
1149.70 0.1054
1149.80 0.1054
1149.90 0.1054
1150.00 0.1054
1150.10 0.1054
1150.20 0.1055
1150.30 0.1055
1150.40 0.1055
1150.50 0.1055
1150.60 0.1055
1150.70 0.1055
1150.80 0.1055
1150.90 0.1055
1151.00 0.1055
1151.10 0.1055
1151.20 0.1055
1151.30 0.1055
1151.40 0.1056
1151.50 0.1056
1151.60 0.1056
1151.70 0.1056
1151.80 0.1056
1151.90 0.1056
1152.00 0.1056
1152.10 0.1056
1152.20 0.1056
1152.30 0.1056
1152.40 0.1056
1152.50 0.1057
1152.60 0.1057
1152.70 0.1057
1152.80 0.1057
1152.90 0.1057
1153.00 0.1057
1153.10 0.1057
1153.20 0.1057
1153.30 0.1057
1153.40 0.1057
1153.50 0.1057
1153.60 0.1057
1153.70 0.1057
1153.80 0.1058
1153.90 0.1058
1154.00 0.1058
1154.10 0.1058
1154.20 0.1058
1154.30 0.1058
1154.40 0.1058
1154.50 0.1058
1154.60 0.1058
1154.70 0.1058
1154.80 0.1058
1154.90 0.1058
1155.00 0.1059
1155.10 0.1059
1155.20 0.1059
1155.30 0.1059
1155.40 0.1059
1155.50 0.1059
1155.60 0.1059
1155.70 0.1059
1155.80 0.1059
1155.90 0.1059
1156.00 0.1059
1156.10 0.1059
1156.20 0.1059
1156.30 0.106
1156.40 0.106
1156.50 0.106
1156.60 0.106
1156.70 0.106
1156.80 0.106
1156.90 0.106
1157.00 0.106
1157.10 0.106
1157.20 0.106
1157.30 0.106
1157.40 0.106
1157.50 0.106
1157.60 0.106
1157.70 0.106
1157.80 0.106
1157.90 0.106
1158.00 0.106
1158.10 0.106
1158.20 0.1061
1158.30 0.1061
1158.40 0.1061
1158.50 0.1061
1158.60 0.1061
1158.70 0.1061
1158.80 0.1061
1158.90 0.1061
1159.00 0.1061
1159.10 0.1061
1159.20 0.1061
1159.30 0.1061
1159.40 0.1061
1159.50 0.1061
1159.60 0.1061
1159.70 0.1061
1159.80 0.1061
1159.90 0.1061
1160.00 0.1061
1160.10 0.1061
1160.20 0.1061
1160.30 0.1061
1160.40 0.1061
1160.50 0.1061
1160.60 0.1061
1160.70 0.1061
1160.80 0.1061
1160.90 0.1061
1161.00 0.1061
1161.10 0.1061
1161.20 0.1062
1161.30 0.1062
1161.40 0.1062
1161.50 0.1062
1161.60 0.1062
1161.70 0.1062
1161.80 0.1062
1161.90 0.1062
1162.00 0.1062
1162.10 0.1062
1162.20 0.1062
1162.30 0.1062
1162.40 0.1062
1162.50 0.1062
1162.60 0.1062
1162.70 0.1062
1162.80 0.1062
1162.90 0.1062
1163.00 0.1062
1163.10 0.1062
1163.20 0.1062
1163.30 0.1062
1163.40 0.1062
1163.50 0.1062
1163.60 0.1062
1163.70 0.1062
1163.80 0.1062
1163.90 0.1062
1164.00 0.1062
1164.10 0.1062
1164.20 0.1062
1164.30 0.1062
1164.40 0.1062
1164.50 0.1062
1164.60 0.1062
1164.70 0.1062
1164.80 0.1062
1164.90 0.1062
1165.00 0.1062
1165.10 0.1062
1165.20 0.1062
1165.30 0.1062
1165.40 0.1062
1165.50 0.1062
1165.60 0.1062
1165.70 0.1062
1165.80 0.1062
1165.90 0.1062
1166.00 0.1062
1166.10 0.1062
1166.20 0.1062
1166.30 0.1062
1166.40 0.1062
1166.50 0.1062
1166.60 0.1062
1166.70 0.1062
1166.80 0.1062
1166.90 0.1062
1167.00 0.1062
1167.10 0.1062
1167.20 0.1062
1167.30 0.1062
1167.40 0.1062
1167.50 0.1062
1167.60 0.1062
1167.70 0.1062
1167.80 0.1062
1167.90 0.1062
1168.00 0.1061
1168.10 0.1061
1168.20 0.1061
1168.30 0.1061
1168.40 0.1061
1168.50 0.1061
1168.60 0.1061
1168.70 0.1061
1168.80 0.1061
1168.90 0.1061
1169.00 0.1061
1169.10 0.1061
1169.20 0.1061
1169.30 0.1061
1169.40 0.1061
1169.50 0.1061
1169.60 0.1061
1169.70 0.1061
1169.80 0.1061
1169.90 0.1061
1170.00 0.1061
1170.10 0.1061
1170.20 0.1061
1170.30 0.1061
1170.40 0.1061
1170.50 0.1061
1170.60 0.1061
1170.70 0.1061
1170.80 0.1061
1170.90 0.1061
1171.00 0.1061
1171.10 0.1061
1171.20 0.1061
1171.30 0.1061
1171.40 0.1061
1171.50 0.106
1171.60 0.106
1171.70 0.106
1171.80 0.106
1171.90 0.106
1172.00 0.106
1172.10 0.106
1172.20 0.106
1172.30 0.106
1172.40 0.106
1172.50 0.106
1172.60 0.106
1172.70 0.106
1172.80 0.106
1172.90 0.106
1173.00 0.106
1173.10 0.106
1173.20 0.1059
1173.30 0.1059
1173.40 0.1059
1173.50 0.1059
1173.60 0.1059
1173.70 0.1059
1173.80 0.1059
1173.90 0.1059
1174.00 0.1059
1174.10 0.1059
1174.20 0.1059
1174.30 0.1059
1174.40 0.1059
1174.50 0.1058
1174.60 0.1058
1174.70 0.1058
1174.80 0.1058
1174.90 0.1058
1175.00 0.1058
1175.10 0.1058
1175.20 0.1058
1175.30 0.1058
1175.40 0.1058
1175.50 0.1058
1175.60 0.1058
1175.70 0.1058
1175.80 0.1057
1175.90 0.1057
1176.00 0.1057
1176.10 0.1057
1176.20 0.1057
1176.30 0.1057
1176.40 0.1057
1176.50 0.1057
1176.60 0.1057
1176.70 0.1057
1176.80 0.1057
1176.90 0.1057
1177.00 0.1057
1177.10 0.1056
1177.20 0.1056
1177.30 0.1056
1177.40 0.1056
1177.50 0.1056
1177.60 0.1056
1177.70 0.1056
1177.80 0.1056
1177.90 0.1056
1178.00 0.1055
1178.10 0.1055
1178.20 0.1055
1178.30 0.1055
1178.40 0.1055
1178.50 0.1055
1178.60 0.1055
1178.70 0.1055
1178.80 0.1055
1178.90 0.1054
1179.00 0.1054
1179.10 0.1054
1179.20 0.1054
1179.30 0.1054
1179.40 0.1054
1179.50 0.1054
1179.60 0.1054
1179.70 0.1053
1179.80 0.1053
1179.90 0.1053
1180.00 0.1053
1180.10 0.1053
1180.20 0.1053
1180.30 0.1053
1180.40 0.1053
1180.50 0.1053
1180.60 0.1052
1180.70 0.1052
1180.80 0.1052
1180.90 0.1052
1181.00 0.1052
1181.10 0.1052
1181.20 0.1052
1181.30 0.1052
1181.40 0.1052
1181.50 0.1051
1181.60 0.1051
1181.70 0.1051
1181.80 0.1051
1181.90 0.1051
1182.00 0.1051
1182.10 0.1051
1182.20 0.1051
1182.30 0.105
1182.40 0.105
1182.50 0.105
1182.60 0.105
1182.70 0.105
1182.80 0.105
1182.90 0.1049
1183.00 0.1049
1183.10 0.1049
1183.20 0.1049
1183.30 0.1049
1183.40 0.1049
1183.50 0.1048
1183.60 0.1048
1183.70 0.1048
1183.80 0.1048
1183.90 0.1048
1184.00 0.1048
1184.10 0.1047
1184.20 0.1047
1184.30 0.1047
1184.40 0.1047
1184.50 0.1047
1184.60 0.1047
1184.70 0.1046
1184.80 0.1046
1184.90 0.1046
1185.00 0.1046
1185.10 0.1046
1185.20 0.1046
1185.30 0.1045
1185.40 0.1045
1185.50 0.1045
1185.60 0.1045
1185.70 0.1045
1185.80 0.1045
1185.90 0.1044
1186.00 0.1044
1186.10 0.1044
1186.20 0.1044
1186.30 0.1044
1186.40 0.1044
1186.50 0.1043
1186.60 0.1043
1186.70 0.1043
1186.80 0.1043
1186.90 0.1043
1187.00 0.1043
1187.10 0.1042
1187.20 0.1042
1187.30 0.1042
1187.40 0.1042
1187.50 0.1042
1187.60 0.1042
1187.70 0.1041
1187.80 0.1041
1187.90 0.1041
1188.00 0.1041
1188.10 0.1041
1188.20 0.1041
1188.30 0.104
1188.40 0.104
1188.50 0.104
1188.60 0.104
1188.70 0.104
1188.80 0.104
1188.90 0.1039
1189.00 0.1039
1189.10 0.1039
1189.20 0.1039
1189.30 0.1039
1189.40 0.1039
1189.50 0.1039
1189.60 0.1038
1189.70 0.1038
1189.80 0.1038
1189.90 0.1038
1190.00 0.1038
1190.10 0.1038
1190.20 0.1037
1190.30 0.1037
1190.40 0.1037
1190.50 0.1037
1190.60 0.1037
1190.70 0.1037
1190.80 0.1036
1190.90 0.1036
1191.00 0.1036
1191.10 0.1036
1191.20 0.1036
1191.30 0.1036
1191.40 0.1035
1191.50 0.1035
1191.60 0.1035
1191.70 0.1035
1191.80 0.1035
1191.90 0.1035
1192.00 0.1034
1192.10 0.1034
1192.20 0.1034
1192.30 0.1034
1192.40 0.1034
1192.50 0.1034
1192.60 0.1033
1192.70 0.1033
1192.80 0.1033
1192.90 0.1033
1193.00 0.1033
1193.10 0.1033
1193.20 0.1032
1193.30 0.1032
1193.40 0.1032
1193.50 0.1032
1193.60 0.1032
1193.70 0.1031
1193.80 0.1031
1193.90 0.1031
1194.00 0.1031
1194.10 0.1031
1194.20 0.1031
1194.30 0.103
1194.40 0.103
1194.50 0.103
1194.60 0.103
1194.70 0.103
1194.80 0.1029
1194.90 0.1029
1195.00 0.1029
1195.10 0.1029
1195.20 0.1029
1195.30 0.1029
1195.40 0.1028
1195.50 0.1028
1195.60 0.1028
1195.70 0.1028
1195.80 0.1028
1195.90 0.1028
1196.00 0.1027
1196.10 0.1027
1196.20 0.1027
1196.30 0.1027
1196.40 0.1027
1196.50 0.1026
1196.60 0.1026
1196.70 0.1026
1196.80 0.1026
1196.90 0.1026
1197.00 0.1026
1197.10 0.1025
1197.20 0.1025
1197.30 0.1025
1197.40 0.1025
1197.50 0.1025
1197.60 0.1024
1197.70 0.1024
1197.80 0.1024
1197.90 0.1024
1198.00 0.1023
1198.10 0.1023
1198.20 0.1023
1198.30 0.1023
1198.40 0.1023
1198.50 0.1022
1198.60 0.1022
1198.70 0.1022
1198.80 0.1022
1198.90 0.1022
1199.00 0.1021
1199.10 0.1021
1199.20 0.1021
1199.30 0.1021
1199.40 0.1021
1199.50 0.102
1199.60 0.102
1199.70 0.102
1199.80 0.102
1199.90 0.1019
1200.00 0
