# Version 2.1 - nm, norm@500 to 1, cut digits, bergeron_1750_90.dat_1750
# Wavelength(nm)  Flambda(ergs/cm^s/s/nm)
300.00 0.03925
300.10 0.03939
300.20 0.03952
300.30 0.03966
300.40 0.0398
300.50 0.03993
300.60 0.04007
300.70 0.04021
300.80 0.04034
300.90 0.04048
301.00 0.04062
301.10 0.04075
301.20 0.04089
301.30 0.04102
301.40 0.04116
301.50 0.0413
301.60 0.04143
301.70 0.04156
301.80 0.0417
301.90 0.04184
302.00 0.04197
302.10 0.04211
302.20 0.04225
302.30 0.0424
302.40 0.04254
302.50 0.04268
302.60 0.04283
302.70 0.04297
302.80 0.04311
302.90 0.04325
303.00 0.04339
303.10 0.04353
303.20 0.04368
303.30 0.04382
303.40 0.04396
303.50 0.0441
303.60 0.04424
303.70 0.04438
303.80 0.04452
303.90 0.04466
304.00 0.0448
304.10 0.04495
304.20 0.0451
304.30 0.04525
304.40 0.0454
304.50 0.04554
304.60 0.04569
304.70 0.04584
304.80 0.04599
304.90 0.04614
305.00 0.04628
305.10 0.04643
305.20 0.04658
305.30 0.04672
305.40 0.04687
305.50 0.04702
305.60 0.04716
305.70 0.04731
305.80 0.04746
305.90 0.0476
306.00 0.04775
306.10 0.04791
306.20 0.04806
306.30 0.04821
306.40 0.04837
306.50 0.04852
306.60 0.04868
306.70 0.04883
306.80 0.04899
306.90 0.04914
307.00 0.04929
307.10 0.04945
307.20 0.0496
307.30 0.04975
307.40 0.04991
307.50 0.05006
307.60 0.05021
307.70 0.05036
307.80 0.05051
307.90 0.05067
308.00 0.05082
308.10 0.05098
308.20 0.05114
308.30 0.0513
308.40 0.05146
308.50 0.05162
308.60 0.05178
308.70 0.05195
308.80 0.05211
308.90 0.05227
309.00 0.05243
309.10 0.05259
309.20 0.05274
309.30 0.0529
309.40 0.05306
309.50 0.05322
309.60 0.05338
309.70 0.05354
309.80 0.0537
309.90 0.05385
310.00 0.05402
310.10 0.05418
310.20 0.05435
310.30 0.05452
310.40 0.05469
310.50 0.05485
310.60 0.05502
310.70 0.05519
310.80 0.05536
310.90 0.05552
311.00 0.05569
311.10 0.05586
311.20 0.05602
311.30 0.05619
311.40 0.05636
311.50 0.05652
311.60 0.05669
311.70 0.05685
311.80 0.05702
311.90 0.05718
312.00 0.05735
312.10 0.05751
312.20 0.05768
312.30 0.05786
312.40 0.05803
312.50 0.0582
312.60 0.05838
312.70 0.05855
312.80 0.05872
312.90 0.0589
313.00 0.05907
313.10 0.05925
313.20 0.05942
313.30 0.05959
313.40 0.05976
313.50 0.05994
313.60 0.06011
313.70 0.06028
313.80 0.06045
313.90 0.06063
314.00 0.0608
314.10 0.06098
314.20 0.06116
314.30 0.06134
314.40 0.06152
314.50 0.0617
314.60 0.06188
314.70 0.06206
314.80 0.06225
314.90 0.06243
315.00 0.06261
315.10 0.06279
315.20 0.06296
315.30 0.06314
315.40 0.06332
315.50 0.0635
315.60 0.06368
315.70 0.06386
315.80 0.06404
315.90 0.06422
316.00 0.0644
316.10 0.06458
316.20 0.06477
316.30 0.06496
316.40 0.06515
316.50 0.06534
316.60 0.06552
316.70 0.06571
316.80 0.0659
316.90 0.06609
317.00 0.06627
317.10 0.06646
317.20 0.06664
317.30 0.06683
317.40 0.06702
317.50 0.0672
317.60 0.06739
317.70 0.06757
317.80 0.06776
317.90 0.06795
318.00 0.06814
318.10 0.06832
318.20 0.06852
318.30 0.06872
318.40 0.06891
318.50 0.06911
318.60 0.0693
318.70 0.0695
318.80 0.06969
318.90 0.06988
319.00 0.07008
319.10 0.07027
319.20 0.07047
319.30 0.07066
319.40 0.07085
319.50 0.07105
319.60 0.07124
319.70 0.07143
319.80 0.07162
319.90 0.07181
320.00 0.07201
320.10 0.07221
320.20 0.07241
320.30 0.07262
320.40 0.07282
320.50 0.07302
320.60 0.07322
320.70 0.07343
320.80 0.07363
320.90 0.07383
321.00 0.07403
321.10 0.07423
321.20 0.07443
321.30 0.07463
321.40 0.07483
321.50 0.07503
321.60 0.07523
321.70 0.07543
321.80 0.07563
321.90 0.07583
322.00 0.07603
322.10 0.07624
322.20 0.07645
322.30 0.07666
322.40 0.07687
322.50 0.07708
322.60 0.07729
322.70 0.0775
322.80 0.07771
322.90 0.07792
323.00 0.07813
323.10 0.07834
323.20 0.07855
323.30 0.07876
323.40 0.07896
323.50 0.07917
323.60 0.07938
323.70 0.07958
323.80 0.07979
323.90 0.08
324.00 0.08021
324.10 0.08042
324.20 0.08064
324.30 0.08086
324.40 0.08108
324.50 0.0813
324.60 0.08151
324.70 0.08173
324.80 0.08195
324.90 0.08216
325.00 0.08238
325.10 0.0826
325.20 0.08281
325.30 0.08303
325.40 0.08324
325.50 0.08346
325.60 0.08367
325.70 0.08389
325.80 0.0841
325.90 0.08432
326.00 0.08454
326.10 0.08475
326.20 0.08498
326.30 0.08521
326.40 0.08543
326.50 0.08566
326.60 0.08588
326.70 0.08611
326.80 0.08633
326.90 0.08656
327.00 0.08678
327.10 0.087
327.20 0.08723
327.30 0.08745
327.40 0.08767
327.50 0.0879
327.60 0.08812
327.70 0.08834
327.80 0.08856
327.90 0.08879
328.00 0.08902
328.10 0.08924
328.20 0.08947
328.30 0.08971
328.40 0.08994
328.50 0.09018
328.60 0.09041
328.70 0.09064
328.80 0.09087
328.90 0.09111
329.00 0.09134
329.10 0.09157
329.20 0.0918
329.30 0.09203
329.40 0.09226
329.50 0.09249
329.60 0.09272
329.70 0.09295
329.80 0.09318
329.90 0.09341
330.00 0.09364
330.10 0.09388
330.20 0.09412
330.30 0.09437
330.40 0.09461
330.50 0.09485
330.60 0.09509
330.70 0.09533
330.80 0.09557
330.90 0.09581
331.00 0.09605
331.10 0.09629
331.20 0.09653
331.30 0.09677
331.40 0.09701
331.50 0.09724
331.60 0.09748
331.70 0.09772
331.80 0.09796
331.90 0.09819
332.00 0.09843
332.10 0.09868
332.20 0.09893
332.30 0.09918
332.40 0.09943
332.50 0.09968
332.60 0.09993
332.70 0.1002
332.80 0.1004
332.90 0.1007
333.00 0.1009
333.10 0.1012
333.20 0.1014
333.30 0.1017
333.40 0.1019
333.50 0.1022
333.60 0.1024
333.70 0.1026
333.80 0.1029
333.90 0.1031
334.00 0.1034
334.10 0.1036
334.20 0.1039
334.30 0.1042
334.40 0.1044
334.50 0.1047
334.60 0.1049
334.70 0.1052
334.80 0.1054
334.90 0.1057
335.00 0.106
335.10 0.1062
335.20 0.1065
335.30 0.1067
335.40 0.107
335.50 0.1072
335.60 0.1075
335.70 0.1077
335.80 0.108
335.90 0.1082
336.00 0.1085
336.10 0.1088
336.20 0.109
336.30 0.1093
336.40 0.1096
336.50 0.1098
336.60 0.1101
336.70 0.1104
336.80 0.1106
336.90 0.1109
337.00 0.1111
337.10 0.1114
337.20 0.1117
337.30 0.1119
337.40 0.1122
337.50 0.1125
337.60 0.1127
337.70 0.113
337.80 0.1132
337.90 0.1135
338.00 0.1138
338.10 0.114
338.20 0.1143
338.30 0.1146
338.40 0.1149
338.50 0.1151
338.60 0.1154
338.70 0.1157
338.80 0.116
338.90 0.1162
339.00 0.1165
339.10 0.1168
339.20 0.117
339.30 0.1173
339.40 0.1176
339.50 0.1179
339.60 0.1181
339.70 0.1184
339.80 0.1187
339.90 0.1189
340.00 0.1192
340.10 0.1195
340.20 0.1198
340.30 0.1201
340.40 0.1203
340.50 0.1206
340.60 0.1209
340.70 0.1212
340.80 0.1215
340.90 0.1217
341.00 0.122
341.10 0.1223
341.20 0.1226
341.30 0.1229
341.40 0.1231
341.50 0.1234
341.60 0.1237
341.70 0.124
341.80 0.1243
341.90 0.1245
342.00 0.1248
342.10 0.1251
342.20 0.1254
342.30 0.1257
342.40 0.126
342.50 0.1263
342.60 0.1266
342.70 0.1269
342.80 0.1271
342.90 0.1274
343.00 0.1277
343.10 0.128
343.20 0.1283
343.30 0.1286
343.40 0.1289
343.50 0.1292
343.60 0.1294
343.70 0.1297
343.80 0.13
343.90 0.1303
344.00 0.1306
344.10 0.1309
344.20 0.1312
344.30 0.1315
344.40 0.1318
344.50 0.1321
344.60 0.1324
344.70 0.1327
344.80 0.133
344.90 0.1333
345.00 0.1336
345.10 0.1339
345.20 0.1342
345.30 0.1345
345.40 0.1348
345.50 0.1351
345.60 0.1354
345.70 0.1356
345.80 0.1359
345.90 0.1362
346.00 0.1365
346.10 0.1368
346.20 0.1371
346.30 0.1375
346.40 0.1378
346.50 0.1381
346.60 0.1384
346.70 0.1387
346.80 0.139
346.90 0.1393
347.00 0.1396
347.10 0.1399
347.20 0.1402
347.30 0.1405
347.40 0.1408
347.50 0.1411
347.60 0.1414
347.70 0.1417
347.80 0.142
347.90 0.1423
348.00 0.1426
348.10 0.143
348.20 0.1433
348.30 0.1436
348.40 0.1439
348.50 0.1442
348.60 0.1445
348.70 0.1449
348.80 0.1452
348.90 0.1455
349.00 0.1458
349.10 0.1461
349.20 0.1464
349.30 0.1467
349.40 0.147
349.50 0.1474
349.60 0.1477
349.70 0.148
349.80 0.1483
349.90 0.1486
350.00 0.1489
350.10 0.1492
350.20 0.1496
350.30 0.1499
350.40 0.1502
350.50 0.1505
350.60 0.1509
350.70 0.1512
350.80 0.1515
350.90 0.1518
351.00 0.1522
351.10 0.1525
351.20 0.1528
351.30 0.1531
351.40 0.1534
351.50 0.1538
351.60 0.1541
351.70 0.1544
351.80 0.1547
351.90 0.155
352.00 0.1554
352.10 0.1557
352.20 0.156
352.30 0.1564
352.40 0.1567
352.50 0.157
352.60 0.1574
352.70 0.1577
352.80 0.158
352.90 0.1584
353.00 0.1587
353.10 0.159
353.20 0.1594
353.30 0.1597
353.40 0.16
353.50 0.1603
353.60 0.1607
353.70 0.161
353.80 0.1613
353.90 0.1617
354.00 0.162
354.10 0.1623
354.20 0.1627
354.30 0.163
354.40 0.1634
354.50 0.1637
354.60 0.164
354.70 0.1644
354.80 0.1647
354.90 0.1651
355.00 0.1654
355.10 0.1657
355.20 0.1661
355.30 0.1664
355.40 0.1668
355.50 0.1671
355.60 0.1674
355.70 0.1678
355.80 0.1681
355.90 0.1684
356.00 0.1688
356.10 0.1691
356.20 0.1695
356.30 0.1698
356.40 0.1702
356.50 0.1705
356.60 0.1709
356.70 0.1712
356.80 0.1716
356.90 0.1719
357.00 0.1723
357.10 0.1726
357.20 0.173
357.30 0.1733
357.40 0.1737
357.50 0.174
357.60 0.1744
357.70 0.1747
357.80 0.1751
357.90 0.1754
358.00 0.1757
358.10 0.1761
358.20 0.1765
358.30 0.1768
358.40 0.1772
358.50 0.1775
358.60 0.1779
358.70 0.1783
358.80 0.1786
358.90 0.179
359.00 0.1793
359.10 0.1797
359.20 0.18
359.30 0.1804
359.40 0.1808
359.50 0.1811
359.60 0.1815
359.70 0.1818
359.80 0.1822
359.90 0.1825
360.00 0.1829
360.10 0.1833
360.20 0.1836
360.30 0.184
360.40 0.1844
360.50 0.1847
360.60 0.1851
360.70 0.1855
360.80 0.1858
360.90 0.1862
361.00 0.1866
361.10 0.1869
361.20 0.1873
361.30 0.1876
361.40 0.188
361.50 0.1884
361.60 0.1887
361.70 0.1891
361.80 0.1895
361.90 0.1898
362.00 0.1902
362.10 0.1906
362.20 0.1909
362.30 0.1913
362.40 0.1917
362.50 0.192
362.60 0.1924
362.70 0.1928
362.80 0.1932
362.90 0.1935
363.00 0.1939
363.10 0.1943
363.20 0.1947
363.30 0.195
363.40 0.1954
363.50 0.1958
363.60 0.1962
363.70 0.1966
363.80 0.1969
363.90 0.1973
364.00 0.1977
364.10 0.1981
364.20 0.1984
364.30 0.1988
364.40 0.1992
364.50 0.1996
364.60 0.2
364.70 0.2003
364.80 0.2007
364.90 0.2011
365.00 0.2015
365.10 0.2019
365.20 0.2023
365.30 0.2026
365.40 0.203
365.50 0.2034
365.60 0.2038
365.70 0.2042
365.80 0.2046
365.90 0.2049
366.00 0.2053
366.10 0.2057
366.20 0.2061
366.30 0.2065
366.40 0.2069
366.50 0.2073
366.60 0.2077
366.70 0.2081
366.80 0.2085
366.90 0.2089
367.00 0.2092
367.10 0.2096
367.20 0.21
367.30 0.2104
367.40 0.2108
367.50 0.2112
367.60 0.2116
367.70 0.212
367.80 0.2124
367.90 0.2127
368.00 0.2131
368.10 0.2135
368.20 0.2139
368.30 0.2143
368.40 0.2147
368.50 0.2151
368.60 0.2156
368.70 0.216
368.80 0.2164
368.90 0.2168
369.00 0.2172
369.10 0.2176
369.20 0.2179
369.30 0.2183
369.40 0.2187
369.50 0.2191
369.60 0.2195
369.70 0.2199
369.80 0.2203
369.90 0.2207
370.00 0.2211
370.10 0.2215
370.20 0.2219
370.30 0.2224
370.40 0.2228
370.50 0.2232
370.60 0.2236
370.70 0.224
370.80 0.2244
370.90 0.2248
371.00 0.2252
371.10 0.2256
371.20 0.226
371.30 0.2265
371.40 0.2269
371.50 0.2273
371.60 0.2277
371.70 0.2281
371.80 0.2285
371.90 0.2289
372.00 0.2293
372.10 0.2297
372.20 0.2301
372.30 0.2306
372.40 0.231
372.50 0.2314
372.60 0.2318
372.70 0.2322
372.80 0.2326
372.90 0.2331
373.00 0.2335
373.10 0.2339
373.20 0.2343
373.30 0.2347
373.40 0.2351
373.50 0.2356
373.60 0.236
373.70 0.2364
373.80 0.2368
373.90 0.2372
374.00 0.2376
374.10 0.2381
374.20 0.2385
374.30 0.2389
374.40 0.2393
374.50 0.2398
374.60 0.2402
374.70 0.2406
374.80 0.241
374.90 0.2415
375.00 0.2419
375.10 0.2423
375.20 0.2427
375.30 0.2432
375.40 0.2436
375.50 0.244
375.60 0.2444
375.70 0.2449
375.80 0.2453
375.90 0.2457
376.00 0.2461
376.10 0.2466
376.20 0.247
376.30 0.2474
376.40 0.2479
376.50 0.2483
376.60 0.2487
376.70 0.2491
376.80 0.2496
376.90 0.25
377.00 0.2504
377.10 0.2509
377.20 0.2513
377.30 0.2518
377.40 0.2522
377.50 0.2526
377.60 0.2531
377.70 0.2535
377.80 0.2539
377.90 0.2544
378.00 0.2548
378.10 0.2552
378.20 0.2557
378.30 0.2561
378.40 0.2566
378.50 0.257
378.60 0.2574
378.70 0.2579
378.80 0.2583
378.90 0.2588
379.00 0.2592
379.10 0.2596
379.20 0.2601
379.30 0.2605
379.40 0.261
379.50 0.2614
379.60 0.2619
379.70 0.2623
379.80 0.2627
379.90 0.2632
380.00 0.2636
380.10 0.2641
380.20 0.2645
380.30 0.265
380.40 0.2654
380.50 0.2659
380.60 0.2663
380.70 0.2668
380.80 0.2672
380.90 0.2677
381.00 0.2681
381.10 0.2686
381.20 0.269
381.30 0.2695
381.40 0.2699
381.50 0.2704
381.60 0.2708
381.70 0.2713
381.80 0.2717
381.90 0.2722
382.00 0.2726
382.10 0.2731
382.20 0.2735
382.30 0.274
382.40 0.2745
382.50 0.2749
382.60 0.2754
382.70 0.2758
382.80 0.2763
382.90 0.2768
383.00 0.2772
383.10 0.2777
383.20 0.2781
383.30 0.2786
383.40 0.279
383.50 0.2795
383.60 0.28
383.70 0.2804
383.80 0.2809
383.90 0.2813
384.00 0.2818
384.10 0.2823
384.20 0.2827
384.30 0.2832
384.40 0.2837
384.50 0.2841
384.60 0.2846
384.70 0.285
384.80 0.2855
384.90 0.286
385.00 0.2864
385.10 0.2869
385.20 0.2874
385.30 0.2878
385.40 0.2883
385.50 0.2888
385.60 0.2893
385.70 0.2897
385.80 0.2902
385.90 0.2907
386.00 0.2911
386.10 0.2916
386.20 0.2921
386.30 0.2925
386.40 0.293
386.50 0.2935
386.60 0.294
386.70 0.2944
386.80 0.2949
386.90 0.2954
387.00 0.2959
387.10 0.2963
387.20 0.2968
387.30 0.2973
387.40 0.2978
387.50 0.2982
387.60 0.2987
387.70 0.2992
387.80 0.2997
387.90 0.3001
388.00 0.3006
388.10 0.3011
388.20 0.3016
388.30 0.3021
388.40 0.3025
388.50 0.303
388.60 0.3035
388.70 0.304
388.80 0.3045
388.90 0.3049
389.00 0.3054
389.10 0.3059
389.20 0.3064
389.30 0.3069
389.40 0.3074
389.50 0.3078
389.60 0.3083
389.70 0.3088
389.80 0.3093
389.90 0.3098
390.00 0.3103
390.10 0.3108
390.20 0.3112
390.30 0.3117
390.40 0.3122
390.50 0.3127
390.60 0.3132
390.70 0.3137
390.80 0.3142
390.90 0.3147
391.00 0.3152
391.10 0.3156
391.20 0.3161
391.30 0.3166
391.40 0.3171
391.50 0.3176
391.60 0.3181
391.70 0.3186
391.80 0.3191
391.90 0.3196
392.00 0.3201
392.10 0.3206
392.20 0.3211
392.30 0.3216
392.40 0.3221
392.50 0.3226
392.60 0.3231
392.70 0.3236
392.80 0.324
392.90 0.3246
393.00 0.325
393.10 0.3255
393.20 0.326
393.30 0.3265
393.40 0.327
393.50 0.3275
393.60 0.328
393.70 0.3285
393.80 0.329
393.90 0.3295
394.00 0.33
394.10 0.3305
394.20 0.3311
394.30 0.3316
394.40 0.3321
394.50 0.3326
394.60 0.3331
394.70 0.3336
394.80 0.3341
394.90 0.3346
395.00 0.3351
395.10 0.3356
395.20 0.3361
395.30 0.3366
395.40 0.3371
395.50 0.3376
395.60 0.3381
395.70 0.3386
395.80 0.3392
395.90 0.3397
396.00 0.3402
396.10 0.3407
396.20 0.3412
396.30 0.3417
396.40 0.3422
396.50 0.3427
396.60 0.3432
396.70 0.3438
396.80 0.3443
396.90 0.3448
397.00 0.3453
397.10 0.3458
397.20 0.3463
397.30 0.3468
397.40 0.3473
397.50 0.3479
397.60 0.3484
397.70 0.3489
397.80 0.3494
397.90 0.3499
398.00 0.3504
398.10 0.351
398.20 0.3515
398.30 0.352
398.40 0.3525
398.50 0.353
398.60 0.3536
398.70 0.3541
398.80 0.3546
398.90 0.3551
399.00 0.3556
399.10 0.3562
399.20 0.3567
399.30 0.3572
399.40 0.3577
399.50 0.3582
399.60 0.3588
399.70 0.3593
399.80 0.3598
399.90 0.3603
400.00 0.3609
400.10 0.3614
400.20 0.3619
400.30 0.3624
400.40 0.363
400.50 0.3635
400.60 0.364
400.70 0.3646
400.80 0.3651
400.90 0.3656
401.00 0.3661
401.10 0.3667
401.20 0.3672
401.30 0.3677
401.40 0.3682
401.50 0.3688
401.60 0.3693
401.70 0.3698
401.80 0.3704
401.90 0.3709
402.00 0.3714
402.10 0.372
402.20 0.3725
402.30 0.373
402.40 0.3736
402.50 0.3741
402.60 0.3746
402.70 0.3752
402.80 0.3757
402.90 0.3762
403.00 0.3768
403.10 0.3773
403.20 0.3779
403.30 0.3784
403.40 0.3789
403.50 0.3795
403.60 0.38
403.70 0.3805
403.80 0.3811
403.90 0.3816
404.00 0.3822
404.10 0.3827
404.20 0.3832
404.30 0.3838
404.40 0.3843
404.50 0.3849
404.60 0.3854
404.70 0.3859
404.80 0.3865
404.90 0.387
405.00 0.3876
405.10 0.3881
405.20 0.3887
405.30 0.3892
405.40 0.3897
405.50 0.3903
405.60 0.3908
405.70 0.3914
405.80 0.3919
405.90 0.3925
406.00 0.393
406.10 0.3936
406.20 0.3941
406.30 0.3947
406.40 0.3952
406.50 0.3958
406.60 0.3963
406.70 0.3969
406.80 0.3974
406.90 0.398
407.00 0.3985
407.10 0.3991
407.20 0.3996
407.30 0.4002
407.40 0.4007
407.50 0.4013
407.60 0.4018
407.70 0.4024
407.80 0.4029
407.90 0.4035
408.00 0.404
408.10 0.4046
408.20 0.4051
408.30 0.4057
408.40 0.4062
408.50 0.4068
408.60 0.4074
408.70 0.4079
408.80 0.4085
408.90 0.409
409.00 0.4096
409.10 0.4101
409.20 0.4107
409.30 0.4112
409.40 0.4118
409.50 0.4124
409.60 0.4129
409.70 0.4135
409.80 0.414
409.90 0.4146
410.00 0.4152
410.10 0.4157
410.20 0.4163
410.30 0.4169
410.40 0.4174
410.50 0.418
410.60 0.4185
410.70 0.4191
410.80 0.4197
410.90 0.4202
411.00 0.4208
411.10 0.4214
411.20 0.4219
411.30 0.4225
411.40 0.4231
411.50 0.4236
411.60 0.4242
411.70 0.4247
411.80 0.4253
411.90 0.4259
412.00 0.4265
412.10 0.427
412.20 0.4276
412.30 0.4282
412.40 0.4287
412.50 0.4293
412.60 0.4299
412.70 0.4304
412.80 0.431
412.90 0.4316
413.00 0.4321
413.10 0.4327
413.20 0.4333
413.30 0.4339
413.40 0.4344
413.50 0.435
413.60 0.4356
413.70 0.4361
413.80 0.4367
413.90 0.4373
414.00 0.4379
414.10 0.4384
414.20 0.439
414.30 0.4396
414.40 0.4402
414.50 0.4407
414.60 0.4413
414.70 0.4419
414.80 0.4425
414.90 0.443
415.00 0.4436
415.10 0.4442
415.20 0.4448
415.30 0.4454
415.40 0.4459
415.50 0.4465
415.60 0.4471
415.70 0.4477
415.80 0.4482
415.90 0.4488
416.00 0.4494
416.10 0.45
416.20 0.4506
416.30 0.4511
416.40 0.4517
416.50 0.4523
416.60 0.4529
416.70 0.4535
416.80 0.4541
416.90 0.4546
417.00 0.4552
417.10 0.4558
417.20 0.4564
417.30 0.457
417.40 0.4576
417.50 0.4582
417.60 0.4587
417.70 0.4593
417.80 0.4599
417.90 0.4605
418.00 0.4611
418.10 0.4617
418.20 0.4623
418.30 0.4628
418.40 0.4634
418.50 0.464
418.60 0.4646
418.70 0.4652
418.80 0.4658
418.90 0.4664
419.00 0.467
419.10 0.4676
419.20 0.4681
419.30 0.4687
419.40 0.4693
419.50 0.4699
419.60 0.4705
419.70 0.4711
419.80 0.4717
419.90 0.4723
420.00 0.4729
420.10 0.4735
420.20 0.4741
420.30 0.4747
420.40 0.4753
420.50 0.4758
420.60 0.4764
420.70 0.477
420.80 0.4776
420.90 0.4782
421.00 0.4788
421.10 0.4794
421.20 0.48
421.30 0.4806
421.40 0.4812
421.50 0.4818
421.60 0.4824
421.70 0.483
421.80 0.4836
421.90 0.4842
422.00 0.4848
422.10 0.4854
422.20 0.486
422.30 0.4866
422.40 0.4872
422.50 0.4878
422.60 0.4884
422.70 0.489
422.80 0.4896
422.90 0.4902
423.00 0.4908
423.10 0.4914
423.20 0.492
423.30 0.4926
423.40 0.4932
423.50 0.4938
423.60 0.4944
423.70 0.495
423.80 0.4956
423.90 0.4962
424.00 0.4968
424.10 0.4974
424.20 0.498
424.30 0.4987
424.40 0.4993
424.50 0.4999
424.60 0.5005
424.70 0.5011
424.80 0.5017
424.90 0.5023
425.00 0.5029
425.10 0.5035
425.20 0.5041
425.30 0.5047
425.40 0.5053
425.50 0.5059
425.60 0.5065
425.70 0.5072
425.80 0.5078
425.90 0.5084
426.00 0.509
426.10 0.5096
426.20 0.5102
426.30 0.5108
426.40 0.5114
426.50 0.512
426.60 0.5127
426.70 0.5133
426.80 0.5139
426.90 0.5145
427.00 0.5151
427.10 0.5157
427.20 0.5163
427.30 0.5169
427.40 0.5176
427.50 0.5182
427.60 0.5188
427.70 0.5194
427.80 0.52
427.90 0.5206
428.00 0.5212
428.10 0.5219
428.20 0.5225
428.30 0.5231
428.40 0.5237
428.50 0.5243
428.60 0.5249
428.70 0.5256
428.80 0.5262
428.90 0.5268
429.00 0.5274
429.10 0.528
429.20 0.5287
429.30 0.5293
429.40 0.5299
429.50 0.5305
429.60 0.5311
429.70 0.5318
429.80 0.5324
429.90 0.533
430.00 0.5336
430.10 0.5342
430.20 0.5349
430.30 0.5355
430.40 0.5361
430.50 0.5367
430.60 0.5374
430.70 0.538
430.80 0.5386
430.90 0.5392
431.00 0.5399
431.10 0.5405
431.20 0.5411
431.30 0.5417
431.40 0.5423
431.50 0.543
431.60 0.5436
431.70 0.5442
431.80 0.5448
431.90 0.5455
432.00 0.5461
432.10 0.5467
432.20 0.5474
432.30 0.548
432.40 0.5486
432.50 0.5492
432.60 0.5499
432.70 0.5505
432.80 0.5511
432.90 0.5518
433.00 0.5524
433.10 0.553
433.20 0.5536
433.30 0.5543
433.40 0.5549
433.50 0.5555
433.60 0.5562
433.70 0.5568
433.80 0.5574
433.90 0.5581
434.00 0.5587
434.10 0.5593
434.20 0.5599
434.30 0.5606
434.40 0.5612
434.50 0.5618
434.60 0.5625
434.70 0.5631
434.80 0.5637
434.90 0.5644
435.00 0.565
435.10 0.5656
435.20 0.5663
435.30 0.5669
435.40 0.5676
435.50 0.5682
435.60 0.5688
435.70 0.5695
435.80 0.5701
435.90 0.5707
436.00 0.5714
436.10 0.572
436.20 0.5726
436.30 0.5733
436.40 0.5739
436.50 0.5746
436.60 0.5752
436.70 0.5758
436.80 0.5765
436.90 0.5771
437.00 0.5777
437.10 0.5784
437.20 0.579
437.30 0.5797
437.40 0.5803
437.50 0.5809
437.60 0.5816
437.70 0.5822
437.80 0.5829
437.90 0.5835
438.00 0.5841
438.10 0.5848
438.20 0.5854
438.30 0.5861
438.40 0.5867
438.50 0.5874
438.60 0.588
438.70 0.5886
438.80 0.5893
438.90 0.5899
439.00 0.5906
439.10 0.5912
439.20 0.5919
439.30 0.5925
439.40 0.5931
439.50 0.5938
439.60 0.5944
439.70 0.5951
439.80 0.5957
439.90 0.5964
440.00 0.597
440.10 0.5977
440.20 0.5983
440.30 0.599
440.40 0.5996
440.50 0.6002
440.60 0.6009
440.70 0.6015
440.80 0.6022
440.90 0.6028
441.00 0.6035
441.10 0.6041
441.20 0.6048
441.30 0.6054
441.40 0.6061
441.50 0.6067
441.60 0.6074
441.70 0.608
441.80 0.6087
441.90 0.6093
442.00 0.61
442.10 0.6106
442.20 0.6113
442.30 0.6119
442.40 0.6126
442.50 0.6132
442.60 0.6139
442.70 0.6145
442.80 0.6152
442.90 0.6158
443.00 0.6165
443.10 0.6171
443.20 0.6178
443.30 0.6184
443.40 0.6191
443.50 0.6197
443.60 0.6204
443.70 0.621
443.80 0.6217
443.90 0.6223
444.00 0.623
444.10 0.6237
444.20 0.6243
444.30 0.625
444.40 0.6256
444.50 0.6263
444.60 0.6269
444.70 0.6276
444.80 0.6282
444.90 0.6289
445.00 0.6296
445.10 0.6302
445.20 0.6309
445.30 0.6315
445.40 0.6322
445.50 0.6328
445.60 0.6335
445.70 0.6341
445.80 0.6348
445.90 0.6355
446.00 0.6361
446.10 0.6368
446.20 0.6374
446.30 0.6381
446.40 0.6387
446.50 0.6394
446.60 0.6401
446.70 0.6407
446.80 0.6414
446.90 0.642
447.00 0.6427
447.10 0.6434
447.20 0.644
447.30 0.6447
447.40 0.6453
447.50 0.646
447.60 0.6467
447.70 0.6473
447.80 0.648
447.90 0.6486
448.00 0.6493
448.10 0.65
448.20 0.6506
448.30 0.6513
448.40 0.6519
448.50 0.6526
448.60 0.6533
448.70 0.6539
448.80 0.6546
448.90 0.6553
449.00 0.6559
449.10 0.6566
449.20 0.6572
449.30 0.6579
449.40 0.6586
449.50 0.6592
449.60 0.6599
449.70 0.6606
449.80 0.6612
449.90 0.6619
450.00 0.6626
450.10 0.6632
450.20 0.6639
450.30 0.6646
450.40 0.6652
450.50 0.6659
450.60 0.6666
450.70 0.6672
450.80 0.6679
450.90 0.6686
451.00 0.6692
451.10 0.6699
451.20 0.6705
451.30 0.6712
451.40 0.6719
451.50 0.6725
451.60 0.6732
451.70 0.6739
451.80 0.6746
451.90 0.6752
452.00 0.6759
452.10 0.6766
452.20 0.6772
452.30 0.6779
452.40 0.6786
452.50 0.6792
452.60 0.6799
452.70 0.6806
452.80 0.6812
452.90 0.6819
453.00 0.6826
453.10 0.6832
453.20 0.6839
453.30 0.6846
453.40 0.6852
453.50 0.6859
453.60 0.6866
453.70 0.6873
453.80 0.6879
453.90 0.6886
454.00 0.6893
454.10 0.6899
454.20 0.6906
454.30 0.6913
454.40 0.692
454.50 0.6926
454.60 0.6933
454.70 0.694
454.80 0.6946
454.90 0.6953
455.00 0.696
455.10 0.6967
455.20 0.6973
455.30 0.698
455.40 0.6987
455.50 0.6993
455.60 0.7
455.70 0.7007
455.80 0.7014
455.90 0.702
456.00 0.7027
456.10 0.7034
456.20 0.7041
456.30 0.7047
456.40 0.7054
456.50 0.7061
456.60 0.7068
456.70 0.7074
456.80 0.7081
456.90 0.7088
457.00 0.7095
457.10 0.7101
457.20 0.7108
457.30 0.7115
457.40 0.7122
457.50 0.7128
457.60 0.7135
457.70 0.7142
457.80 0.7149
457.90 0.7155
458.00 0.7162
458.10 0.7169
458.20 0.7176
458.30 0.7182
458.40 0.7189
458.50 0.7196
458.60 0.7203
458.70 0.7209
458.80 0.7216
458.90 0.7223
459.00 0.723
459.10 0.7237
459.20 0.7243
459.30 0.725
459.40 0.7257
459.50 0.7264
459.60 0.727
459.70 0.7277
459.80 0.7284
459.90 0.7291
460.00 0.7297
460.10 0.7304
460.20 0.7311
460.30 0.7318
460.40 0.7325
460.50 0.7331
460.60 0.7338
460.70 0.7345
460.80 0.7352
460.90 0.7359
461.00 0.7365
461.10 0.7372
461.20 0.7379
461.30 0.7386
461.40 0.7393
461.50 0.7399
461.60 0.7406
461.70 0.7413
461.80 0.742
461.90 0.7426
462.00 0.7433
462.10 0.744
462.20 0.7447
462.30 0.7454
462.40 0.746
462.50 0.7467
462.60 0.7474
462.70 0.7481
462.80 0.7488
462.90 0.7495
463.00 0.7501
463.10 0.7508
463.20 0.7515
463.30 0.7522
463.40 0.7529
463.50 0.7535
463.60 0.7542
463.70 0.7549
463.80 0.7556
463.90 0.7563
464.00 0.7569
464.10 0.7576
464.20 0.7583
464.30 0.759
464.40 0.7597
464.50 0.7603
464.60 0.761
464.70 0.7617
464.80 0.7624
464.90 0.7631
465.00 0.7638
465.10 0.7644
465.20 0.7651
465.30 0.7658
465.40 0.7665
465.50 0.7672
465.60 0.7679
465.70 0.7685
465.80 0.7692
465.90 0.7699
466.00 0.7706
466.10 0.7713
466.20 0.7719
466.30 0.7726
466.40 0.7733
466.50 0.774
466.60 0.7747
466.70 0.7754
466.80 0.776
466.90 0.7767
467.00 0.7774
467.10 0.7781
467.20 0.7788
467.30 0.7795
467.40 0.7801
467.50 0.7808
467.60 0.7815
467.70 0.7822
467.80 0.7829
467.90 0.7836
468.00 0.7842
468.10 0.7849
468.20 0.7856
468.30 0.7863
468.40 0.787
468.50 0.7877
468.60 0.7884
468.70 0.789
468.80 0.7897
468.90 0.7904
469.00 0.7911
469.10 0.7918
469.20 0.7924
469.30 0.7931
469.40 0.7938
469.50 0.7945
469.60 0.7952
469.70 0.7959
469.80 0.7966
469.90 0.7972
470.00 0.7979
470.10 0.7986
470.20 0.7993
470.30 0.8
470.40 0.8007
470.50 0.8014
470.60 0.802
470.70 0.8027
470.80 0.8034
470.90 0.8041
471.00 0.8048
471.10 0.8055
471.20 0.8061
471.30 0.8068
471.40 0.8075
471.50 0.8082
471.60 0.8089
471.70 0.8096
471.80 0.8103
471.90 0.8109
472.00 0.8116
472.10 0.8123
472.20 0.813
472.30 0.8137
472.40 0.8144
472.50 0.815
472.60 0.8157
472.70 0.8164
472.80 0.8171
472.90 0.8178
473.00 0.8185
473.10 0.8192
473.20 0.8198
473.30 0.8205
473.40 0.8212
473.50 0.8219
473.60 0.8226
473.70 0.8233
473.80 0.824
473.90 0.8246
474.00 0.8253
474.10 0.826
474.20 0.8267
474.30 0.8274
474.40 0.8281
474.50 0.8287
474.60 0.8294
474.70 0.8301
474.80 0.8308
474.90 0.8315
475.00 0.8322
475.10 0.8328
475.20 0.8335
475.30 0.8342
475.40 0.8349
475.50 0.8356
475.60 0.8363
475.70 0.837
475.80 0.8376
475.90 0.8383
476.00 0.839
476.10 0.8397
476.20 0.8404
476.30 0.8411
476.40 0.8418
476.50 0.8424
476.60 0.8431
476.70 0.8438
476.80 0.8445
476.90 0.8452
477.00 0.8459
477.10 0.8465
477.20 0.8472
477.30 0.8479
477.40 0.8486
477.50 0.8493
477.60 0.85
477.70 0.8506
477.80 0.8513
477.90 0.852
478.00 0.8527
478.10 0.8534
478.20 0.8541
478.30 0.8547
478.40 0.8554
478.50 0.8561
478.60 0.8568
478.70 0.8575
478.80 0.8582
478.90 0.8588
479.00 0.8595
479.10 0.8602
479.20 0.8609
479.30 0.8616
479.40 0.8623
479.50 0.8629
479.60 0.8636
479.70 0.8643
479.80 0.865
479.90 0.8657
480.00 0.8664
480.10 0.867
480.20 0.8677
480.30 0.8684
480.40 0.8691
480.50 0.8698
480.60 0.8705
480.70 0.8711
480.80 0.8718
480.90 0.8725
481.00 0.8732
481.10 0.8739
481.20 0.8745
481.30 0.8752
481.40 0.8759
481.50 0.8766
481.60 0.8773
481.70 0.878
481.80 0.8786
481.90 0.8793
482.00 0.88
482.10 0.8807
482.20 0.8814
482.30 0.882
482.40 0.8827
482.50 0.8834
482.60 0.8841
482.70 0.8848
482.80 0.8854
482.90 0.8861
483.00 0.8868
483.10 0.8875
483.20 0.8882
483.30 0.8888
483.40 0.8895
483.50 0.8902
483.60 0.8909
483.70 0.8916
483.80 0.8922
483.90 0.8929
484.00 0.8936
484.10 0.8943
484.20 0.8949
484.30 0.8956
484.40 0.8963
484.50 0.897
484.60 0.8977
484.70 0.8983
484.80 0.899
484.90 0.8997
485.00 0.9004
485.10 0.9011
485.20 0.9017
485.30 0.9024
485.40 0.9031
485.50 0.9037
485.60 0.9044
485.70 0.9051
485.80 0.9058
485.90 0.9065
486.00 0.9071
486.10 0.9078
486.20 0.9085
486.30 0.9092
486.40 0.9098
486.50 0.9105
486.60 0.9112
486.70 0.9119
486.80 0.9126
486.90 0.9133
487.00 0.9139
487.10 0.9146
487.20 0.9153
487.30 0.9159
487.40 0.9166
487.50 0.9173
487.60 0.9179
487.70 0.9186
487.80 0.9193
487.90 0.92
488.00 0.9206
488.10 0.9213
488.20 0.922
488.30 0.9227
488.40 0.9233
488.50 0.924
488.60 0.9247
488.70 0.9253
488.80 0.926
488.90 0.9267
489.00 0.9274
489.10 0.928
489.20 0.9287
489.30 0.9294
489.40 0.93
489.50 0.9307
489.60 0.9314
489.70 0.9321
489.80 0.9327
489.90 0.9334
490.00 0.9341
490.10 0.9348
490.20 0.9354
490.30 0.9361
490.40 0.9368
490.50 0.9374
490.60 0.9381
490.70 0.9388
490.80 0.9394
490.90 0.9401
491.00 0.9408
491.10 0.9414
491.20 0.9421
491.30 0.9428
491.40 0.9435
491.50 0.9441
491.60 0.9448
491.70 0.9455
491.80 0.9461
491.90 0.9468
492.00 0.9475
492.10 0.9482
492.20 0.9488
492.30 0.9495
492.40 0.9502
492.50 0.9508
492.60 0.9515
492.70 0.9521
492.80 0.9528
492.90 0.9535
493.00 0.9541
493.10 0.9548
493.20 0.9554
493.30 0.9561
493.40 0.9568
493.50 0.9574
493.60 0.9581
493.70 0.9588
493.80 0.9594
493.90 0.9601
494.00 0.9608
494.10 0.9614
494.20 0.9621
494.30 0.9628
494.40 0.9634
494.50 0.9641
494.60 0.9647
494.70 0.9654
494.80 0.9661
494.90 0.9667
495.00 0.9674
495.10 0.968
495.20 0.9687
495.30 0.9694
495.40 0.97
495.50 0.9707
495.60 0.9713
495.70 0.972
495.80 0.9726
495.90 0.9733
496.00 0.9739
496.10 0.9746
496.20 0.9752
496.30 0.9759
496.40 0.9766
496.50 0.9772
496.60 0.9779
496.70 0.9785
496.80 0.9792
496.90 0.9798
497.00 0.9805
497.10 0.9811
497.20 0.9818
497.30 0.9824
497.40 0.9831
497.50 0.9838
497.60 0.9844
497.70 0.9851
497.80 0.9857
497.90 0.9864
498.00 0.987
498.10 0.9876
498.20 0.9883
498.30 0.989
498.40 0.9896
498.50 0.9903
498.60 0.9909
498.70 0.9916
498.80 0.9922
498.90 0.9929
499.00 0.9935
499.10 0.9942
499.20 0.9948
499.30 0.9955
499.40 0.9961
499.50 0.9968
499.60 0.9974
499.70 0.9981
499.80 0.9987
499.90 0.9994
500.00 1
500.10 1.001
500.20 1.001
500.30 1.002
500.40 1.003
500.50 1.003
500.60 1.004
500.70 1.004
500.80 1.005
500.90 1.006
501.00 1.006
501.10 1.007
501.20 1.008
501.30 1.008
501.40 1.009
501.50 1.01
501.60 1.01
501.70 1.011
501.80 1.012
501.90 1.012
502.00 1.013
502.10 1.013
502.20 1.014
502.30 1.015
502.40 1.015
502.50 1.016
502.60 1.017
502.70 1.017
502.80 1.018
502.90 1.019
503.00 1.019
503.10 1.02
503.20 1.02
503.30 1.021
503.40 1.022
503.50 1.022
503.60 1.023
503.70 1.024
503.80 1.024
503.90 1.025
504.00 1.025
504.10 1.026
504.20 1.027
504.30 1.027
504.40 1.028
504.50 1.028
504.60 1.029
504.70 1.03
504.80 1.03
504.90 1.031
505.00 1.032
505.10 1.032
505.20 1.033
505.30 1.033
505.40 1.034
505.50 1.035
505.60 1.035
505.70 1.036
505.80 1.036
505.90 1.037
506.00 1.038
506.10 1.038
506.20 1.039
506.30 1.04
506.40 1.04
506.50 1.041
506.60 1.041
506.70 1.042
506.80 1.043
506.90 1.043
507.00 1.044
507.10 1.044
507.20 1.045
507.30 1.046
507.40 1.046
507.50 1.047
507.60 1.047
507.70 1.048
507.80 1.049
507.90 1.049
508.00 1.05
508.10 1.05
508.20 1.051
508.30 1.052
508.40 1.052
508.50 1.053
508.60 1.053
508.70 1.054
508.80 1.055
508.90 1.055
509.00 1.056
509.10 1.056
509.20 1.057
509.30 1.058
509.40 1.058
509.50 1.059
509.60 1.06
509.70 1.06
509.80 1.061
509.90 1.061
510.00 1.062
510.10 1.063
510.20 1.063
510.30 1.064
510.40 1.064
510.50 1.065
510.60 1.066
510.70 1.066
510.80 1.067
510.90 1.067
511.00 1.068
511.10 1.069
511.20 1.069
511.30 1.07
511.40 1.07
511.50 1.071
511.60 1.072
511.70 1.072
511.80 1.073
511.90 1.073
512.00 1.074
512.10 1.075
512.20 1.075
512.30 1.076
512.40 1.076
512.50 1.077
512.60 1.077
512.70 1.078
512.80 1.079
512.90 1.079
513.00 1.08
513.10 1.08
513.20 1.081
513.30 1.082
513.40 1.082
513.50 1.083
513.60 1.083
513.70 1.084
513.80 1.084
513.90 1.085
514.00 1.086
514.10 1.086
514.20 1.087
514.30 1.087
514.40 1.088
514.50 1.089
514.60 1.089
514.70 1.09
514.80 1.09
514.90 1.091
515.00 1.091
515.10 1.092
515.20 1.093
515.30 1.093
515.40 1.094
515.50 1.094
515.60 1.095
515.70 1.095
515.80 1.096
515.90 1.097
516.00 1.097
516.10 1.098
516.20 1.098
516.30 1.099
516.40 1.099
516.50 1.1
516.60 1.1
516.70 1.101
516.80 1.102
516.90 1.102
517.00 1.103
517.10 1.103
517.20 1.104
517.30 1.104
517.40 1.105
517.50 1.105
517.60 1.106
517.70 1.107
517.80 1.107
517.90 1.108
518.00 1.108
518.10 1.109
518.20 1.109
518.30 1.11
518.40 1.11
518.50 1.111
518.60 1.112
518.70 1.112
518.80 1.113
518.90 1.113
519.00 1.114
519.10 1.114
519.20 1.115
519.30 1.115
519.40 1.116
519.50 1.116
519.60 1.117
519.70 1.117
519.80 1.118
519.90 1.119
520.00 1.119
520.10 1.12
520.20 1.12
520.30 1.121
520.40 1.121
520.50 1.122
520.60 1.122
520.70 1.123
520.80 1.123
520.90 1.124
521.00 1.124
521.10 1.125
521.20 1.125
521.30 1.126
521.40 1.127
521.50 1.127
521.60 1.128
521.70 1.128
521.80 1.129
521.90 1.129
522.00 1.13
522.10 1.13
522.20 1.131
522.30 1.131
522.40 1.132
522.50 1.132
522.60 1.133
522.70 1.133
522.80 1.134
522.90 1.134
523.00 1.135
523.10 1.135
523.20 1.136
523.30 1.136
523.40 1.137
523.50 1.137
523.60 1.138
523.70 1.138
523.80 1.139
523.90 1.139
524.00 1.14
524.10 1.14
524.20 1.141
524.30 1.141
524.40 1.142
524.50 1.142
524.60 1.143
524.70 1.143
524.80 1.144
524.90 1.144
525.00 1.145
525.10 1.145
525.20 1.146
525.30 1.146
525.40 1.147
525.50 1.147
525.60 1.148
525.70 1.148
525.80 1.149
525.90 1.149
526.00 1.15
526.10 1.15
526.20 1.151
526.30 1.151
526.40 1.152
526.50 1.152
526.60 1.153
526.70 1.153
526.80 1.154
526.90 1.154
527.00 1.155
527.10 1.155
527.20 1.155
527.30 1.156
527.40 1.156
527.50 1.157
527.60 1.157
527.70 1.158
527.80 1.158
527.90 1.159
528.00 1.159
528.10 1.16
528.20 1.16
528.30 1.161
528.40 1.161
528.50 1.162
528.60 1.162
528.70 1.162
528.80 1.163
528.90 1.163
529.00 1.164
529.10 1.164
529.20 1.165
529.30 1.165
529.40 1.166
529.50 1.166
529.60 1.166
529.70 1.167
529.80 1.167
529.90 1.168
530.00 1.168
530.10 1.169
530.20 1.169
530.30 1.17
530.40 1.17
530.50 1.17
530.60 1.171
530.70 1.171
530.80 1.172
530.90 1.172
531.00 1.173
531.10 1.173
531.20 1.173
531.30 1.174
531.40 1.174
531.50 1.175
531.60 1.175
531.70 1.176
531.80 1.176
531.90 1.176
532.00 1.177
532.10 1.177
532.20 1.178
532.30 1.178
532.40 1.178
532.50 1.179
532.60 1.179
532.70 1.18
532.80 1.18
532.90 1.181
533.00 1.181
533.10 1.181
533.20 1.182
533.30 1.182
533.40 1.183
533.50 1.183
533.60 1.183
533.70 1.184
533.80 1.184
533.90 1.184
534.00 1.185
534.10 1.185
534.20 1.186
534.30 1.186
534.40 1.186
534.50 1.187
534.60 1.187
534.70 1.188
534.80 1.188
534.90 1.188
535.00 1.189
535.10 1.189
535.20 1.189
535.30 1.19
535.40 1.19
535.50 1.191
535.60 1.191
535.70 1.191
535.80 1.192
535.90 1.192
536.00 1.192
536.10 1.193
536.20 1.193
536.30 1.194
536.40 1.194
536.50 1.194
536.60 1.195
536.70 1.195
536.80 1.195
536.90 1.196
537.00 1.196
537.10 1.196
537.20 1.197
537.30 1.197
537.40 1.197
537.50 1.198
537.60 1.198
537.70 1.198
537.80 1.199
537.90 1.199
538.00 1.199
538.10 1.2
538.20 1.2
538.30 1.2
538.40 1.201
538.50 1.201
538.60 1.201
538.70 1.202
538.80 1.202
538.90 1.202
539.00 1.203
539.10 1.203
539.20 1.203
539.30 1.204
539.40 1.204
539.50 1.204
539.60 1.205
539.70 1.205
539.80 1.205
539.90 1.205
540.00 1.206
540.10 1.206
540.20 1.206
540.30 1.207
540.40 1.207
540.50 1.207
540.60 1.208
540.70 1.208
540.80 1.208
540.90 1.208
541.00 1.209
541.10 1.209
541.20 1.209
541.30 1.21
541.40 1.21
541.50 1.21
541.60 1.21
541.70 1.211
541.80 1.211
541.90 1.211
542.00 1.211
542.10 1.212
542.20 1.212
542.30 1.212
542.40 1.212
542.50 1.213
542.60 1.213
542.70 1.213
542.80 1.213
542.90 1.214
543.00 1.214
543.10 1.214
543.20 1.215
543.30 1.215
543.40 1.215
543.50 1.215
543.60 1.215
543.70 1.216
543.80 1.216
543.90 1.216
544.00 1.216
544.10 1.217
544.20 1.217
544.30 1.217
544.40 1.217
544.50 1.218
544.60 1.218
544.70 1.218
544.80 1.218
544.90 1.218
545.00 1.219
545.10 1.219
545.20 1.219
545.30 1.219
545.40 1.219
545.50 1.22
545.60 1.22
545.70 1.22
545.80 1.22
545.90 1.22
546.00 1.221
546.10 1.221
546.20 1.221
546.30 1.221
546.40 1.221
546.50 1.222
546.60 1.222
546.70 1.222
546.80 1.222
546.90 1.222
547.00 1.223
547.10 1.223
547.20 1.223
547.30 1.223
547.40 1.223
547.50 1.223
547.60 1.224
547.70 1.224
547.80 1.224
547.90 1.224
548.00 1.224
548.10 1.224
548.20 1.225
548.30 1.225
548.40 1.225
548.50 1.225
548.60 1.225
548.70 1.225
548.80 1.225
548.90 1.226
549.00 1.226
549.10 1.226
549.20 1.226
549.30 1.226
549.40 1.226
549.50 1.226
549.60 1.227
549.70 1.227
549.80 1.227
549.90 1.227
550.00 1.227
550.10 1.227
550.20 1.227
550.30 1.227
550.40 1.227
550.50 1.228
550.60 1.228
550.70 1.228
550.80 1.228
550.90 1.228
551.00 1.228
551.10 1.228
551.20 1.228
551.30 1.228
551.40 1.229
551.50 1.229
551.60 1.229
551.70 1.229
551.80 1.229
551.90 1.229
552.00 1.229
552.10 1.229
552.20 1.229
552.30 1.229
552.40 1.229
552.50 1.229
552.60 1.229
552.70 1.229
552.80 1.229
552.90 1.229
553.00 1.23
553.10 1.23
553.20 1.23
553.30 1.23
553.40 1.23
553.50 1.23
553.60 1.23
553.70 1.23
553.80 1.23
553.90 1.23
554.00 1.23
554.10 1.23
554.20 1.23
554.30 1.23
554.40 1.23
554.50 1.23
554.60 1.23
554.70 1.23
554.80 1.23
554.90 1.23
555.00 1.23
555.10 1.23
555.20 1.23
555.30 1.23
555.40 1.23
555.50 1.23
555.60 1.23
555.70 1.23
555.80 1.23
555.90 1.23
556.00 1.23
556.10 1.23
556.20 1.23
556.30 1.229
556.40 1.229
556.50 1.229
556.60 1.229
556.70 1.229
556.80 1.229
556.90 1.229
557.00 1.229
557.10 1.229
557.20 1.229
557.30 1.229
557.40 1.229
557.50 1.229
557.60 1.229
557.70 1.229
557.80 1.229
557.90 1.229
558.00 1.228
558.10 1.228
558.20 1.228
558.30 1.228
558.40 1.228
558.50 1.228
558.60 1.228
558.70 1.228
558.80 1.228
558.90 1.228
559.00 1.228
559.10 1.228
559.20 1.227
559.30 1.227
559.40 1.227
559.50 1.227
559.60 1.227
559.70 1.227
559.80 1.227
559.90 1.227
560.00 1.227
560.10 1.227
560.20 1.226
560.30 1.226
560.40 1.226
560.50 1.226
560.60 1.226
560.70 1.226
560.80 1.226
560.90 1.226
561.00 1.226
561.10 1.225
561.20 1.225
561.30 1.225
561.40 1.225
561.50 1.225
561.60 1.225
561.70 1.225
561.80 1.224
561.90 1.224
562.00 1.224
562.10 1.224
562.20 1.224
562.30 1.224
562.40 1.224
562.50 1.223
562.60 1.223
562.70 1.223
562.80 1.223
562.90 1.223
563.00 1.223
563.10 1.222
563.20 1.222
563.30 1.222
563.40 1.222
563.50 1.222
563.60 1.222
563.70 1.221
563.80 1.221
563.90 1.221
564.00 1.221
564.10 1.221
564.20 1.22
564.30 1.22
564.40 1.22
564.50 1.22
564.60 1.22
564.70 1.219
564.80 1.219
564.90 1.219
565.00 1.219
565.10 1.219
565.20 1.218
565.30 1.218
565.40 1.218
565.50 1.218
565.60 1.217
565.70 1.217
565.80 1.217
565.90 1.217
566.00 1.216
566.10 1.216
566.20 1.216
566.30 1.215
566.40 1.215
566.50 1.215
566.60 1.215
566.70 1.214
566.80 1.214
566.90 1.214
567.00 1.213
567.10 1.213
567.20 1.213
567.30 1.213
567.40 1.212
567.50 1.212
567.60 1.212
567.70 1.211
567.80 1.211
567.90 1.211
568.00 1.21
568.10 1.21
568.20 1.21
568.30 1.209
568.40 1.209
568.50 1.209
568.60 1.208
568.70 1.208
568.80 1.208
568.90 1.207
569.00 1.207
569.10 1.207
569.20 1.206
569.30 1.206
569.40 1.206
569.50 1.205
569.60 1.205
569.70 1.204
569.80 1.204
569.90 1.204
570.00 1.203
570.10 1.203
570.20 1.203
570.30 1.202
570.40 1.202
570.50 1.201
570.60 1.201
570.70 1.201
570.80 1.2
570.90 1.2
571.00 1.199
571.10 1.199
571.20 1.199
571.30 1.198
571.40 1.198
571.50 1.197
571.60 1.197
571.70 1.197
571.80 1.196
571.90 1.196
572.00 1.195
572.10 1.195
572.20 1.194
572.30 1.194
572.40 1.194
572.50 1.193
572.60 1.193
572.70 1.192
572.80 1.192
572.90 1.191
573.00 1.191
573.10 1.19
573.20 1.19
573.30 1.19
573.40 1.189
573.50 1.189
573.60 1.188
573.70 1.188
573.80 1.187
573.90 1.187
574.00 1.186
574.10 1.186
574.20 1.185
574.30 1.185
574.40 1.184
574.50 1.184
574.60 1.184
574.70 1.183
574.80 1.183
574.90 1.182
575.00 1.182
575.10 1.181
575.20 1.181
575.30 1.18
575.40 1.18
575.50 1.179
575.60 1.179
575.70 1.178
575.80 1.178
575.90 1.177
576.00 1.177
576.10 1.176
576.20 1.176
576.30 1.175
576.40 1.175
576.50 1.174
576.60 1.174
576.70 1.173
576.80 1.173
576.90 1.172
577.00 1.172
577.10 1.171
577.20 1.171
577.30 1.17
577.40 1.17
577.50 1.169
577.60 1.169
577.70 1.168
577.80 1.168
577.90 1.167
578.00 1.167
578.10 1.166
578.20 1.165
578.30 1.165
578.40 1.164
578.50 1.164
578.60 1.163
578.70 1.163
578.80 1.162
578.90 1.162
579.00 1.161
579.10 1.161
579.20 1.16
579.30 1.16
579.40 1.159
579.50 1.159
579.60 1.158
579.70 1.157
579.80 1.157
579.90 1.156
580.00 1.156
580.10 1.155
580.20 1.155
580.30 1.154
580.40 1.154
580.50 1.153
580.60 1.153
580.70 1.152
580.80 1.151
580.90 1.151
581.00 1.15
581.10 1.15
581.20 1.149
581.30 1.149
581.40 1.148
581.50 1.147
581.60 1.147
581.70 1.146
581.80 1.146
581.90 1.145
582.00 1.145
582.10 1.144
582.20 1.143
582.30 1.143
582.40 1.142
582.50 1.142
582.60 1.141
582.70 1.14
582.80 1.14
582.90 1.139
583.00 1.139
583.10 1.138
583.20 1.138
583.30 1.137
583.40 1.136
583.50 1.136
583.60 1.135
583.70 1.134
583.80 1.134
583.90 1.133
584.00 1.133
584.10 1.132
584.20 1.131
584.30 1.131
584.40 1.13
584.50 1.129
584.60 1.129
584.70 1.128
584.80 1.127
584.90 1.127
585.00 1.126
585.10 1.126
585.20 1.125
585.30 1.124
585.40 1.124
585.50 1.123
585.60 1.122
585.70 1.121
585.80 1.121
585.90 1.12
586.00 1.119
586.10 1.119
586.20 1.118
586.30 1.117
586.40 1.117
586.50 1.116
586.60 1.115
586.70 1.115
586.80 1.114
586.90 1.113
587.00 1.112
587.10 1.112
587.20 1.111
587.30 1.11
587.40 1.11
587.50 1.109
587.60 1.108
587.70 1.107
587.80 1.107
587.90 1.106
588.00 1.105
588.10 1.105
588.20 1.104
588.30 1.103
588.40 1.102
588.50 1.102
588.60 1.101
588.70 1.1
588.80 1.099
588.90 1.099
589.00 1.098
589.10 1.097
589.20 1.096
589.30 1.096
589.40 1.095
589.50 1.094
589.60 1.093
589.70 1.092
589.80 1.092
589.90 1.091
590.00 1.09
590.10 1.089
590.20 1.089
590.30 1.088
590.40 1.087
590.50 1.086
590.60 1.086
590.70 1.085
590.80 1.084
590.90 1.083
591.00 1.082
591.10 1.082
591.20 1.081
591.30 1.08
591.40 1.079
591.50 1.079
591.60 1.078
591.70 1.077
591.80 1.076
591.90 1.075
592.00 1.075
592.10 1.074
592.20 1.073
592.30 1.072
592.40 1.072
592.50 1.071
592.60 1.07
592.70 1.069
592.80 1.068
592.90 1.068
593.00 1.067
593.10 1.066
593.20 1.065
593.30 1.065
593.40 1.064
593.50 1.063
593.60 1.062
593.70 1.061
593.80 1.061
593.90 1.06
594.00 1.059
594.10 1.058
594.20 1.057
594.30 1.057
594.40 1.056
594.50 1.055
594.60 1.054
594.70 1.053
594.80 1.053
594.90 1.052
595.00 1.051
595.10 1.05
595.20 1.049
595.30 1.049
595.40 1.048
595.50 1.047
595.60 1.046
595.70 1.045
595.80 1.045
595.90 1.044
596.00 1.043
596.10 1.042
596.20 1.041
596.30 1.041
596.40 1.04
596.50 1.039
596.60 1.038
596.70 1.037
596.80 1.037
596.90 1.036
597.00 1.035
597.10 1.034
597.20 1.033
597.30 1.033
597.40 1.032
597.50 1.031
597.60 1.03
597.70 1.029
597.80 1.029
597.90 1.028
598.00 1.027
598.10 1.026
598.20 1.025
598.30 1.025
598.40 1.024
598.50 1.023
598.60 1.022
598.70 1.021
598.80 1.02
598.90 1.02
599.00 1.019
599.10 1.018
599.20 1.017
599.30 1.016
599.40 1.015
599.50 1.015
599.60 1.014
599.70 1.013
599.80 1.012
599.90 1.011
600.00 1.01
600.10 1.01
600.20 1.009
600.30 1.008
600.40 1.007
600.50 1.006
600.60 1.005
600.70 1.005
600.80 1.004
600.90 1.003
601.00 1.002
601.10 1.001
601.20 1
601.30 0.9995
601.40 0.9986
601.50 0.9978
601.60 0.9969
601.70 0.9961
601.80 0.9952
601.90 0.9944
602.00 0.9935
602.10 0.9927
602.20 0.9918
602.30 0.9909
602.40 0.9901
602.50 0.9892
602.60 0.9884
602.70 0.9875
602.80 0.9866
602.90 0.9858
603.00 0.9849
603.10 0.984
603.20 0.9832
603.30 0.9823
603.40 0.9814
603.50 0.9806
603.60 0.9797
603.70 0.9788
603.80 0.978
603.90 0.9771
604.00 0.9762
604.10 0.9754
604.20 0.9745
604.30 0.9736
604.40 0.9727
604.50 0.9718
604.60 0.971
604.70 0.9701
604.80 0.9692
604.90 0.9683
605.00 0.9674
605.10 0.9666
605.20 0.9657
605.30 0.9648
605.40 0.9639
605.50 0.963
605.60 0.9621
605.70 0.9613
605.80 0.9604
605.90 0.9595
606.00 0.9586
606.10 0.9577
606.20 0.9568
606.30 0.956
606.40 0.9551
606.50 0.9542
606.60 0.9533
606.70 0.9524
606.80 0.9515
606.90 0.9506
607.00 0.9497
607.10 0.9488
607.20 0.9479
607.30 0.947
607.40 0.9461
607.50 0.9452
607.60 0.9443
607.70 0.9434
607.80 0.9425
607.90 0.9416
608.00 0.9407
608.10 0.9398
608.20 0.9389
608.30 0.938
608.40 0.9371
608.50 0.9362
608.60 0.9353
608.70 0.9344
608.80 0.9335
608.90 0.9326
609.00 0.9317
609.10 0.9308
609.20 0.9299
609.30 0.9289
609.40 0.928
609.50 0.9271
609.60 0.9262
609.70 0.9253
609.80 0.9244
609.90 0.9234
610.00 0.9225
610.10 0.9216
610.20 0.9207
610.30 0.9198
610.40 0.9189
610.50 0.9179
610.60 0.917
610.70 0.9161
610.80 0.9152
610.90 0.9143
611.00 0.9134
611.10 0.9124
611.20 0.9115
611.30 0.9106
611.40 0.9097
611.50 0.9087
611.60 0.9078
611.70 0.9069
611.80 0.906
611.90 0.9051
612.00 0.9041
612.10 0.9032
612.20 0.9023
612.30 0.9013
612.40 0.9004
612.50 0.8995
612.60 0.8985
612.70 0.8976
612.80 0.8966
612.90 0.8957
613.00 0.8948
613.10 0.8938
613.20 0.8929
613.30 0.8919
613.40 0.891
613.50 0.89
613.60 0.8891
613.70 0.8881
613.80 0.8872
613.90 0.8862
614.00 0.8853
614.10 0.8843
614.20 0.8834
614.30 0.8824
614.40 0.8815
614.50 0.8805
614.60 0.8795
614.70 0.8786
614.80 0.8776
614.90 0.8767
615.00 0.8757
615.10 0.8747
615.20 0.8738
615.30 0.8728
615.40 0.8718
615.50 0.8709
615.60 0.8699
615.70 0.8689
615.80 0.8679
615.90 0.867
616.00 0.866
616.10 0.865
616.20 0.8641
616.30 0.8631
616.40 0.8621
616.50 0.8611
616.60 0.8602
616.70 0.8592
616.80 0.8582
616.90 0.8573
617.00 0.8563
617.10 0.8553
617.20 0.8543
617.30 0.8534
617.40 0.8524
617.50 0.8514
617.60 0.8504
617.70 0.8495
617.80 0.8485
617.90 0.8475
618.00 0.8465
618.10 0.8456
618.20 0.8446
618.30 0.8436
618.40 0.8426
618.50 0.8416
618.60 0.8406
618.70 0.8397
618.80 0.8387
618.90 0.8377
619.00 0.8367
619.10 0.8357
619.20 0.8348
619.30 0.8338
619.40 0.8328
619.50 0.8318
619.60 0.8308
619.70 0.8298
619.80 0.8288
619.90 0.8278
620.00 0.8268
620.10 0.8258
620.20 0.8248
620.30 0.8239
620.40 0.8229
620.50 0.8219
620.60 0.8209
620.70 0.8199
620.80 0.819
620.90 0.818
621.00 0.817
621.10 0.816
621.20 0.815
621.30 0.8141
621.40 0.8131
621.50 0.8121
621.60 0.8111
621.70 0.8101
621.80 0.8092
621.90 0.8082
622.00 0.8072
622.10 0.8062
622.20 0.8052
622.30 0.8043
622.40 0.8033
622.50 0.8023
622.60 0.8014
622.70 0.8004
622.80 0.7994
622.90 0.7985
623.00 0.7975
623.10 0.7965
623.20 0.7956
623.30 0.7946
623.40 0.7936
623.50 0.7926
623.60 0.7916
623.70 0.7907
623.80 0.7897
623.90 0.7887
624.00 0.7877
624.10 0.7868
624.20 0.7858
624.30 0.7848
624.40 0.7838
624.50 0.7828
624.60 0.7818
624.70 0.7808
624.80 0.7799
624.90 0.7789
625.00 0.7779
625.10 0.7769
625.20 0.7759
625.30 0.7749
625.40 0.7739
625.50 0.773
625.60 0.772
625.70 0.771
625.80 0.77
625.90 0.769
626.00 0.768
626.10 0.767
626.20 0.766
626.30 0.765
626.40 0.764
626.50 0.763
626.60 0.762
626.70 0.761
626.80 0.76
626.90 0.759
627.00 0.758
627.10 0.757
627.20 0.756
627.30 0.755
627.40 0.754
627.50 0.753
627.60 0.752
627.70 0.751
627.80 0.75
627.90 0.7491
628.00 0.7481
628.10 0.7471
628.20 0.7461
628.30 0.7451
628.40 0.7441
628.50 0.7431
628.60 0.7421
628.70 0.7411
628.80 0.7401
628.90 0.7391
629.00 0.7381
629.10 0.7372
629.20 0.7362
629.30 0.7352
629.40 0.7342
629.50 0.7332
629.60 0.7322
629.70 0.7312
629.80 0.7302
629.90 0.7293
630.00 0.7283
630.10 0.7273
630.20 0.7263
630.30 0.7253
630.40 0.7243
630.50 0.7234
630.60 0.7224
630.70 0.7214
630.80 0.7204
630.90 0.7194
631.00 0.7185
631.10 0.7175
631.20 0.7165
631.30 0.7155
631.40 0.7145
631.50 0.7135
631.60 0.7125
631.70 0.7115
631.80 0.7106
631.90 0.7096
632.00 0.7086
632.10 0.7076
632.20 0.7066
632.30 0.7056
632.40 0.7047
632.50 0.7037
632.60 0.7027
632.70 0.7017
632.80 0.7007
632.90 0.6997
633.00 0.6987
633.10 0.6977
633.20 0.6967
633.30 0.6958
633.40 0.6948
633.50 0.6938
633.60 0.6928
633.70 0.6918
633.80 0.6909
633.90 0.6899
634.00 0.6889
634.10 0.6879
634.20 0.687
634.30 0.686
634.40 0.685
634.50 0.684
634.60 0.683
634.70 0.682
634.80 0.681
634.90 0.6801
635.00 0.6791
635.10 0.6781
635.20 0.6771
635.30 0.6761
635.40 0.6751
635.50 0.6742
635.60 0.6732
635.70 0.6722
635.80 0.6713
635.90 0.6703
636.00 0.6693
636.10 0.6683
636.20 0.6674
636.30 0.6664
636.40 0.6654
636.50 0.6645
636.60 0.6635
636.70 0.6625
636.80 0.6615
636.90 0.6606
637.00 0.6596
637.10 0.6586
637.20 0.6576
637.30 0.6567
637.40 0.6557
637.50 0.6547
637.60 0.6538
637.70 0.6528
637.80 0.6518
637.90 0.6509
638.00 0.6499
638.10 0.6489
638.20 0.648
638.30 0.647
638.40 0.6461
638.50 0.6451
638.60 0.6442
638.70 0.6432
638.80 0.6423
638.90 0.6413
639.00 0.6404
639.10 0.6395
639.20 0.6385
639.30 0.6376
639.40 0.6366
639.50 0.6357
639.60 0.6347
639.70 0.6337
639.80 0.6328
639.90 0.6318
640.00 0.6309
640.10 0.6299
640.20 0.629
640.30 0.628
640.40 0.627
640.50 0.6261
640.60 0.6251
640.70 0.6242
640.80 0.6232
640.90 0.6222
641.00 0.6213
641.10 0.6203
641.20 0.6194
641.30 0.6184
641.40 0.6175
641.50 0.6165
641.60 0.6155
641.70 0.6146
641.80 0.6136
641.90 0.6127
642.00 0.6117
642.10 0.6108
642.20 0.6098
642.30 0.6088
642.40 0.6079
642.50 0.6069
642.60 0.6059
642.70 0.605
642.80 0.604
642.90 0.603
643.00 0.602
643.10 0.6011
643.20 0.6001
643.30 0.5991
643.40 0.5982
643.50 0.5972
643.60 0.5963
643.70 0.5953
643.80 0.5944
643.90 0.5934
644.00 0.5925
644.10 0.5915
644.20 0.5906
644.30 0.5896
644.40 0.5887
644.50 0.5878
644.60 0.5868
644.70 0.5859
644.80 0.5849
644.90 0.584
645.00 0.5831
645.10 0.5821
645.20 0.5812
645.30 0.5803
645.40 0.5793
645.50 0.5784
645.60 0.5775
645.70 0.5766
645.80 0.5756
645.90 0.5747
646.00 0.5738
646.10 0.5729
646.20 0.572
646.30 0.571
646.40 0.5701
646.50 0.5692
646.60 0.5683
646.70 0.5674
646.80 0.5665
646.90 0.5656
647.00 0.5647
647.10 0.5638
647.20 0.5629
647.30 0.562
647.40 0.5611
647.50 0.5602
647.60 0.5593
647.70 0.5584
647.80 0.5575
647.90 0.5566
648.00 0.5557
648.10 0.5548
648.20 0.5539
648.30 0.553
648.40 0.5521
648.50 0.5512
648.60 0.5503
648.70 0.5494
648.80 0.5485
648.90 0.5476
649.00 0.5467
649.10 0.5458
649.20 0.5449
649.30 0.544
649.40 0.5431
649.50 0.5422
649.60 0.5413
649.70 0.5404
649.80 0.5395
649.90 0.5386
650.00 0.5378
650.10 0.5369
650.20 0.536
650.30 0.5351
650.40 0.5342
650.50 0.5333
650.60 0.5324
650.70 0.5316
650.80 0.5307
650.90 0.5298
651.00 0.5289
651.10 0.5281
651.20 0.5272
651.30 0.5263
651.40 0.5254
651.50 0.5245
651.60 0.5237
651.70 0.5228
651.80 0.5219
651.90 0.521
652.00 0.5201
652.10 0.5193
652.20 0.5184
652.30 0.5175
652.40 0.5167
652.50 0.5158
652.60 0.5149
652.70 0.5141
652.80 0.5132
652.90 0.5123
653.00 0.5115
653.10 0.5106
653.20 0.5098
653.30 0.5089
653.40 0.508
653.50 0.5072
653.60 0.5063
653.70 0.5055
653.80 0.5046
653.90 0.5037
654.00 0.5029
654.10 0.502
654.20 0.5012
654.30 0.5003
654.40 0.4995
654.50 0.4986
654.60 0.4978
654.70 0.4969
654.80 0.4961
654.90 0.4952
655.00 0.4944
655.10 0.4935
655.20 0.4927
655.30 0.4918
655.40 0.491
655.50 0.4902
655.60 0.4893
655.70 0.4885
655.80 0.4877
655.90 0.4868
656.00 0.486
656.10 0.4852
656.20 0.4843
656.30 0.4835
656.40 0.4827
656.50 0.4818
656.60 0.481
656.70 0.4802
656.80 0.4793
656.90 0.4785
657.00 0.4777
657.10 0.4769
657.20 0.476
657.30 0.4752
657.40 0.4744
657.50 0.4735
657.60 0.4727
657.70 0.4719
657.80 0.4711
657.90 0.4703
658.00 0.4694
658.10 0.4686
658.20 0.4678
658.30 0.467
658.40 0.4662
658.50 0.4653
658.60 0.4645
658.70 0.4637
658.80 0.4629
658.90 0.4621
659.00 0.4613
659.10 0.4605
659.20 0.4596
659.30 0.4588
659.40 0.458
659.50 0.4572
659.60 0.4564
659.70 0.4556
659.80 0.4548
659.90 0.454
660.00 0.4532
660.10 0.4524
660.20 0.4516
660.30 0.4508
660.40 0.45
660.50 0.4492
660.60 0.4484
660.70 0.4476
660.80 0.4468
660.90 0.446
661.00 0.4452
661.10 0.4444
661.20 0.4436
661.30 0.4428
661.40 0.442
661.50 0.4412
661.60 0.4404
661.70 0.4396
661.80 0.4388
661.90 0.438
662.00 0.4372
662.10 0.4364
662.20 0.4357
662.30 0.4349
662.40 0.4341
662.50 0.4333
662.60 0.4325
662.70 0.4317
662.80 0.4309
662.90 0.4301
663.00 0.4294
663.10 0.4286
663.20 0.4278
663.30 0.427
663.40 0.4262
663.50 0.4255
663.60 0.4247
663.70 0.4239
663.80 0.4231
663.90 0.4223
664.00 0.4216
664.10 0.4208
664.20 0.42
664.30 0.4192
664.40 0.4185
664.50 0.4177
664.60 0.4169
664.70 0.4162
664.80 0.4154
664.90 0.4146
665.00 0.4139
665.10 0.4131
665.20 0.4123
665.30 0.4115
665.40 0.4108
665.50 0.41
665.60 0.4093
665.70 0.4085
665.80 0.4077
665.90 0.407
666.00 0.4062
666.10 0.4054
666.20 0.4047
666.30 0.4039
666.40 0.4032
666.50 0.4024
666.60 0.4016
666.70 0.4009
666.80 0.4001
666.90 0.3994
667.00 0.3986
667.10 0.3978
667.20 0.3971
667.30 0.3963
667.40 0.3956
667.50 0.3948
667.60 0.3941
667.70 0.3933
667.80 0.3926
667.90 0.3918
668.00 0.3911
668.10 0.3903
668.20 0.3896
668.30 0.3888
668.40 0.3881
668.50 0.3873
668.60 0.3866
668.70 0.3859
668.80 0.3851
668.90 0.3844
669.00 0.3836
669.10 0.3829
669.20 0.3821
669.30 0.3814
669.40 0.3807
669.50 0.3799
669.60 0.3792
669.70 0.3784
669.80 0.3777
669.90 0.377
670.00 0.3762
670.10 0.3755
670.20 0.3748
670.30 0.374
670.40 0.3733
670.50 0.3726
670.60 0.3718
670.70 0.3711
670.80 0.3704
670.90 0.3696
671.00 0.3689
671.10 0.3682
671.20 0.3674
671.30 0.3667
671.40 0.366
671.50 0.3653
671.60 0.3645
671.70 0.3638
671.80 0.3631
671.90 0.3624
672.00 0.3616
672.10 0.3609
672.20 0.3602
672.30 0.3595
672.40 0.3588
672.50 0.358
672.60 0.3573
672.70 0.3566
672.80 0.3559
672.90 0.3552
673.00 0.3544
673.10 0.3537
673.20 0.353
673.30 0.3523
673.40 0.3516
673.50 0.3509
673.60 0.3502
673.70 0.3494
673.80 0.3487
673.90 0.348
674.00 0.3473
674.10 0.3466
674.20 0.3459
674.30 0.3452
674.40 0.3445
674.50 0.3438
674.60 0.3431
674.70 0.3424
674.80 0.3417
674.90 0.341
675.00 0.3402
675.10 0.3395
675.20 0.3388
675.30 0.3381
675.40 0.3374
675.50 0.3367
675.60 0.336
675.70 0.3353
675.80 0.3347
675.90 0.334
676.00 0.3333
676.10 0.3326
676.20 0.3319
676.30 0.3312
676.40 0.3305
676.50 0.3298
676.60 0.3291
676.70 0.3284
676.80 0.3277
676.90 0.327
677.00 0.3263
677.10 0.3256
677.20 0.325
677.30 0.3243
677.40 0.3236
677.50 0.3229
677.60 0.3222
677.70 0.3216
677.80 0.3209
677.90 0.3202
678.00 0.3195
678.10 0.3188
678.20 0.3182
678.30 0.3175
678.40 0.3168
678.50 0.3161
678.60 0.3155
678.70 0.3148
678.80 0.3141
678.90 0.3134
679.00 0.3127
679.10 0.3121
679.20 0.3114
679.30 0.3107
679.40 0.3101
679.50 0.3094
679.60 0.3087
679.70 0.308
679.80 0.3074
679.90 0.3067
680.00 0.306
680.10 0.3054
680.20 0.3047
680.30 0.304
680.40 0.3034
680.50 0.3027
680.60 0.302
680.70 0.3014
680.80 0.3007
680.90 0.3001
681.00 0.2994
681.10 0.2987
681.20 0.2981
681.30 0.2974
681.40 0.2968
681.50 0.2961
681.60 0.2954
681.70 0.2948
681.80 0.2941
681.90 0.2935
682.00 0.2928
682.10 0.2922
682.20 0.2915
682.30 0.2909
682.40 0.2902
682.50 0.2896
682.60 0.2889
682.70 0.2883
682.80 0.2876
682.90 0.287
683.00 0.2863
683.10 0.2857
683.20 0.285
683.30 0.2844
683.40 0.2837
683.50 0.2831
683.60 0.2824
683.70 0.2818
683.80 0.2812
683.90 0.2805
684.00 0.2799
684.10 0.2792
684.20 0.2786
684.30 0.278
684.40 0.2773
684.50 0.2767
684.60 0.2761
684.70 0.2754
684.80 0.2748
684.90 0.2742
685.00 0.2735
685.10 0.2729
685.20 0.2723
685.30 0.2716
685.40 0.271
685.50 0.2704
685.60 0.2697
685.70 0.2691
685.80 0.2685
685.90 0.2679
686.00 0.2672
686.10 0.2666
686.20 0.266
686.30 0.2654
686.40 0.2648
686.50 0.2641
686.60 0.2635
686.70 0.2629
686.80 0.2623
686.90 0.2617
687.00 0.2611
687.10 0.2604
687.20 0.2598
687.30 0.2592
687.40 0.2586
687.50 0.258
687.60 0.2574
687.70 0.2568
687.80 0.2562
687.90 0.2555
688.00 0.2549
688.10 0.2543
688.20 0.2537
688.30 0.2531
688.40 0.2525
688.50 0.2519
688.60 0.2513
688.70 0.2507
688.80 0.2501
688.90 0.2495
689.00 0.2489
689.10 0.2483
689.20 0.2477
689.30 0.2471
689.40 0.2465
689.50 0.2459
689.60 0.2454
689.70 0.2448
689.80 0.2442
689.90 0.2436
690.00 0.243
690.10 0.2425
690.20 0.2419
690.30 0.2413
690.40 0.2407
690.50 0.2401
690.60 0.2396
690.70 0.239
690.80 0.2384
690.90 0.2378
691.00 0.2372
691.10 0.2367
691.20 0.2361
691.30 0.2355
691.40 0.2349
691.50 0.2344
691.60 0.2338
691.70 0.2332
691.80 0.2326
691.90 0.2321
692.00 0.2315
692.10 0.2309
692.20 0.2303
692.30 0.2298
692.40 0.2292
692.50 0.2286
692.60 0.228
692.70 0.2275
692.80 0.2269
692.90 0.2263
693.00 0.2258
693.10 0.2252
693.20 0.2246
693.30 0.2241
693.40 0.2235
693.50 0.2229
693.60 0.2223
693.70 0.2218
693.80 0.2212
693.90 0.2206
694.00 0.2201
694.10 0.2195
694.20 0.2189
694.30 0.2184
694.40 0.2178
694.50 0.2172
694.60 0.2167
694.70 0.2161
694.80 0.2155
694.90 0.215
695.00 0.2144
695.10 0.2139
695.20 0.2133
695.30 0.2128
695.40 0.2123
695.50 0.2117
695.60 0.2112
695.70 0.2107
695.80 0.2102
695.90 0.2096
696.00 0.2091
696.10 0.2086
696.20 0.208
696.30 0.2075
696.40 0.207
696.50 0.2064
696.60 0.2059
696.70 0.2054
696.80 0.2049
696.90 0.2043
697.00 0.2038
697.10 0.2033
697.20 0.2028
697.30 0.2022
697.40 0.2017
697.50 0.2012
697.60 0.2006
697.70 0.2001
697.80 0.1996
697.90 0.1991
698.00 0.1985
698.10 0.198
698.20 0.1975
698.30 0.197
698.40 0.1965
698.50 0.1959
698.60 0.1954
698.70 0.1949
698.80 0.1944
698.90 0.1938
699.00 0.1933
699.10 0.1928
699.20 0.1923
699.30 0.1918
699.40 0.1912
699.50 0.1907
699.60 0.1902
699.70 0.1897
699.80 0.1892
699.90 0.1886
700.00 0.1881
700.10 0.1876
700.20 0.1871
700.30 0.1867
700.40 0.1862
700.50 0.1857
700.60 0.1852
700.70 0.1847
700.80 0.1842
700.90 0.1838
701.00 0.1833
701.10 0.1828
701.20 0.1823
701.30 0.1818
701.40 0.1813
701.50 0.1809
701.60 0.1804
701.70 0.1799
701.80 0.1794
701.90 0.1789
702.00 0.1784
702.10 0.178
702.20 0.1775
702.30 0.177
702.40 0.1765
702.50 0.176
702.60 0.1756
702.70 0.1751
702.80 0.1746
702.90 0.1741
703.00 0.1737
703.10 0.1732
703.20 0.1727
703.30 0.1722
703.40 0.1717
703.50 0.1713
703.60 0.1708
703.70 0.1703
703.80 0.1698
703.90 0.1694
704.00 0.1689
704.10 0.1684
704.20 0.1679
704.30 0.1675
704.40 0.167
704.50 0.1665
704.60 0.166
704.70 0.1656
704.80 0.1651
704.90 0.1646
705.00 0.1641
705.10 0.1637
705.20 0.1633
705.30 0.1628
705.40 0.1624
705.50 0.162
705.60 0.1615
705.70 0.1611
705.80 0.1607
705.90 0.1602
706.00 0.1598
706.10 0.1594
706.20 0.1589
706.30 0.1585
706.40 0.1581
706.50 0.1577
706.60 0.1572
706.70 0.1568
706.80 0.1564
706.90 0.1559
707.00 0.1555
707.10 0.1551
707.20 0.1546
707.30 0.1542
707.40 0.1538
707.50 0.1534
707.60 0.1529
707.70 0.1525
707.80 0.1521
707.90 0.1516
708.00 0.1512
708.10 0.1508
708.20 0.1504
708.30 0.1499
708.40 0.1495
708.50 0.1491
708.60 0.1486
708.70 0.1482
708.80 0.1478
708.90 0.1474
709.00 0.1469
709.10 0.1465
709.20 0.1461
709.30 0.1457
709.40 0.1452
709.50 0.1448
709.60 0.1444
709.70 0.144
709.80 0.1436
709.90 0.1431
710.00 0.1427
710.10 0.1423
710.20 0.1419
710.30 0.1416
710.40 0.1412
710.50 0.1408
710.60 0.1404
710.70 0.14
710.80 0.1396
710.90 0.1393
711.00 0.1389
711.10 0.1385
711.20 0.1381
711.30 0.1377
711.40 0.1374
711.50 0.137
711.60 0.1366
711.70 0.1362
711.80 0.1358
711.90 0.1355
712.00 0.1351
712.10 0.1347
712.20 0.1343
712.30 0.1339
712.40 0.1336
712.50 0.1332
712.60 0.1328
712.70 0.1324
712.80 0.132
712.90 0.1317
713.00 0.1313
713.10 0.1309
713.20 0.1305
713.30 0.1302
713.40 0.1298
713.50 0.1294
713.60 0.129
713.70 0.1287
713.80 0.1283
713.90 0.1279
714.00 0.1275
714.10 0.1271
714.20 0.1268
714.30 0.1264
714.40 0.126
714.50 0.1256
714.60 0.1253
714.70 0.1249
714.80 0.1245
714.90 0.1242
715.00 0.1238
715.10 0.1234
715.20 0.1231
715.30 0.1228
715.40 0.1225
715.50 0.1221
715.60 0.1218
715.70 0.1215
715.80 0.1211
715.90 0.1208
716.00 0.1205
716.10 0.1201
716.20 0.1198
716.30 0.1195
716.40 0.1191
716.50 0.1188
716.60 0.1185
716.70 0.1182
716.80 0.1178
716.90 0.1175
717.00 0.1172
717.10 0.1168
717.20 0.1165
717.30 0.1162
717.40 0.1159
717.50 0.1155
717.60 0.1152
717.70 0.1149
717.80 0.1145
717.90 0.1142
718.00 0.1139
718.10 0.1136
718.20 0.1132
718.30 0.1129
718.40 0.1126
718.50 0.1123
718.60 0.1119
718.70 0.1116
718.80 0.1113
718.90 0.1109
719.00 0.1106
719.10 0.1103
719.20 0.11
719.30 0.1096
719.40 0.1093
719.50 0.109
719.60 0.1087
719.70 0.1084
719.80 0.108
719.90 0.1077
720.00 0.1074
720.10 0.1071
720.20 0.1068
720.30 0.1065
720.40 0.1062
720.50 0.106
720.60 0.1057
720.70 0.1054
720.80 0.1051
720.90 0.1048
721.00 0.1046
721.10 0.1043
721.20 0.104
721.30 0.1037
721.40 0.1034
721.50 0.1031
721.60 0.1029
721.70 0.1026
721.80 0.1023
721.90 0.102
722.00 0.1017
722.10 0.1015
722.20 0.1012
722.30 0.1009
722.40 0.1006
722.50 0.1003
722.60 0.1001
722.70 0.09978
722.80 0.0995
722.90 0.09923
723.00 0.09895
723.10 0.09867
723.20 0.09839
723.30 0.09811
723.40 0.09783
723.50 0.09755
723.60 0.09728
723.70 0.097
723.80 0.09672
723.90 0.09644
724.00 0.09617
724.10 0.09589
724.20 0.09561
724.30 0.09533
724.40 0.09506
724.50 0.09478
724.60 0.0945
724.70 0.09423
724.80 0.09395
724.90 0.09368
725.00 0.0934
725.10 0.09316
725.20 0.09292
725.30 0.09269
725.40 0.09245
725.50 0.09221
725.60 0.09198
725.70 0.09174
725.80 0.0915
725.90 0.09127
726.00 0.09103
726.10 0.09079
726.20 0.09056
726.30 0.09032
726.40 0.09009
726.50 0.08985
726.60 0.08961
726.70 0.08938
726.80 0.08914
726.90 0.08891
727.00 0.08867
727.10 0.08844
727.20 0.0882
727.30 0.08797
727.40 0.08773
727.50 0.0875
727.60 0.08726
727.70 0.08703
727.80 0.08679
727.90 0.08656
728.00 0.08633
728.10 0.08609
728.20 0.08586
728.30 0.08563
728.40 0.08539
728.50 0.08516
728.60 0.08493
728.70 0.08469
728.80 0.08446
728.90 0.08423
729.00 0.08399
729.10 0.08376
729.20 0.08353
729.30 0.0833
729.40 0.08306
729.50 0.08283
729.60 0.0826
729.70 0.08237
729.80 0.08214
729.90 0.08191
730.00 0.08167
730.10 0.0815
730.20 0.08133
730.30 0.08117
730.40 0.081
730.50 0.08083
730.60 0.08066
730.70 0.08049
730.80 0.08032
730.90 0.08015
731.00 0.07998
731.10 0.07982
731.20 0.07965
731.30 0.07948
731.40 0.07931
731.50 0.07914
731.60 0.07897
731.70 0.07881
731.80 0.07864
731.90 0.07847
732.00 0.0783
732.10 0.07814
732.20 0.07797
732.30 0.0778
732.40 0.07763
732.50 0.07747
732.60 0.0773
732.70 0.07713
732.80 0.07696
732.90 0.0768
733.00 0.07663
733.10 0.07646
733.20 0.0763
733.30 0.07613
733.40 0.07596
733.50 0.0758
733.60 0.07563
733.70 0.07547
733.80 0.0753
733.90 0.07513
734.00 0.07497
734.10 0.0748
734.20 0.07464
734.30 0.07447
734.40 0.07431
734.50 0.07414
734.60 0.07397
734.70 0.07381
734.80 0.07364
734.90 0.07348
735.00 0.07331
735.10 0.07315
735.20 0.07298
735.30 0.07282
735.40 0.07265
735.50 0.07249
735.60 0.07233
735.70 0.07216
735.80 0.072
735.90 0.07183
736.00 0.07167
736.10 0.0715
736.20 0.07134
736.30 0.07118
736.40 0.07101
736.50 0.07085
736.60 0.07069
736.70 0.07052
736.80 0.07036
736.90 0.07019
737.00 0.07003
737.10 0.06987
737.20 0.06971
737.30 0.06954
737.40 0.06938
737.50 0.06922
737.60 0.06905
737.70 0.06889
737.80 0.06873
737.90 0.06857
738.00 0.0684
738.10 0.06824
738.20 0.06808
738.30 0.06792
738.40 0.06775
738.50 0.06759
738.60 0.06743
738.70 0.06727
738.80 0.06711
738.90 0.06695
739.00 0.06678
739.10 0.06662
739.20 0.06646
739.30 0.0663
739.40 0.06614
739.50 0.06598
739.60 0.06582
739.70 0.06565
739.80 0.06549
739.90 0.06533
740.00 0.06517
740.10 0.06507
740.20 0.06497
740.30 0.06487
740.40 0.06477
740.50 0.06467
740.60 0.06457
740.70 0.06447
740.80 0.06437
740.90 0.06427
741.00 0.06417
741.10 0.06407
741.20 0.06397
741.30 0.06387
741.40 0.06377
741.50 0.06367
741.60 0.06357
741.70 0.06347
741.80 0.06338
741.90 0.06328
742.00 0.06318
742.10 0.06308
742.20 0.06298
742.30 0.06288
742.40 0.06278
742.50 0.06268
742.60 0.06258
742.70 0.06248
742.80 0.06238
742.90 0.06229
743.00 0.06219
743.10 0.06209
743.20 0.06199
743.30 0.06189
743.40 0.06179
743.50 0.06169
743.60 0.0616
743.70 0.0615
743.80 0.0614
743.90 0.0613
744.00 0.0612
744.10 0.0611
744.20 0.06101
744.30 0.06091
744.40 0.06081
744.50 0.06071
744.60 0.06061
744.70 0.06052
744.80 0.06042
744.90 0.06032
745.00 0.06022
745.10 0.06012
745.20 0.06003
745.30 0.05993
745.40 0.05983
745.50 0.05973
745.60 0.05964
745.70 0.05954
745.80 0.05944
745.90 0.05934
746.00 0.05925
746.10 0.05915
746.20 0.05905
746.30 0.05896
746.40 0.05886
746.50 0.05876
746.60 0.05867
746.70 0.05857
746.80 0.05847
746.90 0.05837
747.00 0.05828
747.10 0.05818
747.20 0.05808
747.30 0.05799
747.40 0.05789
747.50 0.05779
747.60 0.0577
747.70 0.0576
747.80 0.05751
747.90 0.05741
748.00 0.05731
748.10 0.05722
748.20 0.05712
748.30 0.05702
748.40 0.05693
748.50 0.05683
748.60 0.05674
748.70 0.05664
748.80 0.05654
748.90 0.05645
749.00 0.05635
749.10 0.05626
749.20 0.05616
749.30 0.05607
749.40 0.05597
749.50 0.05588
749.60 0.05578
749.70 0.05568
749.80 0.05559
749.90 0.05549
750.00 0.0554
750.10 0.05534
750.20 0.05528
750.30 0.05522
750.40 0.05517
750.50 0.05511
750.60 0.05505
750.70 0.05499
750.80 0.05494
750.90 0.05488
751.00 0.05482
751.10 0.05476
751.20 0.0547
751.30 0.05465
751.40 0.05459
751.50 0.05453
751.60 0.05447
751.70 0.05442
751.80 0.05436
751.90 0.0543
752.00 0.05424
752.10 0.05419
752.20 0.05413
752.30 0.05407
752.40 0.05401
752.50 0.05396
752.60 0.0539
752.70 0.05384
752.80 0.05379
752.90 0.05373
753.00 0.05367
753.10 0.05361
753.20 0.05356
753.30 0.0535
753.40 0.05344
753.50 0.05339
753.60 0.05333
753.70 0.05327
753.80 0.05321
753.90 0.05316
754.00 0.0531
754.10 0.05304
754.20 0.05299
754.30 0.05293
754.40 0.05287
754.50 0.05282
754.60 0.05276
754.70 0.0527
754.80 0.05265
754.90 0.05259
755.00 0.05253
755.10 0.05248
755.20 0.05242
755.30 0.05236
755.40 0.05231
755.50 0.05225
755.60 0.0522
755.70 0.05214
755.80 0.05208
755.90 0.05203
756.00 0.05197
756.10 0.05191
756.20 0.05186
756.30 0.0518
756.40 0.05174
756.50 0.05169
756.60 0.05163
756.70 0.05158
756.80 0.05152
756.90 0.05146
757.00 0.05141
757.10 0.05135
757.20 0.0513
757.30 0.05124
757.40 0.05118
757.50 0.05113
757.60 0.05107
757.70 0.05102
757.80 0.05096
757.90 0.05091
758.00 0.05085
758.10 0.05079
758.20 0.05074
758.30 0.05068
758.40 0.05063
758.50 0.05057
758.60 0.05052
758.70 0.05046
758.80 0.0504
758.90 0.05035
759.00 0.05029
759.10 0.05024
759.20 0.05018
759.30 0.05013
759.40 0.05007
759.50 0.05002
759.60 0.04996
759.70 0.04991
759.80 0.04985
759.90 0.0498
760.00 0.04974
760.10 0.04971
760.20 0.04967
760.30 0.04964
760.40 0.04961
760.50 0.04957
760.60 0.04954
760.70 0.04951
760.80 0.04948
760.90 0.04944
761.00 0.04941
761.10 0.04938
761.20 0.04934
761.30 0.04931
761.40 0.04928
761.50 0.04924
761.60 0.04921
761.70 0.04918
761.80 0.04915
761.90 0.04911
762.00 0.04908
762.10 0.04905
762.20 0.04901
762.30 0.04898
762.40 0.04895
762.50 0.04892
762.60 0.04888
762.70 0.04885
762.80 0.04882
762.90 0.04878
763.00 0.04875
763.10 0.04872
763.20 0.04869
763.30 0.04865
763.40 0.04862
763.50 0.04859
763.60 0.04856
763.70 0.04852
763.80 0.04849
763.90 0.04846
764.00 0.04842
764.10 0.04839
764.20 0.04836
764.30 0.04833
764.40 0.04829
764.50 0.04826
764.60 0.04823
764.70 0.0482
764.80 0.04816
764.90 0.04813
765.00 0.0481
765.10 0.04807
765.20 0.04803
765.30 0.048
765.40 0.04797
765.50 0.04794
765.60 0.04791
765.70 0.04787
765.80 0.04784
765.90 0.04781
766.00 0.04778
766.10 0.04774
766.20 0.04771
766.30 0.04768
766.40 0.04765
766.50 0.04762
766.60 0.04758
766.70 0.04755
766.80 0.04752
766.90 0.04749
767.00 0.04745
767.10 0.04742
767.20 0.04739
767.30 0.04736
767.40 0.04733
767.50 0.04729
767.60 0.04726
767.70 0.04723
767.80 0.0472
767.90 0.04717
768.00 0.04713
768.10 0.0471
768.20 0.04707
768.30 0.04704
768.40 0.04701
768.50 0.04697
768.60 0.04694
768.70 0.04691
768.80 0.04688
768.90 0.04685
769.00 0.04681
769.10 0.04678
769.20 0.04675
769.30 0.04672
769.40 0.04669
769.50 0.04666
769.60 0.04662
769.70 0.04659
769.80 0.04656
769.90 0.04653
770.00 0.0465
770.10 0.04648
770.20 0.04647
770.30 0.04645
770.40 0.04643
770.50 0.04642
770.60 0.0464
770.70 0.04639
770.80 0.04637
770.90 0.04635
771.00 0.04634
771.10 0.04632
771.20 0.04631
771.30 0.04629
771.40 0.04627
771.50 0.04626
771.60 0.04624
771.70 0.04623
771.80 0.04621
771.90 0.04619
772.00 0.04618
772.10 0.04616
772.20 0.04615
772.30 0.04613
772.40 0.04611
772.50 0.0461
772.60 0.04608
772.70 0.04607
772.80 0.04605
772.90 0.04603
773.00 0.04602
773.10 0.046
773.20 0.04599
773.30 0.04597
773.40 0.04596
773.50 0.04594
773.60 0.04592
773.70 0.04591
773.80 0.04589
773.90 0.04588
774.00 0.04586
774.10 0.04584
774.20 0.04583
774.30 0.04581
774.40 0.0458
774.50 0.04578
774.60 0.04577
774.70 0.04575
774.80 0.04573
774.90 0.04572
775.00 0.0457
775.10 0.04569
775.20 0.04567
775.30 0.04566
775.40 0.04564
775.50 0.04562
775.60 0.04561
775.70 0.04559
775.80 0.04558
775.90 0.04556
776.00 0.04555
776.10 0.04553
776.20 0.04551
776.30 0.0455
776.40 0.04548
776.50 0.04547
776.60 0.04545
776.70 0.04544
776.80 0.04542
776.90 0.04541
777.00 0.04539
777.10 0.04537
777.20 0.04536
777.30 0.04534
777.40 0.04533
777.50 0.04531
777.60 0.0453
777.70 0.04528
777.80 0.04527
777.90 0.04525
778.00 0.04523
778.10 0.04522
778.20 0.0452
778.30 0.04519
778.40 0.04517
778.50 0.04516
778.60 0.04514
778.70 0.04513
778.80 0.04511
778.90 0.04509
779.00 0.04508
779.10 0.04506
779.20 0.04505
779.30 0.04503
779.40 0.04502
779.50 0.045
779.60 0.04499
779.70 0.04497
779.80 0.04496
779.90 0.04494
780.00 0.04492
780.10 0.04494
780.20 0.04495
780.30 0.04497
780.40 0.04498
780.50 0.045
780.60 0.04501
780.70 0.04503
780.80 0.04504
780.90 0.04506
781.00 0.04507
781.10 0.04509
781.20 0.0451
781.30 0.04512
781.40 0.04513
781.50 0.04515
781.60 0.04516
781.70 0.04518
781.80 0.04519
781.90 0.0452
782.00 0.04522
782.10 0.04523
782.20 0.04525
782.30 0.04526
782.40 0.04528
782.50 0.04529
782.60 0.04531
782.70 0.04532
782.80 0.04534
782.90 0.04535
783.00 0.04537
783.10 0.04538
783.20 0.04539
783.30 0.04541
783.40 0.04542
783.50 0.04544
783.60 0.04545
783.70 0.04547
783.80 0.04548
783.90 0.0455
784.00 0.04551
784.10 0.04552
784.20 0.04554
784.30 0.04555
784.40 0.04557
784.50 0.04558
784.60 0.0456
784.70 0.04561
784.80 0.04563
784.90 0.04564
785.00 0.04565
785.10 0.04567
785.20 0.04568
785.30 0.0457
785.40 0.04571
785.50 0.04573
785.60 0.04574
785.70 0.04575
785.80 0.04577
785.90 0.04578
786.00 0.0458
786.10 0.04581
786.20 0.04583
786.30 0.04584
786.40 0.04585
786.50 0.04587
786.60 0.04588
786.70 0.0459
786.80 0.04591
786.90 0.04593
787.00 0.04594
787.10 0.04595
787.20 0.04597
787.30 0.04598
787.40 0.046
787.50 0.04601
787.60 0.04603
787.70 0.04604
787.80 0.04605
787.90 0.04607
788.00 0.04608
788.10 0.0461
788.20 0.04611
788.30 0.04612
788.40 0.04614
788.50 0.04615
788.60 0.04617
788.70 0.04618
788.80 0.04619
788.90 0.04621
789.00 0.04622
789.10 0.04624
789.20 0.04625
789.30 0.04626
789.40 0.04628
789.50 0.04629
789.60 0.04631
789.70 0.04632
789.80 0.04633
789.90 0.04635
790.00 0.04636
790.10 0.04639
790.20 0.04643
790.30 0.04646
790.40 0.04649
790.50 0.04652
790.60 0.04655
790.70 0.04658
790.80 0.04662
790.90 0.04665
791.00 0.04668
791.10 0.04671
791.20 0.04674
791.30 0.04677
791.40 0.04681
791.50 0.04684
791.60 0.04687
791.70 0.0469
791.80 0.04693
791.90 0.04696
792.00 0.04699
792.10 0.04703
792.20 0.04706
792.30 0.04709
792.40 0.04712
792.50 0.04715
792.60 0.04718
792.70 0.04721
792.80 0.04725
792.90 0.04728
793.00 0.04731
793.10 0.04734
793.20 0.04737
793.30 0.0474
793.40 0.04743
793.50 0.04746
793.60 0.04749
793.70 0.04753
793.80 0.04756
793.90 0.04759
794.00 0.04762
794.10 0.04765
794.20 0.04768
794.30 0.04771
794.40 0.04774
794.50 0.04777
794.60 0.04781
794.70 0.04784
794.80 0.04787
794.90 0.0479
795.00 0.04793
795.10 0.04796
795.20 0.04799
795.30 0.04802
795.40 0.04805
795.50 0.04808
795.60 0.04811
795.70 0.04815
795.80 0.04818
795.90 0.04821
796.00 0.04824
796.10 0.04827
796.20 0.0483
796.30 0.04833
796.40 0.04836
796.50 0.04839
796.60 0.04842
796.70 0.04845
796.80 0.04848
796.90 0.04851
797.00 0.04854
797.10 0.04857
797.20 0.04861
797.30 0.04864
797.40 0.04867
797.50 0.0487
797.60 0.04873
797.70 0.04876
797.80 0.04879
797.90 0.04882
798.00 0.04885
798.10 0.04888
798.20 0.04891
798.30 0.04894
798.40 0.04897
798.50 0.049
798.60 0.04903
798.70 0.04906
798.80 0.04909
798.90 0.04912
799.00 0.04915
799.10 0.04918
799.20 0.04921
799.30 0.04924
799.40 0.04927
799.50 0.0493
799.60 0.04933
799.70 0.04936
799.80 0.04939
799.90 0.04942
800.00 0.04945
800.10 0.04947
800.20 0.04949
800.30 0.04951
800.40 0.04953
800.50 0.04954
800.60 0.04956
800.70 0.04958
800.80 0.0496
800.90 0.04961
801.00 0.04963
801.10 0.04965
801.20 0.04967
801.30 0.04969
801.40 0.0497
801.50 0.04972
801.60 0.04974
801.70 0.04976
801.80 0.04978
801.90 0.04979
802.00 0.04981
802.10 0.04983
802.20 0.04985
802.30 0.04986
802.40 0.04988
802.50 0.0499
802.60 0.04992
802.70 0.04993
802.80 0.04995
802.90 0.04997
803.00 0.04999
803.10 0.05001
803.20 0.05002
803.30 0.05004
803.40 0.05006
803.50 0.05008
803.60 0.05009
803.70 0.05011
803.80 0.05013
803.90 0.05015
804.00 0.05016
804.10 0.05018
804.20 0.0502
804.30 0.05022
804.40 0.05023
804.50 0.05025
804.60 0.05027
804.70 0.05029
804.80 0.0503
804.90 0.05032
805.00 0.05034
805.10 0.05036
805.20 0.05037
805.30 0.05039
805.40 0.05041
805.50 0.05043
805.60 0.05044
805.70 0.05046
805.80 0.05048
805.90 0.0505
806.00 0.05051
806.10 0.05053
806.20 0.05055
806.30 0.05056
806.40 0.05058
806.50 0.0506
806.60 0.05062
806.70 0.05063
806.80 0.05065
806.90 0.05067
807.00 0.05069
807.10 0.0507
807.20 0.05072
807.30 0.05074
807.40 0.05075
807.50 0.05077
807.60 0.05079
807.70 0.05081
807.80 0.05082
807.90 0.05084
808.00 0.05086
808.10 0.05087
808.20 0.05089
808.30 0.05091
808.40 0.05093
808.50 0.05094
808.60 0.05096
808.70 0.05098
808.80 0.05099
808.90 0.05101
809.00 0.05103
809.10 0.05105
809.20 0.05106
809.30 0.05108
809.40 0.0511
809.50 0.05111
809.60 0.05113
809.70 0.05115
809.80 0.05116
809.90 0.05118
810.00 0.0512
810.10 0.05121
810.20 0.05122
810.30 0.05123
810.40 0.05124
810.50 0.05125
810.60 0.05126
810.70 0.05127
810.80 0.05128
810.90 0.05129
811.00 0.0513
811.10 0.05131
811.20 0.05132
811.30 0.05133
811.40 0.05134
811.50 0.05136
811.60 0.05137
811.70 0.05138
811.80 0.05139
811.90 0.0514
812.00 0.05141
812.10 0.05142
812.20 0.05143
812.30 0.05144
812.40 0.05145
812.50 0.05146
812.60 0.05147
812.70 0.05148
812.80 0.05149
812.90 0.0515
813.00 0.05151
813.10 0.05152
813.20 0.05153
813.30 0.05154
813.40 0.05155
813.50 0.05156
813.60 0.05157
813.70 0.05158
813.80 0.05159
813.90 0.0516
814.00 0.05161
814.10 0.05162
814.20 0.05164
814.30 0.05165
814.40 0.05166
814.50 0.05167
814.60 0.05168
814.70 0.05169
814.80 0.0517
814.90 0.05171
815.00 0.05172
815.10 0.05173
815.20 0.05174
815.30 0.05175
815.40 0.05176
815.50 0.05177
815.60 0.05178
815.70 0.05179
815.80 0.0518
815.90 0.05181
816.00 0.05182
816.10 0.05183
816.20 0.05184
816.30 0.05185
816.40 0.05186
816.50 0.05187
816.60 0.05188
816.70 0.05189
816.80 0.0519
816.90 0.05191
817.00 0.05192
817.10 0.05193
817.20 0.05194
817.30 0.05195
817.40 0.05196
817.50 0.05197
817.60 0.05198
817.70 0.05199
817.80 0.052
817.90 0.05201
818.00 0.05202
818.10 0.05203
818.20 0.05204
818.30 0.05205
818.40 0.05206
818.50 0.05207
818.60 0.05208
818.70 0.05209
818.80 0.0521
818.90 0.05211
819.00 0.05212
819.10 0.05213
819.20 0.05214
819.30 0.05215
819.40 0.05216
819.50 0.05217
819.60 0.05218
819.70 0.05219
819.80 0.0522
819.90 0.05221
820.00 0.05222
820.10 0.05223
820.20 0.05225
820.30 0.05228
820.40 0.0523
820.50 0.05232
820.60 0.05235
820.70 0.05237
820.80 0.05239
820.90 0.05242
821.00 0.05244
821.10 0.05246
821.20 0.05249
821.30 0.05251
821.40 0.05253
821.50 0.05255
821.60 0.05258
821.70 0.0526
821.80 0.05262
821.90 0.05265
822.00 0.05267
822.10 0.0527
822.20 0.05273
822.30 0.05277
822.40 0.0528
822.50 0.05283
822.60 0.05286
822.70 0.05289
822.80 0.05293
822.90 0.05296
823.00 0.05299
823.10 0.05302
823.20 0.05305
823.30 0.05309
823.40 0.05312
823.50 0.05315
823.60 0.05318
823.70 0.05321
823.80 0.05325
823.90 0.05328
824.00 0.05331
824.10 0.05334
824.20 0.05337
824.30 0.0534
824.40 0.05344
824.50 0.05347
824.60 0.0535
824.70 0.05353
824.80 0.05356
824.90 0.05359
825.00 0.05363
825.10 0.05366
825.20 0.05369
825.30 0.05372
825.40 0.05375
825.50 0.05378
825.60 0.05382
825.70 0.05385
825.80 0.05388
825.90 0.05391
826.00 0.05394
826.10 0.05397
826.20 0.054
826.30 0.05404
826.40 0.05407
826.50 0.0541
826.60 0.05413
826.70 0.05416
826.80 0.05419
826.90 0.05422
827.00 0.05426
827.10 0.05429
827.20 0.05433
827.30 0.05437
827.40 0.0544
827.50 0.05444
827.60 0.05448
827.70 0.05451
827.80 0.05455
827.90 0.05459
828.00 0.05463
828.10 0.05466
828.20 0.0547
828.30 0.05474
828.40 0.05477
828.50 0.05481
828.60 0.05485
828.70 0.05488
828.80 0.05492
828.90 0.05496
829.00 0.05499
829.10 0.05503
829.20 0.05507
829.30 0.0551
829.40 0.05514
829.50 0.05518
829.60 0.05521
829.70 0.05525
829.80 0.05529
829.90 0.05532
830.00 0.05536
830.10 0.0554
830.20 0.05543
830.30 0.05547
830.40 0.05551
830.50 0.05554
830.60 0.05558
830.70 0.05561
830.80 0.05565
830.90 0.05569
831.00 0.05572
831.10 0.05576
831.20 0.0558
831.30 0.05583
831.40 0.05587
831.50 0.0559
831.60 0.05594
831.70 0.05598
831.80 0.05601
831.90 0.05605
832.00 0.05609
832.10 0.05611
832.20 0.05614
832.30 0.05617
832.40 0.0562
832.50 0.05623
832.60 0.05626
832.70 0.05628
832.80 0.05631
832.90 0.05634
833.00 0.05637
833.10 0.0564
833.20 0.05642
833.30 0.05645
833.40 0.05648
833.50 0.05651
833.60 0.05654
833.70 0.05656
833.80 0.05659
833.90 0.05662
834.00 0.05665
834.10 0.05668
834.20 0.0567
834.30 0.05673
834.40 0.05676
834.50 0.05679
834.60 0.05682
834.70 0.05684
834.80 0.05687
834.90 0.0569
835.00 0.05693
835.10 0.05696
835.20 0.05698
835.30 0.05701
835.40 0.05704
835.50 0.05707
835.60 0.05709
835.70 0.05712
835.80 0.05715
835.90 0.05718
836.00 0.05721
836.10 0.05723
836.20 0.05726
836.30 0.05729
836.40 0.05732
836.50 0.05734
836.60 0.05737
836.70 0.0574
836.80 0.05743
836.90 0.05745
837.00 0.05748
837.10 0.0575
837.20 0.05753
837.30 0.05755
837.40 0.05757
837.50 0.05759
837.60 0.05761
837.70 0.05764
837.80 0.05766
837.90 0.05768
838.00 0.0577
838.10 0.05772
838.20 0.05775
838.30 0.05777
838.40 0.05779
838.50 0.05781
838.60 0.05783
838.70 0.05786
838.80 0.05788
838.90 0.0579
839.00 0.05792
839.10 0.05794
839.20 0.05797
839.30 0.05799
839.40 0.05801
839.50 0.05803
839.60 0.05805
839.70 0.05808
839.80 0.0581
839.90 0.05812
840.00 0.05814
840.10 0.05816
840.20 0.05818
840.30 0.05821
840.40 0.05823
840.50 0.05825
840.60 0.05827
840.70 0.05829
840.80 0.05831
840.90 0.05834
841.00 0.05836
841.10 0.05838
841.20 0.0584
841.30 0.05842
841.40 0.05844
841.50 0.05847
841.60 0.05849
841.70 0.05851
841.80 0.05853
841.90 0.05855
842.00 0.05857
842.10 0.05859
842.20 0.05861
842.30 0.05862
842.40 0.05864
842.50 0.05865
842.60 0.05867
842.70 0.05869
842.80 0.0587
842.90 0.05872
843.00 0.05873
843.10 0.05875
843.20 0.05877
843.30 0.05878
843.40 0.0588
843.50 0.05881
843.60 0.05883
843.70 0.05885
843.80 0.05886
843.90 0.05888
844.00 0.05889
844.10 0.05891
844.20 0.05893
844.30 0.05894
844.40 0.05896
844.50 0.05897
844.60 0.05899
844.70 0.05901
844.80 0.05902
844.90 0.05904
845.00 0.05905
845.10 0.05907
845.20 0.05908
845.30 0.0591
845.40 0.05912
845.50 0.05913
845.60 0.05915
845.70 0.05916
845.80 0.05918
845.90 0.05919
846.00 0.05921
846.10 0.05923
846.20 0.05924
846.30 0.05926
846.40 0.05927
846.50 0.05929
846.60 0.0593
846.70 0.05932
846.80 0.05934
846.90 0.05935
847.00 0.05937
847.10 0.05938
847.20 0.0594
847.30 0.05942
847.40 0.05944
847.50 0.05946
847.60 0.05947
847.70 0.05949
847.80 0.05951
847.90 0.05953
848.00 0.05955
848.10 0.05956
848.20 0.05958
848.30 0.0596
848.40 0.05962
848.50 0.05963
848.60 0.05965
848.70 0.05967
848.80 0.05969
848.90 0.05971
849.00 0.05972
849.10 0.05974
849.20 0.05976
849.30 0.05978
849.40 0.05979
849.50 0.05981
849.60 0.05983
849.70 0.05985
849.80 0.05986
849.90 0.05988
850.00 0.0599
850.10 0.05992
850.20 0.05993
850.30 0.05995
850.40 0.05997
850.50 0.05999
850.60 0.06
850.70 0.06002
850.80 0.06004
850.90 0.06006
851.00 0.06007
851.10 0.06009
851.20 0.06011
851.30 0.06013
851.40 0.06014
851.50 0.06016
851.60 0.06018
851.70 0.0602
851.80 0.06021
851.90 0.06023
852.00 0.06025
852.10 0.06027
852.20 0.06029
852.30 0.06031
852.40 0.06033
852.50 0.06035
852.60 0.06038
852.70 0.0604
852.80 0.06042
852.90 0.06044
853.00 0.06046
853.10 0.06048
853.20 0.0605
853.30 0.06052
853.40 0.06054
853.50 0.06056
853.60 0.06059
853.70 0.06061
853.80 0.06063
853.90 0.06065
854.00 0.06067
854.10 0.06069
854.20 0.06071
854.30 0.06073
854.40 0.06075
854.50 0.06077
854.60 0.06079
854.70 0.06082
854.80 0.06084
854.90 0.06086
855.00 0.06088
855.10 0.0609
855.20 0.06092
855.30 0.06094
855.40 0.06096
855.50 0.06098
855.60 0.061
855.70 0.06102
855.80 0.06104
855.90 0.06106
856.00 0.06109
856.10 0.06111
856.20 0.06113
856.30 0.06115
856.40 0.06117
856.50 0.06119
856.60 0.06121
856.70 0.06123
856.80 0.06125
856.90 0.06127
857.00 0.06129
857.10 0.06132
857.20 0.06134
857.30 0.06137
857.40 0.06139
857.50 0.06141
857.60 0.06144
857.70 0.06146
857.80 0.06149
857.90 0.06151
858.00 0.06154
858.10 0.06156
858.20 0.06159
858.30 0.06161
858.40 0.06163
858.50 0.06166
858.60 0.06168
858.70 0.06171
858.80 0.06173
858.90 0.06176
859.00 0.06178
859.10 0.06181
859.20 0.06183
859.30 0.06185
859.40 0.06188
859.50 0.0619
859.60 0.06193
859.70 0.06195
859.80 0.06198
859.90 0.062
860.00 0.06202
860.10 0.06205
860.20 0.06207
860.30 0.0621
860.40 0.06212
860.50 0.06214
860.60 0.06217
860.70 0.06219
860.80 0.06222
860.90 0.06224
861.00 0.06227
861.10 0.06229
861.20 0.06231
861.30 0.06234
861.40 0.06236
861.50 0.06239
861.60 0.06241
861.70 0.06243
861.80 0.06246
861.90 0.06248
862.00 0.06251
862.10 0.06254
862.20 0.06257
862.30 0.0626
862.40 0.06263
862.50 0.06266
862.60 0.06269
862.70 0.06272
862.80 0.06275
862.90 0.06278
863.00 0.06281
863.10 0.06284
863.20 0.06287
863.30 0.0629
863.40 0.06293
863.50 0.06296
863.60 0.06299
863.70 0.06302
863.80 0.06305
863.90 0.06308
864.00 0.06311
864.10 0.06314
864.20 0.06317
864.30 0.06321
864.40 0.06324
864.50 0.06327
864.60 0.0633
864.70 0.06333
864.80 0.06336
864.90 0.06339
865.00 0.06342
865.10 0.06345
865.20 0.06348
865.30 0.06351
865.40 0.06354
865.50 0.06357
865.60 0.0636
865.70 0.06363
865.80 0.06366
865.90 0.06369
866.00 0.06372
866.10 0.06375
866.20 0.06378
866.30 0.06381
866.40 0.06384
866.50 0.06387
866.60 0.0639
866.70 0.06393
866.80 0.06396
866.90 0.06399
867.00 0.06402
867.10 0.06404
867.20 0.06407
867.30 0.06409
867.40 0.06412
867.50 0.06415
867.60 0.06417
867.70 0.0642
867.80 0.06422
867.90 0.06425
868.00 0.06428
868.10 0.0643
868.20 0.06433
868.30 0.06435
868.40 0.06438
868.50 0.06441
868.60 0.06443
868.70 0.06446
868.80 0.06448
868.90 0.06451
869.00 0.06453
869.10 0.06456
869.20 0.06459
869.30 0.06461
869.40 0.06464
869.50 0.06466
869.60 0.06469
869.70 0.06472
869.80 0.06474
869.90 0.06477
870.00 0.06479
870.10 0.06482
870.20 0.06484
870.30 0.06487
870.40 0.06489
870.50 0.06492
870.60 0.06495
870.70 0.06497
870.80 0.065
870.90 0.06502
871.00 0.06505
871.10 0.06507
871.20 0.0651
871.30 0.06512
871.40 0.06515
871.50 0.06518
871.60 0.0652
871.70 0.06523
871.80 0.06525
871.90 0.06528
872.00 0.0653
872.10 0.06532
872.20 0.06535
872.30 0.06537
872.40 0.06539
872.50 0.06541
872.60 0.06543
872.70 0.06546
872.80 0.06548
872.90 0.0655
873.00 0.06552
873.10 0.06554
873.20 0.06556
873.30 0.06559
873.40 0.06561
873.50 0.06563
873.60 0.06565
873.70 0.06567
873.80 0.06569
873.90 0.06571
874.00 0.06574
874.10 0.06576
874.20 0.06578
874.30 0.0658
874.40 0.06582
874.50 0.06584
874.60 0.06587
874.70 0.06589
874.80 0.06591
874.90 0.06593
875.00 0.06595
875.10 0.06597
875.20 0.06599
875.30 0.06602
875.40 0.06604
875.50 0.06606
875.60 0.06608
875.70 0.0661
875.80 0.06612
875.90 0.06614
876.00 0.06616
876.10 0.06619
876.20 0.06621
876.30 0.06623
876.40 0.06625
876.50 0.06627
876.60 0.06629
876.70 0.06631
876.80 0.06634
876.90 0.06636
877.00 0.06638
877.10 0.06638
877.20 0.06639
877.30 0.0664
877.40 0.0664
877.50 0.06641
877.60 0.06641
877.70 0.06642
877.80 0.06642
877.90 0.06643
878.00 0.06644
878.10 0.06644
878.20 0.06645
878.30 0.06645
878.40 0.06646
878.50 0.06647
878.60 0.06647
878.70 0.06648
878.80 0.06648
878.90 0.06649
879.00 0.06649
879.10 0.0665
879.20 0.06651
879.30 0.06651
879.40 0.06652
879.50 0.06652
879.60 0.06653
879.70 0.06653
879.80 0.06654
879.90 0.06655
880.00 0.06655
880.10 0.06656
880.20 0.06656
880.30 0.06657
880.40 0.06658
880.50 0.06658
880.60 0.06659
880.70 0.06659
880.80 0.0666
880.90 0.0666
881.00 0.06661
881.10 0.06662
881.20 0.06662
881.30 0.06663
881.40 0.06663
881.50 0.06664
881.60 0.06664
881.70 0.06665
881.80 0.06665
881.90 0.06666
882.00 0.06667
882.10 0.06666
882.20 0.06666
882.30 0.06665
882.40 0.06665
882.50 0.06664
882.60 0.06664
882.70 0.06664
882.80 0.06663
882.90 0.06663
883.00 0.06662
883.10 0.06662
883.20 0.06661
883.30 0.06661
883.40 0.06661
883.50 0.0666
883.60 0.0666
883.70 0.06659
883.80 0.06659
883.90 0.06658
884.00 0.06658
884.10 0.06657
884.20 0.06657
884.30 0.06657
884.40 0.06656
884.50 0.06656
884.60 0.06655
884.70 0.06655
884.80 0.06654
884.90 0.06654
885.00 0.06654
885.10 0.06653
885.20 0.06653
885.30 0.06652
885.40 0.06652
885.50 0.06651
885.60 0.06651
885.70 0.0665
885.80 0.0665
885.90 0.0665
886.00 0.06649
886.10 0.06649
886.20 0.06648
886.30 0.06648
886.40 0.06647
886.50 0.06647
886.60 0.06647
886.70 0.06646
886.80 0.06646
886.90 0.06645
887.00 0.06645
887.10 0.06643
887.20 0.06642
887.30 0.0664
887.40 0.06639
887.50 0.06638
887.60 0.06636
887.70 0.06635
887.80 0.06633
887.90 0.06632
888.00 0.0663
888.10 0.06629
888.20 0.06628
888.30 0.06626
888.40 0.06625
888.50 0.06623
888.60 0.06622
888.70 0.0662
888.80 0.06619
888.90 0.06618
889.00 0.06616
889.10 0.06615
889.20 0.06613
889.30 0.06612
889.40 0.0661
889.50 0.06609
889.60 0.06608
889.70 0.06606
889.80 0.06605
889.90 0.06603
890.00 0.06602
890.10 0.066
890.20 0.06599
890.30 0.06598
890.40 0.06596
890.50 0.06595
890.60 0.06593
890.70 0.06592
890.80 0.0659
890.90 0.06589
891.00 0.06588
891.10 0.06586
891.20 0.06585
891.30 0.06583
891.40 0.06582
891.50 0.0658
891.60 0.06579
891.70 0.06578
891.80 0.06576
891.90 0.06575
892.00 0.06573
892.10 0.06572
892.20 0.0657
892.30 0.06568
892.40 0.06566
892.50 0.06565
892.60 0.06563
892.70 0.06561
892.80 0.0656
892.90 0.06558
893.00 0.06556
893.10 0.06554
893.20 0.06553
893.30 0.06551
893.40 0.06549
893.50 0.06548
893.60 0.06546
893.70 0.06544
893.80 0.06542
893.90 0.06541
894.00 0.06539
894.10 0.06537
894.20 0.06536
894.30 0.06534
894.40 0.06532
894.50 0.0653
894.60 0.06529
894.70 0.06527
894.80 0.06525
894.90 0.06524
895.00 0.06522
895.10 0.0652
895.20 0.06518
895.30 0.06517
895.40 0.06515
895.50 0.06513
895.60 0.06512
895.70 0.0651
895.80 0.06508
895.90 0.06507
896.00 0.06505
896.10 0.06503
896.20 0.06501
896.30 0.065
896.40 0.06498
896.50 0.06496
896.60 0.06495
896.70 0.06493
896.80 0.06491
896.90 0.0649
897.00 0.06488
897.10 0.06485
897.20 0.06483
897.30 0.06481
897.40 0.06478
897.50 0.06476
897.60 0.06474
897.70 0.06471
897.80 0.06469
897.90 0.06467
898.00 0.06464
898.10 0.06462
898.20 0.06459
898.30 0.06457
898.40 0.06455
898.50 0.06452
898.60 0.0645
898.70 0.06448
898.80 0.06445
898.90 0.06443
899.00 0.06441
899.10 0.06438
899.20 0.06436
899.30 0.06434
899.40 0.06431
899.50 0.06429
899.60 0.06427
899.70 0.06424
899.80 0.06422
899.90 0.06419
900.00 0.06417
900.10 0.06415
900.20 0.06412
900.30 0.0641
900.40 0.06408
900.50 0.06405
900.60 0.06403
900.70 0.06401
900.80 0.06398
900.90 0.06396
901.00 0.06394
901.10 0.06391
901.20 0.06389
901.30 0.06387
901.40 0.06384
901.50 0.06382
901.60 0.0638
901.70 0.06377
901.80 0.06375
901.90 0.06373
902.00 0.0637
902.10 0.06367
902.20 0.06365
902.30 0.06362
902.40 0.06359
902.50 0.06356
902.60 0.06353
902.70 0.0635
902.80 0.06347
902.90 0.06344
903.00 0.06341
903.10 0.06338
903.20 0.06335
903.30 0.06332
903.40 0.06329
903.50 0.06326
903.60 0.06323
903.70 0.0632
903.80 0.06318
903.90 0.06315
904.00 0.06312
904.10 0.06309
904.20 0.06306
904.30 0.06303
904.40 0.063
904.50 0.06297
904.60 0.06294
904.70 0.06291
904.80 0.06288
904.90 0.06285
905.00 0.06282
905.10 0.0628
905.20 0.06277
905.30 0.06274
905.40 0.06271
905.50 0.06268
905.60 0.06265
905.70 0.06262
905.80 0.06259
905.90 0.06256
906.00 0.06253
906.10 0.06251
906.20 0.06248
906.30 0.06245
906.40 0.06242
906.50 0.06239
906.60 0.06236
906.70 0.06233
906.80 0.0623
906.90 0.06227
907.00 0.06224
907.10 0.06221
907.20 0.06217
907.30 0.06214
907.40 0.0621
907.50 0.06206
907.60 0.06203
907.70 0.06199
907.80 0.06195
907.90 0.06192
908.00 0.06188
908.10 0.06184
908.20 0.06181
908.30 0.06177
908.40 0.06174
908.50 0.0617
908.60 0.06166
908.70 0.06163
908.80 0.06159
908.90 0.06155
909.00 0.06152
909.10 0.06148
909.20 0.06145
909.30 0.06141
909.40 0.06137
909.50 0.06134
909.60 0.0613
909.70 0.06127
909.80 0.06123
909.90 0.06119
910.00 0.06116
910.10 0.06112
910.20 0.06109
910.30 0.06105
910.40 0.06101
910.50 0.06098
910.60 0.06094
910.70 0.06091
910.80 0.06087
910.90 0.06083
911.00 0.0608
911.10 0.06076
911.20 0.06073
911.30 0.06069
911.40 0.06066
911.50 0.06062
911.60 0.06058
911.70 0.06055
911.80 0.06051
911.90 0.06048
912.00 0.06044
912.10 0.0604
912.20 0.06036
912.30 0.06031
912.40 0.06027
912.50 0.06023
912.60 0.06019
912.70 0.06015
912.80 0.0601
912.90 0.06006
913.00 0.06002
913.10 0.05998
913.20 0.05994
913.30 0.05989
913.40 0.05985
913.50 0.05981
913.60 0.05977
913.70 0.05973
913.80 0.05968
913.90 0.05964
914.00 0.0596
914.10 0.05956
914.20 0.05952
914.30 0.05947
914.40 0.05943
914.50 0.05939
914.60 0.05935
914.70 0.05931
914.80 0.05927
914.90 0.05922
915.00 0.05918
915.10 0.05914
915.20 0.0591
915.30 0.05906
915.40 0.05901
915.50 0.05897
915.60 0.05893
915.70 0.05889
915.80 0.05885
915.90 0.05881
916.00 0.05877
916.10 0.05872
916.20 0.05868
916.30 0.05864
916.40 0.0586
916.50 0.05856
916.60 0.05852
916.70 0.05847
916.80 0.05843
916.90 0.05839
917.00 0.05835
917.10 0.0583
917.20 0.05825
917.30 0.0582
917.40 0.05816
917.50 0.05811
917.60 0.05806
917.70 0.05801
917.80 0.05796
917.90 0.05791
918.00 0.05786
918.10 0.05782
918.20 0.05777
918.30 0.05772
918.40 0.05767
918.50 0.05762
918.60 0.05757
918.70 0.05753
918.80 0.05748
918.90 0.05743
919.00 0.05738
919.10 0.05733
919.20 0.05728
919.30 0.05724
919.40 0.05719
919.50 0.05714
919.60 0.05709
919.70 0.05704
919.80 0.057
919.90 0.05695
920.00 0.0569
920.10 0.05685
920.20 0.0568
920.30 0.05676
920.40 0.05671
920.50 0.05666
920.60 0.05661
920.70 0.05656
920.80 0.05652
920.90 0.05647
921.00 0.05642
921.10 0.05637
921.20 0.05632
921.30 0.05628
921.40 0.05623
921.50 0.05618
921.60 0.05613
921.70 0.05609
921.80 0.05604
921.90 0.05599
922.00 0.05594
922.10 0.05589
922.20 0.05584
922.30 0.05578
922.40 0.05573
922.50 0.05568
922.60 0.05562
922.70 0.05557
922.80 0.05552
922.90 0.05547
923.00 0.05541
923.10 0.05536
923.20 0.05531
923.30 0.05526
923.40 0.0552
923.50 0.05515
923.60 0.0551
923.70 0.05504
923.80 0.05499
923.90 0.05494
924.00 0.05489
924.10 0.05483
924.20 0.05478
924.30 0.05473
924.40 0.05468
924.50 0.05462
924.60 0.05457
924.70 0.05452
924.80 0.05447
924.90 0.05441
925.00 0.05436
925.10 0.05431
925.20 0.05426
925.30 0.0542
925.40 0.05415
925.50 0.0541
925.60 0.05405
925.70 0.054
925.80 0.05394
925.90 0.05389
926.00 0.05384
926.10 0.05379
926.20 0.05373
926.30 0.05368
926.40 0.05363
926.50 0.05358
926.60 0.05353
926.70 0.05347
926.80 0.05342
926.90 0.05337
927.00 0.05332
927.10 0.05326
927.20 0.0532
927.30 0.05315
927.40 0.05309
927.50 0.05303
927.60 0.05298
927.70 0.05292
927.80 0.05286
927.90 0.05281
928.00 0.05275
928.10 0.05269
928.20 0.05264
928.30 0.05258
928.40 0.05252
928.50 0.05247
928.60 0.05241
928.70 0.05235
928.80 0.0523
928.90 0.05224
929.00 0.05218
929.10 0.05213
929.20 0.05207
929.30 0.05201
929.40 0.05196
929.50 0.0519
929.60 0.05184
929.70 0.05179
929.80 0.05173
929.90 0.05167
930.00 0.05162
930.10 0.05156
930.20 0.05151
930.30 0.05145
930.40 0.05139
930.50 0.05134
930.60 0.05128
930.70 0.05122
930.80 0.05117
930.90 0.05111
931.00 0.05106
931.10 0.051
931.20 0.05094
931.30 0.05089
931.40 0.05083
931.50 0.05078
931.60 0.05072
931.70 0.05066
931.80 0.05061
931.90 0.05055
932.00 0.0505
932.10 0.05044
932.20 0.05038
932.30 0.05032
932.40 0.05027
932.50 0.05021
932.60 0.05015
932.70 0.05009
932.80 0.05004
932.90 0.04998
933.00 0.04992
933.10 0.04987
933.20 0.04981
933.30 0.04975
933.40 0.04969
933.50 0.04964
933.60 0.04958
933.70 0.04952
933.80 0.04947
933.90 0.04941
934.00 0.04935
934.10 0.04929
934.20 0.04924
934.30 0.04918
934.40 0.04912
934.50 0.04906
934.60 0.04901
934.70 0.04895
934.80 0.04889
934.90 0.04883
935.00 0.04877
935.10 0.04872
935.20 0.04866
935.30 0.0486
935.40 0.04854
935.50 0.04848
935.60 0.04843
935.70 0.04837
935.80 0.04831
935.90 0.04825
936.00 0.04819
936.10 0.04814
936.20 0.04808
936.30 0.04802
936.40 0.04796
936.50 0.04791
936.60 0.04785
936.70 0.04779
936.80 0.04773
936.90 0.04768
937.00 0.04762
937.10 0.04756
937.20 0.0475
937.30 0.04744
937.40 0.04738
937.50 0.04733
937.60 0.04727
937.70 0.04721
937.80 0.04715
937.90 0.04709
938.00 0.04703
938.10 0.04698
938.20 0.04692
938.30 0.04686
938.40 0.0468
938.50 0.04674
938.60 0.04668
938.70 0.04662
938.80 0.04656
938.90 0.0465
939.00 0.04644
939.10 0.04638
939.20 0.04632
939.30 0.04626
939.40 0.0462
939.50 0.04614
939.60 0.04608
939.70 0.04602
939.80 0.04596
939.90 0.04591
940.00 0.04585
940.10 0.04579
940.20 0.04573
940.30 0.04567
940.40 0.04561
940.50 0.04555
940.60 0.04549
940.70 0.04543
940.80 0.04538
940.90 0.04532
941.00 0.04526
941.10 0.0452
941.20 0.04514
941.30 0.04509
941.40 0.04503
941.50 0.04497
941.60 0.04491
941.70 0.04485
941.80 0.0448
941.90 0.04474
942.00 0.04468
942.10 0.04462
942.20 0.04456
942.30 0.0445
942.40 0.04445
942.50 0.04439
942.60 0.04433
942.70 0.04427
942.80 0.04421
942.90 0.04416
943.00 0.0441
943.10 0.04404
943.20 0.04398
943.30 0.04392
943.40 0.04387
943.50 0.04381
943.60 0.04375
943.70 0.04369
943.80 0.04364
943.90 0.04358
944.00 0.04352
944.10 0.04346
944.20 0.0434
944.30 0.04335
944.40 0.04329
944.50 0.04323
944.60 0.04317
944.70 0.04312
944.80 0.04306
944.90 0.043
945.00 0.04294
945.10 0.04288
945.20 0.04283
945.30 0.04277
945.40 0.04271
945.50 0.04265
945.60 0.0426
945.70 0.04254
945.80 0.04248
945.90 0.04242
946.00 0.04237
946.10 0.04231
946.20 0.04225
946.30 0.04219
946.40 0.04214
946.50 0.04208
946.60 0.04202
946.70 0.04196
946.80 0.04191
946.90 0.04185
947.00 0.04179
947.10 0.04173
947.20 0.04168
947.30 0.04162
947.40 0.04156
947.50 0.04151
947.60 0.04145
947.70 0.04139
947.80 0.04134
947.90 0.04128
948.00 0.04122
948.10 0.04116
948.20 0.04111
948.30 0.04105
948.40 0.04099
948.50 0.04094
948.60 0.04088
948.70 0.04082
948.80 0.04077
948.90 0.04071
949.00 0.04065
949.10 0.0406
949.20 0.04054
949.30 0.04048
949.40 0.04043
949.50 0.04037
949.60 0.04031
949.70 0.04026
949.80 0.0402
949.90 0.04014
950.00 0.04009
950.10 0.04003
950.20 0.03997
950.30 0.03992
950.40 0.03986
950.50 0.0398
950.60 0.03975
950.70 0.03969
950.80 0.03963
950.90 0.03958
951.00 0.03952
951.10 0.03946
951.20 0.03941
951.30 0.03935
951.40 0.03929
951.50 0.03924
951.60 0.03918
951.70 0.03912
951.80 0.03907
951.90 0.03901
952.00 0.03895
952.10 0.0389
952.20 0.03884
952.30 0.03878
952.40 0.03873
952.50 0.03867
952.60 0.03861
952.70 0.03856
952.80 0.0385
952.90 0.03845
953.00 0.03839
953.10 0.03833
953.20 0.03828
953.30 0.03822
953.40 0.03817
953.50 0.03811
953.60 0.03805
953.70 0.038
953.80 0.03794
953.90 0.03788
954.00 0.03783
954.10 0.03777
954.20 0.03772
954.30 0.03766
954.40 0.0376
954.50 0.03755
954.60 0.03749
954.70 0.03744
954.80 0.03738
954.90 0.03732
955.00 0.03727
955.10 0.03721
955.20 0.03716
955.30 0.0371
955.40 0.03704
955.50 0.03699
955.60 0.03693
955.70 0.03688
955.80 0.03682
955.90 0.03677
956.00 0.03671
956.10 0.03665
956.20 0.0366
956.30 0.03654
956.40 0.03648
956.50 0.03643
956.60 0.03637
956.70 0.03631
956.80 0.03626
956.90 0.0362
957.00 0.03615
957.10 0.03609
957.20 0.03603
957.30 0.03598
957.40 0.03592
957.50 0.03587
957.60 0.03581
957.70 0.03576
957.80 0.0357
957.90 0.03565
958.00 0.03559
958.10 0.03554
958.20 0.03548
958.30 0.03543
958.40 0.03537
958.50 0.03532
958.60 0.03526
958.70 0.03521
958.80 0.03515
958.90 0.0351
959.00 0.03504
959.10 0.03499
959.20 0.03493
959.30 0.03488
959.40 0.03482
959.50 0.03477
959.60 0.03471
959.70 0.03466
959.80 0.03461
959.90 0.03455
960.00 0.0345
960.10 0.03444
960.20 0.03439
960.30 0.03433
960.40 0.03428
960.50 0.03422
960.60 0.03417
960.70 0.03412
960.80 0.03406
960.90 0.03401
961.00 0.03395
961.10 0.0339
961.20 0.03384
961.30 0.03379
961.40 0.03374
961.50 0.03368
961.60 0.03363
961.70 0.03357
961.80 0.03352
961.90 0.03347
962.00 0.03341
962.10 0.03336
962.20 0.0333
962.30 0.03325
962.40 0.0332
962.50 0.03314
962.60 0.03309
962.70 0.03304
962.80 0.03298
962.90 0.03293
963.00 0.03287
963.10 0.03282
963.20 0.03277
963.30 0.03271
963.40 0.03266
963.50 0.03261
963.60 0.03255
963.70 0.0325
963.80 0.03245
963.90 0.03239
964.00 0.03234
964.10 0.03229
964.20 0.03223
964.30 0.03218
964.40 0.03213
964.50 0.03207
964.60 0.03202
964.70 0.03196
964.80 0.03191
964.90 0.03185
965.00 0.0318
965.10 0.03175
965.20 0.03169
965.30 0.03164
965.40 0.03158
965.50 0.03153
965.60 0.03147
965.70 0.03142
965.80 0.03137
965.90 0.03131
966.00 0.03126
966.10 0.0312
966.20 0.03115
966.30 0.03109
966.40 0.03104
966.50 0.03099
966.60 0.03094
966.70 0.03089
966.80 0.03083
966.90 0.03078
967.00 0.03073
967.10 0.03068
967.20 0.03063
967.30 0.03057
967.40 0.03052
967.50 0.03047
967.60 0.03042
967.70 0.03037
967.80 0.03032
967.90 0.03026
968.00 0.03021
968.10 0.03016
968.20 0.03011
968.30 0.03006
968.40 0.03001
968.50 0.02996
968.60 0.0299
968.70 0.02985
968.80 0.0298
968.90 0.02975
969.00 0.0297
969.10 0.02965
969.20 0.0296
969.30 0.02955
969.40 0.0295
969.50 0.02945
969.60 0.0294
969.70 0.02935
969.80 0.0293
969.90 0.02924
970.00 0.02919
970.10 0.02914
970.20 0.02909
970.30 0.02904
970.40 0.02899
970.50 0.02894
970.60 0.02889
970.70 0.02884
970.80 0.02879
970.90 0.02874
971.00 0.02869
971.10 0.02864
971.20 0.02859
971.30 0.02854
971.40 0.0285
971.50 0.02845
971.60 0.0284
971.70 0.02835
971.80 0.0283
971.90 0.02825
972.00 0.0282
972.10 0.02815
972.20 0.0281
972.30 0.02805
972.40 0.028
972.50 0.02795
972.60 0.0279
972.70 0.02786
972.80 0.02781
972.90 0.02776
973.00 0.02771
973.10 0.02766
973.20 0.02761
973.30 0.02756
973.40 0.02752
973.50 0.02747
973.60 0.02742
973.70 0.02737
973.80 0.02732
973.90 0.02727
974.00 0.02722
974.10 0.02718
974.20 0.02713
974.30 0.02708
974.40 0.02703
974.50 0.02698
974.60 0.02693
974.70 0.02689
974.80 0.02684
974.90 0.02679
975.00 0.02674
975.10 0.02669
975.20 0.02665
975.30 0.0266
975.40 0.02655
975.50 0.0265
975.60 0.02645
975.70 0.02641
975.80 0.02636
975.90 0.02631
976.00 0.02626
976.10 0.02621
976.20 0.02617
976.30 0.02612
976.40 0.02607
976.50 0.02602
976.60 0.02598
976.70 0.02593
976.80 0.02588
976.90 0.02583
977.00 0.02578
977.10 0.02574
977.20 0.02569
977.30 0.02565
977.40 0.0256
977.50 0.02556
977.60 0.02551
977.70 0.02547
977.80 0.02542
977.90 0.02538
978.00 0.02533
978.10 0.02529
978.20 0.02524
978.30 0.0252
978.40 0.02515
978.50 0.02511
978.60 0.02506
978.70 0.02502
978.80 0.02497
978.90 0.02493
979.00 0.02488
979.10 0.02484
979.20 0.02479
979.30 0.02475
979.40 0.0247
979.50 0.02466
979.60 0.02461
979.70 0.02457
979.80 0.02452
979.90 0.02448
980.00 0.02443
980.10 0.02439
980.20 0.02434
980.30 0.0243
980.40 0.02425
980.50 0.02421
980.60 0.02416
980.70 0.02412
980.80 0.02408
980.90 0.02403
981.00 0.02399
981.10 0.02394
981.20 0.0239
981.30 0.02385
981.40 0.02381
981.50 0.02376
981.60 0.02372
981.70 0.02367
981.80 0.02363
981.90 0.02359
982.00 0.02354
982.10 0.0235
982.20 0.02346
982.30 0.02341
982.40 0.02337
982.50 0.02333
982.60 0.02328
982.70 0.02324
982.80 0.0232
982.90 0.02316
983.00 0.02311
983.10 0.02307
983.20 0.02303
983.30 0.02299
983.40 0.02294
983.50 0.0229
983.60 0.02286
983.70 0.02282
983.80 0.02277
983.90 0.02273
984.00 0.02269
984.10 0.02265
984.20 0.0226
984.30 0.02256
984.40 0.02252
984.50 0.02248
984.60 0.02243
984.70 0.02239
984.80 0.02235
984.90 0.02231
985.00 0.02228
985.10 0.02224
985.20 0.0222
985.30 0.02216
985.40 0.02212
985.50 0.02208
985.60 0.02204
985.70 0.022
985.80 0.02196
985.90 0.02192
986.00 0.02188
986.10 0.02184
986.20 0.0218
986.30 0.02176
986.40 0.02172
986.50 0.02168
986.60 0.02164
986.70 0.0216
986.80 0.02156
986.90 0.02152
987.00 0.02148
987.10 0.02144
987.20 0.0214
987.30 0.02136
987.40 0.02132
987.50 0.02128
987.60 0.02124
987.70 0.0212
987.80 0.02116
987.90 0.02111
988.00 0.02107
988.10 0.02103
988.20 0.02099
988.30 0.02095
988.40 0.02091
988.50 0.02087
988.60 0.02083
988.70 0.02079
988.80 0.02075
988.90 0.0207
989.00 0.02066
989.10 0.02062
989.20 0.02058
989.30 0.02054
989.40 0.0205
989.50 0.02046
989.60 0.02042
989.70 0.02038
989.80 0.02034
989.90 0.0203
990.00 0.02026
990.10 0.02022
990.20 0.02017
990.30 0.02013
990.40 0.02009
990.50 0.02005
990.60 0.02001
990.70 0.01997
990.80 0.01993
990.90 0.01989
991.00 0.01985
991.10 0.01981
991.20 0.01977
991.30 0.01973
991.40 0.01969
991.50 0.01965
991.60 0.01961
991.70 0.01957
991.80 0.01953
991.90 0.01949
992.00 0.01945
992.10 0.01941
992.20 0.01937
992.30 0.01932
992.40 0.01928
992.50 0.01924
992.60 0.0192
992.70 0.01916
992.80 0.01912
992.90 0.01908
993.00 0.01904
993.10 0.019
993.20 0.01896
993.30 0.01892
993.40 0.01888
993.50 0.01884
993.60 0.0188
993.70 0.01876
993.80 0.01872
993.90 0.01868
994.00 0.01864
994.10 0.0186
994.20 0.01856
994.30 0.01853
994.40 0.01849
994.50 0.01845
994.60 0.01841
994.70 0.01836
994.80 0.01831
994.90 0.01826
995.00 0.01821
995.10 0.01816
995.20 0.01811
995.30 0.01806
995.40 0.01801
995.50 0.01796
995.60 0.01791
995.70 0.01787
995.80 0.01783
995.90 0.01779
996.00 0.01776
996.10 0.01772
996.20 0.01768
996.30 0.01764
996.40 0.0176
996.50 0.01757
996.60 0.01753
996.70 0.01749
996.80 0.01745
996.90 0.01741
997.00 0.01738
997.10 0.01734
997.20 0.0173
997.30 0.01726
997.40 0.01723
997.50 0.01719
997.60 0.01715
997.70 0.01712
997.80 0.01708
997.90 0.01704
998.00 0.01701
998.10 0.01697
998.20 0.01694
998.30 0.0169
998.40 0.01687
998.50 0.01683
998.60 0.01679
998.70 0.01676
998.80 0.01672
998.90 0.01669
999.00 0.01665
999.10 0.01662
999.20 0.01658
999.30 0.01654
999.40 0.01651
999.50 0.01647
999.60 0.01644
999.70 0.0164
999.80 0.01637
999.90 0.01633
1000.00 0.0163
1000.10 0.01627
1000.20 0.01623
1000.30 0.0162
1000.40 0.01616
1000.50 0.01613
1000.60 0.0161
1000.70 0.01606
1000.80 0.01603
1000.90 0.016
1001.00 0.01596
1001.10 0.01593
1001.20 0.01589
1001.30 0.01586
1001.40 0.01583
1001.50 0.01579
1001.60 0.01576
1001.70 0.01573
1001.80 0.01569
1001.90 0.01566
1002.00 0.01563
1002.10 0.01559
1002.20 0.01556
1002.30 0.01553
1002.40 0.0155
1002.50 0.01547
1002.60 0.01543
1002.70 0.0154
1002.80 0.01537
1002.90 0.01534
1003.00 0.0153
1003.10 0.01527
1003.20 0.01524
1003.30 0.01521
1003.40 0.01518
1003.50 0.01515
1003.60 0.01512
1003.70 0.01508
1003.80 0.01505
1003.90 0.01502
1004.00 0.01499
1004.10 0.01496
1004.20 0.01493
1004.30 0.0149
1004.40 0.01487
1004.50 0.01484
1004.60 0.01481
1004.70 0.01478
1004.80 0.01475
1004.90 0.0147
1005.00 0.01466
1005.10 0.01463
1005.20 0.0146
1005.30 0.01457
1005.40 0.01454
1005.50 0.01451
1005.60 0.01448
1005.70 0.01445
1005.80 0.01442
1005.90 0.01439
1006.00 0.01436
1006.10 0.01433
1006.20 0.0143
1006.30 0.01428
1006.40 0.01425
1006.50 0.01422
1006.60 0.01419
1006.70 0.01416
1006.80 0.01413
1006.90 0.0141
1007.00 0.01408
1007.10 0.01405
1007.20 0.01402
1007.30 0.01399
1007.40 0.01396
1007.50 0.01394
1007.60 0.01391
1007.70 0.01388
1007.80 0.01386
1007.90 0.01383
1008.00 0.0138
1008.10 0.01378
1008.20 0.01375
1008.30 0.01372
1008.40 0.0137
1008.50 0.01367
1008.60 0.01364
1008.70 0.01362
1008.80 0.01359
1008.90 0.01356
1009.00 0.01354
1009.10 0.01351
1009.20 0.01348
1009.30 0.01346
1009.40 0.01343
1009.50 0.0134
1009.60 0.01338
1009.70 0.01335
1009.80 0.01333
1009.90 0.0133
1010.00 0.01328
1010.10 0.01325
1010.20 0.01323
1010.30 0.0132
1010.40 0.01318
1010.50 0.01315
1010.60 0.01313
1010.70 0.0131
1010.80 0.01308
1010.90 0.01305
1011.00 0.01303
1011.10 0.013
1011.20 0.01298
1011.30 0.01295
1011.40 0.01293
1011.50 0.0129
1011.60 0.01288
1011.70 0.01286
1011.80 0.01283
1011.90 0.01281
1012.00 0.01278
1012.10 0.01276
1012.20 0.01274
1012.30 0.01271
1012.40 0.01269
1012.50 0.01267
1012.60 0.01265
1012.70 0.01262
1012.80 0.0126
1012.90 0.01258
1013.00 0.01255
1013.10 0.01253
1013.20 0.01251
1013.30 0.01248
1013.40 0.01246
1013.50 0.01244
1013.60 0.01242
1013.70 0.01239
1013.80 0.01237
1013.90 0.01235
1014.00 0.01233
1014.10 0.0123
1014.20 0.01228
1014.30 0.01226
1014.40 0.01224
1014.50 0.01222
1014.60 0.01219
1014.70 0.01218
1014.80 0.01216
1014.90 0.01214
1015.00 0.01212
1015.10 0.0121
1015.20 0.01208
1015.30 0.01206
1015.40 0.01204
1015.50 0.01202
1015.60 0.012
1015.70 0.01199
1015.80 0.01197
1015.90 0.01195
1016.00 0.01193
1016.10 0.01191
1016.20 0.01189
1016.30 0.01187
1016.40 0.01185
1016.50 0.01184
1016.60 0.01182
1016.70 0.0118
1016.80 0.01178
1016.90 0.01176
1017.00 0.01173
1017.10 0.01171
1017.20 0.01169
1017.30 0.01167
1017.40 0.01165
1017.50 0.01163
1017.60 0.01161
1017.70 0.01159
1017.80 0.01157
1017.90 0.01155
1018.00 0.01153
1018.10 0.01151
1018.20 0.01149
1018.30 0.01147
1018.40 0.01145
1018.50 0.01143
1018.60 0.01141
1018.70 0.01139
1018.80 0.01137
1018.90 0.01135
1019.00 0.01133
1019.10 0.01131
1019.20 0.01129
1019.30 0.01127
1019.40 0.01126
1019.50 0.01124
1019.60 0.01122
1019.70 0.0112
1019.80 0.01118
1019.90 0.01116
1020.00 0.01114
1020.10 0.01112
1020.20 0.0111
1020.30 0.01108
1020.40 0.01106
1020.50 0.01104
1020.60 0.01102
1020.70 0.011
1020.80 0.01098
1020.90 0.01096
1021.00 0.01095
1021.10 0.01093
1021.20 0.01091
1021.30 0.01089
1021.40 0.01087
1021.50 0.01085
1021.60 0.01083
1021.70 0.01081
1021.80 0.0108
1021.90 0.01078
1022.00 0.01076
1022.10 0.01074
1022.20 0.01072
1022.30 0.0107
1022.40 0.01068
1022.50 0.01067
1022.60 0.01065
1022.70 0.01063
1022.80 0.01061
1022.90 0.01059
1023.00 0.01058
1023.10 0.01056
1023.20 0.01054
1023.30 0.01052
1023.40 0.0105
1023.50 0.01048
1023.60 0.01047
1023.70 0.01045
1023.80 0.01043
1023.90 0.01041
1024.00 0.01039
1024.10 0.01038
1024.20 0.01036
1024.30 0.01034
1024.40 0.01032
1024.50 0.0103
1024.60 0.01029
1024.70 0.01027
1024.80 0.01025
1024.90 0.01023
1025.00 0.01021
1025.10 0.0102
1025.20 0.01018
1025.30 0.01016
1025.40 0.01014
1025.50 0.01012
1025.60 0.01011
1025.70 0.01009
1025.80 0.01007
1025.90 0.01005
1026.00 0.01004
1026.10 0.01002
1026.20 0.01
1026.30 0.009982
1026.40 0.009964
1026.50 0.009946
1026.60 0.009929
1026.70 0.009911
1026.80 0.009893
1026.90 0.009875
1027.00 0.009857
1027.10 0.009842
1027.20 0.009826
1027.30 0.00981
1027.40 0.009794
1027.50 0.009778
1027.60 0.009762
1027.70 0.009746
1027.80 0.00973
1027.90 0.009714
1028.00 0.009699
1028.10 0.009683
1028.20 0.009667
1028.30 0.009651
1028.40 0.009635
1028.50 0.009619
1028.60 0.009604
1028.70 0.009588
1028.80 0.009572
1028.90 0.009556
1029.00 0.00954
1029.10 0.009525
1029.20 0.009509
1029.30 0.009493
1029.40 0.009477
1029.50 0.009462
1029.60 0.009446
1029.70 0.00943
1029.80 0.009414
1029.90 0.009399
1030.00 0.009383
1030.10 0.009367
1030.20 0.009351
1030.30 0.009336
1030.40 0.00932
1030.50 0.009304
1030.60 0.009289
1030.70 0.009273
1030.80 0.009257
1030.90 0.009241
1031.00 0.009226
1031.10 0.00921
1031.20 0.009194
1031.30 0.009179
1031.40 0.009163
1031.50 0.009147
1031.60 0.009132
1031.70 0.009116
1031.80 0.009101
1031.90 0.009085
1032.00 0.009069
1032.10 0.009055
1032.20 0.009041
1032.30 0.009027
1032.40 0.009013
1032.50 0.008998
1032.60 0.008984
1032.70 0.00897
1032.80 0.008956
1032.90 0.008942
1033.00 0.008928
1033.10 0.008913
1033.20 0.008899
1033.30 0.008885
1033.40 0.008871
1033.50 0.008857
1033.60 0.008843
1033.70 0.008829
1033.80 0.008814
1033.90 0.0088
1034.00 0.008786
1034.10 0.008772
1034.20 0.008758
1034.30 0.008744
1034.40 0.00873
1034.50 0.008716
1034.60 0.008702
1034.70 0.008688
1034.80 0.008674
1034.90 0.00866
1035.00 0.008645
1035.10 0.008631
1035.20 0.008617
1035.30 0.008603
1035.40 0.008589
1035.50 0.008575
1035.60 0.008561
1035.70 0.008547
1035.80 0.008533
1035.90 0.008519
1036.00 0.008505
1036.10 0.008491
1036.20 0.008477
1036.30 0.008463
1036.40 0.008449
1036.50 0.008435
1036.60 0.008421
1036.70 0.008407
1036.80 0.008393
1036.90 0.008379
1037.00 0.008366
1037.10 0.008353
1037.20 0.008341
1037.30 0.008329
1037.40 0.008317
1037.50 0.008305
1037.60 0.008293
1037.70 0.00828
1037.80 0.008268
1037.90 0.008256
1038.00 0.008244
1038.10 0.008232
1038.20 0.00822
1038.30 0.008208
1038.40 0.008195
1038.50 0.008183
1038.60 0.008171
1038.70 0.008159
1038.80 0.008147
1038.90 0.008135
1039.00 0.008123
1039.10 0.008111
1039.20 0.008099
1039.30 0.008087
1039.40 0.008075
1039.50 0.008063
1039.60 0.00805
1039.70 0.008038
1039.80 0.008026
1039.90 0.008014
1040.00 0.008002
1040.10 0.00799
1040.20 0.007978
1040.30 0.007966
1040.40 0.007954
1040.50 0.007942
1040.60 0.00793
1040.70 0.007918
1040.80 0.007906
1040.90 0.007894
1041.00 0.007882
1041.10 0.00787
1041.20 0.007858
1041.30 0.007846
1041.40 0.007834
1041.50 0.007822
1041.60 0.00781
1041.70 0.007798
1041.80 0.007786
1041.90 0.007774
1042.00 0.007762
1042.10 0.007752
1042.20 0.007741
1042.30 0.007731
1042.40 0.007721
1042.50 0.00771
1042.60 0.0077
1042.70 0.007689
1042.80 0.007679
1042.90 0.007669
1043.00 0.007658
1043.10 0.007648
1043.20 0.007637
1043.30 0.007627
1043.40 0.007617
1043.50 0.007606
1043.60 0.007596
1043.70 0.007585
1043.80 0.007575
1043.90 0.007565
1044.00 0.007554
1044.10 0.007544
1044.20 0.007534
1044.30 0.007523
1044.40 0.007513
1044.50 0.007503
1044.60 0.007492
1044.70 0.007482
1044.80 0.007471
1044.90 0.007461
1045.00 0.007451
1045.10 0.007441
1045.20 0.00743
1045.30 0.00742
1045.40 0.00741
1045.50 0.007399
1045.60 0.007389
1045.70 0.007379
1045.80 0.007368
1045.90 0.007358
1046.00 0.007348
1046.10 0.007337
1046.20 0.007327
1046.30 0.007317
1046.40 0.007307
1046.50 0.007296
1046.60 0.007286
1046.70 0.007276
1046.80 0.007266
1046.90 0.007255
1047.00 0.007245
1047.10 0.007236
1047.20 0.007227
1047.30 0.007219
1047.40 0.00721
1047.50 0.007201
1047.60 0.007192
1047.70 0.007183
1047.80 0.007174
1047.90 0.007165
1048.00 0.007157
1048.10 0.007148
1048.20 0.007139
1048.30 0.00713
1048.40 0.007121
1048.50 0.007113
1048.60 0.007104
1048.70 0.007095
1048.80 0.007086
1048.90 0.007077
1049.00 0.007069
1049.10 0.00706
1049.20 0.007051
1049.30 0.007042
1049.40 0.007033
1049.50 0.007025
1049.60 0.007016
1049.70 0.007007
1049.80 0.006998
1049.90 0.006989
1050.00 0.006981
1050.10 0.006972
1050.20 0.006963
1050.30 0.006954
1050.40 0.006946
1050.50 0.006937
1050.60 0.006928
1050.70 0.006919
1050.80 0.006911
1050.90 0.006902
1051.00 0.006893
1051.10 0.006884
1051.20 0.006876
1051.30 0.006867
1051.40 0.006858
1051.50 0.00685
1051.60 0.006841
1051.70 0.006832
1051.80 0.006823
1051.90 0.006815
1052.00 0.006806
1052.10 0.006798
1052.20 0.00679
1052.30 0.006782
1052.40 0.006774
1052.50 0.006766
1052.60 0.006758
1052.70 0.00675
1052.80 0.006742
1052.90 0.006734
1053.00 0.006726
1053.10 0.006718
1053.20 0.00671
1053.30 0.006702
1053.40 0.006694
1053.50 0.006686
1053.60 0.006678
1053.70 0.00667
1053.80 0.006662
1053.90 0.006654
1054.00 0.006646
1054.10 0.006638
1054.20 0.00663
1054.30 0.006622
1054.40 0.006615
1054.50 0.006607
1054.60 0.006599
1054.70 0.006591
1054.80 0.006583
1054.90 0.006575
1055.00 0.006567
1055.10 0.006559
1055.20 0.006551
1055.30 0.006543
1055.40 0.006535
1055.50 0.006527
1055.60 0.006519
1055.70 0.006512
1055.80 0.006504
1055.90 0.006496
1056.00 0.006488
1056.10 0.00648
1056.20 0.006472
1056.30 0.006464
1056.40 0.006456
1056.50 0.006448
1056.60 0.00644
1056.70 0.006433
1056.80 0.006425
1056.90 0.006417
1057.00 0.006409
1057.10 0.006402
1057.20 0.006395
1057.30 0.006388
1057.40 0.006381
1057.50 0.006373
1057.60 0.006366
1057.70 0.006359
1057.80 0.006352
1057.90 0.006345
1058.00 0.006338
1058.10 0.006331
1058.20 0.006324
1058.30 0.006317
1058.40 0.00631
1058.50 0.006303
1058.60 0.006296
1058.70 0.006289
1058.80 0.006281
1058.90 0.006274
1059.00 0.006267
1059.10 0.00626
1059.20 0.006253
1059.30 0.006246
1059.40 0.006239
1059.50 0.006232
1059.60 0.006225
1059.70 0.006218
1059.80 0.006211
1059.90 0.006204
1060.00 0.006197
1060.10 0.00619
1060.20 0.006183
1060.30 0.006176
1060.40 0.006169
1060.50 0.006162
1060.60 0.006155
1060.70 0.006148
1060.80 0.006141
1060.90 0.006134
1061.00 0.006127
1061.10 0.00612
1061.20 0.006113
1061.30 0.006106
1061.40 0.006099
1061.50 0.006092
1061.60 0.006085
1061.70 0.006078
1061.80 0.006071
1061.90 0.006064
1062.00 0.006057
1062.10 0.006051
1062.20 0.006045
1062.30 0.006038
1062.40 0.006032
1062.50 0.006026
1062.60 0.00602
1062.70 0.006014
1062.80 0.006008
1062.90 0.006002
1063.00 0.005996
1063.10 0.005989
1063.20 0.005983
1063.30 0.005977
1063.40 0.005971
1063.50 0.005965
1063.60 0.005959
1063.70 0.005953
1063.80 0.005947
1063.90 0.005941
1064.00 0.005934
1064.10 0.005928
1064.20 0.005922
1064.30 0.005916
1064.40 0.00591
1064.50 0.005904
1064.60 0.005898
1064.70 0.005892
1064.80 0.005886
1064.90 0.00588
1065.00 0.005874
1065.10 0.005867
1065.20 0.005861
1065.30 0.005855
1065.40 0.005849
1065.50 0.005843
1065.60 0.005837
1065.70 0.005831
1065.80 0.005825
1065.90 0.005819
1066.00 0.005813
1066.10 0.005807
1066.20 0.005801
1066.30 0.005795
1066.40 0.005789
1066.50 0.005783
1066.60 0.005777
1066.70 0.00577
1066.80 0.005764
1066.90 0.005758
1067.00 0.005752
1067.10 0.005747
1067.20 0.005741
1067.30 0.005735
1067.40 0.00573
1067.50 0.005724
1067.60 0.005719
1067.70 0.005713
1067.80 0.005707
1067.90 0.005702
1068.00 0.005696
1068.10 0.00569
1068.20 0.005685
1068.30 0.005679
1068.40 0.005674
1068.50 0.005668
1068.60 0.005662
1068.70 0.005657
1068.80 0.005651
1068.90 0.005646
1069.00 0.00564
1069.10 0.005634
1069.20 0.005629
1069.30 0.005623
1069.40 0.005618
1069.50 0.005612
1069.60 0.005606
1069.70 0.005601
1069.80 0.005595
1069.90 0.00559
1070.00 0.005584
1070.10 0.005578
1070.20 0.005573
1070.30 0.005567
1070.40 0.005562
1070.50 0.005556
1070.60 0.005551
1070.70 0.005545
1070.80 0.005539
1070.90 0.005534
1071.00 0.005528
1071.10 0.005523
1071.20 0.005517
1071.30 0.005512
1071.40 0.005506
1071.50 0.005501
1071.60 0.005495
1071.70 0.005489
1071.80 0.005484
1071.90 0.005478
1072.00 0.005473
1072.10 0.005468
1072.20 0.005464
1072.30 0.00546
1072.40 0.005455
1072.50 0.005451
1072.60 0.005446
1072.70 0.005442
1072.80 0.005438
1072.90 0.005433
1073.00 0.005429
1073.10 0.005424
1073.20 0.00542
1073.30 0.005415
1073.40 0.005411
1073.50 0.005407
1073.60 0.005403
1073.70 0.005399
1073.80 0.005395
1073.90 0.005392
1074.00 0.005388
1074.10 0.005384
1074.20 0.00538
1074.30 0.005376
1074.40 0.005372
1074.50 0.005369
1074.60 0.005365
1074.70 0.005361
1074.80 0.005357
1074.90 0.005353
1075.00 0.00535
1075.10 0.005346
1075.20 0.005342
1075.30 0.005338
1075.40 0.005334
1075.50 0.00533
1075.60 0.005327
1075.70 0.005323
1075.80 0.005319
1075.90 0.005315
1076.00 0.005311
1076.10 0.005308
1076.20 0.005304
1076.30 0.0053
1076.40 0.005296
1076.50 0.005293
1076.60 0.005289
1076.70 0.005285
1076.80 0.005281
1076.90 0.005277
1077.00 0.005274
1077.10 0.00527
1077.20 0.005267
1077.30 0.005264
1077.40 0.00526
1077.50 0.005257
1077.60 0.005254
1077.70 0.005251
1077.80 0.005248
1077.90 0.005245
1078.00 0.005242
1078.10 0.005239
1078.20 0.005236
1078.30 0.005233
1078.40 0.00523
1078.50 0.005227
1078.60 0.005224
1078.70 0.005221
1078.80 0.005218
1078.90 0.005215
1079.00 0.005211
1079.10 0.005208
1079.20 0.005205
1079.30 0.005202
1079.40 0.005199
1079.50 0.005197
1079.60 0.005194
1079.70 0.005192
1079.80 0.00519
1079.90 0.005188
1080.00 0.005185
1080.10 0.005183
1080.20 0.005181
1080.30 0.005179
1080.40 0.005176
1080.50 0.005174
1080.60 0.005172
1080.70 0.00517
1080.80 0.005167
1080.90 0.005165
1081.00 0.005163
1081.10 0.005161
1081.20 0.005158
1081.30 0.005156
1081.40 0.005154
1081.50 0.005151
1081.60 0.005149
1081.70 0.005147
1081.80 0.005144
1081.90 0.005142
1082.00 0.00514
1082.10 0.005138
1082.20 0.005136
1082.30 0.005133
1082.40 0.005131
1082.50 0.005129
1082.60 0.005127
1082.70 0.005125
1082.80 0.005123
1082.90 0.005121
1083.00 0.005119
1083.10 0.005116
1083.20 0.005114
1083.30 0.005112
1083.40 0.00511
1083.50 0.005108
1083.60 0.005106
1083.70 0.005104
1083.80 0.005102
1083.90 0.0051
1084.00 0.005099
1084.10 0.005097
1084.20 0.005095
1084.30 0.005093
1084.40 0.005091
1084.50 0.005089
1084.60 0.005088
1084.70 0.005086
1084.80 0.005084
1084.90 0.005083
1085.00 0.005081
1085.10 0.005079
1085.20 0.005078
1085.30 0.005076
1085.40 0.005074
1085.50 0.005073
1085.60 0.005071
1085.70 0.00507
1085.80 0.005068
1085.90 0.005066
1086.00 0.005065
1086.10 0.005063
1086.20 0.005061
1086.30 0.00506
1086.40 0.005058
1086.50 0.005057
1086.60 0.005055
1086.70 0.005054
1086.80 0.005052
1086.90 0.005051
1087.00 0.00505
1087.10 0.005048
1087.20 0.005047
1087.30 0.005046
1087.40 0.005045
1087.50 0.005044
1087.60 0.005042
1087.70 0.005041
1087.80 0.00504
1087.90 0.005039
1088.00 0.005038
1088.10 0.005036
1088.20 0.005035
1088.30 0.005034
1088.40 0.005033
1088.50 0.005032
1088.60 0.005031
1088.70 0.00503
1088.80 0.005029
1088.90 0.005028
1089.00 0.005027
1089.10 0.005026
1089.20 0.005025
1089.30 0.005024
1089.40 0.005023
1089.50 0.005022
1089.60 0.005022
1089.70 0.005021
1089.80 0.00502
1089.90 0.005019
1090.00 0.005018
1090.10 0.005017
1090.20 0.005016
1090.30 0.005015
1090.40 0.005014
1090.50 0.005013
1090.60 0.005013
1090.70 0.005012
1090.80 0.005012
1090.90 0.005011
1091.00 0.00501
1091.10 0.00501
1091.20 0.005009
1091.30 0.005008
1091.40 0.005008
1091.50 0.005007
1091.60 0.005007
1091.70 0.005006
1091.80 0.005005
1091.90 0.005005
1092.00 0.005004
1092.10 0.005004
1092.20 0.005003
1092.30 0.005003
1092.40 0.005003
1092.50 0.005002
1092.60 0.005002
1092.70 0.005003
1092.80 0.005007
1092.90 0.005011
1093.00 0.005016
1093.10 0.005018
1093.20 0.005018
1093.30 0.005018
1093.40 0.005017
1093.50 0.005017
1093.60 0.005017
1093.70 0.005017
1093.80 0.005016
1093.90 0.005016
1094.00 0.005016
1094.10 0.005016
1094.20 0.005015
1094.30 0.005015
1094.40 0.005015
1094.50 0.005015
1094.60 0.005015
1094.70 0.005014
1094.80 0.005014
1094.90 0.005014
1095.00 0.005014
1095.10 0.005014
1095.20 0.005014
1095.30 0.005013
1095.40 0.005013
1095.50 0.005013
1095.60 0.005013
1095.70 0.005013
1095.80 0.005013
1095.90 0.005013
1096.00 0.005013
1096.10 0.005012
1096.20 0.005012
1096.30 0.005012
1096.40 0.005012
1096.50 0.005012
1096.60 0.005012
1096.70 0.005012
1096.80 0.005012
1096.90 0.005012
1097.00 0.005012
1097.10 0.005012
1097.20 0.005012
1097.30 0.005012
1097.40 0.005012
1097.50 0.005012
1097.60 0.005012
1097.70 0.005012
1097.80 0.005012
1097.90 0.005012
1098.00 0.005012
1098.10 0.005012
1098.20 0.005012
1098.30 0.005012
1098.40 0.005012
1098.50 0.005012
1098.60 0.005012
1098.70 0.005012
1098.80 0.005012
1098.90 0.005013
1099.00 0.005013
1099.10 0.005013
1099.20 0.005013
1099.30 0.005013
1099.40 0.005013
1099.50 0.005013
1099.60 0.005014
1099.70 0.005014
1099.80 0.005014
1099.90 0.005014
1100.00 0.005014
1100.10 0.005014
1100.20 0.005014
1100.30 0.005014
1100.40 0.005015
1100.50 0.005015
1100.60 0.005015
1100.70 0.005015
1100.80 0.005015
1100.90 0.005016
1101.00 0.005016
1101.10 0.005016
1101.20 0.005016
1101.30 0.005017
1101.40 0.005017
1101.50 0.005017
1101.60 0.005017
1101.70 0.005018
1101.80 0.005018
1101.90 0.005018
1102.00 0.005018
1102.10 0.005019
1102.20 0.005019
1102.30 0.005019
1102.40 0.00502
1102.50 0.00502
1102.60 0.005021
1102.70 0.005021
1102.80 0.005021
1102.90 0.005022
1103.00 0.005022
1103.10 0.005022
1103.20 0.005023
1103.30 0.005023
1103.40 0.005023
1103.50 0.005024
1103.60 0.005024
1103.70 0.005024
1103.80 0.005025
1103.90 0.005025
1104.00 0.005025
1104.10 0.005026
1104.20 0.005026
1104.30 0.005026
1104.40 0.005026
1104.50 0.005027
1104.60 0.005027
1104.70 0.005027
1104.80 0.005028
1104.90 0.005028
1105.00 0.005028
1105.10 0.005029
1105.20 0.005029
1105.30 0.005029
1105.40 0.00503
1105.50 0.00503
1105.60 0.005031
1105.70 0.005031
1105.80 0.005032
1105.90 0.005032
1106.00 0.005033
1106.10 0.005034
1106.20 0.005034
1106.30 0.005035
1106.40 0.005035
1106.50 0.005036
1106.60 0.005037
1106.70 0.005037
1106.80 0.005038
1106.90 0.005038
1107.00 0.005039
1107.10 0.00504
1107.20 0.00504
1107.30 0.005041
1107.40 0.005042
1107.50 0.005043
1107.60 0.005043
1107.70 0.005044
1107.80 0.005045
1107.90 0.005046
1108.00 0.005047
1108.10 0.005047
1108.20 0.005048
1108.30 0.005049
1108.40 0.00505
1108.50 0.005051
1108.60 0.005051
1108.70 0.005052
1108.80 0.005053
1108.90 0.005054
1109.00 0.005055
1109.10 0.005055
1109.20 0.005056
1109.30 0.005057
1109.40 0.005058
1109.50 0.005059
1109.60 0.00506
1109.70 0.005061
1109.80 0.005062
1109.90 0.005063
1110.00 0.005064
1110.10 0.005065
1110.20 0.005066
1110.30 0.005067
1110.40 0.005068
1110.50 0.005069
1110.60 0.00507
1110.70 0.005071
1110.80 0.005072
1110.90 0.005073
1111.00 0.005074
1111.10 0.005075
1111.20 0.005076
1111.30 0.005077
1111.40 0.005078
1111.50 0.005079
1111.60 0.00508
1111.70 0.005081
1111.80 0.005082
1111.90 0.005083
1112.00 0.005084
1112.10 0.005085
1112.20 0.005086
1112.30 0.005087
1112.40 0.005088
1112.50 0.00509
1112.60 0.005091
1112.70 0.005092
1112.80 0.005093
1112.90 0.005094
1113.00 0.005095
1113.10 0.005097
1113.20 0.005098
1113.30 0.005099
1113.40 0.0051
1113.50 0.005101
1113.60 0.005103
1113.70 0.005104
1113.80 0.005105
1113.90 0.005107
1114.00 0.005108
1114.10 0.00511
1114.20 0.005111
1114.30 0.005112
1114.40 0.005114
1114.50 0.005115
1114.60 0.005117
1114.70 0.005118
1114.80 0.005119
1114.90 0.005121
1115.00 0.005122
1115.10 0.005124
1115.20 0.005125
1115.30 0.005126
1115.40 0.005128
1115.50 0.005129
1115.60 0.00513
1115.70 0.005132
1115.80 0.005133
1115.90 0.005135
1116.00 0.005136
1116.10 0.005137
1116.20 0.005139
1116.30 0.00514
1116.40 0.005142
1116.50 0.005143
1116.60 0.005144
1116.70 0.005146
1116.80 0.005147
1116.90 0.005148
1117.00 0.00515
1117.10 0.005151
1117.20 0.005153
1117.30 0.005155
1117.40 0.005156
1117.50 0.005158
1117.60 0.00516
1117.70 0.005161
1117.80 0.005163
1117.90 0.005165
1118.00 0.005166
1118.10 0.005168
1118.20 0.005169
1118.30 0.005171
1118.40 0.005173
1118.50 0.005174
1118.60 0.005176
1118.70 0.005178
1118.80 0.005179
1118.90 0.005181
1119.00 0.005183
1119.10 0.005184
1119.20 0.005186
1119.30 0.005187
1119.40 0.005189
1119.50 0.005191
1119.60 0.005192
1119.70 0.005194
1119.80 0.005196
1119.90 0.005197
1120.00 0.005199
1120.10 0.0052
1120.20 0.005202
1120.30 0.005204
1120.40 0.005205
1120.50 0.005207
1120.60 0.005209
1120.70 0.00521
1120.80 0.005212
1120.90 0.005213
1121.00 0.005215
1121.10 0.005217
1121.20 0.005218
1121.30 0.00522
1121.40 0.005222
1121.50 0.005223
1121.60 0.005225
1121.70 0.005226
1121.80 0.005228
1121.90 0.00523
1122.00 0.005231
1122.10 0.005234
1122.20 0.005237
1122.30 0.00524
1122.40 0.005242
1122.50 0.005245
1122.60 0.005248
1122.70 0.005251
1122.80 0.005253
1122.90 0.005256
1123.00 0.005259
1123.10 0.005261
1123.20 0.005264
1123.30 0.005267
1123.40 0.00527
1123.50 0.005272
1123.60 0.005275
1123.70 0.005278
1123.80 0.005281
1123.90 0.005283
1124.00 0.005286
1124.10 0.005289
1124.20 0.005292
1124.30 0.005294
1124.40 0.005297
1124.50 0.0053
1124.60 0.005303
1124.70 0.005305
1124.80 0.005308
1124.90 0.005311
1125.00 0.005313
1125.10 0.005316
1125.20 0.005319
1125.30 0.005322
1125.40 0.005324
1125.50 0.005327
1125.60 0.00533
1125.70 0.005332
1125.80 0.005335
1125.90 0.005338
1126.00 0.005341
1126.10 0.005343
1126.20 0.005346
1126.30 0.005349
1126.40 0.005351
1126.50 0.005354
1126.60 0.005357
1126.70 0.00536
1126.80 0.005362
1126.90 0.005365
1127.00 0.005368
1127.10 0.005372
1127.20 0.005375
1127.30 0.005379
1127.40 0.005383
1127.50 0.005387
1127.60 0.005391
1127.70 0.005395
1127.80 0.005399
1127.90 0.005403
1128.00 0.005407
1128.10 0.00541
1128.20 0.005414
1128.30 0.005418
1128.40 0.005422
1128.50 0.005426
1128.60 0.00543
1128.70 0.005434
1128.80 0.005438
1128.90 0.005441
1129.00 0.005445
1129.10 0.005449
1129.20 0.005453
1129.30 0.005457
1129.40 0.005461
1129.50 0.005465
1129.60 0.005468
1129.70 0.005472
1129.80 0.005476
1129.90 0.00548
1130.00 0.005484
1130.10 0.005488
1130.20 0.005492
1130.30 0.005495
1130.40 0.005499
1130.50 0.005503
1130.60 0.005507
1130.70 0.005511
1130.80 0.005515
1130.90 0.005519
1131.00 0.005522
1131.10 0.005526
1131.20 0.00553
1131.30 0.005534
1131.40 0.005538
1131.50 0.005542
1131.60 0.005545
1131.70 0.005549
1131.80 0.005553
1131.90 0.005557
1132.00 0.005561
1132.10 0.005565
1132.20 0.005569
1132.30 0.005573
1132.40 0.005577
1132.50 0.005581
1132.60 0.005585
1132.70 0.00559
1132.80 0.005594
1132.90 0.005598
1133.00 0.005602
1133.10 0.005606
1133.20 0.00561
1133.30 0.005614
1133.40 0.005618
1133.50 0.005623
1133.60 0.005627
1133.70 0.005631
1133.80 0.005635
1133.90 0.005639
1134.00 0.005643
1134.10 0.005647
1134.20 0.005651
1134.30 0.005655
1134.40 0.00566
1134.50 0.005664
1134.60 0.005668
1134.70 0.005672
1134.80 0.005676
1134.90 0.00568
1135.00 0.005684
1135.10 0.005688
1135.20 0.005692
1135.30 0.005696
1135.40 0.005701
1135.50 0.005705
1135.60 0.005709
1135.70 0.005713
1135.80 0.005717
1135.90 0.005721
1136.00 0.005725
1136.10 0.005729
1136.20 0.005733
1136.30 0.005737
1136.40 0.005741
1136.50 0.005745
1136.60 0.005749
1136.70 0.005754
1136.80 0.005758
1136.90 0.005762
1137.00 0.005766
1137.10 0.00577
1137.20 0.005775
1137.30 0.00578
1137.40 0.005784
1137.50 0.005789
1137.60 0.005794
1137.70 0.005798
1137.80 0.005803
1137.90 0.005807
1138.00 0.005812
1138.10 0.005817
1138.20 0.005821
1138.30 0.005826
1138.40 0.005831
1138.50 0.005835
1138.60 0.00584
1138.70 0.005844
1138.80 0.005849
1138.90 0.005854
1139.00 0.005858
1139.10 0.005863
1139.20 0.005868
1139.30 0.005872
1139.40 0.005877
1139.50 0.005881
1139.60 0.005886
1139.70 0.005891
1139.80 0.005895
1139.90 0.0059
1140.00 0.005904
1140.10 0.005909
1140.20 0.005914
1140.30 0.005918
1140.40 0.005923
1140.50 0.005927
1140.60 0.005932
1140.70 0.005937
1140.80 0.005941
1140.90 0.005946
1141.00 0.00595
1141.10 0.005955
1141.20 0.005959
1141.30 0.005964
1141.40 0.005969
1141.50 0.005973
1141.60 0.005978
1141.70 0.005982
1141.80 0.005987
1141.90 0.005991
1142.00 0.005996
1142.10 0.006001
1142.20 0.006007
1142.30 0.006012
1142.40 0.006018
1142.50 0.006023
1142.60 0.006029
1142.70 0.006034
1142.80 0.00604
1142.90 0.006045
1143.00 0.006051
1143.10 0.006056
1143.20 0.006062
1143.30 0.006067
1143.40 0.006072
1143.50 0.006078
1143.60 0.006083
1143.70 0.006089
1143.80 0.006094
1143.90 0.0061
1144.00 0.006105
1144.10 0.006111
1144.20 0.006116
1144.30 0.006121
1144.40 0.006127
1144.50 0.006132
1144.60 0.006138
1144.70 0.006143
1144.80 0.006148
1144.90 0.006154
1145.00 0.006159
1145.10 0.006165
1145.20 0.00617
1145.30 0.006176
1145.40 0.006181
1145.50 0.006186
1145.60 0.006192
1145.70 0.006197
1145.80 0.006203
1145.90 0.006208
1146.00 0.006213
1146.10 0.006219
1146.20 0.006224
1146.30 0.00623
1146.40 0.006235
1146.50 0.00624
1146.60 0.006246
1146.70 0.006251
1146.80 0.006256
1146.90 0.006262
1147.00 0.006267
1147.10 0.006272
1147.20 0.006277
1147.30 0.006282
1147.40 0.006287
1147.50 0.006292
1147.60 0.006297
1147.70 0.006302
1147.80 0.006307
1147.90 0.006312
1148.00 0.006317
1148.10 0.006322
1148.20 0.006327
1148.30 0.006332
1148.40 0.006337
1148.50 0.006342
1148.60 0.006346
1148.70 0.006351
1148.80 0.006356
1148.90 0.006361
1149.00 0.006366
1149.10 0.006371
1149.20 0.006376
1149.30 0.006381
1149.40 0.006386
1149.50 0.006391
1149.60 0.006396
1149.70 0.006401
1149.80 0.006406
1149.90 0.006411
1150.00 0.006415
1150.10 0.00642
1150.20 0.006425
1150.30 0.00643
1150.40 0.006435
1150.50 0.00644
1150.60 0.006445
1150.70 0.00645
1150.80 0.006455
1150.90 0.00646
1151.00 0.006464
1151.10 0.006469
1151.20 0.006474
1151.30 0.006479
1151.40 0.006484
1151.50 0.006489
1151.60 0.006494
1151.70 0.006499
1151.80 0.006504
1151.90 0.006508
1152.00 0.006513
1152.10 0.006519
1152.20 0.006524
1152.30 0.006529
1152.40 0.006535
1152.50 0.00654
1152.60 0.006545
1152.70 0.00655
1152.80 0.006556
1152.90 0.006561
1153.00 0.006566
1153.10 0.006572
1153.20 0.006577
1153.30 0.006582
1153.40 0.006587
1153.50 0.006593
1153.60 0.006598
1153.70 0.006603
1153.80 0.006608
1153.90 0.006614
1154.00 0.006619
1154.10 0.006624
1154.20 0.00663
1154.30 0.006635
1154.40 0.00664
1154.50 0.006645
1154.60 0.006651
1154.70 0.006656
1154.80 0.006661
1154.90 0.006666
1155.00 0.006672
1155.10 0.006677
1155.20 0.006682
1155.30 0.006687
1155.40 0.006693
1155.50 0.006698
1155.60 0.006703
1155.70 0.006708
1155.80 0.006713
1155.90 0.006719
1156.00 0.006724
1156.10 0.006729
1156.20 0.006734
1156.30 0.00674
1156.40 0.006745
1156.50 0.00675
1156.60 0.006755
1156.70 0.00676
1156.80 0.006766
1156.90 0.006771
1157.00 0.006776
1157.10 0.006781
1157.20 0.006785
1157.30 0.00679
1157.40 0.006794
1157.50 0.006799
1157.60 0.006803
1157.70 0.006808
1157.80 0.006813
1157.90 0.006817
1158.00 0.006822
1158.10 0.006826
1158.20 0.006831
1158.30 0.006835
1158.40 0.00684
1158.50 0.006844
1158.60 0.006849
1158.70 0.006853
1158.80 0.006858
1158.90 0.006862
1159.00 0.006867
1159.10 0.006871
1159.20 0.006876
1159.30 0.006881
1159.40 0.006885
1159.50 0.00689
1159.60 0.006894
1159.70 0.006899
1159.80 0.006903
1159.90 0.006908
1160.00 0.006912
1160.10 0.006917
1160.20 0.006921
1160.30 0.006926
1160.40 0.00693
1160.50 0.006935
1160.60 0.006939
1160.70 0.006944
1160.80 0.006948
1160.90 0.006953
1161.00 0.006957
1161.10 0.006962
1161.20 0.006966
1161.30 0.006971
1161.40 0.006975
1161.50 0.00698
1161.60 0.006984
1161.70 0.006989
1161.80 0.006993
1161.90 0.006997
1162.00 0.007002
1162.10 0.007006
1162.20 0.00701
1162.30 0.007014
1162.40 0.007018
1162.50 0.007022
1162.60 0.007026
1162.70 0.00703
1162.80 0.007034
1162.90 0.007038
1163.00 0.007042
1163.10 0.007046
1163.20 0.00705
1163.30 0.007054
1163.40 0.007058
1163.50 0.007062
1163.60 0.007066
1163.70 0.00707
1163.80 0.007074
1163.90 0.007078
1164.00 0.007082
1164.10 0.007086
1164.20 0.00709
1164.30 0.007094
1164.40 0.007098
1164.50 0.007102
1164.60 0.007106
1164.70 0.00711
1164.80 0.007114
1164.90 0.007118
1165.00 0.007122
1165.10 0.007126
1165.20 0.00713
1165.30 0.007134
1165.40 0.007138
1165.50 0.007142
1165.60 0.007146
1165.70 0.00715
1165.80 0.007154
1165.90 0.007158
1166.00 0.007162
1166.10 0.007166
1166.20 0.00717
1166.30 0.007174
1166.40 0.007178
1166.50 0.007182
1166.60 0.007186
1166.70 0.00719
1166.80 0.007194
1166.90 0.007198
1167.00 0.007202
1167.10 0.007206
1167.20 0.00721
1167.30 0.007214
1167.40 0.007218
1167.50 0.007222
1167.60 0.007226
1167.70 0.00723
1167.80 0.007234
1167.90 0.007238
1168.00 0.007242
1168.10 0.007246
1168.20 0.007251
1168.30 0.007255
1168.40 0.007259
1168.50 0.007263
1168.60 0.007267
1168.70 0.007271
1168.80 0.007275
1168.90 0.007279
1169.00 0.007283
1169.10 0.007287
1169.20 0.007291
1169.30 0.007295
1169.40 0.007299
1169.50 0.007303
1169.60 0.007307
1169.70 0.007311
1169.80 0.007315
1169.90 0.007319
1170.00 0.007323
1170.10 0.007327
1170.20 0.007331
1170.30 0.007336
1170.40 0.00734
1170.50 0.007344
1170.60 0.007348
1170.70 0.007352
1170.80 0.007356
1170.90 0.00736
1171.00 0.007364
1171.10 0.007368
1171.20 0.007372
1171.30 0.007376
1171.40 0.00738
1171.50 0.007384
1171.60 0.007388
1171.70 0.007392
1171.80 0.007396
1171.90 0.0074
1172.00 0.007404
1172.10 0.007406
1172.20 0.007408
1172.30 0.00741
1172.40 0.007413
1172.50 0.007415
1172.60 0.007417
1172.70 0.007419
1172.80 0.007421
1172.90 0.007424
1173.00 0.007426
1173.10 0.007428
1173.20 0.00743
1173.30 0.007432
1173.40 0.007435
1173.50 0.007437
1173.60 0.007439
1173.70 0.007441
1173.80 0.007443
1173.90 0.007446
1174.00 0.007448
1174.10 0.00745
1174.20 0.007452
1174.30 0.007454
1174.40 0.007457
1174.50 0.007459
1174.60 0.007461
1174.70 0.007463
1174.80 0.007465
1174.90 0.007467
1175.00 0.00747
1175.10 0.007472
1175.20 0.007474
1175.30 0.007476
1175.40 0.007478
1175.50 0.00748
1175.60 0.007483
1175.70 0.007485
1175.80 0.007487
1175.90 0.007489
1176.00 0.007491
1176.10 0.007494
1176.20 0.007496
1176.30 0.007498
1176.40 0.0075
1176.50 0.007502
1176.60 0.007504
1176.70 0.007507
1176.80 0.007509
1176.90 0.007511
1177.00 0.007513
1177.10 0.007514
1177.20 0.007515
1177.30 0.007516
1177.40 0.007517
1177.50 0.007517
1177.60 0.007518
1177.70 0.007519
1177.80 0.00752
1177.90 0.007521
1178.00 0.007522
1178.10 0.007523
1178.20 0.007524
1178.30 0.007525
1178.40 0.007525
1178.50 0.007526
1178.60 0.007527
1178.70 0.007528
1178.80 0.007529
1178.90 0.00753
1179.00 0.007531
1179.10 0.007532
1179.20 0.007533
1179.30 0.007533
1179.40 0.007534
1179.50 0.007535
1179.60 0.007536
1179.70 0.007537
1179.80 0.007538
1179.90 0.007539
1180.00 0.00754
1180.10 0.007541
1180.20 0.007541
1180.30 0.007542
1180.40 0.007543
1180.50 0.007544
1180.60 0.007545
1180.70 0.007546
1180.80 0.007547
1180.90 0.007548
1181.00 0.007548
1181.10 0.007549
1181.20 0.00755
1181.30 0.007551
1181.40 0.007552
1181.50 0.007553
1181.60 0.007554
1181.70 0.007555
1181.80 0.007555
1181.90 0.007556
1182.00 0.007557
1182.10 0.007556
1182.20 0.007555
1182.30 0.007554
1182.40 0.007553
1182.50 0.007552
1182.60 0.007551
1182.70 0.007549
1182.80 0.007548
1182.90 0.007547
1183.00 0.007546
1183.10 0.007545
1183.20 0.007544
1183.30 0.007543
1183.40 0.007542
1183.50 0.007541
1183.60 0.007539
1183.70 0.007538
1183.80 0.007537
1183.90 0.007536
1184.00 0.007535
1184.10 0.007534
1184.20 0.007533
1184.30 0.007532
1184.40 0.007531
1184.50 0.00753
1184.60 0.007528
1184.70 0.007527
1184.80 0.007526
1184.90 0.007525
1185.00 0.007524
1185.10 0.007523
1185.20 0.007522
1185.30 0.007521
1185.40 0.00752
1185.50 0.007518
1185.60 0.007517
1185.70 0.007516
1185.80 0.007515
1185.90 0.007514
1186.00 0.007513
1186.10 0.007512
1186.20 0.007511
1186.30 0.00751
1186.40 0.007509
1186.50 0.007507
1186.60 0.007506
1186.70 0.007505
1186.80 0.007504
1186.90 0.007503
1187.00 0.007502
1187.10 0.007502
1187.20 0.007501
1187.30 0.007501
1187.40 0.0075
1187.50 0.0075
1187.60 0.007499
1187.70 0.007499
1187.80 0.007498
1187.90 0.007498
1188.00 0.007497
1188.10 0.007497
1188.20 0.007496
1188.30 0.007496
1188.40 0.007495
1188.50 0.007495
1188.60 0.007494
1188.70 0.007494
1188.80 0.007493
1188.90 0.007493
1189.00 0.007492
1189.10 0.007492
1189.20 0.007491
1189.30 0.007491
1189.40 0.00749
1189.50 0.00749
1189.60 0.007489
1189.70 0.007489
1189.80 0.007488
1189.90 0.007488
1190.00 0.007487
1190.10 0.007487
1190.20 0.007486
1190.30 0.007486
1190.40 0.007485
1190.50 0.007485
1190.60 0.007485
1190.70 0.007484
1190.80 0.007484
1190.90 0.007483
1191.00 0.007483
1191.10 0.007482
1191.20 0.007482
1191.30 0.007481
1191.40 0.007481
1191.50 0.00748
1191.60 0.00748
1191.70 0.007479
1191.80 0.007479
1191.90 0.007478
1192.00 0.007478
1192.10 0.007477
1192.20 0.007476
1192.30 0.007475
1192.40 0.007475
1192.50 0.007474
1192.60 0.007473
1192.70 0.007472
1192.80 0.007471
1192.90 0.007471
1193.00 0.00747
1193.10 0.007469
1193.20 0.007468
1193.30 0.007468
1193.40 0.007467
1193.50 0.007466
1193.60 0.007465
1193.70 0.007465
1193.80 0.007464
1193.90 0.007463
1194.00 0.007462
1194.10 0.007461
1194.20 0.007461
1194.30 0.00746
1194.40 0.007459
1194.50 0.007458
1194.60 0.007458
1194.70 0.007457
1194.80 0.007456
1194.90 0.007455
1195.00 0.007454
1195.10 0.007454
1195.20 0.007453
1195.30 0.007452
1195.40 0.007451
1195.50 0.007451
1195.60 0.00745
1195.70 0.007449
1195.80 0.007448
1195.90 0.007447
1196.00 0.007447
1196.10 0.007446
1196.20 0.007445
1196.30 0.007444
1196.40 0.007444
1196.50 0.007443
1196.60 0.007442
1196.70 0.007441
1196.80 0.007441
1196.90 0.00744
1197.00 0.007439
1197.10 0.007437
1197.20 0.007435
1197.30 0.007433
1197.40 0.007431
1197.50 0.007429
1197.60 0.007427
1197.70 0.007425
1197.80 0.007423
1197.90 0.007421
1198.00 0.007419
1198.10 0.007417
1198.20 0.007415
1198.30 0.007413
1198.40 0.007411
1198.50 0.007409
1198.60 0.007408
1198.70 0.007406
1198.80 0.007404
1198.90 0.007402
1199.00 0.0074
1199.10 0.007398
1199.20 0.007396
1199.30 0.007394
1199.40 0.007392
1199.50 0.00739
1199.60 0.007388
1199.70 0.007386
1199.80 0.007384
1199.90 0.007382
1200.00 0
