# Version 2.1 - nm, norm@500 to 1, cut digits, bergeron_14500_90.dat_14500
# Wavelength(nm)  Flambda(ergs/cm^s/s/nm)
300.00 2.547
300.10 2.545
300.20 2.543
300.30 2.541
300.40 2.539
300.50 2.537
300.60 2.535
300.70 2.534
300.80 2.532
300.90 2.53
301.00 2.528
301.10 2.526
301.20 2.524
301.30 2.522
301.40 2.52
301.50 2.518
301.60 2.516
301.70 2.514
301.80 2.513
301.90 2.511
302.00 2.509
302.10 2.507
302.20 2.505
302.30 2.503
302.40 2.501
302.50 2.499
302.60 2.498
302.70 2.496
302.80 2.494
302.90 2.492
303.00 2.49
303.10 2.488
303.20 2.486
303.30 2.484
303.40 2.483
303.50 2.481
303.60 2.479
303.70 2.477
303.80 2.475
303.90 2.473
304.00 2.471
304.10 2.47
304.20 2.468
304.30 2.466
304.40 2.464
304.50 2.462
304.60 2.46
304.70 2.459
304.80 2.457
304.90 2.455
305.00 2.453
305.10 2.451
305.20 2.449
305.30 2.448
305.40 2.446
305.50 2.444
305.60 2.442
305.70 2.44
305.80 2.439
305.90 2.437
306.00 2.435
306.10 2.433
306.20 2.431
306.30 2.429
306.40 2.428
306.50 2.426
306.60 2.424
306.70 2.422
306.80 2.42
306.90 2.419
307.00 2.417
307.10 2.415
307.20 2.413
307.30 2.411
307.40 2.41
307.50 2.408
307.60 2.406
307.70 2.404
307.80 2.403
307.90 2.401
308.00 2.399
308.10 2.397
308.20 2.395
308.30 2.394
308.40 2.392
308.50 2.39
308.60 2.388
308.70 2.387
308.80 2.385
308.90 2.383
309.00 2.381
309.10 2.38
309.20 2.378
309.30 2.376
309.40 2.374
309.50 2.373
309.60 2.371
309.70 2.369
309.80 2.367
309.90 2.366
310.00 2.364
310.10 2.362
310.20 2.36
310.30 2.359
310.40 2.357
310.50 2.355
310.60 2.353
310.70 2.352
310.80 2.35
310.90 2.348
311.00 2.346
311.10 2.345
311.20 2.343
311.30 2.341
311.40 2.339
311.50 2.338
311.60 2.336
311.70 2.334
311.80 2.333
311.90 2.331
312.00 2.329
312.10 2.327
312.20 2.326
312.30 2.324
312.40 2.322
312.50 2.321
312.60 2.319
312.70 2.317
312.80 2.315
312.90 2.314
313.00 2.312
313.10 2.31
313.20 2.309
313.30 2.307
313.40 2.305
313.50 2.304
313.60 2.302
313.70 2.3
313.80 2.299
313.90 2.297
314.00 2.295
314.10 2.293
314.20 2.292
314.30 2.29
314.40 2.288
314.50 2.287
314.60 2.285
314.70 2.283
314.80 2.282
314.90 2.28
315.00 2.278
315.10 2.277
315.20 2.275
315.30 2.273
315.40 2.272
315.50 2.27
315.60 2.268
315.70 2.267
315.80 2.265
315.90 2.263
316.00 2.262
316.10 2.26
316.20 2.258
316.30 2.257
316.40 2.255
316.50 2.254
316.60 2.252
316.70 2.25
316.80 2.249
316.90 2.247
317.00 2.245
317.10 2.244
317.20 2.242
317.30 2.24
317.40 2.239
317.50 2.237
317.60 2.235
317.70 2.234
317.80 2.232
317.90 2.231
318.00 2.229
318.10 2.227
318.20 2.226
318.30 2.224
318.40 2.223
318.50 2.221
318.60 2.219
318.70 2.218
318.80 2.216
318.90 2.214
319.00 2.213
319.10 2.211
319.20 2.21
319.30 2.208
319.40 2.206
319.50 2.205
319.60 2.203
319.70 2.202
319.80 2.2
319.90 2.198
320.00 2.197
320.10 2.195
320.20 2.194
320.30 2.192
320.40 2.19
320.50 2.189
320.60 2.187
320.70 2.186
320.80 2.184
320.90 2.182
321.00 2.181
321.10 2.179
321.20 2.178
321.30 2.176
321.40 2.175
321.50 2.173
321.60 2.171
321.70 2.17
321.80 2.168
321.90 2.167
322.00 2.165
322.10 2.164
322.20 2.162
322.30 2.16
322.40 2.159
322.50 2.157
322.60 2.156
322.70 2.154
322.80 2.153
322.90 2.151
323.00 2.15
323.10 2.148
323.20 2.146
323.30 2.145
323.40 2.143
323.50 2.142
323.60 2.14
323.70 2.139
323.80 2.137
323.90 2.136
324.00 2.134
324.10 2.133
324.20 2.131
324.30 2.13
324.40 2.128
324.50 2.126
324.60 2.125
324.70 2.123
324.80 2.122
324.90 2.12
325.00 2.119
325.10 2.117
325.20 2.116
325.30 2.114
325.40 2.113
325.50 2.111
325.60 2.11
325.70 2.108
325.80 2.107
325.90 2.105
326.00 2.104
326.10 2.102
326.20 2.101
326.30 2.099
326.40 2.098
326.50 2.096
326.60 2.095
326.70 2.093
326.80 2.092
326.90 2.09
327.00 2.089
327.10 2.087
327.20 2.086
327.30 2.084
327.40 2.083
327.50 2.081
327.60 2.08
327.70 2.078
327.80 2.077
327.90 2.075
328.00 2.074
328.10 2.072
328.20 2.071
328.30 2.069
328.40 2.068
328.50 2.066
328.60 2.065
328.70 2.063
328.80 2.062
328.90 2.06
329.00 2.059
329.10 2.057
329.20 2.056
329.30 2.054
329.40 2.053
329.50 2.052
329.60 2.05
329.70 2.049
329.80 2.047
329.90 2.046
330.00 2.044
330.10 2.043
330.20 2.041
330.30 2.04
330.40 2.038
330.50 2.037
330.60 2.036
330.70 2.034
330.80 2.033
330.90 2.031
331.00 2.03
331.10 2.028
331.20 2.027
331.30 2.025
331.40 2.024
331.50 2.023
331.60 2.021
331.70 2.02
331.80 2.018
331.90 2.017
332.00 2.015
332.10 2.014
332.20 2.012
332.30 2.011
332.40 2.01
332.50 2.008
332.60 2.007
332.70 2.005
332.80 2.004
332.90 2.002
333.00 2.001
333.10 2
333.20 1.998
333.30 1.997
333.40 1.995
333.50 1.994
333.60 1.993
333.70 1.991
333.80 1.99
333.90 1.988
334.00 1.987
334.10 1.986
334.20 1.984
334.30 1.983
334.40 1.981
334.50 1.98
334.60 1.978
334.70 1.977
334.80 1.976
334.90 1.974
335.00 1.973
335.10 1.972
335.20 1.97
335.30 1.969
335.40 1.967
335.50 1.966
335.60 1.965
335.70 1.963
335.80 1.962
335.90 1.96
336.00 1.959
336.10 1.958
336.20 1.956
336.30 1.955
336.40 1.953
336.50 1.952
336.60 1.951
336.70 1.949
336.80 1.948
336.90 1.947
337.00 1.945
337.10 1.944
337.20 1.942
337.30 1.941
337.40 1.94
337.50 1.938
337.60 1.937
337.70 1.936
337.80 1.934
337.90 1.933
338.00 1.932
338.10 1.93
338.20 1.929
338.30 1.927
338.40 1.926
338.50 1.925
338.60 1.923
338.70 1.922
338.80 1.921
338.90 1.919
339.00 1.918
339.10 1.917
339.20 1.915
339.30 1.914
339.40 1.913
339.50 1.911
339.60 1.91
339.70 1.909
339.80 1.907
339.90 1.906
340.00 1.905
340.10 1.903
340.20 1.902
340.30 1.901
340.40 1.899
340.50 1.898
340.60 1.897
340.70 1.895
340.80 1.894
340.90 1.893
341.00 1.891
341.10 1.89
341.20 1.889
341.30 1.887
341.40 1.886
341.50 1.885
341.60 1.883
341.70 1.882
341.80 1.881
341.90 1.879
342.00 1.878
342.10 1.877
342.20 1.875
342.30 1.874
342.40 1.873
342.50 1.872
342.60 1.87
342.70 1.869
342.80 1.868
342.90 1.866
343.00 1.865
343.10 1.864
343.20 1.862
343.30 1.861
343.40 1.86
343.50 1.859
343.60 1.857
343.70 1.856
343.80 1.855
343.90 1.853
344.00 1.852
344.10 1.851
344.20 1.85
344.30 1.848
344.40 1.847
344.50 1.846
344.60 1.844
344.70 1.843
344.80 1.842
344.90 1.841
345.00 1.839
345.10 1.838
345.20 1.837
345.30 1.835
345.40 1.834
345.50 1.833
345.60 1.832
345.70 1.83
345.80 1.829
345.90 1.828
346.00 1.826
346.10 1.825
346.20 1.824
346.30 1.823
346.40 1.821
346.50 1.82
346.60 1.819
346.70 1.818
346.80 1.816
346.90 1.815
347.00 1.814
347.10 1.813
347.20 1.811
347.30 1.81
347.40 1.809
347.50 1.808
347.60 1.806
347.70 1.805
347.80 1.804
347.90 1.803
348.00 1.801
348.10 1.8
348.20 1.799
348.30 1.798
348.40 1.796
348.50 1.795
348.60 1.794
348.70 1.793
348.80 1.791
348.90 1.79
349.00 1.789
349.10 1.788
349.20 1.786
349.30 1.785
349.40 1.784
349.50 1.783
349.60 1.781
349.70 1.78
349.80 1.779
349.90 1.778
350.00 1.777
350.10 1.775
350.20 1.774
350.30 1.773
350.40 1.772
350.50 1.77
350.60 1.769
350.70 1.768
350.80 1.767
350.90 1.766
351.00 1.764
351.10 1.763
351.20 1.762
351.30 1.761
351.40 1.76
351.50 1.758
351.60 1.757
351.70 1.756
351.80 1.755
351.90 1.753
352.00 1.752
352.10 1.751
352.20 1.75
352.30 1.749
352.40 1.747
352.50 1.746
352.60 1.745
352.70 1.744
352.80 1.743
352.90 1.741
353.00 1.74
353.10 1.739
353.20 1.738
353.30 1.737
353.40 1.735
353.50 1.734
353.60 1.733
353.70 1.732
353.80 1.731
353.90 1.73
354.00 1.728
354.10 1.727
354.20 1.726
354.30 1.725
354.40 1.724
354.50 1.722
354.60 1.721
354.70 1.72
354.80 1.719
354.90 1.718
355.00 1.717
355.10 1.715
355.20 1.714
355.30 1.713
355.40 1.712
355.50 1.711
355.60 1.71
355.70 1.708
355.80 1.707
355.90 1.706
356.00 1.705
356.10 1.704
356.20 1.703
356.30 1.701
356.40 1.7
356.50 1.699
356.60 1.698
356.70 1.697
356.80 1.696
356.90 1.694
357.00 1.693
357.10 1.692
357.20 1.691
357.30 1.69
357.40 1.689
357.50 1.687
357.60 1.686
357.70 1.685
357.80 1.684
357.90 1.683
358.00 1.682
358.10 1.681
358.20 1.679
358.30 1.678
358.40 1.677
358.50 1.676
358.60 1.675
358.70 1.674
358.80 1.673
358.90 1.671
359.00 1.67
359.10 1.669
359.20 1.668
359.30 1.667
359.40 1.666
359.50 1.665
359.60 1.664
359.70 1.662
359.80 1.661
359.90 1.66
360.00 1.659
360.10 1.658
360.20 1.657
360.30 1.656
360.40 1.655
360.50 1.653
360.60 1.652
360.70 1.651
360.80 1.65
360.90 1.649
361.00 1.648
361.10 1.647
361.20 1.646
361.30 1.644
361.40 1.643
361.50 1.642
361.60 1.641
361.70 1.64
361.80 1.639
361.90 1.638
362.00 1.637
362.10 1.636
362.20 1.634
362.30 1.633
362.40 1.632
362.50 1.631
362.60 1.63
362.70 1.629
362.80 1.628
362.90 1.627
363.00 1.626
363.10 1.624
363.20 1.623
363.30 1.622
363.40 1.621
363.50 1.619
363.60 1.618
363.70 1.617
363.80 1.615
363.90 1.614
364.00 1.613
364.10 1.612
364.20 1.61
364.30 1.609
364.40 1.608
364.50 1.607
364.60 1.605
364.70 1.604
364.80 1.603
364.90 1.601
365.00 1.6
365.10 1.599
365.20 1.597
365.30 1.596
365.40 1.595
365.50 1.593
365.60 1.592
365.70 1.591
365.80 1.59
365.90 1.588
366.00 1.587
366.10 1.586
366.20 1.585
366.30 1.584
366.40 1.582
366.50 1.581
366.60 1.58
366.70 1.579
366.80 1.578
366.90 1.577
367.00 1.576
367.10 1.575
367.20 1.573
367.30 1.572
367.40 1.571
367.50 1.57
367.60 1.569
367.70 1.568
367.80 1.567
367.90 1.566
368.00 1.564
368.10 1.563
368.20 1.562
368.30 1.561
368.40 1.56
368.50 1.559
368.60 1.558
368.70 1.557
368.80 1.556
368.90 1.554
369.00 1.553
369.10 1.552
369.20 1.551
369.30 1.55
369.40 1.549
369.50 1.548
369.60 1.547
369.70 1.546
369.80 1.544
369.90 1.543
370.00 1.542
370.10 1.541
370.20 1.54
370.30 1.539
370.40 1.538
370.50 1.537
370.60 1.536
370.70 1.535
370.80 1.534
370.90 1.533
371.00 1.532
371.10 1.531
371.20 1.53
371.30 1.529
371.40 1.528
371.50 1.527
371.60 1.526
371.70 1.525
371.80 1.524
371.90 1.523
372.00 1.522
372.10 1.521
372.20 1.52
372.30 1.519
372.40 1.519
372.50 1.518
372.60 1.517
372.70 1.516
372.80 1.515
372.90 1.515
373.00 1.514
373.10 1.513
373.20 1.512
373.30 1.511
373.40 1.51
373.50 1.51
373.60 1.509
373.70 1.508
373.80 1.507
373.90 1.506
374.00 1.506
374.10 1.505
374.20 1.504
374.30 1.504
374.40 1.503
374.50 1.503
374.60 1.502
374.70 1.501
374.80 1.501
374.90 1.5
375.00 1.499
375.10 1.499
375.20 1.498
375.30 1.498
375.40 1.497
375.50 1.496
375.60 1.496
375.70 1.495
375.80 1.494
375.90 1.494
376.00 1.493
376.10 1.493
376.20 1.492
376.30 1.491
376.40 1.491
376.50 1.49
376.60 1.49
376.70 1.489
376.80 1.488
376.90 1.488
377.00 1.487
377.10 1.486
377.20 1.485
377.30 1.485
377.40 1.484
377.50 1.483
377.60 1.482
377.70 1.481
377.80 1.48
377.90 1.479
378.00 1.479
378.10 1.477
378.20 1.475
378.30 1.473
378.40 1.472
378.50 1.47
378.60 1.468
378.70 1.467
378.80 1.465
378.90 1.463
379.00 1.462
379.10 1.461
379.20 1.459
379.30 1.458
379.40 1.457
379.50 1.456
379.60 1.455
379.70 1.453
379.80 1.452
379.90 1.451
380.00 1.45
380.10 1.45
380.20 1.451
380.30 1.452
380.40 1.452
380.50 1.453
380.60 1.453
380.70 1.454
380.80 1.455
380.90 1.455
381.00 1.456
381.10 1.455
381.20 1.455
381.30 1.455
381.40 1.455
381.50 1.455
381.60 1.454
381.70 1.453
381.80 1.452
381.90 1.45
382.00 1.449
382.10 1.447
382.20 1.445
382.30 1.441
382.40 1.438
382.50 1.434
382.60 1.431
382.70 1.427
382.80 1.424
382.90 1.42
383.00 1.417
383.10 1.413
383.20 1.41
383.30 1.408
383.40 1.405
383.50 1.403
383.60 1.403
383.70 1.406
383.80 1.408
383.90 1.41
384.00 1.412
384.10 1.416
384.20 1.42
384.30 1.424
384.40 1.428
384.50 1.431
384.60 1.434
384.70 1.437
384.80 1.439
384.90 1.441
385.00 1.442
385.10 1.443
385.20 1.444
385.30 1.445
385.40 1.445
385.50 1.446
385.60 1.445
385.70 1.445
385.80 1.445
385.90 1.444
386.00 1.443
386.10 1.441
386.20 1.44
386.30 1.438
386.40 1.436
386.50 1.434
386.60 1.431
386.70 1.429
386.80 1.426
386.90 1.422
387.00 1.419
387.10 1.415
387.20 1.411
387.30 1.407
387.40 1.402
387.50 1.397
387.60 1.392
387.70 1.386
387.80 1.38
387.90 1.374
388.00 1.367
388.10 1.358
388.20 1.35
388.30 1.341
388.40 1.331
388.50 1.322
388.60 1.314
388.70 1.309
388.80 1.305
388.90 1.302
389.00 1.305
389.10 1.309
389.20 1.314
389.30 1.321
389.40 1.33
389.50 1.34
389.60 1.349
389.70 1.358
389.80 1.366
389.90 1.373
390.00 1.38
390.10 1.387
390.20 1.392
390.30 1.398
390.40 1.403
390.50 1.408
390.60 1.412
390.70 1.417
390.80 1.421
390.90 1.424
391.00 1.428
391.10 1.431
391.20 1.434
391.30 1.436
391.40 1.439
391.50 1.441
391.60 1.443
391.70 1.444
391.80 1.445
391.90 1.447
392.00 1.447
392.10 1.448
392.20 1.448
392.30 1.448
392.40 1.447
392.50 1.447
392.60 1.446
392.70 1.444
392.80 1.443
392.90 1.441
393.00 1.439
393.10 1.436
393.20 1.433
393.30 1.43
393.40 1.427
393.50 1.423
393.60 1.419
393.70 1.415
393.80 1.41
393.90 1.405
394.00 1.399
394.10 1.394
394.20 1.387
394.30 1.381
394.40 1.374
394.50 1.367
394.60 1.36
394.70 1.352
394.80 1.344
394.90 1.335
395.00 1.326
395.10 1.317
395.20 1.308
395.30 1.298
395.40 1.288
395.50 1.278
395.60 1.266
395.70 1.255
395.80 1.243
395.90 1.231
396.00 1.218
396.10 1.206
396.20 1.192
396.30 1.177
396.40 1.16
396.50 1.141
396.60 1.121
396.70 1.1
396.80 1.085
396.90 1.071
397.00 1.057
397.10 1.07
397.20 1.083
397.30 1.096
397.40 1.116
397.50 1.136
397.60 1.155
397.70 1.172
397.80 1.187
397.90 1.2
398.00 1.213
398.10 1.225
398.20 1.237
398.30 1.249
398.40 1.26
398.50 1.272
398.60 1.282
398.70 1.292
398.80 1.302
398.90 1.312
399.00 1.321
399.10 1.33
399.20 1.339
399.30 1.347
399.40 1.356
399.50 1.364
399.60 1.372
399.70 1.379
399.80 1.386
399.90 1.393
400.00 1.4
400.10 1.406
400.20 1.412
400.30 1.418
400.40 1.424
400.50 1.429
400.60 1.434
400.70 1.439
400.80 1.444
400.90 1.448
401.00 1.452
401.10 1.456
401.20 1.459
401.30 1.463
401.40 1.466
401.50 1.469
401.60 1.471
401.70 1.474
401.80 1.476
401.90 1.478
402.00 1.48
402.10 1.482
402.20 1.483
402.30 1.484
402.40 1.485
402.50 1.486
402.60 1.486
402.70 1.486
402.80 1.486
402.90 1.486
403.00 1.486
403.10 1.485
403.20 1.485
403.30 1.484
403.40 1.482
403.50 1.481
403.60 1.479
403.70 1.478
403.80 1.475
403.90 1.473
404.00 1.471
404.10 1.468
404.20 1.465
404.30 1.462
404.40 1.458
404.50 1.455
404.60 1.451
404.70 1.446
404.80 1.442
404.90 1.437
405.00 1.433
405.10 1.428
405.20 1.422
405.30 1.417
405.40 1.411
405.50 1.405
405.60 1.399
405.70 1.392
405.80 1.385
405.90 1.379
406.00 1.371
406.10 1.364
406.20 1.356
406.30 1.348
406.40 1.34
406.50 1.332
406.60 1.323
406.70 1.314
406.80 1.305
406.90 1.295
407.00 1.285
407.10 1.275
407.20 1.264
407.30 1.253
407.40 1.242
407.50 1.231
407.60 1.219
407.70 1.207
407.80 1.195
407.90 1.182
408.00 1.169
408.10 1.156
408.20 1.143
408.30 1.129
408.40 1.115
408.50 1.101
408.60 1.086
408.70 1.071
408.80 1.054
408.90 1.038
409.00 1.022
409.10 1.006
409.20 0.9893
409.30 0.9731
409.40 0.9556
409.50 0.937
409.60 0.9174
409.70 0.8952
409.80 0.8718
409.90 0.8473
410.00 0.8269
410.10 0.813
410.20 0.8055
410.30 0.8184
410.40 0.836
410.50 0.8583
410.60 0.8815
410.70 0.9033
410.80 0.9237
410.90 0.9416
411.00 0.9585
411.10 0.9744
411.20 0.9896
411.30 1.005
411.40 1.02
411.50 1.036
411.60 1.051
411.70 1.065
411.80 1.079
411.90 1.093
412.00 1.106
412.10 1.119
412.20 1.131
412.30 1.143
412.40 1.155
412.50 1.167
412.60 1.178
412.70 1.19
412.80 1.201
412.90 1.211
413.00 1.222
413.10 1.232
413.20 1.242
413.30 1.251
413.40 1.261
413.50 1.27
413.60 1.278
413.70 1.287
413.80 1.295
413.90 1.303
414.00 1.311
414.10 1.319
414.20 1.326
414.30 1.334
414.40 1.341
414.50 1.348
414.60 1.355
414.70 1.361
414.80 1.368
414.90 1.374
415.00 1.38
415.10 1.386
415.20 1.392
415.30 1.397
415.40 1.403
415.50 1.408
415.60 1.413
415.70 1.418
415.80 1.423
415.90 1.428
416.00 1.433
416.10 1.437
416.20 1.442
416.30 1.446
416.40 1.45
416.50 1.454
416.60 1.458
416.70 1.461
416.80 1.465
416.90 1.468
417.00 1.472
417.10 1.475
417.20 1.478
417.30 1.481
417.40 1.484
417.50 1.487
417.60 1.49
417.70 1.492
417.80 1.495
417.90 1.497
418.00 1.5
418.10 1.502
418.20 1.504
418.30 1.506
418.40 1.508
418.50 1.51
418.60 1.511
418.70 1.513
418.80 1.514
418.90 1.516
419.00 1.517
419.10 1.519
419.20 1.52
419.30 1.521
419.40 1.522
419.50 1.523
419.60 1.524
419.70 1.525
419.80 1.525
419.90 1.526
420.00 1.527
420.10 1.527
420.20 1.527
420.30 1.528
420.40 1.528
420.50 1.528
420.60 1.528
420.70 1.528
420.80 1.528
420.90 1.528
421.00 1.528
421.10 1.527
421.20 1.527
421.30 1.526
421.40 1.526
421.50 1.525
421.60 1.524
421.70 1.524
421.80 1.523
421.90 1.522
422.00 1.521
422.10 1.52
422.20 1.519
422.30 1.517
422.40 1.516
422.50 1.515
422.60 1.513
422.70 1.512
422.80 1.51
422.90 1.509
423.00 1.507
423.10 1.505
423.20 1.503
423.30 1.501
423.40 1.499
423.50 1.497
423.60 1.495
423.70 1.492
423.80 1.49
423.90 1.488
424.00 1.485
424.10 1.483
424.20 1.48
424.30 1.477
424.40 1.474
424.50 1.471
424.60 1.469
424.70 1.465
424.80 1.462
424.90 1.459
425.00 1.456
425.10 1.452
425.20 1.449
425.30 1.445
425.40 1.442
425.50 1.438
425.60 1.434
425.70 1.43
425.80 1.426
425.90 1.422
426.00 1.418
426.10 1.414
426.20 1.409
426.30 1.404
426.40 1.399
426.50 1.395
426.60 1.39
426.70 1.385
426.80 1.381
426.90 1.376
427.00 1.371
427.10 1.365
427.20 1.36
427.30 1.355
427.40 1.349
427.50 1.344
427.60 1.338
427.70 1.333
427.80 1.327
427.90 1.321
428.00 1.315
428.10 1.309
428.20 1.302
428.30 1.296
428.40 1.29
428.50 1.283
428.60 1.276
428.70 1.269
428.80 1.263
428.90 1.255
429.00 1.248
429.10 1.241
429.20 1.233
429.30 1.226
429.40 1.218
429.50 1.21
429.60 1.202
429.70 1.194
429.80 1.186
429.90 1.178
430.00 1.169
430.10 1.16
430.20 1.152
430.30 1.143
430.40 1.134
430.50 1.124
430.60 1.115
430.70 1.105
430.80 1.095
430.90 1.085
431.00 1.075
431.10 1.064
431.20 1.053
431.30 1.042
431.40 1.031
431.50 1.02
431.60 1.008
431.70 0.9965
431.80 0.9846
431.90 0.9722
432.00 0.9597
432.10 0.9469
432.20 0.9336
432.30 0.92
432.40 0.9061
432.50 0.8915
432.60 0.8765
432.70 0.8611
432.80 0.8453
432.90 0.8294
433.00 0.8135
433.10 0.7977
433.20 0.7821
433.30 0.7666
433.40 0.751
433.50 0.7344
433.60 0.7171
433.70 0.6944
433.80 0.667
433.90 0.635
434.00 0.5975
434.10 0.5981
434.20 0.637
434.30 0.668
434.40 0.6944
434.50 0.716
434.60 0.7324
434.70 0.7481
434.80 0.763
434.90 0.7777
435.00 0.7925
435.10 0.8073
435.20 0.8224
435.30 0.8373
435.40 0.8521
435.50 0.8664
435.60 0.8803
435.70 0.8938
435.80 0.9065
435.90 0.9189
436.00 0.931
436.10 0.9426
436.20 0.9539
436.30 0.965
436.40 0.9757
436.50 0.9862
436.60 0.9965
436.70 1.007
436.80 1.016
436.90 1.026
437.00 1.035
437.10 1.044
437.20 1.053
437.30 1.062
437.40 1.07
437.50 1.079
437.60 1.087
437.70 1.094
437.80 1.102
437.90 1.11
438.00 1.117
438.10 1.124
438.20 1.131
438.30 1.138
438.40 1.145
438.50 1.151
438.60 1.158
438.70 1.164
438.80 1.17
438.90 1.176
439.00 1.182
439.10 1.188
439.20 1.193
439.30 1.199
439.40 1.204
439.50 1.21
439.60 1.215
439.70 1.22
439.80 1.225
439.90 1.23
440.00 1.234
440.10 1.239
440.20 1.243
440.30 1.248
440.40 1.252
440.50 1.256
440.60 1.261
440.70 1.265
440.80 1.269
440.90 1.272
441.00 1.276
441.10 1.28
441.20 1.284
441.30 1.287
441.40 1.291
441.50 1.294
441.60 1.297
441.70 1.3
441.80 1.304
441.90 1.307
442.00 1.31
442.10 1.313
442.20 1.315
442.30 1.318
442.40 1.321
442.50 1.324
442.60 1.326
442.70 1.329
442.80 1.331
442.90 1.334
443.00 1.336
443.10 1.338
443.20 1.34
443.30 1.343
443.40 1.345
443.50 1.347
443.60 1.349
443.70 1.351
443.80 1.353
443.90 1.355
444.00 1.356
444.10 1.358
444.20 1.36
444.30 1.361
444.40 1.363
444.50 1.365
444.60 1.366
444.70 1.368
444.80 1.369
444.90 1.37
445.00 1.372
445.10 1.373
445.20 1.374
445.30 1.375
445.40 1.377
445.50 1.378
445.60 1.379
445.70 1.38
445.80 1.381
445.90 1.382
446.00 1.383
446.10 1.384
446.20 1.385
446.30 1.386
446.40 1.387
446.50 1.387
446.60 1.388
446.70 1.389
446.80 1.389
446.90 1.39
447.00 1.391
447.10 1.391
447.20 1.392
447.30 1.393
447.40 1.393
447.50 1.394
447.60 1.394
447.70 1.394
447.80 1.395
447.90 1.395
448.00 1.396
448.10 1.396
448.20 1.396
448.30 1.397
448.40 1.397
448.50 1.397
448.60 1.397
448.70 1.398
448.80 1.398
448.90 1.398
449.00 1.398
449.10 1.399
449.20 1.399
449.30 1.399
449.40 1.399
449.50 1.399
449.60 1.399
449.70 1.399
449.80 1.399
449.90 1.399
450.00 1.399
450.10 1.399
450.20 1.399
450.30 1.399
450.40 1.399
450.50 1.399
450.60 1.398
450.70 1.398
450.80 1.398
450.90 1.398
451.00 1.398
451.10 1.398
451.20 1.397
451.30 1.397
451.40 1.397
451.50 1.397
451.60 1.396
451.70 1.396
451.80 1.396
451.90 1.395
452.00 1.395
452.10 1.395
452.20 1.394
452.30 1.394
452.40 1.394
452.50 1.393
452.60 1.393
452.70 1.392
452.80 1.392
452.90 1.391
453.00 1.391
453.10 1.391
453.20 1.39
453.30 1.39
453.40 1.389
453.50 1.389
453.60 1.388
453.70 1.388
453.80 1.387
453.90 1.387
454.00 1.386
454.10 1.386
454.20 1.385
454.30 1.385
454.40 1.384
454.50 1.383
454.60 1.383
454.70 1.382
454.80 1.381
454.90 1.381
455.00 1.38
455.10 1.38
455.20 1.379
455.30 1.378
455.40 1.378
455.50 1.377
455.60 1.376
455.70 1.376
455.80 1.375
455.90 1.374
456.00 1.373
456.10 1.373
456.20 1.372
456.30 1.371
456.40 1.371
456.50 1.37
456.60 1.369
456.70 1.369
456.80 1.368
456.90 1.367
457.00 1.367
457.10 1.366
457.20 1.365
457.30 1.364
457.40 1.364
457.50 1.363
457.60 1.362
457.70 1.361
457.80 1.36
457.90 1.36
458.00 1.359
458.10 1.358
458.20 1.357
458.30 1.356
458.40 1.355
458.50 1.354
458.60 1.354
458.70 1.353
458.80 1.352
458.90 1.351
459.00 1.35
459.10 1.349
459.20 1.348
459.30 1.347
459.40 1.346
459.50 1.346
459.60 1.345
459.70 1.344
459.80 1.343
459.90 1.342
460.00 1.341
460.10 1.34
460.20 1.339
460.30 1.338
460.40 1.337
460.50 1.336
460.60 1.335
460.70 1.334
460.80 1.333
460.90 1.332
461.00 1.331
461.10 1.33
461.20 1.329
461.30 1.328
461.40 1.327
461.50 1.326
461.60 1.325
461.70 1.324
461.80 1.323
461.90 1.322
462.00 1.321
462.10 1.32
462.20 1.318
462.30 1.317
462.40 1.316
462.50 1.315
462.60 1.314
462.70 1.313
462.80 1.312
462.90 1.311
463.00 1.31
463.10 1.309
463.20 1.307
463.30 1.306
463.40 1.305
463.50 1.304
463.60 1.303
463.70 1.302
463.80 1.3
463.90 1.299
464.00 1.298
464.10 1.297
464.20 1.296
464.30 1.294
464.40 1.293
464.50 1.292
464.60 1.291
464.70 1.29
464.80 1.288
464.90 1.287
465.00 1.286
465.10 1.285
465.20 1.283
465.30 1.282
465.40 1.281
465.50 1.279
465.60 1.278
465.70 1.277
465.80 1.276
465.90 1.274
466.00 1.273
466.10 1.272
466.20 1.27
466.30 1.269
466.40 1.267
466.50 1.266
466.60 1.265
466.70 1.263
466.80 1.262
466.90 1.261
467.00 1.259
467.10 1.258
467.20 1.256
467.30 1.255
467.40 1.253
467.50 1.252
467.60 1.251
467.70 1.249
467.80 1.248
467.90 1.246
468.00 1.245
468.10 1.243
468.20 1.242
468.30 1.24
468.40 1.238
468.50 1.237
468.60 1.235
468.70 1.234
468.80 1.232
468.90 1.231
469.00 1.229
469.10 1.228
469.20 1.226
469.30 1.224
469.40 1.223
469.50 1.221
469.60 1.219
469.70 1.218
469.80 1.216
469.90 1.214
470.00 1.213
470.10 1.211
470.20 1.209
470.30 1.208
470.40 1.206
470.50 1.204
470.60 1.202
470.70 1.201
470.80 1.199
470.90 1.197
471.00 1.196
471.10 1.194
471.20 1.192
471.30 1.19
471.40 1.188
471.50 1.186
471.60 1.184
471.70 1.182
471.80 1.181
471.90 1.179
472.00 1.177
472.10 1.175
472.20 1.173
472.30 1.171
472.40 1.169
472.50 1.167
472.60 1.164
472.70 1.162
472.80 1.16
472.90 1.158
473.00 1.156
473.10 1.154
473.20 1.152
473.30 1.15
473.40 1.147
473.50 1.145
473.60 1.143
473.70 1.141
473.80 1.138
473.90 1.136
474.00 1.134
474.10 1.132
474.20 1.129
474.30 1.127
474.40 1.124
474.50 1.122
474.60 1.119
474.70 1.117
474.80 1.114
474.90 1.112
475.00 1.109
475.10 1.107
475.20 1.104
475.30 1.102
475.40 1.099
475.50 1.096
475.60 1.094
475.70 1.091
475.80 1.088
475.90 1.085
476.00 1.083
476.10 1.08
476.20 1.077
476.30 1.074
476.40 1.071
476.50 1.068
476.60 1.065
476.70 1.062
476.80 1.059
476.90 1.056
477.00 1.053
477.10 1.05
477.20 1.047
477.30 1.044
477.40 1.041
477.50 1.037
477.60 1.034
477.70 1.031
477.80 1.027
477.90 1.024
478.00 1.021
478.10 1.018
478.20 1.014
478.30 1.01
478.40 1.007
478.50 1.003
478.60 0.9993
478.70 0.9957
478.80 0.992
478.90 0.9883
479.00 0.9847
479.10 0.981
479.20 0.9771
479.30 0.973
479.40 0.9689
479.50 0.9648
479.60 0.9607
479.70 0.9566
479.80 0.9525
479.90 0.9485
480.00 0.9444
480.10 0.9403
480.20 0.9359
480.30 0.9313
480.40 0.9267
480.50 0.9221
480.60 0.9175
480.70 0.9129
480.80 0.9083
480.90 0.9037
481.00 0.8992
481.10 0.8946
481.20 0.8895
481.30 0.8842
481.40 0.8789
481.50 0.8736
481.60 0.8684
481.70 0.8631
481.80 0.8578
481.90 0.8525
482.00 0.8473
482.10 0.842
482.20 0.8361
482.30 0.8299
482.40 0.8236
482.50 0.8174
482.60 0.8112
482.70 0.805
482.80 0.7988
482.90 0.7926
483.00 0.7864
483.10 0.7802
483.20 0.7729
483.30 0.7652
483.40 0.7574
483.50 0.7496
483.60 0.7419
483.70 0.7341
483.80 0.7264
483.90 0.7186
484.00 0.7109
484.10 0.7032
484.20 0.6942
484.30 0.6847
484.40 0.6751
484.50 0.6656
484.60 0.6561
484.70 0.6457
484.80 0.6349
484.90 0.6242
485.00 0.6134
485.10 0.6026
485.20 0.5918
485.30 0.5809
485.40 0.5698
485.50 0.5588
485.60 0.5469
485.70 0.5347
485.80 0.5181
485.90 0.4996
486.00 0.4706
486.10 0.4205
486.20 0.437
486.30 0.4825
486.40 0.5045
486.50 0.5229
486.60 0.5367
486.70 0.5485
486.80 0.5594
486.90 0.5699
487.00 0.5803
487.10 0.5905
487.20 0.6007
487.30 0.6108
487.40 0.6209
487.50 0.6309
487.60 0.641
487.70 0.6502
487.80 0.6589
487.90 0.6676
488.00 0.6764
488.10 0.6851
488.20 0.6925
488.30 0.6994
488.40 0.7062
488.50 0.7131
488.60 0.7199
488.70 0.7268
488.80 0.7336
488.90 0.7404
489.00 0.7472
489.10 0.7541
489.20 0.7598
489.30 0.765
489.40 0.7701
489.50 0.7753
489.60 0.7805
489.70 0.7857
489.80 0.7908
489.90 0.796
490.00 0.8011
490.10 0.8063
490.20 0.8108
490.30 0.8149
490.40 0.8191
490.50 0.8232
490.60 0.8273
490.70 0.8315
490.80 0.8356
490.90 0.8397
491.00 0.8438
491.10 0.8479
491.20 0.8515
491.30 0.8549
491.40 0.8583
491.50 0.8616
491.60 0.865
491.70 0.8683
491.80 0.8717
491.90 0.875
492.00 0.8784
492.10 0.8817
492.20 0.8847
492.30 0.8875
492.40 0.8902
492.50 0.893
492.60 0.8958
492.70 0.8985
492.80 0.9013
492.90 0.9041
493.00 0.9068
493.10 0.9096
493.20 0.912
493.30 0.9143
493.40 0.9167
493.50 0.919
493.60 0.9213
493.70 0.9236
493.80 0.9259
493.90 0.9282
494.00 0.9305
494.10 0.9328
494.20 0.9348
494.30 0.9366
494.40 0.9385
494.50 0.9404
494.60 0.9422
494.70 0.9441
494.80 0.9459
494.90 0.9478
495.00 0.9496
495.10 0.9515
495.20 0.9531
495.30 0.9546
495.40 0.9561
495.50 0.9576
495.60 0.9591
495.70 0.9606
495.80 0.9622
495.90 0.9637
496.00 0.9651
496.10 0.9666
496.20 0.9679
496.30 0.9691
496.40 0.9703
496.50 0.9715
496.60 0.9727
496.70 0.9739
496.80 0.9751
496.90 0.9763
497.00 0.9775
497.10 0.9787
497.20 0.9797
497.30 0.9807
497.40 0.9816
497.50 0.9825
497.60 0.9835
497.70 0.9844
497.80 0.9854
497.90 0.9863
498.00 0.9872
498.10 0.9882
498.20 0.9889
498.30 0.9897
498.40 0.9904
498.50 0.9911
498.60 0.9918
498.70 0.9925
498.80 0.9932
498.90 0.9939
499.00 0.9946
499.10 0.9953
499.20 0.9959
499.30 0.9964
499.40 0.9969
499.50 0.9974
499.60 0.998
499.70 0.9985
499.80 0.999
499.90 0.9995
500.00 1
500.10 1.001
500.20 1.001
500.30 1.001
500.40 1.002
500.50 1.002
500.60 1.002
500.70 1.003
500.80 1.003
500.90 1.003
501.00 1.004
501.10 1.004
501.20 1.004
501.30 1.004
501.40 1.005
501.50 1.005
501.60 1.005
501.70 1.005
501.80 1.006
501.90 1.006
502.00 1.006
502.10 1.006
502.20 1.006
502.30 1.007
502.40 1.007
502.50 1.007
502.60 1.007
502.70 1.007
502.80 1.007
502.90 1.007
503.00 1.007
503.10 1.007
503.20 1.007
503.30 1.007
503.40 1.008
503.50 1.008
503.60 1.008
503.70 1.008
503.80 1.008
503.90 1.008
504.00 1.008
504.10 1.008
504.20 1.008
504.30 1.007
504.40 1.007
504.50 1.007
504.60 1.007
504.70 1.007
504.80 1.007
504.90 1.007
505.00 1.007
505.10 1.007
505.20 1.007
505.30 1.007
505.40 1.006
505.50 1.006
505.60 1.006
505.70 1.006
505.80 1.006
505.90 1.006
506.00 1.006
506.10 1.005
506.20 1.005
506.30 1.005
506.40 1.005
506.50 1.005
506.60 1.004
506.70 1.004
506.80 1.004
506.90 1.004
507.00 1.004
507.10 1.003
507.20 1.003
507.30 1.003
507.40 1.003
507.50 1.002
507.60 1.002
507.70 1.002
507.80 1.002
507.90 1.001
508.00 1.001
508.10 1.001
508.20 1
508.30 1
508.40 0.9999
508.50 0.9996
508.60 0.9992
508.70 0.9989
508.80 0.9986
508.90 0.9983
509.00 0.998
509.10 0.9977
509.20 0.9973
509.30 0.997
509.40 0.9967
509.50 0.9963
509.60 0.996
509.70 0.9956
509.80 0.9953
509.90 0.995
510.00 0.9946
510.10 0.9943
510.20 0.9939
510.30 0.9935
510.40 0.9932
510.50 0.9928
510.60 0.9924
510.70 0.992
510.80 0.9916
510.90 0.9913
511.00 0.9909
511.10 0.9905
511.20 0.9901
511.30 0.9897
511.40 0.9893
511.50 0.9889
511.60 0.9885
511.70 0.9881
511.80 0.9877
511.90 0.9874
512.00 0.987
512.10 0.9866
512.20 0.9861
512.30 0.9857
512.40 0.9853
512.50 0.9849
512.60 0.9844
512.70 0.984
512.80 0.9836
512.90 0.9832
513.00 0.9827
513.10 0.9823
513.20 0.9819
513.30 0.9814
513.40 0.981
513.50 0.9805
513.60 0.9801
513.70 0.9797
513.80 0.9792
513.90 0.9788
514.00 0.9783
514.10 0.9779
514.20 0.9774
514.30 0.977
514.40 0.9765
514.50 0.9761
514.60 0.9756
514.70 0.9751
514.80 0.9747
514.90 0.9742
515.00 0.9738
515.10 0.9733
515.20 0.9729
515.30 0.9724
515.40 0.9719
515.50 0.9715
515.60 0.971
515.70 0.9706
515.80 0.9701
515.90 0.9696
516.00 0.9692
516.10 0.9687
516.20 0.9682
516.30 0.9677
516.40 0.9673
516.50 0.9668
516.60 0.9663
516.70 0.9658
516.80 0.9653
516.90 0.9648
517.00 0.9643
517.10 0.9639
517.20 0.9634
517.30 0.9629
517.40 0.9624
517.50 0.9619
517.60 0.9615
517.70 0.961
517.80 0.9605
517.90 0.96
518.00 0.9595
518.10 0.959
518.20 0.9586
518.30 0.9581
518.40 0.9576
518.50 0.9571
518.60 0.9566
518.70 0.9561
518.80 0.9556
518.90 0.9551
519.00 0.9546
519.10 0.9541
519.20 0.9536
519.30 0.9531
519.40 0.9526
519.50 0.9521
519.60 0.9516
519.70 0.9511
519.80 0.9506
519.90 0.9501
520.00 0.9496
520.10 0.9491
520.20 0.9486
520.30 0.9481
520.40 0.9476
520.50 0.9471
520.60 0.9466
520.70 0.9461
520.80 0.9456
520.90 0.9451
521.00 0.9446
521.10 0.9441
521.20 0.9436
521.30 0.9431
521.40 0.9426
521.50 0.9421
521.60 0.9415
521.70 0.941
521.80 0.9405
521.90 0.94
522.00 0.9395
522.10 0.939
522.20 0.9385
522.30 0.938
522.40 0.9375
522.50 0.937
522.60 0.9364
522.70 0.9359
522.80 0.9354
522.90 0.9349
523.00 0.9344
523.10 0.9339
523.20 0.9334
523.30 0.9329
523.40 0.9324
523.50 0.9319
523.60 0.9313
523.70 0.9308
523.80 0.9303
523.90 0.9298
524.00 0.9293
524.10 0.9288
524.20 0.9283
524.30 0.9277
524.40 0.9272
524.50 0.9267
524.60 0.9262
524.70 0.9257
524.80 0.9251
524.90 0.9246
525.00 0.9241
525.10 0.9236
525.20 0.9231
525.30 0.9226
525.40 0.922
525.50 0.9215
525.60 0.921
525.70 0.9205
525.80 0.92
525.90 0.9195
526.00 0.919
526.10 0.9184
526.20 0.9179
526.30 0.9174
526.40 0.9169
526.50 0.9164
526.60 0.9158
526.70 0.9153
526.80 0.9148
526.90 0.9143
527.00 0.9138
527.10 0.9132
527.20 0.9127
527.30 0.9122
527.40 0.9117
527.50 0.9112
527.60 0.9107
527.70 0.9101
527.80 0.9096
527.90 0.9091
528.00 0.9086
528.10 0.9081
528.20 0.9076
528.30 0.907
528.40 0.9065
528.50 0.906
528.60 0.9055
528.70 0.9049
528.80 0.9044
528.90 0.9039
529.00 0.9034
529.10 0.9029
529.20 0.9023
529.30 0.9018
529.40 0.9013
529.50 0.9008
529.60 0.9003
529.70 0.8998
529.80 0.8993
529.90 0.8988
530.00 0.8983
530.10 0.8978
530.20 0.8972
530.30 0.8967
530.40 0.8962
530.50 0.8957
530.60 0.8952
530.70 0.8947
530.80 0.8941
530.90 0.8936
531.00 0.8931
531.10 0.8926
531.20 0.8921
531.30 0.8916
531.40 0.891
531.50 0.8905
531.60 0.89
531.70 0.8895
531.80 0.889
531.90 0.8884
532.00 0.8879
532.10 0.8874
532.20 0.8869
532.30 0.8864
532.40 0.8859
532.50 0.8854
532.60 0.8848
532.70 0.8843
532.80 0.8838
532.90 0.8833
533.00 0.8828
533.10 0.8823
533.20 0.8818
533.30 0.8813
533.40 0.8808
533.50 0.8803
533.60 0.8797
533.70 0.8792
533.80 0.8787
533.90 0.8782
534.00 0.8777
534.10 0.8772
534.20 0.8767
534.30 0.8762
534.40 0.8756
534.50 0.8751
534.60 0.8746
534.70 0.8741
534.80 0.8736
534.90 0.8731
535.00 0.8726
535.10 0.8721
535.20 0.8716
535.30 0.8711
535.40 0.8706
535.50 0.8701
535.60 0.8696
535.70 0.8691
535.80 0.8686
535.90 0.8681
536.00 0.8676
536.10 0.8671
536.20 0.8666
536.30 0.8661
536.40 0.8656
536.50 0.8651
536.60 0.8646
536.70 0.8641
536.80 0.8635
536.90 0.863
537.00 0.8625
537.10 0.862
537.20 0.8615
537.30 0.861
537.40 0.8605
537.50 0.86
537.60 0.8595
537.70 0.859
537.80 0.8585
537.90 0.858
538.00 0.8575
538.10 0.857
538.20 0.8565
538.30 0.856
538.40 0.8555
538.50 0.855
538.60 0.8545
538.70 0.854
538.80 0.8535
538.90 0.853
539.00 0.8525
539.10 0.852
539.20 0.8515
539.30 0.851
539.40 0.8505
539.50 0.85
539.60 0.8495
539.70 0.849
539.80 0.8485
539.90 0.848
540.00 0.8475
540.10 0.847
540.20 0.8465
540.30 0.846
540.40 0.8456
540.50 0.8451
540.60 0.8446
540.70 0.8441
540.80 0.8436
540.90 0.8431
541.00 0.8426
541.10 0.8421
541.20 0.8416
541.30 0.8411
541.40 0.8406
541.50 0.8402
541.60 0.8397
541.70 0.8392
541.80 0.8387
541.90 0.8382
542.00 0.8377
542.10 0.8372
542.20 0.8367
542.30 0.8363
542.40 0.8358
542.50 0.8353
542.60 0.8348
542.70 0.8343
542.80 0.8338
542.90 0.8333
543.00 0.8329
543.10 0.8324
543.20 0.8319
543.30 0.8314
543.40 0.8309
543.50 0.8304
543.60 0.8299
543.70 0.8294
543.80 0.8289
543.90 0.8285
544.00 0.828
544.10 0.8275
544.20 0.827
544.30 0.8265
544.40 0.826
544.50 0.8255
544.60 0.8251
544.70 0.8246
544.80 0.8241
544.90 0.8236
545.00 0.8232
545.10 0.8227
545.20 0.8222
545.30 0.8217
545.40 0.8212
545.50 0.8208
545.60 0.8203
545.70 0.8198
545.80 0.8193
545.90 0.8189
546.00 0.8184
546.10 0.8179
546.20 0.8175
546.30 0.8172
546.40 0.8169
546.50 0.8166
546.60 0.8163
546.70 0.816
546.80 0.8157
546.90 0.8153
547.00 0.815
547.10 0.8147
547.20 0.8143
547.30 0.8138
547.40 0.8133
547.50 0.8129
547.60 0.8124
547.70 0.8119
547.80 0.8114
547.90 0.8109
548.00 0.8105
548.10 0.81
548.20 0.8095
548.30 0.809
548.40 0.8086
548.50 0.8081
548.60 0.8076
548.70 0.8071
548.80 0.8066
548.90 0.8062
549.00 0.8057
549.10 0.8052
549.20 0.8047
549.30 0.8043
549.40 0.8038
549.50 0.8033
549.60 0.8028
549.70 0.8023
549.80 0.8019
549.90 0.8014
550.00 0.8009
550.10 0.8004
550.20 0.7999
550.30 0.7995
550.40 0.799
550.50 0.7985
550.60 0.7981
550.70 0.7976
550.80 0.7971
550.90 0.7967
551.00 0.7962
551.10 0.7957
551.20 0.7953
551.30 0.7948
551.40 0.7943
551.50 0.7938
551.60 0.7934
551.70 0.7929
551.80 0.7924
551.90 0.792
552.00 0.7915
552.10 0.791
552.20 0.7906
552.30 0.7901
552.40 0.7896
552.50 0.7892
552.60 0.7887
552.70 0.7883
552.80 0.7878
552.90 0.7873
553.00 0.7869
553.10 0.7864
553.20 0.7859
553.30 0.7855
553.40 0.785
553.50 0.7846
553.60 0.7841
553.70 0.7836
553.80 0.7832
553.90 0.7827
554.00 0.7822
554.10 0.7818
554.20 0.7813
554.30 0.7809
554.40 0.7804
554.50 0.78
554.60 0.7795
554.70 0.779
554.80 0.7786
554.90 0.7781
555.00 0.7777
555.10 0.7772
555.20 0.7767
555.30 0.7763
555.40 0.7758
555.50 0.7754
555.60 0.7749
555.70 0.7745
555.80 0.774
555.90 0.7736
556.00 0.7731
556.10 0.7726
556.20 0.7722
556.30 0.7717
556.40 0.7713
556.50 0.7709
556.60 0.7704
556.70 0.77
556.80 0.7695
556.90 0.7691
557.00 0.7686
557.10 0.7682
557.20 0.7677
557.30 0.7673
557.40 0.7668
557.50 0.7664
557.60 0.7659
557.70 0.7655
557.80 0.765
557.90 0.7646
558.00 0.7641
558.10 0.7637
558.20 0.7632
558.30 0.7628
558.40 0.7623
558.50 0.7619
558.60 0.7614
558.70 0.761
558.80 0.7605
558.90 0.7601
559.00 0.7596
559.10 0.7592
559.20 0.7588
559.30 0.7583
559.40 0.7579
559.50 0.7574
559.60 0.757
559.70 0.7566
559.80 0.7561
559.90 0.7557
560.00 0.7553
560.10 0.7548
560.20 0.7544
560.30 0.7539
560.40 0.7535
560.50 0.7531
560.60 0.7526
560.70 0.7522
560.80 0.7517
560.90 0.7513
561.00 0.7508
561.10 0.7504
561.20 0.75
561.30 0.7495
561.40 0.7491
561.50 0.7487
561.60 0.7482
561.70 0.7478
561.80 0.7474
561.90 0.7469
562.00 0.7465
562.10 0.7461
562.20 0.7456
562.30 0.7452
562.40 0.7448
562.50 0.7443
562.60 0.7439
562.70 0.7435
562.80 0.743
562.90 0.7426
563.00 0.7421
563.10 0.7417
563.20 0.7413
563.30 0.7408
563.40 0.7404
563.50 0.74
563.60 0.7396
563.70 0.7391
563.80 0.7387
563.90 0.7383
564.00 0.7379
564.10 0.7374
564.20 0.737
564.30 0.7366
564.40 0.7362
564.50 0.7357
564.60 0.7353
564.70 0.7349
564.80 0.7345
564.90 0.734
565.00 0.7336
565.10 0.7332
565.20 0.7328
565.30 0.7323
565.40 0.7319
565.50 0.7315
565.60 0.7311
565.70 0.7307
565.80 0.7302
565.90 0.7298
566.00 0.7294
566.10 0.729
566.20 0.7285
566.30 0.7281
566.40 0.7277
566.50 0.7273
566.60 0.7269
566.70 0.7264
566.80 0.726
566.90 0.7256
567.00 0.7252
567.10 0.7248
567.20 0.7244
567.30 0.7239
567.40 0.7235
567.50 0.7231
567.60 0.7227
567.70 0.7223
567.80 0.7218
567.90 0.7214
568.00 0.721
568.10 0.7206
568.20 0.7202
568.30 0.7198
568.40 0.7194
568.50 0.7189
568.60 0.7185
568.70 0.7181
568.80 0.7177
568.90 0.7173
569.00 0.7169
569.10 0.7165
569.20 0.716
569.30 0.7156
569.40 0.7152
569.50 0.7148
569.60 0.7144
569.70 0.714
569.80 0.7136
569.90 0.7132
570.00 0.7127
570.10 0.7123
570.20 0.7119
570.30 0.7115
570.40 0.7111
570.50 0.7107
570.60 0.7103
570.70 0.7099
570.80 0.7095
570.90 0.709
571.00 0.7086
571.10 0.7082
571.20 0.7078
571.30 0.7074
571.40 0.707
571.50 0.7066
571.60 0.7062
571.70 0.7058
571.80 0.7054
571.90 0.705
572.00 0.7046
572.10 0.7042
572.20 0.7038
572.30 0.7034
572.40 0.703
572.50 0.7026
572.60 0.7022
572.70 0.7018
572.80 0.7014
572.90 0.701
573.00 0.7006
573.10 0.7002
573.20 0.6998
573.30 0.6994
573.40 0.699
573.50 0.6986
573.60 0.6982
573.70 0.6978
573.80 0.6974
573.90 0.697
574.00 0.6966
574.10 0.6962
574.20 0.6958
574.30 0.6954
574.40 0.695
574.50 0.6946
574.60 0.6942
574.70 0.6938
574.80 0.6934
574.90 0.693
575.00 0.6926
575.10 0.6922
575.20 0.6918
575.30 0.6914
575.40 0.691
575.50 0.6907
575.60 0.6903
575.70 0.6899
575.80 0.6895
575.90 0.6891
576.00 0.6887
576.10 0.6883
576.20 0.6879
576.30 0.6875
576.40 0.6871
576.50 0.6867
576.60 0.6863
576.70 0.6859
576.80 0.6855
576.90 0.6851
577.00 0.6847
577.10 0.6844
577.20 0.684
577.30 0.6836
577.40 0.6832
577.50 0.6828
577.60 0.6824
577.70 0.682
577.80 0.6816
577.90 0.6813
578.00 0.6809
578.10 0.6805
578.20 0.6801
578.30 0.6797
578.40 0.6793
578.50 0.6789
578.60 0.6786
578.70 0.6782
578.80 0.6778
578.90 0.6774
579.00 0.677
579.10 0.6766
579.20 0.6762
579.30 0.6759
579.40 0.6755
579.50 0.6751
579.60 0.6747
579.70 0.6743
579.80 0.6739
579.90 0.6736
580.00 0.6732
580.10 0.6728
580.20 0.6724
580.30 0.672
580.40 0.6717
580.50 0.6713
580.60 0.6709
580.70 0.6705
580.80 0.6701
580.90 0.6698
581.00 0.6694
581.10 0.669
581.20 0.6686
581.30 0.6682
581.40 0.6679
581.50 0.6675
581.60 0.6671
581.70 0.6667
581.80 0.6663
581.90 0.666
582.00 0.6656
582.10 0.6652
582.20 0.6648
582.30 0.6645
582.40 0.6641
582.50 0.6637
582.60 0.6633
582.70 0.663
582.80 0.6626
582.90 0.6622
583.00 0.6618
583.10 0.6615
583.20 0.6611
583.30 0.6607
583.40 0.6604
583.50 0.66
583.60 0.6596
583.70 0.6592
583.80 0.6589
583.90 0.6585
584.00 0.6581
584.10 0.6577
584.20 0.6574
584.30 0.657
584.40 0.6566
584.50 0.6563
584.60 0.6559
584.70 0.6555
584.80 0.6552
584.90 0.6548
585.00 0.6544
585.10 0.6541
585.20 0.6537
585.30 0.6533
585.40 0.6529
585.50 0.6526
585.60 0.6522
585.70 0.6518
585.80 0.6515
585.90 0.6511
586.00 0.6507
586.10 0.6504
586.20 0.65
586.30 0.6496
586.40 0.6493
586.50 0.6489
586.60 0.6486
586.70 0.6482
586.80 0.6478
586.90 0.6475
587.00 0.6471
587.10 0.6467
587.20 0.6464
587.30 0.646
587.40 0.6456
587.50 0.6453
587.60 0.6449
587.70 0.6446
587.80 0.6442
587.90 0.6438
588.00 0.6435
588.10 0.6431
588.20 0.6428
588.30 0.6424
588.40 0.642
588.50 0.6417
588.60 0.6413
588.70 0.641
588.80 0.6406
588.90 0.6402
589.00 0.6399
589.10 0.6395
589.20 0.6392
589.30 0.6388
589.40 0.6384
589.50 0.6381
589.60 0.6377
589.70 0.6374
589.80 0.637
589.90 0.6367
590.00 0.6363
590.10 0.6359
590.20 0.6356
590.30 0.6352
590.40 0.6349
590.50 0.6345
590.60 0.6342
590.70 0.6338
590.80 0.6335
590.90 0.6331
591.00 0.6328
591.10 0.6324
591.20 0.6321
591.30 0.6317
591.40 0.6313
591.50 0.631
591.60 0.6306
591.70 0.6303
591.80 0.6299
591.90 0.6296
592.00 0.6292
592.10 0.6289
592.20 0.6285
592.30 0.6282
592.40 0.6278
592.50 0.6275
592.60 0.6271
592.70 0.6268
592.80 0.6264
592.90 0.6261
593.00 0.6257
593.10 0.6254
593.20 0.625
593.30 0.6247
593.40 0.6243
593.50 0.624
593.60 0.6236
593.70 0.6233
593.80 0.623
593.90 0.6226
594.00 0.6223
594.10 0.6219
594.20 0.6216
594.30 0.6212
594.40 0.6209
594.50 0.6205
594.60 0.6202
594.70 0.6198
594.80 0.6195
594.90 0.6191
595.00 0.6188
595.10 0.6185
595.20 0.6181
595.30 0.6178
595.40 0.6174
595.50 0.6171
595.60 0.6167
595.70 0.6164
595.80 0.6161
595.90 0.6157
596.00 0.6154
596.10 0.615
596.20 0.6145
596.30 0.6138
596.40 0.6132
596.50 0.6125
596.60 0.6119
596.70 0.6112
596.80 0.6106
596.90 0.6099
597.00 0.6093
597.10 0.6087
597.20 0.6082
597.30 0.6079
597.40 0.6075
597.50 0.6072
597.60 0.6068
597.70 0.6065
597.80 0.6061
597.90 0.6058
598.00 0.6054
598.10 0.6051
598.20 0.6047
598.30 0.6044
598.40 0.6041
598.50 0.6037
598.60 0.6034
598.70 0.603
598.80 0.6027
598.90 0.6023
599.00 0.602
599.10 0.6016
599.20 0.6013
599.30 0.601
599.40 0.6006
599.50 0.6003
599.60 0.5999
599.70 0.5996
599.80 0.5992
599.90 0.5989
600.00 0.5986
600.10 0.5982
600.20 0.5979
600.30 0.5975
600.40 0.5972
600.50 0.5969
600.60 0.5965
600.70 0.5962
600.80 0.5958
600.90 0.5955
601.00 0.5951
601.10 0.5948
601.20 0.5945
601.30 0.5941
601.40 0.5938
601.50 0.5935
601.60 0.5931
601.70 0.5928
601.80 0.5924
601.90 0.5921
602.00 0.5918
602.10 0.5914
602.20 0.5911
602.30 0.5907
602.40 0.5904
602.50 0.5901
602.60 0.5897
602.70 0.5894
602.80 0.5891
602.90 0.5887
603.00 0.5884
603.10 0.588
603.20 0.5877
603.30 0.5874
603.40 0.587
603.50 0.5867
603.60 0.5864
603.70 0.586
603.80 0.5857
603.90 0.5854
604.00 0.585
604.10 0.5847
604.20 0.5844
604.30 0.584
604.40 0.5837
604.50 0.5833
604.60 0.583
604.70 0.5827
604.80 0.5823
604.90 0.582
605.00 0.5817
605.10 0.5813
605.20 0.581
605.30 0.5807
605.40 0.5803
605.50 0.58
605.60 0.5797
605.70 0.5793
605.80 0.579
605.90 0.5787
606.00 0.5783
606.10 0.578
606.20 0.5777
606.30 0.5774
606.40 0.577
606.50 0.5767
606.60 0.5764
606.70 0.576
606.80 0.5757
606.90 0.5754
607.00 0.575
607.10 0.5747
607.20 0.5744
607.30 0.574
607.40 0.5737
607.50 0.5734
607.60 0.5731
607.70 0.5727
607.80 0.5724
607.90 0.5721
608.00 0.5717
608.10 0.5714
608.20 0.5711
608.30 0.5707
608.40 0.5704
608.50 0.5701
608.60 0.5698
608.70 0.5694
608.80 0.5691
608.90 0.5688
609.00 0.5684
609.10 0.5681
609.20 0.5678
609.30 0.5675
609.40 0.5671
609.50 0.5668
609.60 0.5665
609.70 0.5661
609.80 0.5658
609.90 0.5655
610.00 0.5652
610.10 0.5648
610.20 0.5645
610.30 0.5642
610.40 0.5639
610.50 0.5635
610.60 0.5632
610.70 0.5629
610.80 0.5625
610.90 0.5622
611.00 0.5619
611.10 0.5616
611.20 0.5612
611.30 0.5609
611.40 0.5606
611.50 0.5603
611.60 0.5599
611.70 0.5596
611.80 0.5593
611.90 0.559
612.00 0.5586
612.10 0.5583
612.20 0.558
612.30 0.5577
612.40 0.5573
612.50 0.557
612.60 0.5567
612.70 0.5564
612.80 0.556
612.90 0.5557
613.00 0.5554
613.10 0.5551
613.20 0.5547
613.30 0.5544
613.40 0.5541
613.50 0.5538
613.60 0.5534
613.70 0.5531
613.80 0.5528
613.90 0.5525
614.00 0.5521
614.10 0.5518
614.20 0.5515
614.30 0.5511
614.40 0.5508
614.50 0.5505
614.60 0.5502
614.70 0.5498
614.80 0.5495
614.90 0.5492
615.00 0.5489
615.10 0.5486
615.20 0.5482
615.30 0.5479
615.40 0.5476
615.50 0.5473
615.60 0.5469
615.70 0.5466
615.80 0.5463
615.90 0.546
616.00 0.5456
616.10 0.5453
616.20 0.545
616.30 0.5447
616.40 0.5443
616.50 0.544
616.60 0.5437
616.70 0.5434
616.80 0.543
616.90 0.5427
617.00 0.5424
617.10 0.5421
617.20 0.5417
617.30 0.5414
617.40 0.5411
617.50 0.5408
617.60 0.5404
617.70 0.5401
617.80 0.5398
617.90 0.5395
618.00 0.5391
618.10 0.5388
618.20 0.5385
618.30 0.5382
618.40 0.5378
618.50 0.5375
618.60 0.5372
618.70 0.5368
618.80 0.5365
618.90 0.5362
619.00 0.5359
619.10 0.5355
619.20 0.5352
619.30 0.5349
619.40 0.5346
619.50 0.5342
619.60 0.5339
619.70 0.5336
619.80 0.5332
619.90 0.5329
620.00 0.5326
620.10 0.5323
620.20 0.5319
620.30 0.5316
620.40 0.5313
620.50 0.531
620.60 0.5306
620.70 0.5303
620.80 0.53
620.90 0.5296
621.00 0.5293
621.10 0.529
621.20 0.5287
621.30 0.5283
621.40 0.528
621.50 0.5277
621.60 0.5273
621.70 0.527
621.80 0.5267
621.90 0.5264
622.00 0.526
622.10 0.5257
622.20 0.5254
622.30 0.525
622.40 0.5247
622.50 0.5244
622.60 0.524
622.70 0.5237
622.80 0.5234
622.90 0.523
623.00 0.5227
623.10 0.5224
623.20 0.522
623.30 0.5217
623.40 0.5214
623.50 0.521
623.60 0.5207
623.70 0.5204
623.80 0.52
623.90 0.5197
624.00 0.5194
624.10 0.5191
624.20 0.5187
624.30 0.5184
624.40 0.518
624.50 0.5177
624.60 0.5174
624.70 0.517
624.80 0.5167
624.90 0.5164
625.00 0.516
625.10 0.5157
625.20 0.5154
625.30 0.515
625.40 0.5147
625.50 0.5143
625.60 0.514
625.70 0.5137
625.80 0.5133
625.90 0.513
626.00 0.5127
626.10 0.5123
626.20 0.512
626.30 0.5116
626.40 0.5113
626.50 0.511
626.60 0.5106
626.70 0.5103
626.80 0.5099
626.90 0.5096
627.00 0.5092
627.10 0.5089
627.20 0.5086
627.30 0.5082
627.40 0.5079
627.50 0.5075
627.60 0.5072
627.70 0.5068
627.80 0.5065
627.90 0.5061
628.00 0.5058
628.10 0.5055
628.20 0.5051
628.30 0.5048
628.40 0.5044
628.50 0.5041
628.60 0.5037
628.70 0.5034
628.80 0.503
628.90 0.5027
629.00 0.5023
629.10 0.502
629.20 0.5016
629.30 0.5013
629.40 0.5009
629.50 0.5005
629.60 0.5002
629.70 0.4998
629.80 0.4995
629.90 0.4991
630.00 0.4988
630.10 0.4984
630.20 0.4981
630.30 0.4977
630.40 0.4973
630.50 0.497
630.60 0.4966
630.70 0.4963
630.80 0.4959
630.90 0.4955
631.00 0.4952
631.10 0.4948
631.20 0.4944
631.30 0.4941
631.40 0.4937
631.50 0.4933
631.60 0.493
631.70 0.4926
631.80 0.4922
631.90 0.4918
632.00 0.4915
632.10 0.4911
632.20 0.4907
632.30 0.4904
632.40 0.49
632.50 0.4896
632.60 0.4892
632.70 0.4888
632.80 0.4885
632.90 0.4881
633.00 0.4877
633.10 0.4873
633.20 0.4869
633.30 0.4866
633.40 0.4862
633.50 0.4858
633.60 0.4854
633.70 0.485
633.80 0.4846
633.90 0.4842
634.00 0.4838
634.10 0.4834
634.20 0.483
634.30 0.4826
634.40 0.4822
634.50 0.4818
634.60 0.4814
634.70 0.481
634.80 0.4806
634.90 0.4802
635.00 0.4798
635.10 0.4794
635.20 0.479
635.30 0.4786
635.40 0.4781
635.50 0.4777
635.60 0.4773
635.70 0.4769
635.80 0.4765
635.90 0.476
636.00 0.4756
636.10 0.4752
636.20 0.4748
636.30 0.4743
636.40 0.4739
636.50 0.4735
636.60 0.473
636.70 0.4726
636.80 0.4721
636.90 0.4717
637.00 0.4713
637.10 0.4708
637.20 0.4704
637.30 0.47
637.40 0.4695
637.50 0.469
637.60 0.4686
637.70 0.4681
637.80 0.4677
637.90 0.4672
638.00 0.4667
638.10 0.4663
638.20 0.4658
638.30 0.4654
638.40 0.4649
638.50 0.4644
638.60 0.4639
638.70 0.4634
638.80 0.4629
638.90 0.4625
639.00 0.462
639.10 0.4615
639.20 0.461
639.30 0.4605
639.40 0.46
639.50 0.4595
639.60 0.459
639.70 0.4585
639.80 0.458
639.90 0.4575
640.00 0.457
640.10 0.4564
640.20 0.4559
640.30 0.4554
640.40 0.4549
640.50 0.4543
640.60 0.4538
640.70 0.4533
640.80 0.4527
640.90 0.4522
641.00 0.4517
641.10 0.4511
641.20 0.4506
641.30 0.45
641.40 0.4495
641.50 0.4489
641.60 0.4483
641.70 0.4477
641.80 0.4472
641.90 0.4466
642.00 0.446
642.10 0.4455
642.20 0.4449
642.30 0.4443
642.40 0.4437
642.50 0.4431
642.60 0.4425
642.70 0.4419
642.80 0.4413
642.90 0.4406
643.00 0.44
643.10 0.4394
643.20 0.4388
643.30 0.4382
643.40 0.4375
643.50 0.4369
643.60 0.4362
643.70 0.4356
643.80 0.4349
643.90 0.4343
644.00 0.4336
644.10 0.433
644.20 0.4323
644.30 0.4316
644.40 0.4309
644.50 0.4302
644.60 0.4295
644.70 0.4288
644.80 0.4281
644.90 0.4274
645.00 0.4267
645.10 0.426
645.20 0.4253
645.30 0.4245
645.40 0.4238
645.50 0.423
645.60 0.4222
645.70 0.4215
645.80 0.4207
645.90 0.4199
646.00 0.4192
646.10 0.4184
646.20 0.4177
646.30 0.4169
646.40 0.416
646.50 0.4152
646.60 0.4144
646.70 0.4135
646.80 0.4127
646.90 0.4119
647.00 0.411
647.10 0.4102
647.20 0.4094
647.30 0.4085
647.40 0.4076
647.50 0.4066
647.60 0.4057
647.70 0.4048
647.80 0.4038
647.90 0.4029
648.00 0.402
648.10 0.401
648.20 0.4001
648.30 0.3991
648.40 0.3981
648.50 0.397
648.60 0.3959
648.70 0.3949
648.80 0.3938
648.90 0.3927
649.00 0.3917
649.10 0.3906
649.20 0.3895
649.30 0.3885
649.40 0.3872
649.50 0.386
649.60 0.3848
649.70 0.3836
649.80 0.3824
649.90 0.3812
650.00 0.38
650.10 0.3788
650.20 0.3776
650.30 0.3763
650.40 0.3749
650.50 0.3735
650.60 0.3721
650.70 0.3707
650.80 0.3693
650.90 0.3679
651.00 0.3665
651.10 0.3651
651.20 0.3637
651.30 0.3622
651.40 0.3606
651.50 0.359
651.60 0.3574
651.70 0.3558
651.80 0.3542
651.90 0.3525
652.00 0.3509
652.10 0.3493
652.20 0.3477
652.30 0.3461
652.40 0.3441
652.50 0.3422
652.60 0.3403
652.70 0.3384
652.80 0.3365
652.90 0.3346
653.00 0.3327
653.10 0.3308
653.20 0.3289
653.30 0.327
653.40 0.3246
653.50 0.3223
653.60 0.3199
653.70 0.3176
653.80 0.3153
653.90 0.3129
654.00 0.3106
654.10 0.3083
654.20 0.306
654.30 0.3036
654.40 0.3009
654.50 0.2982
654.60 0.2956
654.70 0.2929
654.80 0.2902
654.90 0.2873
655.00 0.2845
655.10 0.2816
655.20 0.2787
655.30 0.2758
655.40 0.2726
655.50 0.2694
655.60 0.2658
655.70 0.262
655.80 0.2575
655.90 0.2522
656.00 0.2438
656.10 0.2344
656.20 0.2123
656.30 0.194
656.40 0.2228
656.50 0.2382
656.60 0.2464
656.70 0.2538
656.80 0.2581
656.90 0.2623
657.00 0.2657
657.10 0.2689
657.20 0.2718
657.30 0.2746
657.40 0.2773
657.50 0.2799
657.60 0.2825
657.70 0.2851
657.80 0.2877
657.90 0.2901
658.00 0.2924
658.10 0.2948
658.20 0.2972
658.30 0.2995
658.40 0.3015
658.50 0.3035
658.60 0.3055
658.70 0.3076
658.80 0.3096
658.90 0.3116
659.00 0.3136
659.10 0.3156
659.20 0.3176
659.30 0.3196
659.40 0.3211
659.50 0.3227
659.60 0.3242
659.70 0.3258
659.80 0.3273
659.90 0.3289
660.00 0.3304
660.10 0.332
660.20 0.3335
660.30 0.335
660.40 0.3362
660.50 0.3375
660.60 0.3387
660.70 0.34
660.80 0.3412
660.90 0.3424
661.00 0.3437
661.10 0.3449
661.20 0.3462
661.30 0.3473
661.40 0.3484
661.50 0.3494
661.60 0.3504
661.70 0.3514
661.80 0.3524
661.90 0.3534
662.00 0.3544
662.10 0.3554
662.20 0.3564
662.30 0.3574
662.40 0.3582
662.50 0.359
662.60 0.3598
662.70 0.3606
662.80 0.3613
662.90 0.3621
663.00 0.3629
663.10 0.3637
663.20 0.3645
663.30 0.3653
663.40 0.3659
663.50 0.3666
663.60 0.3672
663.70 0.3678
663.80 0.3685
663.90 0.3691
664.00 0.3697
664.10 0.3704
664.20 0.371
664.30 0.3716
664.40 0.3721
664.50 0.3726
664.60 0.3731
664.70 0.3736
664.80 0.3741
664.90 0.3746
665.00 0.3751
665.10 0.3756
665.20 0.3761
665.30 0.3766
665.40 0.3769
665.50 0.3773
665.60 0.3777
665.70 0.3781
665.80 0.3785
665.90 0.3789
666.00 0.3793
666.10 0.3797
666.20 0.38
666.30 0.3804
666.40 0.3807
666.50 0.381
666.60 0.3813
666.70 0.3817
666.80 0.382
666.90 0.3823
667.00 0.3826
667.10 0.3829
667.20 0.3832
667.30 0.3835
667.40 0.3837
667.50 0.384
667.60 0.3842
667.70 0.3845
667.80 0.3847
667.90 0.385
668.00 0.3852
668.10 0.3854
668.20 0.3857
668.30 0.3859
668.40 0.3861
668.50 0.3863
668.60 0.3865
668.70 0.3867
668.80 0.3868
668.90 0.387
669.00 0.3872
669.10 0.3874
669.20 0.3876
669.30 0.3878
669.40 0.3879
669.50 0.388
669.60 0.3882
669.70 0.3883
669.80 0.3884
669.90 0.3886
670.00 0.3887
670.10 0.3888
670.20 0.389
670.30 0.3891
670.40 0.3892
670.50 0.3893
670.60 0.3894
670.70 0.3895
670.80 0.3896
670.90 0.3897
671.00 0.3897
671.10 0.3898
671.20 0.3899
671.30 0.39
671.40 0.3901
671.50 0.3901
671.60 0.3902
671.70 0.3902
671.80 0.3903
671.90 0.3904
672.00 0.3904
672.10 0.3905
672.20 0.3905
672.30 0.3906
672.40 0.3906
672.50 0.3906
672.60 0.3906
672.70 0.3907
672.80 0.3907
672.90 0.3907
673.00 0.3907
673.10 0.3908
673.20 0.3908
673.30 0.3908
673.40 0.3908
673.50 0.3908
673.60 0.3908
673.70 0.3908
673.80 0.3908
673.90 0.3908
674.00 0.3908
674.10 0.3908
674.20 0.3908
674.30 0.3908
674.40 0.3907
674.50 0.3907
674.60 0.3907
674.70 0.3907
674.80 0.3906
674.90 0.3906
675.00 0.3906
675.10 0.3905
675.20 0.3905
675.30 0.3905
675.40 0.3904
675.50 0.3904
675.60 0.3903
675.70 0.3903
675.80 0.3902
675.90 0.3902
676.00 0.3901
676.10 0.3901
676.20 0.39
676.30 0.39
676.40 0.3899
676.50 0.3899
676.60 0.3898
676.70 0.3897
676.80 0.3897
676.90 0.3896
677.00 0.3895
677.10 0.3895
677.20 0.3894
677.30 0.3893
677.40 0.3892
677.50 0.3892
677.60 0.3891
677.70 0.389
677.80 0.3889
677.90 0.3888
678.00 0.3887
678.10 0.3887
678.20 0.3886
678.30 0.3885
678.40 0.3884
678.50 0.3883
678.60 0.3882
678.70 0.3881
678.80 0.388
678.90 0.3879
679.00 0.3878
679.10 0.3877
679.20 0.3876
679.30 0.3875
679.40 0.3874
679.50 0.3873
679.60 0.3872
679.70 0.3871
679.80 0.387
679.90 0.3869
680.00 0.3868
680.10 0.3867
680.20 0.3866
680.30 0.3865
680.40 0.3864
680.50 0.3863
680.60 0.3861
680.70 0.386
680.80 0.3859
680.90 0.3858
681.00 0.3857
681.10 0.3856
681.20 0.3854
681.30 0.3853
681.40 0.3852
681.50 0.3851
681.60 0.385
681.70 0.3848
681.80 0.3847
681.90 0.3846
682.00 0.3845
682.10 0.3843
682.20 0.3842
682.30 0.3841
682.40 0.384
682.50 0.3838
682.60 0.3837
682.70 0.3836
682.80 0.3834
682.90 0.3833
683.00 0.3832
683.10 0.3831
683.20 0.3829
683.30 0.3828
683.40 0.3827
683.50 0.3825
683.60 0.3824
683.70 0.3822
683.80 0.3821
683.90 0.382
684.00 0.3818
684.10 0.3817
684.20 0.3816
684.30 0.3814
684.40 0.3813
684.50 0.3812
684.60 0.381
684.70 0.3809
684.80 0.3807
684.90 0.3806
685.00 0.3805
685.10 0.3803
685.20 0.3802
685.30 0.38
685.40 0.3799
685.50 0.3797
685.60 0.3796
685.70 0.3795
685.80 0.3793
685.90 0.3792
686.00 0.379
686.10 0.3789
686.20 0.3787
686.30 0.3786
686.40 0.3784
686.50 0.3783
686.60 0.3781
686.70 0.378
686.80 0.3779
686.90 0.3777
687.00 0.3776
687.10 0.3774
687.20 0.3773
687.30 0.3771
687.40 0.377
687.50 0.3768
687.60 0.3767
687.70 0.3765
687.80 0.3764
687.90 0.3762
688.00 0.3761
688.10 0.3759
688.20 0.3758
688.30 0.3756
688.40 0.3755
688.50 0.3753
688.60 0.3752
688.70 0.375
688.80 0.3748
688.90 0.3747
689.00 0.3745
689.10 0.3744
689.20 0.3742
689.30 0.3741
689.40 0.3739
689.50 0.3738
689.60 0.3736
689.70 0.3734
689.80 0.3733
689.90 0.3731
690.00 0.3729
690.10 0.3728
690.20 0.3726
690.30 0.3724
690.40 0.3723
690.50 0.3721
690.60 0.372
690.70 0.3718
690.80 0.3716
690.90 0.3715
691.00 0.3713
691.10 0.3711
691.20 0.371
691.30 0.3708
691.40 0.3707
691.50 0.3705
691.60 0.3703
691.70 0.3702
691.80 0.37
691.90 0.3698
692.00 0.3697
692.10 0.3695
692.20 0.3694
692.30 0.3692
692.40 0.369
692.50 0.3689
692.60 0.3687
692.70 0.3685
692.80 0.3684
692.90 0.3682
693.00 0.3681
693.10 0.3679
693.20 0.3677
693.30 0.3676
693.40 0.3674
693.50 0.3673
693.60 0.3671
693.70 0.3669
693.80 0.3668
693.90 0.3666
694.00 0.3665
694.10 0.3663
694.20 0.3661
694.30 0.366
694.40 0.3658
694.50 0.3657
694.60 0.3655
694.70 0.3653
694.80 0.3652
694.90 0.365
695.00 0.3649
695.10 0.3647
695.20 0.3645
695.30 0.3644
695.40 0.3642
695.50 0.3641
695.60 0.3639
695.70 0.3637
695.80 0.3636
695.90 0.3634
696.00 0.3633
696.10 0.3631
696.20 0.3629
696.30 0.3628
696.40 0.3626
696.50 0.3625
696.60 0.3623
696.70 0.3622
696.80 0.362
696.90 0.3618
697.00 0.3617
697.10 0.3615
697.20 0.3614
697.30 0.3612
697.40 0.361
697.50 0.3609
697.60 0.3607
697.70 0.3606
697.80 0.3604
697.90 0.3603
698.00 0.3601
698.10 0.3599
698.20 0.3598
698.30 0.3596
698.40 0.3595
698.50 0.3593
698.60 0.3592
698.70 0.359
698.80 0.3588
698.90 0.3587
699.00 0.3585
699.10 0.3584
699.20 0.3582
699.30 0.3581
699.40 0.3579
699.50 0.3577
699.60 0.3576
699.70 0.3574
699.80 0.3573
699.90 0.3571
700.00 0.357
700.10 0.3568
700.20 0.3567
700.30 0.3565
700.40 0.3564
700.50 0.3562
700.60 0.3561
700.70 0.3559
700.80 0.3558
700.90 0.3556
701.00 0.3555
701.10 0.3553
701.20 0.3552
701.30 0.355
701.40 0.3549
701.50 0.3547
701.60 0.3546
701.70 0.3544
701.80 0.3543
701.90 0.3541
702.00 0.354
702.10 0.3538
702.20 0.3537
702.30 0.3535
702.40 0.3534
702.50 0.3533
702.60 0.3531
702.70 0.353
702.80 0.3528
702.90 0.3527
703.00 0.3525
703.10 0.3524
703.20 0.3522
703.30 0.3521
703.40 0.3519
703.50 0.3518
703.60 0.3516
703.70 0.3515
703.80 0.3513
703.90 0.3512
704.00 0.351
704.10 0.3509
704.20 0.3508
704.30 0.3506
704.40 0.3505
704.50 0.3503
704.60 0.3502
704.70 0.35
704.80 0.3499
704.90 0.3497
705.00 0.3496
705.10 0.3494
705.20 0.3493
705.30 0.3491
705.40 0.3489
705.50 0.3488
705.60 0.3486
705.70 0.3484
705.80 0.3483
705.90 0.3481
706.00 0.348
706.10 0.3478
706.20 0.3476
706.30 0.3475
706.40 0.3473
706.50 0.3472
706.60 0.347
706.70 0.3468
706.80 0.3467
706.90 0.3465
707.00 0.3464
707.10 0.3462
707.20 0.346
707.30 0.3459
707.40 0.3457
707.50 0.3455
707.60 0.3454
707.70 0.3452
707.80 0.3451
707.90 0.3449
708.00 0.3447
708.10 0.3446
708.20 0.3444
708.30 0.3443
708.40 0.3441
708.50 0.3439
708.60 0.3438
708.70 0.3436
708.80 0.3435
708.90 0.3433
709.00 0.3431
709.10 0.343
709.20 0.3428
709.30 0.3427
709.40 0.3425
709.50 0.3424
709.60 0.3422
709.70 0.342
709.80 0.3419
709.90 0.3417
710.00 0.3416
710.10 0.3414
710.20 0.3412
710.30 0.3411
710.40 0.3409
710.50 0.3408
710.60 0.3406
710.70 0.3404
710.80 0.3403
710.90 0.3401
711.00 0.34
711.10 0.3398
711.20 0.3397
711.30 0.3395
711.40 0.3393
711.50 0.3392
711.60 0.339
711.70 0.3389
711.80 0.3387
711.90 0.3385
712.00 0.3384
712.10 0.3382
712.20 0.3381
712.30 0.3379
712.40 0.3378
712.50 0.3376
712.60 0.3374
712.70 0.3373
712.80 0.3371
712.90 0.337
713.00 0.3368
713.10 0.3367
713.20 0.3365
713.30 0.3363
713.40 0.3362
713.50 0.336
713.60 0.3359
713.70 0.3357
713.80 0.3356
713.90 0.3354
714.00 0.3353
714.10 0.3351
714.20 0.3349
714.30 0.3348
714.40 0.3346
714.50 0.3345
714.60 0.3343
714.70 0.3342
714.80 0.334
714.90 0.3338
715.00 0.3337
715.10 0.3335
715.20 0.3334
715.30 0.3333
715.40 0.3331
715.50 0.333
715.60 0.3328
715.70 0.3327
715.80 0.3325
715.90 0.3324
716.00 0.3323
716.10 0.3321
716.20 0.332
716.30 0.3318
716.40 0.3317
716.50 0.3315
716.60 0.3314
716.70 0.3312
716.80 0.3311
716.90 0.331
717.00 0.3308
717.10 0.3307
717.20 0.3305
717.30 0.3304
717.40 0.3302
717.50 0.3301
717.60 0.33
717.70 0.3298
717.80 0.3297
717.90 0.3295
718.00 0.3294
718.10 0.3292
718.20 0.3291
718.30 0.329
718.40 0.3288
718.50 0.3287
718.60 0.3285
718.70 0.3284
718.80 0.3283
718.90 0.3281
719.00 0.328
719.10 0.3278
719.20 0.3277
719.30 0.3275
719.40 0.3274
719.50 0.3273
719.60 0.3271
719.70 0.327
719.80 0.3268
719.90 0.3267
720.00 0.3266
720.10 0.3264
720.20 0.3262
720.30 0.3261
720.40 0.3259
720.50 0.3258
720.60 0.3256
720.70 0.3255
720.80 0.3253
720.90 0.3252
721.00 0.325
721.10 0.3249
721.20 0.3247
721.30 0.3246
721.40 0.3244
721.50 0.3242
721.60 0.3241
721.70 0.3239
721.80 0.3238
721.90 0.3236
722.00 0.3235
722.10 0.3233
722.20 0.3232
722.30 0.323
722.40 0.3229
722.50 0.3227
722.60 0.3226
722.70 0.3224
722.80 0.3223
722.90 0.3221
723.00 0.322
723.10 0.3218
723.20 0.3217
723.30 0.3215
723.40 0.3213
723.50 0.3212
723.60 0.321
723.70 0.3209
723.80 0.3207
723.90 0.3206
724.00 0.3204
724.10 0.3203
724.20 0.3201
724.30 0.32
724.40 0.3198
724.50 0.3197
724.60 0.3195
724.70 0.3194
724.80 0.3192
724.90 0.3191
725.00 0.3189
725.10 0.3188
725.20 0.3186
725.30 0.3185
725.40 0.3183
725.50 0.3182
725.60 0.318
725.70 0.3179
725.80 0.3177
725.90 0.3176
726.00 0.3174
726.10 0.3173
726.20 0.3171
726.30 0.317
726.40 0.3168
726.50 0.3167
726.60 0.3165
726.70 0.3164
726.80 0.3162
726.90 0.3161
727.00 0.3159
727.10 0.3158
727.20 0.3156
727.30 0.3155
727.40 0.3153
727.50 0.3152
727.60 0.3151
727.70 0.3149
727.80 0.3148
727.90 0.3146
728.00 0.3145
728.10 0.3143
728.20 0.3142
728.30 0.314
728.40 0.3139
728.50 0.3137
728.60 0.3136
728.70 0.3134
728.80 0.3133
728.90 0.3131
729.00 0.313
729.10 0.3128
729.20 0.3127
729.30 0.3125
729.40 0.3124
729.50 0.3122
729.60 0.3121
729.70 0.312
729.80 0.3118
729.90 0.3117
730.00 0.3115
730.10 0.3114
730.20 0.3112
730.30 0.3111
730.40 0.3109
730.50 0.3108
730.60 0.3106
730.70 0.3105
730.80 0.3104
730.90 0.3102
731.00 0.3101
731.10 0.3099
731.20 0.3098
731.30 0.3096
731.40 0.3095
731.50 0.3093
731.60 0.3092
731.70 0.3091
731.80 0.3089
731.90 0.3088
732.00 0.3086
732.10 0.3085
732.20 0.3083
732.30 0.3082
732.40 0.308
732.50 0.3079
732.60 0.3078
732.70 0.3076
732.80 0.3075
732.90 0.3073
733.00 0.3072
733.10 0.307
733.20 0.3069
733.30 0.3068
733.40 0.3066
733.50 0.3065
733.60 0.3063
733.70 0.3062
733.80 0.306
733.90 0.3059
734.00 0.3058
734.10 0.3056
734.20 0.3055
734.30 0.3053
734.40 0.3052
734.50 0.305
734.60 0.3049
734.70 0.3048
734.80 0.3046
734.90 0.3045
735.00 0.3043
735.10 0.3042
735.20 0.3041
735.30 0.3039
735.40 0.3038
735.50 0.3036
735.60 0.3035
735.70 0.3033
735.80 0.3032
735.90 0.3031
736.00 0.3029
736.10 0.3028
736.20 0.3026
736.30 0.3025
736.40 0.3024
736.50 0.3022
736.60 0.3021
736.70 0.3019
736.80 0.3018
736.90 0.3017
737.00 0.3015
737.10 0.3014
737.20 0.3012
737.30 0.3011
737.40 0.301
737.50 0.3008
737.60 0.3007
737.70 0.3005
737.80 0.3004
737.90 0.3003
738.00 0.3001
738.10 0.3
738.20 0.2998
738.30 0.2997
738.40 0.2996
738.50 0.2994
738.60 0.2993
738.70 0.2991
738.80 0.299
738.90 0.2989
739.00 0.2987
739.10 0.2986
739.20 0.2984
739.30 0.2983
739.40 0.2982
739.50 0.298
739.60 0.2979
739.70 0.2977
739.80 0.2976
739.90 0.2975
740.00 0.2973
740.10 0.2972
740.20 0.2971
740.30 0.2969
740.40 0.2968
740.50 0.2966
740.60 0.2965
740.70 0.2964
740.80 0.2962
740.90 0.2961
741.00 0.296
741.10 0.2958
741.20 0.2957
741.30 0.2956
741.40 0.2954
741.50 0.2953
741.60 0.2951
741.70 0.295
741.80 0.2949
741.90 0.2947
742.00 0.2946
742.10 0.2945
742.20 0.2943
742.30 0.2942
742.40 0.2941
742.50 0.2939
742.60 0.2938
742.70 0.2937
742.80 0.2935
742.90 0.2934
743.00 0.2932
743.10 0.2931
743.20 0.293
743.30 0.2928
743.40 0.2927
743.50 0.2926
743.60 0.2924
743.70 0.2923
743.80 0.2922
743.90 0.292
744.00 0.2919
744.10 0.2918
744.20 0.2916
744.30 0.2915
744.40 0.2914
744.50 0.2912
744.60 0.2911
744.70 0.291
744.80 0.2908
744.90 0.2907
745.00 0.2906
745.10 0.2904
745.20 0.2903
745.30 0.2902
745.40 0.29
745.50 0.2899
745.60 0.2898
745.70 0.2896
745.80 0.2895
745.90 0.2894
746.00 0.2892
746.10 0.2891
746.20 0.289
746.30 0.2888
746.40 0.2887
746.50 0.2886
746.60 0.2884
746.70 0.2883
746.80 0.2882
746.90 0.288
747.00 0.2879
747.10 0.2878
747.20 0.2876
747.30 0.2875
747.40 0.2874
747.50 0.2872
747.60 0.2871
747.70 0.287
747.80 0.2868
747.90 0.2867
748.00 0.2866
748.10 0.2864
748.20 0.2863
748.30 0.2862
748.40 0.286
748.50 0.2859
748.60 0.2858
748.70 0.2856
748.80 0.2855
748.90 0.2854
749.00 0.2852
749.10 0.2851
749.20 0.285
749.30 0.2849
749.40 0.2847
749.50 0.2846
749.60 0.2845
749.70 0.2843
749.80 0.2842
749.90 0.2841
750.00 0.2839
750.10 0.2838
750.20 0.2837
750.30 0.2835
750.40 0.2834
750.50 0.2833
750.60 0.2832
750.70 0.283
750.80 0.2829
750.90 0.2828
751.00 0.2826
751.10 0.2825
751.20 0.2824
751.30 0.2823
751.40 0.2821
751.50 0.282
751.60 0.2819
751.70 0.2817
751.80 0.2816
751.90 0.2815
752.00 0.2814
752.10 0.2812
752.20 0.2811
752.30 0.281
752.40 0.2808
752.50 0.2807
752.60 0.2806
752.70 0.2805
752.80 0.2803
752.90 0.2802
753.00 0.2801
753.10 0.28
753.20 0.2798
753.30 0.2797
753.40 0.2796
753.50 0.2794
753.60 0.2793
753.70 0.2792
753.80 0.2791
753.90 0.2789
754.00 0.2788
754.10 0.2787
754.20 0.2786
754.30 0.2784
754.40 0.2783
754.50 0.2782
754.60 0.278
754.70 0.2779
754.80 0.2778
754.90 0.2777
755.00 0.2775
755.10 0.2774
755.20 0.2773
755.30 0.2772
755.40 0.277
755.50 0.2769
755.60 0.2768
755.70 0.2767
755.80 0.2765
755.90 0.2764
756.00 0.2763
756.10 0.2762
756.20 0.276
756.30 0.2759
756.40 0.2758
756.50 0.2757
756.60 0.2755
756.70 0.2754
756.80 0.2753
756.90 0.2751
757.00 0.275
757.10 0.2749
757.20 0.2748
757.30 0.2746
757.40 0.2745
757.50 0.2744
757.60 0.2743
757.70 0.2741
757.80 0.274
757.90 0.2739
758.00 0.2738
758.10 0.2736
758.20 0.2735
758.30 0.2734
758.40 0.2733
758.50 0.2732
758.60 0.273
758.70 0.2729
758.80 0.2728
758.90 0.2727
759.00 0.2725
759.10 0.2724
759.20 0.2723
759.30 0.2722
759.40 0.272
759.50 0.2719
759.60 0.2718
759.70 0.2717
759.80 0.2715
759.90 0.2714
760.00 0.2713
760.10 0.2712
760.20 0.271
760.30 0.2709
760.40 0.2708
760.50 0.2707
760.60 0.2706
760.70 0.2704
760.80 0.2703
760.90 0.2702
761.00 0.2701
761.10 0.2699
761.20 0.2698
761.30 0.2697
761.40 0.2696
761.50 0.2695
761.60 0.2693
761.70 0.2692
761.80 0.2691
761.90 0.269
762.00 0.2689
762.10 0.2687
762.20 0.2686
762.30 0.2685
762.40 0.2684
762.50 0.2683
762.60 0.2681
762.70 0.268
762.80 0.2679
762.90 0.2678
763.00 0.2676
763.10 0.2675
763.20 0.2674
763.30 0.2673
763.40 0.2672
763.50 0.267
763.60 0.2669
763.70 0.2668
763.80 0.2667
763.90 0.2666
764.00 0.2664
764.10 0.2663
764.20 0.2662
764.30 0.2661
764.40 0.266
764.50 0.2658
764.60 0.2657
764.70 0.2656
764.80 0.2655
764.90 0.2654
765.00 0.2652
765.10 0.2651
765.20 0.265
765.30 0.2649
765.40 0.2648
765.50 0.2646
765.60 0.2645
765.70 0.2644
765.80 0.2643
765.90 0.2642
766.00 0.2641
766.10 0.2639
766.20 0.2638
766.30 0.2637
766.40 0.2636
766.50 0.2635
766.60 0.2633
766.70 0.2632
766.80 0.2631
766.90 0.263
767.00 0.2629
767.10 0.2627
767.20 0.2626
767.30 0.2625
767.40 0.2624
767.50 0.2623
767.60 0.2622
767.70 0.262
767.80 0.2619
767.90 0.2618
768.00 0.2617
768.10 0.2616
768.20 0.2614
768.30 0.2613
768.40 0.2612
768.50 0.2611
768.60 0.261
768.70 0.2609
768.80 0.2607
768.90 0.2606
769.00 0.2605
769.10 0.2604
769.20 0.2603
769.30 0.2602
769.40 0.26
769.50 0.2599
769.60 0.2598
769.70 0.2597
769.80 0.2596
769.90 0.2595
770.00 0.2593
770.10 0.2592
770.20 0.2591
770.30 0.259
770.40 0.2589
770.50 0.2588
770.60 0.2586
770.70 0.2585
770.80 0.2584
770.90 0.2583
771.00 0.2582
771.10 0.2581
771.20 0.258
771.30 0.2578
771.40 0.2577
771.50 0.2576
771.60 0.2575
771.70 0.2574
771.80 0.2573
771.90 0.2572
772.00 0.257
772.10 0.2569
772.20 0.2568
772.30 0.2567
772.40 0.2566
772.50 0.2565
772.60 0.2563
772.70 0.2562
772.80 0.2561
772.90 0.256
773.00 0.2559
773.10 0.2558
773.20 0.2557
773.30 0.2556
773.40 0.2554
773.50 0.2553
773.60 0.2552
773.70 0.2551
773.80 0.255
773.90 0.2549
774.00 0.2548
774.10 0.2546
774.20 0.2545
774.30 0.2544
774.40 0.2543
774.50 0.2542
774.60 0.2541
774.70 0.254
774.80 0.2538
774.90 0.2537
775.00 0.2536
775.10 0.2535
775.20 0.2534
775.30 0.2533
775.40 0.2532
775.50 0.2531
775.60 0.2529
775.70 0.2528
775.80 0.2527
775.90 0.2526
776.00 0.2525
776.10 0.2524
776.20 0.2523
776.30 0.2522
776.40 0.252
776.50 0.2519
776.60 0.2518
776.70 0.2517
776.80 0.2516
776.90 0.2515
777.00 0.2514
777.10 0.2513
777.20 0.2511
777.30 0.251
777.40 0.2509
777.50 0.2508
777.60 0.2507
777.70 0.2506
777.80 0.2505
777.90 0.2504
778.00 0.2503
778.10 0.2501
778.20 0.25
778.30 0.2499
778.40 0.2498
778.50 0.2497
778.60 0.2496
778.70 0.2495
778.80 0.2494
778.90 0.2493
779.00 0.2491
779.10 0.249
779.20 0.2489
779.30 0.2488
779.40 0.2487
779.50 0.2486
779.60 0.2485
779.70 0.2484
779.80 0.2483
779.90 0.2481
780.00 0.248
780.10 0.2479
780.20 0.2478
780.30 0.2477
780.40 0.2476
780.50 0.2475
780.60 0.2474
780.70 0.2473
780.80 0.2472
780.90 0.2471
781.00 0.2469
781.10 0.2468
781.20 0.2467
781.30 0.2466
781.40 0.2465
781.50 0.2464
781.60 0.2463
781.70 0.2462
781.80 0.2461
781.90 0.246
782.00 0.2459
782.10 0.2457
782.20 0.2456
782.30 0.2455
782.40 0.2454
782.50 0.2453
782.60 0.2452
782.70 0.2451
782.80 0.245
782.90 0.2449
783.00 0.2448
783.10 0.2447
783.20 0.2446
783.30 0.2445
783.40 0.2443
783.50 0.2442
783.60 0.2441
783.70 0.244
783.80 0.2439
783.90 0.2438
784.00 0.2437
784.10 0.2436
784.20 0.2435
784.30 0.2434
784.40 0.2433
784.50 0.2432
784.60 0.2431
784.70 0.2429
784.80 0.2428
784.90 0.2427
785.00 0.2426
785.10 0.2425
785.20 0.2424
785.30 0.2423
785.40 0.2422
785.50 0.2421
785.60 0.242
785.70 0.2419
785.80 0.2418
785.90 0.2417
786.00 0.2416
786.10 0.2415
786.20 0.2413
786.30 0.2412
786.40 0.2411
786.50 0.241
786.60 0.2409
786.70 0.2408
786.80 0.2407
786.90 0.2406
787.00 0.2405
787.10 0.2404
787.20 0.2403
787.30 0.2402
787.40 0.2401
787.50 0.24
787.60 0.2399
787.70 0.2398
787.80 0.2397
787.90 0.2395
788.00 0.2394
788.10 0.2393
788.20 0.2392
788.30 0.2391
788.40 0.239
788.50 0.2389
788.60 0.2388
788.70 0.2387
788.80 0.2386
788.90 0.2385
789.00 0.2384
789.10 0.2383
789.20 0.2382
789.30 0.2381
789.40 0.238
789.50 0.2379
789.60 0.2378
789.70 0.2377
789.80 0.2375
789.90 0.2374
790.00 0.2373
790.10 0.2372
790.20 0.2371
790.30 0.237
790.40 0.2369
790.50 0.2368
790.60 0.2367
790.70 0.2366
790.80 0.2365
790.90 0.2364
791.00 0.2363
791.10 0.2362
791.20 0.2361
791.30 0.236
791.40 0.2359
791.50 0.2358
791.60 0.2357
791.70 0.2356
791.80 0.2355
791.90 0.2354
792.00 0.2353
792.10 0.2352
792.20 0.2351
792.30 0.235
792.40 0.2349
792.50 0.2348
792.60 0.2347
792.70 0.2346
792.80 0.2345
792.90 0.2344
793.00 0.2343
793.10 0.2342
793.20 0.2341
793.30 0.2339
793.40 0.2338
793.50 0.2337
793.60 0.2336
793.70 0.2335
793.80 0.2334
793.90 0.2333
794.00 0.2332
794.10 0.2331
794.20 0.233
794.30 0.2329
794.40 0.2328
794.50 0.2327
794.60 0.2326
794.70 0.2325
794.80 0.2324
794.90 0.2323
795.00 0.2322
795.10 0.2321
795.20 0.232
795.30 0.2319
795.40 0.2318
795.50 0.2317
795.60 0.2316
795.70 0.2315
795.80 0.2314
795.90 0.2313
796.00 0.2312
796.10 0.2311
796.20 0.231
796.30 0.2309
796.40 0.2308
796.50 0.2307
796.60 0.2306
796.70 0.2305
796.80 0.2304
796.90 0.2303
797.00 0.2302
797.10 0.2301
797.20 0.23
797.30 0.2299
797.40 0.2298
797.50 0.2297
797.60 0.2296
797.70 0.2295
797.80 0.2294
797.90 0.2293
798.00 0.2292
798.10 0.2291
798.20 0.229
798.30 0.2289
798.40 0.2288
798.50 0.2287
798.60 0.2286
798.70 0.2285
798.80 0.2284
798.90 0.2283
799.00 0.2282
799.10 0.2281
799.20 0.228
799.30 0.2279
799.40 0.2278
799.50 0.2277
799.60 0.2276
799.70 0.2275
799.80 0.2274
799.90 0.2273
800.00 0.2272
800.10 0.2271
800.20 0.227
800.30 0.2269
800.40 0.2268
800.50 0.2267
800.60 0.2266
800.70 0.2265
800.80 0.2264
800.90 0.2263
801.00 0.2262
801.10 0.2261
801.20 0.226
801.30 0.2259
801.40 0.2258
801.50 0.2257
801.60 0.2257
801.70 0.2256
801.80 0.2255
801.90 0.2254
802.00 0.2253
802.10 0.2252
802.20 0.2251
802.30 0.225
802.40 0.2249
802.50 0.2248
802.60 0.2247
802.70 0.2246
802.80 0.2245
802.90 0.2244
803.00 0.2243
803.10 0.2242
803.20 0.2241
803.30 0.224
803.40 0.2239
803.50 0.2238
803.60 0.2237
803.70 0.2236
803.80 0.2235
803.90 0.2234
804.00 0.2233
804.10 0.2232
804.20 0.2231
804.30 0.223
804.40 0.2229
804.50 0.2228
804.60 0.2227
804.70 0.2227
804.80 0.2226
804.90 0.2225
805.00 0.2224
805.10 0.2223
805.20 0.2222
805.30 0.2221
805.40 0.222
805.50 0.2219
805.60 0.2218
805.70 0.2217
805.80 0.2216
805.90 0.2215
806.00 0.2214
806.10 0.2213
806.20 0.2212
806.30 0.2211
806.40 0.221
806.50 0.2209
806.60 0.2208
806.70 0.2207
806.80 0.2206
806.90 0.2206
807.00 0.2205
807.10 0.2204
807.20 0.2203
807.30 0.2202
807.40 0.2201
807.50 0.22
807.60 0.2199
807.70 0.2198
807.80 0.2197
807.90 0.2196
808.00 0.2195
808.10 0.2194
808.20 0.2193
808.30 0.2192
808.40 0.2191
808.50 0.219
808.60 0.2189
808.70 0.2188
808.80 0.2188
808.90 0.2187
809.00 0.2186
809.10 0.2185
809.20 0.2184
809.30 0.2183
809.40 0.2182
809.50 0.2181
809.60 0.218
809.70 0.2179
809.80 0.2178
809.90 0.2177
810.00 0.2176
810.10 0.2175
810.20 0.2174
810.30 0.2173
810.40 0.2172
810.50 0.2172
810.60 0.2171
810.70 0.217
810.80 0.2169
810.90 0.2168
811.00 0.2167
811.10 0.2166
811.20 0.2165
811.30 0.2164
811.40 0.2163
811.50 0.2162
811.60 0.2161
811.70 0.216
811.80 0.216
811.90 0.2159
812.00 0.2158
812.10 0.2157
812.20 0.2156
812.30 0.2155
812.40 0.2154
812.50 0.2153
812.60 0.2152
812.70 0.2151
812.80 0.215
812.90 0.2149
813.00 0.2149
813.10 0.2148
813.20 0.2147
813.30 0.2146
813.40 0.2145
813.50 0.2144
813.60 0.2143
813.70 0.2142
813.80 0.2141
813.90 0.214
814.00 0.2139
814.10 0.2138
814.20 0.2138
814.30 0.2137
814.40 0.2136
814.50 0.2135
814.60 0.2134
814.70 0.2133
814.80 0.2132
814.90 0.2131
815.00 0.213
815.10 0.2129
815.20 0.2128
815.30 0.2128
815.40 0.2127
815.50 0.2126
815.60 0.2125
815.70 0.2124
815.80 0.2123
815.90 0.2122
816.00 0.2121
816.10 0.212
816.20 0.2119
816.30 0.2118
816.40 0.2118
816.50 0.2117
816.60 0.2116
816.70 0.2115
816.80 0.2114
816.90 0.2113
817.00 0.2112
817.10 0.2111
817.20 0.211
817.30 0.2109
817.40 0.2109
817.50 0.2108
817.60 0.2107
817.70 0.2106
817.80 0.2105
817.90 0.2104
818.00 0.2103
818.10 0.2102
818.20 0.2101
818.30 0.21
818.40 0.21
818.50 0.2099
818.60 0.2098
818.70 0.2097
818.80 0.2096
818.90 0.2095
819.00 0.2094
819.10 0.2093
819.20 0.2092
819.30 0.2092
819.40 0.2091
819.50 0.209
819.60 0.2089
819.70 0.2088
819.80 0.2087
819.90 0.2086
820.00 0.2085
820.10 0.2084
820.20 0.2084
820.30 0.2083
820.40 0.2082
820.50 0.2081
820.60 0.208
820.70 0.2079
820.80 0.2078
820.90 0.2078
821.00 0.2077
821.10 0.2076
821.20 0.2075
821.30 0.2074
821.40 0.2073
821.50 0.2072
821.60 0.2071
821.70 0.207
821.80 0.207
821.90 0.2069
822.00 0.2068
822.10 0.2067
822.20 0.2066
822.30 0.2065
822.40 0.2064
822.50 0.2063
822.60 0.2063
822.70 0.2062
822.80 0.2061
822.90 0.206
823.00 0.2059
823.10 0.2058
823.20 0.2057
823.30 0.2057
823.40 0.2056
823.50 0.2055
823.60 0.2054
823.70 0.2053
823.80 0.2052
823.90 0.2051
824.00 0.205
824.10 0.205
824.20 0.2049
824.30 0.2048
824.40 0.2047
824.50 0.2046
824.60 0.2045
824.70 0.2044
824.80 0.2044
824.90 0.2043
825.00 0.2042
825.10 0.2041
825.20 0.204
825.30 0.2039
825.40 0.2038
825.50 0.2037
825.60 0.2037
825.70 0.2036
825.80 0.2035
825.90 0.2034
826.00 0.2033
826.10 0.2032
826.20 0.2031
826.30 0.2031
826.40 0.203
826.50 0.2029
826.60 0.2028
826.70 0.2027
826.80 0.2026
826.90 0.2025
827.00 0.2025
827.10 0.2024
827.20 0.2023
827.30 0.2022
827.40 0.2021
827.50 0.202
827.60 0.2019
827.70 0.2019
827.80 0.2018
827.90 0.2017
828.00 0.2016
828.10 0.2015
828.20 0.2014
828.30 0.2014
828.40 0.2013
828.50 0.2012
828.60 0.2011
828.70 0.201
828.80 0.2009
828.90 0.2008
829.00 0.2008
829.10 0.2007
829.20 0.2006
829.30 0.2005
829.40 0.2004
829.50 0.2003
829.60 0.2003
829.70 0.2002
829.80 0.2001
829.90 0.2
830.00 0.1999
830.10 0.1998
830.20 0.1998
830.30 0.1997
830.40 0.1996
830.50 0.1995
830.60 0.1994
830.70 0.1993
830.80 0.1993
830.90 0.1992
831.00 0.1991
831.10 0.199
831.20 0.1989
831.30 0.1988
831.40 0.1987
831.50 0.1987
831.60 0.1986
831.70 0.1985
831.80 0.1984
831.90 0.1983
832.00 0.1982
832.10 0.1982
832.20 0.1981
832.30 0.198
832.40 0.1979
832.50 0.1978
832.60 0.1978
832.70 0.1977
832.80 0.1976
832.90 0.1975
833.00 0.1974
833.10 0.1973
833.20 0.1973
833.30 0.1972
833.40 0.1971
833.50 0.197
833.60 0.1969
833.70 0.1968
833.80 0.1968
833.90 0.1967
834.00 0.1966
834.10 0.1965
834.20 0.1964
834.30 0.1963
834.40 0.1963
834.50 0.1962
834.60 0.1961
834.70 0.196
834.80 0.1959
834.90 0.1959
835.00 0.1958
835.10 0.1957
835.20 0.1956
835.30 0.1955
835.40 0.1954
835.50 0.1954
835.60 0.1953
835.70 0.1952
835.80 0.1951
835.90 0.195
836.00 0.195
836.10 0.1949
836.20 0.1948
836.30 0.1947
836.40 0.1946
836.50 0.1946
836.60 0.1945
836.70 0.1944
836.80 0.1943
836.90 0.1942
837.00 0.1941
837.10 0.1941
837.20 0.194
837.30 0.1939
837.40 0.1938
837.50 0.1937
837.60 0.1937
837.70 0.1936
837.80 0.1935
837.90 0.1934
838.00 0.1933
838.10 0.1933
838.20 0.1932
838.30 0.1931
838.40 0.193
838.50 0.1929
838.60 0.1929
838.70 0.1928
838.80 0.1927
838.90 0.1926
839.00 0.1925
839.10 0.1925
839.20 0.1924
839.30 0.1923
839.40 0.1922
839.50 0.1921
839.60 0.1921
839.70 0.192
839.80 0.1919
839.90 0.1918
840.00 0.1917
840.10 0.1917
840.20 0.1916
840.30 0.1915
840.40 0.1914
840.50 0.1913
840.60 0.1913
840.70 0.1912
840.80 0.1911
840.90 0.191
841.00 0.1909
841.10 0.1909
841.20 0.1908
841.30 0.1907
841.40 0.1906
841.50 0.1905
841.60 0.1905
841.70 0.1904
841.80 0.1903
841.90 0.1902
842.00 0.1901
842.10 0.1901
842.20 0.19
842.30 0.1899
842.40 0.1898
842.50 0.1898
842.60 0.1897
842.70 0.1896
842.80 0.1895
842.90 0.1894
843.00 0.1894
843.10 0.1893
843.20 0.1892
843.30 0.1891
843.40 0.189
843.50 0.189
843.60 0.1889
843.70 0.1888
843.80 0.1887
843.90 0.1887
844.00 0.1886
844.10 0.1885
844.20 0.1884
844.30 0.1883
844.40 0.1883
844.50 0.1882
844.60 0.1881
844.70 0.188
844.80 0.188
844.90 0.1879
845.00 0.1878
845.10 0.1877
845.20 0.1876
845.30 0.1876
845.40 0.1875
845.50 0.1874
845.60 0.1873
845.70 0.1873
845.80 0.1872
845.90 0.1871
846.00 0.187
846.10 0.1869
846.20 0.1869
846.30 0.1868
846.40 0.1867
846.50 0.1866
846.60 0.1866
846.70 0.1865
846.80 0.1864
846.90 0.1863
847.00 0.1862
847.10 0.1862
847.20 0.1861
847.30 0.186
847.40 0.1859
847.50 0.1859
847.60 0.1858
847.70 0.1857
847.80 0.1856
847.90 0.1856
848.00 0.1855
848.10 0.1854
848.20 0.1853
848.30 0.1853
848.40 0.1852
848.50 0.1851
848.60 0.185
848.70 0.185
848.80 0.1849
848.90 0.1848
849.00 0.1847
849.10 0.1847
849.20 0.1846
849.30 0.1845
849.40 0.1844
849.50 0.1844
849.60 0.1843
849.70 0.1842
849.80 0.1841
849.90 0.1841
850.00 0.184
850.10 0.1839
850.20 0.1838
850.30 0.1838
850.40 0.1837
850.50 0.1836
850.60 0.1835
850.70 0.1835
850.80 0.1834
850.90 0.1833
851.00 0.1832
851.10 0.1832
851.20 0.1831
851.30 0.183
851.40 0.1829
851.50 0.1829
851.60 0.1828
851.70 0.1827
851.80 0.1826
851.90 0.1826
852.00 0.1825
852.10 0.1824
852.20 0.1824
852.30 0.1823
852.40 0.1822
852.50 0.1821
852.60 0.1821
852.70 0.182
852.80 0.1819
852.90 0.1818
853.00 0.1818
853.10 0.1817
853.20 0.1816
853.30 0.1815
853.40 0.1815
853.50 0.1814
853.60 0.1813
853.70 0.1813
853.80 0.1812
853.90 0.1811
854.00 0.181
854.10 0.181
854.20 0.1809
854.30 0.1808
854.40 0.1807
854.50 0.1807
854.60 0.1806
854.70 0.1805
854.80 0.1804
854.90 0.1804
855.00 0.1803
855.10 0.1802
855.20 0.1802
855.30 0.1801
855.40 0.18
855.50 0.1799
855.60 0.1799
855.70 0.1798
855.80 0.1797
855.90 0.1796
856.00 0.1796
856.10 0.1795
856.20 0.1794
856.30 0.1794
856.40 0.1793
856.50 0.1792
856.60 0.1791
856.70 0.1791
856.80 0.179
856.90 0.1789
857.00 0.1789
857.10 0.1788
857.20 0.1787
857.30 0.1786
857.40 0.1786
857.50 0.1785
857.60 0.1784
857.70 0.1784
857.80 0.1783
857.90 0.1782
858.00 0.1781
858.10 0.1781
858.20 0.178
858.30 0.1779
858.40 0.1779
858.50 0.1778
858.60 0.1777
858.70 0.1776
858.80 0.1776
858.90 0.1775
859.00 0.1774
859.10 0.1774
859.20 0.1773
859.30 0.1772
859.40 0.1772
859.50 0.1771
859.60 0.177
859.70 0.1769
859.80 0.1769
859.90 0.1768
860.00 0.1767
860.10 0.1767
860.20 0.1766
860.30 0.1765
860.40 0.1764
860.50 0.1764
860.60 0.1763
860.70 0.1762
860.80 0.1762
860.90 0.1761
861.00 0.176
861.10 0.176
861.20 0.1759
861.30 0.1758
861.40 0.1757
861.50 0.1757
861.60 0.1756
861.70 0.1755
861.80 0.1755
861.90 0.1754
862.00 0.1753
862.10 0.1753
862.20 0.1752
862.30 0.1751
862.40 0.1751
862.50 0.175
862.60 0.1749
862.70 0.1748
862.80 0.1748
862.90 0.1747
863.00 0.1746
863.10 0.1746
863.20 0.1745
863.30 0.1744
863.40 0.1744
863.50 0.1743
863.60 0.1742
863.70 0.1742
863.80 0.1741
863.90 0.174
864.00 0.174
864.10 0.1739
864.20 0.1738
864.30 0.1738
864.40 0.1737
864.50 0.1736
864.60 0.1736
864.70 0.1735
864.80 0.1734
864.90 0.1733
865.00 0.1733
865.10 0.1732
865.20 0.1731
865.30 0.1731
865.40 0.173
865.50 0.1729
865.60 0.1729
865.70 0.1728
865.80 0.1727
865.90 0.1727
866.00 0.1726
866.10 0.1725
866.20 0.1725
866.30 0.1724
866.40 0.1723
866.50 0.1723
866.60 0.1722
866.70 0.1721
866.80 0.1721
866.90 0.172
867.00 0.1719
867.10 0.1719
867.20 0.1718
867.30 0.1717
867.40 0.1717
867.50 0.1716
867.60 0.1715
867.70 0.1715
867.80 0.1714
867.90 0.1713
868.00 0.1713
868.10 0.1712
868.20 0.1711
868.30 0.1711
868.40 0.171
868.50 0.171
868.60 0.1709
868.70 0.1708
868.80 0.1708
868.90 0.1707
869.00 0.1706
869.10 0.1706
869.20 0.1705
869.30 0.1704
869.40 0.1704
869.50 0.1703
869.60 0.1702
869.70 0.1702
869.80 0.1701
869.90 0.1701
870.00 0.17
870.10 0.1699
870.20 0.1699
870.30 0.1698
870.40 0.1697
870.50 0.1697
870.60 0.1696
870.70 0.1695
870.80 0.1695
870.90 0.1694
871.00 0.1693
871.10 0.1693
871.20 0.1692
871.30 0.1692
871.40 0.1691
871.50 0.169
871.60 0.169
871.70 0.1689
871.80 0.1688
871.90 0.1688
872.00 0.1687
872.10 0.1686
872.20 0.1686
872.30 0.1685
872.40 0.1685
872.50 0.1684
872.60 0.1683
872.70 0.1683
872.80 0.1682
872.90 0.1681
873.00 0.1681
873.10 0.168
873.20 0.1679
873.30 0.1679
873.40 0.1678
873.50 0.1678
873.60 0.1677
873.70 0.1676
873.80 0.1676
873.90 0.1675
874.00 0.1674
874.10 0.1674
874.20 0.1673
874.30 0.1673
874.40 0.1672
874.50 0.1671
874.60 0.1671
874.70 0.167
874.80 0.1669
874.90 0.1669
875.00 0.1668
875.10 0.1668
875.20 0.1667
875.30 0.1666
875.40 0.1666
875.50 0.1665
875.60 0.1664
875.70 0.1664
875.80 0.1663
875.90 0.1663
876.00 0.1662
876.10 0.1661
876.20 0.1661
876.30 0.166
876.40 0.1659
876.50 0.1659
876.60 0.1658
876.70 0.1658
876.80 0.1657
876.90 0.1656
877.00 0.1656
877.10 0.1655
877.20 0.1655
877.30 0.1654
877.40 0.1653
877.50 0.1653
877.60 0.1652
877.70 0.1652
877.80 0.1651
877.90 0.165
878.00 0.165
878.10 0.1649
878.20 0.1649
878.30 0.1648
878.40 0.1647
878.50 0.1647
878.60 0.1646
878.70 0.1646
878.80 0.1645
878.90 0.1645
879.00 0.1644
879.10 0.1643
879.20 0.1643
879.30 0.1642
879.40 0.1642
879.50 0.1641
879.60 0.164
879.70 0.164
879.80 0.1639
879.90 0.1639
880.00 0.1638
880.10 0.1637
880.20 0.1637
880.30 0.1636
880.40 0.1636
880.50 0.1635
880.60 0.1635
880.70 0.1634
880.80 0.1633
880.90 0.1633
881.00 0.1632
881.10 0.1632
881.20 0.1631
881.30 0.163
881.40 0.163
881.50 0.1629
881.60 0.1629
881.70 0.1628
881.80 0.1628
881.90 0.1627
882.00 0.1626
882.10 0.1626
882.20 0.1625
882.30 0.1625
882.40 0.1624
882.50 0.1623
882.60 0.1623
882.70 0.1622
882.80 0.1621
882.90 0.1621
883.00 0.162
883.10 0.1619
883.20 0.1619
883.30 0.1618
883.40 0.1617
883.50 0.1617
883.60 0.1616
883.70 0.1616
883.80 0.1615
883.90 0.1614
884.00 0.1614
884.10 0.1613
884.20 0.1612
884.30 0.1612
884.40 0.1611
884.50 0.1611
884.60 0.161
884.70 0.1609
884.80 0.1609
884.90 0.1608
885.00 0.1607
885.10 0.1607
885.20 0.1606
885.30 0.1605
885.40 0.1605
885.50 0.1604
885.60 0.1604
885.70 0.1603
885.80 0.1602
885.90 0.1602
886.00 0.1601
886.10 0.16
886.20 0.16
886.30 0.1599
886.40 0.1599
886.50 0.1598
886.60 0.1597
886.70 0.1597
886.80 0.1596
886.90 0.1595
887.00 0.1595
887.10 0.1594
887.20 0.1594
887.30 0.1593
887.40 0.1593
887.50 0.1592
887.60 0.1592
887.70 0.1591
887.80 0.1591
887.90 0.159
888.00 0.159
888.10 0.1589
888.20 0.1589
888.30 0.1588
888.40 0.1588
888.50 0.1587
888.60 0.1587
888.70 0.1586
888.80 0.1586
888.90 0.1585
889.00 0.1585
889.10 0.1585
889.20 0.1584
889.30 0.1584
889.40 0.1583
889.50 0.1583
889.60 0.1582
889.70 0.1582
889.80 0.1581
889.90 0.1581
890.00 0.158
890.10 0.158
890.20 0.1579
890.30 0.1579
890.40 0.1578
890.50 0.1578
890.60 0.1577
890.70 0.1577
890.80 0.1576
890.90 0.1576
891.00 0.1575
891.10 0.1575
891.20 0.1574
891.30 0.1574
891.40 0.1573
891.50 0.1573
891.60 0.1572
891.70 0.1572
891.80 0.1571
891.90 0.1571
892.00 0.157
892.10 0.157
892.20 0.1569
892.30 0.1569
892.40 0.1568
892.50 0.1568
892.60 0.1567
892.70 0.1567
892.80 0.1566
892.90 0.1566
893.00 0.1565
893.10 0.1564
893.20 0.1564
893.30 0.1563
893.40 0.1563
893.50 0.1562
893.60 0.1562
893.70 0.1561
893.80 0.1561
893.90 0.156
894.00 0.156
894.10 0.1559
894.20 0.1559
894.30 0.1558
894.40 0.1557
894.50 0.1557
894.60 0.1556
894.70 0.1556
894.80 0.1555
894.90 0.1555
895.00 0.1554
895.10 0.1554
895.20 0.1553
895.30 0.1553
895.40 0.1552
895.50 0.1552
895.60 0.1551
895.70 0.1551
895.80 0.155
895.90 0.1549
896.00 0.1549
896.10 0.1548
896.20 0.1548
896.30 0.1547
896.40 0.1547
896.50 0.1546
896.60 0.1546
896.70 0.1545
896.80 0.1545
896.90 0.1544
897.00 0.1544
897.10 0.1543
897.20 0.1542
897.30 0.1541
897.40 0.1541
897.50 0.154
897.60 0.1539
897.70 0.1539
897.80 0.1538
897.90 0.1537
898.00 0.1537
898.10 0.1536
898.20 0.1535
898.30 0.1535
898.40 0.1534
898.50 0.1533
898.60 0.1532
898.70 0.1532
898.80 0.1531
898.90 0.153
899.00 0.153
899.10 0.1529
899.20 0.1528
899.30 0.1528
899.40 0.1527
899.50 0.1526
899.60 0.1525
899.70 0.1525
899.80 0.1524
899.90 0.1523
900.00 0.1523
900.10 0.1522
900.20 0.1521
900.30 0.1521
900.40 0.152
900.50 0.1519
900.60 0.1519
900.70 0.1518
900.80 0.1517
900.90 0.1516
901.00 0.1516
901.10 0.1515
901.20 0.1514
901.30 0.1514
901.40 0.1513
901.50 0.1512
901.60 0.1512
901.70 0.1511
901.80 0.151
901.90 0.151
902.00 0.1509
902.10 0.1509
902.20 0.1508
902.30 0.1508
902.40 0.1508
902.50 0.1507
902.60 0.1507
902.70 0.1507
902.80 0.1506
902.90 0.1506
903.00 0.1505
903.10 0.1505
903.20 0.1505
903.30 0.1504
903.40 0.1504
903.50 0.1504
903.60 0.1503
903.70 0.1503
903.80 0.1503
903.90 0.1502
904.00 0.1502
904.10 0.1502
904.20 0.1501
904.30 0.1501
904.40 0.1501
904.50 0.15
904.60 0.15
904.70 0.15
904.80 0.1499
904.90 0.1499
905.00 0.1499
905.10 0.1498
905.20 0.1498
905.30 0.1498
905.40 0.1497
905.50 0.1497
905.60 0.1497
905.70 0.1496
905.80 0.1496
905.90 0.1496
906.00 0.1495
906.10 0.1495
906.20 0.1495
906.30 0.1494
906.40 0.1494
906.50 0.1493
906.60 0.1493
906.70 0.1493
906.80 0.1492
906.90 0.1492
907.00 0.1492
907.10 0.1491
907.20 0.1491
907.30 0.149
907.40 0.149
907.50 0.149
907.60 0.1489
907.70 0.1489
907.80 0.1488
907.90 0.1488
908.00 0.1487
908.10 0.1487
908.20 0.1487
908.30 0.1486
908.40 0.1486
908.50 0.1485
908.60 0.1485
908.70 0.1484
908.80 0.1484
908.90 0.1484
909.00 0.1483
909.10 0.1483
909.20 0.1482
909.30 0.1482
909.40 0.1481
909.50 0.1481
909.60 0.1481
909.70 0.148
909.80 0.148
909.90 0.1479
910.00 0.1479
910.10 0.1478
910.20 0.1478
910.30 0.1478
910.40 0.1477
910.50 0.1477
910.60 0.1476
910.70 0.1476
910.80 0.1475
910.90 0.1475
911.00 0.1475
911.10 0.1474
911.20 0.1474
911.30 0.1473
911.40 0.1473
911.50 0.1472
911.60 0.1472
911.70 0.1472
911.80 0.1471
911.90 0.1471
912.00 0.147
912.10 0.147
912.20 0.1469
912.30 0.1469
912.40 0.1468
912.50 0.1468
912.60 0.1467
912.70 0.1467
912.80 0.1466
912.90 0.1465
913.00 0.1465
913.10 0.1464
913.20 0.1464
913.30 0.1463
913.40 0.1463
913.50 0.1462
913.60 0.1462
913.70 0.1461
913.80 0.1461
913.90 0.146
914.00 0.146
914.10 0.1459
914.20 0.1458
914.30 0.1458
914.40 0.1457
914.50 0.1457
914.60 0.1456
914.70 0.1456
914.80 0.1455
914.90 0.1455
915.00 0.1454
915.10 0.1454
915.20 0.1453
915.30 0.1453
915.40 0.1452
915.50 0.1451
915.60 0.1451
915.70 0.145
915.80 0.145
915.90 0.1449
916.00 0.1449
916.10 0.1448
916.20 0.1448
916.30 0.1447
916.40 0.1447
916.50 0.1446
916.60 0.1446
916.70 0.1445
916.80 0.1445
916.90 0.1444
917.00 0.1443
917.10 0.1443
917.20 0.1442
917.30 0.1441
917.40 0.1441
917.50 0.144
917.60 0.1439
917.70 0.1438
917.80 0.1438
917.90 0.1437
918.00 0.1436
918.10 0.1435
918.20 0.1435
918.30 0.1434
918.40 0.1433
918.50 0.1432
918.60 0.1432
918.70 0.1431
918.80 0.143
918.90 0.143
919.00 0.1429
919.10 0.1428
919.20 0.1427
919.30 0.1427
919.40 0.1426
919.50 0.1425
919.60 0.1424
919.70 0.1424
919.80 0.1423
919.90 0.1422
920.00 0.1421
920.10 0.1421
920.20 0.142
920.30 0.1419
920.40 0.1419
920.50 0.1418
920.60 0.1417
920.70 0.1416
920.80 0.1416
920.90 0.1415
921.00 0.1414
921.10 0.1413
921.20 0.1413
921.30 0.1412
921.40 0.1411
921.50 0.1411
921.60 0.141
921.70 0.1409
921.80 0.1408
921.90 0.1408
922.00 0.1407
922.10 0.1406
922.20 0.1405
922.30 0.1405
922.40 0.1404
922.50 0.1403
922.60 0.1402
922.70 0.1402
922.80 0.1401
922.90 0.14
923.00 0.1399
923.10 0.1398
923.20 0.1398
923.30 0.1397
923.40 0.1396
923.50 0.1395
923.60 0.1395
923.70 0.1394
923.80 0.1393
923.90 0.1392
924.00 0.1391
924.10 0.1391
924.20 0.139
924.30 0.1389
924.40 0.1388
924.50 0.1388
924.60 0.1387
924.70 0.1386
924.80 0.1385
924.90 0.1384
925.00 0.1384
925.10 0.1383
925.20 0.1382
925.30 0.1381
925.40 0.1381
925.50 0.138
925.60 0.1379
925.70 0.1378
925.80 0.1378
925.90 0.1377
926.00 0.1376
926.10 0.1375
926.20 0.1374
926.30 0.1374
926.40 0.1373
926.50 0.1372
926.60 0.1371
926.70 0.1371
926.80 0.137
926.90 0.1369
927.00 0.1368
927.10 0.1368
927.20 0.1368
927.30 0.1368
927.40 0.1368
927.50 0.1368
927.60 0.1368
927.70 0.1368
927.80 0.1368
927.90 0.1368
928.00 0.1368
928.10 0.1368
928.20 0.1368
928.30 0.1368
928.40 0.1368
928.50 0.1368
928.60 0.1368
928.70 0.1368
928.80 0.1368
928.90 0.1368
929.00 0.1368
929.10 0.1368
929.20 0.1368
929.30 0.1368
929.40 0.1368
929.50 0.1368
929.60 0.1367
929.70 0.1367
929.80 0.1367
929.90 0.1367
930.00 0.1367
930.10 0.1367
930.20 0.1367
930.30 0.1367
930.40 0.1367
930.50 0.1367
930.60 0.1367
930.70 0.1367
930.80 0.1367
930.90 0.1367
931.00 0.1367
931.10 0.1367
931.20 0.1367
931.30 0.1367
931.40 0.1367
931.50 0.1367
931.60 0.1367
931.70 0.1367
931.80 0.1367
931.90 0.1367
932.00 0.1367
932.10 0.1366
932.20 0.1366
932.30 0.1366
932.40 0.1366
932.50 0.1366
932.60 0.1365
932.70 0.1365
932.80 0.1365
932.90 0.1365
933.00 0.1364
933.10 0.1364
933.20 0.1364
933.30 0.1364
933.40 0.1363
933.50 0.1363
933.60 0.1363
933.70 0.1363
933.80 0.1362
933.90 0.1362
934.00 0.1362
934.10 0.1362
934.20 0.1362
934.30 0.1361
934.40 0.1361
934.50 0.1361
934.60 0.136
934.70 0.136
934.80 0.136
934.90 0.1359
935.00 0.1359
935.10 0.1359
935.20 0.1358
935.30 0.1358
935.40 0.1357
935.50 0.1357
935.60 0.1357
935.70 0.1356
935.80 0.1356
935.90 0.1356
936.00 0.1355
936.10 0.1355
936.20 0.1355
936.30 0.1354
936.40 0.1354
936.50 0.1354
936.60 0.1353
936.70 0.1353
936.80 0.1353
936.90 0.1352
937.00 0.1352
937.10 0.1352
937.20 0.1351
937.30 0.1351
937.40 0.135
937.50 0.135
937.60 0.135
937.70 0.1349
937.80 0.1349
937.90 0.1348
938.00 0.1348
938.10 0.1347
938.20 0.1347
938.30 0.1347
938.40 0.1346
938.50 0.1346
938.60 0.1345
938.70 0.1345
938.80 0.1344
938.90 0.1344
939.00 0.1343
939.10 0.1343
939.20 0.1342
939.30 0.1342
939.40 0.1342
939.50 0.1341
939.60 0.1341
939.70 0.134
939.80 0.134
939.90 0.1339
940.00 0.1339
940.10 0.1338
940.20 0.1338
940.30 0.1337
940.40 0.1337
940.50 0.1336
940.60 0.1336
940.70 0.1335
940.80 0.1335
940.90 0.1334
941.00 0.1334
941.10 0.1333
941.20 0.1332
941.30 0.1332
941.40 0.1331
941.50 0.1331
941.60 0.133
941.70 0.133
941.80 0.1329
941.90 0.1329
942.00 0.1328
942.10 0.1328
942.20 0.1327
942.30 0.1326
942.40 0.1326
942.50 0.1325
942.60 0.1324
942.70 0.1324
942.80 0.1323
942.90 0.1322
943.00 0.1322
943.10 0.1321
943.20 0.132
943.30 0.132
943.40 0.1319
943.50 0.1318
943.60 0.1318
943.70 0.1317
943.80 0.1316
943.90 0.1316
944.00 0.1315
944.10 0.1314
944.20 0.1314
944.30 0.1313
944.40 0.1312
944.50 0.1311
944.60 0.131
944.70 0.131
944.80 0.1309
944.90 0.1308
945.00 0.1307
945.10 0.1306
945.20 0.1306
945.30 0.1305
945.40 0.1304
945.50 0.1303
945.60 0.1302
945.70 0.1301
945.80 0.13
945.90 0.1299
946.00 0.1298
946.10 0.1297
946.20 0.1296
946.30 0.1295
946.40 0.1294
946.50 0.1293
946.60 0.1292
946.70 0.1291
946.80 0.129
946.90 0.1289
947.00 0.1288
947.10 0.1287
947.20 0.1286
947.30 0.1285
947.40 0.1284
947.50 0.1283
947.60 0.1281
947.70 0.128
947.80 0.1279
947.90 0.1278
948.00 0.1276
948.10 0.1275
948.20 0.1274
948.30 0.1273
948.40 0.1271
948.50 0.127
948.60 0.1269
948.70 0.1268
948.80 0.1266
948.90 0.1265
949.00 0.1264
949.10 0.1263
949.20 0.1261
949.30 0.126
949.40 0.1259
949.50 0.1257
949.60 0.1256
949.70 0.1255
949.80 0.1253
949.90 0.1252
950.00 0.1251
950.10 0.1249
950.20 0.1248
950.30 0.1246
950.40 0.1245
950.50 0.1244
950.60 0.1242
950.70 0.1241
950.80 0.124
950.90 0.1238
951.00 0.1237
951.10 0.1236
951.20 0.1234
951.30 0.1233
951.40 0.1232
951.50 0.1231
951.60 0.1229
951.70 0.1228
951.80 0.1227
951.90 0.1226
952.00 0.1225
952.10 0.1224
952.20 0.1223
952.30 0.1222
952.40 0.1221
952.50 0.1221
952.60 0.122
952.70 0.1219
952.80 0.1218
952.90 0.1218
953.00 0.1218
953.10 0.1218
953.20 0.1218
953.30 0.1218
953.40 0.1217
953.50 0.1217
953.60 0.122
953.70 0.1222
953.80 0.1225
953.90 0.1227
954.00 0.123
954.10 0.1234
954.20 0.1236
954.30 0.1223
954.40 0.1207
954.50 0.1204
954.60 0.12
954.70 0.1197
954.80 0.1194
954.90 0.1191
955.00 0.1188
955.10 0.1185
955.20 0.1183
955.30 0.1181
955.40 0.1178
955.50 0.1176
955.60 0.1174
955.70 0.1172
955.80 0.117
955.90 0.117
956.00 0.1169
956.10 0.1169
956.20 0.1169
956.30 0.1169
956.40 0.1169
956.50 0.1169
956.60 0.1169
956.70 0.1168
956.80 0.1168
956.90 0.1168
957.00 0.1168
957.10 0.1168
957.20 0.1168
957.30 0.1169
957.40 0.1169
957.50 0.1169
957.60 0.117
957.70 0.117
957.80 0.1171
957.90 0.1171
958.00 0.1172
958.10 0.1172
958.20 0.1172
958.30 0.1173
958.40 0.1173
958.50 0.1174
958.60 0.1174
958.70 0.1174
958.80 0.1175
958.90 0.1175
959.00 0.1176
959.10 0.1176
959.20 0.1177
959.30 0.1177
959.40 0.1178
959.50 0.1178
959.60 0.1179
959.70 0.1179
959.80 0.1179
959.90 0.118
960.00 0.118
960.10 0.1181
960.20 0.1181
960.30 0.1182
960.40 0.1182
960.50 0.1183
960.60 0.1183
960.70 0.1184
960.80 0.1184
960.90 0.1185
961.00 0.1185
961.10 0.1186
961.20 0.1186
961.30 0.1187
961.40 0.1187
961.50 0.1188
961.60 0.1188
961.70 0.1189
961.80 0.1189
961.90 0.1189
962.00 0.119
962.10 0.119
962.20 0.1191
962.30 0.1191
962.40 0.1191
962.50 0.1192
962.60 0.1192
962.70 0.1192
962.80 0.1193
962.90 0.1193
963.00 0.1193
963.10 0.1194
963.20 0.1194
963.30 0.1194
963.40 0.1195
963.50 0.1195
963.60 0.1195
963.70 0.1195
963.80 0.1196
963.90 0.1196
964.00 0.1196
964.10 0.1196
964.20 0.1197
964.30 0.1197
964.40 0.1197
964.50 0.1197
964.60 0.1197
964.70 0.1198
964.80 0.1198
964.90 0.1198
965.00 0.1198
965.10 0.1198
965.20 0.1198
965.30 0.1198
965.40 0.1199
965.50 0.1199
965.60 0.1199
965.70 0.1199
965.80 0.1199
965.90 0.1199
966.00 0.12
966.10 0.12
966.20 0.12
966.30 0.12
966.40 0.12
966.50 0.12
966.60 0.12
966.70 0.12
966.80 0.12
966.90 0.12
967.00 0.12
967.10 0.12
967.20 0.12
967.30 0.12
967.40 0.12
967.50 0.12
967.60 0.12
967.70 0.12
967.80 0.12
967.90 0.12
968.00 0.12
968.10 0.12
968.20 0.12
968.30 0.12
968.40 0.12
968.50 0.12
968.60 0.12
968.70 0.12
968.80 0.12
968.90 0.12
969.00 0.12
969.10 0.1199
969.20 0.1199
969.30 0.1199
969.40 0.1199
969.50 0.1199
969.60 0.1199
969.70 0.1199
969.80 0.1199
969.90 0.1199
970.00 0.1199
970.10 0.1198
970.20 0.1198
970.30 0.1198
970.40 0.1198
970.50 0.1198
970.60 0.1198
970.70 0.1198
970.80 0.1197
970.90 0.1197
971.00 0.1197
971.10 0.1197
971.20 0.1197
971.30 0.1196
971.40 0.1196
971.50 0.1196
971.60 0.1196
971.70 0.1196
971.80 0.1196
971.90 0.1195
972.00 0.1195
972.10 0.1195
972.20 0.1195
972.30 0.1194
972.40 0.1194
972.50 0.1194
972.60 0.1194
972.70 0.1193
972.80 0.1193
972.90 0.1193
973.00 0.1193
973.10 0.1192
973.20 0.1192
973.30 0.1192
973.40 0.1192
973.50 0.1191
973.60 0.1191
973.70 0.1191
973.80 0.1191
973.90 0.119
974.00 0.119
974.10 0.119
974.20 0.119
974.30 0.1189
974.40 0.1189
974.50 0.1189
974.60 0.1188
974.70 0.1188
974.80 0.1188
974.90 0.1187
975.00 0.1187
975.10 0.1187
975.20 0.1187
975.30 0.1186
975.40 0.1186
975.50 0.1186
975.60 0.1185
975.70 0.1185
975.80 0.1185
975.90 0.1184
976.00 0.1184
976.10 0.1184
976.20 0.1183
976.30 0.1183
976.40 0.1183
976.50 0.1182
976.60 0.1182
976.70 0.1182
976.80 0.1181
976.90 0.1181
977.00 0.1181
977.10 0.118
977.20 0.118
977.30 0.1179
977.40 0.1179
977.50 0.1179
977.60 0.1178
977.70 0.1178
977.80 0.1177
977.90 0.1177
978.00 0.1176
978.10 0.1176
978.20 0.1176
978.30 0.1175
978.40 0.1175
978.50 0.1174
978.60 0.1174
978.70 0.1173
978.80 0.1173
978.90 0.1173
979.00 0.1172
979.10 0.1172
979.20 0.1171
979.30 0.1171
979.40 0.1171
979.50 0.117
979.60 0.117
979.70 0.1169
979.80 0.1169
979.90 0.1168
980.00 0.1168
980.10 0.1168
980.20 0.1167
980.30 0.1167
980.40 0.1166
980.50 0.1166
980.60 0.1165
980.70 0.1165
980.80 0.1165
980.90 0.1164
981.00 0.1164
981.10 0.1163
981.20 0.1163
981.30 0.1163
981.40 0.1162
981.50 0.1162
981.60 0.1161
981.70 0.1161
981.80 0.116
981.90 0.116
982.00 0.116
982.10 0.1159
982.20 0.1159
982.30 0.1158
982.40 0.1157
982.50 0.1157
982.60 0.1156
982.70 0.1156
982.80 0.1155
982.90 0.1155
983.00 0.1154
983.10 0.1154
983.20 0.1153
983.30 0.1153
983.40 0.1152
983.50 0.1152
983.60 0.1151
983.70 0.1151
983.80 0.115
983.90 0.115
984.00 0.1149
984.10 0.1148
984.20 0.1148
984.30 0.1147
984.40 0.1147
984.50 0.1146
984.60 0.1146
984.70 0.1145
984.80 0.1145
984.90 0.1144
985.00 0.1143
985.10 0.1143
985.20 0.1142
985.30 0.1141
985.40 0.1141
985.50 0.114
985.60 0.1139
985.70 0.1139
985.80 0.1138
985.90 0.1138
986.00 0.1137
986.10 0.1136
986.20 0.1136
986.30 0.1135
986.40 0.1134
986.50 0.1134
986.60 0.1133
986.70 0.1132
986.80 0.1132
986.90 0.1131
987.00 0.1131
987.10 0.113
987.20 0.1129
987.30 0.1128
987.40 0.1128
987.50 0.1127
987.60 0.1126
987.70 0.1125
987.80 0.1125
987.90 0.1124
988.00 0.1123
988.10 0.1122
988.20 0.1122
988.30 0.1121
988.40 0.112
988.50 0.1119
988.60 0.1119
988.70 0.1118
988.80 0.1117
988.90 0.1116
989.00 0.1115
989.10 0.1114
989.20 0.1113
989.30 0.1112
989.40 0.1111
989.50 0.1111
989.60 0.111
989.70 0.1109
989.80 0.1108
989.90 0.1107
990.00 0.1106
990.10 0.1105
990.20 0.1104
990.30 0.1103
990.40 0.1103
990.50 0.1102
990.60 0.1101
990.70 0.11
990.80 0.1099
990.90 0.1098
991.00 0.1097
991.10 0.1096
991.20 0.1094
991.30 0.1093
991.40 0.1092
991.50 0.1091
991.60 0.109
991.70 0.1089
991.80 0.1088
991.90 0.1087
992.00 0.1086
992.10 0.1085
992.20 0.1084
992.30 0.1083
992.40 0.1081
992.50 0.108
992.60 0.1079
992.70 0.1078
992.80 0.1076
992.90 0.1075
993.00 0.1074
993.10 0.1072
993.20 0.1071
993.30 0.107
993.40 0.1068
993.50 0.1067
993.60 0.1066
993.70 0.1064
993.80 0.1063
993.90 0.1062
994.00 0.1061
994.10 0.1059
994.20 0.1058
994.30 0.1057
994.40 0.1055
994.50 0.1054
994.60 0.1053
994.70 0.1051
994.80 0.105
994.90 0.1048
995.00 0.1047
995.10 0.1045
995.20 0.1043
995.30 0.1042
995.40 0.104
995.50 0.1039
995.60 0.1037
995.70 0.1036
995.80 0.1034
995.90 0.1032
996.00 0.1031
996.10 0.1029
996.20 0.1027
996.30 0.1026
996.40 0.1024
996.50 0.1023
996.60 0.1021
996.70 0.1019
996.80 0.1018
996.90 0.1016
997.00 0.1014
997.10 0.1012
997.20 0.1011
997.30 0.1009
997.40 0.1007
997.50 0.1005
997.60 0.1004
997.70 0.1002
997.80 0.1
997.90 0.09981
998.00 0.09963
998.10 0.09945
998.20 0.09926
998.30 0.09908
998.40 0.0989
998.50 0.09871
998.60 0.09853
998.70 0.09834
998.80 0.09816
998.90 0.09798
999.00 0.09779
999.10 0.09761
999.20 0.09743
999.30 0.09724
999.40 0.09706
999.50 0.09688
999.60 0.0967
999.70 0.09652
999.80 0.09635
999.90 0.09617
1000.00 0.096
1000.10 0.09583
1000.20 0.09565
1000.30 0.09548
1000.40 0.09531
1000.50 0.09514
1000.60 0.09496
1000.70 0.09479
1000.80 0.09462
1000.90 0.09445
1001.00 0.09427
1001.10 0.0941
1001.20 0.09393
1001.30 0.09376
1001.40 0.09358
1001.50 0.09341
1001.60 0.09324
1001.70 0.09309
1001.80 0.09295
1001.90 0.0928
1002.00 0.09266
1002.10 0.09256
1002.20 0.09246
1002.30 0.09237
1002.40 0.09227
1002.50 0.09217
1002.60 0.09207
1002.70 0.09197
1002.80 0.09187
1002.90 0.09178
1003.00 0.09168
1003.10 0.09158
1003.20 0.09164
1003.30 0.09175
1003.40 0.09186
1003.50 0.09197
1003.60 0.09208
1003.70 0.09219
1003.80 0.09229
1003.90 0.09255
1004.00 0.09285
1004.10 0.09316
1004.20 0.09346
1004.30 0.09388
1004.40 0.09434
1004.50 0.09479
1004.60 0.09507
1004.70 0.09197
1004.80 0.09159
1004.90 0.09114
1005.00 0.09068
1005.10 0.09035
1005.20 0.09005
1005.30 0.08975
1005.40 0.08945
1005.50 0.08929
1005.60 0.08917
1005.70 0.08905
1005.80 0.08893
1005.90 0.08881
1006.00 0.08869
1006.10 0.08857
1006.20 0.08852
1006.30 0.0885
1006.40 0.08848
1006.50 0.08846
1006.60 0.08843
1006.70 0.08841
1006.80 0.08839
1006.90 0.08837
1007.00 0.08835
1007.10 0.08839
1007.20 0.08843
1007.30 0.08847
1007.40 0.08852
1007.50 0.08856
1007.60 0.0886
1007.70 0.08867
1007.80 0.08875
1007.90 0.08882
1008.00 0.0889
1008.10 0.08898
1008.20 0.08905
1008.30 0.08913
1008.40 0.08921
1008.50 0.08928
1008.60 0.08936
1008.70 0.08944
1008.80 0.08951
1008.90 0.08959
1009.00 0.08967
1009.10 0.08974
1009.20 0.08982
1009.30 0.0899
1009.40 0.08997
1009.50 0.09005
1009.60 0.09013
1009.70 0.09021
1009.80 0.09029
1009.90 0.09037
1010.00 0.09045
1010.10 0.09053
1010.20 0.09062
1010.30 0.0907
1010.40 0.09078
1010.50 0.09086
1010.60 0.09094
1010.70 0.09103
1010.80 0.09111
1010.90 0.09119
1011.00 0.09127
1011.10 0.09135
1011.20 0.09144
1011.30 0.09152
1011.40 0.0916
1011.50 0.09168
1011.60 0.09176
1011.70 0.09184
1011.80 0.09191
1011.90 0.09199
1012.00 0.09207
1012.10 0.09213
1012.20 0.0922
1012.30 0.09227
1012.40 0.09234
1012.50 0.09241
1012.60 0.09248
1012.70 0.09255
1012.80 0.09262
1012.90 0.09269
1013.00 0.09275
1013.10 0.09282
1013.20 0.09289
1013.30 0.09296
1013.40 0.09303
1013.50 0.0931
1013.60 0.09317
1013.70 0.09323
1013.80 0.09329
1013.90 0.09335
1014.00 0.09341
1014.10 0.09347
1014.20 0.09353
1014.30 0.09358
1014.40 0.09364
1014.50 0.0937
1014.60 0.09376
1014.70 0.09381
1014.80 0.09386
1014.90 0.09391
1015.00 0.09396
1015.10 0.09401
1015.20 0.09406
1015.30 0.09411
1015.40 0.09416
1015.50 0.09421
1015.60 0.09426
1015.70 0.0943
1015.80 0.09435
1015.90 0.0944
1016.00 0.09445
1016.10 0.0945
1016.20 0.09455
1016.30 0.0946
1016.40 0.09465
1016.50 0.0947
1016.60 0.09474
1016.70 0.09479
1016.80 0.09483
1016.90 0.09487
1017.00 0.09491
1017.10 0.09495
1017.20 0.09498
1017.30 0.09502
1017.40 0.09505
1017.50 0.09509
1017.60 0.09512
1017.70 0.09516
1017.80 0.09519
1017.90 0.09523
1018.00 0.09526
1018.10 0.0953
1018.20 0.09533
1018.30 0.09537
1018.40 0.0954
1018.50 0.09544
1018.60 0.09548
1018.70 0.0955
1018.80 0.09553
1018.90 0.09555
1019.00 0.09558
1019.10 0.09561
1019.20 0.09563
1019.30 0.09566
1019.40 0.09568
1019.50 0.09571
1019.60 0.09573
1019.70 0.09576
1019.80 0.09579
1019.90 0.09581
1020.00 0.09584
1020.10 0.09586
1020.20 0.09589
1020.30 0.09591
1020.40 0.09594
1020.50 0.09597
1020.60 0.09599
1020.70 0.09601
1020.80 0.09603
1020.90 0.09605
1021.00 0.09606
1021.10 0.09608
1021.20 0.0961
1021.30 0.09612
1021.40 0.09613
1021.50 0.09615
1021.60 0.09617
1021.70 0.09619
1021.80 0.0962
1021.90 0.09622
1022.00 0.09624
1022.10 0.09625
1022.20 0.09626
1022.30 0.09627
1022.40 0.09628
1022.50 0.09629
1022.60 0.0963
1022.70 0.09631
1022.80 0.09632
1022.90 0.09633
1023.00 0.09634
1023.10 0.09635
1023.20 0.09636
1023.30 0.09637
1023.40 0.09638
1023.50 0.09639
1023.60 0.0964
1023.70 0.09641
1023.80 0.09642
1023.90 0.09643
1024.00 0.09644
1024.10 0.09645
1024.20 0.09646
1024.30 0.09647
1024.40 0.09648
1024.50 0.09649
1024.60 0.0965
1024.70 0.0965
1024.80 0.0965
1024.90 0.0965
1025.00 0.0965
1025.10 0.0965
1025.20 0.09651
1025.30 0.09651
1025.40 0.09651
1025.50 0.09651
1025.60 0.09651
1025.70 0.09651
1025.80 0.09651
1025.90 0.09652
1026.00 0.09652
1026.10 0.09652
1026.20 0.09652
1026.30 0.09652
1026.40 0.09652
1026.50 0.09652
1026.60 0.09653
1026.70 0.09653
1026.80 0.09653
1026.90 0.09653
1027.00 0.09653
1027.10 0.09652
1027.20 0.09651
1027.30 0.09651
1027.40 0.0965
1027.50 0.09649
1027.60 0.09648
1027.70 0.09647
1027.80 0.09647
1027.90 0.09646
1028.00 0.09645
1028.10 0.09644
1028.20 0.09643
1028.30 0.09643
1028.40 0.09642
1028.50 0.09641
1028.60 0.0964
1028.70 0.09639
1028.80 0.09639
1028.90 0.09638
1029.00 0.09637
1029.10 0.09636
1029.20 0.09635
1029.30 0.09635
1029.40 0.09634
1029.50 0.09633
1029.60 0.09632
1029.70 0.09631
1029.80 0.09631
1029.90 0.0963
1030.00 0.09629
1030.10 0.09628
1030.20 0.09627
1030.30 0.09627
1030.40 0.09626
1030.50 0.09625
1030.60 0.09624
1030.70 0.09623
1030.80 0.09623
1030.90 0.09622
1031.00 0.09621
1031.10 0.0962
1031.20 0.09619
1031.30 0.09619
1031.40 0.09618
1031.50 0.09617
1031.60 0.09616
1031.70 0.09615
1031.80 0.09615
1031.90 0.09614
1032.00 0.09613
1032.10 0.09611
1032.20 0.09609
1032.30 0.09608
1032.40 0.09606
1032.50 0.09604
1032.60 0.09602
1032.70 0.09601
1032.80 0.09599
1032.90 0.09597
1033.00 0.09596
1033.10 0.09594
1033.20 0.09592
1033.30 0.0959
1033.40 0.09589
1033.50 0.09587
1033.60 0.09585
1033.70 0.09583
1033.80 0.09582
1033.90 0.0958
1034.00 0.09578
1034.10 0.09576
1034.20 0.09575
1034.30 0.09573
1034.40 0.09571
1034.50 0.09569
1034.60 0.09568
1034.70 0.09566
1034.80 0.09564
1034.90 0.09562
1035.00 0.09561
1035.10 0.09559
1035.20 0.09557
1035.30 0.09556
1035.40 0.09554
1035.50 0.09552
1035.60 0.0955
1035.70 0.09549
1035.80 0.09547
1035.90 0.09545
1036.00 0.09543
1036.10 0.09542
1036.20 0.0954
1036.30 0.09538
1036.40 0.09537
1036.50 0.09535
1036.60 0.09533
1036.70 0.09531
1036.80 0.0953
1036.90 0.09528
1037.00 0.09526
1037.10 0.09524
1037.20 0.09521
1037.30 0.09519
1037.40 0.09517
1037.50 0.09514
1037.60 0.09512
1037.70 0.09509
1037.80 0.09507
1037.90 0.09505
1038.00 0.09502
1038.10 0.095
1038.20 0.09498
1038.30 0.09495
1038.40 0.09493
1038.50 0.0949
1038.60 0.09488
1038.70 0.09486
1038.80 0.09483
1038.90 0.09481
1039.00 0.09479
1039.10 0.09476
1039.20 0.09474
1039.30 0.09471
1039.40 0.09469
1039.50 0.09467
1039.60 0.09464
1039.70 0.09462
1039.80 0.0946
1039.90 0.09457
1040.00 0.09455
1040.10 0.09452
1040.20 0.0945
1040.30 0.09448
1040.40 0.09445
1040.50 0.09443
1040.60 0.09441
1040.70 0.09438
1040.80 0.09436
1040.90 0.09433
1041.00 0.09431
1041.10 0.09429
1041.20 0.09426
1041.30 0.09424
1041.40 0.09422
1041.50 0.09419
1041.60 0.09417
1041.70 0.09415
1041.80 0.09412
1041.90 0.0941
1042.00 0.09408
1042.10 0.09405
1042.20 0.09402
1042.30 0.09399
1042.40 0.09396
1042.50 0.09393
1042.60 0.0939
1042.70 0.09387
1042.80 0.09384
1042.90 0.09382
1043.00 0.09379
1043.10 0.09376
1043.20 0.09373
1043.30 0.0937
1043.40 0.09367
1043.50 0.09364
1043.60 0.09361
1043.70 0.09359
1043.80 0.09356
1043.90 0.09353
1044.00 0.0935
1044.10 0.09347
1044.20 0.09344
1044.30 0.09341
1044.40 0.09338
1044.50 0.09336
1044.60 0.09333
1044.70 0.0933
1044.80 0.09327
1044.90 0.09324
1045.00 0.09321
1045.10 0.09318
1045.20 0.09315
1045.30 0.09313
1045.40 0.0931
1045.50 0.09307
1045.60 0.09304
1045.70 0.09301
1045.80 0.09298
1045.90 0.09295
1046.00 0.09293
1046.10 0.0929
1046.20 0.09287
1046.30 0.09284
1046.40 0.09281
1046.50 0.09278
1046.60 0.09276
1046.70 0.09273
1046.80 0.0927
1046.90 0.09267
1047.00 0.09264
1047.10 0.09261
1047.20 0.09258
1047.30 0.09254
1047.40 0.09251
1047.50 0.09248
1047.60 0.09244
1047.70 0.09241
1047.80 0.09238
1047.90 0.09235
1048.00 0.09231
1048.10 0.09228
1048.20 0.09225
1048.30 0.09222
1048.40 0.09218
1048.50 0.09215
1048.60 0.09212
1048.70 0.09208
1048.80 0.09205
1048.90 0.09202
1049.00 0.09199
1049.10 0.09195
1049.20 0.09192
1049.30 0.09189
1049.40 0.09186
1049.50 0.09182
1049.60 0.09179
1049.70 0.09176
1049.80 0.09173
1049.90 0.09169
1050.00 0.09166
1050.10 0.09163
1050.20 0.0916
1050.30 0.09156
1050.40 0.09153
1050.50 0.0915
1050.60 0.09147
1050.70 0.09143
1050.80 0.0914
1050.90 0.09137
1051.00 0.09134
1051.10 0.0913
1051.20 0.09127
1051.30 0.09124
1051.40 0.09121
1051.50 0.09118
1051.60 0.09114
1051.70 0.09111
1051.80 0.09108
1051.90 0.09105
1052.00 0.09101
1052.10 0.09098
1052.20 0.09094
1052.30 0.0909
1052.40 0.09087
1052.50 0.09083
1052.60 0.09079
1052.70 0.09075
1052.80 0.09072
1052.90 0.09068
1053.00 0.09064
1053.10 0.09061
1053.20 0.09057
1053.30 0.09053
1053.40 0.09049
1053.50 0.09046
1053.60 0.09042
1053.70 0.09038
1053.80 0.09035
1053.90 0.09031
1054.00 0.09027
1054.10 0.09023
1054.20 0.0902
1054.30 0.09016
1054.40 0.09012
1054.50 0.09009
1054.60 0.09005
1054.70 0.09001
1054.80 0.08998
1054.90 0.08994
1055.00 0.0899
1055.10 0.08987
1055.20 0.08983
1055.30 0.08979
1055.40 0.08975
1055.50 0.08972
1055.60 0.08968
1055.70 0.08964
1055.80 0.08961
1055.90 0.08957
1056.00 0.08953
1056.10 0.0895
1056.20 0.08946
1056.30 0.08942
1056.40 0.08939
1056.50 0.08935
1056.60 0.08931
1056.70 0.08928
1056.80 0.08924
1056.90 0.0892
1057.00 0.08917
1057.10 0.08912
1057.20 0.08908
1057.30 0.08904
1057.40 0.089
1057.50 0.08896
1057.60 0.08892
1057.70 0.08887
1057.80 0.08883
1057.90 0.08879
1058.00 0.08875
1058.10 0.08871
1058.20 0.08866
1058.30 0.08862
1058.40 0.08858
1058.50 0.08854
1058.60 0.0885
1058.70 0.08845
1058.80 0.08841
1058.90 0.08837
1059.00 0.08833
1059.10 0.08829
1059.20 0.08825
1059.30 0.0882
1059.40 0.08816
1059.50 0.08812
1059.60 0.08808
1059.70 0.08804
1059.80 0.088
1059.90 0.08795
1060.00 0.08791
1060.10 0.08787
1060.20 0.08783
1060.30 0.08779
1060.40 0.08775
1060.50 0.08771
1060.60 0.08766
1060.70 0.08762
1060.80 0.08758
1060.90 0.08754
1061.00 0.0875
1061.10 0.08746
1061.20 0.08742
1061.30 0.08737
1061.40 0.08733
1061.50 0.08729
1061.60 0.08725
1061.70 0.08721
1061.80 0.08717
1061.90 0.08713
1062.00 0.08708
1062.10 0.08704
1062.20 0.08699
1062.30 0.08694
1062.40 0.08689
1062.50 0.08684
1062.60 0.08679
1062.70 0.08675
1062.80 0.0867
1062.90 0.08665
1063.00 0.0866
1063.10 0.08655
1063.20 0.0865
1063.30 0.08646
1063.40 0.08641
1063.50 0.08636
1063.60 0.08631
1063.70 0.08626
1063.80 0.08622
1063.90 0.08617
1064.00 0.08612
1064.10 0.08607
1064.20 0.08602
1064.30 0.08598
1064.40 0.08593
1064.50 0.08588
1064.60 0.08583
1064.70 0.08578
1064.80 0.08574
1064.90 0.08569
1065.00 0.08564
1065.10 0.08559
1065.20 0.08554
1065.30 0.0855
1065.40 0.08545
1065.50 0.0854
1065.60 0.08535
1065.70 0.0853
1065.80 0.08526
1065.90 0.08521
1066.00 0.08516
1066.10 0.08511
1066.20 0.08507
1066.30 0.08502
1066.40 0.08497
1066.50 0.08492
1066.60 0.08488
1066.70 0.08483
1066.80 0.08478
1066.90 0.08473
1067.00 0.08468
1067.10 0.08463
1067.20 0.08457
1067.30 0.08451
1067.40 0.08446
1067.50 0.0844
1067.60 0.08434
1067.70 0.08428
1067.80 0.08423
1067.90 0.08417
1068.00 0.08411
1068.10 0.08406
1068.20 0.084
1068.30 0.08394
1068.40 0.08389
1068.50 0.08383
1068.60 0.08377
1068.70 0.08371
1068.80 0.08366
1068.90 0.0836
1069.00 0.08354
1069.10 0.08349
1069.20 0.08343
1069.30 0.08337
1069.40 0.08332
1069.50 0.08326
1069.60 0.0832
1069.70 0.08315
1069.80 0.08309
1069.90 0.08303
1070.00 0.08298
1070.10 0.08292
1070.20 0.08286
1070.30 0.08281
1070.40 0.08275
1070.50 0.08269
1070.60 0.08264
1070.70 0.08258
1070.80 0.08252
1070.90 0.08247
1071.00 0.08241
1071.10 0.08236
1071.20 0.0823
1071.30 0.08224
1071.40 0.08219
1071.50 0.08213
1071.60 0.08207
1071.70 0.08202
1071.80 0.08196
1071.90 0.0819
1072.00 0.08185
1072.10 0.08178
1072.20 0.08172
1072.30 0.08166
1072.40 0.08159
1072.50 0.08153
1072.60 0.08146
1072.70 0.0814
1072.80 0.08133
1072.90 0.08127
1073.00 0.0812
1073.10 0.08114
1073.20 0.08108
1073.30 0.08101
1073.40 0.08095
1073.50 0.08088
1073.60 0.08081
1073.70 0.08074
1073.80 0.08067
1073.90 0.08059
1074.00 0.08052
1074.10 0.08045
1074.20 0.08038
1074.30 0.08031
1074.40 0.08024
1074.50 0.08016
1074.60 0.08009
1074.70 0.08002
1074.80 0.07995
1074.90 0.07988
1075.00 0.07981
1075.10 0.07974
1075.20 0.07966
1075.30 0.07959
1075.40 0.07952
1075.50 0.07945
1075.60 0.07938
1075.70 0.07931
1075.80 0.07924
1075.90 0.07917
1076.00 0.07909
1076.10 0.07902
1076.20 0.07895
1076.30 0.07888
1076.40 0.07881
1076.50 0.07874
1076.60 0.07867
1076.70 0.0786
1076.80 0.07853
1076.90 0.07846
1077.00 0.07838
1077.10 0.07831
1077.20 0.07823
1077.30 0.07815
1077.40 0.07807
1077.50 0.07799
1077.60 0.07791
1077.70 0.07782
1077.80 0.07774
1077.90 0.07766
1078.00 0.07757
1078.10 0.07749
1078.20 0.07741
1078.30 0.07733
1078.40 0.07724
1078.50 0.07716
1078.60 0.07708
1078.70 0.07699
1078.80 0.07691
1078.90 0.07683
1079.00 0.07675
1079.10 0.07666
1079.20 0.07658
1079.30 0.0765
1079.40 0.07642
1079.50 0.07633
1079.60 0.07624
1079.70 0.07615
1079.80 0.07605
1079.90 0.07596
1080.00 0.07587
1080.10 0.07578
1080.20 0.07569
1080.30 0.0756
1080.40 0.0755
1080.50 0.07541
1080.60 0.07532
1080.70 0.07523
1080.80 0.07514
1080.90 0.07504
1081.00 0.07495
1081.10 0.07486
1081.20 0.07477
1081.30 0.07468
1081.40 0.07459
1081.50 0.07449
1081.60 0.0744
1081.70 0.0743
1081.80 0.0742
1081.90 0.0741
1082.00 0.074
1082.10 0.0739
1082.20 0.07379
1082.30 0.07369
1082.40 0.07359
1082.50 0.07348
1082.60 0.07338
1082.70 0.07328
1082.80 0.07317
1082.90 0.07307
1083.00 0.07296
1083.10 0.07286
1083.20 0.07276
1083.30 0.07265
1083.40 0.07255
1083.50 0.07244
1083.60 0.07233
1083.70 0.07222
1083.80 0.07211
1083.90 0.072
1084.00 0.07189
1084.10 0.07178
1084.20 0.07166
1084.30 0.07155
1084.40 0.07144
1084.50 0.07133
1084.60 0.07121
1084.70 0.07108
1084.80 0.07096
1084.90 0.07084
1085.00 0.07072
1085.10 0.0706
1085.20 0.07048
1085.30 0.07035
1085.40 0.07023
1085.50 0.07011
1085.60 0.06999
1085.70 0.06987
1085.80 0.06975
1085.90 0.06963
1086.00 0.06951
1086.10 0.06938
1086.20 0.06926
1086.30 0.06914
1086.40 0.06902
1086.50 0.0689
1086.60 0.06877
1086.70 0.06864
1086.80 0.06851
1086.90 0.06838
1087.00 0.06825
1087.10 0.06811
1087.20 0.06798
1087.30 0.06784
1087.40 0.0677
1087.50 0.06757
1087.60 0.06743
1087.70 0.06729
1087.80 0.06716
1087.90 0.06702
1088.00 0.06689
1088.10 0.06675
1088.20 0.06662
1088.30 0.06648
1088.40 0.06634
1088.50 0.06621
1088.60 0.06607
1088.70 0.06593
1088.80 0.06579
1088.90 0.06564
1089.00 0.0655
1089.10 0.06536
1089.20 0.06522
1089.30 0.06508
1089.40 0.06494
1089.50 0.0648
1089.60 0.06466
1089.70 0.06452
1089.80 0.06438
1089.90 0.06424
1090.00 0.0641
1090.10 0.06396
1090.20 0.06382
1090.30 0.06368
1090.40 0.06354
1090.50 0.06341
1090.60 0.06329
1090.70 0.06316
1090.80 0.06304
1090.90 0.06292
1091.00 0.06279
1091.10 0.06267
1091.20 0.06255
1091.30 0.06243
1091.40 0.0623
1091.50 0.06218
1091.60 0.06206
1091.70 0.06194
1091.80 0.06181
1091.90 0.06169
1092.00 0.06158
1092.10 0.06153
1092.20 0.06148
1092.30 0.06143
1092.40 0.06139
1092.50 0.06134
1092.60 0.06129
1092.70 0.06128
1092.80 0.06135
1092.90 0.06141
1093.00 0.06148
1093.10 0.06159
1093.20 0.0618
1093.30 0.06203
1093.40 0.06232
1093.50 0.06241
1093.60 0.0621
1093.70 0.06179
1093.80 0.06155
1093.90 0.06135
1094.00 0.06125
1094.10 0.06115
1094.20 0.06104
1094.30 0.06098
1094.40 0.06099
1094.50 0.061
1094.60 0.06101
1094.70 0.06103
1094.80 0.06104
1094.90 0.06105
1095.00 0.06109
1095.10 0.06117
1095.20 0.06126
1095.30 0.06134
1095.40 0.06142
1095.50 0.06151
1095.60 0.06159
1095.70 0.06167
1095.80 0.06176
1095.90 0.06184
1096.00 0.06192
1096.10 0.062
1096.20 0.06209
1096.30 0.06217
1096.40 0.06225
1096.50 0.06234
1096.60 0.06244
1096.70 0.06253
1096.80 0.06263
1096.90 0.06273
1097.00 0.06282
1097.10 0.06292
1097.20 0.06302
1097.30 0.06311
1097.40 0.06321
1097.50 0.06331
1097.60 0.0634
1097.70 0.0635
1097.80 0.0636
1097.90 0.0637
1098.00 0.06379
1098.10 0.06389
1098.20 0.06399
1098.30 0.06408
1098.40 0.06418
1098.50 0.06427
1098.60 0.06436
1098.70 0.06445
1098.80 0.06454
1098.90 0.06462
1099.00 0.06471
1099.10 0.0648
1099.20 0.06489
1099.30 0.06497
1099.40 0.06506
1099.50 0.06515
1099.60 0.06524
1099.70 0.06532
1099.80 0.06541
1099.90 0.0655
1100.00 0.06559
1100.10 0.06567
1100.20 0.06576
1100.30 0.06585
1100.40 0.06594
1100.50 0.06602
1100.60 0.06609
1100.70 0.06617
1100.80 0.06624
1100.90 0.06632
1101.00 0.06639
1101.10 0.06646
1101.20 0.06654
1101.30 0.06661
1101.40 0.06669
1101.50 0.06676
1101.60 0.06683
1101.70 0.06691
1101.80 0.06698
1101.90 0.06706
1102.00 0.06713
1102.10 0.0672
1102.20 0.06726
1102.30 0.06733
1102.40 0.06739
1102.50 0.06746
1102.60 0.06752
1102.70 0.06758
1102.80 0.06764
1102.90 0.0677
1103.00 0.06776
1103.10 0.06782
1103.20 0.06788
1103.30 0.06794
1103.40 0.06801
1103.50 0.06806
1103.60 0.06811
1103.70 0.06816
1103.80 0.06822
1103.90 0.06827
1104.00 0.06832
1104.10 0.06837
1104.20 0.06842
1104.30 0.06847
1104.40 0.06852
1104.50 0.06857
1104.60 0.06862
1104.70 0.06867
1104.80 0.06872
1104.90 0.06877
1105.00 0.06882
1105.10 0.06887
1105.20 0.06892
1105.30 0.06897
1105.40 0.06903
1105.50 0.06907
1105.60 0.06911
1105.70 0.06915
1105.80 0.06919
1105.90 0.06923
1106.00 0.06927
1106.10 0.06932
1106.20 0.06936
1106.30 0.0694
1106.40 0.06944
1106.50 0.06948
1106.60 0.06952
1106.70 0.06956
1106.80 0.0696
1106.90 0.06964
1107.00 0.06968
1107.10 0.06971
1107.20 0.06975
1107.30 0.06978
1107.40 0.06982
1107.50 0.06985
1107.60 0.06988
1107.70 0.06991
1107.80 0.06994
1107.90 0.06997
1108.00 0.07
1108.10 0.07003
1108.20 0.07006
1108.30 0.07009
1108.40 0.07012
1108.50 0.07015
1108.60 0.07017
1108.70 0.0702
1108.80 0.07023
1108.90 0.07026
1109.00 0.07029
1109.10 0.07032
1109.20 0.07035
1109.30 0.07038
1109.40 0.07041
1109.50 0.07044
1109.60 0.07046
1109.70 0.07048
1109.80 0.0705
1109.90 0.07052
1110.00 0.07054
1110.10 0.07056
1110.20 0.07058
1110.30 0.0706
1110.40 0.07062
1110.50 0.07064
1110.60 0.07066
1110.70 0.07068
1110.80 0.0707
1110.90 0.07072
1111.00 0.07074
1111.10 0.07077
1111.20 0.07079
1111.30 0.07081
1111.40 0.07083
1111.50 0.07085
1111.60 0.07087
1111.70 0.07089
1111.80 0.07091
1111.90 0.07093
1112.00 0.07095
1112.10 0.07096
1112.20 0.07098
1112.30 0.07099
1112.40 0.071
1112.50 0.07102
1112.60 0.07103
1112.70 0.07105
1112.80 0.07106
1112.90 0.07107
1113.00 0.07109
1113.10 0.0711
1113.20 0.07112
1113.30 0.07113
1113.40 0.07114
1113.50 0.07116
1113.60 0.07116
1113.70 0.07117
1113.80 0.07118
1113.90 0.07118
1114.00 0.07119
1114.10 0.0712
1114.20 0.07121
1114.30 0.07121
1114.40 0.07122
1114.50 0.07123
1114.60 0.07124
1114.70 0.07124
1114.80 0.07125
1114.90 0.07126
1115.00 0.07126
1115.10 0.07127
1115.20 0.07128
1115.30 0.07129
1115.40 0.07129
1115.50 0.0713
1115.60 0.07131
1115.70 0.07131
1115.80 0.07132
1115.90 0.07133
1116.00 0.07134
1116.10 0.07134
1116.20 0.07135
1116.30 0.07136
1116.40 0.07136
1116.50 0.07137
1116.60 0.07138
1116.70 0.07139
1116.80 0.07139
1116.90 0.0714
1117.00 0.07141
1117.10 0.07141
1117.20 0.07141
1117.30 0.0714
1117.40 0.0714
1117.50 0.0714
1117.60 0.0714
1117.70 0.0714
1117.80 0.0714
1117.90 0.0714
1118.00 0.07139
1118.10 0.07139
1118.20 0.07139
1118.30 0.07139
1118.40 0.07139
1118.50 0.07139
1118.60 0.07139
1118.70 0.07139
1118.80 0.07138
1118.90 0.07138
1119.00 0.07138
1119.10 0.07138
1119.20 0.07138
1119.30 0.07138
1119.40 0.07138
1119.50 0.07137
1119.60 0.07137
1119.70 0.07137
1119.80 0.07137
1119.90 0.07137
1120.00 0.07137
1120.10 0.07137
1120.20 0.07137
1120.30 0.07136
1120.40 0.07136
1120.50 0.07136
1120.60 0.07136
1120.70 0.07136
1120.80 0.07136
1120.90 0.07136
1121.00 0.07135
1121.10 0.07135
1121.20 0.07135
1121.30 0.07135
1121.40 0.07135
1121.50 0.07135
1121.60 0.07135
1121.70 0.07134
1121.80 0.07134
1121.90 0.07134
1122.00 0.07134
1122.10 0.07133
1122.20 0.07132
1122.30 0.07132
1122.40 0.07131
1122.50 0.0713
1122.60 0.07129
1122.70 0.07128
1122.80 0.07127
1122.90 0.07127
1123.00 0.07126
1123.10 0.07125
1123.20 0.07124
1123.30 0.07123
1123.40 0.07123
1123.50 0.07122
1123.60 0.07121
1123.70 0.0712
1123.80 0.07119
1123.90 0.07118
1124.00 0.07118
1124.10 0.07117
1124.20 0.07116
1124.30 0.07115
1124.40 0.07114
1124.50 0.07114
1124.60 0.07113
1124.70 0.07112
1124.80 0.07111
1124.90 0.0711
1125.00 0.07109
1125.10 0.07109
1125.20 0.07108
1125.30 0.07107
1125.40 0.07106
1125.50 0.07105
1125.60 0.07105
1125.70 0.07104
1125.80 0.07103
1125.90 0.07102
1126.00 0.07101
1126.10 0.071
1126.20 0.071
1126.30 0.07099
1126.40 0.07098
1126.50 0.07097
1126.60 0.07096
1126.70 0.07096
1126.80 0.07095
1126.90 0.07094
1127.00 0.07093
1127.10 0.07092
1127.20 0.07091
1127.30 0.07089
1127.40 0.07088
1127.50 0.07087
1127.60 0.07086
1127.70 0.07084
1127.80 0.07083
1127.90 0.07082
1128.00 0.0708
1128.10 0.07079
1128.20 0.07078
1128.30 0.07077
1128.40 0.07075
1128.50 0.07074
1128.60 0.07073
1128.70 0.07072
1128.80 0.0707
1128.90 0.07069
1129.00 0.07068
1129.10 0.07067
1129.20 0.07065
1129.30 0.07064
1129.40 0.07063
1129.50 0.07062
1129.60 0.0706
1129.70 0.07059
1129.80 0.07058
1129.90 0.07057
1130.00 0.07055
1130.10 0.07054
1130.20 0.07053
1130.30 0.07052
1130.40 0.0705
1130.50 0.07049
1130.60 0.07048
1130.70 0.07047
1130.80 0.07045
1130.90 0.07044
1131.00 0.07043
1131.10 0.07041
1131.20 0.0704
1131.30 0.07039
1131.40 0.07038
1131.50 0.07036
1131.60 0.07035
1131.70 0.07034
1131.80 0.07033
1131.90 0.07031
1132.00 0.0703
1132.10 0.07029
1132.20 0.07027
1132.30 0.07026
1132.40 0.07024
1132.50 0.07022
1132.60 0.07021
1132.70 0.07019
1132.80 0.07018
1132.90 0.07016
1133.00 0.07015
1133.10 0.07013
1133.20 0.07012
1133.30 0.0701
1133.40 0.07008
1133.50 0.07007
1133.60 0.07005
1133.70 0.07004
1133.80 0.07002
1133.90 0.07001
1134.00 0.06999
1134.10 0.06998
1134.20 0.06996
1134.30 0.06994
1134.40 0.06993
1134.50 0.06991
1134.60 0.0699
1134.70 0.06988
1134.80 0.06987
1134.90 0.06985
1135.00 0.06984
1135.10 0.06982
1135.20 0.0698
1135.30 0.06979
1135.40 0.06977
1135.50 0.06976
1135.60 0.06974
1135.70 0.06973
1135.80 0.06971
1135.90 0.0697
1136.00 0.06968
1136.10 0.06967
1136.20 0.06965
1136.30 0.06963
1136.40 0.06962
1136.50 0.0696
1136.60 0.06959
1136.70 0.06957
1136.80 0.06956
1136.90 0.06954
1137.00 0.06953
1137.10 0.06951
1137.20 0.06949
1137.30 0.06948
1137.40 0.06946
1137.50 0.06944
1137.60 0.06942
1137.70 0.06941
1137.80 0.06939
1137.90 0.06937
1138.00 0.06935
1138.10 0.06934
1138.20 0.06932
1138.30 0.0693
1138.40 0.06929
1138.50 0.06927
1138.60 0.06925
1138.70 0.06923
1138.80 0.06922
1138.90 0.0692
1139.00 0.06918
1139.10 0.06917
1139.20 0.06915
1139.30 0.06913
1139.40 0.06911
1139.50 0.0691
1139.60 0.06908
1139.70 0.06906
1139.80 0.06905
1139.90 0.06903
1140.00 0.06901
1140.10 0.06899
1140.20 0.06898
1140.30 0.06896
1140.40 0.06894
1140.50 0.06893
1140.60 0.06891
1140.70 0.06889
1140.80 0.06887
1140.90 0.06886
1141.00 0.06884
1141.10 0.06882
1141.20 0.06881
1141.30 0.06879
1141.40 0.06877
1141.50 0.06876
1141.60 0.06874
1141.70 0.06872
1141.80 0.0687
1141.90 0.06869
1142.00 0.06867
1142.10 0.06865
1142.20 0.06863
1142.30 0.06861
1142.40 0.0686
1142.50 0.06858
1142.60 0.06856
1142.70 0.06854
1142.80 0.06852
1142.90 0.0685
1143.00 0.06849
1143.10 0.06847
1143.20 0.06845
1143.30 0.06843
1143.40 0.06841
1143.50 0.06839
1143.60 0.06838
1143.70 0.06836
1143.80 0.06834
1143.90 0.06832
1144.00 0.0683
1144.10 0.06828
1144.20 0.06827
1144.30 0.06825
1144.40 0.06823
1144.50 0.06821
1144.60 0.06819
1144.70 0.06817
1144.80 0.06816
1144.90 0.06814
1145.00 0.06812
1145.10 0.0681
1145.20 0.06808
1145.30 0.06806
1145.40 0.06805
1145.50 0.06803
1145.60 0.06801
1145.70 0.06799
1145.80 0.06797
1145.90 0.06795
1146.00 0.06794
1146.10 0.06792
1146.20 0.0679
1146.30 0.06788
1146.40 0.06786
1146.50 0.06785
1146.60 0.06783
1146.70 0.06781
1146.80 0.06779
1146.90 0.06777
1147.00 0.06775
1147.10 0.06774
1147.20 0.06772
1147.30 0.0677
1147.40 0.06768
1147.50 0.06766
1147.60 0.06764
1147.70 0.06762
1147.80 0.0676
1147.90 0.06758
1148.00 0.06756
1148.10 0.06755
1148.20 0.06753
1148.30 0.06751
1148.40 0.06749
1148.50 0.06747
1148.60 0.06745
1148.70 0.06743
1148.80 0.06741
1148.90 0.06739
1149.00 0.06738
1149.10 0.06736
1149.20 0.06734
1149.30 0.06732
1149.40 0.0673
1149.50 0.06728
1149.60 0.06726
1149.70 0.06724
1149.80 0.06722
1149.90 0.06721
1150.00 0.06719
1150.10 0.06717
1150.20 0.06715
1150.30 0.06713
1150.40 0.06711
1150.50 0.06709
1150.60 0.06707
1150.70 0.06705
1150.80 0.06704
1150.90 0.06702
1151.00 0.067
1151.10 0.06698
1151.20 0.06696
1151.30 0.06694
1151.40 0.06692
1151.50 0.0669
1151.60 0.06689
1151.70 0.06687
1151.80 0.06685
1151.90 0.06683
1152.00 0.06681
1152.10 0.06679
1152.20 0.06677
1152.30 0.06675
1152.40 0.06673
1152.50 0.06671
1152.60 0.06669
1152.70 0.06667
1152.80 0.06666
1152.90 0.06664
1153.00 0.06662
1153.10 0.0666
1153.20 0.06658
1153.30 0.06656
1153.40 0.06654
1153.50 0.06652
1153.60 0.0665
1153.70 0.06648
1153.80 0.06646
1153.90 0.06644
1154.00 0.06642
1154.10 0.0664
1154.20 0.06638
1154.30 0.06636
1154.40 0.06635
1154.50 0.06633
1154.60 0.06631
1154.70 0.06629
1154.80 0.06627
1154.90 0.06625
1155.00 0.06623
1155.10 0.06621
1155.20 0.06619
1155.30 0.06617
1155.40 0.06615
1155.50 0.06613
1155.60 0.06611
1155.70 0.06609
1155.80 0.06608
1155.90 0.06606
1156.00 0.06604
1156.10 0.06602
1156.20 0.066
1156.30 0.06598
1156.40 0.06596
1156.50 0.06594
1156.60 0.06592
1156.70 0.0659
1156.80 0.06588
1156.90 0.06586
1157.00 0.06585
1157.10 0.06583
1157.20 0.06581
1157.30 0.06579
1157.40 0.06577
1157.50 0.06575
1157.60 0.06573
1157.70 0.06571
1157.80 0.06569
1157.90 0.06567
1158.00 0.06565
1158.10 0.06563
1158.20 0.06561
1158.30 0.06559
1158.40 0.06557
1158.50 0.06555
1158.60 0.06553
1158.70 0.06551
1158.80 0.0655
1158.90 0.06548
1159.00 0.06546
1159.10 0.06544
1159.20 0.06542
1159.30 0.0654
1159.40 0.06538
1159.50 0.06536
1159.60 0.06534
1159.70 0.06532
1159.80 0.0653
1159.90 0.06528
1160.00 0.06526
1160.10 0.06524
1160.20 0.06522
1160.30 0.06521
1160.40 0.06519
1160.50 0.06517
1160.60 0.06515
1160.70 0.06513
1160.80 0.06511
1160.90 0.06509
1161.00 0.06507
1161.10 0.06505
1161.20 0.06503
1161.30 0.06501
1161.40 0.06499
1161.50 0.06497
1161.60 0.06496
1161.70 0.06494
1161.80 0.06492
1161.90 0.0649
1162.00 0.06488
1162.10 0.06486
1162.20 0.06484
1162.30 0.06482
1162.40 0.0648
1162.50 0.06478
1162.60 0.06476
1162.70 0.06474
1162.80 0.06472
1162.90 0.0647
1163.00 0.06468
1163.10 0.06466
1163.20 0.06464
1163.30 0.06462
1163.40 0.0646
1163.50 0.06459
1163.60 0.06457
1163.70 0.06455
1163.80 0.06453
1163.90 0.06451
1164.00 0.06449
1164.10 0.06447
1164.20 0.06445
1164.30 0.06443
1164.40 0.06441
1164.50 0.06439
1164.60 0.06437
1164.70 0.06435
1164.80 0.06433
1164.90 0.06431
1165.00 0.06429
1165.10 0.06427
1165.20 0.06425
1165.30 0.06423
1165.40 0.06422
1165.50 0.0642
1165.60 0.06418
1165.70 0.06416
1165.80 0.06414
1165.90 0.06412
1166.00 0.0641
1166.10 0.06408
1166.20 0.06406
1166.30 0.06404
1166.40 0.06402
1166.50 0.064
1166.60 0.06398
1166.70 0.06396
1166.80 0.06394
1166.90 0.06393
1167.00 0.06391
1167.10 0.06389
1167.20 0.06387
1167.30 0.06385
1167.40 0.06383
1167.50 0.06381
1167.60 0.06379
1167.70 0.06377
1167.80 0.06375
1167.90 0.06373
1168.00 0.06371
1168.10 0.06369
1168.20 0.06367
1168.30 0.06365
1168.40 0.06363
1168.50 0.06361
1168.60 0.06359
1168.70 0.06358
1168.80 0.06356
1168.90 0.06354
1169.00 0.06352
1169.10 0.0635
1169.20 0.06348
1169.30 0.06346
1169.40 0.06344
1169.50 0.06342
1169.60 0.0634
1169.70 0.06338
1169.80 0.06336
1169.90 0.06334
1170.00 0.06332
1170.10 0.0633
1170.20 0.06328
1170.30 0.06327
1170.40 0.06325
1170.50 0.06323
1170.60 0.06321
1170.70 0.06319
1170.80 0.06317
1170.90 0.06315
1171.00 0.06313
1171.10 0.06311
1171.20 0.06309
1171.30 0.06307
1171.40 0.06305
1171.50 0.06303
1171.60 0.06301
1171.70 0.063
1171.80 0.06298
1171.90 0.06296
1172.00 0.06294
1172.10 0.06292
1172.20 0.0629
1172.30 0.06288
1172.40 0.06286
1172.50 0.06284
1172.60 0.06282
1172.70 0.0628
1172.80 0.06278
1172.90 0.06276
1173.00 0.06274
1173.10 0.06273
1173.20 0.06271
1173.30 0.06269
1173.40 0.06267
1173.50 0.06265
1173.60 0.06263
1173.70 0.06261
1173.80 0.06259
1173.90 0.06257
1174.00 0.06255
1174.10 0.06253
1174.20 0.06251
1174.30 0.0625
1174.40 0.06248
1174.50 0.06246
1174.60 0.06244
1174.70 0.06242
1174.80 0.0624
1174.90 0.06238
1175.00 0.06236
1175.10 0.06234
1175.20 0.06232
1175.30 0.0623
1175.40 0.06228
1175.50 0.06227
1175.60 0.06225
1175.70 0.06223
1175.80 0.06221
1175.90 0.06219
1176.00 0.06217
1176.10 0.06215
1176.20 0.06213
1176.30 0.06211
1176.40 0.06209
1176.50 0.06208
1176.60 0.06206
1176.70 0.06204
1176.80 0.06202
1176.90 0.062
1177.00 0.06198
1177.10 0.06196
1177.20 0.06194
1177.30 0.06192
1177.40 0.0619
1177.50 0.06188
1177.60 0.06186
1177.70 0.06185
1177.80 0.06183
1177.90 0.06181
1178.00 0.06179
1178.10 0.06177
1178.20 0.06175
1178.30 0.06173
1178.40 0.06171
1178.50 0.06169
1178.60 0.06167
1178.70 0.06165
1178.80 0.06164
1178.90 0.06162
1179.00 0.0616
1179.10 0.06158
1179.20 0.06156
1179.30 0.06154
1179.40 0.06152
1179.50 0.0615
1179.60 0.06148
1179.70 0.06146
1179.80 0.06144
1179.90 0.06143
1180.00 0.06141
1180.10 0.06139
1180.20 0.06137
1180.30 0.06135
1180.40 0.06133
1180.50 0.06131
1180.60 0.06129
1180.70 0.06127
1180.80 0.06125
1180.90 0.06124
1181.00 0.06122
1181.10 0.0612
1181.20 0.06118
1181.30 0.06116
1181.40 0.06114
1181.50 0.06112
1181.60 0.0611
1181.70 0.06108
1181.80 0.06106
1181.90 0.06105
1182.00 0.06103
1182.10 0.06101
1182.20 0.06099
1182.30 0.06097
1182.40 0.06095
1182.50 0.06093
1182.60 0.06091
1182.70 0.06089
1182.80 0.06087
1182.90 0.06086
1183.00 0.06084
1183.10 0.06082
1183.20 0.0608
1183.30 0.06078
1183.40 0.06076
1183.50 0.06074
1183.60 0.06072
1183.70 0.0607
1183.80 0.06069
1183.90 0.06067
1184.00 0.06065
1184.10 0.06063
1184.20 0.06061
1184.30 0.06059
1184.40 0.06057
1184.50 0.06055
1184.60 0.06053
1184.70 0.06052
1184.80 0.0605
1184.90 0.06048
1185.00 0.06046
1185.10 0.06044
1185.20 0.06042
1185.30 0.0604
1185.40 0.06038
1185.50 0.06036
1185.60 0.06035
1185.70 0.06033
1185.80 0.06031
1185.90 0.06029
1186.00 0.06027
1186.10 0.06025
1186.20 0.06023
1186.30 0.06021
1186.40 0.06019
1186.50 0.06018
1186.60 0.06016
1186.70 0.06014
1186.80 0.06012
1186.90 0.0601
1187.00 0.06008
1187.10 0.06006
1187.20 0.06004
1187.30 0.06003
1187.40 0.06001
1187.50 0.05999
1187.60 0.05997
1187.70 0.05995
1187.80 0.05993
1187.90 0.05991
1188.00 0.05989
1188.10 0.05988
1188.20 0.05986
1188.30 0.05984
1188.40 0.05982
1188.50 0.0598
1188.60 0.05978
1188.70 0.05976
1188.80 0.05974
1188.90 0.05973
1189.00 0.05971
1189.10 0.05969
1189.20 0.05967
1189.30 0.05965
1189.40 0.05963
1189.50 0.05961
1189.60 0.0596
1189.70 0.05958
1189.80 0.05956
1189.90 0.05954
1190.00 0.05952
1190.10 0.0595
1190.20 0.05948
1190.30 0.05946
1190.40 0.05945
1190.50 0.05943
1190.60 0.05941
1190.70 0.05939
1190.80 0.05937
1190.90 0.05935
1191.00 0.05933
1191.10 0.05932
1191.20 0.0593
1191.30 0.05928
1191.40 0.05926
1191.50 0.05924
1191.60 0.05922
1191.70 0.0592
1191.80 0.05919
1191.90 0.05917
1192.00 0.05915
1192.10 0.05913
1192.20 0.05911
1192.30 0.05909
1192.40 0.05907
1192.50 0.05906
1192.60 0.05904
1192.70 0.05902
1192.80 0.059
1192.90 0.05898
1193.00 0.05896
1193.10 0.05894
1193.20 0.05893
1193.30 0.05891
1193.40 0.05889
1193.50 0.05887
1193.60 0.05885
1193.70 0.05883
1193.80 0.05881
1193.90 0.0588
1194.00 0.05878
1194.10 0.05876
1194.20 0.05874
1194.30 0.05872
1194.40 0.0587
1194.50 0.05868
1194.60 0.05867
1194.70 0.05865
1194.80 0.05863
1194.90 0.05861
1195.00 0.05859
1195.10 0.05857
1195.20 0.05855
1195.30 0.05854
1195.40 0.05852
1195.50 0.0585
1195.60 0.05848
1195.70 0.05846
1195.80 0.05844
1195.90 0.05843
1196.00 0.05841
1196.10 0.05839
1196.20 0.05837
1196.30 0.05835
1196.40 0.05833
1196.50 0.05832
1196.60 0.0583
1196.70 0.05828
1196.80 0.05826
1196.90 0.05824
1197.00 0.05822
1197.10 0.0582
1197.20 0.05819
1197.30 0.05817
1197.40 0.05815
1197.50 0.05813
1197.60 0.05811
1197.70 0.05809
1197.80 0.05808
1197.90 0.05806
1198.00 0.05804
1198.10 0.05802
1198.20 0.058
1198.30 0.05798
1198.40 0.05796
1198.50 0.05795
1198.60 0.05793
1198.70 0.05791
1198.80 0.05789
1198.90 0.05787
1199.00 0.05785
1199.10 0.05784
1199.20 0.05782
1199.30 0.0578
1199.40 0.05778
1199.50 0.05776
1199.60 0.05774
1199.70 0.05773
1199.80 0.05771
1199.90 0.05769
1200.00 0
