# Version 2.1 - nm, norm@500 to 1, cut digits, bergeron_12500_80.dat_12500
# Wavelength(nm)  Flambda(ergs/cm^s/s/nm)
300.00 1.904
300.10 1.902
300.20 1.901
300.30 1.9
300.40 1.899
300.50 1.897
300.60 1.896
300.70 1.895
300.80 1.894
300.90 1.892
301.00 1.891
301.10 1.89
301.20 1.889
301.30 1.888
301.40 1.886
301.50 1.885
301.60 1.884
301.70 1.883
301.80 1.881
301.90 1.88
302.00 1.879
302.10 1.878
302.20 1.877
302.30 1.875
302.40 1.874
302.50 1.873
302.60 1.872
302.70 1.87
302.80 1.869
302.90 1.868
303.00 1.867
303.10 1.866
303.20 1.864
303.30 1.863
303.40 1.862
303.50 1.861
303.60 1.86
303.70 1.858
303.80 1.857
303.90 1.856
304.00 1.855
304.10 1.853
304.20 1.852
304.30 1.851
304.40 1.85
304.50 1.849
304.60 1.847
304.70 1.846
304.80 1.845
304.90 1.844
305.00 1.843
305.10 1.842
305.20 1.84
305.30 1.839
305.40 1.838
305.50 1.837
305.60 1.836
305.70 1.834
305.80 1.833
305.90 1.832
306.00 1.831
306.10 1.83
306.20 1.828
306.30 1.827
306.40 1.826
306.50 1.825
306.60 1.824
306.70 1.823
306.80 1.821
306.90 1.82
307.00 1.819
307.10 1.818
307.20 1.817
307.30 1.815
307.40 1.814
307.50 1.813
307.60 1.812
307.70 1.811
307.80 1.81
307.90 1.808
308.00 1.807
308.10 1.806
308.20 1.805
308.30 1.804
308.40 1.803
308.50 1.801
308.60 1.8
308.70 1.799
308.80 1.798
308.90 1.797
309.00 1.796
309.10 1.795
309.20 1.793
309.30 1.792
309.40 1.791
309.50 1.79
309.60 1.789
309.70 1.788
309.80 1.786
309.90 1.785
310.00 1.784
310.10 1.783
310.20 1.782
310.30 1.781
310.40 1.78
310.50 1.778
310.60 1.777
310.70 1.776
310.80 1.775
310.90 1.774
311.00 1.773
311.10 1.772
311.20 1.77
311.30 1.769
311.40 1.768
311.50 1.767
311.60 1.766
311.70 1.765
311.80 1.764
311.90 1.763
312.00 1.761
312.10 1.76
312.20 1.759
312.30 1.758
312.40 1.757
312.50 1.756
312.60 1.755
312.70 1.753
312.80 1.752
312.90 1.751
313.00 1.75
313.10 1.749
313.20 1.748
313.30 1.747
313.40 1.746
313.50 1.745
313.60 1.743
313.70 1.742
313.80 1.741
313.90 1.74
314.00 1.739
314.10 1.738
314.20 1.737
314.30 1.736
314.40 1.735
314.50 1.733
314.60 1.732
314.70 1.731
314.80 1.73
314.90 1.729
315.00 1.728
315.10 1.727
315.20 1.726
315.30 1.725
315.40 1.723
315.50 1.722
315.60 1.721
315.70 1.72
315.80 1.719
315.90 1.718
316.00 1.717
316.10 1.716
316.20 1.715
316.30 1.714
316.40 1.712
316.50 1.711
316.60 1.71
316.70 1.709
316.80 1.708
316.90 1.707
317.00 1.706
317.10 1.705
317.20 1.704
317.30 1.703
317.40 1.702
317.50 1.701
317.60 1.699
317.70 1.698
317.80 1.697
317.90 1.696
318.00 1.695
318.10 1.694
318.20 1.693
318.30 1.692
318.40 1.691
318.50 1.69
318.60 1.689
318.70 1.688
318.80 1.687
318.90 1.685
319.00 1.684
319.10 1.683
319.20 1.682
319.30 1.681
319.40 1.68
319.50 1.679
319.60 1.678
319.70 1.677
319.80 1.676
319.90 1.675
320.00 1.674
320.10 1.673
320.20 1.672
320.30 1.671
320.40 1.669
320.50 1.668
320.60 1.667
320.70 1.666
320.80 1.665
320.90 1.664
321.00 1.663
321.10 1.662
321.20 1.661
321.30 1.66
321.40 1.659
321.50 1.658
321.60 1.657
321.70 1.656
321.80 1.655
321.90 1.654
322.00 1.653
322.10 1.652
322.20 1.651
322.30 1.65
322.40 1.648
322.50 1.647
322.60 1.646
322.70 1.645
322.80 1.644
322.90 1.643
323.00 1.642
323.10 1.641
323.20 1.64
323.30 1.639
323.40 1.638
323.50 1.637
323.60 1.636
323.70 1.635
323.80 1.634
323.90 1.633
324.00 1.632
324.10 1.631
324.20 1.63
324.30 1.629
324.40 1.628
324.50 1.627
324.60 1.626
324.70 1.625
324.80 1.624
324.90 1.623
325.00 1.622
325.10 1.621
325.20 1.62
325.30 1.619
325.40 1.618
325.50 1.617
325.60 1.616
325.70 1.615
325.80 1.614
325.90 1.612
326.00 1.611
326.10 1.61
326.20 1.609
326.30 1.608
326.40 1.607
326.50 1.606
326.60 1.605
326.70 1.604
326.80 1.603
326.90 1.602
327.00 1.601
327.10 1.6
327.20 1.599
327.30 1.598
327.40 1.597
327.50 1.596
327.60 1.595
327.70 1.594
327.80 1.593
327.90 1.592
328.00 1.591
328.10 1.59
328.20 1.589
328.30 1.588
328.40 1.587
328.50 1.586
328.60 1.585
328.70 1.584
328.80 1.583
328.90 1.582
329.00 1.581
329.10 1.58
329.20 1.579
329.30 1.578
329.40 1.577
329.50 1.576
329.60 1.576
329.70 1.575
329.80 1.574
329.90 1.573
330.00 1.572
330.10 1.571
330.20 1.57
330.30 1.569
330.40 1.568
330.50 1.567
330.60 1.566
330.70 1.565
330.80 1.564
330.90 1.563
331.00 1.562
331.10 1.561
331.20 1.56
331.30 1.559
331.40 1.558
331.50 1.557
331.60 1.556
331.70 1.555
331.80 1.554
331.90 1.553
332.00 1.552
332.10 1.551
332.20 1.55
332.30 1.549
332.40 1.548
332.50 1.547
332.60 1.546
332.70 1.545
332.80 1.544
332.90 1.543
333.00 1.542
333.10 1.541
333.20 1.541
333.30 1.54
333.40 1.539
333.50 1.538
333.60 1.537
333.70 1.536
333.80 1.535
333.90 1.534
334.00 1.533
334.10 1.532
334.20 1.531
334.30 1.53
334.40 1.529
334.50 1.528
334.60 1.527
334.70 1.526
334.80 1.525
334.90 1.524
335.00 1.523
335.10 1.522
335.20 1.521
335.30 1.521
335.40 1.52
335.50 1.519
335.60 1.518
335.70 1.517
335.80 1.516
335.90 1.515
336.00 1.514
336.10 1.513
336.20 1.512
336.30 1.511
336.40 1.51
336.50 1.509
336.60 1.508
336.70 1.507
336.80 1.506
336.90 1.506
337.00 1.505
337.10 1.504
337.20 1.503
337.30 1.502
337.40 1.501
337.50 1.5
337.60 1.499
337.70 1.498
337.80 1.497
337.90 1.496
338.00 1.495
338.10 1.494
338.20 1.493
338.30 1.493
338.40 1.492
338.50 1.491
338.60 1.49
338.70 1.489
338.80 1.488
338.90 1.487
339.00 1.486
339.10 1.485
339.20 1.484
339.30 1.483
339.40 1.482
339.50 1.482
339.60 1.481
339.70 1.48
339.80 1.479
339.90 1.478
340.00 1.477
340.10 1.476
340.20 1.475
340.30 1.474
340.40 1.473
340.50 1.472
340.60 1.472
340.70 1.471
340.80 1.47
340.90 1.469
341.00 1.468
341.10 1.467
341.20 1.466
341.30 1.465
341.40 1.464
341.50 1.463
341.60 1.463
341.70 1.462
341.80 1.461
341.90 1.46
342.00 1.459
342.10 1.458
342.20 1.457
342.30 1.456
342.40 1.455
342.50 1.454
342.60 1.454
342.70 1.453
342.80 1.452
342.90 1.451
343.00 1.45
343.10 1.449
343.20 1.448
343.30 1.447
343.40 1.446
343.50 1.446
343.60 1.445
343.70 1.444
343.80 1.443
343.90 1.442
344.00 1.441
344.10 1.44
344.20 1.439
344.30 1.438
344.40 1.438
344.50 1.437
344.60 1.436
344.70 1.435
344.80 1.434
344.90 1.433
345.00 1.432
345.10 1.431
345.20 1.431
345.30 1.43
345.40 1.429
345.50 1.428
345.60 1.427
345.70 1.426
345.80 1.425
345.90 1.424
346.00 1.424
346.10 1.423
346.20 1.422
346.30 1.421
346.40 1.42
346.50 1.419
346.60 1.418
346.70 1.418
346.80 1.417
346.90 1.416
347.00 1.415
347.10 1.414
347.20 1.413
347.30 1.412
347.40 1.411
347.50 1.411
347.60 1.41
347.70 1.409
347.80 1.408
347.90 1.407
348.00 1.406
348.10 1.405
348.20 1.405
348.30 1.404
348.40 1.403
348.50 1.402
348.60 1.401
348.70 1.4
348.80 1.399
348.90 1.399
349.00 1.398
349.10 1.397
349.20 1.396
349.30 1.395
349.40 1.394
349.50 1.394
349.60 1.393
349.70 1.392
349.80 1.391
349.90 1.39
350.00 1.389
350.10 1.388
350.20 1.388
350.30 1.387
350.40 1.386
350.50 1.385
350.60 1.384
350.70 1.383
350.80 1.383
350.90 1.382
351.00 1.381
351.10 1.38
351.20 1.379
351.30 1.378
351.40 1.378
351.50 1.377
351.60 1.376
351.70 1.375
351.80 1.374
351.90 1.373
352.00 1.373
352.10 1.372
352.20 1.371
352.30 1.37
352.40 1.369
352.50 1.368
352.60 1.368
352.70 1.367
352.80 1.366
352.90 1.365
353.00 1.364
353.10 1.363
353.20 1.363
353.30 1.362
353.40 1.361
353.50 1.36
353.60 1.359
353.70 1.359
353.80 1.358
353.90 1.357
354.00 1.356
354.10 1.355
354.20 1.354
354.30 1.354
354.40 1.353
354.50 1.352
354.60 1.351
354.70 1.35
354.80 1.35
354.90 1.349
355.00 1.348
355.10 1.347
355.20 1.346
355.30 1.345
355.40 1.345
355.50 1.344
355.60 1.343
355.70 1.342
355.80 1.341
355.90 1.341
356.00 1.34
356.10 1.339
356.20 1.338
356.30 1.337
356.40 1.337
356.50 1.336
356.60 1.335
356.70 1.334
356.80 1.333
356.90 1.333
357.00 1.332
357.10 1.331
357.20 1.33
357.30 1.329
357.40 1.329
357.50 1.328
357.60 1.327
357.70 1.326
357.80 1.325
357.90 1.325
358.00 1.324
358.10 1.323
358.20 1.322
358.30 1.321
358.40 1.321
358.50 1.32
358.60 1.319
358.70 1.318
358.80 1.317
358.90 1.317
359.00 1.316
359.10 1.315
359.20 1.314
359.30 1.314
359.40 1.313
359.50 1.312
359.60 1.311
359.70 1.31
359.80 1.31
359.90 1.309
360.00 1.308
360.10 1.307
360.20 1.306
360.30 1.306
360.40 1.305
360.50 1.304
360.60 1.303
360.70 1.303
360.80 1.302
360.90 1.301
361.00 1.3
361.10 1.299
361.20 1.299
361.30 1.298
361.40 1.297
361.50 1.296
361.60 1.296
361.70 1.295
361.80 1.294
361.90 1.293
362.00 1.292
362.10 1.292
362.20 1.291
362.30 1.29
362.40 1.289
362.50 1.289
362.60 1.288
362.70 1.287
362.80 1.286
362.90 1.286
363.00 1.285
363.10 1.284
363.20 1.283
363.30 1.282
363.40 1.281
363.50 1.28
363.60 1.28
363.70 1.279
363.80 1.278
363.90 1.277
364.00 1.276
364.10 1.275
364.20 1.275
364.30 1.274
364.40 1.273
364.50 1.272
364.60 1.271
364.70 1.27
364.80 1.269
364.90 1.268
365.00 1.268
365.10 1.267
365.20 1.266
365.30 1.265
365.40 1.264
365.50 1.263
365.60 1.262
365.70 1.262
365.80 1.261
365.90 1.26
366.00 1.259
366.10 1.258
366.20 1.257
366.30 1.257
366.40 1.256
366.50 1.255
366.60 1.254
366.70 1.254
366.80 1.253
366.90 1.252
367.00 1.251
367.10 1.25
367.20 1.25
367.30 1.249
367.40 1.248
367.50 1.247
367.60 1.247
367.70 1.246
367.80 1.245
367.90 1.244
368.00 1.244
368.10 1.243
368.20 1.242
368.30 1.242
368.40 1.241
368.50 1.241
368.60 1.24
368.70 1.239
368.80 1.239
368.90 1.238
369.00 1.238
369.10 1.237
369.20 1.236
369.30 1.236
369.40 1.235
369.50 1.235
369.60 1.234
369.70 1.234
369.80 1.233
369.90 1.232
370.00 1.232
370.10 1.232
370.20 1.232
370.30 1.232
370.40 1.232
370.50 1.232
370.60 1.232
370.70 1.232
370.80 1.232
370.90 1.232
371.00 1.232
371.10 1.232
371.20 1.232
371.30 1.232
371.40 1.232
371.50 1.232
371.60 1.232
371.70 1.232
371.80 1.232
371.90 1.232
372.00 1.232
372.10 1.233
372.20 1.233
372.30 1.234
372.40 1.235
372.50 1.236
372.60 1.237
372.70 1.237
372.80 1.238
372.90 1.239
373.00 1.24
373.10 1.241
373.20 1.241
373.30 1.242
373.40 1.243
373.50 1.244
373.60 1.245
373.70 1.246
373.80 1.246
373.90 1.247
374.00 1.248
374.10 1.249
374.20 1.25
374.30 1.252
374.40 1.253
374.50 1.254
374.60 1.255
374.70 1.256
374.80 1.258
374.90 1.259
375.00 1.26
375.10 1.261
375.20 1.262
375.30 1.264
375.40 1.265
375.50 1.266
375.60 1.267
375.70 1.268
375.80 1.27
375.90 1.271
376.00 1.272
376.10 1.273
376.20 1.273
376.30 1.274
376.40 1.274
376.50 1.275
376.60 1.276
376.70 1.276
376.80 1.277
376.90 1.277
377.00 1.278
377.10 1.277
377.20 1.276
377.30 1.275
377.40 1.274
377.50 1.273
377.60 1.272
377.70 1.27
377.80 1.269
377.90 1.268
378.00 1.267
378.10 1.261
378.20 1.255
378.30 1.248
378.40 1.242
378.50 1.236
378.60 1.23
378.70 1.223
378.80 1.217
378.90 1.211
379.00 1.205
379.10 1.2
379.20 1.195
379.30 1.191
379.40 1.186
379.50 1.182
379.60 1.177
379.70 1.172
379.80 1.168
379.90 1.163
380.00 1.159
380.10 1.166
380.20 1.173
380.30 1.18
380.40 1.188
380.50 1.195
380.60 1.202
380.70 1.209
380.80 1.216
380.90 1.223
381.00 1.23
381.10 1.233
381.20 1.235
381.30 1.238
381.40 1.24
381.50 1.243
381.60 1.242
381.70 1.24
381.80 1.237
381.90 1.234
382.00 1.229
382.10 1.222
382.20 1.214
382.30 1.2
382.40 1.185
382.50 1.17
382.60 1.155
382.70 1.14
382.80 1.125
382.90 1.111
383.00 1.096
383.10 1.081
383.20 1.066
383.30 1.055
383.40 1.041
383.50 1.027
383.60 1.03
383.70 1.045
383.80 1.059
383.90 1.071
384.00 1.086
384.10 1.104
384.20 1.124
384.30 1.144
384.40 1.162
384.50 1.179
384.60 1.194
384.70 1.208
384.80 1.22
384.90 1.231
385.00 1.24
385.10 1.247
385.20 1.254
385.30 1.26
385.40 1.264
385.50 1.267
385.60 1.27
385.70 1.271
385.80 1.272
385.90 1.273
386.00 1.272
386.10 1.271
386.20 1.269
386.30 1.266
386.40 1.262
386.50 1.258
386.60 1.253
386.70 1.247
386.80 1.24
386.90 1.233
387.00 1.224
387.10 1.216
387.20 1.205
387.30 1.194
387.40 1.182
387.50 1.168
387.60 1.152
387.70 1.136
387.80 1.117
387.90 1.097
388.00 1.075
388.10 1.05
388.20 1.022
388.30 0.9928
388.40 0.9619
388.50 0.9337
388.60 0.9081
388.70 0.8871
388.80 0.868
388.90 0.8509
389.00 0.8665
389.10 0.8848
389.20 0.9057
389.30 0.9309
389.40 0.959
389.50 0.9902
389.60 1.021
389.70 1.049
389.80 1.076
389.90 1.098
390.00 1.12
390.10 1.14
390.20 1.158
390.30 1.176
390.40 1.192
390.50 1.206
390.60 1.22
390.70 1.232
390.80 1.244
390.90 1.255
391.00 1.265
391.10 1.275
391.20 1.284
391.30 1.293
391.40 1.301
391.50 1.308
391.60 1.315
391.70 1.322
391.80 1.327
391.90 1.333
392.00 1.337
392.10 1.341
392.20 1.344
392.30 1.346
392.40 1.348
392.50 1.35
392.60 1.35
392.70 1.35
392.80 1.35
392.90 1.348
393.00 1.347
393.10 1.344
393.20 1.341
393.30 1.337
393.40 1.333
393.50 1.328
393.60 1.322
393.70 1.315
393.80 1.308
393.90 1.3
394.00 1.292
394.10 1.282
394.20 1.272
394.30 1.262
394.40 1.251
394.50 1.239
394.60 1.226
394.70 1.213
394.80 1.199
394.90 1.185
395.00 1.17
395.10 1.155
395.20 1.139
395.30 1.122
395.40 1.104
395.50 1.086
395.60 1.066
395.70 1.046
395.80 1.025
395.90 1.002
396.00 0.9791
396.10 0.9549
396.20 0.9277
396.30 0.8983
396.40 0.8668
396.50 0.8313
396.60 0.7964
396.70 0.762
396.80 0.7329
396.90 0.7014
397.00 0.6675
397.10 0.6985
397.20 0.7281
397.30 0.7563
397.40 0.7898
397.50 0.8241
397.60 0.8592
397.70 0.8905
397.80 0.9198
397.90 0.9468
398.00 0.9707
398.10 0.9937
398.20 1.016
398.30 1.037
398.40 1.057
398.50 1.077
398.60 1.095
398.70 1.113
398.80 1.13
398.90 1.146
399.00 1.162
399.10 1.178
399.20 1.193
399.30 1.208
399.40 1.222
399.50 1.236
399.60 1.249
399.70 1.262
399.80 1.275
399.90 1.287
400.00 1.299
400.10 1.31
400.20 1.321
400.30 1.331
400.40 1.341
400.50 1.351
400.60 1.36
400.70 1.368
400.80 1.377
400.90 1.384
401.00 1.392
401.10 1.399
401.20 1.406
401.30 1.412
401.40 1.418
401.50 1.424
401.60 1.429
401.70 1.434
401.80 1.439
401.90 1.443
402.00 1.447
402.10 1.45
402.20 1.454
402.30 1.457
402.40 1.459
402.50 1.462
402.60 1.464
402.70 1.466
402.80 1.467
402.90 1.468
403.00 1.469
403.10 1.469
403.20 1.47
403.30 1.469
403.40 1.469
403.50 1.468
403.60 1.467
403.70 1.466
403.80 1.464
403.90 1.462
404.00 1.46
404.10 1.458
404.20 1.455
404.30 1.451
404.40 1.448
404.50 1.444
404.60 1.44
404.70 1.436
404.80 1.431
404.90 1.426
405.00 1.42
405.10 1.415
405.20 1.409
405.30 1.402
405.40 1.396
405.50 1.388
405.60 1.381
405.70 1.373
405.80 1.365
405.90 1.357
406.00 1.348
406.10 1.338
406.20 1.329
406.30 1.319
406.40 1.309
406.50 1.298
406.60 1.287
406.70 1.275
406.80 1.264
406.90 1.251
407.00 1.239
407.10 1.225
407.20 1.212
407.30 1.198
407.40 1.183
407.50 1.168
407.60 1.153
407.70 1.137
407.80 1.121
407.90 1.105
408.00 1.088
408.10 1.07
408.20 1.052
408.30 1.034
408.40 1.016
408.50 0.9969
408.60 0.9777
408.70 0.9582
408.80 0.9381
408.90 0.9178
409.00 0.8972
409.10 0.876
409.20 0.8542
409.30 0.8319
409.40 0.8077
409.50 0.782
409.60 0.7547
409.70 0.7242
409.80 0.6929
409.90 0.661
410.00 0.6267
410.10 0.5944
410.20 0.564
410.30 0.6074
410.40 0.6449
410.50 0.6767
410.60 0.708
410.70 0.738
410.80 0.7669
410.90 0.7922
411.00 0.8162
411.10 0.8388
411.20 0.8598
411.30 0.8804
411.40 0.9004
411.50 0.9199
411.60 0.9391
411.70 0.9579
411.80 0.9762
411.90 0.9943
412.00 1.012
412.10 1.029
412.20 1.046
412.30 1.063
412.40 1.079
412.50 1.094
412.60 1.11
412.70 1.125
412.80 1.139
412.90 1.153
413.00 1.167
413.10 1.18
413.20 1.193
413.30 1.206
413.40 1.218
413.50 1.23
413.60 1.241
413.70 1.252
413.80 1.263
413.90 1.273
414.00 1.283
414.10 1.293
414.20 1.302
414.30 1.312
414.40 1.32
414.50 1.329
414.60 1.337
414.70 1.345
414.80 1.353
414.90 1.361
415.00 1.368
415.10 1.375
415.20 1.382
415.30 1.389
415.40 1.395
415.50 1.401
415.60 1.407
415.70 1.413
415.80 1.419
415.90 1.424
416.00 1.429
416.10 1.435
416.20 1.44
416.30 1.444
416.40 1.449
416.50 1.453
416.60 1.457
416.70 1.462
416.80 1.466
416.90 1.469
417.00 1.473
417.10 1.476
417.20 1.48
417.30 1.483
417.40 1.486
417.50 1.489
417.60 1.492
417.70 1.495
417.80 1.497
417.90 1.5
418.00 1.502
418.10 1.505
418.20 1.507
418.30 1.509
418.40 1.511
418.50 1.512
418.60 1.514
418.70 1.516
418.80 1.517
418.90 1.519
419.00 1.52
419.10 1.521
419.20 1.523
419.30 1.524
419.40 1.525
419.50 1.526
419.60 1.526
419.70 1.527
419.80 1.528
419.90 1.529
420.00 1.529
420.10 1.529
420.20 1.53
420.30 1.53
420.40 1.53
420.50 1.53
420.60 1.531
420.70 1.531
420.80 1.53
420.90 1.53
421.00 1.53
421.10 1.53
421.20 1.529
421.30 1.529
421.40 1.529
421.50 1.528
421.60 1.527
421.70 1.527
421.80 1.526
421.90 1.525
422.00 1.524
422.10 1.523
422.20 1.522
422.30 1.521
422.40 1.52
422.50 1.519
422.60 1.517
422.70 1.516
422.80 1.515
422.90 1.513
423.00 1.512
423.10 1.51
423.20 1.508
423.30 1.506
423.40 1.505
423.50 1.503
423.60 1.501
423.70 1.499
423.80 1.497
423.90 1.495
424.00 1.492
424.10 1.49
424.20 1.488
424.30 1.485
424.40 1.483
424.50 1.48
424.60 1.477
424.70 1.475
424.80 1.472
424.90 1.469
425.00 1.466
425.10 1.463
425.20 1.46
425.30 1.456
425.40 1.453
425.50 1.45
425.60 1.446
425.70 1.443
425.80 1.439
425.90 1.435
426.00 1.431
426.10 1.427
426.20 1.423
426.30 1.418
426.40 1.414
426.50 1.409
426.60 1.405
426.70 1.4
426.80 1.396
426.90 1.391
427.00 1.386
427.10 1.381
427.20 1.376
427.30 1.371
427.40 1.365
427.50 1.36
427.60 1.354
427.70 1.348
427.80 1.343
427.90 1.337
428.00 1.33
428.10 1.324
428.20 1.318
428.30 1.311
428.40 1.304
428.50 1.298
428.60 1.291
428.70 1.283
428.80 1.276
428.90 1.268
429.00 1.261
429.10 1.253
429.20 1.245
429.30 1.237
429.40 1.228
429.50 1.219
429.60 1.211
429.70 1.202
429.80 1.192
429.90 1.183
430.00 1.173
430.10 1.163
430.20 1.153
430.30 1.143
430.40 1.132
430.50 1.121
430.60 1.11
430.70 1.099
430.80 1.088
430.90 1.076
431.00 1.064
431.10 1.052
431.20 1.039
431.30 1.027
431.40 1.014
431.50 1
431.60 0.9868
431.70 0.973
431.80 0.9589
431.90 0.9443
432.00 0.9293
432.10 0.9141
432.20 0.8982
432.30 0.8818
432.40 0.865
432.50 0.8472
432.60 0.8289
432.70 0.8101
432.80 0.7908
432.90 0.7716
433.00 0.7526
433.10 0.7347
433.20 0.7169
433.30 0.6991
433.40 0.6798
433.50 0.6589
433.60 0.6365
433.70 0.6095
433.80 0.5795
433.90 0.5463
434.00 0.4843
434.10 0.4852
434.20 0.549
434.30 0.5811
434.40 0.6103
434.50 0.6365
434.60 0.6582
434.70 0.6783
434.80 0.6968
434.90 0.7139
435.00 0.731
435.10 0.7483
435.20 0.7665
435.30 0.7848
435.40 0.8032
435.50 0.8211
435.60 0.8384
435.70 0.8551
435.80 0.8708
435.90 0.886
436.00 0.9008
436.10 0.9149
436.20 0.9286
436.30 0.942
436.40 0.9549
436.50 0.9674
436.60 0.9797
436.70 0.9916
436.80 1.003
436.90 1.015
437.00 1.026
437.10 1.036
437.20 1.047
437.30 1.057
437.40 1.067
437.50 1.077
437.60 1.087
437.70 1.096
437.80 1.105
437.90 1.114
438.00 1.122
438.10 1.131
438.20 1.139
438.30 1.147
438.40 1.154
438.50 1.162
438.60 1.169
438.70 1.176
438.80 1.183
438.90 1.19
439.00 1.196
439.10 1.202
439.20 1.208
439.30 1.214
439.40 1.22
439.50 1.226
439.60 1.231
439.70 1.236
439.80 1.241
439.90 1.246
440.00 1.251
440.10 1.256
440.20 1.26
440.30 1.265
440.40 1.269
440.50 1.273
440.60 1.277
440.70 1.281
440.80 1.285
440.90 1.288
441.00 1.292
441.10 1.295
441.20 1.299
441.30 1.302
441.40 1.305
441.50 1.308
441.60 1.311
441.70 1.314
441.80 1.317
441.90 1.32
442.00 1.322
442.10 1.325
442.20 1.327
442.30 1.329
442.40 1.332
442.50 1.334
442.60 1.336
442.70 1.338
442.80 1.34
442.90 1.342
443.00 1.344
443.10 1.345
443.20 1.347
443.30 1.349
443.40 1.35
443.50 1.352
443.60 1.353
443.70 1.355
443.80 1.356
443.90 1.358
444.00 1.359
444.10 1.36
444.20 1.361
444.30 1.362
444.40 1.364
444.50 1.365
444.60 1.366
444.70 1.367
444.80 1.367
444.90 1.368
445.00 1.369
445.10 1.37
445.20 1.371
445.30 1.371
445.40 1.372
445.50 1.373
445.60 1.373
445.70 1.374
445.80 1.374
445.90 1.375
446.00 1.375
446.10 1.376
446.20 1.376
446.30 1.377
446.40 1.377
446.50 1.377
446.60 1.378
446.70 1.378
446.80 1.378
446.90 1.379
447.00 1.379
447.10 1.379
447.20 1.379
447.30 1.379
447.40 1.379
447.50 1.379
447.60 1.379
447.70 1.38
447.80 1.38
447.90 1.38
448.00 1.38
448.10 1.38
448.20 1.379
448.30 1.379
448.40 1.379
448.50 1.379
448.60 1.379
448.70 1.379
448.80 1.379
448.90 1.379
449.00 1.379
449.10 1.379
449.20 1.378
449.30 1.378
449.40 1.378
449.50 1.378
449.60 1.377
449.70 1.377
449.80 1.377
449.90 1.377
450.00 1.376
450.10 1.376
450.20 1.376
450.30 1.375
450.40 1.375
450.50 1.375
450.60 1.374
450.70 1.374
450.80 1.373
450.90 1.373
451.00 1.373
451.10 1.372
451.20 1.372
451.30 1.371
451.40 1.371
451.50 1.37
451.60 1.37
451.70 1.369
451.80 1.369
451.90 1.368
452.00 1.368
452.10 1.367
452.20 1.367
452.30 1.366
452.40 1.366
452.50 1.365
452.60 1.365
452.70 1.364
452.80 1.363
452.90 1.363
453.00 1.362
453.10 1.362
453.20 1.361
453.30 1.361
453.40 1.36
453.50 1.359
453.60 1.359
453.70 1.358
453.80 1.357
453.90 1.357
454.00 1.356
454.10 1.355
454.20 1.355
454.30 1.354
454.40 1.354
454.50 1.353
454.60 1.352
454.70 1.351
454.80 1.351
454.90 1.35
455.00 1.349
455.10 1.349
455.20 1.348
455.30 1.347
455.40 1.347
455.50 1.346
455.60 1.345
455.70 1.344
455.80 1.344
455.90 1.343
456.00 1.342
456.10 1.341
456.20 1.341
456.30 1.34
456.40 1.339
456.50 1.339
456.60 1.338
456.70 1.337
456.80 1.336
456.90 1.336
457.00 1.335
457.10 1.334
457.20 1.334
457.30 1.333
457.40 1.332
457.50 1.331
457.60 1.33
457.70 1.33
457.80 1.329
457.90 1.328
458.00 1.327
458.10 1.326
458.20 1.326
458.30 1.325
458.40 1.324
458.50 1.323
458.60 1.322
458.70 1.321
458.80 1.321
458.90 1.32
459.00 1.319
459.10 1.318
459.20 1.317
459.30 1.316
459.40 1.316
459.50 1.315
459.60 1.314
459.70 1.313
459.80 1.312
459.90 1.311
460.00 1.31
460.10 1.309
460.20 1.309
460.30 1.308
460.40 1.307
460.50 1.306
460.60 1.305
460.70 1.304
460.80 1.303
460.90 1.302
461.00 1.301
461.10 1.301
461.20 1.3
461.30 1.299
461.40 1.298
461.50 1.297
461.60 1.296
461.70 1.295
461.80 1.294
461.90 1.293
462.00 1.292
462.10 1.291
462.20 1.29
462.30 1.289
462.40 1.288
462.50 1.287
462.60 1.286
462.70 1.286
462.80 1.285
462.90 1.284
463.00 1.283
463.10 1.282
463.20 1.281
463.30 1.28
463.40 1.279
463.50 1.278
463.60 1.277
463.70 1.276
463.80 1.275
463.90 1.274
464.00 1.273
464.10 1.272
464.20 1.271
464.30 1.27
464.40 1.269
464.50 1.268
464.60 1.267
464.70 1.266
464.80 1.265
464.90 1.264
465.00 1.263
465.10 1.262
465.20 1.26
465.30 1.259
465.40 1.258
465.50 1.257
465.60 1.256
465.70 1.255
465.80 1.254
465.90 1.253
466.00 1.252
466.10 1.251
466.20 1.25
466.30 1.249
466.40 1.247
466.50 1.246
466.60 1.245
466.70 1.244
466.80 1.243
466.90 1.242
467.00 1.241
467.10 1.24
467.20 1.238
467.30 1.237
467.40 1.236
467.50 1.235
467.60 1.234
467.70 1.233
467.80 1.231
467.90 1.23
468.00 1.229
468.10 1.228
468.20 1.227
468.30 1.225
468.40 1.224
468.50 1.223
468.60 1.222
468.70 1.22
468.80 1.219
468.90 1.218
469.00 1.217
469.10 1.215
469.20 1.214
469.30 1.213
469.40 1.211
469.50 1.21
469.60 1.209
469.70 1.207
469.80 1.206
469.90 1.205
470.00 1.204
470.10 1.202
470.20 1.201
470.30 1.199
470.40 1.198
470.50 1.197
470.60 1.195
470.70 1.194
470.80 1.193
470.90 1.191
471.00 1.19
471.10 1.189
471.20 1.187
471.30 1.186
471.40 1.184
471.50 1.182
471.60 1.181
471.70 1.179
471.80 1.178
471.90 1.176
472.00 1.175
472.10 1.173
472.20 1.172
472.30 1.17
472.40 1.168
472.50 1.167
472.60 1.165
472.70 1.163
472.80 1.162
472.90 1.16
473.00 1.158
473.10 1.157
473.20 1.155
473.30 1.153
473.40 1.151
473.50 1.149
473.60 1.147
473.70 1.146
473.80 1.144
473.90 1.142
474.00 1.14
474.10 1.138
474.20 1.136
474.30 1.134
474.40 1.132
474.50 1.13
474.60 1.128
474.70 1.126
474.80 1.124
474.90 1.122
475.00 1.12
475.10 1.118
475.20 1.115
475.30 1.113
475.40 1.111
475.50 1.108
475.60 1.106
475.70 1.104
475.80 1.101
475.90 1.099
476.00 1.097
476.10 1.094
476.20 1.092
476.30 1.089
476.40 1.086
476.50 1.084
476.60 1.081
476.70 1.079
476.80 1.076
476.90 1.073
477.00 1.071
477.10 1.068
477.20 1.065
477.30 1.062
477.40 1.059
477.50 1.056
477.60 1.053
477.70 1.05
477.80 1.047
477.90 1.044
478.00 1.041
478.10 1.038
478.20 1.034
478.30 1.031
478.40 1.027
478.50 1.023
478.60 1.02
478.70 1.016
478.80 1.013
478.90 1.009
479.00 1.006
479.10 1.002
479.20 0.998
479.30 0.9938
479.40 0.9896
479.50 0.9855
479.60 0.9813
479.70 0.9771
479.80 0.9729
479.90 0.9687
480.00 0.9645
480.10 0.9604
480.20 0.9556
480.30 0.9506
480.40 0.9456
480.50 0.9407
480.60 0.9357
480.70 0.9307
480.80 0.9257
480.90 0.9208
481.00 0.9158
481.10 0.9109
481.20 0.9052
481.30 0.8991
481.40 0.8931
481.50 0.8871
481.60 0.881
481.70 0.875
481.80 0.869
481.90 0.863
482.00 0.857
482.10 0.851
482.20 0.844
482.30 0.8367
482.40 0.8293
482.50 0.8219
482.60 0.8146
482.70 0.8072
482.80 0.7999
482.90 0.7926
483.00 0.7852
483.10 0.7779
483.20 0.7693
483.30 0.7601
483.40 0.7509
483.50 0.7418
483.60 0.7326
483.70 0.7234
483.80 0.7143
483.90 0.7051
484.00 0.696
484.10 0.6868
484.20 0.6767
484.30 0.666
484.40 0.6553
484.50 0.6447
484.60 0.6341
484.70 0.623
484.80 0.6118
484.90 0.6005
485.00 0.5893
485.10 0.5781
485.20 0.5668
485.30 0.5556
485.40 0.544
485.50 0.5321
485.60 0.519
485.70 0.5054
485.80 0.4876
485.90 0.468
486.00 0.4394
486.10 0.3672
486.20 0.3992
486.30 0.4511
486.40 0.4736
486.50 0.493
486.60 0.5083
486.70 0.5215
486.80 0.5335
486.90 0.5449
487.00 0.5558
487.10 0.5665
487.20 0.5771
487.30 0.5878
487.40 0.5984
487.50 0.609
487.60 0.6196
487.70 0.6297
487.80 0.6396
487.90 0.6495
488.00 0.6594
488.10 0.6693
488.20 0.6781
488.30 0.6864
488.40 0.6947
488.50 0.703
488.60 0.7113
488.70 0.7195
488.80 0.7278
488.90 0.7361
489.00 0.7443
489.10 0.7525
489.20 0.7595
489.30 0.7658
489.40 0.7721
489.50 0.7784
489.60 0.7846
489.70 0.7909
489.80 0.7972
489.90 0.8035
490.00 0.8097
490.10 0.816
490.20 0.8213
490.30 0.8262
490.40 0.831
490.50 0.8358
490.60 0.8407
490.70 0.8455
490.80 0.8503
490.90 0.8551
491.00 0.86
491.10 0.8648
491.20 0.8688
491.30 0.8725
491.40 0.8762
491.50 0.8799
491.60 0.8836
491.70 0.8873
491.80 0.891
491.90 0.8947
492.00 0.8984
492.10 0.902
492.20 0.9051
492.30 0.908
492.40 0.9108
492.50 0.9136
492.60 0.9164
492.70 0.9193
492.80 0.9221
492.90 0.9249
493.00 0.9277
493.10 0.9305
493.20 0.9329
493.30 0.9351
493.40 0.9373
493.50 0.9395
493.60 0.9416
493.70 0.9438
493.80 0.946
493.90 0.9482
494.00 0.9503
494.10 0.9525
494.20 0.9543
494.30 0.9559
494.40 0.9575
494.50 0.9591
494.60 0.9607
494.70 0.9623
494.80 0.9639
494.90 0.9655
495.00 0.9671
495.10 0.9687
495.20 0.97
495.30 0.9712
495.40 0.9724
495.50 0.9735
495.60 0.9747
495.70 0.9759
495.80 0.9771
495.90 0.9782
496.00 0.9794
496.10 0.9806
496.20 0.9815
496.30 0.9824
496.40 0.9832
496.50 0.984
496.60 0.9849
496.70 0.9857
496.80 0.9865
496.90 0.9874
497.00 0.9882
497.10 0.9891
497.20 0.9897
497.30 0.9903
497.40 0.9908
497.50 0.9914
497.60 0.992
497.70 0.9925
497.80 0.9931
497.90 0.9937
498.00 0.9942
498.10 0.9948
498.20 0.9952
498.30 0.9956
498.40 0.9959
498.50 0.9963
498.60 0.9966
498.70 0.997
498.80 0.9973
498.90 0.9977
499.00 0.998
499.10 0.9984
499.20 0.9986
499.30 0.9988
499.40 0.999
499.50 0.9991
499.60 0.9993
499.70 0.9995
499.80 0.9997
499.90 0.9998
500.00 1
500.10 1
500.20 1
500.30 1
500.40 1
500.50 1
500.60 1
500.70 1
500.80 1
500.90 1.001
501.00 1.001
501.10 1.001
501.20 1.001
501.30 1
501.40 1
501.50 1
501.60 1
501.70 1
501.80 1
501.90 1
502.00 1
502.10 1
502.20 0.9998
502.30 0.9997
502.40 0.9995
502.50 0.9994
502.60 0.9992
502.70 0.9991
502.80 0.9989
502.90 0.9988
503.00 0.9986
503.10 0.9985
503.20 0.9982
503.30 0.998
503.40 0.9978
503.50 0.9976
503.60 0.9974
503.70 0.9971
503.80 0.9969
503.90 0.9967
504.00 0.9965
504.10 0.9962
504.20 0.996
504.30 0.9957
504.40 0.9954
504.50 0.9951
504.60 0.9949
504.70 0.9946
504.80 0.9943
504.90 0.994
505.00 0.9937
505.10 0.9935
505.20 0.9931
505.30 0.9928
505.40 0.9925
505.50 0.9922
505.60 0.9918
505.70 0.9915
505.80 0.9912
505.90 0.9909
506.00 0.9905
506.10 0.9902
506.20 0.9899
506.30 0.9895
506.40 0.9891
506.50 0.9888
506.60 0.9884
506.70 0.988
506.80 0.9877
506.90 0.9873
507.00 0.9869
507.10 0.9866
507.20 0.9862
507.30 0.9858
507.40 0.9854
507.50 0.985
507.60 0.9846
507.70 0.9842
507.80 0.9838
507.90 0.9834
508.00 0.983
508.10 0.9826
508.20 0.9822
508.30 0.9818
508.40 0.9814
508.50 0.9809
508.60 0.9805
508.70 0.9801
508.80 0.9797
508.90 0.9793
509.00 0.9788
509.10 0.9784
509.20 0.978
509.30 0.9775
509.40 0.9771
509.50 0.9767
509.60 0.9762
509.70 0.9758
509.80 0.9753
509.90 0.9749
510.00 0.9745
510.10 0.974
510.20 0.9736
510.30 0.9731
510.40 0.9727
510.50 0.9722
510.60 0.9717
510.70 0.9713
510.80 0.9708
510.90 0.9704
511.00 0.9699
511.10 0.9695
511.20 0.969
511.30 0.9685
511.40 0.9681
511.50 0.9676
511.60 0.9671
511.70 0.9666
511.80 0.9662
511.90 0.9657
512.00 0.9652
512.10 0.9648
512.20 0.9643
512.30 0.9638
512.40 0.9633
512.50 0.9628
512.60 0.9624
512.70 0.9619
512.80 0.9614
512.90 0.9609
513.00 0.9604
513.10 0.96
513.20 0.9595
513.30 0.959
513.40 0.9585
513.50 0.958
513.60 0.9575
513.70 0.957
513.80 0.9566
513.90 0.9561
514.00 0.9556
514.10 0.9551
514.20 0.9546
514.30 0.9541
514.40 0.9536
514.50 0.9531
514.60 0.9526
514.70 0.9521
514.80 0.9516
514.90 0.9511
515.00 0.9506
515.10 0.9501
515.20 0.9497
515.30 0.9492
515.40 0.9487
515.50 0.9482
515.60 0.9477
515.70 0.9472
515.80 0.9467
515.90 0.9462
516.00 0.9457
516.10 0.9452
516.20 0.9447
516.30 0.9442
516.40 0.9437
516.50 0.9432
516.60 0.9427
516.70 0.9422
516.80 0.9416
516.90 0.9411
517.00 0.9406
517.10 0.9401
517.20 0.9396
517.30 0.9391
517.40 0.9386
517.50 0.9381
517.60 0.9376
517.70 0.9371
517.80 0.9366
517.90 0.9361
518.00 0.9356
518.10 0.9351
518.20 0.9346
518.30 0.9341
518.40 0.9336
518.50 0.9331
518.60 0.9326
518.70 0.9321
518.80 0.9316
518.90 0.9311
519.00 0.9306
519.10 0.93
519.20 0.9295
519.30 0.929
519.40 0.9285
519.50 0.928
519.60 0.9275
519.70 0.927
519.80 0.9265
519.90 0.926
520.00 0.9255
520.10 0.925
520.20 0.9245
520.30 0.924
520.40 0.9235
520.50 0.9229
520.60 0.9224
520.70 0.9219
520.80 0.9214
520.90 0.9209
521.00 0.9204
521.10 0.9199
521.20 0.9194
521.30 0.9189
521.40 0.9184
521.50 0.9179
521.60 0.9174
521.70 0.9169
521.80 0.9163
521.90 0.9158
522.00 0.9153
522.10 0.9148
522.20 0.9143
522.30 0.9138
522.40 0.9133
522.50 0.9128
522.60 0.9123
522.70 0.9118
522.80 0.9113
522.90 0.9108
523.00 0.9103
523.10 0.9098
523.20 0.9092
523.30 0.9087
523.40 0.9082
523.50 0.9077
523.60 0.9072
523.70 0.9067
523.80 0.9062
523.90 0.9057
524.00 0.9052
524.10 0.9047
524.20 0.9042
524.30 0.9037
524.40 0.9032
524.50 0.9027
524.60 0.9022
524.70 0.9016
524.80 0.9011
524.90 0.9006
525.00 0.9001
525.10 0.8996
525.20 0.8991
525.30 0.8986
525.40 0.8981
525.50 0.8976
525.60 0.8971
525.70 0.8966
525.80 0.8961
525.90 0.8956
526.00 0.8951
526.10 0.8946
526.20 0.8941
526.30 0.8936
526.40 0.8931
526.50 0.8926
526.60 0.8921
526.70 0.8916
526.80 0.8911
526.90 0.8906
527.00 0.8901
527.10 0.8896
527.20 0.8891
527.30 0.8886
527.40 0.8881
527.50 0.8876
527.60 0.8871
527.70 0.8866
527.80 0.8861
527.90 0.8856
528.00 0.8851
528.10 0.8846
528.20 0.8841
528.30 0.8836
528.40 0.8831
528.50 0.8826
528.60 0.8821
528.70 0.8816
528.80 0.8811
528.90 0.8806
529.00 0.8801
529.10 0.8796
529.20 0.8791
529.30 0.8786
529.40 0.8781
529.50 0.8776
529.60 0.8771
529.70 0.8766
529.80 0.8761
529.90 0.8756
530.00 0.8751
530.10 0.8746
530.20 0.8741
530.30 0.8736
530.40 0.8731
530.50 0.8726
530.60 0.8721
530.70 0.8716
530.80 0.8711
530.90 0.8706
531.00 0.8701
531.10 0.8697
531.20 0.8692
531.30 0.8687
531.40 0.8682
531.50 0.8677
531.60 0.8672
531.70 0.8667
531.80 0.8662
531.90 0.8657
532.00 0.8652
532.10 0.8647
532.20 0.8642
532.30 0.8638
532.40 0.8633
532.50 0.8628
532.60 0.8623
532.70 0.8618
532.80 0.8613
532.90 0.8608
533.00 0.8603
533.10 0.8598
533.20 0.8593
533.30 0.8589
533.40 0.8584
533.50 0.8579
533.60 0.8574
533.70 0.8569
533.80 0.8564
533.90 0.8559
534.00 0.8555
534.10 0.855
534.20 0.8545
534.30 0.854
534.40 0.8535
534.50 0.853
534.60 0.8525
534.70 0.8521
534.80 0.8516
534.90 0.8511
535.00 0.8506
535.10 0.8501
535.20 0.8496
535.30 0.8492
535.40 0.8487
535.50 0.8482
535.60 0.8477
535.70 0.8472
535.80 0.8468
535.90 0.8463
536.00 0.8458
536.10 0.8453
536.20 0.8448
536.30 0.8444
536.40 0.8439
536.50 0.8434
536.60 0.8429
536.70 0.8424
536.80 0.842
536.90 0.8415
537.00 0.841
537.10 0.8405
537.20 0.8401
537.30 0.8396
537.40 0.8391
537.50 0.8386
537.60 0.8381
537.70 0.8377
537.80 0.8372
537.90 0.8367
538.00 0.8362
538.10 0.8358
538.20 0.8353
538.30 0.8348
538.40 0.8343
538.50 0.8339
538.60 0.8334
538.70 0.8329
538.80 0.8325
538.90 0.832
539.00 0.8315
539.10 0.831
539.20 0.8306
539.30 0.8301
539.40 0.8296
539.50 0.8292
539.60 0.8287
539.70 0.8282
539.80 0.8277
539.90 0.8273
540.00 0.8268
540.10 0.8263
540.20 0.8259
540.30 0.8254
540.40 0.8249
540.50 0.8245
540.60 0.824
540.70 0.8235
540.80 0.8231
540.90 0.8226
541.00 0.8221
541.10 0.8217
541.20 0.8212
541.30 0.8207
541.40 0.8203
541.50 0.8198
541.60 0.8193
541.70 0.8189
541.80 0.8184
541.90 0.818
542.00 0.8175
542.10 0.817
542.20 0.8166
542.30 0.8161
542.40 0.8156
542.50 0.8152
542.60 0.8147
542.70 0.8143
542.80 0.8138
542.90 0.8133
543.00 0.8129
543.10 0.8124
543.20 0.812
543.30 0.8115
543.40 0.811
543.50 0.8106
543.60 0.8101
543.70 0.8097
543.80 0.8092
543.90 0.8087
544.00 0.8083
544.10 0.8078
544.20 0.8074
544.30 0.8069
544.40 0.8065
544.50 0.806
544.60 0.8055
544.70 0.8051
544.80 0.8046
544.90 0.8042
545.00 0.8037
545.10 0.8033
545.20 0.8028
545.30 0.8024
545.40 0.8019
545.50 0.8014
545.60 0.801
545.70 0.8005
545.80 0.8001
545.90 0.7996
546.00 0.7992
546.10 0.7987
546.20 0.7983
546.30 0.798
546.40 0.7976
546.50 0.7972
546.60 0.7968
546.70 0.7965
546.80 0.7961
546.90 0.7957
547.00 0.7953
547.10 0.7949
547.20 0.7945
547.30 0.7941
547.40 0.7936
547.50 0.7932
547.60 0.7927
547.70 0.7923
547.80 0.7918
547.90 0.7914
548.00 0.7909
548.10 0.7905
548.20 0.79
548.30 0.7896
548.40 0.7891
548.50 0.7887
548.60 0.7882
548.70 0.7878
548.80 0.7873
548.90 0.7869
549.00 0.7864
549.10 0.786
549.20 0.7855
549.30 0.7851
549.40 0.7847
549.50 0.7842
549.60 0.7838
549.70 0.7833
549.80 0.7829
549.90 0.7824
550.00 0.782
550.10 0.7815
550.20 0.7811
550.30 0.7807
550.40 0.7802
550.50 0.7798
550.60 0.7793
550.70 0.7789
550.80 0.7785
550.90 0.778
551.00 0.7776
551.10 0.7771
551.20 0.7767
551.30 0.7763
551.40 0.7758
551.50 0.7754
551.60 0.7749
551.70 0.7745
551.80 0.7741
551.90 0.7736
552.00 0.7732
552.10 0.7728
552.20 0.7723
552.30 0.7719
552.40 0.7714
552.50 0.771
552.60 0.7706
552.70 0.7701
552.80 0.7697
552.90 0.7693
553.00 0.7688
553.10 0.7684
553.20 0.768
553.30 0.7675
553.40 0.7671
553.50 0.7667
553.60 0.7662
553.70 0.7658
553.80 0.7654
553.90 0.7649
554.00 0.7645
554.10 0.7641
554.20 0.7636
554.30 0.7632
554.40 0.7628
554.50 0.7624
554.60 0.7619
554.70 0.7615
554.80 0.7611
554.90 0.7606
555.00 0.7602
555.10 0.7598
555.20 0.7594
555.30 0.7589
555.40 0.7585
555.50 0.7581
555.60 0.7576
555.70 0.7572
555.80 0.7568
555.90 0.7564
556.00 0.7559
556.10 0.7555
556.20 0.7551
556.30 0.7547
556.40 0.7542
556.50 0.7538
556.60 0.7534
556.70 0.753
556.80 0.7526
556.90 0.7521
557.00 0.7517
557.10 0.7513
557.20 0.7509
557.30 0.7504
557.40 0.75
557.50 0.7496
557.60 0.7492
557.70 0.7488
557.80 0.7483
557.90 0.7479
558.00 0.7475
558.10 0.7471
558.20 0.7467
558.30 0.7462
558.40 0.7458
558.50 0.7454
558.60 0.745
558.70 0.7446
558.80 0.7442
558.90 0.7437
559.00 0.7433
559.10 0.7429
559.20 0.7425
559.30 0.7421
559.40 0.7417
559.50 0.7412
559.60 0.7408
559.70 0.7404
559.80 0.74
559.90 0.7396
560.00 0.7392
560.10 0.7388
560.20 0.7384
560.30 0.7379
560.40 0.7375
560.50 0.7371
560.60 0.7367
560.70 0.7363
560.80 0.7359
560.90 0.7355
561.00 0.7351
561.10 0.7346
561.20 0.7342
561.30 0.7338
561.40 0.7334
561.50 0.733
561.60 0.7326
561.70 0.7322
561.80 0.7318
561.90 0.7314
562.00 0.731
562.10 0.7306
562.20 0.7301
562.30 0.7297
562.40 0.7293
562.50 0.7289
562.60 0.7285
562.70 0.7281
562.80 0.7277
562.90 0.7273
563.00 0.7269
563.10 0.7265
563.20 0.7261
563.30 0.7257
563.40 0.7253
563.50 0.7249
563.60 0.7245
563.70 0.7241
563.80 0.7237
563.90 0.7233
564.00 0.7229
564.10 0.7225
564.20 0.7221
564.30 0.7217
564.40 0.7213
564.50 0.7209
564.60 0.7205
564.70 0.7201
564.80 0.7197
564.90 0.7193
565.00 0.7189
565.10 0.7185
565.20 0.7181
565.30 0.7177
565.40 0.7173
565.50 0.7169
565.60 0.7165
565.70 0.7161
565.80 0.7157
565.90 0.7153
566.00 0.7149
566.10 0.7145
566.20 0.7141
566.30 0.7137
566.40 0.7133
566.50 0.7129
566.60 0.7125
566.70 0.7121
566.80 0.7117
566.90 0.7113
567.00 0.7109
567.10 0.7105
567.20 0.7101
567.30 0.7097
567.40 0.7093
567.50 0.709
567.60 0.7086
567.70 0.7082
567.80 0.7078
567.90 0.7074
568.00 0.707
568.10 0.7066
568.20 0.7062
568.30 0.7058
568.40 0.7054
568.50 0.705
568.60 0.7047
568.70 0.7043
568.80 0.7039
568.90 0.7035
569.00 0.7031
569.10 0.7027
569.20 0.7023
569.30 0.7019
569.40 0.7015
569.50 0.7012
569.60 0.7008
569.70 0.7004
569.80 0.7
569.90 0.6996
570.00 0.6992
570.10 0.6988
570.20 0.6984
570.30 0.6981
570.40 0.6977
570.50 0.6973
570.60 0.6969
570.70 0.6965
570.80 0.6961
570.90 0.6958
571.00 0.6954
571.10 0.695
571.20 0.6946
571.30 0.6942
571.40 0.6938
571.50 0.6935
571.60 0.6931
571.70 0.6927
571.80 0.6923
571.90 0.6919
572.00 0.6916
572.10 0.6912
572.20 0.6908
572.30 0.6904
572.40 0.69
572.50 0.6897
572.60 0.6893
572.70 0.6889
572.80 0.6885
572.90 0.6881
573.00 0.6878
573.10 0.6874
573.20 0.687
573.30 0.6866
573.40 0.6862
573.50 0.6859
573.60 0.6855
573.70 0.6851
573.80 0.6847
573.90 0.6844
574.00 0.684
574.10 0.6836
574.20 0.6832
574.30 0.6829
574.40 0.6825
574.50 0.6821
574.60 0.6817
574.70 0.6814
574.80 0.681
574.90 0.6806
575.00 0.6802
575.10 0.6799
575.20 0.6795
575.30 0.6791
575.40 0.6788
575.50 0.6784
575.60 0.678
575.70 0.6776
575.80 0.6773
575.90 0.6769
576.00 0.6765
576.10 0.6762
576.20 0.6758
576.30 0.6754
576.40 0.675
576.50 0.6747
576.60 0.6743
576.70 0.6739
576.80 0.6736
576.90 0.6732
577.00 0.6728
577.10 0.6725
577.20 0.6721
577.30 0.6717
577.40 0.6714
577.50 0.671
577.60 0.6706
577.70 0.6703
577.80 0.6699
577.90 0.6695
578.00 0.6692
578.10 0.6688
578.20 0.6684
578.30 0.6681
578.40 0.6677
578.50 0.6673
578.60 0.667
578.70 0.6666
578.80 0.6663
578.90 0.6659
579.00 0.6655
579.10 0.6652
579.20 0.6648
579.30 0.6644
579.40 0.6641
579.50 0.6637
579.60 0.6634
579.70 0.663
579.80 0.6626
579.90 0.6623
580.00 0.6619
580.10 0.6615
580.20 0.6612
580.30 0.6608
580.40 0.6605
580.50 0.6601
580.60 0.6597
580.70 0.6594
580.80 0.659
580.90 0.6587
581.00 0.6583
581.10 0.658
581.20 0.6576
581.30 0.6572
581.40 0.6569
581.50 0.6565
581.60 0.6562
581.70 0.6558
581.80 0.6555
581.90 0.6551
582.00 0.6547
582.10 0.6544
582.20 0.654
582.30 0.6537
582.40 0.6533
582.50 0.653
582.60 0.6526
582.70 0.6523
582.80 0.6519
582.90 0.6515
583.00 0.6512
583.10 0.6508
583.20 0.6505
583.30 0.6501
583.40 0.6498
583.50 0.6494
583.60 0.6491
583.70 0.6487
583.80 0.6484
583.90 0.648
584.00 0.6477
584.10 0.6473
584.20 0.647
584.30 0.6466
584.40 0.6463
584.50 0.6459
584.60 0.6456
584.70 0.6452
584.80 0.6449
584.90 0.6445
585.00 0.6442
585.10 0.6438
585.20 0.6435
585.30 0.6431
585.40 0.6428
585.50 0.6424
585.60 0.6421
585.70 0.6417
585.80 0.6414
585.90 0.641
586.00 0.6407
586.10 0.6404
586.20 0.64
586.30 0.6397
586.40 0.6393
586.50 0.639
586.60 0.6386
586.70 0.6383
586.80 0.6379
586.90 0.6376
587.00 0.6373
587.10 0.6369
587.20 0.6366
587.30 0.6362
587.40 0.6359
587.50 0.6355
587.60 0.6352
587.70 0.6348
587.80 0.6345
587.90 0.6342
588.00 0.6338
588.10 0.6335
588.20 0.6331
588.30 0.6328
588.40 0.6325
588.50 0.6321
588.60 0.6318
588.70 0.6314
588.80 0.6311
588.90 0.6308
589.00 0.6304
589.10 0.6301
589.20 0.6297
589.30 0.6294
589.40 0.6291
589.50 0.6287
589.60 0.6284
589.70 0.628
589.80 0.6277
589.90 0.6274
590.00 0.627
590.10 0.6267
590.20 0.6264
590.30 0.626
590.40 0.6257
590.50 0.6253
590.60 0.625
590.70 0.6247
590.80 0.6243
590.90 0.624
591.00 0.6237
591.10 0.6233
591.20 0.623
591.30 0.6227
591.40 0.6223
591.50 0.622
591.60 0.6217
591.70 0.6213
591.80 0.621
591.90 0.6207
592.00 0.6203
592.10 0.62
592.20 0.6197
592.30 0.6193
592.40 0.619
592.50 0.6187
592.60 0.6183
592.70 0.618
592.80 0.6177
592.90 0.6173
593.00 0.617
593.10 0.6167
593.20 0.6164
593.30 0.616
593.40 0.6157
593.50 0.6154
593.60 0.615
593.70 0.6147
593.80 0.6144
593.90 0.614
594.00 0.6137
594.10 0.6134
594.20 0.6131
594.30 0.6127
594.40 0.6124
594.50 0.6121
594.60 0.6118
594.70 0.6114
594.80 0.6111
594.90 0.6108
595.00 0.6104
595.10 0.6101
595.20 0.6098
595.30 0.6095
595.40 0.6091
595.50 0.6088
595.60 0.6085
595.70 0.6082
595.80 0.6078
595.90 0.6075
596.00 0.6072
596.10 0.6069
596.20 0.6064
596.30 0.606
596.40 0.6055
596.50 0.6051
596.60 0.6046
596.70 0.6041
596.80 0.6037
596.90 0.6032
597.00 0.6027
597.10 0.6023
597.20 0.6019
597.30 0.6016
597.40 0.6013
597.50 0.6009
597.60 0.6006
597.70 0.6003
597.80 0.6
597.90 0.5996
598.00 0.5993
598.10 0.599
598.20 0.5987
598.30 0.5983
598.40 0.598
598.50 0.5977
598.60 0.5974
598.70 0.597
598.80 0.5967
598.90 0.5964
599.00 0.5961
599.10 0.5957
599.20 0.5954
599.30 0.5951
599.40 0.5948
599.50 0.5945
599.60 0.5941
599.70 0.5938
599.80 0.5935
599.90 0.5932
600.00 0.5929
600.10 0.5925
600.20 0.5922
600.30 0.5919
600.40 0.5916
600.50 0.5913
600.60 0.5909
600.70 0.5906
600.80 0.5903
600.90 0.59
601.00 0.5897
601.10 0.5893
601.20 0.589
601.30 0.5887
601.40 0.5884
601.50 0.5881
601.60 0.5878
601.70 0.5874
601.80 0.5871
601.90 0.5868
602.00 0.5865
602.10 0.5862
602.20 0.5859
602.30 0.5855
602.40 0.5852
602.50 0.5849
602.60 0.5846
602.70 0.5843
602.80 0.584
602.90 0.5836
603.00 0.5833
603.10 0.583
603.20 0.5827
603.30 0.5824
603.40 0.5821
603.50 0.5818
603.60 0.5814
603.70 0.5811
603.80 0.5808
603.90 0.5805
604.00 0.5802
604.10 0.5799
604.20 0.5796
604.30 0.5793
604.40 0.5789
604.50 0.5786
604.60 0.5783
604.70 0.578
604.80 0.5777
604.90 0.5774
605.00 0.5771
605.10 0.5768
605.20 0.5764
605.30 0.5761
605.40 0.5758
605.50 0.5755
605.60 0.5752
605.70 0.5749
605.80 0.5746
605.90 0.5743
606.00 0.574
606.10 0.5737
606.20 0.5733
606.30 0.573
606.40 0.5727
606.50 0.5724
606.60 0.5721
606.70 0.5718
606.80 0.5715
606.90 0.5712
607.00 0.5709
607.10 0.5706
607.20 0.5702
607.30 0.5699
607.40 0.5696
607.50 0.5693
607.60 0.569
607.70 0.5687
607.80 0.5684
607.90 0.5681
608.00 0.5678
608.10 0.5675
608.20 0.5672
608.30 0.5669
608.40 0.5666
608.50 0.5663
608.60 0.5659
608.70 0.5656
608.80 0.5653
608.90 0.565
609.00 0.5647
609.10 0.5644
609.20 0.5641
609.30 0.5638
609.40 0.5635
609.50 0.5632
609.60 0.5629
609.70 0.5626
609.80 0.5623
609.90 0.562
610.00 0.5617
610.10 0.5614
610.20 0.5611
610.30 0.5608
610.40 0.5605
610.50 0.5602
610.60 0.5599
610.70 0.5596
610.80 0.5593
610.90 0.5589
611.00 0.5586
611.10 0.5583
611.20 0.558
611.30 0.5577
611.40 0.5574
611.50 0.5571
611.60 0.5568
611.70 0.5565
611.80 0.5562
611.90 0.5559
612.00 0.5556
612.10 0.5553
612.20 0.555
612.30 0.5547
612.40 0.5544
612.50 0.5541
612.60 0.5538
612.70 0.5535
612.80 0.5532
612.90 0.5529
613.00 0.5526
613.10 0.5523
613.20 0.552
613.30 0.5517
613.40 0.5514
613.50 0.5511
613.60 0.5508
613.70 0.5505
613.80 0.5502
613.90 0.5499
614.00 0.5496
614.10 0.5493
614.20 0.549
614.30 0.5487
614.40 0.5484
614.50 0.5481
614.60 0.5478
614.70 0.5475
614.80 0.5472
614.90 0.5469
615.00 0.5466
615.10 0.5463
615.20 0.546
615.30 0.5457
615.40 0.5454
615.50 0.5451
615.60 0.5448
615.70 0.5445
615.80 0.5442
615.90 0.5439
616.00 0.5436
616.10 0.5433
616.20 0.543
616.30 0.5427
616.40 0.5424
616.50 0.5421
616.60 0.5418
616.70 0.5416
616.80 0.5413
616.90 0.541
617.00 0.5407
617.10 0.5404
617.20 0.5401
617.30 0.5398
617.40 0.5395
617.50 0.5392
617.60 0.5389
617.70 0.5386
617.80 0.5383
617.90 0.538
618.00 0.5377
618.10 0.5374
618.20 0.5371
618.30 0.5368
618.40 0.5365
618.50 0.5362
618.60 0.5359
618.70 0.5356
618.80 0.5353
618.90 0.535
619.00 0.5347
619.10 0.5344
619.20 0.5341
619.30 0.5338
619.40 0.5335
619.50 0.5332
619.60 0.5329
619.70 0.5326
619.80 0.5324
619.90 0.5321
620.00 0.5318
620.10 0.5315
620.20 0.5312
620.30 0.5309
620.40 0.5306
620.50 0.5303
620.60 0.53
620.70 0.5297
620.80 0.5294
620.90 0.5291
621.00 0.5288
621.10 0.5285
621.20 0.5282
621.30 0.5279
621.40 0.5276
621.50 0.5273
621.60 0.527
621.70 0.5267
621.80 0.5264
621.90 0.5261
622.00 0.5258
622.10 0.5255
622.20 0.5252
622.30 0.5249
622.40 0.5246
622.50 0.5244
622.60 0.5241
622.70 0.5238
622.80 0.5235
622.90 0.5232
623.00 0.5229
623.10 0.5226
623.20 0.5223
623.30 0.522
623.40 0.5217
623.50 0.5214
623.60 0.5211
623.70 0.5208
623.80 0.5205
623.90 0.5202
624.00 0.5199
624.10 0.5196
624.20 0.5193
624.30 0.519
624.40 0.5187
624.50 0.5184
624.60 0.5181
624.70 0.5178
624.80 0.5175
624.90 0.5172
625.00 0.5169
625.10 0.5166
625.20 0.5163
625.30 0.516
625.40 0.5157
625.50 0.5154
625.60 0.5151
625.70 0.5148
625.80 0.5145
625.90 0.5142
626.00 0.5139
626.10 0.5136
626.20 0.5133
626.30 0.513
626.40 0.5127
626.50 0.5124
626.60 0.5121
626.70 0.5118
626.80 0.5115
626.90 0.5112
627.00 0.5109
627.10 0.5106
627.20 0.5103
627.30 0.51
627.40 0.5097
627.50 0.5094
627.60 0.5091
627.70 0.5088
627.80 0.5085
627.90 0.5082
628.00 0.5079
628.10 0.5076
628.20 0.5073
628.30 0.507
628.40 0.5067
628.50 0.5064
628.60 0.5061
628.70 0.5058
628.80 0.5055
628.90 0.5052
629.00 0.5049
629.10 0.5046
629.20 0.5043
629.30 0.504
629.40 0.5037
629.50 0.5033
629.60 0.503
629.70 0.5027
629.80 0.5024
629.90 0.5021
630.00 0.5018
630.10 0.5015
630.20 0.5012
630.30 0.5009
630.40 0.5006
630.50 0.5003
630.60 0.5
630.70 0.4996
630.80 0.4993
630.90 0.499
631.00 0.4987
631.10 0.4984
631.20 0.4981
631.30 0.4978
631.40 0.4975
631.50 0.4971
631.60 0.4968
631.70 0.4965
631.80 0.4962
631.90 0.4959
632.00 0.4956
632.10 0.4952
632.20 0.4949
632.30 0.4946
632.40 0.4943
632.50 0.494
632.60 0.4936
632.70 0.4933
632.80 0.493
632.90 0.4927
633.00 0.4923
633.10 0.492
633.20 0.4917
633.30 0.4914
633.40 0.491
633.50 0.4907
633.60 0.4904
633.70 0.49
633.80 0.4897
633.90 0.4894
634.00 0.4891
634.10 0.4887
634.20 0.4884
634.30 0.4881
634.40 0.4877
634.50 0.4874
634.60 0.487
634.70 0.4867
634.80 0.4864
634.90 0.486
635.00 0.4857
635.10 0.4853
635.20 0.485
635.30 0.4847
635.40 0.4843
635.50 0.484
635.60 0.4836
635.70 0.4833
635.80 0.4829
635.90 0.4826
636.00 0.4822
636.10 0.4819
636.20 0.4815
636.30 0.4812
636.40 0.4808
636.50 0.4804
636.60 0.4801
636.70 0.4797
636.80 0.4793
636.90 0.479
637.00 0.4786
637.10 0.4782
637.20 0.4779
637.30 0.4775
637.40 0.4771
637.50 0.4768
637.60 0.4764
637.70 0.476
637.80 0.4756
637.90 0.4752
638.00 0.4749
638.10 0.4745
638.20 0.4741
638.30 0.4737
638.40 0.4733
638.50 0.4729
638.60 0.4725
638.70 0.4721
638.80 0.4717
638.90 0.4713
639.00 0.4709
639.10 0.4705
639.20 0.4701
639.30 0.4697
639.40 0.4693
639.50 0.4689
639.60 0.4685
639.70 0.468
639.80 0.4676
639.90 0.4672
640.00 0.4668
640.10 0.4663
640.20 0.4659
640.30 0.4655
640.40 0.465
640.50 0.4646
640.60 0.4641
640.70 0.4637
640.80 0.4632
640.90 0.4628
641.00 0.4624
641.10 0.4619
641.20 0.4615
641.30 0.461
641.40 0.4605
641.50 0.46
641.60 0.4596
641.70 0.4591
641.80 0.4586
641.90 0.4581
642.00 0.4576
642.10 0.4572
642.20 0.4567
642.30 0.4562
642.40 0.4557
642.50 0.4551
642.60 0.4546
642.70 0.4541
642.80 0.4536
642.90 0.453
643.00 0.4525
643.10 0.452
643.20 0.4515
643.30 0.451
643.40 0.4504
643.50 0.4498
643.60 0.4492
643.70 0.4487
643.80 0.4481
643.90 0.4475
644.00 0.4469
644.10 0.4464
644.20 0.4458
644.30 0.4452
644.40 0.4446
644.50 0.444
644.60 0.4433
644.70 0.4427
644.80 0.4421
644.90 0.4414
645.00 0.4408
645.10 0.4402
645.20 0.4395
645.30 0.4389
645.40 0.4382
645.50 0.4375
645.60 0.4367
645.70 0.436
645.80 0.4353
645.90 0.4346
646.00 0.4339
646.10 0.4332
646.20 0.4325
646.30 0.4318
646.40 0.431
646.50 0.4302
646.60 0.4294
646.70 0.4286
646.80 0.4278
646.90 0.427
647.00 0.4262
647.10 0.4254
647.20 0.4246
647.30 0.4238
647.40 0.4229
647.50 0.4219
647.60 0.421
647.70 0.4201
647.80 0.4192
647.90 0.4182
648.00 0.4173
648.10 0.4164
648.20 0.4155
648.30 0.4145
648.40 0.4135
648.50 0.4124
648.60 0.4113
648.70 0.4102
648.80 0.4092
648.90 0.4081
649.00 0.407
649.10 0.4059
649.20 0.4049
649.30 0.4037
649.40 0.4025
649.50 0.4012
649.60 0.3999
649.70 0.3987
649.80 0.3974
649.90 0.3961
650.00 0.3949
650.10 0.3936
650.20 0.3924
650.30 0.3911
650.40 0.3896
650.50 0.3881
650.60 0.3866
650.70 0.3851
650.80 0.3836
650.90 0.3821
651.00 0.3806
651.10 0.3791
651.20 0.3776
651.30 0.3761
651.40 0.3743
651.50 0.3725
651.60 0.3707
651.70 0.3689
651.80 0.3671
651.90 0.3653
652.00 0.3635
652.10 0.3617
652.20 0.3599
652.30 0.3581
652.40 0.3559
652.50 0.3538
652.60 0.3516
652.70 0.3495
652.80 0.3473
652.90 0.3452
653.00 0.3431
653.10 0.3409
653.20 0.3388
653.30 0.3365
653.40 0.3339
653.50 0.3313
653.60 0.3288
653.70 0.3262
653.80 0.3236
653.90 0.321
654.00 0.3184
654.10 0.3158
654.20 0.3133
654.30 0.3106
654.40 0.3077
654.50 0.3049
654.60 0.302
654.70 0.2991
654.80 0.2962
654.90 0.293
655.00 0.2898
655.10 0.2866
655.20 0.2834
655.30 0.2802
655.40 0.2767
655.50 0.2731
655.60 0.2692
655.70 0.265
655.80 0.2601
655.90 0.2546
656.00 0.2466
656.10 0.2377
656.20 0.2124
656.30 0.1923
656.40 0.2263
656.50 0.2412
656.60 0.2491
656.70 0.2563
656.80 0.261
656.90 0.2655
657.00 0.2692
657.10 0.2729
657.20 0.2761
657.30 0.2793
657.40 0.2823
657.50 0.2852
657.60 0.2881
657.70 0.291
657.80 0.2939
657.90 0.2965
658.00 0.2991
658.10 0.3017
658.20 0.3043
658.30 0.3068
658.40 0.3091
658.50 0.3113
658.60 0.3136
658.70 0.3159
658.80 0.3182
658.90 0.3204
659.00 0.3227
659.10 0.325
659.20 0.3272
659.30 0.3294
659.40 0.3312
659.50 0.333
659.60 0.3348
659.70 0.3365
659.80 0.3383
659.90 0.3401
660.00 0.3419
660.10 0.3437
660.20 0.3455
660.30 0.3472
660.40 0.3486
660.50 0.35
660.60 0.3514
660.70 0.3528
660.80 0.3542
660.90 0.3556
661.00 0.357
661.10 0.3584
661.20 0.3598
661.30 0.3611
661.40 0.3622
661.50 0.3633
661.60 0.3644
661.70 0.3654
661.80 0.3665
661.90 0.3676
662.00 0.3687
662.10 0.3698
662.20 0.3708
662.30 0.3719
662.40 0.3727
662.50 0.3735
662.60 0.3744
662.70 0.3752
662.80 0.376
662.90 0.3769
663.00 0.3777
663.10 0.3785
663.20 0.3793
663.30 0.3801
663.40 0.3808
663.50 0.3814
663.60 0.382
663.70 0.3827
663.80 0.3833
663.90 0.3839
664.00 0.3846
664.10 0.3852
664.20 0.3858
664.30 0.3864
664.40 0.3869
664.50 0.3873
664.60 0.3878
664.70 0.3883
664.80 0.3887
664.90 0.3892
665.00 0.3897
665.10 0.3901
665.20 0.3906
665.30 0.3911
665.40 0.3914
665.50 0.3917
665.60 0.3921
665.70 0.3924
665.80 0.3927
665.90 0.3931
666.00 0.3934
666.10 0.3938
666.20 0.3941
666.30 0.3944
666.40 0.3947
666.50 0.3949
666.60 0.3951
666.70 0.3954
666.80 0.3956
666.90 0.3959
667.00 0.3961
667.10 0.3964
667.20 0.3966
667.30 0.3968
667.40 0.397
667.50 0.3972
667.60 0.3973
667.70 0.3975
667.80 0.3977
667.90 0.3978
668.00 0.398
668.10 0.3982
668.20 0.3983
668.30 0.3985
668.40 0.3986
668.50 0.3987
668.60 0.3988
668.70 0.3989
668.80 0.399
668.90 0.3991
669.00 0.3992
669.10 0.3993
669.20 0.3994
669.30 0.3995
669.40 0.3995
669.50 0.3996
669.60 0.3997
669.70 0.3997
669.80 0.3998
669.90 0.3998
670.00 0.3999
670.10 0.3999
670.20 0.4
670.30 0.4
670.40 0.4
670.50 0.4
670.60 0.4
670.70 0.4001
670.80 0.4001
670.90 0.4001
671.00 0.4001
671.10 0.4001
671.20 0.4001
671.30 0.4001
671.40 0.4001
671.50 0.4001
671.60 0.4
671.70 0.4
671.80 0.4
671.90 0.4
672.00 0.4
672.10 0.3999
672.20 0.3999
672.30 0.3999
672.40 0.3998
672.50 0.3998
672.60 0.3998
672.70 0.3997
672.80 0.3997
672.90 0.3996
673.00 0.3996
673.10 0.3995
673.20 0.3995
673.30 0.3994
673.40 0.3993
673.50 0.3993
673.60 0.3992
673.70 0.3991
673.80 0.3991
673.90 0.399
674.00 0.3989
674.10 0.3989
674.20 0.3988
674.30 0.3987
674.40 0.3986
674.50 0.3985
674.60 0.3985
674.70 0.3984
674.80 0.3983
674.90 0.3982
675.00 0.3981
675.10 0.398
675.20 0.3979
675.30 0.3978
675.40 0.3977
675.50 0.3976
675.60 0.3975
675.70 0.3974
675.80 0.3973
675.90 0.3972
676.00 0.3971
676.10 0.397
676.20 0.3969
676.30 0.3968
676.40 0.3967
676.50 0.3966
676.60 0.3965
676.70 0.3963
676.80 0.3962
676.90 0.3961
677.00 0.396
677.10 0.3959
677.20 0.3958
677.30 0.3957
677.40 0.3955
677.50 0.3954
677.60 0.3953
677.70 0.3952
677.80 0.395
677.90 0.3949
678.00 0.3948
678.10 0.3947
678.20 0.3945
678.30 0.3944
678.40 0.3943
678.50 0.3941
678.60 0.394
678.70 0.3939
678.80 0.3937
678.90 0.3936
679.00 0.3935
679.10 0.3933
679.20 0.3932
679.30 0.3931
679.40 0.3929
679.50 0.3928
679.60 0.3926
679.70 0.3925
679.80 0.3924
679.90 0.3922
680.00 0.3921
680.10 0.3919
680.20 0.3918
680.30 0.3917
680.40 0.3915
680.50 0.3914
680.60 0.3912
680.70 0.3911
680.80 0.3909
680.90 0.3908
681.00 0.3907
681.10 0.3905
681.20 0.3904
681.30 0.3902
681.40 0.3901
681.50 0.3899
681.60 0.3898
681.70 0.3896
681.80 0.3895
681.90 0.3893
682.00 0.3892
682.10 0.389
682.20 0.3889
682.30 0.3887
682.40 0.3886
682.50 0.3884
682.60 0.3883
682.70 0.3881
682.80 0.3879
682.90 0.3878
683.00 0.3876
683.10 0.3875
683.20 0.3873
683.30 0.3872
683.40 0.387
683.50 0.3869
683.60 0.3867
683.70 0.3866
683.80 0.3864
683.90 0.3862
684.00 0.3861
684.10 0.3859
684.20 0.3858
684.30 0.3856
684.40 0.3855
684.50 0.3853
684.60 0.3851
684.70 0.385
684.80 0.3848
684.90 0.3847
685.00 0.3845
685.10 0.3843
685.20 0.3842
685.30 0.384
685.40 0.3839
685.50 0.3837
685.60 0.3835
685.70 0.3834
685.80 0.3832
685.90 0.3831
686.00 0.3829
686.10 0.3827
686.20 0.3826
686.30 0.3824
686.40 0.3823
686.50 0.3821
686.60 0.3819
686.70 0.3818
686.80 0.3816
686.90 0.3814
687.00 0.3813
687.10 0.3811
687.20 0.381
687.30 0.3808
687.40 0.3806
687.50 0.3805
687.60 0.3803
687.70 0.3801
687.80 0.38
687.90 0.3798
688.00 0.3797
688.10 0.3795
688.20 0.3793
688.30 0.3792
688.40 0.379
688.50 0.3788
688.60 0.3787
688.70 0.3785
688.80 0.3784
688.90 0.3782
689.00 0.378
689.10 0.3779
689.20 0.3777
689.30 0.3775
689.40 0.3774
689.50 0.3772
689.60 0.377
689.70 0.3769
689.80 0.3767
689.90 0.3765
690.00 0.3763
690.10 0.3762
690.20 0.376
690.30 0.3758
690.40 0.3757
690.50 0.3755
690.60 0.3753
690.70 0.3752
690.80 0.375
690.90 0.3748
691.00 0.3747
691.10 0.3745
691.20 0.3743
691.30 0.3742
691.40 0.374
691.50 0.3738
691.60 0.3737
691.70 0.3735
691.80 0.3733
691.90 0.3732
692.00 0.373
692.10 0.3728
692.20 0.3727
692.30 0.3725
692.40 0.3723
692.50 0.3722
692.60 0.372
692.70 0.3718
692.80 0.3717
692.90 0.3715
693.00 0.3713
693.10 0.3712
693.20 0.371
693.30 0.3708
693.40 0.3707
693.50 0.3705
693.60 0.3703
693.70 0.3702
693.80 0.37
693.90 0.3698
694.00 0.3697
694.10 0.3695
694.20 0.3693
694.30 0.3692
694.40 0.369
694.50 0.3688
694.60 0.3687
694.70 0.3685
694.80 0.3683
694.90 0.3682
695.00 0.368
695.10 0.3678
695.20 0.3677
695.30 0.3675
695.40 0.3674
695.50 0.3672
695.60 0.367
695.70 0.3669
695.80 0.3667
695.90 0.3665
696.00 0.3664
696.10 0.3662
696.20 0.366
696.30 0.3659
696.40 0.3657
696.50 0.3655
696.60 0.3654
696.70 0.3652
696.80 0.3651
696.90 0.3649
697.00 0.3647
697.10 0.3646
697.20 0.3644
697.30 0.3642
697.40 0.3641
697.50 0.3639
697.60 0.3638
697.70 0.3636
697.80 0.3634
697.90 0.3633
698.00 0.3631
698.10 0.3629
698.20 0.3628
698.30 0.3626
698.40 0.3625
698.50 0.3623
698.60 0.3621
698.70 0.362
698.80 0.3618
698.90 0.3616
699.00 0.3615
699.10 0.3613
699.20 0.3612
699.30 0.361
699.40 0.3608
699.50 0.3607
699.60 0.3605
699.70 0.3604
699.80 0.3602
699.90 0.36
700.00 0.3599
700.10 0.3597
700.20 0.3596
700.30 0.3594
700.40 0.3593
700.50 0.3592
700.60 0.359
700.70 0.3589
700.80 0.3587
700.90 0.3586
701.00 0.3585
701.10 0.3583
701.20 0.3582
701.30 0.358
701.40 0.3579
701.50 0.3578
701.60 0.3576
701.70 0.3575
701.80 0.3573
701.90 0.3572
702.00 0.3571
702.10 0.3569
702.20 0.3568
702.30 0.3566
702.40 0.3565
702.50 0.3564
702.60 0.3562
702.70 0.3561
702.80 0.3559
702.90 0.3558
703.00 0.3557
703.10 0.3555
703.20 0.3554
703.30 0.3552
703.40 0.3551
703.50 0.355
703.60 0.3548
703.70 0.3547
703.80 0.3545
703.90 0.3544
704.00 0.3543
704.10 0.3541
704.20 0.354
704.30 0.3538
704.40 0.3537
704.50 0.3536
704.60 0.3534
704.70 0.3533
704.80 0.3531
704.90 0.353
705.00 0.3529
705.10 0.3527
705.20 0.3525
705.30 0.3524
705.40 0.3522
705.50 0.3521
705.60 0.3519
705.70 0.3517
705.80 0.3516
705.90 0.3514
706.00 0.3513
706.10 0.3511
706.20 0.3509
706.30 0.3508
706.40 0.3506
706.50 0.3505
706.60 0.3503
706.70 0.3501
706.80 0.35
706.90 0.3498
707.00 0.3497
707.10 0.3495
707.20 0.3493
707.30 0.3492
707.40 0.349
707.50 0.3489
707.60 0.3487
707.70 0.3485
707.80 0.3484
707.90 0.3482
708.00 0.3481
708.10 0.3479
708.20 0.3477
708.30 0.3476
708.40 0.3474
708.50 0.3473
708.60 0.3471
708.70 0.3469
708.80 0.3468
708.90 0.3466
709.00 0.3465
709.10 0.3463
709.20 0.3461
709.30 0.346
709.40 0.3458
709.50 0.3457
709.60 0.3455
709.70 0.3454
709.80 0.3452
709.90 0.345
710.00 0.3449
710.10 0.3447
710.20 0.3446
710.30 0.3444
710.40 0.3442
710.50 0.3441
710.60 0.3439
710.70 0.3438
710.80 0.3436
710.90 0.3435
711.00 0.3433
711.10 0.3431
711.20 0.343
711.30 0.3428
711.40 0.3427
711.50 0.3425
711.60 0.3424
711.70 0.3422
711.80 0.3421
711.90 0.3419
712.00 0.3417
712.10 0.3416
712.20 0.3414
712.30 0.3413
712.40 0.3411
712.50 0.341
712.60 0.3408
712.70 0.3406
712.80 0.3405
712.90 0.3403
713.00 0.3402
713.10 0.34
713.20 0.3399
713.30 0.3397
713.40 0.3396
713.50 0.3394
713.60 0.3392
713.70 0.3391
713.80 0.3389
713.90 0.3388
714.00 0.3386
714.10 0.3385
714.20 0.3383
714.30 0.3382
714.40 0.338
714.50 0.3378
714.60 0.3377
714.70 0.3375
714.80 0.3374
714.90 0.3372
715.00 0.3371
715.10 0.3369
715.20 0.3368
715.30 0.3366
715.40 0.3365
715.50 0.3363
715.60 0.3362
715.70 0.336
715.80 0.3359
715.90 0.3357
716.00 0.3356
716.10 0.3354
716.20 0.3353
716.30 0.3352
716.40 0.335
716.50 0.3349
716.60 0.3347
716.70 0.3346
716.80 0.3344
716.90 0.3343
717.00 0.3341
717.10 0.334
717.20 0.3338
717.30 0.3337
717.40 0.3335
717.50 0.3334
717.60 0.3332
717.70 0.3331
717.80 0.3329
717.90 0.3328
718.00 0.3327
718.10 0.3325
718.20 0.3324
718.30 0.3322
718.40 0.3321
718.50 0.3319
718.60 0.3318
718.70 0.3316
718.80 0.3315
718.90 0.3313
719.00 0.3312
719.10 0.331
719.20 0.3309
719.30 0.3308
719.40 0.3306
719.50 0.3305
719.60 0.3303
719.70 0.3302
719.80 0.33
719.90 0.3299
720.00 0.3297
720.10 0.3296
720.20 0.3294
720.30 0.3293
720.40 0.3291
720.50 0.329
720.60 0.3288
720.70 0.3287
720.80 0.3285
720.90 0.3284
721.00 0.3282
721.10 0.3281
721.20 0.3279
721.30 0.3278
721.40 0.3276
721.50 0.3275
721.60 0.3273
721.70 0.3272
721.80 0.327
721.90 0.3269
722.00 0.3267
722.10 0.3266
722.20 0.3264
722.30 0.3263
722.40 0.3261
722.50 0.326
722.60 0.3258
722.70 0.3257
722.80 0.3255
722.90 0.3254
723.00 0.3252
723.10 0.3251
723.20 0.3249
723.30 0.3248
723.40 0.3246
723.50 0.3245
723.60 0.3243
723.70 0.3242
723.80 0.324
723.90 0.3239
724.00 0.3237
724.10 0.3236
724.20 0.3234
724.30 0.3233
724.40 0.3231
724.50 0.323
724.60 0.3229
724.70 0.3227
724.80 0.3226
724.90 0.3224
725.00 0.3223
725.10 0.3221
725.20 0.322
725.30 0.3218
725.40 0.3217
725.50 0.3215
725.60 0.3214
725.70 0.3212
725.80 0.3211
725.90 0.3209
726.00 0.3208
726.10 0.3206
726.20 0.3205
726.30 0.3204
726.40 0.3202
726.50 0.3201
726.60 0.3199
726.70 0.3198
726.80 0.3196
726.90 0.3195
727.00 0.3193
727.10 0.3192
727.20 0.319
727.30 0.3189
727.40 0.3188
727.50 0.3186
727.60 0.3185
727.70 0.3183
727.80 0.3182
727.90 0.318
728.00 0.3179
728.10 0.3177
728.20 0.3176
728.30 0.3174
728.40 0.3173
728.50 0.3172
728.60 0.317
728.70 0.3169
728.80 0.3167
728.90 0.3166
729.00 0.3164
729.10 0.3163
729.20 0.3161
729.30 0.316
729.40 0.3159
729.50 0.3157
729.60 0.3156
729.70 0.3154
729.80 0.3153
729.90 0.3151
730.00 0.315
730.10 0.3148
730.20 0.3147
730.30 0.3146
730.40 0.3144
730.50 0.3143
730.60 0.3141
730.70 0.314
730.80 0.3139
730.90 0.3137
731.00 0.3136
731.10 0.3134
731.20 0.3133
731.30 0.3131
731.40 0.313
731.50 0.3129
731.60 0.3127
731.70 0.3126
731.80 0.3124
731.90 0.3123
732.00 0.3122
732.10 0.312
732.20 0.3119
732.30 0.3117
732.40 0.3116
732.50 0.3114
732.60 0.3113
732.70 0.3112
732.80 0.311
732.90 0.3109
733.00 0.3107
733.10 0.3106
733.20 0.3105
733.30 0.3103
733.40 0.3102
733.50 0.31
733.60 0.3099
733.70 0.3098
733.80 0.3096
733.90 0.3095
734.00 0.3093
734.10 0.3092
734.20 0.3091
734.30 0.3089
734.40 0.3088
734.50 0.3086
734.60 0.3085
734.70 0.3084
734.80 0.3082
734.90 0.3081
735.00 0.3079
735.10 0.3078
735.20 0.3077
735.30 0.3075
735.40 0.3074
735.50 0.3073
735.60 0.3071
735.70 0.307
735.80 0.3068
735.90 0.3067
736.00 0.3066
736.10 0.3064
736.20 0.3063
736.30 0.3061
736.40 0.306
736.50 0.3059
736.60 0.3057
736.70 0.3056
736.80 0.3055
736.90 0.3053
737.00 0.3052
737.10 0.305
737.20 0.3049
737.30 0.3048
737.40 0.3046
737.50 0.3045
737.60 0.3043
737.70 0.3042
737.80 0.3041
737.90 0.3039
738.00 0.3038
738.10 0.3037
738.20 0.3035
738.30 0.3034
738.40 0.3032
738.50 0.3031
738.60 0.303
738.70 0.3028
738.80 0.3027
738.90 0.3026
739.00 0.3024
739.10 0.3023
739.20 0.3022
739.30 0.302
739.40 0.3019
739.50 0.3017
739.60 0.3016
739.70 0.3015
739.80 0.3013
739.90 0.3012
740.00 0.3011
740.10 0.3009
740.20 0.3008
740.30 0.3007
740.40 0.3005
740.50 0.3004
740.60 0.3003
740.70 0.3001
740.80 0.3
740.90 0.2999
741.00 0.2997
741.10 0.2996
741.20 0.2995
741.30 0.2993
741.40 0.2992
741.50 0.299
741.60 0.2989
741.70 0.2988
741.80 0.2986
741.90 0.2985
742.00 0.2984
742.10 0.2982
742.20 0.2981
742.30 0.298
742.40 0.2978
742.50 0.2977
742.60 0.2976
742.70 0.2974
742.80 0.2973
742.90 0.2972
743.00 0.297
743.10 0.2969
743.20 0.2968
743.30 0.2966
743.40 0.2965
743.50 0.2964
743.60 0.2963
743.70 0.2961
743.80 0.296
743.90 0.2959
744.00 0.2957
744.10 0.2956
744.20 0.2955
744.30 0.2953
744.40 0.2952
744.50 0.2951
744.60 0.2949
744.70 0.2948
744.80 0.2947
744.90 0.2945
745.00 0.2944
745.10 0.2943
745.20 0.2941
745.30 0.294
745.40 0.2939
745.50 0.2937
745.60 0.2936
745.70 0.2935
745.80 0.2933
745.90 0.2932
746.00 0.2931
746.10 0.293
746.20 0.2928
746.30 0.2927
746.40 0.2926
746.50 0.2924
746.60 0.2923
746.70 0.2922
746.80 0.292
746.90 0.2919
747.00 0.2918
747.10 0.2916
747.20 0.2915
747.30 0.2914
747.40 0.2913
747.50 0.2911
747.60 0.291
747.70 0.2909
747.80 0.2907
747.90 0.2906
748.00 0.2905
748.10 0.2903
748.20 0.2902
748.30 0.2901
748.40 0.29
748.50 0.2898
748.60 0.2897
748.70 0.2896
748.80 0.2894
748.90 0.2893
749.00 0.2892
749.10 0.289
749.20 0.2889
749.30 0.2888
749.40 0.2887
749.50 0.2885
749.60 0.2884
749.70 0.2883
749.80 0.2881
749.90 0.288
750.00 0.2879
750.10 0.2878
750.20 0.2876
750.30 0.2875
750.40 0.2874
750.50 0.2873
750.60 0.2871
750.70 0.287
750.80 0.2869
750.90 0.2867
751.00 0.2866
751.10 0.2865
751.20 0.2864
751.30 0.2862
751.40 0.2861
751.50 0.286
751.60 0.2859
751.70 0.2857
751.80 0.2856
751.90 0.2855
752.00 0.2853
752.10 0.2852
752.20 0.2851
752.30 0.285
752.40 0.2848
752.50 0.2847
752.60 0.2846
752.70 0.2845
752.80 0.2843
752.90 0.2842
753.00 0.2841
753.10 0.284
753.20 0.2838
753.30 0.2837
753.40 0.2836
753.50 0.2835
753.60 0.2833
753.70 0.2832
753.80 0.2831
753.90 0.283
754.00 0.2828
754.10 0.2827
754.20 0.2826
754.30 0.2825
754.40 0.2823
754.50 0.2822
754.60 0.2821
754.70 0.282
754.80 0.2818
754.90 0.2817
755.00 0.2816
755.10 0.2815
755.20 0.2813
755.30 0.2812
755.40 0.2811
755.50 0.281
755.60 0.2808
755.70 0.2807
755.80 0.2806
755.90 0.2805
756.00 0.2803
756.10 0.2802
756.20 0.2801
756.30 0.28
756.40 0.2798
756.50 0.2797
756.60 0.2796
756.70 0.2795
756.80 0.2794
756.90 0.2792
757.00 0.2791
757.10 0.279
757.20 0.2789
757.30 0.2787
757.40 0.2786
757.50 0.2785
757.60 0.2784
757.70 0.2782
757.80 0.2781
757.90 0.278
758.00 0.2779
758.10 0.2777
758.20 0.2776
758.30 0.2775
758.40 0.2774
758.50 0.2773
758.60 0.2771
758.70 0.277
758.80 0.2769
758.90 0.2768
759.00 0.2766
759.10 0.2765
759.20 0.2764
759.30 0.2763
759.40 0.2762
759.50 0.276
759.60 0.2759
759.70 0.2758
759.80 0.2757
759.90 0.2755
760.00 0.2754
760.10 0.2753
760.20 0.2752
760.30 0.2751
760.40 0.2749
760.50 0.2748
760.60 0.2747
760.70 0.2746
760.80 0.2745
760.90 0.2743
761.00 0.2742
761.10 0.2741
761.20 0.274
761.30 0.2739
761.40 0.2737
761.50 0.2736
761.60 0.2735
761.70 0.2734
761.80 0.2733
761.90 0.2731
762.00 0.273
762.10 0.2729
762.20 0.2728
762.30 0.2727
762.40 0.2725
762.50 0.2724
762.60 0.2723
762.70 0.2722
762.80 0.2721
762.90 0.2719
763.00 0.2718
763.10 0.2717
763.20 0.2716
763.30 0.2715
763.40 0.2714
763.50 0.2712
763.60 0.2711
763.70 0.271
763.80 0.2709
763.90 0.2708
764.00 0.2706
764.10 0.2705
764.20 0.2704
764.30 0.2703
764.40 0.2702
764.50 0.27
764.60 0.2699
764.70 0.2698
764.80 0.2697
764.90 0.2696
765.00 0.2695
765.10 0.2693
765.20 0.2692
765.30 0.2691
765.40 0.269
765.50 0.2689
765.60 0.2688
765.70 0.2686
765.80 0.2685
765.90 0.2684
766.00 0.2683
766.10 0.2682
766.20 0.268
766.30 0.2679
766.40 0.2678
766.50 0.2677
766.60 0.2676
766.70 0.2675
766.80 0.2673
766.90 0.2672
767.00 0.2671
767.10 0.267
767.20 0.2669
767.30 0.2668
767.40 0.2666
767.50 0.2665
767.60 0.2664
767.70 0.2663
767.80 0.2662
767.90 0.2661
768.00 0.2659
768.10 0.2658
768.20 0.2657
768.30 0.2656
768.40 0.2655
768.50 0.2654
768.60 0.2652
768.70 0.2651
768.80 0.265
768.90 0.2649
769.00 0.2648
769.10 0.2647
769.20 0.2646
769.30 0.2644
769.40 0.2643
769.50 0.2642
769.60 0.2641
769.70 0.264
769.80 0.2639
769.90 0.2637
770.00 0.2636
770.10 0.2635
770.20 0.2634
770.30 0.2633
770.40 0.2632
770.50 0.2631
770.60 0.2629
770.70 0.2628
770.80 0.2627
770.90 0.2626
771.00 0.2625
771.10 0.2624
771.20 0.2623
771.30 0.2621
771.40 0.262
771.50 0.2619
771.60 0.2618
771.70 0.2617
771.80 0.2616
771.90 0.2615
772.00 0.2614
772.10 0.2612
772.20 0.2611
772.30 0.261
772.40 0.2609
772.50 0.2608
772.60 0.2607
772.70 0.2606
772.80 0.2604
772.90 0.2603
773.00 0.2602
773.10 0.2601
773.20 0.26
773.30 0.2599
773.40 0.2598
773.50 0.2597
773.60 0.2595
773.70 0.2594
773.80 0.2593
773.90 0.2592
774.00 0.2591
774.10 0.259
774.20 0.2589
774.30 0.2588
774.40 0.2586
774.50 0.2585
774.60 0.2584
774.70 0.2583
774.80 0.2582
774.90 0.2581
775.00 0.258
775.10 0.2579
775.20 0.2578
775.30 0.2576
775.40 0.2575
775.50 0.2574
775.60 0.2573
775.70 0.2572
775.80 0.2571
775.90 0.257
776.00 0.2569
776.10 0.2568
776.20 0.2566
776.30 0.2565
776.40 0.2564
776.50 0.2563
776.60 0.2562
776.70 0.2561
776.80 0.256
776.90 0.2559
777.00 0.2558
777.10 0.2556
777.20 0.2555
777.30 0.2554
777.40 0.2553
777.50 0.2552
777.60 0.2551
777.70 0.255
777.80 0.2549
777.90 0.2548
778.00 0.2546
778.10 0.2545
778.20 0.2544
778.30 0.2543
778.40 0.2542
778.50 0.2541
778.60 0.254
778.70 0.2539
778.80 0.2538
778.90 0.2537
779.00 0.2535
779.10 0.2534
779.20 0.2533
779.30 0.2532
779.40 0.2531
779.50 0.253
779.60 0.2529
779.70 0.2528
779.80 0.2527
779.90 0.2526
780.00 0.2525
780.10 0.2523
780.20 0.2522
780.30 0.2521
780.40 0.252
780.50 0.2519
780.60 0.2518
780.70 0.2517
780.80 0.2516
780.90 0.2515
781.00 0.2514
781.10 0.2513
781.20 0.2512
781.30 0.251
781.40 0.2509
781.50 0.2508
781.60 0.2507
781.70 0.2506
781.80 0.2505
781.90 0.2504
782.00 0.2503
782.10 0.2502
782.20 0.2501
782.30 0.25
782.40 0.2499
782.50 0.2498
782.60 0.2497
782.70 0.2495
782.80 0.2494
782.90 0.2493
783.00 0.2492
783.10 0.2491
783.20 0.249
783.30 0.2489
783.40 0.2488
783.50 0.2487
783.60 0.2486
783.70 0.2485
783.80 0.2484
783.90 0.2483
784.00 0.2482
784.10 0.2481
784.20 0.2479
784.30 0.2478
784.40 0.2477
784.50 0.2476
784.60 0.2475
784.70 0.2474
784.80 0.2473
784.90 0.2472
785.00 0.2471
785.10 0.247
785.20 0.2469
785.30 0.2468
785.40 0.2467
785.50 0.2466
785.60 0.2465
785.70 0.2464
785.80 0.2462
785.90 0.2461
786.00 0.246
786.10 0.2459
786.20 0.2458
786.30 0.2457
786.40 0.2456
786.50 0.2455
786.60 0.2454
786.70 0.2453
786.80 0.2452
786.90 0.2451
787.00 0.245
787.10 0.2449
787.20 0.2448
787.30 0.2447
787.40 0.2446
787.50 0.2445
787.60 0.2444
787.70 0.2443
787.80 0.2441
787.90 0.244
788.00 0.2439
788.10 0.2438
788.20 0.2437
788.30 0.2436
788.40 0.2435
788.50 0.2434
788.60 0.2433
788.70 0.2432
788.80 0.2431
788.90 0.243
789.00 0.2429
789.10 0.2428
789.20 0.2427
789.30 0.2426
789.40 0.2425
789.50 0.2424
789.60 0.2423
789.70 0.2422
789.80 0.2421
789.90 0.242
790.00 0.2419
790.10 0.2418
790.20 0.2417
790.30 0.2415
790.40 0.2414
790.50 0.2413
790.60 0.2412
790.70 0.2411
790.80 0.241
790.90 0.2409
791.00 0.2408
791.10 0.2407
791.20 0.2406
791.30 0.2405
791.40 0.2404
791.50 0.2403
791.60 0.2402
791.70 0.2401
791.80 0.24
791.90 0.2399
792.00 0.2398
792.10 0.2397
792.20 0.2396
792.30 0.2395
792.40 0.2394
792.50 0.2393
792.60 0.2392
792.70 0.2391
792.80 0.239
792.90 0.2389
793.00 0.2388
793.10 0.2387
793.20 0.2386
793.30 0.2385
793.40 0.2384
793.50 0.2383
793.60 0.2382
793.70 0.2381
793.80 0.238
793.90 0.2379
794.00 0.2378
794.10 0.2377
794.20 0.2376
794.30 0.2375
794.40 0.2374
794.50 0.2373
794.60 0.2372
794.70 0.2371
794.80 0.237
794.90 0.2369
795.00 0.2368
795.10 0.2367
795.20 0.2366
795.30 0.2365
795.40 0.2364
795.50 0.2363
795.60 0.2362
795.70 0.2361
795.80 0.236
795.90 0.2359
796.00 0.2358
796.10 0.2357
796.20 0.2356
796.30 0.2355
796.40 0.2354
796.50 0.2353
796.60 0.2352
796.70 0.2351
796.80 0.235
796.90 0.2349
797.00 0.2348
797.10 0.2347
797.20 0.2346
797.30 0.2345
797.40 0.2344
797.50 0.2343
797.60 0.2342
797.70 0.2341
797.80 0.234
797.90 0.2339
798.00 0.2338
798.10 0.2337
798.20 0.2336
798.30 0.2335
798.40 0.2334
798.50 0.2333
798.60 0.2332
798.70 0.2331
798.80 0.233
798.90 0.2329
799.00 0.2328
799.10 0.2327
799.20 0.2326
799.30 0.2325
799.40 0.2324
799.50 0.2323
799.60 0.2322
799.70 0.2321
799.80 0.232
799.90 0.2319
800.00 0.2318
800.10 0.2317
800.20 0.2316
800.30 0.2315
800.40 0.2314
800.50 0.2313
800.60 0.2312
800.70 0.2311
800.80 0.231
800.90 0.2309
801.00 0.2308
801.10 0.2307
801.20 0.2306
801.30 0.2305
801.40 0.2305
801.50 0.2304
801.60 0.2303
801.70 0.2302
801.80 0.2301
801.90 0.23
802.00 0.2299
802.10 0.2298
802.20 0.2297
802.30 0.2296
802.40 0.2295
802.50 0.2294
802.60 0.2293
802.70 0.2292
802.80 0.2291
802.90 0.229
803.00 0.2289
803.10 0.2288
803.20 0.2287
803.30 0.2286
803.40 0.2285
803.50 0.2284
803.60 0.2283
803.70 0.2282
803.80 0.2281
803.90 0.228
804.00 0.228
804.10 0.2279
804.20 0.2278
804.30 0.2277
804.40 0.2276
804.50 0.2275
804.60 0.2274
804.70 0.2273
804.80 0.2272
804.90 0.2271
805.00 0.227
805.10 0.2269
805.20 0.2268
805.30 0.2267
805.40 0.2266
805.50 0.2265
805.60 0.2264
805.70 0.2263
805.80 0.2262
805.90 0.2261
806.00 0.226
806.10 0.2259
806.20 0.2259
806.30 0.2258
806.40 0.2257
806.50 0.2256
806.60 0.2255
806.70 0.2254
806.80 0.2253
806.90 0.2252
807.00 0.2251
807.10 0.225
807.20 0.2249
807.30 0.2248
807.40 0.2247
807.50 0.2246
807.60 0.2245
807.70 0.2244
807.80 0.2243
807.90 0.2242
808.00 0.2242
808.10 0.2241
808.20 0.224
808.30 0.2239
808.40 0.2238
808.50 0.2237
808.60 0.2236
808.70 0.2235
808.80 0.2234
808.90 0.2233
809.00 0.2232
809.10 0.2231
809.20 0.223
809.30 0.2229
809.40 0.2228
809.50 0.2227
809.60 0.2227
809.70 0.2226
809.80 0.2225
809.90 0.2224
810.00 0.2223
810.10 0.2222
810.20 0.2221
810.30 0.222
810.40 0.2219
810.50 0.2218
810.60 0.2217
810.70 0.2216
810.80 0.2215
810.90 0.2215
811.00 0.2214
811.10 0.2213
811.20 0.2212
811.30 0.2211
811.40 0.221
811.50 0.2209
811.60 0.2208
811.70 0.2207
811.80 0.2206
811.90 0.2205
812.00 0.2204
812.10 0.2203
812.20 0.2203
812.30 0.2202
812.40 0.2201
812.50 0.22
812.60 0.2199
812.70 0.2198
812.80 0.2197
812.90 0.2196
813.00 0.2195
813.10 0.2194
813.20 0.2193
813.30 0.2193
813.40 0.2192
813.50 0.2191
813.60 0.219
813.70 0.2189
813.80 0.2188
813.90 0.2187
814.00 0.2186
814.10 0.2185
814.20 0.2184
814.30 0.2183
814.40 0.2183
814.50 0.2182
814.60 0.2181
814.70 0.218
814.80 0.2179
814.90 0.2178
815.00 0.2177
815.10 0.2176
815.20 0.2175
815.30 0.2174
815.40 0.2173
815.50 0.2173
815.60 0.2172
815.70 0.2171
815.80 0.217
815.90 0.2169
816.00 0.2168
816.10 0.2167
816.20 0.2166
816.30 0.2165
816.40 0.2164
816.50 0.2164
816.60 0.2163
816.70 0.2162
816.80 0.2161
816.90 0.216
817.00 0.2159
817.10 0.2158
817.20 0.2157
817.30 0.2156
817.40 0.2155
817.50 0.2155
817.60 0.2154
817.70 0.2153
817.80 0.2152
817.90 0.2151
818.00 0.215
818.10 0.2149
818.20 0.2148
818.30 0.2147
818.40 0.2147
818.50 0.2146
818.60 0.2145
818.70 0.2144
818.80 0.2143
818.90 0.2142
819.00 0.2141
819.10 0.214
819.20 0.2139
819.30 0.2139
819.40 0.2138
819.50 0.2137
819.60 0.2136
819.70 0.2135
819.80 0.2134
819.90 0.2133
820.00 0.2132
820.10 0.2131
820.20 0.2131
820.30 0.213
820.40 0.2129
820.50 0.2128
820.60 0.2127
820.70 0.2126
820.80 0.2125
820.90 0.2124
821.00 0.2124
821.10 0.2123
821.20 0.2122
821.30 0.2121
821.40 0.212
821.50 0.2119
821.60 0.2118
821.70 0.2117
821.80 0.2117
821.90 0.2116
822.00 0.2115
822.10 0.2114
822.20 0.2113
822.30 0.2112
822.40 0.2111
822.50 0.2111
822.60 0.211
822.70 0.2109
822.80 0.2108
822.90 0.2107
823.00 0.2106
823.10 0.2105
823.20 0.2104
823.30 0.2104
823.40 0.2103
823.50 0.2102
823.60 0.2101
823.70 0.21
823.80 0.2099
823.90 0.2098
824.00 0.2098
824.10 0.2097
824.20 0.2096
824.30 0.2095
824.40 0.2094
824.50 0.2093
824.60 0.2092
824.70 0.2091
824.80 0.2091
824.90 0.209
825.00 0.2089
825.10 0.2088
825.20 0.2087
825.30 0.2086
825.40 0.2085
825.50 0.2085
825.60 0.2084
825.70 0.2083
825.80 0.2082
825.90 0.2081
826.00 0.208
826.10 0.2079
826.20 0.2079
826.30 0.2078
826.40 0.2077
826.50 0.2076
826.60 0.2075
826.70 0.2074
826.80 0.2074
826.90 0.2073
827.00 0.2072
827.10 0.2071
827.20 0.207
827.30 0.2069
827.40 0.2068
827.50 0.2068
827.60 0.2067
827.70 0.2066
827.80 0.2065
827.90 0.2064
828.00 0.2063
828.10 0.2062
828.20 0.2062
828.30 0.2061
828.40 0.206
828.50 0.2059
828.60 0.2058
828.70 0.2057
828.80 0.2057
828.90 0.2056
829.00 0.2055
829.10 0.2054
829.20 0.2053
829.30 0.2052
829.40 0.2052
829.50 0.2051
829.60 0.205
829.70 0.2049
829.80 0.2048
829.90 0.2047
830.00 0.2046
830.10 0.2046
830.20 0.2045
830.30 0.2044
830.40 0.2043
830.50 0.2042
830.60 0.2041
830.70 0.2041
830.80 0.204
830.90 0.2039
831.00 0.2038
831.10 0.2037
831.20 0.2036
831.30 0.2036
831.40 0.2035
831.50 0.2034
831.60 0.2033
831.70 0.2032
831.80 0.2031
831.90 0.2031
832.00 0.203
832.10 0.2029
832.20 0.2028
832.30 0.2027
832.40 0.2026
832.50 0.2026
832.60 0.2025
832.70 0.2024
832.80 0.2023
832.90 0.2022
833.00 0.2022
833.10 0.2021
833.20 0.202
833.30 0.2019
833.40 0.2018
833.50 0.2017
833.60 0.2017
833.70 0.2016
833.80 0.2015
833.90 0.2014
834.00 0.2013
834.10 0.2012
834.20 0.2012
834.30 0.2011
834.40 0.201
834.50 0.2009
834.60 0.2008
834.70 0.2008
834.80 0.2007
834.90 0.2006
835.00 0.2005
835.10 0.2004
835.20 0.2003
835.30 0.2003
835.40 0.2002
835.50 0.2001
835.60 0.2
835.70 0.1999
835.80 0.1999
835.90 0.1998
836.00 0.1997
836.10 0.1996
836.20 0.1995
836.30 0.1995
836.40 0.1994
836.50 0.1993
836.60 0.1992
836.70 0.1991
836.80 0.199
836.90 0.199
837.00 0.1989
837.10 0.1988
837.20 0.1987
837.30 0.1986
837.40 0.1986
837.50 0.1985
837.60 0.1984
837.70 0.1983
837.80 0.1982
837.90 0.1982
838.00 0.1981
838.10 0.198
838.20 0.1979
838.30 0.1978
838.40 0.1978
838.50 0.1977
838.60 0.1976
838.70 0.1975
838.80 0.1974
838.90 0.1974
839.00 0.1973
839.10 0.1972
839.20 0.1971
839.30 0.197
839.40 0.197
839.50 0.1969
839.60 0.1968
839.70 0.1967
839.80 0.1966
839.90 0.1966
840.00 0.1965
840.10 0.1964
840.20 0.1963
840.30 0.1962
840.40 0.1962
840.50 0.1961
840.60 0.196
840.70 0.1959
840.80 0.1958
840.90 0.1958
841.00 0.1957
841.10 0.1956
841.20 0.1955
841.30 0.1954
841.40 0.1954
841.50 0.1953
841.60 0.1952
841.70 0.1951
841.80 0.1951
841.90 0.195
842.00 0.1949
842.10 0.1948
842.20 0.1947
842.30 0.1947
842.40 0.1946
842.50 0.1945
842.60 0.1944
842.70 0.1943
842.80 0.1943
842.90 0.1942
843.00 0.1941
843.10 0.194
843.20 0.194
843.30 0.1939
843.40 0.1938
843.50 0.1937
843.60 0.1936
843.70 0.1936
843.80 0.1935
843.90 0.1934
844.00 0.1933
844.10 0.1932
844.20 0.1932
844.30 0.1931
844.40 0.193
844.50 0.1929
844.60 0.1929
844.70 0.1928
844.80 0.1927
844.90 0.1926
845.00 0.1925
845.10 0.1925
845.20 0.1924
845.30 0.1923
845.40 0.1922
845.50 0.1922
845.60 0.1921
845.70 0.192
845.80 0.1919
845.90 0.1918
846.00 0.1918
846.10 0.1917
846.20 0.1916
846.30 0.1915
846.40 0.1915
846.50 0.1914
846.60 0.1913
846.70 0.1912
846.80 0.1912
846.90 0.1911
847.00 0.191
847.10 0.1909
847.20 0.1909
847.30 0.1908
847.40 0.1907
847.50 0.1906
847.60 0.1906
847.70 0.1905
847.80 0.1904
847.90 0.1904
848.00 0.1903
848.10 0.1902
848.20 0.1902
848.30 0.1901
848.40 0.19
848.50 0.1899
848.60 0.1899
848.70 0.1898
848.80 0.1897
848.90 0.1897
849.00 0.1896
849.10 0.1895
849.20 0.1895
849.30 0.1894
849.40 0.1893
849.50 0.1892
849.60 0.1892
849.70 0.1891
849.80 0.189
849.90 0.189
850.00 0.1889
850.10 0.1888
850.20 0.1888
850.30 0.1887
850.40 0.1886
850.50 0.1885
850.60 0.1885
850.70 0.1884
850.80 0.1883
850.90 0.1883
851.00 0.1882
851.10 0.1881
851.20 0.1881
851.30 0.188
851.40 0.1879
851.50 0.1879
851.60 0.1878
851.70 0.1877
851.80 0.1876
851.90 0.1876
852.00 0.1875
852.10 0.1874
852.20 0.1874
852.30 0.1873
852.40 0.1872
852.50 0.1872
852.60 0.1871
852.70 0.187
852.80 0.187
852.90 0.1869
853.00 0.1868
853.10 0.1867
853.20 0.1867
853.30 0.1866
853.40 0.1865
853.50 0.1865
853.60 0.1864
853.70 0.1863
853.80 0.1863
853.90 0.1862
854.00 0.1861
854.10 0.1861
854.20 0.186
854.30 0.1859
854.40 0.1859
854.50 0.1858
854.60 0.1857
854.70 0.1857
854.80 0.1856
854.90 0.1855
855.00 0.1855
855.10 0.1854
855.20 0.1853
855.30 0.1852
855.40 0.1852
855.50 0.1851
855.60 0.185
855.70 0.185
855.80 0.1849
855.90 0.1848
856.00 0.1848
856.10 0.1847
856.20 0.1846
856.30 0.1846
856.40 0.1845
856.50 0.1844
856.60 0.1844
856.70 0.1843
856.80 0.1842
856.90 0.1842
857.00 0.1841
857.10 0.184
857.20 0.184
857.30 0.1839
857.40 0.1838
857.50 0.1838
857.60 0.1837
857.70 0.1836
857.80 0.1836
857.90 0.1835
858.00 0.1835
858.10 0.1834
858.20 0.1833
858.30 0.1833
858.40 0.1832
858.50 0.1831
858.60 0.1831
858.70 0.183
858.80 0.1829
858.90 0.1829
859.00 0.1828
859.10 0.1828
859.20 0.1827
859.30 0.1826
859.40 0.1826
859.50 0.1825
859.60 0.1824
859.70 0.1824
859.80 0.1823
859.90 0.1822
860.00 0.1822
860.10 0.1821
860.20 0.1821
860.30 0.182
860.40 0.1819
860.50 0.1819
860.60 0.1818
860.70 0.1817
860.80 0.1817
860.90 0.1816
861.00 0.1815
861.10 0.1815
861.20 0.1814
861.30 0.1814
861.40 0.1813
861.50 0.1812
861.60 0.1812
861.70 0.1811
861.80 0.181
861.90 0.181
862.00 0.1809
862.10 0.1809
862.20 0.1808
862.30 0.1807
862.40 0.1807
862.50 0.1806
862.60 0.1805
862.70 0.1805
862.80 0.1804
862.90 0.1803
863.00 0.1803
863.10 0.1802
863.20 0.1801
863.30 0.1801
863.40 0.18
863.50 0.18
863.60 0.1799
863.70 0.1798
863.80 0.1798
863.90 0.1797
864.00 0.1796
864.10 0.1796
864.20 0.1795
864.30 0.1794
864.40 0.1794
864.50 0.1793
864.60 0.1792
864.70 0.1792
864.80 0.1791
864.90 0.1791
865.00 0.179
865.10 0.1789
865.20 0.1789
865.30 0.1788
865.40 0.1787
865.50 0.1787
865.60 0.1786
865.70 0.1785
865.80 0.1785
865.90 0.1784
866.00 0.1783
866.10 0.1783
866.20 0.1782
866.30 0.1782
866.40 0.1781
866.50 0.178
866.60 0.178
866.70 0.1779
866.80 0.1778
866.90 0.1778
867.00 0.1777
867.10 0.1777
867.20 0.1776
867.30 0.1776
867.40 0.1775
867.50 0.1775
867.60 0.1774
867.70 0.1774
867.80 0.1773
867.90 0.1773
868.00 0.1772
868.10 0.1772
868.20 0.1771
868.30 0.1771
868.40 0.177
868.50 0.177
868.60 0.1769
868.70 0.1769
868.80 0.1768
868.90 0.1768
869.00 0.1767
869.10 0.1767
869.20 0.1766
869.30 0.1766
869.40 0.1765
869.50 0.1765
869.60 0.1764
869.70 0.1764
869.80 0.1763
869.90 0.1763
870.00 0.1762
870.10 0.1762
870.20 0.1761
870.30 0.1761
870.40 0.176
870.50 0.176
870.60 0.1759
870.70 0.1759
870.80 0.1758
870.90 0.1758
871.00 0.1757
871.10 0.1757
871.20 0.1756
871.30 0.1756
871.40 0.1755
871.50 0.1755
871.60 0.1754
871.70 0.1754
871.80 0.1753
871.90 0.1753
872.00 0.1752
872.10 0.1752
872.20 0.1751
872.30 0.1751
872.40 0.175
872.50 0.1749
872.60 0.1749
872.70 0.1748
872.80 0.1748
872.90 0.1747
873.00 0.1746
873.10 0.1746
873.20 0.1745
873.30 0.1745
873.40 0.1744
873.50 0.1744
873.60 0.1743
873.70 0.1742
873.80 0.1742
873.90 0.1741
874.00 0.1741
874.10 0.174
874.20 0.1739
874.30 0.1739
874.40 0.1738
874.50 0.1738
874.60 0.1737
874.70 0.1737
874.80 0.1736
874.90 0.1735
875.00 0.1735
875.10 0.1734
875.20 0.1734
875.30 0.1733
875.40 0.1732
875.50 0.1732
875.60 0.1731
875.70 0.1731
875.80 0.173
875.90 0.173
876.00 0.1729
876.10 0.1728
876.20 0.1728
876.30 0.1727
876.40 0.1727
876.50 0.1726
876.60 0.1726
876.70 0.1725
876.80 0.1724
876.90 0.1724
877.00 0.1723
877.10 0.1723
877.20 0.1722
877.30 0.1722
877.40 0.1722
877.50 0.1721
877.60 0.1721
877.70 0.172
877.80 0.172
877.90 0.1719
878.00 0.1719
878.10 0.1719
878.20 0.1718
878.30 0.1718
878.40 0.1717
878.50 0.1717
878.60 0.1716
878.70 0.1716
878.80 0.1716
878.90 0.1715
879.00 0.1715
879.10 0.1714
879.20 0.1714
879.30 0.1713
879.40 0.1713
879.50 0.1713
879.60 0.1712
879.70 0.1712
879.80 0.1711
879.90 0.1711
880.00 0.171
880.10 0.171
880.20 0.171
880.30 0.1709
880.40 0.1709
880.50 0.1708
880.60 0.1708
880.70 0.1708
880.80 0.1707
880.90 0.1707
881.00 0.1706
881.10 0.1706
881.20 0.1705
881.30 0.1705
881.40 0.1705
881.50 0.1704
881.60 0.1704
881.70 0.1703
881.80 0.1703
881.90 0.1702
882.00 0.1702
882.10 0.1701
882.20 0.17
882.30 0.1699
882.40 0.1698
882.50 0.1697
882.60 0.1696
882.70 0.1695
882.80 0.1693
882.90 0.1692
883.00 0.1691
883.10 0.169
883.20 0.1689
883.30 0.1688
883.40 0.1687
883.50 0.1686
883.60 0.1685
883.70 0.1684
883.80 0.1683
883.90 0.1682
884.00 0.1681
884.10 0.168
884.20 0.1679
884.30 0.1677
884.40 0.1676
884.50 0.1675
884.60 0.1674
884.70 0.1673
884.80 0.1672
884.90 0.1671
885.00 0.167
885.10 0.1669
885.20 0.1668
885.30 0.1667
885.40 0.1666
885.50 0.1665
885.60 0.1664
885.70 0.1663
885.80 0.1662
885.90 0.166
886.00 0.1659
886.10 0.1658
886.20 0.1657
886.30 0.1656
886.40 0.1655
886.50 0.1654
886.60 0.1653
886.70 0.1652
886.80 0.1651
886.90 0.165
887.00 0.1649
887.10 0.1649
887.20 0.1649
887.30 0.1649
887.40 0.1649
887.50 0.1649
887.60 0.1649
887.70 0.1649
887.80 0.1649
887.90 0.1649
888.00 0.165
888.10 0.165
888.20 0.165
888.30 0.165
888.40 0.165
888.50 0.165
888.60 0.165
888.70 0.165
888.80 0.165
888.90 0.165
889.00 0.165
889.10 0.165
889.20 0.165
889.30 0.165
889.40 0.165
889.50 0.1651
889.60 0.1651
889.70 0.1651
889.80 0.1651
889.90 0.1651
890.00 0.1651
890.10 0.1651
890.20 0.1651
890.30 0.1651
890.40 0.1651
890.50 0.1651
890.60 0.1651
890.70 0.1651
890.80 0.1651
890.90 0.1651
891.00 0.1652
891.10 0.1652
891.20 0.1652
891.30 0.1652
891.40 0.1652
891.50 0.1652
891.60 0.1652
891.70 0.1652
891.80 0.1652
891.90 0.1652
892.00 0.1652
892.10 0.1652
892.20 0.1651
892.30 0.165
892.40 0.165
892.50 0.1649
892.60 0.1649
892.70 0.1648
892.80 0.1647
892.90 0.1647
893.00 0.1646
893.10 0.1646
893.20 0.1645
893.30 0.1645
893.40 0.1644
893.50 0.1643
893.60 0.1643
893.70 0.1642
893.80 0.1642
893.90 0.1641
894.00 0.164
894.10 0.164
894.20 0.1639
894.30 0.1639
894.40 0.1638
894.50 0.1638
894.60 0.1637
894.70 0.1636
894.80 0.1636
894.90 0.1635
895.00 0.1635
895.10 0.1634
895.20 0.1633
895.30 0.1633
895.40 0.1632
895.50 0.1632
895.60 0.1631
895.70 0.1631
895.80 0.163
895.90 0.1629
896.00 0.1629
896.10 0.1628
896.20 0.1628
896.30 0.1627
896.40 0.1626
896.50 0.1626
896.60 0.1625
896.70 0.1625
896.80 0.1624
896.90 0.1624
897.00 0.1623
897.10 0.1621
897.20 0.1619
897.30 0.1617
897.40 0.1615
897.50 0.1613
897.60 0.161
897.70 0.1608
897.80 0.1606
897.90 0.1604
898.00 0.1602
898.10 0.16
898.20 0.1598
898.30 0.1596
898.40 0.1594
898.50 0.1592
898.60 0.159
898.70 0.1588
898.80 0.1585
898.90 0.1583
899.00 0.1581
899.10 0.1579
899.20 0.1577
899.30 0.1575
899.40 0.1573
899.50 0.1571
899.60 0.1569
899.70 0.1567
899.80 0.1565
899.90 0.1563
900.00 0.1561
900.10 0.1558
900.20 0.1556
900.30 0.1554
900.40 0.1552
900.50 0.155
900.60 0.1548
900.70 0.1546
900.80 0.1544
900.90 0.1542
901.00 0.154
901.10 0.1538
901.20 0.1536
901.30 0.1534
901.40 0.1532
901.50 0.153
901.60 0.1528
901.70 0.1525
901.80 0.1523
901.90 0.1521
902.00 0.1519
902.10 0.152
902.20 0.1521
902.30 0.1521
902.40 0.1522
902.50 0.1523
902.60 0.1524
902.70 0.1524
902.80 0.1525
902.90 0.1526
903.00 0.1527
903.10 0.1527
903.20 0.1528
903.30 0.1529
903.40 0.1529
903.50 0.153
903.60 0.1531
903.70 0.1532
903.80 0.1532
903.90 0.1533
904.00 0.1534
904.10 0.1534
904.20 0.1535
904.30 0.1536
904.40 0.1537
904.50 0.1537
904.60 0.1538
904.70 0.1539
904.80 0.1539
904.90 0.154
905.00 0.1541
905.10 0.1541
905.20 0.1542
905.30 0.1543
905.40 0.1544
905.50 0.1544
905.60 0.1545
905.70 0.1546
905.80 0.1546
905.90 0.1547
906.00 0.1548
906.10 0.1549
906.20 0.1549
906.30 0.155
906.40 0.1551
906.50 0.1551
906.60 0.1552
906.70 0.1553
906.80 0.1553
906.90 0.1554
907.00 0.1555
907.10 0.1555
907.20 0.1555
907.30 0.1555
907.40 0.1555
907.50 0.1554
907.60 0.1554
907.70 0.1554
907.80 0.1554
907.90 0.1554
908.00 0.1554
908.10 0.1554
908.20 0.1554
908.30 0.1554
908.40 0.1554
908.50 0.1554
908.60 0.1554
908.70 0.1553
908.80 0.1553
908.90 0.1553
909.00 0.1553
909.10 0.1553
909.20 0.1553
909.30 0.1553
909.40 0.1553
909.50 0.1553
909.60 0.1553
909.70 0.1553
909.80 0.1553
909.90 0.1552
910.00 0.1552
910.10 0.1552
910.20 0.1552
910.30 0.1552
910.40 0.1552
910.50 0.1552
910.60 0.1552
910.70 0.1552
910.80 0.1552
910.90 0.1552
911.00 0.1552
911.10 0.1551
911.20 0.1551
911.30 0.1551
911.40 0.1551
911.50 0.1551
911.60 0.1551
911.70 0.1551
911.80 0.1551
911.90 0.1551
912.00 0.1551
912.10 0.155
912.20 0.1548
912.30 0.1547
912.40 0.1546
912.50 0.1545
912.60 0.1544
912.70 0.1543
912.80 0.1542
912.90 0.154
913.00 0.1539
913.10 0.1538
913.20 0.1537
913.30 0.1536
913.40 0.1535
913.50 0.1534
913.60 0.1532
913.70 0.1531
913.80 0.153
913.90 0.1529
914.00 0.1528
914.10 0.1527
914.20 0.1526
914.30 0.1524
914.40 0.1523
914.50 0.1522
914.60 0.1521
914.70 0.152
914.80 0.1519
914.90 0.1518
915.00 0.1517
915.10 0.1515
915.20 0.1514
915.30 0.1513
915.40 0.1512
915.50 0.1511
915.60 0.151
915.70 0.1509
915.80 0.1507
915.90 0.1506
916.00 0.1505
916.10 0.1504
916.20 0.1503
916.30 0.1502
916.40 0.1501
916.50 0.15
916.60 0.1498
916.70 0.1497
916.80 0.1496
916.90 0.1495
917.00 0.1494
917.10 0.1491
917.20 0.1489
917.30 0.1486
917.40 0.1484
917.50 0.1481
917.60 0.1479
917.70 0.1476
917.80 0.1474
917.90 0.1471
918.00 0.1469
918.10 0.1466
918.20 0.1464
918.30 0.1461
918.40 0.1458
918.50 0.1456
918.60 0.1453
918.70 0.1451
918.80 0.1448
918.90 0.1446
919.00 0.1443
919.10 0.1441
919.20 0.1438
919.30 0.1436
919.40 0.1433
919.50 0.1431
919.60 0.1428
919.70 0.1426
919.80 0.1423
919.90 0.1421
920.00 0.1418
920.10 0.1416
920.20 0.1413
920.30 0.1411
920.40 0.1408
920.50 0.1406
920.60 0.1403
920.70 0.1401
920.80 0.1398
920.90 0.1396
921.00 0.1393
921.10 0.1391
921.20 0.1388
921.30 0.1386
921.40 0.1383
921.50 0.1381
921.60 0.1378
921.70 0.1376
921.80 0.1373
921.90 0.1371
922.00 0.1368
922.10 0.1368
922.20 0.1368
922.30 0.1367
922.40 0.1367
922.50 0.1367
922.60 0.1367
922.70 0.1367
922.80 0.1366
922.90 0.1366
923.00 0.1366
923.10 0.1366
923.20 0.1365
923.30 0.1365
923.40 0.1365
923.50 0.1365
923.60 0.1364
923.70 0.1364
923.80 0.1364
923.90 0.1364
924.00 0.1363
924.10 0.1363
924.20 0.1363
924.30 0.1363
924.40 0.1363
924.50 0.1362
924.60 0.1362
924.70 0.1362
924.80 0.1362
924.90 0.1361
925.00 0.1361
925.10 0.1361
925.20 0.1361
925.30 0.136
925.40 0.136
925.50 0.136
925.60 0.136
925.70 0.1359
925.80 0.1359
925.90 0.1359
926.00 0.1359
926.10 0.1359
926.20 0.1358
926.30 0.1358
926.40 0.1358
926.50 0.1358
926.60 0.1357
926.70 0.1357
926.80 0.1357
926.90 0.1357
927.00 0.1356
927.10 0.1358
927.20 0.1359
927.30 0.136
927.40 0.1361
927.50 0.1362
927.60 0.1364
927.70 0.1365
927.80 0.1366
927.90 0.1367
928.00 0.1368
928.10 0.1369
928.20 0.1371
928.30 0.1372
928.40 0.1373
928.50 0.1374
928.60 0.1375
928.70 0.1377
928.80 0.1378
928.90 0.1379
929.00 0.138
929.10 0.1381
929.20 0.1382
929.30 0.1384
929.40 0.1385
929.50 0.1386
929.60 0.1387
929.70 0.1388
929.80 0.1389
929.90 0.1391
930.00 0.1392
930.10 0.1393
930.20 0.1394
930.30 0.1395
930.40 0.1396
930.50 0.1398
930.60 0.1399
930.70 0.14
930.80 0.1401
930.90 0.1402
931.00 0.1403
931.10 0.1405
931.20 0.1406
931.30 0.1407
931.40 0.1408
931.50 0.1409
931.60 0.141
931.70 0.1412
931.80 0.1413
931.90 0.1414
932.00 0.1415
932.10 0.1415
932.20 0.1416
932.30 0.1416
932.40 0.1416
932.50 0.1417
932.60 0.1417
932.70 0.1417
932.80 0.1418
932.90 0.1418
933.00 0.1418
933.10 0.1418
933.20 0.1419
933.30 0.1419
933.40 0.1419
933.50 0.142
933.60 0.142
933.70 0.142
933.80 0.142
933.90 0.1421
934.00 0.1421
934.10 0.1421
934.20 0.1422
934.30 0.1422
934.40 0.1422
934.50 0.1422
934.60 0.1422
934.70 0.1421
934.80 0.1421
934.90 0.1421
935.00 0.1421
935.10 0.1421
935.20 0.1421
935.30 0.1421
935.40 0.1421
935.50 0.1421
935.60 0.142
935.70 0.142
935.80 0.142
935.90 0.142
936.00 0.142
936.10 0.142
936.20 0.142
936.30 0.142
936.40 0.142
936.50 0.1419
936.60 0.1419
936.70 0.1419
936.80 0.1419
936.90 0.1419
937.00 0.1419
937.10 0.1418
937.20 0.1418
937.30 0.1418
937.40 0.1417
937.50 0.1417
937.60 0.1416
937.70 0.1416
937.80 0.1416
937.90 0.1415
938.00 0.1415
938.10 0.1414
938.20 0.1414
938.30 0.1414
938.40 0.1413
938.50 0.1412
938.60 0.1412
938.70 0.1411
938.80 0.141
938.90 0.141
939.00 0.1409
939.10 0.1409
939.20 0.1408
939.30 0.1407
939.40 0.1407
939.50 0.1406
939.60 0.1405
939.70 0.1405
939.80 0.1404
939.90 0.1404
940.00 0.1403
940.10 0.1402
940.20 0.1402
940.30 0.1401
940.40 0.14
940.50 0.1399
940.60 0.1398
940.70 0.1397
940.80 0.1396
940.90 0.1395
941.00 0.1395
941.10 0.1394
941.20 0.1393
941.30 0.1392
941.40 0.1391
941.50 0.139
941.60 0.1389
941.70 0.1388
941.80 0.1387
941.90 0.1386
942.00 0.1385
942.10 0.1384
942.20 0.1383
942.30 0.1382
942.40 0.1381
942.50 0.1379
942.60 0.1378
942.70 0.1376
942.80 0.1375
942.90 0.1374
943.00 0.1372
943.10 0.1371
943.20 0.1369
943.30 0.1368
943.40 0.1367
943.50 0.1365
943.60 0.1364
943.70 0.1362
943.80 0.1361
943.90 0.136
944.00 0.1358
944.10 0.1357
944.20 0.1356
944.30 0.1354
944.40 0.1352
944.50 0.1351
944.60 0.1349
944.70 0.1347
944.80 0.1345
944.90 0.1343
945.00 0.1341
945.10 0.134
945.20 0.1338
945.30 0.1336
945.40 0.1334
945.50 0.1331
945.60 0.1329
945.70 0.1327
945.80 0.1325
945.90 0.1322
946.00 0.132
946.10 0.1318
946.20 0.1316
946.30 0.1313
946.40 0.1311
946.50 0.1309
946.60 0.1307
946.70 0.1304
946.80 0.1302
946.90 0.13
947.00 0.1297
947.10 0.1295
947.20 0.1292
947.30 0.129
947.40 0.1287
947.50 0.1283
947.60 0.128
947.70 0.1277
947.80 0.1274
947.90 0.1271
948.00 0.1268
948.10 0.1265
948.20 0.1262
948.30 0.1259
948.40 0.1256
948.50 0.1253
948.60 0.125
948.70 0.1247
948.80 0.1244
948.90 0.1241
949.00 0.1238
949.10 0.1235
949.20 0.1232
949.30 0.1229
949.40 0.1225
949.50 0.1222
949.60 0.1218
949.70 0.1214
949.80 0.1211
949.90 0.1207
950.00 0.1204
950.10 0.12
950.20 0.1197
950.30 0.1193
950.40 0.119
950.50 0.1186
950.60 0.1183
950.70 0.1179
950.80 0.1176
950.90 0.1172
951.00 0.1168
951.10 0.1165
951.20 0.1161
951.30 0.1158
951.40 0.1154
951.50 0.1151
951.60 0.1147
951.70 0.1144
951.80 0.1141
951.90 0.1137
952.00 0.1134
952.10 0.1131
952.20 0.1128
952.30 0.1125
952.40 0.1122
952.50 0.1119
952.60 0.1116
952.70 0.1113
952.80 0.111
952.90 0.1109
953.00 0.1107
953.10 0.1106
953.20 0.1104
953.30 0.1102
953.40 0.1101
953.50 0.1099
953.60 0.1104
953.70 0.1108
953.80 0.1112
953.90 0.1116
954.00 0.1124
954.10 0.1132
954.20 0.1146
954.30 0.1143
954.40 0.1125
954.50 0.1112
954.60 0.1104
954.70 0.1096
954.80 0.1092
954.90 0.1089
955.00 0.1085
955.10 0.1081
955.20 0.1081
955.30 0.1081
955.40 0.1082
955.50 0.1082
955.60 0.1082
955.70 0.1082
955.80 0.1083
955.90 0.1085
956.00 0.1087
956.10 0.1089
956.20 0.1091
956.30 0.1093
956.40 0.1095
956.50 0.1097
956.60 0.1099
956.70 0.1101
956.80 0.1103
956.90 0.1105
957.00 0.1107
957.10 0.111
957.20 0.1112
957.30 0.1114
957.40 0.1117
957.50 0.1119
957.60 0.1121
957.70 0.1123
957.80 0.1126
957.90 0.1128
958.00 0.113
958.10 0.1132
958.20 0.1135
958.30 0.1137
958.40 0.1139
958.50 0.1142
958.60 0.1144
958.70 0.1146
958.80 0.1148
958.90 0.1151
959.00 0.1153
959.10 0.1155
959.20 0.1157
959.30 0.116
959.40 0.1161
959.50 0.1163
959.60 0.1165
959.70 0.1167
959.80 0.1169
959.90 0.117
960.00 0.1172
960.10 0.1174
960.20 0.1176
960.30 0.1178
960.40 0.1179
960.50 0.1181
960.60 0.1183
960.70 0.1185
960.80 0.1187
960.90 0.1188
961.00 0.119
961.10 0.1192
961.20 0.1194
961.30 0.1196
961.40 0.1197
961.50 0.1198
961.60 0.12
961.70 0.1201
961.80 0.1203
961.90 0.1204
962.00 0.1206
962.10 0.1207
962.20 0.1208
962.30 0.1209
962.40 0.1211
962.50 0.1212
962.60 0.1213
962.70 0.1214
962.80 0.1215
962.90 0.1217
963.00 0.1218
963.10 0.1219
963.20 0.122
963.30 0.1221
963.40 0.1222
963.50 0.1223
963.60 0.1224
963.70 0.1225
963.80 0.1226
963.90 0.1227
964.00 0.1228
964.10 0.1229
964.20 0.123
964.30 0.1231
964.40 0.1232
964.50 0.1233
964.60 0.1233
964.70 0.1234
964.80 0.1235
964.90 0.1235
965.00 0.1236
965.10 0.1237
965.20 0.1237
965.30 0.1238
965.40 0.1239
965.50 0.124
965.60 0.124
965.70 0.1241
965.80 0.1242
965.90 0.1242
966.00 0.1243
966.10 0.1244
966.20 0.1244
966.30 0.1245
966.40 0.1246
966.50 0.1246
966.60 0.1247
966.70 0.1247
966.80 0.1248
966.90 0.1248
967.00 0.1249
967.10 0.1249
967.20 0.1249
967.30 0.125
967.40 0.125
967.50 0.125
967.60 0.1251
967.70 0.1251
967.80 0.1252
967.90 0.1252
968.00 0.1252
968.10 0.1253
968.20 0.1253
968.30 0.1253
968.40 0.1254
968.50 0.1254
968.60 0.1254
968.70 0.1254
968.80 0.1254
968.90 0.1254
969.00 0.1255
969.10 0.1255
969.20 0.1255
969.30 0.1255
969.40 0.1255
969.50 0.1256
969.60 0.1256
969.70 0.1256
969.80 0.1256
969.90 0.1256
970.00 0.1256
970.10 0.1257
970.20 0.1257
970.30 0.1257
970.40 0.1257
970.50 0.1257
970.60 0.1257
970.70 0.1257
970.80 0.1257
970.90 0.1257
971.00 0.1257
971.10 0.1257
971.20 0.1257
971.30 0.1257
971.40 0.1257
971.50 0.1257
971.60 0.1257
971.70 0.1257
971.80 0.1257
971.90 0.1257
972.00 0.1257
972.10 0.1257
972.20 0.1257
972.30 0.1257
972.40 0.1257
972.50 0.1257
972.60 0.1257
972.70 0.1256
972.80 0.1256
972.90 0.1256
973.00 0.1256
973.10 0.1256
973.20 0.1256
973.30 0.1256
973.40 0.1255
973.50 0.1255
973.60 0.1255
973.70 0.1255
973.80 0.1255
973.90 0.1255
974.00 0.1255
974.10 0.1255
974.20 0.1254
974.30 0.1254
974.40 0.1254
974.50 0.1254
974.60 0.1253
974.70 0.1253
974.80 0.1253
974.90 0.1253
975.00 0.1252
975.10 0.1252
975.20 0.1252
975.30 0.1252
975.40 0.1251
975.50 0.1251
975.60 0.1251
975.70 0.125
975.80 0.125
975.90 0.125
976.00 0.125
976.10 0.1249
976.20 0.1249
976.30 0.1249
976.40 0.1248
976.50 0.1248
976.60 0.1248
976.70 0.1248
976.80 0.1247
976.90 0.1247
977.00 0.1247
977.10 0.1246
977.20 0.1246
977.30 0.1245
977.40 0.1245
977.50 0.1244
977.60 0.1244
977.70 0.1243
977.80 0.1243
977.90 0.1243
978.00 0.1242
978.10 0.1242
978.20 0.1241
978.30 0.1241
978.40 0.124
978.50 0.124
978.60 0.1239
978.70 0.1239
978.80 0.1238
978.90 0.1238
979.00 0.1237
979.10 0.1237
979.20 0.1236
979.30 0.1236
979.40 0.1235
979.50 0.1235
979.60 0.1234
979.70 0.1234
979.80 0.1233
979.90 0.1233
980.00 0.1233
980.10 0.1232
980.20 0.1232
980.30 0.1231
980.40 0.1231
980.50 0.123
980.60 0.123
980.70 0.1229
980.80 0.1229
980.90 0.1228
981.00 0.1228
981.10 0.1227
981.20 0.1227
981.30 0.1226
981.40 0.1226
981.50 0.1225
981.60 0.1225
981.70 0.1225
981.80 0.1224
981.90 0.1224
982.00 0.1223
982.10 0.1222
982.20 0.1222
982.30 0.1221
982.40 0.122
982.50 0.122
982.60 0.1219
982.70 0.1218
982.80 0.1218
982.90 0.1217
983.00 0.1216
983.10 0.1216
983.20 0.1215
983.30 0.1214
983.40 0.1214
983.50 0.1213
983.60 0.1212
983.70 0.1212
983.80 0.1211
983.90 0.121
984.00 0.1209
984.10 0.1209
984.20 0.1208
984.30 0.1207
984.40 0.1207
984.50 0.1206
984.60 0.1205
984.70 0.1205
984.80 0.1204
984.90 0.1203
985.00 0.1202
985.10 0.1201
985.20 0.12
985.30 0.1199
985.40 0.1199
985.50 0.1198
985.60 0.1197
985.70 0.1196
985.80 0.1195
985.90 0.1194
986.00 0.1193
986.10 0.1193
986.20 0.1192
986.30 0.1191
986.40 0.119
986.50 0.1189
986.60 0.1188
986.70 0.1188
986.80 0.1187
986.90 0.1186
987.00 0.1185
987.10 0.1184
987.20 0.1183
987.30 0.1182
987.40 0.1181
987.50 0.118
987.60 0.1179
987.70 0.1178
987.80 0.1177
987.90 0.1176
988.00 0.1175
988.10 0.1174
988.20 0.1173
988.30 0.1172
988.40 0.1171
988.50 0.117
988.60 0.1169
988.70 0.1168
988.80 0.1166
988.90 0.1165
989.00 0.1164
989.10 0.1163
989.20 0.1162
989.30 0.116
989.40 0.1159
989.50 0.1158
989.60 0.1157
989.70 0.1156
989.80 0.1154
989.90 0.1153
990.00 0.1152
990.10 0.1151
990.20 0.115
990.30 0.1148
990.40 0.1147
990.50 0.1146
990.60 0.1145
990.70 0.1144
990.80 0.1142
990.90 0.1141
991.00 0.1139
991.10 0.1138
991.20 0.1137
991.30 0.1135
991.40 0.1134
991.50 0.1132
991.60 0.1131
991.70 0.113
991.80 0.1128
991.90 0.1127
992.00 0.1125
992.10 0.1124
992.20 0.1122
992.30 0.1121
992.40 0.1119
992.50 0.1118
992.60 0.1116
992.70 0.1115
992.80 0.1113
992.90 0.1111
993.00 0.1109
993.10 0.1108
993.20 0.1106
993.30 0.1104
993.40 0.1103
993.50 0.1101
993.60 0.1099
993.70 0.1097
993.80 0.1096
993.90 0.1094
994.00 0.1092
994.10 0.1091
994.20 0.1089
994.30 0.1087
994.40 0.1086
994.50 0.1084
994.60 0.1082
994.70 0.108
994.80 0.1078
994.90 0.1076
995.00 0.1074
995.10 0.1072
995.20 0.1071
995.30 0.1069
995.40 0.1067
995.50 0.1065
995.60 0.1063
995.70 0.1061
995.80 0.1058
995.90 0.1056
996.00 0.1054
996.10 0.1052
996.20 0.105
996.30 0.1048
996.40 0.1045
996.50 0.1043
996.60 0.1041
996.70 0.1039
996.80 0.1037
996.90 0.1035
997.00 0.1033
997.10 0.103
997.20 0.1028
997.30 0.1025
997.40 0.1023
997.50 0.1021
997.60 0.1018
997.70 0.1016
997.80 0.1013
997.90 0.1011
998.00 0.1008
998.10 0.1005
998.20 0.1003
998.30 0.1
998.40 0.09973
998.50 0.09947
998.60 0.09921
998.70 0.09894
998.80 0.09868
998.90 0.09842
999.00 0.09815
999.10 0.09789
999.20 0.09763
999.30 0.09737
999.40 0.0971
999.50 0.09684
999.60 0.09658
999.70 0.09629
999.80 0.09598
999.90 0.09568
1000.00 0.09538
1000.10 0.09508
1000.20 0.09478
1000.30 0.09447
1000.40 0.09417
1000.50 0.09387
1000.60 0.09357
1000.70 0.09327
1000.80 0.09297
1000.90 0.09267
1001.00 0.09237
1001.10 0.09207
1001.20 0.09176
1001.30 0.09146
1001.40 0.09116
1001.50 0.09086
1001.60 0.09056
1001.70 0.09025
1001.80 0.08994
1001.90 0.08962
1002.00 0.08931
1002.10 0.08899
1002.20 0.08868
1002.30 0.08837
1002.40 0.08806
1002.50 0.08775
1002.60 0.08744
1002.70 0.08712
1002.80 0.08681
1002.90 0.0865
1003.00 0.08619
1003.10 0.08588
1003.20 0.08561
1003.30 0.08535
1003.40 0.08509
1003.50 0.08483
1003.60 0.08457
1003.70 0.08431
1003.80 0.08405
1003.90 0.0839
1004.00 0.08379
1004.10 0.08368
1004.20 0.08356
1004.30 0.08378
1004.40 0.0841
1004.50 0.08463
1004.60 0.0856
1004.70 0.08495
1004.80 0.08411
1004.90 0.08373
1005.00 0.08337
1005.10 0.08334
1005.20 0.0834
1005.30 0.08347
1005.40 0.08353
1005.50 0.08371
1005.60 0.08391
1005.70 0.08412
1005.80 0.08433
1005.90 0.08453
1006.00 0.08474
1006.10 0.08495
1006.20 0.08519
1006.30 0.08544
1006.40 0.08569
1006.50 0.08594
1006.60 0.08619
1006.70 0.08644
1006.80 0.08669
1006.90 0.08694
1007.00 0.08718
1007.10 0.08744
1007.20 0.08769
1007.30 0.08794
1007.40 0.08819
1007.50 0.08844
1007.60 0.08869
1007.70 0.08893
1007.80 0.08916
1007.90 0.08939
1008.00 0.08962
1008.10 0.08985
1008.20 0.09008
1008.30 0.09032
1008.40 0.09055
1008.50 0.09078
1008.60 0.09101
1008.70 0.09124
1008.80 0.09147
1008.90 0.0917
1009.00 0.09193
1009.10 0.09216
1009.20 0.09239
1009.30 0.09262
1009.40 0.09285
1009.50 0.09308
1009.60 0.09331
1009.70 0.0935
1009.80 0.09369
1009.90 0.09387
1010.00 0.09406
1010.10 0.09424
1010.20 0.09443
1010.30 0.09461
1010.40 0.09479
1010.50 0.09498
1010.60 0.09516
1010.70 0.09535
1010.80 0.09553
1010.90 0.09572
1011.00 0.0959
1011.10 0.09608
1011.20 0.09627
1011.30 0.09645
1011.40 0.09663
1011.50 0.09682
1011.60 0.097
1011.70 0.09716
1011.80 0.09732
1011.90 0.09747
1012.00 0.09763
1012.10 0.09776
1012.20 0.0979
1012.30 0.09803
1012.40 0.09817
1012.50 0.0983
1012.60 0.09843
1012.70 0.09857
1012.80 0.0987
1012.90 0.09884
1013.00 0.09897
1013.10 0.0991
1013.20 0.09924
1013.30 0.09937
1013.40 0.09951
1013.50 0.09964
1013.60 0.09977
1013.70 0.09989
1013.80 0.1
1013.90 0.1001
1014.00 0.1002
1014.10 0.1003
1014.20 0.1004
1014.30 0.1005
1014.40 0.1006
1014.50 0.1007
1014.60 0.1009
1014.70 0.1009
1014.80 0.101
1014.90 0.1011
1015.00 0.1012
1015.10 0.1013
1015.20 0.1014
1015.30 0.1015
1015.40 0.1015
1015.50 0.1016
1015.60 0.1017
1015.70 0.1018
1015.80 0.1019
1015.90 0.102
1016.00 0.102
1016.10 0.1021
1016.20 0.1022
1016.30 0.1023
1016.40 0.1024
1016.50 0.1025
1016.60 0.1025
1016.70 0.1026
1016.80 0.1027
1016.90 0.1027
1017.00 0.1028
1017.10 0.1029
1017.20 0.1029
1017.30 0.103
1017.40 0.103
1017.50 0.1031
1017.60 0.1031
1017.70 0.1032
1017.80 0.1033
1017.90 0.1033
1018.00 0.1034
1018.10 0.1034
1018.20 0.1035
1018.30 0.1035
1018.40 0.1036
1018.50 0.1036
1018.60 0.1037
1018.70 0.1037
1018.80 0.1038
1018.90 0.1038
1019.00 0.1039
1019.10 0.1039
1019.20 0.1039
1019.30 0.104
1019.40 0.104
1019.50 0.104
1019.60 0.1041
1019.70 0.1041
1019.80 0.1042
1019.90 0.1042
1020.00 0.1042
1020.10 0.1043
1020.20 0.1043
1020.30 0.1043
1020.40 0.1044
1020.50 0.1044
1020.60 0.1045
1020.70 0.1045
1020.80 0.1045
1020.90 0.1045
1021.00 0.1046
1021.10 0.1046
1021.20 0.1046
1021.30 0.1046
1021.40 0.1046
1021.50 0.1047
1021.60 0.1047
1021.70 0.1047
1021.80 0.1047
1021.90 0.1048
1022.00 0.1048
1022.10 0.1048
1022.20 0.1048
1022.30 0.1048
1022.40 0.1048
1022.50 0.1048
1022.60 0.1049
1022.70 0.1049
1022.80 0.1049
1022.90 0.1049
1023.00 0.1049
1023.10 0.1049
1023.20 0.1049
1023.30 0.1049
1023.40 0.1049
1023.50 0.105
1023.60 0.105
1023.70 0.105
1023.80 0.105
1023.90 0.105
1024.00 0.105
1024.10 0.105
1024.20 0.105
1024.30 0.105
1024.40 0.1051
1024.50 0.1051
1024.60 0.1051
1024.70 0.1051
1024.80 0.1051
1024.90 0.1051
1025.00 0.1051
1025.10 0.1051
1025.20 0.1051
1025.30 0.1051
1025.40 0.1051
1025.50 0.1051
1025.60 0.1051
1025.70 0.1051
1025.80 0.1051
1025.90 0.1051
1026.00 0.1051
1026.10 0.1051
1026.20 0.1051
1026.30 0.1051
1026.40 0.1051
1026.50 0.1051
1026.60 0.1051
1026.70 0.1051
1026.80 0.1051
1026.90 0.1051
1027.00 0.1051
1027.10 0.105
1027.20 0.105
1027.30 0.105
1027.40 0.105
1027.50 0.105
1027.60 0.105
1027.70 0.105
1027.80 0.105
1027.90 0.1049
1028.00 0.1049
1028.10 0.1049
1028.20 0.1049
1028.30 0.1049
1028.40 0.1049
1028.50 0.1049
1028.60 0.1049
1028.70 0.1048
1028.80 0.1048
1028.90 0.1048
1029.00 0.1048
1029.10 0.1048
1029.20 0.1048
1029.30 0.1048
1029.40 0.1048
1029.50 0.1047
1029.60 0.1047
1029.70 0.1047
1029.80 0.1047
1029.90 0.1047
1030.00 0.1047
1030.10 0.1047
1030.20 0.1047
1030.30 0.1046
1030.40 0.1046
1030.50 0.1046
1030.60 0.1046
1030.70 0.1046
1030.80 0.1046
1030.90 0.1046
1031.00 0.1046
1031.10 0.1045
1031.20 0.1045
1031.30 0.1045
1031.40 0.1045
1031.50 0.1045
1031.60 0.1045
1031.70 0.1045
1031.80 0.1045
1031.90 0.1044
1032.00 0.1044
1032.10 0.1044
1032.20 0.1044
1032.30 0.1044
1032.40 0.1043
1032.50 0.1043
1032.60 0.1043
1032.70 0.1043
1032.80 0.1042
1032.90 0.1042
1033.00 0.1042
1033.10 0.1042
1033.20 0.1042
1033.30 0.1041
1033.40 0.1041
1033.50 0.1041
1033.60 0.1041
1033.70 0.104
1033.80 0.104
1033.90 0.104
1034.00 0.104
1034.10 0.104
1034.20 0.1039
1034.30 0.1039
1034.40 0.1039
1034.50 0.1039
1034.60 0.1038
1034.70 0.1038
1034.80 0.1038
1034.90 0.1038
1035.00 0.1038
1035.10 0.1037
1035.20 0.1037
1035.30 0.1037
1035.40 0.1037
1035.50 0.1036
1035.60 0.1036
1035.70 0.1036
1035.80 0.1036
1035.90 0.1036
1036.00 0.1035
1036.10 0.1035
1036.20 0.1035
1036.30 0.1035
1036.40 0.1034
1036.50 0.1034
1036.60 0.1034
1036.70 0.1034
1036.80 0.1033
1036.90 0.1033
1037.00 0.1033
1037.10 0.1033
1037.20 0.1032
1037.30 0.1032
1037.40 0.1032
1037.50 0.1032
1037.60 0.1031
1037.70 0.1031
1037.80 0.1031
1037.90 0.1031
1038.00 0.103
1038.10 0.103
1038.20 0.103
1038.30 0.1029
1038.40 0.1029
1038.50 0.1029
1038.60 0.1029
1038.70 0.1028
1038.80 0.1028
1038.90 0.1028
1039.00 0.1027
1039.10 0.1027
1039.20 0.1027
1039.30 0.1027
1039.40 0.1026
1039.50 0.1026
1039.60 0.1026
1039.70 0.1026
1039.80 0.1025
1039.90 0.1025
1040.00 0.1025
1040.10 0.1024
1040.20 0.1024
1040.30 0.1024
1040.40 0.1024
1040.50 0.1023
1040.60 0.1023
1040.70 0.1023
1040.80 0.1022
1040.90 0.1022
1041.00 0.1022
1041.10 0.1022
1041.20 0.1021
1041.30 0.1021
1041.40 0.1021
1041.50 0.1021
1041.60 0.102
1041.70 0.102
1041.80 0.102
1041.90 0.1019
1042.00 0.1019
1042.10 0.1019
1042.20 0.1019
1042.30 0.1018
1042.40 0.1018
1042.50 0.1018
1042.60 0.1017
1042.70 0.1017
1042.80 0.1017
1042.90 0.1016
1043.00 0.1016
1043.10 0.1016
1043.20 0.1015
1043.30 0.1015
1043.40 0.1015
1043.50 0.1014
1043.60 0.1014
1043.70 0.1014
1043.80 0.1013
1043.90 0.1013
1044.00 0.1013
1044.10 0.1013
1044.20 0.1012
1044.30 0.1012
1044.40 0.1012
1044.50 0.1011
1044.60 0.1011
1044.70 0.1011
1044.80 0.101
1044.90 0.101
1045.00 0.101
1045.10 0.1009
1045.20 0.1009
1045.30 0.1009
1045.40 0.1008
1045.50 0.1008
1045.60 0.1008
1045.70 0.1008
1045.80 0.1007
1045.90 0.1007
1046.00 0.1007
1046.10 0.1006
1046.20 0.1006
1046.30 0.1006
1046.40 0.1005
1046.50 0.1005
1046.60 0.1005
1046.70 0.1004
1046.80 0.1004
1046.90 0.1004
1047.00 0.1003
1047.10 0.1003
1047.20 0.1003
1047.30 0.1002
1047.40 0.1002
1047.50 0.1002
1047.60 0.1001
1047.70 0.1001
1047.80 0.1001
1047.90 0.1
1048.00 0.1
1048.10 0.09998
1048.20 0.09994
1048.30 0.09991
1048.40 0.09987
1048.50 0.09984
1048.60 0.09981
1048.70 0.09977
1048.80 0.09974
1048.90 0.09971
1049.00 0.09967
1049.10 0.09964
1049.20 0.0996
1049.30 0.09957
1049.40 0.09954
1049.50 0.0995
1049.60 0.09947
1049.70 0.09944
1049.80 0.0994
1049.90 0.09937
1050.00 0.09934
1050.10 0.0993
1050.20 0.09927
1050.30 0.09924
1050.40 0.0992
1050.50 0.09917
1050.60 0.09914
1050.70 0.0991
1050.80 0.09907
1050.90 0.09903
1051.00 0.099
1051.10 0.09897
1051.20 0.09893
1051.30 0.0989
1051.40 0.09887
1051.50 0.09883
1051.60 0.0988
1051.70 0.09877
1051.80 0.09873
1051.90 0.0987
1052.00 0.09867
1052.10 0.09863
1052.20 0.09859
1052.30 0.09856
1052.40 0.09852
1052.50 0.09848
1052.60 0.09845
1052.70 0.09841
1052.80 0.09837
1052.90 0.09834
1053.00 0.0983
1053.10 0.09826
1053.20 0.09823
1053.30 0.09819
1053.40 0.09815
1053.50 0.09812
1053.60 0.09808
1053.70 0.09804
1053.80 0.09801
1053.90 0.09797
1054.00 0.09793
1054.10 0.0979
1054.20 0.09786
1054.30 0.09782
1054.40 0.09779
1054.50 0.09775
1054.60 0.09771
1054.70 0.09768
1054.80 0.09764
1054.90 0.0976
1055.00 0.09757
1055.10 0.09753
1055.20 0.09749
1055.30 0.09746
1055.40 0.09742
1055.50 0.09739
1055.60 0.09735
1055.70 0.09731
1055.80 0.09728
1055.90 0.09724
1056.00 0.0972
1056.10 0.09717
1056.20 0.09713
1056.30 0.09709
1056.40 0.09706
1056.50 0.09702
1056.60 0.09699
1056.70 0.09695
1056.80 0.09691
1056.90 0.09688
1057.00 0.09684
1057.10 0.0968
1057.20 0.09676
1057.30 0.09672
1057.40 0.09668
1057.50 0.09664
1057.60 0.0966
1057.70 0.09656
1057.80 0.09652
1057.90 0.09648
1058.00 0.09644
1058.10 0.0964
1058.20 0.09636
1058.30 0.09632
1058.40 0.09628
1058.50 0.09624
1058.60 0.0962
1058.70 0.09616
1058.80 0.09612
1058.90 0.09608
1059.00 0.09604
1059.10 0.096
1059.20 0.09596
1059.30 0.09592
1059.40 0.09588
1059.50 0.09584
1059.60 0.09581
1059.70 0.09577
1059.80 0.09573
1059.90 0.09569
1060.00 0.09565
1060.10 0.09561
1060.20 0.09557
1060.30 0.09553
1060.40 0.09549
1060.50 0.09545
1060.60 0.09541
1060.70 0.09537
1060.80 0.09533
1060.90 0.09529
1061.00 0.09525
1061.10 0.09521
1061.20 0.09517
1061.30 0.09513
1061.40 0.09509
1061.50 0.09505
1061.60 0.09501
1061.70 0.09498
1061.80 0.09494
1061.90 0.0949
1062.00 0.09486
1062.10 0.09481
1062.20 0.09477
1062.30 0.09472
1062.40 0.09468
1062.50 0.09463
1062.60 0.09459
1062.70 0.09454
1062.80 0.0945
1062.90 0.09445
1063.00 0.09441
1063.10 0.09436
1063.20 0.09432
1063.30 0.09428
1063.40 0.09423
1063.50 0.09419
1063.60 0.09414
1063.70 0.0941
1063.80 0.09405
1063.90 0.09401
1064.00 0.09396
1064.10 0.09392
1064.20 0.09387
1064.30 0.09383
1064.40 0.09378
1064.50 0.09374
1064.60 0.0937
1064.70 0.09365
1064.80 0.09361
1064.90 0.09356
1065.00 0.09352
1065.10 0.09347
1065.20 0.09343
1065.30 0.09338
1065.40 0.09334
1065.50 0.0933
1065.60 0.09325
1065.70 0.09321
1065.80 0.09316
1065.90 0.09312
1066.00 0.09307
1066.10 0.09303
1066.20 0.09299
1066.30 0.09294
1066.40 0.0929
1066.50 0.09285
1066.60 0.09281
1066.70 0.09276
1066.80 0.09272
1066.90 0.09268
1067.00 0.09263
1067.10 0.09258
1067.20 0.09252
1067.30 0.09247
1067.40 0.09242
1067.50 0.09236
1067.60 0.09231
1067.70 0.09225
1067.80 0.0922
1067.90 0.09215
1068.00 0.09209
1068.10 0.09204
1068.20 0.09199
1068.30 0.09193
1068.40 0.09188
1068.50 0.09182
1068.60 0.09177
1068.70 0.09172
1068.80 0.09166
1068.90 0.09161
1069.00 0.09156
1069.10 0.0915
1069.20 0.09145
1069.30 0.09139
1069.40 0.09134
1069.50 0.09129
1069.60 0.09123
1069.70 0.09118
1069.80 0.09113
1069.90 0.09107
1070.00 0.09102
1070.10 0.09097
1070.20 0.09091
1070.30 0.09086
1070.40 0.09081
1070.50 0.09075
1070.60 0.0907
1070.70 0.09065
1070.80 0.09059
1070.90 0.09054
1071.00 0.09049
1071.10 0.09043
1071.20 0.09038
1071.30 0.09033
1071.40 0.09027
1071.50 0.09022
1071.60 0.09017
1071.70 0.09011
1071.80 0.09006
1071.90 0.09001
1072.00 0.08995
1072.10 0.08989
1072.20 0.08983
1072.30 0.08976
1072.40 0.0897
1072.50 0.08964
1072.60 0.08958
1072.70 0.08951
1072.80 0.08945
1072.90 0.08939
1073.00 0.08932
1073.10 0.08926
1073.20 0.0892
1073.30 0.08914
1073.40 0.08907
1073.50 0.08901
1073.60 0.08893
1073.70 0.08886
1073.80 0.08879
1073.90 0.08872
1074.00 0.08865
1074.10 0.08857
1074.20 0.0885
1074.30 0.08843
1074.40 0.08836
1074.50 0.08829
1074.60 0.08821
1074.70 0.08814
1074.80 0.08807
1074.90 0.088
1075.00 0.08793
1075.10 0.08785
1075.20 0.08778
1075.30 0.08771
1075.40 0.08764
1075.50 0.08757
1075.60 0.0875
1075.70 0.08742
1075.80 0.08735
1075.90 0.08728
1076.00 0.08721
1076.10 0.08714
1076.20 0.08707
1076.30 0.08699
1076.40 0.08692
1076.50 0.08685
1076.60 0.08678
1076.70 0.08671
1076.80 0.08664
1076.90 0.08657
1077.00 0.08649
1077.10 0.08641
1077.20 0.08633
1077.30 0.08625
1077.40 0.08617
1077.50 0.08609
1077.60 0.086
1077.70 0.08591
1077.80 0.08582
1077.90 0.08573
1078.00 0.08564
1078.10 0.08555
1078.20 0.08546
1078.30 0.08537
1078.40 0.08529
1078.50 0.0852
1078.60 0.08511
1078.70 0.08502
1078.80 0.08493
1078.90 0.08484
1079.00 0.08475
1079.10 0.08466
1079.20 0.08457
1079.30 0.08449
1079.40 0.0844
1079.50 0.0843
1079.60 0.0842
1079.70 0.08409
1079.80 0.08399
1079.90 0.08389
1080.00 0.08378
1080.10 0.08368
1080.20 0.08358
1080.30 0.08347
1080.40 0.08337
1080.50 0.08327
1080.60 0.08316
1080.70 0.08306
1080.80 0.08296
1080.90 0.08285
1081.00 0.08275
1081.10 0.08264
1081.20 0.08254
1081.30 0.08244
1081.40 0.08234
1081.50 0.08223
1081.60 0.08211
1081.70 0.082
1081.80 0.08189
1081.90 0.08177
1082.00 0.08166
1082.10 0.08153
1082.20 0.08141
1082.30 0.08128
1082.40 0.08116
1082.50 0.08103
1082.60 0.08091
1082.70 0.08078
1082.80 0.08066
1082.90 0.08053
1083.00 0.08041
1083.10 0.08028
1083.20 0.08016
1083.30 0.08003
1083.40 0.07991
1083.50 0.07978
1083.60 0.07964
1083.70 0.0795
1083.80 0.07936
1083.90 0.07922
1084.00 0.07908
1084.10 0.07894
1084.20 0.0788
1084.30 0.07866
1084.40 0.07852
1084.50 0.07838
1084.60 0.07821
1084.70 0.07805
1084.80 0.07789
1084.90 0.07773
1085.00 0.07757
1085.10 0.07741
1085.20 0.07725
1085.30 0.07709
1085.40 0.07693
1085.50 0.07677
1085.60 0.07661
1085.70 0.07645
1085.80 0.07629
1085.90 0.07614
1086.00 0.07598
1086.10 0.07582
1086.20 0.07566
1086.30 0.0755
1086.40 0.07534
1086.50 0.07517
1086.60 0.07499
1086.70 0.07481
1086.80 0.07464
1086.90 0.07446
1087.00 0.07428
1087.10 0.07408
1087.20 0.07389
1087.30 0.07369
1087.40 0.0735
1087.50 0.0733
1087.60 0.07311
1087.70 0.07291
1087.80 0.07272
1087.90 0.07252
1088.00 0.07233
1088.10 0.07213
1088.20 0.07194
1088.30 0.07174
1088.40 0.07155
1088.50 0.07134
1088.60 0.07112
1088.70 0.0709
1088.80 0.07068
1088.90 0.07046
1089.00 0.07024
1089.10 0.07002
1089.20 0.0698
1089.30 0.06958
1089.40 0.06936
1089.50 0.06914
1089.60 0.06892
1089.70 0.0687
1089.80 0.06848
1089.90 0.06826
1090.00 0.06804
1090.10 0.06782
1090.20 0.0676
1090.30 0.06738
1090.40 0.06716
1090.50 0.06693
1090.60 0.06669
1090.70 0.06644
1090.80 0.06619
1090.90 0.06595
1091.00 0.0657
1091.10 0.06545
1091.20 0.06521
1091.30 0.06496
1091.40 0.06471
1091.50 0.06447
1091.60 0.06422
1091.70 0.06397
1091.80 0.06373
1091.90 0.06348
1092.00 0.06323
1092.10 0.06295
1092.20 0.06267
1092.30 0.06239
1092.40 0.06211
1092.50 0.06183
1092.60 0.06155
1092.70 0.06126
1092.80 0.06096
1092.90 0.06067
1093.00 0.06037
1093.10 0.06009
1093.20 0.05986
1093.30 0.05965
1093.40 0.05984
1093.50 0.06006
1093.60 0.05961
1093.70 0.0597
1093.80 0.05989
1093.90 0.06011
1094.00 0.06037
1094.10 0.06063
1094.20 0.0609
1094.30 0.06115
1094.40 0.06139
1094.50 0.06164
1094.60 0.06188
1094.70 0.06212
1094.80 0.06236
1094.90 0.0626
1095.00 0.06283
1095.10 0.06303
1095.20 0.06324
1095.30 0.06344
1095.40 0.06365
1095.50 0.06385
1095.60 0.06405
1095.70 0.06426
1095.80 0.06446
1095.90 0.06467
1096.00 0.06487
1096.10 0.06507
1096.20 0.06528
1096.30 0.06548
1096.40 0.06569
1096.50 0.06588
1096.60 0.06607
1096.70 0.06625
1096.80 0.06644
1096.90 0.06662
1097.00 0.0668
1097.10 0.06697
1097.20 0.06714
1097.30 0.06731
1097.40 0.06748
1097.50 0.06765
1097.60 0.06781
1097.70 0.06798
1097.80 0.06815
1097.90 0.06832
1098.00 0.06849
1098.10 0.06865
1098.20 0.06882
1098.30 0.06899
1098.40 0.06916
1098.50 0.06932
1098.60 0.06946
1098.70 0.06959
1098.80 0.06973
1098.90 0.06987
1099.00 0.07001
1099.10 0.07015
1099.20 0.07029
1099.30 0.07043
1099.40 0.07057
1099.50 0.0707
1099.60 0.07084
1099.70 0.07098
1099.80 0.07112
1099.90 0.07126
1100.00 0.0714
1100.10 0.07153
1100.20 0.07167
1100.30 0.07181
1100.40 0.07195
1100.50 0.07208
1100.60 0.07219
1100.70 0.0723
1100.80 0.0724
1100.90 0.07251
1101.00 0.07262
1101.10 0.07273
1101.20 0.07284
1101.30 0.07295
1101.40 0.07306
1101.50 0.07317
1101.60 0.07328
1101.70 0.07338
1101.80 0.07349
1101.90 0.0736
1102.00 0.07371
1102.10 0.0738
1102.20 0.07389
1102.30 0.07399
1102.40 0.07408
1102.50 0.07417
1102.60 0.07425
1102.70 0.07434
1102.80 0.07442
1102.90 0.0745
1103.00 0.07458
1103.10 0.07467
1103.20 0.07475
1103.30 0.07483
1103.40 0.07492
1103.50 0.07499
1103.60 0.07506
1103.70 0.07512
1103.80 0.07519
1103.90 0.07525
1104.00 0.07532
1104.10 0.07538
1104.20 0.07545
1104.30 0.07551
1104.40 0.07558
1104.50 0.07564
1104.60 0.07571
1104.70 0.07577
1104.80 0.07584
1104.90 0.0759
1105.00 0.07597
1105.10 0.07603
1105.20 0.0761
1105.30 0.07616
1105.40 0.07623
1105.50 0.07629
1105.60 0.07633
1105.70 0.07638
1105.80 0.07643
1105.90 0.07648
1106.00 0.07652
1106.10 0.07657
1106.20 0.07662
1106.30 0.07667
1106.40 0.07671
1106.50 0.07676
1106.60 0.07681
1106.70 0.07686
1106.80 0.0769
1106.90 0.07695
1107.00 0.077
1107.10 0.07704
1107.20 0.07708
1107.30 0.07711
1107.40 0.07715
1107.50 0.07719
1107.60 0.07722
1107.70 0.07725
1107.80 0.07728
1107.90 0.07731
1108.00 0.07734
1108.10 0.07737
1108.20 0.0774
1108.30 0.07743
1108.40 0.07746
1108.50 0.07749
1108.60 0.07752
1108.70 0.07756
1108.80 0.07759
1108.90 0.07762
1109.00 0.07765
1109.10 0.07768
1109.20 0.07771
1109.30 0.07774
1109.40 0.07777
1109.50 0.07779
1109.60 0.07781
1109.70 0.07783
1109.80 0.07785
1109.90 0.07786
1110.00 0.07788
1110.10 0.0779
1110.20 0.07792
1110.30 0.07793
1110.40 0.07795
1110.50 0.07797
1110.60 0.07799
1110.70 0.078
1110.80 0.07802
1110.90 0.07804
1111.00 0.07806
1111.10 0.07807
1111.20 0.07809
1111.30 0.07811
1111.40 0.07813
1111.50 0.07814
1111.60 0.07816
1111.70 0.07818
1111.80 0.0782
1111.90 0.07821
1112.00 0.07823
1112.10 0.07824
1112.20 0.07825
1112.30 0.07826
1112.40 0.07826
1112.50 0.07827
1112.60 0.07828
1112.70 0.07829
1112.80 0.0783
1112.90 0.0783
1113.00 0.07831
1113.10 0.07832
1113.20 0.07833
1113.30 0.07834
1113.40 0.07834
1113.50 0.07835
1113.60 0.07835
1113.70 0.07835
1113.80 0.07835
1113.90 0.07835
1114.00 0.07835
1114.10 0.07835
1114.20 0.07835
1114.30 0.07835
1114.40 0.07836
1114.50 0.07836
1114.60 0.07836
1114.70 0.07836
1114.80 0.07836
1114.90 0.07836
1115.00 0.07836
1115.10 0.07836
1115.20 0.07836
1115.30 0.07836
1115.40 0.07836
1115.50 0.07836
1115.60 0.07836
1115.70 0.07836
1115.80 0.07836
1115.90 0.07836
1116.00 0.07837
1116.10 0.07837
1116.20 0.07837
1116.30 0.07837
1116.40 0.07837
1116.50 0.07837
1116.60 0.07837
1116.70 0.07837
1116.80 0.07837
1116.90 0.07837
1117.00 0.07837
1117.10 0.07836
1117.20 0.07835
1117.30 0.07834
1117.40 0.07834
1117.50 0.07833
1117.60 0.07832
1117.70 0.07831
1117.80 0.0783
1117.90 0.07829
1118.00 0.07828
1118.10 0.07827
1118.20 0.07827
1118.30 0.07826
1118.40 0.07825
1118.50 0.07824
1118.60 0.07823
1118.70 0.07822
1118.80 0.07821
1118.90 0.07821
1119.00 0.0782
1119.10 0.07819
1119.20 0.07818
1119.30 0.07817
1119.40 0.07816
1119.50 0.07815
1119.60 0.07814
1119.70 0.07814
1119.80 0.07813
1119.90 0.07812
1120.00 0.07811
1120.10 0.0781
1120.20 0.07809
1120.30 0.07808
1120.40 0.07808
1120.50 0.07807
1120.60 0.07806
1120.70 0.07805
1120.80 0.07804
1120.90 0.07803
1121.00 0.07802
1121.10 0.07801
1121.20 0.07801
1121.30 0.078
1121.40 0.07799
1121.50 0.07798
1121.60 0.07797
1121.70 0.07796
1121.80 0.07795
1121.90 0.07795
1122.00 0.07794
1122.10 0.07792
1122.20 0.07791
1122.30 0.07789
1122.40 0.07788
1122.50 0.07786
1122.60 0.07784
1122.70 0.07783
1122.80 0.07781
1122.90 0.0778
1123.00 0.07778
1123.10 0.07777
1123.20 0.07775
1123.30 0.07774
1123.40 0.07772
1123.50 0.07771
1123.60 0.07769
1123.70 0.07768
1123.80 0.07766
1123.90 0.07765
1124.00 0.07763
1124.10 0.07762
1124.20 0.0776
1124.30 0.07758
1124.40 0.07757
1124.50 0.07755
1124.60 0.07754
1124.70 0.07752
1124.80 0.07751
1124.90 0.07749
1125.00 0.07748
1125.10 0.07746
1125.20 0.07745
1125.30 0.07743
1125.40 0.07742
1125.50 0.0774
1125.60 0.07739
1125.70 0.07737
1125.80 0.07736
1125.90 0.07734
1126.00 0.07733
1126.10 0.07731
1126.20 0.0773
1126.30 0.07728
1126.40 0.07727
1126.50 0.07725
1126.60 0.07724
1126.70 0.07722
1126.80 0.0772
1126.90 0.07719
1127.00 0.07717
1127.10 0.07716
1127.20 0.07714
1127.30 0.07712
1127.40 0.0771
1127.50 0.07708
1127.60 0.07706
1127.70 0.07705
1127.80 0.07703
1127.90 0.07701
1128.00 0.07699
1128.10 0.07697
1128.20 0.07695
1128.30 0.07694
1128.40 0.07692
1128.50 0.0769
1128.60 0.07688
1128.70 0.07686
1128.80 0.07684
1128.90 0.07683
1129.00 0.07681
1129.10 0.07679
1129.20 0.07677
1129.30 0.07675
1129.40 0.07673
1129.50 0.07672
1129.60 0.0767
1129.70 0.07668
1129.80 0.07666
1129.90 0.07664
1130.00 0.07662
1130.10 0.07661
1130.20 0.07659
1130.30 0.07657
1130.40 0.07655
1130.50 0.07653
1130.60 0.07651
1130.70 0.0765
1130.80 0.07648
1130.90 0.07646
1131.00 0.07644
1131.10 0.07642
1131.20 0.0764
1131.30 0.07639
1131.40 0.07637
1131.50 0.07635
1131.60 0.07633
1131.70 0.07631
1131.80 0.0763
1131.90 0.07628
1132.00 0.07626
1132.10 0.07624
1132.20 0.07622
1132.30 0.0762
1132.40 0.07618
1132.50 0.07616
1132.60 0.07614
1132.70 0.07612
1132.80 0.0761
1132.90 0.07608
1133.00 0.07606
1133.10 0.07603
1133.20 0.07601
1133.30 0.07599
1133.40 0.07597
1133.50 0.07595
1133.60 0.07593
1133.70 0.07591
1133.80 0.07589
1133.90 0.07587
1134.00 0.07585
1134.10 0.07583
1134.20 0.07581
1134.30 0.07579
1134.40 0.07577
1134.50 0.07575
1134.60 0.07573
1134.70 0.07571
1134.80 0.07569
1134.90 0.07567
1135.00 0.07565
1135.10 0.07563
1135.20 0.07561
1135.30 0.07559
1135.40 0.07557
1135.50 0.07555
1135.60 0.07553
1135.70 0.07551
1135.80 0.07549
1135.90 0.07547
1136.00 0.07545
1136.10 0.07543
1136.20 0.07541
1136.30 0.07539
1136.40 0.07537
1136.50 0.07535
1136.60 0.07533
1136.70 0.07531
1136.80 0.07529
1136.90 0.07527
1137.00 0.07525
1137.10 0.07522
1137.20 0.0752
1137.30 0.07518
1137.40 0.07516
1137.50 0.07514
1137.60 0.07512
1137.70 0.0751
1137.80 0.07508
1137.90 0.07506
1138.00 0.07503
1138.10 0.07501
1138.20 0.07499
1138.30 0.07497
1138.40 0.07495
1138.50 0.07493
1138.60 0.07491
1138.70 0.07489
1138.80 0.07487
1138.90 0.07484
1139.00 0.07482
1139.10 0.0748
1139.20 0.07478
1139.30 0.07476
1139.40 0.07474
1139.50 0.07472
1139.60 0.0747
1139.70 0.07468
1139.80 0.07466
1139.90 0.07463
1140.00 0.07461
1140.10 0.07459
1140.20 0.07457
1140.30 0.07455
1140.40 0.07453
1140.50 0.07451
1140.60 0.07449
1140.70 0.07447
1140.80 0.07445
1140.90 0.07443
1141.00 0.0744
1141.10 0.07438
1141.20 0.07436
1141.30 0.07434
1141.40 0.07432
1141.50 0.0743
1141.60 0.07428
1141.70 0.07426
1141.80 0.07424
1141.90 0.07422
1142.00 0.0742
1142.10 0.07417
1142.20 0.07415
1142.30 0.07413
1142.40 0.07411
1142.50 0.07409
1142.60 0.07407
1142.70 0.07404
1142.80 0.07402
1142.90 0.074
1143.00 0.07398
1143.10 0.07396
1143.20 0.07394
1143.30 0.07391
1143.40 0.07389
1143.50 0.07387
1143.60 0.07385
1143.70 0.07383
1143.80 0.07381
1143.90 0.07378
1144.00 0.07376
1144.10 0.07374
1144.20 0.07372
1144.30 0.0737
1144.40 0.07368
1144.50 0.07365
1144.60 0.07363
1144.70 0.07361
1144.80 0.07359
1144.90 0.07357
1145.00 0.07355
1145.10 0.07353
1145.20 0.0735
1145.30 0.07348
1145.40 0.07346
1145.50 0.07344
1145.60 0.07342
1145.70 0.0734
1145.80 0.07338
1145.90 0.07335
1146.00 0.07333
1146.10 0.07331
1146.20 0.07329
1146.30 0.07327
1146.40 0.07325
1146.50 0.07322
1146.60 0.0732
1146.70 0.07318
1146.80 0.07316
1146.90 0.07314
1147.00 0.07312
1147.10 0.0731
1147.20 0.07307
1147.30 0.07305
1147.40 0.07303
1147.50 0.07301
1147.60 0.07299
1147.70 0.07297
1147.80 0.07294
1147.90 0.07292
1148.00 0.0729
1148.10 0.07288
1148.20 0.07286
1148.30 0.07284
1148.40 0.07281
1148.50 0.07279
1148.60 0.07277
1148.70 0.07275
1148.80 0.07273
1148.90 0.07271
1149.00 0.07268
1149.10 0.07266
1149.20 0.07264
1149.30 0.07262
1149.40 0.0726
1149.50 0.07258
1149.60 0.07255
1149.70 0.07253
1149.80 0.07251
1149.90 0.07249
1150.00 0.07247
1150.10 0.07245
1150.20 0.07243
1150.30 0.0724
1150.40 0.07238
1150.50 0.07236
1150.60 0.07234
1150.70 0.07232
1150.80 0.0723
1150.90 0.07228
1151.00 0.07225
1151.10 0.07223
1151.20 0.07221
1151.30 0.07219
1151.40 0.07217
1151.50 0.07215
1151.60 0.07213
1151.70 0.0721
1151.80 0.07208
1151.90 0.07206
1152.00 0.07204
1152.10 0.07202
1152.20 0.072
1152.30 0.07197
1152.40 0.07195
1152.50 0.07193
1152.60 0.07191
1152.70 0.07189
1152.80 0.07187
1152.90 0.07184
1153.00 0.07182
1153.10 0.0718
1153.20 0.07178
1153.30 0.07176
1153.40 0.07174
1153.50 0.07171
1153.60 0.07169
1153.70 0.07167
1153.80 0.07165
1153.90 0.07163
1154.00 0.07161
1154.10 0.07158
1154.20 0.07156
1154.30 0.07154
1154.40 0.07152
1154.50 0.0715
1154.60 0.07148
1154.70 0.07145
1154.80 0.07143
1154.90 0.07141
1155.00 0.07139
1155.10 0.07137
1155.20 0.07135
1155.30 0.07132
1155.40 0.0713
1155.50 0.07128
1155.60 0.07126
1155.70 0.07124
1155.80 0.07122
1155.90 0.0712
1156.00 0.07117
1156.10 0.07115
1156.20 0.07113
1156.30 0.07111
1156.40 0.07109
1156.50 0.07107
1156.60 0.07105
1156.70 0.07102
1156.80 0.071
1156.90 0.07098
1157.00 0.07096
1157.10 0.07094
1157.20 0.07092
1157.30 0.07089
1157.40 0.07087
1157.50 0.07085
1157.60 0.07083
1157.70 0.07081
1157.80 0.07079
1157.90 0.07077
1158.00 0.07074
1158.10 0.07072
1158.20 0.0707
1158.30 0.07068
1158.40 0.07066
1158.50 0.07064
1158.60 0.07062
1158.70 0.07059
1158.80 0.07057
1158.90 0.07055
1159.00 0.07053
1159.10 0.07051
1159.20 0.07049
1159.30 0.07046
1159.40 0.07044
1159.50 0.07042
1159.60 0.0704
1159.70 0.07038
1159.80 0.07036
1159.90 0.07034
1160.00 0.07032
1160.10 0.07029
1160.20 0.07027
1160.30 0.07025
1160.40 0.07023
1160.50 0.07021
1160.60 0.07019
1160.70 0.07017
1160.80 0.07014
1160.90 0.07012
1161.00 0.0701
1161.10 0.07008
1161.20 0.07006
1161.30 0.07004
1161.40 0.07002
1161.50 0.07
1161.60 0.06997
1161.70 0.06995
1161.80 0.06993
1161.90 0.06991
1162.00 0.06989
1162.10 0.06987
1162.20 0.06985
1162.30 0.06982
1162.40 0.0698
1162.50 0.06978
1162.60 0.06976
1162.70 0.06974
1162.80 0.06972
1162.90 0.0697
1163.00 0.06968
1163.10 0.06965
1163.20 0.06963
1163.30 0.06961
1163.40 0.06959
1163.50 0.06957
1163.60 0.06955
1163.70 0.06953
1163.80 0.06951
1163.90 0.06949
1164.00 0.06946
1164.10 0.06944
1164.20 0.06942
1164.30 0.0694
1164.40 0.06938
1164.50 0.06936
1164.60 0.06934
1164.70 0.06932
1164.80 0.06929
1164.90 0.06927
1165.00 0.06925
1165.10 0.06923
1165.20 0.06921
1165.30 0.06919
1165.40 0.06917
1165.50 0.06915
1165.60 0.06913
1165.70 0.0691
1165.80 0.06908
1165.90 0.06906
1166.00 0.06904
1166.10 0.06902
1166.20 0.069
1166.30 0.06898
1166.40 0.06896
1166.50 0.06894
1166.60 0.06892
1166.70 0.06889
1166.80 0.06887
1166.90 0.06885
1167.00 0.06883
1167.10 0.06881
1167.20 0.06879
1167.30 0.06877
1167.40 0.06875
1167.50 0.06873
1167.60 0.06871
1167.70 0.06868
1167.80 0.06866
1167.90 0.06864
1168.00 0.06862
1168.10 0.0686
1168.20 0.06858
1168.30 0.06856
1168.40 0.06854
1168.50 0.06852
1168.60 0.0685
1168.70 0.06847
1168.80 0.06845
1168.90 0.06843
1169.00 0.06841
1169.10 0.06839
1169.20 0.06837
1169.30 0.06835
1169.40 0.06833
1169.50 0.06831
1169.60 0.06829
1169.70 0.06827
1169.80 0.06825
1169.90 0.06822
1170.00 0.0682
1170.10 0.06818
1170.20 0.06816
1170.30 0.06814
1170.40 0.06812
1170.50 0.0681
1170.60 0.06808
1170.70 0.06806
1170.80 0.06804
1170.90 0.06802
1171.00 0.068
1171.10 0.06797
1171.20 0.06795
1171.30 0.06793
1171.40 0.06791
1171.50 0.06789
1171.60 0.06787
1171.70 0.06785
1171.80 0.06783
1171.90 0.06781
1172.00 0.06779
1172.10 0.06777
1172.20 0.06775
1172.30 0.06773
1172.40 0.0677
1172.50 0.06768
1172.60 0.06766
1172.70 0.06764
1172.80 0.06762
1172.90 0.0676
1173.00 0.06758
1173.10 0.06756
1173.20 0.06754
1173.30 0.06752
1173.40 0.0675
1173.50 0.06748
1173.60 0.06746
1173.70 0.06744
1173.80 0.06741
1173.90 0.06739
1174.00 0.06737
1174.10 0.06735
1174.20 0.06733
1174.30 0.06731
1174.40 0.06729
1174.50 0.06727
1174.60 0.06725
1174.70 0.06723
1174.80 0.06721
1174.90 0.06719
1175.00 0.06717
1175.10 0.06715
1175.20 0.06713
1175.30 0.06711
1175.40 0.06709
1175.50 0.06706
1175.60 0.06704
1175.70 0.06702
1175.80 0.067
1175.90 0.06698
1176.00 0.06696
1176.10 0.06694
1176.20 0.06692
1176.30 0.0669
1176.40 0.06688
1176.50 0.06686
1176.60 0.06684
1176.70 0.06682
1176.80 0.0668
1176.90 0.06678
1177.00 0.06676
1177.10 0.06674
1177.20 0.06672
1177.30 0.0667
1177.40 0.06668
1177.50 0.06665
1177.60 0.06663
1177.70 0.06661
1177.80 0.06659
1177.90 0.06657
1178.00 0.06655
1178.10 0.06653
1178.20 0.06651
1178.30 0.06649
1178.40 0.06647
1178.50 0.06645
1178.60 0.06643
1178.70 0.06641
1178.80 0.06639
1178.90 0.06637
1179.00 0.06635
1179.10 0.06633
1179.20 0.06631
1179.30 0.06629
1179.40 0.06627
1179.50 0.06625
1179.60 0.06623
1179.70 0.06621
1179.80 0.06619
1179.90 0.06617
1180.00 0.06615
1180.10 0.06613
1180.20 0.06611
1180.30 0.06609
1180.40 0.06607
1180.50 0.06605
1180.60 0.06603
1180.70 0.06601
1180.80 0.06599
1180.90 0.06597
1181.00 0.06594
1181.10 0.06592
1181.20 0.0659
1181.30 0.06588
1181.40 0.06586
1181.50 0.06584
1181.60 0.06582
1181.70 0.0658
1181.80 0.06578
1181.90 0.06576
1182.00 0.06574
1182.10 0.06572
1182.20 0.0657
1182.30 0.06568
1182.40 0.06566
1182.50 0.06564
1182.60 0.06562
1182.70 0.0656
1182.80 0.06558
1182.90 0.06556
1183.00 0.06554
1183.10 0.06552
1183.20 0.0655
1183.30 0.06548
1183.40 0.06546
1183.50 0.06544
1183.60 0.06542
1183.70 0.0654
1183.80 0.06538
1183.90 0.06536
1184.00 0.06534
1184.10 0.06532
1184.20 0.0653
1184.30 0.06528
1184.40 0.06526
1184.50 0.06524
1184.60 0.06522
1184.70 0.0652
1184.80 0.06518
1184.90 0.06516
1185.00 0.06514
1185.10 0.06512
1185.20 0.0651
1185.30 0.06508
1185.40 0.06506
1185.50 0.06504
1185.60 0.06502
1185.70 0.065
1185.80 0.06498
1185.90 0.06496
1186.00 0.06494
1186.10 0.06492
1186.20 0.0649
1186.30 0.06488
1186.40 0.06486
1186.50 0.06484
1186.60 0.06482
1186.70 0.0648
1186.80 0.06478
1186.90 0.06476
1187.00 0.06474
1187.10 0.06472
1187.20 0.0647
1187.30 0.06468
1187.40 0.06466
1187.50 0.06464
1187.60 0.06462
1187.70 0.0646
1187.80 0.06458
1187.90 0.06456
1188.00 0.06454
1188.10 0.06452
1188.20 0.0645
1188.30 0.06448
1188.40 0.06446
1188.50 0.06444
1188.60 0.06442
1188.70 0.06441
1188.80 0.06439
1188.90 0.06437
1189.00 0.06435
1189.10 0.06433
1189.20 0.06431
1189.30 0.06429
1189.40 0.06427
1189.50 0.06425
1189.60 0.06423
1189.70 0.06421
1189.80 0.06419
1189.90 0.06417
1190.00 0.06415
1190.10 0.06413
1190.20 0.06411
1190.30 0.06409
1190.40 0.06407
1190.50 0.06405
1190.60 0.06403
1190.70 0.06401
1190.80 0.06399
1190.90 0.06397
1191.00 0.06395
1191.10 0.06393
1191.20 0.06391
1191.30 0.06389
1191.40 0.06387
1191.50 0.06385
1191.60 0.06383
1191.70 0.06381
1191.80 0.06379
1191.90 0.06378
1192.00 0.06376
1192.10 0.06374
1192.20 0.06372
1192.30 0.0637
1192.40 0.06368
1192.50 0.06366
1192.60 0.06364
1192.70 0.06362
1192.80 0.0636
1192.90 0.06358
1193.00 0.06356
1193.10 0.06354
1193.20 0.06352
1193.30 0.0635
1193.40 0.06348
1193.50 0.06346
1193.60 0.06344
1193.70 0.06342
1193.80 0.0634
1193.90 0.06339
1194.00 0.06337
1194.10 0.06335
1194.20 0.06333
1194.30 0.06331
1194.40 0.06329
1194.50 0.06327
1194.60 0.06325
1194.70 0.06323
1194.80 0.06321
1194.90 0.06319
1195.00 0.06317
1195.10 0.06315
1195.20 0.06313
1195.30 0.06311
1195.40 0.06309
1195.50 0.06307
1195.60 0.06306
1195.70 0.06304
1195.80 0.06302
1195.90 0.063
1196.00 0.06298
1196.10 0.06296
1196.20 0.06294
1196.30 0.06292
1196.40 0.0629
1196.50 0.06288
1196.60 0.06286
1196.70 0.06284
1196.80 0.06282
1196.90 0.0628
1197.00 0.06279
1197.10 0.06277
1197.20 0.06275
1197.30 0.06273
1197.40 0.06271
1197.50 0.06269
1197.60 0.06267
1197.70 0.06265
1197.80 0.06263
1197.90 0.06261
1198.00 0.06259
1198.10 0.06257
1198.20 0.06255
1198.30 0.06253
1198.40 0.06252
1198.50 0.0625
1198.60 0.06248
1198.70 0.06246
1198.80 0.06244
1198.90 0.06242
1199.00 0.0624
1199.10 0.06238
1199.20 0.06236
1199.30 0.06234
1199.40 0.06232
1199.50 0.0623
1199.60 0.06229
1199.70 0.06227
1199.80 0.06225
1199.90 0.06223
1200.00 0
