# Version 2.1 - nm, norm@500 to 1, cut digits, bergeron_6500_85.dat_6500
# Wavelength(nm)  Flambda(ergs/cm^s/s/nm)
300.00 0.8719
300.10 0.8723
300.20 0.8728
300.30 0.8732
300.40 0.8736
300.50 0.8741
300.60 0.8745
300.70 0.8749
300.80 0.8754
300.90 0.8758
301.00 0.8762
301.10 0.8766
301.20 0.8771
301.30 0.8775
301.40 0.8779
301.50 0.8783
301.60 0.8788
301.70 0.8792
301.80 0.8796
301.90 0.88
302.00 0.8805
302.10 0.8809
302.20 0.8813
302.30 0.8817
302.40 0.8821
302.50 0.8826
302.60 0.883
302.70 0.8834
302.80 0.8838
302.90 0.8842
303.00 0.8846
303.10 0.8851
303.20 0.8855
303.30 0.8859
303.40 0.8863
303.50 0.8867
303.60 0.8871
303.70 0.8875
303.80 0.888
303.90 0.8884
304.00 0.8888
304.10 0.8892
304.20 0.8896
304.30 0.89
304.40 0.8904
304.50 0.8908
304.60 0.8912
304.70 0.8917
304.80 0.8921
304.90 0.8925
305.00 0.8929
305.10 0.8933
305.20 0.8937
305.30 0.8941
305.40 0.8945
305.50 0.8949
305.60 0.8953
305.70 0.8957
305.80 0.8961
305.90 0.8965
306.00 0.8969
306.10 0.8973
306.20 0.8977
306.30 0.8981
306.40 0.8985
306.50 0.8989
306.60 0.8993
306.70 0.8997
306.80 0.9001
306.90 0.9005
307.00 0.9009
307.10 0.9013
307.20 0.9017
307.30 0.9021
307.40 0.9025
307.50 0.9029
307.60 0.9033
307.70 0.9037
307.80 0.9041
307.90 0.9045
308.00 0.9048
308.10 0.9052
308.20 0.9056
308.30 0.906
308.40 0.9064
308.50 0.9068
308.60 0.9072
308.70 0.9076
308.80 0.908
308.90 0.9084
309.00 0.9088
309.10 0.9091
309.20 0.9095
309.30 0.9099
309.40 0.9103
309.50 0.9107
309.60 0.9111
309.70 0.9114
309.80 0.9118
309.90 0.9122
310.00 0.9126
310.10 0.913
310.20 0.9134
310.30 0.9137
310.40 0.9141
310.50 0.9145
310.60 0.9149
310.70 0.9153
310.80 0.9157
310.90 0.916
311.00 0.9164
311.10 0.9168
311.20 0.9172
311.30 0.9175
311.40 0.9179
311.50 0.9183
311.60 0.9187
311.70 0.919
311.80 0.9194
311.90 0.9198
312.00 0.9202
312.10 0.9205
312.20 0.9209
312.30 0.9213
312.40 0.9216
312.50 0.922
312.60 0.9224
312.70 0.9228
312.80 0.9231
312.90 0.9235
313.00 0.9239
313.10 0.9242
313.20 0.9246
313.30 0.925
313.40 0.9253
313.50 0.9257
313.60 0.9261
313.70 0.9264
313.80 0.9268
313.90 0.9271
314.00 0.9275
314.10 0.9279
314.20 0.9282
314.30 0.9286
314.40 0.929
314.50 0.9293
314.60 0.9297
314.70 0.93
314.80 0.9304
314.90 0.9308
315.00 0.9311
315.10 0.9315
315.20 0.9318
315.30 0.9322
315.40 0.9326
315.50 0.9329
315.60 0.9333
315.70 0.9336
315.80 0.934
315.90 0.9343
316.00 0.9347
316.10 0.935
316.20 0.9354
316.30 0.9357
316.40 0.9361
316.50 0.9364
316.60 0.9368
316.70 0.9371
316.80 0.9375
316.90 0.9378
317.00 0.9382
317.10 0.9385
317.20 0.9389
317.30 0.9392
317.40 0.9396
317.50 0.9399
317.60 0.9403
317.70 0.9406
317.80 0.941
317.90 0.9413
318.00 0.9417
318.10 0.942
318.20 0.9423
318.30 0.9427
318.40 0.943
318.50 0.9434
318.60 0.9437
318.70 0.944
318.80 0.9444
318.90 0.9447
319.00 0.9451
319.10 0.9454
319.20 0.9457
319.30 0.9461
319.40 0.9464
319.50 0.9467
319.60 0.9471
319.70 0.9474
319.80 0.9477
319.90 0.9481
320.00 0.9484
320.10 0.9487
320.20 0.9491
320.30 0.9494
320.40 0.9497
320.50 0.9501
320.60 0.9504
320.70 0.9507
320.80 0.9511
320.90 0.9514
321.00 0.9517
321.10 0.9521
321.20 0.9524
321.30 0.9527
321.40 0.953
321.50 0.9534
321.60 0.9537
321.70 0.954
321.80 0.9544
321.90 0.9547
322.00 0.955
322.10 0.9553
322.20 0.9556
322.30 0.956
322.40 0.9563
322.50 0.9566
322.60 0.9569
322.70 0.9573
322.80 0.9576
322.90 0.9579
323.00 0.9582
323.10 0.9585
323.20 0.9589
323.30 0.9592
323.40 0.9595
323.50 0.9598
323.60 0.9601
323.70 0.9604
323.80 0.9608
323.90 0.9611
324.00 0.9614
324.10 0.9617
324.20 0.962
324.30 0.9623
324.40 0.9626
324.50 0.963
324.60 0.9633
324.70 0.9636
324.80 0.9639
324.90 0.9642
325.00 0.9645
325.10 0.9648
325.20 0.9651
325.30 0.9654
325.40 0.9657
325.50 0.9661
325.60 0.9664
325.70 0.9667
325.80 0.967
325.90 0.9673
326.00 0.9676
326.10 0.9679
326.20 0.9682
326.30 0.9685
326.40 0.9688
326.50 0.9691
326.60 0.9694
326.70 0.9697
326.80 0.97
326.90 0.9703
327.00 0.9706
327.10 0.9709
327.20 0.9712
327.30 0.9715
327.40 0.9718
327.50 0.9721
327.60 0.9724
327.70 0.9727
327.80 0.973
327.90 0.9733
328.00 0.9736
328.10 0.9739
328.20 0.9742
328.30 0.9745
328.40 0.9748
328.50 0.9751
328.60 0.9754
328.70 0.9757
328.80 0.9759
328.90 0.9762
329.00 0.9765
329.10 0.9768
329.20 0.9771
329.30 0.9774
329.40 0.9777
329.50 0.978
329.60 0.9783
329.70 0.9786
329.80 0.9788
329.90 0.9791
330.00 0.9794
330.10 0.9797
330.20 0.98
330.30 0.9803
330.40 0.9806
330.50 0.9808
330.60 0.9811
330.70 0.9814
330.80 0.9817
330.90 0.982
331.00 0.9823
331.10 0.9825
331.20 0.9828
331.30 0.9831
331.40 0.9834
331.50 0.9837
331.60 0.9839
331.70 0.9842
331.80 0.9845
331.90 0.9848
332.00 0.985
332.10 0.9853
332.20 0.9856
332.30 0.9859
332.40 0.9861
332.50 0.9864
332.60 0.9867
332.70 0.987
332.80 0.9872
332.90 0.9875
333.00 0.9878
333.10 0.9881
333.20 0.9883
333.30 0.9886
333.40 0.9889
333.50 0.9891
333.60 0.9894
333.70 0.9897
333.80 0.99
333.90 0.9902
334.00 0.9905
334.10 0.9908
334.20 0.991
334.30 0.9913
334.40 0.9916
334.50 0.9918
334.60 0.9921
334.70 0.9924
334.80 0.9926
334.90 0.9929
335.00 0.9931
335.10 0.9934
335.20 0.9937
335.30 0.9939
335.40 0.9942
335.50 0.9944
335.60 0.9947
335.70 0.995
335.80 0.9952
335.90 0.9955
336.00 0.9957
336.10 0.996
336.20 0.9963
336.30 0.9965
336.40 0.9968
336.50 0.997
336.60 0.9973
336.70 0.9975
336.80 0.9978
336.90 0.9981
337.00 0.9983
337.10 0.9986
337.20 0.9988
337.30 0.9991
337.40 0.9993
337.50 0.9996
337.60 0.9998
337.70 1
337.80 1
337.90 1.001
338.00 1.001
338.10 1.001
338.20 1.001
338.30 1.002
338.40 1.002
338.50 1.002
338.60 1.002
338.70 1.003
338.80 1.003
338.90 1.003
339.00 1.003
339.10 1.004
339.20 1.004
339.30 1.004
339.40 1.004
339.50 1.005
339.60 1.005
339.70 1.005
339.80 1.005
339.90 1.005
340.00 1.006
340.10 1.006
340.20 1.006
340.30 1.006
340.40 1.007
340.50 1.007
340.60 1.007
340.70 1.007
340.80 1.008
340.90 1.008
341.00 1.008
341.10 1.008
341.20 1.009
341.30 1.009
341.40 1.009
341.50 1.009
341.60 1.01
341.70 1.01
341.80 1.01
341.90 1.01
342.00 1.01
342.10 1.011
342.20 1.011
342.30 1.011
342.40 1.011
342.50 1.012
342.60 1.012
342.70 1.012
342.80 1.012
342.90 1.012
343.00 1.013
343.10 1.013
343.20 1.013
343.30 1.013
343.40 1.014
343.50 1.014
343.60 1.014
343.70 1.014
343.80 1.015
343.90 1.015
344.00 1.015
344.10 1.015
344.20 1.015
344.30 1.016
344.40 1.016
344.50 1.016
344.60 1.016
344.70 1.017
344.80 1.017
344.90 1.017
345.00 1.017
345.10 1.017
345.20 1.018
345.30 1.018
345.40 1.018
345.50 1.018
345.60 1.018
345.70 1.019
345.80 1.019
345.90 1.019
346.00 1.019
346.10 1.02
346.20 1.02
346.30 1.02
346.40 1.02
346.50 1.02
346.60 1.021
346.70 1.021
346.80 1.021
346.90 1.021
347.00 1.021
347.10 1.022
347.20 1.022
347.30 1.022
347.40 1.022
347.50 1.022
347.60 1.023
347.70 1.023
347.80 1.023
347.90 1.023
348.00 1.023
348.10 1.024
348.20 1.024
348.30 1.024
348.40 1.024
348.50 1.025
348.60 1.025
348.70 1.025
348.80 1.025
348.90 1.025
349.00 1.026
349.10 1.026
349.20 1.026
349.30 1.026
349.40 1.026
349.50 1.027
349.60 1.027
349.70 1.027
349.80 1.027
349.90 1.027
350.00 1.027
350.10 1.028
350.20 1.028
350.30 1.028
350.40 1.028
350.50 1.028
350.60 1.029
350.70 1.029
350.80 1.029
350.90 1.029
351.00 1.029
351.10 1.03
351.20 1.03
351.30 1.03
351.40 1.03
351.50 1.03
351.60 1.031
351.70 1.031
351.80 1.031
351.90 1.031
352.00 1.031
352.10 1.032
352.20 1.032
352.30 1.032
352.40 1.032
352.50 1.032
352.60 1.032
352.70 1.033
352.80 1.033
352.90 1.033
353.00 1.033
353.10 1.033
353.20 1.034
353.30 1.034
353.40 1.034
353.50 1.034
353.60 1.034
353.70 1.034
353.80 1.035
353.90 1.035
354.00 1.035
354.10 1.035
354.20 1.035
354.30 1.036
354.40 1.036
354.50 1.036
354.60 1.036
354.70 1.036
354.80 1.036
354.90 1.037
355.00 1.037
355.10 1.037
355.20 1.037
355.30 1.037
355.40 1.037
355.50 1.038
355.60 1.038
355.70 1.038
355.80 1.038
355.90 1.038
356.00 1.038
356.10 1.039
356.20 1.039
356.30 1.039
356.40 1.039
356.50 1.039
356.60 1.039
356.70 1.04
356.80 1.04
356.90 1.04
357.00 1.04
357.10 1.04
357.20 1.04
357.30 1.041
357.40 1.041
357.50 1.041
357.60 1.041
357.70 1.041
357.80 1.041
357.90 1.042
358.00 1.042
358.10 1.042
358.20 1.042
358.30 1.042
358.40 1.042
358.50 1.043
358.60 1.043
358.70 1.043
358.80 1.043
358.90 1.043
359.00 1.043
359.10 1.044
359.20 1.044
359.30 1.044
359.40 1.044
359.50 1.044
359.60 1.044
359.70 1.045
359.80 1.045
359.90 1.045
360.00 1.045
360.10 1.045
360.20 1.045
360.30 1.045
360.40 1.046
360.50 1.046
360.60 1.046
360.70 1.046
360.80 1.046
360.90 1.046
361.00 1.047
361.10 1.047
361.20 1.047
361.30 1.047
361.40 1.047
361.50 1.047
361.60 1.047
361.70 1.048
361.80 1.048
361.90 1.048
362.00 1.048
362.10 1.048
362.20 1.048
362.30 1.048
362.40 1.049
362.50 1.049
362.60 1.049
362.70 1.049
362.80 1.049
362.90 1.049
363.00 1.049
363.10 1.05
363.20 1.05
363.30 1.05
363.40 1.05
363.50 1.05
363.60 1.05
363.70 1.05
363.80 1.051
363.90 1.051
364.00 1.051
364.10 1.051
364.20 1.051
364.30 1.051
364.40 1.051
364.50 1.051
364.60 1.052
364.70 1.052
364.80 1.052
364.90 1.052
365.00 1.052
365.10 1.052
365.20 1.052
365.30 1.053
365.40 1.053
365.50 1.053
365.60 1.053
365.70 1.053
365.80 1.053
365.90 1.053
366.00 1.053
366.10 1.054
366.20 1.054
366.30 1.054
366.40 1.054
366.50 1.054
366.60 1.054
366.70 1.054
366.80 1.054
366.90 1.055
367.00 1.055
367.10 1.055
367.20 1.055
367.30 1.055
367.40 1.055
367.50 1.055
367.60 1.055
367.70 1.056
367.80 1.056
367.90 1.056
368.00 1.056
368.10 1.056
368.20 1.056
368.30 1.056
368.40 1.056
368.50 1.057
368.60 1.057
368.70 1.057
368.80 1.057
368.90 1.057
369.00 1.057
369.10 1.057
369.20 1.057
369.30 1.058
369.40 1.058
369.50 1.058
369.60 1.058
369.70 1.058
369.80 1.058
369.90 1.058
370.00 1.058
370.10 1.058
370.20 1.059
370.30 1.059
370.40 1.059
370.50 1.059
370.60 1.059
370.70 1.059
370.80 1.059
370.90 1.059
371.00 1.059
371.10 1.06
371.20 1.06
371.30 1.06
371.40 1.06
371.50 1.06
371.60 1.06
371.70 1.06
371.80 1.06
371.90 1.061
372.00 1.061
372.10 1.061
372.20 1.061
372.30 1.061
372.40 1.061
372.50 1.061
372.60 1.061
372.70 1.061
372.80 1.061
372.90 1.062
373.00 1.062
373.10 1.062
373.20 1.062
373.30 1.062
373.40 1.062
373.50 1.062
373.60 1.062
373.70 1.062
373.80 1.063
373.90 1.063
374.00 1.063
374.10 1.063
374.20 1.063
374.30 1.063
374.40 1.063
374.50 1.063
374.60 1.063
374.70 1.063
374.80 1.064
374.90 1.064
375.00 1.064
375.10 1.064
375.20 1.064
375.30 1.064
375.40 1.064
375.50 1.064
375.60 1.064
375.70 1.064
375.80 1.064
375.90 1.065
376.00 1.065
376.10 1.065
376.20 1.065
376.30 1.065
376.40 1.065
376.50 1.065
376.60 1.065
376.70 1.065
376.80 1.065
376.90 1.066
377.00 1.066
377.10 1.066
377.20 1.066
377.30 1.066
377.40 1.066
377.50 1.066
377.60 1.066
377.70 1.066
377.80 1.066
377.90 1.066
378.00 1.067
378.10 1.067
378.20 1.067
378.30 1.067
378.40 1.067
378.50 1.067
378.60 1.067
378.70 1.067
378.80 1.067
378.90 1.067
379.00 1.067
379.10 1.067
379.20 1.067
379.30 1.067
379.40 1.067
379.50 1.067
379.60 1.067
379.70 1.068
379.80 1.068
379.90 1.068
380.00 1.068
380.10 1.068
380.20 1.068
380.30 1.068
380.40 1.068
380.50 1.069
380.60 1.069
380.70 1.069
380.80 1.069
380.90 1.069
381.00 1.069
381.10 1.07
381.20 1.07
381.30 1.07
381.40 1.07
381.50 1.07
381.60 1.07
381.70 1.07
381.80 1.07
381.90 1.07
382.00 1.07
382.10 1.07
382.20 1.07
382.30 1.07
382.40 1.07
382.50 1.07
382.60 1.07
382.70 1.07
382.80 1.069
382.90 1.069
383.00 1.069
383.10 1.069
383.20 1.069
383.30 1.068
383.40 1.067
383.50 1.064
383.60 1.065
383.70 1.068
383.80 1.069
383.90 1.07
384.00 1.07
384.10 1.071
384.20 1.071
384.30 1.072
384.40 1.072
384.50 1.072
384.60 1.073
384.70 1.073
384.80 1.073
384.90 1.073
385.00 1.074
385.10 1.074
385.20 1.074
385.30 1.074
385.40 1.074
385.50 1.074
385.60 1.075
385.70 1.075
385.80 1.075
385.90 1.075
386.00 1.075
386.10 1.075
386.20 1.075
386.30 1.075
386.40 1.075
386.50 1.075
386.60 1.075
386.70 1.075
386.80 1.075
386.90 1.075
387.00 1.075
387.10 1.075
387.20 1.075
387.30 1.075
387.40 1.075
387.50 1.075
387.60 1.075
387.70 1.074
387.80 1.074
387.90 1.073
388.00 1.073
388.10 1.072
388.20 1.071
388.30 1.07
388.40 1.068
388.50 1.066
388.60 1.064
388.70 1.061
388.80 1.056
388.90 1.049
389.00 1.056
389.10 1.061
389.20 1.065
389.30 1.067
389.40 1.069
389.50 1.071
389.60 1.072
389.70 1.073
389.80 1.075
389.90 1.075
390.00 1.076
390.10 1.077
390.20 1.077
390.30 1.078
390.40 1.078
390.50 1.078
390.60 1.079
390.70 1.079
390.80 1.079
390.90 1.079
391.00 1.08
391.10 1.08
391.20 1.08
391.30 1.08
391.40 1.08
391.50 1.08
391.60 1.081
391.70 1.081
391.80 1.081
391.90 1.081
392.00 1.081
392.10 1.081
392.20 1.081
392.30 1.081
392.40 1.081
392.50 1.081
392.60 1.081
392.70 1.082
392.80 1.082
392.90 1.082
393.00 1.082
393.10 1.082
393.20 1.082
393.30 1.082
393.40 1.082
393.50 1.082
393.60 1.082
393.70 1.082
393.80 1.082
393.90 1.082
394.00 1.082
394.10 1.082
394.20 1.082
394.30 1.082
394.40 1.082
394.50 1.082
394.60 1.082
394.70 1.082
394.80 1.081
394.90 1.081
395.00 1.081
395.10 1.081
395.20 1.08
395.30 1.08
395.40 1.08
395.50 1.079
395.60 1.079
395.70 1.078
395.80 1.077
395.90 1.076
396.00 1.074
396.10 1.073
396.20 1.07
396.30 1.068
396.40 1.065
396.50 1.06
396.60 1.055
396.70 1.049
396.80 1.04
396.90 1.027
397.00 1.01
397.10 1.026
397.20 1.039
397.30 1.048
397.40 1.054
397.50 1.06
397.60 1.065
397.70 1.068
397.80 1.071
397.90 1.074
398.00 1.075
398.10 1.077
398.20 1.078
398.30 1.079
398.40 1.08
398.50 1.081
398.60 1.081
398.70 1.082
398.80 1.082
398.90 1.083
399.00 1.083
399.10 1.083
399.20 1.084
399.30 1.084
399.40 1.084
399.50 1.084
399.60 1.085
399.70 1.085
399.80 1.085
399.90 1.085
400.00 1.085
400.10 1.085
400.20 1.085
400.30 1.086
400.40 1.086
400.50 1.086
400.60 1.086
400.70 1.086
400.80 1.086
400.90 1.086
401.00 1.086
401.10 1.086
401.20 1.086
401.30 1.086
401.40 1.086
401.50 1.086
401.60 1.086
401.70 1.087
401.80 1.087
401.90 1.087
402.00 1.087
402.10 1.087
402.20 1.087
402.30 1.087
402.40 1.087
402.50 1.087
402.60 1.087
402.70 1.087
402.80 1.087
402.90 1.087
403.00 1.087
403.10 1.087
403.20 1.087
403.30 1.087
403.40 1.087
403.50 1.087
403.60 1.087
403.70 1.087
403.80 1.087
403.90 1.087
404.00 1.087
404.10 1.087
404.20 1.087
404.30 1.087
404.40 1.087
404.50 1.087
404.60 1.087
404.70 1.087
404.80 1.087
404.90 1.087
405.00 1.087
405.10 1.087
405.20 1.087
405.30 1.087
405.40 1.087
405.50 1.087
405.60 1.087
405.70 1.087
405.80 1.087
405.90 1.087
406.00 1.087
406.10 1.087
406.20 1.087
406.30 1.087
406.40 1.087
406.50 1.087
406.60 1.087
406.70 1.086
406.80 1.086
406.90 1.086
407.00 1.086
407.10 1.086
407.20 1.086
407.30 1.086
407.40 1.086
407.50 1.085
407.60 1.085
407.70 1.085
407.80 1.085
407.90 1.084
408.00 1.084
408.10 1.083
408.20 1.083
408.30 1.082
408.40 1.082
408.50 1.081
408.60 1.08
408.70 1.079
408.80 1.077
408.90 1.076
409.00 1.074
409.10 1.072
409.20 1.069
409.30 1.065
409.40 1.06
409.50 1.054
409.60 1.047
409.70 1.037
409.80 1.023
409.90 1.007
410.00 0.9838
410.10 0.9597
410.20 0.9348
410.30 0.9693
410.40 0.9968
410.50 1.017
410.60 1.031
410.70 1.043
410.80 1.052
410.90 1.058
411.00 1.063
411.10 1.068
411.20 1.071
411.30 1.073
411.40 1.075
411.50 1.077
411.60 1.078
411.70 1.08
411.80 1.08
411.90 1.081
412.00 1.082
412.10 1.083
412.20 1.083
412.30 1.084
412.40 1.084
412.50 1.084
412.60 1.085
412.70 1.085
412.80 1.085
412.90 1.085
413.00 1.086
413.10 1.086
413.20 1.086
413.30 1.086
413.40 1.086
413.50 1.086
413.60 1.086
413.70 1.086
413.80 1.087
413.90 1.087
414.00 1.087
414.10 1.087
414.20 1.087
414.30 1.087
414.40 1.087
414.50 1.087
414.60 1.087
414.70 1.087
414.80 1.087
414.90 1.087
415.00 1.087
415.10 1.087
415.20 1.087
415.30 1.087
415.40 1.087
415.50 1.087
415.60 1.087
415.70 1.087
415.80 1.087
415.90 1.087
416.00 1.087
416.10 1.087
416.20 1.087
416.30 1.087
416.40 1.087
416.50 1.087
416.60 1.087
416.70 1.087
416.80 1.087
416.90 1.087
417.00 1.087
417.10 1.087
417.20 1.087
417.30 1.087
417.40 1.087
417.50 1.087
417.60 1.087
417.70 1.087
417.80 1.087
417.90 1.087
418.00 1.087
418.10 1.087
418.20 1.087
418.30 1.087
418.40 1.087
418.50 1.087
418.60 1.087
418.70 1.087
418.80 1.087
418.90 1.087
419.00 1.087
419.10 1.087
419.20 1.087
419.30 1.086
419.40 1.086
419.50 1.086
419.60 1.086
419.70 1.086
419.80 1.086
419.90 1.086
420.00 1.086
420.10 1.086
420.20 1.086
420.30 1.086
420.40 1.086
420.50 1.086
420.60 1.086
420.70 1.086
420.80 1.086
420.90 1.086
421.00 1.086
421.10 1.086
421.20 1.086
421.30 1.086
421.40 1.086
421.50 1.086
421.60 1.086
421.70 1.086
421.80 1.086
421.90 1.086
422.00 1.086
422.10 1.086
422.20 1.086
422.30 1.085
422.40 1.085
422.50 1.085
422.60 1.085
422.70 1.085
422.80 1.085
422.90 1.085
423.00 1.085
423.10 1.085
423.20 1.085
423.30 1.085
423.40 1.085
423.50 1.085
423.60 1.085
423.70 1.085
423.80 1.085
423.90 1.085
424.00 1.085
424.10 1.085
424.20 1.085
424.30 1.085
424.40 1.085
424.50 1.084
424.60 1.084
424.70 1.084
424.80 1.084
424.90 1.084
425.00 1.084
425.10 1.084
425.20 1.084
425.30 1.084
425.40 1.084
425.50 1.084
425.60 1.084
425.70 1.084
425.80 1.084
425.90 1.084
426.00 1.084
426.10 1.084
426.20 1.084
426.30 1.083
426.40 1.083
426.50 1.083
426.60 1.083
426.70 1.083
426.80 1.083
426.90 1.083
427.00 1.083
427.10 1.083
427.20 1.083
427.30 1.083
427.40 1.083
427.50 1.083
427.60 1.083
427.70 1.082
427.80 1.082
427.90 1.082
428.00 1.082
428.10 1.082
428.20 1.082
428.30 1.082
428.40 1.082
428.50 1.082
428.60 1.082
428.70 1.082
428.80 1.082
428.90 1.081
429.00 1.081
429.10 1.081
429.20 1.081
429.30 1.081
429.40 1.081
429.50 1.081
429.60 1.081
429.70 1.08
429.80 1.08
429.90 1.08
430.00 1.08
430.10 1.08
430.20 1.08
430.30 1.08
430.40 1.079
430.50 1.079
430.60 1.079
430.70 1.079
430.80 1.078
430.90 1.078
431.00 1.078
431.10 1.078
431.20 1.077
431.30 1.077
431.40 1.076
431.50 1.076
431.60 1.076
431.70 1.075
431.80 1.074
431.90 1.074
432.00 1.073
432.10 1.072
432.20 1.071
432.30 1.07
432.40 1.068
432.50 1.067
432.60 1.065
432.70 1.063
432.80 1.06
432.90 1.056
433.00 1.052
433.10 1.047
433.20 1.041
433.30 1.033
433.40 1.022
433.50 1.008
433.60 0.9902
433.70 0.9621
433.80 0.9256
433.90 0.8805
434.00 0.7989
434.10 0.8005
434.20 0.8851
434.30 0.929
434.40 0.9645
434.50 0.9917
434.60 1.009
434.70 1.023
434.80 1.033
434.90 1.041
435.00 1.047
435.10 1.052
435.20 1.055
435.30 1.059
435.40 1.061
435.50 1.063
435.60 1.065
435.70 1.067
435.80 1.068
435.90 1.069
436.00 1.07
436.10 1.07
436.20 1.071
436.30 1.072
436.40 1.072
436.50 1.072
436.60 1.073
436.70 1.073
436.80 1.073
436.90 1.074
437.00 1.074
437.10 1.074
437.20 1.074
437.30 1.074
437.40 1.074
437.50 1.074
437.60 1.075
437.70 1.075
437.80 1.075
437.90 1.075
438.00 1.075
438.10 1.075
438.20 1.075
438.30 1.075
438.40 1.075
438.50 1.075
438.60 1.075
438.70 1.075
438.80 1.075
438.90 1.075
439.00 1.075
439.10 1.075
439.20 1.075
439.30 1.075
439.40 1.075
439.50 1.075
439.60 1.075
439.70 1.074
439.80 1.074
439.90 1.074
440.00 1.074
440.10 1.074
440.20 1.074
440.30 1.074
440.40 1.074
440.50 1.074
440.60 1.074
440.70 1.074
440.80 1.074
440.90 1.074
441.00 1.074
441.10 1.074
441.20 1.074
441.30 1.074
441.40 1.074
441.50 1.073
441.60 1.073
441.70 1.073
441.80 1.073
441.90 1.073
442.00 1.073
442.10 1.073
442.20 1.073
442.30 1.073
442.40 1.073
442.50 1.073
442.60 1.073
442.70 1.073
442.80 1.073
442.90 1.072
443.00 1.072
443.10 1.072
443.20 1.072
443.30 1.072
443.40 1.072
443.50 1.072
443.60 1.072
443.70 1.072
443.80 1.072
443.90 1.072
444.00 1.072
444.10 1.072
444.20 1.071
444.30 1.071
444.40 1.071
444.50 1.071
444.60 1.071
444.70 1.071
444.80 1.071
444.90 1.071
445.00 1.071
445.10 1.071
445.20 1.071
445.30 1.071
445.40 1.07
445.50 1.07
445.60 1.07
445.70 1.07
445.80 1.07
445.90 1.07
446.00 1.07
446.10 1.07
446.20 1.07
446.30 1.07
446.40 1.07
446.50 1.069
446.60 1.069
446.70 1.069
446.80 1.069
446.90 1.069
447.00 1.069
447.10 1.069
447.20 1.069
447.30 1.069
447.40 1.069
447.50 1.069
447.60 1.068
447.70 1.068
447.80 1.068
447.90 1.068
448.00 1.068
448.10 1.068
448.20 1.068
448.30 1.068
448.40 1.068
448.50 1.068
448.60 1.068
448.70 1.067
448.80 1.067
448.90 1.067
449.00 1.067
449.10 1.067
449.20 1.067
449.30 1.067
449.40 1.067
449.50 1.067
449.60 1.067
449.70 1.067
449.80 1.066
449.90 1.066
450.00 1.066
450.10 1.066
450.20 1.066
450.30 1.066
450.40 1.066
450.50 1.066
450.60 1.066
450.70 1.066
450.80 1.065
450.90 1.065
451.00 1.065
451.10 1.065
451.20 1.065
451.30 1.065
451.40 1.065
451.50 1.065
451.60 1.065
451.70 1.065
451.80 1.064
451.90 1.064
452.00 1.064
452.10 1.064
452.20 1.064
452.30 1.064
452.40 1.064
452.50 1.064
452.60 1.064
452.70 1.064
452.80 1.063
452.90 1.063
453.00 1.063
453.10 1.063
453.20 1.063
453.30 1.063
453.40 1.063
453.50 1.063
453.60 1.063
453.70 1.063
453.80 1.062
453.90 1.062
454.00 1.062
454.10 1.062
454.20 1.062
454.30 1.062
454.40 1.062
454.50 1.062
454.60 1.062
454.70 1.061
454.80 1.061
454.90 1.061
455.00 1.061
455.10 1.061
455.20 1.061
455.30 1.061
455.40 1.061
455.50 1.061
455.60 1.06
455.70 1.06
455.80 1.06
455.90 1.06
456.00 1.06
456.10 1.06
456.20 1.06
456.30 1.06
456.40 1.06
456.50 1.06
456.60 1.059
456.70 1.059
456.80 1.059
456.90 1.059
457.00 1.059
457.10 1.059
457.20 1.059
457.30 1.059
457.40 1.059
457.50 1.058
457.60 1.058
457.70 1.058
457.80 1.058
457.90 1.058
458.00 1.058
458.10 1.058
458.20 1.058
458.30 1.058
458.40 1.057
458.50 1.057
458.60 1.057
458.70 1.057
458.80 1.057
458.90 1.057
459.00 1.057
459.10 1.057
459.20 1.057
459.30 1.056
459.40 1.056
459.50 1.056
459.60 1.056
459.70 1.056
459.80 1.056
459.90 1.056
460.00 1.056
460.10 1.056
460.20 1.055
460.30 1.055
460.40 1.055
460.50 1.055
460.60 1.055
460.70 1.055
460.80 1.055
460.90 1.055
461.00 1.054
461.10 1.054
461.20 1.054
461.30 1.054
461.40 1.054
461.50 1.054
461.60 1.054
461.70 1.054
461.80 1.054
461.90 1.053
462.00 1.053
462.10 1.053
462.20 1.053
462.30 1.053
462.40 1.053
462.50 1.053
462.60 1.053
462.70 1.052
462.80 1.052
462.90 1.052
463.00 1.052
463.10 1.052
463.20 1.052
463.30 1.052
463.40 1.052
463.50 1.052
463.60 1.051
463.70 1.051
463.80 1.051
463.90 1.051
464.00 1.051
464.10 1.051
464.20 1.051
464.30 1.051
464.40 1.05
464.50 1.05
464.60 1.05
464.70 1.05
464.80 1.05
464.90 1.05
465.00 1.05
465.10 1.05
465.20 1.049
465.30 1.049
465.40 1.049
465.50 1.049
465.60 1.049
465.70 1.049
465.80 1.049
465.90 1.049
466.00 1.048
466.10 1.048
466.20 1.048
466.30 1.048
466.40 1.048
466.50 1.048
466.60 1.048
466.70 1.048
466.80 1.047
466.90 1.047
467.00 1.047
467.10 1.047
467.20 1.047
467.30 1.047
467.40 1.047
467.50 1.047
467.60 1.046
467.70 1.046
467.80 1.046
467.90 1.046
468.00 1.046
468.10 1.046
468.20 1.046
468.30 1.046
468.40 1.045
468.50 1.045
468.60 1.045
468.70 1.045
468.80 1.045
468.90 1.045
469.00 1.045
469.10 1.045
469.20 1.044
469.30 1.044
469.40 1.044
469.50 1.044
469.60 1.044
469.70 1.044
469.80 1.044
469.90 1.044
470.00 1.043
470.10 1.043
470.20 1.043
470.30 1.043
470.40 1.043
470.50 1.043
470.60 1.043
470.70 1.042
470.80 1.042
470.90 1.042
471.00 1.042
471.10 1.042
471.20 1.042
471.30 1.042
471.40 1.042
471.50 1.041
471.60 1.041
471.70 1.041
471.80 1.041
471.90 1.041
472.00 1.041
472.10 1.041
472.20 1.04
472.30 1.04
472.40 1.04
472.50 1.04
472.60 1.04
472.70 1.04
472.80 1.04
472.90 1.039
473.00 1.039
473.10 1.039
473.20 1.039
473.30 1.039
473.40 1.039
473.50 1.039
473.60 1.039
473.70 1.038
473.80 1.038
473.90 1.038
474.00 1.038
474.10 1.038
474.20 1.038
474.30 1.038
474.40 1.037
474.50 1.037
474.60 1.037
474.70 1.037
474.80 1.037
474.90 1.037
475.00 1.037
475.10 1.036
475.20 1.036
475.30 1.036
475.40 1.036
475.50 1.036
475.60 1.036
475.70 1.036
475.80 1.035
475.90 1.035
476.00 1.035
476.10 1.035
476.20 1.035
476.30 1.035
476.40 1.034
476.50 1.034
476.60 1.034
476.70 1.034
476.80 1.034
476.90 1.034
477.00 1.034
477.10 1.033
477.20 1.033
477.30 1.033
477.40 1.033
477.50 1.033
477.60 1.033
477.70 1.032
477.80 1.032
477.90 1.032
478.00 1.032
478.10 1.032
478.20 1.032
478.30 1.031
478.40 1.031
478.50 1.031
478.60 1.031
478.70 1.031
478.80 1.031
478.90 1.03
479.00 1.03
479.10 1.03
479.20 1.03
479.30 1.03
479.40 1.03
479.50 1.029
479.60 1.029
479.70 1.029
479.80 1.029
479.90 1.029
480.00 1.028
480.10 1.028
480.20 1.028
480.30 1.028
480.40 1.028
480.50 1.027
480.60 1.027
480.70 1.027
480.80 1.027
480.90 1.026
481.00 1.026
481.10 1.026
481.20 1.026
481.30 1.025
481.40 1.025
481.50 1.025
481.60 1.025
481.70 1.024
481.80 1.024
481.90 1.024
482.00 1.023
482.10 1.023
482.20 1.023
482.30 1.022
482.40 1.022
482.50 1.021
482.60 1.021
482.70 1.02
482.80 1.02
482.90 1.019
483.00 1.019
483.10 1.019
483.20 1.018
483.30 1.017
483.40 1.016
483.50 1.015
483.60 1.014
483.70 1.013
483.80 1.012
483.90 1.011
484.00 1.01
484.10 1.009
484.20 1.007
484.30 1.004
484.40 1.002
484.50 0.9999
484.60 0.9976
484.70 0.9934
484.80 0.9884
484.90 0.9833
485.00 0.9783
485.10 0.9732
485.20 0.9651
485.30 0.9555
485.40 0.9421
485.50 0.9268
485.60 0.9044
485.70 0.8785
485.80 0.8375
485.90 0.7893
486.00 0.7203
486.10 0.5929
486.20 0.6494
486.30 0.7486
486.40 0.8047
486.50 0.8535
486.60 0.8866
486.70 0.9123
486.80 0.9307
486.90 0.9457
487.00 0.9569
487.10 0.9662
487.20 0.9724
487.30 0.9772
487.40 0.9819
487.50 0.9867
487.60 0.9914
487.70 0.9943
487.80 0.9963
487.90 0.9983
488.00 1
488.10 1.002
488.20 1.003
488.30 1.004
488.40 1.005
488.50 1.005
488.60 1.006
488.70 1.007
488.80 1.008
488.90 1.008
489.00 1.009
489.10 1.01
489.20 1.01
489.30 1.01
489.40 1.01
489.50 1.011
489.60 1.011
489.70 1.011
489.80 1.011
489.90 1.011
490.00 1.011
490.10 1.012
490.20 1.012
490.30 1.012
490.40 1.012
490.50 1.012
490.60 1.012
490.70 1.012
490.80 1.012
490.90 1.012
491.00 1.012
491.10 1.012
491.20 1.011
491.30 1.011
491.40 1.011
491.50 1.011
491.60 1.011
491.70 1.011
491.80 1.011
491.90 1.011
492.00 1.011
492.10 1.011
492.20 1.011
492.30 1.011
492.40 1.011
492.50 1.01
492.60 1.01
492.70 1.01
492.80 1.01
492.90 1.01
493.00 1.01
493.10 1.01
493.20 1.01
493.30 1.01
493.40 1.009
493.50 1.009
493.60 1.009
493.70 1.009
493.80 1.009
493.90 1.009
494.00 1.009
494.10 1.009
494.20 1.008
494.30 1.008
494.40 1.008
494.50 1.008
494.60 1.008
494.70 1.008
494.80 1.008
494.90 1.007
495.00 1.007
495.10 1.007
495.20 1.007
495.30 1.007
495.40 1.007
495.50 1.007
495.60 1.007
495.70 1.006
495.80 1.006
495.90 1.006
496.00 1.006
496.10 1.006
496.20 1.006
496.30 1.006
496.40 1.005
496.50 1.005
496.60 1.005
496.70 1.005
496.80 1.005
496.90 1.005
497.00 1.005
497.10 1.004
497.20 1.004
497.30 1.004
497.40 1.004
497.50 1.004
497.60 1.004
497.70 1.003
497.80 1.003
497.90 1.003
498.00 1.003
498.10 1.003
498.20 1.003
498.30 1.003
498.40 1.002
498.50 1.002
498.60 1.002
498.70 1.002
498.80 1.002
498.90 1.002
499.00 1.002
499.10 1.001
499.20 1.001
499.30 1.001
499.40 1.001
499.50 1.001
499.60 1.001
499.70 1
499.80 1
499.90 1
500.00 1
500.10 0.9998
500.20 0.9997
500.30 0.9995
500.40 0.9994
500.50 0.9992
500.60 0.9991
500.70 0.9989
500.80 0.9988
500.90 0.9986
501.00 0.9985
501.10 0.9983
501.20 0.9981
501.30 0.998
501.40 0.9978
501.50 0.9977
501.60 0.9975
501.70 0.9974
501.80 0.9972
501.90 0.997
502.00 0.9969
502.10 0.9967
502.20 0.9966
502.30 0.9964
502.40 0.9963
502.50 0.9961
502.60 0.9959
502.70 0.9958
502.80 0.9956
502.90 0.9955
503.00 0.9953
503.10 0.9952
503.20 0.995
503.30 0.9948
503.40 0.9947
503.50 0.9945
503.60 0.9944
503.70 0.9942
503.80 0.994
503.90 0.9939
504.00 0.9937
504.10 0.9936
504.20 0.9934
504.30 0.9932
504.40 0.9931
504.50 0.9929
504.60 0.9928
504.70 0.9926
504.80 0.9924
504.90 0.9923
505.00 0.9921
505.10 0.992
505.20 0.9918
505.30 0.9916
505.40 0.9915
505.50 0.9913
505.60 0.9911
505.70 0.991
505.80 0.9908
505.90 0.9907
506.00 0.9905
506.10 0.9903
506.20 0.9902
506.30 0.99
506.40 0.9899
506.50 0.9897
506.60 0.9895
506.70 0.9894
506.80 0.9892
506.90 0.989
507.00 0.9889
507.10 0.9887
507.20 0.9886
507.30 0.9884
507.40 0.9882
507.50 0.9881
507.60 0.9879
507.70 0.9877
507.80 0.9876
507.90 0.9874
508.00 0.9872
508.10 0.9871
508.20 0.9869
508.30 0.9868
508.40 0.9866
508.50 0.9864
508.60 0.9863
508.70 0.9861
508.80 0.9859
508.90 0.9858
509.00 0.9856
509.10 0.9854
509.20 0.9853
509.30 0.9851
509.40 0.9849
509.50 0.9848
509.60 0.9846
509.70 0.9845
509.80 0.9843
509.90 0.9841
510.00 0.984
510.10 0.9838
510.20 0.9836
510.30 0.9835
510.40 0.9833
510.50 0.9831
510.60 0.983
510.70 0.9828
510.80 0.9826
510.90 0.9825
511.00 0.9823
511.10 0.9821
511.20 0.982
511.30 0.9818
511.40 0.9816
511.50 0.9815
511.60 0.9813
511.70 0.9811
511.80 0.981
511.90 0.9808
512.00 0.9806
512.10 0.9805
512.20 0.9803
512.30 0.9801
512.40 0.98
512.50 0.9798
512.60 0.9796
512.70 0.9795
512.80 0.9793
512.90 0.9791
513.00 0.979
513.10 0.9788
513.20 0.9786
513.30 0.9785
513.40 0.9783
513.50 0.9781
513.60 0.978
513.70 0.9778
513.80 0.9776
513.90 0.9775
514.00 0.9773
514.10 0.9771
514.20 0.977
514.30 0.9768
514.40 0.9766
514.50 0.9765
514.60 0.9763
514.70 0.9761
514.80 0.976
514.90 0.9758
515.00 0.9756
515.10 0.9755
515.20 0.9753
515.30 0.9751
515.40 0.9749
515.50 0.9748
515.60 0.9746
515.70 0.9744
515.80 0.9743
515.90 0.9741
516.00 0.9739
516.10 0.9738
516.20 0.9736
516.30 0.9734
516.40 0.9733
516.50 0.9731
516.60 0.9729
516.70 0.9728
516.80 0.9726
516.90 0.9724
517.00 0.9722
517.10 0.9721
517.20 0.9719
517.30 0.9717
517.40 0.9716
517.50 0.9714
517.60 0.9712
517.70 0.9711
517.80 0.9709
517.90 0.9707
518.00 0.9705
518.10 0.9704
518.20 0.9702
518.30 0.97
518.40 0.9699
518.50 0.9697
518.60 0.9695
518.70 0.9693
518.80 0.9692
518.90 0.969
519.00 0.9688
519.10 0.9687
519.20 0.9685
519.30 0.9683
519.40 0.9682
519.50 0.968
519.60 0.9678
519.70 0.9676
519.80 0.9675
519.90 0.9673
520.00 0.9671
520.10 0.967
520.20 0.9668
520.30 0.9666
520.40 0.9664
520.50 0.9663
520.60 0.9661
520.70 0.9659
520.80 0.9658
520.90 0.9656
521.00 0.9654
521.10 0.9652
521.20 0.9651
521.30 0.9649
521.40 0.9647
521.50 0.9645
521.60 0.9644
521.70 0.9642
521.80 0.964
521.90 0.9639
522.00 0.9637
522.10 0.9635
522.20 0.9633
522.30 0.9632
522.40 0.963
522.50 0.9628
522.60 0.9626
522.70 0.9625
522.80 0.9623
522.90 0.9621
523.00 0.962
523.10 0.9618
523.20 0.9616
523.30 0.9614
523.40 0.9613
523.50 0.9611
523.60 0.9609
523.70 0.9607
523.80 0.9606
523.90 0.9604
524.00 0.9602
524.10 0.9601
524.20 0.9599
524.30 0.9597
524.40 0.9595
524.50 0.9594
524.60 0.9592
524.70 0.959
524.80 0.9588
524.90 0.9587
525.00 0.9585
525.10 0.9583
525.20 0.9581
525.30 0.958
525.40 0.9578
525.50 0.9576
525.60 0.9574
525.70 0.9573
525.80 0.9571
525.90 0.9569
526.00 0.9567
526.10 0.9566
526.20 0.9564
526.30 0.9562
526.40 0.956
526.50 0.9559
526.60 0.9557
526.70 0.9555
526.80 0.9553
526.90 0.9552
527.00 0.955
527.10 0.9548
527.20 0.9546
527.30 0.9545
527.40 0.9543
527.50 0.9541
527.60 0.9539
527.70 0.9538
527.80 0.9536
527.90 0.9534
528.00 0.9532
528.10 0.9531
528.20 0.9529
528.30 0.9527
528.40 0.9525
528.50 0.9524
528.60 0.9522
528.70 0.952
528.80 0.9518
528.90 0.9517
529.00 0.9515
529.10 0.9513
529.20 0.9511
529.30 0.951
529.40 0.9508
529.50 0.9506
529.60 0.9504
529.70 0.9502
529.80 0.9501
529.90 0.9499
530.00 0.9497
530.10 0.9495
530.20 0.9494
530.30 0.9492
530.40 0.949
530.50 0.9488
530.60 0.9487
530.70 0.9485
530.80 0.9483
530.90 0.9481
531.00 0.948
531.10 0.9478
531.20 0.9476
531.30 0.9474
531.40 0.9472
531.50 0.9471
531.60 0.9469
531.70 0.9467
531.80 0.9465
531.90 0.9464
532.00 0.9462
532.10 0.946
532.20 0.9458
532.30 0.9457
532.40 0.9455
532.50 0.9453
532.60 0.9451
532.70 0.9449
532.80 0.9448
532.90 0.9446
533.00 0.9444
533.10 0.9442
533.20 0.9441
533.30 0.9439
533.40 0.9437
533.50 0.9435
533.60 0.9433
533.70 0.9432
533.80 0.943
533.90 0.9428
534.00 0.9426
534.10 0.9425
534.20 0.9423
534.30 0.9421
534.40 0.9419
534.50 0.9417
534.60 0.9416
534.70 0.9414
534.80 0.9412
534.90 0.941
535.00 0.9409
535.10 0.9407
535.20 0.9405
535.30 0.9403
535.40 0.9401
535.50 0.94
535.60 0.9398
535.70 0.9396
535.80 0.9394
535.90 0.9392
536.00 0.9391
536.10 0.9389
536.20 0.9387
536.30 0.9385
536.40 0.9384
536.50 0.9382
536.60 0.938
536.70 0.9378
536.80 0.9376
536.90 0.9375
537.00 0.9373
537.10 0.9371
537.20 0.9369
537.30 0.9368
537.40 0.9366
537.50 0.9364
537.60 0.9362
537.70 0.936
537.80 0.9359
537.90 0.9357
538.00 0.9355
538.10 0.9353
538.20 0.9351
538.30 0.935
538.40 0.9348
538.50 0.9346
538.60 0.9344
538.70 0.9342
538.80 0.9341
538.90 0.9339
539.00 0.9337
539.10 0.9335
539.20 0.9333
539.30 0.9332
539.40 0.933
539.50 0.9328
539.60 0.9326
539.70 0.9324
539.80 0.9323
539.90 0.9321
540.00 0.9319
540.10 0.9317
540.20 0.9315
540.30 0.9314
540.40 0.9312
540.50 0.931
540.60 0.9308
540.70 0.9306
540.80 0.9304
540.90 0.9302
541.00 0.9301
541.10 0.9299
541.20 0.9297
541.30 0.9295
541.40 0.9293
541.50 0.9292
541.60 0.929
541.70 0.9288
541.80 0.9286
541.90 0.9284
542.00 0.9283
542.10 0.9281
542.20 0.9279
542.30 0.9277
542.40 0.9276
542.50 0.9274
542.60 0.9272
542.70 0.927
542.80 0.9269
542.90 0.9267
543.00 0.9265
543.10 0.9263
543.20 0.9261
543.30 0.926
543.40 0.9258
543.50 0.9256
543.60 0.9254
543.70 0.9252
543.80 0.925
543.90 0.9248
544.00 0.9247
544.10 0.9245
544.20 0.9243
544.30 0.9241
544.40 0.9239
544.50 0.9237
544.60 0.9235
544.70 0.9234
544.80 0.9232
544.90 0.923
545.00 0.9228
545.10 0.9226
545.20 0.9225
545.30 0.9223
545.40 0.9221
545.50 0.9219
545.60 0.9218
545.70 0.9216
545.80 0.9214
545.90 0.9212
546.00 0.9211
546.10 0.9209
546.20 0.9207
546.30 0.9205
546.40 0.9203
546.50 0.9202
546.60 0.92
546.70 0.9198
546.80 0.9196
546.90 0.9194
547.00 0.9192
547.10 0.9191
547.20 0.9189
547.30 0.9187
547.40 0.9185
547.50 0.9183
547.60 0.9181
547.70 0.918
547.80 0.9178
547.90 0.9176
548.00 0.9174
548.10 0.9172
548.20 0.917
548.30 0.9169
548.40 0.9167
548.50 0.9165
548.60 0.9163
548.70 0.9161
548.80 0.916
548.90 0.9158
549.00 0.9156
549.10 0.9154
549.20 0.9152
549.30 0.915
549.40 0.9148
549.50 0.9147
549.60 0.9145
549.70 0.9143
549.80 0.9141
549.90 0.9139
550.00 0.9137
550.10 0.9135
550.20 0.9133
550.30 0.9132
550.40 0.913
550.50 0.9128
550.60 0.9126
550.70 0.9124
550.80 0.9123
550.90 0.9121
551.00 0.9119
551.10 0.9117
551.20 0.9115
551.30 0.9114
551.40 0.9112
551.50 0.911
551.60 0.9108
551.70 0.9106
551.80 0.9105
551.90 0.9103
552.00 0.9101
552.10 0.9099
552.20 0.9097
552.30 0.9096
552.40 0.9094
552.50 0.9092
552.60 0.909
552.70 0.9088
552.80 0.9086
552.90 0.9084
553.00 0.9082
553.10 0.9081
553.20 0.9079
553.30 0.9077
553.40 0.9075
553.50 0.9073
553.60 0.9071
553.70 0.9069
553.80 0.9067
553.90 0.9066
554.00 0.9064
554.10 0.9062
554.20 0.906
554.30 0.9058
554.40 0.9056
554.50 0.9055
554.60 0.9053
554.70 0.9051
554.80 0.9049
554.90 0.9048
555.00 0.9046
555.10 0.9044
555.20 0.9042
555.30 0.904
555.40 0.9039
555.50 0.9037
555.60 0.9035
555.70 0.9033
555.80 0.9031
555.90 0.9029
556.00 0.9027
556.10 0.9026
556.20 0.9024
556.30 0.9022
556.40 0.902
556.50 0.9018
556.60 0.9016
556.70 0.9015
556.80 0.9013
556.90 0.9011
557.00 0.9009
557.10 0.9007
557.20 0.9005
557.30 0.9003
557.40 0.9002
557.50 0.9
557.60 0.8998
557.70 0.8996
557.80 0.8994
557.90 0.8992
558.00 0.8991
558.10 0.8989
558.20 0.8987
558.30 0.8985
558.40 0.8983
558.50 0.8981
558.60 0.898
558.70 0.8978
558.80 0.8976
558.90 0.8974
559.00 0.8972
559.10 0.897
559.20 0.8969
559.30 0.8967
559.40 0.8965
559.50 0.8963
559.60 0.8961
559.70 0.8959
559.80 0.8957
559.90 0.8955
560.00 0.8953
560.10 0.8951
560.20 0.895
560.30 0.8948
560.40 0.8946
560.50 0.8944
560.60 0.8942
560.70 0.894
560.80 0.8939
560.90 0.8937
561.00 0.8935
561.10 0.8933
561.20 0.8931
561.30 0.8929
561.40 0.8928
561.50 0.8926
561.60 0.8924
561.70 0.8922
561.80 0.892
561.90 0.8918
562.00 0.8916
562.10 0.8914
562.20 0.8913
562.30 0.8911
562.40 0.8909
562.50 0.8907
562.60 0.8905
562.70 0.8903
562.80 0.8902
562.90 0.89
563.00 0.8898
563.10 0.8896
563.20 0.8894
563.30 0.8893
563.40 0.8891
563.50 0.8889
563.60 0.8887
563.70 0.8885
563.80 0.8883
563.90 0.8881
564.00 0.8879
564.10 0.8878
564.20 0.8876
564.30 0.8874
564.40 0.8872
564.50 0.887
564.60 0.8868
564.70 0.8866
564.80 0.8864
564.90 0.8863
565.00 0.8861
565.10 0.8859
565.20 0.8857
565.30 0.8855
565.40 0.8853
565.50 0.8851
565.60 0.8849
565.70 0.8848
565.80 0.8846
565.90 0.8844
566.00 0.8842
566.10 0.884
566.20 0.8838
566.30 0.8836
566.40 0.8835
566.50 0.8833
566.60 0.8831
566.70 0.8829
566.80 0.8827
566.90 0.8825
567.00 0.8823
567.10 0.8822
567.20 0.882
567.30 0.8818
567.40 0.8816
567.50 0.8814
567.60 0.8812
567.70 0.8811
567.80 0.8809
567.90 0.8807
568.00 0.8805
568.10 0.8803
568.20 0.8801
568.30 0.8799
568.40 0.8798
568.50 0.8796
568.60 0.8794
568.70 0.8792
568.80 0.879
568.90 0.8788
569.00 0.8787
569.10 0.8785
569.20 0.8783
569.30 0.8781
569.40 0.8779
569.50 0.8777
569.60 0.8776
569.70 0.8774
569.80 0.8772
569.90 0.877
570.00 0.8768
570.10 0.8766
570.20 0.8765
570.30 0.8763
570.40 0.8761
570.50 0.8759
570.60 0.8757
570.70 0.8755
570.80 0.8753
570.90 0.8751
571.00 0.8749
571.10 0.8747
571.20 0.8746
571.30 0.8744
571.40 0.8742
571.50 0.874
571.60 0.8738
571.70 0.8736
571.80 0.8735
571.90 0.8733
572.00 0.8731
572.10 0.8729
572.20 0.8727
572.30 0.8725
572.40 0.8724
572.50 0.8722
572.60 0.872
572.70 0.8718
572.80 0.8716
572.90 0.8714
573.00 0.8712
573.10 0.871
573.20 0.8708
573.30 0.8707
573.40 0.8705
573.50 0.8703
573.60 0.8701
573.70 0.8699
573.80 0.8698
573.90 0.8696
574.00 0.8694
574.10 0.8692
574.20 0.869
574.30 0.8688
574.40 0.8687
574.50 0.8685
574.60 0.8683
574.70 0.8681
574.80 0.8679
574.90 0.8677
575.00 0.8675
575.10 0.8673
575.20 0.8672
575.30 0.867
575.40 0.8668
575.50 0.8666
575.60 0.8664
575.70 0.8662
575.80 0.866
575.90 0.8659
576.00 0.8657
576.10 0.8655
576.20 0.8653
576.30 0.8651
576.40 0.8649
576.50 0.8647
576.60 0.8645
576.70 0.8644
576.80 0.8642
576.90 0.864
577.00 0.8638
577.10 0.8636
577.20 0.8634
577.30 0.8632
577.40 0.8631
577.50 0.8629
577.60 0.8627
577.70 0.8625
577.80 0.8623
577.90 0.8621
578.00 0.8619
578.10 0.8618
578.20 0.8616
578.30 0.8614
578.40 0.8612
578.50 0.861
578.60 0.8608
578.70 0.8607
578.80 0.8605
578.90 0.8603
579.00 0.8601
579.10 0.8599
579.20 0.8597
579.30 0.8595
579.40 0.8593
579.50 0.8592
579.60 0.859
579.70 0.8588
579.80 0.8586
579.90 0.8584
580.00 0.8582
580.10 0.858
580.20 0.8578
580.30 0.8576
580.40 0.8574
580.50 0.8573
580.60 0.8571
580.70 0.8569
580.80 0.8567
580.90 0.8565
581.00 0.8563
581.10 0.8562
581.20 0.856
581.30 0.8558
581.40 0.8556
581.50 0.8554
581.60 0.8553
581.70 0.8551
581.80 0.8549
581.90 0.8547
582.00 0.8545
582.10 0.8543
582.20 0.8542
582.30 0.854
582.40 0.8538
582.50 0.8536
582.60 0.8534
582.70 0.8532
582.80 0.853
582.90 0.8528
583.00 0.8526
583.10 0.8525
583.20 0.8523
583.30 0.8521
583.40 0.8519
583.50 0.8517
583.60 0.8515
583.70 0.8513
583.80 0.8511
583.90 0.8509
584.00 0.8508
584.10 0.8506
584.20 0.8504
584.30 0.8502
584.40 0.85
584.50 0.8498
584.60 0.8497
584.70 0.8495
584.80 0.8493
584.90 0.8491
585.00 0.8489
585.10 0.8488
585.20 0.8486
585.30 0.8484
585.40 0.8482
585.50 0.848
585.60 0.8478
585.70 0.8476
585.80 0.8475
585.90 0.8473
586.00 0.8471
586.10 0.8469
586.20 0.8467
586.30 0.8465
586.40 0.8463
586.50 0.8461
586.60 0.846
586.70 0.8458
586.80 0.8456
586.90 0.8454
587.00 0.8452
587.10 0.845
587.20 0.8448
587.30 0.8447
587.40 0.8445
587.50 0.8443
587.60 0.8441
587.70 0.8439
587.80 0.8437
587.90 0.8435
588.00 0.8434
588.10 0.8432
588.20 0.843
588.30 0.8428
588.40 0.8426
588.50 0.8424
588.60 0.8422
588.70 0.842
588.80 0.8418
588.90 0.8416
589.00 0.8414
589.10 0.8412
589.20 0.8411
589.30 0.8409
589.40 0.8407
589.50 0.8405
589.60 0.8403
589.70 0.8401
589.80 0.84
589.90 0.8398
590.00 0.8396
590.10 0.8394
590.20 0.8392
590.30 0.839
590.40 0.8389
590.50 0.8387
590.60 0.8385
590.70 0.8383
590.80 0.8381
590.90 0.8379
591.00 0.8378
591.10 0.8376
591.20 0.8374
591.30 0.8372
591.40 0.837
591.50 0.8368
591.60 0.8366
591.70 0.8364
591.80 0.8362
591.90 0.8361
592.00 0.8359
592.10 0.8357
592.20 0.8355
592.30 0.8353
592.40 0.8351
592.50 0.8349
592.60 0.8348
592.70 0.8346
592.80 0.8344
592.90 0.8342
593.00 0.834
593.10 0.8339
593.20 0.8337
593.30 0.8335
593.40 0.8333
593.50 0.8331
593.60 0.8329
593.70 0.8327
593.80 0.8325
593.90 0.8323
594.00 0.8322
594.10 0.832
594.20 0.8318
594.30 0.8316
594.40 0.8314
594.50 0.8312
594.60 0.8311
594.70 0.8309
594.80 0.8307
594.90 0.8305
595.00 0.8303
595.10 0.8302
595.20 0.83
595.30 0.8298
595.40 0.8296
595.50 0.8294
595.60 0.8292
595.70 0.829
595.80 0.8289
595.90 0.8287
596.00 0.8285
596.10 0.8283
596.20 0.8281
596.30 0.8279
596.40 0.8277
596.50 0.8275
596.60 0.8273
596.70 0.8271
596.80 0.8269
596.90 0.8267
597.00 0.8266
597.10 0.8264
597.20 0.8262
597.30 0.826
597.40 0.8258
597.50 0.8256
597.60 0.8254
597.70 0.8252
597.80 0.8251
597.90 0.8249
598.00 0.8247
598.10 0.8245
598.20 0.8243
598.30 0.8241
598.40 0.8239
598.50 0.8238
598.60 0.8236
598.70 0.8234
598.80 0.8232
598.90 0.823
599.00 0.8228
599.10 0.8227
599.20 0.8225
599.30 0.8223
599.40 0.8221
599.50 0.8219
599.60 0.8217
599.70 0.8215
599.80 0.8213
599.90 0.8211
600.00 0.8209
600.10 0.8207
600.20 0.8206
600.30 0.8204
600.40 0.8202
600.50 0.82
600.60 0.8198
600.70 0.8196
600.80 0.8195
600.90 0.8193
601.00 0.8191
601.10 0.8189
601.20 0.8187
601.30 0.8185
601.40 0.8184
601.50 0.8182
601.60 0.818
601.70 0.8178
601.80 0.8176
601.90 0.8174
602.00 0.8173
602.10 0.8171
602.20 0.8169
602.30 0.8167
602.40 0.8165
602.50 0.8163
602.60 0.8161
602.70 0.8159
602.80 0.8158
602.90 0.8156
603.00 0.8154
603.10 0.8152
603.20 0.815
603.30 0.8148
603.40 0.8146
603.50 0.8144
603.60 0.8143
603.70 0.8141
603.80 0.8139
603.90 0.8137
604.00 0.8135
604.10 0.8133
604.20 0.8131
604.30 0.8129
604.40 0.8128
604.50 0.8126
604.60 0.8124
604.70 0.8122
604.80 0.812
604.90 0.8119
605.00 0.8117
605.10 0.8115
605.20 0.8113
605.30 0.8111
605.40 0.8109
605.50 0.8108
605.60 0.8106
605.70 0.8104
605.80 0.8102
605.90 0.81
606.00 0.8098
606.10 0.8096
606.20 0.8095
606.30 0.8093
606.40 0.8091
606.50 0.8089
606.60 0.8087
606.70 0.8085
606.80 0.8083
606.90 0.8082
607.00 0.808
607.10 0.8078
607.20 0.8076
607.30 0.8074
607.40 0.8072
607.50 0.807
607.60 0.8069
607.70 0.8067
607.80 0.8065
607.90 0.8063
608.00 0.8061
608.10 0.8059
608.20 0.8057
608.30 0.8056
608.40 0.8054
608.50 0.8052
608.60 0.805
608.70 0.8048
608.80 0.8046
608.90 0.8045
609.00 0.8043
609.10 0.8041
609.20 0.8039
609.30 0.8037
609.40 0.8035
609.50 0.8034
609.60 0.8032
609.70 0.803
609.80 0.8028
609.90 0.8026
610.00 0.8024
610.10 0.8023
610.20 0.8021
610.30 0.8019
610.40 0.8017
610.50 0.8015
610.60 0.8013
610.70 0.8012
610.80 0.801
610.90 0.8008
611.00 0.8006
611.10 0.8004
611.20 0.8002
611.30 0.8
611.40 0.7999
611.50 0.7997
611.60 0.7995
611.70 0.7993
611.80 0.7991
611.90 0.7989
612.00 0.7987
612.10 0.7985
612.20 0.7984
612.30 0.7982
612.40 0.798
612.50 0.7978
612.60 0.7976
612.70 0.7974
612.80 0.7973
612.90 0.7971
613.00 0.7969
613.10 0.7967
613.20 0.7965
613.30 0.7963
613.40 0.7962
613.50 0.796
613.60 0.7958
613.70 0.7956
613.80 0.7954
613.90 0.7952
614.00 0.795
614.10 0.7948
614.20 0.7947
614.30 0.7945
614.40 0.7943
614.50 0.7941
614.60 0.7939
614.70 0.7937
614.80 0.7935
614.90 0.7934
615.00 0.7932
615.10 0.793
615.20 0.7928
615.30 0.7926
615.40 0.7924
615.50 0.7923
615.60 0.7921
615.70 0.7919
615.80 0.7917
615.90 0.7915
616.00 0.7914
616.10 0.7912
616.20 0.791
616.30 0.7908
616.40 0.7906
616.50 0.7904
616.60 0.7903
616.70 0.7901
616.80 0.7899
616.90 0.7897
617.00 0.7895
617.10 0.7893
617.20 0.7892
617.30 0.789
617.40 0.7888
617.50 0.7886
617.60 0.7884
617.70 0.7882
617.80 0.788
617.90 0.7879
618.00 0.7877
618.10 0.7875
618.20 0.7873
618.30 0.7871
618.40 0.7869
618.50 0.7868
618.60 0.7866
618.70 0.7864
618.80 0.7862
618.90 0.786
619.00 0.7858
619.10 0.7857
619.20 0.7855
619.30 0.7853
619.40 0.7851
619.50 0.7849
619.60 0.7847
619.70 0.7845
619.80 0.7843
619.90 0.7841
620.00 0.7839
620.10 0.7838
620.20 0.7836
620.30 0.7834
620.40 0.7832
620.50 0.783
620.60 0.7828
620.70 0.7827
620.80 0.7825
620.90 0.7823
621.00 0.7821
621.10 0.7819
621.20 0.7817
621.30 0.7816
621.40 0.7814
621.50 0.7812
621.60 0.781
621.70 0.7808
621.80 0.7807
621.90 0.7805
622.00 0.7803
622.10 0.7801
622.20 0.7799
622.30 0.7797
622.40 0.7796
622.50 0.7794
622.60 0.7792
622.70 0.779
622.80 0.7788
622.90 0.7786
623.00 0.7784
623.10 0.7782
623.20 0.7781
623.30 0.7779
623.40 0.7777
623.50 0.7775
623.60 0.7773
623.70 0.7772
623.80 0.777
623.90 0.7768
624.00 0.7766
624.10 0.7764
624.20 0.7763
624.30 0.7761
624.40 0.7759
624.50 0.7757
624.60 0.7755
624.70 0.7753
624.80 0.7751
624.90 0.775
625.00 0.7748
625.10 0.7746
625.20 0.7744
625.30 0.7742
625.40 0.774
625.50 0.7738
625.60 0.7737
625.70 0.7735
625.80 0.7733
625.90 0.7731
626.00 0.7729
626.10 0.7727
626.20 0.7725
626.30 0.7724
626.40 0.7722
626.50 0.772
626.60 0.7718
626.70 0.7716
626.80 0.7714
626.90 0.7713
627.00 0.7711
627.10 0.7709
627.20 0.7707
627.30 0.7705
627.40 0.7703
627.50 0.7702
627.60 0.77
627.70 0.7698
627.80 0.7696
627.90 0.7694
628.00 0.7692
628.10 0.7691
628.20 0.7689
628.30 0.7687
628.40 0.7685
628.50 0.7683
628.60 0.7681
628.70 0.768
628.80 0.7678
628.90 0.7676
629.00 0.7674
629.10 0.7672
629.20 0.767
629.30 0.7668
629.40 0.7667
629.50 0.7665
629.60 0.7663
629.70 0.7661
629.80 0.7659
629.90 0.7657
630.00 0.7655
630.10 0.7653
630.20 0.7652
630.30 0.765
630.40 0.7648
630.50 0.7646
630.60 0.7644
630.70 0.7642
630.80 0.7641
630.90 0.7639
631.00 0.7637
631.10 0.7635
631.20 0.7633
631.30 0.7631
631.40 0.763
631.50 0.7628
631.60 0.7626
631.70 0.7624
631.80 0.7622
631.90 0.7621
632.00 0.7619
632.10 0.7617
632.20 0.7615
632.30 0.7613
632.40 0.7611
632.50 0.761
632.60 0.7608
632.70 0.7606
632.80 0.7604
632.90 0.7602
633.00 0.76
633.10 0.7598
633.20 0.7597
633.30 0.7595
633.40 0.7593
633.50 0.7591
633.60 0.7589
633.70 0.7587
633.80 0.7585
633.90 0.7584
634.00 0.7582
634.10 0.758
634.20 0.7578
634.30 0.7576
634.40 0.7574
634.50 0.7572
634.60 0.7571
634.70 0.7569
634.80 0.7567
634.90 0.7565
635.00 0.7563
635.10 0.7561
635.20 0.7559
635.30 0.7558
635.40 0.7556
635.50 0.7554
635.60 0.7552
635.70 0.755
635.80 0.7548
635.90 0.7547
636.00 0.7545
636.10 0.7543
636.20 0.7541
636.30 0.7539
636.40 0.7537
636.50 0.7535
636.60 0.7534
636.70 0.7532
636.80 0.753
636.90 0.7528
637.00 0.7526
637.10 0.7524
637.20 0.7522
637.30 0.752
637.40 0.7518
637.50 0.7516
637.60 0.7515
637.70 0.7513
637.80 0.7511
637.90 0.7509
638.00 0.7507
638.10 0.7505
638.20 0.7503
638.30 0.7501
638.40 0.7499
638.50 0.7498
638.60 0.7496
638.70 0.7494
638.80 0.7492
638.90 0.749
639.00 0.7488
639.10 0.7486
639.20 0.7484
639.30 0.7482
639.40 0.7481
639.50 0.7479
639.60 0.7477
639.70 0.7475
639.80 0.7473
639.90 0.7471
640.00 0.7469
640.10 0.7467
640.20 0.7465
640.30 0.7463
640.40 0.7461
640.50 0.7459
640.60 0.7457
640.70 0.7455
640.80 0.7453
640.90 0.7451
641.00 0.745
641.10 0.7448
641.20 0.7446
641.30 0.7444
641.40 0.7442
641.50 0.744
641.60 0.7438
641.70 0.7436
641.80 0.7434
641.90 0.7432
642.00 0.743
642.10 0.7428
642.20 0.7426
642.30 0.7424
642.40 0.7422
642.50 0.742
642.60 0.7418
642.70 0.7416
642.80 0.7414
642.90 0.7412
643.00 0.741
643.10 0.7408
643.20 0.7406
643.30 0.7404
643.40 0.7402
643.50 0.74
643.60 0.7398
643.70 0.7396
643.80 0.7394
643.90 0.7391
644.00 0.7389
644.10 0.7387
644.20 0.7385
644.30 0.7383
644.40 0.7381
644.50 0.7379
644.60 0.7377
644.70 0.7374
644.80 0.7372
644.90 0.737
645.00 0.7368
645.10 0.7366
645.20 0.7364
645.30 0.7361
645.40 0.7359
645.50 0.7357
645.60 0.7355
645.70 0.7352
645.80 0.735
645.90 0.7348
646.00 0.7345
646.10 0.7343
646.20 0.7341
646.30 0.7339
646.40 0.7336
646.50 0.7334
646.60 0.7331
646.70 0.7329
646.80 0.7327
646.90 0.7324
647.00 0.7322
647.10 0.7319
647.20 0.7317
647.30 0.7315
647.40 0.7312
647.50 0.7309
647.60 0.7306
647.70 0.7304
647.80 0.7301
647.90 0.7298
648.00 0.7296
648.10 0.7293
648.20 0.729
648.30 0.7288
648.40 0.7284
648.50 0.7281
648.60 0.7278
648.70 0.7275
648.80 0.7272
648.90 0.7269
649.00 0.7266
649.10 0.7263
649.20 0.726
649.30 0.7257
649.40 0.7254
649.50 0.725
649.60 0.7246
649.70 0.7242
649.80 0.7239
649.90 0.7235
650.00 0.7231
650.10 0.7228
650.20 0.7224
650.30 0.722
650.40 0.7215
650.50 0.7211
650.60 0.7206
650.70 0.7201
650.80 0.7196
650.90 0.7191
651.00 0.7187
651.10 0.7182
651.20 0.7177
651.30 0.7172
651.40 0.7165
651.50 0.7158
651.60 0.7152
651.70 0.7145
651.80 0.7138
651.90 0.7131
652.00 0.7125
652.10 0.7118
652.20 0.7111
652.30 0.7103
652.40 0.7092
652.50 0.7081
652.60 0.707
652.70 0.7059
652.80 0.7048
652.90 0.7037
653.00 0.7026
653.10 0.7015
653.20 0.7004
653.30 0.699
653.40 0.6969
653.50 0.6947
653.60 0.6925
653.70 0.6904
653.80 0.6882
653.90 0.686
654.00 0.6839
654.10 0.6817
654.20 0.6796
654.30 0.677
654.40 0.673
654.50 0.669
654.60 0.6649
654.70 0.6609
654.80 0.6563
654.90 0.6493
655.00 0.6424
655.10 0.6354
655.20 0.6285
655.30 0.6208
655.40 0.61
655.50 0.5985
655.60 0.5837
655.70 0.5677
655.80 0.5462
655.90 0.5221
656.00 0.4871
656.10 0.4495
656.20 0.391
656.30 0.3495
656.40 0.4152
656.50 0.4649
656.60 0.4999
656.70 0.5321
656.80 0.5533
656.90 0.5732
657.00 0.5877
657.10 0.6013
657.20 0.6118
657.30 0.6215
657.40 0.6281
657.50 0.6347
657.60 0.6414
657.70 0.648
657.80 0.654
657.90 0.6577
658.00 0.6614
658.10 0.6651
658.20 0.6687
658.30 0.6721
658.40 0.6739
658.50 0.6757
658.60 0.6775
658.70 0.6793
658.80 0.6811
658.90 0.6829
659.00 0.6847
659.10 0.6865
659.20 0.6883
659.30 0.6899
659.40 0.6907
659.50 0.6914
659.60 0.6922
659.70 0.6929
659.80 0.6937
659.90 0.6944
660.00 0.6952
660.10 0.6959
660.20 0.6967
660.30 0.6974
660.40 0.6977
660.50 0.698
660.60 0.6983
660.70 0.6986
660.80 0.699
660.90 0.6993
661.00 0.6996
661.10 0.6999
661.20 0.7002
661.30 0.7005
661.40 0.7006
661.50 0.7008
661.60 0.7009
661.70 0.701
661.80 0.7011
661.90 0.7013
662.00 0.7014
662.10 0.7015
662.20 0.7016
662.30 0.7017
662.40 0.7017
662.50 0.7017
662.60 0.7017
662.70 0.7018
662.80 0.7018
662.90 0.7018
663.00 0.7018
663.10 0.7018
663.20 0.7018
663.30 0.7018
663.40 0.7018
663.50 0.7017
663.60 0.7017
663.70 0.7016
663.80 0.7016
663.90 0.7015
664.00 0.7015
664.10 0.7014
664.20 0.7014
664.30 0.7013
664.40 0.7012
664.50 0.7012
664.60 0.7011
664.70 0.701
664.80 0.7009
664.90 0.7008
665.00 0.7008
665.10 0.7007
665.20 0.7006
665.30 0.7005
665.40 0.7004
665.50 0.7003
665.60 0.7002
665.70 0.7
665.80 0.6999
665.90 0.6998
666.00 0.6997
666.10 0.6996
666.20 0.6995
666.30 0.6994
666.40 0.6993
666.50 0.6991
666.60 0.699
666.70 0.6989
666.80 0.6988
666.90 0.6987
667.00 0.6985
667.10 0.6984
667.20 0.6983
667.30 0.6982
667.40 0.698
667.50 0.6979
667.60 0.6978
667.70 0.6976
667.80 0.6975
667.90 0.6974
668.00 0.6972
668.10 0.6971
668.20 0.697
668.30 0.6968
668.40 0.6967
668.50 0.6965
668.60 0.6964
668.70 0.6963
668.80 0.6961
668.90 0.696
669.00 0.6958
669.10 0.6957
669.20 0.6955
669.30 0.6954
669.40 0.6953
669.50 0.6951
669.60 0.695
669.70 0.6948
669.80 0.6947
669.90 0.6945
670.00 0.6944
670.10 0.6942
670.20 0.6941
670.30 0.6939
670.40 0.6938
670.50 0.6936
670.60 0.6935
670.70 0.6933
670.80 0.6932
670.90 0.693
671.00 0.6929
671.10 0.6927
671.20 0.6926
671.30 0.6924
671.40 0.6922
671.50 0.6921
671.60 0.6919
671.70 0.6918
671.80 0.6916
671.90 0.6914
672.00 0.6913
672.10 0.6911
672.20 0.691
672.30 0.6908
672.40 0.6907
672.50 0.6905
672.60 0.6903
672.70 0.6902
672.80 0.69
672.90 0.6899
673.00 0.6897
673.10 0.6896
673.20 0.6894
673.30 0.6892
673.40 0.6891
673.50 0.6889
673.60 0.6888
673.70 0.6886
673.80 0.6885
673.90 0.6883
674.00 0.6881
674.10 0.688
674.20 0.6878
674.30 0.6877
674.40 0.6875
674.50 0.6874
674.60 0.6872
674.70 0.687
674.80 0.6869
674.90 0.6867
675.00 0.6865
675.10 0.6864
675.20 0.6862
675.30 0.6861
675.40 0.6859
675.50 0.6857
675.60 0.6856
675.70 0.6854
675.80 0.6852
675.90 0.6851
676.00 0.6849
676.10 0.6848
676.20 0.6846
676.30 0.6844
676.40 0.6843
676.50 0.6841
676.60 0.684
676.70 0.6838
676.80 0.6836
676.90 0.6835
677.00 0.6833
677.10 0.6832
677.20 0.683
677.30 0.6828
677.40 0.6827
677.50 0.6825
677.60 0.6824
677.70 0.6822
677.80 0.682
677.90 0.6819
678.00 0.6817
678.10 0.6816
678.20 0.6814
678.30 0.6812
678.40 0.6811
678.50 0.6809
678.60 0.6807
678.70 0.6806
678.80 0.6804
678.90 0.6802
679.00 0.6801
679.10 0.6799
679.20 0.6797
679.30 0.6796
679.40 0.6794
679.50 0.6792
679.60 0.6791
679.70 0.6789
679.80 0.6788
679.90 0.6786
680.00 0.6784
680.10 0.6783
680.20 0.6781
680.30 0.6779
680.40 0.6778
680.50 0.6776
680.60 0.6774
680.70 0.6773
680.80 0.6771
680.90 0.6769
681.00 0.6768
681.10 0.6766
681.20 0.6765
681.30 0.6763
681.40 0.6761
681.50 0.676
681.60 0.6758
681.70 0.6756
681.80 0.6755
681.90 0.6753
682.00 0.6751
682.10 0.675
682.20 0.6748
682.30 0.6747
682.40 0.6745
682.50 0.6743
682.60 0.6742
682.70 0.674
682.80 0.6738
682.90 0.6737
683.00 0.6735
683.10 0.6734
683.20 0.6732
683.30 0.673
683.40 0.6729
683.50 0.6727
683.60 0.6725
683.70 0.6724
683.80 0.6722
683.90 0.6721
684.00 0.6719
684.10 0.6717
684.20 0.6716
684.30 0.6714
684.40 0.6713
684.50 0.6711
684.60 0.6709
684.70 0.6708
684.80 0.6706
684.90 0.6704
685.00 0.6703
685.10 0.6701
685.20 0.67
685.30 0.6698
685.40 0.6696
685.50 0.6695
685.60 0.6693
685.70 0.6691
685.80 0.669
685.90 0.6688
686.00 0.6686
686.10 0.6685
686.20 0.6683
686.30 0.6681
686.40 0.668
686.50 0.6678
686.60 0.6677
686.70 0.6675
686.80 0.6673
686.90 0.6672
687.00 0.667
687.10 0.6669
687.20 0.6667
687.30 0.6665
687.40 0.6664
687.50 0.6662
687.60 0.666
687.70 0.6659
687.80 0.6657
687.90 0.6655
688.00 0.6654
688.10 0.6652
688.20 0.665
688.30 0.6649
688.40 0.6647
688.50 0.6646
688.60 0.6644
688.70 0.6643
688.80 0.6641
688.90 0.6639
689.00 0.6638
689.10 0.6636
689.20 0.6635
689.30 0.6633
689.40 0.6631
689.50 0.663
689.60 0.6628
689.70 0.6626
689.80 0.6625
689.90 0.6623
690.00 0.6621
690.10 0.662
690.20 0.6618
690.30 0.6617
690.40 0.6615
690.50 0.6613
690.60 0.6612
690.70 0.661
690.80 0.6608
690.90 0.6607
691.00 0.6605
691.10 0.6603
691.20 0.6602
691.30 0.66
691.40 0.6599
691.50 0.6597
691.60 0.6595
691.70 0.6594
691.80 0.6592
691.90 0.659
692.00 0.6589
692.10 0.6587
692.20 0.6586
692.30 0.6584
692.40 0.6582
692.50 0.6581
692.60 0.6579
692.70 0.6577
692.80 0.6576
692.90 0.6574
693.00 0.6573
693.10 0.6571
693.20 0.6569
693.30 0.6568
693.40 0.6566
693.50 0.6564
693.60 0.6563
693.70 0.6561
693.80 0.656
693.90 0.6558
694.00 0.6556
694.10 0.6555
694.20 0.6553
694.30 0.6552
694.40 0.655
694.50 0.6548
694.60 0.6547
694.70 0.6545
694.80 0.6543
694.90 0.6542
695.00 0.654
695.10 0.6539
695.20 0.6537
695.30 0.6535
695.40 0.6534
695.50 0.6532
695.60 0.653
695.70 0.6529
695.80 0.6527
695.90 0.6526
696.00 0.6524
696.10 0.6522
696.20 0.6521
696.30 0.6519
696.40 0.6518
696.50 0.6516
696.60 0.6514
696.70 0.6513
696.80 0.6511
696.90 0.6509
697.00 0.6508
697.10 0.6506
697.20 0.6505
697.30 0.6503
697.40 0.6501
697.50 0.65
697.60 0.6498
697.70 0.6497
697.80 0.6495
697.90 0.6493
698.00 0.6492
698.10 0.649
698.20 0.6489
698.30 0.6487
698.40 0.6485
698.50 0.6484
698.60 0.6482
698.70 0.6481
698.80 0.6479
698.90 0.6477
699.00 0.6476
699.10 0.6474
699.20 0.6473
699.30 0.6471
699.40 0.6469
699.50 0.6468
699.60 0.6466
699.70 0.6465
699.80 0.6463
699.90 0.6461
700.00 0.646
700.10 0.6458
700.20 0.6457
700.30 0.6455
700.40 0.6453
700.50 0.6452
700.60 0.645
700.70 0.6449
700.80 0.6447
700.90 0.6445
701.00 0.6444
701.10 0.6442
701.20 0.6441
701.30 0.6439
701.40 0.6437
701.50 0.6436
701.60 0.6434
701.70 0.6433
701.80 0.6431
701.90 0.6429
702.00 0.6428
702.10 0.6426
702.20 0.6425
702.30 0.6423
702.40 0.6422
702.50 0.642
702.60 0.6418
702.70 0.6417
702.80 0.6415
702.90 0.6414
703.00 0.6412
703.10 0.641
703.20 0.6409
703.30 0.6407
703.40 0.6406
703.50 0.6404
703.60 0.6403
703.70 0.6401
703.80 0.6399
703.90 0.6398
704.00 0.6396
704.10 0.6395
704.20 0.6393
704.30 0.6391
704.40 0.639
704.50 0.6388
704.60 0.6387
704.70 0.6385
704.80 0.6384
704.90 0.6382
705.00 0.638
705.10 0.6379
705.20 0.6377
705.30 0.6376
705.40 0.6374
705.50 0.6372
705.60 0.6371
705.70 0.6369
705.80 0.6368
705.90 0.6366
706.00 0.6364
706.10 0.6363
706.20 0.6361
706.30 0.636
706.40 0.6358
706.50 0.6356
706.60 0.6355
706.70 0.6353
706.80 0.6352
706.90 0.635
707.00 0.6349
707.10 0.6347
707.20 0.6345
707.30 0.6344
707.40 0.6342
707.50 0.6341
707.60 0.6339
707.70 0.6337
707.80 0.6336
707.90 0.6334
708.00 0.6333
708.10 0.6331
708.20 0.6329
708.30 0.6328
708.40 0.6326
708.50 0.6325
708.60 0.6323
708.70 0.6322
708.80 0.632
708.90 0.6318
709.00 0.6317
709.10 0.6315
709.20 0.6314
709.30 0.6312
709.40 0.6311
709.50 0.6309
709.60 0.6307
709.70 0.6306
709.80 0.6304
709.90 0.6303
710.00 0.6301
710.10 0.63
710.20 0.6298
710.30 0.6296
710.40 0.6295
710.50 0.6293
710.60 0.6292
710.70 0.629
710.80 0.6289
710.90 0.6287
711.00 0.6285
711.10 0.6284
711.20 0.6282
711.30 0.6281
711.40 0.6279
711.50 0.6278
711.60 0.6276
711.70 0.6274
711.80 0.6273
711.90 0.6271
712.00 0.627
712.10 0.6268
712.20 0.6267
712.30 0.6265
712.40 0.6264
712.50 0.6262
712.60 0.626
712.70 0.6259
712.80 0.6257
712.90 0.6256
713.00 0.6254
713.10 0.6253
713.20 0.6251
713.30 0.625
713.40 0.6248
713.50 0.6246
713.60 0.6245
713.70 0.6243
713.80 0.6242
713.90 0.624
714.00 0.6239
714.10 0.6237
714.20 0.6236
714.30 0.6234
714.40 0.6233
714.50 0.6231
714.60 0.6229
714.70 0.6228
714.80 0.6226
714.90 0.6225
715.00 0.6223
715.10 0.6222
715.20 0.622
715.30 0.6219
715.40 0.6217
715.50 0.6216
715.60 0.6214
715.70 0.6212
715.80 0.6211
715.90 0.6209
716.00 0.6208
716.10 0.6206
716.20 0.6205
716.30 0.6203
716.40 0.6202
716.50 0.62
716.60 0.6198
716.70 0.6197
716.80 0.6195
716.90 0.6194
717.00 0.6192
717.10 0.6191
717.20 0.6189
717.30 0.6188
717.40 0.6186
717.50 0.6184
717.60 0.6183
717.70 0.6181
717.80 0.618
717.90 0.6178
718.00 0.6177
718.10 0.6175
718.20 0.6174
718.30 0.6172
718.40 0.6171
718.50 0.6169
718.60 0.6168
718.70 0.6166
718.80 0.6164
718.90 0.6163
719.00 0.6161
719.10 0.616
719.20 0.6158
719.30 0.6157
719.40 0.6155
719.50 0.6154
719.60 0.6152
719.70 0.6151
719.80 0.6149
719.90 0.6148
720.00 0.6146
720.10 0.6144
720.20 0.6143
720.30 0.6141
720.40 0.614
720.50 0.6138
720.60 0.6137
720.70 0.6135
720.80 0.6134
720.90 0.6132
721.00 0.6131
721.10 0.6129
721.20 0.6127
721.30 0.6126
721.40 0.6124
721.50 0.6123
721.60 0.6121
721.70 0.612
721.80 0.6118
721.90 0.6117
722.00 0.6115
722.10 0.6114
722.20 0.6112
722.30 0.6111
722.40 0.6109
722.50 0.6107
722.60 0.6106
722.70 0.6104
722.80 0.6103
722.90 0.6101
723.00 0.61
723.10 0.6098
723.20 0.6097
723.30 0.6095
723.40 0.6094
723.50 0.6092
723.60 0.6091
723.70 0.6089
723.80 0.6088
723.90 0.6086
724.00 0.6084
724.10 0.6083
724.20 0.6081
724.30 0.608
724.40 0.6078
724.50 0.6077
724.60 0.6075
724.70 0.6074
724.80 0.6072
724.90 0.6071
725.00 0.6069
725.10 0.6068
725.20 0.6066
725.30 0.6065
725.40 0.6063
725.50 0.6062
725.60 0.606
725.70 0.6059
725.80 0.6057
725.90 0.6056
726.00 0.6054
726.10 0.6052
726.20 0.6051
726.30 0.6049
726.40 0.6048
726.50 0.6046
726.60 0.6045
726.70 0.6043
726.80 0.6042
726.90 0.604
727.00 0.6039
727.10 0.6037
727.20 0.6036
727.30 0.6034
727.40 0.6033
727.50 0.6031
727.60 0.603
727.70 0.6028
727.80 0.6027
727.90 0.6025
728.00 0.6024
728.10 0.6022
728.20 0.6021
728.30 0.6019
728.40 0.6018
728.50 0.6016
728.60 0.6015
728.70 0.6013
728.80 0.6012
728.90 0.601
729.00 0.6009
729.10 0.6007
729.20 0.6006
729.30 0.6004
729.40 0.6002
729.50 0.6001
729.60 0.5999
729.70 0.5998
729.80 0.5996
729.90 0.5995
730.00 0.5993
730.10 0.5992
730.20 0.599
730.30 0.5989
730.40 0.5987
730.50 0.5986
730.60 0.5984
730.70 0.5983
730.80 0.5981
730.90 0.598
731.00 0.5978
731.10 0.5977
731.20 0.5975
731.30 0.5974
731.40 0.5972
731.50 0.5971
731.60 0.5969
731.70 0.5968
731.80 0.5966
731.90 0.5965
732.00 0.5963
732.10 0.5962
732.20 0.596
732.30 0.5959
732.40 0.5957
732.50 0.5956
732.60 0.5954
732.70 0.5953
732.80 0.5951
732.90 0.595
733.00 0.5948
733.10 0.5947
733.20 0.5945
733.30 0.5944
733.40 0.5942
733.50 0.5941
733.60 0.5939
733.70 0.5938
733.80 0.5936
733.90 0.5935
734.00 0.5933
734.10 0.5932
734.20 0.593
734.30 0.5929
734.40 0.5927
734.50 0.5926
734.60 0.5924
734.70 0.5923
734.80 0.5921
734.90 0.592
735.00 0.5918
735.10 0.5917
735.20 0.5915
735.30 0.5914
735.40 0.5912
735.50 0.5911
735.60 0.5909
735.70 0.5908
735.80 0.5906
735.90 0.5905
736.00 0.5903
736.10 0.5902
736.20 0.59
736.30 0.5899
736.40 0.5897
736.50 0.5896
736.60 0.5894
736.70 0.5893
736.80 0.5891
736.90 0.589
737.00 0.5889
737.10 0.5887
737.20 0.5886
737.30 0.5884
737.40 0.5883
737.50 0.5881
737.60 0.588
737.70 0.5878
737.80 0.5877
737.90 0.5875
738.00 0.5874
738.10 0.5872
738.20 0.5871
738.30 0.5869
738.40 0.5868
738.50 0.5866
738.60 0.5865
738.70 0.5863
738.80 0.5862
738.90 0.5861
739.00 0.5859
739.10 0.5858
739.20 0.5856
739.30 0.5855
739.40 0.5853
739.50 0.5852
739.60 0.585
739.70 0.5849
739.80 0.5847
739.90 0.5846
740.00 0.5844
740.10 0.5843
740.20 0.5841
740.30 0.584
740.40 0.5838
740.50 0.5837
740.60 0.5836
740.70 0.5834
740.80 0.5833
740.90 0.5831
741.00 0.583
741.10 0.5828
741.20 0.5827
741.30 0.5825
741.40 0.5824
741.50 0.5822
741.60 0.5821
741.70 0.5819
741.80 0.5818
741.90 0.5816
742.00 0.5815
742.10 0.5813
742.20 0.5812
742.30 0.581
742.40 0.5809
742.50 0.5807
742.60 0.5806
742.70 0.5805
742.80 0.5803
742.90 0.5802
743.00 0.58
743.10 0.5799
743.20 0.5797
743.30 0.5796
743.40 0.5794
743.50 0.5793
743.60 0.5791
743.70 0.579
743.80 0.5788
743.90 0.5787
744.00 0.5785
744.10 0.5784
744.20 0.5783
744.30 0.5781
744.40 0.578
744.50 0.5778
744.60 0.5777
744.70 0.5775
744.80 0.5774
744.90 0.5772
745.00 0.5771
745.10 0.5769
745.20 0.5768
745.30 0.5767
745.40 0.5765
745.50 0.5764
745.60 0.5762
745.70 0.5761
745.80 0.5759
745.90 0.5758
746.00 0.5756
746.10 0.5755
746.20 0.5753
746.30 0.5752
746.40 0.5751
746.50 0.5749
746.60 0.5748
746.70 0.5746
746.80 0.5745
746.90 0.5743
747.00 0.5742
747.10 0.574
747.20 0.5739
747.30 0.5738
747.40 0.5736
747.50 0.5735
747.60 0.5733
747.70 0.5732
747.80 0.573
747.90 0.5729
748.00 0.5727
748.10 0.5726
748.20 0.5725
748.30 0.5723
748.40 0.5722
748.50 0.572
748.60 0.5719
748.70 0.5717
748.80 0.5716
748.90 0.5714
749.00 0.5713
749.10 0.5712
749.20 0.571
749.30 0.5709
749.40 0.5707
749.50 0.5706
749.60 0.5704
749.70 0.5703
749.80 0.5702
749.90 0.57
750.00 0.5699
750.10 0.5697
750.20 0.5696
750.30 0.5694
750.40 0.5693
750.50 0.5691
750.60 0.569
750.70 0.5689
750.80 0.5687
750.90 0.5686
751.00 0.5684
751.10 0.5683
751.20 0.5681
751.30 0.568
751.40 0.5678
751.50 0.5677
751.60 0.5676
751.70 0.5674
751.80 0.5673
751.90 0.5671
752.00 0.567
752.10 0.5668
752.20 0.5667
752.30 0.5665
752.40 0.5664
752.50 0.5663
752.60 0.5661
752.70 0.566
752.80 0.5658
752.90 0.5657
753.00 0.5655
753.10 0.5654
753.20 0.5653
753.30 0.5651
753.40 0.565
753.50 0.5648
753.60 0.5647
753.70 0.5645
753.80 0.5644
753.90 0.5643
754.00 0.5641
754.10 0.564
754.20 0.5638
754.30 0.5637
754.40 0.5635
754.50 0.5634
754.60 0.5633
754.70 0.5631
754.80 0.563
754.90 0.5628
755.00 0.5627
755.10 0.5625
755.20 0.5624
755.30 0.5623
755.40 0.5621
755.50 0.562
755.60 0.5618
755.70 0.5617
755.80 0.5615
755.90 0.5614
756.00 0.5613
756.10 0.5611
756.20 0.561
756.30 0.5608
756.40 0.5607
756.50 0.5606
756.60 0.5604
756.70 0.5603
756.80 0.5601
756.90 0.56
757.00 0.5598
757.10 0.5597
757.20 0.5596
757.30 0.5594
757.40 0.5593
757.50 0.5591
757.60 0.559
757.70 0.5589
757.80 0.5587
757.90 0.5586
758.00 0.5584
758.10 0.5583
758.20 0.5582
758.30 0.558
758.40 0.5579
758.50 0.5577
758.60 0.5576
758.70 0.5575
758.80 0.5573
758.90 0.5572
759.00 0.557
759.10 0.5569
759.20 0.5568
759.30 0.5566
759.40 0.5565
759.50 0.5563
759.60 0.5562
759.70 0.5561
759.80 0.5559
759.90 0.5558
760.00 0.5556
760.10 0.5555
760.20 0.5553
760.30 0.5552
760.40 0.5551
760.50 0.5549
760.60 0.5548
760.70 0.5546
760.80 0.5545
760.90 0.5544
761.00 0.5542
761.10 0.5541
761.20 0.5539
761.30 0.5538
761.40 0.5537
761.50 0.5535
761.60 0.5534
761.70 0.5532
761.80 0.5531
761.90 0.553
762.00 0.5528
762.10 0.5527
762.20 0.5525
762.30 0.5524
762.40 0.5522
762.50 0.5521
762.60 0.552
762.70 0.5518
762.80 0.5517
762.90 0.5515
763.00 0.5514
763.10 0.5513
763.20 0.5511
763.30 0.551
763.40 0.5509
763.50 0.5507
763.60 0.5506
763.70 0.5504
763.80 0.5503
763.90 0.5502
764.00 0.55
764.10 0.5499
764.20 0.5497
764.30 0.5496
764.40 0.5495
764.50 0.5493
764.60 0.5492
764.70 0.549
764.80 0.5489
764.90 0.5488
765.00 0.5486
765.10 0.5485
765.20 0.5483
765.30 0.5482
765.40 0.5481
765.50 0.5479
765.60 0.5478
765.70 0.5477
765.80 0.5475
765.90 0.5474
766.00 0.5472
766.10 0.5471
766.20 0.547
766.30 0.5468
766.40 0.5467
766.50 0.5465
766.60 0.5464
766.70 0.5463
766.80 0.5461
766.90 0.546
767.00 0.5459
767.10 0.5457
767.20 0.5456
767.30 0.5454
767.40 0.5453
767.50 0.5452
767.60 0.545
767.70 0.5449
767.80 0.5448
767.90 0.5446
768.00 0.5445
768.10 0.5443
768.20 0.5442
768.30 0.5441
768.40 0.5439
768.50 0.5438
768.60 0.5437
768.70 0.5435
768.80 0.5434
768.90 0.5432
769.00 0.5431
769.10 0.543
769.20 0.5428
769.30 0.5427
769.40 0.5426
769.50 0.5424
769.60 0.5423
769.70 0.5422
769.80 0.542
769.90 0.5419
770.00 0.5417
770.10 0.5416
770.20 0.5415
770.30 0.5413
770.40 0.5412
770.50 0.5411
770.60 0.5409
770.70 0.5408
770.80 0.5406
770.90 0.5405
771.00 0.5404
771.10 0.5402
771.20 0.5401
771.30 0.54
771.40 0.5398
771.50 0.5397
771.60 0.5395
771.70 0.5394
771.80 0.5393
771.90 0.5391
772.00 0.539
772.10 0.5389
772.20 0.5387
772.30 0.5386
772.40 0.5385
772.50 0.5383
772.60 0.5382
772.70 0.538
772.80 0.5379
772.90 0.5378
773.00 0.5376
773.10 0.5375
773.20 0.5374
773.30 0.5372
773.40 0.5371
773.50 0.537
773.60 0.5368
773.70 0.5367
773.80 0.5365
773.90 0.5364
774.00 0.5363
774.10 0.5361
774.20 0.536
774.30 0.5359
774.40 0.5357
774.50 0.5356
774.60 0.5355
774.70 0.5353
774.80 0.5352
774.90 0.5351
775.00 0.5349
775.10 0.5348
775.20 0.5346
775.30 0.5345
775.40 0.5344
775.50 0.5342
775.60 0.5341
775.70 0.534
775.80 0.5338
775.90 0.5337
776.00 0.5336
776.10 0.5334
776.20 0.5333
776.30 0.5332
776.40 0.533
776.50 0.5329
776.60 0.5328
776.70 0.5326
776.80 0.5325
776.90 0.5324
777.00 0.5322
777.10 0.5321
777.20 0.532
777.30 0.5318
777.40 0.5317
777.50 0.5315
777.60 0.5314
777.70 0.5313
777.80 0.5311
777.90 0.531
778.00 0.5309
778.10 0.5307
778.20 0.5306
778.30 0.5305
778.40 0.5303
778.50 0.5302
778.60 0.5301
778.70 0.5299
778.80 0.5298
778.90 0.5297
779.00 0.5295
779.10 0.5294
779.20 0.5293
779.30 0.5291
779.40 0.529
779.50 0.5289
779.60 0.5287
779.70 0.5286
779.80 0.5285
779.90 0.5283
780.00 0.5282
780.10 0.5281
780.20 0.5279
780.30 0.5278
780.40 0.5277
780.50 0.5275
780.60 0.5274
780.70 0.5273
780.80 0.5271
780.90 0.527
781.00 0.5269
781.10 0.5267
781.20 0.5266
781.30 0.5265
781.40 0.5263
781.50 0.5262
781.60 0.5261
781.70 0.5259
781.80 0.5258
781.90 0.5257
782.00 0.5255
782.10 0.5254
782.20 0.5253
782.30 0.5251
782.40 0.525
782.50 0.5249
782.60 0.5247
782.70 0.5246
782.80 0.5245
782.90 0.5243
783.00 0.5242
783.10 0.5241
783.20 0.5239
783.30 0.5238
783.40 0.5237
783.50 0.5235
783.60 0.5234
783.70 0.5233
783.80 0.5231
783.90 0.523
784.00 0.5229
784.10 0.5227
784.20 0.5226
784.30 0.5225
784.40 0.5223
784.50 0.5222
784.60 0.5221
784.70 0.5219
784.80 0.5218
784.90 0.5217
785.00 0.5215
785.10 0.5214
785.20 0.5213
785.30 0.5212
785.40 0.521
785.50 0.5209
785.60 0.5208
785.70 0.5206
785.80 0.5205
785.90 0.5204
786.00 0.5202
786.10 0.5201
786.20 0.52
786.30 0.5198
786.40 0.5197
786.50 0.5196
786.60 0.5194
786.70 0.5193
786.80 0.5192
786.90 0.519
787.00 0.5189
787.10 0.5188
787.20 0.5187
787.30 0.5185
787.40 0.5184
787.50 0.5183
787.60 0.5181
787.70 0.518
787.80 0.5179
787.90 0.5177
788.00 0.5176
788.10 0.5175
788.20 0.5174
788.30 0.5172
788.40 0.5171
788.50 0.517
788.60 0.5168
788.70 0.5167
788.80 0.5166
788.90 0.5164
789.00 0.5163
789.10 0.5162
789.20 0.516
789.30 0.5159
789.40 0.5158
789.50 0.5157
789.60 0.5155
789.70 0.5154
789.80 0.5153
789.90 0.5151
790.00 0.515
790.10 0.5149
790.20 0.5147
790.30 0.5146
790.40 0.5145
790.50 0.5144
790.60 0.5142
790.70 0.5141
790.80 0.514
790.90 0.5138
791.00 0.5137
791.10 0.5136
791.20 0.5134
791.30 0.5133
791.40 0.5132
791.50 0.513
791.60 0.5129
791.70 0.5128
791.80 0.5127
791.90 0.5125
792.00 0.5124
792.10 0.5123
792.20 0.5121
792.30 0.512
792.40 0.5119
792.50 0.5117
792.60 0.5116
792.70 0.5115
792.80 0.5114
792.90 0.5112
793.00 0.5111
793.10 0.511
793.20 0.5108
793.30 0.5107
793.40 0.5106
793.50 0.5104
793.60 0.5103
793.70 0.5102
793.80 0.5101
793.90 0.5099
794.00 0.5098
794.10 0.5097
794.20 0.5095
794.30 0.5094
794.40 0.5093
794.50 0.5092
794.60 0.509
794.70 0.5089
794.80 0.5088
794.90 0.5086
795.00 0.5085
795.10 0.5084
795.20 0.5083
795.30 0.5081
795.40 0.508
795.50 0.5079
795.60 0.5077
795.70 0.5076
795.80 0.5075
795.90 0.5074
796.00 0.5072
796.10 0.5071
796.20 0.507
796.30 0.5068
796.40 0.5067
796.50 0.5066
796.60 0.5065
796.70 0.5063
796.80 0.5062
796.90 0.5061
797.00 0.5059
797.10 0.5058
797.20 0.5057
797.30 0.5056
797.40 0.5054
797.50 0.5053
797.60 0.5052
797.70 0.5051
797.80 0.5049
797.90 0.5048
798.00 0.5047
798.10 0.5045
798.20 0.5044
798.30 0.5043
798.40 0.5042
798.50 0.504
798.60 0.5039
798.70 0.5038
798.80 0.5037
798.90 0.5035
799.00 0.5034
799.10 0.5033
799.20 0.5031
799.30 0.503
799.40 0.5029
799.50 0.5028
799.60 0.5026
799.70 0.5025
799.80 0.5024
799.90 0.5023
800.00 0.5021
800.10 0.502
800.20 0.5019
800.30 0.5017
800.40 0.5016
800.50 0.5015
800.60 0.5014
800.70 0.5012
800.80 0.5011
800.90 0.501
801.00 0.5009
801.10 0.5007
801.20 0.5006
801.30 0.5005
801.40 0.5003
801.50 0.5002
801.60 0.5001
801.70 0.5
801.80 0.4998
801.90 0.4997
802.00 0.4996
802.10 0.4995
802.20 0.4993
802.30 0.4992
802.40 0.4991
802.50 0.499
802.60 0.4988
802.70 0.4987
802.80 0.4986
802.90 0.4985
803.00 0.4983
803.10 0.4982
803.20 0.4981
803.30 0.4979
803.40 0.4978
803.50 0.4977
803.60 0.4976
803.70 0.4974
803.80 0.4973
803.90 0.4972
804.00 0.4971
804.10 0.4969
804.20 0.4968
804.30 0.4967
804.40 0.4966
804.50 0.4964
804.60 0.4963
804.70 0.4962
804.80 0.4961
804.90 0.4959
805.00 0.4958
805.10 0.4957
805.20 0.4956
805.30 0.4954
805.40 0.4953
805.50 0.4952
805.60 0.4951
805.70 0.4949
805.80 0.4948
805.90 0.4947
806.00 0.4946
806.10 0.4944
806.20 0.4943
806.30 0.4942
806.40 0.4941
806.50 0.4939
806.60 0.4938
806.70 0.4937
806.80 0.4936
806.90 0.4934
807.00 0.4933
807.10 0.4932
807.20 0.4931
807.30 0.4929
807.40 0.4928
807.50 0.4927
807.60 0.4926
807.70 0.4924
807.80 0.4923
807.90 0.4922
808.00 0.4921
808.10 0.4919
808.20 0.4918
808.30 0.4917
808.40 0.4916
808.50 0.4915
808.60 0.4913
808.70 0.4912
808.80 0.4911
808.90 0.491
809.00 0.4908
809.10 0.4907
809.20 0.4906
809.30 0.4905
809.40 0.4903
809.50 0.4902
809.60 0.4901
809.70 0.49
809.80 0.4899
809.90 0.4897
810.00 0.4896
810.10 0.4895
810.20 0.4894
810.30 0.4892
810.40 0.4891
810.50 0.489
810.60 0.4889
810.70 0.4887
810.80 0.4886
810.90 0.4885
811.00 0.4884
811.10 0.4882
811.20 0.4881
811.30 0.488
811.40 0.4879
811.50 0.4877
811.60 0.4876
811.70 0.4875
811.80 0.4874
811.90 0.4873
812.00 0.4871
812.10 0.487
812.20 0.4869
812.30 0.4868
812.40 0.4866
812.50 0.4865
812.60 0.4864
812.70 0.4863
812.80 0.4861
812.90 0.486
813.00 0.4859
813.10 0.4858
813.20 0.4857
813.30 0.4855
813.40 0.4854
813.50 0.4853
813.60 0.4852
813.70 0.485
813.80 0.4849
813.90 0.4848
814.00 0.4847
814.10 0.4846
814.20 0.4844
814.30 0.4843
814.40 0.4842
814.50 0.4841
814.60 0.4839
814.70 0.4838
814.80 0.4837
814.90 0.4836
815.00 0.4835
815.10 0.4833
815.20 0.4832
815.30 0.4831
815.40 0.483
815.50 0.4828
815.60 0.4827
815.70 0.4826
815.80 0.4825
815.90 0.4824
816.00 0.4822
816.10 0.4821
816.20 0.482
816.30 0.4819
816.40 0.4818
816.50 0.4816
816.60 0.4815
816.70 0.4814
816.80 0.4813
816.90 0.4811
817.00 0.481
817.10 0.4809
817.20 0.4808
817.30 0.4807
817.40 0.4805
817.50 0.4804
817.60 0.4803
817.70 0.4802
817.80 0.4801
817.90 0.4799
818.00 0.4798
818.10 0.4797
818.20 0.4796
818.30 0.4795
818.40 0.4793
818.50 0.4792
818.60 0.4791
818.70 0.479
818.80 0.4789
818.90 0.4787
819.00 0.4786
819.10 0.4785
819.20 0.4784
819.30 0.4783
819.40 0.4781
819.50 0.478
819.60 0.4779
819.70 0.4778
819.80 0.4777
819.90 0.4775
820.00 0.4774
820.10 0.4773
820.20 0.4772
820.30 0.4771
820.40 0.4769
820.50 0.4768
820.60 0.4767
820.70 0.4766
820.80 0.4765
820.90 0.4763
821.00 0.4762
821.10 0.4761
821.20 0.476
821.30 0.4759
821.40 0.4757
821.50 0.4756
821.60 0.4755
821.70 0.4754
821.80 0.4753
821.90 0.4751
822.00 0.475
822.10 0.4749
822.20 0.4748
822.30 0.4747
822.40 0.4745
822.50 0.4744
822.60 0.4743
822.70 0.4742
822.80 0.4741
822.90 0.4739
823.00 0.4738
823.10 0.4737
823.20 0.4736
823.30 0.4735
823.40 0.4733
823.50 0.4732
823.60 0.4731
823.70 0.473
823.80 0.4729
823.90 0.4727
824.00 0.4726
824.10 0.4725
824.20 0.4724
824.30 0.4723
824.40 0.4721
824.50 0.472
824.60 0.4719
824.70 0.4718
824.80 0.4717
824.90 0.4715
825.00 0.4714
825.10 0.4713
825.20 0.4712
825.30 0.4711
825.40 0.4709
825.50 0.4708
825.60 0.4707
825.70 0.4706
825.80 0.4705
825.90 0.4704
826.00 0.4702
826.10 0.4701
826.20 0.47
826.30 0.4699
826.40 0.4698
826.50 0.4696
826.60 0.4695
826.70 0.4694
826.80 0.4693
826.90 0.4692
827.00 0.4691
827.10 0.4689
827.20 0.4688
827.30 0.4687
827.40 0.4686
827.50 0.4685
827.60 0.4683
827.70 0.4682
827.80 0.4681
827.90 0.468
828.00 0.4679
828.10 0.4677
828.20 0.4676
828.30 0.4675
828.40 0.4674
828.50 0.4673
828.60 0.4672
828.70 0.467
828.80 0.4669
828.90 0.4668
829.00 0.4667
829.10 0.4666
829.20 0.4664
829.30 0.4663
829.40 0.4662
829.50 0.4661
829.60 0.466
829.70 0.4659
829.80 0.4657
829.90 0.4656
830.00 0.4655
830.10 0.4654
830.20 0.4653
830.30 0.4651
830.40 0.465
830.50 0.4649
830.60 0.4648
830.70 0.4647
830.80 0.4646
830.90 0.4644
831.00 0.4643
831.10 0.4642
831.20 0.4641
831.30 0.464
831.40 0.4639
831.50 0.4637
831.60 0.4636
831.70 0.4635
831.80 0.4634
831.90 0.4633
832.00 0.4632
832.10 0.463
832.20 0.4629
832.30 0.4628
832.40 0.4627
832.50 0.4626
832.60 0.4625
832.70 0.4623
832.80 0.4622
832.90 0.4621
833.00 0.462
833.10 0.4619
833.20 0.4618
833.30 0.4616
833.40 0.4615
833.50 0.4614
833.60 0.4613
833.70 0.4612
833.80 0.4611
833.90 0.4609
834.00 0.4608
834.10 0.4607
834.20 0.4606
834.30 0.4605
834.40 0.4604
834.50 0.4603
834.60 0.4601
834.70 0.46
834.80 0.4599
834.90 0.4598
835.00 0.4597
835.10 0.4596
835.20 0.4594
835.30 0.4593
835.40 0.4592
835.50 0.4591
835.60 0.459
835.70 0.4589
835.80 0.4587
835.90 0.4586
836.00 0.4585
836.10 0.4584
836.20 0.4583
836.30 0.4582
836.40 0.4581
836.50 0.4579
836.60 0.4578
836.70 0.4577
836.80 0.4576
836.90 0.4575
837.00 0.4574
837.10 0.4573
837.20 0.4571
837.30 0.457
837.40 0.4569
837.50 0.4568
837.60 0.4567
837.70 0.4566
837.80 0.4564
837.90 0.4563
838.00 0.4562
838.10 0.4561
838.20 0.456
838.30 0.4559
838.40 0.4558
838.50 0.4556
838.60 0.4555
838.70 0.4554
838.80 0.4553
838.90 0.4552
839.00 0.4551
839.10 0.455
839.20 0.4548
839.30 0.4547
839.40 0.4546
839.50 0.4545
839.60 0.4544
839.70 0.4543
839.80 0.4542
839.90 0.454
840.00 0.4539
840.10 0.4538
840.20 0.4537
840.30 0.4536
840.40 0.4535
840.50 0.4534
840.60 0.4532
840.70 0.4531
840.80 0.453
840.90 0.4529
841.00 0.4528
841.10 0.4527
841.20 0.4526
841.30 0.4524
841.40 0.4523
841.50 0.4522
841.60 0.4521
841.70 0.452
841.80 0.4519
841.90 0.4518
842.00 0.4516
842.10 0.4515
842.20 0.4514
842.30 0.4513
842.40 0.4512
842.50 0.4511
842.60 0.451
842.70 0.4509
842.80 0.4507
842.90 0.4506
843.00 0.4505
843.10 0.4504
843.20 0.4503
843.30 0.4502
843.40 0.4501
843.50 0.4499
843.60 0.4498
843.70 0.4497
843.80 0.4496
843.90 0.4495
844.00 0.4494
844.10 0.4493
844.20 0.4491
844.30 0.449
844.40 0.4489
844.50 0.4488
844.60 0.4487
844.70 0.4486
844.80 0.4485
844.90 0.4484
845.00 0.4482
845.10 0.4481
845.20 0.448
845.30 0.4479
845.40 0.4478
845.50 0.4477
845.60 0.4476
845.70 0.4475
845.80 0.4473
845.90 0.4472
846.00 0.4471
846.10 0.447
846.20 0.4469
846.30 0.4468
846.40 0.4467
846.50 0.4466
846.60 0.4464
846.70 0.4463
846.80 0.4462
846.90 0.4461
847.00 0.446
847.10 0.4459
847.20 0.4458
847.30 0.4457
847.40 0.4455
847.50 0.4454
847.60 0.4453
847.70 0.4452
847.80 0.4451
847.90 0.445
848.00 0.4449
848.10 0.4448
848.20 0.4447
848.30 0.4445
848.40 0.4444
848.50 0.4443
848.60 0.4442
848.70 0.4441
848.80 0.444
848.90 0.4439
849.00 0.4438
849.10 0.4436
849.20 0.4435
849.30 0.4434
849.40 0.4433
849.50 0.4432
849.60 0.4431
849.70 0.443
849.80 0.4429
849.90 0.4428
850.00 0.4426
850.10 0.4425
850.20 0.4424
850.30 0.4423
850.40 0.4422
850.50 0.4421
850.60 0.442
850.70 0.4419
850.80 0.4418
850.90 0.4417
851.00 0.4415
851.10 0.4414
851.20 0.4413
851.30 0.4412
851.40 0.4411
851.50 0.441
851.60 0.4409
851.70 0.4408
851.80 0.4407
851.90 0.4406
852.00 0.4404
852.10 0.4403
852.20 0.4402
852.30 0.4401
852.40 0.44
852.50 0.4399
852.60 0.4398
852.70 0.4397
852.80 0.4396
852.90 0.4394
853.00 0.4393
853.10 0.4392
853.20 0.4391
853.30 0.439
853.40 0.4389
853.50 0.4388
853.60 0.4387
853.70 0.4386
853.80 0.4385
853.90 0.4383
854.00 0.4382
854.10 0.4381
854.20 0.438
854.30 0.4379
854.40 0.4378
854.50 0.4377
854.60 0.4376
854.70 0.4375
854.80 0.4374
854.90 0.4372
855.00 0.4371
855.10 0.437
855.20 0.4369
855.30 0.4368
855.40 0.4367
855.50 0.4366
855.60 0.4365
855.70 0.4364
855.80 0.4363
855.90 0.4361
856.00 0.436
856.10 0.4359
856.20 0.4358
856.30 0.4357
856.40 0.4356
856.50 0.4355
856.60 0.4354
856.70 0.4353
856.80 0.4352
856.90 0.4351
857.00 0.4349
857.10 0.4348
857.20 0.4347
857.30 0.4346
857.40 0.4345
857.50 0.4344
857.60 0.4343
857.70 0.4342
857.80 0.4341
857.90 0.434
858.00 0.4339
858.10 0.4338
858.20 0.4336
858.30 0.4335
858.40 0.4334
858.50 0.4333
858.60 0.4332
858.70 0.4331
858.80 0.433
858.90 0.4329
859.00 0.4328
859.10 0.4327
859.20 0.4326
859.30 0.4325
859.40 0.4323
859.50 0.4322
859.60 0.4321
859.70 0.432
859.80 0.4319
859.90 0.4318
860.00 0.4317
860.10 0.4316
860.20 0.4315
860.30 0.4314
860.40 0.4313
860.50 0.4312
860.60 0.4311
860.70 0.4309
860.80 0.4308
860.90 0.4307
861.00 0.4306
861.10 0.4305
861.20 0.4304
861.30 0.4303
861.40 0.4302
861.50 0.4301
861.60 0.43
861.70 0.4299
861.80 0.4298
861.90 0.4297
862.00 0.4296
862.10 0.4294
862.20 0.4293
862.30 0.4292
862.40 0.4291
862.50 0.429
862.60 0.4289
862.70 0.4288
862.80 0.4287
862.90 0.4286
863.00 0.4285
863.10 0.4284
863.20 0.4283
863.30 0.4281
863.40 0.428
863.50 0.4279
863.60 0.4278
863.70 0.4277
863.80 0.4276
863.90 0.4275
864.00 0.4274
864.10 0.4273
864.20 0.4272
864.30 0.4271
864.40 0.427
864.50 0.4269
864.60 0.4267
864.70 0.4266
864.80 0.4265
864.90 0.4264
865.00 0.4263
865.10 0.4262
865.20 0.4261
865.30 0.426
865.40 0.4259
865.50 0.4258
865.60 0.4257
865.70 0.4256
865.80 0.4255
865.90 0.4254
866.00 0.4252
866.10 0.4251
866.20 0.425
866.30 0.4249
866.40 0.4248
866.50 0.4247
866.60 0.4246
866.70 0.4245
866.80 0.4244
866.90 0.4243
867.00 0.4242
867.10 0.4241
867.20 0.424
867.30 0.4239
867.40 0.4238
867.50 0.4237
867.60 0.4235
867.70 0.4234
867.80 0.4233
867.90 0.4232
868.00 0.4231
868.10 0.423
868.20 0.4229
868.30 0.4228
868.40 0.4227
868.50 0.4226
868.60 0.4225
868.70 0.4224
868.80 0.4223
868.90 0.4222
869.00 0.4221
869.10 0.422
869.20 0.4219
869.30 0.4218
869.40 0.4217
869.50 0.4215
869.60 0.4214
869.70 0.4213
869.80 0.4212
869.90 0.4211
870.00 0.421
870.10 0.4209
870.20 0.4208
870.30 0.4207
870.40 0.4206
870.50 0.4205
870.60 0.4204
870.70 0.4203
870.80 0.4202
870.90 0.4201
871.00 0.42
871.10 0.4199
871.20 0.4198
871.30 0.4197
871.40 0.4196
871.50 0.4195
871.60 0.4194
871.70 0.4193
871.80 0.4191
871.90 0.419
872.00 0.4189
872.10 0.4188
872.20 0.4187
872.30 0.4186
872.40 0.4185
872.50 0.4184
872.60 0.4183
872.70 0.4182
872.80 0.4181
872.90 0.418
873.00 0.4179
873.10 0.4178
873.20 0.4177
873.30 0.4176
873.40 0.4175
873.50 0.4174
873.60 0.4173
873.70 0.4172
873.80 0.4171
873.90 0.4169
874.00 0.4168
874.10 0.4167
874.20 0.4166
874.30 0.4165
874.40 0.4164
874.50 0.4163
874.60 0.4162
874.70 0.4161
874.80 0.416
874.90 0.4159
875.00 0.4158
875.10 0.4157
875.20 0.4156
875.30 0.4155
875.40 0.4154
875.50 0.4153
875.60 0.4152
875.70 0.4151
875.80 0.415
875.90 0.4149
876.00 0.4148
876.10 0.4147
876.20 0.4146
876.30 0.4144
876.40 0.4143
876.50 0.4142
876.60 0.4141
876.70 0.414
876.80 0.4139
876.90 0.4138
877.00 0.4137
877.10 0.4136
877.20 0.4135
877.30 0.4134
877.40 0.4133
877.50 0.4132
877.60 0.4131
877.70 0.413
877.80 0.4129
877.90 0.4128
878.00 0.4127
878.10 0.4126
878.20 0.4125
878.30 0.4124
878.40 0.4123
878.50 0.4122
878.60 0.4121
878.70 0.412
878.80 0.4119
878.90 0.4118
879.00 0.4117
879.10 0.4116
879.20 0.4115
879.30 0.4114
879.40 0.4112
879.50 0.4111
879.60 0.411
879.70 0.4109
879.80 0.4108
879.90 0.4107
880.00 0.4106
880.10 0.4105
880.20 0.4104
880.30 0.4103
880.40 0.4102
880.50 0.4101
880.60 0.41
880.70 0.4099
880.80 0.4098
880.90 0.4097
881.00 0.4096
881.10 0.4095
881.20 0.4094
881.30 0.4093
881.40 0.4092
881.50 0.4091
881.60 0.409
881.70 0.4089
881.80 0.4088
881.90 0.4087
882.00 0.4086
882.10 0.4085
882.20 0.4084
882.30 0.4083
882.40 0.4082
882.50 0.4081
882.60 0.408
882.70 0.4079
882.80 0.4078
882.90 0.4077
883.00 0.4076
883.10 0.4075
883.20 0.4074
883.30 0.4073
883.40 0.4072
883.50 0.4071
883.60 0.407
883.70 0.4069
883.80 0.4068
883.90 0.4067
884.00 0.4066
884.10 0.4065
884.20 0.4064
884.30 0.4063
884.40 0.4062
884.50 0.4061
884.60 0.406
884.70 0.4059
884.80 0.4058
884.90 0.4057
885.00 0.4056
885.10 0.4055
885.20 0.4054
885.30 0.4053
885.40 0.4052
885.50 0.4051
885.60 0.405
885.70 0.4049
885.80 0.4048
885.90 0.4047
886.00 0.4046
886.10 0.4045
886.20 0.4044
886.30 0.4043
886.40 0.4042
886.50 0.4041
886.60 0.404
886.70 0.4039
886.80 0.4038
886.90 0.4037
887.00 0.4036
887.10 0.4035
887.20 0.4034
887.30 0.4033
887.40 0.4032
887.50 0.4031
887.60 0.4029
887.70 0.4028
887.80 0.4027
887.90 0.4026
888.00 0.4025
888.10 0.4024
888.20 0.4023
888.30 0.4022
888.40 0.4021
888.50 0.402
888.60 0.4019
888.70 0.4018
888.80 0.4017
888.90 0.4016
889.00 0.4015
889.10 0.4014
889.20 0.4013
889.30 0.4012
889.40 0.4011
889.50 0.401
889.60 0.4009
889.70 0.4008
889.80 0.4007
889.90 0.4006
890.00 0.4006
890.10 0.4005
890.20 0.4004
890.30 0.4003
890.40 0.4002
890.50 0.4001
890.60 0.4
890.70 0.3999
890.80 0.3998
890.90 0.3997
891.00 0.3996
891.10 0.3995
891.20 0.3994
891.30 0.3993
891.40 0.3992
891.50 0.3991
891.60 0.399
891.70 0.3989
891.80 0.3988
891.90 0.3987
892.00 0.3986
892.10 0.3985
892.20 0.3984
892.30 0.3983
892.40 0.3982
892.50 0.3981
892.60 0.398
892.70 0.3979
892.80 0.3978
892.90 0.3977
893.00 0.3976
893.10 0.3975
893.20 0.3974
893.30 0.3973
893.40 0.3972
893.50 0.3971
893.60 0.397
893.70 0.3969
893.80 0.3968
893.90 0.3967
894.00 0.3966
894.10 0.3965
894.20 0.3964
894.30 0.3963
894.40 0.3962
894.50 0.3961
894.60 0.396
894.70 0.3959
894.80 0.3958
894.90 0.3957
895.00 0.3956
895.10 0.3955
895.20 0.3954
895.30 0.3953
895.40 0.3952
895.50 0.3951
895.60 0.395
895.70 0.3949
895.80 0.3948
895.90 0.3947
896.00 0.3946
896.10 0.3945
896.20 0.3944
896.30 0.3943
896.40 0.3942
896.50 0.3942
896.60 0.3941
896.70 0.394
896.80 0.3939
896.90 0.3938
897.00 0.3937
897.10 0.3936
897.20 0.3935
897.30 0.3934
897.40 0.3933
897.50 0.3932
897.60 0.3931
897.70 0.393
897.80 0.3929
897.90 0.3928
898.00 0.3927
898.10 0.3926
898.20 0.3925
898.30 0.3924
898.40 0.3923
898.50 0.3922
898.60 0.3921
898.70 0.392
898.80 0.3919
898.90 0.3918
899.00 0.3917
899.10 0.3916
899.20 0.3915
899.30 0.3914
899.40 0.3913
899.50 0.3912
899.60 0.3911
899.70 0.391
899.80 0.3909
899.90 0.3908
900.00 0.3907
900.10 0.3906
900.20 0.3905
900.30 0.3904
900.40 0.3903
900.50 0.3902
900.60 0.3901
900.70 0.39
900.80 0.3899
900.90 0.3898
901.00 0.3898
901.10 0.3897
901.20 0.3896
901.30 0.3895
901.40 0.3894
901.50 0.3893
901.60 0.3892
901.70 0.3891
901.80 0.389
901.90 0.3889
902.00 0.3888
902.10 0.3887
902.20 0.3886
902.30 0.3885
902.40 0.3884
902.50 0.3883
902.60 0.3882
902.70 0.3881
902.80 0.388
902.90 0.3879
903.00 0.3878
903.10 0.3877
903.20 0.3876
903.30 0.3875
903.40 0.3874
903.50 0.3874
903.60 0.3873
903.70 0.3872
903.80 0.3871
903.90 0.387
904.00 0.3869
904.10 0.3868
904.20 0.3867
904.30 0.3866
904.40 0.3865
904.50 0.3864
904.60 0.3863
904.70 0.3862
904.80 0.3861
904.90 0.386
905.00 0.3859
905.10 0.3858
905.20 0.3857
905.30 0.3856
905.40 0.3856
905.50 0.3855
905.60 0.3854
905.70 0.3853
905.80 0.3852
905.90 0.3851
906.00 0.385
906.10 0.3849
906.20 0.3848
906.30 0.3847
906.40 0.3846
906.50 0.3845
906.60 0.3844
906.70 0.3843
906.80 0.3842
906.90 0.3841
907.00 0.384
907.10 0.384
907.20 0.3839
907.30 0.3838
907.40 0.3837
907.50 0.3836
907.60 0.3835
907.70 0.3834
907.80 0.3833
907.90 0.3832
908.00 0.3831
908.10 0.383
908.20 0.3829
908.30 0.3828
908.40 0.3827
908.50 0.3826
908.60 0.3825
908.70 0.3824
908.80 0.3823
908.90 0.3822
909.00 0.3822
909.10 0.3821
909.20 0.382
909.30 0.3819
909.40 0.3818
909.50 0.3817
909.60 0.3816
909.70 0.3815
909.80 0.3814
909.90 0.3813
910.00 0.3812
910.10 0.3811
910.20 0.381
910.30 0.3809
910.40 0.3808
910.50 0.3807
910.60 0.3806
910.70 0.3805
910.80 0.3805
910.90 0.3804
911.00 0.3803
911.10 0.3802
911.20 0.3801
911.30 0.38
911.40 0.3799
911.50 0.3798
911.60 0.3797
911.70 0.3796
911.80 0.3795
911.90 0.3794
912.00 0.3793
912.10 0.3792
912.20 0.3791
912.30 0.379
912.40 0.379
912.50 0.3789
912.60 0.3788
912.70 0.3787
912.80 0.3786
912.90 0.3785
913.00 0.3784
913.10 0.3783
913.20 0.3782
913.30 0.3781
913.40 0.378
913.50 0.3779
913.60 0.3778
913.70 0.3777
913.80 0.3776
913.90 0.3776
914.00 0.3775
914.10 0.3774
914.20 0.3773
914.30 0.3772
914.40 0.3771
914.50 0.377
914.60 0.3769
914.70 0.3768
914.80 0.3767
914.90 0.3766
915.00 0.3765
915.10 0.3764
915.20 0.3764
915.30 0.3763
915.40 0.3762
915.50 0.3761
915.60 0.376
915.70 0.3759
915.80 0.3758
915.90 0.3757
916.00 0.3756
916.10 0.3755
916.20 0.3754
916.30 0.3753
916.40 0.3752
916.50 0.3751
916.60 0.3751
916.70 0.375
916.80 0.3749
916.90 0.3748
917.00 0.3747
917.10 0.3746
917.20 0.3745
917.30 0.3744
917.40 0.3743
917.50 0.3742
917.60 0.3741
917.70 0.374
917.80 0.3739
917.90 0.3738
918.00 0.3737
918.10 0.3736
918.20 0.3735
918.30 0.3734
918.40 0.3733
918.50 0.3732
918.60 0.3731
918.70 0.373
918.80 0.3729
918.90 0.3728
919.00 0.3728
919.10 0.3727
919.20 0.3726
919.30 0.3725
919.40 0.3724
919.50 0.3723
919.60 0.3722
919.70 0.3721
919.80 0.372
919.90 0.3719
920.00 0.3718
920.10 0.3717
920.20 0.3716
920.30 0.3715
920.40 0.3714
920.50 0.3713
920.60 0.3712
920.70 0.3711
920.80 0.371
920.90 0.3709
921.00 0.3708
921.10 0.3707
921.20 0.3706
921.30 0.3705
921.40 0.3704
921.50 0.3704
921.60 0.3703
921.70 0.3702
921.80 0.3701
921.90 0.37
922.00 0.3699
922.10 0.3698
922.20 0.3697
922.30 0.3696
922.40 0.3695
922.50 0.3694
922.60 0.3694
922.70 0.3693
922.80 0.3692
922.90 0.3691
923.00 0.369
923.10 0.3689
923.20 0.3688
923.30 0.3688
923.40 0.3687
923.50 0.3686
923.60 0.3685
923.70 0.3684
923.80 0.3683
923.90 0.3682
924.00 0.3681
924.10 0.3681
924.20 0.368
924.30 0.3679
924.40 0.3678
924.50 0.3677
924.60 0.3676
924.70 0.3675
924.80 0.3675
924.90 0.3674
925.00 0.3673
925.10 0.3672
925.20 0.3671
925.30 0.367
925.40 0.3669
925.50 0.3669
925.60 0.3668
925.70 0.3667
925.80 0.3666
925.90 0.3665
926.00 0.3664
926.10 0.3663
926.20 0.3663
926.30 0.3662
926.40 0.3661
926.50 0.366
926.60 0.3659
926.70 0.3658
926.80 0.3658
926.90 0.3657
927.00 0.3656
927.10 0.3655
927.20 0.3654
927.30 0.3653
927.40 0.3652
927.50 0.3651
927.60 0.365
927.70 0.365
927.80 0.3649
927.90 0.3648
928.00 0.3647
928.10 0.3646
928.20 0.3645
928.30 0.3644
928.40 0.3643
928.50 0.3642
928.60 0.3642
928.70 0.3641
928.80 0.364
928.90 0.3639
929.00 0.3638
929.10 0.3637
929.20 0.3636
929.30 0.3635
929.40 0.3634
929.50 0.3634
929.60 0.3633
929.70 0.3632
929.80 0.3631
929.90 0.363
930.00 0.3629
930.10 0.3628
930.20 0.3627
930.30 0.3626
930.40 0.3626
930.50 0.3625
930.60 0.3624
930.70 0.3623
930.80 0.3622
930.90 0.3621
931.00 0.362
931.10 0.3619
931.20 0.3618
931.30 0.3618
931.40 0.3617
931.50 0.3616
931.60 0.3615
931.70 0.3614
931.80 0.3613
931.90 0.3612
932.00 0.3611
932.10 0.3611
932.20 0.361
932.30 0.3609
932.40 0.3608
932.50 0.3607
932.60 0.3606
932.70 0.3605
932.80 0.3604
932.90 0.3603
933.00 0.3603
933.10 0.3602
933.20 0.3601
933.30 0.36
933.40 0.3599
933.50 0.3598
933.60 0.3597
933.70 0.3596
933.80 0.3596
933.90 0.3595
934.00 0.3594
934.10 0.3593
934.20 0.3592
934.30 0.3591
934.40 0.359
934.50 0.3589
934.60 0.3589
934.70 0.3588
934.80 0.3587
934.90 0.3586
935.00 0.3585
935.10 0.3584
935.20 0.3583
935.30 0.3582
935.40 0.3581
935.50 0.3581
935.60 0.358
935.70 0.3579
935.80 0.3578
935.90 0.3577
936.00 0.3576
936.10 0.3575
936.20 0.3574
936.30 0.3574
936.40 0.3573
936.50 0.3572
936.60 0.3571
936.70 0.357
936.80 0.3569
936.90 0.3568
937.00 0.3567
937.10 0.3567
937.20 0.3566
937.30 0.3565
937.40 0.3564
937.50 0.3563
937.60 0.3562
937.70 0.3561
937.80 0.3561
937.90 0.356
938.00 0.3559
938.10 0.3558
938.20 0.3557
938.30 0.3556
938.40 0.3555
938.50 0.3555
938.60 0.3554
938.70 0.3553
938.80 0.3552
938.90 0.3551
939.00 0.355
939.10 0.3549
939.20 0.3548
939.30 0.3548
939.40 0.3547
939.50 0.3546
939.60 0.3545
939.70 0.3544
939.80 0.3543
939.90 0.3542
940.00 0.3541
940.10 0.3541
940.20 0.354
940.30 0.3539
940.40 0.3538
940.50 0.3537
940.60 0.3536
940.70 0.3535
940.80 0.3534
940.90 0.3534
941.00 0.3533
941.10 0.3532
941.20 0.3531
941.30 0.353
941.40 0.3529
941.50 0.3528
941.60 0.3528
941.70 0.3527
941.80 0.3526
941.90 0.3525
942.00 0.3524
942.10 0.3523
942.20 0.3522
942.30 0.3522
942.40 0.3521
942.50 0.352
942.60 0.3519
942.70 0.3518
942.80 0.3517
942.90 0.3517
943.00 0.3516
943.10 0.3515
943.20 0.3514
943.30 0.3513
943.40 0.3512
943.50 0.3511
943.60 0.3511
943.70 0.351
943.80 0.3509
943.90 0.3508
944.00 0.3507
944.10 0.3506
944.20 0.3505
944.30 0.3505
944.40 0.3504
944.50 0.3503
944.60 0.3502
944.70 0.3501
944.80 0.35
944.90 0.3499
945.00 0.3499
945.10 0.3498
945.20 0.3497
945.30 0.3496
945.40 0.3495
945.50 0.3494
945.60 0.3493
945.70 0.3493
945.80 0.3492
945.90 0.3491
946.00 0.349
946.10 0.3489
946.20 0.3488
946.30 0.3487
946.40 0.3486
946.50 0.3486
946.60 0.3485
946.70 0.3484
946.80 0.3483
946.90 0.3482
947.00 0.3481
947.10 0.3481
947.20 0.348
947.30 0.3479
947.40 0.3478
947.50 0.3477
947.60 0.3476
947.70 0.3475
947.80 0.3475
947.90 0.3474
948.00 0.3473
948.10 0.3472
948.20 0.3471
948.30 0.347
948.40 0.3469
948.50 0.3469
948.60 0.3468
948.70 0.3467
948.80 0.3466
948.90 0.3465
949.00 0.3464
949.10 0.3463
949.20 0.3463
949.30 0.3462
949.40 0.3461
949.50 0.346
949.60 0.3459
949.70 0.3458
949.80 0.3457
949.90 0.3457
950.00 0.3456
950.10 0.3455
950.20 0.3454
950.30 0.3453
950.40 0.3452
950.50 0.3451
950.60 0.345
950.70 0.345
950.80 0.3449
950.90 0.3448
951.00 0.3447
951.10 0.3446
951.20 0.3445
951.30 0.3444
951.40 0.3443
951.50 0.3442
951.60 0.3441
951.70 0.3441
951.80 0.344
951.90 0.3439
952.00 0.3438
952.10 0.3437
952.20 0.3436
952.30 0.3435
952.40 0.3433
952.50 0.3432
952.60 0.3431
952.70 0.343
952.80 0.3429
952.90 0.3428
953.00 0.3427
953.10 0.3426
953.20 0.3425
953.30 0.3423
953.40 0.3422
953.50 0.3421
953.60 0.342
953.70 0.3418
953.80 0.3417
953.90 0.3416
954.00 0.3414
954.10 0.3412
954.20 0.3411
954.30 0.341
954.40 0.3409
954.50 0.3409
954.60 0.3409
954.70 0.3409
954.80 0.3409
954.90 0.3408
955.00 0.3408
955.10 0.3408
955.20 0.3407
955.30 0.3407
955.40 0.3406
955.50 0.3406
955.60 0.3405
955.70 0.3405
955.80 0.3405
955.90 0.3404
956.00 0.3403
956.10 0.3403
956.20 0.3402
956.30 0.3401
956.40 0.3401
956.50 0.34
956.60 0.3399
956.70 0.3399
956.80 0.3398
956.90 0.3397
957.00 0.3397
957.10 0.3396
957.20 0.3395
957.30 0.3394
957.40 0.3394
957.50 0.3393
957.60 0.3392
957.70 0.3391
957.80 0.3391
957.90 0.339
958.00 0.3389
958.10 0.3388
958.20 0.3387
958.30 0.3387
958.40 0.3386
958.50 0.3385
958.60 0.3384
958.70 0.3384
958.80 0.3383
958.90 0.3382
959.00 0.3381
959.10 0.338
959.20 0.338
959.30 0.3379
959.40 0.3378
959.50 0.3377
959.60 0.3376
959.70 0.3376
959.80 0.3375
959.90 0.3374
960.00 0.3373
960.10 0.3372
960.20 0.3372
960.30 0.3371
960.40 0.337
960.50 0.3369
960.60 0.3368
960.70 0.3368
960.80 0.3367
960.90 0.3366
961.00 0.3365
961.10 0.3364
961.20 0.3364
961.30 0.3363
961.40 0.3362
961.50 0.3361
961.60 0.336
961.70 0.3359
961.80 0.3359
961.90 0.3358
962.00 0.3357
962.10 0.3356
962.20 0.3355
962.30 0.3355
962.40 0.3354
962.50 0.3353
962.60 0.3352
962.70 0.3351
962.80 0.3351
962.90 0.335
963.00 0.3349
963.10 0.3348
963.20 0.3347
963.30 0.3346
963.40 0.3346
963.50 0.3345
963.60 0.3344
963.70 0.3343
963.80 0.3342
963.90 0.3342
964.00 0.3341
964.10 0.334
964.20 0.3339
964.30 0.3338
964.40 0.3338
964.50 0.3337
964.60 0.3336
964.70 0.3335
964.80 0.3334
964.90 0.3334
965.00 0.3333
965.10 0.3332
965.20 0.3331
965.30 0.333
965.40 0.3329
965.50 0.3329
965.60 0.3328
965.70 0.3327
965.80 0.3326
965.90 0.3325
966.00 0.3325
966.10 0.3324
966.20 0.3323
966.30 0.3322
966.40 0.3321
966.50 0.3321
966.60 0.332
966.70 0.3319
966.80 0.3318
966.90 0.3318
967.00 0.3317
967.10 0.3316
967.20 0.3315
967.30 0.3314
967.40 0.3314
967.50 0.3313
967.60 0.3312
967.70 0.3311
967.80 0.3311
967.90 0.331
968.00 0.3309
968.10 0.3308
968.20 0.3307
968.30 0.3307
968.40 0.3306
968.50 0.3305
968.60 0.3304
968.70 0.3303
968.80 0.3303
968.90 0.3302
969.00 0.3301
969.10 0.33
969.20 0.3299
969.30 0.3299
969.40 0.3298
969.50 0.3297
969.60 0.3296
969.70 0.3295
969.80 0.3295
969.90 0.3294
970.00 0.3293
970.10 0.3292
970.20 0.3291
970.30 0.3291
970.40 0.329
970.50 0.3289
970.60 0.3288
970.70 0.3287
970.80 0.3287
970.90 0.3286
971.00 0.3285
971.10 0.3284
971.20 0.3283
971.30 0.3283
971.40 0.3282
971.50 0.3281
971.60 0.328
971.70 0.3279
971.80 0.3279
971.90 0.3278
972.00 0.3277
972.10 0.3276
972.20 0.3276
972.30 0.3275
972.40 0.3274
972.50 0.3273
972.60 0.3272
972.70 0.3272
972.80 0.3271
972.90 0.327
973.00 0.3269
973.10 0.3268
973.20 0.3268
973.30 0.3267
973.40 0.3266
973.50 0.3265
973.60 0.3264
973.70 0.3264
973.80 0.3263
973.90 0.3262
974.00 0.3261
974.10 0.326
974.20 0.326
974.30 0.3259
974.40 0.3258
974.50 0.3257
974.60 0.3256
974.70 0.3256
974.80 0.3255
974.90 0.3254
975.00 0.3253
975.10 0.3253
975.20 0.3252
975.30 0.3251
975.40 0.325
975.50 0.3249
975.60 0.3249
975.70 0.3248
975.80 0.3247
975.90 0.3246
976.00 0.3246
976.10 0.3245
976.20 0.3244
976.30 0.3243
976.40 0.3242
976.50 0.3242
976.60 0.3241
976.70 0.324
976.80 0.3239
976.90 0.3239
977.00 0.3238
977.10 0.3237
977.20 0.3236
977.30 0.3235
977.40 0.3235
977.50 0.3234
977.60 0.3233
977.70 0.3232
977.80 0.3232
977.90 0.3231
978.00 0.323
978.10 0.3229
978.20 0.3228
978.30 0.3228
978.40 0.3227
978.50 0.3226
978.60 0.3225
978.70 0.3225
978.80 0.3224
978.90 0.3223
979.00 0.3222
979.10 0.3221
979.20 0.3221
979.30 0.322
979.40 0.3219
979.50 0.3218
979.60 0.3218
979.70 0.3217
979.80 0.3216
979.90 0.3215
980.00 0.3215
980.10 0.3214
980.20 0.3213
980.30 0.3212
980.40 0.3211
980.50 0.3211
980.60 0.321
980.70 0.3209
980.80 0.3208
980.90 0.3208
981.00 0.3207
981.10 0.3206
981.20 0.3205
981.30 0.3205
981.40 0.3204
981.50 0.3203
981.60 0.3202
981.70 0.3202
981.80 0.3201
981.90 0.32
982.00 0.3199
982.10 0.3198
982.20 0.3198
982.30 0.3197
982.40 0.3196
982.50 0.3195
982.60 0.3195
982.70 0.3194
982.80 0.3193
982.90 0.3192
983.00 0.3192
983.10 0.3191
983.20 0.319
983.30 0.3189
983.40 0.3188
983.50 0.3188
983.60 0.3187
983.70 0.3186
983.80 0.3185
983.90 0.3185
984.00 0.3184
984.10 0.3183
984.20 0.3182
984.30 0.3182
984.40 0.3181
984.50 0.318
984.60 0.3179
984.70 0.3179
984.80 0.3178
984.90 0.3177
985.00 0.3176
985.10 0.3176
985.20 0.3175
985.30 0.3174
985.40 0.3173
985.50 0.3172
985.60 0.3172
985.70 0.3171
985.80 0.317
985.90 0.3169
986.00 0.3169
986.10 0.3168
986.20 0.3167
986.30 0.3166
986.40 0.3166
986.50 0.3165
986.60 0.3164
986.70 0.3163
986.80 0.3163
986.90 0.3162
987.00 0.3161
987.10 0.316
987.20 0.316
987.30 0.3159
987.40 0.3158
987.50 0.3157
987.60 0.3157
987.70 0.3156
987.80 0.3155
987.90 0.3154
988.00 0.3153
988.10 0.3153
988.20 0.3152
988.30 0.3151
988.40 0.315
988.50 0.315
988.60 0.3149
988.70 0.3148
988.80 0.3147
988.90 0.3147
989.00 0.3146
989.10 0.3145
989.20 0.3144
989.30 0.3144
989.40 0.3143
989.50 0.3142
989.60 0.3141
989.70 0.3141
989.80 0.314
989.90 0.3139
990.00 0.3139
990.10 0.3138
990.20 0.3137
990.30 0.3136
990.40 0.3136
990.50 0.3135
990.60 0.3134
990.70 0.3133
990.80 0.3133
990.90 0.3132
991.00 0.3131
991.10 0.313
991.20 0.313
991.30 0.3129
991.40 0.3128
991.50 0.3127
991.60 0.3127
991.70 0.3126
991.80 0.3125
991.90 0.3124
992.00 0.3124
992.10 0.3123
992.20 0.3122
992.30 0.3121
992.40 0.312
992.50 0.312
992.60 0.3119
992.70 0.3118
992.80 0.3117
992.90 0.3117
993.00 0.3116
993.10 0.3115
993.20 0.3114
993.30 0.3114
993.40 0.3113
993.50 0.3112
993.60 0.3111
993.70 0.3111
993.80 0.311
993.90 0.3109
994.00 0.3108
994.10 0.3108
994.20 0.3107
994.30 0.3106
994.40 0.3105
994.50 0.3105
994.60 0.3104
994.70 0.3103
994.80 0.3103
994.90 0.3102
995.00 0.3101
995.10 0.31
995.20 0.31
995.30 0.3099
995.40 0.3098
995.50 0.3097
995.60 0.3097
995.70 0.3096
995.80 0.3095
995.90 0.3094
996.00 0.3094
996.10 0.3093
996.20 0.3092
996.30 0.3091
996.40 0.3091
996.50 0.309
996.60 0.3089
996.70 0.3089
996.80 0.3088
996.90 0.3087
997.00 0.3086
997.10 0.3086
997.20 0.3085
997.30 0.3084
997.40 0.3083
997.50 0.3083
997.60 0.3082
997.70 0.3081
997.80 0.308
997.90 0.308
998.00 0.3079
998.10 0.3078
998.20 0.3077
998.30 0.3076
998.40 0.3076
998.50 0.3075
998.60 0.3074
998.70 0.3073
998.80 0.3073
998.90 0.3072
999.00 0.3071
999.10 0.307
999.20 0.307
999.30 0.3069
999.40 0.3068
999.50 0.3067
999.60 0.3067
999.70 0.3066
999.80 0.3065
999.90 0.3064
1000.00 0.3063
1000.10 0.3062
1000.20 0.3062
1000.30 0.3061
1000.40 0.306
1000.50 0.3059
1000.60 0.3058
1000.70 0.3058
1000.80 0.3057
1000.90 0.3056
1001.00 0.3055
1001.10 0.3054
1001.20 0.3054
1001.30 0.3053
1001.40 0.3052
1001.50 0.3051
1001.60 0.305
1001.70 0.3049
1001.80 0.3048
1001.90 0.3047
1002.00 0.3046
1002.10 0.3045
1002.20 0.3044
1002.30 0.3043
1002.40 0.3042
1002.50 0.3041
1002.60 0.3039
1002.70 0.3038
1002.80 0.3037
1002.90 0.3036
1003.00 0.3035
1003.10 0.3033
1003.20 0.3032
1003.30 0.303
1003.40 0.3028
1003.50 0.3027
1003.60 0.3025
1003.70 0.3023
1003.80 0.3022
1003.90 0.3019
1004.00 0.3017
1004.10 0.3015
1004.20 0.3013
1004.30 0.301
1004.40 0.3008
1004.50 0.3005
1004.60 0.3003
1004.70 0.3002
1004.80 0.3004
1004.90 0.3005
1005.00 0.3006
1005.10 0.3007
1005.20 0.3008
1005.30 0.3009
1005.40 0.301
1005.50 0.301
1005.60 0.301
1005.70 0.301
1005.80 0.3011
1005.90 0.3011
1006.00 0.3011
1006.10 0.3012
1006.20 0.3011
1006.30 0.3011
1006.40 0.3011
1006.50 0.3011
1006.60 0.3011
1006.70 0.301
1006.80 0.301
1006.90 0.301
1007.00 0.301
1007.10 0.3009
1007.20 0.3009
1007.30 0.3008
1007.40 0.3008
1007.50 0.3007
1007.60 0.3007
1007.70 0.3006
1007.80 0.3006
1007.90 0.3005
1008.00 0.3004
1008.10 0.3004
1008.20 0.3003
1008.30 0.3003
1008.40 0.3002
1008.50 0.3001
1008.60 0.3001
1008.70 0.3
1008.80 0.3
1008.90 0.2999
1009.00 0.2998
1009.10 0.2998
1009.20 0.2997
1009.30 0.2996
1009.40 0.2996
1009.50 0.2995
1009.60 0.2995
1009.70 0.2994
1009.80 0.2993
1009.90 0.2993
1010.00 0.2992
1010.10 0.2991
1010.20 0.2991
1010.30 0.299
1010.40 0.2989
1010.50 0.2989
1010.60 0.2988
1010.70 0.2987
1010.80 0.2986
1010.90 0.2986
1011.00 0.2985
1011.10 0.2984
1011.20 0.2984
1011.30 0.2983
1011.40 0.2982
1011.50 0.2982
1011.60 0.2981
1011.70 0.298
1011.80 0.298
1011.90 0.2979
1012.00 0.2978
1012.10 0.2977
1012.20 0.2977
1012.30 0.2976
1012.40 0.2975
1012.50 0.2975
1012.60 0.2974
1012.70 0.2973
1012.80 0.2973
1012.90 0.2972
1013.00 0.2971
1013.10 0.2971
1013.20 0.297
1013.30 0.2969
1013.40 0.2969
1013.50 0.2968
1013.60 0.2967
1013.70 0.2966
1013.80 0.2966
1013.90 0.2965
1014.00 0.2964
1014.10 0.2964
1014.20 0.2963
1014.30 0.2962
1014.40 0.2961
1014.50 0.2961
1014.60 0.296
1014.70 0.2959
1014.80 0.2959
1014.90 0.2958
1015.00 0.2957
1015.10 0.2957
1015.20 0.2956
1015.30 0.2955
1015.40 0.2954
1015.50 0.2954
1015.60 0.2953
1015.70 0.2952
1015.80 0.2952
1015.90 0.2951
1016.00 0.295
1016.10 0.295
1016.20 0.2949
1016.30 0.2948
1016.40 0.2948
1016.50 0.2947
1016.60 0.2946
1016.70 0.2946
1016.80 0.2945
1016.90 0.2944
1017.00 0.2943
1017.10 0.2943
1017.20 0.2942
1017.30 0.2941
1017.40 0.2941
1017.50 0.294
1017.60 0.2939
1017.70 0.2939
1017.80 0.2938
1017.90 0.2937
1018.00 0.2936
1018.10 0.2936
1018.20 0.2935
1018.30 0.2934
1018.40 0.2934
1018.50 0.2933
1018.60 0.2932
1018.70 0.2932
1018.80 0.2931
1018.90 0.293
1019.00 0.293
1019.10 0.2929
1019.20 0.2928
1019.30 0.2928
1019.40 0.2927
1019.50 0.2926
1019.60 0.2925
1019.70 0.2925
1019.80 0.2924
1019.90 0.2923
1020.00 0.2923
1020.10 0.2922
1020.20 0.2921
1020.30 0.2921
1020.40 0.292
1020.50 0.2919
1020.60 0.2919
1020.70 0.2918
1020.80 0.2917
1020.90 0.2916
1021.00 0.2916
1021.10 0.2915
1021.20 0.2914
1021.30 0.2914
1021.40 0.2913
1021.50 0.2912
1021.60 0.2912
1021.70 0.2911
1021.80 0.291
1021.90 0.291
1022.00 0.2909
1022.10 0.2908
1022.20 0.2908
1022.30 0.2907
1022.40 0.2906
1022.50 0.2906
1022.60 0.2905
1022.70 0.2904
1022.80 0.2903
1022.90 0.2903
1023.00 0.2902
1023.10 0.2901
1023.20 0.2901
1023.30 0.29
1023.40 0.2899
1023.50 0.2899
1023.60 0.2898
1023.70 0.2897
1023.80 0.2897
1023.90 0.2896
1024.00 0.2895
1024.10 0.2895
1024.20 0.2894
1024.30 0.2893
1024.40 0.2893
1024.50 0.2892
1024.60 0.2891
1024.70 0.289
1024.80 0.289
1024.90 0.2889
1025.00 0.2888
1025.10 0.2888
1025.20 0.2887
1025.30 0.2886
1025.40 0.2886
1025.50 0.2885
1025.60 0.2884
1025.70 0.2884
1025.80 0.2883
1025.90 0.2882
1026.00 0.2882
1026.10 0.2881
1026.20 0.288
1026.30 0.288
1026.40 0.2879
1026.50 0.2878
1026.60 0.2878
1026.70 0.2877
1026.80 0.2876
1026.90 0.2876
1027.00 0.2875
1027.10 0.2874
1027.20 0.2873
1027.30 0.2873
1027.40 0.2872
1027.50 0.2871
1027.60 0.2871
1027.70 0.287
1027.80 0.2869
1027.90 0.2869
1028.00 0.2868
1028.10 0.2867
1028.20 0.2867
1028.30 0.2866
1028.40 0.2865
1028.50 0.2865
1028.60 0.2864
1028.70 0.2863
1028.80 0.2863
1028.90 0.2862
1029.00 0.2861
1029.10 0.2861
1029.20 0.286
1029.30 0.2859
1029.40 0.2859
1029.50 0.2858
1029.60 0.2857
1029.70 0.2857
1029.80 0.2856
1029.90 0.2855
1030.00 0.2855
1030.10 0.2854
1030.20 0.2853
1030.30 0.2853
1030.40 0.2852
1030.50 0.2851
1030.60 0.2851
1030.70 0.285
1030.80 0.2849
1030.90 0.2849
1031.00 0.2848
1031.10 0.2847
1031.20 0.2847
1031.30 0.2846
1031.40 0.2845
1031.50 0.2845
1031.60 0.2844
1031.70 0.2843
1031.80 0.2843
1031.90 0.2842
1032.00 0.2841
1032.10 0.2841
1032.20 0.284
1032.30 0.2839
1032.40 0.2839
1032.50 0.2838
1032.60 0.2837
1032.70 0.2837
1032.80 0.2836
1032.90 0.2835
1033.00 0.2835
1033.10 0.2834
1033.20 0.2833
1033.30 0.2833
1033.40 0.2832
1033.50 0.2831
1033.60 0.2831
1033.70 0.283
1033.80 0.2829
1033.90 0.2829
1034.00 0.2828
1034.10 0.2827
1034.20 0.2827
1034.30 0.2826
1034.40 0.2826
1034.50 0.2825
1034.60 0.2824
1034.70 0.2824
1034.80 0.2823
1034.90 0.2822
1035.00 0.2822
1035.10 0.2821
1035.20 0.282
1035.30 0.282
1035.40 0.2819
1035.50 0.2818
1035.60 0.2818
1035.70 0.2817
1035.80 0.2816
1035.90 0.2816
1036.00 0.2815
1036.10 0.2814
1036.20 0.2814
1036.30 0.2813
1036.40 0.2812
1036.50 0.2812
1036.60 0.2811
1036.70 0.281
1036.80 0.281
1036.90 0.2809
1037.00 0.2808
1037.10 0.2808
1037.20 0.2807
1037.30 0.2806
1037.40 0.2806
1037.50 0.2805
1037.60 0.2804
1037.70 0.2804
1037.80 0.2803
1037.90 0.2802
1038.00 0.2802
1038.10 0.2801
1038.20 0.28
1038.30 0.28
1038.40 0.2799
1038.50 0.2799
1038.60 0.2798
1038.70 0.2797
1038.80 0.2797
1038.90 0.2796
1039.00 0.2795
1039.10 0.2795
1039.20 0.2794
1039.30 0.2793
1039.40 0.2793
1039.50 0.2792
1039.60 0.2791
1039.70 0.2791
1039.80 0.279
1039.90 0.2789
1040.00 0.2789
1040.10 0.2788
1040.20 0.2787
1040.30 0.2787
1040.40 0.2786
1040.50 0.2785
1040.60 0.2785
1040.70 0.2784
1040.80 0.2784
1040.90 0.2783
1041.00 0.2782
1041.10 0.2782
1041.20 0.2781
1041.30 0.278
1041.40 0.278
1041.50 0.2779
1041.60 0.2778
1041.70 0.2778
1041.80 0.2777
1041.90 0.2776
1042.00 0.2776
1042.10 0.2775
1042.20 0.2774
1042.30 0.2774
1042.40 0.2773
1042.50 0.2773
1042.60 0.2772
1042.70 0.2771
1042.80 0.2771
1042.90 0.277
1043.00 0.2769
1043.10 0.2769
1043.20 0.2768
1043.30 0.2767
1043.40 0.2767
1043.50 0.2766
1043.60 0.2765
1043.70 0.2765
1043.80 0.2764
1043.90 0.2763
1044.00 0.2763
1044.10 0.2762
1044.20 0.2762
1044.30 0.2761
1044.40 0.276
1044.50 0.276
1044.60 0.2759
1044.70 0.2758
1044.80 0.2758
1044.90 0.2757
1045.00 0.2756
1045.10 0.2756
1045.20 0.2755
1045.30 0.2754
1045.40 0.2754
1045.50 0.2753
1045.60 0.2753
1045.70 0.2752
1045.80 0.2751
1045.90 0.2751
1046.00 0.275
1046.10 0.2749
1046.20 0.2749
1046.30 0.2748
1046.40 0.2747
1046.50 0.2747
1046.60 0.2746
1046.70 0.2746
1046.80 0.2745
1046.90 0.2744
1047.00 0.2744
1047.10 0.2743
1047.20 0.2742
1047.30 0.2742
1047.40 0.2741
1047.50 0.274
1047.60 0.274
1047.70 0.2739
1047.80 0.2739
1047.90 0.2738
1048.00 0.2737
1048.10 0.2737
1048.20 0.2736
1048.30 0.2735
1048.40 0.2735
1048.50 0.2734
1048.60 0.2733
1048.70 0.2733
1048.80 0.2732
1048.90 0.2732
1049.00 0.2731
1049.10 0.273
1049.20 0.273
1049.30 0.2729
1049.40 0.2728
1049.50 0.2728
1049.60 0.2727
1049.70 0.2726
1049.80 0.2726
1049.90 0.2725
1050.00 0.2725
1050.10 0.2724
1050.20 0.2723
1050.30 0.2723
1050.40 0.2722
1050.50 0.2721
1050.60 0.2721
1050.70 0.272
1050.80 0.272
1050.90 0.2719
1051.00 0.2718
1051.10 0.2718
1051.20 0.2717
1051.30 0.2716
1051.40 0.2716
1051.50 0.2715
1051.60 0.2715
1051.70 0.2714
1051.80 0.2713
1051.90 0.2713
1052.00 0.2712
1052.10 0.2711
1052.20 0.2711
1052.30 0.271
1052.40 0.2709
1052.50 0.2709
1052.60 0.2708
1052.70 0.2708
1052.80 0.2707
1052.90 0.2706
1053.00 0.2706
1053.10 0.2705
1053.20 0.2704
1053.30 0.2704
1053.40 0.2703
1053.50 0.2703
1053.60 0.2702
1053.70 0.2701
1053.80 0.2701
1053.90 0.27
1054.00 0.2699
1054.10 0.2699
1054.20 0.2698
1054.30 0.2697
1054.40 0.2697
1054.50 0.2696
1054.60 0.2696
1054.70 0.2695
1054.80 0.2694
1054.90 0.2694
1055.00 0.2693
1055.10 0.2692
1055.20 0.2692
1055.30 0.2691
1055.40 0.2691
1055.50 0.269
1055.60 0.2689
1055.70 0.2689
1055.80 0.2688
1055.90 0.2687
1056.00 0.2687
1056.10 0.2686
1056.20 0.2686
1056.30 0.2685
1056.40 0.2684
1056.50 0.2684
1056.60 0.2683
1056.70 0.2682
1056.80 0.2682
1056.90 0.2681
1057.00 0.2681
1057.10 0.268
1057.20 0.2679
1057.30 0.2679
1057.40 0.2678
1057.50 0.2678
1057.60 0.2677
1057.70 0.2676
1057.80 0.2676
1057.90 0.2675
1058.00 0.2674
1058.10 0.2674
1058.20 0.2673
1058.30 0.2673
1058.40 0.2672
1058.50 0.2671
1058.60 0.2671
1058.70 0.267
1058.80 0.267
1058.90 0.2669
1059.00 0.2668
1059.10 0.2668
1059.20 0.2667
1059.30 0.2666
1059.40 0.2666
1059.50 0.2665
1059.60 0.2665
1059.70 0.2664
1059.80 0.2663
1059.90 0.2663
1060.00 0.2662
1060.10 0.2662
1060.20 0.2661
1060.30 0.266
1060.40 0.266
1060.50 0.2659
1060.60 0.2658
1060.70 0.2658
1060.80 0.2657
1060.90 0.2657
1061.00 0.2656
1061.10 0.2655
1061.20 0.2655
1061.30 0.2654
1061.40 0.2654
1061.50 0.2653
1061.60 0.2652
1061.70 0.2652
1061.80 0.2651
1061.90 0.2651
1062.00 0.265
1062.10 0.2649
1062.20 0.2649
1062.30 0.2648
1062.40 0.2647
1062.50 0.2647
1062.60 0.2646
1062.70 0.2646
1062.80 0.2645
1062.90 0.2644
1063.00 0.2644
1063.10 0.2643
1063.20 0.2643
1063.30 0.2642
1063.40 0.2641
1063.50 0.2641
1063.60 0.264
1063.70 0.264
1063.80 0.2639
1063.90 0.2638
1064.00 0.2638
1064.10 0.2637
1064.20 0.2636
1064.30 0.2636
1064.40 0.2635
1064.50 0.2635
1064.60 0.2634
1064.70 0.2633
1064.80 0.2633
1064.90 0.2632
1065.00 0.2632
1065.10 0.2631
1065.20 0.263
1065.30 0.263
1065.40 0.2629
1065.50 0.2629
1065.60 0.2628
1065.70 0.2627
1065.80 0.2627
1065.90 0.2626
1066.00 0.2626
1066.10 0.2625
1066.20 0.2624
1066.30 0.2624
1066.40 0.2623
1066.50 0.2622
1066.60 0.2622
1066.70 0.2621
1066.80 0.2621
1066.90 0.262
1067.00 0.2619
1067.10 0.2619
1067.20 0.2618
1067.30 0.2618
1067.40 0.2617
1067.50 0.2616
1067.60 0.2616
1067.70 0.2615
1067.80 0.2615
1067.90 0.2614
1068.00 0.2613
1068.10 0.2613
1068.20 0.2612
1068.30 0.2612
1068.40 0.2611
1068.50 0.261
1068.60 0.261
1068.70 0.2609
1068.80 0.2609
1068.90 0.2608
1069.00 0.2607
1069.10 0.2607
1069.20 0.2606
1069.30 0.2606
1069.40 0.2605
1069.50 0.2604
1069.60 0.2604
1069.70 0.2603
1069.80 0.2603
1069.90 0.2602
1070.00 0.2601
1070.10 0.2601
1070.20 0.26
1070.30 0.26
1070.40 0.2599
1070.50 0.2598
1070.60 0.2598
1070.70 0.2597
1070.80 0.2597
1070.90 0.2596
1071.00 0.2595
1071.10 0.2595
1071.20 0.2594
1071.30 0.2594
1071.40 0.2593
1071.50 0.2592
1071.60 0.2592
1071.70 0.2591
1071.80 0.2591
1071.90 0.259
1072.00 0.2589
1072.10 0.2589
1072.20 0.2588
1072.30 0.2588
1072.40 0.2587
1072.50 0.2586
1072.60 0.2586
1072.70 0.2585
1072.80 0.2585
1072.90 0.2584
1073.00 0.2583
1073.10 0.2583
1073.20 0.2582
1073.30 0.2582
1073.40 0.2581
1073.50 0.2581
1073.60 0.258
1073.70 0.2579
1073.80 0.2579
1073.90 0.2578
1074.00 0.2578
1074.10 0.2577
1074.20 0.2576
1074.30 0.2576
1074.40 0.2575
1074.50 0.2575
1074.60 0.2574
1074.70 0.2573
1074.80 0.2573
1074.90 0.2572
1075.00 0.2572
1075.10 0.2571
1075.20 0.257
1075.30 0.257
1075.40 0.2569
1075.50 0.2569
1075.60 0.2568
1075.70 0.2568
1075.80 0.2567
1075.90 0.2566
1076.00 0.2566
1076.10 0.2565
1076.20 0.2565
1076.30 0.2564
1076.40 0.2563
1076.50 0.2563
1076.60 0.2562
1076.70 0.2562
1076.80 0.2561
1076.90 0.256
1077.00 0.256
1077.10 0.2559
1077.20 0.2559
1077.30 0.2558
1077.40 0.2558
1077.50 0.2557
1077.60 0.2556
1077.70 0.2556
1077.80 0.2555
1077.90 0.2555
1078.00 0.2554
1078.10 0.2553
1078.20 0.2553
1078.30 0.2552
1078.40 0.2552
1078.50 0.2551
1078.60 0.255
1078.70 0.255
1078.80 0.2549
1078.90 0.2549
1079.00 0.2548
1079.10 0.2548
1079.20 0.2547
1079.30 0.2546
1079.40 0.2546
1079.50 0.2545
1079.60 0.2545
1079.70 0.2544
1079.80 0.2543
1079.90 0.2543
1080.00 0.2542
1080.10 0.2542
1080.20 0.2541
1080.30 0.2541
1080.40 0.254
1080.50 0.2539
1080.60 0.2539
1080.70 0.2538
1080.80 0.2538
1080.90 0.2537
1081.00 0.2537
1081.10 0.2536
1081.20 0.2535
1081.30 0.2535
1081.40 0.2534
1081.50 0.2534
1081.60 0.2533
1081.70 0.2533
1081.80 0.2532
1081.90 0.2531
1082.00 0.2531
1082.10 0.253
1082.20 0.253
1082.30 0.2529
1082.40 0.2528
1082.50 0.2528
1082.60 0.2527
1082.70 0.2527
1082.80 0.2526
1082.90 0.2526
1083.00 0.2525
1083.10 0.2524
1083.20 0.2524
1083.30 0.2523
1083.40 0.2523
1083.50 0.2522
1083.60 0.2521
1083.70 0.2521
1083.80 0.252
1083.90 0.252
1084.00 0.2519
1084.10 0.2519
1084.20 0.2518
1084.30 0.2517
1084.40 0.2517
1084.50 0.2516
1084.60 0.2516
1084.70 0.2515
1084.80 0.2514
1084.90 0.2514
1085.00 0.2513
1085.10 0.2513
1085.20 0.2512
1085.30 0.2512
1085.40 0.2511
1085.50 0.251
1085.60 0.251
1085.70 0.2509
1085.80 0.2509
1085.90 0.2508
1086.00 0.2507
1086.10 0.2507
1086.20 0.2506
1086.30 0.2506
1086.40 0.2505
1086.50 0.2504
1086.60 0.2504
1086.70 0.2503
1086.80 0.2503
1086.90 0.2502
1087.00 0.2502
1087.10 0.2501
1087.20 0.25
1087.30 0.25
1087.40 0.2499
1087.50 0.2498
1087.60 0.2498
1087.70 0.2497
1087.80 0.2497
1087.90 0.2496
1088.00 0.2495
1088.10 0.2495
1088.20 0.2494
1088.30 0.2494
1088.40 0.2493
1088.50 0.2492
1088.60 0.2492
1088.70 0.2491
1088.80 0.249
1088.90 0.2489
1089.00 0.2489
1089.10 0.2488
1089.20 0.2487
1089.30 0.2486
1089.40 0.2486
1089.50 0.2485
1089.60 0.2484
1089.70 0.2484
1089.80 0.2483
1089.90 0.2482
1090.00 0.2481
1090.10 0.2481
1090.20 0.248
1090.30 0.2479
1090.40 0.2478
1090.50 0.2478
1090.60 0.2476
1090.70 0.2475
1090.80 0.2474
1090.90 0.2472
1091.00 0.2471
1091.10 0.247
1091.20 0.2469
1091.30 0.2467
1091.40 0.2466
1091.50 0.2465
1091.60 0.2464
1091.70 0.2462
1091.80 0.2461
1091.90 0.246
1092.00 0.2458
1092.10 0.2456
1092.20 0.2453
1092.30 0.245
1092.40 0.2448
1092.50 0.2445
1092.60 0.2442
1092.70 0.2439
1092.80 0.2435
1092.90 0.2431
1093.00 0.2427
1093.10 0.2422
1093.20 0.2417
1093.30 0.2412
1093.40 0.2405
1093.50 0.2403
1093.60 0.2408
1093.70 0.2413
1093.80 0.2417
1093.90 0.242
1094.00 0.2423
1094.10 0.2427
1094.20 0.243
1094.30 0.2432
1094.40 0.2434
1094.50 0.2435
1094.60 0.2437
1094.70 0.2438
1094.80 0.244
1094.90 0.2441
1095.00 0.2442
1095.10 0.2442
1095.20 0.2443
1095.30 0.2443
1095.40 0.2443
1095.50 0.2443
1095.60 0.2443
1095.70 0.2443
1095.80 0.2443
1095.90 0.2444
1096.00 0.2444
1096.10 0.2444
1096.20 0.2444
1096.30 0.2444
1096.40 0.2444
1096.50 0.2444
1096.60 0.2444
1096.70 0.2444
1096.80 0.2443
1096.90 0.2443
1097.00 0.2443
1097.10 0.2442
1097.20 0.2442
1097.30 0.2442
1097.40 0.2441
1097.50 0.2441
1097.60 0.244
1097.70 0.244
1097.80 0.2439
1097.90 0.2439
1098.00 0.2438
1098.10 0.2438
1098.20 0.2438
1098.30 0.2437
1098.40 0.2437
1098.50 0.2436
1098.60 0.2436
1098.70 0.2435
1098.80 0.2435
1098.90 0.2434
1099.00 0.2434
1099.10 0.2433
1099.20 0.2433
1099.30 0.2432
1099.40 0.2432
1099.50 0.2431
1099.60 0.2431
1099.70 0.243
1099.80 0.243
1099.90 0.2429
1100.00 0.2429
1100.10 0.2428
1100.20 0.2428
1100.30 0.2427
1100.40 0.2427
1100.50 0.2426
1100.60 0.2425
1100.70 0.2425
1100.80 0.2424
1100.90 0.2424
1101.00 0.2423
1101.10 0.2423
1101.20 0.2422
1101.30 0.2422
1101.40 0.2421
1101.50 0.2421
1101.60 0.242
1101.70 0.242
1101.80 0.2419
1101.90 0.2419
1102.00 0.2418
1102.10 0.2418
1102.20 0.2417
1102.30 0.2417
1102.40 0.2416
1102.50 0.2415
1102.60 0.2415
1102.70 0.2414
1102.80 0.2414
1102.90 0.2413
1103.00 0.2413
1103.10 0.2412
1103.20 0.2412
1103.30 0.2411
1103.40 0.2411
1103.50 0.241
1103.60 0.2409
1103.70 0.2409
1103.80 0.2408
1103.90 0.2408
1104.00 0.2407
1104.10 0.2407
1104.20 0.2406
1104.30 0.2406
1104.40 0.2405
1104.50 0.2405
1104.60 0.2404
1104.70 0.2404
1104.80 0.2403
1104.90 0.2402
1105.00 0.2402
1105.10 0.2401
1105.20 0.2401
1105.30 0.24
1105.40 0.24
1105.50 0.2399
1105.60 0.2399
1105.70 0.2398
1105.80 0.2398
1105.90 0.2397
1106.00 0.2397
1106.10 0.2396
1106.20 0.2395
1106.30 0.2395
1106.40 0.2394
1106.50 0.2394
1106.60 0.2393
1106.70 0.2393
1106.80 0.2392
1106.90 0.2392
1107.00 0.2391
1107.10 0.2391
1107.20 0.239
1107.30 0.2389
1107.40 0.2389
1107.50 0.2388
1107.60 0.2388
1107.70 0.2387
1107.80 0.2387
1107.90 0.2386
1108.00 0.2386
1108.10 0.2385
1108.20 0.2385
1108.30 0.2384
1108.40 0.2384
1108.50 0.2383
1108.60 0.2382
1108.70 0.2382
1108.80 0.2381
1108.90 0.2381
1109.00 0.238
1109.10 0.238
1109.20 0.2379
1109.30 0.2379
1109.40 0.2378
1109.50 0.2378
1109.60 0.2377
1109.70 0.2377
1109.80 0.2376
1109.90 0.2375
1110.00 0.2375
1110.10 0.2374
1110.20 0.2374
1110.30 0.2373
1110.40 0.2373
1110.50 0.2372
1110.60 0.2372
1110.70 0.2371
1110.80 0.2371
1110.90 0.237
1111.00 0.237
1111.10 0.2369
1111.20 0.2369
1111.30 0.2368
1111.40 0.2368
1111.50 0.2367
1111.60 0.2366
1111.70 0.2366
1111.80 0.2365
1111.90 0.2365
1112.00 0.2364
1112.10 0.2364
1112.20 0.2363
1112.30 0.2363
1112.40 0.2362
1112.50 0.2362
1112.60 0.2361
1112.70 0.2361
1112.80 0.236
1112.90 0.236
1113.00 0.2359
1113.10 0.2359
1113.20 0.2358
1113.30 0.2357
1113.40 0.2357
1113.50 0.2356
1113.60 0.2356
1113.70 0.2355
1113.80 0.2355
1113.90 0.2354
1114.00 0.2354
1114.10 0.2353
1114.20 0.2353
1114.30 0.2352
1114.40 0.2352
1114.50 0.2351
1114.60 0.2351
1114.70 0.235
1114.80 0.235
1114.90 0.2349
1115.00 0.2349
1115.10 0.2348
1115.20 0.2347
1115.30 0.2347
1115.40 0.2346
1115.50 0.2346
1115.60 0.2345
1115.70 0.2345
1115.80 0.2344
1115.90 0.2344
1116.00 0.2343
1116.10 0.2343
1116.20 0.2342
1116.30 0.2342
1116.40 0.2341
1116.50 0.2341
1116.60 0.234
1116.70 0.234
1116.80 0.2339
1116.90 0.2339
1117.00 0.2338
1117.10 0.2337
1117.20 0.2337
1117.30 0.2336
1117.40 0.2336
1117.50 0.2335
1117.60 0.2335
1117.70 0.2334
1117.80 0.2334
1117.90 0.2333
1118.00 0.2333
1118.10 0.2332
1118.20 0.2332
1118.30 0.2331
1118.40 0.2331
1118.50 0.233
1118.60 0.233
1118.70 0.2329
1118.80 0.2329
1118.90 0.2328
1119.00 0.2328
1119.10 0.2327
1119.20 0.2326
1119.30 0.2326
1119.40 0.2325
1119.50 0.2325
1119.60 0.2324
1119.70 0.2324
1119.80 0.2323
1119.90 0.2323
1120.00 0.2322
1120.10 0.2322
1120.20 0.2321
1120.30 0.2321
1120.40 0.232
1120.50 0.232
1120.60 0.2319
1120.70 0.2319
1120.80 0.2318
1120.90 0.2318
1121.00 0.2317
1121.10 0.2317
1121.20 0.2316
1121.30 0.2316
1121.40 0.2315
1121.50 0.2314
1121.60 0.2314
1121.70 0.2313
1121.80 0.2313
1121.90 0.2312
1122.00 0.2312
1122.10 0.2311
1122.20 0.2311
1122.30 0.231
1122.40 0.231
1122.50 0.2309
1122.60 0.2309
1122.70 0.2308
1122.80 0.2308
1122.90 0.2307
1123.00 0.2307
1123.10 0.2306
1123.20 0.2306
1123.30 0.2305
1123.40 0.2305
1123.50 0.2304
1123.60 0.2304
1123.70 0.2303
1123.80 0.2303
1123.90 0.2302
1124.00 0.2302
1124.10 0.2301
1124.20 0.2301
1124.30 0.23
1124.40 0.23
1124.50 0.2299
1124.60 0.2299
1124.70 0.2298
1124.80 0.2298
1124.90 0.2297
1125.00 0.2296
1125.10 0.2296
1125.20 0.2295
1125.30 0.2295
1125.40 0.2294
1125.50 0.2294
1125.60 0.2293
1125.70 0.2293
1125.80 0.2292
1125.90 0.2292
1126.00 0.2291
1126.10 0.2291
1126.20 0.229
1126.30 0.229
1126.40 0.2289
1126.50 0.2289
1126.60 0.2288
1126.70 0.2288
1126.80 0.2287
1126.90 0.2287
1127.00 0.2286
1127.10 0.2286
1127.20 0.2285
1127.30 0.2285
1127.40 0.2284
1127.50 0.2284
1127.60 0.2283
1127.70 0.2283
1127.80 0.2282
1127.90 0.2282
1128.00 0.2281
1128.10 0.2281
1128.20 0.228
1128.30 0.228
1128.40 0.2279
1128.50 0.2279
1128.60 0.2278
1128.70 0.2278
1128.80 0.2277
1128.90 0.2277
1129.00 0.2276
1129.10 0.2276
1129.20 0.2275
1129.30 0.2275
1129.40 0.2274
1129.50 0.2274
1129.60 0.2273
1129.70 0.2273
1129.80 0.2272
1129.90 0.2272
1130.00 0.2271
1130.10 0.227
1130.20 0.227
1130.30 0.2269
1130.40 0.2269
1130.50 0.2268
1130.60 0.2268
1130.70 0.2267
1130.80 0.2267
1130.90 0.2266
1131.00 0.2266
1131.10 0.2265
1131.20 0.2265
1131.30 0.2264
1131.40 0.2264
1131.50 0.2263
1131.60 0.2263
1131.70 0.2262
1131.80 0.2262
1131.90 0.2261
1132.00 0.2261
1132.10 0.226
1132.20 0.226
1132.30 0.2259
1132.40 0.2259
1132.50 0.2258
1132.60 0.2258
1132.70 0.2257
1132.80 0.2257
1132.90 0.2256
1133.00 0.2256
1133.10 0.2255
1133.20 0.2255
1133.30 0.2254
1133.40 0.2254
1133.50 0.2253
1133.60 0.2253
1133.70 0.2252
1133.80 0.2252
1133.90 0.2251
1134.00 0.2251
1134.10 0.225
1134.20 0.225
1134.30 0.2249
1134.40 0.2249
1134.50 0.2248
1134.60 0.2248
1134.70 0.2247
1134.80 0.2247
1134.90 0.2246
1135.00 0.2246
1135.10 0.2245
1135.20 0.2245
1135.30 0.2244
1135.40 0.2244
1135.50 0.2243
1135.60 0.2243
1135.70 0.2242
1135.80 0.2242
1135.90 0.2241
1136.00 0.2241
1136.10 0.224
1136.20 0.224
1136.30 0.2239
1136.40 0.2239
1136.50 0.2238
1136.60 0.2238
1136.70 0.2238
1136.80 0.2237
1136.90 0.2237
1137.00 0.2236
1137.10 0.2236
1137.20 0.2235
1137.30 0.2235
1137.40 0.2234
1137.50 0.2234
1137.60 0.2233
1137.70 0.2233
1137.80 0.2232
1137.90 0.2232
1138.00 0.2231
1138.10 0.2231
1138.20 0.223
1138.30 0.223
1138.40 0.2229
1138.50 0.2229
1138.60 0.2228
1138.70 0.2228
1138.80 0.2227
1138.90 0.2227
1139.00 0.2226
1139.10 0.2226
1139.20 0.2225
1139.30 0.2225
1139.40 0.2224
1139.50 0.2224
1139.60 0.2223
1139.70 0.2223
1139.80 0.2222
1139.90 0.2222
1140.00 0.2221
1140.10 0.2221
1140.20 0.222
1140.30 0.222
1140.40 0.2219
1140.50 0.2219
1140.60 0.2218
1140.70 0.2218
1140.80 0.2217
1140.90 0.2217
1141.00 0.2216
1141.10 0.2216
1141.20 0.2215
1141.30 0.2215
1141.40 0.2214
1141.50 0.2214
1141.60 0.2213
1141.70 0.2213
1141.80 0.2212
1141.90 0.2212
1142.00 0.2211
1142.10 0.2211
1142.20 0.221
1142.30 0.221
1142.40 0.2209
1142.50 0.2209
1142.60 0.2208
1142.70 0.2208
1142.80 0.2207
1142.90 0.2207
1143.00 0.2206
1143.10 0.2206
1143.20 0.2205
1143.30 0.2205
1143.40 0.2205
1143.50 0.2204
1143.60 0.2204
1143.70 0.2203
1143.80 0.2203
1143.90 0.2202
1144.00 0.2202
1144.10 0.2201
1144.20 0.2201
1144.30 0.22
1144.40 0.22
1144.50 0.2199
1144.60 0.2199
1144.70 0.2198
1144.80 0.2198
1144.90 0.2197
1145.00 0.2197
1145.10 0.2196
1145.20 0.2196
1145.30 0.2195
1145.40 0.2195
1145.50 0.2194
1145.60 0.2194
1145.70 0.2193
1145.80 0.2193
1145.90 0.2192
1146.00 0.2192
1146.10 0.2191
1146.20 0.2191
1146.30 0.2191
1146.40 0.219
1146.50 0.219
1146.60 0.2189
1146.70 0.2189
1146.80 0.2188
1146.90 0.2188
1147.00 0.2187
1147.10 0.2187
1147.20 0.2186
1147.30 0.2186
1147.40 0.2185
1147.50 0.2185
1147.60 0.2184
1147.70 0.2184
1147.80 0.2183
1147.90 0.2183
1148.00 0.2182
1148.10 0.2182
1148.20 0.2181
1148.30 0.2181
1148.40 0.218
1148.50 0.218
1148.60 0.2179
1148.70 0.2179
1148.80 0.2178
1148.90 0.2178
1149.00 0.2177
1149.10 0.2177
1149.20 0.2177
1149.30 0.2176
1149.40 0.2176
1149.50 0.2175
1149.60 0.2175
1149.70 0.2174
1149.80 0.2174
1149.90 0.2173
1150.00 0.2173
1150.10 0.2172
1150.20 0.2172
1150.30 0.2171
1150.40 0.2171
1150.50 0.217
1150.60 0.217
1150.70 0.2169
1150.80 0.2169
1150.90 0.2168
1151.00 0.2168
1151.10 0.2167
1151.20 0.2167
1151.30 0.2166
1151.40 0.2166
1151.50 0.2166
1151.60 0.2165
1151.70 0.2165
1151.80 0.2164
1151.90 0.2164
1152.00 0.2163
1152.10 0.2163
1152.20 0.2162
1152.30 0.2162
1152.40 0.2161
1152.50 0.2161
1152.60 0.216
1152.70 0.216
1152.80 0.2159
1152.90 0.2159
1153.00 0.2158
1153.10 0.2158
1153.20 0.2157
1153.30 0.2157
1153.40 0.2156
1153.50 0.2156
1153.60 0.2155
1153.70 0.2155
1153.80 0.2155
1153.90 0.2154
1154.00 0.2154
1154.10 0.2153
1154.20 0.2153
1154.30 0.2152
1154.40 0.2152
1154.50 0.2151
1154.60 0.2151
1154.70 0.215
1154.80 0.215
1154.90 0.2149
1155.00 0.2149
1155.10 0.2148
1155.20 0.2148
1155.30 0.2147
1155.40 0.2147
1155.50 0.2146
1155.60 0.2146
1155.70 0.2146
1155.80 0.2145
1155.90 0.2145
1156.00 0.2144
1156.10 0.2144
1156.20 0.2143
1156.30 0.2143
1156.40 0.2142
1156.50 0.2142
1156.60 0.2141
1156.70 0.2141
1156.80 0.214
1156.90 0.214
1157.00 0.2139
1157.10 0.2139
1157.20 0.2138
1157.30 0.2138
1157.40 0.2138
1157.50 0.2137
1157.60 0.2137
1157.70 0.2136
1157.80 0.2136
1157.90 0.2135
1158.00 0.2135
1158.10 0.2134
1158.20 0.2134
1158.30 0.2133
1158.40 0.2133
1158.50 0.2132
1158.60 0.2132
1158.70 0.2131
1158.80 0.2131
1158.90 0.2131
1159.00 0.213
1159.10 0.213
1159.20 0.2129
1159.30 0.2129
1159.40 0.2128
1159.50 0.2128
1159.60 0.2127
1159.70 0.2127
1159.80 0.2126
1159.90 0.2126
1160.00 0.2125
1160.10 0.2125
1160.20 0.2125
1160.30 0.2124
1160.40 0.2124
1160.50 0.2123
1160.60 0.2123
1160.70 0.2122
1160.80 0.2122
1160.90 0.2121
1161.00 0.2121
1161.10 0.212
1161.20 0.212
1161.30 0.2119
1161.40 0.2119
1161.50 0.2119
1161.60 0.2118
1161.70 0.2118
1161.80 0.2117
1161.90 0.2117
1162.00 0.2116
1162.10 0.2116
1162.20 0.2115
1162.30 0.2115
1162.40 0.2114
1162.50 0.2114
1162.60 0.2113
1162.70 0.2113
1162.80 0.2113
1162.90 0.2112
1163.00 0.2112
1163.10 0.2111
1163.20 0.2111
1163.30 0.211
1163.40 0.211
1163.50 0.2109
1163.60 0.2109
1163.70 0.2108
1163.80 0.2108
1163.90 0.2107
1164.00 0.2107
1164.10 0.2107
1164.20 0.2106
1164.30 0.2106
1164.40 0.2105
1164.50 0.2105
1164.60 0.2104
1164.70 0.2104
1164.80 0.2103
1164.90 0.2103
1165.00 0.2102
1165.10 0.2102
1165.20 0.2101
1165.30 0.2101
1165.40 0.2101
1165.50 0.21
1165.60 0.21
1165.70 0.2099
1165.80 0.2099
1165.90 0.2098
1166.00 0.2098
1166.10 0.2097
1166.20 0.2097
1166.30 0.2096
1166.40 0.2096
1166.50 0.2095
1166.60 0.2095
1166.70 0.2095
1166.80 0.2094
1166.90 0.2094
1167.00 0.2093
1167.10 0.2093
1167.20 0.2092
1167.30 0.2092
1167.40 0.2091
1167.50 0.2091
1167.60 0.209
1167.70 0.209
1167.80 0.209
1167.90 0.2089
1168.00 0.2089
1168.10 0.2088
1168.20 0.2088
1168.30 0.2087
1168.40 0.2087
1168.50 0.2086
1168.60 0.2086
1168.70 0.2085
1168.80 0.2085
1168.90 0.2085
1169.00 0.2084
1169.10 0.2084
1169.20 0.2083
1169.30 0.2083
1169.40 0.2082
1169.50 0.2082
1169.60 0.2081
1169.70 0.2081
1169.80 0.208
1169.90 0.208
1170.00 0.208
1170.10 0.2079
1170.20 0.2079
1170.30 0.2078
1170.40 0.2078
1170.50 0.2077
1170.60 0.2077
1170.70 0.2076
1170.80 0.2076
1170.90 0.2075
1171.00 0.2075
1171.10 0.2075
1171.20 0.2074
1171.30 0.2074
1171.40 0.2073
1171.50 0.2073
1171.60 0.2072
1171.70 0.2072
1171.80 0.2071
1171.90 0.2071
1172.00 0.207
1172.10 0.207
1172.20 0.207
1172.30 0.2069
1172.40 0.2069
1172.50 0.2068
1172.60 0.2068
1172.70 0.2067
1172.80 0.2067
1172.90 0.2066
1173.00 0.2066
1173.10 0.2066
1173.20 0.2065
1173.30 0.2065
1173.40 0.2064
1173.50 0.2064
1173.60 0.2063
1173.70 0.2063
1173.80 0.2062
1173.90 0.2062
1174.00 0.2062
1174.10 0.2061
1174.20 0.2061
1174.30 0.206
1174.40 0.206
1174.50 0.2059
1174.60 0.2059
1174.70 0.2058
1174.80 0.2058
1174.90 0.2058
1175.00 0.2057
1175.10 0.2057
1175.20 0.2056
1175.30 0.2056
1175.40 0.2055
1175.50 0.2055
1175.60 0.2054
1175.70 0.2054
1175.80 0.2054
1175.90 0.2053
1176.00 0.2053
1176.10 0.2052
1176.20 0.2052
1176.30 0.2051
1176.40 0.2051
1176.50 0.205
1176.60 0.205
1176.70 0.205
1176.80 0.2049
1176.90 0.2049
1177.00 0.2048
1177.10 0.2048
1177.20 0.2047
1177.30 0.2047
1177.40 0.2046
1177.50 0.2046
1177.60 0.2046
1177.70 0.2045
1177.80 0.2045
1177.90 0.2044
1178.00 0.2044
1178.10 0.2043
1178.20 0.2043
1178.30 0.2042
1178.40 0.2042
1178.50 0.2042
1178.60 0.2041
1178.70 0.2041
1178.80 0.204
1178.90 0.204
1179.00 0.2039
1179.10 0.2039
1179.20 0.2038
1179.30 0.2038
1179.40 0.2038
1179.50 0.2037
1179.60 0.2037
1179.70 0.2036
1179.80 0.2036
1179.90 0.2035
1180.00 0.2035
1180.10 0.2034
1180.20 0.2034
1180.30 0.2034
1180.40 0.2033
1180.50 0.2033
1180.60 0.2032
1180.70 0.2032
1180.80 0.2031
1180.90 0.2031
1181.00 0.203
1181.10 0.203
1181.20 0.203
1181.30 0.2029
1181.40 0.2029
1181.50 0.2028
1181.60 0.2028
1181.70 0.2027
1181.80 0.2027
1181.90 0.2027
1182.00 0.2026
1182.10 0.2026
1182.20 0.2025
1182.30 0.2025
1182.40 0.2024
1182.50 0.2024
1182.60 0.2023
1182.70 0.2023
1182.80 0.2023
1182.90 0.2022
1183.00 0.2022
1183.10 0.2021
1183.20 0.2021
1183.30 0.202
1183.40 0.202
1183.50 0.202
1183.60 0.2019
1183.70 0.2019
1183.80 0.2018
1183.90 0.2018
1184.00 0.2017
1184.10 0.2017
1184.20 0.2017
1184.30 0.2016
1184.40 0.2016
1184.50 0.2015
1184.60 0.2015
1184.70 0.2014
1184.80 0.2014
1184.90 0.2014
1185.00 0.2013
1185.10 0.2013
1185.20 0.2012
1185.30 0.2012
1185.40 0.2011
1185.50 0.2011
1185.60 0.201
1185.70 0.201
1185.80 0.201
1185.90 0.2009
1186.00 0.2009
1186.10 0.2008
1186.20 0.2008
1186.30 0.2007
1186.40 0.2007
1186.50 0.2007
1186.60 0.2006
1186.70 0.2006
1186.80 0.2005
1186.90 0.2005
1187.00 0.2004
1187.10 0.2004
1187.20 0.2004
1187.30 0.2003
1187.40 0.2003
1187.50 0.2002
1187.60 0.2002
1187.70 0.2001
1187.80 0.2001
1187.90 0.2001
1188.00 0.2
1188.10 0.2
1188.20 0.1999
1188.30 0.1999
1188.40 0.1998
1188.50 0.1998
1188.60 0.1998
1188.70 0.1997
1188.80 0.1997
1188.90 0.1996
1189.00 0.1996
1189.10 0.1995
1189.20 0.1995
1189.30 0.1995
1189.40 0.1994
1189.50 0.1994
1189.60 0.1993
1189.70 0.1993
1189.80 0.1992
1189.90 0.1992
1190.00 0.1992
1190.10 0.1991
1190.20 0.1991
1190.30 0.199
1190.40 0.199
1190.50 0.1989
1190.60 0.1989
1190.70 0.1989
1190.80 0.1988
1190.90 0.1988
1191.00 0.1987
1191.10 0.1987
1191.20 0.1986
1191.30 0.1986
1191.40 0.1985
1191.50 0.1985
1191.60 0.1985
1191.70 0.1984
1191.80 0.1984
1191.90 0.1983
1192.00 0.1983
1192.10 0.1983
1192.20 0.1982
1192.30 0.1982
1192.40 0.1981
1192.50 0.1981
1192.60 0.198
1192.70 0.198
1192.80 0.198
1192.90 0.1979
1193.00 0.1979
1193.10 0.1978
1193.20 0.1978
1193.30 0.1977
1193.40 0.1977
1193.50 0.1977
1193.60 0.1976
1193.70 0.1976
1193.80 0.1975
1193.90 0.1975
1194.00 0.1974
1194.10 0.1974
1194.20 0.1974
1194.30 0.1973
1194.40 0.1973
1194.50 0.1972
1194.60 0.1972
1194.70 0.1971
1194.80 0.1971
1194.90 0.1971
1195.00 0.197
1195.10 0.197
1195.20 0.1969
1195.30 0.1969
1195.40 0.1968
1195.50 0.1968
1195.60 0.1968
1195.70 0.1967
1195.80 0.1967
1195.90 0.1966
1196.00 0.1966
1196.10 0.1965
1196.20 0.1965
1196.30 0.1965
1196.40 0.1964
1196.50 0.1964
1196.60 0.1963
1196.70 0.1963
1196.80 0.1963
1196.90 0.1962
1197.00 0.1962
1197.10 0.1961
1197.20 0.1961
1197.30 0.196
1197.40 0.196
1197.50 0.196
1197.60 0.1959
1197.70 0.1959
1197.80 0.1958
1197.90 0.1958
1198.00 0.1958
1198.10 0.1957
1198.20 0.1957
1198.30 0.1956
1198.40 0.1956
1198.50 0.1955
1198.60 0.1955
1198.70 0.1955
1198.80 0.1954
1198.90 0.1954
1199.00 0.1953
1199.10 0.1953
1199.20 0.1953
1199.30 0.1952
1199.40 0.1952
1199.50 0.1951
1199.60 0.1951
1199.70 0.195
1199.80 0.195
1199.90 0.195
1200.00 0
