# Version 2.1 - nm, norm@500 to 1, cut digits, bergeron_1500_70.dat_1500
# Wavelength(nm)  Flambda(ergs/cm^s/s/nm)
300.00 0.008579
300.10 0.008622
300.20 0.008667
300.30 0.008712
300.40 0.008757
300.50 0.008802
300.60 0.008847
300.70 0.008892
300.80 0.008936
300.90 0.008981
301.00 0.009026
301.10 0.009071
301.20 0.009115
301.30 0.00916
301.40 0.009204
301.50 0.009248
301.60 0.009293
301.70 0.009337
301.80 0.009381
301.90 0.009426
302.00 0.009471
302.10 0.009518
302.20 0.009566
302.30 0.009614
302.40 0.009663
302.50 0.009711
302.60 0.009759
302.70 0.009807
302.80 0.009855
302.90 0.009903
303.00 0.00995
303.10 0.009998
303.20 0.01005
303.30 0.01009
303.40 0.01014
303.50 0.01019
303.60 0.01024
303.70 0.01028
303.80 0.01033
303.90 0.01038
304.00 0.01043
304.10 0.01048
304.20 0.01053
304.30 0.01058
304.40 0.01063
304.50 0.01068
304.60 0.01073
304.70 0.01079
304.80 0.01084
304.90 0.01089
305.00 0.01094
305.10 0.01099
305.20 0.01104
305.30 0.01109
305.40 0.01114
305.50 0.01119
305.60 0.01124
305.70 0.0113
305.80 0.01135
305.90 0.0114
306.00 0.01145
306.10 0.0115
306.20 0.01156
306.30 0.01161
306.40 0.01167
306.50 0.01172
306.60 0.01178
306.70 0.01183
306.80 0.01189
306.90 0.01194
307.00 0.012
307.10 0.01205
307.20 0.01211
307.30 0.01216
307.40 0.01222
307.50 0.01227
307.60 0.01232
307.70 0.01238
307.80 0.01243
307.90 0.01249
308.00 0.01254
308.10 0.0126
308.20 0.01266
308.30 0.01272
308.40 0.01278
308.50 0.01284
308.60 0.01289
308.70 0.01295
308.80 0.01301
308.90 0.01307
309.00 0.01313
309.10 0.01319
309.20 0.01325
309.30 0.0133
309.40 0.01336
309.50 0.01342
309.60 0.01348
309.70 0.01354
309.80 0.01359
309.90 0.01365
310.00 0.01371
310.10 0.01377
310.20 0.01384
310.30 0.0139
310.40 0.01396
310.50 0.01403
310.60 0.01409
310.70 0.01415
310.80 0.01421
310.90 0.01428
311.00 0.01434
311.10 0.0144
311.20 0.01447
311.30 0.01453
311.40 0.01459
311.50 0.01465
311.60 0.01472
311.70 0.01478
311.80 0.01484
311.90 0.0149
312.00 0.01496
312.10 0.01503
312.20 0.01509
312.30 0.01516
312.40 0.01522
312.50 0.01529
312.60 0.01536
312.70 0.01542
312.80 0.01549
312.90 0.01556
313.00 0.01563
313.10 0.01569
313.20 0.01576
313.30 0.01583
313.40 0.01589
313.50 0.01596
313.60 0.01603
313.70 0.01609
313.80 0.01616
313.90 0.01623
314.00 0.0163
314.10 0.01636
314.20 0.01643
314.30 0.01651
314.40 0.01658
314.50 0.01665
314.60 0.01672
314.70 0.01679
314.80 0.01686
314.90 0.01694
315.00 0.01701
315.10 0.01708
315.20 0.01715
315.30 0.01722
315.40 0.01729
315.50 0.01736
315.60 0.01743
315.70 0.0175
315.80 0.01757
315.90 0.01765
316.00 0.01772
316.10 0.01779
316.20 0.01787
316.30 0.01794
316.40 0.01802
316.50 0.0181
316.60 0.01817
316.70 0.01825
316.80 0.01832
316.90 0.0184
317.00 0.01848
317.10 0.01855
317.20 0.01863
317.30 0.0187
317.40 0.01878
317.50 0.01885
317.60 0.01893
317.70 0.019
317.80 0.01908
317.90 0.01916
318.00 0.01923
318.10 0.01931
318.20 0.01939
318.30 0.01947
318.40 0.01956
318.50 0.01964
318.60 0.01972
318.70 0.0198
318.80 0.01988
318.90 0.01996
319.00 0.02004
319.10 0.02012
319.20 0.0202
319.30 0.02028
319.40 0.02036
319.50 0.02044
319.60 0.02052
319.70 0.0206
319.80 0.02068
319.90 0.02076
320.00 0.02085
320.10 0.02093
320.20 0.02102
320.30 0.0211
320.40 0.02119
320.50 0.02128
320.60 0.02136
320.70 0.02145
320.80 0.02154
320.90 0.02162
321.00 0.02171
321.10 0.02179
321.20 0.02188
321.30 0.02197
321.40 0.02205
321.50 0.02214
321.60 0.02222
321.70 0.02231
321.80 0.02239
321.90 0.02248
322.00 0.02256
322.10 0.02266
322.20 0.02275
322.30 0.02284
322.40 0.02293
322.50 0.02302
322.60 0.02311
322.70 0.02321
322.80 0.0233
322.90 0.02339
323.00 0.02348
323.10 0.02357
323.20 0.02366
323.30 0.02375
323.40 0.02384
323.50 0.02393
323.60 0.02402
323.70 0.02412
323.80 0.02421
323.90 0.0243
324.00 0.02439
324.10 0.02448
324.20 0.02458
324.30 0.02468
324.40 0.02478
324.50 0.02487
324.60 0.02497
324.70 0.02507
324.80 0.02517
324.90 0.02526
325.00 0.02536
325.10 0.02546
325.20 0.02555
325.30 0.02565
325.40 0.02575
325.50 0.02584
325.60 0.02594
325.70 0.02604
325.80 0.02613
325.90 0.02623
326.00 0.02633
326.10 0.02643
326.20 0.02653
326.30 0.02663
326.40 0.02674
326.50 0.02684
326.60 0.02694
326.70 0.02705
326.80 0.02715
326.90 0.02725
327.00 0.02736
327.10 0.02746
327.20 0.02756
327.30 0.02766
327.40 0.02777
327.50 0.02787
327.60 0.02797
327.70 0.02807
327.80 0.02817
327.90 0.02828
328.00 0.02838
328.10 0.02849
328.20 0.0286
328.30 0.02871
328.40 0.02882
328.50 0.02893
328.60 0.02904
328.70 0.02915
328.80 0.02925
328.90 0.02936
329.00 0.02947
329.10 0.02958
329.20 0.02969
329.30 0.0298
329.40 0.02991
329.50 0.03001
329.60 0.03012
329.70 0.03023
329.80 0.03034
329.90 0.03045
330.00 0.03055
330.10 0.03067
330.20 0.03079
330.30 0.0309
330.40 0.03102
330.50 0.03113
330.60 0.03125
330.70 0.03137
330.80 0.03148
330.90 0.0316
331.00 0.03171
331.10 0.03183
331.20 0.03194
331.30 0.03206
331.40 0.03217
331.50 0.03229
331.60 0.0324
331.70 0.03251
331.80 0.03263
331.90 0.03274
332.00 0.03286
332.10 0.03298
332.20 0.0331
332.30 0.03322
332.40 0.03335
332.50 0.03347
332.60 0.03359
332.70 0.03371
332.80 0.03384
332.90 0.03396
333.00 0.03408
333.10 0.0342
333.20 0.03432
333.30 0.03444
333.40 0.03457
333.50 0.03469
333.60 0.03481
333.70 0.03493
333.80 0.03505
333.90 0.03517
334.00 0.03529
334.10 0.03542
334.20 0.03555
334.30 0.03568
334.40 0.03581
334.50 0.03594
334.60 0.03607
334.70 0.0362
334.80 0.03633
334.90 0.03645
335.00 0.03658
335.10 0.03671
335.20 0.03684
335.30 0.03697
335.40 0.0371
335.50 0.03722
335.60 0.03735
335.70 0.03748
335.80 0.03761
335.90 0.03773
336.00 0.03786
336.10 0.038
336.20 0.03813
336.30 0.03827
336.40 0.03841
336.50 0.03854
336.60 0.03868
336.70 0.03882
336.80 0.03895
336.90 0.03909
337.00 0.03922
337.10 0.03936
337.20 0.03949
337.30 0.03963
337.40 0.03976
337.50 0.0399
337.60 0.04003
337.70 0.04017
337.80 0.0403
337.90 0.04044
338.00 0.04057
338.10 0.04072
338.20 0.04086
338.30 0.041
338.40 0.04115
338.50 0.04129
338.60 0.04144
338.70 0.04158
338.80 0.04172
338.90 0.04187
339.00 0.04201
339.10 0.04215
339.20 0.04229
339.30 0.04244
339.40 0.04258
339.50 0.04272
339.60 0.04286
339.70 0.043
339.80 0.04315
339.90 0.04329
340.00 0.04343
340.10 0.04358
340.20 0.04373
340.30 0.04388
340.40 0.04404
340.50 0.04419
340.60 0.04434
340.70 0.04449
340.80 0.04464
340.90 0.04479
341.00 0.04494
341.10 0.04509
341.20 0.04524
341.30 0.04539
341.40 0.04554
341.50 0.04569
341.60 0.04584
341.70 0.04599
341.80 0.04614
341.90 0.04629
342.00 0.04644
342.10 0.0466
342.20 0.04676
342.30 0.04692
342.40 0.04708
342.50 0.04723
342.60 0.04739
342.70 0.04755
342.80 0.04771
342.90 0.04787
343.00 0.04803
343.10 0.04819
343.20 0.04834
343.30 0.0485
343.40 0.04866
343.50 0.04882
343.60 0.04897
343.70 0.04913
343.80 0.04929
343.90 0.04944
344.00 0.0496
344.10 0.04977
344.20 0.04994
344.30 0.0501
344.40 0.05027
344.50 0.05044
344.60 0.0506
344.70 0.05077
344.80 0.05094
344.90 0.0511
345.00 0.05127
345.10 0.05144
345.20 0.0516
345.30 0.05177
345.40 0.05193
345.50 0.0521
345.60 0.05226
345.70 0.05243
345.80 0.05259
345.90 0.05276
346.00 0.05292
346.10 0.0531
346.20 0.05327
346.30 0.05345
346.40 0.05363
346.50 0.0538
346.60 0.05398
346.70 0.05415
346.80 0.05433
346.90 0.0545
347.00 0.05468
347.10 0.05485
347.20 0.05503
347.30 0.0552
347.40 0.05537
347.50 0.05555
347.60 0.05572
347.70 0.05589
347.80 0.05607
347.90 0.05624
348.00 0.05641
348.10 0.0566
348.20 0.05678
348.30 0.05696
348.40 0.05715
348.50 0.05733
348.60 0.05752
348.70 0.0577
348.80 0.05788
348.90 0.05807
349.00 0.05825
349.10 0.05843
349.20 0.05862
349.30 0.0588
349.40 0.05898
349.50 0.05916
349.60 0.05934
349.70 0.05952
349.80 0.05971
349.90 0.05989
350.00 0.06007
350.10 0.06026
350.20 0.06045
350.30 0.06065
350.40 0.06084
350.50 0.06103
350.60 0.06123
350.70 0.06142
350.80 0.06161
350.90 0.0618
351.00 0.062
351.10 0.06219
351.20 0.06238
351.30 0.06257
351.40 0.06276
351.50 0.06295
351.60 0.06314
351.70 0.06333
351.80 0.06352
351.90 0.06371
352.00 0.0639
352.10 0.0641
352.20 0.06431
352.30 0.06451
352.40 0.06471
352.50 0.06491
352.60 0.06512
352.70 0.06532
352.80 0.06552
352.90 0.06572
353.00 0.06592
353.10 0.06612
353.20 0.06632
353.30 0.06652
353.40 0.06672
353.50 0.06692
353.60 0.06712
353.70 0.06732
353.80 0.06752
353.90 0.06771
354.00 0.06791
354.10 0.06812
354.20 0.06834
354.30 0.06855
354.40 0.06876
354.50 0.06897
354.60 0.06918
354.70 0.06939
354.80 0.0696
354.90 0.06981
355.00 0.07002
355.10 0.07023
355.20 0.07044
355.30 0.07065
355.40 0.07086
355.50 0.07107
355.60 0.07128
355.70 0.07148
355.80 0.07169
355.90 0.0719
356.00 0.07211
356.10 0.07233
356.20 0.07255
356.30 0.07277
356.40 0.07299
356.50 0.07321
356.60 0.07343
356.70 0.07365
356.80 0.07387
356.90 0.07409
357.00 0.07431
357.10 0.07453
357.20 0.07475
357.30 0.07496
357.40 0.07518
357.50 0.0754
357.60 0.07562
357.70 0.07584
357.80 0.07605
357.90 0.07627
358.00 0.07649
358.10 0.07672
358.20 0.07695
358.30 0.07718
358.40 0.07741
358.50 0.07764
358.60 0.07787
358.70 0.0781
358.80 0.07833
358.90 0.07856
359.00 0.07879
359.10 0.07902
359.20 0.07925
359.30 0.07947
359.40 0.0797
359.50 0.07993
359.60 0.08016
359.70 0.08038
359.80 0.08061
359.90 0.08084
360.00 0.08106
360.10 0.08131
360.20 0.08155
360.30 0.08179
360.40 0.08203
360.50 0.08227
360.60 0.08251
360.70 0.08275
360.80 0.08298
360.90 0.08322
361.00 0.08346
361.10 0.0837
361.20 0.08394
361.30 0.08418
361.40 0.08441
361.50 0.08465
361.60 0.08489
361.70 0.08512
361.80 0.08536
361.90 0.0856
362.00 0.08583
362.10 0.08608
362.20 0.08633
362.30 0.08657
362.40 0.08682
362.50 0.08707
362.60 0.08731
362.70 0.08756
362.80 0.0878
362.90 0.08805
363.00 0.08829
363.10 0.08855
363.20 0.0888
363.30 0.08906
363.40 0.08931
363.50 0.08956
363.60 0.08982
363.70 0.09007
363.80 0.09032
363.90 0.09057
364.00 0.09082
364.10 0.09108
364.20 0.09133
364.30 0.09158
364.40 0.09183
364.50 0.09208
364.60 0.09234
364.70 0.0926
364.80 0.09286
364.90 0.09313
365.00 0.09339
365.10 0.09365
365.20 0.09391
365.30 0.09417
365.40 0.09443
365.50 0.09469
365.60 0.09495
365.70 0.09521
365.80 0.09546
365.90 0.09572
366.00 0.09598
366.10 0.09625
366.20 0.09652
366.30 0.0968
366.40 0.09707
366.50 0.09734
366.60 0.09761
366.70 0.09788
366.80 0.09815
366.90 0.09842
367.00 0.09869
367.10 0.09896
367.20 0.09923
367.30 0.0995
367.40 0.09976
367.50 0.1
367.60 0.1003
367.70 0.1006
367.80 0.1008
367.90 0.1011
368.00 0.1014
368.10 0.1017
368.20 0.1019
368.30 0.1022
368.40 0.1025
368.50 0.1028
368.60 0.1031
368.70 0.1033
368.80 0.1036
368.90 0.1039
369.00 0.1042
369.10 0.1045
369.20 0.1047
369.30 0.105
369.40 0.1053
369.50 0.1056
369.60 0.1059
369.70 0.1061
369.80 0.1064
369.90 0.1067
370.00 0.107
370.10 0.1073
370.20 0.1076
370.30 0.1078
370.40 0.1081
370.50 0.1084
370.60 0.1087
370.70 0.109
370.80 0.1093
370.90 0.1096
371.00 0.1099
371.10 0.1102
371.20 0.1105
371.30 0.1108
371.40 0.1111
371.50 0.1113
371.60 0.1116
371.70 0.1119
371.80 0.1122
371.90 0.1125
372.00 0.1128
372.10 0.1131
372.20 0.1134
372.30 0.1137
372.40 0.114
372.50 0.1143
372.60 0.1146
372.70 0.1149
372.80 0.1152
372.90 0.1155
373.00 0.1158
373.10 0.1161
373.20 0.1164
373.30 0.1167
373.40 0.117
373.50 0.1173
373.60 0.1176
373.70 0.1179
373.80 0.1182
373.90 0.1185
374.00 0.1188
374.10 0.1191
374.20 0.1194
374.30 0.1198
374.40 0.1201
374.50 0.1204
374.60 0.1207
374.70 0.121
374.80 0.1213
374.90 0.1217
375.00 0.122
375.10 0.1223
375.20 0.1226
375.30 0.1229
375.40 0.1232
375.50 0.1235
375.60 0.1238
375.70 0.1241
375.80 0.1245
375.90 0.1248
376.00 0.1251
376.10 0.1254
376.20 0.1257
376.30 0.126
376.40 0.1264
376.50 0.1267
376.60 0.127
376.70 0.1273
376.80 0.1277
376.90 0.128
377.00 0.1283
377.10 0.1286
377.20 0.129
377.30 0.1293
377.40 0.1296
377.50 0.1299
377.60 0.1303
377.70 0.1306
377.80 0.1309
377.90 0.1312
378.00 0.1316
378.10 0.1319
378.20 0.1322
378.30 0.1326
378.40 0.1329
378.50 0.1332
378.60 0.1336
378.70 0.1339
378.80 0.1342
378.90 0.1346
379.00 0.1349
379.10 0.1352
379.20 0.1356
379.30 0.1359
379.40 0.1363
379.50 0.1366
379.60 0.1369
379.70 0.1373
379.80 0.1376
379.90 0.1379
380.00 0.1383
380.10 0.1386
380.20 0.139
380.30 0.1393
380.40 0.1397
380.50 0.14
380.60 0.1404
380.70 0.1407
380.80 0.141
380.90 0.1414
381.00 0.1417
381.10 0.1421
381.20 0.1424
381.30 0.1428
381.40 0.1431
381.50 0.1435
381.60 0.1438
381.70 0.1442
381.80 0.1445
381.90 0.1449
382.00 0.1452
382.10 0.1456
382.20 0.1459
382.30 0.1463
382.40 0.1467
382.50 0.147
382.60 0.1474
382.70 0.1477
382.80 0.1481
382.90 0.1485
383.00 0.1488
383.10 0.1492
383.20 0.1495
383.30 0.1499
383.40 0.1502
383.50 0.1506
383.60 0.151
383.70 0.1513
383.80 0.1517
383.90 0.1521
384.00 0.1524
384.10 0.1528
384.20 0.1532
384.30 0.1535
384.40 0.1539
384.50 0.1543
384.60 0.1546
384.70 0.155
384.80 0.1554
384.90 0.1557
385.00 0.1561
385.10 0.1565
385.20 0.1569
385.30 0.1572
385.40 0.1576
385.50 0.158
385.60 0.1584
385.70 0.1587
385.80 0.1591
385.90 0.1595
386.00 0.1599
386.10 0.1602
386.20 0.1606
386.30 0.161
386.40 0.1614
386.50 0.1618
386.60 0.1621
386.70 0.1625
386.80 0.1629
386.90 0.1633
387.00 0.1637
387.10 0.164
387.20 0.1644
387.30 0.1648
387.40 0.1652
387.50 0.1656
387.60 0.166
387.70 0.1664
387.80 0.1668
387.90 0.1671
388.00 0.1675
388.10 0.1679
388.20 0.1683
388.30 0.1687
388.40 0.1691
388.50 0.1695
388.60 0.1699
388.70 0.1703
388.80 0.1707
388.90 0.1711
389.00 0.1715
389.10 0.1719
389.20 0.1723
389.30 0.1727
389.40 0.173
389.50 0.1734
389.60 0.1738
389.70 0.1742
389.80 0.1746
389.90 0.175
390.00 0.1755
390.10 0.1759
390.20 0.1763
390.30 0.1767
390.40 0.1771
390.50 0.1775
390.60 0.1779
390.70 0.1783
390.80 0.1787
390.90 0.1791
391.00 0.1795
391.10 0.1799
391.20 0.1803
391.30 0.1807
391.40 0.1811
391.50 0.1816
391.60 0.182
391.70 0.1824
391.80 0.1828
391.90 0.1832
392.00 0.1836
392.10 0.184
392.20 0.1844
392.30 0.1849
392.40 0.1853
392.50 0.1857
392.60 0.1861
392.70 0.1865
392.80 0.187
392.90 0.1874
393.00 0.1878
393.10 0.1882
393.20 0.1886
393.30 0.1891
393.40 0.1895
393.50 0.1899
393.60 0.1903
393.70 0.1908
393.80 0.1912
393.90 0.1916
394.00 0.192
394.10 0.1925
394.20 0.1929
394.30 0.1933
394.40 0.1937
394.50 0.1942
394.60 0.1946
394.70 0.195
394.80 0.1955
394.90 0.1959
395.00 0.1963
395.10 0.1968
395.20 0.1972
395.30 0.1976
395.40 0.1981
395.50 0.1985
395.60 0.199
395.70 0.1994
395.80 0.1998
395.90 0.2003
396.00 0.2007
396.10 0.2011
396.20 0.2016
396.30 0.202
396.40 0.2025
396.50 0.2029
396.60 0.2034
396.70 0.2038
396.80 0.2042
396.90 0.2047
397.00 0.2051
397.10 0.2056
397.20 0.206
397.30 0.2065
397.40 0.2069
397.50 0.2074
397.60 0.2078
397.70 0.2083
397.80 0.2087
397.90 0.2092
398.00 0.2096
398.10 0.2101
398.20 0.2105
398.30 0.211
398.40 0.2114
398.50 0.2119
398.60 0.2124
398.70 0.2128
398.80 0.2133
398.90 0.2137
399.00 0.2142
399.10 0.2146
399.20 0.2151
399.30 0.2156
399.40 0.216
399.50 0.2165
399.60 0.217
399.70 0.2174
399.80 0.2179
399.90 0.2183
400.00 0.2188
400.10 0.2193
400.20 0.2197
400.30 0.2202
400.40 0.2207
400.50 0.2212
400.60 0.2216
400.70 0.2221
400.80 0.2226
400.90 0.223
401.00 0.2235
401.10 0.224
401.20 0.2244
401.30 0.2249
401.40 0.2254
401.50 0.2259
401.60 0.2263
401.70 0.2268
401.80 0.2273
401.90 0.2278
402.00 0.2283
402.10 0.2287
402.20 0.2292
402.30 0.2297
402.40 0.2302
402.50 0.2307
402.60 0.2311
402.70 0.2316
402.80 0.2321
402.90 0.2326
403.00 0.2331
403.10 0.2336
403.20 0.234
403.30 0.2345
403.40 0.235
403.50 0.2355
403.60 0.236
403.70 0.2365
403.80 0.237
403.90 0.2375
404.00 0.238
404.10 0.2384
404.20 0.2389
404.30 0.2394
404.40 0.2399
404.50 0.2404
404.60 0.2409
404.70 0.2414
404.80 0.2419
404.90 0.2424
405.00 0.2429
405.10 0.2434
405.20 0.2439
405.30 0.2444
405.40 0.2449
405.50 0.2454
405.60 0.2459
405.70 0.2464
405.80 0.2469
405.90 0.2474
406.00 0.2479
406.10 0.2484
406.20 0.2489
406.30 0.2494
406.40 0.2499
406.50 0.2505
406.60 0.251
406.70 0.2515
406.80 0.252
406.90 0.2525
407.00 0.253
407.10 0.2535
407.20 0.254
407.30 0.2545
407.40 0.255
407.50 0.2556
407.60 0.2561
407.70 0.2566
407.80 0.2571
407.90 0.2576
408.00 0.2581
408.10 0.2587
408.20 0.2592
408.30 0.2597
408.40 0.2602
408.50 0.2607
408.60 0.2613
408.70 0.2618
408.80 0.2623
408.90 0.2628
409.00 0.2634
409.10 0.2639
409.20 0.2644
409.30 0.2649
409.40 0.2655
409.50 0.266
409.60 0.2665
409.70 0.267
409.80 0.2676
409.90 0.2681
410.00 0.2686
410.10 0.2692
410.20 0.2697
410.30 0.2702
410.40 0.2708
410.50 0.2713
410.60 0.2718
410.70 0.2724
410.80 0.2729
410.90 0.2734
411.00 0.274
411.10 0.2745
411.20 0.2751
411.30 0.2756
411.40 0.2761
411.50 0.2767
411.60 0.2772
411.70 0.2778
411.80 0.2783
411.90 0.2788
412.00 0.2794
412.10 0.2799
412.20 0.2805
412.30 0.281
412.40 0.2816
412.50 0.2821
412.60 0.2827
412.70 0.2832
412.80 0.2838
412.90 0.2843
413.00 0.2849
413.10 0.2854
413.20 0.286
413.30 0.2865
413.40 0.2871
413.50 0.2876
413.60 0.2882
413.70 0.2887
413.80 0.2893
413.90 0.2899
414.00 0.2904
414.10 0.291
414.20 0.2915
414.30 0.2921
414.40 0.2926
414.50 0.2932
414.60 0.2938
414.70 0.2943
414.80 0.2949
414.90 0.2955
415.00 0.296
415.10 0.2966
415.20 0.2971
415.30 0.2977
415.40 0.2983
415.50 0.2989
415.60 0.2994
415.70 0.3
415.80 0.3005
415.90 0.3011
416.00 0.3017
416.10 0.3023
416.20 0.3028
416.30 0.3034
416.40 0.304
416.50 0.3046
416.60 0.3051
416.70 0.3057
416.80 0.3063
416.90 0.3069
417.00 0.3074
417.10 0.308
417.20 0.3086
417.30 0.3092
417.40 0.3098
417.50 0.3103
417.60 0.3109
417.70 0.3115
417.80 0.3121
417.90 0.3127
418.00 0.3132
418.10 0.3138
418.20 0.3144
418.30 0.315
418.40 0.3156
418.50 0.3162
418.60 0.3168
418.70 0.3173
418.80 0.3179
418.90 0.3185
419.00 0.3191
419.10 0.3197
419.20 0.3203
419.30 0.3209
419.40 0.3215
419.50 0.3221
419.60 0.3227
419.70 0.3233
419.80 0.3239
419.90 0.3245
420.00 0.3251
420.10 0.3257
420.20 0.3263
420.30 0.3269
420.40 0.3275
420.50 0.3281
420.60 0.3287
420.70 0.3293
420.80 0.3299
420.90 0.3305
421.00 0.3311
421.10 0.3317
421.20 0.3323
421.30 0.3329
421.40 0.3335
421.50 0.3341
421.60 0.3347
421.70 0.3353
421.80 0.3359
421.90 0.3365
422.00 0.3372
422.10 0.3378
422.20 0.3384
422.30 0.339
422.40 0.3396
422.50 0.3402
422.60 0.3408
422.70 0.3414
422.80 0.3421
422.90 0.3427
423.00 0.3433
423.10 0.3439
423.20 0.3445
423.30 0.3451
423.40 0.3458
423.50 0.3464
423.60 0.347
423.70 0.3476
423.80 0.3483
423.90 0.3489
424.00 0.3495
424.10 0.3501
424.20 0.3508
424.30 0.3514
424.40 0.352
424.50 0.3526
424.60 0.3533
424.70 0.3539
424.80 0.3545
424.90 0.3552
425.00 0.3558
425.10 0.3564
425.20 0.357
425.30 0.3577
425.40 0.3583
425.50 0.359
425.60 0.3596
425.70 0.3602
425.80 0.3609
425.90 0.3615
426.00 0.3621
426.10 0.3628
426.20 0.3634
426.30 0.364
426.40 0.3647
426.50 0.3653
426.60 0.366
426.70 0.3666
426.80 0.3673
426.90 0.3679
427.00 0.3685
427.10 0.3692
427.20 0.3698
427.30 0.3705
427.40 0.3711
427.50 0.3718
427.60 0.3724
427.70 0.3731
427.80 0.3737
427.90 0.3744
428.00 0.375
428.10 0.3757
428.20 0.3763
428.30 0.377
428.40 0.3776
428.50 0.3783
428.60 0.3789
428.70 0.3796
428.80 0.3803
428.90 0.3809
429.00 0.3816
429.10 0.3822
429.20 0.3829
429.30 0.3835
429.40 0.3842
429.50 0.3849
429.60 0.3855
429.70 0.3862
429.80 0.3869
429.90 0.3875
430.00 0.3882
430.10 0.3888
430.20 0.3895
430.30 0.3902
430.40 0.3908
430.50 0.3915
430.60 0.3922
430.70 0.3928
430.80 0.3935
430.90 0.3942
431.00 0.3948
431.10 0.3955
431.20 0.3962
431.30 0.3969
431.40 0.3975
431.50 0.3982
431.60 0.3989
431.70 0.3996
431.80 0.4002
431.90 0.4009
432.00 0.4016
432.10 0.4023
432.20 0.403
432.30 0.4036
432.40 0.4043
432.50 0.405
432.60 0.4057
432.70 0.4064
432.80 0.407
432.90 0.4077
433.00 0.4084
433.10 0.4091
433.20 0.4098
433.30 0.4104
433.40 0.4111
433.50 0.4118
433.60 0.4125
433.70 0.4132
433.80 0.4139
433.90 0.4146
434.00 0.4153
434.10 0.416
434.20 0.4167
434.30 0.4174
434.40 0.418
434.50 0.4187
434.60 0.4194
434.70 0.4201
434.80 0.4208
434.90 0.4215
435.00 0.4222
435.10 0.4229
435.20 0.4236
435.30 0.4243
435.40 0.425
435.50 0.4257
435.60 0.4264
435.70 0.4271
435.80 0.4278
435.90 0.4285
436.00 0.4292
436.10 0.4299
436.20 0.4306
436.30 0.4313
436.40 0.4321
436.50 0.4328
436.60 0.4335
436.70 0.4342
436.80 0.4349
436.90 0.4356
437.00 0.4363
437.10 0.437
437.20 0.4377
437.30 0.4384
437.40 0.4391
437.50 0.4399
437.60 0.4406
437.70 0.4413
437.80 0.442
437.90 0.4427
438.00 0.4434
438.10 0.4441
438.20 0.4449
438.30 0.4456
438.40 0.4463
438.50 0.447
438.60 0.4477
438.70 0.4485
438.80 0.4492
438.90 0.4499
439.00 0.4506
439.10 0.4514
439.20 0.4521
439.30 0.4528
439.40 0.4535
439.50 0.4543
439.60 0.455
439.70 0.4557
439.80 0.4564
439.90 0.4572
440.00 0.4579
440.10 0.4586
440.20 0.4594
440.30 0.4601
440.40 0.4608
440.50 0.4616
440.60 0.4623
440.70 0.463
440.80 0.4638
440.90 0.4645
441.00 0.4652
441.10 0.466
441.20 0.4667
441.30 0.4674
441.40 0.4682
441.50 0.4689
441.60 0.4697
441.70 0.4704
441.80 0.4712
441.90 0.4719
442.00 0.4726
442.10 0.4734
442.20 0.4741
442.30 0.4749
442.40 0.4756
442.50 0.4764
442.60 0.4771
442.70 0.4778
442.80 0.4786
442.90 0.4794
443.00 0.4801
443.10 0.4808
443.20 0.4816
443.30 0.4823
443.40 0.4831
443.50 0.4839
443.60 0.4846
443.70 0.4854
443.80 0.4861
443.90 0.4869
444.00 0.4876
444.10 0.4884
444.20 0.4891
444.30 0.4899
444.40 0.4906
444.50 0.4914
444.60 0.4922
444.70 0.4929
444.80 0.4937
444.90 0.4944
445.00 0.4952
445.10 0.496
445.20 0.4967
445.30 0.4975
445.40 0.4983
445.50 0.499
445.60 0.4998
445.70 0.5006
445.80 0.5013
445.90 0.5021
446.00 0.5029
446.10 0.5036
446.20 0.5044
446.30 0.5052
446.40 0.5059
446.50 0.5067
446.60 0.5075
446.70 0.5083
446.80 0.509
446.90 0.5098
447.00 0.5106
447.10 0.5114
447.20 0.5121
447.30 0.5129
447.40 0.5137
447.50 0.5145
447.60 0.5152
447.70 0.516
447.80 0.5168
447.90 0.5176
448.00 0.5184
448.10 0.5191
448.20 0.5199
448.30 0.5207
448.40 0.5215
448.50 0.5223
448.60 0.5231
448.70 0.5238
448.80 0.5246
448.90 0.5254
449.00 0.5262
449.10 0.527
449.20 0.5278
449.30 0.5286
449.40 0.5294
449.50 0.5301
449.60 0.5309
449.70 0.5317
449.80 0.5325
449.90 0.5333
450.00 0.5341
450.10 0.5349
450.20 0.5357
450.30 0.5365
450.40 0.5373
450.50 0.5381
450.60 0.5389
450.70 0.5397
450.80 0.5405
450.90 0.5413
451.00 0.5421
451.10 0.5429
451.20 0.5437
451.30 0.5445
451.40 0.5453
451.50 0.5461
451.60 0.5469
451.70 0.5477
451.80 0.5485
451.90 0.5493
452.00 0.5501
452.10 0.5509
452.20 0.5517
452.30 0.5525
452.40 0.5533
452.50 0.5542
452.60 0.555
452.70 0.5558
452.80 0.5566
452.90 0.5574
453.00 0.5582
453.10 0.559
453.20 0.5598
453.30 0.5607
453.40 0.5615
453.50 0.5623
453.60 0.5631
453.70 0.5639
453.80 0.5647
453.90 0.5656
454.00 0.5664
454.10 0.5672
454.20 0.568
454.30 0.5688
454.40 0.5696
454.50 0.5705
454.60 0.5713
454.70 0.5721
454.80 0.5729
454.90 0.5738
455.00 0.5746
455.10 0.5754
455.20 0.5762
455.30 0.5771
455.40 0.5779
455.50 0.5787
455.60 0.5796
455.70 0.5804
455.80 0.5812
455.90 0.582
456.00 0.5829
456.10 0.5837
456.20 0.5845
456.30 0.5854
456.40 0.5862
456.50 0.587
456.60 0.5879
456.70 0.5887
456.80 0.5895
456.90 0.5904
457.00 0.5912
457.10 0.5921
457.20 0.5929
457.30 0.5937
457.40 0.5945
457.50 0.5954
457.60 0.5962
457.70 0.5971
457.80 0.5979
457.90 0.5988
458.00 0.5996
458.10 0.6004
458.20 0.6013
458.30 0.6021
458.40 0.603
458.50 0.6038
458.60 0.6047
458.70 0.6055
458.80 0.6064
458.90 0.6072
459.00 0.6081
459.10 0.6089
459.20 0.6098
459.30 0.6106
459.40 0.6114
459.50 0.6123
459.60 0.6132
459.70 0.614
459.80 0.6149
459.90 0.6157
460.00 0.6166
460.10 0.6174
460.20 0.6183
460.30 0.6191
460.40 0.62
460.50 0.6208
460.60 0.6217
460.70 0.6226
460.80 0.6234
460.90 0.6243
461.00 0.6251
461.10 0.626
461.20 0.6269
461.30 0.6277
461.40 0.6286
461.50 0.6295
461.60 0.6303
461.70 0.6312
461.80 0.6321
461.90 0.6329
462.00 0.6338
462.10 0.6346
462.20 0.6355
462.30 0.6364
462.40 0.6373
462.50 0.6381
462.60 0.639
462.70 0.6399
462.80 0.6407
462.90 0.6416
463.00 0.6425
463.10 0.6433
463.20 0.6442
463.30 0.6451
463.40 0.646
463.50 0.6469
463.60 0.6477
463.70 0.6486
463.80 0.6495
463.90 0.6503
464.00 0.6512
464.10 0.6521
464.20 0.653
464.30 0.6539
464.40 0.6547
464.50 0.6556
464.60 0.6565
464.70 0.6574
464.80 0.6583
464.90 0.6592
465.00 0.66
465.10 0.6609
465.20 0.6618
465.30 0.6627
465.40 0.6636
465.50 0.6645
465.60 0.6654
465.70 0.6662
465.80 0.6671
465.90 0.668
466.00 0.6689
466.10 0.6698
466.20 0.6707
466.30 0.6716
466.40 0.6725
466.50 0.6734
466.60 0.6743
466.70 0.6751
466.80 0.676
466.90 0.6769
467.00 0.6778
467.10 0.6787
467.20 0.6796
467.30 0.6805
467.40 0.6814
467.50 0.6823
467.60 0.6832
467.70 0.6841
467.80 0.685
467.90 0.6859
468.00 0.6868
468.10 0.6877
468.20 0.6886
468.30 0.6895
468.40 0.6904
468.50 0.6913
468.60 0.6922
468.70 0.6931
468.80 0.694
468.90 0.6949
469.00 0.6958
469.10 0.6967
469.20 0.6976
469.30 0.6985
469.40 0.6995
469.50 0.7004
469.60 0.7013
469.70 0.7022
469.80 0.7031
469.90 0.704
470.00 0.7049
470.10 0.7058
470.20 0.7067
470.30 0.7076
470.40 0.7086
470.50 0.7095
470.60 0.7104
470.70 0.7113
470.80 0.7122
470.90 0.7131
471.00 0.7141
471.10 0.715
471.20 0.7159
471.30 0.7168
471.40 0.7177
471.50 0.7187
471.60 0.7196
471.70 0.7205
471.80 0.7214
471.90 0.7223
472.00 0.7233
472.10 0.7242
472.20 0.7251
472.30 0.726
472.40 0.727
472.50 0.7279
472.60 0.7288
472.70 0.7297
472.80 0.7307
472.90 0.7316
473.00 0.7325
473.10 0.7334
473.20 0.7344
473.30 0.7353
473.40 0.7362
473.50 0.7372
473.60 0.7381
473.70 0.739
473.80 0.7399
473.90 0.7409
474.00 0.7418
474.10 0.7427
474.20 0.7437
474.30 0.7446
474.40 0.7455
474.50 0.7465
474.60 0.7474
474.70 0.7484
474.80 0.7493
474.90 0.7502
475.00 0.7512
475.10 0.7521
475.20 0.753
475.30 0.754
475.40 0.7549
475.50 0.7559
475.60 0.7568
475.70 0.7577
475.80 0.7587
475.90 0.7596
476.00 0.7606
476.10 0.7615
476.20 0.7624
476.30 0.7634
476.40 0.7643
476.50 0.7653
476.60 0.7662
476.70 0.7672
476.80 0.7681
476.90 0.7691
477.00 0.77
477.10 0.771
477.20 0.7719
477.30 0.7729
477.40 0.7738
477.50 0.7748
477.60 0.7757
477.70 0.7767
477.80 0.7776
477.90 0.7786
478.00 0.7795
478.10 0.7805
478.20 0.7814
478.30 0.7824
478.40 0.7834
478.50 0.7843
478.60 0.7853
478.70 0.7862
478.80 0.7872
478.90 0.7881
479.00 0.7891
479.10 0.79
479.20 0.791
479.30 0.792
479.40 0.7929
479.50 0.7939
479.60 0.7948
479.70 0.7958
479.80 0.7968
479.90 0.7977
480.00 0.7987
480.10 0.7996
480.20 0.8006
480.30 0.8016
480.40 0.8025
480.50 0.8035
480.60 0.8045
480.70 0.8054
480.80 0.8064
480.90 0.8074
481.00 0.8083
481.10 0.8093
481.20 0.8103
481.30 0.8113
481.40 0.8122
481.50 0.8132
481.60 0.8142
481.70 0.8151
481.80 0.8161
481.90 0.8171
482.00 0.818
482.10 0.819
482.20 0.82
482.30 0.821
482.40 0.8219
482.50 0.8229
482.60 0.8239
482.70 0.8249
482.80 0.8258
482.90 0.8268
483.00 0.8278
483.10 0.8288
483.20 0.8297
483.30 0.8307
483.40 0.8317
483.50 0.8327
483.60 0.8337
483.70 0.8347
483.80 0.8356
483.90 0.8366
484.00 0.8376
484.10 0.8386
484.20 0.8396
484.30 0.8405
484.40 0.8415
484.50 0.8425
484.60 0.8435
484.70 0.8445
484.80 0.8455
484.90 0.8464
485.00 0.8474
485.10 0.8484
485.20 0.8494
485.30 0.8504
485.40 0.8514
485.50 0.8524
485.60 0.8533
485.70 0.8543
485.80 0.8553
485.90 0.8563
486.00 0.8573
486.10 0.8583
486.20 0.8593
486.30 0.8603
486.40 0.8613
486.50 0.8623
486.60 0.8633
486.70 0.8643
486.80 0.8653
486.90 0.8662
487.00 0.8672
487.10 0.8682
487.20 0.8692
487.30 0.8702
487.40 0.8712
487.50 0.8722
487.60 0.8732
487.70 0.8742
487.80 0.8752
487.90 0.8762
488.00 0.8772
488.10 0.8782
488.20 0.8792
488.30 0.8802
488.40 0.8812
488.50 0.8822
488.60 0.8832
488.70 0.8842
488.80 0.8852
488.90 0.8862
489.00 0.8872
489.10 0.8882
489.20 0.8892
489.30 0.8903
489.40 0.8913
489.50 0.8923
489.60 0.8933
489.70 0.8943
489.80 0.8953
489.90 0.8963
490.00 0.8973
490.10 0.8983
490.20 0.8993
490.30 0.9003
490.40 0.9013
490.50 0.9023
490.60 0.9034
490.70 0.9044
490.80 0.9054
490.90 0.9064
491.00 0.9074
491.10 0.9084
491.20 0.9094
491.30 0.9104
491.40 0.9115
491.50 0.9125
491.60 0.9135
491.70 0.9145
491.80 0.9155
491.90 0.9165
492.00 0.9175
492.10 0.9185
492.20 0.9196
492.30 0.9206
492.40 0.9216
492.50 0.9226
492.60 0.9236
492.70 0.9247
492.80 0.9257
492.90 0.9267
493.00 0.9277
493.10 0.9287
493.20 0.9298
493.30 0.9308
493.40 0.9318
493.50 0.9328
493.60 0.9339
493.70 0.9349
493.80 0.9359
493.90 0.9369
494.00 0.9379
494.10 0.939
494.20 0.94
494.30 0.941
494.40 0.942
494.50 0.9431
494.60 0.9441
494.70 0.9451
494.80 0.9461
494.90 0.9472
495.00 0.9482
495.10 0.9492
495.20 0.9502
495.30 0.9513
495.40 0.9523
495.50 0.9533
495.60 0.9544
495.70 0.9554
495.80 0.9564
495.90 0.9575
496.00 0.9585
496.10 0.9595
496.20 0.9605
496.30 0.9616
496.40 0.9626
496.50 0.9637
496.60 0.9647
496.70 0.9657
496.80 0.9668
496.90 0.9678
497.00 0.9688
497.10 0.9698
497.20 0.9709
497.30 0.9719
497.40 0.973
497.50 0.974
497.60 0.975
497.70 0.9761
497.80 0.9771
497.90 0.9781
498.00 0.9792
498.10 0.9802
498.20 0.9813
498.30 0.9823
498.40 0.9833
498.50 0.9844
498.60 0.9854
498.70 0.9865
498.80 0.9875
498.90 0.9885
499.00 0.9896
499.10 0.9906
499.20 0.9917
499.30 0.9927
499.40 0.9937
499.50 0.9948
499.60 0.9958
499.70 0.9969
499.80 0.9979
499.90 0.999
500.00 1
500.10 1.001
500.20 1.002
500.30 1.003
500.40 1.004
500.50 1.005
500.60 1.006
500.70 1.007
500.80 1.008
500.90 1.009
501.00 1.01
501.10 1.011
501.20 1.013
501.30 1.014
501.40 1.015
501.50 1.016
501.60 1.017
501.70 1.018
501.80 1.019
501.90 1.02
502.00 1.021
502.10 1.022
502.20 1.023
502.30 1.024
502.40 1.025
502.50 1.026
502.60 1.027
502.70 1.028
502.80 1.029
502.90 1.03
503.00 1.031
503.10 1.032
503.20 1.034
503.30 1.035
503.40 1.036
503.50 1.037
503.60 1.038
503.70 1.039
503.80 1.04
503.90 1.041
504.00 1.042
504.10 1.043
504.20 1.044
504.30 1.045
504.40 1.046
504.50 1.047
504.60 1.048
504.70 1.049
504.80 1.05
504.90 1.051
505.00 1.053
505.10 1.054
505.20 1.055
505.30 1.056
505.40 1.057
505.50 1.058
505.60 1.059
505.70 1.06
505.80 1.061
505.90 1.062
506.00 1.063
506.10 1.064
506.20 1.065
506.30 1.066
506.40 1.067
506.50 1.068
506.60 1.07
506.70 1.071
506.80 1.072
506.90 1.073
507.00 1.074
507.10 1.075
507.20 1.076
507.30 1.077
507.40 1.078
507.50 1.079
507.60 1.08
507.70 1.081
507.80 1.082
507.90 1.083
508.00 1.084
508.10 1.085
508.20 1.087
508.30 1.088
508.40 1.089
508.50 1.09
508.60 1.091
508.70 1.092
508.80 1.093
508.90 1.094
509.00 1.095
509.10 1.096
509.20 1.097
509.30 1.098
509.40 1.099
509.50 1.1
509.60 1.102
509.70 1.103
509.80 1.104
509.90 1.105
510.00 1.106
510.10 1.107
510.20 1.108
510.30 1.109
510.40 1.11
510.50 1.111
510.60 1.112
510.70 1.113
510.80 1.114
510.90 1.115
511.00 1.117
511.10 1.118
511.20 1.119
511.30 1.12
511.40 1.121
511.50 1.122
511.60 1.123
511.70 1.124
511.80 1.125
511.90 1.126
512.00 1.127
512.10 1.128
512.20 1.129
512.30 1.13
512.40 1.132
512.50 1.133
512.60 1.134
512.70 1.135
512.80 1.136
512.90 1.137
513.00 1.138
513.10 1.139
513.20 1.14
513.30 1.141
513.40 1.142
513.50 1.143
513.60 1.144
513.70 1.146
513.80 1.147
513.90 1.148
514.00 1.149
514.10 1.15
514.20 1.151
514.30 1.152
514.40 1.153
514.50 1.154
514.60 1.155
514.70 1.156
514.80 1.157
514.90 1.158
515.00 1.16
515.10 1.161
515.20 1.162
515.30 1.163
515.40 1.164
515.50 1.165
515.60 1.166
515.70 1.167
515.80 1.168
515.90 1.169
516.00 1.17
516.10 1.171
516.20 1.173
516.30 1.174
516.40 1.175
516.50 1.176
516.60 1.177
516.70 1.178
516.80 1.179
516.90 1.18
517.00 1.181
517.10 1.182
517.20 1.183
517.30 1.184
517.40 1.185
517.50 1.187
517.60 1.188
517.70 1.189
517.80 1.19
517.90 1.191
518.00 1.192
518.10 1.193
518.20 1.194
518.30 1.195
518.40 1.196
518.50 1.197
518.60 1.198
518.70 1.2
518.80 1.201
518.90 1.202
519.00 1.203
519.10 1.204
519.20 1.205
519.30 1.206
519.40 1.207
519.50 1.208
519.60 1.209
519.70 1.21
519.80 1.211
519.90 1.213
520.00 1.214
520.10 1.215
520.20 1.216
520.30 1.217
520.40 1.218
520.50 1.219
520.60 1.22
520.70 1.221
520.80 1.222
520.90 1.223
521.00 1.224
521.10 1.226
521.20 1.227
521.30 1.228
521.40 1.229
521.50 1.23
521.60 1.231
521.70 1.232
521.80 1.233
521.90 1.234
522.00 1.235
522.10 1.236
522.20 1.237
522.30 1.239
522.40 1.24
522.50 1.241
522.60 1.242
522.70 1.243
522.80 1.244
522.90 1.245
523.00 1.246
523.10 1.247
523.20 1.248
523.30 1.249
523.40 1.25
523.50 1.252
523.60 1.253
523.70 1.254
523.80 1.255
523.90 1.256
524.00 1.257
524.10 1.258
524.20 1.259
524.30 1.26
524.40 1.261
524.50 1.262
524.60 1.263
524.70 1.265
524.80 1.266
524.90 1.267
525.00 1.268
525.10 1.269
525.20 1.27
525.30 1.271
525.40 1.272
525.50 1.273
525.60 1.274
525.70 1.275
525.80 1.276
525.90 1.278
526.00 1.279
526.10 1.28
526.20 1.281
526.30 1.282
526.40 1.283
526.50 1.284
526.60 1.285
526.70 1.286
526.80 1.287
526.90 1.288
527.00 1.289
527.10 1.29
527.20 1.292
527.30 1.293
527.40 1.294
527.50 1.295
527.60 1.296
527.70 1.297
527.80 1.298
527.90 1.299
528.00 1.3
528.10 1.301
528.20 1.302
528.30 1.303
528.40 1.305
528.50 1.306
528.60 1.307
528.70 1.308
528.80 1.309
528.90 1.31
529.00 1.311
529.10 1.312
529.20 1.313
529.30 1.314
529.40 1.315
529.50 1.316
529.60 1.317
529.70 1.319
529.80 1.32
529.90 1.321
530.00 1.322
530.10 1.323
530.20 1.324
530.30 1.325
530.40 1.326
530.50 1.327
530.60 1.328
530.70 1.329
530.80 1.33
530.90 1.331
531.00 1.333
531.10 1.334
531.20 1.335
531.30 1.336
531.40 1.337
531.50 1.338
531.60 1.339
531.70 1.34
531.80 1.341
531.90 1.342
532.00 1.343
532.10 1.344
532.20 1.345
532.30 1.346
532.40 1.348
532.50 1.349
532.60 1.35
532.70 1.351
532.80 1.352
532.90 1.353
533.00 1.354
533.10 1.355
533.20 1.356
533.30 1.357
533.40 1.358
533.50 1.359
533.60 1.36
533.70 1.361
533.80 1.362
533.90 1.364
534.00 1.365
534.10 1.366
534.20 1.367
534.30 1.368
534.40 1.369
534.50 1.37
534.60 1.371
534.70 1.372
534.80 1.373
534.90 1.374
535.00 1.375
535.10 1.376
535.20 1.377
535.30 1.378
535.40 1.38
535.50 1.381
535.60 1.382
535.70 1.383
535.80 1.384
535.90 1.385
536.00 1.386
536.10 1.387
536.20 1.388
536.30 1.389
536.40 1.39
536.50 1.391
536.60 1.392
536.70 1.393
536.80 1.394
536.90 1.395
537.00 1.396
537.10 1.397
537.20 1.399
537.30 1.4
537.40 1.401
537.50 1.402
537.60 1.403
537.70 1.404
537.80 1.405
537.90 1.406
538.00 1.407
538.10 1.408
538.20 1.409
538.30 1.41
538.40 1.411
538.50 1.412
538.60 1.413
538.70 1.414
538.80 1.415
538.90 1.416
539.00 1.417
539.10 1.418
539.20 1.42
539.30 1.421
539.40 1.422
539.50 1.423
539.60 1.424
539.70 1.425
539.80 1.426
539.90 1.427
540.00 1.428
540.10 1.429
540.20 1.43
540.30 1.431
540.40 1.432
540.50 1.433
540.60 1.434
540.70 1.435
540.80 1.436
540.90 1.437
541.00 1.438
541.10 1.439
541.20 1.44
541.30 1.441
541.40 1.442
541.50 1.443
541.60 1.444
541.70 1.445
541.80 1.446
541.90 1.447
542.00 1.449
542.10 1.45
542.20 1.451
542.30 1.452
542.40 1.453
542.50 1.454
542.60 1.455
542.70 1.456
542.80 1.457
542.90 1.458
543.00 1.459
543.10 1.46
543.20 1.461
543.30 1.462
543.40 1.463
543.50 1.464
543.60 1.465
543.70 1.466
543.80 1.467
543.90 1.468
544.00 1.469
544.10 1.47
544.20 1.471
544.30 1.472
544.40 1.473
544.50 1.474
544.60 1.475
544.70 1.476
544.80 1.477
544.90 1.478
545.00 1.479
545.10 1.48
545.20 1.481
545.30 1.482
545.40 1.483
545.50 1.484
545.60 1.485
545.70 1.486
545.80 1.487
545.90 1.488
546.00 1.489
546.10 1.49
546.20 1.491
546.30 1.492
546.40 1.493
546.50 1.494
546.60 1.495
546.70 1.496
546.80 1.497
546.90 1.498
547.00 1.499
547.10 1.5
547.20 1.501
547.30 1.502
547.40 1.503
547.50 1.504
547.60 1.505
547.70 1.506
547.80 1.507
547.90 1.508
548.00 1.509
548.10 1.51
548.20 1.511
548.30 1.512
548.40 1.513
548.50 1.514
548.60 1.515
548.70 1.516
548.80 1.517
548.90 1.518
549.00 1.519
549.10 1.52
549.20 1.521
549.30 1.522
549.40 1.523
549.50 1.524
549.60 1.524
549.70 1.525
549.80 1.526
549.90 1.527
550.00 1.528
550.10 1.529
550.20 1.53
550.30 1.531
550.40 1.532
550.50 1.533
550.60 1.534
550.70 1.535
550.80 1.536
550.90 1.537
551.00 1.538
551.10 1.539
551.20 1.54
551.30 1.541
551.40 1.542
551.50 1.543
551.60 1.544
551.70 1.545
551.80 1.546
551.90 1.546
552.00 1.547
552.10 1.548
552.20 1.549
552.30 1.55
552.40 1.551
552.50 1.552
552.60 1.553
552.70 1.554
552.80 1.555
552.90 1.556
553.00 1.557
553.10 1.558
553.20 1.559
553.30 1.56
553.40 1.56
553.50 1.561
553.60 1.562
553.70 1.563
553.80 1.564
553.90 1.565
554.00 1.566
554.10 1.567
554.20 1.568
554.30 1.569
554.40 1.57
554.50 1.57
554.60 1.571
554.70 1.572
554.80 1.573
554.90 1.574
555.00 1.575
555.10 1.576
555.20 1.577
555.30 1.578
555.40 1.579
555.50 1.579
555.60 1.58
555.70 1.581
555.80 1.582
555.90 1.583
556.00 1.584
556.10 1.585
556.20 1.586
556.30 1.586
556.40 1.587
556.50 1.588
556.60 1.589
556.70 1.59
556.80 1.591
556.90 1.592
557.00 1.593
557.10 1.593
557.20 1.594
557.30 1.595
557.40 1.596
557.50 1.597
557.60 1.598
557.70 1.599
557.80 1.599
557.90 1.6
558.00 1.601
558.10 1.602
558.20 1.603
558.30 1.604
558.40 1.605
558.50 1.605
558.60 1.606
558.70 1.607
558.80 1.608
558.90 1.609
559.00 1.61
559.10 1.611
559.20 1.611
559.30 1.612
559.40 1.613
559.50 1.614
559.60 1.615
559.70 1.616
559.80 1.616
559.90 1.617
560.00 1.618
560.10 1.619
560.20 1.62
560.30 1.621
560.40 1.621
560.50 1.622
560.60 1.623
560.70 1.624
560.80 1.625
560.90 1.626
561.00 1.626
561.10 1.627
561.20 1.628
561.30 1.629
561.40 1.63
561.50 1.63
561.60 1.631
561.70 1.632
561.80 1.633
561.90 1.634
562.00 1.634
562.10 1.635
562.20 1.636
562.30 1.637
562.40 1.638
562.50 1.638
562.60 1.639
562.70 1.64
562.80 1.641
562.90 1.642
563.00 1.642
563.10 1.643
563.20 1.644
563.30 1.645
563.40 1.645
563.50 1.646
563.60 1.647
563.70 1.648
563.80 1.649
563.90 1.649
564.00 1.65
564.10 1.651
564.20 1.652
564.30 1.652
564.40 1.653
564.50 1.654
564.60 1.655
564.70 1.655
564.80 1.656
564.90 1.657
565.00 1.658
565.10 1.658
565.20 1.659
565.30 1.66
565.40 1.661
565.50 1.661
565.60 1.662
565.70 1.663
565.80 1.663
565.90 1.664
566.00 1.665
566.10 1.666
566.20 1.666
566.30 1.667
566.40 1.668
566.50 1.668
566.60 1.669
566.70 1.67
566.80 1.671
566.90 1.671
567.00 1.672
567.10 1.673
567.20 1.673
567.30 1.674
567.40 1.675
567.50 1.675
567.60 1.676
567.70 1.677
567.80 1.677
567.90 1.678
568.00 1.679
568.10 1.679
568.20 1.68
568.30 1.681
568.40 1.681
568.50 1.682
568.60 1.683
568.70 1.683
568.80 1.684
568.90 1.685
569.00 1.685
569.10 1.686
569.20 1.687
569.30 1.687
569.40 1.688
569.50 1.688
569.60 1.689
569.70 1.69
569.80 1.69
569.90 1.691
570.00 1.691
570.10 1.692
570.20 1.693
570.30 1.693
570.40 1.694
570.50 1.694
570.60 1.695
570.70 1.696
570.80 1.696
570.90 1.697
571.00 1.697
571.10 1.698
571.20 1.699
571.30 1.699
571.40 1.7
571.50 1.7
571.60 1.701
571.70 1.701
571.80 1.702
571.90 1.703
572.00 1.703
572.10 1.704
572.20 1.704
572.30 1.705
572.40 1.705
572.50 1.706
572.60 1.706
572.70 1.707
572.80 1.708
572.90 1.708
573.00 1.709
573.10 1.709
573.20 1.71
573.30 1.71
573.40 1.711
573.50 1.711
573.60 1.712
573.70 1.712
573.80 1.713
573.90 1.713
574.00 1.714
574.10 1.714
574.20 1.715
574.30 1.715
574.40 1.716
574.50 1.716
574.60 1.717
574.70 1.717
574.80 1.718
574.90 1.718
575.00 1.719
575.10 1.719
575.20 1.72
575.30 1.72
575.40 1.721
575.50 1.721
575.60 1.722
575.70 1.722
575.80 1.723
575.90 1.723
576.00 1.724
576.10 1.724
576.20 1.725
576.30 1.725
576.40 1.725
576.50 1.726
576.60 1.726
576.70 1.727
576.80 1.727
576.90 1.728
577.00 1.728
577.10 1.729
577.20 1.729
577.30 1.729
577.40 1.73
577.50 1.73
577.60 1.731
577.70 1.731
577.80 1.732
577.90 1.732
578.00 1.733
578.10 1.733
578.20 1.733
578.30 1.734
578.40 1.734
578.50 1.735
578.60 1.735
578.70 1.735
578.80 1.736
578.90 1.736
579.00 1.737
579.10 1.737
579.20 1.737
579.30 1.738
579.40 1.738
579.50 1.739
579.60 1.739
579.70 1.74
579.80 1.74
579.90 1.74
580.00 1.741
580.10 1.741
580.20 1.742
580.30 1.742
580.40 1.742
580.50 1.743
580.60 1.743
580.70 1.743
580.80 1.744
580.90 1.744
581.00 1.744
581.10 1.745
581.20 1.745
581.30 1.746
581.40 1.746
581.50 1.746
581.60 1.747
581.70 1.747
581.80 1.747
581.90 1.748
582.00 1.748
582.10 1.748
582.20 1.749
582.30 1.749
582.40 1.749
582.50 1.75
582.60 1.75
582.70 1.75
582.80 1.751
582.90 1.751
583.00 1.751
583.10 1.752
583.20 1.752
583.30 1.752
583.40 1.752
583.50 1.753
583.60 1.753
583.70 1.753
583.80 1.754
583.90 1.754
584.00 1.754
584.10 1.754
584.20 1.755
584.30 1.755
584.40 1.755
584.50 1.755
584.60 1.756
584.70 1.756
584.80 1.756
584.90 1.756
585.00 1.757
585.10 1.757
585.20 1.757
585.30 1.757
585.40 1.757
585.50 1.758
585.60 1.758
585.70 1.758
585.80 1.758
585.90 1.758
586.00 1.759
586.10 1.759
586.20 1.759
586.30 1.759
586.40 1.759
586.50 1.759
586.60 1.759
586.70 1.76
586.80 1.76
586.90 1.76
587.00 1.76
587.10 1.76
587.20 1.76
587.30 1.76
587.40 1.76
587.50 1.761
587.60 1.761
587.70 1.761
587.80 1.761
587.90 1.761
588.00 1.761
588.10 1.761
588.20 1.761
588.30 1.761
588.40 1.761
588.50 1.761
588.60 1.762
588.70 1.762
588.80 1.762
588.90 1.762
589.00 1.762
589.10 1.762
589.20 1.762
589.30 1.762
589.40 1.762
589.50 1.762
589.60 1.762
589.70 1.762
589.80 1.762
589.90 1.762
590.00 1.762
590.10 1.762
590.20 1.762
590.30 1.762
590.40 1.762
590.50 1.762
590.60 1.762
590.70 1.762
590.80 1.762
590.90 1.762
591.00 1.761
591.10 1.761
591.20 1.761
591.30 1.761
591.40 1.761
591.50 1.761
591.60 1.761
591.70 1.761
591.80 1.761
591.90 1.761
592.00 1.761
592.10 1.761
592.20 1.761
592.30 1.761
592.40 1.761
592.50 1.761
592.60 1.761
592.70 1.76
592.80 1.76
592.90 1.76
593.00 1.76
593.10 1.76
593.20 1.76
593.30 1.76
593.40 1.76
593.50 1.76
593.60 1.759
593.70 1.759
593.80 1.759
593.90 1.759
594.00 1.759
594.10 1.759
594.20 1.759
594.30 1.759
594.40 1.758
594.50 1.758
594.60 1.758
594.70 1.758
594.80 1.758
594.90 1.758
595.00 1.758
595.10 1.757
595.20 1.757
595.30 1.757
595.40 1.757
595.50 1.757
595.60 1.756
595.70 1.756
595.80 1.756
595.90 1.756
596.00 1.756
596.10 1.755
596.20 1.755
596.30 1.755
596.40 1.755
596.50 1.755
596.60 1.754
596.70 1.754
596.80 1.754
596.90 1.754
597.00 1.754
597.10 1.753
597.20 1.753
597.30 1.753
597.40 1.753
597.50 1.752
597.60 1.752
597.70 1.752
597.80 1.752
597.90 1.751
598.00 1.751
598.10 1.751
598.20 1.751
598.30 1.75
598.40 1.75
598.50 1.75
598.60 1.749
598.70 1.749
598.80 1.749
598.90 1.748
599.00 1.748
599.10 1.748
599.20 1.747
599.30 1.747
599.40 1.747
599.50 1.746
599.60 1.746
599.70 1.746
599.80 1.745
599.90 1.745
600.00 1.745
600.10 1.744
600.20 1.744
600.30 1.743
600.40 1.743
600.50 1.743
600.60 1.742
600.70 1.742
600.80 1.742
600.90 1.741
601.00 1.741
601.10 1.74
601.20 1.74
601.30 1.74
601.40 1.739
601.50 1.739
601.60 1.738
601.70 1.738
601.80 1.737
601.90 1.737
602.00 1.736
602.10 1.736
602.20 1.736
602.30 1.735
602.40 1.735
602.50 1.734
602.60 1.734
602.70 1.733
602.80 1.733
602.90 1.732
603.00 1.732
603.10 1.731
603.20 1.731
603.30 1.73
603.40 1.73
603.50 1.729
603.60 1.729
603.70 1.728
603.80 1.728
603.90 1.727
604.00 1.727
604.10 1.726
604.20 1.725
604.30 1.725
604.40 1.724
604.50 1.724
604.60 1.723
604.70 1.723
604.80 1.722
604.90 1.721
605.00 1.721
605.10 1.72
605.20 1.72
605.30 1.719
605.40 1.718
605.50 1.718
605.60 1.717
605.70 1.717
605.80 1.716
605.90 1.715
606.00 1.715
606.10 1.714
606.20 1.714
606.30 1.713
606.40 1.712
606.50 1.712
606.60 1.711
606.70 1.71
606.80 1.71
606.90 1.709
607.00 1.708
607.10 1.708
607.20 1.707
607.30 1.706
607.40 1.706
607.50 1.705
607.60 1.704
607.70 1.704
607.80 1.703
607.90 1.702
608.00 1.702
608.10 1.701
608.20 1.7
608.30 1.699
608.40 1.699
608.50 1.698
608.60 1.697
608.70 1.696
608.80 1.696
608.90 1.695
609.00 1.694
609.10 1.693
609.20 1.693
609.30 1.692
609.40 1.691
609.50 1.69
609.60 1.69
609.70 1.689
609.80 1.688
609.90 1.687
610.00 1.687
610.10 1.686
610.20 1.685
610.30 1.684
610.40 1.683
610.50 1.682
610.60 1.682
610.70 1.681
610.80 1.68
610.90 1.679
611.00 1.678
611.10 1.677
611.20 1.677
611.30 1.676
611.40 1.675
611.50 1.674
611.60 1.673
611.70 1.672
611.80 1.671
611.90 1.671
612.00 1.67
612.10 1.669
612.20 1.668
612.30 1.667
612.40 1.666
612.50 1.665
612.60 1.664
612.70 1.663
612.80 1.662
612.90 1.662
613.00 1.661
613.10 1.66
613.20 1.659
613.30 1.658
613.40 1.657
613.50 1.656
613.60 1.655
613.70 1.654
613.80 1.653
613.90 1.652
614.00 1.651
614.10 1.65
614.20 1.649
614.30 1.648
614.40 1.647
614.50 1.646
614.60 1.645
614.70 1.644
614.80 1.643
614.90 1.642
615.00 1.641
615.10 1.64
615.20 1.639
615.30 1.638
615.40 1.637
615.50 1.636
615.60 1.635
615.70 1.634
615.80 1.633
615.90 1.632
616.00 1.631
616.10 1.63
616.20 1.628
616.30 1.627
616.40 1.626
616.50 1.625
616.60 1.624
616.70 1.623
616.80 1.622
616.90 1.621
617.00 1.62
617.10 1.619
617.20 1.618
617.30 1.616
617.40 1.615
617.50 1.614
617.60 1.613
617.70 1.612
617.80 1.611
617.90 1.61
618.00 1.609
618.10 1.607
618.20 1.606
618.30 1.605
618.40 1.604
618.50 1.603
618.60 1.602
618.70 1.6
618.80 1.599
618.90 1.598
619.00 1.597
619.10 1.596
619.20 1.595
619.30 1.593
619.40 1.592
619.50 1.591
619.60 1.59
619.70 1.588
619.80 1.587
619.90 1.586
620.00 1.585
620.10 1.584
620.20 1.582
620.30 1.581
620.40 1.58
620.50 1.579
620.60 1.577
620.70 1.576
620.80 1.575
620.90 1.574
621.00 1.573
621.10 1.571
621.20 1.57
621.30 1.569
621.40 1.568
621.50 1.566
621.60 1.565
621.70 1.564
621.80 1.563
621.90 1.561
622.00 1.56
622.10 1.559
622.20 1.558
622.30 1.556
622.40 1.555
622.50 1.554
622.60 1.553
622.70 1.551
622.80 1.55
622.90 1.549
623.00 1.548
623.10 1.546
623.20 1.545
623.30 1.544
623.40 1.542
623.50 1.541
623.60 1.54
623.70 1.539
623.80 1.537
623.90 1.536
624.00 1.535
624.10 1.533
624.20 1.532
624.30 1.531
624.40 1.529
624.50 1.528
624.60 1.527
624.70 1.525
624.80 1.524
624.90 1.523
625.00 1.521
625.10 1.52
625.20 1.519
625.30 1.517
625.40 1.516
625.50 1.514
625.60 1.513
625.70 1.512
625.80 1.51
625.90 1.509
626.00 1.507
626.10 1.506
626.20 1.505
626.30 1.503
626.40 1.502
626.50 1.5
626.60 1.499
626.70 1.498
626.80 1.496
626.90 1.495
627.00 1.493
627.10 1.492
627.20 1.49
627.30 1.489
627.40 1.488
627.50 1.486
627.60 1.485
627.70 1.483
627.80 1.482
627.90 1.48
628.00 1.479
628.10 1.478
628.20 1.476
628.30 1.475
628.40 1.473
628.50 1.472
628.60 1.47
628.70 1.469
628.80 1.467
628.90 1.466
629.00 1.464
629.10 1.463
629.20 1.462
629.30 1.46
629.40 1.459
629.50 1.457
629.60 1.456
629.70 1.454
629.80 1.453
629.90 1.451
630.00 1.45
630.10 1.448
630.20 1.447
630.30 1.445
630.40 1.444
630.50 1.442
630.60 1.441
630.70 1.439
630.80 1.438
630.90 1.436
631.00 1.435
631.10 1.433
631.20 1.432
631.30 1.43
631.40 1.429
631.50 1.427
631.60 1.426
631.70 1.424
631.80 1.423
631.90 1.421
632.00 1.42
632.10 1.418
632.20 1.417
632.30 1.415
632.40 1.414
632.50 1.412
632.60 1.41
632.70 1.409
632.80 1.407
632.90 1.406
633.00 1.404
633.10 1.403
633.20 1.401
633.30 1.4
633.40 1.398
633.50 1.396
633.60 1.395
633.70 1.393
633.80 1.392
633.90 1.39
634.00 1.389
634.10 1.387
634.20 1.386
634.30 1.384
634.40 1.382
634.50 1.381
634.60 1.379
634.70 1.378
634.80 1.376
634.90 1.374
635.00 1.373
635.10 1.371
635.20 1.37
635.30 1.368
635.40 1.366
635.50 1.365
635.60 1.363
635.70 1.362
635.80 1.36
635.90 1.358
636.00 1.357
636.10 1.355
636.20 1.354
636.30 1.352
636.40 1.35
636.50 1.349
636.60 1.347
636.70 1.346
636.80 1.344
636.90 1.342
637.00 1.341
637.10 1.339
637.20 1.338
637.30 1.336
637.40 1.334
637.50 1.333
637.60 1.331
637.70 1.329
637.80 1.328
637.90 1.326
638.00 1.325
638.10 1.323
638.20 1.321
638.30 1.32
638.40 1.318
638.50 1.316
638.60 1.315
638.70 1.313
638.80 1.312
638.90 1.31
639.00 1.308
639.10 1.307
639.20 1.305
639.30 1.304
639.40 1.302
639.50 1.3
639.60 1.299
639.70 1.297
639.80 1.295
639.90 1.294
640.00 1.292
640.10 1.29
640.20 1.289
640.30 1.287
640.40 1.285
640.50 1.284
640.60 1.282
640.70 1.28
640.80 1.279
640.90 1.277
641.00 1.275
641.10 1.274
641.20 1.272
641.30 1.27
641.40 1.268
641.50 1.267
641.60 1.265
641.70 1.263
641.80 1.262
641.90 1.26
642.00 1.258
642.10 1.257
642.20 1.255
642.30 1.253
642.40 1.251
642.50 1.25
642.60 1.248
642.70 1.246
642.80 1.244
642.90 1.243
643.00 1.241
643.10 1.239
643.20 1.237
643.30 1.236
643.40 1.234
643.50 1.232
643.60 1.23
643.70 1.229
643.80 1.227
643.90 1.225
644.00 1.223
644.10 1.222
644.20 1.22
644.30 1.218
644.40 1.217
644.50 1.215
644.60 1.213
644.70 1.211
644.80 1.21
644.90 1.208
645.00 1.206
645.10 1.204
645.20 1.203
645.30 1.201
645.40 1.199
645.50 1.198
645.60 1.196
645.70 1.194
645.80 1.192
645.90 1.191
646.00 1.189
646.10 1.187
646.20 1.185
646.30 1.184
646.40 1.182
646.50 1.18
646.60 1.179
646.70 1.177
646.80 1.175
646.90 1.174
647.00 1.172
647.10 1.17
647.20 1.168
647.30 1.167
647.40 1.165
647.50 1.163
647.60 1.162
647.70 1.16
647.80 1.158
647.90 1.156
648.00 1.155
648.10 1.153
648.20 1.151
648.30 1.149
648.40 1.148
648.50 1.146
648.60 1.144
648.70 1.142
648.80 1.141
648.90 1.139
649.00 1.137
649.10 1.136
649.20 1.134
649.30 1.132
649.40 1.13
649.50 1.129
649.60 1.127
649.70 1.125
649.80 1.123
649.90 1.122
650.00 1.12
650.10 1.118
650.20 1.116
650.30 1.115
650.40 1.113
650.50 1.111
650.60 1.109
650.70 1.108
650.80 1.106
650.90 1.104
651.00 1.102
651.10 1.101
651.20 1.099
651.30 1.097
651.40 1.096
651.50 1.094
651.60 1.092
651.70 1.09
651.80 1.089
651.90 1.087
652.00 1.085
652.10 1.083
652.20 1.082
652.30 1.08
652.40 1.078
652.50 1.076
652.60 1.075
652.70 1.073
652.80 1.071
652.90 1.069
653.00 1.068
653.10 1.066
653.20 1.064
653.30 1.062
653.40 1.061
653.50 1.059
653.60 1.057
653.70 1.055
653.80 1.054
653.90 1.052
654.00 1.05
654.10 1.048
654.20 1.047
654.30 1.045
654.40 1.043
654.50 1.041
654.60 1.04
654.70 1.038
654.80 1.036
654.90 1.034
655.00 1.033
655.10 1.031
655.20 1.029
655.30 1.028
655.40 1.026
655.50 1.024
655.60 1.022
655.70 1.021
655.80 1.019
655.90 1.017
656.00 1.015
656.10 1.014
656.20 1.012
656.30 1.01
656.40 1.009
656.50 1.007
656.60 1.005
656.70 1.003
656.80 1.002
656.90 0.9998
657.00 0.9981
657.10 0.9964
657.20 0.9946
657.30 0.9929
657.40 0.9912
657.50 0.9894
657.60 0.9877
657.70 0.986
657.80 0.9843
657.90 0.9825
658.00 0.9808
658.10 0.9791
658.20 0.9773
658.30 0.9756
658.40 0.9739
658.50 0.9721
658.60 0.9704
658.70 0.9687
658.80 0.967
658.90 0.9652
659.00 0.9635
659.10 0.9618
659.20 0.9601
659.30 0.9583
659.40 0.9566
659.50 0.9549
659.60 0.9532
659.70 0.9514
659.80 0.9497
659.90 0.948
660.00 0.9463
660.10 0.9446
660.20 0.9429
660.30 0.9411
660.40 0.9394
660.50 0.9377
660.60 0.936
660.70 0.9343
660.80 0.9325
660.90 0.9308
661.00 0.9291
661.10 0.9274
661.20 0.9257
661.30 0.924
661.40 0.9222
661.50 0.9205
661.60 0.9188
661.70 0.9171
661.80 0.9154
661.90 0.9137
662.00 0.912
662.10 0.9103
662.20 0.9085
662.30 0.9068
662.40 0.9051
662.50 0.9034
662.60 0.9017
662.70 0.9
662.80 0.8983
662.90 0.8966
663.00 0.8949
663.10 0.8932
663.20 0.8915
663.30 0.8898
663.40 0.8881
663.50 0.8864
663.60 0.8847
663.70 0.883
663.80 0.8813
663.90 0.8796
664.00 0.8779
664.10 0.8762
664.20 0.8745
664.30 0.8728
664.40 0.8711
664.50 0.8694
664.60 0.8677
664.70 0.866
664.80 0.8643
664.90 0.8626
665.00 0.861
665.10 0.8593
665.20 0.8576
665.30 0.8559
665.40 0.8542
665.50 0.8525
665.60 0.8508
665.70 0.8492
665.80 0.8475
665.90 0.8458
666.00 0.8441
666.10 0.8424
666.20 0.8408
666.30 0.8391
666.40 0.8374
666.50 0.8357
666.60 0.834
666.70 0.8324
666.80 0.8307
666.90 0.829
667.00 0.8273
667.10 0.8257
667.20 0.824
667.30 0.8223
667.40 0.8207
667.50 0.819
667.60 0.8173
667.70 0.8157
667.80 0.814
667.90 0.8123
668.00 0.8107
668.10 0.809
668.20 0.8074
668.30 0.8057
668.40 0.8041
668.50 0.8024
668.60 0.8007
668.70 0.7991
668.80 0.7974
668.90 0.7958
669.00 0.7942
669.10 0.7925
669.20 0.7909
669.30 0.7892
669.40 0.7876
669.50 0.7859
669.60 0.7843
669.70 0.7826
669.80 0.781
669.90 0.7793
670.00 0.7777
670.10 0.7761
670.20 0.7744
670.30 0.7728
670.40 0.7712
670.50 0.7695
670.60 0.7679
670.70 0.7663
670.80 0.7646
670.90 0.763
671.00 0.7614
671.10 0.7597
671.20 0.7581
671.30 0.7565
671.40 0.7549
671.50 0.7532
671.60 0.7516
671.70 0.75
671.80 0.7484
671.90 0.7468
672.00 0.7451
672.10 0.7435
672.20 0.7419
672.30 0.7403
672.40 0.7387
672.50 0.7371
672.60 0.7355
672.70 0.7339
672.80 0.7323
672.90 0.7307
673.00 0.7291
673.10 0.7275
673.20 0.7259
673.30 0.7243
673.40 0.7227
673.50 0.7211
673.60 0.7195
673.70 0.7179
673.80 0.7163
673.90 0.7147
674.00 0.7131
674.10 0.7115
674.20 0.7099
674.30 0.7083
674.40 0.7067
674.50 0.7052
674.60 0.7036
674.70 0.702
674.80 0.7004
674.90 0.6989
675.00 0.6973
675.10 0.6957
675.20 0.6941
675.30 0.6926
675.40 0.691
675.50 0.6894
675.60 0.6879
675.70 0.6863
675.80 0.6847
675.90 0.6832
676.00 0.6816
676.10 0.6801
676.20 0.6785
676.30 0.677
676.40 0.6754
676.50 0.6739
676.60 0.6723
676.70 0.6708
676.80 0.6692
676.90 0.6677
677.00 0.6661
677.10 0.6646
677.20 0.663
677.30 0.6615
677.40 0.66
677.50 0.6585
677.60 0.6569
677.70 0.6554
677.80 0.6539
677.90 0.6524
678.00 0.6508
678.10 0.6493
678.20 0.6478
678.30 0.6463
678.40 0.6448
678.50 0.6433
678.60 0.6417
678.70 0.6402
678.80 0.6387
678.90 0.6372
679.00 0.6357
679.10 0.6342
679.20 0.6327
679.30 0.6312
679.40 0.6297
679.50 0.6282
679.60 0.6267
679.70 0.6252
679.80 0.6237
679.90 0.6222
680.00 0.6207
680.10 0.6192
680.20 0.6177
680.30 0.6162
680.40 0.6147
680.50 0.6132
680.60 0.6117
680.70 0.6102
680.80 0.6088
680.90 0.6073
681.00 0.6058
681.10 0.6043
681.20 0.6028
681.30 0.6014
681.40 0.5999
681.50 0.5984
681.60 0.5969
681.70 0.5955
681.80 0.594
681.90 0.5925
682.00 0.5911
682.10 0.5896
682.20 0.5881
682.30 0.5867
682.40 0.5852
682.50 0.5838
682.60 0.5823
682.70 0.5809
682.80 0.5794
682.90 0.578
683.00 0.5765
683.10 0.5751
683.20 0.5736
683.30 0.5722
683.40 0.5707
683.50 0.5693
683.60 0.5679
683.70 0.5664
683.80 0.565
683.90 0.5636
684.00 0.5621
684.10 0.5607
684.20 0.5593
684.30 0.5579
684.40 0.5564
684.50 0.555
684.60 0.5536
684.70 0.5522
684.80 0.5508
684.90 0.5494
685.00 0.548
685.10 0.5466
685.20 0.5451
685.30 0.5437
685.40 0.5423
685.50 0.5409
685.60 0.5395
685.70 0.5381
685.80 0.5368
685.90 0.5354
686.00 0.534
686.10 0.5326
686.20 0.5312
686.30 0.5298
686.40 0.5284
686.50 0.527
686.60 0.5256
686.70 0.5243
686.80 0.5229
686.90 0.5215
687.00 0.5201
687.10 0.5188
687.20 0.5174
687.30 0.516
687.40 0.5147
687.50 0.5133
687.60 0.5119
687.70 0.5106
687.80 0.5092
687.90 0.5079
688.00 0.5065
688.10 0.5052
688.20 0.5038
688.30 0.5024
688.40 0.5011
688.50 0.4998
688.60 0.4984
688.70 0.4971
688.80 0.4958
688.90 0.4944
689.00 0.4931
689.10 0.4917
689.20 0.4904
689.30 0.4891
689.40 0.4878
689.50 0.4865
689.60 0.4852
689.70 0.4839
689.80 0.4826
689.90 0.4814
690.00 0.4801
690.10 0.4788
690.20 0.4775
690.30 0.4762
690.40 0.4749
690.50 0.4737
690.60 0.4724
690.70 0.4711
690.80 0.4698
690.90 0.4685
691.00 0.4673
691.10 0.466
691.20 0.4647
691.30 0.4634
691.40 0.4621
691.50 0.4609
691.60 0.4596
691.70 0.4583
691.80 0.4571
691.90 0.4558
692.00 0.4545
692.10 0.4532
692.20 0.452
692.30 0.4507
692.40 0.4494
692.50 0.4482
692.60 0.4469
692.70 0.4456
692.80 0.4444
692.90 0.4431
693.00 0.4418
693.10 0.4406
693.20 0.4393
693.30 0.438
693.40 0.4368
693.50 0.4355
693.60 0.4343
693.70 0.433
693.80 0.4317
693.90 0.4305
694.00 0.4292
694.10 0.428
694.20 0.4267
694.30 0.4255
694.40 0.4242
694.50 0.423
694.60 0.4217
694.70 0.4205
694.80 0.4192
694.90 0.418
695.00 0.4167
695.10 0.4155
695.20 0.4144
695.30 0.4132
695.40 0.412
695.50 0.4109
695.60 0.4097
695.70 0.4085
695.80 0.4074
695.90 0.4062
696.00 0.405
696.10 0.4039
696.20 0.4027
696.30 0.4016
696.40 0.4004
696.50 0.3992
696.60 0.3981
696.70 0.3969
696.80 0.3958
696.90 0.3946
697.00 0.3934
697.10 0.3923
697.20 0.3911
697.30 0.39
697.40 0.3888
697.50 0.3877
697.60 0.3865
697.70 0.3854
697.80 0.3842
697.90 0.3831
698.00 0.3819
698.10 0.3808
698.20 0.3796
698.30 0.3785
698.40 0.3773
698.50 0.3762
698.60 0.375
698.70 0.3739
698.80 0.3727
698.90 0.3716
699.00 0.3705
699.10 0.3693
699.20 0.3682
699.30 0.367
699.40 0.3659
699.50 0.3647
699.60 0.3636
699.70 0.3625
699.80 0.3613
699.90 0.3602
700.00 0.3591
700.10 0.358
700.20 0.3569
700.30 0.3559
700.40 0.3548
700.50 0.3538
700.60 0.3528
700.70 0.3517
700.80 0.3507
700.90 0.3496
701.00 0.3486
701.10 0.3475
701.20 0.3465
701.30 0.3454
701.40 0.3444
701.50 0.3433
701.60 0.3423
701.70 0.3413
701.80 0.3402
701.90 0.3392
702.00 0.3381
702.10 0.3371
702.20 0.3361
702.30 0.335
702.40 0.334
702.50 0.3329
702.60 0.3319
702.70 0.3309
702.80 0.3298
702.90 0.3288
703.00 0.3278
703.10 0.3267
703.20 0.3257
703.30 0.3247
703.40 0.3236
703.50 0.3226
703.60 0.3216
703.70 0.3205
703.80 0.3195
703.90 0.3185
704.00 0.3175
704.10 0.3164
704.20 0.3154
704.30 0.3144
704.40 0.3134
704.50 0.3123
704.60 0.3113
704.70 0.3103
704.80 0.3093
704.90 0.3082
705.00 0.3072
705.10 0.3063
705.20 0.3054
705.30 0.3044
705.40 0.3035
705.50 0.3026
705.60 0.3017
705.70 0.3007
705.80 0.2998
705.90 0.2989
706.00 0.298
706.10 0.2971
706.20 0.2962
706.30 0.2952
706.40 0.2943
706.50 0.2934
706.60 0.2925
706.70 0.2916
706.80 0.2907
706.90 0.2897
707.00 0.2888
707.10 0.2879
707.20 0.287
707.30 0.2861
707.40 0.2852
707.50 0.2843
707.60 0.2833
707.70 0.2824
707.80 0.2815
707.90 0.2806
708.00 0.2797
708.10 0.2788
708.20 0.2779
708.30 0.277
708.40 0.2761
708.50 0.2752
708.60 0.2743
708.70 0.2734
708.80 0.2724
708.90 0.2715
709.00 0.2706
709.10 0.2697
709.20 0.2688
709.30 0.2679
709.40 0.267
709.50 0.2661
709.60 0.2652
709.70 0.2643
709.80 0.2634
709.90 0.2625
710.00 0.2616
710.10 0.2608
710.20 0.26
710.30 0.2592
710.40 0.2584
710.50 0.2576
710.60 0.2568
710.70 0.256
710.80 0.2552
710.90 0.2544
711.00 0.2536
711.10 0.2528
711.20 0.252
711.30 0.2512
711.40 0.2504
711.50 0.2496
711.60 0.2488
711.70 0.248
711.80 0.2472
711.90 0.2465
712.00 0.2457
712.10 0.2449
712.20 0.2441
712.30 0.2433
712.40 0.2425
712.50 0.2417
712.60 0.2409
712.70 0.2401
712.80 0.2393
712.90 0.2385
713.00 0.2377
713.10 0.237
713.20 0.2362
713.30 0.2354
713.40 0.2346
713.50 0.2338
713.60 0.233
713.70 0.2322
713.80 0.2314
713.90 0.2307
714.00 0.2299
714.10 0.2291
714.20 0.2283
714.30 0.2275
714.40 0.2267
714.50 0.2259
714.60 0.2252
714.70 0.2244
714.80 0.2236
714.90 0.2228
715.00 0.222
715.10 0.2214
715.20 0.2207
715.30 0.22
715.40 0.2193
715.50 0.2186
715.60 0.2179
715.70 0.2173
715.80 0.2166
715.90 0.2159
716.00 0.2152
716.10 0.2145
716.20 0.2139
716.30 0.2132
716.40 0.2125
716.50 0.2118
716.60 0.2111
716.70 0.2105
716.80 0.2098
716.90 0.2091
717.00 0.2084
717.10 0.2078
717.20 0.2071
717.30 0.2064
717.40 0.2057
717.50 0.2051
717.60 0.2044
717.70 0.2037
717.80 0.203
717.90 0.2024
718.00 0.2017
718.10 0.201
718.20 0.2003
718.30 0.1997
718.40 0.199
718.50 0.1983
718.60 0.1977
718.70 0.197
718.80 0.1963
718.90 0.1956
719.00 0.195
719.10 0.1943
719.20 0.1936
719.30 0.193
719.40 0.1923
719.50 0.1916
719.60 0.191
719.70 0.1903
719.80 0.1896
719.90 0.189
720.00 0.1883
720.10 0.1877
720.20 0.1871
720.30 0.1866
720.40 0.186
720.50 0.1854
720.60 0.1849
720.70 0.1843
720.80 0.1837
720.90 0.1831
721.00 0.1826
721.10 0.182
721.20 0.1814
721.30 0.1808
721.40 0.1803
721.50 0.1797
721.60 0.1791
721.70 0.1786
721.80 0.178
721.90 0.1774
722.00 0.1769
722.10 0.1763
722.20 0.1757
722.30 0.1751
722.40 0.1746
722.50 0.174
722.60 0.1734
722.70 0.1729
722.80 0.1723
722.90 0.1717
723.00 0.1712
723.10 0.1706
723.20 0.17
723.30 0.1695
723.40 0.1689
723.50 0.1684
723.60 0.1678
723.70 0.1672
723.80 0.1667
723.90 0.1661
724.00 0.1655
724.10 0.165
724.20 0.1644
724.30 0.1638
724.40 0.1633
724.50 0.1627
724.60 0.1622
724.70 0.1616
724.80 0.161
724.90 0.1605
725.00 0.1599
725.10 0.1594
725.20 0.159
725.30 0.1585
725.40 0.158
725.50 0.1575
725.60 0.1571
725.70 0.1566
725.80 0.1561
725.90 0.1556
726.00 0.1552
726.10 0.1547
726.20 0.1542
726.30 0.1538
726.40 0.1533
726.50 0.1528
726.60 0.1523
726.70 0.1519
726.80 0.1514
726.90 0.1509
727.00 0.1505
727.10 0.15
727.20 0.1495
727.30 0.149
727.40 0.1486
727.50 0.1481
727.60 0.1476
727.70 0.1472
727.80 0.1467
727.90 0.1462
728.00 0.1458
728.10 0.1453
728.20 0.1448
728.30 0.1444
728.40 0.1439
728.50 0.1434
728.60 0.143
728.70 0.1425
728.80 0.142
728.90 0.1416
729.00 0.1411
729.10 0.1406
729.20 0.1402
729.30 0.1397
729.40 0.1392
729.50 0.1388
729.60 0.1383
729.70 0.1378
729.80 0.1374
729.90 0.1369
730.00 0.1365
730.10 0.1361
730.20 0.1358
730.30 0.1355
730.40 0.1351
730.50 0.1348
730.60 0.1345
730.70 0.1341
730.80 0.1338
730.90 0.1335
731.00 0.1331
731.10 0.1328
731.20 0.1325
731.30 0.1321
731.40 0.1318
731.50 0.1315
731.60 0.1311
731.70 0.1308
731.80 0.1305
731.90 0.1302
732.00 0.1298
732.10 0.1295
732.20 0.1292
732.30 0.1288
732.40 0.1285
732.50 0.1282
732.60 0.1278
732.70 0.1275
732.80 0.1272
732.90 0.1269
733.00 0.1265
733.10 0.1262
733.20 0.1259
733.30 0.1255
733.40 0.1252
733.50 0.1249
733.60 0.1246
733.70 0.1242
733.80 0.1239
733.90 0.1236
734.00 0.1233
734.10 0.1229
734.20 0.1226
734.30 0.1223
734.40 0.122
734.50 0.1216
734.60 0.1213
734.70 0.121
734.80 0.1207
734.90 0.1203
735.00 0.12
735.10 0.1197
735.20 0.1194
735.30 0.119
735.40 0.1187
735.50 0.1184
735.60 0.1181
735.70 0.1177
735.80 0.1174
735.90 0.1171
736.00 0.1168
736.10 0.1165
736.20 0.1161
736.30 0.1158
736.40 0.1155
736.50 0.1152
736.60 0.1148
736.70 0.1145
736.80 0.1142
736.90 0.1139
737.00 0.1136
737.10 0.1132
737.20 0.1129
737.30 0.1126
737.40 0.1123
737.50 0.112
737.60 0.1116
737.70 0.1113
737.80 0.111
737.90 0.1107
738.00 0.1104
738.10 0.11
738.20 0.1097
738.30 0.1094
738.40 0.1091
738.50 0.1088
738.60 0.1084
738.70 0.1081
738.80 0.1078
738.90 0.1075
739.00 0.1072
739.10 0.1068
739.20 0.1065
739.30 0.1062
739.40 0.1059
739.50 0.1056
739.60 0.1053
739.70 0.1049
739.80 0.1046
739.90 0.1043
740.00 0.104
740.10 0.1038
740.20 0.1036
740.30 0.1034
740.40 0.1032
740.50 0.103
740.60 0.1028
740.70 0.1026
740.80 0.1024
740.90 0.1022
741.00 0.1021
741.10 0.1019
741.20 0.1017
741.30 0.1015
741.40 0.1013
741.50 0.1011
741.60 0.1009
741.70 0.1007
741.80 0.1005
741.90 0.1003
742.00 0.1001
742.10 0.09992
742.20 0.09973
742.30 0.09954
742.40 0.09935
742.50 0.09915
742.60 0.09896
742.70 0.09877
742.80 0.09858
742.90 0.09838
743.00 0.09819
743.10 0.098
743.20 0.09781
743.30 0.09762
743.40 0.09742
743.50 0.09723
743.60 0.09704
743.70 0.09685
743.80 0.09666
743.90 0.09647
744.00 0.09628
744.10 0.09608
744.20 0.09589
744.30 0.0957
744.40 0.09551
744.50 0.09532
744.60 0.09513
744.70 0.09494
744.80 0.09475
744.90 0.09456
745.00 0.09437
745.10 0.09418
745.20 0.09399
745.30 0.0938
745.40 0.09361
745.50 0.09342
745.60 0.09323
745.70 0.09304
745.80 0.09285
745.90 0.09266
746.00 0.09247
746.10 0.09229
746.20 0.0921
746.30 0.09191
746.40 0.09172
746.50 0.09153
746.60 0.09134
746.70 0.09115
746.80 0.09096
746.90 0.09078
747.00 0.09059
747.10 0.0904
747.20 0.09021
747.30 0.09002
747.40 0.08984
747.50 0.08965
747.60 0.08946
747.70 0.08927
747.80 0.08909
747.90 0.0889
748.00 0.08871
748.10 0.08852
748.20 0.08834
748.30 0.08815
748.40 0.08796
748.50 0.08778
748.60 0.08759
748.70 0.0874
748.80 0.08722
748.90 0.08703
749.00 0.08684
749.10 0.08666
749.20 0.08647
749.30 0.08629
749.40 0.0861
749.50 0.08592
749.60 0.08573
749.70 0.08554
749.80 0.08536
749.90 0.08517
750.00 0.08499
750.10 0.08488
750.20 0.08477
750.30 0.08465
750.40 0.08454
750.50 0.08443
750.60 0.08432
750.70 0.08421
750.80 0.0841
750.90 0.08399
751.00 0.08388
751.10 0.08377
751.20 0.08366
751.30 0.08355
751.40 0.08344
751.50 0.08333
751.60 0.08322
751.70 0.08311
751.80 0.083
751.90 0.08289
752.00 0.08278
752.10 0.08267
752.20 0.08256
752.30 0.08245
752.40 0.08234
752.50 0.08223
752.60 0.08212
752.70 0.08201
752.80 0.0819
752.90 0.08179
753.00 0.08168
753.10 0.08157
753.20 0.08146
753.30 0.08135
753.40 0.08124
753.50 0.08113
753.60 0.08102
753.70 0.08092
753.80 0.08081
753.90 0.0807
754.00 0.08059
754.10 0.08048
754.20 0.08037
754.30 0.08026
754.40 0.08015
754.50 0.08004
754.60 0.07994
754.70 0.07983
754.80 0.07972
754.90 0.07961
755.00 0.0795
755.10 0.07939
755.20 0.07929
755.30 0.07918
755.40 0.07907
755.50 0.07896
755.60 0.07885
755.70 0.07875
755.80 0.07864
755.90 0.07853
756.00 0.07842
756.10 0.07831
756.20 0.07821
756.30 0.0781
756.40 0.07799
756.50 0.07788
756.60 0.07778
756.70 0.07767
756.80 0.07756
756.90 0.07745
757.00 0.07735
757.10 0.07724
757.20 0.07713
757.30 0.07703
757.40 0.07692
757.50 0.07681
757.60 0.0767
757.70 0.0766
757.80 0.07649
757.90 0.07638
758.00 0.07628
758.10 0.07617
758.20 0.07606
758.30 0.07596
758.40 0.07585
758.50 0.07574
758.60 0.07564
758.70 0.07553
758.80 0.07542
758.90 0.07532
759.00 0.07521
759.10 0.07511
759.20 0.075
759.30 0.07489
759.40 0.07479
759.50 0.07468
759.60 0.07458
759.70 0.07447
759.80 0.07436
759.90 0.07426
760.00 0.07415
760.10 0.07409
760.20 0.07403
760.30 0.07397
760.40 0.0739
760.50 0.07384
760.60 0.07378
760.70 0.07372
760.80 0.07366
760.90 0.07359
761.00 0.07353
761.10 0.07347
761.20 0.07341
761.30 0.07335
761.40 0.07328
761.50 0.07322
761.60 0.07316
761.70 0.0731
761.80 0.07304
761.90 0.07298
762.00 0.07291
762.10 0.07285
762.20 0.07279
762.30 0.07273
762.40 0.07267
762.50 0.07261
762.60 0.07254
762.70 0.07248
762.80 0.07242
762.90 0.07236
763.00 0.0723
763.10 0.07224
763.20 0.07218
763.30 0.07211
763.40 0.07205
763.50 0.07199
763.60 0.07193
763.70 0.07187
763.80 0.07181
763.90 0.07175
764.00 0.07169
764.10 0.07163
764.20 0.07156
764.30 0.0715
764.40 0.07144
764.50 0.07138
764.60 0.07132
764.70 0.07126
764.80 0.0712
764.90 0.07114
765.00 0.07108
765.10 0.07102
765.20 0.07096
765.30 0.07089
765.40 0.07083
765.50 0.07077
765.60 0.07071
765.70 0.07065
765.80 0.07059
765.90 0.07053
766.00 0.07047
766.10 0.07041
766.20 0.07035
766.30 0.07029
766.40 0.07023
766.50 0.07017
766.60 0.07011
766.70 0.07005
766.80 0.06999
766.90 0.06993
767.00 0.06987
767.10 0.06981
767.20 0.06975
767.30 0.06969
767.40 0.06963
767.50 0.06957
767.60 0.06951
767.70 0.06945
767.80 0.06939
767.90 0.06933
768.00 0.06927
768.10 0.06921
768.20 0.06915
768.30 0.06909
768.40 0.06903
768.50 0.06897
768.60 0.06891
768.70 0.06885
768.80 0.06879
768.90 0.06873
769.00 0.06867
769.10 0.06861
769.20 0.06855
769.30 0.06849
769.40 0.06843
769.50 0.06837
769.60 0.06831
769.70 0.06825
769.80 0.06819
769.90 0.06813
770.00 0.06807
770.10 0.06804
770.20 0.06801
770.30 0.06798
770.40 0.06794
770.50 0.06791
770.60 0.06788
770.70 0.06784
770.80 0.06781
770.90 0.06778
771.00 0.06774
771.10 0.06771
771.20 0.06768
771.30 0.06765
771.40 0.06761
771.50 0.06758
771.60 0.06755
771.70 0.06751
771.80 0.06748
771.90 0.06745
772.00 0.06742
772.10 0.06738
772.20 0.06735
772.30 0.06732
772.40 0.06728
772.50 0.06725
772.60 0.06722
772.70 0.06719
772.80 0.06715
772.90 0.06712
773.00 0.06709
773.10 0.06706
773.20 0.06702
773.30 0.06699
773.40 0.06696
773.50 0.06693
773.60 0.06689
773.70 0.06686
773.80 0.06683
773.90 0.0668
774.00 0.06676
774.10 0.06673
774.20 0.0667
774.30 0.06667
774.40 0.06663
774.50 0.0666
774.60 0.06657
774.70 0.06654
774.80 0.0665
774.90 0.06647
775.00 0.06644
775.10 0.06641
775.20 0.06637
775.30 0.06634
775.40 0.06631
775.50 0.06628
775.60 0.06624
775.70 0.06621
775.80 0.06618
775.90 0.06615
776.00 0.06612
776.10 0.06608
776.20 0.06605
776.30 0.06602
776.40 0.06599
776.50 0.06595
776.60 0.06592
776.70 0.06589
776.80 0.06586
776.90 0.06583
777.00 0.06579
777.10 0.06576
777.20 0.06573
777.30 0.0657
777.40 0.06567
777.50 0.06563
777.60 0.0656
777.70 0.06557
777.80 0.06554
777.90 0.06551
778.00 0.06547
778.10 0.06544
778.20 0.06541
778.30 0.06538
778.40 0.06535
778.50 0.06532
778.60 0.06528
778.70 0.06525
778.80 0.06522
778.90 0.06519
779.00 0.06516
779.10 0.06512
779.20 0.06509
779.30 0.06506
779.40 0.06503
779.50 0.065
779.60 0.06497
779.70 0.06493
779.80 0.0649
779.90 0.06487
780.00 0.06484
780.10 0.06486
780.20 0.06488
780.30 0.06491
780.40 0.06493
780.50 0.06495
780.60 0.06497
780.70 0.06499
780.80 0.06501
780.90 0.06504
781.00 0.06506
781.10 0.06508
781.20 0.0651
781.30 0.06512
781.40 0.06515
781.50 0.06517
781.60 0.06519
781.70 0.06521
781.80 0.06523
781.90 0.06526
782.00 0.06528
782.10 0.0653
782.20 0.06532
782.30 0.06534
782.40 0.06536
782.50 0.06539
782.60 0.06541
782.70 0.06543
782.80 0.06545
782.90 0.06547
783.00 0.06549
783.10 0.06552
783.20 0.06554
783.30 0.06556
783.40 0.06558
783.50 0.0656
783.60 0.06562
783.70 0.06565
783.80 0.06567
783.90 0.06569
784.00 0.06571
784.10 0.06573
784.20 0.06575
784.30 0.06577
784.40 0.0658
784.50 0.06582
784.60 0.06584
784.70 0.06586
784.80 0.06588
784.90 0.0659
785.00 0.06593
785.10 0.06595
785.20 0.06597
785.30 0.06599
785.40 0.06601
785.50 0.06603
785.60 0.06605
785.70 0.06607
785.80 0.0661
785.90 0.06612
786.00 0.06614
786.10 0.06616
786.20 0.06618
786.30 0.0662
786.40 0.06622
786.50 0.06624
786.60 0.06627
786.70 0.06629
786.80 0.06631
786.90 0.06633
787.00 0.06635
787.10 0.06637
787.20 0.06639
787.30 0.06641
787.40 0.06643
787.50 0.06646
787.60 0.06648
787.70 0.0665
787.80 0.06652
787.90 0.06654
788.00 0.06656
788.10 0.06658
788.20 0.0666
788.30 0.06662
788.40 0.06664
788.50 0.06667
788.60 0.06669
788.70 0.06671
788.80 0.06673
788.90 0.06675
789.00 0.06677
789.10 0.06679
789.20 0.06681
789.30 0.06683
789.40 0.06685
789.50 0.06687
789.60 0.0669
789.70 0.06692
789.80 0.06694
789.90 0.06696
790.00 0.06698
790.10 0.06703
790.20 0.06708
790.30 0.06714
790.40 0.06719
790.50 0.06724
790.60 0.06729
790.70 0.06735
790.80 0.0674
790.90 0.06745
791.00 0.0675
791.10 0.06756
791.20 0.06761
791.30 0.06766
791.40 0.06771
791.50 0.06776
791.60 0.06782
791.70 0.06787
791.80 0.06792
791.90 0.06797
792.00 0.06803
792.10 0.06808
792.20 0.06813
792.30 0.06818
792.40 0.06823
792.50 0.06829
792.60 0.06834
792.70 0.06839
792.80 0.06844
792.90 0.06849
793.00 0.06854
793.10 0.0686
793.20 0.06865
793.30 0.0687
793.40 0.06875
793.50 0.0688
793.60 0.06886
793.70 0.06891
793.80 0.06896
793.90 0.06901
794.00 0.06906
794.10 0.06911
794.20 0.06916
794.30 0.06922
794.40 0.06927
794.50 0.06932
794.60 0.06937
794.70 0.06942
794.80 0.06947
794.90 0.06952
795.00 0.06957
795.10 0.06963
795.20 0.06968
795.30 0.06973
795.40 0.06978
795.50 0.06983
795.60 0.06988
795.70 0.06993
795.80 0.06998
795.90 0.07003
796.00 0.07009
796.10 0.07014
796.20 0.07019
796.30 0.07024
796.40 0.07029
796.50 0.07034
796.60 0.07039
796.70 0.07044
796.80 0.07049
796.90 0.07054
797.00 0.07059
797.10 0.07064
797.20 0.0707
797.30 0.07075
797.40 0.0708
797.50 0.07085
797.60 0.0709
797.70 0.07095
797.80 0.071
797.90 0.07105
798.00 0.0711
798.10 0.07115
798.20 0.0712
798.30 0.07125
798.40 0.0713
798.50 0.07135
798.60 0.0714
798.70 0.07145
798.80 0.0715
798.90 0.07155
799.00 0.0716
799.10 0.07165
799.20 0.0717
799.30 0.07175
799.40 0.0718
799.50 0.07185
799.60 0.0719
799.70 0.07195
799.80 0.072
799.90 0.07205
800.00 0.0721
800.10 0.07213
800.20 0.07216
800.30 0.07218
800.40 0.07221
800.50 0.07224
800.60 0.07226
800.70 0.07229
800.80 0.07232
800.90 0.07234
801.00 0.07237
801.10 0.0724
801.20 0.07243
801.30 0.07245
801.40 0.07248
801.50 0.07251
801.60 0.07253
801.70 0.07256
801.80 0.07259
801.90 0.07261
802.00 0.07264
802.10 0.07267
802.20 0.07269
802.30 0.07272
802.40 0.07275
802.50 0.07277
802.60 0.0728
802.70 0.07283
802.80 0.07285
802.90 0.07288
803.00 0.07291
803.10 0.07293
803.20 0.07296
803.30 0.07299
803.40 0.07301
803.50 0.07304
803.60 0.07307
803.70 0.07309
803.80 0.07312
803.90 0.07315
804.00 0.07317
804.10 0.0732
804.20 0.07322
804.30 0.07325
804.40 0.07328
804.50 0.0733
804.60 0.07333
804.70 0.07336
804.80 0.07338
804.90 0.07341
805.00 0.07344
805.10 0.07346
805.20 0.07349
805.30 0.07351
805.40 0.07354
805.50 0.07357
805.60 0.07359
805.70 0.07362
805.80 0.07365
805.90 0.07367
806.00 0.0737
806.10 0.07372
806.20 0.07375
806.30 0.07378
806.40 0.0738
806.50 0.07383
806.60 0.07385
806.70 0.07388
806.80 0.07391
806.90 0.07393
807.00 0.07396
807.10 0.07398
807.20 0.07401
807.30 0.07404
807.40 0.07406
807.50 0.07409
807.60 0.07411
807.70 0.07414
807.80 0.07417
807.90 0.07419
808.00 0.07422
808.10 0.07424
808.20 0.07427
808.30 0.07429
808.40 0.07432
808.50 0.07435
808.60 0.07437
808.70 0.0744
808.80 0.07442
808.90 0.07445
809.00 0.07447
809.10 0.0745
809.20 0.07453
809.30 0.07455
809.40 0.07458
809.50 0.0746
809.60 0.07463
809.70 0.07465
809.80 0.07468
809.90 0.07471
810.00 0.07473
810.10 0.07475
810.20 0.07477
810.30 0.07478
810.40 0.0748
810.50 0.07482
810.60 0.07483
810.70 0.07485
810.80 0.07487
810.90 0.07488
811.00 0.0749
811.10 0.07492
811.20 0.07493
811.30 0.07495
811.40 0.07497
811.50 0.07499
811.60 0.075
811.70 0.07502
811.80 0.07504
811.90 0.07505
812.00 0.07507
812.10 0.07509
812.20 0.0751
812.30 0.07512
812.40 0.07514
812.50 0.07515
812.60 0.07517
812.70 0.07519
812.80 0.0752
812.90 0.07522
813.00 0.07524
813.10 0.07525
813.20 0.07527
813.30 0.07529
813.40 0.0753
813.50 0.07532
813.60 0.07534
813.70 0.07535
813.80 0.07537
813.90 0.07539
814.00 0.0754
814.10 0.07542
814.20 0.07544
814.30 0.07545
814.40 0.07547
814.50 0.07549
814.60 0.0755
814.70 0.07552
814.80 0.07554
814.90 0.07555
815.00 0.07557
815.10 0.07559
815.20 0.0756
815.30 0.07562
815.40 0.07564
815.50 0.07565
815.60 0.07567
815.70 0.07568
815.80 0.0757
815.90 0.07572
816.00 0.07573
816.10 0.07575
816.20 0.07577
816.30 0.07578
816.40 0.0758
816.50 0.07582
816.60 0.07583
816.70 0.07585
816.80 0.07586
816.90 0.07588
817.00 0.0759
817.10 0.07591
817.20 0.07593
817.30 0.07595
817.40 0.07596
817.50 0.07598
817.60 0.07599
817.70 0.07601
817.80 0.07603
817.90 0.07604
818.00 0.07606
818.10 0.07608
818.20 0.07609
818.30 0.07611
818.40 0.07612
818.50 0.07614
818.60 0.07616
818.70 0.07617
818.80 0.07619
818.90 0.07621
819.00 0.07622
819.10 0.07624
819.20 0.07625
819.30 0.07627
819.40 0.07629
819.50 0.0763
819.60 0.07632
819.70 0.07633
819.80 0.07635
819.90 0.07637
820.00 0.07638
820.10 0.0764
820.20 0.07644
820.30 0.07649
820.40 0.07653
820.50 0.07658
820.60 0.07662
820.70 0.07667
820.80 0.07671
820.90 0.07676
821.00 0.0768
821.10 0.07685
821.20 0.0769
821.30 0.07694
821.40 0.07699
821.50 0.07703
821.60 0.07708
821.70 0.07712
821.80 0.07717
821.90 0.07721
822.00 0.07726
822.10 0.07732
822.20 0.07739
822.30 0.07745
822.40 0.07752
822.50 0.07758
822.60 0.07765
822.70 0.07771
822.80 0.07778
822.90 0.07784
823.00 0.07791
823.10 0.07797
823.20 0.07803
823.30 0.0781
823.40 0.07816
823.50 0.07823
823.60 0.07829
823.70 0.07836
823.80 0.07842
823.90 0.07848
824.00 0.07855
824.10 0.07861
824.20 0.07868
824.30 0.07874
824.40 0.07881
824.50 0.07887
824.60 0.07893
824.70 0.079
824.80 0.07906
824.90 0.07913
825.00 0.07919
825.10 0.07925
825.20 0.07932
825.30 0.07938
825.40 0.07944
825.50 0.07951
825.60 0.07957
825.70 0.07964
825.80 0.0797
825.90 0.07976
826.00 0.07983
826.10 0.07989
826.20 0.07995
826.30 0.08002
826.40 0.08008
826.50 0.08014
826.60 0.08021
826.70 0.08027
826.80 0.08033
826.90 0.0804
827.00 0.08046
827.10 0.08054
827.20 0.08061
827.30 0.08069
827.40 0.08076
827.50 0.08084
827.60 0.08092
827.70 0.08099
827.80 0.08107
827.90 0.08114
828.00 0.08122
828.10 0.08129
828.20 0.08137
828.30 0.08145
828.40 0.08152
828.50 0.0816
828.60 0.08167
828.70 0.08175
828.80 0.08182
828.90 0.0819
829.00 0.08197
829.10 0.08205
829.20 0.08212
829.30 0.0822
829.40 0.08227
829.50 0.08235
829.60 0.08242
829.70 0.0825
829.80 0.08257
829.90 0.08265
830.00 0.08272
830.10 0.0828
830.20 0.08287
830.30 0.08295
830.40 0.08302
830.50 0.0831
830.60 0.08317
830.70 0.08325
830.80 0.08332
830.90 0.0834
831.00 0.08347
831.10 0.08355
831.20 0.08362
831.30 0.08369
831.40 0.08377
831.50 0.08384
831.60 0.08392
831.70 0.08399
831.80 0.08407
831.90 0.08414
832.00 0.08421
832.10 0.08427
832.20 0.08433
832.30 0.08438
832.40 0.08444
832.50 0.0845
832.60 0.08455
832.70 0.08461
832.80 0.08466
832.90 0.08472
833.00 0.08478
833.10 0.08483
833.20 0.08489
833.30 0.08494
833.40 0.085
833.50 0.08505
833.60 0.08511
833.70 0.08517
833.80 0.08522
833.90 0.08528
834.00 0.08533
834.10 0.08539
834.20 0.08544
834.30 0.0855
834.40 0.08556
834.50 0.08561
834.60 0.08567
834.70 0.08572
834.80 0.08578
834.90 0.08583
835.00 0.08589
835.10 0.08594
835.20 0.086
835.30 0.08605
835.40 0.08611
835.50 0.08616
835.60 0.08622
835.70 0.08627
835.80 0.08633
835.90 0.08638
836.00 0.08644
836.10 0.08649
836.20 0.08655
836.30 0.0866
836.40 0.08666
836.50 0.08671
836.60 0.08677
836.70 0.08682
836.80 0.08688
836.90 0.08693
837.00 0.08699
837.10 0.08703
837.20 0.08707
837.30 0.08712
837.40 0.08716
837.50 0.0872
837.60 0.08725
837.70 0.08729
837.80 0.08733
837.90 0.08737
838.00 0.08742
838.10 0.08746
838.20 0.0875
838.30 0.08754
838.40 0.08759
838.50 0.08763
838.60 0.08767
838.70 0.08771
838.80 0.08776
838.90 0.0878
839.00 0.08784
839.10 0.08788
839.20 0.08793
839.30 0.08797
839.40 0.08801
839.50 0.08805
839.60 0.08809
839.70 0.08814
839.80 0.08818
839.90 0.08822
840.00 0.08826
840.10 0.08831
840.20 0.08835
840.30 0.08839
840.40 0.08843
840.50 0.08847
840.60 0.08852
840.70 0.08856
840.80 0.0886
840.90 0.08864
841.00 0.08868
841.10 0.08872
841.20 0.08877
841.30 0.08881
841.40 0.08885
841.50 0.08889
841.60 0.08893
841.70 0.08898
841.80 0.08902
841.90 0.08906
842.00 0.0891
842.10 0.08913
842.20 0.08916
842.30 0.08919
842.40 0.08922
842.50 0.08925
842.60 0.08928
842.70 0.08931
842.80 0.08934
842.90 0.08937
843.00 0.08939
843.10 0.08942
843.20 0.08945
843.30 0.08948
843.40 0.08951
843.50 0.08954
843.60 0.08957
843.70 0.0896
843.80 0.08963
843.90 0.08966
844.00 0.08969
844.10 0.08972
844.20 0.08975
844.30 0.08977
844.40 0.0898
844.50 0.08983
844.60 0.08986
844.70 0.08989
844.80 0.08992
844.90 0.08995
845.00 0.08998
845.10 0.09001
845.20 0.09004
845.30 0.09006
845.40 0.09009
845.50 0.09012
845.60 0.09015
845.70 0.09018
845.80 0.09021
845.90 0.09024
846.00 0.09027
846.10 0.09029
846.20 0.09032
846.30 0.09035
846.40 0.09038
846.50 0.09041
846.60 0.09044
846.70 0.09047
846.80 0.0905
846.90 0.09052
847.00 0.09055
847.10 0.09059
847.20 0.09062
847.30 0.09066
847.40 0.09069
847.50 0.09073
847.60 0.09076
847.70 0.09079
847.80 0.09083
847.90 0.09086
848.00 0.0909
848.10 0.09093
848.20 0.09096
848.30 0.091
848.40 0.09103
848.50 0.09107
848.60 0.0911
848.70 0.09114
848.80 0.09117
848.90 0.0912
849.00 0.09124
849.10 0.09127
849.20 0.09131
849.30 0.09134
849.40 0.09137
849.50 0.09141
849.60 0.09144
849.70 0.09148
849.80 0.09151
849.90 0.09154
850.00 0.09158
850.10 0.09161
850.20 0.09164
850.30 0.09168
850.40 0.09171
850.50 0.09175
850.60 0.09178
850.70 0.09181
850.80 0.09185
850.90 0.09188
851.00 0.09191
851.10 0.09195
851.20 0.09198
851.30 0.09202
851.40 0.09205
851.50 0.09208
851.60 0.09212
851.70 0.09215
851.80 0.09218
851.90 0.09222
852.00 0.09225
852.10 0.09229
852.20 0.09234
852.30 0.09238
852.40 0.09242
852.50 0.09246
852.60 0.09251
852.70 0.09255
852.80 0.09259
852.90 0.09264
853.00 0.09268
853.10 0.09272
853.20 0.09276
853.30 0.09281
853.40 0.09285
853.50 0.09289
853.60 0.09293
853.70 0.09298
853.80 0.09302
853.90 0.09306
854.00 0.0931
854.10 0.09315
854.20 0.09319
854.30 0.09323
854.40 0.09327
854.50 0.09332
854.60 0.09336
854.70 0.0934
854.80 0.09344
854.90 0.09349
855.00 0.09353
855.10 0.09357
855.20 0.09361
855.30 0.09365
855.40 0.0937
855.50 0.09374
855.60 0.09378
855.70 0.09382
855.80 0.09386
855.90 0.09391
856.00 0.09395
856.10 0.09399
856.20 0.09403
856.30 0.09407
856.40 0.09412
856.50 0.09416
856.60 0.0942
856.70 0.09424
856.80 0.09428
856.90 0.09433
857.00 0.09437
857.10 0.09442
857.20 0.09447
857.30 0.09452
857.40 0.09457
857.50 0.09463
857.60 0.09468
857.70 0.09473
857.80 0.09478
857.90 0.09483
858.00 0.09488
858.10 0.09493
858.20 0.09498
858.30 0.09504
858.40 0.09509
858.50 0.09514
858.60 0.09519
858.70 0.09524
858.80 0.09529
858.90 0.09534
859.00 0.09539
859.10 0.09544
859.20 0.0955
859.30 0.09555
859.40 0.0956
859.50 0.09565
859.60 0.0957
859.70 0.09575
859.80 0.0958
859.90 0.09585
860.00 0.0959
860.10 0.09595
860.20 0.096
860.30 0.09605
860.40 0.09611
860.50 0.09616
860.60 0.09621
860.70 0.09626
860.80 0.09631
860.90 0.09636
861.00 0.09641
861.10 0.09646
861.20 0.09651
861.30 0.09656
861.40 0.09661
861.50 0.09666
861.60 0.09671
861.70 0.09676
861.80 0.09681
861.90 0.09686
862.00 0.09691
862.10 0.09698
862.20 0.09704
862.30 0.09711
862.40 0.09718
862.50 0.09724
862.60 0.09731
862.70 0.09737
862.80 0.09744
862.90 0.09751
863.00 0.09757
863.10 0.09764
863.20 0.0977
863.30 0.09777
863.40 0.09783
863.50 0.0979
863.60 0.09797
863.70 0.09803
863.80 0.0981
863.90 0.09816
864.00 0.09823
864.10 0.09829
864.20 0.09836
864.30 0.09842
864.40 0.09849
864.50 0.09855
864.60 0.09862
864.70 0.09868
864.80 0.09875
864.90 0.09882
865.00 0.09888
865.10 0.09895
865.20 0.09901
865.30 0.09908
865.40 0.09914
865.50 0.09921
865.60 0.09927
865.70 0.09934
865.80 0.0994
865.90 0.09947
866.00 0.09953
866.10 0.09959
866.20 0.09966
866.30 0.09972
866.40 0.09979
866.50 0.09985
866.60 0.09992
866.70 0.09998
866.80 0.1
866.90 0.1001
867.00 0.1002
867.10 0.1002
867.20 0.1003
867.30 0.1004
867.40 0.1004
867.50 0.1005
867.60 0.1005
867.70 0.1006
867.80 0.1006
867.90 0.1007
868.00 0.1008
868.10 0.1008
868.20 0.1009
868.30 0.1009
868.40 0.101
868.50 0.1011
868.60 0.1011
868.70 0.1012
868.80 0.1012
868.90 0.1013
869.00 0.1013
869.10 0.1014
869.20 0.1015
869.30 0.1015
869.40 0.1016
869.50 0.1016
869.60 0.1017
869.70 0.1017
869.80 0.1018
869.90 0.1019
870.00 0.1019
870.10 0.102
870.20 0.102
870.30 0.1021
870.40 0.1022
870.50 0.1022
870.60 0.1023
870.70 0.1023
870.80 0.1024
870.90 0.1024
871.00 0.1025
871.10 0.1026
871.20 0.1026
871.30 0.1027
871.40 0.1027
871.50 0.1028
871.60 0.1028
871.70 0.1029
871.80 0.103
871.90 0.103
872.00 0.1031
872.10 0.1031
872.20 0.1032
872.30 0.1032
872.40 0.1033
872.50 0.1033
872.60 0.1034
872.70 0.1034
872.80 0.1035
872.90 0.1035
873.00 0.1036
873.10 0.1036
873.20 0.1037
873.30 0.1037
873.40 0.1038
873.50 0.1038
873.60 0.1039
873.70 0.1039
873.80 0.104
873.90 0.104
874.00 0.1041
874.10 0.1041
874.20 0.1042
874.30 0.1042
874.40 0.1043
874.50 0.1043
874.60 0.1044
874.70 0.1044
874.80 0.1045
874.90 0.1045
875.00 0.1046
875.10 0.1046
875.20 0.1047
875.30 0.1047
875.40 0.1048
875.50 0.1049
875.60 0.1049
875.70 0.105
875.80 0.105
875.90 0.1051
876.00 0.1051
876.10 0.1052
876.20 0.1052
876.30 0.1053
876.40 0.1053
876.50 0.1054
876.60 0.1054
876.70 0.1055
876.80 0.1055
876.90 0.1056
877.00 0.1056
877.10 0.1056
877.20 0.1056
877.30 0.1057
877.40 0.1057
877.50 0.1057
877.60 0.1057
877.70 0.1057
877.80 0.1058
877.90 0.1058
878.00 0.1058
878.10 0.1058
878.20 0.1058
878.30 0.1058
878.40 0.1059
878.50 0.1059
878.60 0.1059
878.70 0.1059
878.80 0.1059
878.90 0.106
879.00 0.106
879.10 0.106
879.20 0.106
879.30 0.106
879.40 0.106
879.50 0.1061
879.60 0.1061
879.70 0.1061
879.80 0.1061
879.90 0.1061
880.00 0.1062
880.10 0.1062
880.20 0.1062
880.30 0.1062
880.40 0.1062
880.50 0.1062
880.60 0.1063
880.70 0.1063
880.80 0.1063
880.90 0.1063
881.00 0.1063
881.10 0.1063
881.20 0.1064
881.30 0.1064
881.40 0.1064
881.50 0.1064
881.60 0.1064
881.70 0.1065
881.80 0.1065
881.90 0.1065
882.00 0.1065
882.10 0.1065
882.20 0.1065
882.30 0.1065
882.40 0.1065
882.50 0.1065
882.60 0.1065
882.70 0.1065
882.80 0.1065
882.90 0.1065
883.00 0.1065
883.10 0.1065
883.20 0.1065
883.30 0.1065
883.40 0.1065
883.50 0.1065
883.60 0.1065
883.70 0.1065
883.80 0.1065
883.90 0.1065
884.00 0.1065
884.10 0.1065
884.20 0.1065
884.30 0.1065
884.40 0.1065
884.50 0.1065
884.60 0.1065
884.70 0.1065
884.80 0.1065
884.90 0.1065
885.00 0.1065
885.10 0.1065
885.20 0.1065
885.30 0.1065
885.40 0.1064
885.50 0.1064
885.60 0.1064
885.70 0.1064
885.80 0.1064
885.90 0.1064
886.00 0.1064
886.10 0.1064
886.20 0.1064
886.30 0.1064
886.40 0.1064
886.50 0.1064
886.60 0.1064
886.70 0.1064
886.80 0.1064
886.90 0.1064
887.00 0.1064
887.10 0.1064
887.20 0.1064
887.30 0.1064
887.40 0.1063
887.50 0.1063
887.60 0.1063
887.70 0.1063
887.80 0.1062
887.90 0.1062
888.00 0.1062
888.10 0.1062
888.20 0.1062
888.30 0.1061
888.40 0.1061
888.50 0.1061
888.60 0.1061
888.70 0.1061
888.80 0.106
888.90 0.106
889.00 0.106
889.10 0.106
889.20 0.1059
889.30 0.1059
889.40 0.1059
889.50 0.1059
889.60 0.1059
889.70 0.1058
889.80 0.1058
889.90 0.1058
890.00 0.1058
890.10 0.1058
890.20 0.1057
890.30 0.1057
890.40 0.1057
890.50 0.1057
890.60 0.1056
890.70 0.1056
890.80 0.1056
890.90 0.1056
891.00 0.1056
891.10 0.1055
891.20 0.1055
891.30 0.1055
891.40 0.1055
891.50 0.1055
891.60 0.1054
891.70 0.1054
891.80 0.1054
891.90 0.1054
892.00 0.1054
892.10 0.1053
892.20 0.1053
892.30 0.1053
892.40 0.1053
892.50 0.1052
892.60 0.1052
892.70 0.1052
892.80 0.1052
892.90 0.1051
893.00 0.1051
893.10 0.1051
893.20 0.1051
893.30 0.105
893.40 0.105
893.50 0.105
893.60 0.105
893.70 0.1049
893.80 0.1049
893.90 0.1049
894.00 0.1049
894.10 0.1048
894.20 0.1048
894.30 0.1048
894.40 0.1048
894.50 0.1047
894.60 0.1047
894.70 0.1047
894.80 0.1047
894.90 0.1046
895.00 0.1046
895.10 0.1046
895.20 0.1046
895.30 0.1045
895.40 0.1045
895.50 0.1045
895.60 0.1045
895.70 0.1044
895.80 0.1044
895.90 0.1044
896.00 0.1044
896.10 0.1043
896.20 0.1043
896.30 0.1043
896.40 0.1043
896.50 0.1042
896.60 0.1042
896.70 0.1042
896.80 0.1042
896.90 0.1041
897.00 0.1041
897.10 0.1041
897.20 0.104
897.30 0.104
897.40 0.104
897.50 0.1039
897.60 0.1039
897.70 0.1038
897.80 0.1038
897.90 0.1038
898.00 0.1037
898.10 0.1037
898.20 0.1037
898.30 0.1036
898.40 0.1036
898.50 0.1036
898.60 0.1035
898.70 0.1035
898.80 0.1034
898.90 0.1034
899.00 0.1034
899.10 0.1033
899.20 0.1033
899.30 0.1033
899.40 0.1032
899.50 0.1032
899.60 0.1031
899.70 0.1031
899.80 0.1031
899.90 0.103
900.00 0.103
900.10 0.103
900.20 0.1029
900.30 0.1029
900.40 0.1029
900.50 0.1028
900.60 0.1028
900.70 0.1027
900.80 0.1027
900.90 0.1027
901.00 0.1026
901.10 0.1026
901.20 0.1026
901.30 0.1025
901.40 0.1025
901.50 0.1025
901.60 0.1024
901.70 0.1024
901.80 0.1023
901.90 0.1023
902.00 0.1023
902.10 0.1022
902.20 0.1022
902.30 0.1021
902.40 0.1021
902.50 0.102
902.60 0.102
902.70 0.1019
902.80 0.1019
902.90 0.1018
903.00 0.1018
903.10 0.1018
903.20 0.1017
903.30 0.1017
903.40 0.1016
903.50 0.1016
903.60 0.1015
903.70 0.1015
903.80 0.1014
903.90 0.1014
904.00 0.1013
904.10 0.1013
904.20 0.1012
904.30 0.1012
904.40 0.1011
904.50 0.1011
904.60 0.101
904.70 0.101
904.80 0.1009
904.90 0.1009
905.00 0.1009
905.10 0.1008
905.20 0.1008
905.30 0.1007
905.40 0.1007
905.50 0.1006
905.60 0.1006
905.70 0.1005
905.80 0.1005
905.90 0.1004
906.00 0.1004
906.10 0.1003
906.20 0.1003
906.30 0.1002
906.40 0.1002
906.50 0.1002
906.60 0.1001
906.70 0.1001
906.80 0.1
906.90 0.09996
907.00 0.09992
907.10 0.09986
907.20 0.09979
907.30 0.09973
907.40 0.09967
907.50 0.09961
907.60 0.09955
907.70 0.09949
907.80 0.09943
907.90 0.09937
908.00 0.09931
908.10 0.09925
908.20 0.09919
908.30 0.09913
908.40 0.09907
908.50 0.099
908.60 0.09894
908.70 0.09888
908.80 0.09882
908.90 0.09876
909.00 0.0987
909.10 0.09864
909.20 0.09858
909.30 0.09852
909.40 0.09846
909.50 0.0984
909.60 0.09834
909.70 0.09828
909.80 0.09822
909.90 0.09816
910.00 0.0981
910.10 0.09804
910.20 0.09798
910.30 0.09792
910.40 0.09786
910.50 0.0978
910.60 0.09774
910.70 0.09768
910.80 0.09762
910.90 0.09756
911.00 0.0975
911.10 0.09744
911.20 0.09738
911.30 0.09732
911.40 0.09726
911.50 0.0972
911.60 0.09714
911.70 0.09708
911.80 0.09702
911.90 0.09696
912.00 0.0969
912.10 0.09682
912.20 0.09675
912.30 0.09668
912.40 0.09661
912.50 0.09654
912.60 0.09646
912.70 0.09639
912.80 0.09632
912.90 0.09625
913.00 0.09618
913.10 0.09611
913.20 0.09603
913.30 0.09596
913.40 0.09589
913.50 0.09582
913.60 0.09575
913.70 0.09567
913.80 0.0956
913.90 0.09553
914.00 0.09546
914.10 0.09539
914.20 0.09532
914.30 0.09525
914.40 0.09517
914.50 0.0951
914.60 0.09503
914.70 0.09496
914.80 0.09489
914.90 0.09482
915.00 0.09475
915.10 0.09467
915.20 0.0946
915.30 0.09453
915.40 0.09446
915.50 0.09439
915.60 0.09432
915.70 0.09425
915.80 0.09418
915.90 0.09411
916.00 0.09403
916.10 0.09396
916.20 0.09389
916.30 0.09382
916.40 0.09375
916.50 0.09368
916.60 0.09361
916.70 0.09354
916.80 0.09347
916.90 0.0934
917.00 0.09333
917.10 0.09324
917.20 0.09316
917.30 0.09307
917.40 0.09299
917.50 0.0929
917.60 0.09282
917.70 0.09273
917.80 0.09265
917.90 0.09257
918.00 0.09248
918.10 0.0924
918.20 0.09231
918.30 0.09223
918.40 0.09214
918.50 0.09206
918.60 0.09198
918.70 0.09189
918.80 0.09181
918.90 0.09172
919.00 0.09164
919.10 0.09156
919.20 0.09147
919.30 0.09139
919.40 0.09131
919.50 0.09122
919.60 0.09114
919.70 0.09105
919.80 0.09097
919.90 0.09089
920.00 0.0908
920.10 0.09072
920.20 0.09064
920.30 0.09055
920.40 0.09047
920.50 0.09039
920.60 0.0903
920.70 0.09022
920.80 0.09014
920.90 0.09005
921.00 0.08997
921.10 0.08989
921.20 0.0898
921.30 0.08972
921.40 0.08964
921.50 0.08955
921.60 0.08947
921.70 0.08939
921.80 0.0893
921.90 0.08922
922.00 0.08914
922.10 0.08905
922.20 0.08895
922.30 0.08886
922.40 0.08877
922.50 0.08867
922.60 0.08858
922.70 0.08849
922.80 0.0884
922.90 0.0883
923.00 0.08821
923.10 0.08812
923.20 0.08803
923.30 0.08793
923.40 0.08784
923.50 0.08775
923.60 0.08766
923.70 0.08757
923.80 0.08747
923.90 0.08738
924.00 0.08729
924.10 0.0872
924.20 0.0871
924.30 0.08701
924.40 0.08692
924.50 0.08683
924.60 0.08674
924.70 0.08665
924.80 0.08655
924.90 0.08646
925.00 0.08637
925.10 0.08628
925.20 0.08619
925.30 0.08609
925.40 0.086
925.50 0.08591
925.60 0.08582
925.70 0.08573
925.80 0.08564
925.90 0.08555
926.00 0.08545
926.10 0.08536
926.20 0.08527
926.30 0.08518
926.40 0.08509
926.50 0.085
926.60 0.08491
926.70 0.08482
926.80 0.08472
926.90 0.08463
927.00 0.08454
927.10 0.08444
927.20 0.08434
927.30 0.08424
927.40 0.08414
927.50 0.08404
927.60 0.08394
927.70 0.08384
927.80 0.08374
927.90 0.08364
928.00 0.08354
928.10 0.08344
928.20 0.08334
928.30 0.08324
928.40 0.08314
928.50 0.08304
928.60 0.08294
928.70 0.08284
928.80 0.08275
928.90 0.08265
929.00 0.08255
929.10 0.08245
929.20 0.08235
929.30 0.08225
929.40 0.08215
929.50 0.08205
929.60 0.08195
929.70 0.08185
929.80 0.08175
929.90 0.08165
930.00 0.08155
930.10 0.08146
930.20 0.08136
930.30 0.08126
930.40 0.08116
930.50 0.08106
930.60 0.08096
930.70 0.08086
930.80 0.08076
930.90 0.08066
931.00 0.08057
931.10 0.08047
931.20 0.08037
931.30 0.08027
931.40 0.08017
931.50 0.08007
931.60 0.07998
931.70 0.07988
931.80 0.07978
931.90 0.07968
932.00 0.07958
932.10 0.07948
932.20 0.07938
932.30 0.07928
932.40 0.07918
932.50 0.07908
932.60 0.07898
932.70 0.07888
932.80 0.07877
932.90 0.07867
933.00 0.07857
933.10 0.07847
933.20 0.07837
933.30 0.07827
933.40 0.07817
933.50 0.07807
933.60 0.07797
933.70 0.07787
933.80 0.07777
933.90 0.07767
934.00 0.07757
934.10 0.07747
934.20 0.07737
934.30 0.07727
934.40 0.07717
934.50 0.07706
934.60 0.07696
934.70 0.07686
934.80 0.07676
934.90 0.07666
935.00 0.07656
935.10 0.07645
935.20 0.07635
935.30 0.07625
935.40 0.07615
935.50 0.07605
935.60 0.07595
935.70 0.07585
935.80 0.07574
935.90 0.07564
936.00 0.07554
936.10 0.07544
936.20 0.07534
936.30 0.07524
936.40 0.07514
936.50 0.07504
936.60 0.07494
936.70 0.07484
936.80 0.07473
936.90 0.07463
937.00 0.07453
937.10 0.07443
937.20 0.07433
937.30 0.07423
937.40 0.07412
937.50 0.07402
937.60 0.07392
937.70 0.07382
937.80 0.07371
937.90 0.07361
938.00 0.07351
938.10 0.07341
938.20 0.07331
938.30 0.0732
938.40 0.0731
938.50 0.07299
938.60 0.07289
938.70 0.07279
938.80 0.07268
938.90 0.07258
939.00 0.07247
939.10 0.07237
939.20 0.07226
939.30 0.07216
939.40 0.07206
939.50 0.07195
939.60 0.07185
939.70 0.07174
939.80 0.07164
939.90 0.07153
940.00 0.07143
940.10 0.07133
940.20 0.07122
940.30 0.07112
940.40 0.07102
940.50 0.07092
940.60 0.07081
940.70 0.07071
940.80 0.07061
940.90 0.07051
941.00 0.07041
941.10 0.07031
941.20 0.07021
941.30 0.07011
941.40 0.07
941.50 0.0699
941.60 0.0698
941.70 0.0697
941.80 0.0696
941.90 0.0695
942.00 0.0694
942.10 0.0693
942.20 0.06919
942.30 0.06909
942.40 0.06899
942.50 0.06889
942.60 0.06879
942.70 0.06869
942.80 0.06859
942.90 0.06849
943.00 0.06839
943.10 0.06829
943.20 0.06819
943.30 0.06808
943.40 0.06798
943.50 0.06788
943.60 0.06778
943.70 0.06768
943.80 0.06758
943.90 0.06748
944.00 0.06738
944.10 0.06728
944.20 0.06718
944.30 0.06708
944.40 0.06698
944.50 0.06688
944.60 0.06678
944.70 0.06668
944.80 0.06658
944.90 0.06648
945.00 0.06638
945.10 0.06628
945.20 0.06618
945.30 0.06608
945.40 0.06598
945.50 0.06588
945.60 0.06578
945.70 0.06568
945.80 0.06558
945.90 0.06548
946.00 0.06538
946.10 0.06528
946.20 0.06518
946.30 0.06508
946.40 0.06498
946.50 0.06488
946.60 0.06478
946.70 0.06468
946.80 0.06458
946.90 0.06448
947.00 0.06439
947.10 0.06429
947.20 0.06419
947.30 0.06409
947.40 0.06399
947.50 0.06389
947.60 0.0638
947.70 0.0637
947.80 0.0636
947.90 0.0635
948.00 0.0634
948.10 0.06331
948.20 0.06321
948.30 0.06311
948.40 0.06301
948.50 0.06291
948.60 0.06282
948.70 0.06272
948.80 0.06262
948.90 0.06252
949.00 0.06242
949.10 0.06233
949.20 0.06223
949.30 0.06213
949.40 0.06203
949.50 0.06194
949.60 0.06184
949.70 0.06174
949.80 0.06164
949.90 0.06154
950.00 0.06145
950.10 0.06135
950.20 0.06125
950.30 0.06115
950.40 0.06106
950.50 0.06096
950.60 0.06086
950.70 0.06076
950.80 0.06066
950.90 0.06057
951.00 0.06047
951.10 0.06037
951.20 0.06028
951.30 0.06018
951.40 0.06008
951.50 0.05998
951.60 0.05988
951.70 0.05979
951.80 0.05969
951.90 0.05959
952.00 0.05949
952.10 0.0594
952.20 0.0593
952.30 0.0592
952.40 0.05911
952.50 0.05901
952.60 0.05891
952.70 0.05881
952.80 0.05872
952.90 0.05862
953.00 0.05852
953.10 0.05843
953.20 0.05833
953.30 0.05823
953.40 0.05813
953.50 0.05804
953.60 0.05794
953.70 0.05784
953.80 0.05775
953.90 0.05765
954.00 0.05756
954.10 0.05746
954.20 0.05737
954.30 0.05727
954.40 0.05717
954.50 0.05708
954.60 0.05698
954.70 0.05689
954.80 0.05679
954.90 0.05669
955.00 0.0566
955.10 0.0565
955.20 0.0564
955.30 0.05631
955.40 0.05621
955.50 0.05612
955.60 0.05602
955.70 0.05592
955.80 0.05583
955.90 0.05573
956.00 0.05563
956.10 0.05554
956.20 0.05544
956.30 0.05535
956.40 0.05525
956.50 0.05515
956.60 0.05506
956.70 0.05496
956.80 0.05487
956.90 0.05477
957.00 0.05467
957.10 0.05458
957.20 0.05448
957.30 0.05439
957.40 0.05429
957.50 0.0542
957.60 0.05411
957.70 0.05401
957.80 0.05392
957.90 0.05382
958.00 0.05373
958.10 0.05363
958.20 0.05354
958.30 0.05345
958.40 0.05335
958.50 0.05326
958.60 0.05316
958.70 0.05307
958.80 0.05297
958.90 0.05288
959.00 0.05279
959.10 0.05269
959.20 0.0526
959.30 0.0525
959.40 0.05241
959.50 0.05232
959.60 0.05222
959.70 0.05213
959.80 0.05204
959.90 0.05194
960.00 0.05185
960.10 0.05176
960.20 0.05167
960.30 0.05157
960.40 0.05148
960.50 0.05139
960.60 0.05129
960.70 0.0512
960.80 0.05111
960.90 0.05102
961.00 0.05092
961.10 0.05083
961.20 0.05074
961.30 0.05064
961.40 0.05055
961.50 0.05046
961.60 0.05037
961.70 0.05028
961.80 0.05018
961.90 0.05009
962.00 0.05
962.10 0.04991
962.20 0.04982
962.30 0.04972
962.40 0.04963
962.50 0.04954
962.60 0.04945
962.70 0.04936
962.80 0.04927
962.90 0.04917
963.00 0.04908
963.10 0.04899
963.20 0.0489
963.30 0.04881
963.40 0.04872
963.50 0.04863
963.60 0.04854
963.70 0.04845
963.80 0.04835
963.90 0.04826
964.00 0.04817
964.10 0.04808
964.20 0.04799
964.30 0.0479
964.40 0.04781
964.50 0.04772
964.60 0.04762
964.70 0.04753
964.80 0.04744
964.90 0.04735
965.00 0.04725
965.10 0.04716
965.20 0.04707
965.30 0.04698
965.40 0.04688
965.50 0.04679
965.60 0.0467
965.70 0.04661
965.80 0.04652
965.90 0.04642
966.00 0.04633
966.10 0.04624
966.20 0.04615
966.30 0.04606
966.40 0.04597
966.50 0.04588
966.60 0.04579
966.70 0.0457
966.80 0.04561
966.90 0.04552
967.00 0.04544
967.10 0.04535
967.20 0.04526
967.30 0.04517
967.40 0.04508
967.50 0.045
967.60 0.04491
967.70 0.04482
967.80 0.04473
967.90 0.04465
968.00 0.04456
968.10 0.04447
968.20 0.04439
968.30 0.0443
968.40 0.04421
968.50 0.04413
968.60 0.04404
968.70 0.04395
968.80 0.04387
968.90 0.04378
969.00 0.0437
969.10 0.04361
969.20 0.04352
969.30 0.04344
969.40 0.04335
969.50 0.04327
969.60 0.04318
969.70 0.0431
969.80 0.04301
969.90 0.04292
970.00 0.04284
970.10 0.04275
970.20 0.04267
970.30 0.04258
970.40 0.0425
970.50 0.04241
970.60 0.04233
970.70 0.04225
970.80 0.04216
970.90 0.04208
971.00 0.042
971.10 0.04191
971.20 0.04183
971.30 0.04174
971.40 0.04166
971.50 0.04158
971.60 0.04149
971.70 0.04141
971.80 0.04133
971.90 0.04124
972.00 0.04116
972.10 0.04108
972.20 0.04099
972.30 0.04091
972.40 0.04083
972.50 0.04075
972.60 0.04067
972.70 0.04058
972.80 0.0405
972.90 0.04042
973.00 0.04034
973.10 0.04026
973.20 0.04018
973.30 0.04009
973.40 0.04001
973.50 0.03993
973.60 0.03985
973.70 0.03977
973.80 0.03969
973.90 0.03961
974.00 0.03952
974.10 0.03944
974.20 0.03936
974.30 0.03928
974.40 0.0392
974.50 0.03912
974.60 0.03904
974.70 0.03896
974.80 0.03888
974.90 0.0388
975.00 0.03872
975.10 0.03864
975.20 0.03856
975.30 0.03848
975.40 0.0384
975.50 0.03832
975.60 0.03824
975.70 0.03816
975.80 0.03808
975.90 0.038
976.00 0.03791
976.10 0.03784
976.20 0.03776
976.30 0.03768
976.40 0.0376
976.50 0.03752
976.60 0.03744
976.70 0.03736
976.80 0.03728
976.90 0.0372
977.00 0.03712
977.10 0.03704
977.20 0.03697
977.30 0.03689
977.40 0.03682
977.50 0.03674
977.60 0.03667
977.70 0.03659
977.80 0.03652
977.90 0.03644
978.00 0.03637
978.10 0.03629
978.20 0.03622
978.30 0.03614
978.40 0.03607
978.50 0.03599
978.60 0.03592
978.70 0.03584
978.80 0.03577
978.90 0.03569
979.00 0.03562
979.10 0.03554
979.20 0.03547
979.30 0.0354
979.40 0.03532
979.50 0.03525
979.60 0.03517
979.70 0.0351
979.80 0.03502
979.90 0.03495
980.00 0.03487
980.10 0.0348
980.20 0.03473
980.30 0.03465
980.40 0.03458
980.50 0.0345
980.60 0.03443
980.70 0.03435
980.80 0.03428
980.90 0.03421
981.00 0.03413
981.10 0.03406
981.20 0.03398
981.30 0.03391
981.40 0.03384
981.50 0.03376
981.60 0.03369
981.70 0.03362
981.80 0.03354
981.90 0.03347
982.00 0.03339
982.10 0.03332
982.20 0.03325
982.30 0.03318
982.40 0.03311
982.50 0.03304
982.60 0.03297
982.70 0.0329
982.80 0.03283
982.90 0.03276
983.00 0.03269
983.10 0.03262
983.20 0.03255
983.30 0.03248
983.40 0.03241
983.50 0.03234
983.60 0.03227
983.70 0.0322
983.80 0.03213
983.90 0.03206
984.00 0.03199
984.10 0.03192
984.20 0.03185
984.30 0.03178
984.40 0.03171
984.50 0.03164
984.60 0.03157
984.70 0.0315
984.80 0.03144
984.90 0.03137
985.00 0.03131
985.10 0.03125
985.20 0.03118
985.30 0.03112
985.40 0.03105
985.50 0.03099
985.60 0.03092
985.70 0.03086
985.80 0.03079
985.90 0.03073
986.00 0.03066
986.10 0.0306
986.20 0.03053
986.30 0.03047
986.40 0.0304
986.50 0.03034
986.60 0.03027
986.70 0.03021
986.80 0.03015
986.90 0.03008
987.00 0.03002
987.10 0.02995
987.20 0.02988
987.30 0.02982
987.40 0.02975
987.50 0.02968
987.60 0.02961
987.70 0.02955
987.80 0.02948
987.90 0.02941
988.00 0.02935
988.10 0.02928
988.20 0.02921
988.30 0.02914
988.40 0.02908
988.50 0.02901
988.60 0.02894
988.70 0.02888
988.80 0.02881
988.90 0.02874
989.00 0.02868
989.10 0.02861
989.20 0.02854
989.30 0.02848
989.40 0.02841
989.50 0.02835
989.60 0.02828
989.70 0.02821
989.80 0.02815
989.90 0.02808
990.00 0.02801
990.10 0.02795
990.20 0.02788
990.30 0.02782
990.40 0.02775
990.50 0.02768
990.60 0.02762
990.70 0.02755
990.80 0.02749
990.90 0.02742
991.00 0.02736
991.10 0.02729
991.20 0.02722
991.30 0.02716
991.40 0.02709
991.50 0.02703
991.60 0.02696
991.70 0.0269
991.80 0.02683
991.90 0.02677
992.00 0.0267
992.10 0.02664
992.20 0.02657
992.30 0.02651
992.40 0.02644
992.50 0.02638
992.60 0.02631
992.70 0.02625
992.80 0.02618
992.90 0.02612
993.00 0.02605
993.10 0.02599
993.20 0.02593
993.30 0.02586
993.40 0.0258
993.50 0.02573
993.60 0.02567
993.70 0.0256
993.80 0.02554
993.90 0.02548
994.00 0.02541
994.10 0.02535
994.20 0.02528
994.30 0.02522
994.40 0.02516
994.50 0.02509
994.60 0.02503
994.70 0.02495
994.80 0.02487
994.90 0.02479
995.00 0.02471
995.10 0.02463
995.20 0.02455
995.30 0.02447
995.40 0.02439
995.50 0.02431
995.60 0.02423
995.70 0.02417
995.80 0.02411
995.90 0.02405
996.00 0.02399
996.10 0.02393
996.20 0.02387
996.30 0.0238
996.40 0.02374
996.50 0.02368
996.60 0.02362
996.70 0.02356
996.80 0.0235
996.90 0.02344
997.00 0.02338
997.10 0.02332
997.20 0.02326
997.30 0.0232
997.40 0.02314
997.50 0.02308
997.60 0.02303
997.70 0.02297
997.80 0.02291
997.90 0.02285
998.00 0.0228
998.10 0.02274
998.20 0.02268
998.30 0.02263
998.40 0.02257
998.50 0.02251
998.60 0.02246
998.70 0.0224
998.80 0.02234
998.90 0.02229
999.00 0.02223
999.10 0.02217
999.20 0.02212
999.30 0.02206
999.40 0.022
999.50 0.02195
999.60 0.02189
999.70 0.02184
999.80 0.02178
999.90 0.02173
1000.00 0.02168
1000.10 0.02162
1000.20 0.02157
1000.30 0.02152
1000.40 0.02146
1000.50 0.02141
1000.60 0.02136
1000.70 0.0213
1000.80 0.02125
1000.90 0.0212
1001.00 0.02114
1001.10 0.02109
1001.20 0.02104
1001.30 0.02098
1001.40 0.02093
1001.50 0.02088
1001.60 0.02082
1001.70 0.02077
1001.80 0.02072
1001.90 0.02067
1002.00 0.02062
1002.10 0.02057
1002.20 0.02052
1002.30 0.02046
1002.40 0.02041
1002.50 0.02036
1002.60 0.02031
1002.70 0.02026
1002.80 0.02021
1002.90 0.02016
1003.00 0.02011
1003.10 0.02006
1003.20 0.02001
1003.30 0.01996
1003.40 0.01991
1003.50 0.01987
1003.60 0.01982
1003.70 0.01977
1003.80 0.01972
1003.90 0.01967
1004.00 0.01962
1004.10 0.01957
1004.20 0.01953
1004.30 0.01948
1004.40 0.01943
1004.50 0.01938
1004.60 0.01933
1004.70 0.01929
1004.80 0.01924
1004.90 0.01917
1005.00 0.01911
1005.10 0.01906
1005.20 0.01901
1005.30 0.01896
1005.40 0.01892
1005.50 0.01887
1005.60 0.01883
1005.70 0.01878
1005.80 0.01874
1005.90 0.01869
1006.00 0.01864
1006.10 0.0186
1006.20 0.01855
1006.30 0.01851
1006.40 0.01847
1006.50 0.01842
1006.60 0.01838
1006.70 0.01833
1006.80 0.01829
1006.90 0.01825
1007.00 0.0182
1007.10 0.01816
1007.20 0.01812
1007.30 0.01807
1007.40 0.01803
1007.50 0.01799
1007.60 0.01794
1007.70 0.0179
1007.80 0.01786
1007.90 0.01782
1008.00 0.01778
1008.10 0.01774
1008.20 0.0177
1008.30 0.01766
1008.40 0.01762
1008.50 0.01757
1008.60 0.01753
1008.70 0.01749
1008.80 0.01745
1008.90 0.01741
1009.00 0.01737
1009.10 0.01733
1009.20 0.01729
1009.30 0.01725
1009.40 0.01721
1009.50 0.01717
1009.60 0.01712
1009.70 0.01709
1009.80 0.01705
1009.90 0.01701
1010.00 0.01697
1010.10 0.01693
1010.20 0.0169
1010.30 0.01686
1010.40 0.01682
1010.50 0.01678
1010.60 0.01674
1010.70 0.0167
1010.80 0.01667
1010.90 0.01663
1011.00 0.01659
1011.10 0.01655
1011.20 0.01651
1011.30 0.01648
1011.40 0.01644
1011.50 0.0164
1011.60 0.01636
1011.70 0.01633
1011.80 0.01629
1011.90 0.01625
1012.00 0.01622
1012.10 0.01618
1012.20 0.01615
1012.30 0.01611
1012.40 0.01608
1012.50 0.01604
1012.60 0.01601
1012.70 0.01597
1012.80 0.01594
1012.90 0.0159
1013.00 0.01587
1013.10 0.01583
1013.20 0.0158
1013.30 0.01576
1013.40 0.01573
1013.50 0.01569
1013.60 0.01566
1013.70 0.01562
1013.80 0.01559
1013.90 0.01556
1014.00 0.01552
1014.10 0.01549
1014.20 0.01546
1014.30 0.01542
1014.40 0.01539
1014.50 0.01536
1014.60 0.01532
1014.70 0.01529
1014.80 0.01526
1014.90 0.01524
1015.00 0.01521
1015.10 0.01518
1015.20 0.01515
1015.30 0.01512
1015.40 0.01509
1015.50 0.01506
1015.60 0.01504
1015.70 0.01501
1015.80 0.01498
1015.90 0.01495
1016.00 0.01492
1016.10 0.01489
1016.20 0.01486
1016.30 0.01484
1016.40 0.01481
1016.50 0.01478
1016.60 0.01475
1016.70 0.01472
1016.80 0.01469
1016.90 0.01466
1017.00 0.01463
1017.10 0.0146
1017.20 0.01457
1017.30 0.01454
1017.40 0.01451
1017.50 0.01447
1017.60 0.01444
1017.70 0.01441
1017.80 0.01438
1017.90 0.01435
1018.00 0.01432
1018.10 0.01429
1018.20 0.01426
1018.30 0.01423
1018.40 0.0142
1018.50 0.01417
1018.60 0.01414
1018.70 0.01411
1018.80 0.01408
1018.90 0.01405
1019.00 0.01402
1019.10 0.014
1019.20 0.01397
1019.30 0.01394
1019.40 0.01391
1019.50 0.01388
1019.60 0.01385
1019.70 0.01382
1019.80 0.01379
1019.90 0.01376
1020.00 0.01373
1020.10 0.0137
1020.20 0.01367
1020.30 0.01365
1020.40 0.01362
1020.50 0.01359
1020.60 0.01356
1020.70 0.01353
1020.80 0.0135
1020.90 0.01347
1021.00 0.01345
1021.10 0.01342
1021.20 0.01339
1021.30 0.01336
1021.40 0.01333
1021.50 0.01331
1021.60 0.01328
1021.70 0.01325
1021.80 0.01322
1021.90 0.01319
1022.00 0.01317
1022.10 0.01314
1022.20 0.01311
1022.30 0.01308
1022.40 0.01306
1022.50 0.01303
1022.60 0.013
1022.70 0.01298
1022.80 0.01295
1022.90 0.01292
1023.00 0.0129
1023.10 0.01287
1023.20 0.01284
1023.30 0.01282
1023.40 0.01279
1023.50 0.01276
1023.60 0.01273
1023.70 0.01271
1023.80 0.01268
1023.90 0.01265
1024.00 0.01263
1024.10 0.0126
1024.20 0.01257
1024.30 0.01255
1024.40 0.01252
1024.50 0.01249
1024.60 0.01247
1024.70 0.01244
1024.80 0.01241
1024.90 0.01239
1025.00 0.01236
1025.10 0.01233
1025.20 0.01231
1025.30 0.01228
1025.40 0.01226
1025.50 0.01223
1025.60 0.0122
1025.70 0.01218
1025.80 0.01215
1025.90 0.01212
1026.00 0.0121
1026.10 0.01207
1026.20 0.01205
1026.30 0.01202
1026.40 0.01199
1026.50 0.01197
1026.60 0.01194
1026.70 0.01191
1026.80 0.01189
1026.90 0.01186
1027.00 0.01184
1027.10 0.01181
1027.20 0.01179
1027.30 0.01177
1027.40 0.01174
1027.50 0.01172
1027.60 0.0117
1027.70 0.01167
1027.80 0.01165
1027.90 0.01163
1028.00 0.0116
1028.10 0.01158
1028.20 0.01156
1028.30 0.01154
1028.40 0.01151
1028.50 0.01149
1028.60 0.01147
1028.70 0.01144
1028.80 0.01142
1028.90 0.0114
1029.00 0.01137
1029.10 0.01135
1029.20 0.01133
1029.30 0.01131
1029.40 0.01128
1029.50 0.01126
1029.60 0.01124
1029.70 0.01121
1029.80 0.01119
1029.90 0.01117
1030.00 0.01115
1030.10 0.01112
1030.20 0.0111
1030.30 0.01108
1030.40 0.01105
1030.50 0.01103
1030.60 0.01101
1030.70 0.01099
1030.80 0.01096
1030.90 0.01094
1031.00 0.01092
1031.10 0.01089
1031.20 0.01087
1031.30 0.01085
1031.40 0.01083
1031.50 0.0108
1031.60 0.01078
1031.70 0.01076
1031.80 0.01074
1031.90 0.01071
1032.00 0.01069
1032.10 0.01067
1032.20 0.01065
1032.30 0.01063
1032.40 0.01061
1032.50 0.01059
1032.60 0.01057
1032.70 0.01055
1032.80 0.01053
1032.90 0.01051
1033.00 0.01049
1033.10 0.01047
1033.20 0.01045
1033.30 0.01043
1033.40 0.01041
1033.50 0.01039
1033.60 0.01037
1033.70 0.01034
1033.80 0.01032
1033.90 0.0103
1034.00 0.01028
1034.10 0.01026
1034.20 0.01024
1034.30 0.01022
1034.40 0.0102
1034.50 0.01018
1034.60 0.01016
1034.70 0.01014
1034.80 0.01012
1034.90 0.0101
1035.00 0.01008
1035.10 0.01006
1035.20 0.01004
1035.30 0.01002
1035.40 0.01
1035.50 0.009982
1035.60 0.009962
1035.70 0.009942
1035.80 0.009922
1035.90 0.009902
1036.00 0.009882
1036.10 0.009862
1036.20 0.009842
1036.30 0.009821
1036.40 0.009801
1036.50 0.009781
1036.60 0.009761
1036.70 0.009741
1036.80 0.009721
1036.90 0.009701
1037.00 0.009681
1037.10 0.009664
1037.20 0.009647
1037.30 0.00963
1037.40 0.009613
1037.50 0.009596
1037.60 0.009578
1037.70 0.009561
1037.80 0.009544
1037.90 0.009527
1038.00 0.00951
1038.10 0.009493
1038.20 0.009476
1038.30 0.009458
1038.40 0.009441
1038.50 0.009424
1038.60 0.009407
1038.70 0.00939
1038.80 0.009373
1038.90 0.009356
1039.00 0.009339
1039.10 0.009322
1039.20 0.009305
1039.30 0.009288
1039.40 0.009271
1039.50 0.009254
1039.60 0.009237
1039.70 0.00922
1039.80 0.009203
1039.90 0.009186
1040.00 0.009169
1040.10 0.009152
1040.20 0.009135
1040.30 0.009118
1040.40 0.009101
1040.50 0.009084
1040.60 0.009067
1040.70 0.00905
1040.80 0.009033
1040.90 0.009016
1041.00 0.008999
1041.10 0.008982
1041.20 0.008965
1041.30 0.008948
1041.40 0.008931
1041.50 0.008914
1041.60 0.008897
1041.70 0.00888
1041.80 0.008864
1041.90 0.008847
1042.00 0.00883
1042.10 0.008815
1042.20 0.008801
1042.30 0.008786
1042.40 0.008772
1042.50 0.008757
1042.60 0.008742
1042.70 0.008728
1042.80 0.008713
1042.90 0.008699
1043.00 0.008684
1043.10 0.00867
1043.20 0.008655
1043.30 0.008641
1043.40 0.008626
1043.50 0.008612
1043.60 0.008597
1043.70 0.008583
1043.80 0.008569
1043.90 0.008554
1044.00 0.00854
1044.10 0.008525
1044.20 0.008511
1044.30 0.008496
1044.40 0.008482
1044.50 0.008467
1044.60 0.008453
1044.70 0.008439
1044.80 0.008424
1044.90 0.00841
1045.00 0.008395
1045.10 0.008381
1045.20 0.008367
1045.30 0.008352
1045.40 0.008338
1045.50 0.008323
1045.60 0.008309
1045.70 0.008295
1045.80 0.00828
1045.90 0.008266
1046.00 0.008252
1046.10 0.008237
1046.20 0.008223
1046.30 0.008209
1046.40 0.008194
1046.50 0.00818
1046.60 0.008166
1046.70 0.008151
1046.80 0.008137
1046.90 0.008123
1047.00 0.008108
1047.10 0.008096
1047.20 0.008084
1047.30 0.008072
1047.40 0.00806
1047.50 0.008047
1047.60 0.008035
1047.70 0.008023
1047.80 0.008011
1047.90 0.007999
1048.00 0.007987
1048.10 0.007974
1048.20 0.007962
1048.30 0.00795
1048.40 0.007938
1048.50 0.007926
1048.60 0.007914
1048.70 0.007902
1048.80 0.00789
1048.90 0.007877
1049.00 0.007865
1049.10 0.007853
1049.20 0.007841
1049.30 0.007829
1049.40 0.007817
1049.50 0.007805
1049.60 0.007793
1049.70 0.007781
1049.80 0.007769
1049.90 0.007757
1050.00 0.007744
1050.10 0.007732
1050.20 0.00772
1050.30 0.007708
1050.40 0.007696
1050.50 0.007684
1050.60 0.007672
1050.70 0.00766
1050.80 0.007648
1050.90 0.007636
1051.00 0.007624
1051.10 0.007612
1051.20 0.0076
1051.30 0.007588
1051.40 0.007576
1051.50 0.007564
1051.60 0.007552
1051.70 0.00754
1051.80 0.007528
1051.90 0.007516
1052.00 0.007504
1052.10 0.007493
1052.20 0.007482
1052.30 0.007471
1052.40 0.00746
1052.50 0.007449
1052.60 0.007438
1052.70 0.007427
1052.80 0.007416
1052.90 0.007405
1053.00 0.007394
1053.10 0.007383
1053.20 0.007372
1053.30 0.007361
1053.40 0.00735
1053.50 0.00734
1053.60 0.007329
1053.70 0.007318
1053.80 0.007307
1053.90 0.007296
1054.00 0.007285
1054.10 0.007274
1054.20 0.007263
1054.30 0.007252
1054.40 0.007241
1054.50 0.00723
1054.60 0.007219
1054.70 0.007209
1054.80 0.007198
1054.90 0.007187
1055.00 0.007176
1055.10 0.007165
1055.20 0.007154
1055.30 0.007143
1055.40 0.007132
1055.50 0.007122
1055.60 0.007111
1055.70 0.0071
1055.80 0.007089
1055.90 0.007078
1056.00 0.007067
1056.10 0.007056
1056.20 0.007046
1056.30 0.007035
1056.40 0.007024
1056.50 0.007013
1056.60 0.007002
1056.70 0.006992
1056.80 0.006981
1056.90 0.00697
1057.00 0.006959
1057.10 0.006949
1057.20 0.00694
1057.30 0.00693
1057.40 0.00692
1057.50 0.006911
1057.60 0.006901
1057.70 0.006891
1057.80 0.006882
1057.90 0.006872
1058.00 0.006862
1058.10 0.006853
1058.20 0.006843
1058.30 0.006833
1058.40 0.006824
1058.50 0.006814
1058.60 0.006804
1058.70 0.006795
1058.80 0.006785
1058.90 0.006775
1059.00 0.006766
1059.10 0.006756
1059.20 0.006747
1059.30 0.006737
1059.40 0.006727
1059.50 0.006718
1059.60 0.006708
1059.70 0.006699
1059.80 0.006689
1059.90 0.006679
1060.00 0.00667
1060.10 0.00666
1060.20 0.006651
1060.30 0.006641
1060.40 0.006631
1060.50 0.006622
1060.60 0.006612
1060.70 0.006603
1060.80 0.006593
1060.90 0.006584
1061.00 0.006574
1061.10 0.006564
1061.20 0.006555
1061.30 0.006545
1061.40 0.006536
1061.50 0.006526
1061.60 0.006517
1061.70 0.006507
1061.80 0.006498
1061.90 0.006488
1062.00 0.006479
1062.10 0.00647
1062.20 0.006462
1062.30 0.006454
1062.40 0.006445
1062.50 0.006437
1062.60 0.006429
1062.70 0.00642
1062.80 0.006412
1062.90 0.006404
1063.00 0.006395
1063.10 0.006387
1063.20 0.006379
1063.30 0.00637
1063.40 0.006362
1063.50 0.006354
1063.60 0.006345
1063.70 0.006337
1063.80 0.006329
1063.90 0.00632
1064.00 0.006312
1064.10 0.006304
1064.20 0.006296
1064.30 0.006287
1064.40 0.006279
1064.50 0.006271
1064.60 0.006262
1064.70 0.006254
1064.80 0.006246
1064.90 0.006238
1065.00 0.006229
1065.10 0.006221
1065.20 0.006213
1065.30 0.006205
1065.40 0.006196
1065.50 0.006188
1065.60 0.00618
1065.70 0.006172
1065.80 0.006163
1065.90 0.006155
1066.00 0.006147
1066.10 0.006139
1066.20 0.00613
1066.30 0.006122
1066.40 0.006114
1066.50 0.006106
1066.60 0.006098
1066.70 0.006089
1066.80 0.006081
1066.90 0.006073
1067.00 0.006065
1067.10 0.006057
1067.20 0.006049
1067.30 0.006042
1067.40 0.006034
1067.50 0.006026
1067.60 0.006019
1067.70 0.006011
1067.80 0.006004
1067.90 0.005996
1068.00 0.005988
1068.10 0.005981
1068.20 0.005973
1068.30 0.005965
1068.40 0.005958
1068.50 0.00595
1068.60 0.005942
1068.70 0.005935
1068.80 0.005927
1068.90 0.00592
1069.00 0.005912
1069.10 0.005904
1069.20 0.005897
1069.30 0.005889
1069.40 0.005882
1069.50 0.005874
1069.60 0.005866
1069.70 0.005859
1069.80 0.005851
1069.90 0.005844
1070.00 0.005836
1070.10 0.005829
1070.20 0.005821
1070.30 0.005813
1070.40 0.005806
1070.50 0.005798
1070.60 0.005791
1070.70 0.005783
1070.80 0.005776
1070.90 0.005768
1071.00 0.00576
1071.10 0.005753
1071.20 0.005745
1071.30 0.005738
1071.40 0.00573
1071.50 0.005723
1071.60 0.005715
1071.70 0.005708
1071.80 0.0057
1071.90 0.005693
1072.00 0.005685
1072.10 0.005679
1072.20 0.005673
1072.30 0.005667
1072.40 0.005661
1072.50 0.005655
1072.60 0.005649
1072.70 0.005643
1072.80 0.005637
1072.90 0.005631
1073.00 0.005625
1073.10 0.005619
1073.20 0.005613
1073.30 0.005607
1073.40 0.005601
1073.50 0.005596
1073.60 0.00559
1073.70 0.005585
1073.80 0.00558
1073.90 0.005575
1074.00 0.00557
1074.10 0.005565
1074.20 0.005559
1074.30 0.005554
1074.40 0.005549
1074.50 0.005544
1074.60 0.005539
1074.70 0.005534
1074.80 0.005528
1074.90 0.005523
1075.00 0.005518
1075.10 0.005513
1075.20 0.005508
1075.30 0.005503
1075.40 0.005497
1075.50 0.005492
1075.60 0.005487
1075.70 0.005482
1075.80 0.005477
1075.90 0.005472
1076.00 0.005466
1076.10 0.005461
1076.20 0.005456
1076.30 0.005451
1076.40 0.005446
1076.50 0.005441
1076.60 0.005436
1076.70 0.005431
1076.80 0.005425
1076.90 0.00542
1077.00 0.005415
1077.10 0.005411
1077.20 0.005406
1077.30 0.005402
1077.40 0.005397
1077.50 0.005393
1077.60 0.005388
1077.70 0.005384
1077.80 0.00538
1077.90 0.005376
1078.00 0.005372
1078.10 0.005368
1078.20 0.005364
1078.30 0.005359
1078.40 0.005355
1078.50 0.005351
1078.60 0.005347
1078.70 0.005343
1078.80 0.005339
1078.90 0.005335
1079.00 0.005331
1079.10 0.005326
1079.20 0.005322
1079.30 0.005318
1079.40 0.005314
1079.50 0.00531
1079.60 0.005307
1079.70 0.005304
1079.80 0.005301
1079.90 0.005298
1080.00 0.005295
1080.10 0.005292
1080.20 0.005288
1080.30 0.005285
1080.40 0.005282
1080.50 0.005279
1080.60 0.005276
1080.70 0.005273
1080.80 0.00527
1080.90 0.005267
1081.00 0.005263
1081.10 0.00526
1081.20 0.005257
1081.30 0.005254
1081.40 0.005251
1081.50 0.005248
1081.60 0.005245
1081.70 0.005241
1081.80 0.005238
1081.90 0.005235
1082.00 0.005232
1082.10 0.005229
1082.20 0.005226
1082.30 0.005223
1082.40 0.00522
1082.50 0.005217
1082.60 0.005214
1082.70 0.005211
1082.80 0.005208
1082.90 0.005205
1083.00 0.005202
1083.10 0.005199
1083.20 0.005196
1083.30 0.005193
1083.40 0.00519
1083.50 0.005188
1083.60 0.005185
1083.70 0.005182
1083.80 0.005179
1083.90 0.005177
1084.00 0.005174
1084.10 0.005171
1084.20 0.005169
1084.30 0.005166
1084.40 0.005163
1084.50 0.005161
1084.60 0.005159
1084.70 0.005156
1084.80 0.005154
1084.90 0.005152
1085.00 0.005149
1085.10 0.005147
1085.20 0.005145
1085.30 0.005142
1085.40 0.00514
1085.50 0.005138
1085.60 0.005135
1085.70 0.005133
1085.80 0.005131
1085.90 0.005128
1086.00 0.005126
1086.10 0.005124
1086.20 0.005122
1086.30 0.005119
1086.40 0.005117
1086.50 0.005115
1086.60 0.005113
1086.70 0.005111
1086.80 0.005108
1086.90 0.005106
1087.00 0.005104
1087.10 0.005103
1087.20 0.005101
1087.30 0.005099
1087.40 0.005097
1087.50 0.005095
1087.60 0.005094
1087.70 0.005092
1087.80 0.00509
1087.90 0.005088
1088.00 0.005086
1088.10 0.005084
1088.20 0.005083
1088.30 0.005081
1088.40 0.005079
1088.50 0.005077
1088.60 0.005076
1088.70 0.005075
1088.80 0.005073
1088.90 0.005072
1089.00 0.00507
1089.10 0.005069
1089.20 0.005067
1089.30 0.005066
1089.40 0.005065
1089.50 0.005063
1089.60 0.005062
1089.70 0.00506
1089.80 0.005059
1089.90 0.005058
1090.00 0.005056
1090.10 0.005055
1090.20 0.005053
1090.30 0.005052
1090.40 0.00505
1090.50 0.005049
1090.60 0.005048
1090.70 0.005047
1090.80 0.005046
1090.90 0.005045
1091.00 0.005044
1091.10 0.005043
1091.20 0.005042
1091.30 0.005041
1091.40 0.00504
1091.50 0.005039
1091.60 0.005038
1091.70 0.005037
1091.80 0.005036
1091.90 0.005035
1092.00 0.005034
1092.10 0.005033
1092.20 0.005032
1092.30 0.005031
1092.40 0.00503
1092.50 0.00503
1092.60 0.005029
1092.70 0.00503
1092.80 0.005035
1092.90 0.00504
1093.00 0.005046
1093.10 0.005049
1093.20 0.005048
1093.30 0.005048
1093.40 0.005047
1093.50 0.005046
1093.60 0.005046
1093.70 0.005045
1093.80 0.005045
1093.90 0.005044
1094.00 0.005043
1094.10 0.005043
1094.20 0.005042
1094.30 0.005042
1094.40 0.005041
1094.50 0.005041
1094.60 0.00504
1094.70 0.005039
1094.80 0.005039
1094.90 0.005038
1095.00 0.005038
1095.10 0.005037
1095.20 0.005037
1095.30 0.005036
1095.40 0.005036
1095.50 0.005036
1095.60 0.005035
1095.70 0.005035
1095.80 0.005034
1095.90 0.005034
1096.00 0.005033
1096.10 0.005033
1096.20 0.005032
1096.30 0.005032
1096.40 0.005032
1096.50 0.005031
1096.60 0.005031
1096.70 0.00503
1096.80 0.00503
1096.90 0.00503
1097.00 0.005029
1097.10 0.005029
1097.20 0.005029
1097.30 0.005028
1097.40 0.005028
1097.50 0.005028
1097.60 0.005028
1097.70 0.005027
1097.80 0.005027
1097.90 0.005027
1098.00 0.005026
1098.10 0.005026
1098.20 0.005026
1098.30 0.005026
1098.40 0.005025
1098.50 0.005025
1098.60 0.005025
1098.70 0.005025
1098.80 0.005025
1098.90 0.005024
1099.00 0.005024
1099.10 0.005024
1099.20 0.005024
1099.30 0.005024
1099.40 0.005024
1099.50 0.005024
1099.60 0.005023
1099.70 0.005023
1099.80 0.005023
1099.90 0.005023
1100.00 0.005023
1100.10 0.005023
1100.20 0.005023
1100.30 0.005022
1100.40 0.005022
1100.50 0.005022
1100.60 0.005022
1100.70 0.005022
1100.80 0.005022
1100.90 0.005022
1101.00 0.005022
1101.10 0.005022
1101.20 0.005022
1101.30 0.005022
1101.40 0.005022
1101.50 0.005022
1101.60 0.005022
1101.70 0.005022
1101.80 0.005022
1101.90 0.005022
1102.00 0.005022
1102.10 0.005022
1102.20 0.005023
1102.30 0.005023
1102.40 0.005023
1102.50 0.005023
1102.60 0.005023
1102.70 0.005023
1102.80 0.005023
1102.90 0.005023
1103.00 0.005023
1103.10 0.005023
1103.20 0.005024
1103.30 0.005024
1103.40 0.005024
1103.50 0.005024
1103.60 0.005024
1103.70 0.005024
1103.80 0.005024
1103.90 0.005024
1104.00 0.005024
1104.10 0.005024
1104.20 0.005024
1104.30 0.005024
1104.40 0.005024
1104.50 0.005024
1104.60 0.005024
1104.70 0.005024
1104.80 0.005024
1104.90 0.005024
1105.00 0.005024
1105.10 0.005024
1105.20 0.005024
1105.30 0.005024
1105.40 0.005024
1105.50 0.005024
1105.60 0.005024
1105.70 0.005025
1105.80 0.005025
1105.90 0.005026
1106.00 0.005026
1106.10 0.005027
1106.20 0.005027
1106.30 0.005027
1106.40 0.005028
1106.50 0.005028
1106.60 0.005029
1106.70 0.005029
1106.80 0.005029
1106.90 0.00503
1107.00 0.00503
1107.10 0.005031
1107.20 0.005031
1107.30 0.005032
1107.40 0.005033
1107.50 0.005033
1107.60 0.005034
1107.70 0.005034
1107.80 0.005035
1107.90 0.005036
1108.00 0.005036
1108.10 0.005037
1108.20 0.005038
1108.30 0.005038
1108.40 0.005039
1108.50 0.00504
1108.60 0.00504
1108.70 0.005041
1108.80 0.005042
1108.90 0.005042
1109.00 0.005043
1109.10 0.005044
1109.20 0.005044
1109.30 0.005045
1109.40 0.005045
1109.50 0.005046
1109.60 0.005047
1109.70 0.005048
1109.80 0.005049
1109.90 0.00505
1110.00 0.005051
1110.10 0.005052
1110.20 0.005052
1110.30 0.005053
1110.40 0.005054
1110.50 0.005055
1110.60 0.005056
1110.70 0.005057
1110.80 0.005058
1110.90 0.005059
1111.00 0.00506
1111.10 0.005061
1111.20 0.005061
1111.30 0.005062
1111.40 0.005063
1111.50 0.005064
1111.60 0.005065
1111.70 0.005066
1111.80 0.005067
1111.90 0.005068
1112.00 0.005069
1112.10 0.00507
1112.20 0.005071
1112.30 0.005072
1112.40 0.005073
1112.50 0.005074
1112.60 0.005075
1112.70 0.005076
1112.80 0.005078
1112.90 0.005079
1113.00 0.00508
1113.10 0.005081
1113.20 0.005082
1113.30 0.005083
1113.40 0.005084
1113.50 0.005085
1113.60 0.005087
1113.70 0.005088
1113.80 0.005089
1113.90 0.005091
1114.00 0.005092
1114.10 0.005094
1114.20 0.005095
1114.30 0.005096
1114.40 0.005098
1114.50 0.005099
1114.60 0.0051
1114.70 0.005102
1114.80 0.005103
1114.90 0.005105
1115.00 0.005106
1115.10 0.005107
1115.20 0.005109
1115.30 0.00511
1115.40 0.005111
1115.50 0.005113
1115.60 0.005114
1115.70 0.005116
1115.80 0.005117
1115.90 0.005118
1116.00 0.00512
1116.10 0.005121
1116.20 0.005122
1116.30 0.005124
1116.40 0.005125
1116.50 0.005126
1116.60 0.005128
1116.70 0.005129
1116.80 0.00513
1116.90 0.005132
1117.00 0.005133
1117.10 0.005135
1117.20 0.005137
1117.30 0.005138
1117.40 0.00514
1117.50 0.005142
1117.60 0.005143
1117.70 0.005145
1117.80 0.005147
1117.90 0.005148
1118.00 0.00515
1118.10 0.005151
1118.20 0.005153
1118.30 0.005155
1118.40 0.005156
1118.50 0.005158
1118.60 0.00516
1118.70 0.005161
1118.80 0.005163
1118.90 0.005165
1119.00 0.005166
1119.10 0.005168
1119.20 0.00517
1119.30 0.005171
1119.40 0.005173
1119.50 0.005175
1119.60 0.005176
1119.70 0.005178
1119.80 0.00518
1119.90 0.005181
1120.00 0.005183
1120.10 0.005185
1120.20 0.005186
1120.30 0.005188
1120.40 0.005189
1120.50 0.005191
1120.60 0.005193
1120.70 0.005194
1120.80 0.005196
1120.90 0.005198
1121.00 0.005199
1121.10 0.005201
1121.20 0.005203
1121.30 0.005204
1121.40 0.005206
1121.50 0.005208
1121.60 0.005209
1121.70 0.005211
1121.80 0.005212
1121.90 0.005214
1122.00 0.005216
1122.10 0.005219
1122.20 0.005222
1122.30 0.005225
1122.40 0.005228
1122.50 0.005231
1122.60 0.005235
1122.70 0.005238
1122.80 0.005241
1122.90 0.005244
1123.00 0.005247
1123.10 0.00525
1123.20 0.005253
1123.30 0.005256
1123.40 0.00526
1123.50 0.005263
1123.60 0.005266
1123.70 0.005269
1123.80 0.005272
1123.90 0.005275
1124.00 0.005278
1124.10 0.005281
1124.20 0.005285
1124.30 0.005288
1124.40 0.005291
1124.50 0.005294
1124.60 0.005297
1124.70 0.0053
1124.80 0.005303
1124.90 0.005306
1125.00 0.00531
1125.10 0.005313
1125.20 0.005316
1125.30 0.005319
1125.40 0.005322
1125.50 0.005325
1125.60 0.005328
1125.70 0.005331
1125.80 0.005334
1125.90 0.005337
1126.00 0.005341
1126.10 0.005344
1126.20 0.005347
1126.30 0.00535
1126.40 0.005353
1126.50 0.005356
1126.60 0.005359
1126.70 0.005362
1126.80 0.005365
1126.90 0.005368
1127.00 0.005371
1127.10 0.005376
1127.20 0.005381
1127.30 0.005385
1127.40 0.00539
1127.50 0.005395
1127.60 0.005399
1127.70 0.005404
1127.80 0.005409
1127.90 0.005413
1128.00 0.005418
1128.10 0.005422
1128.20 0.005427
1128.30 0.005432
1128.40 0.005436
1128.50 0.005441
1128.60 0.005445
1128.70 0.00545
1128.80 0.005455
1128.90 0.005459
1129.00 0.005464
1129.10 0.005468
1129.20 0.005473
1129.30 0.005478
1129.40 0.005482
1129.50 0.005487
1129.60 0.005491
1129.70 0.005496
1129.80 0.005501
1129.90 0.005505
1130.00 0.00551
1130.10 0.005514
1130.20 0.005519
1130.30 0.005523
1130.40 0.005528
1130.50 0.005533
1130.60 0.005537
1130.70 0.005542
1130.80 0.005546
1130.90 0.005551
1131.00 0.005555
1131.10 0.00556
1131.20 0.005565
1131.30 0.005569
1131.40 0.005574
1131.50 0.005578
1131.60 0.005583
1131.70 0.005587
1131.80 0.005592
1131.90 0.005596
1132.00 0.005601
1132.10 0.005606
1132.20 0.005611
1132.30 0.005616
1132.40 0.005621
1132.50 0.005626
1132.60 0.005631
1132.70 0.005636
1132.80 0.005641
1132.90 0.005646
1133.00 0.005651
1133.10 0.005656
1133.20 0.005661
1133.30 0.005666
1133.40 0.005671
1133.50 0.005676
1133.60 0.005681
1133.70 0.005686
1133.80 0.005691
1133.90 0.005696
1134.00 0.005701
1134.10 0.005706
1134.20 0.005711
1134.30 0.005716
1134.40 0.005721
1134.50 0.005726
1134.60 0.005731
1134.70 0.005736
1134.80 0.005741
1134.90 0.005746
1135.00 0.005751
1135.10 0.005756
1135.20 0.005761
1135.30 0.005765
1135.40 0.00577
1135.50 0.005775
1135.60 0.00578
1135.70 0.005785
1135.80 0.00579
1135.90 0.005795
1136.00 0.0058
1136.10 0.005805
1136.20 0.00581
1136.30 0.005815
1136.40 0.00582
1136.50 0.005825
1136.60 0.00583
1136.70 0.005835
1136.80 0.00584
1136.90 0.005844
1137.00 0.005849
1137.10 0.005855
1137.20 0.005861
1137.30 0.005867
1137.40 0.005872
1137.50 0.005878
1137.60 0.005884
1137.70 0.00589
1137.80 0.005895
1137.90 0.005901
1138.00 0.005907
1138.10 0.005913
1138.20 0.005918
1138.30 0.005924
1138.40 0.00593
1138.50 0.005935
1138.60 0.005941
1138.70 0.005947
1138.80 0.005953
1138.90 0.005958
1139.00 0.005964
1139.10 0.00597
1139.20 0.005975
1139.30 0.005981
1139.40 0.005987
1139.50 0.005993
1139.60 0.005998
1139.70 0.006004
1139.80 0.00601
1139.90 0.006015
1140.00 0.006021
1140.10 0.006027
1140.20 0.006032
1140.30 0.006038
1140.40 0.006044
1140.50 0.00605
1140.60 0.006055
1140.70 0.006061
1140.80 0.006067
1140.90 0.006072
1141.00 0.006078
1141.10 0.006084
1141.20 0.006089
1141.30 0.006095
1141.40 0.006101
1141.50 0.006106
1141.60 0.006112
1141.70 0.006118
1141.80 0.006123
1141.90 0.006129
1142.00 0.006134
1142.10 0.006141
1142.20 0.006148
1142.30 0.006155
1142.40 0.006162
1142.50 0.006169
1142.60 0.006176
1142.70 0.006183
1142.80 0.00619
1142.90 0.006197
1143.00 0.006203
1143.10 0.00621
1143.20 0.006217
1143.30 0.006224
1143.40 0.006231
1143.50 0.006238
1143.60 0.006245
1143.70 0.006252
1143.80 0.006258
1143.90 0.006265
1144.00 0.006272
1144.10 0.006279
1144.20 0.006286
1144.30 0.006293
1144.40 0.0063
1144.50 0.006306
1144.60 0.006313
1144.70 0.00632
1144.80 0.006327
1144.90 0.006334
1145.00 0.006341
1145.10 0.006348
1145.20 0.006354
1145.30 0.006361
1145.40 0.006368
1145.50 0.006375
1145.60 0.006382
1145.70 0.006388
1145.80 0.006395
1145.90 0.006402
1146.00 0.006409
1146.10 0.006416
1146.20 0.006423
1146.30 0.006429
1146.40 0.006436
1146.50 0.006443
1146.60 0.00645
1146.70 0.006457
1146.80 0.006463
1146.90 0.00647
1147.00 0.006477
1147.10 0.006483
1147.20 0.00649
1147.30 0.006496
1147.40 0.006502
1147.50 0.006509
1147.60 0.006515
1147.70 0.006521
1147.80 0.006528
1147.90 0.006534
1148.00 0.00654
1148.10 0.006547
1148.20 0.006553
1148.30 0.006559
1148.40 0.006566
1148.50 0.006572
1148.60 0.006578
1148.70 0.006585
1148.80 0.006591
1148.90 0.006597
1149.00 0.006604
1149.10 0.00661
1149.20 0.006616
1149.30 0.006622
1149.40 0.006629
1149.50 0.006635
1149.60 0.006641
1149.70 0.006648
1149.80 0.006654
1149.90 0.00666
1150.00 0.006667
1150.10 0.006673
1150.20 0.006679
1150.30 0.006685
1150.40 0.006692
1150.50 0.006698
1150.60 0.006704
1150.70 0.00671
1150.80 0.006717
1150.90 0.006723
1151.00 0.006729
1151.10 0.006736
1151.20 0.006742
1151.30 0.006748
1151.40 0.006754
1151.50 0.006761
1151.60 0.006767
1151.70 0.006773
1151.80 0.006779
1151.90 0.006786
1152.00 0.006792
1152.10 0.006799
1152.20 0.006806
1152.30 0.006813
1152.40 0.006819
1152.50 0.006826
1152.60 0.006833
1152.70 0.00684
1152.80 0.006847
1152.90 0.006854
1153.00 0.006861
1153.10 0.006868
1153.20 0.006874
1153.30 0.006881
1153.40 0.006888
1153.50 0.006895
1153.60 0.006902
1153.70 0.006909
1153.80 0.006916
1153.90 0.006922
1154.00 0.006929
1154.10 0.006936
1154.20 0.006943
1154.30 0.00695
1154.40 0.006957
1154.50 0.006963
1154.60 0.00697
1154.70 0.006977
1154.80 0.006984
1154.90 0.006991
1155.00 0.006998
1155.10 0.007004
1155.20 0.007011
1155.30 0.007018
1155.40 0.007025
1155.50 0.007032
1155.60 0.007038
1155.70 0.007045
1155.80 0.007052
1155.90 0.007059
1156.00 0.007066
1156.10 0.007072
1156.20 0.007079
1156.30 0.007086
1156.40 0.007093
1156.50 0.0071
1156.60 0.007106
1156.70 0.007113
1156.80 0.00712
1156.90 0.007127
1157.00 0.007133
1157.10 0.00714
1157.20 0.007146
1157.30 0.007151
1157.40 0.007157
1157.50 0.007163
1157.60 0.007169
1157.70 0.007175
1157.80 0.007181
1157.90 0.007187
1158.00 0.007193
1158.10 0.007199
1158.20 0.007205
1158.30 0.007211
1158.40 0.007217
1158.50 0.007223
1158.60 0.007229
1158.70 0.007235
1158.80 0.007241
1158.90 0.007247
1159.00 0.007253
1159.10 0.007259
1159.20 0.007265
1159.30 0.007271
1159.40 0.007277
1159.50 0.007283
1159.60 0.007289
1159.70 0.007295
1159.80 0.007301
1159.90 0.007307
1160.00 0.007313
1160.10 0.007319
1160.20 0.007324
1160.30 0.00733
1160.40 0.007336
1160.50 0.007342
1160.60 0.007348
1160.70 0.007354
1160.80 0.00736
1160.90 0.007366
1161.00 0.007372
1161.10 0.007378
1161.20 0.007384
1161.30 0.00739
1161.40 0.007396
1161.50 0.007401
1161.60 0.007407
1161.70 0.007413
1161.80 0.007419
1161.90 0.007425
1162.00 0.007431
1162.10 0.007436
1162.20 0.007442
1162.30 0.007447
1162.40 0.007453
1162.50 0.007458
1162.60 0.007463
1162.70 0.007469
1162.80 0.007474
1162.90 0.007479
1163.00 0.007485
1163.10 0.00749
1163.20 0.007495
1163.30 0.007501
1163.40 0.007506
1163.50 0.007512
1163.60 0.007517
1163.70 0.007522
1163.80 0.007528
1163.90 0.007533
1164.00 0.007538
1164.10 0.007544
1164.20 0.007549
1164.30 0.007554
1164.40 0.00756
1164.50 0.007565
1164.60 0.00757
1164.70 0.007576
1164.80 0.007581
1164.90 0.007586
1165.00 0.007592
1165.10 0.007597
1165.20 0.007602
1165.30 0.007608
1165.40 0.007613
1165.50 0.007618
1165.60 0.007624
1165.70 0.007629
1165.80 0.007634
1165.90 0.00764
1166.00 0.007645
1166.10 0.00765
1166.20 0.007656
1166.30 0.007661
1166.40 0.007666
1166.50 0.007671
1166.60 0.007677
1166.70 0.007682
1166.80 0.007687
1166.90 0.007693
1167.00 0.007698
1167.10 0.007703
1167.20 0.007709
1167.30 0.007715
1167.40 0.00772
1167.50 0.007726
1167.60 0.007731
1167.70 0.007737
1167.80 0.007742
1167.90 0.007748
1168.00 0.007754
1168.10 0.007759
1168.20 0.007765
1168.30 0.00777
1168.40 0.007776
1168.50 0.007781
1168.60 0.007787
1168.70 0.007792
1168.80 0.007798
1168.90 0.007803
1169.00 0.007809
1169.10 0.007814
1169.20 0.00782
1169.30 0.007826
1169.40 0.007831
1169.50 0.007837
1169.60 0.007842
1169.70 0.007848
1169.80 0.007853
1169.90 0.007859
1170.00 0.007864
1170.10 0.00787
1170.20 0.007875
1170.30 0.007881
1170.40 0.007886
1170.50 0.007892
1170.60 0.007897
1170.70 0.007903
1170.80 0.007908
1170.90 0.007914
1171.00 0.007919
1171.10 0.007925
1171.20 0.00793
1171.30 0.007936
1171.40 0.007941
1171.50 0.007947
1171.60 0.007952
1171.70 0.007958
1171.80 0.007963
1171.90 0.007969
1172.00 0.007974
1172.10 0.007977
1172.20 0.00798
1172.30 0.007983
1172.40 0.007986
1172.50 0.007989
1172.60 0.007992
1172.70 0.007995
1172.80 0.007998
1172.90 0.008001
1173.00 0.008004
1173.10 0.008007
1173.20 0.00801
1173.30 0.008013
1173.40 0.008016
1173.50 0.008019
1173.60 0.008022
1173.70 0.008025
1173.80 0.008028
1173.90 0.008031
1174.00 0.008034
1174.10 0.008037
1174.20 0.00804
1174.30 0.008043
1174.40 0.008046
1174.50 0.008049
1174.60 0.008052
1174.70 0.008055
1174.80 0.008058
1174.90 0.008061
1175.00 0.008064
1175.10 0.008067
1175.20 0.00807
1175.30 0.008073
1175.40 0.008076
1175.50 0.008079
1175.60 0.008082
1175.70 0.008085
1175.80 0.008088
1175.90 0.008091
1176.00 0.008094
1176.10 0.008097
1176.20 0.0081
1176.30 0.008103
1176.40 0.008106
1176.50 0.008109
1176.60 0.008112
1176.70 0.008115
1176.80 0.008118
1176.90 0.008121
1177.00 0.008124
1177.10 0.008125
1177.20 0.008126
1177.30 0.008127
1177.40 0.008129
1177.50 0.00813
1177.60 0.008131
1177.70 0.008132
1177.80 0.008133
1177.90 0.008135
1178.00 0.008136
1178.10 0.008137
1178.20 0.008138
1178.30 0.00814
1178.40 0.008141
1178.50 0.008142
1178.60 0.008143
1178.70 0.008145
1178.80 0.008146
1178.90 0.008147
1179.00 0.008148
1179.10 0.00815
1179.20 0.008151
1179.30 0.008152
1179.40 0.008153
1179.50 0.008154
1179.60 0.008156
1179.70 0.008157
1179.80 0.008158
1179.90 0.008159
1180.00 0.008161
1180.10 0.008162
1180.20 0.008163
1180.30 0.008164
1180.40 0.008165
1180.50 0.008167
1180.60 0.008168
1180.70 0.008169
1180.80 0.00817
1180.90 0.008172
1181.00 0.008173
1181.10 0.008174
1181.20 0.008175
1181.30 0.008176
1181.40 0.008178
1181.50 0.008179
1181.60 0.00818
1181.70 0.008181
1181.80 0.008182
1181.90 0.008184
1182.00 0.008185
1182.10 0.008183
1182.20 0.008182
1182.30 0.00818
1182.40 0.008179
1182.50 0.008177
1182.60 0.008176
1182.70 0.008174
1182.80 0.008173
1182.90 0.008171
1183.00 0.00817
1183.10 0.008168
1183.20 0.008167
1183.30 0.008165
1183.40 0.008164
1183.50 0.008162
1183.60 0.008161
1183.70 0.008159
1183.80 0.008158
1183.90 0.008156
1184.00 0.008155
1184.10 0.008153
1184.20 0.008152
1184.30 0.00815
1184.40 0.008149
1184.50 0.008148
1184.60 0.008146
1184.70 0.008145
1184.80 0.008143
1184.90 0.008142
1185.00 0.00814
1185.10 0.008139
1185.20 0.008137
1185.30 0.008136
1185.40 0.008134
1185.50 0.008133
1185.60 0.008131
1185.70 0.00813
1185.80 0.008128
1185.90 0.008127
1186.00 0.008125
1186.10 0.008124
1186.20 0.008122
1186.30 0.008121
1186.40 0.008119
1186.50 0.008118
1186.60 0.008116
1186.70 0.008115
1186.80 0.008113
1186.90 0.008112
1187.00 0.00811
1187.10 0.00811
1187.20 0.008109
1187.30 0.008109
1187.40 0.008108
1187.50 0.008107
1187.60 0.008107
1187.70 0.008106
1187.80 0.008105
1187.90 0.008105
1188.00 0.008104
1188.10 0.008104
1188.20 0.008103
1188.30 0.008102
1188.40 0.008102
1188.50 0.008101
1188.60 0.008101
1188.70 0.0081
1188.80 0.008099
1188.90 0.008099
1189.00 0.008098
1189.10 0.008098
1189.20 0.008097
1189.30 0.008096
1189.40 0.008096
1189.50 0.008095
1189.60 0.008095
1189.70 0.008094
1189.80 0.008093
1189.90 0.008093
1190.00 0.008092
1190.10 0.008092
1190.20 0.008091
1190.30 0.00809
1190.40 0.00809
1190.50 0.008089
1190.60 0.008089
1190.70 0.008088
1190.80 0.008087
1190.90 0.008087
1191.00 0.008086
1191.10 0.008086
1191.20 0.008085
1191.30 0.008084
1191.40 0.008084
1191.50 0.008083
1191.60 0.008082
1191.70 0.008082
1191.80 0.008081
1191.90 0.008081
1192.00 0.00808
1192.10 0.008079
1192.20 0.008078
1192.30 0.008077
1192.40 0.008076
1192.50 0.008075
1192.60 0.008074
1192.70 0.008073
1192.80 0.008072
1192.90 0.008071
1193.00 0.00807
1193.10 0.008069
1193.20 0.008068
1193.30 0.008067
1193.40 0.008066
1193.50 0.008065
1193.60 0.008065
1193.70 0.008064
1193.80 0.008063
1193.90 0.008062
1194.00 0.008061
1194.10 0.00806
1194.20 0.008059
1194.30 0.008058
1194.40 0.008057
1194.50 0.008056
1194.60 0.008055
1194.70 0.008054
1194.80 0.008053
1194.90 0.008052
1195.00 0.008051
1195.10 0.00805
1195.20 0.008049
1195.30 0.008048
1195.40 0.008047
1195.50 0.008046
1195.60 0.008045
1195.70 0.008044
1195.80 0.008043
1195.90 0.008042
1196.00 0.008041
1196.10 0.00804
1196.20 0.008039
1196.30 0.008038
1196.40 0.008037
1196.50 0.008037
1196.60 0.008036
1196.70 0.008035
1196.80 0.008034
1196.90 0.008033
1197.00 0.008032
1197.10 0.008029
1197.20 0.008027
1197.30 0.008024
1197.40 0.008021
1197.50 0.008019
1197.60 0.008016
1197.70 0.008014
1197.80 0.008011
1197.90 0.008008
1198.00 0.008006
1198.10 0.008003
1198.20 0.008001
1198.30 0.007998
1198.40 0.007996
1198.50 0.007993
1198.60 0.00799
1198.70 0.007988
1198.80 0.007985
1198.90 0.007983
1199.00 0.00798
1199.10 0.007978
1199.20 0.007975
1199.30 0.007972
1199.40 0.00797
1199.50 0.007967
1199.60 0.007965
1199.70 0.007962
1199.80 0.00796
1199.90 0.007957
1200.00 0
