# Version 2.1 - nm, norm@500 to 1, cut digits, bergeron_25000_95.dat_25000
# Wavelength(nm)  Flambda(ergs/cm^s/s/nm)
300.00 4.506
300.10 4.501
300.20 4.496
300.30 4.491
300.40 4.487
300.50 4.482
300.60 4.477
300.70 4.472
300.80 4.467
300.90 4.462
301.00 4.457
301.10 4.453
301.20 4.448
301.30 4.443
301.40 4.438
301.50 4.433
301.60 4.428
301.70 4.424
301.80 4.419
301.90 4.414
302.00 4.409
302.10 4.405
302.20 4.4
302.30 4.395
302.40 4.39
302.50 4.386
302.60 4.381
302.70 4.376
302.80 4.371
302.90 4.367
303.00 4.362
303.10 4.357
303.20 4.352
303.30 4.348
303.40 4.343
303.50 4.338
303.60 4.334
303.70 4.329
303.80 4.324
303.90 4.32
304.00 4.315
304.10 4.31
304.20 4.306
304.30 4.301
304.40 4.297
304.50 4.292
304.60 4.287
304.70 4.283
304.80 4.278
304.90 4.274
305.00 4.269
305.10 4.264
305.20 4.26
305.30 4.255
305.40 4.251
305.50 4.246
305.60 4.242
305.70 4.237
305.80 4.232
305.90 4.228
306.00 4.223
306.10 4.219
306.20 4.214
306.30 4.21
306.40 4.205
306.50 4.201
306.60 4.196
306.70 4.192
306.80 4.187
306.90 4.183
307.00 4.179
307.10 4.174
307.20 4.17
307.30 4.165
307.40 4.161
307.50 4.156
307.60 4.152
307.70 4.147
307.80 4.143
307.90 4.139
308.00 4.134
308.10 4.13
308.20 4.125
308.30 4.121
308.40 4.117
308.50 4.112
308.60 4.108
308.70 4.104
308.80 4.099
308.90 4.095
309.00 4.091
309.10 4.086
309.20 4.082
309.30 4.078
309.40 4.073
309.50 4.069
309.60 4.065
309.70 4.06
309.80 4.056
309.90 4.052
310.00 4.048
310.10 4.043
310.20 4.039
310.30 4.035
310.40 4.03
310.50 4.026
310.60 4.022
310.70 4.018
310.80 4.013
310.90 4.009
311.00 4.005
311.10 4.001
311.20 3.997
311.30 3.992
311.40 3.988
311.50 3.984
311.60 3.98
311.70 3.976
311.80 3.971
311.90 3.967
312.00 3.963
312.10 3.959
312.20 3.955
312.30 3.951
312.40 3.946
312.50 3.942
312.60 3.938
312.70 3.934
312.80 3.93
312.90 3.926
313.00 3.922
313.10 3.918
313.20 3.914
313.30 3.909
313.40 3.905
313.50 3.901
313.60 3.897
313.70 3.893
313.80 3.889
313.90 3.885
314.00 3.881
314.10 3.877
314.20 3.873
314.30 3.869
314.40 3.865
314.50 3.861
314.60 3.857
314.70 3.853
314.80 3.849
314.90 3.845
315.00 3.841
315.10 3.837
315.20 3.833
315.30 3.829
315.40 3.825
315.50 3.821
315.60 3.817
315.70 3.813
315.80 3.809
315.90 3.805
316.00 3.801
316.10 3.797
316.20 3.793
316.30 3.789
316.40 3.785
316.50 3.781
316.60 3.777
316.70 3.773
316.80 3.769
316.90 3.766
317.00 3.762
317.10 3.758
317.20 3.754
317.30 3.75
317.40 3.746
317.50 3.742
317.60 3.738
317.70 3.735
317.80 3.731
317.90 3.727
318.00 3.723
318.10 3.719
318.20 3.715
318.30 3.712
318.40 3.708
318.50 3.704
318.60 3.7
318.70 3.696
318.80 3.692
318.90 3.689
319.00 3.685
319.10 3.681
319.20 3.677
319.30 3.673
319.40 3.67
319.50 3.666
319.60 3.662
319.70 3.658
319.80 3.655
319.90 3.651
320.00 3.647
320.10 3.643
320.20 3.64
320.30 3.636
320.40 3.632
320.50 3.628
320.60 3.625
320.70 3.621
320.80 3.617
320.90 3.614
321.00 3.61
321.10 3.606
321.20 3.603
321.30 3.599
321.40 3.595
321.50 3.592
321.60 3.588
321.70 3.584
321.80 3.581
321.90 3.577
322.00 3.573
322.10 3.57
322.20 3.566
322.30 3.562
322.40 3.559
322.50 3.555
322.60 3.551
322.70 3.548
322.80 3.544
322.90 3.541
323.00 3.537
323.10 3.533
323.20 3.53
323.30 3.526
323.40 3.523
323.50 3.519
323.60 3.516
323.70 3.512
323.80 3.508
323.90 3.505
324.00 3.501
324.10 3.498
324.20 3.494
324.30 3.491
324.40 3.487
324.50 3.484
324.60 3.48
324.70 3.477
324.80 3.473
324.90 3.47
325.00 3.466
325.10 3.462
325.20 3.459
325.30 3.455
325.40 3.452
325.50 3.449
325.60 3.445
325.70 3.442
325.80 3.438
325.90 3.435
326.00 3.431
326.10 3.428
326.20 3.424
326.30 3.421
326.40 3.417
326.50 3.414
326.60 3.41
326.70 3.407
326.80 3.404
326.90 3.4
327.00 3.397
327.10 3.393
327.20 3.39
327.30 3.387
327.40 3.383
327.50 3.38
327.60 3.376
327.70 3.373
327.80 3.37
327.90 3.366
328.00 3.363
328.10 3.359
328.20 3.356
328.30 3.353
328.40 3.349
328.50 3.346
328.60 3.343
328.70 3.339
328.80 3.336
328.90 3.333
329.00 3.329
329.10 3.326
329.20 3.323
329.30 3.319
329.40 3.316
329.50 3.313
329.60 3.309
329.70 3.306
329.80 3.303
329.90 3.3
330.00 3.296
330.10 3.293
330.20 3.29
330.30 3.286
330.40 3.283
330.50 3.28
330.60 3.277
330.70 3.273
330.80 3.27
330.90 3.267
331.00 3.264
331.10 3.26
331.20 3.257
331.30 3.254
331.40 3.251
331.50 3.247
331.60 3.244
331.70 3.241
331.80 3.238
331.90 3.235
332.00 3.231
332.10 3.228
332.20 3.225
332.30 3.222
332.40 3.219
332.50 3.215
332.60 3.212
332.70 3.209
332.80 3.206
332.90 3.203
333.00 3.199
333.10 3.196
333.20 3.193
333.30 3.19
333.40 3.187
333.50 3.184
333.60 3.181
333.70 3.177
333.80 3.174
333.90 3.171
334.00 3.168
334.10 3.165
334.20 3.162
334.30 3.159
334.40 3.156
334.50 3.152
334.60 3.149
334.70 3.146
334.80 3.143
334.90 3.14
335.00 3.137
335.10 3.134
335.20 3.131
335.30 3.128
335.40 3.125
335.50 3.122
335.60 3.119
335.70 3.115
335.80 3.112
335.90 3.109
336.00 3.106
336.10 3.103
336.20 3.1
336.30 3.097
336.40 3.094
336.50 3.091
336.60 3.088
336.70 3.085
336.80 3.082
336.90 3.079
337.00 3.076
337.10 3.073
337.20 3.07
337.30 3.067
337.40 3.064
337.50 3.061
337.60 3.058
337.70 3.055
337.80 3.052
337.90 3.049
338.00 3.046
338.10 3.043
338.20 3.04
338.30 3.037
338.40 3.034
338.50 3.031
338.60 3.028
338.70 3.025
338.80 3.022
338.90 3.02
339.00 3.017
339.10 3.014
339.20 3.011
339.30 3.008
339.40 3.005
339.50 3.002
339.60 2.999
339.70 2.996
339.80 2.993
339.90 2.99
340.00 2.987
340.10 2.985
340.20 2.982
340.30 2.979
340.40 2.976
340.50 2.973
340.60 2.97
340.70 2.967
340.80 2.964
340.90 2.962
341.00 2.959
341.10 2.956
341.20 2.953
341.30 2.95
341.40 2.947
341.50 2.944
341.60 2.942
341.70 2.939
341.80 2.936
341.90 2.933
342.00 2.93
342.10 2.927
342.20 2.925
342.30 2.922
342.40 2.919
342.50 2.916
342.60 2.913
342.70 2.91
342.80 2.908
342.90 2.905
343.00 2.902
343.10 2.899
343.20 2.897
343.30 2.894
343.40 2.891
343.50 2.888
343.60 2.885
343.70 2.883
343.80 2.88
343.90 2.877
344.00 2.874
344.10 2.872
344.20 2.869
344.30 2.866
344.40 2.863
344.50 2.861
344.60 2.858
344.70 2.855
344.80 2.852
344.90 2.85
345.00 2.847
345.10 2.844
345.20 2.841
345.30 2.839
345.40 2.836
345.50 2.833
345.60 2.831
345.70 2.828
345.80 2.825
345.90 2.823
346.00 2.82
346.10 2.817
346.20 2.814
346.30 2.812
346.40 2.809
346.50 2.806
346.60 2.804
346.70 2.801
346.80 2.798
346.90 2.796
347.00 2.793
347.10 2.79
347.20 2.788
347.30 2.785
347.40 2.782
347.50 2.78
347.60 2.777
347.70 2.775
347.80 2.772
347.90 2.769
348.00 2.767
348.10 2.764
348.20 2.761
348.30 2.759
348.40 2.756
348.50 2.754
348.60 2.751
348.70 2.748
348.80 2.746
348.90 2.743
349.00 2.741
349.10 2.738
349.20 2.735
349.30 2.733
349.40 2.73
349.50 2.728
349.60 2.725
349.70 2.722
349.80 2.72
349.90 2.717
350.00 2.715
350.10 2.712
350.20 2.71
350.30 2.707
350.40 2.704
350.50 2.702
350.60 2.699
350.70 2.697
350.80 2.694
350.90 2.692
351.00 2.689
351.10 2.687
351.20 2.684
351.30 2.682
351.40 2.679
351.50 2.677
351.60 2.674
351.70 2.672
351.80 2.669
351.90 2.667
352.00 2.664
352.10 2.662
352.20 2.659
352.30 2.657
352.40 2.654
352.50 2.652
352.60 2.649
352.70 2.647
352.80 2.644
352.90 2.642
353.00 2.639
353.10 2.637
353.20 2.634
353.30 2.632
353.40 2.629
353.50 2.627
353.60 2.624
353.70 2.622
353.80 2.619
353.90 2.617
354.00 2.615
354.10 2.612
354.20 2.61
354.30 2.607
354.40 2.605
354.50 2.602
354.60 2.6
354.70 2.598
354.80 2.595
354.90 2.593
355.00 2.59
355.10 2.588
355.20 2.585
355.30 2.583
355.40 2.581
355.50 2.578
355.60 2.576
355.70 2.573
355.80 2.571
355.90 2.569
356.00 2.566
356.10 2.564
356.20 2.561
356.30 2.559
356.40 2.557
356.50 2.554
356.60 2.552
356.70 2.55
356.80 2.547
356.90 2.545
357.00 2.543
357.10 2.54
357.20 2.538
357.30 2.535
357.40 2.533
357.50 2.531
357.60 2.528
357.70 2.526
357.80 2.524
357.90 2.521
358.00 2.519
358.10 2.517
358.20 2.514
358.30 2.512
358.40 2.51
358.50 2.507
358.60 2.505
358.70 2.503
358.80 2.501
358.90 2.498
359.00 2.496
359.10 2.494
359.20 2.491
359.30 2.489
359.40 2.487
359.50 2.484
359.60 2.482
359.70 2.48
359.80 2.478
359.90 2.475
360.00 2.473
360.10 2.471
360.20 2.468
360.30 2.466
360.40 2.464
360.50 2.462
360.60 2.459
360.70 2.457
360.80 2.455
360.90 2.453
361.00 2.45
361.10 2.448
361.20 2.446
361.30 2.444
361.40 2.441
361.50 2.439
361.60 2.437
361.70 2.435
361.80 2.432
361.90 2.43
362.00 2.428
362.10 2.426
362.20 2.424
362.30 2.421
362.40 2.419
362.50 2.417
362.60 2.415
362.70 2.413
362.80 2.41
362.90 2.408
363.00 2.406
363.10 2.404
363.20 2.402
363.30 2.399
363.40 2.397
363.50 2.395
363.60 2.393
363.70 2.391
363.80 2.388
363.90 2.386
364.00 2.384
364.10 2.382
364.20 2.38
364.30 2.378
364.40 2.375
364.50 2.373
364.60 2.371
364.70 2.369
364.80 2.367
364.90 2.365
365.00 2.362
365.10 2.36
365.20 2.358
365.30 2.356
365.40 2.354
365.50 2.352
365.60 2.35
365.70 2.347
365.80 2.345
365.90 2.343
366.00 2.341
366.10 2.339
366.20 2.337
366.30 2.334
366.40 2.332
366.50 2.33
366.60 2.328
366.70 2.325
366.80 2.323
366.90 2.321
367.00 2.319
367.10 2.316
367.20 2.314
367.30 2.312
367.40 2.31
367.50 2.307
367.60 2.305
367.70 2.303
367.80 2.301
367.90 2.298
368.00 2.296
368.10 2.294
368.20 2.291
368.30 2.289
368.40 2.287
368.50 2.284
368.60 2.282
368.70 2.279
368.80 2.277
368.90 2.275
369.00 2.272
369.10 2.27
369.20 2.267
369.30 2.265
369.40 2.263
369.50 2.26
369.60 2.258
369.70 2.255
369.80 2.253
369.90 2.251
370.00 2.248
370.10 2.246
370.20 2.244
370.30 2.241
370.40 2.239
370.50 2.237
370.60 2.235
370.70 2.232
370.80 2.23
370.90 2.228
371.00 2.225
371.10 2.223
371.20 2.221
371.30 2.219
371.40 2.216
371.50 2.214
371.60 2.212
371.70 2.209
371.80 2.207
371.90 2.205
372.00 2.203
372.10 2.201
372.20 2.199
372.30 2.197
372.40 2.195
372.50 2.193
372.60 2.191
372.70 2.189
372.80 2.187
372.90 2.185
373.00 2.183
373.10 2.181
373.20 2.179
373.30 2.177
373.40 2.175
373.50 2.174
373.60 2.172
373.70 2.17
373.80 2.168
373.90 2.166
374.00 2.164
374.10 2.162
374.20 2.16
374.30 2.157
374.40 2.155
374.50 2.153
374.60 2.151
374.70 2.149
374.80 2.147
374.90 2.145
375.00 2.142
375.10 2.14
375.20 2.138
375.30 2.136
375.40 2.134
375.50 2.132
375.60 2.13
375.70 2.128
375.80 2.125
375.90 2.123
376.00 2.121
376.10 2.119
376.20 2.117
376.30 2.115
376.40 2.113
376.50 2.111
376.60 2.109
376.70 2.107
376.80 2.105
376.90 2.103
377.00 2.1
377.10 2.099
377.20 2.097
377.30 2.095
377.40 2.093
377.50 2.091
377.60 2.089
377.70 2.088
377.80 2.086
377.90 2.084
378.00 2.082
378.10 2.08
378.20 2.078
378.30 2.077
378.40 2.075
378.50 2.073
378.60 2.071
378.70 2.069
378.80 2.067
378.90 2.066
379.00 2.064
379.10 2.062
379.20 2.06
379.30 2.058
379.40 2.057
379.50 2.055
379.60 2.053
379.70 2.051
379.80 2.049
379.90 2.048
380.00 2.046
380.10 2.044
380.20 2.043
380.30 2.041
380.40 2.04
380.50 2.038
380.60 2.037
380.70 2.035
380.80 2.034
380.90 2.032
381.00 2.031
381.10 2.029
381.20 2.027
381.30 2.026
381.40 2.024
381.50 2.023
381.60 2.021
381.70 2.019
381.80 2.018
381.90 2.016
382.00 2.014
382.10 2.012
382.20 2.011
382.30 2.009
382.40 2.007
382.50 2.005
382.60 2.003
382.70 2.001
382.80 2
382.90 1.998
383.00 1.996
383.10 1.994
383.20 1.992
383.30 1.99
383.40 1.989
383.50 1.987
383.60 1.986
383.70 1.985
383.80 1.984
383.90 1.983
384.00 1.982
384.10 1.982
384.20 1.981
384.30 1.98
384.40 1.979
384.50 1.978
384.60 1.977
384.70 1.976
384.80 1.976
384.90 1.975
385.00 1.974
385.10 1.972
385.20 1.971
385.30 1.97
385.40 1.969
385.50 1.968
385.60 1.967
385.70 1.965
385.80 1.964
385.90 1.962
386.00 1.961
386.10 1.959
386.20 1.958
386.30 1.956
386.40 1.954
386.50 1.953
386.60 1.951
386.70 1.949
386.80 1.947
386.90 1.945
387.00 1.943
387.10 1.941
387.20 1.939
387.30 1.937
387.40 1.935
387.50 1.932
387.60 1.93
387.70 1.928
387.80 1.925
387.90 1.923
388.00 1.92
388.10 1.918
388.20 1.916
388.30 1.913
388.40 1.911
388.50 1.909
388.60 1.906
388.70 1.904
388.80 1.903
388.90 1.901
389.00 1.901
389.10 1.901
389.20 1.901
389.30 1.901
389.40 1.901
389.50 1.902
389.60 1.902
389.70 1.903
389.80 1.903
389.90 1.904
390.00 1.904
390.10 1.905
390.20 1.905
390.30 1.906
390.40 1.906
390.50 1.906
390.60 1.906
390.70 1.906
390.80 1.906
390.90 1.906
391.00 1.906
391.10 1.906
391.20 1.905
391.30 1.905
391.40 1.904
391.50 1.904
391.60 1.903
391.70 1.902
391.80 1.901
391.90 1.9
392.00 1.899
392.10 1.898
392.20 1.897
392.30 1.895
392.40 1.894
392.50 1.892
392.60 1.891
392.70 1.889
392.80 1.887
392.90 1.885
393.00 1.883
393.10 1.881
393.20 1.878
393.30 1.876
393.40 1.873
393.50 1.871
393.60 1.868
393.70 1.865
393.80 1.862
393.90 1.859
394.00 1.856
394.10 1.852
394.20 1.849
394.30 1.845
394.40 1.841
394.50 1.837
394.60 1.834
394.70 1.829
394.80 1.825
394.90 1.821
395.00 1.817
395.10 1.812
395.20 1.807
395.30 1.803
395.40 1.798
395.50 1.793
395.60 1.787
395.70 1.782
395.80 1.777
395.90 1.771
396.00 1.766
396.10 1.76
396.20 1.755
396.30 1.749
396.40 1.743
396.50 1.737
396.60 1.731
396.70 1.726
396.80 1.72
396.90 1.715
397.00 1.71
397.10 1.713
397.20 1.717
397.30 1.721
397.40 1.725
397.50 1.729
397.60 1.734
397.70 1.738
397.80 1.742
397.90 1.747
398.00 1.751
398.10 1.755
398.20 1.759
398.30 1.763
398.40 1.767
398.50 1.77
398.60 1.774
398.70 1.777
398.80 1.781
398.90 1.784
399.00 1.787
399.10 1.79
399.20 1.793
399.30 1.796
399.40 1.799
399.50 1.801
399.60 1.803
399.70 1.806
399.80 1.808
399.90 1.81
400.00 1.812
400.10 1.814
400.20 1.816
400.30 1.817
400.40 1.819
400.50 1.82
400.60 1.821
400.70 1.822
400.80 1.823
400.90 1.824
401.00 1.825
401.10 1.826
401.20 1.826
401.30 1.827
401.40 1.827
401.50 1.827
401.60 1.827
401.70 1.827
401.80 1.827
401.90 1.826
402.00 1.826
402.10 1.825
402.20 1.825
402.30 1.824
402.40 1.823
402.50 1.822
402.60 1.821
402.70 1.819
402.80 1.818
402.90 1.817
403.00 1.815
403.10 1.813
403.20 1.811
403.30 1.809
403.40 1.807
403.50 1.805
403.60 1.802
403.70 1.8
403.80 1.797
403.90 1.794
404.00 1.791
404.10 1.788
404.20 1.785
404.30 1.782
404.40 1.778
404.50 1.775
404.60 1.771
404.70 1.767
404.80 1.763
404.90 1.759
405.00 1.755
405.10 1.75
405.20 1.746
405.30 1.741
405.40 1.736
405.50 1.731
405.60 1.726
405.70 1.721
405.80 1.715
405.90 1.71
406.00 1.704
406.10 1.698
406.20 1.692
406.30 1.686
406.40 1.68
406.50 1.673
406.60 1.667
406.70 1.66
406.80 1.653
406.90 1.646
407.00 1.639
407.10 1.631
407.20 1.624
407.30 1.616
407.40 1.608
407.50 1.6
407.60 1.592
407.70 1.584
407.80 1.575
407.90 1.567
408.00 1.558
408.10 1.549
408.20 1.54
408.30 1.531
408.40 1.521
408.50 1.512
408.60 1.502
408.70 1.492
408.80 1.482
408.90 1.472
409.00 1.462
409.10 1.452
409.20 1.442
409.30 1.432
409.40 1.421
409.50 1.411
409.60 1.401
409.70 1.392
409.80 1.383
409.90 1.375
410.00 1.37
410.10 1.367
410.20 1.366
410.30 1.366
410.40 1.369
410.50 1.374
410.60 1.381
410.70 1.388
410.80 1.396
410.90 1.405
411.00 1.413
411.10 1.421
411.20 1.43
411.30 1.438
411.40 1.447
411.50 1.455
411.60 1.463
411.70 1.471
411.80 1.479
411.90 1.487
412.00 1.495
412.10 1.502
412.20 1.509
412.30 1.517
412.40 1.524
412.50 1.531
412.60 1.537
412.70 1.544
412.80 1.55
412.90 1.557
413.00 1.563
413.10 1.569
413.20 1.575
413.30 1.581
413.40 1.586
413.50 1.592
413.60 1.597
413.70 1.603
413.80 1.608
413.90 1.613
414.00 1.617
414.10 1.622
414.20 1.627
414.30 1.631
414.40 1.636
414.50 1.64
414.60 1.644
414.70 1.648
414.80 1.652
414.90 1.656
415.00 1.659
415.10 1.663
415.20 1.666
415.30 1.67
415.40 1.673
415.50 1.676
415.60 1.679
415.70 1.682
415.80 1.685
415.90 1.688
416.00 1.69
416.10 1.693
416.20 1.695
416.30 1.698
416.40 1.7
416.50 1.702
416.60 1.704
416.70 1.706
416.80 1.708
416.90 1.71
417.00 1.711
417.10 1.713
417.20 1.715
417.30 1.716
417.40 1.718
417.50 1.719
417.60 1.72
417.70 1.721
417.80 1.722
417.90 1.723
418.00 1.724
418.10 1.725
418.20 1.726
418.30 1.727
418.40 1.727
418.50 1.728
418.60 1.728
418.70 1.729
418.80 1.729
418.90 1.73
419.00 1.73
419.10 1.73
419.20 1.73
419.30 1.73
419.40 1.73
419.50 1.73
419.60 1.73
419.70 1.73
419.80 1.729
419.90 1.729
420.00 1.729
420.10 1.728
420.20 1.728
420.30 1.727
420.40 1.727
420.50 1.726
420.60 1.725
420.70 1.724
420.80 1.724
420.90 1.723
421.00 1.722
421.10 1.721
421.20 1.72
421.30 1.718
421.40 1.717
421.50 1.716
421.60 1.715
421.70 1.713
421.80 1.712
421.90 1.71
422.00 1.709
422.10 1.707
422.20 1.706
422.30 1.704
422.40 1.702
422.50 1.7
422.60 1.698
422.70 1.696
422.80 1.694
422.90 1.692
423.00 1.69
423.10 1.688
423.20 1.686
423.30 1.684
423.40 1.681
423.50 1.679
423.60 1.676
423.70 1.674
423.80 1.671
423.90 1.669
424.00 1.666
424.10 1.663
424.20 1.66
424.30 1.657
424.40 1.654
424.50 1.651
424.60 1.648
424.70 1.645
424.80 1.642
424.90 1.638
425.00 1.635
425.10 1.632
425.20 1.628
425.30 1.625
425.40 1.621
425.50 1.617
425.60 1.613
425.70 1.61
425.80 1.606
425.90 1.602
426.00 1.597
426.10 1.593
426.20 1.589
426.30 1.585
426.40 1.58
426.50 1.576
426.60 1.571
426.70 1.567
426.80 1.562
426.90 1.557
427.00 1.552
427.10 1.547
427.20 1.542
427.30 1.537
427.40 1.532
427.50 1.527
427.60 1.521
427.70 1.516
427.80 1.51
427.90 1.505
428.00 1.499
428.10 1.493
428.20 1.487
428.30 1.481
428.40 1.475
428.50 1.469
428.60 1.462
428.70 1.456
428.80 1.45
428.90 1.443
429.00 1.436
429.10 1.43
429.20 1.423
429.30 1.416
429.40 1.409
429.50 1.402
429.60 1.394
429.70 1.387
429.80 1.379
429.90 1.372
430.00 1.364
430.10 1.356
430.20 1.349
430.30 1.341
430.40 1.333
430.50 1.324
430.60 1.316
430.70 1.308
430.80 1.299
430.90 1.29
431.00 1.282
431.10 1.273
431.20 1.264
431.30 1.255
431.40 1.245
431.50 1.236
431.60 1.226
431.70 1.217
431.80 1.207
431.90 1.197
432.00 1.187
432.10 1.176
432.20 1.166
432.30 1.155
432.40 1.144
432.50 1.133
432.60 1.122
432.70 1.111
432.80 1.099
432.90 1.087
433.00 1.075
433.10 1.062
433.20 1.049
433.30 1.035
433.40 1.021
433.50 1.006
433.60 0.9912
433.70 0.9745
433.80 0.9558
433.90 0.9354
434.00 0.9068
434.10 0.9069
434.20 0.9355
434.30 0.9544
434.40 0.9715
434.50 0.987
434.60 1.001
434.70 1.014
434.80 1.027
434.90 1.039
435.00 1.05
435.10 1.061
435.20 1.072
435.30 1.083
435.40 1.093
435.50 1.103
435.60 1.112
435.70 1.122
435.80 1.131
435.90 1.14
436.00 1.149
436.10 1.157
436.20 1.165
436.30 1.174
436.40 1.182
436.50 1.19
436.60 1.197
436.70 1.205
436.80 1.212
436.90 1.219
437.00 1.227
437.10 1.233
437.20 1.24
437.30 1.247
437.40 1.254
437.50 1.26
437.60 1.266
437.70 1.273
437.80 1.279
437.90 1.285
438.00 1.291
438.10 1.296
438.20 1.302
438.30 1.307
438.40 1.313
438.50 1.318
438.60 1.323
438.70 1.329
438.80 1.333
438.90 1.338
439.00 1.343
439.10 1.348
439.20 1.352
439.30 1.357
439.40 1.361
439.50 1.366
439.60 1.37
439.70 1.374
439.80 1.378
439.90 1.382
440.00 1.386
440.10 1.39
440.20 1.393
440.30 1.397
440.40 1.4
440.50 1.404
440.60 1.407
440.70 1.41
440.80 1.414
440.90 1.417
441.00 1.42
441.10 1.423
441.20 1.425
441.30 1.428
441.40 1.431
441.50 1.434
441.60 1.436
441.70 1.439
441.80 1.441
441.90 1.443
442.00 1.446
442.10 1.448
442.20 1.45
442.30 1.452
442.40 1.454
442.50 1.456
442.60 1.458
442.70 1.46
442.80 1.462
442.90 1.463
443.00 1.465
443.10 1.467
443.20 1.468
443.30 1.47
443.40 1.471
443.50 1.472
443.60 1.474
443.70 1.475
443.80 1.476
443.90 1.478
444.00 1.479
444.10 1.48
444.20 1.481
444.30 1.482
444.40 1.483
444.50 1.484
444.60 1.485
444.70 1.485
444.80 1.486
444.90 1.487
445.00 1.488
445.10 1.488
445.20 1.489
445.30 1.49
445.40 1.49
445.50 1.491
445.60 1.491
445.70 1.492
445.80 1.492
445.90 1.493
446.00 1.493
446.10 1.493
446.20 1.494
446.30 1.494
446.40 1.494
446.50 1.494
446.60 1.494
446.70 1.495
446.80 1.495
446.90 1.495
447.00 1.495
447.10 1.495
447.20 1.495
447.30 1.495
447.40 1.495
447.50 1.495
447.60 1.495
447.70 1.495
447.80 1.495
447.90 1.495
448.00 1.494
448.10 1.494
448.20 1.494
448.30 1.494
448.40 1.494
448.50 1.493
448.60 1.493
448.70 1.493
448.80 1.492
448.90 1.492
449.00 1.492
449.10 1.491
449.20 1.491
449.30 1.491
449.40 1.49
449.50 1.49
449.60 1.489
449.70 1.489
449.80 1.488
449.90 1.488
450.00 1.487
450.10 1.487
450.20 1.486
450.30 1.486
450.40 1.485
450.50 1.485
450.60 1.484
450.70 1.484
450.80 1.483
450.90 1.482
451.00 1.482
451.10 1.481
451.20 1.48
451.30 1.48
451.40 1.479
451.50 1.478
451.60 1.478
451.70 1.477
451.80 1.476
451.90 1.476
452.00 1.475
452.10 1.474
452.20 1.473
452.30 1.473
452.40 1.472
452.50 1.471
452.60 1.47
452.70 1.469
452.80 1.469
452.90 1.468
453.00 1.467
453.10 1.466
453.20 1.465
453.30 1.465
453.40 1.464
453.50 1.463
453.60 1.462
453.70 1.461
453.80 1.46
453.90 1.459
454.00 1.458
454.10 1.457
454.20 1.457
454.30 1.456
454.40 1.455
454.50 1.454
454.60 1.453
454.70 1.452
454.80 1.451
454.90 1.45
455.00 1.449
455.10 1.448
455.20 1.447
455.30 1.446
455.40 1.445
455.50 1.444
455.60 1.443
455.70 1.442
455.80 1.441
455.90 1.44
456.00 1.439
456.10 1.438
456.20 1.437
456.30 1.436
456.40 1.435
456.50 1.434
456.60 1.433
456.70 1.432
456.80 1.431
456.90 1.43
457.00 1.429
457.10 1.428
457.20 1.427
457.30 1.426
457.40 1.425
457.50 1.424
457.60 1.422
457.70 1.421
457.80 1.42
457.90 1.419
458.00 1.418
458.10 1.417
458.20 1.416
458.30 1.415
458.40 1.414
458.50 1.413
458.60 1.411
458.70 1.41
458.80 1.409
458.90 1.408
459.00 1.407
459.10 1.406
459.20 1.405
459.30 1.403
459.40 1.402
459.50 1.401
459.60 1.4
459.70 1.399
459.80 1.398
459.90 1.396
460.00 1.395
460.10 1.394
460.20 1.393
460.30 1.392
460.40 1.391
460.50 1.389
460.60 1.388
460.70 1.387
460.80 1.386
460.90 1.385
461.00 1.383
461.10 1.382
461.20 1.381
461.30 1.38
461.40 1.378
461.50 1.377
461.60 1.376
461.70 1.375
461.80 1.373
461.90 1.372
462.00 1.371
462.10 1.37
462.20 1.368
462.30 1.367
462.40 1.366
462.50 1.365
462.60 1.363
462.70 1.362
462.80 1.361
462.90 1.36
463.00 1.358
463.10 1.357
463.20 1.356
463.30 1.354
463.40 1.353
463.50 1.352
463.60 1.35
463.70 1.349
463.80 1.348
463.90 1.346
464.00 1.345
464.10 1.344
464.20 1.342
464.30 1.341
464.40 1.34
464.50 1.338
464.60 1.337
464.70 1.336
464.80 1.334
464.90 1.333
465.00 1.332
465.10 1.33
465.20 1.329
465.30 1.327
465.40 1.326
465.50 1.325
465.60 1.323
465.70 1.322
465.80 1.32
465.90 1.319
466.00 1.318
466.10 1.316
466.20 1.315
466.30 1.313
466.40 1.312
466.50 1.31
466.60 1.309
466.70 1.307
466.80 1.306
466.90 1.304
467.00 1.303
467.10 1.302
467.20 1.3
467.30 1.299
467.40 1.297
467.50 1.295
467.60 1.294
467.70 1.292
467.80 1.291
467.90 1.289
468.00 1.288
468.10 1.286
468.20 1.285
468.30 1.283
468.40 1.282
468.50 1.28
468.60 1.278
468.70 1.277
468.80 1.275
468.90 1.274
469.00 1.272
469.10 1.27
469.20 1.269
469.30 1.267
469.40 1.265
469.50 1.264
469.60 1.262
469.70 1.26
469.80 1.259
469.90 1.257
470.00 1.255
470.10 1.254
470.20 1.252
470.30 1.25
470.40 1.248
470.50 1.247
470.60 1.245
470.70 1.243
470.80 1.241
470.90 1.239
471.00 1.238
471.10 1.236
471.20 1.234
471.30 1.232
471.40 1.23
471.50 1.228
471.60 1.227
471.70 1.225
471.80 1.223
471.90 1.221
472.00 1.219
472.10 1.217
472.20 1.215
472.30 1.213
472.40 1.211
472.50 1.209
472.60 1.207
472.70 1.205
472.80 1.203
472.90 1.201
473.00 1.199
473.10 1.197
473.20 1.195
473.30 1.193
473.40 1.19
473.50 1.188
473.60 1.186
473.70 1.184
473.80 1.182
473.90 1.179
474.00 1.177
474.10 1.175
474.20 1.173
474.30 1.17
474.40 1.168
474.50 1.166
474.60 1.163
474.70 1.161
474.80 1.159
474.90 1.156
475.00 1.154
475.10 1.152
475.20 1.149
475.30 1.146
475.40 1.144
475.50 1.141
475.60 1.139
475.70 1.136
475.80 1.134
475.90 1.131
476.00 1.128
476.10 1.126
476.20 1.123
476.30 1.12
476.40 1.117
476.50 1.115
476.60 1.112
476.70 1.109
476.80 1.106
476.90 1.103
477.00 1.1
477.10 1.098
477.20 1.095
477.30 1.091
477.40 1.088
477.50 1.085
477.60 1.082
477.70 1.079
477.80 1.076
477.90 1.073
478.00 1.07
478.10 1.066
478.20 1.063
478.30 1.06
478.40 1.056
478.50 1.053
478.60 1.049
478.70 1.046
478.80 1.042
478.90 1.039
479.00 1.035
479.10 1.032
479.20 1.028
479.30 1.024
479.40 1.021
479.50 1.017
479.60 1.013
479.70 1.009
479.80 1.005
479.90 1.001
480.00 0.9976
480.10 0.9937
480.20 0.9896
480.30 0.9853
480.40 0.981
480.50 0.9767
480.60 0.9724
480.70 0.9681
480.80 0.9638
480.90 0.9596
481.00 0.9553
481.10 0.951
481.20 0.9464
481.30 0.9416
481.40 0.9367
481.50 0.9319
481.60 0.9271
481.70 0.9223
481.80 0.9175
481.90 0.9127
482.00 0.9079
482.10 0.9031
482.20 0.8979
482.30 0.8924
482.40 0.8869
482.50 0.8815
482.60 0.876
482.70 0.8706
482.80 0.8651
482.90 0.8597
483.00 0.8543
483.10 0.8488
483.20 0.8428
483.30 0.8364
483.40 0.83
483.50 0.8236
483.60 0.8173
483.70 0.8109
483.80 0.8046
483.90 0.7982
484.00 0.7919
484.10 0.7855
484.20 0.7784
484.30 0.771
484.40 0.7635
484.50 0.756
484.60 0.7486
484.70 0.7401
484.80 0.7313
484.90 0.7224
485.00 0.7136
485.10 0.7047
485.20 0.6947
485.30 0.6841
485.40 0.6725
485.50 0.6604
485.60 0.6466
485.70 0.6322
485.80 0.6154
485.90 0.5975
486.00 0.5793
486.10 0.581
486.20 0.5729
486.30 0.5843
486.40 0.6017
486.50 0.6188
486.60 0.6337
486.70 0.6474
486.80 0.6595
486.90 0.6707
487.00 0.6808
487.10 0.6904
487.20 0.6989
487.30 0.7067
487.40 0.7146
487.50 0.7225
487.60 0.7304
487.70 0.7372
487.80 0.7436
487.90 0.75
488.00 0.7564
488.10 0.7627
488.20 0.7683
488.30 0.7735
488.40 0.7786
488.50 0.7838
488.60 0.789
488.70 0.7941
488.80 0.7993
488.90 0.8044
489.00 0.8096
489.10 0.8147
489.20 0.8192
489.30 0.8233
489.40 0.8274
489.50 0.8316
489.60 0.8357
489.70 0.8398
489.80 0.8439
489.90 0.848
490.00 0.8521
490.10 0.8562
490.20 0.8599
490.30 0.8632
490.40 0.8666
490.50 0.87
490.60 0.8733
490.70 0.8767
490.80 0.8801
490.90 0.8834
491.00 0.8868
491.10 0.8901
491.20 0.8931
491.30 0.8958
491.40 0.8986
491.50 0.9013
491.60 0.9041
491.70 0.9068
491.80 0.9096
491.90 0.9123
492.00 0.9151
492.10 0.9178
492.20 0.9202
492.30 0.9224
492.40 0.9246
492.50 0.9269
492.60 0.9291
492.70 0.9313
492.80 0.9335
492.90 0.9357
493.00 0.9379
493.10 0.9401
493.20 0.9421
493.30 0.9438
493.40 0.9456
493.50 0.9474
493.60 0.9491
493.70 0.9509
493.80 0.9526
493.90 0.9544
494.00 0.9562
494.10 0.9579
494.20 0.9594
494.30 0.9608
494.40 0.9622
494.50 0.9636
494.60 0.9649
494.70 0.9663
494.80 0.9677
494.90 0.969
495.00 0.9704
495.10 0.9718
495.20 0.9729
495.30 0.974
495.40 0.975
495.50 0.976
495.60 0.9771
495.70 0.9781
495.80 0.9792
495.90 0.9802
496.00 0.9812
496.10 0.9823
496.20 0.9831
496.30 0.9839
496.40 0.9846
496.50 0.9854
496.60 0.9862
496.70 0.9869
496.80 0.9877
496.90 0.9884
497.00 0.9892
497.10 0.99
497.20 0.9905
497.30 0.9911
497.40 0.9916
497.50 0.9921
497.60 0.9926
497.70 0.9932
497.80 0.9937
497.90 0.9942
498.00 0.9947
498.10 0.9952
498.20 0.9956
498.30 0.9959
498.40 0.9963
498.50 0.9966
498.60 0.9969
498.70 0.9972
498.80 0.9976
498.90 0.9979
499.00 0.9982
499.10 0.9985
499.20 0.9987
499.30 0.9989
499.40 0.9991
499.50 0.9992
499.60 0.9994
499.70 0.9995
499.80 0.9997
499.90 0.9998
500.00 1
500.10 1
500.20 1
500.30 1
500.40 1
500.50 1
500.60 1
500.70 1
500.80 1
500.90 1
501.00 1
501.10 1
501.20 1
501.30 1
501.40 1
501.50 1
501.60 1
501.70 0.9999
501.80 0.9998
501.90 0.9997
502.00 0.9996
502.10 0.9995
502.20 0.9994
502.30 0.9992
502.40 0.999
502.50 0.9988
502.60 0.9986
502.70 0.9984
502.80 0.9982
502.90 0.998
503.00 0.9979
503.10 0.9977
503.20 0.9974
503.30 0.9972
503.40 0.9969
503.50 0.9966
503.60 0.9964
503.70 0.9961
503.80 0.9958
503.90 0.9956
504.00 0.9953
504.10 0.9951
504.20 0.9947
504.30 0.9944
504.40 0.9941
504.50 0.9938
504.60 0.9934
504.70 0.9931
504.80 0.9928
504.90 0.9925
505.00 0.9921
505.10 0.9918
505.20 0.9914
505.30 0.9911
505.40 0.9907
505.50 0.9903
505.60 0.9899
505.70 0.9895
505.80 0.9891
505.90 0.9888
506.00 0.9884
506.10 0.988
506.20 0.9876
506.30 0.9872
506.40 0.9867
506.50 0.9863
506.60 0.9859
506.70 0.9855
506.80 0.9851
506.90 0.9846
507.00 0.9842
507.10 0.9838
507.20 0.9833
507.30 0.9829
507.40 0.9824
507.50 0.982
507.60 0.9815
507.70 0.981
507.80 0.9806
507.90 0.9801
508.00 0.9797
508.10 0.9792
508.20 0.9787
508.30 0.9782
508.40 0.9777
508.50 0.9773
508.60 0.9768
508.70 0.9763
508.80 0.9758
508.90 0.9753
509.00 0.9748
509.10 0.9743
509.20 0.9738
509.30 0.9733
509.40 0.9728
509.50 0.9723
509.60 0.9718
509.70 0.9713
509.80 0.9707
509.90 0.9702
510.00 0.9697
510.10 0.9692
510.20 0.9687
510.30 0.9682
510.40 0.9676
510.50 0.9671
510.60 0.9666
510.70 0.966
510.80 0.9655
510.90 0.965
511.00 0.9644
511.10 0.9639
511.20 0.9634
511.30 0.9628
511.40 0.9623
511.50 0.9617
511.60 0.9612
511.70 0.9606
511.80 0.9601
511.90 0.9595
512.00 0.959
512.10 0.9584
512.20 0.9579
512.30 0.9573
512.40 0.9568
512.50 0.9562
512.60 0.9556
512.70 0.9551
512.80 0.9545
512.90 0.954
513.00 0.9534
513.10 0.9528
513.20 0.9523
513.30 0.9517
513.40 0.9511
513.50 0.9506
513.60 0.95
513.70 0.9494
513.80 0.9489
513.90 0.9483
514.00 0.9477
514.10 0.9472
514.20 0.9466
514.30 0.946
514.40 0.9454
514.50 0.9448
514.60 0.9443
514.70 0.9437
514.80 0.9431
514.90 0.9425
515.00 0.942
515.10 0.9414
515.20 0.9408
515.30 0.9402
515.40 0.9396
515.50 0.939
515.60 0.9385
515.70 0.9379
515.80 0.9373
515.90 0.9367
516.00 0.9361
516.10 0.9355
516.20 0.935
516.30 0.9344
516.40 0.9338
516.50 0.9332
516.60 0.9326
516.70 0.932
516.80 0.9314
516.90 0.9308
517.00 0.9303
517.10 0.9297
517.20 0.9291
517.30 0.9285
517.40 0.9279
517.50 0.9273
517.60 0.9267
517.70 0.9261
517.80 0.9255
517.90 0.9249
518.00 0.9244
518.10 0.9238
518.20 0.9232
518.30 0.9226
518.40 0.922
518.50 0.9214
518.60 0.9208
518.70 0.9202
518.80 0.9196
518.90 0.919
519.00 0.9184
519.10 0.9178
519.20 0.9172
519.30 0.9166
519.40 0.916
519.50 0.9155
519.60 0.9149
519.70 0.9143
519.80 0.9137
519.90 0.9131
520.00 0.9125
520.10 0.9119
520.20 0.9113
520.30 0.9107
520.40 0.9101
520.50 0.9095
520.60 0.9089
520.70 0.9083
520.80 0.9077
520.90 0.9071
521.00 0.9065
521.10 0.9059
521.20 0.9053
521.30 0.9048
521.40 0.9042
521.50 0.9036
521.60 0.903
521.70 0.9024
521.80 0.9018
521.90 0.9012
522.00 0.9006
522.10 0.9
522.20 0.8994
522.30 0.8988
522.40 0.8982
522.50 0.8976
522.60 0.897
522.70 0.8964
522.80 0.8958
522.90 0.8953
523.00 0.8947
523.10 0.8941
523.20 0.8935
523.30 0.8929
523.40 0.8923
523.50 0.8917
523.60 0.8911
523.70 0.8905
523.80 0.8899
523.90 0.8893
524.00 0.8887
524.10 0.8881
524.20 0.8876
524.30 0.887
524.40 0.8864
524.50 0.8858
524.60 0.8852
524.70 0.8846
524.80 0.884
524.90 0.8834
525.00 0.8828
525.10 0.8822
525.20 0.8817
525.30 0.8811
525.40 0.8805
525.50 0.8799
525.60 0.8793
525.70 0.8787
525.80 0.8781
525.90 0.8775
526.00 0.877
526.10 0.8764
526.20 0.8758
526.30 0.8752
526.40 0.8746
526.50 0.874
526.60 0.8734
526.70 0.8728
526.80 0.8723
526.90 0.8717
527.00 0.8711
527.10 0.8705
527.20 0.8699
527.30 0.8693
527.40 0.8688
527.50 0.8682
527.60 0.8676
527.70 0.867
527.80 0.8664
527.90 0.8658
528.00 0.8653
528.10 0.8647
528.20 0.8641
528.30 0.8635
528.40 0.8629
528.50 0.8624
528.60 0.8618
528.70 0.8612
528.80 0.8606
528.90 0.86
529.00 0.8595
529.10 0.8589
529.20 0.8583
529.30 0.8577
529.40 0.8572
529.50 0.8566
529.60 0.856
529.70 0.8554
529.80 0.8548
529.90 0.8543
530.00 0.8537
530.10 0.8531
530.20 0.8525
530.30 0.852
530.40 0.8514
530.50 0.8508
530.60 0.8502
530.70 0.8497
530.80 0.8491
530.90 0.8485
531.00 0.848
531.10 0.8474
531.20 0.8468
531.30 0.8462
531.40 0.8457
531.50 0.8451
531.60 0.8445
531.70 0.844
531.80 0.8434
531.90 0.8428
532.00 0.8423
532.10 0.8417
532.20 0.8411
532.30 0.8405
532.40 0.84
532.50 0.8394
532.60 0.8388
532.70 0.8383
532.80 0.8377
532.90 0.8371
533.00 0.8366
533.10 0.836
533.20 0.8355
533.30 0.8349
533.40 0.8343
533.50 0.8338
533.60 0.8332
533.70 0.8326
533.80 0.8321
533.90 0.8315
534.00 0.831
534.10 0.8304
534.20 0.8298
534.30 0.8293
534.40 0.8287
534.50 0.8281
534.60 0.8276
534.70 0.827
534.80 0.8265
534.90 0.8259
535.00 0.8254
535.10 0.8248
535.20 0.8242
535.30 0.8237
535.40 0.8231
535.50 0.8226
535.60 0.822
535.70 0.8215
535.80 0.8209
535.90 0.8204
536.00 0.8198
536.10 0.8192
536.20 0.8187
536.30 0.8181
536.40 0.8176
536.50 0.817
536.60 0.8165
536.70 0.8159
536.80 0.8154
536.90 0.8148
537.00 0.8143
537.10 0.8137
537.20 0.8132
537.30 0.8126
537.40 0.8121
537.50 0.8115
537.60 0.811
537.70 0.8104
537.80 0.8099
537.90 0.8093
538.00 0.8088
538.10 0.8083
538.20 0.8077
538.30 0.8072
538.40 0.8066
538.50 0.8061
538.60 0.8055
538.70 0.805
538.80 0.8044
538.90 0.8039
539.00 0.8034
539.10 0.8028
539.20 0.8023
539.30 0.8017
539.40 0.8012
539.50 0.8007
539.60 0.8001
539.70 0.7996
539.80 0.799
539.90 0.7985
540.00 0.798
540.10 0.7974
540.20 0.7969
540.30 0.7963
540.40 0.7958
540.50 0.7953
540.60 0.7947
540.70 0.7942
540.80 0.7937
540.90 0.7931
541.00 0.7926
541.10 0.7921
541.20 0.7915
541.30 0.791
541.40 0.7905
541.50 0.7899
541.60 0.7894
541.70 0.7889
541.80 0.7883
541.90 0.7878
542.00 0.7873
542.10 0.7867
542.20 0.7862
542.30 0.7857
542.40 0.7852
542.50 0.7846
542.60 0.7841
542.70 0.7836
542.80 0.783
542.90 0.7825
543.00 0.782
543.10 0.7815
543.20 0.7809
543.30 0.7804
543.40 0.7799
543.50 0.7794
543.60 0.7788
543.70 0.7783
543.80 0.7778
543.90 0.7773
544.00 0.7767
544.10 0.7762
544.20 0.7757
544.30 0.7752
544.40 0.7747
544.50 0.7741
544.60 0.7736
544.70 0.7731
544.80 0.7726
544.90 0.7721
545.00 0.7715
545.10 0.771
545.20 0.7705
545.30 0.77
545.40 0.7695
545.50 0.769
545.60 0.7684
545.70 0.7679
545.80 0.7674
545.90 0.7669
546.00 0.7664
546.10 0.7659
546.20 0.7654
546.30 0.7648
546.40 0.7643
546.50 0.7638
546.60 0.7633
546.70 0.7628
546.80 0.7623
546.90 0.7618
547.00 0.7613
547.10 0.7607
547.20 0.7602
547.30 0.7597
547.40 0.7592
547.50 0.7587
547.60 0.7582
547.70 0.7577
547.80 0.7572
547.90 0.7567
548.00 0.7562
548.10 0.7557
548.20 0.7552
548.30 0.7547
548.40 0.7542
548.50 0.7536
548.60 0.7531
548.70 0.7526
548.80 0.7521
548.90 0.7516
549.00 0.7511
549.10 0.7506
549.20 0.7501
549.30 0.7496
549.40 0.7491
549.50 0.7486
549.60 0.7481
549.70 0.7476
549.80 0.7471
549.90 0.7466
550.00 0.7461
550.10 0.7456
550.20 0.7451
550.30 0.7446
550.40 0.7441
550.50 0.7436
550.60 0.7431
550.70 0.7426
550.80 0.7421
550.90 0.7417
551.00 0.7412
551.10 0.7407
551.20 0.7402
551.30 0.7397
551.40 0.7392
551.50 0.7387
551.60 0.7382
551.70 0.7377
551.80 0.7372
551.90 0.7367
552.00 0.7362
552.10 0.7357
552.20 0.7352
552.30 0.7348
552.40 0.7343
552.50 0.7338
552.60 0.7333
552.70 0.7328
552.80 0.7323
552.90 0.7318
553.00 0.7313
553.10 0.7309
553.20 0.7304
553.30 0.7299
553.40 0.7294
553.50 0.7289
553.60 0.7284
553.70 0.7279
553.80 0.7275
553.90 0.727
554.00 0.7265
554.10 0.726
554.20 0.7255
554.30 0.725
554.40 0.7246
554.50 0.7241
554.60 0.7236
554.70 0.7231
554.80 0.7226
554.90 0.7222
555.00 0.7217
555.10 0.7212
555.20 0.7207
555.30 0.7202
555.40 0.7198
555.50 0.7193
555.60 0.7188
555.70 0.7183
555.80 0.7179
555.90 0.7174
556.00 0.7169
556.10 0.7164
556.20 0.716
556.30 0.7155
556.40 0.715
556.50 0.7145
556.60 0.7141
556.70 0.7136
556.80 0.7131
556.90 0.7126
557.00 0.7122
557.10 0.7117
557.20 0.7112
557.30 0.7108
557.40 0.7103
557.50 0.7098
557.60 0.7093
557.70 0.7089
557.80 0.7084
557.90 0.7079
558.00 0.7075
558.10 0.707
558.20 0.7065
558.30 0.7061
558.40 0.7056
558.50 0.7051
558.60 0.7047
558.70 0.7042
558.80 0.7037
558.90 0.7033
559.00 0.7028
559.10 0.7023
559.20 0.7019
559.30 0.7014
559.40 0.701
559.50 0.7005
559.60 0.7
559.70 0.6996
559.80 0.6991
559.90 0.6986
560.00 0.6982
560.10 0.6977
560.20 0.6973
560.30 0.6968
560.40 0.6963
560.50 0.6959
560.60 0.6954
560.70 0.695
560.80 0.6945
560.90 0.694
561.00 0.6936
561.10 0.6931
561.20 0.6927
561.30 0.6922
561.40 0.6918
561.50 0.6913
561.60 0.6909
561.70 0.6904
561.80 0.6899
561.90 0.6895
562.00 0.689
562.10 0.6886
562.20 0.6881
562.30 0.6877
562.40 0.6872
562.50 0.6868
562.60 0.6863
562.70 0.6859
562.80 0.6854
562.90 0.685
563.00 0.6845
563.10 0.6841
563.20 0.6836
563.30 0.6832
563.40 0.6827
563.50 0.6823
563.60 0.6818
563.70 0.6814
563.80 0.6809
563.90 0.6805
564.00 0.68
564.10 0.6796
564.20 0.6791
564.30 0.6787
564.40 0.6783
564.50 0.6778
564.60 0.6774
564.70 0.6769
564.80 0.6765
564.90 0.676
565.00 0.6756
565.10 0.6752
565.20 0.6747
565.30 0.6743
565.40 0.6738
565.50 0.6734
565.60 0.6729
565.70 0.6725
565.80 0.6721
565.90 0.6716
566.00 0.6712
566.10 0.6707
566.20 0.6703
566.30 0.6699
566.40 0.6694
566.50 0.669
566.60 0.6686
566.70 0.6681
566.80 0.6677
566.90 0.6672
567.00 0.6668
567.10 0.6664
567.20 0.6659
567.30 0.6655
567.40 0.6651
567.50 0.6646
567.60 0.6642
567.70 0.6638
567.80 0.6633
567.90 0.6629
568.00 0.6625
568.10 0.662
568.20 0.6616
568.30 0.6612
568.40 0.6607
568.50 0.6603
568.60 0.6599
568.70 0.6594
568.80 0.659
568.90 0.6586
569.00 0.6582
569.10 0.6577
569.20 0.6573
569.30 0.6569
569.40 0.6564
569.50 0.656
569.60 0.6556
569.70 0.6552
569.80 0.6547
569.90 0.6543
570.00 0.6539
570.10 0.6535
570.20 0.653
570.30 0.6526
570.40 0.6522
570.50 0.6518
570.60 0.6513
570.70 0.6509
570.80 0.6505
570.90 0.6501
571.00 0.6496
571.10 0.6492
571.20 0.6488
571.30 0.6484
571.40 0.648
571.50 0.6475
571.60 0.6471
571.70 0.6467
571.80 0.6463
571.90 0.6459
572.00 0.6454
572.10 0.645
572.20 0.6446
572.30 0.6442
572.40 0.6438
572.50 0.6433
572.60 0.6429
572.70 0.6425
572.80 0.6421
572.90 0.6417
573.00 0.6413
573.10 0.6408
573.20 0.6404
573.30 0.64
573.40 0.6396
573.50 0.6392
573.60 0.6388
573.70 0.6384
573.80 0.6379
573.90 0.6375
574.00 0.6371
574.10 0.6367
574.20 0.6363
574.30 0.6359
574.40 0.6355
574.50 0.6351
574.60 0.6346
574.70 0.6342
574.80 0.6338
574.90 0.6334
575.00 0.633
575.10 0.6326
575.20 0.6322
575.30 0.6318
575.40 0.6314
575.50 0.631
575.60 0.6306
575.70 0.6301
575.80 0.6297
575.90 0.6293
576.00 0.6289
576.10 0.6285
576.20 0.6281
576.30 0.6277
576.40 0.6273
576.50 0.6269
576.60 0.6265
576.70 0.6261
576.80 0.6257
576.90 0.6253
577.00 0.6249
577.10 0.6245
577.20 0.6241
577.30 0.6237
577.40 0.6233
577.50 0.6229
577.60 0.6225
577.70 0.6221
577.80 0.6217
577.90 0.6213
578.00 0.6209
578.10 0.6205
578.20 0.6201
578.30 0.6197
578.40 0.6193
578.50 0.6189
578.60 0.6185
578.70 0.6181
578.80 0.6177
578.90 0.6173
579.00 0.6169
579.10 0.6165
579.20 0.6161
579.30 0.6157
579.40 0.6153
579.50 0.6149
579.60 0.6145
579.70 0.6141
579.80 0.6137
579.90 0.6133
580.00 0.6129
580.10 0.6125
580.20 0.6121
580.30 0.6117
580.40 0.6113
580.50 0.611
580.60 0.6106
580.70 0.6102
580.80 0.6098
580.90 0.6094
581.00 0.609
581.10 0.6086
581.20 0.6082
581.30 0.6078
581.40 0.6074
581.50 0.607
581.60 0.6067
581.70 0.6063
581.80 0.6059
581.90 0.6055
582.00 0.6051
582.10 0.6047
582.20 0.6043
582.30 0.6039
582.40 0.6036
582.50 0.6032
582.60 0.6028
582.70 0.6024
582.80 0.602
582.90 0.6016
583.00 0.6012
583.10 0.6009
583.20 0.6005
583.30 0.6001
583.40 0.5997
583.50 0.5993
583.60 0.5989
583.70 0.5985
583.80 0.5982
583.90 0.5978
584.00 0.5974
584.10 0.597
584.20 0.5966
584.30 0.5963
584.40 0.5959
584.50 0.5955
584.60 0.5951
584.70 0.5947
584.80 0.5944
584.90 0.594
585.00 0.5936
585.10 0.5932
585.20 0.5928
585.30 0.5925
585.40 0.5921
585.50 0.5917
585.60 0.5913
585.70 0.5909
585.80 0.5906
585.90 0.5902
586.00 0.5898
586.10 0.5894
586.20 0.5891
586.30 0.5887
586.40 0.5883
586.50 0.5879
586.60 0.5876
586.70 0.5872
586.80 0.5868
586.90 0.5864
587.00 0.5861
587.10 0.5857
587.20 0.5853
587.30 0.5849
587.40 0.5846
587.50 0.5842
587.60 0.5838
587.70 0.5835
587.80 0.5831
587.90 0.5827
588.00 0.5823
588.10 0.582
588.20 0.5816
588.30 0.5812
588.40 0.5809
588.50 0.5805
588.60 0.5801
588.70 0.5798
588.80 0.5794
588.90 0.579
589.00 0.5786
589.10 0.5783
589.20 0.5779
589.30 0.5775
589.40 0.5772
589.50 0.5768
589.60 0.5764
589.70 0.5761
589.80 0.5757
589.90 0.5753
590.00 0.575
590.10 0.5746
590.20 0.5742
590.30 0.5739
590.40 0.5735
590.50 0.5732
590.60 0.5728
590.70 0.5724
590.80 0.5721
590.90 0.5717
591.00 0.5713
591.10 0.571
591.20 0.5706
591.30 0.5703
591.40 0.5699
591.50 0.5695
591.60 0.5692
591.70 0.5688
591.80 0.5684
591.90 0.5681
592.00 0.5677
592.10 0.5674
592.20 0.567
592.30 0.5666
592.40 0.5663
592.50 0.5659
592.60 0.5656
592.70 0.5652
592.80 0.5649
592.90 0.5645
593.00 0.5641
593.10 0.5638
593.20 0.5634
593.30 0.5631
593.40 0.5627
593.50 0.5624
593.60 0.562
593.70 0.5616
593.80 0.5613
593.90 0.5609
594.00 0.5606
594.10 0.5602
594.20 0.5599
594.30 0.5595
594.40 0.5592
594.50 0.5588
594.60 0.5584
594.70 0.5581
594.80 0.5577
594.90 0.5574
595.00 0.557
595.10 0.5567
595.20 0.5563
595.30 0.556
595.40 0.5556
595.50 0.5553
595.60 0.5549
595.70 0.5546
595.80 0.5542
595.90 0.5539
596.00 0.5535
596.10 0.5532
596.20 0.5528
596.30 0.5525
596.40 0.5521
596.50 0.5518
596.60 0.5514
596.70 0.5511
596.80 0.5507
596.90 0.5504
597.00 0.55
597.10 0.5497
597.20 0.5493
597.30 0.549
597.40 0.5486
597.50 0.5483
597.60 0.548
597.70 0.5476
597.80 0.5473
597.90 0.5469
598.00 0.5466
598.10 0.5462
598.20 0.5459
598.30 0.5455
598.40 0.5452
598.50 0.5448
598.60 0.5445
598.70 0.5442
598.80 0.5438
598.90 0.5435
599.00 0.5431
599.10 0.5428
599.20 0.5424
599.30 0.5421
599.40 0.5418
599.50 0.5414
599.60 0.5411
599.70 0.5407
599.80 0.5404
599.90 0.54
600.00 0.5397
600.10 0.5394
600.20 0.539
600.30 0.5387
600.40 0.5383
600.50 0.538
600.60 0.5377
600.70 0.5373
600.80 0.537
600.90 0.5367
601.00 0.5363
601.10 0.536
601.20 0.5356
601.30 0.5353
601.40 0.535
601.50 0.5346
601.60 0.5343
601.70 0.534
601.80 0.5336
601.90 0.5333
602.00 0.5329
602.10 0.5326
602.20 0.5323
602.30 0.5319
602.40 0.5316
602.50 0.5313
602.60 0.5309
602.70 0.5306
602.80 0.5303
602.90 0.5299
603.00 0.5296
603.10 0.5293
603.20 0.5289
603.30 0.5286
603.40 0.5283
603.50 0.5279
603.60 0.5276
603.70 0.5273
603.80 0.5269
603.90 0.5266
604.00 0.5263
604.10 0.5259
604.20 0.5256
604.30 0.5253
604.40 0.5249
604.50 0.5246
604.60 0.5243
604.70 0.5239
604.80 0.5236
604.90 0.5233
605.00 0.523
605.10 0.5226
605.20 0.5223
605.30 0.522
605.40 0.5216
605.50 0.5213
605.60 0.521
605.70 0.5207
605.80 0.5203
605.90 0.52
606.00 0.5197
606.10 0.5193
606.20 0.519
606.30 0.5187
606.40 0.5184
606.50 0.518
606.60 0.5177
606.70 0.5174
606.80 0.5171
606.90 0.5167
607.00 0.5164
607.10 0.5161
607.20 0.5158
607.30 0.5154
607.40 0.5151
607.50 0.5148
607.60 0.5145
607.70 0.5141
607.80 0.5138
607.90 0.5135
608.00 0.5132
608.10 0.5128
608.20 0.5125
608.30 0.5122
608.40 0.5119
608.50 0.5115
608.60 0.5112
608.70 0.5109
608.80 0.5106
608.90 0.5102
609.00 0.5099
609.10 0.5096
609.20 0.5093
609.30 0.509
609.40 0.5086
609.50 0.5083
609.60 0.508
609.70 0.5077
609.80 0.5074
609.90 0.507
610.00 0.5067
610.10 0.5064
610.20 0.5061
610.30 0.5057
610.40 0.5054
610.50 0.5051
610.60 0.5048
610.70 0.5045
610.80 0.5042
610.90 0.5038
611.00 0.5035
611.10 0.5032
611.20 0.5029
611.30 0.5026
611.40 0.5022
611.50 0.5019
611.60 0.5016
611.70 0.5013
611.80 0.501
611.90 0.5007
612.00 0.5003
612.10 0.5
612.20 0.4997
612.30 0.4994
612.40 0.4991
612.50 0.4988
612.60 0.4984
612.70 0.4981
612.80 0.4978
612.90 0.4975
613.00 0.4972
613.10 0.4969
613.20 0.4965
613.30 0.4962
613.40 0.4959
613.50 0.4956
613.60 0.4953
613.70 0.495
613.80 0.4947
613.90 0.4943
614.00 0.494
614.10 0.4937
614.20 0.4934
614.30 0.4931
614.40 0.4928
614.50 0.4925
614.60 0.4921
614.70 0.4918
614.80 0.4915
614.90 0.4912
615.00 0.4909
615.10 0.4906
615.20 0.4903
615.30 0.4899
615.40 0.4896
615.50 0.4893
615.60 0.489
615.70 0.4887
615.80 0.4884
615.90 0.4881
616.00 0.4878
616.10 0.4874
616.20 0.4871
616.30 0.4868
616.40 0.4865
616.50 0.4862
616.60 0.4859
616.70 0.4856
616.80 0.4853
616.90 0.485
617.00 0.4847
617.10 0.4843
617.20 0.484
617.30 0.4837
617.40 0.4834
617.50 0.4831
617.60 0.4828
617.70 0.4825
617.80 0.4822
617.90 0.4819
618.00 0.4815
618.10 0.4812
618.20 0.4809
618.30 0.4806
618.40 0.4803
618.50 0.48
618.60 0.4797
618.70 0.4794
618.80 0.4791
618.90 0.4788
619.00 0.4785
619.10 0.4781
619.20 0.4778
619.30 0.4775
619.40 0.4772
619.50 0.4769
619.60 0.4766
619.70 0.4763
619.80 0.476
619.90 0.4757
620.00 0.4754
620.10 0.4751
620.20 0.4747
620.30 0.4744
620.40 0.4741
620.50 0.4738
620.60 0.4735
620.70 0.4732
620.80 0.4729
620.90 0.4726
621.00 0.4723
621.10 0.472
621.20 0.4717
621.30 0.4714
621.40 0.471
621.50 0.4707
621.60 0.4704
621.70 0.4701
621.80 0.4698
621.90 0.4695
622.00 0.4692
622.10 0.4689
622.20 0.4686
622.30 0.4683
622.40 0.468
622.50 0.4677
622.60 0.4673
622.70 0.467
622.80 0.4667
622.90 0.4664
623.00 0.4661
623.10 0.4658
623.20 0.4655
623.30 0.4652
623.40 0.4649
623.50 0.4646
623.60 0.4643
623.70 0.464
623.80 0.4636
623.90 0.4633
624.00 0.463
624.10 0.4627
624.20 0.4624
624.30 0.4621
624.40 0.4618
624.50 0.4615
624.60 0.4612
624.70 0.4609
624.80 0.4606
624.90 0.4603
625.00 0.4599
625.10 0.4596
625.20 0.4593
625.30 0.459
625.40 0.4587
625.50 0.4584
625.60 0.4581
625.70 0.4578
625.80 0.4575
625.90 0.4572
626.00 0.4568
626.10 0.4565
626.20 0.4562
626.30 0.4559
626.40 0.4556
626.50 0.4553
626.60 0.455
626.70 0.4547
626.80 0.4544
626.90 0.454
627.00 0.4537
627.10 0.4534
627.20 0.4531
627.30 0.4528
627.40 0.4525
627.50 0.4522
627.60 0.4519
627.70 0.4515
627.80 0.4512
627.90 0.4509
628.00 0.4506
628.10 0.4503
628.20 0.45
628.30 0.4497
628.40 0.4493
628.50 0.449
628.60 0.4487
628.70 0.4484
628.80 0.4481
628.90 0.4478
629.00 0.4475
629.10 0.4471
629.20 0.4468
629.30 0.4465
629.40 0.4462
629.50 0.4459
629.60 0.4455
629.70 0.4452
629.80 0.4449
629.90 0.4446
630.00 0.4443
630.10 0.444
630.20 0.4436
630.30 0.4433
630.40 0.443
630.50 0.4427
630.60 0.4424
630.70 0.442
630.80 0.4417
630.90 0.4414
631.00 0.4411
631.10 0.4407
631.20 0.4404
631.30 0.4401
631.40 0.4398
631.50 0.4394
631.60 0.4391
631.70 0.4388
631.80 0.4385
631.90 0.4381
632.00 0.4378
632.10 0.4375
632.20 0.4372
632.30 0.4368
632.40 0.4365
632.50 0.4362
632.60 0.4358
632.70 0.4355
632.80 0.4352
632.90 0.4348
633.00 0.4345
633.10 0.4342
633.20 0.4338
633.30 0.4335
633.40 0.4332
633.50 0.4328
633.60 0.4325
633.70 0.4321
633.80 0.4318
633.90 0.4315
634.00 0.4311
634.10 0.4308
634.20 0.4304
634.30 0.4301
634.40 0.4298
634.50 0.4294
634.60 0.4291
634.70 0.4287
634.80 0.4284
634.90 0.428
635.00 0.4277
635.10 0.4273
635.20 0.427
635.30 0.4266
635.40 0.4263
635.50 0.4259
635.60 0.4256
635.70 0.4252
635.80 0.4249
635.90 0.4245
636.00 0.4241
636.10 0.4238
636.20 0.4234
636.30 0.4231
636.40 0.4227
636.50 0.4223
636.60 0.422
636.70 0.4216
636.80 0.4212
636.90 0.4209
637.00 0.4205
637.10 0.4201
637.20 0.4198
637.30 0.4194
637.40 0.419
637.50 0.4186
637.60 0.4182
637.70 0.4179
637.80 0.4175
637.90 0.4171
638.00 0.4167
638.10 0.4163
638.20 0.416
638.30 0.4156
638.40 0.4152
638.50 0.4148
638.60 0.4144
638.70 0.414
638.80 0.4136
638.90 0.4132
639.00 0.4128
639.10 0.4124
639.20 0.412
639.30 0.4116
639.40 0.4112
639.50 0.4108
639.60 0.4103
639.70 0.4099
639.80 0.4095
639.90 0.4091
640.00 0.4087
640.10 0.4083
640.20 0.4078
640.30 0.4074
640.40 0.407
640.50 0.4065
640.60 0.4061
640.70 0.4057
640.80 0.4052
640.90 0.4048
641.00 0.4043
641.10 0.4039
641.20 0.4035
641.30 0.403
641.40 0.4026
641.50 0.4021
641.60 0.4016
641.70 0.4012
641.80 0.4007
641.90 0.4002
642.00 0.3998
642.10 0.3993
642.20 0.3988
642.30 0.3983
642.40 0.3978
642.50 0.3973
642.60 0.3968
642.70 0.3964
642.80 0.3959
642.90 0.3954
643.00 0.3949
643.10 0.3944
643.20 0.3939
643.30 0.3934
643.40 0.3928
643.50 0.3923
643.60 0.3917
643.70 0.3912
643.80 0.3907
643.90 0.3901
644.00 0.3896
644.10 0.3891
644.20 0.3885
644.30 0.388
644.40 0.3874
644.50 0.3868
644.60 0.3863
644.70 0.3857
644.80 0.3851
644.90 0.3845
645.00 0.3839
645.10 0.3834
645.20 0.3828
645.30 0.3822
645.40 0.3816
645.50 0.3809
645.60 0.3803
645.70 0.3797
645.80 0.379
645.90 0.3784
646.00 0.3778
646.10 0.3771
646.20 0.3765
646.30 0.3759
646.40 0.3752
646.50 0.3745
646.60 0.3738
646.70 0.3731
646.80 0.3724
646.90 0.3717
647.00 0.371
647.10 0.3703
647.20 0.3697
647.30 0.369
647.40 0.3682
647.50 0.3674
647.60 0.3667
647.70 0.3659
647.80 0.3651
647.90 0.3644
648.00 0.3636
648.10 0.3629
648.20 0.3621
648.30 0.3613
648.40 0.3605
648.50 0.3596
648.60 0.3588
648.70 0.3579
648.80 0.3571
648.90 0.3562
649.00 0.3554
649.10 0.3546
649.20 0.3537
649.30 0.3528
649.40 0.3519
649.50 0.351
649.60 0.35
649.70 0.3491
649.80 0.3481
649.90 0.3472
650.00 0.3462
650.10 0.3453
650.20 0.3443
650.30 0.3434
650.40 0.3423
650.50 0.3412
650.60 0.3401
650.70 0.3391
650.80 0.338
650.90 0.3369
651.00 0.3359
651.10 0.3348
651.20 0.3337
651.30 0.3326
651.40 0.3314
651.50 0.3302
651.60 0.329
651.70 0.3277
651.80 0.3265
651.90 0.3253
652.00 0.3241
652.10 0.3229
652.20 0.3216
652.30 0.3204
652.40 0.319
652.50 0.3175
652.60 0.3161
652.70 0.3147
652.80 0.3133
652.90 0.3118
653.00 0.3104
653.10 0.309
653.20 0.3076
653.30 0.3061
653.40 0.3043
653.50 0.3026
653.60 0.3009
653.70 0.2991
653.80 0.2974
653.90 0.2957
654.00 0.2939
654.10 0.2922
654.20 0.2905
654.30 0.2887
654.40 0.2865
654.50 0.2843
654.60 0.2822
654.70 0.28
654.80 0.2778
654.90 0.2751
655.00 0.2724
655.10 0.2697
655.20 0.267
655.30 0.2642
655.40 0.2608
655.50 0.2574
655.60 0.2534
655.70 0.2493
655.80 0.2444
655.90 0.2392
656.00 0.2327
656.10 0.226
656.20 0.2154
656.30 0.2042
656.40 0.2199
656.50 0.2281
656.60 0.2344
656.70 0.2404
656.80 0.245
656.90 0.2495
657.00 0.2531
657.10 0.2567
657.20 0.2598
657.30 0.2627
657.40 0.2651
657.50 0.2675
657.60 0.2699
657.70 0.2723
657.80 0.2746
657.90 0.2764
658.00 0.2783
658.10 0.2801
658.20 0.282
658.30 0.2837
658.40 0.2851
658.50 0.2865
658.60 0.2879
658.70 0.2893
658.80 0.2907
658.90 0.2921
659.00 0.2935
659.10 0.2949
659.20 0.2963
659.30 0.2976
659.40 0.2987
659.50 0.2998
659.60 0.3008
659.70 0.3019
659.80 0.303
659.90 0.304
660.00 0.3051
660.10 0.3062
660.20 0.3072
660.30 0.3082
660.40 0.3091
660.50 0.3099
660.60 0.3108
660.70 0.3116
660.80 0.3124
660.90 0.3133
661.00 0.3141
661.10 0.315
661.20 0.3158
661.30 0.3166
661.40 0.3173
661.50 0.318
661.60 0.3186
661.70 0.3193
661.80 0.32
661.90 0.3206
662.00 0.3213
662.10 0.322
662.20 0.3226
662.30 0.3233
662.40 0.3238
662.50 0.3243
662.60 0.3249
662.70 0.3254
662.80 0.3259
662.90 0.3265
663.00 0.327
663.10 0.3275
663.20 0.3281
663.30 0.3286
663.40 0.329
663.50 0.3294
663.60 0.3298
663.70 0.3303
663.80 0.3307
663.90 0.3311
664.00 0.3315
664.10 0.3319
664.20 0.3323
664.30 0.3327
664.40 0.3331
664.50 0.3334
664.60 0.3337
664.70 0.334
664.80 0.3344
664.90 0.3347
665.00 0.335
665.10 0.3353
665.20 0.3357
665.30 0.336
665.40 0.3362
665.50 0.3365
665.60 0.3367
665.70 0.337
665.80 0.3372
665.90 0.3374
666.00 0.3377
666.10 0.3379
666.20 0.3382
666.30 0.3384
666.40 0.3386
666.50 0.3388
666.60 0.339
666.70 0.3391
666.80 0.3393
666.90 0.3395
667.00 0.3397
667.10 0.3398
667.20 0.34
667.30 0.3402
667.40 0.3403
667.50 0.3404
667.60 0.3406
667.70 0.3407
667.80 0.3408
667.90 0.3409
668.00 0.341
668.10 0.3412
668.20 0.3413
668.30 0.3414
668.40 0.3415
668.50 0.3416
668.60 0.3416
668.70 0.3417
668.80 0.3418
668.90 0.3419
669.00 0.3419
669.10 0.342
669.20 0.3421
669.30 0.3421
669.40 0.3422
669.50 0.3422
669.60 0.3423
669.70 0.3423
669.80 0.3423
669.90 0.3424
670.00 0.3424
670.10 0.3424
670.20 0.3425
670.30 0.3425
670.40 0.3425
670.50 0.3425
670.60 0.3425
670.70 0.3425
670.80 0.3425
670.90 0.3425
671.00 0.3425
671.10 0.3425
671.20 0.3425
671.30 0.3425
671.40 0.3425
671.50 0.3425
671.60 0.3424
671.70 0.3424
671.80 0.3424
671.90 0.3423
672.00 0.3423
672.10 0.3423
672.20 0.3423
672.30 0.3422
672.40 0.3422
672.50 0.3421
672.60 0.3421
672.70 0.342
672.80 0.342
672.90 0.3419
673.00 0.3419
673.10 0.3418
673.20 0.3418
673.30 0.3417
673.40 0.3417
673.50 0.3416
673.60 0.3415
673.70 0.3415
673.80 0.3414
673.90 0.3413
674.00 0.3413
674.10 0.3412
674.20 0.3411
674.30 0.341
674.40 0.341
674.50 0.3409
674.60 0.3408
674.70 0.3407
674.80 0.3406
674.90 0.3405
675.00 0.3405
675.10 0.3404
675.20 0.3403
675.30 0.3402
675.40 0.3401
675.50 0.34
675.60 0.3399
675.70 0.3398
675.80 0.3397
675.90 0.3396
676.00 0.3395
676.10 0.3394
676.20 0.3393
676.30 0.3392
676.40 0.3391
676.50 0.339
676.60 0.3389
676.70 0.3388
676.80 0.3387
676.90 0.3386
677.00 0.3384
677.10 0.3383
677.20 0.3382
677.30 0.3381
677.40 0.338
677.50 0.3379
677.60 0.3378
677.70 0.3376
677.80 0.3375
677.90 0.3374
678.00 0.3373
678.10 0.3372
678.20 0.337
678.30 0.3369
678.40 0.3368
678.50 0.3367
678.60 0.3365
678.70 0.3364
678.80 0.3363
678.90 0.3362
679.00 0.336
679.10 0.3359
679.20 0.3358
679.30 0.3357
679.40 0.3355
679.50 0.3354
679.60 0.3353
679.70 0.3351
679.80 0.335
679.90 0.3349
680.00 0.3347
680.10 0.3346
680.20 0.3345
680.30 0.3343
680.40 0.3342
680.50 0.3341
680.60 0.3339
680.70 0.3338
680.80 0.3336
680.90 0.3335
681.00 0.3334
681.10 0.3332
681.20 0.3331
681.30 0.3329
681.40 0.3328
681.50 0.3327
681.60 0.3325
681.70 0.3324
681.80 0.3322
681.90 0.3321
682.00 0.3319
682.10 0.3318
682.20 0.3317
682.30 0.3315
682.40 0.3314
682.50 0.3312
682.60 0.3311
682.70 0.3309
682.80 0.3308
682.90 0.3306
683.00 0.3305
683.10 0.3304
683.20 0.3302
683.30 0.3301
683.40 0.3299
683.50 0.3298
683.60 0.3296
683.70 0.3295
683.80 0.3293
683.90 0.3292
684.00 0.329
684.10 0.3289
684.20 0.3287
684.30 0.3286
684.40 0.3284
684.50 0.3283
684.60 0.3281
684.70 0.328
684.80 0.3278
684.90 0.3277
685.00 0.3275
685.10 0.3274
685.20 0.3272
685.30 0.3271
685.40 0.3269
685.50 0.3267
685.60 0.3266
685.70 0.3264
685.80 0.3263
685.90 0.3261
686.00 0.326
686.10 0.3258
686.20 0.3257
686.30 0.3255
686.40 0.3254
686.50 0.3252
686.60 0.3251
686.70 0.3249
686.80 0.3247
686.90 0.3246
687.00 0.3244
687.10 0.3243
687.20 0.3241
687.30 0.324
687.40 0.3238
687.50 0.3237
687.60 0.3235
687.70 0.3233
687.80 0.3232
687.90 0.323
688.00 0.3229
688.10 0.3227
688.20 0.3226
688.30 0.3224
688.40 0.3223
688.50 0.3221
688.60 0.3219
688.70 0.3218
688.80 0.3216
688.90 0.3215
689.00 0.3213
689.10 0.3212
689.20 0.321
689.30 0.3208
689.40 0.3207
689.50 0.3205
689.60 0.3204
689.70 0.3202
689.80 0.32
689.90 0.3199
690.00 0.3197
690.10 0.3196
690.20 0.3194
690.30 0.3192
690.40 0.3191
690.50 0.3189
690.60 0.3188
690.70 0.3186
690.80 0.3184
690.90 0.3183
691.00 0.3181
691.10 0.318
691.20 0.3178
691.30 0.3176
691.40 0.3175
691.50 0.3173
691.60 0.3172
691.70 0.317
691.80 0.3169
691.90 0.3167
692.00 0.3165
692.10 0.3164
692.20 0.3162
692.30 0.3161
692.40 0.3159
692.50 0.3157
692.60 0.3156
692.70 0.3154
692.80 0.3153
692.90 0.3151
693.00 0.315
693.10 0.3148
693.20 0.3146
693.30 0.3145
693.40 0.3143
693.50 0.3142
693.60 0.314
693.70 0.3139
693.80 0.3137
693.90 0.3135
694.00 0.3134
694.10 0.3132
694.20 0.3131
694.30 0.3129
694.40 0.3128
694.50 0.3126
694.60 0.3124
694.70 0.3123
694.80 0.3121
694.90 0.312
695.00 0.3118
695.10 0.3117
695.20 0.3115
695.30 0.3113
695.40 0.3112
695.50 0.311
695.60 0.3109
695.70 0.3107
695.80 0.3105
695.90 0.3104
696.00 0.3102
696.10 0.3101
696.20 0.3099
696.30 0.3098
696.40 0.3096
696.50 0.3094
696.60 0.3093
696.70 0.3091
696.80 0.309
696.90 0.3088
697.00 0.3086
697.10 0.3085
697.20 0.3083
697.30 0.3082
697.40 0.308
697.50 0.3079
697.60 0.3077
697.70 0.3075
697.80 0.3074
697.90 0.3072
698.00 0.3071
698.10 0.3069
698.20 0.3068
698.30 0.3066
698.40 0.3064
698.50 0.3063
698.60 0.3061
698.70 0.306
698.80 0.3058
698.90 0.3057
699.00 0.3055
699.10 0.3053
699.20 0.3052
699.30 0.305
699.40 0.3049
699.50 0.3047
699.60 0.3046
699.70 0.3044
699.80 0.3043
699.90 0.3041
700.00 0.3039
700.10 0.3038
700.20 0.3036
700.30 0.3035
700.40 0.3033
700.50 0.3032
700.60 0.303
700.70 0.3028
700.80 0.3027
700.90 0.3025
701.00 0.3024
701.10 0.3022
701.20 0.3021
701.30 0.3019
701.40 0.3018
701.50 0.3016
701.60 0.3014
701.70 0.3013
701.80 0.3011
701.90 0.301
702.00 0.3008
702.10 0.3007
702.20 0.3005
702.30 0.3004
702.40 0.3002
702.50 0.3
702.60 0.2999
702.70 0.2997
702.80 0.2996
702.90 0.2994
703.00 0.2993
703.10 0.2991
703.20 0.299
703.30 0.2988
703.40 0.2987
703.50 0.2985
703.60 0.2983
703.70 0.2982
703.80 0.298
703.90 0.2979
704.00 0.2977
704.10 0.2976
704.20 0.2974
704.30 0.2973
704.40 0.2971
704.50 0.297
704.60 0.2968
704.70 0.2967
704.80 0.2965
704.90 0.2963
705.00 0.2962
705.10 0.296
705.20 0.2959
705.30 0.2957
705.40 0.2956
705.50 0.2954
705.60 0.2953
705.70 0.2951
705.80 0.295
705.90 0.2948
706.00 0.2947
706.10 0.2945
706.20 0.2944
706.30 0.2942
706.40 0.2941
706.50 0.2939
706.60 0.2938
706.70 0.2936
706.80 0.2934
706.90 0.2933
707.00 0.2931
707.10 0.293
707.20 0.2928
707.30 0.2927
707.40 0.2925
707.50 0.2924
707.60 0.2922
707.70 0.2921
707.80 0.2919
707.90 0.2918
708.00 0.2916
708.10 0.2915
708.20 0.2913
708.30 0.2912
708.40 0.291
708.50 0.2909
708.60 0.2907
708.70 0.2906
708.80 0.2904
708.90 0.2903
709.00 0.2901
709.10 0.29
709.20 0.2898
709.30 0.2897
709.40 0.2895
709.50 0.2894
709.60 0.2892
709.70 0.2891
709.80 0.2889
709.90 0.2888
710.00 0.2886
710.10 0.2885
710.20 0.2883
710.30 0.2882
710.40 0.288
710.50 0.2879
710.60 0.2877
710.70 0.2876
710.80 0.2874
710.90 0.2873
711.00 0.2871
711.10 0.287
711.20 0.2868
711.30 0.2867
711.40 0.2865
711.50 0.2864
711.60 0.2862
711.70 0.2861
711.80 0.286
711.90 0.2858
712.00 0.2857
712.10 0.2855
712.20 0.2854
712.30 0.2852
712.40 0.2851
712.50 0.2849
712.60 0.2848
712.70 0.2846
712.80 0.2845
712.90 0.2843
713.00 0.2842
713.10 0.284
713.20 0.2839
713.30 0.2837
713.40 0.2836
713.50 0.2834
713.60 0.2833
713.70 0.2832
713.80 0.283
713.90 0.2829
714.00 0.2827
714.10 0.2826
714.20 0.2824
714.30 0.2823
714.40 0.2821
714.50 0.282
714.60 0.2818
714.70 0.2817
714.80 0.2815
714.90 0.2814
715.00 0.2813
715.10 0.2811
715.20 0.281
715.30 0.2808
715.40 0.2807
715.50 0.2805
715.60 0.2804
715.70 0.2802
715.80 0.2801
715.90 0.2799
716.00 0.2798
716.10 0.2797
716.20 0.2795
716.30 0.2794
716.40 0.2792
716.50 0.2791
716.60 0.2789
716.70 0.2788
716.80 0.2787
716.90 0.2785
717.00 0.2784
717.10 0.2782
717.20 0.2781
717.30 0.2779
717.40 0.2778
717.50 0.2776
717.60 0.2775
717.70 0.2774
717.80 0.2772
717.90 0.2771
718.00 0.2769
718.10 0.2768
718.20 0.2766
718.30 0.2765
718.40 0.2764
718.50 0.2762
718.60 0.2761
718.70 0.2759
718.80 0.2758
718.90 0.2756
719.00 0.2755
719.10 0.2754
719.20 0.2752
719.30 0.2751
719.40 0.2749
719.50 0.2748
719.60 0.2747
719.70 0.2745
719.80 0.2744
719.90 0.2742
720.00 0.2741
720.10 0.2739
720.20 0.2738
720.30 0.2737
720.40 0.2735
720.50 0.2734
720.60 0.2732
720.70 0.2731
720.80 0.273
720.90 0.2728
721.00 0.2727
721.10 0.2725
721.20 0.2724
721.30 0.2723
721.40 0.2721
721.50 0.272
721.60 0.2718
721.70 0.2717
721.80 0.2716
721.90 0.2714
722.00 0.2713
722.10 0.2711
722.20 0.271
722.30 0.2709
722.40 0.2707
722.50 0.2706
722.60 0.2704
722.70 0.2703
722.80 0.2702
722.90 0.27
723.00 0.2699
723.10 0.2697
723.20 0.2696
723.30 0.2695
723.40 0.2693
723.50 0.2692
723.60 0.2691
723.70 0.2689
723.80 0.2688
723.90 0.2686
724.00 0.2685
724.10 0.2684
724.20 0.2682
724.30 0.2681
724.40 0.268
724.50 0.2678
724.60 0.2677
724.70 0.2675
724.80 0.2674
724.90 0.2673
725.00 0.2671
725.10 0.267
725.20 0.2669
725.30 0.2667
725.40 0.2666
725.50 0.2664
725.60 0.2663
725.70 0.2662
725.80 0.266
725.90 0.2659
726.00 0.2658
726.10 0.2656
726.20 0.2655
726.30 0.2654
726.40 0.2652
726.50 0.2651
726.60 0.2649
726.70 0.2648
726.80 0.2647
726.90 0.2645
727.00 0.2644
727.10 0.2643
727.20 0.2641
727.30 0.264
727.40 0.2639
727.50 0.2637
727.60 0.2636
727.70 0.2635
727.80 0.2633
727.90 0.2632
728.00 0.2631
728.10 0.2629
728.20 0.2628
728.30 0.2627
728.40 0.2625
728.50 0.2624
728.60 0.2622
728.70 0.2621
728.80 0.262
728.90 0.2618
729.00 0.2617
729.10 0.2616
729.20 0.2614
729.30 0.2613
729.40 0.2612
729.50 0.261
729.60 0.2609
729.70 0.2608
729.80 0.2606
729.90 0.2605
730.00 0.2604
730.10 0.2602
730.20 0.2601
730.30 0.26
730.40 0.2598
730.50 0.2597
730.60 0.2596
730.70 0.2595
730.80 0.2593
730.90 0.2592
731.00 0.2591
731.10 0.2589
731.20 0.2588
731.30 0.2587
731.40 0.2585
731.50 0.2584
731.60 0.2583
731.70 0.2581
731.80 0.258
731.90 0.2579
732.00 0.2577
732.10 0.2576
732.20 0.2575
732.30 0.2574
732.40 0.2572
732.50 0.2571
732.60 0.257
732.70 0.2568
732.80 0.2567
732.90 0.2566
733.00 0.2564
733.10 0.2563
733.20 0.2562
733.30 0.256
733.40 0.2559
733.50 0.2558
733.60 0.2557
733.70 0.2555
733.80 0.2554
733.90 0.2553
734.00 0.2551
734.10 0.255
734.20 0.2549
734.30 0.2548
734.40 0.2546
734.50 0.2545
734.60 0.2544
734.70 0.2542
734.80 0.2541
734.90 0.254
735.00 0.2538
735.10 0.2537
735.20 0.2536
735.30 0.2535
735.40 0.2533
735.50 0.2532
735.60 0.2531
735.70 0.2529
735.80 0.2528
735.90 0.2527
736.00 0.2526
736.10 0.2524
736.20 0.2523
736.30 0.2522
736.40 0.252
736.50 0.2519
736.60 0.2518
736.70 0.2517
736.80 0.2515
736.90 0.2514
737.00 0.2513
737.10 0.2512
737.20 0.251
737.30 0.2509
737.40 0.2508
737.50 0.2506
737.60 0.2505
737.70 0.2504
737.80 0.2503
737.90 0.2501
738.00 0.25
738.10 0.2499
738.20 0.2498
738.30 0.2496
738.40 0.2495
738.50 0.2494
738.60 0.2492
738.70 0.2491
738.80 0.249
738.90 0.2489
739.00 0.2487
739.10 0.2486
739.20 0.2485
739.30 0.2484
739.40 0.2482
739.50 0.2481
739.60 0.248
739.70 0.2479
739.80 0.2477
739.90 0.2476
740.00 0.2475
740.10 0.2474
740.20 0.2472
740.30 0.2471
740.40 0.247
740.50 0.2469
740.60 0.2467
740.70 0.2466
740.80 0.2465
740.90 0.2464
741.00 0.2462
741.10 0.2461
741.20 0.246
741.30 0.2459
741.40 0.2457
741.50 0.2456
741.60 0.2455
741.70 0.2454
741.80 0.2453
741.90 0.2451
742.00 0.245
742.10 0.2449
742.20 0.2448
742.30 0.2446
742.40 0.2445
742.50 0.2444
742.60 0.2443
742.70 0.2441
742.80 0.244
742.90 0.2439
743.00 0.2438
743.10 0.2437
743.20 0.2435
743.30 0.2434
743.40 0.2433
743.50 0.2432
743.60 0.243
743.70 0.2429
743.80 0.2428
743.90 0.2427
744.00 0.2426
744.10 0.2424
744.20 0.2423
744.30 0.2422
744.40 0.2421
744.50 0.2419
744.60 0.2418
744.70 0.2417
744.80 0.2416
744.90 0.2415
745.00 0.2413
745.10 0.2412
745.20 0.2411
745.30 0.241
745.40 0.2409
745.50 0.2407
745.60 0.2406
745.70 0.2405
745.80 0.2404
745.90 0.2403
746.00 0.2401
746.10 0.24
746.20 0.2399
746.30 0.2398
746.40 0.2396
746.50 0.2395
746.60 0.2394
746.70 0.2393
746.80 0.2392
746.90 0.239
747.00 0.2389
747.10 0.2388
747.20 0.2387
747.30 0.2386
747.40 0.2384
747.50 0.2383
747.60 0.2382
747.70 0.2381
747.80 0.238
747.90 0.2378
748.00 0.2377
748.10 0.2376
748.20 0.2375
748.30 0.2374
748.40 0.2373
748.50 0.2371
748.60 0.237
748.70 0.2369
748.80 0.2368
748.90 0.2367
749.00 0.2365
749.10 0.2364
749.20 0.2363
749.30 0.2362
749.40 0.2361
749.50 0.2359
749.60 0.2358
749.70 0.2357
749.80 0.2356
749.90 0.2355
750.00 0.2353
750.10 0.2352
750.20 0.2351
750.30 0.235
750.40 0.2349
750.50 0.2348
750.60 0.2347
750.70 0.2345
750.80 0.2344
750.90 0.2343
751.00 0.2342
751.10 0.2341
751.20 0.234
751.30 0.2338
751.40 0.2337
751.50 0.2336
751.60 0.2335
751.70 0.2334
751.80 0.2333
751.90 0.2331
752.00 0.233
752.10 0.2329
752.20 0.2328
752.30 0.2327
752.40 0.2326
752.50 0.2324
752.60 0.2323
752.70 0.2322
752.80 0.2321
752.90 0.232
753.00 0.2319
753.10 0.2318
753.20 0.2316
753.30 0.2315
753.40 0.2314
753.50 0.2313
753.60 0.2312
753.70 0.2311
753.80 0.231
753.90 0.2308
754.00 0.2307
754.10 0.2306
754.20 0.2305
754.30 0.2304
754.40 0.2303
754.50 0.2302
754.60 0.23
754.70 0.2299
754.80 0.2298
754.90 0.2297
755.00 0.2296
755.10 0.2295
755.20 0.2294
755.30 0.2292
755.40 0.2291
755.50 0.229
755.60 0.2289
755.70 0.2288
755.80 0.2287
755.90 0.2286
756.00 0.2284
756.10 0.2283
756.20 0.2282
756.30 0.2281
756.40 0.228
756.50 0.2279
756.60 0.2278
756.70 0.2277
756.80 0.2275
756.90 0.2274
757.00 0.2273
757.10 0.2272
757.20 0.2271
757.30 0.227
757.40 0.2269
757.50 0.2268
757.60 0.2266
757.70 0.2265
757.80 0.2264
757.90 0.2263
758.00 0.2262
758.10 0.2261
758.20 0.226
758.30 0.2259
758.40 0.2257
758.50 0.2256
758.60 0.2255
758.70 0.2254
758.80 0.2253
758.90 0.2252
759.00 0.2251
759.10 0.225
759.20 0.2248
759.30 0.2247
759.40 0.2246
759.50 0.2245
759.60 0.2244
759.70 0.2243
759.80 0.2242
759.90 0.2241
760.00 0.2239
760.10 0.2238
760.20 0.2237
760.30 0.2236
760.40 0.2235
760.50 0.2234
760.60 0.2233
760.70 0.2232
760.80 0.2231
760.90 0.223
761.00 0.2229
761.10 0.2227
761.20 0.2226
761.30 0.2225
761.40 0.2224
761.50 0.2223
761.60 0.2222
761.70 0.2221
761.80 0.222
761.90 0.2219
762.00 0.2218
762.10 0.2217
762.20 0.2215
762.30 0.2214
762.40 0.2213
762.50 0.2212
762.60 0.2211
762.70 0.221
762.80 0.2209
762.90 0.2208
763.00 0.2207
763.10 0.2206
763.20 0.2205
763.30 0.2204
763.40 0.2202
763.50 0.2201
763.60 0.22
763.70 0.2199
763.80 0.2198
763.90 0.2197
764.00 0.2196
764.10 0.2195
764.20 0.2194
764.30 0.2193
764.40 0.2192
764.50 0.2191
764.60 0.219
764.70 0.2188
764.80 0.2187
764.90 0.2186
765.00 0.2185
765.10 0.2184
765.20 0.2183
765.30 0.2182
765.40 0.2181
765.50 0.218
765.60 0.2179
765.70 0.2178
765.80 0.2177
765.90 0.2176
766.00 0.2175
766.10 0.2174
766.20 0.2172
766.30 0.2171
766.40 0.217
766.50 0.2169
766.60 0.2168
766.70 0.2167
766.80 0.2166
766.90 0.2165
767.00 0.2164
767.10 0.2163
767.20 0.2162
767.30 0.2161
767.40 0.216
767.50 0.2159
767.60 0.2158
767.70 0.2157
767.80 0.2155
767.90 0.2154
768.00 0.2153
768.10 0.2152
768.20 0.2151
768.30 0.215
768.40 0.2149
768.50 0.2148
768.60 0.2147
768.70 0.2146
768.80 0.2145
768.90 0.2144
769.00 0.2143
769.10 0.2142
769.20 0.2141
769.30 0.214
769.40 0.2139
769.50 0.2138
769.60 0.2136
769.70 0.2135
769.80 0.2134
769.90 0.2133
770.00 0.2132
770.10 0.2131
770.20 0.213
770.30 0.2129
770.40 0.2128
770.50 0.2127
770.60 0.2126
770.70 0.2125
770.80 0.2124
770.90 0.2123
771.00 0.2122
771.10 0.2121
771.20 0.212
771.30 0.2119
771.40 0.2118
771.50 0.2117
771.60 0.2116
771.70 0.2115
771.80 0.2114
771.90 0.2113
772.00 0.2112
772.10 0.2111
772.20 0.211
772.30 0.2109
772.40 0.2108
772.50 0.2107
772.60 0.2106
772.70 0.2105
772.80 0.2104
772.90 0.2103
773.00 0.2102
773.10 0.2101
773.20 0.2099
773.30 0.2098
773.40 0.2097
773.50 0.2096
773.60 0.2095
773.70 0.2094
773.80 0.2093
773.90 0.2092
774.00 0.2091
774.10 0.209
774.20 0.2089
774.30 0.2088
774.40 0.2087
774.50 0.2086
774.60 0.2085
774.70 0.2084
774.80 0.2083
774.90 0.2082
775.00 0.2081
775.10 0.208
775.20 0.2079
775.30 0.2078
775.40 0.2077
775.50 0.2076
775.60 0.2075
775.70 0.2074
775.80 0.2073
775.90 0.2072
776.00 0.2071
776.10 0.207
776.20 0.2069
776.30 0.2068
776.40 0.2067
776.50 0.2066
776.60 0.2065
776.70 0.2064
776.80 0.2063
776.90 0.2062
777.00 0.2061
777.10 0.206
777.20 0.2059
777.30 0.2058
777.40 0.2057
777.50 0.2056
777.60 0.2055
777.70 0.2054
777.80 0.2053
777.90 0.2052
778.00 0.2051
778.10 0.205
778.20 0.2049
778.30 0.2048
778.40 0.2047
778.50 0.2046
778.60 0.2045
778.70 0.2044
778.80 0.2043
778.90 0.2042
779.00 0.2041
779.10 0.204
779.20 0.2039
779.30 0.2038
779.40 0.2037
779.50 0.2036
779.60 0.2035
779.70 0.2034
779.80 0.2033
779.90 0.2032
780.00 0.2031
780.10 0.203
780.20 0.2029
780.30 0.2028
780.40 0.2027
780.50 0.2027
780.60 0.2026
780.70 0.2025
780.80 0.2024
780.90 0.2023
781.00 0.2022
781.10 0.2021
781.20 0.202
781.30 0.2019
781.40 0.2018
781.50 0.2017
781.60 0.2016
781.70 0.2015
781.80 0.2014
781.90 0.2013
782.00 0.2012
782.10 0.2011
782.20 0.201
782.30 0.2009
782.40 0.2008
782.50 0.2007
782.60 0.2006
782.70 0.2005
782.80 0.2004
782.90 0.2003
783.00 0.2002
783.10 0.2001
783.20 0.2
783.30 0.2
783.40 0.1999
783.50 0.1998
783.60 0.1997
783.70 0.1996
783.80 0.1995
783.90 0.1994
784.00 0.1993
784.10 0.1992
784.20 0.1991
784.30 0.199
784.40 0.1989
784.50 0.1988
784.60 0.1987
784.70 0.1986
784.80 0.1985
784.90 0.1984
785.00 0.1983
785.10 0.1982
785.20 0.1981
785.30 0.198
785.40 0.198
785.50 0.1979
785.60 0.1978
785.70 0.1977
785.80 0.1976
785.90 0.1975
786.00 0.1974
786.10 0.1973
786.20 0.1972
786.30 0.1971
786.40 0.197
786.50 0.1969
786.60 0.1968
786.70 0.1967
786.80 0.1966
786.90 0.1965
787.00 0.1964
787.10 0.1963
787.20 0.1963
787.30 0.1962
787.40 0.1961
787.50 0.196
787.60 0.1959
787.70 0.1958
787.80 0.1957
787.90 0.1956
788.00 0.1955
788.10 0.1954
788.20 0.1953
788.30 0.1952
788.40 0.1951
788.50 0.195
788.60 0.1949
788.70 0.1948
788.80 0.1948
788.90 0.1947
789.00 0.1946
789.10 0.1945
789.20 0.1944
789.30 0.1943
789.40 0.1942
789.50 0.1941
789.60 0.194
789.70 0.1939
789.80 0.1938
789.90 0.1937
790.00 0.1936
790.10 0.1935
790.20 0.1935
790.30 0.1934
790.40 0.1933
790.50 0.1932
790.60 0.1931
790.70 0.193
790.80 0.1929
790.90 0.1928
791.00 0.1927
791.10 0.1926
791.20 0.1925
791.30 0.1924
791.40 0.1924
791.50 0.1923
791.60 0.1922
791.70 0.1921
791.80 0.192
791.90 0.1919
792.00 0.1918
792.10 0.1917
792.20 0.1916
792.30 0.1915
792.40 0.1914
792.50 0.1914
792.60 0.1913
792.70 0.1912
792.80 0.1911
792.90 0.191
793.00 0.1909
793.10 0.1908
793.20 0.1907
793.30 0.1906
793.40 0.1905
793.50 0.1905
793.60 0.1904
793.70 0.1903
793.80 0.1902
793.90 0.1901
794.00 0.19
794.10 0.1899
794.20 0.1898
794.30 0.1897
794.40 0.1896
794.50 0.1896
794.60 0.1895
794.70 0.1894
794.80 0.1893
794.90 0.1892
795.00 0.1891
795.10 0.189
795.20 0.1889
795.30 0.1888
795.40 0.1888
795.50 0.1887
795.60 0.1886
795.70 0.1885
795.80 0.1884
795.90 0.1883
796.00 0.1882
796.10 0.1881
796.20 0.188
796.30 0.1879
796.40 0.1879
796.50 0.1878
796.60 0.1877
796.70 0.1876
796.80 0.1875
796.90 0.1874
797.00 0.1873
797.10 0.1872
797.20 0.1871
797.30 0.1871
797.40 0.187
797.50 0.1869
797.60 0.1868
797.70 0.1867
797.80 0.1866
797.90 0.1865
798.00 0.1864
798.10 0.1864
798.20 0.1863
798.30 0.1862
798.40 0.1861
798.50 0.186
798.60 0.1859
798.70 0.1858
798.80 0.1857
798.90 0.1856
799.00 0.1856
799.10 0.1855
799.20 0.1854
799.30 0.1853
799.40 0.1852
799.50 0.1851
799.60 0.185
799.70 0.1849
799.80 0.1849
799.90 0.1848
800.00 0.1847
800.10 0.1846
800.20 0.1845
800.30 0.1844
800.40 0.1843
800.50 0.1843
800.60 0.1842
800.70 0.1841
800.80 0.184
800.90 0.1839
801.00 0.1838
801.10 0.1837
801.20 0.1836
801.30 0.1836
801.40 0.1835
801.50 0.1834
801.60 0.1833
801.70 0.1832
801.80 0.1831
801.90 0.183
802.00 0.183
802.10 0.1829
802.20 0.1828
802.30 0.1827
802.40 0.1826
802.50 0.1825
802.60 0.1825
802.70 0.1824
802.80 0.1823
802.90 0.1822
803.00 0.1821
803.10 0.182
803.20 0.1819
803.30 0.1819
803.40 0.1818
803.50 0.1817
803.60 0.1816
803.70 0.1815
803.80 0.1814
803.90 0.1813
804.00 0.1813
804.10 0.1812
804.20 0.1811
804.30 0.181
804.40 0.1809
804.50 0.1808
804.60 0.1808
804.70 0.1807
804.80 0.1806
804.90 0.1805
805.00 0.1804
805.10 0.1803
805.20 0.1802
805.30 0.1802
805.40 0.1801
805.50 0.18
805.60 0.1799
805.70 0.1798
805.80 0.1797
805.90 0.1797
806.00 0.1796
806.10 0.1795
806.20 0.1794
806.30 0.1793
806.40 0.1792
806.50 0.1792
806.60 0.1791
806.70 0.179
806.80 0.1789
806.90 0.1788
807.00 0.1787
807.10 0.1787
807.20 0.1786
807.30 0.1785
807.40 0.1784
807.50 0.1783
807.60 0.1782
807.70 0.1781
807.80 0.1781
807.90 0.178
808.00 0.1779
808.10 0.1778
808.20 0.1777
808.30 0.1776
808.40 0.1776
808.50 0.1775
808.60 0.1774
808.70 0.1773
808.80 0.1772
808.90 0.1772
809.00 0.1771
809.10 0.177
809.20 0.1769
809.30 0.1768
809.40 0.1767
809.50 0.1767
809.60 0.1766
809.70 0.1765
809.80 0.1764
809.90 0.1763
810.00 0.1762
810.10 0.1762
810.20 0.1761
810.30 0.176
810.40 0.1759
810.50 0.1758
810.60 0.1758
810.70 0.1757
810.80 0.1756
810.90 0.1755
811.00 0.1754
811.10 0.1753
811.20 0.1753
811.30 0.1752
811.40 0.1751
811.50 0.175
811.60 0.1749
811.70 0.1749
811.80 0.1748
811.90 0.1747
812.00 0.1746
812.10 0.1745
812.20 0.1745
812.30 0.1744
812.40 0.1743
812.50 0.1742
812.60 0.1741
812.70 0.1741
812.80 0.174
812.90 0.1739
813.00 0.1738
813.10 0.1737
813.20 0.1737
813.30 0.1736
813.40 0.1735
813.50 0.1734
813.60 0.1733
813.70 0.1733
813.80 0.1732
813.90 0.1731
814.00 0.173
814.10 0.1729
814.20 0.1729
814.30 0.1728
814.40 0.1727
814.50 0.1726
814.60 0.1725
814.70 0.1725
814.80 0.1724
814.90 0.1723
815.00 0.1722
815.10 0.1721
815.20 0.1721
815.30 0.172
815.40 0.1719
815.50 0.1718
815.60 0.1717
815.70 0.1717
815.80 0.1716
815.90 0.1715
816.00 0.1714
816.10 0.1713
816.20 0.1713
816.30 0.1712
816.40 0.1711
816.50 0.171
816.60 0.171
816.70 0.1709
816.80 0.1708
816.90 0.1707
817.00 0.1706
817.10 0.1706
817.20 0.1705
817.30 0.1704
817.40 0.1703
817.50 0.1702
817.60 0.1702
817.70 0.1701
817.80 0.17
817.90 0.1699
818.00 0.1699
818.10 0.1698
818.20 0.1697
818.30 0.1696
818.40 0.1695
818.50 0.1695
818.60 0.1694
818.70 0.1693
818.80 0.1692
818.90 0.1691
819.00 0.1691
819.10 0.169
819.20 0.1689
819.30 0.1688
819.40 0.1688
819.50 0.1687
819.60 0.1686
819.70 0.1685
819.80 0.1684
819.90 0.1684
820.00 0.1683
820.10 0.1682
820.20 0.1681
820.30 0.1681
820.40 0.168
820.50 0.1679
820.60 0.1678
820.70 0.1677
820.80 0.1677
820.90 0.1676
821.00 0.1675
821.10 0.1674
821.20 0.1674
821.30 0.1673
821.40 0.1672
821.50 0.1671
821.60 0.1671
821.70 0.167
821.80 0.1669
821.90 0.1668
822.00 0.1667
822.10 0.1667
822.20 0.1666
822.30 0.1665
822.40 0.1664
822.50 0.1664
822.60 0.1663
822.70 0.1662
822.80 0.1661
822.90 0.1661
823.00 0.166
823.10 0.1659
823.20 0.1658
823.30 0.1658
823.40 0.1657
823.50 0.1656
823.60 0.1655
823.70 0.1655
823.80 0.1654
823.90 0.1653
824.00 0.1652
824.10 0.1652
824.20 0.1651
824.30 0.165
824.40 0.1649
824.50 0.1649
824.60 0.1648
824.70 0.1647
824.80 0.1646
824.90 0.1646
825.00 0.1645
825.10 0.1644
825.20 0.1643
825.30 0.1643
825.40 0.1642
825.50 0.1641
825.60 0.164
825.70 0.164
825.80 0.1639
825.90 0.1638
826.00 0.1637
826.10 0.1637
826.20 0.1636
826.30 0.1635
826.40 0.1634
826.50 0.1634
826.60 0.1633
826.70 0.1632
826.80 0.1631
826.90 0.1631
827.00 0.163
827.10 0.1629
827.20 0.1628
827.30 0.1628
827.40 0.1627
827.50 0.1626
827.60 0.1625
827.70 0.1625
827.80 0.1624
827.90 0.1623
828.00 0.1622
828.10 0.1622
828.20 0.1621
828.30 0.162
828.40 0.1619
828.50 0.1619
828.60 0.1618
828.70 0.1617
828.80 0.1616
828.90 0.1616
829.00 0.1615
829.10 0.1614
829.20 0.1614
829.30 0.1613
829.40 0.1612
829.50 0.1611
829.60 0.1611
829.70 0.161
829.80 0.1609
829.90 0.1608
830.00 0.1608
830.10 0.1607
830.20 0.1606
830.30 0.1605
830.40 0.1605
830.50 0.1604
830.60 0.1603
830.70 0.1603
830.80 0.1602
830.90 0.1601
831.00 0.16
831.10 0.16
831.20 0.1599
831.30 0.1598
831.40 0.1597
831.50 0.1597
831.60 0.1596
831.70 0.1595
831.80 0.1595
831.90 0.1594
832.00 0.1593
832.10 0.1592
832.20 0.1592
832.30 0.1591
832.40 0.159
832.50 0.1589
832.60 0.1589
832.70 0.1588
832.80 0.1587
832.90 0.1587
833.00 0.1586
833.10 0.1585
833.20 0.1584
833.30 0.1584
833.40 0.1583
833.50 0.1582
833.60 0.1582
833.70 0.1581
833.80 0.158
833.90 0.1579
834.00 0.1579
834.10 0.1578
834.20 0.1577
834.30 0.1576
834.40 0.1576
834.50 0.1575
834.60 0.1574
834.70 0.1574
834.80 0.1573
834.90 0.1572
835.00 0.1571
835.10 0.1571
835.20 0.157
835.30 0.1569
835.40 0.1569
835.50 0.1568
835.60 0.1567
835.70 0.1566
835.80 0.1566
835.90 0.1565
836.00 0.1564
836.10 0.1564
836.20 0.1563
836.30 0.1562
836.40 0.1561
836.50 0.1561
836.60 0.156
836.70 0.1559
836.80 0.1559
836.90 0.1558
837.00 0.1557
837.10 0.1556
837.20 0.1556
837.30 0.1555
837.40 0.1554
837.50 0.1554
837.60 0.1553
837.70 0.1552
837.80 0.1551
837.90 0.1551
838.00 0.155
838.10 0.1549
838.20 0.1549
838.30 0.1548
838.40 0.1547
838.50 0.1547
838.60 0.1546
838.70 0.1545
838.80 0.1544
838.90 0.1544
839.00 0.1543
839.10 0.1542
839.20 0.1542
839.30 0.1541
839.40 0.154
839.50 0.1539
839.60 0.1539
839.70 0.1538
839.80 0.1537
839.90 0.1537
840.00 0.1536
840.10 0.1535
840.20 0.1535
840.30 0.1534
840.40 0.1533
840.50 0.1532
840.60 0.1532
840.70 0.1531
840.80 0.153
840.90 0.153
841.00 0.1529
841.10 0.1528
841.20 0.1528
841.30 0.1527
841.40 0.1526
841.50 0.1525
841.60 0.1525
841.70 0.1524
841.80 0.1523
841.90 0.1523
842.00 0.1522
842.10 0.1521
842.20 0.1521
842.30 0.152
842.40 0.1519
842.50 0.1519
842.60 0.1518
842.70 0.1517
842.80 0.1516
842.90 0.1516
843.00 0.1515
843.10 0.1514
843.20 0.1514
843.30 0.1513
843.40 0.1512
843.50 0.1512
843.60 0.1511
843.70 0.151
843.80 0.151
843.90 0.1509
844.00 0.1508
844.10 0.1507
844.20 0.1507
844.30 0.1506
844.40 0.1505
844.50 0.1505
844.60 0.1504
844.70 0.1503
844.80 0.1503
844.90 0.1502
845.00 0.1501
845.10 0.1501
845.20 0.15
845.30 0.1499
845.40 0.1498
845.50 0.1498
845.60 0.1497
845.70 0.1496
845.80 0.1496
845.90 0.1495
846.00 0.1494
846.10 0.1494
846.20 0.1493
846.30 0.1492
846.40 0.1492
846.50 0.1491
846.60 0.149
846.70 0.149
846.80 0.1489
846.90 0.1488
847.00 0.1488
847.10 0.1487
847.20 0.1486
847.30 0.1485
847.40 0.1485
847.50 0.1484
847.60 0.1483
847.70 0.1483
847.80 0.1482
847.90 0.1481
848.00 0.1481
848.10 0.148
848.20 0.1479
848.30 0.1479
848.40 0.1478
848.50 0.1477
848.60 0.1477
848.70 0.1476
848.80 0.1475
848.90 0.1475
849.00 0.1474
849.10 0.1473
849.20 0.1473
849.30 0.1472
849.40 0.1471
849.50 0.1471
849.60 0.147
849.70 0.1469
849.80 0.1469
849.90 0.1468
850.00 0.1467
850.10 0.1467
850.20 0.1466
850.30 0.1465
850.40 0.1465
850.50 0.1464
850.60 0.1463
850.70 0.1463
850.80 0.1462
850.90 0.1461
851.00 0.1461
851.10 0.146
851.20 0.1459
851.30 0.1459
851.40 0.1458
851.50 0.1457
851.60 0.1457
851.70 0.1456
851.80 0.1455
851.90 0.1455
852.00 0.1454
852.10 0.1453
852.20 0.1453
852.30 0.1452
852.40 0.1451
852.50 0.1451
852.60 0.145
852.70 0.1449
852.80 0.1449
852.90 0.1448
853.00 0.1447
853.10 0.1447
853.20 0.1446
853.30 0.1445
853.40 0.1445
853.50 0.1444
853.60 0.1443
853.70 0.1443
853.80 0.1442
853.90 0.1441
854.00 0.1441
854.10 0.144
854.20 0.144
854.30 0.1439
854.40 0.1438
854.50 0.1438
854.60 0.1437
854.70 0.1436
854.80 0.1436
854.90 0.1435
855.00 0.1434
855.10 0.1434
855.20 0.1433
855.30 0.1432
855.40 0.1432
855.50 0.1431
855.60 0.143
855.70 0.143
855.80 0.1429
855.90 0.1429
856.00 0.1428
856.10 0.1427
856.20 0.1427
856.30 0.1426
856.40 0.1425
856.50 0.1425
856.60 0.1424
856.70 0.1423
856.80 0.1423
856.90 0.1422
857.00 0.1421
857.10 0.1421
857.20 0.142
857.30 0.142
857.40 0.1419
857.50 0.1418
857.60 0.1418
857.70 0.1417
857.80 0.1417
857.90 0.1416
858.00 0.1415
858.10 0.1415
858.20 0.1414
858.30 0.1414
858.40 0.1413
858.50 0.1412
858.60 0.1412
858.70 0.1411
858.80 0.1411
858.90 0.141
859.00 0.1409
859.10 0.1409
859.20 0.1408
859.30 0.1408
859.40 0.1407
859.50 0.1406
859.60 0.1406
859.70 0.1405
859.80 0.1405
859.90 0.1404
860.00 0.1403
860.10 0.1403
860.20 0.1402
860.30 0.1402
860.40 0.1401
860.50 0.14
860.60 0.14
860.70 0.1399
860.80 0.1399
860.90 0.1398
861.00 0.1397
861.10 0.1397
861.20 0.1396
861.30 0.1396
861.40 0.1395
861.50 0.1394
861.60 0.1394
861.70 0.1393
861.80 0.1393
861.90 0.1392
862.00 0.1391
862.10 0.1391
862.20 0.139
862.30 0.139
862.40 0.1389
862.50 0.1388
862.60 0.1388
862.70 0.1387
862.80 0.1386
862.90 0.1386
863.00 0.1385
863.10 0.1385
863.20 0.1384
863.30 0.1383
863.40 0.1383
863.50 0.1382
863.60 0.1381
863.70 0.1381
863.80 0.138
863.90 0.138
864.00 0.1379
864.10 0.1378
864.20 0.1378
864.30 0.1377
864.40 0.1376
864.50 0.1376
864.60 0.1375
864.70 0.1375
864.80 0.1374
864.90 0.1373
865.00 0.1373
865.10 0.1372
865.20 0.1371
865.30 0.1371
865.40 0.137
865.50 0.137
865.60 0.1369
865.70 0.1368
865.80 0.1368
865.90 0.1367
866.00 0.1367
866.10 0.1366
866.20 0.1365
866.30 0.1365
866.40 0.1364
866.50 0.1363
866.60 0.1363
866.70 0.1362
866.80 0.1362
866.90 0.1361
867.00 0.136
867.10 0.136
867.20 0.1359
867.30 0.1359
867.40 0.1358
867.50 0.1357
867.60 0.1357
867.70 0.1356
867.80 0.1356
867.90 0.1355
868.00 0.1354
868.10 0.1354
868.20 0.1353
868.30 0.1353
868.40 0.1352
868.50 0.1351
868.60 0.1351
868.70 0.135
868.80 0.135
868.90 0.1349
869.00 0.1348
869.10 0.1348
869.20 0.1347
869.30 0.1347
869.40 0.1346
869.50 0.1346
869.60 0.1345
869.70 0.1344
869.80 0.1344
869.90 0.1343
870.00 0.1343
870.10 0.1342
870.20 0.1341
870.30 0.1341
870.40 0.134
870.50 0.134
870.60 0.1339
870.70 0.1338
870.80 0.1338
870.90 0.1337
871.00 0.1337
871.10 0.1336
871.20 0.1336
871.30 0.1335
871.40 0.1334
871.50 0.1334
871.60 0.1333
871.70 0.1333
871.80 0.1332
871.90 0.1331
872.00 0.1331
872.10 0.133
872.20 0.133
872.30 0.1329
872.40 0.1329
872.50 0.1328
872.60 0.1327
872.70 0.1327
872.80 0.1326
872.90 0.1326
873.00 0.1325
873.10 0.1324
873.20 0.1324
873.30 0.1323
873.40 0.1323
873.50 0.1322
873.60 0.1321
873.70 0.1321
873.80 0.132
873.90 0.132
874.00 0.1319
874.10 0.1319
874.20 0.1318
874.30 0.1317
874.40 0.1317
874.50 0.1316
874.60 0.1316
874.70 0.1315
874.80 0.1315
874.90 0.1314
875.00 0.1313
875.10 0.1313
875.20 0.1312
875.30 0.1312
875.40 0.1311
875.50 0.131
875.60 0.131
875.70 0.1309
875.80 0.1309
875.90 0.1308
876.00 0.1308
876.10 0.1307
876.20 0.1306
876.30 0.1306
876.40 0.1305
876.50 0.1305
876.60 0.1304
876.70 0.1304
876.80 0.1303
876.90 0.1302
877.00 0.1302
877.10 0.1301
877.20 0.1301
877.30 0.13
877.40 0.13
877.50 0.1299
877.60 0.1298
877.70 0.1298
877.80 0.1297
877.90 0.1297
878.00 0.1296
878.10 0.1296
878.20 0.1295
878.30 0.1294
878.40 0.1294
878.50 0.1293
878.60 0.1293
878.70 0.1292
878.80 0.1292
878.90 0.1291
879.00 0.1291
879.10 0.129
879.20 0.1289
879.30 0.1289
879.40 0.1288
879.50 0.1288
879.60 0.1287
879.70 0.1287
879.80 0.1286
879.90 0.1286
880.00 0.1285
880.10 0.1284
880.20 0.1284
880.30 0.1283
880.40 0.1283
880.50 0.1282
880.60 0.1282
880.70 0.1281
880.80 0.1281
880.90 0.128
881.00 0.1279
881.10 0.1279
881.20 0.1278
881.30 0.1278
881.40 0.1277
881.50 0.1277
881.60 0.1276
881.70 0.1276
881.80 0.1275
881.90 0.1275
882.00 0.1274
882.10 0.1273
882.20 0.1273
882.30 0.1272
882.40 0.1272
882.50 0.1271
882.60 0.1271
882.70 0.127
882.80 0.127
882.90 0.1269
883.00 0.1268
883.10 0.1268
883.20 0.1267
883.30 0.1267
883.40 0.1266
883.50 0.1266
883.60 0.1265
883.70 0.1265
883.80 0.1264
883.90 0.1264
884.00 0.1263
884.10 0.1262
884.20 0.1262
884.30 0.1261
884.40 0.1261
884.50 0.126
884.60 0.126
884.70 0.1259
884.80 0.1259
884.90 0.1258
885.00 0.1258
885.10 0.1257
885.20 0.1256
885.30 0.1256
885.40 0.1255
885.50 0.1255
885.60 0.1254
885.70 0.1254
885.80 0.1253
885.90 0.1253
886.00 0.1252
886.10 0.1252
886.20 0.1251
886.30 0.125
886.40 0.125
886.50 0.1249
886.60 0.1249
886.70 0.1248
886.80 0.1248
886.90 0.1247
887.00 0.1247
887.10 0.1246
887.20 0.1246
887.30 0.1245
887.40 0.1245
887.50 0.1244
887.60 0.1244
887.70 0.1243
887.80 0.1243
887.90 0.1242
888.00 0.1241
888.10 0.1241
888.20 0.124
888.30 0.124
888.40 0.1239
888.50 0.1239
888.60 0.1238
888.70 0.1238
888.80 0.1237
888.90 0.1237
889.00 0.1236
889.10 0.1236
889.20 0.1235
889.30 0.1235
889.40 0.1234
889.50 0.1234
889.60 0.1233
889.70 0.1233
889.80 0.1232
889.90 0.1232
890.00 0.1231
890.10 0.123
890.20 0.123
890.30 0.1229
890.40 0.1229
890.50 0.1228
890.60 0.1228
890.70 0.1227
890.80 0.1227
890.90 0.1226
891.00 0.1226
891.10 0.1225
891.20 0.1225
891.30 0.1224
891.40 0.1224
891.50 0.1223
891.60 0.1223
891.70 0.1222
891.80 0.1222
891.90 0.1221
892.00 0.1221
892.10 0.122
892.20 0.122
892.30 0.1219
892.40 0.1219
892.50 0.1218
892.60 0.1218
892.70 0.1217
892.80 0.1216
892.90 0.1216
893.00 0.1215
893.10 0.1215
893.20 0.1214
893.30 0.1214
893.40 0.1213
893.50 0.1213
893.60 0.1212
893.70 0.1212
893.80 0.1211
893.90 0.1211
894.00 0.121
894.10 0.121
894.20 0.1209
894.30 0.1209
894.40 0.1208
894.50 0.1208
894.60 0.1207
894.70 0.1207
894.80 0.1206
894.90 0.1206
895.00 0.1205
895.10 0.1205
895.20 0.1204
895.30 0.1204
895.40 0.1203
895.50 0.1203
895.60 0.1202
895.70 0.1202
895.80 0.1201
895.90 0.1201
896.00 0.12
896.10 0.12
896.20 0.1199
896.30 0.1199
896.40 0.1198
896.50 0.1198
896.60 0.1197
896.70 0.1197
896.80 0.1196
896.90 0.1196
897.00 0.1195
897.10 0.1195
897.20 0.1194
897.30 0.1194
897.40 0.1193
897.50 0.1193
897.60 0.1192
897.70 0.1192
897.80 0.1191
897.90 0.1191
898.00 0.119
898.10 0.119
898.20 0.1189
898.30 0.1189
898.40 0.1188
898.50 0.1188
898.60 0.1187
898.70 0.1187
898.80 0.1186
898.90 0.1186
899.00 0.1185
899.10 0.1185
899.20 0.1184
899.30 0.1184
899.40 0.1183
899.50 0.1183
899.60 0.1182
899.70 0.1182
899.80 0.1181
899.90 0.1181
900.00 0.118
900.10 0.118
900.20 0.1179
900.30 0.1179
900.40 0.1178
900.50 0.1178
900.60 0.1177
900.70 0.1177
900.80 0.1176
900.90 0.1176
901.00 0.1175
901.10 0.1175
901.20 0.1174
901.30 0.1174
901.40 0.1173
901.50 0.1173
901.60 0.1172
901.70 0.1172
901.80 0.1171
901.90 0.1171
902.00 0.117
902.10 0.117
902.20 0.1169
902.30 0.1169
902.40 0.1168
902.50 0.1168
902.60 0.1167
902.70 0.1167
902.80 0.1166
902.90 0.1166
903.00 0.1165
903.10 0.1165
903.20 0.1164
903.30 0.1164
903.40 0.1163
903.50 0.1163
903.60 0.1163
903.70 0.1162
903.80 0.1162
903.90 0.1161
904.00 0.1161
904.10 0.116
904.20 0.116
904.30 0.1159
904.40 0.1159
904.50 0.1158
904.60 0.1158
904.70 0.1157
904.80 0.1157
904.90 0.1156
905.00 0.1156
905.10 0.1155
905.20 0.1155
905.30 0.1155
905.40 0.1154
905.50 0.1154
905.60 0.1153
905.70 0.1153
905.80 0.1152
905.90 0.1152
906.00 0.1151
906.10 0.1151
906.20 0.115
906.30 0.115
906.40 0.1149
906.50 0.1149
906.60 0.1148
906.70 0.1148
906.80 0.1147
906.90 0.1147
907.00 0.1147
907.10 0.1146
907.20 0.1146
907.30 0.1145
907.40 0.1145
907.50 0.1144
907.60 0.1144
907.70 0.1143
907.80 0.1143
907.90 0.1142
908.00 0.1142
908.10 0.1141
908.20 0.1141
908.30 0.114
908.40 0.114
908.50 0.114
908.60 0.1139
908.70 0.1139
908.80 0.1138
908.90 0.1138
909.00 0.1137
909.10 0.1137
909.20 0.1136
909.30 0.1136
909.40 0.1135
909.50 0.1135
909.60 0.1134
909.70 0.1134
909.80 0.1133
909.90 0.1133
910.00 0.1133
910.10 0.1132
910.20 0.1132
910.30 0.1131
910.40 0.1131
910.50 0.113
910.60 0.113
910.70 0.1129
910.80 0.1129
910.90 0.1128
911.00 0.1128
911.10 0.1127
911.20 0.1127
911.30 0.1127
911.40 0.1126
911.50 0.1126
911.60 0.1125
911.70 0.1125
911.80 0.1124
911.90 0.1124
912.00 0.1123
912.10 0.1123
912.20 0.1122
912.30 0.1122
912.40 0.1121
912.50 0.1121
912.60 0.1121
912.70 0.112
912.80 0.112
912.90 0.1119
913.00 0.1119
913.10 0.1118
913.20 0.1118
913.30 0.1117
913.40 0.1117
913.50 0.1116
913.60 0.1116
913.70 0.1115
913.80 0.1115
913.90 0.1114
914.00 0.1114
914.10 0.1114
914.20 0.1113
914.30 0.1113
914.40 0.1112
914.50 0.1112
914.60 0.1111
914.70 0.1111
914.80 0.111
914.90 0.111
915.00 0.1109
915.10 0.1109
915.20 0.1108
915.30 0.1108
915.40 0.1108
915.50 0.1107
915.60 0.1107
915.70 0.1106
915.80 0.1106
915.90 0.1105
916.00 0.1105
916.10 0.1104
916.20 0.1104
916.30 0.1103
916.40 0.1103
916.50 0.1103
916.60 0.1102
916.70 0.1102
916.80 0.1101
916.90 0.1101
917.00 0.11
917.10 0.11
917.20 0.1099
917.30 0.1099
917.40 0.1098
917.50 0.1098
917.60 0.1097
917.70 0.1097
917.80 0.1097
917.90 0.1096
918.00 0.1096
918.10 0.1095
918.20 0.1095
918.30 0.1094
918.40 0.1094
918.50 0.1093
918.60 0.1093
918.70 0.1092
918.80 0.1092
918.90 0.1092
919.00 0.1091
919.10 0.1091
919.20 0.109
919.30 0.109
919.40 0.1089
919.50 0.1089
919.60 0.1088
919.70 0.1088
919.80 0.1088
919.90 0.1087
920.00 0.1087
920.10 0.1086
920.20 0.1086
920.30 0.1085
920.40 0.1085
920.50 0.1084
920.60 0.1084
920.70 0.1083
920.80 0.1083
920.90 0.1083
921.00 0.1082
921.10 0.1082
921.20 0.1081
921.30 0.1081
921.40 0.108
921.50 0.108
921.60 0.1079
921.70 0.1079
921.80 0.1079
921.90 0.1078
922.00 0.1078
922.10 0.1077
922.20 0.1077
922.30 0.1076
922.40 0.1076
922.50 0.1076
922.60 0.1075
922.70 0.1075
922.80 0.1074
922.90 0.1074
923.00 0.1073
923.10 0.1073
923.20 0.1073
923.30 0.1072
923.40 0.1072
923.50 0.1071
923.60 0.1071
923.70 0.1071
923.80 0.107
923.90 0.107
924.00 0.1069
924.10 0.1069
924.20 0.1069
924.30 0.1068
924.40 0.1068
924.50 0.1067
924.60 0.1067
924.70 0.1066
924.80 0.1066
924.90 0.1066
925.00 0.1065
925.10 0.1065
925.20 0.1064
925.30 0.1064
925.40 0.1064
925.50 0.1063
925.60 0.1063
925.70 0.1062
925.80 0.1062
925.90 0.1062
926.00 0.1061
926.10 0.1061
926.20 0.106
926.30 0.106
926.40 0.106
926.50 0.1059
926.60 0.1059
926.70 0.1058
926.80 0.1058
926.90 0.1058
927.00 0.1057
927.10 0.1057
927.20 0.1056
927.30 0.1056
927.40 0.1055
927.50 0.1055
927.60 0.1055
927.70 0.1054
927.80 0.1054
927.90 0.1053
928.00 0.1053
928.10 0.1053
928.20 0.1052
928.30 0.1052
928.40 0.1051
928.50 0.1051
928.60 0.1051
928.70 0.105
928.80 0.105
928.90 0.105
929.00 0.1049
929.10 0.1049
929.20 0.1048
929.30 0.1048
929.40 0.1048
929.50 0.1047
929.60 0.1047
929.70 0.1046
929.80 0.1046
929.90 0.1046
930.00 0.1045
930.10 0.1045
930.20 0.1044
930.30 0.1044
930.40 0.1044
930.50 0.1043
930.60 0.1043
930.70 0.1042
930.80 0.1042
930.90 0.1042
931.00 0.1041
931.10 0.1041
931.20 0.104
931.30 0.104
931.40 0.104
931.50 0.1039
931.60 0.1039
931.70 0.1038
931.80 0.1038
931.90 0.1038
932.00 0.1037
932.10 0.1037
932.20 0.1036
932.30 0.1036
932.40 0.1036
932.50 0.1035
932.60 0.1035
932.70 0.1034
932.80 0.1034
932.90 0.1034
933.00 0.1033
933.10 0.1033
933.20 0.1032
933.30 0.1032
933.40 0.1032
933.50 0.1031
933.60 0.1031
933.70 0.103
933.80 0.103
933.90 0.103
934.00 0.1029
934.10 0.1029
934.20 0.1028
934.30 0.1028
934.40 0.1028
934.50 0.1027
934.60 0.1027
934.70 0.1026
934.80 0.1026
934.90 0.1026
935.00 0.1025
935.10 0.1025
935.20 0.1024
935.30 0.1024
935.40 0.1024
935.50 0.1023
935.60 0.1023
935.70 0.1022
935.80 0.1022
935.90 0.1022
936.00 0.1021
936.10 0.1021
936.20 0.102
936.30 0.102
936.40 0.1019
936.50 0.1019
936.60 0.1019
936.70 0.1018
936.80 0.1018
936.90 0.1017
937.00 0.1017
937.10 0.1017
937.20 0.1016
937.30 0.1016
937.40 0.1015
937.50 0.1015
937.60 0.1015
937.70 0.1014
937.80 0.1014
937.90 0.1013
938.00 0.1013
938.10 0.1013
938.20 0.1012
938.30 0.1012
938.40 0.1011
938.50 0.1011
938.60 0.1011
938.70 0.101
938.80 0.101
938.90 0.1009
939.00 0.1009
939.10 0.1008
939.20 0.1008
939.30 0.1008
939.40 0.1007
939.50 0.1007
939.60 0.1006
939.70 0.1006
939.80 0.1006
939.90 0.1005
940.00 0.1005
940.10 0.1004
940.20 0.1004
940.30 0.1004
940.40 0.1003
940.50 0.1003
940.60 0.1002
940.70 0.1002
940.80 0.1001
940.90 0.1001
941.00 0.1001
941.10 0.1
941.20 0.09998
941.30 0.09994
941.40 0.09989
941.50 0.09985
941.60 0.09981
941.70 0.09977
941.80 0.09973
941.90 0.09969
942.00 0.09965
942.10 0.0996
942.20 0.09956
942.30 0.09952
942.40 0.09948
942.50 0.09944
942.60 0.09939
942.70 0.09935
942.80 0.09931
942.90 0.09927
943.00 0.09923
943.10 0.09918
943.20 0.09914
943.30 0.0991
943.40 0.09906
943.50 0.09902
943.60 0.09897
943.70 0.09893
943.80 0.09889
943.90 0.09885
944.00 0.09881
944.10 0.09876
944.20 0.09872
944.30 0.09868
944.40 0.09864
944.50 0.0986
944.60 0.09855
944.70 0.09851
944.80 0.09847
944.90 0.09843
945.00 0.09838
945.10 0.09834
945.20 0.0983
945.30 0.09826
945.40 0.09821
945.50 0.09817
945.60 0.09813
945.70 0.09809
945.80 0.09804
945.90 0.098
946.00 0.09796
946.10 0.09792
946.20 0.09787
946.30 0.09783
946.40 0.09779
946.50 0.09775
946.60 0.0977
946.70 0.09766
946.80 0.09762
946.90 0.09758
947.00 0.09753
947.10 0.09749
947.20 0.09745
947.30 0.0974
947.40 0.09736
947.50 0.09732
947.60 0.09728
947.70 0.09723
947.80 0.09719
947.90 0.09715
948.00 0.0971
948.10 0.09706
948.20 0.09702
948.30 0.09698
948.40 0.09693
948.50 0.09689
948.60 0.09685
948.70 0.0968
948.80 0.09676
948.90 0.09672
949.00 0.09668
949.10 0.09663
949.20 0.09659
949.30 0.09655
949.40 0.0965
949.50 0.09646
949.60 0.09642
949.70 0.09638
949.80 0.09633
949.90 0.09629
950.00 0.09625
950.10 0.0962
950.20 0.09616
950.30 0.09612
950.40 0.09607
950.50 0.09603
950.60 0.09599
950.70 0.09595
950.80 0.0959
950.90 0.09586
951.00 0.09582
951.10 0.09577
951.20 0.09573
951.30 0.09569
951.40 0.09565
951.50 0.0956
951.60 0.09556
951.70 0.09552
951.80 0.09548
951.90 0.09543
952.00 0.09539
952.10 0.09535
952.20 0.09531
952.30 0.09526
952.40 0.09522
952.50 0.09518
952.60 0.09514
952.70 0.0951
952.80 0.09505
952.90 0.09501
953.00 0.09497
953.10 0.09493
953.20 0.09489
953.30 0.09485
953.40 0.09481
953.50 0.09476
953.60 0.09472
953.70 0.09468
953.80 0.09464
953.90 0.0946
954.00 0.09456
954.10 0.09452
954.20 0.09448
954.30 0.09445
954.40 0.09441
954.50 0.09437
954.60 0.09433
954.70 0.0943
954.80 0.09427
954.90 0.09423
955.00 0.0942
955.10 0.09417
955.20 0.09414
955.30 0.09411
955.40 0.09408
955.50 0.09405
955.60 0.09402
955.70 0.09399
955.80 0.09396
955.90 0.09393
956.00 0.0939
956.10 0.09387
956.20 0.09384
956.30 0.09381
956.40 0.09378
956.50 0.09375
956.60 0.09372
956.70 0.0937
956.80 0.09367
956.90 0.09364
957.00 0.09361
957.10 0.09358
957.20 0.09355
957.30 0.09352
957.40 0.09349
957.50 0.09347
957.60 0.09344
957.70 0.09341
957.80 0.09338
957.90 0.09335
958.00 0.09332
958.10 0.09329
958.20 0.09327
958.30 0.09324
958.40 0.09321
958.50 0.09318
958.60 0.09315
958.70 0.09312
958.80 0.0931
958.90 0.09307
959.00 0.09304
959.10 0.09301
959.20 0.09298
959.30 0.09295
959.40 0.09293
959.50 0.0929
959.60 0.09287
959.70 0.09284
959.80 0.09281
959.90 0.09278
960.00 0.09275
960.10 0.09273
960.20 0.0927
960.30 0.09267
960.40 0.09264
960.50 0.09261
960.60 0.09258
960.70 0.09255
960.80 0.09252
960.90 0.0925
961.00 0.09247
961.10 0.09244
961.20 0.09241
961.30 0.09238
961.40 0.09235
961.50 0.09232
961.60 0.0923
961.70 0.09227
961.80 0.09224
961.90 0.09221
962.00 0.09218
962.10 0.09215
962.20 0.09212
962.30 0.09209
962.40 0.09206
962.50 0.09203
962.60 0.092
962.70 0.09197
962.80 0.09195
962.90 0.09192
963.00 0.09189
963.10 0.09186
963.20 0.09183
963.30 0.0918
963.40 0.09177
963.50 0.09174
963.60 0.09171
963.70 0.09168
963.80 0.09165
963.90 0.09162
964.00 0.09159
964.10 0.09156
964.20 0.09153
964.30 0.0915
964.40 0.09147
964.50 0.09144
964.60 0.09141
964.70 0.09138
964.80 0.09135
964.90 0.09132
965.00 0.09129
965.10 0.09126
965.20 0.09123
965.30 0.0912
965.40 0.09117
965.50 0.09114
965.60 0.09111
965.70 0.09108
965.80 0.09105
965.90 0.09102
966.00 0.09099
966.10 0.09096
966.20 0.09093
966.30 0.0909
966.40 0.09087
966.50 0.09084
966.60 0.09081
966.70 0.09078
966.80 0.09074
966.90 0.09071
967.00 0.09068
967.10 0.09065
967.20 0.09062
967.30 0.09059
967.40 0.09056
967.50 0.09053
967.60 0.0905
967.70 0.09047
967.80 0.09043
967.90 0.0904
968.00 0.09037
968.10 0.09034
968.20 0.09031
968.30 0.09028
968.40 0.09025
968.50 0.09022
968.60 0.09018
968.70 0.09015
968.80 0.09012
968.90 0.09009
969.00 0.09006
969.10 0.09003
969.20 0.08999
969.30 0.08996
969.40 0.08993
969.50 0.0899
969.60 0.08987
969.70 0.08983
969.80 0.0898
969.90 0.08977
970.00 0.08974
970.10 0.08971
970.20 0.08968
970.30 0.08964
970.40 0.08961
970.50 0.08958
970.60 0.08955
970.70 0.08951
970.80 0.08948
970.90 0.08945
971.00 0.08942
971.10 0.08939
971.20 0.08935
971.30 0.08932
971.40 0.08929
971.50 0.08926
971.60 0.08922
971.70 0.08919
971.80 0.08916
971.90 0.08913
972.00 0.08909
972.10 0.08906
972.20 0.08903
972.30 0.08899
972.40 0.08896
972.50 0.08893
972.60 0.08889
972.70 0.08886
972.80 0.08883
972.90 0.08879
973.00 0.08876
973.10 0.08873
973.20 0.0887
973.30 0.08866
973.40 0.08863
973.50 0.0886
973.60 0.08856
973.70 0.08853
973.80 0.0885
973.90 0.08846
974.00 0.08843
974.10 0.0884
974.20 0.08836
974.30 0.08833
974.40 0.0883
974.50 0.08826
974.60 0.08823
974.70 0.08819
974.80 0.08816
974.90 0.08813
975.00 0.08809
975.10 0.08806
975.20 0.08802
975.30 0.08799
975.40 0.08795
975.50 0.08792
975.60 0.08789
975.70 0.08785
975.80 0.08782
975.90 0.08778
976.00 0.08775
976.10 0.08772
976.20 0.08768
976.30 0.08765
976.40 0.08761
976.50 0.08758
976.60 0.08755
976.70 0.08751
976.80 0.08748
976.90 0.08744
977.00 0.08741
977.10 0.08737
977.20 0.08734
977.30 0.0873
977.40 0.08727
977.50 0.08723
977.60 0.08719
977.70 0.08716
977.80 0.08712
977.90 0.08709
978.00 0.08705
978.10 0.08701
978.20 0.08698
978.30 0.08694
978.40 0.08691
978.50 0.08687
978.60 0.08684
978.70 0.0868
978.80 0.08676
978.90 0.08673
979.00 0.08669
979.10 0.08666
979.20 0.08662
979.30 0.08659
979.40 0.08655
979.50 0.08651
979.60 0.08648
979.70 0.08644
979.80 0.08641
979.90 0.08637
980.00 0.08634
980.10 0.0863
980.20 0.08626
980.30 0.08623
980.40 0.08619
980.50 0.08616
980.60 0.08612
980.70 0.08609
980.80 0.08605
980.90 0.08602
981.00 0.08598
981.10 0.08594
981.20 0.08591
981.30 0.08587
981.40 0.08584
981.50 0.0858
981.60 0.08577
981.70 0.08573
981.80 0.0857
981.90 0.08566
982.00 0.08563
982.10 0.08559
982.20 0.08555
982.30 0.08551
982.40 0.08548
982.50 0.08544
982.60 0.0854
982.70 0.08536
982.80 0.08533
982.90 0.08529
983.00 0.08525
983.10 0.08521
983.20 0.08518
983.30 0.08514
983.40 0.0851
983.50 0.08506
983.60 0.08503
983.70 0.08499
983.80 0.08495
983.90 0.08492
984.00 0.08488
984.10 0.08484
984.20 0.0848
984.30 0.08477
984.40 0.08473
984.50 0.08469
984.60 0.08465
984.70 0.08462
984.80 0.08458
984.90 0.08454
985.00 0.0845
985.10 0.08446
985.20 0.08442
985.30 0.08438
985.40 0.08435
985.50 0.08431
985.60 0.08427
985.70 0.08423
985.80 0.08419
985.90 0.08415
986.00 0.08411
986.10 0.08408
986.20 0.08404
986.30 0.084
986.40 0.08396
986.50 0.08392
986.60 0.08388
986.70 0.08384
986.80 0.08381
986.90 0.08377
987.00 0.08373
987.10 0.08369
987.20 0.08365
987.30 0.08361
987.40 0.08357
987.50 0.08353
987.60 0.08349
987.70 0.08345
987.80 0.08341
987.90 0.08337
988.00 0.08333
988.10 0.08329
988.20 0.08325
988.30 0.08321
988.40 0.08318
988.50 0.08314
988.60 0.0831
988.70 0.08306
988.80 0.08302
988.90 0.08297
989.00 0.08293
989.10 0.08289
989.20 0.08285
989.30 0.08281
989.40 0.08277
989.50 0.08273
989.60 0.08269
989.70 0.08265
989.80 0.08261
989.90 0.08257
990.00 0.08253
990.10 0.08249
990.20 0.08245
990.30 0.08241
990.40 0.08237
990.50 0.08232
990.60 0.08228
990.70 0.08224
990.80 0.0822
990.90 0.08216
991.00 0.08212
991.10 0.08208
991.20 0.08203
991.30 0.08199
991.40 0.08195
991.50 0.08191
991.60 0.08187
991.70 0.08183
991.80 0.08179
991.90 0.08174
992.00 0.0817
992.10 0.08166
992.20 0.08162
992.30 0.08158
992.40 0.08153
992.50 0.08149
992.60 0.08145
992.70 0.08141
992.80 0.08136
992.90 0.08132
993.00 0.08128
993.10 0.08123
993.20 0.08119
993.30 0.08115
993.40 0.08111
993.50 0.08106
993.60 0.08102
993.70 0.08098
993.80 0.08093
993.90 0.08089
994.00 0.08085
994.10 0.0808
994.20 0.08076
994.30 0.08072
994.40 0.08068
994.50 0.08063
994.60 0.08059
994.70 0.08055
994.80 0.0805
994.90 0.08046
995.00 0.08041
995.10 0.08037
995.20 0.08033
995.30 0.08028
995.40 0.08024
995.50 0.0802
995.60 0.08015
995.70 0.08011
995.80 0.08006
995.90 0.08002
996.00 0.07997
996.10 0.07993
996.20 0.07988
996.30 0.07984
996.40 0.0798
996.50 0.07975
996.60 0.07971
996.70 0.07966
996.80 0.07962
996.90 0.07957
997.00 0.07953
997.10 0.07948
997.20 0.07944
997.30 0.07939
997.40 0.07935
997.50 0.0793
997.60 0.07926
997.70 0.07921
997.80 0.07917
997.90 0.07912
998.00 0.07908
998.10 0.07903
998.20 0.07899
998.30 0.07894
998.40 0.0789
998.50 0.07885
998.60 0.07881
998.70 0.07876
998.80 0.07872
998.90 0.07867
999.00 0.07862
999.10 0.07858
999.20 0.07853
999.30 0.07849
999.40 0.07844
999.50 0.0784
999.60 0.07835
999.70 0.07831
999.80 0.07826
999.90 0.07822
1000.00 0.07817
1000.10 0.07813
1000.20 0.07808
1000.30 0.07804
1000.40 0.078
1000.50 0.07795
1000.60 0.07791
1000.70 0.07786
1000.80 0.07782
1000.90 0.07777
1001.00 0.07773
1001.10 0.07768
1001.20 0.07764
1001.30 0.07759
1001.40 0.07755
1001.50 0.07751
1001.60 0.07746
1001.70 0.07742
1001.80 0.07737
1001.90 0.07733
1002.00 0.07729
1002.10 0.07725
1002.20 0.0772
1002.30 0.07716
1002.40 0.07712
1002.50 0.07708
1002.60 0.07704
1002.70 0.077
1002.80 0.07696
1002.90 0.07692
1003.00 0.07687
1003.10 0.07683
1003.20 0.07679
1003.30 0.07676
1003.40 0.07672
1003.50 0.07668
1003.60 0.07665
1003.70 0.07661
1003.80 0.07657
1003.90 0.07654
1004.00 0.07651
1004.10 0.07648
1004.20 0.07645
1004.30 0.07642
1004.40 0.07639
1004.50 0.07636
1004.60 0.07634
1004.70 0.07632
1004.80 0.0763
1004.90 0.07627
1005.00 0.07625
1005.10 0.07622
1005.20 0.07619
1005.30 0.07615
1005.40 0.07612
1005.50 0.0761
1005.60 0.07607
1005.70 0.07605
1005.80 0.07603
1005.90 0.076
1006.00 0.07598
1006.10 0.07596
1006.20 0.07594
1006.30 0.07592
1006.40 0.07591
1006.50 0.07589
1006.60 0.07587
1006.70 0.07586
1006.80 0.07584
1006.90 0.07582
1007.00 0.07581
1007.10 0.07579
1007.20 0.07578
1007.30 0.07577
1007.40 0.07576
1007.50 0.07574
1007.60 0.07573
1007.70 0.07572
1007.80 0.07571
1007.90 0.0757
1008.00 0.07569
1008.10 0.07568
1008.20 0.07566
1008.30 0.07565
1008.40 0.07564
1008.50 0.07563
1008.60 0.07562
1008.70 0.07561
1008.80 0.0756
1008.90 0.07559
1009.00 0.07558
1009.10 0.07557
1009.20 0.07556
1009.30 0.07555
1009.40 0.07554
1009.50 0.07553
1009.60 0.07552
1009.70 0.0755
1009.80 0.07549
1009.90 0.07548
1010.00 0.07547
1010.10 0.07546
1010.20 0.07545
1010.30 0.07544
1010.40 0.07543
1010.50 0.07542
1010.60 0.07541
1010.70 0.0754
1010.80 0.07539
1010.90 0.07538
1011.00 0.07537
1011.10 0.07536
1011.20 0.07535
1011.30 0.07534
1011.40 0.07533
1011.50 0.07532
1011.60 0.07531
1011.70 0.0753
1011.80 0.07529
1011.90 0.07528
1012.00 0.07527
1012.10 0.07526
1012.20 0.07525
1012.30 0.07524
1012.40 0.07522
1012.50 0.07521
1012.60 0.0752
1012.70 0.07519
1012.80 0.07518
1012.90 0.07517
1013.00 0.07516
1013.10 0.07515
1013.20 0.07514
1013.30 0.07512
1013.40 0.07511
1013.50 0.0751
1013.60 0.07509
1013.70 0.07508
1013.80 0.07507
1013.90 0.07505
1014.00 0.07504
1014.10 0.07503
1014.20 0.07502
1014.30 0.07501
1014.40 0.07499
1014.50 0.07498
1014.60 0.07497
1014.70 0.07496
1014.80 0.07494
1014.90 0.07493
1015.00 0.07492
1015.10 0.0749
1015.20 0.07489
1015.30 0.07488
1015.40 0.07486
1015.50 0.07485
1015.60 0.07484
1015.70 0.07482
1015.80 0.07481
1015.90 0.0748
1016.00 0.07478
1016.10 0.07477
1016.20 0.07476
1016.30 0.07474
1016.40 0.07473
1016.50 0.07472
1016.60 0.0747
1016.70 0.07469
1016.80 0.07468
1016.90 0.07466
1017.00 0.07465
1017.10 0.07463
1017.20 0.07462
1017.30 0.0746
1017.40 0.07459
1017.50 0.07457
1017.60 0.07456
1017.70 0.07454
1017.80 0.07453
1017.90 0.07451
1018.00 0.0745
1018.10 0.07448
1018.20 0.07447
1018.30 0.07445
1018.40 0.07444
1018.50 0.07442
1018.60 0.07441
1018.70 0.07439
1018.80 0.07438
1018.90 0.07436
1019.00 0.07435
1019.10 0.07433
1019.20 0.07431
1019.30 0.0743
1019.40 0.07428
1019.50 0.07426
1019.60 0.07425
1019.70 0.07423
1019.80 0.07422
1019.90 0.0742
1020.00 0.07418
1020.10 0.07417
1020.20 0.07415
1020.30 0.07414
1020.40 0.07412
1020.50 0.0741
1020.60 0.07409
1020.70 0.07407
1020.80 0.07405
1020.90 0.07404
1021.00 0.07402
1021.10 0.074
1021.20 0.07398
1021.30 0.07397
1021.40 0.07395
1021.50 0.07393
1021.60 0.07391
1021.70 0.0739
1021.80 0.07388
1021.90 0.07386
1022.00 0.07385
1022.10 0.07383
1022.20 0.07381
1022.30 0.07379
1022.40 0.07377
1022.50 0.07375
1022.60 0.07374
1022.70 0.07372
1022.80 0.0737
1022.90 0.07368
1023.00 0.07366
1023.10 0.07364
1023.20 0.07362
1023.30 0.07361
1023.40 0.07359
1023.50 0.07357
1023.60 0.07355
1023.70 0.07353
1023.80 0.07351
1023.90 0.0735
1024.00 0.07348
1024.10 0.07346
1024.20 0.07344
1024.30 0.07342
1024.40 0.0734
1024.50 0.07339
1024.60 0.07337
1024.70 0.07335
1024.80 0.07333
1024.90 0.07331
1025.00 0.07329
1025.10 0.07327
1025.20 0.07325
1025.30 0.07323
1025.40 0.07321
1025.50 0.07319
1025.60 0.07317
1025.70 0.07315
1025.80 0.07313
1025.90 0.07311
1026.00 0.07309
1026.10 0.07307
1026.20 0.07305
1026.30 0.07303
1026.40 0.07301
1026.50 0.07299
1026.60 0.07297
1026.70 0.07296
1026.80 0.07294
1026.90 0.07292
1027.00 0.0729
1027.10 0.07288
1027.20 0.07285
1027.30 0.07283
1027.40 0.07281
1027.50 0.07279
1027.60 0.07277
1027.70 0.07275
1027.80 0.07273
1027.90 0.0727
1028.00 0.07268
1028.10 0.07266
1028.20 0.07264
1028.30 0.07262
1028.40 0.0726
1028.50 0.07258
1028.60 0.07256
1028.70 0.07254
1028.80 0.07251
1028.90 0.07249
1029.00 0.07247
1029.10 0.07245
1029.20 0.07243
1029.30 0.07241
1029.40 0.07239
1029.50 0.07237
1029.60 0.07234
1029.70 0.07232
1029.80 0.0723
1029.90 0.07228
1030.00 0.07226
1030.10 0.07224
1030.20 0.07222
1030.30 0.0722
1030.40 0.07218
1030.50 0.07215
1030.60 0.07213
1030.70 0.07211
1030.80 0.07209
1030.90 0.07207
1031.00 0.07205
1031.10 0.07203
1031.20 0.07201
1031.30 0.07199
1031.40 0.07196
1031.50 0.07194
1031.60 0.07192
1031.70 0.0719
1031.80 0.07188
1031.90 0.07186
1032.00 0.07184
1032.10 0.07182
1032.20 0.07179
1032.30 0.07177
1032.40 0.07175
1032.50 0.07172
1032.60 0.0717
1032.70 0.07168
1032.80 0.07166
1032.90 0.07163
1033.00 0.07161
1033.10 0.07159
1033.20 0.07156
1033.30 0.07154
1033.40 0.07152
1033.50 0.0715
1033.60 0.07147
1033.70 0.07145
1033.80 0.07143
1033.90 0.0714
1034.00 0.07138
1034.10 0.07136
1034.20 0.07134
1034.30 0.07131
1034.40 0.07129
1034.50 0.07127
1034.60 0.07125
1034.70 0.07122
1034.80 0.0712
1034.90 0.07118
1035.00 0.07115
1035.10 0.07113
1035.20 0.07111
1035.30 0.07109
1035.40 0.07106
1035.50 0.07104
1035.60 0.07102
1035.70 0.071
1035.80 0.07097
1035.90 0.07095
1036.00 0.07093
1036.10 0.0709
1036.20 0.07088
1036.30 0.07086
1036.40 0.07084
1036.50 0.07081
1036.60 0.07079
1036.70 0.07077
1036.80 0.07075
1036.90 0.07072
1037.00 0.0707
1037.10 0.07068
1037.20 0.07065
1037.30 0.07063
1037.40 0.0706
1037.50 0.07058
1037.60 0.07056
1037.70 0.07053
1037.80 0.07051
1037.90 0.07048
1038.00 0.07046
1038.10 0.07044
1038.20 0.07041
1038.30 0.07039
1038.40 0.07036
1038.50 0.07034
1038.60 0.07032
1038.70 0.07029
1038.80 0.07027
1038.90 0.07024
1039.00 0.07022
1039.10 0.0702
1039.20 0.07017
1039.30 0.07015
1039.40 0.07012
1039.50 0.0701
1039.60 0.07008
1039.70 0.07005
1039.80 0.07003
1039.90 0.07
1040.00 0.06998
1040.10 0.06996
1040.20 0.06993
1040.30 0.06991
1040.40 0.06988
1040.50 0.06986
1040.60 0.06984
1040.70 0.06981
1040.80 0.06979
1040.90 0.06977
1041.00 0.06974
1041.10 0.06972
1041.20 0.06969
1041.30 0.06967
1041.40 0.06965
1041.50 0.06962
1041.60 0.0696
1041.70 0.06957
1041.80 0.06955
1041.90 0.06953
1042.00 0.0695
1042.10 0.06948
1042.20 0.06945
1042.30 0.06943
1042.40 0.0694
1042.50 0.06938
1042.60 0.06935
1042.70 0.06933
1042.80 0.0693
1042.90 0.06928
1043.00 0.06925
1043.10 0.06923
1043.20 0.0692
1043.30 0.06918
1043.40 0.06915
1043.50 0.06913
1043.60 0.0691
1043.70 0.06908
1043.80 0.06905
1043.90 0.06903
1044.00 0.069
1044.10 0.06898
1044.20 0.06895
1044.30 0.06893
1044.40 0.0689
1044.50 0.06888
1044.60 0.06885
1044.70 0.06883
1044.80 0.0688
1044.90 0.06878
1045.00 0.06875
1045.10 0.06873
1045.20 0.0687
1045.30 0.06868
1045.40 0.06865
1045.50 0.06863
1045.60 0.0686
1045.70 0.06858
1045.80 0.06855
1045.90 0.06853
1046.00 0.0685
1046.10 0.06848
1046.20 0.06845
1046.30 0.06843
1046.40 0.0684
1046.50 0.06838
1046.60 0.06836
1046.70 0.06833
1046.80 0.06831
1046.90 0.06828
1047.00 0.06826
1047.10 0.06823
1047.20 0.0682
1047.30 0.06818
1047.40 0.06815
1047.50 0.06813
1047.60 0.0681
1047.70 0.06807
1047.80 0.06805
1047.90 0.06802
1048.00 0.068
1048.10 0.06797
1048.20 0.06794
1048.30 0.06792
1048.40 0.06789
1048.50 0.06787
1048.60 0.06784
1048.70 0.06781
1048.80 0.06779
1048.90 0.06776
1049.00 0.06774
1049.10 0.06771
1049.20 0.06768
1049.30 0.06766
1049.40 0.06763
1049.50 0.06761
1049.60 0.06758
1049.70 0.06755
1049.80 0.06753
1049.90 0.0675
1050.00 0.06748
1050.10 0.06745
1050.20 0.06743
1050.30 0.0674
1050.40 0.06737
1050.50 0.06735
1050.60 0.06732
1050.70 0.0673
1050.80 0.06727
1050.90 0.06725
1051.00 0.06722
1051.10 0.06719
1051.20 0.06717
1051.30 0.06714
1051.40 0.06712
1051.50 0.06709
1051.60 0.06707
1051.70 0.06704
1051.80 0.06701
1051.90 0.06699
1052.00 0.06696
1052.10 0.06694
1052.20 0.06691
1052.30 0.06688
1052.40 0.06685
1052.50 0.06683
1052.60 0.0668
1052.70 0.06677
1052.80 0.06675
1052.90 0.06672
1053.00 0.06669
1053.10 0.06666
1053.20 0.06664
1053.30 0.06661
1053.40 0.06658
1053.50 0.06656
1053.60 0.06653
1053.70 0.0665
1053.80 0.06648
1053.90 0.06645
1054.00 0.06642
1054.10 0.0664
1054.20 0.06637
1054.30 0.06634
1054.40 0.06631
1054.50 0.06629
1054.60 0.06626
1054.70 0.06623
1054.80 0.06621
1054.90 0.06618
1055.00 0.06615
1055.10 0.06613
1055.20 0.0661
1055.30 0.06607
1055.40 0.06605
1055.50 0.06602
1055.60 0.06599
1055.70 0.06597
1055.80 0.06594
1055.90 0.06591
1056.00 0.06589
1056.10 0.06586
1056.20 0.06583
1056.30 0.06581
1056.40 0.06578
1056.50 0.06575
1056.60 0.06573
1056.70 0.0657
1056.80 0.06567
1056.90 0.06565
1057.00 0.06562
1057.10 0.06559
1057.20 0.06556
1057.30 0.06553
1057.40 0.06551
1057.50 0.06548
1057.60 0.06545
1057.70 0.06542
1057.80 0.06539
1057.90 0.06536
1058.00 0.06534
1058.10 0.06531
1058.20 0.06528
1058.30 0.06525
1058.40 0.06522
1058.50 0.06519
1058.60 0.06517
1058.70 0.06514
1058.80 0.06511
1058.90 0.06508
1059.00 0.06505
1059.10 0.06503
1059.20 0.065
1059.30 0.06497
1059.40 0.06494
1059.50 0.06491
1059.60 0.06488
1059.70 0.06486
1059.80 0.06483
1059.90 0.0648
1060.00 0.06477
1060.10 0.06474
1060.20 0.06472
1060.30 0.06469
1060.40 0.06466
1060.50 0.06463
1060.60 0.0646
1060.70 0.06458
1060.80 0.06455
1060.90 0.06452
1061.00 0.06449
1061.10 0.06446
1061.20 0.06444
1061.30 0.06441
1061.40 0.06438
1061.50 0.06435
1061.60 0.06433
1061.70 0.0643
1061.80 0.06427
1061.90 0.06424
1062.00 0.06421
1062.10 0.06418
1062.20 0.06415
1062.30 0.06412
1062.40 0.06409
1062.50 0.06406
1062.60 0.06403
1062.70 0.064
1062.80 0.06397
1062.90 0.06394
1063.00 0.06391
1063.10 0.06388
1063.20 0.06385
1063.30 0.06383
1063.40 0.0638
1063.50 0.06377
1063.60 0.06374
1063.70 0.06371
1063.80 0.06368
1063.90 0.06365
1064.00 0.06362
1064.10 0.06359
1064.20 0.06356
1064.30 0.06353
1064.40 0.0635
1064.50 0.06347
1064.60 0.06344
1064.70 0.06341
1064.80 0.06338
1064.90 0.06335
1065.00 0.06332
1065.10 0.06329
1065.20 0.06326
1065.30 0.06323
1065.40 0.0632
1065.50 0.06317
1065.60 0.06314
1065.70 0.06311
1065.80 0.06308
1065.90 0.06305
1066.00 0.06302
1066.10 0.06299
1066.20 0.06296
1066.30 0.06294
1066.40 0.06291
1066.50 0.06288
1066.60 0.06285
1066.70 0.06282
1066.80 0.06279
1066.90 0.06276
1067.00 0.06273
1067.10 0.0627
1067.20 0.06266
1067.30 0.06263
1067.40 0.0626
1067.50 0.06257
1067.60 0.06254
1067.70 0.0625
1067.80 0.06247
1067.90 0.06244
1068.00 0.06241
1068.10 0.06238
1068.20 0.06234
1068.30 0.06231
1068.40 0.06228
1068.50 0.06225
1068.60 0.06222
1068.70 0.06218
1068.80 0.06215
1068.90 0.06212
1069.00 0.06209
1069.10 0.06206
1069.20 0.06202
1069.30 0.06199
1069.40 0.06196
1069.50 0.06193
1069.60 0.0619
1069.70 0.06186
1069.80 0.06183
1069.90 0.0618
1070.00 0.06177
1070.10 0.06174
1070.20 0.06171
1070.30 0.06167
1070.40 0.06164
1070.50 0.06161
1070.60 0.06158
1070.70 0.06155
1070.80 0.06152
1070.90 0.06148
1071.00 0.06145
1071.10 0.06142
1071.20 0.06139
1071.30 0.06136
1071.40 0.06133
1071.50 0.06129
1071.60 0.06126
1071.70 0.06123
1071.80 0.0612
1071.90 0.06117
1072.00 0.06114
1072.10 0.0611
1072.20 0.06107
1072.30 0.06103
1072.40 0.061
1072.50 0.06097
1072.60 0.06093
1072.70 0.0609
1072.80 0.06087
1072.90 0.06083
1073.00 0.0608
1073.10 0.06077
1073.20 0.06073
1073.30 0.0607
1073.40 0.06066
1073.50 0.06063
1073.60 0.0606
1073.70 0.06056
1073.80 0.06052
1073.90 0.06049
1074.00 0.06045
1074.10 0.06042
1074.20 0.06038
1074.30 0.06035
1074.40 0.06031
1074.50 0.06028
1074.60 0.06024
1074.70 0.06021
1074.80 0.06017
1074.90 0.06013
1075.00 0.0601
1075.10 0.06006
1075.20 0.06003
1075.30 0.05999
1075.40 0.05996
1075.50 0.05992
1075.60 0.05989
1075.70 0.05985
1075.80 0.05982
1075.90 0.05978
1076.00 0.05975
1076.10 0.05971
1076.20 0.05968
1076.30 0.05964
1076.40 0.05961
1076.50 0.05957
1076.60 0.05954
1076.70 0.0595
1076.80 0.05947
1076.90 0.05943
1077.00 0.0594
1077.10 0.05936
1077.20 0.05932
1077.30 0.05928
1077.40 0.05925
1077.50 0.05921
1077.60 0.05917
1077.70 0.05914
1077.80 0.0591
1077.90 0.05906
1078.00 0.05902
1078.10 0.05898
1078.20 0.05895
1078.30 0.05891
1078.40 0.05887
1078.50 0.05883
1078.60 0.05879
1078.70 0.05876
1078.80 0.05872
1078.90 0.05868
1079.00 0.05864
1079.10 0.05861
1079.20 0.05857
1079.30 0.05853
1079.40 0.05849
1079.50 0.05845
1079.60 0.05841
1079.70 0.05837
1079.80 0.05833
1079.90 0.0583
1080.00 0.05826
1080.10 0.05822
1080.20 0.05818
1080.30 0.05814
1080.40 0.0581
1080.50 0.05806
1080.60 0.05802
1080.70 0.05798
1080.80 0.05794
1080.90 0.0579
1081.00 0.05786
1081.10 0.05782
1081.20 0.05778
1081.30 0.05774
1081.40 0.0577
1081.50 0.05766
1081.60 0.05762
1081.70 0.05758
1081.80 0.05754
1081.90 0.0575
1082.00 0.05746
1082.10 0.05741
1082.20 0.05737
1082.30 0.05733
1082.40 0.05729
1082.50 0.05725
1082.60 0.0572
1082.70 0.05716
1082.80 0.05712
1082.90 0.05708
1083.00 0.05704
1083.10 0.05699
1083.20 0.05695
1083.30 0.05691
1083.40 0.05687
1083.50 0.05683
1083.60 0.05678
1083.70 0.05674
1083.80 0.05669
1083.90 0.05665
1084.00 0.05661
1084.10 0.05656
1084.20 0.05652
1084.30 0.05648
1084.40 0.05643
1084.50 0.05639
1084.60 0.05634
1084.70 0.0563
1084.80 0.05625
1084.90 0.05621
1085.00 0.05616
1085.10 0.05612
1085.20 0.05607
1085.30 0.05603
1085.40 0.05598
1085.50 0.05593
1085.60 0.05589
1085.70 0.05584
1085.80 0.0558
1085.90 0.05575
1086.00 0.05571
1086.10 0.05566
1086.20 0.05562
1086.30 0.05557
1086.40 0.05553
1086.50 0.05548
1086.60 0.05543
1086.70 0.05538
1086.80 0.05534
1086.90 0.05529
1087.00 0.05524
1087.10 0.05519
1087.20 0.05514
1087.30 0.05509
1087.40 0.05505
1087.50 0.055
1087.60 0.05495
1087.70 0.0549
1087.80 0.05485
1087.90 0.0548
1088.00 0.05475
1088.10 0.0547
1088.20 0.05465
1088.30 0.0546
1088.40 0.05455
1088.50 0.0545
1088.60 0.05445
1088.70 0.0544
1088.80 0.05434
1088.90 0.05429
1089.00 0.05423
1089.10 0.05418
1089.20 0.05413
1089.30 0.05407
1089.40 0.05402
1089.50 0.05397
1089.60 0.05391
1089.70 0.05386
1089.80 0.05381
1089.90 0.05375
1090.00 0.0537
1090.10 0.05365
1090.20 0.05359
1090.30 0.05354
1090.40 0.05349
1090.50 0.05343
1090.60 0.05337
1090.70 0.05331
1090.80 0.05325
1090.90 0.05319
1091.00 0.05313
1091.10 0.05307
1091.20 0.05301
1091.30 0.05295
1091.40 0.05289
1091.50 0.05283
1091.60 0.05277
1091.70 0.05271
1091.80 0.05265
1091.90 0.05259
1092.00 0.05252
1092.10 0.05246
1092.20 0.05239
1092.30 0.05232
1092.40 0.05225
1092.50 0.05218
1092.60 0.05211
1092.70 0.05204
1092.80 0.05196
1092.90 0.05189
1093.00 0.05181
1093.10 0.05173
1093.20 0.05165
1093.30 0.05157
1093.40 0.05149
1093.50 0.0514
1093.60 0.05132
1093.70 0.05126
1093.80 0.05122
1093.90 0.05122
1094.00 0.05127
1094.10 0.05133
1094.20 0.05138
1094.30 0.05144
1094.40 0.05148
1094.50 0.05153
1094.60 0.05157
1094.70 0.05161
1094.80 0.05166
1094.90 0.0517
1095.00 0.05174
1095.10 0.05177
1095.20 0.0518
1095.30 0.05184
1095.40 0.05187
1095.50 0.0519
1095.60 0.05193
1095.70 0.05196
1095.80 0.05199
1095.90 0.05202
1096.00 0.05205
1096.10 0.05208
1096.20 0.05211
1096.30 0.05214
1096.40 0.05217
1096.50 0.0522
1096.60 0.05222
1096.70 0.05225
1096.80 0.05227
1096.90 0.05229
1097.00 0.05232
1097.10 0.05233
1097.20 0.05235
1097.30 0.05237
1097.40 0.05239
1097.50 0.05241
1097.60 0.05243
1097.70 0.05245
1097.80 0.05247
1097.90 0.05248
1098.00 0.0525
1098.10 0.05252
1098.20 0.05254
1098.30 0.05256
1098.40 0.05258
1098.50 0.0526
1098.60 0.05261
1098.70 0.05262
1098.80 0.05264
1098.90 0.05265
1099.00 0.05266
1099.10 0.05268
1099.20 0.05269
1099.30 0.0527
1099.40 0.05272
1099.50 0.05273
1099.60 0.05274
1099.70 0.05276
1099.80 0.05277
1099.90 0.05279
1100.00 0.0528
1100.10 0.05281
1100.20 0.05283
1100.30 0.05284
1100.40 0.05285
1100.50 0.05286
1100.60 0.05287
1100.70 0.05288
1100.80 0.05289
1100.90 0.0529
1101.00 0.05291
1101.10 0.05292
1101.20 0.05293
1101.30 0.05294
1101.40 0.05295
1101.50 0.05296
1101.60 0.05297
1101.70 0.05298
1101.80 0.05299
1101.90 0.053
1102.00 0.05301
1102.10 0.05302
1102.20 0.05302
1102.30 0.05303
1102.40 0.05304
1102.50 0.05304
1102.60 0.05305
1102.70 0.05306
1102.80 0.05306
1102.90 0.05307
1103.00 0.05308
1103.10 0.05308
1103.20 0.05309
1103.30 0.0531
1103.40 0.0531
1103.50 0.05311
1103.60 0.05311
1103.70 0.05312
1103.80 0.05312
1103.90 0.05312
1104.00 0.05313
1104.10 0.05313
1104.20 0.05314
1104.30 0.05314
1104.40 0.05314
1104.50 0.05315
1104.60 0.05315
1104.70 0.05316
1104.80 0.05316
1104.90 0.05316
1105.00 0.05317
1105.10 0.05317
1105.20 0.05318
1105.30 0.05318
1105.40 0.05318
1105.50 0.05319
1105.60 0.05319
1105.70 0.05319
1105.80 0.05319
1105.90 0.05319
1106.00 0.0532
1106.10 0.0532
1106.20 0.0532
1106.30 0.0532
1106.40 0.0532
1106.50 0.0532
1106.60 0.05321
1106.70 0.05321
1106.80 0.05321
1106.90 0.05321
1107.00 0.05321
1107.10 0.05321
1107.20 0.05321
1107.30 0.05321
1107.40 0.05321
1107.50 0.05321
1107.60 0.05321
1107.70 0.05321
1107.80 0.05321
1107.90 0.05321
1108.00 0.05321
1108.10 0.05321
1108.20 0.05321
1108.30 0.05321
1108.40 0.0532
1108.50 0.0532
1108.60 0.0532
1108.70 0.0532
1108.80 0.0532
1108.90 0.0532
1109.00 0.0532
1109.10 0.0532
1109.20 0.0532
1109.30 0.0532
1109.40 0.05319
1109.50 0.05319
1109.60 0.05319
1109.70 0.05319
1109.80 0.05318
1109.90 0.05318
1110.00 0.05318
1110.10 0.05317
1110.20 0.05317
1110.30 0.05317
1110.40 0.05316
1110.50 0.05316
1110.60 0.05316
1110.70 0.05315
1110.80 0.05315
1110.90 0.05315
1111.00 0.05314
1111.10 0.05314
1111.20 0.05314
1111.30 0.05313
1111.40 0.05313
1111.50 0.05313
1111.60 0.05312
1111.70 0.05312
1111.80 0.05312
1111.90 0.05311
1112.00 0.05311
1112.10 0.0531
1112.20 0.0531
1112.30 0.05309
1112.40 0.05309
1112.50 0.05308
1112.60 0.05308
1112.70 0.05307
1112.80 0.05307
1112.90 0.05306
1113.00 0.05306
1113.10 0.05305
1113.20 0.05305
1113.30 0.05304
1113.40 0.05304
1113.50 0.05303
1113.60 0.05302
1113.70 0.05302
1113.80 0.05301
1113.90 0.053
1114.00 0.05299
1114.10 0.05299
1114.20 0.05298
1114.30 0.05297
1114.40 0.05297
1114.50 0.05296
1114.60 0.05295
1114.70 0.05295
1114.80 0.05294
1114.90 0.05293
1115.00 0.05292
1115.10 0.05292
1115.20 0.05291
1115.30 0.0529
1115.40 0.0529
1115.50 0.05289
1115.60 0.05288
1115.70 0.05287
1115.80 0.05287
1115.90 0.05286
1116.00 0.05285
1116.10 0.05285
1116.20 0.05284
1116.30 0.05283
1116.40 0.05283
1116.50 0.05282
1116.60 0.05281
1116.70 0.0528
1116.80 0.0528
1116.90 0.05279
1117.00 0.05278
1117.10 0.05277
1117.20 0.05276
1117.30 0.05275
1117.40 0.05274
1117.50 0.05273
1117.60 0.05273
1117.70 0.05272
1117.80 0.05271
1117.90 0.0527
1118.00 0.05269
1118.10 0.05268
1118.20 0.05267
1118.30 0.05266
1118.40 0.05265
1118.50 0.05264
1118.60 0.05263
1118.70 0.05262
1118.80 0.05261
1118.90 0.0526
1119.00 0.05259
1119.10 0.05258
1119.20 0.05257
1119.30 0.05256
1119.40 0.05255
1119.50 0.05254
1119.60 0.05253
1119.70 0.05252
1119.80 0.05251
1119.90 0.0525
1120.00 0.05249
1120.10 0.05248
1120.20 0.05248
1120.30 0.05247
1120.40 0.05246
1120.50 0.05245
1120.60 0.05244
1120.70 0.05243
1120.80 0.05242
1120.90 0.05241
1121.00 0.0524
1121.10 0.05239
1121.20 0.05238
1121.30 0.05237
1121.40 0.05236
1121.50 0.05235
1121.60 0.05234
1121.70 0.05233
1121.80 0.05232
1121.90 0.05231
1122.00 0.0523
1122.10 0.05229
1122.20 0.05228
1122.30 0.05227
1122.40 0.05226
1122.50 0.05224
1122.60 0.05223
1122.70 0.05222
1122.80 0.05221
1122.90 0.0522
1123.00 0.05219
1123.10 0.05217
1123.20 0.05216
1123.30 0.05215
1123.40 0.05214
1123.50 0.05213
1123.60 0.05211
1123.70 0.0521
1123.80 0.05209
1123.90 0.05208
1124.00 0.05207
1124.10 0.05206
1124.20 0.05204
1124.30 0.05203
1124.40 0.05202
1124.50 0.05201
1124.60 0.052
1124.70 0.05199
1124.80 0.05197
1124.90 0.05196
1125.00 0.05195
1125.10 0.05194
1125.20 0.05193
1125.30 0.05191
1125.40 0.0519
1125.50 0.05189
1125.60 0.05188
1125.70 0.05187
1125.80 0.05186
1125.90 0.05184
1126.00 0.05183
1126.10 0.05182
1126.20 0.05181
1126.30 0.0518
1126.40 0.05179
1126.50 0.05177
1126.60 0.05176
1126.70 0.05175
1126.80 0.05174
1126.90 0.05173
1127.00 0.05172
1127.10 0.0517
1127.20 0.05169
1127.30 0.05168
1127.40 0.05166
1127.50 0.05165
1127.60 0.05164
1127.70 0.05162
1127.80 0.05161
1127.90 0.0516
1128.00 0.05158
1128.10 0.05157
1128.20 0.05156
1128.30 0.05154
1128.40 0.05153
1128.50 0.05152
1128.60 0.0515
1128.70 0.05149
1128.80 0.05148
1128.90 0.05146
1129.00 0.05145
1129.10 0.05144
1129.20 0.05143
1129.30 0.05141
1129.40 0.0514
1129.50 0.05139
1129.60 0.05137
1129.70 0.05136
1129.80 0.05135
1129.90 0.05133
1130.00 0.05132
1130.10 0.05131
1130.20 0.05129
1130.30 0.05128
1130.40 0.05127
1130.50 0.05125
1130.60 0.05124
1130.70 0.05123
1130.80 0.05122
1130.90 0.0512
1131.00 0.05119
1131.10 0.05118
1131.20 0.05116
1131.30 0.05115
1131.40 0.05114
1131.50 0.05112
1131.60 0.05111
1131.70 0.0511
1131.80 0.05108
1131.90 0.05107
1132.00 0.05106
1132.10 0.05104
1132.20 0.05103
1132.30 0.05102
1132.40 0.051
1132.50 0.05099
1132.60 0.05097
1132.70 0.05096
1132.80 0.05094
1132.90 0.05093
1133.00 0.05092
1133.10 0.0509
1133.20 0.05089
1133.30 0.05087
1133.40 0.05086
1133.50 0.05085
1133.60 0.05083
1133.70 0.05082
1133.80 0.0508
1133.90 0.05079
1134.00 0.05078
1134.10 0.05076
1134.20 0.05075
1134.30 0.05073
1134.40 0.05072
1134.50 0.0507
1134.60 0.05069
1134.70 0.05068
1134.80 0.05066
1134.90 0.05065
1135.00 0.05063
1135.10 0.05062
1135.20 0.05061
1135.30 0.05059
1135.40 0.05058
1135.50 0.05056
1135.60 0.05055
1135.70 0.05054
1135.80 0.05052
1135.90 0.05051
1136.00 0.05049
1136.10 0.05048
1136.20 0.05047
1136.30 0.05045
1136.40 0.05044
1136.50 0.05042
1136.60 0.05041
1136.70 0.0504
1136.80 0.05038
1136.90 0.05037
1137.00 0.05035
1137.10 0.05034
1137.20 0.05032
1137.30 0.05031
1137.40 0.0503
1137.50 0.05028
1137.60 0.05027
1137.70 0.05025
1137.80 0.05024
1137.90 0.05022
1138.00 0.05021
1138.10 0.05019
1138.20 0.05018
1138.30 0.05016
1138.40 0.05015
1138.50 0.05013
1138.60 0.05012
1138.70 0.0501
1138.80 0.05009
1138.90 0.05007
1139.00 0.05006
1139.10 0.05005
1139.20 0.05003
1139.30 0.05002
1139.40 0.05
1139.50 0.04999
1139.60 0.04997
1139.70 0.04996
1139.80 0.04994
1139.90 0.04993
1140.00 0.04991
1140.10 0.0499
1140.20 0.04988
1140.30 0.04987
1140.40 0.04986
1140.50 0.04984
1140.60 0.04983
1140.70 0.04981
1140.80 0.0498
1140.90 0.04978
1141.00 0.04977
1141.10 0.04975
1141.20 0.04974
1141.30 0.04972
1141.40 0.04971
1141.50 0.04969
1141.60 0.04968
1141.70 0.04967
1141.80 0.04965
1141.90 0.04964
1142.00 0.04962
1142.10 0.04961
1142.20 0.04959
1142.30 0.04958
1142.40 0.04956
1142.50 0.04955
1142.60 0.04953
1142.70 0.04952
1142.80 0.0495
1142.90 0.04949
1143.00 0.04947
1143.10 0.04946
1143.20 0.04944
1143.30 0.04943
1143.40 0.04941
1143.50 0.0494
1143.60 0.04938
1143.70 0.04937
1143.80 0.04935
1143.90 0.04934
1144.00 0.04932
1144.10 0.04931
1144.20 0.04929
1144.30 0.04928
1144.40 0.04926
1144.50 0.04925
1144.60 0.04923
1144.70 0.04922
1144.80 0.0492
1144.90 0.04919
1145.00 0.04917
1145.10 0.04916
1145.20 0.04914
1145.30 0.04913
1145.40 0.04911
1145.50 0.0491
1145.60 0.04908
1145.70 0.04907
1145.80 0.04905
1145.90 0.04904
1146.00 0.04902
1146.10 0.04901
1146.20 0.04899
1146.30 0.04898
1146.40 0.04896
1146.50 0.04895
1146.60 0.04893
1146.70 0.04892
1146.80 0.0489
1146.90 0.04889
1147.00 0.04887
1147.10 0.04886
1147.20 0.04884
1147.30 0.04883
1147.40 0.04881
1147.50 0.0488
1147.60 0.04878
1147.70 0.04877
1147.80 0.04875
1147.90 0.04874
1148.00 0.04872
1148.10 0.04871
1148.20 0.04869
1148.30 0.04868
1148.40 0.04866
1148.50 0.04865
1148.60 0.04863
1148.70 0.04862
1148.80 0.0486
1148.90 0.04859
1149.00 0.04857
1149.10 0.04856
1149.20 0.04854
1149.30 0.04853
1149.40 0.04851
1149.50 0.0485
1149.60 0.04848
1149.70 0.04847
1149.80 0.04845
1149.90 0.04844
1150.00 0.04842
1150.10 0.04841
1150.20 0.04839
1150.30 0.04838
1150.40 0.04836
1150.50 0.04835
1150.60 0.04833
1150.70 0.04832
1150.80 0.0483
1150.90 0.04828
1151.00 0.04827
1151.10 0.04825
1151.20 0.04824
1151.30 0.04822
1151.40 0.04821
1151.50 0.04819
1151.60 0.04818
1151.70 0.04816
1151.80 0.04815
1151.90 0.04813
1152.00 0.04812
1152.10 0.0481
1152.20 0.04809
1152.30 0.04807
1152.40 0.04806
1152.50 0.04804
1152.60 0.04803
1152.70 0.04801
1152.80 0.048
1152.90 0.04798
1153.00 0.04797
1153.10 0.04795
1153.20 0.04794
1153.30 0.04792
1153.40 0.04791
1153.50 0.04789
1153.60 0.04788
1153.70 0.04786
1153.80 0.04785
1153.90 0.04783
1154.00 0.04782
1154.10 0.0478
1154.20 0.04779
1154.30 0.04777
1154.40 0.04776
1154.50 0.04774
1154.60 0.04773
1154.70 0.04771
1154.80 0.0477
1154.90 0.04768
1155.00 0.04766
1155.10 0.04765
1155.20 0.04763
1155.30 0.04762
1155.40 0.0476
1155.50 0.04759
1155.60 0.04757
1155.70 0.04756
1155.80 0.04754
1155.90 0.04753
1156.00 0.04751
1156.10 0.0475
1156.20 0.04748
1156.30 0.04747
1156.40 0.04745
1156.50 0.04744
1156.60 0.04742
1156.70 0.04741
1156.80 0.04739
1156.90 0.04738
1157.00 0.04736
1157.10 0.04735
1157.20 0.04733
1157.30 0.04732
1157.40 0.0473
1157.50 0.04729
1157.60 0.04727
1157.70 0.04726
1157.80 0.04724
1157.90 0.04723
1158.00 0.04721
1158.10 0.0472
1158.20 0.04718
1158.30 0.04717
1158.40 0.04715
1158.50 0.04714
1158.60 0.04712
1158.70 0.04711
1158.80 0.04709
1158.90 0.04708
1159.00 0.04706
1159.10 0.04705
1159.20 0.04703
1159.30 0.04702
1159.40 0.047
1159.50 0.04699
1159.60 0.04697
1159.70 0.04696
1159.80 0.04694
1159.90 0.04693
1160.00 0.04691
1160.10 0.0469
1160.20 0.04688
1160.30 0.04687
1160.40 0.04685
1160.50 0.04684
1160.60 0.04682
1160.70 0.04681
1160.80 0.04679
1160.90 0.04678
1161.00 0.04676
1161.10 0.04675
1161.20 0.04673
1161.30 0.04672
1161.40 0.0467
1161.50 0.04669
1161.60 0.04667
1161.70 0.04666
1161.80 0.04664
1161.90 0.04663
1162.00 0.04661
1162.10 0.0466
1162.20 0.04658
1162.30 0.04657
1162.40 0.04655
1162.50 0.04654
1162.60 0.04652
1162.70 0.04651
1162.80 0.04649
1162.90 0.04648
1163.00 0.04646
1163.10 0.04645
1163.20 0.04643
1163.30 0.04642
1163.40 0.0464
1163.50 0.04639
1163.60 0.04637
1163.70 0.04636
1163.80 0.04634
1163.90 0.04633
1164.00 0.04631
1164.10 0.0463
1164.20 0.04628
1164.30 0.04627
1164.40 0.04625
1164.50 0.04624
1164.60 0.04622
1164.70 0.04621
1164.80 0.04619
1164.90 0.04618
1165.00 0.04616
1165.10 0.04615
1165.20 0.04613
1165.30 0.04612
1165.40 0.0461
1165.50 0.04609
1165.60 0.04607
1165.70 0.04606
1165.80 0.04604
1165.90 0.04603
1166.00 0.04601
1166.10 0.046
1166.20 0.04598
1166.30 0.04597
1166.40 0.04595
1166.50 0.04594
1166.60 0.04592
1166.70 0.04591
1166.80 0.04589
1166.90 0.04588
1167.00 0.04586
1167.10 0.04585
1167.20 0.04583
1167.30 0.04582
1167.40 0.0458
1167.50 0.04579
1167.60 0.04577
1167.70 0.04576
1167.80 0.04574
1167.90 0.04573
1168.00 0.04571
1168.10 0.0457
1168.20 0.04569
1168.30 0.04567
1168.40 0.04566
1168.50 0.04564
1168.60 0.04563
1168.70 0.04561
1168.80 0.0456
1168.90 0.04558
1169.00 0.04557
1169.10 0.04555
1169.20 0.04554
1169.30 0.04552
1169.40 0.04551
1169.50 0.04549
1169.60 0.04548
1169.70 0.04546
1169.80 0.04545
1169.90 0.04543
1170.00 0.04542
1170.10 0.0454
1170.20 0.04539
1170.30 0.04537
1170.40 0.04536
1170.50 0.04534
1170.60 0.04533
1170.70 0.04532
1170.80 0.0453
1170.90 0.04529
1171.00 0.04527
1171.10 0.04526
1171.20 0.04524
1171.30 0.04523
1171.40 0.04521
1171.50 0.0452
1171.60 0.04518
1171.70 0.04517
1171.80 0.04515
1171.90 0.04514
1172.00 0.04512
1172.10 0.04511
1172.20 0.04509
1172.30 0.04508
1172.40 0.04506
1172.50 0.04505
1172.60 0.04504
1172.70 0.04502
1172.80 0.04501
1172.90 0.04499
1173.00 0.04498
1173.10 0.04496
1173.20 0.04495
1173.30 0.04493
1173.40 0.04492
1173.50 0.0449
1173.60 0.04489
1173.70 0.04487
1173.80 0.04486
1173.90 0.04484
1174.00 0.04483
1174.10 0.04482
1174.20 0.0448
1174.30 0.04479
1174.40 0.04477
1174.50 0.04476
1174.60 0.04474
1174.70 0.04473
1174.80 0.04471
1174.90 0.0447
1175.00 0.04468
1175.10 0.04467
1175.20 0.04465
1175.30 0.04464
1175.40 0.04463
1175.50 0.04461
1175.60 0.0446
1175.70 0.04458
1175.80 0.04457
1175.90 0.04455
1176.00 0.04454
1176.10 0.04452
1176.20 0.04451
1176.30 0.04449
1176.40 0.04448
1176.50 0.04447
1176.60 0.04445
1176.70 0.04444
1176.80 0.04442
1176.90 0.04441
1177.00 0.04439
1177.10 0.04438
1177.20 0.04436
1177.30 0.04435
1177.40 0.04433
1177.50 0.04432
1177.60 0.04431
1177.70 0.04429
1177.80 0.04428
1177.90 0.04426
1178.00 0.04425
1178.10 0.04423
1178.20 0.04422
1178.30 0.0442
1178.40 0.04419
1178.50 0.04417
1178.60 0.04416
1178.70 0.04415
1178.80 0.04413
1178.90 0.04412
1179.00 0.0441
1179.10 0.04409
1179.20 0.04407
1179.30 0.04406
1179.40 0.04404
1179.50 0.04403
1179.60 0.04402
1179.70 0.044
1179.80 0.04399
1179.90 0.04397
1180.00 0.04396
1180.10 0.04394
1180.20 0.04393
1180.30 0.04391
1180.40 0.0439
1180.50 0.04389
1180.60 0.04387
1180.70 0.04386
1180.80 0.04384
1180.90 0.04383
1181.00 0.04381
1181.10 0.0438
1181.20 0.04379
1181.30 0.04377
1181.40 0.04376
1181.50 0.04374
1181.60 0.04373
1181.70 0.04371
1181.80 0.0437
1181.90 0.04368
1182.00 0.04367
1182.10 0.04366
1182.20 0.04364
1182.30 0.04363
1182.40 0.04361
1182.50 0.0436
1182.60 0.04358
1182.70 0.04357
1182.80 0.04356
1182.90 0.04354
1183.00 0.04353
1183.10 0.04351
1183.20 0.0435
1183.30 0.04348
1183.40 0.04347
1183.50 0.04346
1183.60 0.04344
1183.70 0.04343
1183.80 0.04341
1183.90 0.0434
1184.00 0.04338
1184.10 0.04337
1184.20 0.04336
1184.30 0.04334
1184.40 0.04333
1184.50 0.04331
1184.60 0.0433
1184.70 0.04328
1184.80 0.04327
1184.90 0.04326
1185.00 0.04324
1185.10 0.04323
1185.20 0.04321
1185.30 0.0432
1185.40 0.04318
1185.50 0.04317
1185.60 0.04316
1185.70 0.04314
1185.80 0.04313
1185.90 0.04311
1186.00 0.0431
1186.10 0.04309
1186.20 0.04307
1186.30 0.04306
1186.40 0.04304
1186.50 0.04303
1186.60 0.04301
1186.70 0.043
1186.80 0.04299
1186.90 0.04297
1187.00 0.04296
1187.10 0.04294
1187.20 0.04293
1187.30 0.04291
1187.40 0.0429
1187.50 0.04289
1187.60 0.04287
1187.70 0.04286
1187.80 0.04284
1187.90 0.04283
1188.00 0.04282
1188.10 0.0428
1188.20 0.04279
1188.30 0.04277
1188.40 0.04276
1188.50 0.04275
1188.60 0.04273
1188.70 0.04272
1188.80 0.0427
1188.90 0.04269
1189.00 0.04267
1189.10 0.04266
1189.20 0.04265
1189.30 0.04263
1189.40 0.04262
1189.50 0.0426
1189.60 0.04259
1189.70 0.04258
1189.80 0.04256
1189.90 0.04255
1190.00 0.04253
1190.10 0.04252
1190.20 0.04251
1190.30 0.04249
1190.40 0.04248
1190.50 0.04246
1190.60 0.04245
1190.70 0.04244
1190.80 0.04242
1190.90 0.04241
1191.00 0.04239
1191.10 0.04238
1191.20 0.04237
1191.30 0.04235
1191.40 0.04234
1191.50 0.04232
1191.60 0.04231
1191.70 0.0423
1191.80 0.04228
1191.90 0.04227
1192.00 0.04225
1192.10 0.04224
1192.20 0.04223
1192.30 0.04221
1192.40 0.0422
1192.50 0.04218
1192.60 0.04217
1192.70 0.04216
1192.80 0.04214
1192.90 0.04213
1193.00 0.04211
1193.10 0.0421
1193.20 0.04209
1193.30 0.04207
1193.40 0.04206
1193.50 0.04204
1193.60 0.04203
1193.70 0.04202
1193.80 0.042
1193.90 0.04199
1194.00 0.04197
1194.10 0.04196
1194.20 0.04195
1194.30 0.04193
1194.40 0.04192
1194.50 0.04191
1194.60 0.04189
1194.70 0.04188
1194.80 0.04186
1194.90 0.04185
1195.00 0.04184
1195.10 0.04182
1195.20 0.04181
1195.30 0.04179
1195.40 0.04178
1195.50 0.04177
1195.60 0.04175
1195.70 0.04174
1195.80 0.04173
1195.90 0.04171
1196.00 0.0417
1196.10 0.04168
1196.20 0.04167
1196.30 0.04166
1196.40 0.04164
1196.50 0.04163
1196.60 0.04161
1196.70 0.0416
1196.80 0.04159
1196.90 0.04157
1197.00 0.04156
1197.10 0.04155
1197.20 0.04153
1197.30 0.04152
1197.40 0.0415
1197.50 0.04149
1197.60 0.04148
1197.70 0.04146
1197.80 0.04145
1197.90 0.04143
1198.00 0.04142
1198.10 0.04141
1198.20 0.04139
1198.30 0.04138
1198.40 0.04137
1198.50 0.04135
1198.60 0.04134
1198.70 0.04132
1198.80 0.04131
1198.90 0.0413
1199.00 0.04128
1199.10 0.04127
1199.20 0.04126
1199.30 0.04124
1199.40 0.04123
1199.50 0.04121
1199.60 0.0412
1199.70 0.04119
1199.80 0.04117
1199.90 0.04116
1200.00 0
