# Version 2.1 - nm, norm@500 to 1, cut digits, bergeron_35000_70.dat_35000
# Wavelength(nm)  Flambda(ergs/cm^s/s/nm)
300.00 5.499
300.10 5.493
300.20 5.486
300.30 5.48
300.40 5.473
300.50 5.467
300.60 5.461
300.70 5.454
300.80 5.448
300.90 5.442
301.00 5.436
301.10 5.429
301.20 5.423
301.30 5.417
301.40 5.41
301.50 5.404
301.60 5.398
301.70 5.392
301.80 5.385
301.90 5.379
302.00 5.373
302.10 5.367
302.20 5.361
302.30 5.354
302.40 5.348
302.50 5.342
302.60 5.336
302.70 5.33
302.80 5.324
302.90 5.318
303.00 5.311
303.10 5.305
303.20 5.299
303.30 5.293
303.40 5.287
303.50 5.281
303.60 5.275
303.70 5.269
303.80 5.263
303.90 5.257
304.00 5.251
304.10 5.245
304.20 5.239
304.30 5.233
304.40 5.227
304.50 5.221
304.60 5.215
304.70 5.209
304.80 5.203
304.90 5.197
305.00 5.191
305.10 5.185
305.20 5.179
305.30 5.173
305.40 5.167
305.50 5.161
305.60 5.155
305.70 5.15
305.80 5.144
305.90 5.138
306.00 5.132
306.10 5.126
306.20 5.12
306.30 5.114
306.40 5.109
306.50 5.103
306.60 5.097
306.70 5.091
306.80 5.085
306.90 5.08
307.00 5.074
307.10 5.068
307.20 5.062
307.30 5.057
307.40 5.051
307.50 5.045
307.60 5.039
307.70 5.034
307.80 5.028
307.90 5.022
308.00 5.016
308.10 5.011
308.20 5.005
308.30 4.999
308.40 4.994
308.50 4.988
308.60 4.982
308.70 4.977
308.80 4.971
308.90 4.966
309.00 4.96
309.10 4.954
309.20 4.949
309.30 4.943
309.40 4.938
309.50 4.932
309.60 4.926
309.70 4.921
309.80 4.915
309.90 4.91
310.00 4.904
310.10 4.899
310.20 4.893
310.30 4.888
310.40 4.882
310.50 4.877
310.60 4.871
310.70 4.866
310.80 4.86
310.90 4.855
311.00 4.849
311.10 4.844
311.20 4.838
311.30 4.833
311.40 4.828
311.50 4.822
311.60 4.817
311.70 4.811
311.80 4.806
311.90 4.801
312.00 4.795
312.10 4.79
312.20 4.785
312.30 4.779
312.40 4.774
312.50 4.768
312.60 4.763
312.70 4.758
312.80 4.752
312.90 4.747
313.00 4.742
313.10 4.737
313.20 4.731
313.30 4.726
313.40 4.721
313.50 4.715
313.60 4.71
313.70 4.705
313.80 4.7
313.90 4.694
314.00 4.689
314.10 4.684
314.20 4.679
314.30 4.674
314.40 4.668
314.50 4.663
314.60 4.658
314.70 4.653
314.80 4.648
314.90 4.642
315.00 4.637
315.10 4.632
315.20 4.627
315.30 4.622
315.40 4.617
315.50 4.612
315.60 4.607
315.70 4.601
315.80 4.596
315.90 4.591
316.00 4.586
316.10 4.581
316.20 4.576
316.30 4.571
316.40 4.566
316.50 4.561
316.60 4.556
316.70 4.551
316.80 4.546
316.90 4.541
317.00 4.536
317.10 4.531
317.20 4.526
317.30 4.521
317.40 4.516
317.50 4.511
317.60 4.506
317.70 4.501
317.80 4.496
317.90 4.491
318.00 4.486
318.10 4.481
318.20 4.476
318.30 4.471
318.40 4.466
318.50 4.461
318.60 4.456
318.70 4.451
318.80 4.447
318.90 4.442
319.00 4.437
319.10 4.432
319.20 4.427
319.30 4.422
319.40 4.417
319.50 4.412
319.60 4.408
319.70 4.403
319.80 4.398
319.90 4.393
320.00 4.388
320.10 4.384
320.20 4.379
320.30 4.374
320.40 4.369
320.50 4.364
320.60 4.36
320.70 4.355
320.80 4.35
320.90 4.345
321.00 4.341
321.10 4.336
321.20 4.331
321.30 4.326
321.40 4.322
321.50 4.317
321.60 4.312
321.70 4.308
321.80 4.303
321.90 4.298
322.00 4.293
322.10 4.289
322.20 4.284
322.30 4.279
322.40 4.275
322.50 4.27
322.60 4.266
322.70 4.261
322.80 4.256
322.90 4.252
323.00 4.247
323.10 4.242
323.20 4.238
323.30 4.233
323.40 4.229
323.50 4.224
323.60 4.219
323.70 4.215
323.80 4.21
323.90 4.206
324.00 4.201
324.10 4.197
324.20 4.192
324.30 4.188
324.40 4.183
324.50 4.178
324.60 4.174
324.70 4.169
324.80 4.165
324.90 4.16
325.00 4.156
325.10 4.151
325.20 4.147
325.30 4.143
325.40 4.138
325.50 4.134
325.60 4.129
325.70 4.125
325.80 4.12
325.90 4.116
326.00 4.111
326.10 4.107
326.20 4.103
326.30 4.098
326.40 4.094
326.50 4.089
326.60 4.085
326.70 4.081
326.80 4.076
326.90 4.072
327.00 4.067
327.10 4.063
327.20 4.059
327.30 4.054
327.40 4.05
327.50 4.046
327.60 4.041
327.70 4.037
327.80 4.033
327.90 4.028
328.00 4.024
328.10 4.02
328.20 4.015
328.30 4.011
328.40 4.007
328.50 4.002
328.60 3.998
328.70 3.994
328.80 3.99
328.90 3.985
329.00 3.981
329.10 3.977
329.20 3.973
329.30 3.968
329.40 3.964
329.50 3.96
329.60 3.956
329.70 3.952
329.80 3.947
329.90 3.943
330.00 3.939
330.10 3.935
330.20 3.931
330.30 3.926
330.40 3.922
330.50 3.918
330.60 3.914
330.70 3.91
330.80 3.906
330.90 3.901
331.00 3.897
331.10 3.893
331.20 3.889
331.30 3.885
331.40 3.881
331.50 3.877
331.60 3.872
331.70 3.868
331.80 3.864
331.90 3.86
332.00 3.856
332.10 3.852
332.20 3.848
332.30 3.844
332.40 3.84
332.50 3.836
332.60 3.832
332.70 3.828
332.80 3.824
332.90 3.82
333.00 3.815
333.10 3.811
333.20 3.807
333.30 3.803
333.40 3.799
333.50 3.795
333.60 3.791
333.70 3.787
333.80 3.783
333.90 3.779
334.00 3.775
334.10 3.771
334.20 3.767
334.30 3.763
334.40 3.76
334.50 3.756
334.60 3.752
334.70 3.748
334.80 3.744
334.90 3.74
335.00 3.736
335.10 3.732
335.20 3.728
335.30 3.724
335.40 3.72
335.50 3.716
335.60 3.712
335.70 3.709
335.80 3.705
335.90 3.701
336.00 3.697
336.10 3.693
336.20 3.689
336.30 3.685
336.40 3.681
336.50 3.678
336.60 3.674
336.70 3.67
336.80 3.666
336.90 3.662
337.00 3.658
337.10 3.655
337.20 3.651
337.30 3.647
337.40 3.643
337.50 3.639
337.60 3.636
337.70 3.632
337.80 3.628
337.90 3.624
338.00 3.62
338.10 3.617
338.20 3.613
338.30 3.609
338.40 3.605
338.50 3.602
338.60 3.598
338.70 3.594
338.80 3.59
338.90 3.587
339.00 3.583
339.10 3.579
339.20 3.575
339.30 3.572
339.40 3.568
339.50 3.564
339.60 3.561
339.70 3.557
339.80 3.553
339.90 3.55
340.00 3.546
340.10 3.542
340.20 3.538
340.30 3.535
340.40 3.531
340.50 3.528
340.60 3.524
340.70 3.52
340.80 3.517
340.90 3.513
341.00 3.509
341.10 3.506
341.20 3.502
341.30 3.498
341.40 3.495
341.50 3.491
341.60 3.488
341.70 3.484
341.80 3.48
341.90 3.477
342.00 3.473
342.10 3.47
342.20 3.466
342.30 3.462
342.40 3.459
342.50 3.455
342.60 3.452
342.70 3.448
342.80 3.445
342.90 3.441
343.00 3.438
343.10 3.434
343.20 3.431
343.30 3.427
343.40 3.424
343.50 3.42
343.60 3.416
343.70 3.413
343.80 3.409
343.90 3.406
344.00 3.402
344.10 3.399
344.20 3.395
344.30 3.392
344.40 3.389
344.50 3.385
344.60 3.382
344.70 3.378
344.80 3.375
344.90 3.371
345.00 3.368
345.10 3.364
345.20 3.361
345.30 3.357
345.40 3.354
345.50 3.351
345.60 3.347
345.70 3.344
345.80 3.34
345.90 3.337
346.00 3.334
346.10 3.33
346.20 3.327
346.30 3.323
346.40 3.32
346.50 3.317
346.60 3.313
346.70 3.31
346.80 3.306
346.90 3.303
347.00 3.3
347.10 3.296
347.20 3.293
347.30 3.29
347.40 3.286
347.50 3.283
347.60 3.28
347.70 3.276
347.80 3.273
347.90 3.27
348.00 3.266
348.10 3.263
348.20 3.26
348.30 3.256
348.40 3.253
348.50 3.25
348.60 3.247
348.70 3.243
348.80 3.24
348.90 3.237
349.00 3.233
349.10 3.23
349.20 3.227
349.30 3.224
349.40 3.22
349.50 3.217
349.60 3.214
349.70 3.211
349.80 3.207
349.90 3.204
350.00 3.201
350.10 3.198
350.20 3.194
350.30 3.191
350.40 3.188
350.50 3.185
350.60 3.182
350.70 3.178
350.80 3.175
350.90 3.172
351.00 3.169
351.10 3.166
351.20 3.162
351.30 3.159
351.40 3.156
351.50 3.153
351.60 3.15
351.70 3.146
351.80 3.143
351.90 3.14
352.00 3.137
352.10 3.134
352.20 3.131
352.30 3.128
352.40 3.124
352.50 3.121
352.60 3.118
352.70 3.115
352.80 3.112
352.90 3.109
353.00 3.106
353.10 3.103
353.20 3.099
353.30 3.096
353.40 3.093
353.50 3.09
353.60 3.087
353.70 3.084
353.80 3.081
353.90 3.078
354.00 3.075
354.10 3.072
354.20 3.069
354.30 3.066
354.40 3.062
354.50 3.059
354.60 3.056
354.70 3.053
354.80 3.05
354.90 3.047
355.00 3.044
355.10 3.041
355.20 3.038
355.30 3.035
355.40 3.032
355.50 3.029
355.60 3.026
355.70 3.023
355.80 3.02
355.90 3.017
356.00 3.014
356.10 3.011
356.20 3.008
356.30 3.005
356.40 3.002
356.50 2.999
356.60 2.996
356.70 2.993
356.80 2.99
356.90 2.987
357.00 2.984
357.10 2.981
357.20 2.978
357.30 2.975
357.40 2.972
357.50 2.969
357.60 2.967
357.70 2.964
357.80 2.961
357.90 2.958
358.00 2.955
358.10 2.952
358.20 2.949
358.30 2.946
358.40 2.943
358.50 2.94
358.60 2.937
358.70 2.934
358.80 2.932
358.90 2.929
359.00 2.926
359.10 2.923
359.20 2.92
359.30 2.917
359.40 2.914
359.50 2.911
359.60 2.908
359.70 2.906
359.80 2.903
359.90 2.9
360.00 2.897
360.10 2.894
360.20 2.891
360.30 2.888
360.40 2.886
360.50 2.883
360.60 2.88
360.70 2.877
360.80 2.874
360.90 2.871
361.00 2.869
361.10 2.866
361.20 2.863
361.30 2.86
361.40 2.857
361.50 2.855
361.60 2.852
361.70 2.849
361.80 2.846
361.90 2.843
362.00 2.841
362.10 2.838
362.20 2.835
362.30 2.832
362.40 2.83
362.50 2.827
362.60 2.824
362.70 2.821
362.80 2.818
362.90 2.816
363.00 2.813
363.10 2.81
363.20 2.807
363.30 2.805
363.40 2.802
363.50 2.799
363.60 2.797
363.70 2.794
363.80 2.791
363.90 2.788
364.00 2.786
364.10 2.783
364.20 2.78
364.30 2.778
364.40 2.775
364.50 2.772
364.60 2.769
364.70 2.767
364.80 2.764
364.90 2.761
365.00 2.759
365.10 2.756
365.20 2.753
365.30 2.751
365.40 2.748
365.50 2.745
365.60 2.743
365.70 2.74
365.80 2.737
365.90 2.735
366.00 2.732
366.10 2.729
366.20 2.726
366.30 2.723
366.40 2.72
366.50 2.718
366.60 2.715
366.70 2.712
366.80 2.709
366.90 2.706
367.00 2.703
367.10 2.7
367.20 2.698
367.30 2.695
367.40 2.692
367.50 2.689
367.60 2.686
367.70 2.683
367.80 2.681
367.90 2.678
368.00 2.675
368.10 2.672
368.20 2.669
368.30 2.667
368.40 2.664
368.50 2.661
368.60 2.658
368.70 2.655
368.80 2.653
368.90 2.65
369.00 2.647
369.10 2.644
369.20 2.642
369.30 2.639
369.40 2.636
369.50 2.633
369.60 2.631
369.70 2.628
369.80 2.625
369.90 2.623
370.00 2.62
370.10 2.617
370.20 2.615
370.30 2.612
370.40 2.609
370.50 2.607
370.60 2.604
370.70 2.601
370.80 2.599
370.90 2.596
371.00 2.594
371.10 2.591
371.20 2.588
371.30 2.586
371.40 2.583
371.50 2.581
371.60 2.578
371.70 2.575
371.80 2.573
371.90 2.57
372.00 2.568
372.10 2.565
372.20 2.563
372.30 2.561
372.40 2.558
372.50 2.556
372.60 2.554
372.70 2.552
372.80 2.549
372.90 2.547
373.00 2.545
373.10 2.543
373.20 2.54
373.30 2.538
373.40 2.536
373.50 2.534
373.60 2.531
373.70 2.529
373.80 2.527
373.90 2.525
374.00 2.522
374.10 2.52
374.20 2.518
374.30 2.516
374.40 2.515
374.50 2.513
374.60 2.511
374.70 2.509
374.80 2.507
374.90 2.505
375.00 2.503
375.10 2.501
375.20 2.499
375.30 2.497
375.40 2.495
375.50 2.493
375.60 2.491
375.70 2.489
375.80 2.487
375.90 2.485
376.00 2.483
376.10 2.48
376.20 2.478
376.30 2.475
376.40 2.472
376.50 2.469
376.60 2.466
376.70 2.463
376.80 2.46
376.90 2.457
377.00 2.455
377.10 2.454
377.20 2.454
377.30 2.453
377.40 2.453
377.50 2.453
377.60 2.452
377.70 2.452
377.80 2.451
377.90 2.451
378.00 2.451
378.10 2.447
378.20 2.444
378.30 2.441
378.40 2.438
378.50 2.435
378.60 2.432
378.70 2.429
378.80 2.426
378.90 2.423
379.00 2.42
379.10 2.416
379.20 2.412
379.30 2.409
379.40 2.405
379.50 2.401
379.60 2.397
379.70 2.394
379.80 2.39
379.90 2.386
380.00 2.383
380.10 2.385
380.20 2.388
380.30 2.39
380.40 2.393
380.50 2.395
380.60 2.397
380.70 2.4
380.80 2.402
380.90 2.405
381.00 2.407
381.10 2.406
381.20 2.405
381.30 2.404
381.40 2.403
381.50 2.402
381.60 2.399
381.70 2.396
381.80 2.392
381.90 2.387
382.00 2.382
382.10 2.376
382.20 2.369
382.30 2.358
382.40 2.348
382.50 2.338
382.60 2.327
382.70 2.317
382.80 2.307
382.90 2.297
383.00 2.286
383.10 2.276
383.20 2.266
383.30 2.253
383.40 2.242
383.50 2.233
383.60 2.233
383.70 2.241
383.80 2.25
383.90 2.26
384.00 2.271
384.10 2.281
384.20 2.29
384.30 2.3
384.40 2.309
384.50 2.317
384.60 2.324
384.70 2.331
384.80 2.338
384.90 2.343
385.00 2.348
385.10 2.353
385.20 2.356
385.30 2.36
385.40 2.362
385.50 2.364
385.60 2.365
385.70 2.365
385.80 2.365
385.90 2.364
386.00 2.363
386.10 2.36
386.20 2.358
386.30 2.354
386.40 2.35
386.50 2.345
386.60 2.339
386.70 2.333
386.80 2.326
386.90 2.318
387.00 2.309
387.10 2.299
387.20 2.289
387.30 2.277
387.40 2.265
387.50 2.252
387.60 2.237
387.70 2.222
387.80 2.206
387.90 2.189
388.00 2.171
388.10 2.151
388.20 2.131
388.30 2.11
388.40 2.088
388.50 2.066
388.60 2.044
388.70 2.024
388.80 2.008
388.90 1.997
389.00 2.004
389.10 2.017
389.20 2.034
389.30 2.053
389.40 2.072
389.50 2.091
389.60 2.109
389.70 2.126
389.80 2.143
389.90 2.159
390.00 2.173
390.10 2.187
390.20 2.2
390.30 2.212
390.40 2.223
390.50 2.234
390.60 2.243
390.70 2.252
390.80 2.26
390.90 2.267
391.00 2.274
391.10 2.28
391.20 2.286
391.30 2.291
391.40 2.295
391.50 2.299
391.60 2.302
391.70 2.305
391.80 2.307
391.90 2.31
392.00 2.311
392.10 2.312
392.20 2.313
392.30 2.313
392.40 2.313
392.50 2.313
392.60 2.312
392.70 2.31
392.80 2.309
392.90 2.307
393.00 2.305
393.10 2.302
393.20 2.299
393.30 2.295
393.40 2.291
393.50 2.287
393.60 2.282
393.70 2.277
393.80 2.272
393.90 2.266
394.00 2.259
394.10 2.252
394.20 2.244
394.30 2.236
394.40 2.228
394.50 2.218
394.60 2.208
394.70 2.198
394.80 2.186
394.90 2.174
395.00 2.161
395.10 2.148
395.20 2.133
395.30 2.117
395.40 2.101
395.50 2.084
395.60 2.065
395.70 2.045
395.80 2.024
395.90 2.002
396.00 1.978
396.10 1.954
396.20 1.928
396.30 1.9
396.40 1.872
396.50 1.842
396.60 1.811
396.70 1.78
396.80 1.748
396.90 1.716
397.00 1.685
397.10 1.711
397.20 1.738
397.30 1.767
397.40 1.795
397.50 1.823
397.60 1.85
397.70 1.876
397.80 1.9
397.90 1.923
398.00 1.944
398.10 1.964
398.20 1.984
398.30 2.001
398.40 2.017
398.50 2.033
398.60 2.047
398.70 2.06
398.80 2.073
398.90 2.084
399.00 2.094
399.10 2.104
399.20 2.113
399.30 2.121
399.40 2.129
399.50 2.135
399.60 2.142
399.70 2.148
399.80 2.153
399.90 2.158
400.00 2.162
400.10 2.166
400.20 2.17
400.30 2.173
400.40 2.176
400.50 2.178
400.60 2.181
400.70 2.183
400.80 2.184
400.90 2.186
401.00 2.187
401.10 2.188
401.20 2.189
401.30 2.19
401.40 2.19
401.50 2.19
401.60 2.19
401.70 2.19
401.80 2.19
401.90 2.19
402.00 2.189
402.10 2.189
402.20 2.188
402.30 2.187
402.40 2.187
402.50 2.186
402.60 2.184
402.70 2.183
402.80 2.182
402.90 2.181
403.00 2.179
403.10 2.178
403.20 2.176
403.30 2.174
403.40 2.172
403.50 2.171
403.60 2.169
403.70 2.167
403.80 2.165
403.90 2.162
404.00 2.16
404.10 2.158
404.20 2.155
404.30 2.153
404.40 2.15
404.50 2.148
404.60 2.145
404.70 2.142
404.80 2.139
404.90 2.136
405.00 2.133
405.10 2.13
405.20 2.126
405.30 2.123
405.40 2.119
405.50 2.115
405.60 2.111
405.70 2.107
405.80 2.103
405.90 2.098
406.00 2.094
406.10 2.089
406.20 2.084
406.30 2.079
406.40 2.073
406.50 2.067
406.60 2.061
406.70 2.055
406.80 2.048
406.90 2.041
407.00 2.034
407.10 2.026
407.20 2.018
407.30 2.01
407.40 2.001
407.50 1.991
407.60 1.981
407.70 1.971
407.80 1.96
407.90 1.948
408.00 1.935
408.10 1.922
408.20 1.908
408.30 1.893
408.40 1.878
408.50 1.861
408.60 1.843
408.70 1.825
408.80 1.805
408.90 1.784
409.00 1.762
409.10 1.738
409.20 1.713
409.30 1.687
409.40 1.658
409.50 1.628
409.60 1.597
409.70 1.564
409.80 1.529
409.90 1.493
410.00 1.456
410.10 1.429
410.20 1.413
410.30 1.439
410.40 1.47
410.50 1.505
410.60 1.538
410.70 1.569
410.80 1.599
410.90 1.626
411.00 1.652
411.10 1.676
411.20 1.699
411.30 1.72
411.40 1.74
411.50 1.758
411.60 1.775
411.70 1.791
411.80 1.805
411.90 1.818
412.00 1.831
412.10 1.843
412.20 1.853
412.30 1.864
412.40 1.872
412.50 1.881
412.60 1.889
412.70 1.896
412.80 1.902
412.90 1.909
413.00 1.914
413.10 1.919
413.20 1.924
413.30 1.928
413.40 1.932
413.50 1.935
413.60 1.938
413.70 1.941
413.80 1.944
413.90 1.946
414.00 1.948
414.10 1.95
414.20 1.951
414.30 1.953
414.40 1.954
414.50 1.955
414.60 1.956
414.70 1.957
414.80 1.957
414.90 1.957
415.00 1.958
415.10 1.958
415.20 1.958
415.30 1.958
415.40 1.958
415.50 1.958
415.60 1.957
415.70 1.957
415.80 1.956
415.90 1.956
416.00 1.955
416.10 1.955
416.20 1.954
416.30 1.953
416.40 1.952
416.50 1.951
416.60 1.951
416.70 1.95
416.80 1.949
416.90 1.948
417.00 1.947
417.10 1.945
417.20 1.944
417.30 1.943
417.40 1.942
417.50 1.941
417.60 1.94
417.70 1.938
417.80 1.937
417.90 1.936
418.00 1.935
418.10 1.933
418.20 1.932
418.30 1.931
418.40 1.929
418.50 1.928
418.60 1.926
418.70 1.925
418.80 1.924
418.90 1.922
419.00 1.921
419.10 1.919
419.20 1.918
419.30 1.916
419.40 1.915
419.50 1.913
419.60 1.912
419.70 1.91
419.80 1.909
419.90 1.907
420.00 1.906
420.10 1.904
420.20 1.903
420.30 1.901
420.40 1.9
420.50 1.898
420.60 1.896
420.70 1.895
420.80 1.893
420.90 1.892
421.00 1.89
421.10 1.889
421.20 1.887
421.30 1.885
421.40 1.884
421.50 1.882
421.60 1.88
421.70 1.879
421.80 1.877
421.90 1.876
422.00 1.874
422.10 1.872
422.20 1.871
422.30 1.869
422.40 1.867
422.50 1.866
422.60 1.864
422.70 1.862
422.80 1.861
422.90 1.859
423.00 1.857
423.10 1.856
423.20 1.854
423.30 1.852
423.40 1.851
423.50 1.849
423.60 1.847
423.70 1.846
423.80 1.844
423.90 1.842
424.00 1.84
424.10 1.839
424.20 1.837
424.30 1.835
424.40 1.833
424.50 1.832
424.60 1.83
424.70 1.828
424.80 1.826
424.90 1.824
425.00 1.823
425.10 1.821
425.20 1.819
425.30 1.817
425.40 1.815
425.50 1.814
425.60 1.812
425.70 1.81
425.80 1.808
425.90 1.806
426.00 1.804
426.10 1.802
426.20 1.8
426.30 1.798
426.40 1.796
426.50 1.794
426.60 1.792
426.70 1.79
426.80 1.788
426.90 1.786
427.00 1.784
427.10 1.782
427.20 1.78
427.30 1.778
427.40 1.776
427.50 1.773
427.60 1.771
427.70 1.769
427.80 1.766
427.90 1.764
428.00 1.762
428.10 1.759
428.20 1.757
428.30 1.754
428.40 1.752
428.50 1.749
428.60 1.746
428.70 1.744
428.80 1.741
428.90 1.738
429.00 1.735
429.10 1.732
429.20 1.729
429.30 1.726
429.40 1.722
429.50 1.719
429.60 1.715
429.70 1.712
429.80 1.708
429.90 1.704
430.00 1.7
430.10 1.695
430.20 1.691
430.30 1.686
430.40 1.682
430.50 1.677
430.60 1.671
430.70 1.666
430.80 1.66
430.90 1.654
431.00 1.648
431.10 1.641
431.20 1.634
431.30 1.626
431.40 1.619
431.50 1.611
431.60 1.602
431.70 1.592
431.80 1.583
431.90 1.572
432.00 1.561
432.10 1.55
432.20 1.537
432.30 1.524
432.40 1.511
432.50 1.496
432.60 1.48
432.70 1.463
432.80 1.445
432.90 1.426
433.00 1.406
433.10 1.384
433.20 1.361
433.30 1.337
433.40 1.311
433.50 1.283
433.60 1.254
433.70 1.223
433.80 1.19
433.90 1.156
434.00 1.12
434.10 1.12
434.20 1.156
434.30 1.188
434.40 1.219
434.50 1.248
434.60 1.275
434.70 1.3
434.80 1.324
434.90 1.346
435.00 1.366
435.10 1.385
435.20 1.403
435.30 1.419
435.40 1.435
435.50 1.448
435.60 1.461
435.70 1.473
435.80 1.484
435.90 1.495
436.00 1.504
436.10 1.513
436.20 1.521
436.30 1.528
436.40 1.535
436.50 1.541
436.60 1.547
436.70 1.552
436.80 1.557
436.90 1.561
437.00 1.565
437.10 1.569
437.20 1.572
437.30 1.575
437.40 1.578
437.50 1.581
437.60 1.583
437.70 1.585
437.80 1.587
437.90 1.588
438.00 1.59
438.10 1.591
438.20 1.592
438.30 1.593
438.40 1.594
438.50 1.594
438.60 1.595
438.70 1.595
438.80 1.596
438.90 1.596
439.00 1.596
439.10 1.596
439.20 1.596
439.30 1.596
439.40 1.596
439.50 1.595
439.60 1.595
439.70 1.595
439.80 1.594
439.90 1.594
440.00 1.593
440.10 1.593
440.20 1.592
440.30 1.592
440.40 1.591
440.50 1.59
440.60 1.59
440.70 1.589
440.80 1.588
440.90 1.587
441.00 1.587
441.10 1.586
441.20 1.585
441.30 1.584
441.40 1.583
441.50 1.582
441.60 1.581
441.70 1.58
441.80 1.579
441.90 1.578
442.00 1.577
442.10 1.576
442.20 1.575
442.30 1.574
442.40 1.573
442.50 1.572
442.60 1.571
442.70 1.57
442.80 1.569
442.90 1.568
443.00 1.567
443.10 1.566
443.20 1.565
443.30 1.563
443.40 1.562
443.50 1.561
443.60 1.56
443.70 1.559
443.80 1.558
443.90 1.557
444.00 1.555
444.10 1.554
444.20 1.553
444.30 1.552
444.40 1.551
444.50 1.55
444.60 1.549
444.70 1.547
444.80 1.546
444.90 1.545
445.00 1.544
445.10 1.543
445.20 1.541
445.30 1.54
445.40 1.539
445.50 1.538
445.60 1.537
445.70 1.535
445.80 1.534
445.90 1.533
446.00 1.532
446.10 1.531
446.20 1.529
446.30 1.528
446.40 1.527
446.50 1.526
446.60 1.525
446.70 1.523
446.80 1.522
446.90 1.521
447.00 1.52
447.10 1.519
447.20 1.517
447.30 1.516
447.40 1.515
447.50 1.514
447.60 1.513
447.70 1.511
447.80 1.51
447.90 1.509
448.00 1.508
448.10 1.506
448.20 1.505
448.30 1.504
448.40 1.503
448.50 1.502
448.60 1.5
448.70 1.499
448.80 1.498
448.90 1.497
449.00 1.496
449.10 1.494
449.20 1.493
449.30 1.492
449.40 1.491
449.50 1.49
449.60 1.488
449.70 1.487
449.80 1.486
449.90 1.485
450.00 1.483
450.10 1.482
450.20 1.481
450.30 1.48
450.40 1.479
450.50 1.477
450.60 1.476
450.70 1.475
450.80 1.474
450.90 1.473
451.00 1.471
451.10 1.47
451.20 1.469
451.30 1.468
451.40 1.467
451.50 1.466
451.60 1.464
451.70 1.463
451.80 1.462
451.90 1.461
452.00 1.46
452.10 1.458
452.20 1.457
452.30 1.456
452.40 1.455
452.50 1.454
452.60 1.452
452.70 1.451
452.80 1.45
452.90 1.449
453.00 1.448
453.10 1.447
453.20 1.445
453.30 1.444
453.40 1.443
453.50 1.442
453.60 1.441
453.70 1.439
453.80 1.438
453.90 1.437
454.00 1.436
454.10 1.435
454.20 1.434
454.30 1.432
454.40 1.431
454.50 1.43
454.60 1.429
454.70 1.428
454.80 1.427
454.90 1.425
455.00 1.424
455.10 1.423
455.20 1.422
455.30 1.421
455.40 1.42
455.50 1.419
455.60 1.417
455.70 1.416
455.80 1.415
455.90 1.414
456.00 1.413
456.10 1.412
456.20 1.41
456.30 1.409
456.40 1.408
456.50 1.407
456.60 1.406
456.70 1.405
456.80 1.404
456.90 1.402
457.00 1.401
457.10 1.4
457.20 1.399
457.30 1.398
457.40 1.397
457.50 1.396
457.60 1.394
457.70 1.393
457.80 1.392
457.90 1.391
458.00 1.39
458.10 1.389
458.20 1.388
458.30 1.387
458.40 1.385
458.50 1.384
458.60 1.383
458.70 1.382
458.80 1.381
458.90 1.38
459.00 1.379
459.10 1.378
459.20 1.376
459.30 1.375
459.40 1.374
459.50 1.373
459.60 1.372
459.70 1.371
459.80 1.37
459.90 1.369
460.00 1.367
460.10 1.366
460.20 1.365
460.30 1.364
460.40 1.363
460.50 1.362
460.60 1.361
460.70 1.36
460.80 1.359
460.90 1.358
461.00 1.356
461.10 1.355
461.20 1.354
461.30 1.353
461.40 1.352
461.50 1.351
461.60 1.35
461.70 1.349
461.80 1.348
461.90 1.347
462.00 1.345
462.10 1.344
462.20 1.343
462.30 1.342
462.40 1.341
462.50 1.34
462.60 1.339
462.70 1.338
462.80 1.337
462.90 1.336
463.00 1.335
463.10 1.333
463.20 1.332
463.30 1.331
463.40 1.33
463.50 1.329
463.60 1.328
463.70 1.327
463.80 1.326
463.90 1.325
464.00 1.324
464.10 1.323
464.20 1.322
464.30 1.321
464.40 1.319
464.50 1.318
464.60 1.317
464.70 1.316
464.80 1.315
464.90 1.314
465.00 1.313
465.10 1.312
465.20 1.311
465.30 1.31
465.40 1.309
465.50 1.308
465.60 1.307
465.70 1.306
465.80 1.305
465.90 1.304
466.00 1.302
466.10 1.301
466.20 1.3
466.30 1.299
466.40 1.298
466.50 1.297
466.60 1.296
466.70 1.295
466.80 1.294
466.90 1.293
467.00 1.292
467.10 1.291
467.20 1.29
467.30 1.289
467.40 1.288
467.50 1.287
467.60 1.286
467.70 1.285
467.80 1.284
467.90 1.283
468.00 1.281
468.10 1.28
468.20 1.279
468.30 1.278
468.40 1.277
468.50 1.276
468.60 1.275
468.70 1.274
468.80 1.273
468.90 1.272
469.00 1.271
469.10 1.27
469.20 1.269
469.30 1.268
469.40 1.267
469.50 1.266
469.60 1.265
469.70 1.264
469.80 1.263
469.90 1.262
470.00 1.261
470.10 1.26
470.20 1.259
470.30 1.258
470.40 1.257
470.50 1.256
470.60 1.255
470.70 1.254
470.80 1.253
470.90 1.251
471.00 1.25
471.10 1.249
471.20 1.248
471.30 1.247
471.40 1.246
471.50 1.245
471.60 1.244
471.70 1.243
471.80 1.242
471.90 1.241
472.00 1.24
472.10 1.239
472.20 1.238
472.30 1.237
472.40 1.236
472.50 1.235
472.60 1.234
472.70 1.233
472.80 1.232
472.90 1.231
473.00 1.23
473.10 1.229
473.20 1.228
473.30 1.227
473.40 1.226
473.50 1.225
473.60 1.224
473.70 1.223
473.80 1.222
473.90 1.221
474.00 1.22
474.10 1.219
474.20 1.218
474.30 1.216
474.40 1.215
474.50 1.214
474.60 1.213
474.70 1.212
474.80 1.211
474.90 1.21
475.00 1.209
475.10 1.208
475.20 1.207
475.30 1.206
475.40 1.205
475.50 1.204
475.60 1.203
475.70 1.202
475.80 1.201
475.90 1.2
476.00 1.199
476.10 1.198
476.20 1.196
476.30 1.195
476.40 1.194
476.50 1.193
476.60 1.192
476.70 1.191
476.80 1.19
476.90 1.189
477.00 1.188
477.10 1.187
477.20 1.185
477.30 1.184
477.40 1.183
477.50 1.182
477.60 1.181
477.70 1.18
477.80 1.178
477.90 1.177
478.00 1.176
478.10 1.175
478.20 1.174
478.30 1.173
478.40 1.171
478.50 1.17
478.60 1.169
478.70 1.168
478.80 1.166
478.90 1.165
479.00 1.164
479.10 1.163
479.20 1.161
479.30 1.16
479.40 1.158
479.50 1.157
479.60 1.156
479.70 1.154
479.80 1.153
479.90 1.151
480.00 1.15
480.10 1.149
480.20 1.147
480.30 1.145
480.40 1.144
480.50 1.142
480.60 1.14
480.70 1.138
480.80 1.137
480.90 1.135
481.00 1.133
481.10 1.132
481.20 1.13
481.30 1.127
481.40 1.125
481.50 1.123
481.60 1.121
481.70 1.118
481.80 1.116
481.90 1.114
482.00 1.112
482.10 1.11
482.20 1.107
482.30 1.103
482.40 1.1
482.50 1.097
482.60 1.093
482.70 1.09
482.80 1.087
482.90 1.084
483.00 1.08
483.10 1.077
483.20 1.072
483.30 1.067
483.40 1.062
483.50 1.056
483.60 1.051
483.70 1.046
483.80 1.04
483.90 1.035
484.00 1.03
484.10 1.024
484.20 1.017
484.30 1.009
484.40 1.001
484.50 0.9931
484.60 0.985
484.70 0.975
484.80 0.964
484.90 0.9531
485.00 0.9422
485.10 0.9313
485.20 0.9185
485.30 0.9049
485.40 0.8901
485.50 0.8746
485.60 0.8578
485.70 0.8402
485.80 0.8209
485.90 0.8008
486.00 0.7778
486.10 0.7386
486.20 0.7542
486.30 0.7848
486.40 0.8047
486.50 0.8237
486.60 0.8408
486.70 0.8572
486.80 0.872
486.90 0.886
487.00 0.8988
487.10 0.9109
487.20 0.9212
487.30 0.9307
487.40 0.9401
487.50 0.9495
487.60 0.9589
487.70 0.9662
487.80 0.9727
487.90 0.9791
488.00 0.9855
488.10 0.9919
488.20 0.9964
488.30 1
488.40 1.004
488.50 1.007
488.60 1.011
488.70 1.014
488.80 1.018
488.90 1.022
489.00 1.025
489.10 1.029
489.20 1.031
489.30 1.032
489.40 1.034
489.50 1.035
489.60 1.037
489.70 1.038
489.80 1.04
489.90 1.041
490.00 1.043
490.10 1.044
490.20 1.045
490.30 1.045
490.40 1.046
490.50 1.046
490.60 1.047
490.70 1.047
490.80 1.048
490.90 1.048
491.00 1.049
491.10 1.049
491.20 1.049
491.30 1.049
491.40 1.049
491.50 1.049
491.60 1.049
491.70 1.049
491.80 1.049
491.90 1.049
492.00 1.048
492.10 1.048
492.20 1.048
492.30 1.048
492.40 1.047
492.50 1.047
492.60 1.047
492.70 1.046
492.80 1.046
492.90 1.046
493.00 1.045
493.10 1.045
493.20 1.044
493.30 1.044
493.40 1.043
493.50 1.043
493.60 1.042
493.70 1.042
493.80 1.041
493.90 1.041
494.00 1.04
494.10 1.04
494.20 1.039
494.30 1.039
494.40 1.038
494.50 1.037
494.60 1.037
494.70 1.036
494.80 1.036
494.90 1.035
495.00 1.034
495.10 1.034
495.20 1.033
495.30 1.033
495.40 1.032
495.50 1.031
495.60 1.031
495.70 1.03
495.80 1.029
495.90 1.029
496.00 1.028
496.10 1.027
496.20 1.027
496.30 1.026
496.40 1.025
496.50 1.025
496.60 1.024
496.70 1.023
496.80 1.023
496.90 1.022
497.00 1.021
497.10 1.021
497.20 1.02
497.30 1.019
497.40 1.018
497.50 1.018
497.60 1.017
497.70 1.016
497.80 1.016
497.90 1.015
498.00 1.014
498.10 1.014
498.20 1.013
498.30 1.012
498.40 1.011
498.50 1.011
498.60 1.01
498.70 1.009
498.80 1.009
498.90 1.008
499.00 1.007
499.10 1.006
499.20 1.006
499.30 1.005
499.40 1.004
499.50 1.004
499.60 1.003
499.70 1.002
499.80 1.001
499.90 1.001
500.00 1
500.10 0.9993
500.20 0.9986
500.30 0.9979
500.40 0.9971
500.50 0.9964
500.60 0.9957
500.70 0.995
500.80 0.9943
500.90 0.9935
501.00 0.9928
501.10 0.9921
501.20 0.9914
501.30 0.9907
501.40 0.99
501.50 0.9892
501.60 0.9885
501.70 0.9878
501.80 0.9871
501.90 0.9864
502.00 0.9857
502.10 0.985
502.20 0.9842
502.30 0.9835
502.40 0.9828
502.50 0.9821
502.60 0.9814
502.70 0.9807
502.80 0.98
502.90 0.9792
503.00 0.9785
503.10 0.9778
503.20 0.9771
503.30 0.9764
503.40 0.9757
503.50 0.975
503.60 0.9743
503.70 0.9735
503.80 0.9728
503.90 0.9721
504.00 0.9714
504.10 0.9707
504.20 0.97
504.30 0.9693
504.40 0.9686
504.50 0.9679
504.60 0.9672
504.70 0.9665
504.80 0.9657
504.90 0.965
505.00 0.9643
505.10 0.9636
505.20 0.9629
505.30 0.9622
505.40 0.9615
505.50 0.9608
505.60 0.9601
505.70 0.9594
505.80 0.9587
505.90 0.958
506.00 0.9573
506.10 0.9566
506.20 0.9559
506.30 0.9552
506.40 0.9545
506.50 0.9538
506.60 0.9531
506.70 0.9524
506.80 0.9517
506.90 0.951
507.00 0.9503
507.10 0.9496
507.20 0.9489
507.30 0.9482
507.40 0.9475
507.50 0.9468
507.60 0.9461
507.70 0.9455
507.80 0.9448
507.90 0.9441
508.00 0.9434
508.10 0.9427
508.20 0.942
508.30 0.9413
508.40 0.9406
508.50 0.9399
508.60 0.9392
508.70 0.9386
508.80 0.9379
508.90 0.9372
509.00 0.9365
509.10 0.9358
509.20 0.9351
509.30 0.9344
509.40 0.9338
509.50 0.9331
509.60 0.9324
509.70 0.9317
509.80 0.931
509.90 0.9304
510.00 0.9297
510.10 0.929
510.20 0.9283
510.30 0.9276
510.40 0.927
510.50 0.9263
510.60 0.9256
510.70 0.9249
510.80 0.9243
510.90 0.9236
511.00 0.9229
511.10 0.9222
511.20 0.9216
511.30 0.9209
511.40 0.9202
511.50 0.9195
511.60 0.9189
511.70 0.9182
511.80 0.9175
511.90 0.9169
512.00 0.9162
512.10 0.9155
512.20 0.9149
512.30 0.9142
512.40 0.9135
512.50 0.9129
512.60 0.9122
512.70 0.9115
512.80 0.9109
512.90 0.9102
513.00 0.9095
513.10 0.9089
513.20 0.9082
513.30 0.9075
513.40 0.9069
513.50 0.9062
513.60 0.9056
513.70 0.9049
513.80 0.9042
513.90 0.9036
514.00 0.9029
514.10 0.9023
514.20 0.9016
514.30 0.901
514.40 0.9003
514.50 0.8996
514.60 0.899
514.70 0.8983
514.80 0.8977
514.90 0.897
515.00 0.8964
515.10 0.8957
515.20 0.8951
515.30 0.8944
515.40 0.8938
515.50 0.8931
515.60 0.8925
515.70 0.8918
515.80 0.8912
515.90 0.8905
516.00 0.8899
516.10 0.8892
516.20 0.8886
516.30 0.888
516.40 0.8873
516.50 0.8867
516.60 0.886
516.70 0.8854
516.80 0.8847
516.90 0.8841
517.00 0.8835
517.10 0.8828
517.20 0.8822
517.30 0.8815
517.40 0.8809
517.50 0.8803
517.60 0.8796
517.70 0.879
517.80 0.8784
517.90 0.8777
518.00 0.8771
518.10 0.8764
518.20 0.8758
518.30 0.8752
518.40 0.8746
518.50 0.8739
518.60 0.8733
518.70 0.8727
518.80 0.872
518.90 0.8714
519.00 0.8708
519.10 0.8701
519.20 0.8695
519.30 0.8689
519.40 0.8683
519.50 0.8676
519.60 0.867
519.70 0.8664
519.80 0.8657
519.90 0.8651
520.00 0.8645
520.10 0.8639
520.20 0.8633
520.30 0.8626
520.40 0.862
520.50 0.8614
520.60 0.8608
520.70 0.8601
520.80 0.8595
520.90 0.8589
521.00 0.8583
521.10 0.8577
521.20 0.8571
521.30 0.8564
521.40 0.8558
521.50 0.8552
521.60 0.8546
521.70 0.854
521.80 0.8534
521.90 0.8527
522.00 0.8521
522.10 0.8515
522.20 0.8509
522.30 0.8503
522.40 0.8497
522.50 0.8491
522.60 0.8485
522.70 0.8479
522.80 0.8473
522.90 0.8466
523.00 0.846
523.10 0.8454
523.20 0.8448
523.30 0.8442
523.40 0.8436
523.50 0.843
523.60 0.8424
523.70 0.8418
523.80 0.8412
523.90 0.8406
524.00 0.84
524.10 0.8394
524.20 0.8388
524.30 0.8382
524.40 0.8376
524.50 0.837
524.60 0.8364
524.70 0.8358
524.80 0.8352
524.90 0.8346
525.00 0.834
525.10 0.8334
525.20 0.8328
525.30 0.8322
525.40 0.8316
525.50 0.831
525.60 0.8304
525.70 0.8298
525.80 0.8292
525.90 0.8286
526.00 0.8281
526.10 0.8275
526.20 0.8269
526.30 0.8263
526.40 0.8257
526.50 0.8251
526.60 0.8245
526.70 0.8239
526.80 0.8233
526.90 0.8227
527.00 0.8222
527.10 0.8216
527.20 0.821
527.30 0.8204
527.40 0.8198
527.50 0.8192
527.60 0.8187
527.70 0.8181
527.80 0.8175
527.90 0.8169
528.00 0.8163
528.10 0.8157
528.20 0.8152
528.30 0.8146
528.40 0.814
528.50 0.8134
528.60 0.8128
528.70 0.8123
528.80 0.8117
528.90 0.8111
529.00 0.8105
529.10 0.81
529.20 0.8094
529.30 0.8088
529.40 0.8082
529.50 0.8077
529.60 0.8071
529.70 0.8065
529.80 0.8059
529.90 0.8054
530.00 0.8048
530.10 0.8042
530.20 0.8037
530.30 0.8031
530.40 0.8025
530.50 0.802
530.60 0.8014
530.70 0.8008
530.80 0.8003
530.90 0.7997
531.00 0.7991
531.10 0.7986
531.20 0.798
531.30 0.7974
531.40 0.7969
531.50 0.7963
531.60 0.7957
531.70 0.7952
531.80 0.7946
531.90 0.794
532.00 0.7935
532.10 0.7929
532.20 0.7924
532.30 0.7918
532.40 0.7912
532.50 0.7907
532.60 0.7901
532.70 0.7896
532.80 0.789
532.90 0.7885
533.00 0.7879
533.10 0.7873
533.20 0.7868
533.30 0.7862
533.40 0.7857
533.50 0.7851
533.60 0.7846
533.70 0.784
533.80 0.7835
533.90 0.7829
534.00 0.7824
534.10 0.7818
534.20 0.7813
534.30 0.7807
534.40 0.7802
534.50 0.7796
534.60 0.7791
534.70 0.7785
534.80 0.778
534.90 0.7774
535.00 0.7769
535.10 0.7763
535.20 0.7758
535.30 0.7752
535.40 0.7747
535.50 0.7742
535.60 0.7736
535.70 0.7731
535.80 0.7725
535.90 0.772
536.00 0.7714
536.10 0.7709
536.20 0.7704
536.30 0.7698
536.40 0.7693
536.50 0.7687
536.60 0.7682
536.70 0.7677
536.80 0.7671
536.90 0.7666
537.00 0.766
537.10 0.7655
537.20 0.765
537.30 0.7644
537.40 0.7639
537.50 0.7634
537.60 0.7628
537.70 0.7623
537.80 0.7618
537.90 0.7612
538.00 0.7607
538.10 0.7602
538.20 0.7596
538.30 0.7591
538.40 0.7586
538.50 0.758
538.60 0.7575
538.70 0.757
538.80 0.7565
538.90 0.7559
539.00 0.7554
539.10 0.7549
539.20 0.7543
539.30 0.7538
539.40 0.7533
539.50 0.7528
539.60 0.7522
539.70 0.7517
539.80 0.7512
539.90 0.7507
540.00 0.7501
540.10 0.7496
540.20 0.7491
540.30 0.7486
540.40 0.7481
540.50 0.7475
540.60 0.747
540.70 0.7465
540.80 0.746
540.90 0.7455
541.00 0.7449
541.10 0.7444
541.20 0.7439
541.30 0.7434
541.40 0.7429
541.50 0.7424
541.60 0.7418
541.70 0.7413
541.80 0.7408
541.90 0.7403
542.00 0.7398
542.10 0.7393
542.20 0.7387
542.30 0.7382
542.40 0.7377
542.50 0.7372
542.60 0.7367
542.70 0.7362
542.80 0.7357
542.90 0.7352
543.00 0.7347
543.10 0.7341
543.20 0.7336
543.30 0.7331
543.40 0.7326
543.50 0.7321
543.60 0.7316
543.70 0.7311
543.80 0.7306
543.90 0.7301
544.00 0.7296
544.10 0.7291
544.20 0.7286
544.30 0.7281
544.40 0.7276
544.50 0.7271
544.60 0.7266
544.70 0.7261
544.80 0.7256
544.90 0.7251
545.00 0.7246
545.10 0.7241
545.20 0.7236
545.30 0.7231
545.40 0.7226
545.50 0.7221
545.60 0.7216
545.70 0.7211
545.80 0.7206
545.90 0.7201
546.00 0.7196
546.10 0.7191
546.20 0.7186
546.30 0.7181
546.40 0.7176
546.50 0.7171
546.60 0.7166
546.70 0.7161
546.80 0.7156
546.90 0.7151
547.00 0.7146
547.10 0.7141
547.20 0.7136
547.30 0.7131
547.40 0.7127
547.50 0.7122
547.60 0.7117
547.70 0.7112
547.80 0.7107
547.90 0.7102
548.00 0.7097
548.10 0.7092
548.20 0.7087
548.30 0.7083
548.40 0.7078
548.50 0.7073
548.60 0.7068
548.70 0.7063
548.80 0.7058
548.90 0.7053
549.00 0.7049
549.10 0.7044
549.20 0.7039
549.30 0.7034
549.40 0.7029
549.50 0.7024
549.60 0.702
549.70 0.7015
549.80 0.701
549.90 0.7005
550.00 0.7
550.10 0.6996
550.20 0.6991
550.30 0.6986
550.40 0.6981
550.50 0.6976
550.60 0.6972
550.70 0.6967
550.80 0.6962
550.90 0.6957
551.00 0.6953
551.10 0.6948
551.20 0.6943
551.30 0.6938
551.40 0.6934
551.50 0.6929
551.60 0.6924
551.70 0.6919
551.80 0.6915
551.90 0.691
552.00 0.6905
552.10 0.6901
552.20 0.6896
552.30 0.6891
552.40 0.6886
552.50 0.6882
552.60 0.6877
552.70 0.6872
552.80 0.6868
552.90 0.6863
553.00 0.6858
553.10 0.6854
553.20 0.6849
553.30 0.6844
553.40 0.684
553.50 0.6835
553.60 0.683
553.70 0.6826
553.80 0.6821
553.90 0.6816
554.00 0.6812
554.10 0.6807
554.20 0.6802
554.30 0.6798
554.40 0.6793
554.50 0.6789
554.60 0.6784
554.70 0.6779
554.80 0.6775
554.90 0.677
555.00 0.6766
555.10 0.6761
555.20 0.6756
555.30 0.6752
555.40 0.6747
555.50 0.6743
555.60 0.6738
555.70 0.6733
555.80 0.6729
555.90 0.6724
556.00 0.672
556.10 0.6715
556.20 0.6711
556.30 0.6706
556.40 0.6702
556.50 0.6697
556.60 0.6693
556.70 0.6688
556.80 0.6683
556.90 0.6679
557.00 0.6674
557.10 0.667
557.20 0.6665
557.30 0.6661
557.40 0.6656
557.50 0.6652
557.60 0.6647
557.70 0.6643
557.80 0.6638
557.90 0.6634
558.00 0.6629
558.10 0.6625
558.20 0.662
558.30 0.6616
558.40 0.6611
558.50 0.6607
558.60 0.6603
558.70 0.6598
558.80 0.6594
558.90 0.6589
559.00 0.6585
559.10 0.658
559.20 0.6576
559.30 0.6571
559.40 0.6567
559.50 0.6563
559.60 0.6558
559.70 0.6554
559.80 0.6549
559.90 0.6545
560.00 0.654
560.10 0.6536
560.20 0.6532
560.30 0.6527
560.40 0.6523
560.50 0.6518
560.60 0.6514
560.70 0.651
560.80 0.6505
560.90 0.6501
561.00 0.6497
561.10 0.6492
561.20 0.6488
561.30 0.6484
561.40 0.6479
561.50 0.6475
561.60 0.647
561.70 0.6466
561.80 0.6462
561.90 0.6457
562.00 0.6453
562.10 0.6449
562.20 0.6444
562.30 0.644
562.40 0.6436
562.50 0.6431
562.60 0.6427
562.70 0.6423
562.80 0.6419
562.90 0.6414
563.00 0.641
563.10 0.6406
563.20 0.6401
563.30 0.6397
563.40 0.6393
563.50 0.6388
563.60 0.6384
563.70 0.638
563.80 0.6376
563.90 0.6371
564.00 0.6367
564.10 0.6363
564.20 0.6359
564.30 0.6354
564.40 0.635
564.50 0.6346
564.60 0.6342
564.70 0.6337
564.80 0.6333
564.90 0.6329
565.00 0.6325
565.10 0.632
565.20 0.6316
565.30 0.6312
565.40 0.6308
565.50 0.6304
565.60 0.6299
565.70 0.6295
565.80 0.6291
565.90 0.6287
566.00 0.6283
566.10 0.6278
566.20 0.6274
566.30 0.627
566.40 0.6266
566.50 0.6262
566.60 0.6258
566.70 0.6253
566.80 0.6249
566.90 0.6245
567.00 0.6241
567.10 0.6237
567.20 0.6233
567.30 0.6228
567.40 0.6224
567.50 0.622
567.60 0.6216
567.70 0.6212
567.80 0.6208
567.90 0.6204
568.00 0.6199
568.10 0.6195
568.20 0.6191
568.30 0.6187
568.40 0.6183
568.50 0.6179
568.60 0.6175
568.70 0.6171
568.80 0.6167
568.90 0.6163
569.00 0.6158
569.10 0.6154
569.20 0.615
569.30 0.6146
569.40 0.6142
569.50 0.6138
569.60 0.6134
569.70 0.613
569.80 0.6126
569.90 0.6122
570.00 0.6118
570.10 0.6114
570.20 0.611
570.30 0.6106
570.40 0.6102
570.50 0.6098
570.60 0.6093
570.70 0.6089
570.80 0.6085
570.90 0.6081
571.00 0.6077
571.10 0.6073
571.20 0.6069
571.30 0.6065
571.40 0.6061
571.50 0.6057
571.60 0.6053
571.70 0.6049
571.80 0.6045
571.90 0.6041
572.00 0.6037
572.10 0.6033
572.20 0.6029
572.30 0.6025
572.40 0.6021
572.50 0.6017
572.60 0.6013
572.70 0.6009
572.80 0.6006
572.90 0.6002
573.00 0.5998
573.10 0.5994
573.20 0.599
573.30 0.5986
573.40 0.5982
573.50 0.5978
573.60 0.5974
573.70 0.597
573.80 0.5966
573.90 0.5962
574.00 0.5958
574.10 0.5954
574.20 0.595
574.30 0.5946
574.40 0.5943
574.50 0.5939
574.60 0.5935
574.70 0.5931
574.80 0.5927
574.90 0.5923
575.00 0.5919
575.10 0.5915
575.20 0.5911
575.30 0.5908
575.40 0.5904
575.50 0.59
575.60 0.5896
575.70 0.5892
575.80 0.5888
575.90 0.5884
576.00 0.588
576.10 0.5877
576.20 0.5873
576.30 0.5869
576.40 0.5865
576.50 0.5861
576.60 0.5857
576.70 0.5853
576.80 0.585
576.90 0.5846
577.00 0.5842
577.10 0.5838
577.20 0.5834
577.30 0.5831
577.40 0.5827
577.50 0.5823
577.60 0.5819
577.70 0.5815
577.80 0.5811
577.90 0.5808
578.00 0.5804
578.10 0.58
578.20 0.5796
578.30 0.5792
578.40 0.5789
578.50 0.5785
578.60 0.5781
578.70 0.5777
578.80 0.5774
578.90 0.577
579.00 0.5766
579.10 0.5762
579.20 0.5759
579.30 0.5755
579.40 0.5751
579.50 0.5747
579.60 0.5744
579.70 0.574
579.80 0.5736
579.90 0.5732
580.00 0.5729
580.10 0.5725
580.20 0.5721
580.30 0.5717
580.40 0.5714
580.50 0.571
580.60 0.5706
580.70 0.5703
580.80 0.5699
580.90 0.5695
581.00 0.5691
581.10 0.5688
581.20 0.5684
581.30 0.568
581.40 0.5677
581.50 0.5673
581.60 0.5669
581.70 0.5666
581.80 0.5662
581.90 0.5658
582.00 0.5655
582.10 0.5651
582.20 0.5647
582.30 0.5643
582.40 0.564
582.50 0.5636
582.60 0.5633
582.70 0.5629
582.80 0.5625
582.90 0.5622
583.00 0.5618
583.10 0.5614
583.20 0.5611
583.30 0.5607
583.40 0.5603
583.50 0.56
583.60 0.5596
583.70 0.5592
583.80 0.5589
583.90 0.5585
584.00 0.5582
584.10 0.5578
584.20 0.5574
584.30 0.5571
584.40 0.5567
584.50 0.5564
584.60 0.556
584.70 0.5556
584.80 0.5553
584.90 0.5549
585.00 0.5546
585.10 0.5542
585.20 0.5538
585.30 0.5535
585.40 0.5531
585.50 0.5528
585.60 0.5524
585.70 0.5521
585.80 0.5517
585.90 0.5513
586.00 0.551
586.10 0.5506
586.20 0.5503
586.30 0.5499
586.40 0.5496
586.50 0.5492
586.60 0.5489
586.70 0.5485
586.80 0.5482
586.90 0.5478
587.00 0.5474
587.10 0.5471
587.20 0.5467
587.30 0.5464
587.40 0.546
587.50 0.5457
587.60 0.5453
587.70 0.545
587.80 0.5446
587.90 0.5443
588.00 0.5439
588.10 0.5436
588.20 0.5432
588.30 0.5429
588.40 0.5425
588.50 0.5422
588.60 0.5418
588.70 0.5415
588.80 0.5411
588.90 0.5408
589.00 0.5404
589.10 0.5401
589.20 0.5398
589.30 0.5394
589.40 0.5391
589.50 0.5387
589.60 0.5384
589.70 0.538
589.80 0.5377
589.90 0.5373
590.00 0.537
590.10 0.5366
590.20 0.5363
590.30 0.536
590.40 0.5356
590.50 0.5353
590.60 0.5349
590.70 0.5346
590.80 0.5342
590.90 0.5339
591.00 0.5336
591.10 0.5332
591.20 0.5329
591.30 0.5325
591.40 0.5322
591.50 0.5319
591.60 0.5315
591.70 0.5312
591.80 0.5308
591.90 0.5305
592.00 0.5302
592.10 0.5298
592.20 0.5295
592.30 0.5291
592.40 0.5288
592.50 0.5285
592.60 0.5281
592.70 0.5278
592.80 0.5275
592.90 0.5271
593.00 0.5268
593.10 0.5264
593.20 0.5261
593.30 0.5258
593.40 0.5254
593.50 0.5251
593.60 0.5248
593.70 0.5244
593.80 0.5241
593.90 0.5238
594.00 0.5234
594.10 0.5231
594.20 0.5228
594.30 0.5224
594.40 0.5221
594.50 0.5218
594.60 0.5214
594.70 0.5211
594.80 0.5208
594.90 0.5204
595.00 0.5201
595.10 0.5198
595.20 0.5194
595.30 0.5191
595.40 0.5188
595.50 0.5185
595.60 0.5181
595.70 0.5178
595.80 0.5175
595.90 0.5171
596.00 0.5168
596.10 0.5165
596.20 0.5162
596.30 0.5158
596.40 0.5155
596.50 0.5152
596.60 0.5148
596.70 0.5145
596.80 0.5142
596.90 0.5139
597.00 0.5135
597.10 0.5132
597.20 0.5129
597.30 0.5126
597.40 0.5122
597.50 0.5119
597.60 0.5116
597.70 0.5113
597.80 0.5109
597.90 0.5106
598.00 0.5103
598.10 0.51
598.20 0.5096
598.30 0.5093
598.40 0.509
598.50 0.5087
598.60 0.5084
598.70 0.508
598.80 0.5077
598.90 0.5074
599.00 0.5071
599.10 0.5068
599.20 0.5064
599.30 0.5061
599.40 0.5058
599.50 0.5055
599.60 0.5052
599.70 0.5048
599.80 0.5045
599.90 0.5042
600.00 0.5039
600.10 0.5036
600.20 0.5032
600.30 0.5029
600.40 0.5026
600.50 0.5023
600.60 0.502
600.70 0.5017
600.80 0.5013
600.90 0.501
601.00 0.5007
601.10 0.5004
601.20 0.5001
601.30 0.4998
601.40 0.4995
601.50 0.4991
601.60 0.4988
601.70 0.4985
601.80 0.4982
601.90 0.4979
602.00 0.4976
602.10 0.4973
602.20 0.4969
602.30 0.4966
602.40 0.4963
602.50 0.496
602.60 0.4957
602.70 0.4954
602.80 0.4951
602.90 0.4948
603.00 0.4944
603.10 0.4941
603.20 0.4938
603.30 0.4935
603.40 0.4932
603.50 0.4929
603.60 0.4926
603.70 0.4923
603.80 0.492
603.90 0.4917
604.00 0.4914
604.10 0.491
604.20 0.4907
604.30 0.4904
604.40 0.4901
604.50 0.4898
604.60 0.4895
604.70 0.4892
604.80 0.4889
604.90 0.4886
605.00 0.4883
605.10 0.488
605.20 0.4877
605.30 0.4874
605.40 0.4871
605.50 0.4868
605.60 0.4865
605.70 0.4861
605.80 0.4858
605.90 0.4855
606.00 0.4852
606.10 0.4849
606.20 0.4846
606.30 0.4843
606.40 0.484
606.50 0.4837
606.60 0.4834
606.70 0.4831
606.80 0.4828
606.90 0.4825
607.00 0.4822
607.10 0.4819
607.20 0.4816
607.30 0.4813
607.40 0.481
607.50 0.4807
607.60 0.4804
607.70 0.4801
607.80 0.4798
607.90 0.4795
608.00 0.4792
608.10 0.4789
608.20 0.4786
608.30 0.4783
608.40 0.478
608.50 0.4777
608.60 0.4774
608.70 0.4771
608.80 0.4768
608.90 0.4765
609.00 0.4762
609.10 0.4759
609.20 0.4756
609.30 0.4753
609.40 0.475
609.50 0.4748
609.60 0.4745
609.70 0.4742
609.80 0.4739
609.90 0.4736
610.00 0.4733
610.10 0.473
610.20 0.4727
610.30 0.4724
610.40 0.4721
610.50 0.4718
610.60 0.4715
610.70 0.4712
610.80 0.4709
610.90 0.4706
611.00 0.4703
611.10 0.4701
611.20 0.4698
611.30 0.4695
611.40 0.4692
611.50 0.4689
611.60 0.4686
611.70 0.4683
611.80 0.468
611.90 0.4677
612.00 0.4674
612.10 0.4671
612.20 0.4669
612.30 0.4666
612.40 0.4663
612.50 0.466
612.60 0.4657
612.70 0.4654
612.80 0.4651
612.90 0.4648
613.00 0.4646
613.10 0.4643
613.20 0.464
613.30 0.4637
613.40 0.4634
613.50 0.4631
613.60 0.4628
613.70 0.4625
613.80 0.4623
613.90 0.462
614.00 0.4617
614.10 0.4614
614.20 0.4611
614.30 0.4608
614.40 0.4605
614.50 0.4603
614.60 0.46
614.70 0.4597
614.80 0.4594
614.90 0.4591
615.00 0.4588
615.10 0.4586
615.20 0.4583
615.30 0.458
615.40 0.4577
615.50 0.4574
615.60 0.4571
615.70 0.4569
615.80 0.4566
615.90 0.4563
616.00 0.456
616.10 0.4557
616.20 0.4555
616.30 0.4552
616.40 0.4549
616.50 0.4546
616.60 0.4543
616.70 0.4541
616.80 0.4538
616.90 0.4535
617.00 0.4532
617.10 0.4529
617.20 0.4527
617.30 0.4524
617.40 0.4521
617.50 0.4518
617.60 0.4516
617.70 0.4513
617.80 0.451
617.90 0.4507
618.00 0.4504
618.10 0.4502
618.20 0.4499
618.30 0.4496
618.40 0.4493
618.50 0.4491
618.60 0.4488
618.70 0.4485
618.80 0.4482
618.90 0.448
619.00 0.4477
619.10 0.4474
619.20 0.4471
619.30 0.4469
619.40 0.4466
619.50 0.4463
619.60 0.446
619.70 0.4458
619.80 0.4455
619.90 0.4452
620.00 0.4449
620.10 0.4447
620.20 0.4444
620.30 0.4441
620.40 0.4439
620.50 0.4436
620.60 0.4433
620.70 0.443
620.80 0.4428
620.90 0.4425
621.00 0.4422
621.10 0.442
621.20 0.4417
621.30 0.4414
621.40 0.4411
621.50 0.4409
621.60 0.4406
621.70 0.4403
621.80 0.4401
621.90 0.4398
622.00 0.4395
622.10 0.4393
622.20 0.439
622.30 0.4387
622.40 0.4385
622.50 0.4382
622.60 0.4379
622.70 0.4377
622.80 0.4374
622.90 0.4371
623.00 0.4369
623.10 0.4366
623.20 0.4363
623.30 0.4361
623.40 0.4358
623.50 0.4355
623.60 0.4353
623.70 0.435
623.80 0.4347
623.90 0.4345
624.00 0.4342
624.10 0.4339
624.20 0.4337
624.30 0.4334
624.40 0.4331
624.50 0.4329
624.60 0.4326
624.70 0.4323
624.80 0.4321
624.90 0.4318
625.00 0.4316
625.10 0.4313
625.20 0.431
625.30 0.4308
625.40 0.4305
625.50 0.4302
625.60 0.43
625.70 0.4297
625.80 0.4295
625.90 0.4292
626.00 0.4289
626.10 0.4287
626.20 0.4284
626.30 0.4282
626.40 0.4279
626.50 0.4276
626.60 0.4274
626.70 0.4271
626.80 0.4269
626.90 0.4266
627.00 0.4263
627.10 0.4261
627.20 0.4258
627.30 0.4256
627.40 0.4253
627.50 0.425
627.60 0.4248
627.70 0.4245
627.80 0.4243
627.90 0.424
628.00 0.4238
628.10 0.4235
628.20 0.4232
628.30 0.423
628.40 0.4227
628.50 0.4225
628.60 0.4222
628.70 0.422
628.80 0.4217
628.90 0.4214
629.00 0.4212
629.10 0.4209
629.20 0.4207
629.30 0.4204
629.40 0.4202
629.50 0.4199
629.60 0.4197
629.70 0.4194
629.80 0.4192
629.90 0.4189
630.00 0.4186
630.10 0.4184
630.20 0.4181
630.30 0.4179
630.40 0.4176
630.50 0.4174
630.60 0.4171
630.70 0.4169
630.80 0.4166
630.90 0.4164
631.00 0.4161
631.10 0.4159
631.20 0.4156
631.30 0.4154
631.40 0.4151
631.50 0.4149
631.60 0.4146
631.70 0.4144
631.80 0.4141
631.90 0.4139
632.00 0.4136
632.10 0.4134
632.20 0.4131
632.30 0.4129
632.40 0.4126
632.50 0.4124
632.60 0.4121
632.70 0.4119
632.80 0.4116
632.90 0.4114
633.00 0.4111
633.10 0.4109
633.20 0.4106
633.30 0.4104
633.40 0.4101
633.50 0.4099
633.60 0.4096
633.70 0.4094
633.80 0.4091
633.90 0.4089
634.00 0.4086
634.10 0.4084
634.20 0.4081
634.30 0.4079
634.40 0.4076
634.50 0.4074
634.60 0.4071
634.70 0.4069
634.80 0.4067
634.90 0.4064
635.00 0.4062
635.10 0.4059
635.20 0.4057
635.30 0.4054
635.40 0.4052
635.50 0.4049
635.60 0.4047
635.70 0.4044
635.80 0.4042
635.90 0.404
636.00 0.4037
636.10 0.4035
636.20 0.4032
636.30 0.403
636.40 0.4027
636.50 0.4025
636.60 0.4022
636.70 0.402
636.80 0.4018
636.90 0.4015
637.00 0.4013
637.10 0.401
637.20 0.4008
637.30 0.4005
637.40 0.4003
637.50 0.4
637.60 0.3998
637.70 0.3996
637.80 0.3993
637.90 0.3991
638.00 0.3988
638.10 0.3986
638.20 0.3984
638.30 0.3981
638.40 0.3979
638.50 0.3976
638.60 0.3974
638.70 0.3971
638.80 0.3969
638.90 0.3967
639.00 0.3964
639.10 0.3962
639.20 0.3959
639.30 0.3957
639.40 0.3954
639.50 0.3952
639.60 0.395
639.70 0.3947
639.80 0.3945
639.90 0.3942
640.00 0.394
640.10 0.3938
640.20 0.3935
640.30 0.3933
640.40 0.393
640.50 0.3928
640.60 0.3926
640.70 0.3923
640.80 0.3921
640.90 0.3918
641.00 0.3916
641.10 0.3914
641.20 0.3911
641.30 0.3909
641.40 0.3906
641.50 0.3904
641.60 0.3901
641.70 0.3899
641.80 0.3897
641.90 0.3894
642.00 0.3892
642.10 0.3889
642.20 0.3887
642.30 0.3885
642.40 0.3882
642.50 0.388
642.60 0.3877
642.70 0.3875
642.80 0.3872
642.90 0.387
643.00 0.3868
643.10 0.3865
643.20 0.3863
643.30 0.386
643.40 0.3858
643.50 0.3856
643.60 0.3853
643.70 0.3851
643.80 0.3848
643.90 0.3846
644.00 0.3843
644.10 0.3841
644.20 0.3838
644.30 0.3836
644.40 0.3834
644.50 0.3831
644.60 0.3829
644.70 0.3826
644.80 0.3824
644.90 0.3821
645.00 0.3819
645.10 0.3816
645.20 0.3814
645.30 0.3811
645.40 0.3809
645.50 0.3806
645.60 0.3804
645.70 0.3801
645.80 0.3799
645.90 0.3796
646.00 0.3794
646.10 0.3791
646.20 0.3789
646.30 0.3786
646.40 0.3783
646.50 0.3781
646.60 0.3778
646.70 0.3776
646.80 0.3773
646.90 0.377
647.00 0.3768
647.10 0.3765
647.20 0.3763
647.30 0.376
647.40 0.3757
647.50 0.3754
647.60 0.3752
647.70 0.3749
647.80 0.3746
647.90 0.3743
648.00 0.3741
648.10 0.3738
648.20 0.3735
648.30 0.3732
648.40 0.3729
648.50 0.3726
648.60 0.3723
648.70 0.3721
648.80 0.3718
648.90 0.3715
649.00 0.3712
649.10 0.3709
649.20 0.3706
649.30 0.3703
649.40 0.3699
649.50 0.3696
649.60 0.3692
649.70 0.3689
649.80 0.3686
649.90 0.3682
650.00 0.3679
650.10 0.3676
650.20 0.3672
650.30 0.3669
650.40 0.3665
650.50 0.3661
650.60 0.3657
650.70 0.3653
650.80 0.3649
650.90 0.3644
651.00 0.364
651.10 0.3636
651.20 0.3632
651.30 0.3628
651.40 0.3623
651.50 0.3617
651.60 0.3612
651.70 0.3607
651.80 0.3601
651.90 0.3596
652.00 0.3591
652.10 0.3585
652.20 0.358
652.30 0.3574
652.40 0.3566
652.50 0.3559
652.60 0.3551
652.70 0.3543
652.80 0.3535
652.90 0.3527
653.00 0.3519
653.10 0.3512
653.20 0.3504
653.30 0.3495
653.40 0.3482
653.50 0.3469
653.60 0.3456
653.70 0.3443
653.80 0.343
653.90 0.3417
654.00 0.3405
654.10 0.3392
654.20 0.3379
654.30 0.3365
654.40 0.3345
654.50 0.3325
654.60 0.3305
654.70 0.3286
654.80 0.3264
654.90 0.3238
655.00 0.3211
655.10 0.3184
655.20 0.3157
655.30 0.3129
655.40 0.3095
655.50 0.3061
655.60 0.3023
655.70 0.2983
655.80 0.2939
655.90 0.2893
656.00 0.2835
656.10 0.2773
656.20 0.2588
656.30 0.2386
656.40 0.2687
656.50 0.2792
656.60 0.2847
656.70 0.2899
656.80 0.294
656.90 0.2979
657.00 0.3014
657.10 0.3047
657.20 0.3077
657.30 0.3106
657.40 0.3129
657.50 0.3152
657.60 0.3175
657.70 0.3198
657.80 0.322
657.90 0.3235
658.00 0.3251
658.10 0.3267
658.20 0.3283
658.30 0.3297
658.40 0.3306
658.50 0.3314
658.60 0.3323
658.70 0.3332
658.80 0.334
658.90 0.3349
659.00 0.3358
659.10 0.3367
659.20 0.3375
659.30 0.3383
659.40 0.3386
659.50 0.339
659.60 0.3394
659.70 0.3397
659.80 0.3401
659.90 0.3404
660.00 0.3408
660.10 0.3411
660.20 0.3415
660.30 0.3418
660.40 0.3419
660.50 0.342
660.60 0.3421
660.70 0.3422
660.80 0.3423
660.90 0.3424
661.00 0.3425
661.10 0.3426
661.20 0.3427
661.30 0.3428
661.40 0.3428
661.50 0.3428
661.60 0.3428
661.70 0.3427
661.80 0.3427
661.90 0.3427
662.00 0.3427
662.10 0.3426
662.20 0.3426
662.30 0.3426
662.40 0.3425
662.50 0.3424
662.60 0.3423
662.70 0.3422
662.80 0.3421
662.90 0.3421
663.00 0.342
663.10 0.3419
663.20 0.3418
663.30 0.3417
663.40 0.3416
663.50 0.3414
663.60 0.3413
663.70 0.3412
663.80 0.3411
663.90 0.3409
664.00 0.3408
664.10 0.3407
664.20 0.3406
664.30 0.3404
664.40 0.3403
664.50 0.3401
664.60 0.34
664.70 0.3399
664.80 0.3397
664.90 0.3396
665.00 0.3394
665.10 0.3393
665.20 0.3391
665.30 0.339
665.40 0.3388
665.50 0.3386
665.60 0.3385
665.70 0.3383
665.80 0.3382
665.90 0.338
666.00 0.3378
666.10 0.3377
666.20 0.3375
666.30 0.3374
666.40 0.3372
666.50 0.337
666.60 0.3369
666.70 0.3367
666.80 0.3365
666.90 0.3363
667.00 0.3362
667.10 0.336
667.20 0.3358
667.30 0.3357
667.40 0.3355
667.50 0.3353
667.60 0.3351
667.70 0.335
667.80 0.3348
667.90 0.3346
668.00 0.3345
668.10 0.3343
668.20 0.3341
668.30 0.3339
668.40 0.3338
668.50 0.3336
668.60 0.3334
668.70 0.3332
668.80 0.3331
668.90 0.3329
669.00 0.3327
669.10 0.3325
669.20 0.3323
669.30 0.3322
669.40 0.332
669.50 0.3318
669.60 0.3316
669.70 0.3315
669.80 0.3313
669.90 0.3311
670.00 0.3309
670.10 0.3307
670.20 0.3306
670.30 0.3304
670.40 0.3302
670.50 0.33
670.60 0.3299
670.70 0.3297
670.80 0.3295
670.90 0.3293
671.00 0.3291
671.10 0.329
671.20 0.3288
671.30 0.3286
671.40 0.3284
671.50 0.3282
671.60 0.3281
671.70 0.3279
671.80 0.3277
671.90 0.3275
672.00 0.3273
672.10 0.3272
672.20 0.327
672.30 0.3268
672.40 0.3266
672.50 0.3264
672.60 0.3263
672.70 0.3261
672.80 0.3259
672.90 0.3257
673.00 0.3255
673.10 0.3254
673.20 0.3252
673.30 0.325
673.40 0.3248
673.50 0.3247
673.60 0.3245
673.70 0.3243
673.80 0.3241
673.90 0.3239
674.00 0.3238
674.10 0.3236
674.20 0.3234
674.30 0.3232
674.40 0.323
674.50 0.3229
674.60 0.3227
674.70 0.3225
674.80 0.3223
674.90 0.3221
675.00 0.322
675.10 0.3218
675.20 0.3216
675.30 0.3214
675.40 0.3213
675.50 0.3211
675.60 0.3209
675.70 0.3207
675.80 0.3205
675.90 0.3204
676.00 0.3202
676.10 0.32
676.20 0.3198
676.30 0.3197
676.40 0.3195
676.50 0.3193
676.60 0.3191
676.70 0.3189
676.80 0.3188
676.90 0.3186
677.00 0.3184
677.10 0.3182
677.20 0.3181
677.30 0.3179
677.40 0.3177
677.50 0.3175
677.60 0.3174
677.70 0.3172
677.80 0.317
677.90 0.3168
678.00 0.3167
678.10 0.3165
678.20 0.3163
678.30 0.3161
678.40 0.3159
678.50 0.3158
678.60 0.3156
678.70 0.3154
678.80 0.3152
678.90 0.3151
679.00 0.3149
679.10 0.3147
679.20 0.3145
679.30 0.3144
679.40 0.3142
679.50 0.314
679.60 0.3138
679.70 0.3137
679.80 0.3135
679.90 0.3133
680.00 0.3132
680.10 0.313
680.20 0.3128
680.30 0.3126
680.40 0.3125
680.50 0.3123
680.60 0.3121
680.70 0.3119
680.80 0.3118
680.90 0.3116
681.00 0.3114
681.10 0.3112
681.20 0.3111
681.30 0.3109
681.40 0.3107
681.50 0.3106
681.60 0.3104
681.70 0.3102
681.80 0.31
681.90 0.3099
682.00 0.3097
682.10 0.3095
682.20 0.3093
682.30 0.3092
682.40 0.309
682.50 0.3088
682.60 0.3087
682.70 0.3085
682.80 0.3083
682.90 0.3081
683.00 0.308
683.10 0.3078
683.20 0.3076
683.30 0.3075
683.40 0.3073
683.50 0.3071
683.60 0.307
683.70 0.3068
683.80 0.3066
683.90 0.3064
684.00 0.3063
684.10 0.3061
684.20 0.3059
684.30 0.3058
684.40 0.3056
684.50 0.3054
684.60 0.3053
684.70 0.3051
684.80 0.3049
684.90 0.3047
685.00 0.3046
685.10 0.3044
685.20 0.3042
685.30 0.3041
685.40 0.3039
685.50 0.3037
685.60 0.3036
685.70 0.3034
685.80 0.3032
685.90 0.3031
686.00 0.3029
686.10 0.3027
686.20 0.3026
686.30 0.3024
686.40 0.3022
686.50 0.3021
686.60 0.3019
686.70 0.3017
686.80 0.3016
686.90 0.3014
687.00 0.3012
687.10 0.3011
687.20 0.3009
687.30 0.3007
687.40 0.3006
687.50 0.3004
687.60 0.3002
687.70 0.3001
687.80 0.2999
687.90 0.2997
688.00 0.2996
688.10 0.2994
688.20 0.2992
688.30 0.2991
688.40 0.2989
688.50 0.2987
688.60 0.2986
688.70 0.2984
688.80 0.2982
688.90 0.2981
689.00 0.2979
689.10 0.2978
689.20 0.2976
689.30 0.2974
689.40 0.2973
689.50 0.2971
689.60 0.2969
689.70 0.2968
689.80 0.2966
689.90 0.2964
690.00 0.2963
690.10 0.2961
690.20 0.296
690.30 0.2958
690.40 0.2956
690.50 0.2955
690.60 0.2953
690.70 0.2951
690.80 0.295
690.90 0.2948
691.00 0.2947
691.10 0.2945
691.20 0.2943
691.30 0.2942
691.40 0.294
691.50 0.2939
691.60 0.2937
691.70 0.2935
691.80 0.2934
691.90 0.2932
692.00 0.293
692.10 0.2929
692.20 0.2927
692.30 0.2926
692.40 0.2924
692.50 0.2922
692.60 0.2921
692.70 0.2919
692.80 0.2918
692.90 0.2916
693.00 0.2914
693.10 0.2913
693.20 0.2911
693.30 0.291
693.40 0.2908
693.50 0.2906
693.60 0.2905
693.70 0.2903
693.80 0.2902
693.90 0.29
694.00 0.2898
694.10 0.2897
694.20 0.2895
694.30 0.2894
694.40 0.2892
694.50 0.289
694.60 0.2889
694.70 0.2887
694.80 0.2886
694.90 0.2884
695.00 0.2883
695.10 0.2881
695.20 0.2879
695.30 0.2878
695.40 0.2876
695.50 0.2875
695.60 0.2873
695.70 0.2872
695.80 0.287
695.90 0.2868
696.00 0.2867
696.10 0.2865
696.20 0.2864
696.30 0.2862
696.40 0.2861
696.50 0.2859
696.60 0.2857
696.70 0.2856
696.80 0.2854
696.90 0.2853
697.00 0.2851
697.10 0.285
697.20 0.2848
697.30 0.2847
697.40 0.2845
697.50 0.2843
697.60 0.2842
697.70 0.284
697.80 0.2839
697.90 0.2837
698.00 0.2836
698.10 0.2834
698.20 0.2833
698.30 0.2831
698.40 0.283
698.50 0.2828
698.60 0.2826
698.70 0.2825
698.80 0.2823
698.90 0.2822
699.00 0.282
699.10 0.2819
699.20 0.2817
699.30 0.2816
699.40 0.2814
699.50 0.2813
699.60 0.2811
699.70 0.2809
699.80 0.2808
699.90 0.2806
700.00 0.2805
700.10 0.2803
700.20 0.2802
700.30 0.28
700.40 0.2799
700.50 0.2797
700.60 0.2796
700.70 0.2794
700.80 0.2793
700.90 0.2791
701.00 0.279
701.10 0.2788
701.20 0.2787
701.30 0.2785
701.40 0.2784
701.50 0.2782
701.60 0.2781
701.70 0.2779
701.80 0.2778
701.90 0.2776
702.00 0.2775
702.10 0.2773
702.20 0.2772
702.30 0.277
702.40 0.2769
702.50 0.2767
702.60 0.2766
702.70 0.2764
702.80 0.2763
702.90 0.2761
703.00 0.276
703.10 0.2758
703.20 0.2757
703.30 0.2755
703.40 0.2754
703.50 0.2752
703.60 0.2751
703.70 0.2749
703.80 0.2748
703.90 0.2746
704.00 0.2745
704.10 0.2743
704.20 0.2742
704.30 0.274
704.40 0.2739
704.50 0.2737
704.60 0.2736
704.70 0.2734
704.80 0.2733
704.90 0.2731
705.00 0.273
705.10 0.2728
705.20 0.2727
705.30 0.2725
705.40 0.2724
705.50 0.2722
705.60 0.2721
705.70 0.272
705.80 0.2718
705.90 0.2717
706.00 0.2715
706.10 0.2714
706.20 0.2712
706.30 0.2711
706.40 0.2709
706.50 0.2708
706.60 0.2706
706.70 0.2705
706.80 0.2703
706.90 0.2702
707.00 0.2701
707.10 0.2699
707.20 0.2698
707.30 0.2696
707.40 0.2695
707.50 0.2693
707.60 0.2692
707.70 0.269
707.80 0.2689
707.90 0.2688
708.00 0.2686
708.10 0.2685
708.20 0.2683
708.30 0.2682
708.40 0.268
708.50 0.2679
708.60 0.2677
708.70 0.2676
708.80 0.2674
708.90 0.2673
709.00 0.2672
709.10 0.267
709.20 0.2669
709.30 0.2667
709.40 0.2666
709.50 0.2664
709.60 0.2663
709.70 0.2662
709.80 0.266
709.90 0.2659
710.00 0.2657
710.10 0.2656
710.20 0.2654
710.30 0.2653
710.40 0.2652
710.50 0.265
710.60 0.2649
710.70 0.2647
710.80 0.2646
710.90 0.2644
711.00 0.2643
711.10 0.2642
711.20 0.264
711.30 0.2639
711.40 0.2637
711.50 0.2636
711.60 0.2635
711.70 0.2633
711.80 0.2632
711.90 0.263
712.00 0.2629
712.10 0.2628
712.20 0.2626
712.30 0.2625
712.40 0.2623
712.50 0.2622
712.60 0.2621
712.70 0.2619
712.80 0.2618
712.90 0.2616
713.00 0.2615
713.10 0.2614
713.20 0.2612
713.30 0.2611
713.40 0.2609
713.50 0.2608
713.60 0.2607
713.70 0.2605
713.80 0.2604
713.90 0.2602
714.00 0.2601
714.10 0.26
714.20 0.2598
714.30 0.2597
714.40 0.2595
714.50 0.2594
714.60 0.2593
714.70 0.2591
714.80 0.259
714.90 0.2588
715.00 0.2587
715.10 0.2586
715.20 0.2584
715.30 0.2583
715.40 0.2582
715.50 0.258
715.60 0.2579
715.70 0.2577
715.80 0.2576
715.90 0.2575
716.00 0.2573
716.10 0.2572
716.20 0.2571
716.30 0.2569
716.40 0.2568
716.50 0.2566
716.60 0.2565
716.70 0.2564
716.80 0.2562
716.90 0.2561
717.00 0.256
717.10 0.2558
717.20 0.2557
717.30 0.2556
717.40 0.2554
717.50 0.2553
717.60 0.2552
717.70 0.255
717.80 0.2549
717.90 0.2547
718.00 0.2546
718.10 0.2545
718.20 0.2543
718.30 0.2542
718.40 0.2541
718.50 0.2539
718.60 0.2538
718.70 0.2537
718.80 0.2535
718.90 0.2534
719.00 0.2533
719.10 0.2531
719.20 0.253
719.30 0.2529
719.40 0.2527
719.50 0.2526
719.60 0.2525
719.70 0.2523
719.80 0.2522
719.90 0.252
720.00 0.2519
720.10 0.2518
720.20 0.2516
720.30 0.2515
720.40 0.2514
720.50 0.2512
720.60 0.2511
720.70 0.251
720.80 0.2509
720.90 0.2507
721.00 0.2506
721.10 0.2505
721.20 0.2503
721.30 0.2502
721.40 0.2501
721.50 0.2499
721.60 0.2498
721.70 0.2497
721.80 0.2495
721.90 0.2494
722.00 0.2493
722.10 0.2491
722.20 0.249
722.30 0.2489
722.40 0.2487
722.50 0.2486
722.60 0.2485
722.70 0.2483
722.80 0.2482
722.90 0.2481
723.00 0.248
723.10 0.2478
723.20 0.2477
723.30 0.2476
723.40 0.2474
723.50 0.2473
723.60 0.2472
723.70 0.247
723.80 0.2469
723.90 0.2468
724.00 0.2466
724.10 0.2465
724.20 0.2464
724.30 0.2463
724.40 0.2461
724.50 0.246
724.60 0.2459
724.70 0.2457
724.80 0.2456
724.90 0.2455
725.00 0.2453
725.10 0.2452
725.20 0.2451
725.30 0.245
725.40 0.2448
725.50 0.2447
725.60 0.2446
725.70 0.2444
725.80 0.2443
725.90 0.2442
726.00 0.2441
726.10 0.2439
726.20 0.2438
726.30 0.2437
726.40 0.2435
726.50 0.2434
726.60 0.2433
726.70 0.2432
726.80 0.243
726.90 0.2429
727.00 0.2428
727.10 0.2427
727.20 0.2425
727.30 0.2424
727.40 0.2423
727.50 0.2421
727.60 0.242
727.70 0.2419
727.80 0.2418
727.90 0.2416
728.00 0.2415
728.10 0.2414
728.20 0.2413
728.30 0.2411
728.40 0.241
728.50 0.2409
728.60 0.2408
728.70 0.2406
728.80 0.2405
728.90 0.2404
729.00 0.2402
729.10 0.2401
729.20 0.24
729.30 0.2399
729.40 0.2397
729.50 0.2396
729.60 0.2395
729.70 0.2394
729.80 0.2392
729.90 0.2391
730.00 0.239
730.10 0.2389
730.20 0.2387
730.30 0.2386
730.40 0.2385
730.50 0.2384
730.60 0.2382
730.70 0.2381
730.80 0.238
730.90 0.2379
731.00 0.2378
731.10 0.2376
731.20 0.2375
731.30 0.2374
731.40 0.2373
731.50 0.2371
731.60 0.237
731.70 0.2369
731.80 0.2368
731.90 0.2366
732.00 0.2365
732.10 0.2364
732.20 0.2363
732.30 0.2362
732.40 0.236
732.50 0.2359
732.60 0.2358
732.70 0.2357
732.80 0.2355
732.90 0.2354
733.00 0.2353
733.10 0.2352
733.20 0.2351
733.30 0.2349
733.40 0.2348
733.50 0.2347
733.60 0.2346
733.70 0.2344
733.80 0.2343
733.90 0.2342
734.00 0.2341
734.10 0.234
734.20 0.2338
734.30 0.2337
734.40 0.2336
734.50 0.2335
734.60 0.2333
734.70 0.2332
734.80 0.2331
734.90 0.233
735.00 0.2329
735.10 0.2327
735.20 0.2326
735.30 0.2325
735.40 0.2324
735.50 0.2323
735.60 0.2321
735.70 0.232
735.80 0.2319
735.90 0.2318
736.00 0.2317
736.10 0.2315
736.20 0.2314
736.30 0.2313
736.40 0.2312
736.50 0.2311
736.60 0.2309
736.70 0.2308
736.80 0.2307
736.90 0.2306
737.00 0.2305
737.10 0.2303
737.20 0.2302
737.30 0.2301
737.40 0.23
737.50 0.2299
737.60 0.2297
737.70 0.2296
737.80 0.2295
737.90 0.2294
738.00 0.2293
738.10 0.2291
738.20 0.229
738.30 0.2289
738.40 0.2288
738.50 0.2287
738.60 0.2285
738.70 0.2284
738.80 0.2283
738.90 0.2282
739.00 0.2281
739.10 0.2279
739.20 0.2278
739.30 0.2277
739.40 0.2276
739.50 0.2275
739.60 0.2274
739.70 0.2272
739.80 0.2271
739.90 0.227
740.00 0.2269
740.10 0.2268
740.20 0.2266
740.30 0.2265
740.40 0.2264
740.50 0.2263
740.60 0.2262
740.70 0.2261
740.80 0.226
740.90 0.2258
741.00 0.2257
741.10 0.2256
741.20 0.2255
741.30 0.2254
741.40 0.2253
741.50 0.2251
741.60 0.225
741.70 0.2249
741.80 0.2248
741.90 0.2247
742.00 0.2246
742.10 0.2245
742.20 0.2243
742.30 0.2242
742.40 0.2241
742.50 0.224
742.60 0.2239
742.70 0.2238
742.80 0.2236
742.90 0.2235
743.00 0.2234
743.10 0.2233
743.20 0.2232
743.30 0.2231
743.40 0.223
743.50 0.2228
743.60 0.2227
743.70 0.2226
743.80 0.2225
743.90 0.2224
744.00 0.2223
744.10 0.2222
744.20 0.222
744.30 0.2219
744.40 0.2218
744.50 0.2217
744.60 0.2216
744.70 0.2215
744.80 0.2214
744.90 0.2213
745.00 0.2211
745.10 0.221
745.20 0.2209
745.30 0.2208
745.40 0.2207
745.50 0.2206
745.60 0.2205
745.70 0.2203
745.80 0.2202
745.90 0.2201
746.00 0.22
746.10 0.2199
746.20 0.2198
746.30 0.2197
746.40 0.2196
746.50 0.2194
746.60 0.2193
746.70 0.2192
746.80 0.2191
746.90 0.219
747.00 0.2189
747.10 0.2188
747.20 0.2187
747.30 0.2185
747.40 0.2184
747.50 0.2183
747.60 0.2182
747.70 0.2181
747.80 0.218
747.90 0.2179
748.00 0.2178
748.10 0.2176
748.20 0.2175
748.30 0.2174
748.40 0.2173
748.50 0.2172
748.60 0.2171
748.70 0.217
748.80 0.2169
748.90 0.2168
749.00 0.2166
749.10 0.2165
749.20 0.2164
749.30 0.2163
749.40 0.2162
749.50 0.2161
749.60 0.216
749.70 0.2159
749.80 0.2158
749.90 0.2156
750.00 0.2155
750.10 0.2154
750.20 0.2153
750.30 0.2152
750.40 0.2151
750.50 0.215
750.60 0.2149
750.70 0.2148
750.80 0.2147
750.90 0.2146
751.00 0.2144
751.10 0.2143
751.20 0.2142
751.30 0.2141
751.40 0.214
751.50 0.2139
751.60 0.2138
751.70 0.2137
751.80 0.2136
751.90 0.2135
752.00 0.2134
752.10 0.2133
752.20 0.2131
752.30 0.213
752.40 0.2129
752.50 0.2128
752.60 0.2127
752.70 0.2126
752.80 0.2125
752.90 0.2124
753.00 0.2123
753.10 0.2122
753.20 0.2121
753.30 0.212
753.40 0.2119
753.50 0.2117
753.60 0.2116
753.70 0.2115
753.80 0.2114
753.90 0.2113
754.00 0.2112
754.10 0.2111
754.20 0.211
754.30 0.2109
754.40 0.2108
754.50 0.2107
754.60 0.2106
754.70 0.2105
754.80 0.2104
754.90 0.2103
755.00 0.2101
755.10 0.21
755.20 0.2099
755.30 0.2098
755.40 0.2097
755.50 0.2096
755.60 0.2095
755.70 0.2094
755.80 0.2093
755.90 0.2092
756.00 0.2091
756.10 0.209
756.20 0.2089
756.30 0.2088
756.40 0.2087
756.50 0.2086
756.60 0.2084
756.70 0.2083
756.80 0.2082
756.90 0.2081
757.00 0.208
757.10 0.2079
757.20 0.2078
757.30 0.2077
757.40 0.2076
757.50 0.2075
757.60 0.2074
757.70 0.2073
757.80 0.2072
757.90 0.2071
758.00 0.207
758.10 0.2069
758.20 0.2068
758.30 0.2067
758.40 0.2066
758.50 0.2064
758.60 0.2063
758.70 0.2062
758.80 0.2061
758.90 0.206
759.00 0.2059
759.10 0.2058
759.20 0.2057
759.30 0.2056
759.40 0.2055
759.50 0.2054
759.60 0.2053
759.70 0.2052
759.80 0.2051
759.90 0.205
760.00 0.2049
760.10 0.2048
760.20 0.2047
760.30 0.2046
760.40 0.2045
760.50 0.2044
760.60 0.2043
760.70 0.2042
760.80 0.2041
760.90 0.204
761.00 0.2039
761.10 0.2038
761.20 0.2037
761.30 0.2036
761.40 0.2035
761.50 0.2034
761.60 0.2033
761.70 0.2031
761.80 0.203
761.90 0.2029
762.00 0.2028
762.10 0.2027
762.20 0.2026
762.30 0.2025
762.40 0.2024
762.50 0.2023
762.60 0.2022
762.70 0.2021
762.80 0.202
762.90 0.2019
763.00 0.2018
763.10 0.2017
763.20 0.2016
763.30 0.2015
763.40 0.2014
763.50 0.2013
763.60 0.2012
763.70 0.2011
763.80 0.201
763.90 0.2009
764.00 0.2008
764.10 0.2007
764.20 0.2006
764.30 0.2005
764.40 0.2004
764.50 0.2003
764.60 0.2002
764.70 0.2001
764.80 0.2
764.90 0.1999
765.00 0.1998
765.10 0.1997
765.20 0.1996
765.30 0.1995
765.40 0.1994
765.50 0.1993
765.60 0.1992
765.70 0.1991
765.80 0.199
765.90 0.1989
766.00 0.1988
766.10 0.1987
766.20 0.1986
766.30 0.1985
766.40 0.1984
766.50 0.1983
766.60 0.1982
766.70 0.1981
766.80 0.198
766.90 0.1979
767.00 0.1978
767.10 0.1977
767.20 0.1976
767.30 0.1975
767.40 0.1974
767.50 0.1973
767.60 0.1972
767.70 0.1971
767.80 0.197
767.90 0.1969
768.00 0.1968
768.10 0.1967
768.20 0.1966
768.30 0.1966
768.40 0.1965
768.50 0.1964
768.60 0.1963
768.70 0.1962
768.80 0.1961
768.90 0.196
769.00 0.1959
769.10 0.1958
769.20 0.1957
769.30 0.1956
769.40 0.1955
769.50 0.1954
769.60 0.1953
769.70 0.1952
769.80 0.1951
769.90 0.195
770.00 0.1949
770.10 0.1948
770.20 0.1947
770.30 0.1946
770.40 0.1945
770.50 0.1944
770.60 0.1943
770.70 0.1942
770.80 0.1941
770.90 0.194
771.00 0.1939
771.10 0.1938
771.20 0.1937
771.30 0.1936
771.40 0.1935
771.50 0.1934
771.60 0.1934
771.70 0.1933
771.80 0.1932
771.90 0.1931
772.00 0.193
772.10 0.1929
772.20 0.1928
772.30 0.1927
772.40 0.1926
772.50 0.1925
772.60 0.1924
772.70 0.1923
772.80 0.1922
772.90 0.1921
773.00 0.192
773.10 0.1919
773.20 0.1918
773.30 0.1917
773.40 0.1916
773.50 0.1915
773.60 0.1915
773.70 0.1914
773.80 0.1913
773.90 0.1912
774.00 0.1911
774.10 0.191
774.20 0.1909
774.30 0.1908
774.40 0.1907
774.50 0.1906
774.60 0.1905
774.70 0.1904
774.80 0.1903
774.90 0.1902
775.00 0.1901
775.10 0.19
775.20 0.1899
775.30 0.1898
775.40 0.1898
775.50 0.1897
775.60 0.1896
775.70 0.1895
775.80 0.1894
775.90 0.1893
776.00 0.1892
776.10 0.1891
776.20 0.189
776.30 0.1889
776.40 0.1888
776.50 0.1887
776.60 0.1886
776.70 0.1885
776.80 0.1884
776.90 0.1884
777.00 0.1883
777.10 0.1882
777.20 0.1881
777.30 0.188
777.40 0.1879
777.50 0.1878
777.60 0.1877
777.70 0.1876
777.80 0.1875
777.90 0.1874
778.00 0.1873
778.10 0.1872
778.20 0.1871
778.30 0.1871
778.40 0.187
778.50 0.1869
778.60 0.1868
778.70 0.1867
778.80 0.1866
778.90 0.1865
779.00 0.1864
779.10 0.1863
779.20 0.1862
779.30 0.1861
779.40 0.186
779.50 0.1859
779.60 0.1859
779.70 0.1858
779.80 0.1857
779.90 0.1856
780.00 0.1855
780.10 0.1854
780.20 0.1853
780.30 0.1852
780.40 0.1851
780.50 0.185
780.60 0.1849
780.70 0.1849
780.80 0.1848
780.90 0.1847
781.00 0.1846
781.10 0.1845
781.20 0.1844
781.30 0.1843
781.40 0.1842
781.50 0.1841
781.60 0.184
781.70 0.184
781.80 0.1839
781.90 0.1838
782.00 0.1837
782.10 0.1836
782.20 0.1835
782.30 0.1834
782.40 0.1833
782.50 0.1832
782.60 0.1831
782.70 0.1831
782.80 0.183
782.90 0.1829
783.00 0.1828
783.10 0.1827
783.20 0.1826
783.30 0.1825
783.40 0.1824
783.50 0.1823
783.60 0.1823
783.70 0.1822
783.80 0.1821
783.90 0.182
784.00 0.1819
784.10 0.1818
784.20 0.1817
784.30 0.1816
784.40 0.1815
784.50 0.1815
784.60 0.1814
784.70 0.1813
784.80 0.1812
784.90 0.1811
785.00 0.181
785.10 0.1809
785.20 0.1808
785.30 0.1808
785.40 0.1807
785.50 0.1806
785.60 0.1805
785.70 0.1804
785.80 0.1803
785.90 0.1802
786.00 0.1801
786.10 0.18
786.20 0.18
786.30 0.1799
786.40 0.1798
786.50 0.1797
786.60 0.1796
786.70 0.1795
786.80 0.1794
786.90 0.1793
787.00 0.1793
787.10 0.1792
787.20 0.1791
787.30 0.179
787.40 0.1789
787.50 0.1788
787.60 0.1787
787.70 0.1786
787.80 0.1786
787.90 0.1785
788.00 0.1784
788.10 0.1783
788.20 0.1782
788.30 0.1781
788.40 0.178
788.50 0.178
788.60 0.1779
788.70 0.1778
788.80 0.1777
788.90 0.1776
789.00 0.1775
789.10 0.1774
789.20 0.1773
789.30 0.1773
789.40 0.1772
789.50 0.1771
789.60 0.177
789.70 0.1769
789.80 0.1768
789.90 0.1767
790.00 0.1766
790.10 0.1766
790.20 0.1765
790.30 0.1764
790.40 0.1763
790.50 0.1762
790.60 0.1761
790.70 0.1761
790.80 0.176
790.90 0.1759
791.00 0.1758
791.10 0.1757
791.20 0.1756
791.30 0.1755
791.40 0.1755
791.50 0.1754
791.60 0.1753
791.70 0.1752
791.80 0.1751
791.90 0.175
792.00 0.175
792.10 0.1749
792.20 0.1748
792.30 0.1747
792.40 0.1746
792.50 0.1745
792.60 0.1745
792.70 0.1744
792.80 0.1743
792.90 0.1742
793.00 0.1741
793.10 0.174
793.20 0.1739
793.30 0.1739
793.40 0.1738
793.50 0.1737
793.60 0.1736
793.70 0.1735
793.80 0.1734
793.90 0.1734
794.00 0.1733
794.10 0.1732
794.20 0.1731
794.30 0.173
794.40 0.1729
794.50 0.1729
794.60 0.1728
794.70 0.1727
794.80 0.1726
794.90 0.1725
795.00 0.1724
795.10 0.1724
795.20 0.1723
795.30 0.1722
795.40 0.1721
795.50 0.172
795.60 0.1719
795.70 0.1719
795.80 0.1718
795.90 0.1717
796.00 0.1716
796.10 0.1715
796.20 0.1715
796.30 0.1714
796.40 0.1713
796.50 0.1712
796.60 0.1711
796.70 0.171
796.80 0.171
796.90 0.1709
797.00 0.1708
797.10 0.1707
797.20 0.1706
797.30 0.1705
797.40 0.1705
797.50 0.1704
797.60 0.1703
797.70 0.1702
797.80 0.1701
797.90 0.17
798.00 0.17
798.10 0.1699
798.20 0.1698
798.30 0.1697
798.40 0.1696
798.50 0.1696
798.60 0.1695
798.70 0.1694
798.80 0.1693
798.90 0.1692
799.00 0.1691
799.10 0.1691
799.20 0.169
799.30 0.1689
799.40 0.1688
799.50 0.1687
799.60 0.1687
799.70 0.1686
799.80 0.1685
799.90 0.1684
800.00 0.1683
800.10 0.1683
800.20 0.1682
800.30 0.1681
800.40 0.168
800.50 0.1679
800.60 0.1679
800.70 0.1678
800.80 0.1677
800.90 0.1676
801.00 0.1675
801.10 0.1675
801.20 0.1674
801.30 0.1673
801.40 0.1672
801.50 0.1671
801.60 0.1671
801.70 0.167
801.80 0.1669
801.90 0.1668
802.00 0.1667
802.10 0.1667
802.20 0.1666
802.30 0.1665
802.40 0.1664
802.50 0.1663
802.60 0.1663
802.70 0.1662
802.80 0.1661
802.90 0.166
803.00 0.1659
803.10 0.1659
803.20 0.1658
803.30 0.1657
803.40 0.1656
803.50 0.1656
803.60 0.1655
803.70 0.1654
803.80 0.1653
803.90 0.1652
804.00 0.1652
804.10 0.1651
804.20 0.165
804.30 0.1649
804.40 0.1648
804.50 0.1648
804.60 0.1647
804.70 0.1646
804.80 0.1645
804.90 0.1645
805.00 0.1644
805.10 0.1643
805.20 0.1642
805.30 0.1641
805.40 0.1641
805.50 0.164
805.60 0.1639
805.70 0.1638
805.80 0.1637
805.90 0.1637
806.00 0.1636
806.10 0.1635
806.20 0.1634
806.30 0.1634
806.40 0.1633
806.50 0.1632
806.60 0.1631
806.70 0.163
806.80 0.163
806.90 0.1629
807.00 0.1628
807.10 0.1627
807.20 0.1627
807.30 0.1626
807.40 0.1625
807.50 0.1624
807.60 0.1623
807.70 0.1623
807.80 0.1622
807.90 0.1621
808.00 0.162
808.10 0.162
808.20 0.1619
808.30 0.1618
808.40 0.1617
808.50 0.1617
808.60 0.1616
808.70 0.1615
808.80 0.1614
808.90 0.1613
809.00 0.1613
809.10 0.1612
809.20 0.1611
809.30 0.161
809.40 0.161
809.50 0.1609
809.60 0.1608
809.70 0.1607
809.80 0.1607
809.90 0.1606
810.00 0.1605
810.10 0.1604
810.20 0.1603
810.30 0.1603
810.40 0.1602
810.50 0.1601
810.60 0.16
810.70 0.16
810.80 0.1599
810.90 0.1598
811.00 0.1597
811.10 0.1597
811.20 0.1596
811.30 0.1595
811.40 0.1594
811.50 0.1594
811.60 0.1593
811.70 0.1592
811.80 0.1591
811.90 0.1591
812.00 0.159
812.10 0.1589
812.20 0.1588
812.30 0.1588
812.40 0.1587
812.50 0.1586
812.60 0.1586
812.70 0.1585
812.80 0.1584
812.90 0.1583
813.00 0.1583
813.10 0.1582
813.20 0.1581
813.30 0.158
813.40 0.158
813.50 0.1579
813.60 0.1578
813.70 0.1577
813.80 0.1577
813.90 0.1576
814.00 0.1575
814.10 0.1574
814.20 0.1574
814.30 0.1573
814.40 0.1572
814.50 0.1571
814.60 0.1571
814.70 0.157
814.80 0.1569
814.90 0.1568
815.00 0.1568
815.10 0.1567
815.20 0.1566
815.30 0.1565
815.40 0.1565
815.50 0.1564
815.60 0.1563
815.70 0.1563
815.80 0.1562
815.90 0.1561
816.00 0.156
816.10 0.156
816.20 0.1559
816.30 0.1558
816.40 0.1557
816.50 0.1557
816.60 0.1556
816.70 0.1555
816.80 0.1554
816.90 0.1554
817.00 0.1553
817.10 0.1552
817.20 0.1552
817.30 0.1551
817.40 0.155
817.50 0.1549
817.60 0.1549
817.70 0.1548
817.80 0.1547
817.90 0.1546
818.00 0.1546
818.10 0.1545
818.20 0.1544
818.30 0.1544
818.40 0.1543
818.50 0.1542
818.60 0.1541
818.70 0.1541
818.80 0.154
818.90 0.1539
819.00 0.1538
819.10 0.1538
819.20 0.1537
819.30 0.1536
819.40 0.1536
819.50 0.1535
819.60 0.1534
819.70 0.1533
819.80 0.1533
819.90 0.1532
820.00 0.1531
820.10 0.153
820.20 0.153
820.30 0.1529
820.40 0.1528
820.50 0.1528
820.60 0.1527
820.70 0.1526
820.80 0.1525
820.90 0.1525
821.00 0.1524
821.10 0.1523
821.20 0.1523
821.30 0.1522
821.40 0.1521
821.50 0.152
821.60 0.152
821.70 0.1519
821.80 0.1518
821.90 0.1518
822.00 0.1517
822.10 0.1516
822.20 0.1516
822.30 0.1515
822.40 0.1514
822.50 0.1513
822.60 0.1513
822.70 0.1512
822.80 0.1511
822.90 0.1511
823.00 0.151
823.10 0.1509
823.20 0.1508
823.30 0.1508
823.40 0.1507
823.50 0.1506
823.60 0.1506
823.70 0.1505
823.80 0.1504
823.90 0.1504
824.00 0.1503
824.10 0.1502
824.20 0.1501
824.30 0.1501
824.40 0.15
824.50 0.1499
824.60 0.1499
824.70 0.1498
824.80 0.1497
824.90 0.1497
825.00 0.1496
825.10 0.1495
825.20 0.1494
825.30 0.1494
825.40 0.1493
825.50 0.1492
825.60 0.1492
825.70 0.1491
825.80 0.149
825.90 0.149
826.00 0.1489
826.10 0.1488
826.20 0.1488
826.30 0.1487
826.40 0.1486
826.50 0.1485
826.60 0.1485
826.70 0.1484
826.80 0.1483
826.90 0.1483
827.00 0.1482
827.10 0.1481
827.20 0.1481
827.30 0.148
827.40 0.1479
827.50 0.1479
827.60 0.1478
827.70 0.1477
827.80 0.1477
827.90 0.1476
828.00 0.1475
828.10 0.1474
828.20 0.1474
828.30 0.1473
828.40 0.1472
828.50 0.1472
828.60 0.1471
828.70 0.147
828.80 0.147
828.90 0.1469
829.00 0.1468
829.10 0.1468
829.20 0.1467
829.30 0.1466
829.40 0.1466
829.50 0.1465
829.60 0.1464
829.70 0.1464
829.80 0.1463
829.90 0.1462
830.00 0.1462
830.10 0.1461
830.20 0.146
830.30 0.1459
830.40 0.1459
830.50 0.1458
830.60 0.1457
830.70 0.1457
830.80 0.1456
830.90 0.1455
831.00 0.1455
831.10 0.1454
831.20 0.1453
831.30 0.1453
831.40 0.1452
831.50 0.1451
831.60 0.1451
831.70 0.145
831.80 0.1449
831.90 0.1449
832.00 0.1448
832.10 0.1447
832.20 0.1447
832.30 0.1446
832.40 0.1445
832.50 0.1445
832.60 0.1444
832.70 0.1443
832.80 0.1443
832.90 0.1442
833.00 0.1441
833.10 0.1441
833.20 0.144
833.30 0.1439
833.40 0.1439
833.50 0.1438
833.60 0.1437
833.70 0.1437
833.80 0.1436
833.90 0.1435
834.00 0.1435
834.10 0.1434
834.20 0.1433
834.30 0.1433
834.40 0.1432
834.50 0.1431
834.60 0.143
834.70 0.143
834.80 0.1429
834.90 0.1428
835.00 0.1428
835.10 0.1427
835.20 0.1426
835.30 0.1426
835.40 0.1425
835.50 0.1424
835.60 0.1424
835.70 0.1423
835.80 0.1422
835.90 0.1422
836.00 0.1421
836.10 0.142
836.20 0.142
836.30 0.1419
836.40 0.1418
836.50 0.1418
836.60 0.1417
836.70 0.1417
836.80 0.1416
836.90 0.1415
837.00 0.1415
837.10 0.1414
837.20 0.1413
837.30 0.1413
837.40 0.1412
837.50 0.1411
837.60 0.1411
837.70 0.141
837.80 0.1409
837.90 0.1409
838.00 0.1408
838.10 0.1407
838.20 0.1407
838.30 0.1406
838.40 0.1405
838.50 0.1405
838.60 0.1404
838.70 0.1403
838.80 0.1403
838.90 0.1402
839.00 0.1402
839.10 0.1401
839.20 0.14
839.30 0.14
839.40 0.1399
839.50 0.1398
839.60 0.1398
839.70 0.1397
839.80 0.1396
839.90 0.1396
840.00 0.1395
840.10 0.1394
840.20 0.1394
840.30 0.1393
840.40 0.1392
840.50 0.1392
840.60 0.1391
840.70 0.1391
840.80 0.139
840.90 0.1389
841.00 0.1389
841.10 0.1388
841.20 0.1387
841.30 0.1387
841.40 0.1386
841.50 0.1385
841.60 0.1385
841.70 0.1384
841.80 0.1383
841.90 0.1383
842.00 0.1382
842.10 0.1382
842.20 0.1381
842.30 0.138
842.40 0.138
842.50 0.1379
842.60 0.1378
842.70 0.1378
842.80 0.1377
842.90 0.1377
843.00 0.1376
843.10 0.1375
843.20 0.1375
843.30 0.1374
843.40 0.1373
843.50 0.1373
843.60 0.1372
843.70 0.1371
843.80 0.1371
843.90 0.137
844.00 0.137
844.10 0.1369
844.20 0.1368
844.30 0.1368
844.40 0.1367
844.50 0.1366
844.60 0.1366
844.70 0.1365
844.80 0.1365
844.90 0.1364
845.00 0.1363
845.10 0.1363
845.20 0.1362
845.30 0.1361
845.40 0.1361
845.50 0.136
845.60 0.136
845.70 0.1359
845.80 0.1358
845.90 0.1358
846.00 0.1357
846.10 0.1356
846.20 0.1356
846.30 0.1355
846.40 0.1355
846.50 0.1354
846.60 0.1353
846.70 0.1353
846.80 0.1352
846.90 0.1351
847.00 0.1351
847.10 0.135
847.20 0.135
847.30 0.1349
847.40 0.1348
847.50 0.1348
847.60 0.1347
847.70 0.1347
847.80 0.1346
847.90 0.1345
848.00 0.1345
848.10 0.1344
848.20 0.1343
848.30 0.1343
848.40 0.1342
848.50 0.1342
848.60 0.1341
848.70 0.134
848.80 0.134
848.90 0.1339
849.00 0.1339
849.10 0.1338
849.20 0.1337
849.30 0.1337
849.40 0.1336
849.50 0.1336
849.60 0.1335
849.70 0.1334
849.80 0.1334
849.90 0.1333
850.00 0.1333
850.10 0.1332
850.20 0.1331
850.30 0.1331
850.40 0.133
850.50 0.1329
850.60 0.1329
850.70 0.1328
850.80 0.1328
850.90 0.1327
851.00 0.1326
851.10 0.1326
851.20 0.1325
851.30 0.1325
851.40 0.1324
851.50 0.1323
851.60 0.1323
851.70 0.1322
851.80 0.1322
851.90 0.1321
852.00 0.132
852.10 0.132
852.20 0.1319
852.30 0.1319
852.40 0.1318
852.50 0.1317
852.60 0.1317
852.70 0.1316
852.80 0.1316
852.90 0.1315
853.00 0.1314
853.10 0.1314
853.20 0.1313
853.30 0.1313
853.40 0.1312
853.50 0.1312
853.60 0.1311
853.70 0.131
853.80 0.131
853.90 0.1309
854.00 0.1309
854.10 0.1308
854.20 0.1307
854.30 0.1307
854.40 0.1306
854.50 0.1306
854.60 0.1305
854.70 0.1304
854.80 0.1304
854.90 0.1303
855.00 0.1303
855.10 0.1302
855.20 0.1302
855.30 0.1301
855.40 0.13
855.50 0.13
855.60 0.1299
855.70 0.1299
855.80 0.1298
855.90 0.1297
856.00 0.1297
856.10 0.1296
856.20 0.1296
856.30 0.1295
856.40 0.1294
856.50 0.1294
856.60 0.1293
856.70 0.1293
856.80 0.1292
856.90 0.1292
857.00 0.1291
857.10 0.129
857.20 0.129
857.30 0.1289
857.40 0.1289
857.50 0.1288
857.60 0.1288
857.70 0.1287
857.80 0.1286
857.90 0.1286
858.00 0.1285
858.10 0.1285
858.20 0.1284
858.30 0.1284
858.40 0.1283
858.50 0.1282
858.60 0.1282
858.70 0.1281
858.80 0.1281
858.90 0.128
859.00 0.128
859.10 0.1279
859.20 0.1278
859.30 0.1278
859.40 0.1277
859.50 0.1277
859.60 0.1276
859.70 0.1276
859.80 0.1275
859.90 0.1274
860.00 0.1274
860.10 0.1273
860.20 0.1273
860.30 0.1272
860.40 0.1272
860.50 0.1271
860.60 0.1271
860.70 0.127
860.80 0.1269
860.90 0.1269
861.00 0.1268
861.10 0.1268
861.20 0.1267
861.30 0.1267
861.40 0.1266
861.50 0.1265
861.60 0.1265
861.70 0.1264
861.80 0.1264
861.90 0.1263
862.00 0.1263
862.10 0.1262
862.20 0.1262
862.30 0.1261
862.40 0.126
862.50 0.126
862.60 0.1259
862.70 0.1259
862.80 0.1258
862.90 0.1258
863.00 0.1257
863.10 0.1257
863.20 0.1256
863.30 0.1255
863.40 0.1255
863.50 0.1254
863.60 0.1254
863.70 0.1253
863.80 0.1253
863.90 0.1252
864.00 0.1252
864.10 0.1251
864.20 0.1251
864.30 0.125
864.40 0.1249
864.50 0.1249
864.60 0.1248
864.70 0.1248
864.80 0.1247
864.90 0.1247
865.00 0.1246
865.10 0.1246
865.20 0.1245
865.30 0.1244
865.40 0.1244
865.50 0.1243
865.60 0.1243
865.70 0.1242
865.80 0.1242
865.90 0.1241
866.00 0.1241
866.10 0.124
866.20 0.124
866.30 0.1239
866.40 0.1238
866.50 0.1238
866.60 0.1237
866.70 0.1237
866.80 0.1236
866.90 0.1236
867.00 0.1235
867.10 0.1235
867.20 0.1234
867.30 0.1234
867.40 0.1233
867.50 0.1233
867.60 0.1232
867.70 0.1231
867.80 0.1231
867.90 0.123
868.00 0.123
868.10 0.1229
868.20 0.1229
868.30 0.1228
868.40 0.1228
868.50 0.1227
868.60 0.1227
868.70 0.1226
868.80 0.1226
868.90 0.1225
869.00 0.1225
869.10 0.1224
869.20 0.1223
869.30 0.1223
869.40 0.1222
869.50 0.1222
869.60 0.1221
869.70 0.1221
869.80 0.122
869.90 0.122
870.00 0.1219
870.10 0.1219
870.20 0.1218
870.30 0.1218
870.40 0.1217
870.50 0.1217
870.60 0.1216
870.70 0.1216
870.80 0.1215
870.90 0.1214
871.00 0.1214
871.10 0.1213
871.20 0.1213
871.30 0.1212
871.40 0.1212
871.50 0.1211
871.60 0.1211
871.70 0.121
871.80 0.121
871.90 0.1209
872.00 0.1209
872.10 0.1208
872.20 0.1208
872.30 0.1207
872.40 0.1207
872.50 0.1206
872.60 0.1206
872.70 0.1205
872.80 0.1205
872.90 0.1204
873.00 0.1204
873.10 0.1203
873.20 0.1202
873.30 0.1202
873.40 0.1201
873.50 0.1201
873.60 0.12
873.70 0.12
873.80 0.1199
873.90 0.1199
874.00 0.1198
874.10 0.1198
874.20 0.1197
874.30 0.1197
874.40 0.1196
874.50 0.1196
874.60 0.1195
874.70 0.1195
874.80 0.1194
874.90 0.1194
875.00 0.1193
875.10 0.1193
875.20 0.1192
875.30 0.1192
875.40 0.1191
875.50 0.1191
875.60 0.119
875.70 0.119
875.80 0.1189
875.90 0.1189
876.00 0.1188
876.10 0.1188
876.20 0.1187
876.30 0.1187
876.40 0.1186
876.50 0.1186
876.60 0.1185
876.70 0.1185
876.80 0.1184
876.90 0.1184
877.00 0.1183
877.10 0.1183
877.20 0.1182
877.30 0.1182
877.40 0.1181
877.50 0.118
877.60 0.118
877.70 0.1179
877.80 0.1179
877.90 0.1178
878.00 0.1178
878.10 0.1177
878.20 0.1177
878.30 0.1176
878.40 0.1176
878.50 0.1175
878.60 0.1175
878.70 0.1174
878.80 0.1174
878.90 0.1173
879.00 0.1173
879.10 0.1172
879.20 0.1172
879.30 0.1171
879.40 0.1171
879.50 0.117
879.60 0.117
879.70 0.1169
879.80 0.1169
879.90 0.1168
880.00 0.1168
880.10 0.1167
880.20 0.1167
880.30 0.1166
880.40 0.1166
880.50 0.1165
880.60 0.1165
880.70 0.1164
880.80 0.1164
880.90 0.1163
881.00 0.1163
881.10 0.1162
881.20 0.1162
881.30 0.1161
881.40 0.1161
881.50 0.116
881.60 0.116
881.70 0.1159
881.80 0.1159
881.90 0.1158
882.00 0.1158
882.10 0.1157
882.20 0.1157
882.30 0.1156
882.40 0.1156
882.50 0.1155
882.60 0.1155
882.70 0.1154
882.80 0.1154
882.90 0.1153
883.00 0.1153
883.10 0.1152
883.20 0.1152
883.30 0.1151
883.40 0.1151
883.50 0.115
883.60 0.115
883.70 0.1149
883.80 0.1149
883.90 0.1148
884.00 0.1148
884.10 0.1147
884.20 0.1147
884.30 0.1146
884.40 0.1146
884.50 0.1145
884.60 0.1145
884.70 0.1144
884.80 0.1144
884.90 0.1143
885.00 0.1143
885.10 0.1142
885.20 0.1142
885.30 0.1141
885.40 0.1141
885.50 0.114
885.60 0.1139
885.70 0.1139
885.80 0.1138
885.90 0.1138
886.00 0.1137
886.10 0.1137
886.20 0.1136
886.30 0.1136
886.40 0.1135
886.50 0.1135
886.60 0.1134
886.70 0.1134
886.80 0.1133
886.90 0.1133
887.00 0.1132
887.10 0.1132
887.20 0.1132
887.30 0.1131
887.40 0.1131
887.50 0.113
887.60 0.113
887.70 0.1129
887.80 0.1129
887.90 0.1129
888.00 0.1128
888.10 0.1128
888.20 0.1127
888.30 0.1127
888.40 0.1126
888.50 0.1126
888.60 0.1125
888.70 0.1125
888.80 0.1125
888.90 0.1124
889.00 0.1124
889.10 0.1123
889.20 0.1123
889.30 0.1122
889.40 0.1122
889.50 0.1122
889.60 0.1121
889.70 0.1121
889.80 0.112
889.90 0.112
890.00 0.1119
890.10 0.1119
890.20 0.1119
890.30 0.1118
890.40 0.1118
890.50 0.1117
890.60 0.1117
890.70 0.1117
890.80 0.1116
890.90 0.1116
891.00 0.1115
891.10 0.1115
891.20 0.1114
891.30 0.1114
891.40 0.1114
891.50 0.1113
891.60 0.1113
891.70 0.1112
891.80 0.1112
891.90 0.1111
892.00 0.1111
892.10 0.111
892.20 0.111
892.30 0.1109
892.40 0.1109
892.50 0.1108
892.60 0.1108
892.70 0.1107
892.80 0.1107
892.90 0.1106
893.00 0.1106
893.10 0.1105
893.20 0.1105
893.30 0.1104
893.40 0.1104
893.50 0.1103
893.60 0.1103
893.70 0.1102
893.80 0.1102
893.90 0.1101
894.00 0.1101
894.10 0.11
894.20 0.11
894.30 0.1099
894.40 0.1098
894.50 0.1098
894.60 0.1097
894.70 0.1097
894.80 0.1096
894.90 0.1096
895.00 0.1095
895.10 0.1095
895.20 0.1094
895.30 0.1094
895.40 0.1093
895.50 0.1093
895.60 0.1092
895.70 0.1092
895.80 0.1091
895.90 0.1091
896.00 0.109
896.10 0.109
896.20 0.1089
896.30 0.1089
896.40 0.1088
896.50 0.1088
896.60 0.1087
896.70 0.1087
896.80 0.1086
896.90 0.1086
897.00 0.1085
897.10 0.1085
897.20 0.1084
897.30 0.1083
897.40 0.1083
897.50 0.1082
897.60 0.1082
897.70 0.1081
897.80 0.1081
897.90 0.108
898.00 0.1079
898.10 0.1079
898.20 0.1078
898.30 0.1078
898.40 0.1077
898.50 0.1077
898.60 0.1076
898.70 0.1076
898.80 0.1075
898.90 0.1074
899.00 0.1074
899.10 0.1073
899.20 0.1073
899.30 0.1072
899.40 0.1072
899.50 0.1071
899.60 0.1071
899.70 0.107
899.80 0.1069
899.90 0.1069
900.00 0.1068
900.10 0.1068
900.20 0.1067
900.30 0.1067
900.40 0.1066
900.50 0.1066
900.60 0.1065
900.70 0.1064
900.80 0.1064
900.90 0.1063
901.00 0.1063
901.10 0.1062
901.20 0.1062
901.30 0.1061
901.40 0.1061
901.50 0.106
901.60 0.106
901.70 0.1059
901.80 0.1058
901.90 0.1058
902.00 0.1057
902.10 0.1057
902.20 0.1057
902.30 0.1056
902.40 0.1056
902.50 0.1056
902.60 0.1056
902.70 0.1055
902.80 0.1055
902.90 0.1055
903.00 0.1055
903.10 0.1054
903.20 0.1054
903.30 0.1054
903.40 0.1053
903.50 0.1053
903.60 0.1053
903.70 0.1053
903.80 0.1052
903.90 0.1052
904.00 0.1052
904.10 0.1051
904.20 0.1051
904.30 0.1051
904.40 0.1051
904.50 0.105
904.60 0.105
904.70 0.105
904.80 0.105
904.90 0.1049
905.00 0.1049
905.10 0.1049
905.20 0.1048
905.30 0.1048
905.40 0.1048
905.50 0.1048
905.60 0.1047
905.70 0.1047
905.80 0.1047
905.90 0.1046
906.00 0.1046
906.10 0.1046
906.20 0.1046
906.30 0.1045
906.40 0.1045
906.50 0.1045
906.60 0.1045
906.70 0.1044
906.80 0.1044
906.90 0.1044
907.00 0.1043
907.10 0.1043
907.20 0.1043
907.30 0.1042
907.40 0.1042
907.50 0.1042
907.60 0.1041
907.70 0.1041
907.80 0.104
907.90 0.104
908.00 0.104
908.10 0.1039
908.20 0.1039
908.30 0.1038
908.40 0.1038
908.50 0.1038
908.60 0.1037
908.70 0.1037
908.80 0.1036
908.90 0.1036
909.00 0.1036
909.10 0.1035
909.20 0.1035
909.30 0.1035
909.40 0.1034
909.50 0.1034
909.60 0.1033
909.70 0.1033
909.80 0.1033
909.90 0.1032
910.00 0.1032
910.10 0.1031
910.20 0.1031
910.30 0.1031
910.40 0.103
910.50 0.103
910.60 0.103
910.70 0.1029
910.80 0.1029
910.90 0.1028
911.00 0.1028
911.10 0.1028
911.20 0.1027
911.30 0.1027
911.40 0.1027
911.50 0.1026
911.60 0.1026
911.70 0.1025
911.80 0.1025
911.90 0.1025
912.00 0.1024
912.10 0.1024
912.20 0.1023
912.30 0.1023
912.40 0.1022
912.50 0.1021
912.60 0.1021
912.70 0.102
912.80 0.102
912.90 0.1019
913.00 0.1019
913.10 0.1018
913.20 0.1018
913.30 0.1017
913.40 0.1017
913.50 0.1016
913.60 0.1016
913.70 0.1015
913.80 0.1014
913.90 0.1014
914.00 0.1013
914.10 0.1013
914.20 0.1012
914.30 0.1012
914.40 0.1011
914.50 0.1011
914.60 0.101
914.70 0.101
914.80 0.1009
914.90 0.1008
915.00 0.1008
915.10 0.1007
915.20 0.1007
915.30 0.1006
915.40 0.1006
915.50 0.1005
915.60 0.1005
915.70 0.1004
915.80 0.1004
915.90 0.1003
916.00 0.1003
916.10 0.1002
916.20 0.1002
916.30 0.1001
916.40 0.1
916.50 0.09999
916.60 0.09994
916.70 0.09988
916.80 0.09983
916.90 0.09978
917.00 0.09972
917.10 0.09965
917.20 0.09958
917.30 0.09951
917.40 0.09943
917.50 0.09936
917.60 0.09929
917.70 0.09922
917.80 0.09915
917.90 0.09908
918.00 0.099
918.10 0.09893
918.20 0.09886
918.30 0.09879
918.40 0.09872
918.50 0.09865
918.60 0.09857
918.70 0.0985
918.80 0.09843
918.90 0.09836
919.00 0.09829
919.10 0.09822
919.20 0.09815
919.30 0.09808
919.40 0.098
919.50 0.09793
919.60 0.09786
919.70 0.09779
919.80 0.09772
919.90 0.09765
920.00 0.09758
920.10 0.09751
920.20 0.09743
920.30 0.09736
920.40 0.09729
920.50 0.09722
920.60 0.09715
920.70 0.09708
920.80 0.09701
920.90 0.09694
921.00 0.09687
921.10 0.0968
921.20 0.09673
921.30 0.09665
921.40 0.09658
921.50 0.09651
921.60 0.09644
921.70 0.09637
921.80 0.0963
921.90 0.09623
922.00 0.09616
922.10 0.09614
922.20 0.09613
922.30 0.09611
922.40 0.0961
922.50 0.09608
922.60 0.09606
922.70 0.09605
922.80 0.09603
922.90 0.09601
923.00 0.096
923.10 0.09598
923.20 0.09597
923.30 0.09595
923.40 0.09593
923.50 0.09592
923.60 0.0959
923.70 0.09588
923.80 0.09587
923.90 0.09585
924.00 0.09584
924.10 0.09582
924.20 0.0958
924.30 0.09579
924.40 0.09577
924.50 0.09575
924.60 0.09574
924.70 0.09572
924.80 0.09571
924.90 0.09569
925.00 0.09567
925.10 0.09566
925.20 0.09564
925.30 0.09563
925.40 0.09561
925.50 0.09559
925.60 0.09558
925.70 0.09556
925.80 0.09555
925.90 0.09553
926.00 0.09551
926.10 0.0955
926.20 0.09548
926.30 0.09546
926.40 0.09545
926.50 0.09543
926.60 0.09542
926.70 0.0954
926.80 0.09538
926.90 0.09537
927.00 0.09535
927.10 0.09533
927.20 0.09532
927.30 0.0953
927.40 0.09528
927.50 0.09527
927.60 0.09525
927.70 0.09523
927.80 0.09521
927.90 0.0952
928.00 0.09518
928.10 0.09516
928.20 0.09514
928.30 0.09513
928.40 0.09511
928.50 0.09509
928.60 0.09507
928.70 0.09506
928.80 0.09504
928.90 0.09502
929.00 0.095
929.10 0.09499
929.20 0.09497
929.30 0.09495
929.40 0.09493
929.50 0.09492
929.60 0.0949
929.70 0.09488
929.80 0.09486
929.90 0.09485
930.00 0.09483
930.10 0.09481
930.20 0.0948
930.30 0.09478
930.40 0.09476
930.50 0.09474
930.60 0.09473
930.70 0.09471
930.80 0.09469
930.90 0.09467
931.00 0.09466
931.10 0.09464
931.20 0.09462
931.30 0.09461
931.40 0.09459
931.50 0.09457
931.60 0.09455
931.70 0.09454
931.80 0.09452
931.90 0.0945
932.00 0.09448
932.10 0.09446
932.20 0.09443
932.30 0.0944
932.40 0.09437
932.50 0.09434
932.60 0.09431
932.70 0.09428
932.80 0.09425
932.90 0.09422
933.00 0.0942
933.10 0.09417
933.20 0.09414
933.30 0.09411
933.40 0.09408
933.50 0.09405
933.60 0.09402
933.70 0.09399
933.80 0.09396
933.90 0.09394
934.00 0.09391
934.10 0.09388
934.20 0.09385
934.30 0.09382
934.40 0.09379
934.50 0.09375
934.60 0.09372
934.70 0.09368
934.80 0.09365
934.90 0.09362
935.00 0.09358
935.10 0.09355
935.20 0.09351
935.30 0.09348
935.40 0.09345
935.50 0.09341
935.60 0.09338
935.70 0.09334
935.80 0.09331
935.90 0.09328
936.00 0.09324
936.10 0.09321
936.20 0.09317
936.30 0.09314
936.40 0.09311
936.50 0.09307
936.60 0.09304
936.70 0.09301
936.80 0.09297
936.90 0.09294
937.00 0.0929
937.10 0.09287
937.20 0.09283
937.30 0.09279
937.40 0.09275
937.50 0.09272
937.60 0.09268
937.70 0.09264
937.80 0.0926
937.90 0.09257
938.00 0.09253
938.10 0.09249
938.20 0.09246
938.30 0.09242
938.40 0.09238
938.50 0.09234
938.60 0.0923
938.70 0.09226
938.80 0.09222
938.90 0.09218
939.00 0.09214
939.10 0.0921
939.20 0.09206
939.30 0.09202
939.40 0.09198
939.50 0.09194
939.60 0.0919
939.70 0.09186
939.80 0.09182
939.90 0.09178
940.00 0.09174
940.10 0.0917
940.20 0.09166
940.30 0.09162
940.40 0.09157
940.50 0.09153
940.60 0.09149
940.70 0.09144
940.80 0.0914
940.90 0.09136
941.00 0.09131
941.10 0.09127
941.20 0.09123
941.30 0.09118
941.40 0.09114
941.50 0.0911
941.60 0.09106
941.70 0.09101
941.80 0.09097
941.90 0.09093
942.00 0.09088
942.10 0.09084
942.20 0.09079
942.30 0.09075
942.40 0.0907
942.50 0.09065
942.60 0.0906
942.70 0.09055
942.80 0.0905
942.90 0.09046
943.00 0.09041
943.10 0.09036
943.20 0.09031
943.30 0.09026
943.40 0.09021
943.50 0.09017
943.60 0.09012
943.70 0.09007
943.80 0.09002
943.90 0.08997
944.00 0.08993
944.10 0.08988
944.20 0.08983
944.30 0.08978
944.40 0.08973
944.50 0.08968
944.60 0.08962
944.70 0.08957
944.80 0.08952
944.90 0.08946
945.00 0.08941
945.10 0.08936
945.20 0.08931
945.30 0.08925
945.40 0.0892
945.50 0.08914
945.60 0.08908
945.70 0.08902
945.80 0.08896
945.90 0.0889
946.00 0.08885
946.10 0.08879
946.20 0.08873
946.30 0.08867
946.40 0.08861
946.50 0.08855
946.60 0.0885
946.70 0.08844
946.80 0.08838
946.90 0.08832
947.00 0.08826
947.10 0.0882
947.20 0.08814
947.30 0.08808
947.40 0.08801
947.50 0.08794
947.60 0.08787
947.70 0.0878
947.80 0.08773
947.90 0.08766
948.00 0.08759
948.10 0.08752
948.20 0.08745
948.30 0.08738
948.40 0.08731
948.50 0.08724
948.60 0.08717
948.70 0.0871
948.80 0.08703
948.90 0.08696
949.00 0.08689
949.10 0.08682
949.20 0.08675
949.30 0.08668
949.40 0.0866
949.50 0.08651
949.60 0.08643
949.70 0.08634
949.80 0.08626
949.90 0.08617
950.00 0.08609
950.10 0.086
950.20 0.08592
950.30 0.08584
950.40 0.08575
950.50 0.08567
950.60 0.08558
950.70 0.0855
950.80 0.08542
950.90 0.08533
951.00 0.08525
951.10 0.08516
951.20 0.08508
951.30 0.085
951.40 0.0849
951.50 0.08481
951.60 0.08471
951.70 0.08462
951.80 0.08452
951.90 0.08443
952.00 0.08434
952.10 0.08424
952.20 0.08414
952.30 0.08404
952.40 0.08394
952.50 0.08384
952.60 0.08375
952.70 0.08365
952.80 0.08355
952.90 0.08345
953.00 0.08335
953.10 0.08326
953.20 0.08316
953.30 0.08306
953.40 0.08296
953.50 0.08286
953.60 0.08277
953.70 0.08268
953.80 0.08258
953.90 0.08249
954.00 0.0824
954.10 0.08232
954.20 0.08224
954.30 0.08216
954.40 0.0821
954.50 0.08204
954.60 0.08201
954.70 0.08198
954.80 0.08199
954.90 0.08199
955.00 0.082
955.10 0.08201
955.20 0.08203
955.30 0.08206
955.40 0.08209
955.50 0.08212
955.60 0.08214
955.70 0.08217
955.80 0.0822
955.90 0.08223
956.00 0.08226
956.10 0.0823
956.20 0.08233
956.30 0.08236
956.40 0.08239
956.50 0.08243
956.60 0.08246
956.70 0.08249
956.80 0.08252
956.90 0.08256
957.00 0.08259
957.10 0.08262
957.20 0.08265
957.30 0.08268
957.40 0.0827
957.50 0.08272
957.60 0.08274
957.70 0.08276
957.80 0.08278
957.90 0.0828
958.00 0.08282
958.10 0.08284
958.20 0.08287
958.30 0.08289
958.40 0.08291
958.50 0.08293
958.60 0.08295
958.70 0.08297
958.80 0.08299
958.90 0.08301
959.00 0.08303
959.10 0.08305
959.20 0.08307
959.30 0.08309
959.40 0.0831
959.50 0.0831
959.60 0.08311
959.70 0.08311
959.80 0.08312
959.90 0.08312
960.00 0.08312
960.10 0.08313
960.20 0.08313
960.30 0.08314
960.40 0.08314
960.50 0.08315
960.60 0.08315
960.70 0.08316
960.80 0.08316
960.90 0.08317
961.00 0.08317
961.10 0.08317
961.20 0.08318
961.30 0.08318
961.40 0.08318
961.50 0.08317
961.60 0.08317
961.70 0.08316
961.80 0.08316
961.90 0.08316
962.00 0.08315
962.10 0.08314
962.20 0.08313
962.30 0.08312
962.40 0.08311
962.50 0.0831
962.60 0.08309
962.70 0.08308
962.80 0.08307
962.90 0.08306
963.00 0.08305
963.10 0.08304
963.20 0.08303
963.30 0.08302
963.40 0.08301
963.50 0.083
963.60 0.08298
963.70 0.08297
963.80 0.08295
963.90 0.08294
964.00 0.08292
964.10 0.08291
964.20 0.08289
964.30 0.08288
964.40 0.08286
964.50 0.08284
964.60 0.08282
964.70 0.0828
964.80 0.08278
964.90 0.08276
965.00 0.08274
965.10 0.08272
965.20 0.0827
965.30 0.08268
965.40 0.08266
965.50 0.08265
965.60 0.08263
965.70 0.08261
965.80 0.08259
965.90 0.08257
966.00 0.08255
966.10 0.08253
966.20 0.08251
966.30 0.08249
966.40 0.08247
966.50 0.08245
966.60 0.08242
966.70 0.0824
966.80 0.08238
966.90 0.08236
967.00 0.08233
967.10 0.08231
967.20 0.08228
967.30 0.08226
967.40 0.08224
967.50 0.08221
967.60 0.08219
967.70 0.08216
967.80 0.08214
967.90 0.08211
968.00 0.08209
968.10 0.08206
968.20 0.08204
968.30 0.08202
968.40 0.08199
968.50 0.08196
968.60 0.08194
968.70 0.08191
968.80 0.08188
968.90 0.08186
969.00 0.08183
969.10 0.0818
969.20 0.08178
969.30 0.08175
969.40 0.08172
969.50 0.0817
969.60 0.08167
969.70 0.08164
969.80 0.08162
969.90 0.08159
970.00 0.08156
970.10 0.08154
970.20 0.08151
970.30 0.08149
970.40 0.08146
970.50 0.08143
970.60 0.0814
970.70 0.08137
970.80 0.08134
970.90 0.08132
971.00 0.08129
971.10 0.08126
971.20 0.08123
971.30 0.0812
971.40 0.08117
971.50 0.08115
971.60 0.08112
971.70 0.08109
971.80 0.08106
971.90 0.08103
972.00 0.08101
972.10 0.08098
972.20 0.08095
972.30 0.08092
972.40 0.08089
972.50 0.08086
972.60 0.08083
972.70 0.0808
972.80 0.08077
972.90 0.08074
973.00 0.08071
973.10 0.08068
973.20 0.08065
973.30 0.08062
973.40 0.08059
973.50 0.08056
973.60 0.08053
973.70 0.08051
973.80 0.08048
973.90 0.08045
974.00 0.08042
974.10 0.08039
974.20 0.08036
974.30 0.08033
974.40 0.0803
974.50 0.08027
974.60 0.08024
974.70 0.08021
974.80 0.08018
974.90 0.08015
975.00 0.08012
975.10 0.08009
975.20 0.08006
975.30 0.08003
975.40 0.08
975.50 0.07997
975.60 0.07993
975.70 0.0799
975.80 0.07987
975.90 0.07984
976.00 0.07981
976.10 0.07978
976.20 0.07975
976.30 0.07972
976.40 0.07969
976.50 0.07966
976.60 0.07963
976.70 0.0796
976.80 0.07957
976.90 0.07954
977.00 0.07951
977.10 0.07948
977.20 0.07945
977.30 0.07942
977.40 0.07939
977.50 0.07935
977.60 0.07932
977.70 0.07929
977.80 0.07926
977.90 0.07923
978.00 0.0792
978.10 0.07917
978.20 0.07914
978.30 0.0791
978.40 0.07907
978.50 0.07904
978.60 0.07901
978.70 0.07898
978.80 0.07895
978.90 0.07892
979.00 0.07889
979.10 0.07885
979.20 0.07882
979.30 0.07879
979.40 0.07876
979.50 0.07873
979.60 0.0787
979.70 0.07867
979.80 0.07864
979.90 0.0786
980.00 0.07857
980.10 0.07854
980.20 0.07851
980.30 0.07848
980.40 0.07845
980.50 0.07842
980.60 0.07839
980.70 0.07836
980.80 0.07833
980.90 0.07829
981.00 0.07826
981.10 0.07823
981.20 0.0782
981.30 0.07817
981.40 0.07814
981.50 0.07811
981.60 0.07808
981.70 0.07805
981.80 0.07802
981.90 0.07799
982.00 0.07795
982.10 0.07792
982.20 0.07789
982.30 0.07786
982.40 0.07783
982.50 0.07779
982.60 0.07776
982.70 0.07773
982.80 0.0777
982.90 0.07767
983.00 0.07763
983.10 0.0776
983.20 0.07757
983.30 0.07754
983.40 0.07751
983.50 0.07747
983.60 0.07744
983.70 0.07741
983.80 0.07738
983.90 0.07735
984.00 0.07731
984.10 0.07728
984.20 0.07725
984.30 0.07722
984.40 0.07719
984.50 0.07715
984.60 0.07712
984.70 0.07709
984.80 0.07706
984.90 0.07702
985.00 0.07699
985.10 0.07696
985.20 0.07693
985.30 0.07689
985.40 0.07686
985.50 0.07683
985.60 0.07679
985.70 0.07676
985.80 0.07673
985.90 0.0767
986.00 0.07666
986.10 0.07663
986.20 0.0766
986.30 0.07656
986.40 0.07653
986.50 0.0765
986.60 0.07647
986.70 0.07643
986.80 0.0764
986.90 0.07637
987.00 0.07634
987.10 0.0763
987.20 0.07627
987.30 0.07623
987.40 0.0762
987.50 0.07617
987.60 0.07613
987.70 0.0761
987.80 0.07606
987.90 0.07603
988.00 0.076
988.10 0.07596
988.20 0.07593
988.30 0.0759
988.40 0.07586
988.50 0.07583
988.60 0.07579
988.70 0.07576
988.80 0.07572
988.90 0.07569
989.00 0.07565
989.10 0.07562
989.20 0.07558
989.30 0.07555
989.40 0.07551
989.50 0.07548
989.60 0.07544
989.70 0.07541
989.80 0.07537
989.90 0.07533
990.00 0.0753
990.10 0.07526
990.20 0.07523
990.30 0.07519
990.40 0.07516
990.50 0.07512
990.60 0.07509
990.70 0.07505
990.80 0.07501
990.90 0.07498
991.00 0.07494
991.10 0.0749
991.20 0.07486
991.30 0.07483
991.40 0.07479
991.50 0.07475
991.60 0.07471
991.70 0.07468
991.80 0.07464
991.90 0.0746
992.00 0.07456
992.10 0.07452
992.20 0.07449
992.30 0.07445
992.40 0.07441
992.50 0.07437
992.60 0.07433
992.70 0.07429
992.80 0.07425
992.90 0.0742
993.00 0.07416
993.10 0.07412
993.20 0.07408
993.30 0.07403
993.40 0.07399
993.50 0.07395
993.60 0.07391
993.70 0.07386
993.80 0.07382
993.90 0.07378
994.00 0.07374
994.10 0.0737
994.20 0.07365
994.30 0.07361
994.40 0.07357
994.50 0.07353
994.60 0.07348
994.70 0.07344
994.80 0.07339
994.90 0.07334
995.00 0.0733
995.10 0.07325
995.20 0.0732
995.30 0.07316
995.40 0.07311
995.50 0.07306
995.60 0.07301
995.70 0.07296
995.80 0.07291
995.90 0.07286
996.00 0.0728
996.10 0.07275
996.20 0.0727
996.30 0.07265
996.40 0.07259
996.50 0.07254
996.60 0.07249
996.70 0.07244
996.80 0.07238
996.90 0.07233
997.00 0.07228
997.10 0.07222
997.20 0.07216
997.30 0.0721
997.40 0.07204
997.50 0.07198
997.60 0.07193
997.70 0.07186
997.80 0.07179
997.90 0.07172
998.00 0.07165
998.10 0.07158
998.20 0.07151
998.30 0.07144
998.40 0.07137
998.50 0.0713
998.60 0.07123
998.70 0.07116
998.80 0.07109
998.90 0.07102
999.00 0.07095
999.10 0.07088
999.20 0.07081
999.30 0.07075
999.40 0.07068
999.50 0.07061
999.60 0.07054
999.70 0.07045
999.80 0.07036
999.90 0.07026
1000.00 0.07017
1000.10 0.07008
1000.20 0.06999
1000.30 0.06989
1000.40 0.0698
1000.50 0.06971
1000.60 0.06961
1000.70 0.06952
1000.80 0.06943
1000.90 0.06934
1001.00 0.06924
1001.10 0.06915
1001.20 0.06906
1001.30 0.06897
1001.40 0.06887
1001.50 0.06878
1001.60 0.06869
1001.70 0.06858
1001.80 0.06847
1001.90 0.06836
1002.00 0.06825
1002.10 0.06813
1002.20 0.06801
1002.30 0.06789
1002.40 0.06777
1002.50 0.06765
1002.60 0.06753
1002.70 0.06741
1002.80 0.06729
1002.90 0.06716
1003.00 0.06704
1003.10 0.06692
1003.20 0.0668
1003.30 0.06667
1003.40 0.06654
1003.50 0.06641
1003.60 0.06628
1003.70 0.06615
1003.80 0.06603
1003.90 0.06591
1004.00 0.06579
1004.10 0.06567
1004.20 0.06556
1004.30 0.06547
1004.40 0.06539
1004.50 0.06532
1004.60 0.0653
1004.70 0.06533
1004.80 0.06541
1004.90 0.06542
1005.00 0.06542
1005.10 0.06536
1005.20 0.06529
1005.30 0.06521
1005.40 0.06513
1005.50 0.06516
1005.60 0.06522
1005.70 0.06527
1005.80 0.06533
1005.90 0.06539
1006.00 0.06545
1006.10 0.06551
1006.20 0.06558
1006.30 0.06566
1006.40 0.06574
1006.50 0.06581
1006.60 0.06589
1006.70 0.06597
1006.80 0.06605
1006.90 0.06612
1007.00 0.0662
1007.10 0.06627
1007.20 0.06634
1007.30 0.06641
1007.40 0.06648
1007.50 0.06655
1007.60 0.06662
1007.70 0.06667
1007.80 0.06672
1007.90 0.06677
1008.00 0.06681
1008.10 0.06686
1008.20 0.06691
1008.30 0.06696
1008.40 0.067
1008.50 0.06705
1008.60 0.0671
1008.70 0.06715
1008.80 0.06719
1008.90 0.06724
1009.00 0.06729
1009.10 0.06734
1009.20 0.06738
1009.30 0.06743
1009.40 0.06748
1009.50 0.06753
1009.60 0.06758
1009.70 0.0676
1009.80 0.06762
1009.90 0.06764
1010.00 0.06766
1010.10 0.06768
1010.20 0.0677
1010.30 0.06772
1010.40 0.06775
1010.50 0.06777
1010.60 0.06779
1010.70 0.06781
1010.80 0.06783
1010.90 0.06785
1011.00 0.06787
1011.10 0.06789
1011.20 0.06791
1011.30 0.06793
1011.40 0.06795
1011.50 0.06797
1011.60 0.06799
1011.70 0.068
1011.80 0.06801
1011.90 0.06802
1012.00 0.06803
1012.10 0.06803
1012.20 0.06803
1012.30 0.06803
1012.40 0.06803
1012.50 0.06803
1012.60 0.06803
1012.70 0.06803
1012.80 0.06804
1012.90 0.06804
1013.00 0.06804
1013.10 0.06804
1013.20 0.06804
1013.30 0.06804
1013.40 0.06804
1013.50 0.06804
1013.60 0.06804
1013.70 0.06804
1013.80 0.06803
1013.90 0.06803
1014.00 0.06802
1014.10 0.06801
1014.20 0.06801
1014.30 0.068
1014.40 0.068
1014.50 0.06799
1014.60 0.06798
1014.70 0.06797
1014.80 0.06796
1014.90 0.06795
1015.00 0.06794
1015.10 0.06793
1015.20 0.06791
1015.30 0.0679
1015.40 0.06789
1015.50 0.06788
1015.60 0.06787
1015.70 0.06785
1015.80 0.06784
1015.90 0.06783
1016.00 0.06782
1016.10 0.06781
1016.20 0.06779
1016.30 0.06778
1016.40 0.06777
1016.50 0.06776
1016.60 0.06775
1016.70 0.06773
1016.80 0.06772
1016.90 0.0677
1017.00 0.06769
1017.10 0.06767
1017.20 0.06765
1017.30 0.06763
1017.40 0.06762
1017.50 0.0676
1017.60 0.06758
1017.70 0.06757
1017.80 0.06755
1017.90 0.06753
1018.00 0.06751
1018.10 0.0675
1018.20 0.06748
1018.30 0.06746
1018.40 0.06744
1018.50 0.06743
1018.60 0.06741
1018.70 0.06739
1018.80 0.06737
1018.90 0.06735
1019.00 0.06733
1019.10 0.06731
1019.20 0.06729
1019.30 0.06727
1019.40 0.06725
1019.50 0.06723
1019.60 0.06721
1019.70 0.06719
1019.80 0.06717
1019.90 0.06715
1020.00 0.06713
1020.10 0.06711
1020.20 0.0671
1020.30 0.06708
1020.40 0.06706
1020.50 0.06704
1020.60 0.06702
1020.70 0.067
1020.80 0.06697
1020.90 0.06695
1021.00 0.06693
1021.10 0.06691
1021.20 0.06689
1021.30 0.06687
1021.40 0.06685
1021.50 0.06683
1021.60 0.0668
1021.70 0.06678
1021.80 0.06676
1021.90 0.06674
1022.00 0.06672
1022.10 0.0667
1022.20 0.06667
1022.30 0.06665
1022.40 0.06663
1022.50 0.06661
1022.60 0.06658
1022.70 0.06656
1022.80 0.06654
1022.90 0.06652
1023.00 0.0665
1023.10 0.06647
1023.20 0.06645
1023.30 0.06643
1023.40 0.06641
1023.50 0.06638
1023.60 0.06636
1023.70 0.06634
1023.80 0.06632
1023.90 0.06629
1024.00 0.06627
1024.10 0.06625
1024.20 0.06623
1024.30 0.06621
1024.40 0.06618
1024.50 0.06616
1024.60 0.06614
1024.70 0.06612
1024.80 0.06609
1024.90 0.06607
1025.00 0.06605
1025.10 0.06602
1025.20 0.066
1025.30 0.06598
1025.40 0.06595
1025.50 0.06593
1025.60 0.06591
1025.70 0.06589
1025.80 0.06586
1025.90 0.06584
1026.00 0.06582
1026.10 0.06579
1026.20 0.06577
1026.30 0.06575
1026.40 0.06572
1026.50 0.0657
1026.60 0.06568
1026.70 0.06565
1026.80 0.06563
1026.90 0.06561
1027.00 0.06559
1027.10 0.06556
1027.20 0.06554
1027.30 0.06551
1027.40 0.06549
1027.50 0.06547
1027.60 0.06544
1027.70 0.06542
1027.80 0.0654
1027.90 0.06537
1028.00 0.06535
1028.10 0.06533
1028.20 0.0653
1028.30 0.06528
1028.40 0.06526
1028.50 0.06523
1028.60 0.06521
1028.70 0.06518
1028.80 0.06516
1028.90 0.06514
1029.00 0.06511
1029.10 0.06509
1029.20 0.06507
1029.30 0.06504
1029.40 0.06502
1029.50 0.065
1029.60 0.06497
1029.70 0.06495
1029.80 0.06493
1029.90 0.0649
1030.00 0.06488
1030.10 0.06486
1030.20 0.06483
1030.30 0.06481
1030.40 0.06479
1030.50 0.06476
1030.60 0.06474
1030.70 0.06472
1030.80 0.06469
1030.90 0.06467
1031.00 0.06465
1031.10 0.06462
1031.20 0.0646
1031.30 0.06458
1031.40 0.06455
1031.50 0.06453
1031.60 0.06451
1031.70 0.06448
1031.80 0.06446
1031.90 0.06444
1032.00 0.06441
1032.10 0.06439
1032.20 0.06437
1032.30 0.06434
1032.40 0.06432
1032.50 0.0643
1032.60 0.06427
1032.70 0.06425
1032.80 0.06422
1032.90 0.0642
1033.00 0.06418
1033.10 0.06415
1033.20 0.06413
1033.30 0.06411
1033.40 0.06408
1033.50 0.06406
1033.60 0.06404
1033.70 0.06401
1033.80 0.06399
1033.90 0.06397
1034.00 0.06394
1034.10 0.06392
1034.20 0.0639
1034.30 0.06387
1034.40 0.06385
1034.50 0.06382
1034.60 0.0638
1034.70 0.06378
1034.80 0.06375
1034.90 0.06373
1035.00 0.06371
1035.10 0.06368
1035.20 0.06366
1035.30 0.06364
1035.40 0.06361
1035.50 0.06359
1035.60 0.06357
1035.70 0.06354
1035.80 0.06352
1035.90 0.0635
1036.00 0.06347
1036.10 0.06345
1036.20 0.06343
1036.30 0.0634
1036.40 0.06338
1036.50 0.06336
1036.60 0.06333
1036.70 0.06331
1036.80 0.06329
1036.90 0.06326
1037.00 0.06324
1037.10 0.06322
1037.20 0.06319
1037.30 0.06317
1037.40 0.06315
1037.50 0.06312
1037.60 0.0631
1037.70 0.06308
1037.80 0.06305
1037.90 0.06303
1038.00 0.06301
1038.10 0.06298
1038.20 0.06296
1038.30 0.06294
1038.40 0.06291
1038.50 0.06289
1038.60 0.06287
1038.70 0.06284
1038.80 0.06282
1038.90 0.0628
1039.00 0.06278
1039.10 0.06275
1039.20 0.06273
1039.30 0.06271
1039.40 0.06268
1039.50 0.06266
1039.60 0.06264
1039.70 0.06261
1039.80 0.06259
1039.90 0.06257
1040.00 0.06254
1040.10 0.06252
1040.20 0.0625
1040.30 0.06247
1040.40 0.06245
1040.50 0.06243
1040.60 0.0624
1040.70 0.06238
1040.80 0.06236
1040.90 0.06234
1041.00 0.06231
1041.10 0.06229
1041.20 0.06227
1041.30 0.06224
1041.40 0.06222
1041.50 0.0622
1041.60 0.06217
1041.70 0.06215
1041.80 0.06213
1041.90 0.06211
1042.00 0.06208
1042.10 0.06206
1042.20 0.06204
1042.30 0.06201
1042.40 0.06199
1042.50 0.06197
1042.60 0.06194
1042.70 0.06192
1042.80 0.0619
1042.90 0.06188
1043.00 0.06185
1043.10 0.06183
1043.20 0.06181
1043.30 0.06178
1043.40 0.06176
1043.50 0.06174
1043.60 0.06172
1043.70 0.06169
1043.80 0.06167
1043.90 0.06165
1044.00 0.06162
1044.10 0.0616
1044.20 0.06158
1044.30 0.06156
1044.40 0.06153
1044.50 0.06151
1044.60 0.06149
1044.70 0.06146
1044.80 0.06144
1044.90 0.06142
1045.00 0.0614
1045.10 0.06137
1045.20 0.06135
1045.30 0.06133
1045.40 0.06131
1045.50 0.06128
1045.60 0.06126
1045.70 0.06124
1045.80 0.06121
1045.90 0.06119
1046.00 0.06117
1046.10 0.06115
1046.20 0.06112
1046.30 0.0611
1046.40 0.06108
1046.50 0.06106
1046.60 0.06103
1046.70 0.06101
1046.80 0.06099
1046.90 0.06097
1047.00 0.06094
1047.10 0.06092
1047.20 0.0609
1047.30 0.06088
1047.40 0.06085
1047.50 0.06083
1047.60 0.06081
1047.70 0.06079
1047.80 0.06076
1047.90 0.06074
1048.00 0.06072
1048.10 0.0607
1048.20 0.06067
1048.30 0.06065
1048.40 0.06063
1048.50 0.06061
1048.60 0.06058
1048.70 0.06056
1048.80 0.06054
1048.90 0.06052
1049.00 0.06049
1049.10 0.06047
1049.20 0.06045
1049.30 0.06043
1049.40 0.0604
1049.50 0.06038
1049.60 0.06036
1049.70 0.06034
1049.80 0.06031
1049.90 0.06029
1050.00 0.06027
1050.10 0.06025
1050.20 0.06022
1050.30 0.0602
1050.40 0.06018
1050.50 0.06016
1050.60 0.06014
1050.70 0.06011
1050.80 0.06009
1050.90 0.06007
1051.00 0.06005
1051.10 0.06002
1051.20 0.06
1051.30 0.05998
1051.40 0.05996
1051.50 0.05993
1051.60 0.05991
1051.70 0.05989
1051.80 0.05987
1051.90 0.05985
1052.00 0.05982
1052.10 0.0598
1052.20 0.05978
1052.30 0.05976
1052.40 0.05974
1052.50 0.05971
1052.60 0.05969
1052.70 0.05967
1052.80 0.05965
1052.90 0.05962
1053.00 0.0596
1053.10 0.05958
1053.20 0.05956
1053.30 0.05954
1053.40 0.05951
1053.50 0.05949
1053.60 0.05947
1053.70 0.05945
1053.80 0.05943
1053.90 0.0594
1054.00 0.05938
1054.10 0.05936
1054.20 0.05934
1054.30 0.05932
1054.40 0.05929
1054.50 0.05927
1054.60 0.05925
1054.70 0.05923
1054.80 0.05921
1054.90 0.05918
1055.00 0.05916
1055.10 0.05914
1055.20 0.05912
1055.30 0.0591
1055.40 0.05907
1055.50 0.05905
1055.60 0.05903
1055.70 0.05901
1055.80 0.05899
1055.90 0.05896
1056.00 0.05894
1056.10 0.05892
1056.20 0.0589
1056.30 0.05888
1056.40 0.05886
1056.50 0.05883
1056.60 0.05881
1056.70 0.05879
1056.80 0.05877
1056.90 0.05875
1057.00 0.05872
1057.10 0.0587
1057.20 0.05868
1057.30 0.05866
1057.40 0.05864
1057.50 0.05862
1057.60 0.05859
1057.70 0.05857
1057.80 0.05855
1057.90 0.05853
1058.00 0.05851
1058.10 0.05848
1058.20 0.05846
1058.30 0.05844
1058.40 0.05842
1058.50 0.0584
1058.60 0.05838
1058.70 0.05835
1058.80 0.05833
1058.90 0.05831
1059.00 0.05829
1059.10 0.05827
1059.20 0.05825
1059.30 0.05822
1059.40 0.0582
1059.50 0.05818
1059.60 0.05816
1059.70 0.05814
1059.80 0.05812
1059.90 0.05809
1060.00 0.05807
1060.10 0.05805
1060.20 0.05803
1060.30 0.05801
1060.40 0.05799
1060.50 0.05796
1060.60 0.05794
1060.70 0.05792
1060.80 0.0579
1060.90 0.05788
1061.00 0.05786
1061.10 0.05784
1061.20 0.05781
1061.30 0.05779
1061.40 0.05777
1061.50 0.05775
1061.60 0.05773
1061.70 0.05771
1061.80 0.05768
1061.90 0.05766
1062.00 0.05764
1062.10 0.05762
1062.20 0.0576
1062.30 0.05758
1062.40 0.05756
1062.50 0.05753
1062.60 0.05751
1062.70 0.05749
1062.80 0.05747
1062.90 0.05745
1063.00 0.05743
1063.10 0.0574
1063.20 0.05738
1063.30 0.05736
1063.40 0.05734
1063.50 0.05732
1063.60 0.0573
1063.70 0.05728
1063.80 0.05725
1063.90 0.05723
1064.00 0.05721
1064.10 0.05719
1064.20 0.05717
1064.30 0.05715
1064.40 0.05713
1064.50 0.0571
1064.60 0.05708
1064.70 0.05706
1064.80 0.05704
1064.90 0.05702
1065.00 0.057
1065.10 0.05698
1065.20 0.05695
1065.30 0.05693
1065.40 0.05691
1065.50 0.05689
1065.60 0.05687
1065.70 0.05685
1065.80 0.05683
1065.90 0.0568
1066.00 0.05678
1066.10 0.05676
1066.20 0.05674
1066.30 0.05672
1066.40 0.0567
1066.50 0.05668
1066.60 0.05666
1066.70 0.05663
1066.80 0.05661
1066.90 0.05659
1067.00 0.05657
1067.10 0.05655
1067.20 0.05653
1067.30 0.05651
1067.40 0.05648
1067.50 0.05646
1067.60 0.05644
1067.70 0.05642
1067.80 0.0564
1067.90 0.05638
1068.00 0.05635
1068.10 0.05633
1068.20 0.05631
1068.30 0.05629
1068.40 0.05627
1068.50 0.05625
1068.60 0.05622
1068.70 0.0562
1068.80 0.05618
1068.90 0.05616
1069.00 0.05614
1069.10 0.05612
1069.20 0.0561
1069.30 0.05607
1069.40 0.05605
1069.50 0.05603
1069.60 0.05601
1069.70 0.05599
1069.80 0.05597
1069.90 0.05595
1070.00 0.05592
1070.10 0.0559
1070.20 0.05588
1070.30 0.05586
1070.40 0.05584
1070.50 0.05582
1070.60 0.0558
1070.70 0.05577
1070.80 0.05575
1070.90 0.05573
1071.00 0.05571
1071.10 0.05569
1071.20 0.05567
1071.30 0.05565
1071.40 0.05562
1071.50 0.0556
1071.60 0.05558
1071.70 0.05556
1071.80 0.05554
1071.90 0.05552
1072.00 0.0555
1072.10 0.05547
1072.20 0.05545
1072.30 0.05543
1072.40 0.05541
1072.50 0.05539
1072.60 0.05537
1072.70 0.05534
1072.80 0.05532
1072.90 0.0553
1073.00 0.05528
1073.10 0.05526
1073.20 0.05524
1073.30 0.05521
1073.40 0.05519
1073.50 0.05517
1073.60 0.05515
1073.70 0.05512
1073.80 0.0551
1073.90 0.05508
1074.00 0.05506
1074.10 0.05503
1074.20 0.05501
1074.30 0.05499
1074.40 0.05497
1074.50 0.05494
1074.60 0.05492
1074.70 0.0549
1074.80 0.05488
1074.90 0.05485
1075.00 0.05483
1075.10 0.05481
1075.20 0.05479
1075.30 0.05476
1075.40 0.05474
1075.50 0.05472
1075.60 0.0547
1075.70 0.05468
1075.80 0.05465
1075.90 0.05463
1076.00 0.05461
1076.10 0.05459
1076.20 0.05456
1076.30 0.05454
1076.40 0.05452
1076.50 0.0545
1076.60 0.05447
1076.70 0.05445
1076.80 0.05443
1076.90 0.05441
1077.00 0.05438
1077.10 0.05436
1077.20 0.05434
1077.30 0.05431
1077.40 0.05429
1077.50 0.05427
1077.60 0.05424
1077.70 0.05422
1077.80 0.0542
1077.90 0.05417
1078.00 0.05415
1078.10 0.05412
1078.20 0.0541
1078.30 0.05407
1078.40 0.05405
1078.50 0.05403
1078.60 0.054
1078.70 0.05398
1078.80 0.05395
1078.90 0.05393
1079.00 0.05391
1079.10 0.05388
1079.20 0.05386
1079.30 0.05383
1079.40 0.05381
1079.50 0.05379
1079.60 0.05376
1079.70 0.05373
1079.80 0.05371
1079.90 0.05368
1080.00 0.05365
1080.10 0.05363
1080.20 0.0536
1080.30 0.05358
1080.40 0.05355
1080.50 0.05352
1080.60 0.0535
1080.70 0.05347
1080.80 0.05344
1080.90 0.05342
1081.00 0.05339
1081.10 0.05337
1081.20 0.05334
1081.30 0.05331
1081.40 0.05329
1081.50 0.05326
1081.60 0.05323
1081.70 0.05321
1081.80 0.05318
1081.90 0.05315
1082.00 0.05312
1082.10 0.05309
1082.20 0.05306
1082.30 0.05303
1082.40 0.053
1082.50 0.05297
1082.60 0.05294
1082.70 0.05291
1082.80 0.05288
1082.90 0.05285
1083.00 0.05282
1083.10 0.05279
1083.20 0.05276
1083.30 0.05273
1083.40 0.0527
1083.50 0.05267
1083.60 0.05263
1083.70 0.0526
1083.80 0.05257
1083.90 0.05253
1084.00 0.0525
1084.10 0.05246
1084.20 0.05243
1084.30 0.0524
1084.40 0.05236
1084.50 0.05233
1084.60 0.05229
1084.70 0.05225
1084.80 0.05221
1084.90 0.05217
1085.00 0.05213
1085.10 0.05209
1085.20 0.05205
1085.30 0.05201
1085.40 0.05196
1085.50 0.05192
1085.60 0.05188
1085.70 0.05184
1085.80 0.0518
1085.90 0.05176
1086.00 0.05172
1086.10 0.05168
1086.20 0.05164
1086.30 0.0516
1086.40 0.05156
1086.50 0.05152
1086.60 0.05147
1086.70 0.05143
1086.80 0.05138
1086.90 0.05133
1087.00 0.05128
1087.10 0.05123
1087.20 0.05117
1087.30 0.05111
1087.40 0.05106
1087.50 0.051
1087.60 0.05095
1087.70 0.05089
1087.80 0.05083
1087.90 0.05078
1088.00 0.05072
1088.10 0.05067
1088.20 0.05061
1088.30 0.05055
1088.40 0.0505
1088.50 0.05044
1088.60 0.05036
1088.70 0.05028
1088.80 0.05021
1088.90 0.05013
1089.00 0.05005
1089.10 0.04998
1089.20 0.0499
1089.30 0.04983
1089.40 0.04975
1089.50 0.04967
1089.60 0.0496
1089.70 0.04952
1089.80 0.04945
1089.90 0.04937
1090.00 0.04929
1090.10 0.04922
1090.20 0.04914
1090.30 0.04907
1090.40 0.04899
1090.50 0.04891
1090.60 0.04881
1090.70 0.04871
1090.80 0.04861
1090.90 0.0485
1091.00 0.0484
1091.10 0.0483
1091.20 0.0482
1091.30 0.0481
1091.40 0.048
1091.50 0.0479
1091.60 0.0478
1091.70 0.0477
1091.80 0.0476
1091.90 0.0475
1092.00 0.0474
1092.10 0.04729
1092.20 0.04718
1092.30 0.04707
1092.40 0.04697
1092.50 0.04686
1092.60 0.04675
1092.70 0.04665
1092.80 0.04655
1092.90 0.04645
1093.00 0.04635
1093.10 0.04626
1093.20 0.04617
1093.30 0.04609
1093.40 0.04602
1093.50 0.04595
1093.60 0.04591
1093.70 0.04589
1093.80 0.04589
1093.90 0.04589
1094.00 0.0459
1094.10 0.0459
1094.20 0.04591
1094.30 0.04593
1094.40 0.046
1094.50 0.04606
1094.60 0.04612
1094.70 0.04618
1094.80 0.04624
1094.90 0.0463
1095.00 0.04636
1095.10 0.04643
1095.20 0.04651
1095.30 0.04658
1095.40 0.04665
1095.50 0.04673
1095.60 0.0468
1095.70 0.04687
1095.80 0.04694
1095.90 0.04702
1096.00 0.04709
1096.10 0.04716
1096.20 0.04724
1096.30 0.04731
1096.40 0.04738
1096.50 0.04745
1096.60 0.04751
1096.70 0.04757
1096.80 0.04763
1096.90 0.0477
1097.00 0.04776
1097.10 0.0478
1097.20 0.04785
1097.30 0.04789
1097.40 0.04794
1097.50 0.04799
1097.60 0.04803
1097.70 0.04808
1097.80 0.04812
1097.90 0.04817
1098.00 0.04821
1098.10 0.04826
1098.20 0.04831
1098.30 0.04835
1098.40 0.0484
1098.50 0.04844
1098.60 0.04846
1098.70 0.04848
1098.80 0.04851
1098.90 0.04853
1099.00 0.04855
1099.10 0.04858
1099.20 0.0486
1099.30 0.04862
1099.40 0.04865
1099.50 0.04867
1099.60 0.0487
1099.70 0.04872
1099.80 0.04874
1099.90 0.04877
1100.00 0.04879
1100.10 0.04881
1100.20 0.04884
1100.30 0.04886
1100.40 0.04888
1100.50 0.0489
1100.60 0.04891
1100.70 0.04892
1100.80 0.04893
1100.90 0.04893
1101.00 0.04894
1101.10 0.04895
1101.20 0.04896
1101.30 0.04897
1101.40 0.04897
1101.50 0.04898
1101.60 0.04899
1101.70 0.049
1101.80 0.04901
1101.90 0.04902
1102.00 0.04902
1102.10 0.04903
1102.20 0.04903
1102.30 0.04903
1102.40 0.04903
1102.50 0.04903
1102.60 0.04903
1102.70 0.04903
1102.80 0.04903
1102.90 0.04903
1103.00 0.04903
1103.10 0.04903
1103.20 0.04903
1103.30 0.04902
1103.40 0.04902
1103.50 0.04902
1103.60 0.04901
1103.70 0.04901
1103.80 0.049
1103.90 0.049
1104.00 0.04899
1104.10 0.04898
1104.20 0.04898
1104.30 0.04897
1104.40 0.04897
1104.50 0.04896
1104.60 0.04895
1104.70 0.04895
1104.80 0.04894
1104.90 0.04894
1105.00 0.04893
1105.10 0.04892
1105.20 0.04892
1105.30 0.04891
1105.40 0.04891
1105.50 0.0489
1105.60 0.04889
1105.70 0.04888
1105.80 0.04887
1105.90 0.04886
1106.00 0.04885
1106.10 0.04884
1106.20 0.04883
1106.30 0.04882
1106.40 0.04881
1106.50 0.0488
1106.60 0.04879
1106.70 0.04878
1106.80 0.04877
1106.90 0.04876
1107.00 0.04875
1107.10 0.04874
1107.20 0.04873
1107.30 0.04872
1107.40 0.04871
1107.50 0.04869
1107.60 0.04868
1107.70 0.04867
1107.80 0.04866
1107.90 0.04864
1108.00 0.04863
1108.10 0.04862
1108.20 0.04861
1108.30 0.04859
1108.40 0.04858
1108.50 0.04857
1108.60 0.04856
1108.70 0.04854
1108.80 0.04853
1108.90 0.04852
1109.00 0.04851
1109.10 0.04849
1109.20 0.04848
1109.30 0.04847
1109.40 0.04846
1109.50 0.04844
1109.60 0.04843
1109.70 0.04842
1109.80 0.0484
1109.90 0.04839
1110.00 0.04837
1110.10 0.04836
1110.20 0.04835
1110.30 0.04833
1110.40 0.04832
1110.50 0.0483
1110.60 0.04829
1110.70 0.04828
1110.80 0.04826
1110.90 0.04825
1111.00 0.04823
1111.10 0.04822
1111.20 0.04821
1111.30 0.04819
1111.40 0.04818
1111.50 0.04816
1111.60 0.04815
1111.70 0.04814
1111.80 0.04812
1111.90 0.04811
1112.00 0.04809
1112.10 0.04808
1112.20 0.04806
1112.30 0.04805
1112.40 0.04803
1112.50 0.04802
1112.60 0.048
1112.70 0.04799
1112.80 0.04797
1112.90 0.04796
1113.00 0.04795
1113.10 0.04793
1113.20 0.04792
1113.30 0.0479
1113.40 0.04789
1113.50 0.04787
1113.60 0.04786
1113.70 0.04784
1113.80 0.04782
1113.90 0.04781
1114.00 0.04779
1114.10 0.04778
1114.20 0.04776
1114.30 0.04775
1114.40 0.04773
1114.50 0.04772
1114.60 0.0477
1114.70 0.04769
1114.80 0.04767
1114.90 0.04766
1115.00 0.04764
1115.10 0.04763
1115.20 0.04761
1115.30 0.04759
1115.40 0.04758
1115.50 0.04756
1115.60 0.04755
1115.70 0.04753
1115.80 0.04752
1115.90 0.0475
1116.00 0.04749
1116.10 0.04747
1116.20 0.04746
1116.30 0.04744
1116.40 0.04743
1116.50 0.04741
1116.60 0.0474
1116.70 0.04738
1116.80 0.04737
1116.90 0.04735
1117.00 0.04734
1117.10 0.04732
1117.20 0.0473
1117.30 0.04729
1117.40 0.04727
1117.50 0.04726
1117.60 0.04724
1117.70 0.04723
1117.80 0.04721
1117.90 0.04719
1118.00 0.04718
1118.10 0.04716
1118.20 0.04715
1118.30 0.04713
1118.40 0.04712
1118.50 0.0471
1118.60 0.04708
1118.70 0.04707
1118.80 0.04705
1118.90 0.04704
1119.00 0.04702
1119.10 0.04701
1119.20 0.04699
1119.30 0.04697
1119.40 0.04696
1119.50 0.04694
1119.60 0.04693
1119.70 0.04691
1119.80 0.0469
1119.90 0.04688
1120.00 0.04687
1120.10 0.04685
1120.20 0.04683
1120.30 0.04682
1120.40 0.0468
1120.50 0.04679
1120.60 0.04677
1120.70 0.04676
1120.80 0.04674
1120.90 0.04672
1121.00 0.04671
1121.10 0.04669
1121.20 0.04668
1121.30 0.04666
1121.40 0.04665
1121.50 0.04663
1121.60 0.04662
1121.70 0.0466
1121.80 0.04658
1121.90 0.04657
1122.00 0.04655
1122.10 0.04654
1122.20 0.04652
1122.30 0.04651
1122.40 0.04649
1122.50 0.04648
1122.60 0.04646
1122.70 0.04644
1122.80 0.04643
1122.90 0.04641
1123.00 0.0464
1123.10 0.04638
1123.20 0.04637
1123.30 0.04635
1123.40 0.04633
1123.50 0.04632
1123.60 0.0463
1123.70 0.04629
1123.80 0.04627
1123.90 0.04626
1124.00 0.04624
1124.10 0.04622
1124.20 0.04621
1124.30 0.04619
1124.40 0.04618
1124.50 0.04616
1124.60 0.04615
1124.70 0.04613
1124.80 0.04612
1124.90 0.0461
1125.00 0.04608
1125.10 0.04607
1125.20 0.04605
1125.30 0.04604
1125.40 0.04602
1125.50 0.04601
1125.60 0.04599
1125.70 0.04597
1125.80 0.04596
1125.90 0.04594
1126.00 0.04593
1126.10 0.04591
1126.20 0.0459
1126.30 0.04588
1126.40 0.04587
1126.50 0.04585
1126.60 0.04583
1126.70 0.04582
1126.80 0.0458
1126.90 0.04579
1127.00 0.04577
1127.10 0.04576
1127.20 0.04574
1127.30 0.04573
1127.40 0.04571
1127.50 0.0457
1127.60 0.04568
1127.70 0.04566
1127.80 0.04565
1127.90 0.04563
1128.00 0.04562
1128.10 0.0456
1128.20 0.04559
1128.30 0.04557
1128.40 0.04556
1128.50 0.04554
1128.60 0.04552
1128.70 0.04551
1128.80 0.04549
1128.90 0.04548
1129.00 0.04546
1129.10 0.04545
1129.20 0.04543
1129.30 0.04542
1129.40 0.0454
1129.50 0.04539
1129.60 0.04537
1129.70 0.04535
1129.80 0.04534
1129.90 0.04532
1130.00 0.04531
1130.10 0.04529
1130.20 0.04528
1130.30 0.04526
1130.40 0.04525
1130.50 0.04523
1130.60 0.04522
1130.70 0.0452
1130.80 0.04519
1130.90 0.04517
1131.00 0.04515
1131.10 0.04514
1131.20 0.04512
1131.30 0.04511
1131.40 0.04509
1131.50 0.04508
1131.60 0.04506
1131.70 0.04505
1131.80 0.04503
1131.90 0.04502
1132.00 0.045
1132.10 0.04499
1132.20 0.04497
1132.30 0.04495
1132.40 0.04494
1132.50 0.04492
1132.60 0.04491
1132.70 0.04489
1132.80 0.04488
1132.90 0.04486
1133.00 0.04485
1133.10 0.04483
1133.20 0.04482
1133.30 0.0448
1133.40 0.04479
1133.50 0.04477
1133.60 0.04476
1133.70 0.04474
1133.80 0.04473
1133.90 0.04471
1134.00 0.0447
1134.10 0.04468
1134.20 0.04467
1134.30 0.04465
1134.40 0.04463
1134.50 0.04462
1134.60 0.0446
1134.70 0.04459
1134.80 0.04457
1134.90 0.04456
1135.00 0.04454
1135.10 0.04453
1135.20 0.04451
1135.30 0.0445
1135.40 0.04448
1135.50 0.04447
1135.60 0.04445
1135.70 0.04444
1135.80 0.04442
1135.90 0.04441
1136.00 0.04439
1136.10 0.04438
1136.20 0.04436
1136.30 0.04435
1136.40 0.04433
1136.50 0.04432
1136.60 0.0443
1136.70 0.04429
1136.80 0.04427
1136.90 0.04426
1137.00 0.04424
1137.10 0.04423
1137.20 0.04421
1137.30 0.0442
1137.40 0.04418
1137.50 0.04417
1137.60 0.04415
1137.70 0.04414
1137.80 0.04412
1137.90 0.04411
1138.00 0.04409
1138.10 0.04408
1138.20 0.04406
1138.30 0.04405
1138.40 0.04403
1138.50 0.04402
1138.60 0.044
1138.70 0.04399
1138.80 0.04397
1138.90 0.04396
1139.00 0.04394
1139.10 0.04393
1139.20 0.04391
1139.30 0.0439
1139.40 0.04388
1139.50 0.04387
1139.60 0.04385
1139.70 0.04384
1139.80 0.04382
1139.90 0.04381
1140.00 0.04379
1140.10 0.04378
1140.20 0.04376
1140.30 0.04375
1140.40 0.04373
1140.50 0.04372
1140.60 0.0437
1140.70 0.04369
1140.80 0.04367
1140.90 0.04366
1141.00 0.04364
1141.10 0.04363
1141.20 0.04361
1141.30 0.0436
1141.40 0.04358
1141.50 0.04357
1141.60 0.04355
1141.70 0.04354
1141.80 0.04352
1141.90 0.04351
1142.00 0.0435
1142.10 0.04348
1142.20 0.04347
1142.30 0.04345
1142.40 0.04344
1142.50 0.04342
1142.60 0.04341
1142.70 0.04339
1142.80 0.04338
1142.90 0.04336
1143.00 0.04335
1143.10 0.04333
1143.20 0.04332
1143.30 0.0433
1143.40 0.04329
1143.50 0.04327
1143.60 0.04326
1143.70 0.04325
1143.80 0.04323
1143.90 0.04322
1144.00 0.0432
1144.10 0.04319
1144.20 0.04317
1144.30 0.04316
1144.40 0.04314
1144.50 0.04313
1144.60 0.04311
1144.70 0.0431
1144.80 0.04308
1144.90 0.04307
1145.00 0.04306
1145.10 0.04304
1145.20 0.04303
1145.30 0.04301
1145.40 0.043
1145.50 0.04298
1145.60 0.04297
1145.70 0.04295
1145.80 0.04294
1145.90 0.04292
1146.00 0.04291
1146.10 0.04289
1146.20 0.04288
1146.30 0.04287
1146.40 0.04285
1146.50 0.04284
1146.60 0.04282
1146.70 0.04281
1146.80 0.04279
1146.90 0.04278
1147.00 0.04276
1147.10 0.04275
1147.20 0.04274
1147.30 0.04272
1147.40 0.04271
1147.50 0.04269
1147.60 0.04268
1147.70 0.04266
1147.80 0.04265
1147.90 0.04263
1148.00 0.04262
1148.10 0.04261
1148.20 0.04259
1148.30 0.04258
1148.40 0.04256
1148.50 0.04255
1148.60 0.04253
1148.70 0.04252
1148.80 0.0425
1148.90 0.04249
1149.00 0.04248
1149.10 0.04246
1149.20 0.04245
1149.30 0.04243
1149.40 0.04242
1149.50 0.0424
1149.60 0.04239
1149.70 0.04238
1149.80 0.04236
1149.90 0.04235
1150.00 0.04233
1150.10 0.04232
1150.20 0.0423
1150.30 0.04229
1150.40 0.04228
1150.50 0.04226
1150.60 0.04225
1150.70 0.04223
1150.80 0.04222
1150.90 0.0422
1151.00 0.04219
1151.10 0.04218
1151.20 0.04216
1151.30 0.04215
1151.40 0.04213
1151.50 0.04212
1151.60 0.0421
1151.70 0.04209
1151.80 0.04208
1151.90 0.04206
1152.00 0.04205
1152.10 0.04203
1152.20 0.04202
1152.30 0.042
1152.40 0.04199
1152.50 0.04198
1152.60 0.04196
1152.70 0.04195
1152.80 0.04193
1152.90 0.04192
1153.00 0.04191
1153.10 0.04189
1153.20 0.04188
1153.30 0.04186
1153.40 0.04185
1153.50 0.04184
1153.60 0.04182
1153.70 0.04181
1153.80 0.04179
1153.90 0.04178
1154.00 0.04176
1154.10 0.04175
1154.20 0.04174
1154.30 0.04172
1154.40 0.04171
1154.50 0.04169
1154.60 0.04168
1154.70 0.04167
1154.80 0.04165
1154.90 0.04164
1155.00 0.04162
1155.10 0.04161
1155.20 0.0416
1155.30 0.04158
1155.40 0.04157
1155.50 0.04155
1155.60 0.04154
1155.70 0.04153
1155.80 0.04151
1155.90 0.0415
1156.00 0.04148
1156.10 0.04147
1156.20 0.04146
1156.30 0.04144
1156.40 0.04143
1156.50 0.04141
1156.60 0.0414
1156.70 0.04139
1156.80 0.04137
1156.90 0.04136
1157.00 0.04134
1157.10 0.04133
1157.20 0.04132
1157.30 0.0413
1157.40 0.04129
1157.50 0.04128
1157.60 0.04126
1157.70 0.04125
1157.80 0.04123
1157.90 0.04122
1158.00 0.04121
1158.10 0.04119
1158.20 0.04118
1158.30 0.04116
1158.40 0.04115
1158.50 0.04114
1158.60 0.04112
1158.70 0.04111
1158.80 0.0411
1158.90 0.04108
1159.00 0.04107
1159.10 0.04105
1159.20 0.04104
1159.30 0.04103
1159.40 0.04101
1159.50 0.041
1159.60 0.04099
1159.70 0.04097
1159.80 0.04096
1159.90 0.04094
1160.00 0.04093
1160.10 0.04092
1160.20 0.0409
1160.30 0.04089
1160.40 0.04088
1160.50 0.04086
1160.60 0.04085
1160.70 0.04083
1160.80 0.04082
1160.90 0.04081
1161.00 0.04079
1161.10 0.04078
1161.20 0.04077
1161.30 0.04075
1161.40 0.04074
1161.50 0.04072
1161.60 0.04071
1161.70 0.0407
1161.80 0.04068
1161.90 0.04067
1162.00 0.04066
1162.10 0.04064
1162.20 0.04063
1162.30 0.04062
1162.40 0.0406
1162.50 0.04059
1162.60 0.04057
1162.70 0.04056
1162.80 0.04055
1162.90 0.04053
1163.00 0.04052
1163.10 0.04051
1163.20 0.04049
1163.30 0.04048
1163.40 0.04047
1163.50 0.04045
1163.60 0.04044
1163.70 0.04043
1163.80 0.04041
1163.90 0.0404
1164.00 0.04039
1164.10 0.04037
1164.20 0.04036
1164.30 0.04034
1164.40 0.04033
1164.50 0.04032
1164.60 0.0403
1164.70 0.04029
1164.80 0.04028
1164.90 0.04026
1165.00 0.04025
1165.10 0.04024
1165.20 0.04022
1165.30 0.04021
1165.40 0.0402
1165.50 0.04018
1165.60 0.04017
1165.70 0.04016
1165.80 0.04014
1165.90 0.04013
1166.00 0.04012
1166.10 0.0401
1166.20 0.04009
1166.30 0.04008
1166.40 0.04006
1166.50 0.04005
1166.60 0.04004
1166.70 0.04002
1166.80 0.04001
1166.90 0.04
1167.00 0.03998
1167.10 0.03997
1167.20 0.03996
1167.30 0.03994
1167.40 0.03993
1167.50 0.03992
1167.60 0.0399
1167.70 0.03989
1167.80 0.03988
1167.90 0.03986
1168.00 0.03985
1168.10 0.03984
1168.20 0.03982
1168.30 0.03981
1168.40 0.0398
1168.50 0.03978
1168.60 0.03977
1168.70 0.03976
1168.80 0.03974
1168.90 0.03973
1169.00 0.03972
1169.10 0.0397
1169.20 0.03969
1169.30 0.03968
1169.40 0.03966
1169.50 0.03965
1169.60 0.03964
1169.70 0.03962
1169.80 0.03961
1169.90 0.0396
1170.00 0.03958
1170.10 0.03957
1170.20 0.03956
1170.30 0.03954
1170.40 0.03953
1170.50 0.03952
1170.60 0.03951
1170.70 0.03949
1170.80 0.03948
1170.90 0.03947
1171.00 0.03945
1171.10 0.03944
1171.20 0.03943
1171.30 0.03941
1171.40 0.0394
1171.50 0.03939
1171.60 0.03937
1171.70 0.03936
1171.80 0.03935
1171.90 0.03933
1172.00 0.03932
1172.10 0.03931
1172.20 0.0393
1172.30 0.03928
1172.40 0.03927
1172.50 0.03926
1172.60 0.03924
1172.70 0.03923
1172.80 0.03922
1172.90 0.0392
1173.00 0.03919
1173.10 0.03918
1173.20 0.03917
1173.30 0.03915
1173.40 0.03914
1173.50 0.03913
1173.60 0.03911
1173.70 0.0391
1173.80 0.03909
1173.90 0.03907
1174.00 0.03906
1174.10 0.03905
1174.20 0.03904
1174.30 0.03902
1174.40 0.03901
1174.50 0.039
1174.60 0.03898
1174.70 0.03897
1174.80 0.03896
1174.90 0.03894
1175.00 0.03893
1175.10 0.03892
1175.20 0.03891
1175.30 0.03889
1175.40 0.03888
1175.50 0.03887
1175.60 0.03885
1175.70 0.03884
1175.80 0.03883
1175.90 0.03882
1176.00 0.0388
1176.10 0.03879
1176.20 0.03878
1176.30 0.03876
1176.40 0.03875
1176.50 0.03874
1176.60 0.03873
1176.70 0.03871
1176.80 0.0387
1176.90 0.03869
1177.00 0.03867
1177.10 0.03866
1177.20 0.03865
1177.30 0.03864
1177.40 0.03862
1177.50 0.03861
1177.60 0.0386
1177.70 0.03859
1177.80 0.03857
1177.90 0.03856
1178.00 0.03855
1178.10 0.03853
1178.20 0.03852
1178.30 0.03851
1178.40 0.0385
1178.50 0.03848
1178.60 0.03847
1178.70 0.03846
1178.80 0.03845
1178.90 0.03843
1179.00 0.03842
1179.10 0.03841
1179.20 0.03839
1179.30 0.03838
1179.40 0.03837
1179.50 0.03836
1179.60 0.03834
1179.70 0.03833
1179.80 0.03832
1179.90 0.03831
1180.00 0.03829
1180.10 0.03828
1180.20 0.03827
1180.30 0.03825
1180.40 0.03824
1180.50 0.03823
1180.60 0.03822
1180.70 0.0382
1180.80 0.03819
1180.90 0.03818
1181.00 0.03817
1181.10 0.03815
1181.20 0.03814
1181.30 0.03813
1181.40 0.03812
1181.50 0.0381
1181.60 0.03809
1181.70 0.03808
1181.80 0.03807
1181.90 0.03805
1182.00 0.03804
1182.10 0.03803
1182.20 0.03802
1182.30 0.038
1182.40 0.03799
1182.50 0.03798
1182.60 0.03797
1182.70 0.03795
1182.80 0.03794
1182.90 0.03793
1183.00 0.03792
1183.10 0.0379
1183.20 0.03789
1183.30 0.03788
1183.40 0.03787
1183.50 0.03785
1183.60 0.03784
1183.70 0.03783
1183.80 0.03782
1183.90 0.0378
1184.00 0.03779
1184.10 0.03778
1184.20 0.03777
1184.30 0.03775
1184.40 0.03774
1184.50 0.03773
1184.60 0.03772
1184.70 0.0377
1184.80 0.03769
1184.90 0.03768
1185.00 0.03767
1185.10 0.03765
1185.20 0.03764
1185.30 0.03763
1185.40 0.03762
1185.50 0.0376
1185.60 0.03759
1185.70 0.03758
1185.80 0.03757
1185.90 0.03755
1186.00 0.03754
1186.10 0.03753
1186.20 0.03752
1186.30 0.03751
1186.40 0.03749
1186.50 0.03748
1186.60 0.03747
1186.70 0.03746
1186.80 0.03744
1186.90 0.03743
1187.00 0.03742
1187.10 0.03741
1187.20 0.03739
1187.30 0.03738
1187.40 0.03737
1187.50 0.03736
1187.60 0.03735
1187.70 0.03733
1187.80 0.03732
1187.90 0.03731
1188.00 0.0373
1188.10 0.03728
1188.20 0.03727
1188.30 0.03726
1188.40 0.03725
1188.50 0.03724
1188.60 0.03722
1188.70 0.03721
1188.80 0.0372
1188.90 0.03719
1189.00 0.03717
1189.10 0.03716
1189.20 0.03715
1189.30 0.03714
1189.40 0.03713
1189.50 0.03711
1189.60 0.0371
1189.70 0.03709
1189.80 0.03708
1189.90 0.03706
1190.00 0.03705
1190.10 0.03704
1190.20 0.03703
1190.30 0.03702
1190.40 0.037
1190.50 0.03699
1190.60 0.03698
1190.70 0.03697
1190.80 0.03696
1190.90 0.03694
1191.00 0.03693
1191.10 0.03692
1191.20 0.03691
1191.30 0.0369
1191.40 0.03688
1191.50 0.03687
1191.60 0.03686
1191.70 0.03685
1191.80 0.03683
1191.90 0.03682
1192.00 0.03681
1192.10 0.0368
1192.20 0.03679
1192.30 0.03677
1192.40 0.03676
1192.50 0.03675
1192.60 0.03674
1192.70 0.03673
1192.80 0.03671
1192.90 0.0367
1193.00 0.03669
1193.10 0.03668
1193.20 0.03667
1193.30 0.03665
1193.40 0.03664
1193.50 0.03663
1193.60 0.03662
1193.70 0.03661
1193.80 0.03659
1193.90 0.03658
1194.00 0.03657
1194.10 0.03656
1194.20 0.03655
1194.30 0.03654
1194.40 0.03652
1194.50 0.03651
1194.60 0.0365
1194.70 0.03649
1194.80 0.03648
1194.90 0.03646
1195.00 0.03645
1195.10 0.03644
1195.20 0.03643
1195.30 0.03642
1195.40 0.0364
1195.50 0.03639
1195.60 0.03638
1195.70 0.03637
1195.80 0.03636
1195.90 0.03634
1196.00 0.03633
1196.10 0.03632
1196.20 0.03631
1196.30 0.0363
1196.40 0.03629
1196.50 0.03627
1196.60 0.03626
1196.70 0.03625
1196.80 0.03624
1196.90 0.03623
1197.00 0.03621
1197.10 0.0362
1197.20 0.03619
1197.30 0.03618
1197.40 0.03617
1197.50 0.03616
1197.60 0.03614
1197.70 0.03613
1197.80 0.03612
1197.90 0.03611
1198.00 0.0361
1198.10 0.03608
1198.20 0.03607
1198.30 0.03606
1198.40 0.03605
1198.50 0.03604
1198.60 0.03603
1198.70 0.03601
1198.80 0.036
1198.90 0.03599
1199.00 0.03598
1199.10 0.03597
1199.20 0.03596
1199.30 0.03594
1199.40 0.03593
1199.50 0.03592
1199.60 0.03591
1199.70 0.0359
1199.80 0.03589
1199.90 0.03587
1200.00 0
