# Version 2.1 - nm, norm@500 to 1, cut digits, bergeron_3500_90.dat_3500
# Wavelength(nm)  Flambda(ergs/cm^s/s/nm)
300.00 0.1652
300.10 0.1655
300.20 0.1658
300.30 0.1661
300.40 0.1665
300.50 0.1668
300.60 0.1671
300.70 0.1674
300.80 0.1678
300.90 0.1681
301.00 0.1684
301.10 0.1687
301.20 0.169
301.30 0.1693
301.40 0.1697
301.50 0.17
301.60 0.1703
301.70 0.1706
301.80 0.1709
301.90 0.1712
302.00 0.1716
302.10 0.1719
302.20 0.1722
302.30 0.1725
302.40 0.1729
302.50 0.1732
302.60 0.1735
302.70 0.1739
302.80 0.1742
302.90 0.1745
303.00 0.1748
303.10 0.1752
303.20 0.1755
303.30 0.1758
303.40 0.1761
303.50 0.1764
303.60 0.1768
303.70 0.1771
303.80 0.1774
303.90 0.1777
304.00 0.1781
304.10 0.1784
304.20 0.1787
304.30 0.1791
304.40 0.1794
304.50 0.1797
304.60 0.1801
304.70 0.1804
304.80 0.1807
304.90 0.1811
305.00 0.1814
305.10 0.1817
305.20 0.182
305.30 0.1824
305.40 0.1827
305.50 0.183
305.60 0.1834
305.70 0.1837
305.80 0.184
305.90 0.1843
306.00 0.1847
306.10 0.185
306.20 0.1854
306.30 0.1857
306.40 0.186
306.50 0.1864
306.60 0.1867
306.70 0.1871
306.80 0.1874
306.90 0.1877
307.00 0.1881
307.10 0.1884
307.20 0.1887
307.30 0.1891
307.40 0.1894
307.50 0.1897
307.60 0.1901
307.70 0.1904
307.80 0.1907
307.90 0.1911
308.00 0.1914
308.10 0.1918
308.20 0.1921
308.30 0.1924
308.40 0.1928
308.50 0.1931
308.60 0.1935
308.70 0.1938
308.80 0.1942
308.90 0.1945
309.00 0.1949
309.10 0.1952
309.20 0.1955
309.30 0.1959
309.40 0.1962
309.50 0.1966
309.60 0.1969
309.70 0.1972
309.80 0.1976
309.90 0.1979
310.00 0.1983
310.10 0.1986
310.20 0.199
310.30 0.1993
310.40 0.1997
310.50 0.2
310.60 0.2004
310.70 0.2007
310.80 0.2011
310.90 0.2014
311.00 0.2018
311.10 0.2021
311.20 0.2025
311.30 0.2028
311.40 0.2032
311.50 0.2035
311.60 0.2039
311.70 0.2042
311.80 0.2046
311.90 0.2049
312.00 0.2052
312.10 0.2056
312.20 0.2059
312.30 0.2063
312.40 0.2066
312.50 0.207
312.60 0.2074
312.70 0.2077
312.80 0.2081
312.90 0.2084
313.00 0.2088
313.10 0.2091
313.20 0.2095
313.30 0.2098
313.40 0.2102
313.50 0.2105
313.60 0.2109
313.70 0.2113
313.80 0.2116
313.90 0.212
314.00 0.2123
314.10 0.2127
314.20 0.213
314.30 0.2134
314.40 0.2138
314.50 0.2141
314.60 0.2145
314.70 0.2148
314.80 0.2152
314.90 0.2156
315.00 0.2159
315.10 0.2163
315.20 0.2166
315.30 0.217
315.40 0.2174
315.50 0.2177
315.60 0.2181
315.70 0.2184
315.80 0.2188
315.90 0.2191
316.00 0.2195
316.10 0.2199
316.20 0.2202
316.30 0.2206
316.40 0.221
316.50 0.2213
316.60 0.2217
316.70 0.2221
316.80 0.2224
316.90 0.2228
317.00 0.2232
317.10 0.2235
317.20 0.2239
317.30 0.2243
317.40 0.2246
317.50 0.225
317.60 0.2253
317.70 0.2257
317.80 0.2261
317.90 0.2264
318.00 0.2268
318.10 0.2272
318.20 0.2275
318.30 0.2279
318.40 0.2283
318.50 0.2287
318.60 0.229
318.70 0.2294
318.80 0.2298
318.90 0.2301
319.00 0.2305
319.10 0.2309
319.20 0.2313
319.30 0.2316
319.40 0.232
319.50 0.2324
319.60 0.2327
319.70 0.2331
319.80 0.2335
319.90 0.2338
320.00 0.2342
320.10 0.2346
320.20 0.2349
320.30 0.2353
320.40 0.2357
320.50 0.2361
320.60 0.2365
320.70 0.2368
320.80 0.2372
320.90 0.2376
321.00 0.238
321.10 0.2383
321.20 0.2387
321.30 0.2391
321.40 0.2395
321.50 0.2398
321.60 0.2402
321.70 0.2406
321.80 0.241
321.90 0.2413
322.00 0.2417
322.10 0.2421
322.20 0.2425
322.30 0.2428
322.40 0.2432
322.50 0.2436
322.60 0.244
322.70 0.2444
322.80 0.2448
322.90 0.2451
323.00 0.2455
323.10 0.2459
323.20 0.2463
323.30 0.2467
323.40 0.247
323.50 0.2474
323.60 0.2478
323.70 0.2482
323.80 0.2485
323.90 0.2489
324.00 0.2493
324.10 0.2497
324.20 0.2501
324.30 0.2505
324.40 0.2509
324.50 0.2512
324.60 0.2516
324.70 0.252
324.80 0.2524
324.90 0.2528
325.00 0.2532
325.10 0.2536
325.20 0.2539
325.30 0.2543
325.40 0.2547
325.50 0.2551
325.60 0.2555
325.70 0.2559
325.80 0.2562
325.90 0.2566
326.00 0.257
326.10 0.2574
326.20 0.2578
326.30 0.2582
326.40 0.2586
326.50 0.259
326.60 0.2594
326.70 0.2598
326.80 0.2601
326.90 0.2605
327.00 0.2609
327.10 0.2613
327.20 0.2617
327.30 0.2621
327.40 0.2625
327.50 0.2629
327.60 0.2633
327.70 0.2636
327.80 0.264
327.90 0.2644
328.00 0.2648
328.10 0.2652
328.20 0.2656
328.30 0.266
328.40 0.2664
328.50 0.2668
328.60 0.2672
328.70 0.2676
328.80 0.268
328.90 0.2684
329.00 0.2688
329.10 0.2692
329.20 0.2696
329.30 0.2699
329.40 0.2703
329.50 0.2707
329.60 0.2711
329.70 0.2715
329.80 0.2719
329.90 0.2723
330.00 0.2727
330.10 0.2731
330.20 0.2735
330.30 0.2739
330.40 0.2743
330.50 0.2747
330.60 0.2751
330.70 0.2755
330.80 0.2759
330.90 0.2763
331.00 0.2767
331.10 0.2771
331.20 0.2775
331.30 0.2779
331.40 0.2783
331.50 0.2787
331.60 0.2791
331.70 0.2795
331.80 0.2799
331.90 0.2803
332.00 0.2807
332.10 0.2811
332.20 0.2815
332.30 0.2819
332.40 0.2823
332.50 0.2827
332.60 0.2831
332.70 0.2835
332.80 0.2839
332.90 0.2843
333.00 0.2847
333.10 0.2851
333.20 0.2855
333.30 0.2859
333.40 0.2863
333.50 0.2867
333.60 0.2871
333.70 0.2875
333.80 0.2879
333.90 0.2883
334.00 0.2887
334.10 0.2891
334.20 0.2896
334.30 0.29
334.40 0.2904
334.50 0.2908
334.60 0.2912
334.70 0.2916
334.80 0.292
334.90 0.2924
335.00 0.2928
335.10 0.2932
335.20 0.2937
335.30 0.2941
335.40 0.2945
335.50 0.2949
335.60 0.2953
335.70 0.2957
335.80 0.2961
335.90 0.2965
336.00 0.2969
336.10 0.2973
336.20 0.2977
336.30 0.2981
336.40 0.2986
336.50 0.299
336.60 0.2994
336.70 0.2998
336.80 0.3002
336.90 0.3006
337.00 0.301
337.10 0.3014
337.20 0.3019
337.30 0.3023
337.40 0.3027
337.50 0.3031
337.60 0.3035
337.70 0.3039
337.80 0.3043
337.90 0.3047
338.00 0.3051
338.10 0.3055
338.20 0.306
338.30 0.3064
338.40 0.3068
338.50 0.3072
338.60 0.3076
338.70 0.3081
338.80 0.3085
338.90 0.3089
339.00 0.3093
339.10 0.3097
339.20 0.3101
339.30 0.3105
339.40 0.311
339.50 0.3114
339.60 0.3118
339.70 0.3122
339.80 0.3126
339.90 0.313
340.00 0.3134
340.10 0.3139
340.20 0.3143
340.30 0.3147
340.40 0.3151
340.50 0.3155
340.60 0.316
340.70 0.3164
340.80 0.3168
340.90 0.3172
341.00 0.3177
341.10 0.3181
341.20 0.3185
341.30 0.3189
341.40 0.3193
341.50 0.3197
341.60 0.3202
341.70 0.3206
341.80 0.321
341.90 0.3214
342.00 0.3218
342.10 0.3222
342.20 0.3227
342.30 0.3231
342.40 0.3235
342.50 0.324
342.60 0.3244
342.70 0.3248
342.80 0.3252
342.90 0.3257
343.00 0.3261
343.10 0.3265
343.20 0.3269
343.30 0.3274
343.40 0.3278
343.50 0.3282
343.60 0.3286
343.70 0.329
343.80 0.3295
343.90 0.3299
344.00 0.3303
344.10 0.3307
344.20 0.3312
344.30 0.3316
344.40 0.332
344.50 0.3324
344.60 0.3329
344.70 0.3333
344.80 0.3337
344.90 0.3342
345.00 0.3346
345.10 0.335
345.20 0.3354
345.30 0.3359
345.40 0.3363
345.50 0.3367
345.60 0.3371
345.70 0.3376
345.80 0.338
345.90 0.3384
346.00 0.3388
346.10 0.3393
346.20 0.3397
346.30 0.3401
346.40 0.3406
346.50 0.341
346.60 0.3414
346.70 0.3419
346.80 0.3423
346.90 0.3427
347.00 0.3432
347.10 0.3436
347.20 0.344
347.30 0.3444
347.40 0.3449
347.50 0.3453
347.60 0.3457
347.70 0.3461
347.80 0.3466
347.90 0.347
348.00 0.3474
348.10 0.3479
348.20 0.3483
348.30 0.3487
348.40 0.3492
348.50 0.3496
348.60 0.35
348.70 0.3505
348.80 0.3509
348.90 0.3514
349.00 0.3518
349.10 0.3522
349.20 0.3527
349.30 0.3531
349.40 0.3535
349.50 0.3539
349.60 0.3544
349.70 0.3548
349.80 0.3552
349.90 0.3557
350.00 0.3561
350.10 0.3565
350.20 0.357
350.30 0.3574
350.40 0.3579
350.50 0.3583
350.60 0.3587
350.70 0.3592
350.80 0.3596
350.90 0.36
351.00 0.3605
351.10 0.3609
351.20 0.3614
351.30 0.3618
351.40 0.3622
351.50 0.3627
351.60 0.3631
351.70 0.3635
351.80 0.364
351.90 0.3644
352.00 0.3648
352.10 0.3653
352.20 0.3657
352.30 0.3661
352.40 0.3666
352.50 0.367
352.60 0.3675
352.70 0.3679
352.80 0.3684
352.90 0.3688
353.00 0.3692
353.10 0.3697
353.20 0.3701
353.30 0.3705
353.40 0.371
353.50 0.3714
353.60 0.3718
353.70 0.3723
353.80 0.3727
353.90 0.3732
354.00 0.3736
354.10 0.374
354.20 0.3745
354.30 0.3749
354.40 0.3754
354.50 0.3758
354.60 0.3763
354.70 0.3767
354.80 0.3772
354.90 0.3776
355.00 0.378
355.10 0.3785
355.20 0.3789
355.30 0.3794
355.40 0.3798
355.50 0.3803
355.60 0.3807
355.70 0.3811
355.80 0.3816
355.90 0.382
356.00 0.3824
356.10 0.3829
356.20 0.3833
356.30 0.3838
356.40 0.3842
356.50 0.3847
356.60 0.3851
356.70 0.3856
356.80 0.386
356.90 0.3865
357.00 0.3869
357.10 0.3874
357.20 0.3878
357.30 0.3882
357.40 0.3887
357.50 0.3891
357.60 0.3896
357.70 0.39
357.80 0.3904
357.90 0.3909
358.00 0.3913
358.10 0.3918
358.20 0.3922
358.30 0.3927
358.40 0.3931
358.50 0.3936
358.60 0.394
358.70 0.3945
358.80 0.3949
358.90 0.3954
359.00 0.3958
359.10 0.3963
359.20 0.3967
359.30 0.3972
359.40 0.3976
359.50 0.3981
359.60 0.3985
359.70 0.399
359.80 0.3994
359.90 0.3998
360.00 0.4003
360.10 0.4007
360.20 0.4012
360.30 0.4016
360.40 0.4021
360.50 0.4025
360.60 0.403
360.70 0.4034
360.80 0.4039
360.90 0.4043
361.00 0.4048
361.10 0.4052
361.20 0.4057
361.30 0.4061
361.40 0.4066
361.50 0.407
361.60 0.4075
361.70 0.4079
361.80 0.4084
361.90 0.4088
362.00 0.4093
362.10 0.4097
362.20 0.4102
362.30 0.4106
362.40 0.4111
362.50 0.4115
362.60 0.412
362.70 0.4124
362.80 0.4129
362.90 0.4133
363.00 0.4138
363.10 0.4142
363.20 0.4147
363.30 0.4151
363.40 0.4156
363.50 0.416
363.60 0.4165
363.70 0.4169
363.80 0.4174
363.90 0.4179
364.00 0.4183
364.10 0.4188
364.20 0.4192
364.30 0.4197
364.40 0.4201
364.50 0.4206
364.60 0.421
364.70 0.4215
364.80 0.4219
364.90 0.4224
365.00 0.4228
365.10 0.4233
365.20 0.4238
365.30 0.4242
365.40 0.4247
365.50 0.4251
365.60 0.4256
365.70 0.426
365.80 0.4265
365.90 0.4269
366.00 0.4274
366.10 0.4278
366.20 0.4283
366.30 0.4288
366.40 0.4292
366.50 0.4297
366.60 0.4301
366.70 0.4306
366.80 0.4311
366.90 0.4315
367.00 0.432
367.10 0.4324
367.20 0.4329
367.30 0.4333
367.40 0.4338
367.50 0.4342
367.60 0.4347
367.70 0.4351
367.80 0.4356
367.90 0.436
368.00 0.4365
368.10 0.437
368.20 0.4374
368.30 0.4379
368.40 0.4383
368.50 0.4388
368.60 0.4393
368.70 0.4397
368.80 0.4402
368.90 0.4406
369.00 0.4411
369.10 0.4416
369.20 0.442
369.30 0.4425
369.40 0.4429
369.50 0.4434
369.60 0.4438
369.70 0.4443
369.80 0.4447
369.90 0.4452
370.00 0.4456
370.10 0.4461
370.20 0.4466
370.30 0.447
370.40 0.4475
370.50 0.448
370.60 0.4484
370.70 0.4489
370.80 0.4493
370.90 0.4498
371.00 0.4503
371.10 0.4507
371.20 0.4512
371.30 0.4516
371.40 0.4521
371.50 0.4526
371.60 0.453
371.70 0.4535
371.80 0.4539
371.90 0.4544
372.00 0.4548
372.10 0.4553
372.20 0.4558
372.30 0.4562
372.40 0.4567
372.50 0.4571
372.60 0.4576
372.70 0.4581
372.80 0.4585
372.90 0.459
373.00 0.4595
373.10 0.4599
373.20 0.4604
373.30 0.4608
373.40 0.4613
373.50 0.4618
373.60 0.4622
373.70 0.4627
373.80 0.4631
373.90 0.4636
374.00 0.464
374.10 0.4645
374.20 0.465
374.30 0.4654
374.40 0.4659
374.50 0.4664
374.60 0.4668
374.70 0.4673
374.80 0.4678
374.90 0.4682
375.00 0.4687
375.10 0.4691
375.20 0.4696
375.30 0.4701
375.40 0.4705
375.50 0.471
375.60 0.4714
375.70 0.4719
375.80 0.4724
375.90 0.4728
376.00 0.4733
376.10 0.4737
376.20 0.4742
376.30 0.4747
376.40 0.4751
376.50 0.4756
376.60 0.4761
376.70 0.4765
376.80 0.477
376.90 0.4774
377.00 0.4779
377.10 0.4784
377.20 0.4788
377.30 0.4793
377.40 0.4798
377.50 0.4802
377.60 0.4807
377.70 0.4811
377.80 0.4816
377.90 0.4821
378.00 0.4825
378.10 0.483
378.20 0.4835
378.30 0.4839
378.40 0.4844
378.50 0.4849
378.60 0.4853
378.70 0.4858
378.80 0.4862
378.90 0.4867
379.00 0.4872
379.10 0.4876
379.20 0.4881
379.30 0.4886
379.40 0.489
379.50 0.4895
379.60 0.49
379.70 0.4904
379.80 0.4909
379.90 0.4913
380.00 0.4918
380.10 0.4923
380.20 0.4927
380.30 0.4932
380.40 0.4937
380.50 0.4941
380.60 0.4946
380.70 0.4951
380.80 0.4955
380.90 0.496
381.00 0.4964
381.10 0.4969
381.20 0.4974
381.30 0.4978
381.40 0.4983
381.50 0.4988
381.60 0.4992
381.70 0.4997
381.80 0.5002
381.90 0.5006
382.00 0.5011
382.10 0.5016
382.20 0.502
382.30 0.5025
382.40 0.503
382.50 0.5034
382.60 0.5039
382.70 0.5044
382.80 0.5048
382.90 0.5053
383.00 0.5058
383.10 0.5062
383.20 0.5067
383.30 0.5072
383.40 0.5076
383.50 0.5081
383.60 0.5086
383.70 0.509
383.80 0.5095
383.90 0.51
384.00 0.5104
384.10 0.5109
384.20 0.5113
384.30 0.5118
384.40 0.5123
384.50 0.5128
384.60 0.5132
384.70 0.5137
384.80 0.5142
384.90 0.5146
385.00 0.5151
385.10 0.5156
385.20 0.516
385.30 0.5165
385.40 0.517
385.50 0.5174
385.60 0.5179
385.70 0.5183
385.80 0.5188
385.90 0.5193
386.00 0.5198
386.10 0.5202
386.20 0.5207
386.30 0.5212
386.40 0.5216
386.50 0.5221
386.60 0.5226
386.70 0.523
386.80 0.5235
386.90 0.524
387.00 0.5244
387.10 0.5249
387.20 0.5253
387.30 0.5258
387.40 0.5263
387.50 0.5268
387.60 0.5272
387.70 0.5277
387.80 0.5281
387.90 0.5286
388.00 0.5291
388.10 0.5295
388.20 0.53
388.30 0.5305
388.40 0.531
388.50 0.5314
388.60 0.5319
388.70 0.5324
388.80 0.5328
388.90 0.5333
389.00 0.5337
389.10 0.5342
389.20 0.5347
389.30 0.5351
389.40 0.5356
389.50 0.5361
389.60 0.5366
389.70 0.537
389.80 0.5375
389.90 0.538
390.00 0.5384
390.10 0.5389
390.20 0.5394
390.30 0.5398
390.40 0.5403
390.50 0.5408
390.60 0.5412
390.70 0.5417
390.80 0.5422
390.90 0.5426
391.00 0.5431
391.10 0.5436
391.20 0.544
391.30 0.5445
391.40 0.545
391.50 0.5454
391.60 0.5459
391.70 0.5464
391.80 0.5468
391.90 0.5473
392.00 0.5478
392.10 0.5482
392.20 0.5487
392.30 0.5492
392.40 0.5496
392.50 0.5501
392.60 0.5506
392.70 0.551
392.80 0.5515
392.90 0.552
393.00 0.5524
393.10 0.5529
393.20 0.5534
393.30 0.5538
393.40 0.5543
393.50 0.5548
393.60 0.5552
393.70 0.5557
393.80 0.5562
393.90 0.5566
394.00 0.5571
394.10 0.5576
394.20 0.5581
394.30 0.5585
394.40 0.559
394.50 0.5595
394.60 0.5599
394.70 0.5604
394.80 0.5609
394.90 0.5613
395.00 0.5618
395.10 0.5623
395.20 0.5627
395.30 0.5632
395.40 0.5637
395.50 0.5641
395.60 0.5646
395.70 0.5651
395.80 0.5655
395.90 0.566
396.00 0.5665
396.10 0.5669
396.20 0.5674
396.30 0.5679
396.40 0.5683
396.50 0.5688
396.60 0.5693
396.70 0.5697
396.80 0.5702
396.90 0.5707
397.00 0.5711
397.10 0.5716
397.20 0.5721
397.30 0.5725
397.40 0.573
397.50 0.5735
397.60 0.5739
397.70 0.5744
397.80 0.5749
397.90 0.5753
398.00 0.5758
398.10 0.5763
398.20 0.5767
398.30 0.5772
398.40 0.5777
398.50 0.5781
398.60 0.5786
398.70 0.5791
398.80 0.5795
398.90 0.58
399.00 0.5805
399.10 0.5809
399.20 0.5814
399.30 0.5819
399.40 0.5823
399.50 0.5828
399.60 0.5833
399.70 0.5837
399.80 0.5842
399.90 0.5847
400.00 0.5851
400.10 0.5856
400.20 0.5861
400.30 0.5865
400.40 0.587
400.50 0.5875
400.60 0.5879
400.70 0.5884
400.80 0.5889
400.90 0.5893
401.00 0.5898
401.10 0.5903
401.20 0.5907
401.30 0.5912
401.40 0.5917
401.50 0.5921
401.60 0.5926
401.70 0.5931
401.80 0.5935
401.90 0.594
402.00 0.5945
402.10 0.5949
402.20 0.5954
402.30 0.5959
402.40 0.5963
402.50 0.5968
402.60 0.5973
402.70 0.5977
402.80 0.5982
402.90 0.5987
403.00 0.5991
403.10 0.5996
403.20 0.6001
403.30 0.6005
403.40 0.601
403.50 0.6014
403.60 0.6019
403.70 0.6024
403.80 0.6028
403.90 0.6033
404.00 0.6038
404.10 0.6042
404.20 0.6047
404.30 0.6052
404.40 0.6056
404.50 0.6061
404.60 0.6066
404.70 0.607
404.80 0.6075
404.90 0.608
405.00 0.6084
405.10 0.6089
405.20 0.6094
405.30 0.6098
405.40 0.6103
405.50 0.6108
405.60 0.6112
405.70 0.6117
405.80 0.6122
405.90 0.6126
406.00 0.6131
406.10 0.6136
406.20 0.614
406.30 0.6145
406.40 0.6149
406.50 0.6154
406.60 0.6159
406.70 0.6163
406.80 0.6168
406.90 0.6173
407.00 0.6177
407.10 0.6182
407.20 0.6187
407.30 0.6191
407.40 0.6196
407.50 0.62
407.60 0.6205
407.70 0.621
407.80 0.6214
407.90 0.6219
408.00 0.6224
408.10 0.6228
408.20 0.6233
408.30 0.6238
408.40 0.6242
408.50 0.6247
408.60 0.6251
408.70 0.6256
408.80 0.6261
408.90 0.6265
409.00 0.627
409.10 0.6275
409.20 0.6279
409.30 0.6284
409.40 0.6289
409.50 0.6293
409.60 0.6298
409.70 0.6303
409.80 0.6307
409.90 0.6312
410.00 0.6316
410.10 0.6321
410.20 0.6326
410.30 0.633
410.40 0.6335
410.50 0.6339
410.60 0.6344
410.70 0.6349
410.80 0.6353
410.90 0.6358
411.00 0.6363
411.10 0.6367
411.20 0.6372
411.30 0.6376
411.40 0.6381
411.50 0.6386
411.60 0.639
411.70 0.6395
411.80 0.64
411.90 0.6404
412.00 0.6409
412.10 0.6413
412.20 0.6418
412.30 0.6423
412.40 0.6427
412.50 0.6432
412.60 0.6436
412.70 0.6441
412.80 0.6446
412.90 0.645
413.00 0.6455
413.10 0.646
413.20 0.6464
413.30 0.6469
413.40 0.6473
413.50 0.6478
413.60 0.6483
413.70 0.6487
413.80 0.6492
413.90 0.6496
414.00 0.6501
414.10 0.6506
414.20 0.651
414.30 0.6515
414.40 0.6519
414.50 0.6524
414.60 0.6529
414.70 0.6533
414.80 0.6538
414.90 0.6542
415.00 0.6547
415.10 0.6552
415.20 0.6556
415.30 0.6561
415.40 0.6565
415.50 0.657
415.60 0.6575
415.70 0.6579
415.80 0.6584
415.90 0.6589
416.00 0.6593
416.10 0.6598
416.20 0.6602
416.30 0.6607
416.40 0.6611
416.50 0.6616
416.60 0.6621
416.70 0.6625
416.80 0.663
416.90 0.6634
417.00 0.6639
417.10 0.6643
417.20 0.6648
417.30 0.6653
417.40 0.6657
417.50 0.6662
417.60 0.6666
417.70 0.6671
417.80 0.6676
417.90 0.668
418.00 0.6685
418.10 0.6689
418.20 0.6694
418.30 0.6698
418.40 0.6703
418.50 0.6708
418.60 0.6712
418.70 0.6717
418.80 0.6721
418.90 0.6726
419.00 0.673
419.10 0.6735
419.20 0.674
419.30 0.6744
419.40 0.6749
419.50 0.6753
419.60 0.6758
419.70 0.6762
419.80 0.6767
419.90 0.6771
420.00 0.6776
420.10 0.6781
420.20 0.6785
420.30 0.679
420.40 0.6794
420.50 0.6799
420.60 0.6804
420.70 0.6808
420.80 0.6813
420.90 0.6817
421.00 0.6822
421.10 0.6826
421.20 0.6831
421.30 0.6835
421.40 0.684
421.50 0.6845
421.60 0.6849
421.70 0.6854
421.80 0.6858
421.90 0.6863
422.00 0.6867
422.10 0.6872
422.20 0.6876
422.30 0.6881
422.40 0.6885
422.50 0.689
422.60 0.6894
422.70 0.6899
422.80 0.6903
422.90 0.6908
423.00 0.6913
423.10 0.6917
423.20 0.6922
423.30 0.6926
423.40 0.6931
423.50 0.6935
423.60 0.694
423.70 0.6944
423.80 0.6949
423.90 0.6953
424.00 0.6958
424.10 0.6962
424.20 0.6967
424.30 0.6971
424.40 0.6976
424.50 0.6981
424.60 0.6985
424.70 0.699
424.80 0.6994
424.90 0.6999
425.00 0.7003
425.10 0.7008
425.20 0.7012
425.30 0.7017
425.40 0.7021
425.50 0.7026
425.60 0.703
425.70 0.7035
425.80 0.7039
425.90 0.7044
426.00 0.7048
426.10 0.7053
426.20 0.7057
426.30 0.7062
426.40 0.7066
426.50 0.7071
426.60 0.7075
426.70 0.708
426.80 0.7084
426.90 0.7089
427.00 0.7093
427.10 0.7098
427.20 0.7102
427.30 0.7107
427.40 0.7111
427.50 0.7116
427.60 0.712
427.70 0.7125
427.80 0.7129
427.90 0.7134
428.00 0.7138
428.10 0.7143
428.20 0.7147
428.30 0.7152
428.40 0.7156
428.50 0.7161
428.60 0.7165
428.70 0.717
428.80 0.7174
428.90 0.7179
429.00 0.7183
429.10 0.7188
429.20 0.7192
429.30 0.7197
429.40 0.7201
429.50 0.7206
429.60 0.721
429.70 0.7215
429.80 0.7219
429.90 0.7224
430.00 0.7228
430.10 0.7232
430.20 0.7237
430.30 0.7241
430.40 0.7246
430.50 0.725
430.60 0.7255
430.70 0.7259
430.80 0.7264
430.90 0.7268
431.00 0.7273
431.10 0.7277
431.20 0.7282
431.30 0.7286
431.40 0.7291
431.50 0.7295
431.60 0.7299
431.70 0.7304
431.80 0.7308
431.90 0.7313
432.00 0.7317
432.10 0.7322
432.20 0.7326
432.30 0.7331
432.40 0.7335
432.50 0.734
432.60 0.7344
432.70 0.7348
432.80 0.7353
432.90 0.7357
433.00 0.7362
433.10 0.7366
433.20 0.7371
433.30 0.7375
433.40 0.7379
433.50 0.7384
433.60 0.7388
433.70 0.7393
433.80 0.7397
433.90 0.7402
434.00 0.7406
434.10 0.741
434.20 0.7415
434.30 0.7419
434.40 0.7424
434.50 0.7428
434.60 0.7433
434.70 0.7437
434.80 0.7441
434.90 0.7446
435.00 0.745
435.10 0.7455
435.20 0.7459
435.30 0.7463
435.40 0.7468
435.50 0.7472
435.60 0.7477
435.70 0.7481
435.80 0.7486
435.90 0.749
436.00 0.7494
436.10 0.7499
436.20 0.7503
436.30 0.7508
436.40 0.7512
436.50 0.7516
436.60 0.7521
436.70 0.7525
436.80 0.7529
436.90 0.7534
437.00 0.7538
437.10 0.7543
437.20 0.7547
437.30 0.7551
437.40 0.7556
437.50 0.756
437.60 0.7565
437.70 0.7569
437.80 0.7574
437.90 0.7578
438.00 0.7582
438.10 0.7587
438.20 0.7591
438.30 0.7595
438.40 0.76
438.50 0.7604
438.60 0.7609
438.70 0.7613
438.80 0.7617
438.90 0.7622
439.00 0.7626
439.10 0.763
439.20 0.7635
439.30 0.7639
439.40 0.7644
439.50 0.7648
439.60 0.7652
439.70 0.7657
439.80 0.7661
439.90 0.7665
440.00 0.767
440.10 0.7674
440.20 0.7678
440.30 0.7683
440.40 0.7687
440.50 0.7691
440.60 0.7696
440.70 0.77
440.80 0.7704
440.90 0.7709
441.00 0.7713
441.10 0.7718
441.20 0.7722
441.30 0.7726
441.40 0.773
441.50 0.7735
441.60 0.7739
441.70 0.7743
441.80 0.7748
441.90 0.7752
442.00 0.7757
442.10 0.7761
442.20 0.7765
442.30 0.7769
442.40 0.7774
442.50 0.7778
442.60 0.7782
442.70 0.7787
442.80 0.7791
442.90 0.7795
443.00 0.78
443.10 0.7804
443.20 0.7808
443.30 0.7813
443.40 0.7817
443.50 0.7821
443.60 0.7826
443.70 0.783
443.80 0.7834
443.90 0.7839
444.00 0.7843
444.10 0.7847
444.20 0.7851
444.30 0.7856
444.40 0.786
444.50 0.7864
444.60 0.7869
444.70 0.7873
444.80 0.7877
444.90 0.7882
445.00 0.7886
445.10 0.789
445.20 0.7894
445.30 0.7899
445.40 0.7903
445.50 0.7907
445.60 0.7912
445.70 0.7916
445.80 0.792
445.90 0.7924
446.00 0.7929
446.10 0.7933
446.20 0.7937
446.30 0.7942
446.40 0.7946
446.50 0.795
446.60 0.7954
446.70 0.7959
446.80 0.7963
446.90 0.7967
447.00 0.7971
447.10 0.7976
447.20 0.798
447.30 0.7984
447.40 0.7988
447.50 0.7993
447.60 0.7997
447.70 0.8001
447.80 0.8005
447.90 0.801
448.00 0.8014
448.10 0.8018
448.20 0.8022
448.30 0.8027
448.40 0.8031
448.50 0.8035
448.60 0.8039
448.70 0.8044
448.80 0.8048
448.90 0.8052
449.00 0.8056
449.10 0.8061
449.20 0.8065
449.30 0.8069
449.40 0.8073
449.50 0.8078
449.60 0.8082
449.70 0.8086
449.80 0.809
449.90 0.8094
450.00 0.8099
450.10 0.8103
450.20 0.8107
450.30 0.8111
450.40 0.8116
450.50 0.812
450.60 0.8124
450.70 0.8128
450.80 0.8132
450.90 0.8137
451.00 0.8141
451.10 0.8145
451.20 0.8149
451.30 0.8154
451.40 0.8158
451.50 0.8162
451.60 0.8166
451.70 0.817
451.80 0.8174
451.90 0.8179
452.00 0.8183
452.10 0.8187
452.20 0.8191
452.30 0.8195
452.40 0.82
452.50 0.8204
452.60 0.8208
452.70 0.8212
452.80 0.8216
452.90 0.8221
453.00 0.8225
453.10 0.8229
453.20 0.8233
453.30 0.8237
453.40 0.8241
453.50 0.8246
453.60 0.825
453.70 0.8254
453.80 0.8258
453.90 0.8262
454.00 0.8266
454.10 0.8271
454.20 0.8275
454.30 0.8279
454.40 0.8283
454.50 0.8287
454.60 0.8291
454.70 0.8295
454.80 0.83
454.90 0.8304
455.00 0.8308
455.10 0.8312
455.20 0.8316
455.30 0.832
455.40 0.8324
455.50 0.8329
455.60 0.8333
455.70 0.8337
455.80 0.8341
455.90 0.8345
456.00 0.8349
456.10 0.8353
456.20 0.8358
456.30 0.8362
456.40 0.8366
456.50 0.837
456.60 0.8374
456.70 0.8378
456.80 0.8382
456.90 0.8386
457.00 0.8391
457.10 0.8395
457.20 0.8399
457.30 0.8403
457.40 0.8407
457.50 0.8411
457.60 0.8415
457.70 0.8419
457.80 0.8424
457.90 0.8428
458.00 0.8432
458.10 0.8436
458.20 0.844
458.30 0.8444
458.40 0.8448
458.50 0.8452
458.60 0.8456
458.70 0.846
458.80 0.8464
458.90 0.8469
459.00 0.8473
459.10 0.8477
459.20 0.8481
459.30 0.8485
459.40 0.8489
459.50 0.8493
459.60 0.8497
459.70 0.8501
459.80 0.8505
459.90 0.8509
460.00 0.8513
460.10 0.8517
460.20 0.8522
460.30 0.8526
460.40 0.853
460.50 0.8534
460.60 0.8538
460.70 0.8542
460.80 0.8546
460.90 0.855
461.00 0.8554
461.10 0.8558
461.20 0.8562
461.30 0.8566
461.40 0.857
461.50 0.8574
461.60 0.8578
461.70 0.8582
461.80 0.8586
461.90 0.859
462.00 0.8595
462.10 0.8599
462.20 0.8603
462.30 0.8607
462.40 0.8611
462.50 0.8615
462.60 0.8619
462.70 0.8623
462.80 0.8627
462.90 0.8631
463.00 0.8635
463.10 0.8639
463.20 0.8643
463.30 0.8647
463.40 0.8651
463.50 0.8655
463.60 0.8659
463.70 0.8663
463.80 0.8667
463.90 0.8671
464.00 0.8675
464.10 0.8679
464.20 0.8683
464.30 0.8687
464.40 0.8691
464.50 0.8695
464.60 0.8699
464.70 0.8703
464.80 0.8707
464.90 0.8711
465.00 0.8715
465.10 0.8719
465.20 0.8723
465.30 0.8727
465.40 0.8731
465.50 0.8735
465.60 0.8739
465.70 0.8743
465.80 0.8747
465.90 0.8751
466.00 0.8755
466.10 0.8759
466.20 0.8763
466.30 0.8767
466.40 0.8771
466.50 0.8774
466.60 0.8778
466.70 0.8782
466.80 0.8786
466.90 0.879
467.00 0.8794
467.10 0.8798
467.20 0.8802
467.30 0.8806
467.40 0.881
467.50 0.8814
467.60 0.8818
467.70 0.8822
467.80 0.8826
467.90 0.883
468.00 0.8834
468.10 0.8838
468.20 0.8842
468.30 0.8846
468.40 0.885
468.50 0.8853
468.60 0.8857
468.70 0.8861
468.80 0.8865
468.90 0.8869
469.00 0.8873
469.10 0.8877
469.20 0.8881
469.30 0.8885
469.40 0.8889
469.50 0.8893
469.60 0.8896
469.70 0.89
469.80 0.8904
469.90 0.8908
470.00 0.8912
470.10 0.8916
470.20 0.892
470.30 0.8924
470.40 0.8928
470.50 0.8932
470.60 0.8935
470.70 0.8939
470.80 0.8943
470.90 0.8947
471.00 0.8951
471.10 0.8955
471.20 0.8959
471.30 0.8963
471.40 0.8967
471.50 0.897
471.60 0.8974
471.70 0.8978
471.80 0.8982
471.90 0.8986
472.00 0.899
472.10 0.8994
472.20 0.8998
472.30 0.9001
472.40 0.9005
472.50 0.9009
472.60 0.9013
472.70 0.9017
472.80 0.9021
472.90 0.9025
473.00 0.9028
473.10 0.9032
473.20 0.9036
473.30 0.904
473.40 0.9044
473.50 0.9048
473.60 0.9052
473.70 0.9055
473.80 0.9059
473.90 0.9063
474.00 0.9067
474.10 0.9071
474.20 0.9074
474.30 0.9078
474.40 0.9082
474.50 0.9086
474.60 0.909
474.70 0.9094
474.80 0.9097
474.90 0.9101
475.00 0.9105
475.10 0.9109
475.20 0.9113
475.30 0.9116
475.40 0.912
475.50 0.9124
475.60 0.9128
475.70 0.9132
475.80 0.9136
475.90 0.9139
476.00 0.9143
476.10 0.9147
476.20 0.9151
476.30 0.9155
476.40 0.9158
476.50 0.9162
476.60 0.9166
476.70 0.917
476.80 0.9173
476.90 0.9177
477.00 0.9181
477.10 0.9185
477.20 0.9188
477.30 0.9192
477.40 0.9196
477.50 0.92
477.60 0.9204
477.70 0.9207
477.80 0.9211
477.90 0.9215
478.00 0.9219
478.10 0.9222
478.20 0.9226
478.30 0.923
478.40 0.9234
478.50 0.9237
478.60 0.9241
478.70 0.9245
478.80 0.9249
478.90 0.9252
479.00 0.9256
479.10 0.926
479.20 0.9264
479.30 0.9267
479.40 0.9271
479.50 0.9275
479.60 0.9279
479.70 0.9282
479.80 0.9286
479.90 0.929
480.00 0.9294
480.10 0.9297
480.20 0.9301
480.30 0.9305
480.40 0.9308
480.50 0.9312
480.60 0.9316
480.70 0.932
480.80 0.9323
480.90 0.9327
481.00 0.9331
481.10 0.9334
481.20 0.9338
481.30 0.9342
481.40 0.9345
481.50 0.9349
481.60 0.9353
481.70 0.9357
481.80 0.936
481.90 0.9364
482.00 0.9368
482.10 0.9371
482.20 0.9375
482.30 0.9379
482.40 0.9382
482.50 0.9386
482.60 0.939
482.70 0.9393
482.80 0.9397
482.90 0.9401
483.00 0.9404
483.10 0.9408
483.20 0.9412
483.30 0.9415
483.40 0.9419
483.50 0.9423
483.60 0.9426
483.70 0.943
483.80 0.9434
483.90 0.9437
484.00 0.9441
484.10 0.9445
484.20 0.9448
484.30 0.9452
484.40 0.9456
484.50 0.9459
484.60 0.9463
484.70 0.9466
484.80 0.947
484.90 0.9474
485.00 0.9477
485.10 0.9481
485.20 0.9485
485.30 0.9488
485.40 0.9492
485.50 0.9495
485.60 0.9499
485.70 0.9503
485.80 0.9506
485.90 0.951
486.00 0.9514
486.10 0.9517
486.20 0.9521
486.30 0.9524
486.40 0.9528
486.50 0.9532
486.60 0.9535
486.70 0.9539
486.80 0.9542
486.90 0.9546
487.00 0.955
487.10 0.9553
487.20 0.9557
487.30 0.956
487.40 0.9564
487.50 0.9567
487.60 0.9571
487.70 0.9575
487.80 0.9578
487.90 0.9582
488.00 0.9585
488.10 0.9589
488.20 0.9593
488.30 0.9596
488.40 0.96
488.50 0.9603
488.60 0.9607
488.70 0.961
488.80 0.9614
488.90 0.9617
489.00 0.9621
489.10 0.9624
489.20 0.9628
489.30 0.9632
489.40 0.9635
489.50 0.9639
489.60 0.9642
489.70 0.9646
489.80 0.9649
489.90 0.9653
490.00 0.9656
490.10 0.966
490.20 0.9663
490.30 0.9667
490.40 0.9671
490.50 0.9674
490.60 0.9678
490.70 0.9681
490.80 0.9685
490.90 0.9688
491.00 0.9692
491.10 0.9695
491.20 0.9699
491.30 0.9702
491.40 0.9706
491.50 0.9709
491.60 0.9713
491.70 0.9716
491.80 0.972
491.90 0.9723
492.00 0.9727
492.10 0.973
492.20 0.9734
492.30 0.9737
492.40 0.9741
492.50 0.9744
492.60 0.9748
492.70 0.9751
492.80 0.9755
492.90 0.9758
493.00 0.9762
493.10 0.9765
493.20 0.9768
493.30 0.9772
493.40 0.9775
493.50 0.9779
493.60 0.9782
493.70 0.9786
493.80 0.9789
493.90 0.9793
494.00 0.9796
494.10 0.98
494.20 0.9803
494.30 0.9807
494.40 0.981
494.50 0.9813
494.60 0.9817
494.70 0.982
494.80 0.9824
494.90 0.9827
495.00 0.9831
495.10 0.9834
495.20 0.9837
495.30 0.9841
495.40 0.9844
495.50 0.9848
495.60 0.9851
495.70 0.9855
495.80 0.9858
495.90 0.9862
496.00 0.9865
496.10 0.9868
496.20 0.9872
496.30 0.9875
496.40 0.9879
496.50 0.9882
496.60 0.9885
496.70 0.9889
496.80 0.9892
496.90 0.9896
497.00 0.9899
497.10 0.9902
497.20 0.9906
497.30 0.9909
497.40 0.9913
497.50 0.9916
497.60 0.9919
497.70 0.9923
497.80 0.9926
497.90 0.9929
498.00 0.9933
498.10 0.9936
498.20 0.994
498.30 0.9943
498.40 0.9946
498.50 0.995
498.60 0.9953
498.70 0.9956
498.80 0.996
498.90 0.9963
499.00 0.9967
499.10 0.997
499.20 0.9973
499.30 0.9977
499.40 0.998
499.50 0.9983
499.60 0.9987
499.70 0.999
499.80 0.9993
499.90 0.9997
500.00 1
500.10 1
500.20 1.001
500.30 1.001
500.40 1.001
500.50 1.002
500.60 1.002
500.70 1.002
500.80 1.003
500.90 1.003
501.00 1.003
501.10 1.004
501.20 1.004
501.30 1.004
501.40 1.005
501.50 1.005
501.60 1.005
501.70 1.006
501.80 1.006
501.90 1.006
502.00 1.007
502.10 1.007
502.20 1.007
502.30 1.008
502.40 1.008
502.50 1.008
502.60 1.009
502.70 1.009
502.80 1.009
502.90 1.01
503.00 1.01
503.10 1.01
503.20 1.011
503.30 1.011
503.40 1.011
503.50 1.012
503.60 1.012
503.70 1.012
503.80 1.013
503.90 1.013
504.00 1.013
504.10 1.014
504.20 1.014
504.30 1.014
504.40 1.014
504.50 1.015
504.60 1.015
504.70 1.015
504.80 1.016
504.90 1.016
505.00 1.016
505.10 1.017
505.20 1.017
505.30 1.017
505.40 1.018
505.50 1.018
505.60 1.018
505.70 1.019
505.80 1.019
505.90 1.019
506.00 1.02
506.10 1.02
506.20 1.02
506.30 1.021
506.40 1.021
506.50 1.021
506.60 1.022
506.70 1.022
506.80 1.022
506.90 1.023
507.00 1.023
507.10 1.023
507.20 1.023
507.30 1.024
507.40 1.024
507.50 1.024
507.60 1.025
507.70 1.025
507.80 1.025
507.90 1.026
508.00 1.026
508.10 1.026
508.20 1.027
508.30 1.027
508.40 1.027
508.50 1.028
508.60 1.028
508.70 1.028
508.80 1.029
508.90 1.029
509.00 1.029
509.10 1.03
509.20 1.03
509.30 1.03
509.40 1.03
509.50 1.031
509.60 1.031
509.70 1.031
509.80 1.032
509.90 1.032
510.00 1.032
510.10 1.033
510.20 1.033
510.30 1.033
510.40 1.034
510.50 1.034
510.60 1.034
510.70 1.035
510.80 1.035
510.90 1.035
511.00 1.035
511.10 1.036
511.20 1.036
511.30 1.036
511.40 1.037
511.50 1.037
511.60 1.037
511.70 1.038
511.80 1.038
511.90 1.038
512.00 1.039
512.10 1.039
512.20 1.039
512.30 1.04
512.40 1.04
512.50 1.04
512.60 1.04
512.70 1.041
512.80 1.041
512.90 1.041
513.00 1.042
513.10 1.042
513.20 1.042
513.30 1.043
513.40 1.043
513.50 1.043
513.60 1.044
513.70 1.044
513.80 1.044
513.90 1.044
514.00 1.045
514.10 1.045
514.20 1.045
514.30 1.046
514.40 1.046
514.50 1.046
514.60 1.047
514.70 1.047
514.80 1.047
514.90 1.047
515.00 1.048
515.10 1.048
515.20 1.048
515.30 1.049
515.40 1.049
515.50 1.049
515.60 1.05
515.70 1.05
515.80 1.05
515.90 1.05
516.00 1.051
516.10 1.051
516.20 1.051
516.30 1.052
516.40 1.052
516.50 1.052
516.60 1.053
516.70 1.053
516.80 1.053
516.90 1.053
517.00 1.054
517.10 1.054
517.20 1.054
517.30 1.055
517.40 1.055
517.50 1.055
517.60 1.056
517.70 1.056
517.80 1.056
517.90 1.056
518.00 1.057
518.10 1.057
518.20 1.057
518.30 1.058
518.40 1.058
518.50 1.058
518.60 1.059
518.70 1.059
518.80 1.059
518.90 1.059
519.00 1.06
519.10 1.06
519.20 1.06
519.30 1.061
519.40 1.061
519.50 1.061
519.60 1.061
519.70 1.062
519.80 1.062
519.90 1.062
520.00 1.063
520.10 1.063
520.20 1.063
520.30 1.064
520.40 1.064
520.50 1.064
520.60 1.064
520.70 1.065
520.80 1.065
520.90 1.065
521.00 1.066
521.10 1.066
521.20 1.066
521.30 1.066
521.40 1.067
521.50 1.067
521.60 1.067
521.70 1.068
521.80 1.068
521.90 1.068
522.00 1.068
522.10 1.069
522.20 1.069
522.30 1.069
522.40 1.07
522.50 1.07
522.60 1.07
522.70 1.07
522.80 1.071
522.90 1.071
523.00 1.071
523.10 1.072
523.20 1.072
523.30 1.072
523.40 1.072
523.50 1.073
523.60 1.073
523.70 1.073
523.80 1.074
523.90 1.074
524.00 1.074
524.10 1.074
524.20 1.075
524.30 1.075
524.40 1.075
524.50 1.076
524.60 1.076
524.70 1.076
524.80 1.076
524.90 1.077
525.00 1.077
525.10 1.077
525.20 1.078
525.30 1.078
525.40 1.078
525.50 1.078
525.60 1.079
525.70 1.079
525.80 1.079
525.90 1.08
526.00 1.08
526.10 1.08
526.20 1.08
526.30 1.081
526.40 1.081
526.50 1.081
526.60 1.082
526.70 1.082
526.80 1.082
526.90 1.082
527.00 1.083
527.10 1.083
527.20 1.083
527.30 1.083
527.40 1.084
527.50 1.084
527.60 1.084
527.70 1.085
527.80 1.085
527.90 1.085
528.00 1.085
528.10 1.086
528.20 1.086
528.30 1.086
528.40 1.087
528.50 1.087
528.60 1.087
528.70 1.087
528.80 1.088
528.90 1.088
529.00 1.088
529.10 1.088
529.20 1.089
529.30 1.089
529.40 1.089
529.50 1.09
529.60 1.09
529.70 1.09
529.80 1.09
529.90 1.091
530.00 1.091
530.10 1.091
530.20 1.091
530.30 1.092
530.40 1.092
530.50 1.092
530.60 1.093
530.70 1.093
530.80 1.093
530.90 1.093
531.00 1.094
531.10 1.094
531.20 1.094
531.30 1.094
531.40 1.095
531.50 1.095
531.60 1.095
531.70 1.095
531.80 1.096
531.90 1.096
532.00 1.096
532.10 1.097
532.20 1.097
532.30 1.097
532.40 1.097
532.50 1.098
532.60 1.098
532.70 1.098
532.80 1.098
532.90 1.099
533.00 1.099
533.10 1.099
533.20 1.099
533.30 1.1
533.40 1.1
533.50 1.1
533.60 1.101
533.70 1.101
533.80 1.101
533.90 1.101
534.00 1.102
534.10 1.102
534.20 1.102
534.30 1.102
534.40 1.103
534.50 1.103
534.60 1.103
534.70 1.103
534.80 1.104
534.90 1.104
535.00 1.104
535.10 1.104
535.20 1.105
535.30 1.105
535.40 1.105
535.50 1.106
535.60 1.106
535.70 1.106
535.80 1.106
535.90 1.107
536.00 1.107
536.10 1.107
536.20 1.107
536.30 1.108
536.40 1.108
536.50 1.108
536.60 1.108
536.70 1.109
536.80 1.109
536.90 1.109
537.00 1.109
537.10 1.11
537.20 1.11
537.30 1.11
537.40 1.11
537.50 1.111
537.60 1.111
537.70 1.111
537.80 1.111
537.90 1.112
538.00 1.112
538.10 1.112
538.20 1.112
538.30 1.113
538.40 1.113
538.50 1.113
538.60 1.113
538.70 1.114
538.80 1.114
538.90 1.114
539.00 1.115
539.10 1.115
539.20 1.115
539.30 1.115
539.40 1.116
539.50 1.116
539.60 1.116
539.70 1.116
539.80 1.117
539.90 1.117
540.00 1.117
540.10 1.117
540.20 1.118
540.30 1.118
540.40 1.118
540.50 1.118
540.60 1.119
540.70 1.119
540.80 1.119
540.90 1.119
541.00 1.12
541.10 1.12
541.20 1.12
541.30 1.12
541.40 1.121
541.50 1.121
541.60 1.121
541.70 1.121
541.80 1.121
541.90 1.122
542.00 1.122
542.10 1.122
542.20 1.122
542.30 1.123
542.40 1.123
542.50 1.123
542.60 1.123
542.70 1.124
542.80 1.124
542.90 1.124
543.00 1.124
543.10 1.125
543.20 1.125
543.30 1.125
543.40 1.125
543.50 1.126
543.60 1.126
543.70 1.126
543.80 1.126
543.90 1.127
544.00 1.127
544.10 1.127
544.20 1.127
544.30 1.128
544.40 1.128
544.50 1.128
544.60 1.128
544.70 1.129
544.80 1.129
544.90 1.129
545.00 1.129
545.10 1.13
545.20 1.13
545.30 1.13
545.40 1.13
545.50 1.13
545.60 1.131
545.70 1.131
545.80 1.131
545.90 1.131
546.00 1.132
546.10 1.132
546.20 1.132
546.30 1.132
546.40 1.133
546.50 1.133
546.60 1.133
546.70 1.133
546.80 1.134
546.90 1.134
547.00 1.134
547.10 1.134
547.20 1.135
547.30 1.135
547.40 1.135
547.50 1.135
547.60 1.135
547.70 1.136
547.80 1.136
547.90 1.136
548.00 1.136
548.10 1.137
548.20 1.137
548.30 1.137
548.40 1.137
548.50 1.138
548.60 1.138
548.70 1.138
548.80 1.138
548.90 1.138
549.00 1.139
549.10 1.139
549.20 1.139
549.30 1.139
549.40 1.14
549.50 1.14
549.60 1.14
549.70 1.14
549.80 1.141
549.90 1.141
550.00 1.141
550.10 1.141
550.20 1.141
550.30 1.142
550.40 1.142
550.50 1.142
550.60 1.142
550.70 1.143
550.80 1.143
550.90 1.143
551.00 1.143
551.10 1.144
551.20 1.144
551.30 1.144
551.40 1.144
551.50 1.144
551.60 1.145
551.70 1.145
551.80 1.145
551.90 1.145
552.00 1.146
552.10 1.146
552.20 1.146
552.30 1.146
552.40 1.146
552.50 1.147
552.60 1.147
552.70 1.147
552.80 1.147
552.90 1.148
553.00 1.148
553.10 1.148
553.20 1.148
553.30 1.148
553.40 1.149
553.50 1.149
553.60 1.149
553.70 1.149
553.80 1.15
553.90 1.15
554.00 1.15
554.10 1.15
554.20 1.15
554.30 1.151
554.40 1.151
554.50 1.151
554.60 1.151
554.70 1.152
554.80 1.152
554.90 1.152
555.00 1.152
555.10 1.152
555.20 1.153
555.30 1.153
555.40 1.153
555.50 1.153
555.60 1.154
555.70 1.154
555.80 1.154
555.90 1.154
556.00 1.154
556.10 1.155
556.20 1.155
556.30 1.155
556.40 1.155
556.50 1.156
556.60 1.156
556.70 1.156
556.80 1.156
556.90 1.156
557.00 1.157
557.10 1.157
557.20 1.157
557.30 1.157
557.40 1.157
557.50 1.158
557.60 1.158
557.70 1.158
557.80 1.158
557.90 1.159
558.00 1.159
558.10 1.159
558.20 1.159
558.30 1.159
558.40 1.16
558.50 1.16
558.60 1.16
558.70 1.16
558.80 1.16
558.90 1.161
559.00 1.161
559.10 1.161
559.20 1.161
559.30 1.161
559.40 1.162
559.50 1.162
559.60 1.162
559.70 1.162
559.80 1.163
559.90 1.163
560.00 1.163
560.10 1.163
560.20 1.163
560.30 1.164
560.40 1.164
560.50 1.164
560.60 1.164
560.70 1.164
560.80 1.165
560.90 1.165
561.00 1.165
561.10 1.165
561.20 1.165
561.30 1.166
561.40 1.166
561.50 1.166
561.60 1.166
561.70 1.166
561.80 1.167
561.90 1.167
562.00 1.167
562.10 1.167
562.20 1.167
562.30 1.168
562.40 1.168
562.50 1.168
562.60 1.168
562.70 1.168
562.80 1.169
562.90 1.169
563.00 1.169
563.10 1.169
563.20 1.17
563.30 1.17
563.40 1.17
563.50 1.17
563.60 1.17
563.70 1.171
563.80 1.171
563.90 1.171
564.00 1.171
564.10 1.171
564.20 1.171
564.30 1.172
564.40 1.172
564.50 1.172
564.60 1.172
564.70 1.173
564.80 1.173
564.90 1.173
565.00 1.173
565.10 1.173
565.20 1.174
565.30 1.174
565.40 1.174
565.50 1.174
565.60 1.174
565.70 1.175
565.80 1.175
565.90 1.175
566.00 1.175
566.10 1.175
566.20 1.175
566.30 1.176
566.40 1.176
566.50 1.176
566.60 1.176
566.70 1.176
566.80 1.177
566.90 1.177
567.00 1.177
567.10 1.177
567.20 1.177
567.30 1.178
567.40 1.178
567.50 1.178
567.60 1.178
567.70 1.178
567.80 1.179
567.90 1.179
568.00 1.179
568.10 1.179
568.20 1.179
568.30 1.18
568.40 1.18
568.50 1.18
568.60 1.18
568.70 1.18
568.80 1.18
568.90 1.181
569.00 1.181
569.10 1.181
569.20 1.181
569.30 1.181
569.40 1.182
569.50 1.182
569.60 1.182
569.70 1.182
569.80 1.182
569.90 1.183
570.00 1.183
570.10 1.183
570.20 1.183
570.30 1.183
570.40 1.184
570.50 1.184
570.60 1.184
570.70 1.184
570.80 1.184
570.90 1.184
571.00 1.185
571.10 1.185
571.20 1.185
571.30 1.185
571.40 1.185
571.50 1.186
571.60 1.186
571.70 1.186
571.80 1.186
571.90 1.186
572.00 1.186
572.10 1.187
572.20 1.187
572.30 1.187
572.40 1.187
572.50 1.187
572.60 1.188
572.70 1.188
572.80 1.188
572.90 1.188
573.00 1.188
573.10 1.188
573.20 1.189
573.30 1.189
573.40 1.189
573.50 1.189
573.60 1.189
573.70 1.19
573.80 1.19
573.90 1.19
574.00 1.19
574.10 1.19
574.20 1.19
574.30 1.191
574.40 1.191
574.50 1.191
574.60 1.191
574.70 1.191
574.80 1.192
574.90 1.192
575.00 1.192
575.10 1.192
575.20 1.192
575.30 1.192
575.40 1.193
575.50 1.193
575.60 1.193
575.70 1.193
575.80 1.193
575.90 1.193
576.00 1.194
576.10 1.194
576.20 1.194
576.30 1.194
576.40 1.194
576.50 1.195
576.60 1.195
576.70 1.195
576.80 1.195
576.90 1.195
577.00 1.195
577.10 1.196
577.20 1.196
577.30 1.196
577.40 1.196
577.50 1.196
577.60 1.196
577.70 1.197
577.80 1.197
577.90 1.197
578.00 1.197
578.10 1.197
578.20 1.197
578.30 1.198
578.40 1.198
578.50 1.198
578.60 1.198
578.70 1.198
578.80 1.198
578.90 1.199
579.00 1.199
579.10 1.199
579.20 1.199
579.30 1.199
579.40 1.199
579.50 1.2
579.60 1.2
579.70 1.2
579.80 1.2
579.90 1.2
580.00 1.2
580.10 1.201
580.20 1.201
580.30 1.201
580.40 1.201
580.50 1.201
580.60 1.201
580.70 1.202
580.80 1.202
580.90 1.202
581.00 1.202
581.10 1.202
581.20 1.202
581.30 1.203
581.40 1.203
581.50 1.203
581.60 1.203
581.70 1.203
581.80 1.203
581.90 1.204
582.00 1.204
582.10 1.204
582.20 1.204
582.30 1.204
582.40 1.204
582.50 1.205
582.60 1.205
582.70 1.205
582.80 1.205
582.90 1.205
583.00 1.205
583.10 1.206
583.20 1.206
583.30 1.206
583.40 1.206
583.50 1.206
583.60 1.206
583.70 1.207
583.80 1.207
583.90 1.207
584.00 1.207
584.10 1.207
584.20 1.207
584.30 1.207
584.40 1.208
584.50 1.208
584.60 1.208
584.70 1.208
584.80 1.208
584.90 1.208
585.00 1.209
585.10 1.209
585.20 1.209
585.30 1.209
585.40 1.209
585.50 1.209
585.60 1.209
585.70 1.21
585.80 1.21
585.90 1.21
586.00 1.21
586.10 1.21
586.20 1.21
586.30 1.211
586.40 1.211
586.50 1.211
586.60 1.211
586.70 1.211
586.80 1.211
586.90 1.211
587.00 1.212
587.10 1.212
587.20 1.212
587.30 1.212
587.40 1.212
587.50 1.212
587.60 1.213
587.70 1.213
587.80 1.213
587.90 1.213
588.00 1.213
588.10 1.213
588.20 1.213
588.30 1.214
588.40 1.214
588.50 1.214
588.60 1.214
588.70 1.214
588.80 1.214
588.90 1.214
589.00 1.215
589.10 1.215
589.20 1.215
589.30 1.215
589.40 1.215
589.50 1.215
589.60 1.215
589.70 1.216
589.80 1.216
589.90 1.216
590.00 1.216
590.10 1.216
590.20 1.216
590.30 1.216
590.40 1.217
590.50 1.217
590.60 1.217
590.70 1.217
590.80 1.217
590.90 1.217
591.00 1.218
591.10 1.218
591.20 1.218
591.30 1.218
591.40 1.218
591.50 1.218
591.60 1.218
591.70 1.219
591.80 1.219
591.90 1.219
592.00 1.219
592.10 1.219
592.20 1.219
592.30 1.219
592.40 1.22
592.50 1.22
592.60 1.22
592.70 1.22
592.80 1.22
592.90 1.22
593.00 1.22
593.10 1.221
593.20 1.221
593.30 1.221
593.40 1.221
593.50 1.221
593.60 1.221
593.70 1.221
593.80 1.221
593.90 1.222
594.00 1.222
594.10 1.222
594.20 1.222
594.30 1.222
594.40 1.222
594.50 1.222
594.60 1.223
594.70 1.223
594.80 1.223
594.90 1.223
595.00 1.223
595.10 1.223
595.20 1.223
595.30 1.224
595.40 1.224
595.50 1.224
595.60 1.224
595.70 1.224
595.80 1.224
595.90 1.224
596.00 1.225
596.10 1.225
596.20 1.225
596.30 1.225
596.40 1.225
596.50 1.225
596.60 1.225
596.70 1.225
596.80 1.226
596.90 1.226
597.00 1.226
597.10 1.226
597.20 1.226
597.30 1.226
597.40 1.226
597.50 1.226
597.60 1.227
597.70 1.227
597.80 1.227
597.90 1.227
598.00 1.227
598.10 1.227
598.20 1.227
598.30 1.228
598.40 1.228
598.50 1.228
598.60 1.228
598.70 1.228
598.80 1.228
598.90 1.228
599.00 1.228
599.10 1.229
599.20 1.229
599.30 1.229
599.40 1.229
599.50 1.229
599.60 1.229
599.70 1.229
599.80 1.229
599.90 1.23
600.00 1.23
600.10 1.23
600.20 1.23
600.30 1.23
600.40 1.23
600.50 1.23
600.60 1.23
600.70 1.231
600.80 1.231
600.90 1.231
601.00 1.231
601.10 1.231
601.20 1.231
601.30 1.231
601.40 1.231
601.50 1.232
601.60 1.232
601.70 1.232
601.80 1.232
601.90 1.232
602.00 1.232
602.10 1.232
602.20 1.232
602.30 1.233
602.40 1.233
602.50 1.233
602.60 1.233
602.70 1.233
602.80 1.233
602.90 1.233
603.00 1.233
603.10 1.234
603.20 1.234
603.30 1.234
603.40 1.234
603.50 1.234
603.60 1.234
603.70 1.234
603.80 1.234
603.90 1.234
604.00 1.235
604.10 1.235
604.20 1.235
604.30 1.235
604.40 1.235
604.50 1.235
604.60 1.235
604.70 1.235
604.80 1.235
604.90 1.236
605.00 1.236
605.10 1.236
605.20 1.236
605.30 1.236
605.40 1.236
605.50 1.236
605.60 1.236
605.70 1.236
605.80 1.237
605.90 1.237
606.00 1.237
606.10 1.237
606.20 1.237
606.30 1.237
606.40 1.237
606.50 1.237
606.60 1.238
606.70 1.238
606.80 1.238
606.90 1.238
607.00 1.238
607.10 1.238
607.20 1.238
607.30 1.238
607.40 1.238
607.50 1.239
607.60 1.239
607.70 1.239
607.80 1.239
607.90 1.239
608.00 1.239
608.10 1.239
608.20 1.239
608.30 1.239
608.40 1.24
608.50 1.24
608.60 1.24
608.70 1.24
608.80 1.24
608.90 1.24
609.00 1.24
609.10 1.24
609.20 1.24
609.30 1.24
609.40 1.241
609.50 1.241
609.60 1.241
609.70 1.241
609.80 1.241
609.90 1.241
610.00 1.241
610.10 1.241
610.20 1.241
610.30 1.242
610.40 1.242
610.50 1.242
610.60 1.242
610.70 1.242
610.80 1.242
610.90 1.242
611.00 1.242
611.10 1.242
611.20 1.242
611.30 1.243
611.40 1.243
611.50 1.243
611.60 1.243
611.70 1.243
611.80 1.243
611.90 1.243
612.00 1.243
612.10 1.243
612.20 1.243
612.30 1.244
612.40 1.244
612.50 1.244
612.60 1.244
612.70 1.244
612.80 1.244
612.90 1.244
613.00 1.244
613.10 1.244
613.20 1.244
613.30 1.245
613.40 1.245
613.50 1.245
613.60 1.245
613.70 1.245
613.80 1.245
613.90 1.245
614.00 1.245
614.10 1.245
614.20 1.245
614.30 1.246
614.40 1.246
614.50 1.246
614.60 1.246
614.70 1.246
614.80 1.246
614.90 1.246
615.00 1.246
615.10 1.246
615.20 1.246
615.30 1.246
615.40 1.247
615.50 1.247
615.60 1.247
615.70 1.247
615.80 1.247
615.90 1.247
616.00 1.247
616.10 1.247
616.20 1.247
616.30 1.247
616.40 1.247
616.50 1.248
616.60 1.248
616.70 1.248
616.80 1.248
616.90 1.248
617.00 1.248
617.10 1.248
617.20 1.248
617.30 1.248
617.40 1.248
617.50 1.248
617.60 1.249
617.70 1.249
617.80 1.249
617.90 1.249
618.00 1.249
618.10 1.249
618.20 1.249
618.30 1.249
618.40 1.249
618.50 1.249
618.60 1.249
618.70 1.25
618.80 1.25
618.90 1.25
619.00 1.25
619.10 1.25
619.20 1.25
619.30 1.25
619.40 1.25
619.50 1.25
619.60 1.25
619.70 1.25
619.80 1.25
619.90 1.251
620.00 1.251
620.10 1.251
620.20 1.251
620.30 1.251
620.40 1.251
620.50 1.251
620.60 1.251
620.70 1.251
620.80 1.251
620.90 1.251
621.00 1.251
621.10 1.252
621.20 1.252
621.30 1.252
621.40 1.252
621.50 1.252
621.60 1.252
621.70 1.252
621.80 1.252
621.90 1.252
622.00 1.252
622.10 1.252
622.20 1.252
622.30 1.252
622.40 1.253
622.50 1.253
622.60 1.253
622.70 1.253
622.80 1.253
622.90 1.253
623.00 1.253
623.10 1.253
623.20 1.253
623.30 1.253
623.40 1.253
623.50 1.253
623.60 1.253
623.70 1.254
623.80 1.254
623.90 1.254
624.00 1.254
624.10 1.254
624.20 1.254
624.30 1.254
624.40 1.254
624.50 1.254
624.60 1.254
624.70 1.254
624.80 1.254
624.90 1.254
625.00 1.255
625.10 1.255
625.20 1.255
625.30 1.255
625.40 1.255
625.50 1.255
625.60 1.255
625.70 1.255
625.80 1.255
625.90 1.255
626.00 1.255
626.10 1.255
626.20 1.255
626.30 1.255
626.40 1.256
626.50 1.256
626.60 1.256
626.70 1.256
626.80 1.256
626.90 1.256
627.00 1.256
627.10 1.256
627.20 1.256
627.30 1.256
627.40 1.256
627.50 1.256
627.60 1.256
627.70 1.256
627.80 1.257
627.90 1.257
628.00 1.257
628.10 1.257
628.20 1.257
628.30 1.257
628.40 1.257
628.50 1.257
628.60 1.257
628.70 1.257
628.80 1.257
628.90 1.257
629.00 1.257
629.10 1.257
629.20 1.257
629.30 1.257
629.40 1.258
629.50 1.258
629.60 1.258
629.70 1.258
629.80 1.258
629.90 1.258
630.00 1.258
630.10 1.258
630.20 1.258
630.30 1.258
630.40 1.258
630.50 1.258
630.60 1.258
630.70 1.258
630.80 1.258
630.90 1.258
631.00 1.259
631.10 1.259
631.20 1.259
631.30 1.259
631.40 1.259
631.50 1.259
631.60 1.259
631.70 1.259
631.80 1.259
631.90 1.259
632.00 1.259
632.10 1.259
632.20 1.259
632.30 1.259
632.40 1.259
632.50 1.259
632.60 1.259
632.70 1.26
632.80 1.26
632.90 1.26
633.00 1.26
633.10 1.26
633.20 1.26
633.30 1.26
633.40 1.26
633.50 1.26
633.60 1.26
633.70 1.26
633.80 1.26
633.90 1.26
634.00 1.26
634.10 1.26
634.20 1.26
634.30 1.26
634.40 1.26
634.50 1.261
634.60 1.261
634.70 1.261
634.80 1.261
634.90 1.261
635.00 1.261
635.10 1.261
635.20 1.261
635.30 1.261
635.40 1.261
635.50 1.261
635.60 1.261
635.70 1.261
635.80 1.261
635.90 1.261
636.00 1.261
636.10 1.261
636.20 1.261
636.30 1.261
636.40 1.262
636.50 1.262
636.60 1.262
636.70 1.262
636.80 1.262
636.90 1.262
637.00 1.262
637.10 1.262
637.20 1.262
637.30 1.262
637.40 1.262
637.50 1.262
637.60 1.262
637.70 1.262
637.80 1.262
637.90 1.262
638.00 1.262
638.10 1.262
638.20 1.262
638.30 1.262
638.40 1.262
638.50 1.262
638.60 1.262
638.70 1.263
638.80 1.263
638.90 1.263
639.00 1.263
639.10 1.263
639.20 1.263
639.30 1.263
639.40 1.263
639.50 1.263
639.60 1.263
639.70 1.263
639.80 1.263
639.90 1.263
640.00 1.263
640.10 1.263
640.20 1.263
640.30 1.263
640.40 1.263
640.50 1.263
640.60 1.263
640.70 1.263
640.80 1.263
640.90 1.263
641.00 1.263
641.10 1.263
641.20 1.263
641.30 1.264
641.40 1.264
641.50 1.264
641.60 1.264
641.70 1.264
641.80 1.264
641.90 1.264
642.00 1.264
642.10 1.264
642.20 1.264
642.30 1.264
642.40 1.264
642.50 1.264
642.60 1.264
642.70 1.264
642.80 1.264
642.90 1.264
643.00 1.264
643.10 1.264
643.20 1.264
643.30 1.264
643.40 1.264
643.50 1.264
643.60 1.264
643.70 1.264
643.80 1.264
643.90 1.264
644.00 1.265
644.10 1.265
644.20 1.265
644.30 1.265
644.40 1.265
644.50 1.265
644.60 1.265
644.70 1.265
644.80 1.265
644.90 1.265
645.00 1.265
645.10 1.265
645.20 1.265
645.30 1.265
645.40 1.265
645.50 1.265
645.60 1.265
645.70 1.265
645.80 1.265
645.90 1.265
646.00 1.265
646.10 1.265
646.20 1.265
646.30 1.265
646.40 1.265
646.50 1.265
646.60 1.265
646.70 1.265
646.80 1.265
646.90 1.265
647.00 1.265
647.10 1.265
647.20 1.265
647.30 1.265
647.40 1.265
647.50 1.265
647.60 1.265
647.70 1.265
647.80 1.265
647.90 1.265
648.00 1.265
648.10 1.265
648.20 1.266
648.30 1.266
648.40 1.266
648.50 1.266
648.60 1.266
648.70 1.266
648.80 1.266
648.90 1.266
649.00 1.266
649.10 1.266
649.20 1.266
649.30 1.266
649.40 1.266
649.50 1.266
649.60 1.266
649.70 1.266
649.80 1.266
649.90 1.266
650.00 1.266
650.10 1.266
650.20 1.266
650.30 1.266
650.40 1.266
650.50 1.266
650.60 1.266
650.70 1.266
650.80 1.266
650.90 1.266
651.00 1.266
651.10 1.266
651.20 1.266
651.30 1.266
651.40 1.266
651.50 1.266
651.60 1.266
651.70 1.266
651.80 1.266
651.90 1.266
652.00 1.266
652.10 1.266
652.20 1.266
652.30 1.266
652.40 1.266
652.50 1.266
652.60 1.266
652.70 1.266
652.80 1.266
652.90 1.266
653.00 1.266
653.10 1.266
653.20 1.266
653.30 1.266
653.40 1.266
653.50 1.266
653.60 1.266
653.70 1.266
653.80 1.266
653.90 1.266
654.00 1.266
654.10 1.266
654.20 1.266
654.30 1.266
654.40 1.266
654.50 1.266
654.60 1.266
654.70 1.266
654.80 1.266
654.90 1.266
655.00 1.266
655.10 1.266
655.20 1.266
655.30 1.266
655.40 1.266
655.50 1.266
655.60 1.266
655.70 1.266
655.80 1.266
655.90 1.266
656.00 1.266
656.10 1.266
656.20 1.266
656.30 1.266
656.40 1.266
656.50 1.266
656.60 1.266
656.70 1.266
656.80 1.266
656.90 1.266
657.00 1.266
657.10 1.266
657.20 1.266
657.30 1.266
657.40 1.266
657.50 1.266
657.60 1.266
657.70 1.266
657.80 1.266
657.90 1.266
658.00 1.266
658.10 1.266
658.20 1.266
658.30 1.266
658.40 1.266
658.50 1.266
658.60 1.266
658.70 1.266
658.80 1.266
658.90 1.266
659.00 1.266
659.10 1.266
659.20 1.266
659.30 1.266
659.40 1.266
659.50 1.266
659.60 1.266
659.70 1.266
659.80 1.266
659.90 1.266
660.00 1.266
660.10 1.266
660.20 1.266
660.30 1.266
660.40 1.266
660.50 1.266
660.60 1.266
660.70 1.266
660.80 1.266
660.90 1.266
661.00 1.266
661.10 1.266
661.20 1.266
661.30 1.266
661.40 1.266
661.50 1.266
661.60 1.266
661.70 1.266
661.80 1.266
661.90 1.266
662.00 1.266
662.10 1.266
662.20 1.266
662.30 1.266
662.40 1.266
662.50 1.266
662.60 1.266
662.70 1.266
662.80 1.266
662.90 1.266
663.00 1.266
663.10 1.266
663.20 1.266
663.30 1.266
663.40 1.266
663.50 1.266
663.60 1.266
663.70 1.266
663.80 1.266
663.90 1.266
664.00 1.266
664.10 1.266
664.20 1.265
664.30 1.265
664.40 1.265
664.50 1.265
664.60 1.265
664.70 1.265
664.80 1.265
664.90 1.265
665.00 1.265
665.10 1.265
665.20 1.265
665.30 1.265
665.40 1.265
665.50 1.265
665.60 1.265
665.70 1.265
665.80 1.265
665.90 1.265
666.00 1.265
666.10 1.265
666.20 1.265
666.30 1.265
666.40 1.265
666.50 1.265
666.60 1.265
666.70 1.265
666.80 1.265
666.90 1.265
667.00 1.265
667.10 1.265
667.20 1.265
667.30 1.265
667.40 1.265
667.50 1.265
667.60 1.265
667.70 1.265
667.80 1.264
667.90 1.264
668.00 1.264
668.10 1.264
668.20 1.264
668.30 1.264
668.40 1.264
668.50 1.264
668.60 1.264
668.70 1.264
668.80 1.264
668.90 1.264
669.00 1.264
669.10 1.264
669.20 1.264
669.30 1.264
669.40 1.264
669.50 1.264
669.60 1.264
669.70 1.264
669.80 1.264
669.90 1.264
670.00 1.264
670.10 1.264
670.20 1.264
670.30 1.264
670.40 1.264
670.50 1.263
670.60 1.263
670.70 1.263
670.80 1.263
670.90 1.263
671.00 1.263
671.10 1.263
671.20 1.263
671.30 1.263
671.40 1.263
671.50 1.263
671.60 1.263
671.70 1.263
671.80 1.263
671.90 1.263
672.00 1.263
672.10 1.263
672.20 1.263
672.30 1.263
672.40 1.263
672.50 1.263
672.60 1.263
672.70 1.263
672.80 1.262
672.90 1.262
673.00 1.262
673.10 1.262
673.20 1.262
673.30 1.262
673.40 1.262
673.50 1.262
673.60 1.262
673.70 1.262
673.80 1.262
673.90 1.262
674.00 1.262
674.10 1.262
674.20 1.262
674.30 1.262
674.40 1.262
674.50 1.262
674.60 1.262
674.70 1.261
674.80 1.261
674.90 1.261
675.00 1.261
675.10 1.261
675.20 1.261
675.30 1.261
675.40 1.261
675.50 1.261
675.60 1.261
675.70 1.261
675.80 1.261
675.90 1.261
676.00 1.261
676.10 1.261
676.20 1.261
676.30 1.261
676.40 1.26
676.50 1.26
676.60 1.26
676.70 1.26
676.80 1.26
676.90 1.26
677.00 1.26
677.10 1.26
677.20 1.26
677.30 1.26
677.40 1.26
677.50 1.26
677.60 1.26
677.70 1.26
677.80 1.26
677.90 1.259
678.00 1.259
678.10 1.259
678.20 1.259
678.30 1.259
678.40 1.259
678.50 1.259
678.60 1.259
678.70 1.259
678.80 1.259
678.90 1.259
679.00 1.259
679.10 1.259
679.20 1.259
679.30 1.259
679.40 1.258
679.50 1.258
679.60 1.258
679.70 1.258
679.80 1.258
679.90 1.258
680.00 1.258
680.10 1.258
680.20 1.258
680.30 1.258
680.40 1.258
680.50 1.258
680.60 1.258
680.70 1.257
680.80 1.257
680.90 1.257
681.00 1.257
681.10 1.257
681.20 1.257
681.30 1.257
681.40 1.257
681.50 1.257
681.60 1.257
681.70 1.257
681.80 1.257
681.90 1.256
682.00 1.256
682.10 1.256
682.20 1.256
682.30 1.256
682.40 1.256
682.50 1.256
682.60 1.256
682.70 1.256
682.80 1.256
682.90 1.256
683.00 1.256
683.10 1.255
683.20 1.255
683.30 1.255
683.40 1.255
683.50 1.255
683.60 1.255
683.70 1.255
683.80 1.255
683.90 1.255
684.00 1.255
684.10 1.255
684.20 1.254
684.30 1.254
684.40 1.254
684.50 1.254
684.60 1.254
684.70 1.254
684.80 1.254
684.90 1.254
685.00 1.254
685.10 1.254
685.20 1.254
685.30 1.253
685.40 1.253
685.50 1.253
685.60 1.253
685.70 1.253
685.80 1.253
685.90 1.253
686.00 1.253
686.10 1.253
686.20 1.253
686.30 1.252
686.40 1.252
686.50 1.252
686.60 1.252
686.70 1.252
686.80 1.252
686.90 1.252
687.00 1.252
687.10 1.252
687.20 1.251
687.30 1.251
687.40 1.251
687.50 1.251
687.60 1.251
687.70 1.251
687.80 1.251
687.90 1.251
688.00 1.251
688.10 1.25
688.20 1.25
688.30 1.25
688.40 1.25
688.50 1.25
688.60 1.25
688.70 1.25
688.80 1.25
688.90 1.25
689.00 1.25
689.10 1.249
689.20 1.249
689.30 1.249
689.40 1.249
689.50 1.249
689.60 1.249
689.70 1.249
689.80 1.249
689.90 1.248
690.00 1.248
690.10 1.248
690.20 1.248
690.30 1.248
690.40 1.248
690.50 1.248
690.60 1.247
690.70 1.247
690.80 1.247
690.90 1.247
691.00 1.247
691.10 1.247
691.20 1.247
691.30 1.247
691.40 1.246
691.50 1.246
691.60 1.246
691.70 1.246
691.80 1.246
691.90 1.246
692.00 1.246
692.10 1.246
692.20 1.245
692.30 1.245
692.40 1.245
692.50 1.245
692.60 1.245
692.70 1.245
692.80 1.245
692.90 1.245
693.00 1.244
693.10 1.244
693.20 1.244
693.30 1.244
693.40 1.244
693.50 1.244
693.60 1.244
693.70 1.243
693.80 1.243
693.90 1.243
694.00 1.243
694.10 1.243
694.20 1.243
694.30 1.243
694.40 1.243
694.50 1.242
694.60 1.242
694.70 1.242
694.80 1.242
694.90 1.242
695.00 1.242
695.10 1.242
695.20 1.241
695.30 1.241
695.40 1.241
695.50 1.241
695.60 1.241
695.70 1.241
695.80 1.241
695.90 1.24
696.00 1.24
696.10 1.24
696.20 1.24
696.30 1.24
696.40 1.24
696.50 1.239
696.60 1.239
696.70 1.239
696.80 1.239
696.90 1.239
697.00 1.239
697.10 1.239
697.20 1.238
697.30 1.238
697.40 1.238
697.50 1.238
697.60 1.238
697.70 1.238
697.80 1.237
697.90 1.237
698.00 1.237
698.10 1.237
698.20 1.237
698.30 1.237
698.40 1.237
698.50 1.236
698.60 1.236
698.70 1.236
698.80 1.236
698.90 1.236
699.00 1.236
699.10 1.236
699.20 1.235
699.30 1.235
699.40 1.235
699.50 1.235
699.60 1.235
699.70 1.235
699.80 1.234
699.90 1.234
700.00 1.234
700.10 1.234
700.20 1.234
700.30 1.234
700.40 1.233
700.50 1.233
700.60 1.233
700.70 1.233
700.80 1.233
700.90 1.233
701.00 1.232
701.10 1.232
701.20 1.232
701.30 1.232
701.40 1.232
701.50 1.231
701.60 1.231
701.70 1.231
701.80 1.231
701.90 1.231
702.00 1.231
702.10 1.23
702.20 1.23
702.30 1.23
702.40 1.23
702.50 1.23
702.60 1.23
702.70 1.229
702.80 1.229
702.90 1.229
703.00 1.229
703.10 1.229
703.20 1.228
703.30 1.228
703.40 1.228
703.50 1.228
703.60 1.228
703.70 1.228
703.80 1.227
703.90 1.227
704.00 1.227
704.10 1.227
704.20 1.227
704.30 1.226
704.40 1.226
704.50 1.226
704.60 1.226
704.70 1.226
704.80 1.226
704.90 1.225
705.00 1.225
705.10 1.225
705.20 1.225
705.30 1.225
705.40 1.224
705.50 1.224
705.60 1.224
705.70 1.224
705.80 1.224
705.90 1.223
706.00 1.223
706.10 1.223
706.20 1.223
706.30 1.223
706.40 1.222
706.50 1.222
706.60 1.222
706.70 1.222
706.80 1.222
706.90 1.221
707.00 1.221
707.10 1.221
707.20 1.221
707.30 1.221
707.40 1.22
707.50 1.22
707.60 1.22
707.70 1.22
707.80 1.22
707.90 1.219
708.00 1.219
708.10 1.219
708.20 1.219
708.30 1.219
708.40 1.218
708.50 1.218
708.60 1.218
708.70 1.218
708.80 1.218
708.90 1.218
709.00 1.217
709.10 1.217
709.20 1.217
709.30 1.217
709.40 1.217
709.50 1.216
709.60 1.216
709.70 1.216
709.80 1.216
709.90 1.216
710.00 1.215
710.10 1.215
710.20 1.215
710.30 1.215
710.40 1.214
710.50 1.214
710.60 1.214
710.70 1.214
710.80 1.214
710.90 1.213
711.00 1.213
711.10 1.213
711.20 1.213
711.30 1.212
711.40 1.212
711.50 1.212
711.60 1.212
711.70 1.212
711.80 1.211
711.90 1.211
712.00 1.211
712.10 1.211
712.20 1.21
712.30 1.21
712.40 1.21
712.50 1.21
712.60 1.21
712.70 1.209
712.80 1.209
712.90 1.209
713.00 1.209
713.10 1.209
713.20 1.208
713.30 1.208
713.40 1.208
713.50 1.208
713.60 1.207
713.70 1.207
713.80 1.207
713.90 1.207
714.00 1.207
714.10 1.206
714.20 1.206
714.30 1.206
714.40 1.206
714.50 1.205
714.60 1.205
714.70 1.205
714.80 1.205
714.90 1.205
715.00 1.204
715.10 1.204
715.20 1.204
715.30 1.204
715.40 1.203
715.50 1.203
715.60 1.203
715.70 1.203
715.80 1.202
715.90 1.202
716.00 1.202
716.10 1.202
716.20 1.201
716.30 1.201
716.40 1.201
716.50 1.201
716.60 1.201
716.70 1.2
716.80 1.2
716.90 1.2
717.00 1.2
717.10 1.199
717.20 1.199
717.30 1.199
717.40 1.199
717.50 1.198
717.60 1.198
717.70 1.198
717.80 1.198
717.90 1.197
718.00 1.197
718.10 1.197
718.20 1.197
718.30 1.197
718.40 1.196
718.50 1.196
718.60 1.196
718.70 1.196
718.80 1.195
718.90 1.195
719.00 1.195
719.10 1.195
719.20 1.194
719.30 1.194
719.40 1.194
719.50 1.194
719.60 1.193
719.70 1.193
719.80 1.193
719.90 1.193
720.00 1.192
720.10 1.192
720.20 1.192
720.30 1.192
720.40 1.192
720.50 1.191
720.60 1.191
720.70 1.191
720.80 1.191
720.90 1.19
721.00 1.19
721.10 1.19
721.20 1.19
721.30 1.189
721.40 1.189
721.50 1.189
721.60 1.189
721.70 1.188
721.80 1.188
721.90 1.188
722.00 1.188
722.10 1.187
722.20 1.187
722.30 1.187
722.40 1.187
722.50 1.186
722.60 1.186
722.70 1.186
722.80 1.186
722.90 1.185
723.00 1.185
723.10 1.185
723.20 1.185
723.30 1.184
723.40 1.184
723.50 1.184
723.60 1.184
723.70 1.183
723.80 1.183
723.90 1.183
724.00 1.183
724.10 1.182
724.20 1.182
724.30 1.182
724.40 1.182
724.50 1.181
724.60 1.181
724.70 1.181
724.80 1.181
724.90 1.18
725.00 1.18
725.10 1.18
725.20 1.18
725.30 1.179
725.40 1.179
725.50 1.179
725.60 1.179
725.70 1.178
725.80 1.178
725.90 1.178
726.00 1.178
726.10 1.177
726.20 1.177
726.30 1.177
726.40 1.177
726.50 1.176
726.60 1.176
726.70 1.176
726.80 1.176
726.90 1.175
727.00 1.175
727.10 1.175
727.20 1.175
727.30 1.174
727.40 1.174
727.50 1.174
727.60 1.174
727.70 1.173
727.80 1.173
727.90 1.173
728.00 1.173
728.10 1.172
728.20 1.172
728.30 1.172
728.40 1.172
728.50 1.171
728.60 1.171
728.70 1.171
728.80 1.171
728.90 1.17
729.00 1.17
729.10 1.17
729.20 1.17
729.30 1.169
729.40 1.169
729.50 1.169
729.60 1.169
729.70 1.168
729.80 1.168
729.90 1.168
730.00 1.168
730.10 1.168
730.20 1.167
730.30 1.167
730.40 1.167
730.50 1.167
730.60 1.166
730.70 1.166
730.80 1.166
730.90 1.166
731.00 1.165
731.10 1.165
731.20 1.165
731.30 1.165
731.40 1.164
731.50 1.164
731.60 1.164
731.70 1.164
731.80 1.163
731.90 1.163
732.00 1.163
732.10 1.163
732.20 1.162
732.30 1.162
732.40 1.162
732.50 1.162
732.60 1.161
732.70 1.161
732.80 1.161
732.90 1.161
733.00 1.161
733.10 1.16
733.20 1.16
733.30 1.16
733.40 1.16
733.50 1.159
733.60 1.159
733.70 1.159
733.80 1.159
733.90 1.158
734.00 1.158
734.10 1.158
734.20 1.158
734.30 1.157
734.40 1.157
734.50 1.157
734.60 1.157
734.70 1.156
734.80 1.156
734.90 1.156
735.00 1.156
735.10 1.155
735.20 1.155
735.30 1.155
735.40 1.155
735.50 1.155
735.60 1.154
735.70 1.154
735.80 1.154
735.90 1.154
736.00 1.153
736.10 1.153
736.20 1.153
736.30 1.153
736.40 1.152
736.50 1.152
736.60 1.152
736.70 1.152
736.80 1.151
736.90 1.151
737.00 1.151
737.10 1.151
737.20 1.15
737.30 1.15
737.40 1.15
737.50 1.15
737.60 1.15
737.70 1.149
737.80 1.149
737.90 1.149
738.00 1.149
738.10 1.148
738.20 1.148
738.30 1.148
738.40 1.148
738.50 1.147
738.60 1.147
738.70 1.147
738.80 1.147
738.90 1.146
739.00 1.146
739.10 1.146
739.20 1.146
739.30 1.146
739.40 1.145
739.50 1.145
739.60 1.145
739.70 1.145
739.80 1.144
739.90 1.144
740.00 1.144
740.10 1.144
740.20 1.143
740.30 1.143
740.40 1.143
740.50 1.143
740.60 1.143
740.70 1.142
740.80 1.142
740.90 1.142
741.00 1.142
741.10 1.142
741.20 1.141
741.30 1.141
741.40 1.141
741.50 1.141
741.60 1.14
741.70 1.14
741.80 1.14
741.90 1.14
742.00 1.14
742.10 1.139
742.20 1.139
742.30 1.139
742.40 1.139
742.50 1.139
742.60 1.138
742.70 1.138
742.80 1.138
742.90 1.138
743.00 1.137
743.10 1.137
743.20 1.137
743.30 1.137
743.40 1.137
743.50 1.136
743.60 1.136
743.70 1.136
743.80 1.136
743.90 1.136
744.00 1.135
744.10 1.135
744.20 1.135
744.30 1.135
744.40 1.134
744.50 1.134
744.60 1.134
744.70 1.134
744.80 1.134
744.90 1.133
745.00 1.133
745.10 1.133
745.20 1.133
745.30 1.133
745.40 1.132
745.50 1.132
745.60 1.132
745.70 1.132
745.80 1.132
745.90 1.131
746.00 1.131
746.10 1.131
746.20 1.131
746.30 1.13
746.40 1.13
746.50 1.13
746.60 1.13
746.70 1.13
746.80 1.129
746.90 1.129
747.00 1.129
747.10 1.129
747.20 1.129
747.30 1.128
747.40 1.128
747.50 1.128
747.60 1.128
747.70 1.128
747.80 1.127
747.90 1.127
748.00 1.127
748.10 1.127
748.20 1.126
748.30 1.126
748.40 1.126
748.50 1.126
748.60 1.126
748.70 1.125
748.80 1.125
748.90 1.125
749.00 1.125
749.10 1.125
749.20 1.124
749.30 1.124
749.40 1.124
749.50 1.124
749.60 1.124
749.70 1.123
749.80 1.123
749.90 1.123
750.00 1.123
750.10 1.123
750.20 1.122
750.30 1.122
750.40 1.122
750.50 1.122
750.60 1.122
750.70 1.121
750.80 1.121
750.90 1.121
751.00 1.121
751.10 1.121
751.20 1.12
751.30 1.12
751.40 1.12
751.50 1.12
751.60 1.12
751.70 1.119
751.80 1.119
751.90 1.119
752.00 1.119
752.10 1.119
752.20 1.118
752.30 1.118
752.40 1.118
752.50 1.118
752.60 1.118
752.70 1.118
752.80 1.117
752.90 1.117
753.00 1.117
753.10 1.117
753.20 1.117
753.30 1.116
753.40 1.116
753.50 1.116
753.60 1.116
753.70 1.116
753.80 1.115
753.90 1.115
754.00 1.115
754.10 1.115
754.20 1.115
754.30 1.114
754.40 1.114
754.50 1.114
754.60 1.114
754.70 1.114
754.80 1.114
754.90 1.113
755.00 1.113
755.10 1.113
755.20 1.113
755.30 1.113
755.40 1.112
755.50 1.112
755.60 1.112
755.70 1.112
755.80 1.112
755.90 1.111
756.00 1.111
756.10 1.111
756.20 1.111
756.30 1.111
756.40 1.111
756.50 1.11
756.60 1.11
756.70 1.11
756.80 1.11
756.90 1.11
757.00 1.109
757.10 1.109
757.20 1.109
757.30 1.109
757.40 1.109
757.50 1.108
757.60 1.108
757.70 1.108
757.80 1.108
757.90 1.108
758.00 1.107
758.10 1.107
758.20 1.107
758.30 1.107
758.40 1.107
758.50 1.107
758.60 1.106
758.70 1.106
758.80 1.106
758.90 1.106
759.00 1.106
759.10 1.105
759.20 1.105
759.30 1.105
759.40 1.105
759.50 1.105
759.60 1.104
759.70 1.104
759.80 1.104
759.90 1.104
760.00 1.104
760.10 1.104
760.20 1.103
760.30 1.103
760.40 1.103
760.50 1.103
760.60 1.103
760.70 1.102
760.80 1.102
760.90 1.102
761.00 1.102
761.10 1.102
761.20 1.102
761.30 1.101
761.40 1.101
761.50 1.101
761.60 1.101
761.70 1.101
761.80 1.101
761.90 1.1
762.00 1.1
762.10 1.1
762.20 1.1
762.30 1.1
762.40 1.1
762.50 1.099
762.60 1.099
762.70 1.099
762.80 1.099
762.90 1.099
763.00 1.098
763.10 1.098
763.20 1.098
763.30 1.098
763.40 1.098
763.50 1.098
763.60 1.097
763.70 1.097
763.80 1.097
763.90 1.097
764.00 1.097
764.10 1.097
764.20 1.096
764.30 1.096
764.40 1.096
764.50 1.096
764.60 1.096
764.70 1.095
764.80 1.095
764.90 1.095
765.00 1.095
765.10 1.095
765.20 1.095
765.30 1.094
765.40 1.094
765.50 1.094
765.60 1.094
765.70 1.094
765.80 1.094
765.90 1.093
766.00 1.093
766.10 1.093
766.20 1.093
766.30 1.093
766.40 1.093
766.50 1.092
766.60 1.092
766.70 1.092
766.80 1.092
766.90 1.092
767.00 1.091
767.10 1.091
767.20 1.091
767.30 1.091
767.40 1.091
767.50 1.091
767.60 1.09
767.70 1.09
767.80 1.09
767.90 1.09
768.00 1.09
768.10 1.09
768.20 1.089
768.30 1.089
768.40 1.089
768.50 1.089
768.60 1.089
768.70 1.089
768.80 1.088
768.90 1.088
769.00 1.088
769.10 1.088
769.20 1.088
769.30 1.088
769.40 1.087
769.50 1.087
769.60 1.087
769.70 1.087
769.80 1.087
769.90 1.086
770.00 1.086
770.10 1.086
770.20 1.086
770.30 1.086
770.40 1.086
770.50 1.086
770.60 1.085
770.70 1.085
770.80 1.085
770.90 1.085
771.00 1.085
771.10 1.085
771.20 1.084
771.30 1.084
771.40 1.084
771.50 1.084
771.60 1.084
771.70 1.084
771.80 1.084
771.90 1.083
772.00 1.083
772.10 1.083
772.20 1.083
772.30 1.083
772.40 1.083
772.50 1.082
772.60 1.082
772.70 1.082
772.80 1.082
772.90 1.082
773.00 1.082
773.10 1.082
773.20 1.081
773.30 1.081
773.40 1.081
773.50 1.081
773.60 1.081
773.70 1.081
773.80 1.08
773.90 1.08
774.00 1.08
774.10 1.08
774.20 1.08
774.30 1.08
774.40 1.08
774.50 1.079
774.60 1.079
774.70 1.079
774.80 1.079
774.90 1.079
775.00 1.079
775.10 1.078
775.20 1.078
775.30 1.078
775.40 1.078
775.50 1.078
775.60 1.078
775.70 1.078
775.80 1.077
775.90 1.077
776.00 1.077
776.10 1.077
776.20 1.077
776.30 1.077
776.40 1.077
776.50 1.076
776.60 1.076
776.70 1.076
776.80 1.076
776.90 1.076
777.00 1.076
777.10 1.075
777.20 1.075
777.30 1.075
777.40 1.075
777.50 1.075
777.60 1.075
777.70 1.075
777.80 1.074
777.90 1.074
778.00 1.074
778.10 1.074
778.20 1.074
778.30 1.074
778.40 1.073
778.50 1.073
778.60 1.073
778.70 1.073
778.80 1.073
778.90 1.073
779.00 1.073
779.10 1.072
779.20 1.072
779.30 1.072
779.40 1.072
779.50 1.072
779.60 1.072
779.70 1.072
779.80 1.071
779.90 1.071
780.00 1.071
780.10 1.071
780.20 1.071
780.30 1.071
780.40 1.071
780.50 1.07
780.60 1.07
780.70 1.07
780.80 1.07
780.90 1.07
781.00 1.07
781.10 1.07
781.20 1.069
781.30 1.069
781.40 1.069
781.50 1.069
781.60 1.069
781.70 1.069
781.80 1.069
781.90 1.069
782.00 1.068
782.10 1.068
782.20 1.068
782.30 1.068
782.40 1.068
782.50 1.068
782.60 1.068
782.70 1.068
782.80 1.067
782.90 1.067
783.00 1.067
783.10 1.067
783.20 1.067
783.30 1.067
783.40 1.067
783.50 1.066
783.60 1.066
783.70 1.066
783.80 1.066
783.90 1.066
784.00 1.066
784.10 1.066
784.20 1.066
784.30 1.065
784.40 1.065
784.50 1.065
784.60 1.065
784.70 1.065
784.80 1.065
784.90 1.065
785.00 1.065
785.10 1.064
785.20 1.064
785.30 1.064
785.40 1.064
785.50 1.064
785.60 1.064
785.70 1.064
785.80 1.064
785.90 1.063
786.00 1.063
786.10 1.063
786.20 1.063
786.30 1.063
786.40 1.063
786.50 1.063
786.60 1.062
786.70 1.062
786.80 1.062
786.90 1.062
787.00 1.062
787.10 1.062
787.20 1.062
787.30 1.062
787.40 1.061
787.50 1.061
787.60 1.061
787.70 1.061
787.80 1.061
787.90 1.061
788.00 1.061
788.10 1.061
788.20 1.06
788.30 1.06
788.40 1.06
788.50 1.06
788.60 1.06
788.70 1.06
788.80 1.06
788.90 1.06
789.00 1.059
789.10 1.059
789.20 1.059
789.30 1.059
789.40 1.059
789.50 1.059
789.60 1.059
789.70 1.058
789.80 1.058
789.90 1.058
790.00 1.058
790.10 1.058
790.20 1.058
790.30 1.058
790.40 1.058
790.50 1.057
790.60 1.057
790.70 1.057
790.80 1.057
790.90 1.057
791.00 1.057
791.10 1.057
791.20 1.057
791.30 1.056
791.40 1.056
791.50 1.056
791.60 1.056
791.70 1.056
791.80 1.056
791.90 1.056
792.00 1.056
792.10 1.055
792.20 1.055
792.30 1.055
792.40 1.055
792.50 1.055
792.60 1.055
792.70 1.055
792.80 1.055
792.90 1.054
793.00 1.054
793.10 1.054
793.20 1.054
793.30 1.054
793.40 1.054
793.50 1.054
793.60 1.054
793.70 1.053
793.80 1.053
793.90 1.053
794.00 1.053
794.10 1.053
794.20 1.053
794.30 1.053
794.40 1.052
794.50 1.052
794.60 1.052
794.70 1.052
794.80 1.052
794.90 1.052
795.00 1.052
795.10 1.052
795.20 1.051
795.30 1.051
795.40 1.051
795.50 1.051
795.60 1.051
795.70 1.051
795.80 1.051
795.90 1.051
796.00 1.05
796.10 1.05
796.20 1.05
796.30 1.05
796.40 1.05
796.50 1.05
796.60 1.05
796.70 1.05
796.80 1.049
796.90 1.049
797.00 1.049
797.10 1.049
797.20 1.049
797.30 1.049
797.40 1.049
797.50 1.049
797.60 1.048
797.70 1.048
797.80 1.048
797.90 1.048
798.00 1.048
798.10 1.048
798.20 1.048
798.30 1.048
798.40 1.047
798.50 1.047
798.60 1.047
798.70 1.047
798.80 1.047
798.90 1.047
799.00 1.047
799.10 1.047
799.20 1.046
799.30 1.046
799.40 1.046
799.50 1.046
799.60 1.046
799.70 1.046
799.80 1.046
799.90 1.046
800.00 1.045
800.10 1.045
800.20 1.045
800.30 1.045
800.40 1.045
800.50 1.045
800.60 1.045
800.70 1.044
800.80 1.044
800.90 1.044
801.00 1.044
801.10 1.044
801.20 1.044
801.30 1.043
801.40 1.043
801.50 1.043
801.60 1.043
801.70 1.043
801.80 1.043
801.90 1.043
802.00 1.042
802.10 1.042
802.20 1.042
802.30 1.042
802.40 1.042
802.50 1.042
802.60 1.041
802.70 1.041
802.80 1.041
802.90 1.041
803.00 1.041
803.10 1.041
803.20 1.041
803.30 1.04
803.40 1.04
803.50 1.04
803.60 1.04
803.70 1.04
803.80 1.04
803.90 1.039
804.00 1.039
804.10 1.039
804.20 1.039
804.30 1.039
804.40 1.039
804.50 1.039
804.60 1.038
804.70 1.038
804.80 1.038
804.90 1.038
805.00 1.038
805.10 1.038
805.20 1.038
805.30 1.037
805.40 1.037
805.50 1.037
805.60 1.037
805.70 1.037
805.80 1.037
805.90 1.036
806.00 1.036
806.10 1.036
806.20 1.036
806.30 1.036
806.40 1.036
806.50 1.036
806.60 1.035
806.70 1.035
806.80 1.035
806.90 1.035
807.00 1.035
807.10 1.035
807.20 1.035
807.30 1.034
807.40 1.034
807.50 1.034
807.60 1.034
807.70 1.034
807.80 1.034
807.90 1.033
808.00 1.033
808.10 1.033
808.20 1.033
808.30 1.033
808.40 1.033
808.50 1.033
808.60 1.032
808.70 1.032
808.80 1.032
808.90 1.032
809.00 1.032
809.10 1.032
809.20 1.032
809.30 1.031
809.40 1.031
809.50 1.031
809.60 1.031
809.70 1.031
809.80 1.031
809.90 1.03
810.00 1.03
810.10 1.03
810.20 1.03
810.30 1.03
810.40 1.03
810.50 1.029
810.60 1.029
810.70 1.029
810.80 1.029
810.90 1.029
811.00 1.028
811.10 1.028
811.20 1.028
811.30 1.028
811.40 1.028
811.50 1.028
811.60 1.027
811.70 1.027
811.80 1.027
811.90 1.027
812.00 1.027
812.10 1.026
812.20 1.026
812.30 1.026
812.40 1.026
812.50 1.026
812.60 1.026
812.70 1.025
812.80 1.025
812.90 1.025
813.00 1.025
813.10 1.025
813.20 1.024
813.30 1.024
813.40 1.024
813.50 1.024
813.60 1.024
813.70 1.024
813.80 1.023
813.90 1.023
814.00 1.023
814.10 1.023
814.20 1.023
814.30 1.022
814.40 1.022
814.50 1.022
814.60 1.022
814.70 1.022
814.80 1.022
814.90 1.021
815.00 1.021
815.10 1.021
815.20 1.021
815.30 1.021
815.40 1.02
815.50 1.02
815.60 1.02
815.70 1.02
815.80 1.02
815.90 1.02
816.00 1.019
816.10 1.019
816.20 1.019
816.30 1.019
816.40 1.019
816.50 1.018
816.60 1.018
816.70 1.018
816.80 1.018
816.90 1.018
817.00 1.018
817.10 1.017
817.20 1.017
817.30 1.017
817.40 1.017
817.50 1.017
817.60 1.016
817.70 1.016
817.80 1.016
817.90 1.016
818.00 1.016
818.10 1.016
818.20 1.015
818.30 1.015
818.40 1.015
818.50 1.015
818.60 1.015
818.70 1.014
818.80 1.014
818.90 1.014
819.00 1.014
819.10 1.014
819.20 1.014
819.30 1.013
819.40 1.013
819.50 1.013
819.60 1.013
819.70 1.013
819.80 1.012
819.90 1.012
820.00 1.012
820.10 1.012
820.20 1.012
820.30 1.012
820.40 1.011
820.50 1.011
820.60 1.011
820.70 1.011
820.80 1.011
820.90 1.01
821.00 1.01
821.10 1.01
821.20 1.01
821.30 1.01
821.40 1.009
821.50 1.009
821.60 1.009
821.70 1.009
821.80 1.009
821.90 1.008
822.00 1.008
822.10 1.008
822.20 1.008
822.30 1.008
822.40 1.007
822.50 1.007
822.60 1.007
822.70 1.007
822.80 1.007
822.90 1.006
823.00 1.006
823.10 1.006
823.20 1.006
823.30 1.006
823.40 1.005
823.50 1.005
823.60 1.005
823.70 1.005
823.80 1.005
823.90 1.004
824.00 1.004
824.10 1.004
824.20 1.004
824.30 1.004
824.40 1.003
824.50 1.003
824.60 1.003
824.70 1.003
824.80 1.002
824.90 1.002
825.00 1.002
825.10 1.002
825.20 1.002
825.30 1.001
825.40 1.001
825.50 1.001
825.60 1.001
825.70 1.001
825.80 1
825.90 1
826.00 1
826.10 0.9999
826.20 0.9997
826.30 0.9994
826.40 0.9992
826.50 0.999
826.60 0.9988
826.70 0.9986
826.80 0.9984
826.90 0.9982
827.00 0.998
827.10 0.9978
827.20 0.9976
827.30 0.9974
827.40 0.9972
827.50 0.997
827.60 0.9967
827.70 0.9965
827.80 0.9963
827.90 0.9961
828.00 0.9959
828.10 0.9957
828.20 0.9955
828.30 0.9953
828.40 0.995
828.50 0.9948
828.60 0.9946
828.70 0.9944
828.80 0.9942
828.90 0.994
829.00 0.9938
829.10 0.9935
829.20 0.9933
829.30 0.9931
829.40 0.9929
829.50 0.9927
829.60 0.9925
829.70 0.9923
829.80 0.9921
829.90 0.9918
830.00 0.9916
830.10 0.9914
830.20 0.9912
830.30 0.991
830.40 0.9908
830.50 0.9906
830.60 0.9904
830.70 0.9901
830.80 0.9899
830.90 0.9897
831.00 0.9895
831.10 0.9893
831.20 0.9891
831.30 0.9889
831.40 0.9887
831.50 0.9885
831.60 0.9882
831.70 0.988
831.80 0.9878
831.90 0.9876
832.00 0.9874
832.10 0.9872
832.20 0.987
832.30 0.9867
832.40 0.9865
832.50 0.9863
832.60 0.9861
832.70 0.9859
832.80 0.9856
832.90 0.9854
833.00 0.9852
833.10 0.985
833.20 0.9847
833.30 0.9845
833.40 0.9843
833.50 0.9841
833.60 0.9839
833.70 0.9836
833.80 0.9834
833.90 0.9832
834.00 0.983
834.10 0.9828
834.20 0.9825
834.30 0.9823
834.40 0.9821
834.50 0.9819
834.60 0.9817
834.70 0.9814
834.80 0.9812
834.90 0.981
835.00 0.9808
835.10 0.9806
835.20 0.9804
835.30 0.9801
835.40 0.9799
835.50 0.9797
835.60 0.9795
835.70 0.9793
835.80 0.979
835.90 0.9788
836.00 0.9786
836.10 0.9784
836.20 0.9782
836.30 0.9779
836.40 0.9777
836.50 0.9775
836.60 0.9773
836.70 0.9771
836.80 0.9769
836.90 0.9766
837.00 0.9764
837.10 0.9762
837.20 0.976
837.30 0.9757
837.40 0.9755
837.50 0.9753
837.60 0.975
837.70 0.9748
837.80 0.9746
837.90 0.9744
838.00 0.9741
838.10 0.9739
838.20 0.9737
838.30 0.9735
838.40 0.9732
838.50 0.973
838.60 0.9728
838.70 0.9725
838.80 0.9723
838.90 0.9721
839.00 0.9719
839.10 0.9716
839.20 0.9714
839.30 0.9712
839.40 0.9709
839.50 0.9707
839.60 0.9705
839.70 0.9703
839.80 0.97
839.90 0.9698
840.00 0.9696
840.10 0.9694
840.20 0.9691
840.30 0.9689
840.40 0.9687
840.50 0.9685
840.60 0.9682
840.70 0.968
840.80 0.9678
840.90 0.9675
841.00 0.9673
841.10 0.9671
841.20 0.9669
841.30 0.9666
841.40 0.9664
841.50 0.9662
841.60 0.966
841.70 0.9657
841.80 0.9655
841.90 0.9653
842.00 0.9651
842.10 0.9648
842.20 0.9646
842.30 0.9644
842.40 0.9641
842.50 0.9639
842.60 0.9637
842.70 0.9634
842.80 0.9632
842.90 0.9629
843.00 0.9627
843.10 0.9625
843.20 0.9622
843.30 0.962
843.40 0.9618
843.50 0.9615
843.60 0.9613
843.70 0.9611
843.80 0.9608
843.90 0.9606
844.00 0.9604
844.10 0.9601
844.20 0.9599
844.30 0.9597
844.40 0.9594
844.50 0.9592
844.60 0.9589
844.70 0.9587
844.80 0.9585
844.90 0.9582
845.00 0.958
845.10 0.9578
845.20 0.9575
845.30 0.9573
845.40 0.9571
845.50 0.9568
845.60 0.9566
845.70 0.9564
845.80 0.9561
845.90 0.9559
846.00 0.9557
846.10 0.9554
846.20 0.9552
846.30 0.955
846.40 0.9547
846.50 0.9545
846.60 0.9543
846.70 0.954
846.80 0.9538
846.90 0.9536
847.00 0.9533
847.10 0.9531
847.20 0.9529
847.30 0.9526
847.40 0.9524
847.50 0.9522
847.60 0.9519
847.70 0.9517
847.80 0.9514
847.90 0.9512
848.00 0.951
848.10 0.9507
848.20 0.9505
848.30 0.9502
848.40 0.95
848.50 0.9498
848.60 0.9495
848.70 0.9493
848.80 0.9491
848.90 0.9488
849.00 0.9486
849.10 0.9483
849.20 0.9481
849.30 0.9479
849.40 0.9476
849.50 0.9474
849.60 0.9472
849.70 0.9469
849.80 0.9467
849.90 0.9464
850.00 0.9462
850.10 0.946
850.20 0.9457
850.30 0.9455
850.40 0.9453
850.50 0.945
850.60 0.9448
850.70 0.9446
850.80 0.9443
850.90 0.9441
851.00 0.9438
851.10 0.9436
851.20 0.9434
851.30 0.9431
851.40 0.9429
851.50 0.9427
851.60 0.9424
851.70 0.9422
851.80 0.942
851.90 0.9417
852.00 0.9415
852.10 0.9412
852.20 0.941
852.30 0.9407
852.40 0.9405
852.50 0.9403
852.60 0.94
852.70 0.9398
852.80 0.9395
852.90 0.9393
853.00 0.939
853.10 0.9388
853.20 0.9385
853.30 0.9383
853.40 0.938
853.50 0.9378
853.60 0.9376
853.70 0.9373
853.80 0.9371
853.90 0.9368
854.00 0.9366
854.10 0.9363
854.20 0.9361
854.30 0.9358
854.40 0.9356
854.50 0.9354
854.60 0.9351
854.70 0.9349
854.80 0.9346
854.90 0.9344
855.00 0.9341
855.10 0.9339
855.20 0.9337
855.30 0.9334
855.40 0.9332
855.50 0.9329
855.60 0.9327
855.70 0.9324
855.80 0.9322
855.90 0.9319
856.00 0.9317
856.10 0.9315
856.20 0.9312
856.30 0.931
856.40 0.9307
856.50 0.9305
856.60 0.9303
856.70 0.93
856.80 0.9298
856.90 0.9295
857.00 0.9293
857.10 0.929
857.20 0.9288
857.30 0.9285
857.40 0.9283
857.50 0.928
857.60 0.9278
857.70 0.9275
857.80 0.9273
857.90 0.927
858.00 0.9268
858.10 0.9265
858.20 0.9262
858.30 0.926
858.40 0.9257
858.50 0.9255
858.60 0.9252
858.70 0.925
858.80 0.9247
858.90 0.9245
859.00 0.9242
859.10 0.924
859.20 0.9237
859.30 0.9235
859.40 0.9232
859.50 0.923
859.60 0.9227
859.70 0.9225
859.80 0.9222
859.90 0.922
860.00 0.9217
860.10 0.9215
860.20 0.9212
860.30 0.921
860.40 0.9207
860.50 0.9205
860.60 0.9202
860.70 0.92
860.80 0.9197
860.90 0.9195
861.00 0.9192
861.10 0.919
861.20 0.9187
861.30 0.9185
861.40 0.9182
861.50 0.918
861.60 0.9177
861.70 0.9175
861.80 0.9172
861.90 0.917
862.00 0.9167
862.10 0.9164
862.20 0.9162
862.30 0.9159
862.40 0.9157
862.50 0.9154
862.60 0.9152
862.70 0.9149
862.80 0.9146
862.90 0.9144
863.00 0.9141
863.10 0.9139
863.20 0.9136
863.30 0.9133
863.40 0.9131
863.50 0.9128
863.60 0.9126
863.70 0.9123
863.80 0.9121
863.90 0.9118
864.00 0.9115
864.10 0.9113
864.20 0.911
864.30 0.9108
864.40 0.9105
864.50 0.9103
864.60 0.91
864.70 0.9097
864.80 0.9095
864.90 0.9092
865.00 0.909
865.10 0.9087
865.20 0.9085
865.30 0.9082
865.40 0.908
865.50 0.9077
865.60 0.9074
865.70 0.9072
865.80 0.9069
865.90 0.9067
866.00 0.9064
866.10 0.9062
866.20 0.9059
866.30 0.9057
866.40 0.9054
866.50 0.9051
866.60 0.9049
866.70 0.9046
866.80 0.9044
866.90 0.9041
867.00 0.9039
867.10 0.9036
867.20 0.9033
867.30 0.9031
867.40 0.9028
867.50 0.9025
867.60 0.9023
867.70 0.902
867.80 0.9017
867.90 0.9015
868.00 0.9012
868.10 0.9009
868.20 0.9007
868.30 0.9004
868.40 0.9001
868.50 0.8998
868.60 0.8996
868.70 0.8993
868.80 0.899
868.90 0.8988
869.00 0.8985
869.10 0.8982
869.20 0.898
869.30 0.8977
869.40 0.8974
869.50 0.8972
869.60 0.8969
869.70 0.8966
869.80 0.8964
869.90 0.8961
870.00 0.8958
870.10 0.8956
870.20 0.8953
870.30 0.895
870.40 0.8948
870.50 0.8945
870.60 0.8943
870.70 0.894
870.80 0.8937
870.90 0.8935
871.00 0.8932
871.10 0.8929
871.20 0.8927
871.30 0.8924
871.40 0.8921
871.50 0.8919
871.60 0.8916
871.70 0.8913
871.80 0.8911
871.90 0.8908
872.00 0.8905
872.10 0.8903
872.20 0.89
872.30 0.8897
872.40 0.8894
872.50 0.8892
872.60 0.8889
872.70 0.8886
872.80 0.8883
872.90 0.888
873.00 0.8878
873.10 0.8875
873.20 0.8872
873.30 0.8869
873.40 0.8866
873.50 0.8864
873.60 0.8861
873.70 0.8858
873.80 0.8855
873.90 0.8853
874.00 0.885
874.10 0.8847
874.20 0.8844
874.30 0.8841
874.40 0.8839
874.50 0.8836
874.60 0.8833
874.70 0.883
874.80 0.8828
874.90 0.8825
875.00 0.8822
875.10 0.8819
875.20 0.8817
875.30 0.8814
875.40 0.8811
875.50 0.8808
875.60 0.8806
875.70 0.8803
875.80 0.88
875.90 0.8797
876.00 0.8795
876.10 0.8792
876.20 0.8789
876.30 0.8786
876.40 0.8783
876.50 0.8781
876.60 0.8778
876.70 0.8775
876.80 0.8773
876.90 0.877
877.00 0.8767
877.10 0.8764
877.20 0.8761
877.30 0.8758
877.40 0.8755
877.50 0.8752
877.60 0.875
877.70 0.8747
877.80 0.8744
877.90 0.8741
878.00 0.8738
878.10 0.8735
878.20 0.8732
878.30 0.8729
878.40 0.8726
878.50 0.8723
878.60 0.8721
878.70 0.8718
878.80 0.8715
878.90 0.8712
879.00 0.8709
879.10 0.8706
879.20 0.8703
879.30 0.87
879.40 0.8697
879.50 0.8694
879.60 0.8692
879.70 0.8689
879.80 0.8686
879.90 0.8683
880.00 0.868
880.10 0.8677
880.20 0.8674
880.30 0.8671
880.40 0.8669
880.50 0.8666
880.60 0.8663
880.70 0.866
880.80 0.8657
880.90 0.8654
881.00 0.8651
881.10 0.8648
881.20 0.8646
881.30 0.8643
881.40 0.864
881.50 0.8637
881.60 0.8634
881.70 0.8631
881.80 0.8628
881.90 0.8626
882.00 0.8623
882.10 0.862
882.20 0.8616
882.30 0.8613
882.40 0.861
882.50 0.8607
882.60 0.8604
882.70 0.8601
882.80 0.8598
882.90 0.8595
883.00 0.8592
883.10 0.8589
883.20 0.8586
883.30 0.8583
883.40 0.858
883.50 0.8577
883.60 0.8574
883.70 0.8571
883.80 0.8567
883.90 0.8564
884.00 0.8561
884.10 0.8558
884.20 0.8555
884.30 0.8552
884.40 0.8549
884.50 0.8546
884.60 0.8543
884.70 0.854
884.80 0.8537
884.90 0.8534
885.00 0.8531
885.10 0.8528
885.20 0.8525
885.30 0.8522
885.40 0.8519
885.50 0.8516
885.60 0.8513
885.70 0.851
885.80 0.8507
885.90 0.8504
886.00 0.85
886.10 0.8497
886.20 0.8494
886.30 0.8491
886.40 0.8488
886.50 0.8485
886.60 0.8482
886.70 0.8479
886.80 0.8476
886.90 0.8473
887.00 0.847
887.10 0.8467
887.20 0.8464
887.30 0.8461
887.40 0.8457
887.50 0.8454
887.60 0.8451
887.70 0.8448
887.80 0.8444
887.90 0.8441
888.00 0.8438
888.10 0.8435
888.20 0.8432
888.30 0.8428
888.40 0.8425
888.50 0.8422
888.60 0.8419
888.70 0.8415
888.80 0.8412
888.90 0.8409
889.00 0.8406
889.10 0.8403
889.20 0.8399
889.30 0.8396
889.40 0.8393
889.50 0.839
889.60 0.8387
889.70 0.8383
889.80 0.838
889.90 0.8377
890.00 0.8374
890.10 0.8371
890.20 0.8367
890.30 0.8364
890.40 0.8361
890.50 0.8358
890.60 0.8355
890.70 0.8351
890.80 0.8348
890.90 0.8345
891.00 0.8342
891.10 0.8339
891.20 0.8336
891.30 0.8332
891.40 0.8329
891.50 0.8326
891.60 0.8323
891.70 0.832
891.80 0.8316
891.90 0.8313
892.00 0.831
892.10 0.8307
892.20 0.8304
892.30 0.8301
892.40 0.8298
892.50 0.8295
892.60 0.8292
892.70 0.8289
892.80 0.8286
892.90 0.8283
893.00 0.828
893.10 0.8278
893.20 0.8275
893.30 0.8272
893.40 0.8269
893.50 0.8266
893.60 0.8263
893.70 0.826
893.80 0.8257
893.90 0.8254
894.00 0.8251
894.10 0.8248
894.20 0.8245
894.30 0.8242
894.40 0.8239
894.50 0.8236
894.60 0.8233
894.70 0.823
894.80 0.8227
894.90 0.8224
895.00 0.8222
895.10 0.8219
895.20 0.8216
895.30 0.8213
895.40 0.821
895.50 0.8207
895.60 0.8204
895.70 0.8201
895.80 0.8198
895.90 0.8195
896.00 0.8192
896.10 0.8189
896.20 0.8186
896.30 0.8183
896.40 0.8181
896.50 0.8178
896.60 0.8175
896.70 0.8172
896.80 0.8169
896.90 0.8166
897.00 0.8163
897.10 0.8159
897.20 0.8156
897.30 0.8152
897.40 0.8149
897.50 0.8145
897.60 0.8141
897.70 0.8138
897.80 0.8134
897.90 0.8131
898.00 0.8127
898.10 0.8123
898.20 0.812
898.30 0.8116
898.40 0.8113
898.50 0.8109
898.60 0.8105
898.70 0.8102
898.80 0.8098
898.90 0.8095
899.00 0.8091
899.10 0.8088
899.20 0.8084
899.30 0.808
899.40 0.8077
899.50 0.8073
899.60 0.807
899.70 0.8066
899.80 0.8063
899.90 0.8059
900.00 0.8055
900.10 0.8052
900.20 0.8048
900.30 0.8045
900.40 0.8041
900.50 0.8038
900.60 0.8034
900.70 0.8031
900.80 0.8027
900.90 0.8023
901.00 0.802
901.10 0.8016
901.20 0.8013
901.30 0.8009
901.40 0.8006
901.50 0.8002
901.60 0.7999
901.70 0.7995
901.80 0.7992
901.90 0.7988
902.00 0.7984
902.10 0.798
902.20 0.7975
902.30 0.7971
902.40 0.7966
902.50 0.7962
902.60 0.7957
902.70 0.7952
902.80 0.7948
902.90 0.7943
903.00 0.7939
903.10 0.7934
903.20 0.793
903.30 0.7925
903.40 0.7921
903.50 0.7916
903.60 0.7911
903.70 0.7907
903.80 0.7902
903.90 0.7898
904.00 0.7893
904.10 0.7889
904.20 0.7884
904.30 0.788
904.40 0.7875
904.50 0.7871
904.60 0.7866
904.70 0.7862
904.80 0.7857
904.90 0.7853
905.00 0.7848
905.10 0.7844
905.20 0.7839
905.30 0.7834
905.40 0.783
905.50 0.7825
905.60 0.7821
905.70 0.7816
905.80 0.7812
905.90 0.7807
906.00 0.7803
906.10 0.7798
906.20 0.7794
906.30 0.7789
906.40 0.7785
906.50 0.778
906.60 0.7776
906.70 0.7771
906.80 0.7767
906.90 0.7762
907.00 0.7758
907.10 0.7754
907.20 0.775
907.30 0.7746
907.40 0.7742
907.50 0.7738
907.60 0.7734
907.70 0.773
907.80 0.7726
907.90 0.7722
908.00 0.7718
908.10 0.7714
908.20 0.7711
908.30 0.7707
908.40 0.7703
908.50 0.7699
908.60 0.7695
908.70 0.7691
908.80 0.7687
908.90 0.7683
909.00 0.7679
909.10 0.7675
909.20 0.7671
909.30 0.7667
909.40 0.7663
909.50 0.7659
909.60 0.7655
909.70 0.7651
909.80 0.7648
909.90 0.7644
910.00 0.764
910.10 0.7636
910.20 0.7632
910.30 0.7628
910.40 0.7624
910.50 0.762
910.60 0.7616
910.70 0.7612
910.80 0.7608
910.90 0.7604
911.00 0.7601
911.10 0.7597
911.20 0.7593
911.30 0.7589
911.40 0.7585
911.50 0.7581
911.60 0.7577
911.70 0.7573
911.80 0.7569
911.90 0.7566
912.00 0.7562
912.10 0.7558
912.20 0.7555
912.30 0.7551
912.40 0.7548
912.50 0.7544
912.60 0.7541
912.70 0.7537
912.80 0.7534
912.90 0.753
913.00 0.7526
913.10 0.7523
913.20 0.7519
913.30 0.7516
913.40 0.7512
913.50 0.7509
913.60 0.7505
913.70 0.7502
913.80 0.7498
913.90 0.7495
914.00 0.7492
914.10 0.7488
914.20 0.7485
914.30 0.7481
914.40 0.7478
914.50 0.7474
914.60 0.7471
914.70 0.7467
914.80 0.7464
914.90 0.746
915.00 0.7457
915.10 0.7453
915.20 0.745
915.30 0.7446
915.40 0.7443
915.50 0.7439
915.60 0.7436
915.70 0.7432
915.80 0.7429
915.90 0.7425
916.00 0.7422
916.10 0.7418
916.20 0.7415
916.30 0.7412
916.40 0.7408
916.50 0.7405
916.60 0.7401
916.70 0.7398
916.80 0.7394
916.90 0.7391
917.00 0.7387
917.10 0.7384
917.20 0.738
917.30 0.7376
917.40 0.7372
917.50 0.7368
917.60 0.7364
917.70 0.736
917.80 0.7357
917.90 0.7353
918.00 0.7349
918.10 0.7345
918.20 0.7341
918.30 0.7338
918.40 0.7334
918.50 0.733
918.60 0.7326
918.70 0.7322
918.80 0.7318
918.90 0.7315
919.00 0.7311
919.10 0.7307
919.20 0.7303
919.30 0.7299
919.40 0.7296
919.50 0.7292
919.60 0.7288
919.70 0.7284
919.80 0.728
919.90 0.7277
920.00 0.7273
920.10 0.7269
920.20 0.7265
920.30 0.7261
920.40 0.7258
920.50 0.7254
920.60 0.725
920.70 0.7246
920.80 0.7242
920.90 0.7239
921.00 0.7235
921.10 0.7231
921.20 0.7227
921.30 0.7223
921.40 0.722
921.50 0.7216
921.60 0.7212
921.70 0.7208
921.80 0.7205
921.90 0.7201
922.00 0.7197
922.10 0.7193
922.20 0.7189
922.30 0.7185
922.40 0.7181
922.50 0.7178
922.60 0.7174
922.70 0.717
922.80 0.7166
922.90 0.7162
923.00 0.7158
923.10 0.7154
923.20 0.715
923.30 0.7147
923.40 0.7143
923.50 0.7139
923.60 0.7135
923.70 0.7131
923.80 0.7127
923.90 0.7123
924.00 0.712
924.10 0.7116
924.20 0.7112
924.30 0.7108
924.40 0.7104
924.50 0.71
924.60 0.7096
924.70 0.7093
924.80 0.7089
924.90 0.7085
925.00 0.7081
925.10 0.7077
925.20 0.7073
925.30 0.7069
925.40 0.7066
925.50 0.7062
925.60 0.7058
925.70 0.7054
925.80 0.705
925.90 0.7046
926.00 0.7043
926.10 0.7039
926.20 0.7035
926.30 0.7031
926.40 0.7027
926.50 0.7023
926.60 0.702
926.70 0.7016
926.80 0.7012
926.90 0.7008
927.00 0.7004
927.10 0.7
927.20 0.6997
927.30 0.6993
927.40 0.6989
927.50 0.6985
927.60 0.6981
927.70 0.6977
927.80 0.6973
927.90 0.6969
928.00 0.6965
928.10 0.6961
928.20 0.6957
928.30 0.6954
928.40 0.695
928.50 0.6946
928.60 0.6942
928.70 0.6938
928.80 0.6934
928.90 0.693
929.00 0.6926
929.10 0.6922
929.20 0.6919
929.30 0.6915
929.40 0.6911
929.50 0.6907
929.60 0.6903
929.70 0.6899
929.80 0.6895
929.90 0.6891
930.00 0.6888
930.10 0.6884
930.20 0.688
930.30 0.6876
930.40 0.6872
930.50 0.6868
930.60 0.6864
930.70 0.686
930.80 0.6857
930.90 0.6853
931.00 0.6849
931.10 0.6845
931.20 0.6841
931.30 0.6837
931.40 0.6833
931.50 0.683
931.60 0.6826
931.70 0.6822
931.80 0.6818
931.90 0.6814
932.00 0.681
932.10 0.6806
932.20 0.6803
932.30 0.6799
932.40 0.6795
932.50 0.6791
932.60 0.6787
932.70 0.6783
932.80 0.6779
932.90 0.6775
933.00 0.6771
933.10 0.6767
933.20 0.6763
933.30 0.6759
933.40 0.6756
933.50 0.6752
933.60 0.6748
933.70 0.6744
933.80 0.674
933.90 0.6736
934.00 0.6732
934.10 0.6728
934.20 0.6724
934.30 0.6721
934.40 0.6717
934.50 0.6713
934.60 0.6709
934.70 0.6705
934.80 0.6701
934.90 0.6697
935.00 0.6693
935.10 0.6689
935.20 0.6685
935.30 0.6681
935.40 0.6677
935.50 0.6673
935.60 0.6669
935.70 0.6665
935.80 0.6662
935.90 0.6658
936.00 0.6654
936.10 0.665
936.20 0.6646
936.30 0.6642
936.40 0.6638
936.50 0.6634
936.60 0.663
936.70 0.6626
936.80 0.6622
936.90 0.6619
937.00 0.6615
937.10 0.6611
937.20 0.6607
937.30 0.6603
937.40 0.6599
937.50 0.6595
937.60 0.6591
937.70 0.6587
937.80 0.6583
937.90 0.6579
938.00 0.6576
938.10 0.6572
938.20 0.6568
938.30 0.6564
938.40 0.656
938.50 0.6556
938.60 0.6552
938.70 0.6548
938.80 0.6544
938.90 0.654
939.00 0.6536
939.10 0.6532
939.20 0.6528
939.30 0.6524
939.40 0.652
939.50 0.6516
939.60 0.6512
939.70 0.6508
939.80 0.6504
939.90 0.65
940.00 0.6496
940.10 0.6492
940.20 0.6488
940.30 0.6484
940.40 0.648
940.50 0.6476
940.60 0.6472
940.70 0.6468
940.80 0.6464
940.90 0.646
941.00 0.6457
941.10 0.6453
941.20 0.6449
941.30 0.6445
941.40 0.6441
941.50 0.6437
941.60 0.6433
941.70 0.6429
941.80 0.6425
941.90 0.6421
942.00 0.6417
942.10 0.6413
942.20 0.6409
942.30 0.6405
942.40 0.6401
942.50 0.6397
942.60 0.6394
942.70 0.639
942.80 0.6386
942.90 0.6382
943.00 0.6378
943.10 0.6374
943.20 0.637
943.30 0.6366
943.40 0.6362
943.50 0.6358
943.60 0.6354
943.70 0.635
943.80 0.6346
943.90 0.6343
944.00 0.6339
944.10 0.6335
944.20 0.6331
944.30 0.6327
944.40 0.6323
944.50 0.6319
944.60 0.6315
944.70 0.6311
944.80 0.6307
944.90 0.6303
945.00 0.6299
945.10 0.6295
945.20 0.6292
945.30 0.6288
945.40 0.6284
945.50 0.628
945.60 0.6276
945.70 0.6272
945.80 0.6268
945.90 0.6264
946.00 0.626
946.10 0.6256
946.20 0.6252
946.30 0.6249
946.40 0.6245
946.50 0.6241
946.60 0.6237
946.70 0.6233
946.80 0.6229
946.90 0.6225
947.00 0.6221
947.10 0.6217
947.20 0.6214
947.30 0.621
947.40 0.6206
947.50 0.6202
947.60 0.6198
947.70 0.6194
947.80 0.619
947.90 0.6186
948.00 0.6182
948.10 0.6178
948.20 0.6174
948.30 0.617
948.40 0.6166
948.50 0.6162
948.60 0.6158
948.70 0.6154
948.80 0.615
948.90 0.6146
949.00 0.6142
949.10 0.6138
949.20 0.6135
949.30 0.6131
949.40 0.6127
949.50 0.6123
949.60 0.6119
949.70 0.6115
949.80 0.6111
949.90 0.6107
950.00 0.6103
950.10 0.6099
950.20 0.6096
950.30 0.6092
950.40 0.6088
950.50 0.6084
950.60 0.608
950.70 0.6076
950.80 0.6072
950.90 0.6068
951.00 0.6065
951.10 0.6061
951.20 0.6057
951.30 0.6053
951.40 0.6049
951.50 0.6045
951.60 0.6041
951.70 0.6037
951.80 0.6034
951.90 0.603
952.00 0.6026
952.10 0.6022
952.20 0.6018
952.30 0.6014
952.40 0.601
952.50 0.6007
952.60 0.6003
952.70 0.5999
952.80 0.5995
952.90 0.5991
953.00 0.5987
953.10 0.5984
953.20 0.598
953.30 0.5976
953.40 0.5972
953.50 0.5968
953.60 0.5964
953.70 0.596
953.80 0.5957
953.90 0.5953
954.00 0.5949
954.10 0.5945
954.20 0.5941
954.30 0.5937
954.40 0.5934
954.50 0.593
954.60 0.5926
954.70 0.5922
954.80 0.5918
954.90 0.5914
955.00 0.5911
955.10 0.5907
955.20 0.5903
955.30 0.5899
955.40 0.5895
955.50 0.5892
955.60 0.5888
955.70 0.5884
955.80 0.588
955.90 0.5876
956.00 0.5872
956.10 0.5868
956.20 0.5864
956.30 0.5861
956.40 0.5857
956.50 0.5853
956.60 0.5849
956.70 0.5845
956.80 0.5841
956.90 0.5837
957.00 0.5833
957.10 0.583
957.20 0.5826
957.30 0.5822
957.40 0.5818
957.50 0.5814
957.60 0.5811
957.70 0.5807
957.80 0.5803
957.90 0.5799
958.00 0.5795
958.10 0.5792
958.20 0.5788
958.30 0.5784
958.40 0.578
958.50 0.5777
958.60 0.5773
958.70 0.5769
958.80 0.5765
958.90 0.5761
959.00 0.5758
959.10 0.5754
959.20 0.575
959.30 0.5746
959.40 0.5743
959.50 0.5739
959.60 0.5735
959.70 0.5731
959.80 0.5728
959.90 0.5724
960.00 0.572
960.10 0.5716
960.20 0.5713
960.30 0.5709
960.40 0.5705
960.50 0.5702
960.60 0.5698
960.70 0.5694
960.80 0.569
960.90 0.5687
961.00 0.5683
961.10 0.5679
961.20 0.5675
961.30 0.5672
961.40 0.5668
961.50 0.5664
961.60 0.5661
961.70 0.5657
961.80 0.5653
961.90 0.5649
962.00 0.5646
962.10 0.5642
962.20 0.5638
962.30 0.5635
962.40 0.5631
962.50 0.5627
962.60 0.5623
962.70 0.562
962.80 0.5616
962.90 0.5612
963.00 0.5609
963.10 0.5605
963.20 0.5601
963.30 0.5598
963.40 0.5594
963.50 0.559
963.60 0.5587
963.70 0.5583
963.80 0.5579
963.90 0.5575
964.00 0.5572
964.10 0.5568
964.20 0.5564
964.30 0.5561
964.40 0.5557
964.50 0.5553
964.60 0.555
964.70 0.5546
964.80 0.5542
964.90 0.5539
965.00 0.5535
965.10 0.5531
965.20 0.5528
965.30 0.5524
965.40 0.552
965.50 0.5516
965.60 0.5513
965.70 0.5509
965.80 0.5505
965.90 0.5502
966.00 0.5498
966.10 0.5494
966.20 0.5491
966.30 0.5487
966.40 0.5483
966.50 0.548
966.60 0.5476
966.70 0.5473
966.80 0.5469
966.90 0.5466
967.00 0.5462
967.10 0.5458
967.20 0.5455
967.30 0.5451
967.40 0.5448
967.50 0.5444
967.60 0.544
967.70 0.5437
967.80 0.5433
967.90 0.543
968.00 0.5426
968.10 0.5422
968.20 0.5419
968.30 0.5415
968.40 0.5412
968.50 0.5408
968.60 0.5404
968.70 0.5401
968.80 0.5397
968.90 0.5394
969.00 0.539
969.10 0.5387
969.20 0.5383
969.30 0.538
969.40 0.5376
969.50 0.5373
969.60 0.5369
969.70 0.5365
969.80 0.5362
969.90 0.5358
970.00 0.5355
970.10 0.5351
970.20 0.5348
970.30 0.5344
970.40 0.5341
970.50 0.5337
970.60 0.5334
970.70 0.533
970.80 0.5327
970.90 0.5323
971.00 0.532
971.10 0.5316
971.20 0.5313
971.30 0.5309
971.40 0.5306
971.50 0.5302
971.60 0.5299
971.70 0.5296
971.80 0.5292
971.90 0.5289
972.00 0.5285
972.10 0.5282
972.20 0.5278
972.30 0.5275
972.40 0.5271
972.50 0.5268
972.60 0.5264
972.70 0.5261
972.80 0.5258
972.90 0.5254
973.00 0.5251
973.10 0.5247
973.20 0.5244
973.30 0.524
973.40 0.5237
973.50 0.5234
973.60 0.523
973.70 0.5227
973.80 0.5223
973.90 0.522
974.00 0.5216
974.10 0.5213
974.20 0.521
974.30 0.5206
974.40 0.5203
974.50 0.5199
974.60 0.5196
974.70 0.5192
974.80 0.5189
974.90 0.5186
975.00 0.5182
975.10 0.5179
975.20 0.5175
975.30 0.5172
975.40 0.5169
975.50 0.5165
975.60 0.5162
975.70 0.5158
975.80 0.5155
975.90 0.5152
976.00 0.5148
976.10 0.5145
976.20 0.5141
976.30 0.5138
976.40 0.5135
976.50 0.5131
976.60 0.5128
976.70 0.5125
976.80 0.5121
976.90 0.5118
977.00 0.5114
977.10 0.5111
977.20 0.5108
977.30 0.5105
977.40 0.5101
977.50 0.5098
977.60 0.5095
977.70 0.5092
977.80 0.5088
977.90 0.5085
978.00 0.5082
978.10 0.5078
978.20 0.5075
978.30 0.5072
978.40 0.5069
978.50 0.5065
978.60 0.5062
978.70 0.5059
978.80 0.5056
978.90 0.5052
979.00 0.5049
979.10 0.5046
979.20 0.5043
979.30 0.5039
979.40 0.5036
979.50 0.5033
979.60 0.503
979.70 0.5026
979.80 0.5023
979.90 0.502
980.00 0.5017
980.10 0.5013
980.20 0.501
980.30 0.5007
980.40 0.5004
980.50 0.5001
980.60 0.4997
980.70 0.4994
980.80 0.4991
980.90 0.4988
981.00 0.4984
981.10 0.4981
981.20 0.4978
981.30 0.4975
981.40 0.4971
981.50 0.4968
981.60 0.4965
981.70 0.4962
981.80 0.4959
981.90 0.4955
982.00 0.4952
982.10 0.4949
982.20 0.4946
982.30 0.4943
982.40 0.494
982.50 0.4936
982.60 0.4933
982.70 0.493
982.80 0.4927
982.90 0.4924
983.00 0.4921
983.10 0.4918
983.20 0.4914
983.30 0.4911
983.40 0.4908
983.50 0.4905
983.60 0.4902
983.70 0.4899
983.80 0.4896
983.90 0.4892
984.00 0.4889
984.10 0.4886
984.20 0.4883
984.30 0.488
984.40 0.4877
984.50 0.4874
984.60 0.4871
984.70 0.4868
984.80 0.4865
984.90 0.4862
985.00 0.4859
985.10 0.4856
985.20 0.4853
985.30 0.485
985.40 0.4847
985.50 0.4844
985.60 0.4841
985.70 0.4838
985.80 0.4835
985.90 0.4832
986.00 0.4829
986.10 0.4826
986.20 0.4823
986.30 0.482
986.40 0.4817
986.50 0.4814
986.60 0.4811
986.70 0.4808
986.80 0.4805
986.90 0.4802
987.00 0.4799
987.10 0.4796
987.20 0.4793
987.30 0.479
987.40 0.4787
987.50 0.4784
987.60 0.4781
987.70 0.4778
987.80 0.4775
987.90 0.4772
988.00 0.4769
988.10 0.4766
988.20 0.4763
988.30 0.476
988.40 0.4757
988.50 0.4754
988.60 0.4751
988.70 0.4748
988.80 0.4744
988.90 0.4741
989.00 0.4738
989.10 0.4735
989.20 0.4732
989.30 0.4729
989.40 0.4726
989.50 0.4723
989.60 0.472
989.70 0.4717
989.80 0.4714
989.90 0.4711
990.00 0.4708
990.10 0.4705
990.20 0.4702
990.30 0.4699
990.40 0.4696
990.50 0.4693
990.60 0.469
990.70 0.4687
990.80 0.4684
990.90 0.4681
991.00 0.4678
991.10 0.4675
991.20 0.4672
991.30 0.4669
991.40 0.4666
991.50 0.4663
991.60 0.466
991.70 0.4657
991.80 0.4654
991.90 0.4651
992.00 0.4648
992.10 0.4645
992.20 0.4642
992.30 0.4639
992.40 0.4636
992.50 0.4633
992.60 0.463
992.70 0.4627
992.80 0.4624
992.90 0.4621
993.00 0.4618
993.10 0.4615
993.20 0.4612
993.30 0.4609
993.40 0.4606
993.50 0.4603
993.60 0.46
993.70 0.4597
993.80 0.4594
993.90 0.4591
994.00 0.4588
994.10 0.4585
994.20 0.4582
994.30 0.4579
994.40 0.4576
994.50 0.4573
994.60 0.457
994.70 0.4566
994.80 0.4563
994.90 0.4559
995.00 0.4556
995.10 0.4553
995.20 0.4549
995.30 0.4546
995.40 0.4542
995.50 0.4539
995.60 0.4535
995.70 0.4532
995.80 0.4529
995.90 0.4526
996.00 0.4524
996.10 0.4521
996.20 0.4518
996.30 0.4515
996.40 0.4512
996.50 0.4509
996.60 0.4506
996.70 0.4503
996.80 0.45
996.90 0.4497
997.00 0.4494
997.10 0.4492
997.20 0.4489
997.30 0.4486
997.40 0.4483
997.50 0.448
997.60 0.4477
997.70 0.4474
997.80 0.4472
997.90 0.4469
998.00 0.4466
998.10 0.4463
998.20 0.446
998.30 0.4457
998.40 0.4455
998.50 0.4452
998.60 0.4449
998.70 0.4446
998.80 0.4443
998.90 0.4441
999.00 0.4438
999.10 0.4435
999.20 0.4432
999.30 0.4429
999.40 0.4426
999.50 0.4424
999.60 0.4421
999.70 0.4418
999.80 0.4415
999.90 0.4413
1000.00 0.441
1000.10 0.4407
1000.20 0.4404
1000.30 0.4402
1000.40 0.4399
1000.50 0.4396
1000.60 0.4393
1000.70 0.4391
1000.80 0.4388
1000.90 0.4385
1001.00 0.4383
1001.10 0.438
1001.20 0.4377
1001.30 0.4374
1001.40 0.4372
1001.50 0.4369
1001.60 0.4366
1001.70 0.4364
1001.80 0.4361
1001.90 0.4358
1002.00 0.4356
1002.10 0.4353
1002.20 0.435
1002.30 0.4348
1002.40 0.4345
1002.50 0.4342
1002.60 0.434
1002.70 0.4337
1002.80 0.4335
1002.90 0.4332
1003.00 0.4329
1003.10 0.4327
1003.20 0.4324
1003.30 0.4321
1003.40 0.4319
1003.50 0.4316
1003.60 0.4313
1003.70 0.4311
1003.80 0.4308
1003.90 0.4306
1004.00 0.4303
1004.10 0.4301
1004.20 0.4298
1004.30 0.4296
1004.40 0.4293
1004.50 0.429
1004.60 0.4288
1004.70 0.4285
1004.80 0.4283
1004.90 0.428
1005.00 0.4277
1005.10 0.4274
1005.20 0.4271
1005.30 0.4269
1005.40 0.4267
1005.50 0.4264
1005.60 0.4262
1005.70 0.4259
1005.80 0.4256
1005.90 0.4254
1006.00 0.4251
1006.10 0.4249
1006.20 0.4247
1006.30 0.4244
1006.40 0.4242
1006.50 0.4239
1006.60 0.4237
1006.70 0.4234
1006.80 0.4232
1006.90 0.4229
1007.00 0.4227
1007.10 0.4224
1007.20 0.4222
1007.30 0.422
1007.40 0.4217
1007.50 0.4215
1007.60 0.4212
1007.70 0.421
1007.80 0.4208
1007.90 0.4205
1008.00 0.4203
1008.10 0.4201
1008.20 0.4198
1008.30 0.4196
1008.40 0.4194
1008.50 0.4191
1008.60 0.4189
1008.70 0.4187
1008.80 0.4184
1008.90 0.4182
1009.00 0.418
1009.10 0.4177
1009.20 0.4175
1009.30 0.4173
1009.40 0.417
1009.50 0.4168
1009.60 0.4166
1009.70 0.4163
1009.80 0.4161
1009.90 0.4159
1010.00 0.4157
1010.10 0.4154
1010.20 0.4152
1010.30 0.415
1010.40 0.4147
1010.50 0.4145
1010.60 0.4143
1010.70 0.4141
1010.80 0.4138
1010.90 0.4136
1011.00 0.4134
1011.10 0.4132
1011.20 0.4129
1011.30 0.4127
1011.40 0.4125
1011.50 0.4123
1011.60 0.412
1011.70 0.4118
1011.80 0.4116
1011.90 0.4114
1012.00 0.4112
1012.10 0.411
1012.20 0.4108
1012.30 0.4105
1012.40 0.4103
1012.50 0.4101
1012.60 0.4099
1012.70 0.4097
1012.80 0.4095
1012.90 0.4093
1013.00 0.4091
1013.10 0.4088
1013.20 0.4086
1013.30 0.4084
1013.40 0.4082
1013.50 0.408
1013.60 0.4078
1013.70 0.4076
1013.80 0.4074
1013.90 0.4071
1014.00 0.4069
1014.10 0.4067
1014.20 0.4065
1014.30 0.4063
1014.40 0.4061
1014.50 0.4059
1014.60 0.4057
1014.70 0.4055
1014.80 0.4053
1014.90 0.4051
1015.00 0.4049
1015.10 0.4048
1015.20 0.4046
1015.30 0.4044
1015.40 0.4042
1015.50 0.404
1015.60 0.4038
1015.70 0.4036
1015.80 0.4034
1015.90 0.4033
1016.00 0.4031
1016.10 0.4029
1016.20 0.4027
1016.30 0.4025
1016.40 0.4023
1016.50 0.4021
1016.60 0.402
1016.70 0.4018
1016.80 0.4016
1016.90 0.4014
1017.00 0.4012
1017.10 0.401
1017.20 0.4008
1017.30 0.4006
1017.40 0.4004
1017.50 0.4002
1017.60 0.4
1017.70 0.3998
1017.80 0.3996
1017.90 0.3994
1018.00 0.3992
1018.10 0.399
1018.20 0.3988
1018.30 0.3986
1018.40 0.3984
1018.50 0.3982
1018.60 0.3981
1018.70 0.3979
1018.80 0.3977
1018.90 0.3975
1019.00 0.3973
1019.10 0.3971
1019.20 0.3969
1019.30 0.3967
1019.40 0.3965
1019.50 0.3963
1019.60 0.3961
1019.70 0.396
1019.80 0.3958
1019.90 0.3956
1020.00 0.3954
1020.10 0.3952
1020.20 0.395
1020.30 0.3948
1020.40 0.3946
1020.50 0.3944
1020.60 0.3942
1020.70 0.3941
1020.80 0.3939
1020.90 0.3937
1021.00 0.3935
1021.10 0.3933
1021.20 0.3931
1021.30 0.3929
1021.40 0.3927
1021.50 0.3926
1021.60 0.3924
1021.70 0.3922
1021.80 0.392
1021.90 0.3918
1022.00 0.3916
1022.10 0.3914
1022.20 0.3913
1022.30 0.3911
1022.40 0.3909
1022.50 0.3907
1022.60 0.3905
1022.70 0.3904
1022.80 0.3902
1022.90 0.39
1023.00 0.3898
1023.10 0.3896
1023.20 0.3895
1023.30 0.3893
1023.40 0.3891
1023.50 0.3889
1023.60 0.3887
1023.70 0.3886
1023.80 0.3884
1023.90 0.3882
1024.00 0.388
1024.10 0.3878
1024.20 0.3877
1024.30 0.3875
1024.40 0.3873
1024.50 0.3871
1024.60 0.3869
1024.70 0.3868
1024.80 0.3866
1024.90 0.3864
1025.00 0.3862
1025.10 0.3861
1025.20 0.3859
1025.30 0.3857
1025.40 0.3855
1025.50 0.3853
1025.60 0.3852
1025.70 0.385
1025.80 0.3848
1025.90 0.3846
1026.00 0.3845
1026.10 0.3843
1026.20 0.3841
1026.30 0.3839
1026.40 0.3838
1026.50 0.3836
1026.60 0.3834
1026.70 0.3832
1026.80 0.3831
1026.90 0.3829
1027.00 0.3827
1027.10 0.3825
1027.20 0.3824
1027.30 0.3822
1027.40 0.382
1027.50 0.3819
1027.60 0.3817
1027.70 0.3815
1027.80 0.3814
1027.90 0.3812
1028.00 0.381
1028.10 0.3809
1028.20 0.3807
1028.30 0.3806
1028.40 0.3804
1028.50 0.3802
1028.60 0.3801
1028.70 0.3799
1028.80 0.3797
1028.90 0.3796
1029.00 0.3794
1029.10 0.3792
1029.20 0.3791
1029.30 0.3789
1029.40 0.3787
1029.50 0.3786
1029.60 0.3784
1029.70 0.3782
1029.80 0.3781
1029.90 0.3779
1030.00 0.3777
1030.10 0.3776
1030.20 0.3774
1030.30 0.3773
1030.40 0.3771
1030.50 0.3769
1030.60 0.3768
1030.70 0.3766
1030.80 0.3764
1030.90 0.3763
1031.00 0.3761
1031.10 0.3759
1031.20 0.3758
1031.30 0.3756
1031.40 0.3754
1031.50 0.3753
1031.60 0.3751
1031.70 0.375
1031.80 0.3748
1031.90 0.3746
1032.00 0.3745
1032.10 0.3743
1032.20 0.3742
1032.30 0.374
1032.40 0.3739
1032.50 0.3737
1032.60 0.3735
1032.70 0.3734
1032.80 0.3732
1032.90 0.3731
1033.00 0.3729
1033.10 0.3728
1033.20 0.3726
1033.30 0.3725
1033.40 0.3723
1033.50 0.3722
1033.60 0.372
1033.70 0.3719
1033.80 0.3717
1033.90 0.3716
1034.00 0.3714
1034.10 0.3713
1034.20 0.3711
1034.30 0.371
1034.40 0.3708
1034.50 0.3707
1034.60 0.3705
1034.70 0.3703
1034.80 0.3702
1034.90 0.37
1035.00 0.3699
1035.10 0.3697
1035.20 0.3696
1035.30 0.3694
1035.40 0.3693
1035.50 0.3691
1035.60 0.369
1035.70 0.3688
1035.80 0.3687
1035.90 0.3685
1036.00 0.3684
1036.10 0.3682
1036.20 0.3681
1036.30 0.3679
1036.40 0.3678
1036.50 0.3676
1036.60 0.3675
1036.70 0.3673
1036.80 0.3672
1036.90 0.367
1037.00 0.3669
1037.10 0.3667
1037.20 0.3666
1037.30 0.3665
1037.40 0.3663
1037.50 0.3662
1037.60 0.366
1037.70 0.3659
1037.80 0.3658
1037.90 0.3656
1038.00 0.3655
1038.10 0.3653
1038.20 0.3652
1038.30 0.3651
1038.40 0.3649
1038.50 0.3648
1038.60 0.3646
1038.70 0.3645
1038.80 0.3644
1038.90 0.3642
1039.00 0.3641
1039.10 0.3639
1039.20 0.3638
1039.30 0.3637
1039.40 0.3635
1039.50 0.3634
1039.60 0.3633
1039.70 0.3631
1039.80 0.363
1039.90 0.3628
1040.00 0.3627
1040.10 0.3626
1040.20 0.3624
1040.30 0.3623
1040.40 0.3622
1040.50 0.362
1040.60 0.3619
1040.70 0.3617
1040.80 0.3616
1040.90 0.3615
1041.00 0.3613
1041.10 0.3612
1041.20 0.361
1041.30 0.3609
1041.40 0.3608
1041.50 0.3606
1041.60 0.3605
1041.70 0.3604
1041.80 0.3602
1041.90 0.3601
1042.00 0.3599
1042.10 0.3598
1042.20 0.3597
1042.30 0.3596
1042.40 0.3594
1042.50 0.3593
1042.60 0.3592
1042.70 0.3591
1042.80 0.3589
1042.90 0.3588
1043.00 0.3587
1043.10 0.3586
1043.20 0.3584
1043.30 0.3583
1043.40 0.3582
1043.50 0.358
1043.60 0.3579
1043.70 0.3578
1043.80 0.3577
1043.90 0.3575
1044.00 0.3574
1044.10 0.3573
1044.20 0.3572
1044.30 0.357
1044.40 0.3569
1044.50 0.3568
1044.60 0.3567
1044.70 0.3565
1044.80 0.3564
1044.90 0.3563
1045.00 0.3562
1045.10 0.356
1045.20 0.3559
1045.30 0.3558
1045.40 0.3556
1045.50 0.3555
1045.60 0.3554
1045.70 0.3553
1045.80 0.3551
1045.90 0.355
1046.00 0.3549
1046.10 0.3548
1046.20 0.3546
1046.30 0.3545
1046.40 0.3544
1046.50 0.3543
1046.60 0.3541
1046.70 0.354
1046.80 0.3539
1046.90 0.3538
1047.00 0.3536
1047.10 0.3535
1047.20 0.3534
1047.30 0.3533
1047.40 0.3532
1047.50 0.3531
1047.60 0.353
1047.70 0.3528
1047.80 0.3527
1047.90 0.3526
1048.00 0.3525
1048.10 0.3524
1048.20 0.3523
1048.30 0.3521
1048.40 0.352
1048.50 0.3519
1048.60 0.3518
1048.70 0.3517
1048.80 0.3516
1048.90 0.3515
1049.00 0.3513
1049.10 0.3512
1049.20 0.3511
1049.30 0.351
1049.40 0.3509
1049.50 0.3508
1049.60 0.3507
1049.70 0.3505
1049.80 0.3504
1049.90 0.3503
1050.00 0.3502
1050.10 0.3501
1050.20 0.35
1050.30 0.3499
1050.40 0.3498
1050.50 0.3496
1050.60 0.3495
1050.70 0.3494
1050.80 0.3493
1050.90 0.3492
1051.00 0.3491
1051.10 0.349
1051.20 0.3488
1051.30 0.3487
1051.40 0.3486
1051.50 0.3485
1051.60 0.3484
1051.70 0.3483
1051.80 0.3482
1051.90 0.348
1052.00 0.3479
1052.10 0.3478
1052.20 0.3477
1052.30 0.3476
1052.40 0.3475
1052.50 0.3474
1052.60 0.3473
1052.70 0.3472
1052.80 0.3471
1052.90 0.347
1053.00 0.3469
1053.10 0.3468
1053.20 0.3467
1053.30 0.3466
1053.40 0.3465
1053.50 0.3464
1053.60 0.3463
1053.70 0.3462
1053.80 0.3461
1053.90 0.346
1054.00 0.3459
1054.10 0.3458
1054.20 0.3457
1054.30 0.3456
1054.40 0.3455
1054.50 0.3454
1054.60 0.3453
1054.70 0.3452
1054.80 0.3451
1054.90 0.345
1055.00 0.3449
1055.10 0.3448
1055.20 0.3447
1055.30 0.3446
1055.40 0.3445
1055.50 0.3444
1055.60 0.3443
1055.70 0.3442
1055.80 0.3441
1055.90 0.344
1056.00 0.3439
1056.10 0.3438
1056.20 0.3437
1056.30 0.3436
1056.40 0.3435
1056.50 0.3434
1056.60 0.3432
1056.70 0.3431
1056.80 0.343
1056.90 0.3429
1057.00 0.3428
1057.10 0.3428
1057.20 0.3427
1057.30 0.3426
1057.40 0.3425
1057.50 0.3424
1057.60 0.3423
1057.70 0.3422
1057.80 0.3421
1057.90 0.342
1058.00 0.3419
1058.10 0.3418
1058.20 0.3417
1058.30 0.3416
1058.40 0.3416
1058.50 0.3415
1058.60 0.3414
1058.70 0.3413
1058.80 0.3412
1058.90 0.3411
1059.00 0.341
1059.10 0.3409
1059.20 0.3408
1059.30 0.3407
1059.40 0.3406
1059.50 0.3405
1059.60 0.3405
1059.70 0.3404
1059.80 0.3403
1059.90 0.3402
1060.00 0.3401
1060.10 0.34
1060.20 0.3399
1060.30 0.3398
1060.40 0.3397
1060.50 0.3396
1060.60 0.3395
1060.70 0.3394
1060.80 0.3394
1060.90 0.3393
1061.00 0.3392
1061.10 0.3391
1061.20 0.339
1061.30 0.3389
1061.40 0.3388
1061.50 0.3387
1061.60 0.3386
1061.70 0.3385
1061.80 0.3384
1061.90 0.3384
1062.00 0.3383
1062.10 0.3382
1062.20 0.3381
1062.30 0.338
1062.40 0.3379
1062.50 0.3379
1062.60 0.3378
1062.70 0.3377
1062.80 0.3376
1062.90 0.3375
1063.00 0.3374
1063.10 0.3374
1063.20 0.3373
1063.30 0.3372
1063.40 0.3371
1063.50 0.337
1063.60 0.337
1063.70 0.3369
1063.80 0.3368
1063.90 0.3367
1064.00 0.3366
1064.10 0.3365
1064.20 0.3365
1064.30 0.3364
1064.40 0.3363
1064.50 0.3362
1064.60 0.3361
1064.70 0.3361
1064.80 0.336
1064.90 0.3359
1065.00 0.3358
1065.10 0.3357
1065.20 0.3357
1065.30 0.3356
1065.40 0.3355
1065.50 0.3354
1065.60 0.3353
1065.70 0.3352
1065.80 0.3352
1065.90 0.3351
1066.00 0.335
1066.10 0.3349
1066.20 0.3348
1066.30 0.3348
1066.40 0.3347
1066.50 0.3346
1066.60 0.3345
1066.70 0.3344
1066.80 0.3344
1066.90 0.3343
1067.00 0.3342
1067.10 0.3341
1067.20 0.3341
1067.30 0.334
1067.40 0.3339
1067.50 0.3338
1067.60 0.3338
1067.70 0.3337
1067.80 0.3336
1067.90 0.3336
1068.00 0.3335
1068.10 0.3334
1068.20 0.3333
1068.30 0.3333
1068.40 0.3332
1068.50 0.3331
1068.60 0.3331
1068.70 0.333
1068.80 0.3329
1068.90 0.3328
1069.00 0.3328
1069.10 0.3327
1069.20 0.3326
1069.30 0.3326
1069.40 0.3325
1069.50 0.3324
1069.60 0.3324
1069.70 0.3323
1069.80 0.3322
1069.90 0.3321
1070.00 0.3321
1070.10 0.332
1070.20 0.3319
1070.30 0.3319
1070.40 0.3318
1070.50 0.3317
1070.60 0.3317
1070.70 0.3316
1070.80 0.3315
1070.90 0.3314
1071.00 0.3314
1071.10 0.3313
1071.20 0.3312
1071.30 0.3312
1071.40 0.3311
1071.50 0.331
1071.60 0.3309
1071.70 0.3309
1071.80 0.3308
1071.90 0.3307
1072.00 0.3307
1072.10 0.3306
1072.20 0.3305
1072.30 0.3305
1072.40 0.3304
1072.50 0.3303
1072.60 0.3303
1072.70 0.3302
1072.80 0.3301
1072.90 0.3301
1073.00 0.33
1073.10 0.3299
1073.20 0.3299
1073.30 0.3298
1073.40 0.3297
1073.50 0.3297
1073.60 0.3296
1073.70 0.3296
1073.80 0.3295
1073.90 0.3294
1074.00 0.3294
1074.10 0.3293
1074.20 0.3292
1074.30 0.3292
1074.40 0.3291
1074.50 0.329
1074.60 0.329
1074.70 0.3289
1074.80 0.3288
1074.90 0.3288
1075.00 0.3287
1075.10 0.3287
1075.20 0.3286
1075.30 0.3285
1075.40 0.3285
1075.50 0.3284
1075.60 0.3283
1075.70 0.3283
1075.80 0.3282
1075.90 0.3281
1076.00 0.3281
1076.10 0.328
1076.20 0.328
1076.30 0.3279
1076.40 0.3278
1076.50 0.3278
1076.60 0.3277
1076.70 0.3276
1076.80 0.3276
1076.90 0.3275
1077.00 0.3274
1077.10 0.3274
1077.20 0.3273
1077.30 0.3273
1077.40 0.3272
1077.50 0.3271
1077.60 0.3271
1077.70 0.327
1077.80 0.327
1077.90 0.3269
1078.00 0.3269
1078.10 0.3268
1078.20 0.3267
1078.30 0.3267
1078.40 0.3266
1078.50 0.3266
1078.60 0.3265
1078.70 0.3265
1078.80 0.3264
1078.90 0.3263
1079.00 0.3263
1079.10 0.3262
1079.20 0.3262
1079.30 0.3261
1079.40 0.3261
1079.50 0.326
1079.60 0.3259
1079.70 0.3259
1079.80 0.3258
1079.90 0.3258
1080.00 0.3257
1080.10 0.3257
1080.20 0.3256
1080.30 0.3256
1080.40 0.3255
1080.50 0.3254
1080.60 0.3254
1080.70 0.3253
1080.80 0.3253
1080.90 0.3252
1081.00 0.3252
1081.10 0.3251
1081.20 0.3251
1081.30 0.325
1081.40 0.3249
1081.50 0.3249
1081.60 0.3248
1081.70 0.3248
1081.80 0.3247
1081.90 0.3247
1082.00 0.3246
1082.10 0.3246
1082.20 0.3245
1082.30 0.3245
1082.40 0.3244
1082.50 0.3243
1082.60 0.3243
1082.70 0.3242
1082.80 0.3242
1082.90 0.3241
1083.00 0.3241
1083.10 0.324
1083.20 0.324
1083.30 0.3239
1083.40 0.3239
1083.50 0.3238
1083.60 0.3238
1083.70 0.3237
1083.80 0.3237
1083.90 0.3236
1084.00 0.3236
1084.10 0.3235
1084.20 0.3235
1084.30 0.3234
1084.40 0.3234
1084.50 0.3233
1084.60 0.3233
1084.70 0.3232
1084.80 0.3232
1084.90 0.3231
1085.00 0.3231
1085.10 0.323
1085.20 0.3229
1085.30 0.3229
1085.40 0.3228
1085.50 0.3228
1085.60 0.3227
1085.70 0.3227
1085.80 0.3226
1085.90 0.3226
1086.00 0.3225
1086.10 0.3225
1086.20 0.3224
1086.30 0.3224
1086.40 0.3223
1086.50 0.3223
1086.60 0.3222
1086.70 0.3222
1086.80 0.3221
1086.90 0.3221
1087.00 0.322
1087.10 0.322
1087.20 0.3219
1087.30 0.3219
1087.40 0.3218
1087.50 0.3218
1087.60 0.3217
1087.70 0.3217
1087.80 0.3217
1087.90 0.3216
1088.00 0.3216
1088.10 0.3215
1088.20 0.3215
1088.30 0.3214
1088.40 0.3214
1088.50 0.3213
1088.60 0.3213
1088.70 0.3212
1088.80 0.3212
1088.90 0.3211
1089.00 0.3211
1089.10 0.321
1089.20 0.321
1089.30 0.321
1089.40 0.3209
1089.50 0.3209
1089.60 0.3208
1089.70 0.3208
1089.80 0.3207
1089.90 0.3207
1090.00 0.3206
1090.10 0.3206
1090.20 0.3205
1090.30 0.3205
1090.40 0.3205
1090.50 0.3204
1090.60 0.3204
1090.70 0.3203
1090.80 0.3203
1090.90 0.3202
1091.00 0.3202
1091.10 0.3201
1091.20 0.3201
1091.30 0.3201
1091.40 0.32
1091.50 0.32
1091.60 0.3199
1091.70 0.3199
1091.80 0.3198
1091.90 0.3198
1092.00 0.3197
1092.10 0.3197
1092.20 0.3197
1092.30 0.3196
1092.40 0.3196
1092.50 0.3195
1092.60 0.3195
1092.70 0.3194
1092.80 0.3194
1092.90 0.3194
1093.00 0.3194
1093.10 0.3193
1093.20 0.3193
1093.30 0.3192
1093.40 0.3192
1093.50 0.3191
1093.60 0.3191
1093.70 0.3191
1093.80 0.319
1093.90 0.319
1094.00 0.3189
1094.10 0.3189
1094.20 0.3188
1094.30 0.3188
1094.40 0.3188
1094.50 0.3187
1094.60 0.3187
1094.70 0.3186
1094.80 0.3186
1094.90 0.3186
1095.00 0.3185
1095.10 0.3185
1095.20 0.3184
1095.30 0.3184
1095.40 0.3184
1095.50 0.3183
1095.60 0.3183
1095.70 0.3182
1095.80 0.3182
1095.90 0.3182
1096.00 0.3181
1096.10 0.3181
1096.20 0.318
1096.30 0.318
1096.40 0.318
1096.50 0.3179
1096.60 0.3179
1096.70 0.3178
1096.80 0.3178
1096.90 0.3178
1097.00 0.3177
1097.10 0.3177
1097.20 0.3176
1097.30 0.3176
1097.40 0.3176
1097.50 0.3175
1097.60 0.3175
1097.70 0.3174
1097.80 0.3174
1097.90 0.3174
1098.00 0.3173
1098.10 0.3173
1098.20 0.3172
1098.30 0.3172
1098.40 0.3172
1098.50 0.3171
1098.60 0.3171
1098.70 0.3171
1098.80 0.317
1098.90 0.317
1099.00 0.3169
1099.10 0.3169
1099.20 0.3169
1099.30 0.3168
1099.40 0.3168
1099.50 0.3167
1099.60 0.3167
1099.70 0.3167
1099.80 0.3166
1099.90 0.3166
1100.00 0.3165
1100.10 0.3165
1100.20 0.3165
1100.30 0.3164
1100.40 0.3164
1100.50 0.3163
1100.60 0.3163
1100.70 0.3163
1100.80 0.3162
1100.90 0.3162
1101.00 0.3162
1101.10 0.3161
1101.20 0.3161
1101.30 0.316
1101.40 0.316
1101.50 0.316
1101.60 0.3159
1101.70 0.3159
1101.80 0.3159
1101.90 0.3158
1102.00 0.3158
1102.10 0.3157
1102.20 0.3157
1102.30 0.3157
1102.40 0.3156
1102.50 0.3156
1102.60 0.3156
1102.70 0.3155
1102.80 0.3155
1102.90 0.3154
1103.00 0.3154
1103.10 0.3154
1103.20 0.3153
1103.30 0.3153
1103.40 0.3153
1103.50 0.3152
1103.60 0.3152
1103.70 0.3152
1103.80 0.3151
1103.90 0.3151
1104.00 0.3151
1104.10 0.315
1104.20 0.315
1104.30 0.315
1104.40 0.3149
1104.50 0.3149
1104.60 0.3149
1104.70 0.3148
1104.80 0.3148
1104.90 0.3148
1105.00 0.3147
1105.10 0.3147
1105.20 0.3147
1105.30 0.3146
1105.40 0.3146
1105.50 0.3146
1105.60 0.3145
1105.70 0.3145
1105.80 0.3145
1105.90 0.3144
1106.00 0.3144
1106.10 0.3144
1106.20 0.3143
1106.30 0.3143
1106.40 0.3143
1106.50 0.3142
1106.60 0.3142
1106.70 0.3141
1106.80 0.3141
1106.90 0.3141
1107.00 0.314
1107.10 0.314
1107.20 0.314
1107.30 0.3139
1107.40 0.3139
1107.50 0.3139
1107.60 0.3138
1107.70 0.3138
1107.80 0.3138
1107.90 0.3137
1108.00 0.3137
1108.10 0.3137
1108.20 0.3136
1108.30 0.3136
1108.40 0.3136
1108.50 0.3135
1108.60 0.3135
1108.70 0.3135
1108.80 0.3134
1108.90 0.3134
1109.00 0.3134
1109.10 0.3133
1109.20 0.3133
1109.30 0.3133
1109.40 0.3132
1109.50 0.3132
1109.60 0.3132
1109.70 0.3131
1109.80 0.3131
1109.90 0.3131
1110.00 0.313
1110.10 0.313
1110.20 0.313
1110.30 0.3129
1110.40 0.3129
1110.50 0.3129
1110.60 0.3128
1110.70 0.3128
1110.80 0.3128
1110.90 0.3127
1111.00 0.3127
1111.10 0.3127
1111.20 0.3126
1111.30 0.3126
1111.40 0.3126
1111.50 0.3125
1111.60 0.3125
1111.70 0.3125
1111.80 0.3124
1111.90 0.3124
1112.00 0.3124
1112.10 0.3123
1112.20 0.3123
1112.30 0.3123
1112.40 0.3122
1112.50 0.3122
1112.60 0.3122
1112.70 0.3121
1112.80 0.3121
1112.90 0.3121
1113.00 0.312
1113.10 0.312
1113.20 0.312
1113.30 0.3119
1113.40 0.3119
1113.50 0.3119
1113.60 0.3118
1113.70 0.3118
1113.80 0.3118
1113.90 0.3117
1114.00 0.3117
1114.10 0.3117
1114.20 0.3116
1114.30 0.3116
1114.40 0.3116
1114.50 0.3116
1114.60 0.3115
1114.70 0.3115
1114.80 0.3115
1114.90 0.3114
1115.00 0.3114
1115.10 0.3114
1115.20 0.3113
1115.30 0.3113
1115.40 0.3113
1115.50 0.3112
1115.60 0.3112
1115.70 0.3112
1115.80 0.3111
1115.90 0.3111
1116.00 0.3111
1116.10 0.311
1116.20 0.311
1116.30 0.311
1116.40 0.311
1116.50 0.3109
1116.60 0.3109
1116.70 0.3109
1116.80 0.3108
1116.90 0.3108
1117.00 0.3108
1117.10 0.3107
1117.20 0.3107
1117.30 0.3107
1117.40 0.3106
1117.50 0.3106
1117.60 0.3106
1117.70 0.3106
1117.80 0.3105
1117.90 0.3105
1118.00 0.3105
1118.10 0.3104
1118.20 0.3104
1118.30 0.3104
1118.40 0.3103
1118.50 0.3103
1118.60 0.3103
1118.70 0.3103
1118.80 0.3102
1118.90 0.3102
1119.00 0.3102
1119.10 0.3101
1119.20 0.3101
1119.30 0.3101
1119.40 0.3101
1119.50 0.31
1119.60 0.31
1119.70 0.31
1119.80 0.3099
1119.90 0.3099
1120.00 0.3099
1120.10 0.3098
1120.20 0.3098
1120.30 0.3098
1120.40 0.3098
1120.50 0.3097
1120.60 0.3097
1120.70 0.3097
1120.80 0.3096
1120.90 0.3096
1121.00 0.3096
1121.10 0.3095
1121.20 0.3095
1121.30 0.3095
1121.40 0.3095
1121.50 0.3094
1121.60 0.3094
1121.70 0.3094
1121.80 0.3093
1121.90 0.3093
1122.00 0.3093
1122.10 0.3093
1122.20 0.3092
1122.30 0.3092
1122.40 0.3092
1122.50 0.3091
1122.60 0.3091
1122.70 0.3091
1122.80 0.309
1122.90 0.309
1123.00 0.309
1123.10 0.3089
1123.20 0.3089
1123.30 0.3089
1123.40 0.3089
1123.50 0.3088
1123.60 0.3088
1123.70 0.3088
1123.80 0.3087
1123.90 0.3087
1124.00 0.3087
1124.10 0.3086
1124.20 0.3086
1124.30 0.3086
1124.40 0.3085
1124.50 0.3085
1124.60 0.3085
1124.70 0.3085
1124.80 0.3084
1124.90 0.3084
1125.00 0.3084
1125.10 0.3083
1125.20 0.3083
1125.30 0.3083
1125.40 0.3082
1125.50 0.3082
1125.60 0.3082
1125.70 0.3082
1125.80 0.3081
1125.90 0.3081
1126.00 0.3081
1126.10 0.308
1126.20 0.308
1126.30 0.308
1126.40 0.3079
1126.50 0.3079
1126.60 0.3079
1126.70 0.3078
1126.80 0.3078
1126.90 0.3078
1127.00 0.3078
1127.10 0.3077
1127.20 0.3077
1127.30 0.3077
1127.40 0.3076
1127.50 0.3076
1127.60 0.3076
1127.70 0.3076
1127.80 0.3075
1127.90 0.3075
1128.00 0.3075
1128.10 0.3074
1128.20 0.3074
1128.30 0.3074
1128.40 0.3074
1128.50 0.3073
1128.60 0.3073
1128.70 0.3073
1128.80 0.3072
1128.90 0.3072
1129.00 0.3072
1129.10 0.3072
1129.20 0.3071
1129.30 0.3071
1129.40 0.3071
1129.50 0.307
1129.60 0.307
1129.70 0.307
1129.80 0.307
1129.90 0.3069
1130.00 0.3069
1130.10 0.3069
1130.20 0.3068
1130.30 0.3068
1130.40 0.3068
1130.50 0.3068
1130.60 0.3067
1130.70 0.3067
1130.80 0.3067
1130.90 0.3066
1131.00 0.3066
1131.10 0.3066
1131.20 0.3066
1131.30 0.3065
1131.40 0.3065
1131.50 0.3065
1131.60 0.3064
1131.70 0.3064
1131.80 0.3064
1131.90 0.3064
1132.00 0.3063
1132.10 0.3063
1132.20 0.3063
1132.30 0.3062
1132.40 0.3062
1132.50 0.3062
1132.60 0.3061
1132.70 0.3061
1132.80 0.3061
1132.90 0.306
1133.00 0.306
1133.10 0.306
1133.20 0.3059
1133.30 0.3059
1133.40 0.3059
1133.50 0.3058
1133.60 0.3058
1133.70 0.3058
1133.80 0.3058
1133.90 0.3057
1134.00 0.3057
1134.10 0.3057
1134.20 0.3056
1134.30 0.3056
1134.40 0.3056
1134.50 0.3055
1134.60 0.3055
1134.70 0.3055
1134.80 0.3054
1134.90 0.3054
1135.00 0.3054
1135.10 0.3053
1135.20 0.3053
1135.30 0.3053
1135.40 0.3052
1135.50 0.3052
1135.60 0.3052
1135.70 0.3051
1135.80 0.3051
1135.90 0.3051
1136.00 0.305
1136.10 0.305
1136.20 0.305
1136.30 0.3049
1136.40 0.3049
1136.50 0.3049
1136.60 0.3049
1136.70 0.3048
1136.80 0.3048
1136.90 0.3048
1137.00 0.3047
1137.10 0.3047
1137.20 0.3047
1137.30 0.3046
1137.40 0.3046
1137.50 0.3046
1137.60 0.3045
1137.70 0.3045
1137.80 0.3044
1137.90 0.3044
1138.00 0.3044
1138.10 0.3043
1138.20 0.3043
1138.30 0.3043
1138.40 0.3042
1138.50 0.3042
1138.60 0.3042
1138.70 0.3041
1138.80 0.3041
1138.90 0.3041
1139.00 0.304
1139.10 0.304
1139.20 0.304
1139.30 0.3039
1139.40 0.3039
1139.50 0.3039
1139.60 0.3038
1139.70 0.3038
1139.80 0.3038
1139.90 0.3037
1140.00 0.3037
1140.10 0.3037
1140.20 0.3036
1140.30 0.3036
1140.40 0.3036
1140.50 0.3035
1140.60 0.3035
1140.70 0.3035
1140.80 0.3034
1140.90 0.3034
1141.00 0.3034
1141.10 0.3033
1141.20 0.3033
1141.30 0.3033
1141.40 0.3032
1141.50 0.3032
1141.60 0.3032
1141.70 0.3031
1141.80 0.3031
1141.90 0.3031
1142.00 0.303
1142.10 0.303
1142.20 0.3029
1142.30 0.3029
1142.40 0.3029
1142.50 0.3028
1142.60 0.3028
1142.70 0.3028
1142.80 0.3027
1142.90 0.3027
1143.00 0.3027
1143.10 0.3026
1143.20 0.3026
1143.30 0.3026
1143.40 0.3025
1143.50 0.3025
1143.60 0.3024
1143.70 0.3024
1143.80 0.3024
1143.90 0.3023
1144.00 0.3023
1144.10 0.3023
1144.20 0.3022
1144.30 0.3022
1144.40 0.3022
1144.50 0.3021
1144.60 0.3021
1144.70 0.3021
1144.80 0.302
1144.90 0.302
1145.00 0.302
1145.10 0.3019
1145.20 0.3019
1145.30 0.3018
1145.40 0.3018
1145.50 0.3018
1145.60 0.3017
1145.70 0.3017
1145.80 0.3017
1145.90 0.3016
1146.00 0.3016
1146.10 0.3016
1146.20 0.3015
1146.30 0.3015
1146.40 0.3015
1146.50 0.3014
1146.60 0.3014
1146.70 0.3013
1146.80 0.3013
1146.90 0.3013
1147.00 0.3012
1147.10 0.3012
1147.20 0.3012
1147.30 0.3011
1147.40 0.3011
1147.50 0.301
1147.60 0.301
1147.70 0.301
1147.80 0.3009
1147.90 0.3009
1148.00 0.3009
1148.10 0.3008
1148.20 0.3008
1148.30 0.3007
1148.40 0.3007
1148.50 0.3007
1148.60 0.3006
1148.70 0.3006
1148.80 0.3005
1148.90 0.3005
1149.00 0.3005
1149.10 0.3004
1149.20 0.3004
1149.30 0.3003
1149.40 0.3003
1149.50 0.3003
1149.60 0.3002
1149.70 0.3002
1149.80 0.3002
1149.90 0.3001
1150.00 0.3001
1150.10 0.3
1150.20 0.3
1150.30 0.3
1150.40 0.2999
1150.50 0.2999
1150.60 0.2998
1150.70 0.2998
1150.80 0.2998
1150.90 0.2997
1151.00 0.2997
1151.10 0.2996
1151.20 0.2996
1151.30 0.2996
1151.40 0.2995
1151.50 0.2995
1151.60 0.2995
1151.70 0.2994
1151.80 0.2994
1151.90 0.2993
1152.00 0.2993
1152.10 0.2993
1152.20 0.2992
1152.30 0.2992
1152.40 0.2991
1152.50 0.2991
1152.60 0.2991
1152.70 0.299
1152.80 0.299
1152.90 0.2989
1153.00 0.2989
1153.10 0.2988
1153.20 0.2988
1153.30 0.2988
1153.40 0.2987
1153.50 0.2987
1153.60 0.2986
1153.70 0.2986
1153.80 0.2986
1153.90 0.2985
1154.00 0.2985
1154.10 0.2984
1154.20 0.2984
1154.30 0.2984
1154.40 0.2983
1154.50 0.2983
1154.60 0.2982
1154.70 0.2982
1154.80 0.2982
1154.90 0.2981
1155.00 0.2981
1155.10 0.298
1155.20 0.298
1155.30 0.298
1155.40 0.2979
1155.50 0.2979
1155.60 0.2978
1155.70 0.2978
1155.80 0.2978
1155.90 0.2977
1156.00 0.2977
1156.10 0.2976
1156.20 0.2976
1156.30 0.2975
1156.40 0.2975
1156.50 0.2975
1156.60 0.2974
1156.70 0.2974
1156.80 0.2973
1156.90 0.2973
1157.00 0.2973
1157.10 0.2972
1157.20 0.2972
1157.30 0.2971
1157.40 0.2971
1157.50 0.297
1157.60 0.297
1157.70 0.297
1157.80 0.2969
1157.90 0.2969
1158.00 0.2968
1158.10 0.2968
1158.20 0.2967
1158.30 0.2967
1158.40 0.2966
1158.50 0.2966
1158.60 0.2965
1158.70 0.2965
1158.80 0.2965
1158.90 0.2964
1159.00 0.2964
1159.10 0.2963
1159.20 0.2963
1159.30 0.2962
1159.40 0.2962
1159.50 0.2961
1159.60 0.2961
1159.70 0.2961
1159.80 0.296
1159.90 0.296
1160.00 0.2959
1160.10 0.2959
1160.20 0.2958
1160.30 0.2958
1160.40 0.2957
1160.50 0.2957
1160.60 0.2957
1160.70 0.2956
1160.80 0.2956
1160.90 0.2955
1161.00 0.2955
1161.10 0.2954
1161.20 0.2954
1161.30 0.2953
1161.40 0.2953
1161.50 0.2953
1161.60 0.2952
1161.70 0.2952
1161.80 0.2951
1161.90 0.2951
1162.00 0.295
1162.10 0.295
1162.20 0.2949
1162.30 0.2949
1162.40 0.2948
1162.50 0.2948
1162.60 0.2947
1162.70 0.2947
1162.80 0.2946
1162.90 0.2946
1163.00 0.2946
1163.10 0.2945
1163.20 0.2945
1163.30 0.2944
1163.40 0.2944
1163.50 0.2943
1163.60 0.2943
1163.70 0.2942
1163.80 0.2942
1163.90 0.2941
1164.00 0.2941
1164.10 0.294
1164.20 0.294
1164.30 0.2939
1164.40 0.2939
1164.50 0.2938
1164.60 0.2938
1164.70 0.2937
1164.80 0.2937
1164.90 0.2936
1165.00 0.2936
1165.10 0.2935
1165.20 0.2935
1165.30 0.2934
1165.40 0.2934
1165.50 0.2933
1165.60 0.2933
1165.70 0.2932
1165.80 0.2932
1165.90 0.2932
1166.00 0.2931
1166.10 0.2931
1166.20 0.293
1166.30 0.293
1166.40 0.2929
1166.50 0.2929
1166.60 0.2928
1166.70 0.2928
1166.80 0.2927
1166.90 0.2927
1167.00 0.2926
1167.10 0.2926
1167.20 0.2925
1167.30 0.2925
1167.40 0.2924
1167.50 0.2924
1167.60 0.2923
1167.70 0.2923
1167.80 0.2922
1167.90 0.2922
1168.00 0.2921
1168.10 0.292
1168.20 0.292
1168.30 0.2919
1168.40 0.2919
1168.50 0.2918
1168.60 0.2918
1168.70 0.2917
1168.80 0.2917
1168.90 0.2916
1169.00 0.2916
1169.10 0.2915
1169.20 0.2915
1169.30 0.2914
1169.40 0.2914
1169.50 0.2913
1169.60 0.2913
1169.70 0.2912
1169.80 0.2912
1169.90 0.2911
1170.00 0.2911
1170.10 0.291
1170.20 0.291
1170.30 0.2909
1170.40 0.2909
1170.50 0.2908
1170.60 0.2907
1170.70 0.2907
1170.80 0.2906
1170.90 0.2906
1171.00 0.2905
1171.10 0.2905
1171.20 0.2904
1171.30 0.2904
1171.40 0.2903
1171.50 0.2903
1171.60 0.2902
1171.70 0.2902
1171.80 0.2901
1171.90 0.2901
1172.00 0.29
1172.10 0.29
1172.20 0.2899
1172.30 0.2899
1172.40 0.2898
1172.50 0.2898
1172.60 0.2897
1172.70 0.2896
1172.80 0.2896
1172.90 0.2895
1173.00 0.2895
1173.10 0.2894
1173.20 0.2894
1173.30 0.2893
1173.40 0.2893
1173.50 0.2892
1173.60 0.2891
1173.70 0.2891
1173.80 0.289
1173.90 0.289
1174.00 0.2889
1174.10 0.2889
1174.20 0.2888
1174.30 0.2888
1174.40 0.2887
1174.50 0.2887
1174.60 0.2886
1174.70 0.2885
1174.80 0.2885
1174.90 0.2884
1175.00 0.2884
1175.10 0.2883
1175.20 0.2883
1175.30 0.2882
1175.40 0.2882
1175.50 0.2881
1175.60 0.2881
1175.70 0.288
1175.80 0.288
1175.90 0.2879
1176.00 0.2878
1176.10 0.2878
1176.20 0.2877
1176.30 0.2877
1176.40 0.2876
1176.50 0.2876
1176.60 0.2875
1176.70 0.2875
1176.80 0.2874
1176.90 0.2874
1177.00 0.2873
1177.10 0.2872
1177.20 0.2872
1177.30 0.2871
1177.40 0.2871
1177.50 0.287
1177.60 0.287
1177.70 0.2869
1177.80 0.2868
1177.90 0.2868
1178.00 0.2867
1178.10 0.2867
1178.20 0.2866
1178.30 0.2866
1178.40 0.2865
1178.50 0.2864
1178.60 0.2864
1178.70 0.2863
1178.80 0.2863
1178.90 0.2862
1179.00 0.2862
1179.10 0.2861
1179.20 0.286
1179.30 0.286
1179.40 0.2859
1179.50 0.2859
1179.60 0.2858
1179.70 0.2858
1179.80 0.2857
1179.90 0.2856
1180.00 0.2856
1180.10 0.2855
1180.20 0.2855
1180.30 0.2854
1180.40 0.2854
1180.50 0.2853
1180.60 0.2852
1180.70 0.2852
1180.80 0.2851
1180.90 0.2851
1181.00 0.285
1181.10 0.285
1181.20 0.2849
1181.30 0.2849
1181.40 0.2848
1181.50 0.2847
1181.60 0.2847
1181.70 0.2846
1181.80 0.2846
1181.90 0.2845
1182.00 0.2845
1182.10 0.2844
1182.20 0.2843
1182.30 0.2843
1182.40 0.2842
1182.50 0.2842
1182.60 0.2841
1182.70 0.284
1182.80 0.284
1182.90 0.2839
1183.00 0.2838
1183.10 0.2838
1183.20 0.2837
1183.30 0.2837
1183.40 0.2836
1183.50 0.2835
1183.60 0.2835
1183.70 0.2834
1183.80 0.2834
1183.90 0.2833
1184.00 0.2832
1184.10 0.2832
1184.20 0.2831
1184.30 0.2831
1184.40 0.283
1184.50 0.2829
1184.60 0.2829
1184.70 0.2828
1184.80 0.2828
1184.90 0.2827
1185.00 0.2826
1185.10 0.2826
1185.20 0.2825
1185.30 0.2825
1185.40 0.2824
1185.50 0.2823
1185.60 0.2823
1185.70 0.2822
1185.80 0.2822
1185.90 0.2821
1186.00 0.282
1186.10 0.282
1186.20 0.2819
1186.30 0.2819
1186.40 0.2818
1186.50 0.2817
1186.60 0.2817
1186.70 0.2816
1186.80 0.2816
1186.90 0.2815
1187.00 0.2814
1187.10 0.2814
1187.20 0.2813
1187.30 0.2813
1187.40 0.2812
1187.50 0.2811
1187.60 0.2811
1187.70 0.281
1187.80 0.2809
1187.90 0.2809
1188.00 0.2808
1188.10 0.2808
1188.20 0.2807
1188.30 0.2806
1188.40 0.2806
1188.50 0.2805
1188.60 0.2805
1188.70 0.2804
1188.80 0.2803
1188.90 0.2803
1189.00 0.2802
1189.10 0.2802
1189.20 0.2801
1189.30 0.28
1189.40 0.28
1189.50 0.2799
1189.60 0.2798
1189.70 0.2798
1189.80 0.2797
1189.90 0.2797
1190.00 0.2796
1190.10 0.2795
1190.20 0.2795
1190.30 0.2794
1190.40 0.2794
1190.50 0.2793
1190.60 0.2792
1190.70 0.2792
1190.80 0.2791
1190.90 0.2791
1191.00 0.279
1191.10 0.2789
1191.20 0.2789
1191.30 0.2788
1191.40 0.2788
1191.50 0.2787
1191.60 0.2786
1191.70 0.2786
1191.80 0.2785
1191.90 0.2784
1192.00 0.2784
1192.10 0.2783
1192.20 0.2783
1192.30 0.2782
1192.40 0.2781
1192.50 0.2781
1192.60 0.278
1192.70 0.2779
1192.80 0.2779
1192.90 0.2778
1193.00 0.2778
1193.10 0.2777
1193.20 0.2776
1193.30 0.2776
1193.40 0.2775
1193.50 0.2774
1193.60 0.2774
1193.70 0.2773
1193.80 0.2773
1193.90 0.2772
1194.00 0.2771
1194.10 0.2771
1194.20 0.277
1194.30 0.2769
1194.40 0.2769
1194.50 0.2768
1194.60 0.2768
1194.70 0.2767
1194.80 0.2766
1194.90 0.2766
1195.00 0.2765
1195.10 0.2765
1195.20 0.2764
1195.30 0.2763
1195.40 0.2763
1195.50 0.2762
1195.60 0.2761
1195.70 0.2761
1195.80 0.276
1195.90 0.276
1196.00 0.2759
1196.10 0.2758
1196.20 0.2758
1196.30 0.2757
1196.40 0.2756
1196.50 0.2756
1196.60 0.2755
1196.70 0.2755
1196.80 0.2754
1196.90 0.2753
1197.00 0.2753
1197.10 0.2752
1197.20 0.2751
1197.30 0.2751
1197.40 0.275
1197.50 0.275
1197.60 0.2749
1197.70 0.2748
1197.80 0.2748
1197.90 0.2747
1198.00 0.2746
1198.10 0.2746
1198.20 0.2745
1198.30 0.2744
1198.40 0.2744
1198.50 0.2743
1198.60 0.2742
1198.70 0.2742
1198.80 0.2741
1198.90 0.2741
1199.00 0.274
1199.10 0.2739
1199.20 0.2739
1199.30 0.2738
1199.40 0.2737
1199.50 0.2737
1199.60 0.2736
1199.70 0.2735
1199.80 0.2735
1199.90 0.2734
1200.00 0
