# Version 2.1 - nm, norm@500 to 1, cut digits, bergeron_3250_70.dat_3250
# Wavelength(nm)  Flambda(ergs/cm^s/s/nm)
300.00 0.08632
300.10 0.08655
300.20 0.08678
300.30 0.08701
300.40 0.08723
300.50 0.08746
300.60 0.08769
300.70 0.08792
300.80 0.08815
300.90 0.08838
301.00 0.08861
301.10 0.08883
301.20 0.08906
301.30 0.08929
301.40 0.08951
301.50 0.08974
301.60 0.08997
301.70 0.09019
301.80 0.09042
301.90 0.09064
302.00 0.09087
302.10 0.0911
302.20 0.09134
302.30 0.09158
302.40 0.09182
302.50 0.09205
302.60 0.09229
302.70 0.09253
302.80 0.09276
302.90 0.093
303.00 0.09323
303.10 0.09347
303.20 0.0937
303.30 0.09394
303.40 0.09417
303.50 0.0944
303.60 0.09464
303.70 0.09487
303.80 0.0951
303.90 0.09533
304.00 0.09557
304.10 0.09581
304.20 0.09606
304.30 0.0963
304.40 0.09655
304.50 0.09679
304.60 0.09703
304.70 0.09728
304.80 0.09752
304.90 0.09776
305.00 0.098
305.10 0.09825
305.20 0.09849
305.30 0.09873
305.40 0.09897
305.50 0.09921
305.60 0.09945
305.70 0.09969
305.80 0.09993
305.90 0.1002
306.00 0.1004
306.10 0.1007
306.20 0.1009
306.30 0.1012
306.40 0.1014
306.50 0.1017
306.60 0.1019
306.70 0.1022
306.80 0.1024
306.90 0.1027
307.00 0.1029
307.10 0.1032
307.20 0.1034
307.30 0.1037
307.40 0.1039
307.50 0.1042
307.60 0.1044
307.70 0.1047
307.80 0.1049
307.90 0.1052
308.00 0.1054
308.10 0.1057
308.20 0.1059
308.30 0.1062
308.40 0.1064
308.50 0.1067
308.60 0.107
308.70 0.1072
308.80 0.1075
308.90 0.1077
309.00 0.108
309.10 0.1082
309.20 0.1085
309.30 0.1088
309.40 0.109
309.50 0.1093
309.60 0.1095
309.70 0.1098
309.80 0.11
309.90 0.1103
310.00 0.1105
310.10 0.1108
310.20 0.1111
310.30 0.1113
310.40 0.1116
310.50 0.1119
310.60 0.1121
310.70 0.1124
310.80 0.1127
310.90 0.1129
311.00 0.1132
311.10 0.1135
311.20 0.1137
311.30 0.114
311.40 0.1143
311.50 0.1145
311.60 0.1148
311.70 0.115
311.80 0.1153
311.90 0.1156
312.00 0.1158
312.10 0.1161
312.20 0.1164
312.30 0.1166
312.40 0.1169
312.50 0.1172
312.60 0.1174
312.70 0.1177
312.80 0.118
312.90 0.1183
313.00 0.1185
313.10 0.1188
313.20 0.1191
313.30 0.1194
313.40 0.1196
313.50 0.1199
313.60 0.1202
313.70 0.1204
313.80 0.1207
313.90 0.121
314.00 0.1213
314.10 0.1215
314.20 0.1218
314.30 0.1221
314.40 0.1224
314.50 0.1226
314.60 0.1229
314.70 0.1232
314.80 0.1235
314.90 0.1238
315.00 0.124
315.10 0.1243
315.20 0.1246
315.30 0.1249
315.40 0.1252
315.50 0.1254
315.60 0.1257
315.70 0.126
315.80 0.1263
315.90 0.1265
316.00 0.1268
316.10 0.1271
316.20 0.1274
316.30 0.1277
316.40 0.128
316.50 0.1283
316.60 0.1285
316.70 0.1288
316.80 0.1291
316.90 0.1294
317.00 0.1297
317.10 0.13
317.20 0.1303
317.30 0.1305
317.40 0.1308
317.50 0.1311
317.60 0.1314
317.70 0.1317
317.80 0.132
317.90 0.1323
318.00 0.1325
318.10 0.1328
318.20 0.1331
318.30 0.1334
318.40 0.1337
318.50 0.134
318.60 0.1343
318.70 0.1346
318.80 0.1349
318.90 0.1352
319.00 0.1355
319.10 0.1358
319.20 0.1361
319.30 0.1364
319.40 0.1367
319.50 0.1369
319.60 0.1372
319.70 0.1375
319.80 0.1378
319.90 0.1381
320.00 0.1384
320.10 0.1387
320.20 0.139
320.30 0.1393
320.40 0.1396
320.50 0.1399
320.60 0.1402
320.70 0.1405
320.80 0.1408
320.90 0.1411
321.00 0.1414
321.10 0.1417
321.20 0.142
321.30 0.1423
321.40 0.1426
321.50 0.1429
321.60 0.1432
321.70 0.1435
321.80 0.1438
321.90 0.1441
322.00 0.1444
322.10 0.1447
322.20 0.145
322.30 0.1453
322.40 0.1457
322.50 0.146
322.60 0.1463
322.70 0.1466
322.80 0.1469
322.90 0.1472
323.00 0.1475
323.10 0.1478
323.20 0.1481
323.30 0.1484
323.40 0.1487
323.50 0.149
323.60 0.1493
323.70 0.1496
323.80 0.15
323.90 0.1503
324.00 0.1506
324.10 0.1509
324.20 0.1512
324.30 0.1515
324.40 0.1518
324.50 0.1522
324.60 0.1525
324.70 0.1528
324.80 0.1531
324.90 0.1534
325.00 0.1537
325.10 0.154
325.20 0.1544
325.30 0.1547
325.40 0.155
325.50 0.1553
325.60 0.1556
325.70 0.1559
325.80 0.1562
325.90 0.1566
326.00 0.1569
326.10 0.1572
326.20 0.1575
326.30 0.1578
326.40 0.1582
326.50 0.1585
326.60 0.1588
326.70 0.1591
326.80 0.1595
326.90 0.1598
327.00 0.1601
327.10 0.1604
327.20 0.1607
327.30 0.1611
327.40 0.1614
327.50 0.1617
327.60 0.162
327.70 0.1623
327.80 0.1627
327.90 0.163
328.00 0.1633
328.10 0.1636
328.20 0.164
328.30 0.1643
328.40 0.1646
328.50 0.165
328.60 0.1653
328.70 0.1656
328.80 0.1659
328.90 0.1663
329.00 0.1666
329.10 0.1669
329.20 0.1673
329.30 0.1676
329.40 0.1679
329.50 0.1682
329.60 0.1686
329.70 0.1689
329.80 0.1692
329.90 0.1695
330.00 0.1699
330.10 0.1702
330.20 0.1706
330.30 0.1709
330.40 0.1712
330.50 0.1716
330.60 0.1719
330.70 0.1722
330.80 0.1726
330.90 0.1729
331.00 0.1733
331.10 0.1736
331.20 0.1739
331.30 0.1743
331.40 0.1746
331.50 0.1749
331.60 0.1753
331.70 0.1756
331.80 0.1759
331.90 0.1763
332.00 0.1766
332.10 0.1769
332.20 0.1773
332.30 0.1776
332.40 0.178
332.50 0.1783
332.60 0.1787
332.70 0.179
332.80 0.1794
332.90 0.1797
333.00 0.18
333.10 0.1804
333.20 0.1807
333.30 0.1811
333.40 0.1814
333.50 0.1818
333.60 0.1821
333.70 0.1824
333.80 0.1828
333.90 0.1831
334.00 0.1834
334.10 0.1838
334.20 0.1842
334.30 0.1845
334.40 0.1849
334.50 0.1852
334.60 0.1856
334.70 0.1859
334.80 0.1863
334.90 0.1866
335.00 0.187
335.10 0.1873
335.20 0.1877
335.30 0.188
335.40 0.1884
335.50 0.1887
335.60 0.1891
335.70 0.1894
335.80 0.1898
335.90 0.1901
336.00 0.1904
336.10 0.1908
336.20 0.1912
336.30 0.1915
336.40 0.1919
336.50 0.1922
336.60 0.1926
336.70 0.193
336.80 0.1933
336.90 0.1937
337.00 0.194
337.10 0.1944
337.20 0.1947
337.30 0.1951
337.40 0.1955
337.50 0.1958
337.60 0.1962
337.70 0.1965
337.80 0.1969
337.90 0.1972
338.00 0.1976
338.10 0.1979
338.20 0.1983
338.30 0.1987
338.40 0.199
338.50 0.1994
338.60 0.1998
338.70 0.2001
338.80 0.2005
338.90 0.2009
339.00 0.2012
339.10 0.2016
339.20 0.202
339.30 0.2023
339.40 0.2027
339.50 0.203
339.60 0.2034
339.70 0.2038
339.80 0.2041
339.90 0.2045
340.00 0.2048
340.10 0.2052
340.20 0.2056
340.30 0.206
340.40 0.2063
340.50 0.2067
340.60 0.2071
340.70 0.2074
340.80 0.2078
340.90 0.2082
341.00 0.2086
341.10 0.2089
341.20 0.2093
341.30 0.2097
341.40 0.21
341.50 0.2104
341.60 0.2108
341.70 0.2111
341.80 0.2115
341.90 0.2119
342.00 0.2122
342.10 0.2126
342.20 0.213
342.30 0.2134
342.40 0.2138
342.50 0.2141
342.60 0.2145
342.70 0.2149
342.80 0.2153
342.90 0.2156
343.00 0.216
343.10 0.2164
343.20 0.2168
343.30 0.2172
343.40 0.2175
343.50 0.2179
343.60 0.2183
343.70 0.2186
343.80 0.219
343.90 0.2194
344.00 0.2198
344.10 0.2202
344.20 0.2205
344.30 0.2209
344.40 0.2213
344.50 0.2217
344.60 0.2221
344.70 0.2225
344.80 0.2228
344.90 0.2232
345.00 0.2236
345.10 0.224
345.20 0.2244
345.30 0.2248
345.40 0.2251
345.50 0.2255
345.60 0.2259
345.70 0.2263
345.80 0.2267
345.90 0.227
346.00 0.2274
346.10 0.2278
346.20 0.2282
346.30 0.2286
346.40 0.229
346.50 0.2294
346.60 0.2298
346.70 0.2302
346.80 0.2306
346.90 0.2309
347.00 0.2313
347.10 0.2317
347.20 0.2321
347.30 0.2325
347.40 0.2329
347.50 0.2333
347.60 0.2337
347.70 0.234
347.80 0.2344
347.90 0.2348
348.00 0.2352
348.10 0.2356
348.20 0.236
348.30 0.2364
348.40 0.2368
348.50 0.2372
348.60 0.2376
348.70 0.238
348.80 0.2384
348.90 0.2388
349.00 0.2392
349.10 0.2396
349.20 0.24
349.30 0.2404
349.40 0.2408
349.50 0.2412
349.60 0.2415
349.70 0.2419
349.80 0.2423
349.90 0.2427
350.00 0.2431
350.10 0.2435
350.20 0.2439
350.30 0.2443
350.40 0.2447
350.50 0.2451
350.60 0.2455
350.70 0.2459
350.80 0.2463
350.90 0.2467
351.00 0.2471
351.10 0.2476
351.20 0.248
351.30 0.2484
351.40 0.2488
351.50 0.2492
351.60 0.2495
351.70 0.2499
351.80 0.2503
351.90 0.2507
352.00 0.2511
352.10 0.2516
352.20 0.252
352.30 0.2524
352.40 0.2528
352.50 0.2532
352.60 0.2536
352.70 0.254
352.80 0.2544
352.90 0.2548
353.00 0.2552
353.10 0.2556
353.20 0.2561
353.30 0.2565
353.40 0.2569
353.50 0.2573
353.60 0.2577
353.70 0.2581
353.80 0.2585
353.90 0.2589
354.00 0.2593
354.10 0.2597
354.20 0.2601
354.30 0.2605
354.40 0.261
354.50 0.2614
354.60 0.2618
354.70 0.2622
354.80 0.2626
354.90 0.263
355.00 0.2635
355.10 0.2639
355.20 0.2643
355.30 0.2647
355.40 0.2651
355.50 0.2655
355.60 0.2659
355.70 0.2663
355.80 0.2667
355.90 0.2672
356.00 0.2676
356.10 0.268
356.20 0.2684
356.30 0.2688
356.40 0.2693
356.50 0.2697
356.60 0.2701
356.70 0.2705
356.80 0.2709
356.90 0.2714
357.00 0.2718
357.10 0.2722
357.20 0.2726
357.30 0.273
357.40 0.2735
357.50 0.2739
357.60 0.2743
357.70 0.2747
357.80 0.2751
357.90 0.2755
358.00 0.276
358.10 0.2764
358.20 0.2768
358.30 0.2772
358.40 0.2777
358.50 0.2781
358.60 0.2785
358.70 0.2789
358.80 0.2794
358.90 0.2798
359.00 0.2802
359.10 0.2807
359.20 0.2811
359.30 0.2815
359.40 0.2819
359.50 0.2823
359.60 0.2828
359.70 0.2832
359.80 0.2836
359.90 0.284
360.00 0.2844
360.10 0.2849
360.20 0.2853
360.30 0.2858
360.40 0.2862
360.50 0.2866
360.60 0.2871
360.70 0.2875
360.80 0.2879
360.90 0.2883
361.00 0.2888
361.10 0.2892
361.20 0.2896
361.30 0.2901
361.40 0.2905
361.50 0.2909
361.60 0.2914
361.70 0.2918
361.80 0.2922
361.90 0.2926
362.00 0.2931
362.10 0.2935
362.20 0.2939
362.30 0.2944
362.40 0.2948
362.50 0.2952
362.60 0.2957
362.70 0.2961
362.80 0.2965
362.90 0.297
363.00 0.2974
363.10 0.2978
363.20 0.2983
363.30 0.2987
363.40 0.2992
363.50 0.2996
363.60 0.3
363.70 0.3005
363.80 0.3009
363.90 0.3014
364.00 0.3018
364.10 0.3022
364.20 0.3027
364.30 0.3031
364.40 0.3035
364.50 0.304
364.60 0.3044
364.70 0.3049
364.80 0.3053
364.90 0.3058
365.00 0.3062
365.10 0.3066
365.20 0.3071
365.30 0.3075
365.40 0.308
365.50 0.3084
365.60 0.3089
365.70 0.3093
365.80 0.3097
365.90 0.3102
366.00 0.3106
366.10 0.3111
366.20 0.3115
366.30 0.312
366.40 0.3124
366.50 0.3129
366.60 0.3133
366.70 0.3138
366.80 0.3142
366.90 0.3147
367.00 0.3151
367.10 0.3155
367.20 0.316
367.30 0.3164
367.40 0.3169
367.50 0.3173
367.60 0.3178
367.70 0.3182
367.80 0.3187
367.90 0.3191
368.00 0.3195
368.10 0.32
368.20 0.3205
368.30 0.3209
368.40 0.3214
368.50 0.3218
368.60 0.3223
368.70 0.3227
368.80 0.3232
368.90 0.3236
369.00 0.3241
369.10 0.3245
369.20 0.325
369.30 0.3254
369.40 0.3259
369.50 0.3263
369.60 0.3268
369.70 0.3272
369.80 0.3277
369.90 0.3281
370.00 0.3286
370.10 0.329
370.20 0.3295
370.30 0.33
370.40 0.3304
370.50 0.3309
370.60 0.3313
370.70 0.3318
370.80 0.3323
370.90 0.3327
371.00 0.3332
371.10 0.3336
371.20 0.3341
371.30 0.3345
371.40 0.335
371.50 0.3354
371.60 0.3359
371.70 0.3363
371.80 0.3368
371.90 0.3373
372.00 0.3377
372.10 0.3382
372.20 0.3386
372.30 0.3391
372.40 0.3396
372.50 0.34
372.60 0.3405
372.70 0.341
372.80 0.3414
372.90 0.3419
373.00 0.3423
373.10 0.3428
373.20 0.3433
373.30 0.3437
373.40 0.3442
373.50 0.3446
373.60 0.3451
373.70 0.3456
373.80 0.346
373.90 0.3465
374.00 0.3469
374.10 0.3474
374.20 0.3479
374.30 0.3483
374.40 0.3488
374.50 0.3493
374.60 0.3498
374.70 0.3502
374.80 0.3507
374.90 0.3512
375.00 0.3516
375.10 0.3521
375.20 0.3526
375.30 0.353
375.40 0.3535
375.50 0.3539
375.60 0.3544
375.70 0.3549
375.80 0.3553
375.90 0.3558
376.00 0.3563
376.10 0.3567
376.20 0.3572
376.30 0.3577
376.40 0.3581
376.50 0.3586
376.60 0.3591
376.70 0.3595
376.80 0.36
376.90 0.3605
377.00 0.3609
377.10 0.3614
377.20 0.3619
377.30 0.3624
377.40 0.3628
377.50 0.3633
377.60 0.3638
377.70 0.3643
377.80 0.3647
377.90 0.3652
378.00 0.3657
378.10 0.3661
378.20 0.3666
378.30 0.3671
378.40 0.3676
378.50 0.368
378.60 0.3685
378.70 0.369
378.80 0.3695
378.90 0.3699
379.00 0.3704
379.10 0.3709
379.20 0.3714
379.30 0.3718
379.40 0.3723
379.50 0.3728
379.60 0.3733
379.70 0.3737
379.80 0.3742
379.90 0.3747
380.00 0.3752
380.10 0.3756
380.20 0.3761
380.30 0.3766
380.40 0.3771
380.50 0.3776
380.60 0.378
380.70 0.3785
380.80 0.379
380.90 0.3795
381.00 0.3799
381.10 0.3804
381.20 0.3809
381.30 0.3814
381.40 0.3819
381.50 0.3823
381.60 0.3828
381.70 0.3833
381.80 0.3838
381.90 0.3843
382.00 0.3847
382.10 0.3852
382.20 0.3857
382.30 0.3862
382.40 0.3867
382.50 0.3872
382.60 0.3876
382.70 0.3881
382.80 0.3886
382.90 0.3891
383.00 0.3896
383.10 0.3901
383.20 0.3905
383.30 0.391
383.40 0.3915
383.50 0.392
383.60 0.3925
383.70 0.393
383.80 0.3934
383.90 0.3939
384.00 0.3944
384.10 0.3949
384.20 0.3954
384.30 0.3959
384.40 0.3964
384.50 0.3968
384.60 0.3973
384.70 0.3978
384.80 0.3983
384.90 0.3988
385.00 0.3993
385.10 0.3998
385.20 0.4002
385.30 0.4007
385.40 0.4012
385.50 0.4017
385.60 0.4022
385.70 0.4027
385.80 0.4032
385.90 0.4037
386.00 0.4042
386.10 0.4046
386.20 0.4051
386.30 0.4056
386.40 0.4061
386.50 0.4066
386.60 0.4071
386.70 0.4076
386.80 0.4081
386.90 0.4086
387.00 0.4091
387.10 0.4095
387.20 0.41
387.30 0.4105
387.40 0.411
387.50 0.4115
387.60 0.412
387.70 0.4125
387.80 0.413
387.90 0.4135
388.00 0.414
388.10 0.4145
388.20 0.415
388.30 0.4155
388.40 0.4159
388.50 0.4164
388.60 0.4169
388.70 0.4174
388.80 0.4179
388.90 0.4184
389.00 0.4189
389.10 0.4194
389.20 0.4199
389.30 0.4204
389.40 0.4209
389.50 0.4214
389.60 0.4219
389.70 0.4224
389.80 0.4229
389.90 0.4234
390.00 0.4239
390.10 0.4244
390.20 0.4249
390.30 0.4254
390.40 0.4259
390.50 0.4264
390.60 0.4268
390.70 0.4273
390.80 0.4278
390.90 0.4283
391.00 0.4288
391.10 0.4293
391.20 0.4298
391.30 0.4303
391.40 0.4308
391.50 0.4313
391.60 0.4318
391.70 0.4323
391.80 0.4328
391.90 0.4333
392.00 0.4338
392.10 0.4343
392.20 0.4348
392.30 0.4353
392.40 0.4358
392.50 0.4363
392.60 0.4368
392.70 0.4373
392.80 0.4378
392.90 0.4383
393.00 0.4388
393.10 0.4393
393.20 0.4398
393.30 0.4403
393.40 0.4409
393.50 0.4414
393.60 0.4418
393.70 0.4423
393.80 0.4429
393.90 0.4434
394.00 0.4439
394.10 0.4444
394.20 0.4449
394.30 0.4454
394.40 0.4459
394.50 0.4464
394.60 0.4469
394.70 0.4474
394.80 0.4479
394.90 0.4484
395.00 0.4489
395.10 0.4494
395.20 0.4499
395.30 0.4504
395.40 0.4509
395.50 0.4514
395.60 0.4519
395.70 0.4524
395.80 0.4529
395.90 0.4535
396.00 0.454
396.10 0.4545
396.20 0.455
396.30 0.4555
396.40 0.456
396.50 0.4565
396.60 0.457
396.70 0.4575
396.80 0.458
396.90 0.4585
397.00 0.459
397.10 0.4595
397.20 0.46
397.30 0.4606
397.40 0.4611
397.50 0.4616
397.60 0.4621
397.70 0.4626
397.80 0.4631
397.90 0.4636
398.00 0.4641
398.10 0.4646
398.20 0.4651
398.30 0.4656
398.40 0.4661
398.50 0.4667
398.60 0.4672
398.70 0.4677
398.80 0.4682
398.90 0.4687
399.00 0.4692
399.10 0.4697
399.20 0.4702
399.30 0.4707
399.40 0.4713
399.50 0.4718
399.60 0.4723
399.70 0.4728
399.80 0.4733
399.90 0.4738
400.00 0.4743
400.10 0.4749
400.20 0.4754
400.30 0.4759
400.40 0.4764
400.50 0.4769
400.60 0.4774
400.70 0.4779
400.80 0.4784
400.90 0.4789
401.00 0.4794
401.10 0.48
401.20 0.4805
401.30 0.481
401.40 0.4815
401.50 0.482
401.60 0.4826
401.70 0.4831
401.80 0.4836
401.90 0.4841
402.00 0.4846
402.10 0.4851
402.20 0.4856
402.30 0.4861
402.40 0.4867
402.50 0.4872
402.60 0.4877
402.70 0.4882
402.80 0.4887
402.90 0.4892
403.00 0.4897
403.10 0.4903
403.20 0.4908
403.30 0.4913
403.40 0.4918
403.50 0.4923
403.60 0.4929
403.70 0.4934
403.80 0.4939
403.90 0.4944
404.00 0.4949
404.10 0.4954
404.20 0.496
404.30 0.4965
404.40 0.497
404.50 0.4975
404.60 0.498
404.70 0.4986
404.80 0.4991
404.90 0.4996
405.00 0.5001
405.10 0.5006
405.20 0.5011
405.30 0.5017
405.40 0.5022
405.50 0.5027
405.60 0.5032
405.70 0.5037
405.80 0.5043
405.90 0.5048
406.00 0.5053
406.10 0.5058
406.20 0.5063
406.30 0.5069
406.40 0.5074
406.50 0.5079
406.60 0.5084
406.70 0.509
406.80 0.5095
406.90 0.51
407.00 0.5105
407.10 0.511
407.20 0.5116
407.30 0.5121
407.40 0.5126
407.50 0.5131
407.60 0.5136
407.70 0.5141
407.80 0.5147
407.90 0.5152
408.00 0.5157
408.10 0.5162
408.20 0.5167
408.30 0.5173
408.40 0.5178
408.50 0.5183
408.60 0.5189
408.70 0.5194
408.80 0.5199
408.90 0.5204
409.00 0.5209
409.10 0.5215
409.20 0.522
409.30 0.5225
409.40 0.523
409.50 0.5236
409.60 0.5241
409.70 0.5246
409.80 0.5251
409.90 0.5256
410.00 0.5262
410.10 0.5267
410.20 0.5273
410.30 0.5278
410.40 0.5283
410.50 0.5288
410.60 0.5293
410.70 0.5298
410.80 0.5304
410.90 0.5309
411.00 0.5314
411.10 0.532
411.20 0.5325
411.30 0.533
411.40 0.5335
411.50 0.5341
411.60 0.5346
411.70 0.5351
411.80 0.5356
411.90 0.5362
412.00 0.5367
412.10 0.5372
412.20 0.5377
412.30 0.5383
412.40 0.5388
412.50 0.5393
412.60 0.5399
412.70 0.5404
412.80 0.5409
412.90 0.5414
413.00 0.542
413.10 0.5425
413.20 0.543
413.30 0.5435
413.40 0.5441
413.50 0.5446
413.60 0.5451
413.70 0.5457
413.80 0.5462
413.90 0.5467
414.00 0.5472
414.10 0.5478
414.20 0.5483
414.30 0.5488
414.40 0.5493
414.50 0.5499
414.60 0.5504
414.70 0.5509
414.80 0.5515
414.90 0.552
415.00 0.5525
415.10 0.553
415.20 0.5536
415.30 0.5541
415.40 0.5546
415.50 0.5552
415.60 0.5557
415.70 0.5562
415.80 0.5568
415.90 0.5573
416.00 0.5578
416.10 0.5583
416.20 0.5589
416.30 0.5594
416.40 0.5599
416.50 0.5605
416.60 0.561
416.70 0.5615
416.80 0.5621
416.90 0.5626
417.00 0.5631
417.10 0.5636
417.20 0.5642
417.30 0.5647
417.40 0.5652
417.50 0.5658
417.60 0.5663
417.70 0.5668
417.80 0.5674
417.90 0.5679
418.00 0.5684
418.10 0.5689
418.20 0.5695
418.30 0.57
418.40 0.5706
418.50 0.5711
418.60 0.5716
418.70 0.5721
418.80 0.5727
418.90 0.5732
419.00 0.5738
419.10 0.5743
419.20 0.5748
419.30 0.5753
419.40 0.5759
419.50 0.5764
419.60 0.5769
419.70 0.5775
419.80 0.578
419.90 0.5785
420.00 0.5791
420.10 0.5796
420.20 0.5801
420.30 0.5807
420.40 0.5812
420.50 0.5817
420.60 0.5823
420.70 0.5828
420.80 0.5833
420.90 0.5839
421.00 0.5844
421.10 0.5849
421.20 0.5855
421.30 0.586
421.40 0.5865
421.50 0.5871
421.60 0.5876
421.70 0.5881
421.80 0.5887
421.90 0.5892
422.00 0.5897
422.10 0.5903
422.20 0.5908
422.30 0.5913
422.40 0.5919
422.50 0.5924
422.60 0.593
422.70 0.5935
422.80 0.594
422.90 0.5945
423.00 0.5951
423.10 0.5956
423.20 0.5962
423.30 0.5967
423.40 0.5972
423.50 0.5978
423.60 0.5983
423.70 0.5988
423.80 0.5994
423.90 0.5999
424.00 0.6004
424.10 0.601
424.20 0.6015
424.30 0.602
424.40 0.6026
424.50 0.6031
424.60 0.6036
424.70 0.6042
424.80 0.6047
424.90 0.6053
425.00 0.6058
425.10 0.6063
425.20 0.6069
425.30 0.6074
425.40 0.6079
425.50 0.6084
425.60 0.609
425.70 0.6095
425.80 0.6101
425.90 0.6106
426.00 0.6111
426.10 0.6117
426.20 0.6122
426.30 0.6127
426.40 0.6133
426.50 0.6138
426.60 0.6144
426.70 0.6149
426.80 0.6154
426.90 0.616
427.00 0.6165
427.10 0.6171
427.20 0.6176
427.30 0.6181
427.40 0.6187
427.50 0.6192
427.60 0.6197
427.70 0.6203
427.80 0.6208
427.90 0.6214
428.00 0.6219
428.10 0.6224
428.20 0.623
428.30 0.6235
428.40 0.624
428.50 0.6246
428.60 0.6251
428.70 0.6256
428.80 0.6262
428.90 0.6267
429.00 0.6272
429.10 0.6278
429.20 0.6283
429.30 0.6289
429.40 0.6294
429.50 0.6299
429.60 0.6305
429.70 0.631
429.80 0.6316
429.90 0.6321
430.00 0.6326
430.10 0.6332
430.20 0.6337
430.30 0.6342
430.40 0.6348
430.50 0.6353
430.60 0.6359
430.70 0.6364
430.80 0.6369
430.90 0.6375
431.00 0.638
431.10 0.6385
431.20 0.6391
431.30 0.6396
431.40 0.6402
431.50 0.6407
431.60 0.6412
431.70 0.6418
431.80 0.6423
431.90 0.6428
432.00 0.6434
432.10 0.6439
432.20 0.6445
432.30 0.645
432.40 0.6455
432.50 0.6461
432.60 0.6466
432.70 0.6472
432.80 0.6477
432.90 0.6482
433.00 0.6488
433.10 0.6493
433.20 0.6499
433.30 0.6504
433.40 0.6509
433.50 0.6515
433.60 0.652
433.70 0.6526
433.80 0.6531
433.90 0.6536
434.00 0.6542
434.10 0.6547
434.20 0.6552
434.30 0.6558
434.40 0.6563
434.50 0.6569
434.60 0.6574
434.70 0.6579
434.80 0.6585
434.90 0.659
435.00 0.6596
435.10 0.6601
435.20 0.6606
435.30 0.6612
435.40 0.6617
435.50 0.6623
435.60 0.6628
435.70 0.6633
435.80 0.6639
435.90 0.6644
436.00 0.665
436.10 0.6655
436.20 0.666
436.30 0.6666
436.40 0.6671
436.50 0.6676
436.60 0.6682
436.70 0.6687
436.80 0.6692
436.90 0.6698
437.00 0.6703
437.10 0.6709
437.20 0.6714
437.30 0.6719
437.40 0.6725
437.50 0.673
437.60 0.6736
437.70 0.6741
437.80 0.6746
437.90 0.6752
438.00 0.6757
438.10 0.6763
438.20 0.6768
438.30 0.6773
438.40 0.6779
438.50 0.6784
438.60 0.679
438.70 0.6795
438.80 0.68
438.90 0.6806
439.00 0.6811
439.10 0.6817
439.20 0.6822
439.30 0.6827
439.40 0.6833
439.50 0.6838
439.60 0.6843
439.70 0.6849
439.80 0.6854
439.90 0.686
440.00 0.6865
440.10 0.687
440.20 0.6876
440.30 0.6881
440.40 0.6887
440.50 0.6892
440.60 0.6898
440.70 0.6903
440.80 0.6908
440.90 0.6914
441.00 0.6919
441.10 0.6925
441.20 0.693
441.30 0.6935
441.40 0.694
441.50 0.6946
441.60 0.6951
441.70 0.6957
441.80 0.6962
441.90 0.6968
442.00 0.6973
442.10 0.6978
442.20 0.6984
442.30 0.6989
442.40 0.6994
442.50 0.7
442.60 0.7005
442.70 0.7011
442.80 0.7016
442.90 0.7021
443.00 0.7027
443.10 0.7032
443.20 0.7038
443.30 0.7043
443.40 0.7049
443.50 0.7054
443.60 0.7059
443.70 0.7065
443.80 0.707
443.90 0.7075
444.00 0.7081
444.10 0.7086
444.20 0.7092
444.30 0.7097
444.40 0.7102
444.50 0.7108
444.60 0.7113
444.70 0.7119
444.80 0.7124
444.90 0.7129
445.00 0.7135
445.10 0.714
445.20 0.7146
445.30 0.7151
445.40 0.7156
445.50 0.7162
445.60 0.7167
445.70 0.7172
445.80 0.7178
445.90 0.7183
446.00 0.7189
446.10 0.7194
446.20 0.7199
446.30 0.7205
446.40 0.721
446.50 0.7216
446.60 0.7221
446.70 0.7226
446.80 0.7232
446.90 0.7237
447.00 0.7242
447.10 0.7248
447.20 0.7253
447.30 0.7259
447.40 0.7264
447.50 0.7269
447.60 0.7275
447.70 0.728
447.80 0.7285
447.90 0.7291
448.00 0.7296
448.10 0.7302
448.20 0.7307
448.30 0.7312
448.40 0.7318
448.50 0.7323
448.60 0.7329
448.70 0.7334
448.80 0.734
448.90 0.7345
449.00 0.735
449.10 0.7356
449.20 0.7361
449.30 0.7366
449.40 0.7372
449.50 0.7377
449.60 0.7382
449.70 0.7388
449.80 0.7393
449.90 0.7399
450.00 0.7404
450.10 0.7409
450.20 0.7415
450.30 0.742
450.40 0.7426
450.50 0.7431
450.60 0.7436
450.70 0.7442
450.80 0.7447
450.90 0.7452
451.00 0.7458
451.10 0.7463
451.20 0.7469
451.30 0.7474
451.40 0.7479
451.50 0.7485
451.60 0.749
451.70 0.7495
451.80 0.7501
451.90 0.7506
452.00 0.7511
452.10 0.7517
452.20 0.7522
452.30 0.7528
452.40 0.7533
452.50 0.7538
452.60 0.7544
452.70 0.7549
452.80 0.7554
452.90 0.756
453.00 0.7565
453.10 0.7571
453.20 0.7576
453.30 0.7581
453.40 0.7587
453.50 0.7592
453.60 0.7597
453.70 0.7603
453.80 0.7608
453.90 0.7613
454.00 0.7619
454.10 0.7624
454.20 0.763
454.30 0.7635
454.40 0.764
454.50 0.7646
454.60 0.7651
454.70 0.7656
454.80 0.7662
454.90 0.7667
455.00 0.7672
455.10 0.7678
455.20 0.7683
455.30 0.7688
455.40 0.7694
455.50 0.7699
455.60 0.7705
455.70 0.771
455.80 0.7715
455.90 0.7721
456.00 0.7726
456.10 0.7732
456.20 0.7737
456.30 0.7742
456.40 0.7748
456.50 0.7753
456.60 0.7758
456.70 0.7764
456.80 0.7769
456.90 0.7774
457.00 0.778
457.10 0.7785
457.20 0.779
457.30 0.7796
457.40 0.7801
457.50 0.7806
457.60 0.7812
457.70 0.7817
457.80 0.7823
457.90 0.7828
458.00 0.7833
458.10 0.7839
458.20 0.7844
458.30 0.7849
458.40 0.7854
458.50 0.786
458.60 0.7865
458.70 0.7871
458.80 0.7876
458.90 0.7881
459.00 0.7887
459.10 0.7892
459.20 0.7897
459.30 0.7903
459.40 0.7908
459.50 0.7913
459.60 0.7919
459.70 0.7924
459.80 0.7929
459.90 0.7935
460.00 0.794
460.10 0.7945
460.20 0.7951
460.30 0.7956
460.40 0.7961
460.50 0.7966
460.60 0.7972
460.70 0.7977
460.80 0.7982
460.90 0.7988
461.00 0.7993
461.10 0.7998
461.20 0.8004
461.30 0.8009
461.40 0.8014
461.50 0.802
461.60 0.8025
461.70 0.803
461.80 0.8036
461.90 0.8041
462.00 0.8046
462.10 0.8052
462.20 0.8057
462.30 0.8062
462.40 0.8068
462.50 0.8073
462.60 0.8078
462.70 0.8084
462.80 0.8089
462.90 0.8094
463.00 0.81
463.10 0.8105
463.20 0.811
463.30 0.8116
463.40 0.8121
463.50 0.8126
463.60 0.8131
463.70 0.8137
463.80 0.8142
463.90 0.8147
464.00 0.8153
464.10 0.8158
464.20 0.8163
464.30 0.8169
464.40 0.8174
464.50 0.8179
464.60 0.8185
464.70 0.819
464.80 0.8195
464.90 0.82
465.00 0.8206
465.10 0.8211
465.20 0.8216
465.30 0.8222
465.40 0.8227
465.50 0.8232
465.60 0.8238
465.70 0.8243
465.80 0.8248
465.90 0.8253
466.00 0.8259
466.10 0.8264
466.20 0.8269
466.30 0.8275
466.40 0.828
466.50 0.8285
466.60 0.8291
466.70 0.8296
466.80 0.8301
466.90 0.8306
467.00 0.8312
467.10 0.8317
467.20 0.8322
467.30 0.8328
467.40 0.8333
467.50 0.8338
467.60 0.8343
467.70 0.8349
467.80 0.8354
467.90 0.8359
468.00 0.8365
468.10 0.837
468.20 0.8375
468.30 0.838
468.40 0.8386
468.50 0.8391
468.60 0.8396
468.70 0.8401
468.80 0.8407
468.90 0.8412
469.00 0.8417
469.10 0.8422
469.20 0.8428
469.30 0.8433
469.40 0.8438
469.50 0.8444
469.60 0.8449
469.70 0.8454
469.80 0.8459
469.90 0.8465
470.00 0.847
470.10 0.8475
470.20 0.848
470.30 0.8486
470.40 0.8491
470.50 0.8496
470.60 0.8502
470.70 0.8507
470.80 0.8512
470.90 0.8517
471.00 0.8523
471.10 0.8528
471.20 0.8533
471.30 0.8538
471.40 0.8544
471.50 0.8549
471.60 0.8554
471.70 0.8559
471.80 0.8565
471.90 0.857
472.00 0.8575
472.10 0.858
472.20 0.8585
472.30 0.8591
472.40 0.8596
472.50 0.8601
472.60 0.8606
472.70 0.8612
472.80 0.8617
472.90 0.8622
473.00 0.8627
473.10 0.8633
473.20 0.8638
473.30 0.8643
473.40 0.8648
473.50 0.8654
473.60 0.8659
473.70 0.8664
473.80 0.8669
473.90 0.8674
474.00 0.868
474.10 0.8685
474.20 0.869
474.30 0.8695
474.40 0.8701
474.50 0.8706
474.60 0.8711
474.70 0.8716
474.80 0.8721
474.90 0.8727
475.00 0.8732
475.10 0.8737
475.20 0.8742
475.30 0.8747
475.40 0.8753
475.50 0.8758
475.60 0.8763
475.70 0.8768
475.80 0.8774
475.90 0.8779
476.00 0.8784
476.10 0.8789
476.20 0.8794
476.30 0.88
476.40 0.8805
476.50 0.881
476.60 0.8815
476.70 0.882
476.80 0.8826
476.90 0.8831
477.00 0.8836
477.10 0.8841
477.20 0.8846
477.30 0.8852
477.40 0.8857
477.50 0.8862
477.60 0.8867
477.70 0.8872
477.80 0.8877
477.90 0.8883
478.00 0.8888
478.10 0.8893
478.20 0.8898
478.30 0.8903
478.40 0.8909
478.50 0.8914
478.60 0.8919
478.70 0.8924
478.80 0.8929
478.90 0.8934
479.00 0.894
479.10 0.8945
479.20 0.895
479.30 0.8955
479.40 0.896
479.50 0.8966
479.60 0.8971
479.70 0.8976
479.80 0.8981
479.90 0.8986
480.00 0.8991
480.10 0.8997
480.20 0.9002
480.30 0.9007
480.40 0.9012
480.50 0.9017
480.60 0.9022
480.70 0.9028
480.80 0.9033
480.90 0.9038
481.00 0.9043
481.10 0.9048
481.20 0.9053
481.30 0.9058
481.40 0.9064
481.50 0.9069
481.60 0.9074
481.70 0.9079
481.80 0.9084
481.90 0.9089
482.00 0.9094
482.10 0.91
482.20 0.9105
482.30 0.911
482.40 0.9115
482.50 0.912
482.60 0.9125
482.70 0.913
482.80 0.9136
482.90 0.9141
483.00 0.9146
483.10 0.9151
483.20 0.9156
483.30 0.9161
483.40 0.9166
483.50 0.9171
483.60 0.9177
483.70 0.9182
483.80 0.9187
483.90 0.9192
484.00 0.9197
484.10 0.9202
484.20 0.9207
484.30 0.9212
484.40 0.9218
484.50 0.9223
484.60 0.9228
484.70 0.9233
484.80 0.9238
484.90 0.9243
485.00 0.9248
485.10 0.9253
485.20 0.9258
485.30 0.9264
485.40 0.9269
485.50 0.9274
485.60 0.9279
485.70 0.9284
485.80 0.9289
485.90 0.9294
486.00 0.9299
486.10 0.9304
486.20 0.9309
486.30 0.9314
486.40 0.932
486.50 0.9325
486.60 0.933
486.70 0.9335
486.80 0.934
486.90 0.9345
487.00 0.935
487.10 0.9355
487.20 0.936
487.30 0.9365
487.40 0.937
487.50 0.9375
487.60 0.9381
487.70 0.9386
487.80 0.9391
487.90 0.9396
488.00 0.9401
488.10 0.9406
488.20 0.9411
488.30 0.9416
488.40 0.9421
488.50 0.9426
488.60 0.9431
488.70 0.9436
488.80 0.9441
488.90 0.9447
489.00 0.9452
489.10 0.9457
489.20 0.9462
489.30 0.9467
489.40 0.9472
489.50 0.9477
489.60 0.9482
489.70 0.9487
489.80 0.9492
489.90 0.9497
490.00 0.9502
490.10 0.9507
490.20 0.9512
490.30 0.9517
490.40 0.9522
490.50 0.9527
490.60 0.9532
490.70 0.9537
490.80 0.9542
490.90 0.9547
491.00 0.9552
491.10 0.9557
491.20 0.9562
491.30 0.9567
491.40 0.9573
491.50 0.9578
491.60 0.9583
491.70 0.9588
491.80 0.9593
491.90 0.9598
492.00 0.9603
492.10 0.9608
492.20 0.9613
492.30 0.9618
492.40 0.9623
492.50 0.9628
492.60 0.9633
492.70 0.9638
492.80 0.9643
492.90 0.9648
493.00 0.9653
493.10 0.9658
493.20 0.9663
493.30 0.9668
493.40 0.9673
493.50 0.9678
493.60 0.9683
493.70 0.9688
493.80 0.9693
493.90 0.9698
494.00 0.9703
494.10 0.9708
494.20 0.9713
494.30 0.9718
494.40 0.9723
494.50 0.9728
494.60 0.9733
494.70 0.9738
494.80 0.9743
494.90 0.9748
495.00 0.9753
495.10 0.9758
495.20 0.9763
495.30 0.9768
495.40 0.9773
495.50 0.9778
495.60 0.9783
495.70 0.9788
495.80 0.9793
495.90 0.9798
496.00 0.9803
496.10 0.9808
496.20 0.9812
496.30 0.9817
496.40 0.9822
496.50 0.9827
496.60 0.9832
496.70 0.9837
496.80 0.9842
496.90 0.9847
497.00 0.9852
497.10 0.9857
497.20 0.9862
497.30 0.9867
497.40 0.9872
497.50 0.9877
497.60 0.9882
497.70 0.9887
497.80 0.9892
497.90 0.9897
498.00 0.9901
498.10 0.9906
498.20 0.9911
498.30 0.9916
498.40 0.9921
498.50 0.9926
498.60 0.9931
498.70 0.9936
498.80 0.9941
498.90 0.9946
499.00 0.9951
499.10 0.9956
499.20 0.9961
499.30 0.9965
499.40 0.997
499.50 0.9975
499.60 0.998
499.70 0.9985
499.80 0.999
499.90 0.9995
500.00 1
500.10 1
500.20 1.001
500.30 1.001
500.40 1.002
500.50 1.002
500.60 1.003
500.70 1.003
500.80 1.004
500.90 1.004
501.00 1.005
501.10 1.005
501.20 1.006
501.30 1.006
501.40 1.007
501.50 1.007
501.60 1.008
501.70 1.008
501.80 1.009
501.90 1.009
502.00 1.01
502.10 1.01
502.20 1.011
502.30 1.011
502.40 1.012
502.50 1.012
502.60 1.013
502.70 1.013
502.80 1.014
502.90 1.014
503.00 1.015
503.10 1.015
503.20 1.016
503.30 1.016
503.40 1.017
503.50 1.017
503.60 1.018
503.70 1.018
503.80 1.019
503.90 1.019
504.00 1.02
504.10 1.02
504.20 1.02
504.30 1.021
504.40 1.021
504.50 1.022
504.60 1.022
504.70 1.023
504.80 1.023
504.90 1.024
505.00 1.024
505.10 1.025
505.20 1.025
505.30 1.026
505.40 1.026
505.50 1.027
505.60 1.027
505.70 1.028
505.80 1.028
505.90 1.029
506.00 1.029
506.10 1.03
506.20 1.03
506.30 1.031
506.40 1.031
506.50 1.032
506.60 1.032
506.70 1.033
506.80 1.033
506.90 1.033
507.00 1.034
507.10 1.034
507.20 1.035
507.30 1.035
507.40 1.036
507.50 1.036
507.60 1.037
507.70 1.037
507.80 1.038
507.90 1.038
508.00 1.039
508.10 1.039
508.20 1.04
508.30 1.04
508.40 1.041
508.50 1.041
508.60 1.042
508.70 1.042
508.80 1.043
508.90 1.043
509.00 1.044
509.10 1.044
509.20 1.044
509.30 1.045
509.40 1.045
509.50 1.046
509.60 1.046
509.70 1.047
509.80 1.047
509.90 1.048
510.00 1.048
510.10 1.049
510.20 1.049
510.30 1.05
510.40 1.05
510.50 1.051
510.60 1.051
510.70 1.052
510.80 1.052
510.90 1.053
511.00 1.053
511.10 1.053
511.20 1.054
511.30 1.054
511.40 1.055
511.50 1.055
511.60 1.056
511.70 1.056
511.80 1.057
511.90 1.057
512.00 1.058
512.10 1.058
512.20 1.059
512.30 1.059
512.40 1.06
512.50 1.06
512.60 1.061
512.70 1.061
512.80 1.062
512.90 1.062
513.00 1.062
513.10 1.063
513.20 1.063
513.30 1.064
513.40 1.064
513.50 1.065
513.60 1.065
513.70 1.066
513.80 1.066
513.90 1.067
514.00 1.067
514.10 1.068
514.20 1.068
514.30 1.069
514.40 1.069
514.50 1.07
514.60 1.07
514.70 1.07
514.80 1.071
514.90 1.071
515.00 1.072
515.10 1.072
515.20 1.073
515.30 1.073
515.40 1.074
515.50 1.074
515.60 1.075
515.70 1.075
515.80 1.076
515.90 1.076
516.00 1.076
516.10 1.077
516.20 1.077
516.30 1.078
516.40 1.078
516.50 1.079
516.60 1.079
516.70 1.08
516.80 1.08
516.90 1.081
517.00 1.081
517.10 1.082
517.20 1.082
517.30 1.083
517.40 1.083
517.50 1.083
517.60 1.084
517.70 1.084
517.80 1.085
517.90 1.085
518.00 1.086
518.10 1.086
518.20 1.087
518.30 1.087
518.40 1.088
518.50 1.088
518.60 1.089
518.70 1.089
518.80 1.089
518.90 1.09
519.00 1.09
519.10 1.091
519.20 1.091
519.30 1.092
519.40 1.092
519.50 1.093
519.60 1.093
519.70 1.094
519.80 1.094
519.90 1.094
520.00 1.095
520.10 1.095
520.20 1.096
520.30 1.096
520.40 1.097
520.50 1.097
520.60 1.098
520.70 1.098
520.80 1.099
520.90 1.099
521.00 1.1
521.10 1.1
521.20 1.1
521.30 1.101
521.40 1.101
521.50 1.102
521.60 1.102
521.70 1.103
521.80 1.103
521.90 1.104
522.00 1.104
522.10 1.105
522.20 1.105
522.30 1.105
522.40 1.106
522.50 1.106
522.60 1.107
522.70 1.107
522.80 1.108
522.90 1.108
523.00 1.109
523.10 1.109
523.20 1.11
523.30 1.11
523.40 1.11
523.50 1.111
523.60 1.111
523.70 1.112
523.80 1.112
523.90 1.113
524.00 1.113
524.10 1.114
524.20 1.114
524.30 1.114
524.40 1.115
524.50 1.115
524.60 1.116
524.70 1.116
524.80 1.117
524.90 1.117
525.00 1.118
525.10 1.118
525.20 1.119
525.30 1.119
525.40 1.119
525.50 1.12
525.60 1.12
525.70 1.121
525.80 1.121
525.90 1.122
526.00 1.122
526.10 1.123
526.20 1.123
526.30 1.123
526.40 1.124
526.50 1.124
526.60 1.125
526.70 1.125
526.80 1.126
526.90 1.126
527.00 1.127
527.10 1.127
527.20 1.127
527.30 1.128
527.40 1.128
527.50 1.129
527.60 1.129
527.70 1.13
527.80 1.13
527.90 1.131
528.00 1.131
528.10 1.131
528.20 1.132
528.30 1.132
528.40 1.133
528.50 1.133
528.60 1.134
528.70 1.134
528.80 1.135
528.90 1.135
529.00 1.135
529.10 1.136
529.20 1.136
529.30 1.137
529.40 1.137
529.50 1.138
529.60 1.138
529.70 1.139
529.80 1.139
529.90 1.139
530.00 1.14
530.10 1.14
530.20 1.141
530.30 1.141
530.40 1.142
530.50 1.142
530.60 1.142
530.70 1.143
530.80 1.143
530.90 1.144
531.00 1.144
531.10 1.145
531.20 1.145
531.30 1.146
531.40 1.146
531.50 1.146
531.60 1.147
531.70 1.147
531.80 1.148
531.90 1.148
532.00 1.149
532.10 1.149
532.20 1.149
532.30 1.15
532.40 1.15
532.50 1.151
532.60 1.151
532.70 1.152
532.80 1.152
532.90 1.153
533.00 1.153
533.10 1.153
533.20 1.154
533.30 1.154
533.40 1.155
533.50 1.155
533.60 1.156
533.70 1.156
533.80 1.156
533.90 1.157
534.00 1.157
534.10 1.158
534.20 1.158
534.30 1.159
534.40 1.159
534.50 1.159
534.60 1.16
534.70 1.16
534.80 1.161
534.90 1.161
535.00 1.162
535.10 1.162
535.20 1.162
535.30 1.163
535.40 1.163
535.50 1.164
535.60 1.164
535.70 1.165
535.80 1.165
535.90 1.165
536.00 1.166
536.10 1.166
536.20 1.167
536.30 1.167
536.40 1.168
536.50 1.168
536.60 1.168
536.70 1.169
536.80 1.169
536.90 1.17
537.00 1.17
537.10 1.171
537.20 1.171
537.30 1.171
537.40 1.172
537.50 1.172
537.60 1.173
537.70 1.173
537.80 1.174
537.90 1.174
538.00 1.174
538.10 1.175
538.20 1.175
538.30 1.176
538.40 1.176
538.50 1.177
538.60 1.177
538.70 1.177
538.80 1.178
538.90 1.178
539.00 1.179
539.10 1.179
539.20 1.179
539.30 1.18
539.40 1.18
539.50 1.181
539.60 1.181
539.70 1.182
539.80 1.182
539.90 1.182
540.00 1.183
540.10 1.183
540.20 1.184
540.30 1.184
540.40 1.185
540.50 1.185
540.60 1.185
540.70 1.186
540.80 1.186
540.90 1.187
541.00 1.187
541.10 1.187
541.20 1.188
541.30 1.188
541.40 1.189
541.50 1.189
541.60 1.19
541.70 1.19
541.80 1.19
541.90 1.191
542.00 1.191
542.10 1.192
542.20 1.192
542.30 1.192
542.40 1.193
542.50 1.193
542.60 1.194
542.70 1.194
542.80 1.195
542.90 1.195
543.00 1.195
543.10 1.196
543.20 1.196
543.30 1.197
543.40 1.197
543.50 1.197
543.60 1.198
543.70 1.198
543.80 1.199
543.90 1.199
544.00 1.199
544.10 1.2
544.20 1.2
544.30 1.201
544.40 1.201
544.50 1.202
544.60 1.202
544.70 1.202
544.80 1.203
544.90 1.203
545.00 1.204
545.10 1.204
545.20 1.204
545.30 1.205
545.40 1.205
545.50 1.206
545.60 1.206
545.70 1.206
545.80 1.207
545.90 1.207
546.00 1.208
546.10 1.208
546.20 1.208
546.30 1.209
546.40 1.209
546.50 1.21
546.60 1.21
546.70 1.211
546.80 1.211
546.90 1.211
547.00 1.212
547.10 1.212
547.20 1.213
547.30 1.213
547.40 1.213
547.50 1.214
547.60 1.214
547.70 1.215
547.80 1.215
547.90 1.215
548.00 1.216
548.10 1.216
548.20 1.217
548.30 1.217
548.40 1.217
548.50 1.218
548.60 1.218
548.70 1.219
548.80 1.219
548.90 1.219
549.00 1.22
549.10 1.22
549.20 1.221
549.30 1.221
549.40 1.221
549.50 1.222
549.60 1.222
549.70 1.223
549.80 1.223
549.90 1.223
550.00 1.224
550.10 1.224
550.20 1.225
550.30 1.225
550.40 1.225
550.50 1.226
550.60 1.226
550.70 1.227
550.80 1.227
550.90 1.227
551.00 1.228
551.10 1.228
551.20 1.229
551.30 1.229
551.40 1.229
551.50 1.23
551.60 1.23
551.70 1.231
551.80 1.231
551.90 1.231
552.00 1.232
552.10 1.232
552.20 1.233
552.30 1.233
552.40 1.233
552.50 1.234
552.60 1.234
552.70 1.235
552.80 1.235
552.90 1.235
553.00 1.236
553.10 1.236
553.20 1.237
553.30 1.237
553.40 1.237
553.50 1.238
553.60 1.238
553.70 1.238
553.80 1.239
553.90 1.239
554.00 1.24
554.10 1.24
554.20 1.24
554.30 1.241
554.40 1.241
554.50 1.242
554.60 1.242
554.70 1.242
554.80 1.243
554.90 1.243
555.00 1.244
555.10 1.244
555.20 1.244
555.30 1.245
555.40 1.245
555.50 1.246
555.60 1.246
555.70 1.246
555.80 1.247
555.90 1.247
556.00 1.247
556.10 1.248
556.20 1.248
556.30 1.249
556.40 1.249
556.50 1.249
556.60 1.25
556.70 1.25
556.80 1.251
556.90 1.251
557.00 1.251
557.10 1.252
557.20 1.252
557.30 1.252
557.40 1.253
557.50 1.253
557.60 1.254
557.70 1.254
557.80 1.254
557.90 1.255
558.00 1.255
558.10 1.256
558.20 1.256
558.30 1.256
558.40 1.257
558.50 1.257
558.60 1.257
558.70 1.258
558.80 1.258
558.90 1.259
559.00 1.259
559.10 1.259
559.20 1.26
559.30 1.26
559.40 1.26
559.50 1.261
559.60 1.261
559.70 1.262
559.80 1.262
559.90 1.262
560.00 1.263
560.10 1.263
560.20 1.264
560.30 1.264
560.40 1.264
560.50 1.265
560.60 1.265
560.70 1.265
560.80 1.266
560.90 1.266
561.00 1.267
561.10 1.267
561.20 1.267
561.30 1.268
561.40 1.268
561.50 1.268
561.60 1.269
561.70 1.269
561.80 1.27
561.90 1.27
562.00 1.27
562.10 1.271
562.20 1.271
562.30 1.271
562.40 1.272
562.50 1.272
562.60 1.273
562.70 1.273
562.80 1.273
562.90 1.274
563.00 1.274
563.10 1.274
563.20 1.275
563.30 1.275
563.40 1.276
563.50 1.276
563.60 1.276
563.70 1.277
563.80 1.277
563.90 1.277
564.00 1.278
564.10 1.278
564.20 1.278
564.30 1.279
564.40 1.279
564.50 1.28
564.60 1.28
564.70 1.28
564.80 1.281
564.90 1.281
565.00 1.281
565.10 1.282
565.20 1.282
565.30 1.283
565.40 1.283
565.50 1.283
565.60 1.284
565.70 1.284
565.80 1.284
565.90 1.285
566.00 1.285
566.10 1.285
566.20 1.286
566.30 1.286
566.40 1.287
566.50 1.287
566.60 1.287
566.70 1.288
566.80 1.288
566.90 1.288
567.00 1.289
567.10 1.289
567.20 1.289
567.30 1.29
567.40 1.29
567.50 1.291
567.60 1.291
567.70 1.291
567.80 1.292
567.90 1.292
568.00 1.292
568.10 1.293
568.20 1.293
568.30 1.293
568.40 1.294
568.50 1.294
568.60 1.295
568.70 1.295
568.80 1.295
568.90 1.296
569.00 1.296
569.10 1.296
569.20 1.297
569.30 1.297
569.40 1.297
569.50 1.298
569.60 1.298
569.70 1.298
569.80 1.299
569.90 1.299
570.00 1.3
570.10 1.3
570.20 1.3
570.30 1.301
570.40 1.301
570.50 1.301
570.60 1.302
570.70 1.302
570.80 1.302
570.90 1.303
571.00 1.303
571.10 1.303
571.20 1.304
571.30 1.304
571.40 1.305
571.50 1.305
571.60 1.305
571.70 1.306
571.80 1.306
571.90 1.306
572.00 1.307
572.10 1.307
572.20 1.307
572.30 1.308
572.40 1.308
572.50 1.308
572.60 1.309
572.70 1.309
572.80 1.309
572.90 1.31
573.00 1.31
573.10 1.311
573.20 1.311
573.30 1.311
573.40 1.312
573.50 1.312
573.60 1.312
573.70 1.313
573.80 1.313
573.90 1.313
574.00 1.314
574.10 1.314
574.20 1.314
574.30 1.315
574.40 1.315
574.50 1.315
574.60 1.316
574.70 1.316
574.80 1.316
574.90 1.317
575.00 1.317
575.10 1.317
575.20 1.318
575.30 1.318
575.40 1.319
575.50 1.319
575.60 1.319
575.70 1.32
575.80 1.32
575.90 1.32
576.00 1.321
576.10 1.321
576.20 1.321
576.30 1.322
576.40 1.322
576.50 1.322
576.60 1.323
576.70 1.323
576.80 1.323
576.90 1.324
577.00 1.324
577.10 1.324
577.20 1.325
577.30 1.325
577.40 1.325
577.50 1.326
577.60 1.326
577.70 1.326
577.80 1.327
577.90 1.327
578.00 1.327
578.10 1.328
578.20 1.328
578.30 1.328
578.40 1.329
578.50 1.329
578.60 1.329
578.70 1.33
578.80 1.33
578.90 1.33
579.00 1.331
579.10 1.331
579.20 1.331
579.30 1.332
579.40 1.332
579.50 1.332
579.60 1.333
579.70 1.333
579.80 1.333
579.90 1.334
580.00 1.334
580.10 1.334
580.20 1.335
580.30 1.335
580.40 1.335
580.50 1.336
580.60 1.336
580.70 1.336
580.80 1.337
580.90 1.337
581.00 1.337
581.10 1.338
581.20 1.338
581.30 1.338
581.40 1.339
581.50 1.339
581.60 1.339
581.70 1.34
581.80 1.34
581.90 1.34
582.00 1.341
582.10 1.341
582.20 1.341
582.30 1.342
582.40 1.342
582.50 1.342
582.60 1.343
582.70 1.343
582.80 1.343
582.90 1.344
583.00 1.344
583.10 1.344
583.20 1.345
583.30 1.345
583.40 1.345
583.50 1.346
583.60 1.346
583.70 1.346
583.80 1.347
583.90 1.347
584.00 1.347
584.10 1.348
584.20 1.348
584.30 1.348
584.40 1.349
584.50 1.349
584.60 1.349
584.70 1.35
584.80 1.35
584.90 1.35
585.00 1.351
585.10 1.351
585.20 1.351
585.30 1.352
585.40 1.352
585.50 1.352
585.60 1.353
585.70 1.353
585.80 1.353
585.90 1.354
586.00 1.354
586.10 1.354
586.20 1.354
586.30 1.355
586.40 1.355
586.50 1.355
586.60 1.356
586.70 1.356
586.80 1.356
586.90 1.357
587.00 1.357
587.10 1.357
587.20 1.358
587.30 1.358
587.40 1.358
587.50 1.359
587.60 1.359
587.70 1.359
587.80 1.36
587.90 1.36
588.00 1.36
588.10 1.361
588.20 1.361
588.30 1.361
588.40 1.361
588.50 1.362
588.60 1.362
588.70 1.362
588.80 1.363
588.90 1.363
589.00 1.363
589.10 1.364
589.20 1.364
589.30 1.364
589.40 1.365
589.50 1.365
589.60 1.365
589.70 1.366
589.80 1.366
589.90 1.366
590.00 1.367
590.10 1.367
590.20 1.367
590.30 1.367
590.40 1.368
590.50 1.368
590.60 1.368
590.70 1.369
590.80 1.369
590.90 1.369
591.00 1.37
591.10 1.37
591.20 1.37
591.30 1.371
591.40 1.371
591.50 1.371
591.60 1.372
591.70 1.372
591.80 1.372
591.90 1.372
592.00 1.373
592.10 1.373
592.20 1.373
592.30 1.374
592.40 1.374
592.50 1.374
592.60 1.375
592.70 1.375
592.80 1.375
592.90 1.375
593.00 1.376
593.10 1.376
593.20 1.376
593.30 1.377
593.40 1.377
593.50 1.377
593.60 1.378
593.70 1.378
593.80 1.378
593.90 1.379
594.00 1.379
594.10 1.379
594.20 1.379
594.30 1.38
594.40 1.38
594.50 1.38
594.60 1.381
594.70 1.381
594.80 1.381
594.90 1.382
595.00 1.382
595.10 1.382
595.20 1.382
595.30 1.383
595.40 1.383
595.50 1.383
595.60 1.384
595.70 1.384
595.80 1.384
595.90 1.385
596.00 1.385
596.10 1.385
596.20 1.385
596.30 1.386
596.40 1.386
596.50 1.386
596.60 1.387
596.70 1.387
596.80 1.387
596.90 1.388
597.00 1.388
597.10 1.388
597.20 1.388
597.30 1.389
597.40 1.389
597.50 1.389
597.60 1.39
597.70 1.39
597.80 1.39
597.90 1.391
598.00 1.391
598.10 1.391
598.20 1.391
598.30 1.392
598.40 1.392
598.50 1.392
598.60 1.393
598.70 1.393
598.80 1.393
598.90 1.393
599.00 1.394
599.10 1.394
599.20 1.394
599.30 1.395
599.40 1.395
599.50 1.395
599.60 1.395
599.70 1.396
599.80 1.396
599.90 1.396
600.00 1.397
600.10 1.397
600.20 1.397
600.30 1.398
600.40 1.398
600.50 1.398
600.60 1.398
600.70 1.399
600.80 1.399
600.90 1.399
601.00 1.4
601.10 1.4
601.20 1.4
601.30 1.4
601.40 1.401
601.50 1.401
601.60 1.401
601.70 1.402
601.80 1.402
601.90 1.402
602.00 1.402
602.10 1.403
602.20 1.403
602.30 1.403
602.40 1.404
602.50 1.404
602.60 1.404
602.70 1.404
602.80 1.405
602.90 1.405
603.00 1.405
603.10 1.406
603.20 1.406
603.30 1.406
603.40 1.406
603.50 1.407
603.60 1.407
603.70 1.407
603.80 1.407
603.90 1.408
604.00 1.408
604.10 1.408
604.20 1.409
604.30 1.409
604.40 1.409
604.50 1.409
604.60 1.41
604.70 1.41
604.80 1.41
604.90 1.411
605.00 1.411
605.10 1.411
605.20 1.411
605.30 1.412
605.40 1.412
605.50 1.412
605.60 1.413
605.70 1.413
605.80 1.413
605.90 1.413
606.00 1.414
606.10 1.414
606.20 1.414
606.30 1.414
606.40 1.415
606.50 1.415
606.60 1.415
606.70 1.416
606.80 1.416
606.90 1.416
607.00 1.416
607.10 1.417
607.20 1.417
607.30 1.417
607.40 1.417
607.50 1.418
607.60 1.418
607.70 1.418
607.80 1.419
607.90 1.419
608.00 1.419
608.10 1.419
608.20 1.42
608.30 1.42
608.40 1.42
608.50 1.42
608.60 1.421
608.70 1.421
608.80 1.421
608.90 1.422
609.00 1.422
609.10 1.422
609.20 1.422
609.30 1.423
609.40 1.423
609.50 1.423
609.60 1.423
609.70 1.424
609.80 1.424
609.90 1.424
610.00 1.424
610.10 1.425
610.20 1.425
610.30 1.425
610.40 1.426
610.50 1.426
610.60 1.426
610.70 1.426
610.80 1.427
610.90 1.427
611.00 1.427
611.10 1.427
611.20 1.428
611.30 1.428
611.40 1.428
611.50 1.428
611.60 1.429
611.70 1.429
611.80 1.429
611.90 1.429
612.00 1.43
612.10 1.43
612.20 1.43
612.30 1.431
612.40 1.431
612.50 1.431
612.60 1.431
612.70 1.432
612.80 1.432
612.90 1.432
613.00 1.432
613.10 1.433
613.20 1.433
613.30 1.433
613.40 1.433
613.50 1.434
613.60 1.434
613.70 1.434
613.80 1.434
613.90 1.435
614.00 1.435
614.10 1.435
614.20 1.435
614.30 1.436
614.40 1.436
614.50 1.436
614.60 1.436
614.70 1.437
614.80 1.437
614.90 1.437
615.00 1.438
615.10 1.438
615.20 1.438
615.30 1.438
615.40 1.439
615.50 1.439
615.60 1.439
615.70 1.439
615.80 1.44
615.90 1.44
616.00 1.44
616.10 1.44
616.20 1.441
616.30 1.441
616.40 1.441
616.50 1.441
616.60 1.442
616.70 1.442
616.80 1.442
616.90 1.442
617.00 1.443
617.10 1.443
617.20 1.443
617.30 1.443
617.40 1.444
617.50 1.444
617.60 1.444
617.70 1.444
617.80 1.445
617.90 1.445
618.00 1.445
618.10 1.445
618.20 1.446
618.30 1.446
618.40 1.446
618.50 1.446
618.60 1.447
618.70 1.447
618.80 1.447
618.90 1.447
619.00 1.448
619.10 1.448
619.20 1.448
619.30 1.448
619.40 1.448
619.50 1.449
619.60 1.449
619.70 1.449
619.80 1.449
619.90 1.45
620.00 1.45
620.10 1.45
620.20 1.45
620.30 1.451
620.40 1.451
620.50 1.451
620.60 1.451
620.70 1.452
620.80 1.452
620.90 1.452
621.00 1.452
621.10 1.453
621.20 1.453
621.30 1.453
621.40 1.453
621.50 1.454
621.60 1.454
621.70 1.454
621.80 1.454
621.90 1.455
622.00 1.455
622.10 1.455
622.20 1.455
622.30 1.455
622.40 1.456
622.50 1.456
622.60 1.456
622.70 1.456
622.80 1.457
622.90 1.457
623.00 1.457
623.10 1.457
623.20 1.458
623.30 1.458
623.40 1.458
623.50 1.458
623.60 1.459
623.70 1.459
623.80 1.459
623.90 1.459
624.00 1.459
624.10 1.46
624.20 1.46
624.30 1.46
624.40 1.46
624.50 1.461
624.60 1.461
624.70 1.461
624.80 1.461
624.90 1.462
625.00 1.462
625.10 1.462
625.20 1.462
625.30 1.463
625.40 1.463
625.50 1.463
625.60 1.463
625.70 1.463
625.80 1.464
625.90 1.464
626.00 1.464
626.10 1.464
626.20 1.465
626.30 1.465
626.40 1.465
626.50 1.465
626.60 1.465
626.70 1.466
626.80 1.466
626.90 1.466
627.00 1.466
627.10 1.467
627.20 1.467
627.30 1.467
627.40 1.467
627.50 1.468
627.60 1.468
627.70 1.468
627.80 1.468
627.90 1.468
628.00 1.469
628.10 1.469
628.20 1.469
628.30 1.469
628.40 1.47
628.50 1.47
628.60 1.47
628.70 1.47
628.80 1.47
628.90 1.471
629.00 1.471
629.10 1.471
629.20 1.471
629.30 1.472
629.40 1.472
629.50 1.472
629.60 1.472
629.70 1.472
629.80 1.473
629.90 1.473
630.00 1.473
630.10 1.473
630.20 1.474
630.30 1.474
630.40 1.474
630.50 1.474
630.60 1.474
630.70 1.475
630.80 1.475
630.90 1.475
631.00 1.475
631.10 1.475
631.20 1.476
631.30 1.476
631.40 1.476
631.50 1.476
631.60 1.477
631.70 1.477
631.80 1.477
631.90 1.477
632.00 1.477
632.10 1.478
632.20 1.478
632.30 1.478
632.40 1.478
632.50 1.478
632.60 1.479
632.70 1.479
632.80 1.479
632.90 1.479
633.00 1.48
633.10 1.48
633.20 1.48
633.30 1.48
633.40 1.48
633.50 1.481
633.60 1.481
633.70 1.481
633.80 1.481
633.90 1.481
634.00 1.482
634.10 1.482
634.20 1.482
634.30 1.482
634.40 1.482
634.50 1.483
634.60 1.483
634.70 1.483
634.80 1.483
634.90 1.484
635.00 1.484
635.10 1.484
635.20 1.484
635.30 1.484
635.40 1.485
635.50 1.485
635.60 1.485
635.70 1.485
635.80 1.485
635.90 1.486
636.00 1.486
636.10 1.486
636.20 1.486
636.30 1.486
636.40 1.487
636.50 1.487
636.60 1.487
636.70 1.487
636.80 1.487
636.90 1.488
637.00 1.488
637.10 1.488
637.20 1.488
637.30 1.488
637.40 1.489
637.50 1.489
637.60 1.489
637.70 1.489
637.80 1.489
637.90 1.49
638.00 1.49
638.10 1.49
638.20 1.49
638.30 1.49
638.40 1.491
638.50 1.491
638.60 1.491
638.70 1.491
638.80 1.491
638.90 1.492
639.00 1.492
639.10 1.492
639.20 1.492
639.30 1.492
639.40 1.493
639.50 1.493
639.60 1.493
639.70 1.493
639.80 1.493
639.90 1.494
640.00 1.494
640.10 1.494
640.20 1.494
640.30 1.494
640.40 1.495
640.50 1.495
640.60 1.495
640.70 1.495
640.80 1.495
640.90 1.496
641.00 1.496
641.10 1.496
641.20 1.496
641.30 1.496
641.40 1.496
641.50 1.497
641.60 1.497
641.70 1.497
641.80 1.497
641.90 1.497
642.00 1.498
642.10 1.498
642.20 1.498
642.30 1.498
642.40 1.498
642.50 1.499
642.60 1.499
642.70 1.499
642.80 1.499
642.90 1.499
643.00 1.5
643.10 1.5
643.20 1.5
643.30 1.5
643.40 1.5
643.50 1.5
643.60 1.501
643.70 1.501
643.80 1.501
643.90 1.501
644.00 1.501
644.10 1.502
644.20 1.502
644.30 1.502
644.40 1.502
644.50 1.502
644.60 1.502
644.70 1.503
644.80 1.503
644.90 1.503
645.00 1.503
645.10 1.503
645.20 1.504
645.30 1.504
645.40 1.504
645.50 1.504
645.60 1.504
645.70 1.504
645.80 1.505
645.90 1.505
646.00 1.505
646.10 1.505
646.20 1.505
646.30 1.506
646.40 1.506
646.50 1.506
646.60 1.506
646.70 1.506
646.80 1.506
646.90 1.507
647.00 1.507
647.10 1.507
647.20 1.507
647.30 1.507
647.40 1.507
647.50 1.508
647.60 1.508
647.70 1.508
647.80 1.508
647.90 1.508
648.00 1.509
648.10 1.509
648.20 1.509
648.30 1.509
648.40 1.509
648.50 1.509
648.60 1.51
648.70 1.51
648.80 1.51
648.90 1.51
649.00 1.51
649.10 1.51
649.20 1.511
649.30 1.511
649.40 1.511
649.50 1.511
649.60 1.511
649.70 1.511
649.80 1.512
649.90 1.512
650.00 1.512
650.10 1.512
650.20 1.512
650.30 1.512
650.40 1.513
650.50 1.513
650.60 1.513
650.70 1.513
650.80 1.513
650.90 1.513
651.00 1.514
651.10 1.514
651.20 1.514
651.30 1.514
651.40 1.514
651.50 1.514
651.60 1.515
651.70 1.515
651.80 1.515
651.90 1.515
652.00 1.515
652.10 1.515
652.20 1.516
652.30 1.516
652.40 1.516
652.50 1.516
652.60 1.516
652.70 1.516
652.80 1.517
652.90 1.517
653.00 1.517
653.10 1.517
653.20 1.517
653.30 1.517
653.40 1.518
653.50 1.518
653.60 1.518
653.70 1.518
653.80 1.518
653.90 1.518
654.00 1.519
654.10 1.519
654.20 1.519
654.30 1.519
654.40 1.519
654.50 1.519
654.60 1.519
654.70 1.52
654.80 1.52
654.90 1.52
655.00 1.52
655.10 1.52
655.20 1.52
655.30 1.521
655.40 1.521
655.50 1.521
655.60 1.521
655.70 1.521
655.80 1.521
655.90 1.521
656.00 1.522
656.10 1.522
656.20 1.522
656.30 1.522
656.40 1.522
656.50 1.522
656.60 1.522
656.70 1.523
656.80 1.523
656.90 1.523
657.00 1.523
657.10 1.523
657.20 1.523
657.30 1.524
657.40 1.524
657.50 1.524
657.60 1.524
657.70 1.524
657.80 1.524
657.90 1.524
658.00 1.525
658.10 1.525
658.20 1.525
658.30 1.525
658.40 1.525
658.50 1.525
658.60 1.525
658.70 1.526
658.80 1.526
658.90 1.526
659.00 1.526
659.10 1.526
659.20 1.526
659.30 1.527
659.40 1.527
659.50 1.527
659.60 1.527
659.70 1.527
659.80 1.527
659.90 1.527
660.00 1.527
660.10 1.528
660.20 1.528
660.30 1.528
660.40 1.528
660.50 1.528
660.60 1.528
660.70 1.528
660.80 1.529
660.90 1.529
661.00 1.529
661.10 1.529
661.20 1.529
661.30 1.529
661.40 1.529
661.50 1.53
661.60 1.53
661.70 1.53
661.80 1.53
661.90 1.53
662.00 1.53
662.10 1.53
662.20 1.531
662.30 1.531
662.40 1.531
662.50 1.531
662.60 1.531
662.70 1.531
662.80 1.531
662.90 1.531
663.00 1.532
663.10 1.532
663.20 1.532
663.30 1.532
663.40 1.532
663.50 1.532
663.60 1.532
663.70 1.533
663.80 1.533
663.90 1.533
664.00 1.533
664.10 1.533
664.20 1.533
664.30 1.533
664.40 1.534
664.50 1.534
664.60 1.534
664.70 1.534
664.80 1.534
664.90 1.534
665.00 1.534
665.10 1.534
665.20 1.535
665.30 1.535
665.40 1.535
665.50 1.535
665.60 1.535
665.70 1.535
665.80 1.535
665.90 1.535
666.00 1.535
666.10 1.536
666.20 1.536
666.30 1.536
666.40 1.536
666.50 1.536
666.60 1.536
666.70 1.536
666.80 1.536
666.90 1.537
667.00 1.537
667.10 1.537
667.20 1.537
667.30 1.537
667.40 1.537
667.50 1.537
667.60 1.537
667.70 1.538
667.80 1.538
667.90 1.538
668.00 1.538
668.10 1.538
668.20 1.538
668.30 1.538
668.40 1.538
668.50 1.538
668.60 1.539
668.70 1.539
668.80 1.539
668.90 1.539
669.00 1.539
669.10 1.539
669.20 1.539
669.30 1.539
669.40 1.539
669.50 1.54
669.60 1.54
669.70 1.54
669.80 1.54
669.90 1.54
670.00 1.54
670.10 1.54
670.20 1.54
670.30 1.541
670.40 1.541
670.50 1.541
670.60 1.541
670.70 1.541
670.80 1.541
670.90 1.541
671.00 1.541
671.10 1.541
671.20 1.541
671.30 1.542
671.40 1.542
671.50 1.542
671.60 1.542
671.70 1.542
671.80 1.542
671.90 1.542
672.00 1.542
672.10 1.542
672.20 1.542
672.30 1.543
672.40 1.543
672.50 1.543
672.60 1.543
672.70 1.543
672.80 1.543
672.90 1.543
673.00 1.543
673.10 1.543
673.20 1.543
673.30 1.544
673.40 1.544
673.50 1.544
673.60 1.544
673.70 1.544
673.80 1.544
673.90 1.544
674.00 1.544
674.10 1.544
674.20 1.544
674.30 1.545
674.40 1.545
674.50 1.545
674.60 1.545
674.70 1.545
674.80 1.545
674.90 1.545
675.00 1.545
675.10 1.545
675.20 1.545
675.30 1.546
675.40 1.546
675.50 1.546
675.60 1.546
675.70 1.546
675.80 1.546
675.90 1.546
676.00 1.546
676.10 1.546
676.20 1.546
676.30 1.547
676.40 1.547
676.50 1.547
676.60 1.547
676.70 1.547
676.80 1.547
676.90 1.547
677.00 1.547
677.10 1.547
677.20 1.547
677.30 1.547
677.40 1.547
677.50 1.548
677.60 1.548
677.70 1.548
677.80 1.548
677.90 1.548
678.00 1.548
678.10 1.548
678.20 1.548
678.30 1.548
678.40 1.548
678.50 1.548
678.60 1.548
678.70 1.548
678.80 1.549
678.90 1.549
679.00 1.549
679.10 1.549
679.20 1.549
679.30 1.549
679.40 1.549
679.50 1.549
679.60 1.549
679.70 1.549
679.80 1.549
679.90 1.549
680.00 1.55
680.10 1.55
680.20 1.55
680.30 1.55
680.40 1.55
680.50 1.55
680.60 1.55
680.70 1.55
680.80 1.55
680.90 1.55
681.00 1.55
681.10 1.55
681.20 1.55
681.30 1.551
681.40 1.551
681.50 1.551
681.60 1.551
681.70 1.551
681.80 1.551
681.90 1.551
682.00 1.551
682.10 1.551
682.20 1.551
682.30 1.551
682.40 1.551
682.50 1.551
682.60 1.551
682.70 1.552
682.80 1.552
682.90 1.552
683.00 1.552
683.10 1.552
683.20 1.552
683.30 1.552
683.40 1.552
683.50 1.552
683.60 1.552
683.70 1.552
683.80 1.552
683.90 1.552
684.00 1.552
684.10 1.552
684.20 1.552
684.30 1.552
684.40 1.553
684.50 1.553
684.60 1.553
684.70 1.553
684.80 1.553
684.90 1.553
685.00 1.553
685.10 1.553
685.20 1.553
685.30 1.553
685.40 1.553
685.50 1.553
685.60 1.553
685.70 1.553
685.80 1.553
685.90 1.553
686.00 1.553
686.10 1.554
686.20 1.554
686.30 1.554
686.40 1.554
686.50 1.554
686.60 1.554
686.70 1.554
686.80 1.554
686.90 1.554
687.00 1.554
687.10 1.554
687.20 1.554
687.30 1.554
687.40 1.554
687.50 1.554
687.60 1.554
687.70 1.554
687.80 1.554
687.90 1.554
688.00 1.554
688.10 1.554
688.20 1.554
688.30 1.554
688.40 1.555
688.50 1.555
688.60 1.555
688.70 1.555
688.80 1.555
688.90 1.555
689.00 1.555
689.10 1.555
689.20 1.555
689.30 1.555
689.40 1.555
689.50 1.555
689.60 1.555
689.70 1.555
689.80 1.555
689.90 1.555
690.00 1.555
690.10 1.555
690.20 1.555
690.30 1.555
690.40 1.555
690.50 1.555
690.60 1.555
690.70 1.555
690.80 1.555
690.90 1.555
691.00 1.555
691.10 1.555
691.20 1.555
691.30 1.555
691.40 1.555
691.50 1.555
691.60 1.555
691.70 1.556
691.80 1.556
691.90 1.556
692.00 1.556
692.10 1.556
692.20 1.556
692.30 1.556
692.40 1.556
692.50 1.556
692.60 1.556
692.70 1.556
692.80 1.556
692.90 1.556
693.00 1.556
693.10 1.556
693.20 1.556
693.30 1.556
693.40 1.556
693.50 1.556
693.60 1.556
693.70 1.556
693.80 1.556
693.90 1.556
694.00 1.556
694.10 1.556
694.20 1.556
694.30 1.556
694.40 1.556
694.50 1.556
694.60 1.556
694.70 1.556
694.80 1.556
694.90 1.556
695.00 1.556
695.10 1.556
695.20 1.556
695.30 1.556
695.40 1.556
695.50 1.556
695.60 1.556
695.70 1.556
695.80 1.556
695.90 1.556
696.00 1.556
696.10 1.556
696.20 1.556
696.30 1.556
696.40 1.556
696.50 1.556
696.60 1.556
696.70 1.556
696.80 1.556
696.90 1.556
697.00 1.556
697.10 1.556
697.20 1.556
697.30 1.556
697.40 1.556
697.50 1.556
697.60 1.556
697.70 1.556
697.80 1.556
697.90 1.556
698.00 1.556
698.10 1.556
698.20 1.556
698.30 1.556
698.40 1.556
698.50 1.556
698.60 1.556
698.70 1.556
698.80 1.556
698.90 1.556
699.00 1.556
699.10 1.556
699.20 1.556
699.30 1.556
699.40 1.556
699.50 1.556
699.60 1.556
699.70 1.556
699.80 1.556
699.90 1.556
700.00 1.556
700.10 1.556
700.20 1.556
700.30 1.556
700.40 1.556
700.50 1.556
700.60 1.556
700.70 1.556
700.80 1.556
700.90 1.556
701.00 1.556
701.10 1.556
701.20 1.556
701.30 1.556
701.40 1.556
701.50 1.556
701.60 1.556
701.70 1.556
701.80 1.556
701.90 1.556
702.00 1.556
702.10 1.556
702.20 1.556
702.30 1.556
702.40 1.556
702.50 1.556
702.60 1.556
702.70 1.556
702.80 1.556
702.90 1.556
703.00 1.556
703.10 1.556
703.20 1.556
703.30 1.556
703.40 1.556
703.50 1.556
703.60 1.556
703.70 1.556
703.80 1.556
703.90 1.556
704.00 1.556
704.10 1.556
704.20 1.555
704.30 1.555
704.40 1.555
704.50 1.555
704.60 1.555
704.70 1.555
704.80 1.555
704.90 1.555
705.00 1.555
705.10 1.555
705.20 1.555
705.30 1.555
705.40 1.555
705.50 1.555
705.60 1.555
705.70 1.555
705.80 1.555
705.90 1.555
706.00 1.555
706.10 1.555
706.20 1.555
706.30 1.555
706.40 1.555
706.50 1.555
706.60 1.555
706.70 1.555
706.80 1.554
706.90 1.554
707.00 1.554
707.10 1.554
707.20 1.554
707.30 1.554
707.40 1.554
707.50 1.554
707.60 1.554
707.70 1.554
707.80 1.554
707.90 1.554
708.00 1.554
708.10 1.554
708.20 1.554
708.30 1.554
708.40 1.554
708.50 1.554
708.60 1.554
708.70 1.554
708.80 1.554
708.90 1.553
709.00 1.553
709.10 1.553
709.20 1.553
709.30 1.553
709.40 1.553
709.50 1.553
709.60 1.553
709.70 1.553
709.80 1.553
709.90 1.553
710.00 1.553
710.10 1.553
710.20 1.553
710.30 1.553
710.40 1.553
710.50 1.553
710.60 1.553
710.70 1.552
710.80 1.552
710.90 1.552
711.00 1.552
711.10 1.552
711.20 1.552
711.30 1.552
711.40 1.552
711.50 1.552
711.60 1.552
711.70 1.552
711.80 1.552
711.90 1.552
712.00 1.552
712.10 1.551
712.20 1.551
712.30 1.551
712.40 1.551
712.50 1.551
712.60 1.551
712.70 1.551
712.80 1.551
712.90 1.551
713.00 1.551
713.10 1.551
713.20 1.551
713.30 1.551
713.40 1.551
713.50 1.55
713.60 1.55
713.70 1.55
713.80 1.55
713.90 1.55
714.00 1.55
714.10 1.55
714.20 1.55
714.30 1.55
714.40 1.55
714.50 1.55
714.60 1.55
714.70 1.55
714.80 1.55
714.90 1.549
715.00 1.549
715.10 1.549
715.20 1.549
715.30 1.549
715.40 1.549
715.50 1.549
715.60 1.549
715.70 1.549
715.80 1.549
715.90 1.549
716.00 1.549
716.10 1.548
716.20 1.548
716.30 1.548
716.40 1.548
716.50 1.548
716.60 1.548
716.70 1.548
716.80 1.548
716.90 1.548
717.00 1.548
717.10 1.548
717.20 1.547
717.30 1.547
717.40 1.547
717.50 1.547
717.60 1.547
717.70 1.547
717.80 1.547
717.90 1.547
718.00 1.547
718.10 1.547
718.20 1.546
718.30 1.546
718.40 1.546
718.50 1.546
718.60 1.546
718.70 1.546
718.80 1.546
718.90 1.546
719.00 1.546
719.10 1.546
719.20 1.546
719.30 1.545
719.40 1.545
719.50 1.545
719.60 1.545
719.70 1.545
719.80 1.545
719.90 1.545
720.00 1.545
720.10 1.545
720.20 1.545
720.30 1.545
720.40 1.544
720.50 1.544
720.60 1.544
720.70 1.544
720.80 1.544
720.90 1.544
721.00 1.544
721.10 1.544
721.20 1.544
721.30 1.543
721.40 1.543
721.50 1.543
721.60 1.543
721.70 1.543
721.80 1.543
721.90 1.543
722.00 1.543
722.10 1.543
722.20 1.543
722.30 1.542
722.40 1.542
722.50 1.542
722.60 1.542
722.70 1.542
722.80 1.542
722.90 1.542
723.00 1.542
723.10 1.542
723.20 1.541
723.30 1.541
723.40 1.541
723.50 1.541
723.60 1.541
723.70 1.541
723.80 1.541
723.90 1.541
724.00 1.541
724.10 1.541
724.20 1.54
724.30 1.54
724.40 1.54
724.50 1.54
724.60 1.54
724.70 1.54
724.80 1.54
724.90 1.54
725.00 1.54
725.10 1.539
725.20 1.539
725.30 1.539
725.40 1.539
725.50 1.539
725.60 1.539
725.70 1.539
725.80 1.539
725.90 1.539
726.00 1.538
726.10 1.538
726.20 1.538
726.30 1.538
726.40 1.538
726.50 1.538
726.60 1.538
726.70 1.538
726.80 1.537
726.90 1.537
727.00 1.537
727.10 1.537
727.20 1.537
727.30 1.537
727.40 1.537
727.50 1.537
727.60 1.537
727.70 1.536
727.80 1.536
727.90 1.536
728.00 1.536
728.10 1.536
728.20 1.536
728.30 1.536
728.40 1.536
728.50 1.535
728.60 1.535
728.70 1.535
728.80 1.535
728.90 1.535
729.00 1.535
729.10 1.535
729.20 1.535
729.30 1.535
729.40 1.534
729.50 1.534
729.60 1.534
729.70 1.534
729.80 1.534
729.90 1.534
730.00 1.534
730.10 1.534
730.20 1.533
730.30 1.533
730.40 1.533
730.50 1.533
730.60 1.533
730.70 1.533
730.80 1.533
730.90 1.533
731.00 1.533
731.10 1.532
731.20 1.532
731.30 1.532
731.40 1.532
731.50 1.532
731.60 1.532
731.70 1.532
731.80 1.532
731.90 1.531
732.00 1.531
732.10 1.531
732.20 1.531
732.30 1.531
732.40 1.531
732.50 1.531
732.60 1.531
732.70 1.531
732.80 1.53
732.90 1.53
733.00 1.53
733.10 1.53
733.20 1.53
733.30 1.53
733.40 1.53
733.50 1.53
733.60 1.529
733.70 1.529
733.80 1.529
733.90 1.529
734.00 1.529
734.10 1.529
734.20 1.529
734.30 1.529
734.40 1.529
734.50 1.528
734.60 1.528
734.70 1.528
734.80 1.528
734.90 1.528
735.00 1.528
735.10 1.528
735.20 1.528
735.30 1.527
735.40 1.527
735.50 1.527
735.60 1.527
735.70 1.527
735.80 1.527
735.90 1.527
736.00 1.527
736.10 1.527
736.20 1.526
736.30 1.526
736.40 1.526
736.50 1.526
736.60 1.526
736.70 1.526
736.80 1.526
736.90 1.526
737.00 1.525
737.10 1.525
737.20 1.525
737.30 1.525
737.40 1.525
737.50 1.525
737.60 1.525
737.70 1.525
737.80 1.525
737.90 1.524
738.00 1.524
738.10 1.524
738.20 1.524
738.30 1.524
738.40 1.524
738.50 1.524
738.60 1.524
738.70 1.523
738.80 1.523
738.90 1.523
739.00 1.523
739.10 1.523
739.20 1.523
739.30 1.523
739.40 1.523
739.50 1.523
739.60 1.522
739.70 1.522
739.80 1.522
739.90 1.522
740.00 1.522
740.10 1.522
740.20 1.522
740.30 1.522
740.40 1.521
740.50 1.521
740.60 1.521
740.70 1.521
740.80 1.521
740.90 1.521
741.00 1.521
741.10 1.521
741.20 1.521
741.30 1.521
741.40 1.52
741.50 1.52
741.60 1.52
741.70 1.52
741.80 1.52
741.90 1.52
742.00 1.52
742.10 1.52
742.20 1.52
742.30 1.519
742.40 1.519
742.50 1.519
742.60 1.519
742.70 1.519
742.80 1.519
742.90 1.519
743.00 1.519
743.10 1.519
743.20 1.518
743.30 1.518
743.40 1.518
743.50 1.518
743.60 1.518
743.70 1.518
743.80 1.518
743.90 1.518
744.00 1.518
744.10 1.517
744.20 1.517
744.30 1.517
744.40 1.517
744.50 1.517
744.60 1.517
744.70 1.517
744.80 1.517
744.90 1.517
745.00 1.517
745.10 1.516
745.20 1.516
745.30 1.516
745.40 1.516
745.50 1.516
745.60 1.516
745.70 1.516
745.80 1.516
745.90 1.516
746.00 1.515
746.10 1.515
746.20 1.515
746.30 1.515
746.40 1.515
746.50 1.515
746.60 1.515
746.70 1.515
746.80 1.515
746.90 1.514
747.00 1.514
747.10 1.514
747.20 1.514
747.30 1.514
747.40 1.514
747.50 1.514
747.60 1.514
747.70 1.514
747.80 1.514
747.90 1.513
748.00 1.513
748.10 1.513
748.20 1.513
748.30 1.513
748.40 1.513
748.50 1.513
748.60 1.513
748.70 1.513
748.80 1.512
748.90 1.512
749.00 1.512
749.10 1.512
749.20 1.512
749.30 1.512
749.40 1.512
749.50 1.512
749.60 1.512
749.70 1.511
749.80 1.511
749.90 1.511
750.00 1.511
750.10 1.511
750.20 1.511
750.30 1.511
750.40 1.511
750.50 1.511
750.60 1.511
750.70 1.51
750.80 1.51
750.90 1.51
751.00 1.51
751.10 1.51
751.20 1.51
751.30 1.51
751.40 1.51
751.50 1.51
751.60 1.51
751.70 1.509
751.80 1.509
751.90 1.509
752.00 1.509
752.10 1.509
752.20 1.509
752.30 1.509
752.40 1.509
752.50 1.509
752.60 1.509
752.70 1.508
752.80 1.508
752.90 1.508
753.00 1.508
753.10 1.508
753.20 1.508
753.30 1.508
753.40 1.508
753.50 1.508
753.60 1.508
753.70 1.508
753.80 1.507
753.90 1.507
754.00 1.507
754.10 1.507
754.20 1.507
754.30 1.507
754.40 1.507
754.50 1.507
754.60 1.507
754.70 1.507
754.80 1.506
754.90 1.506
755.00 1.506
755.10 1.506
755.20 1.506
755.30 1.506
755.40 1.506
755.50 1.506
755.60 1.506
755.70 1.506
755.80 1.505
755.90 1.505
756.00 1.505
756.10 1.505
756.20 1.505
756.30 1.505
756.40 1.505
756.50 1.505
756.60 1.505
756.70 1.505
756.80 1.504
756.90 1.504
757.00 1.504
757.10 1.504
757.20 1.504
757.30 1.504
757.40 1.504
757.50 1.504
757.60 1.504
757.70 1.504
757.80 1.503
757.90 1.503
758.00 1.503
758.10 1.503
758.20 1.503
758.30 1.503
758.40 1.503
758.50 1.503
758.60 1.503
758.70 1.503
758.80 1.502
758.90 1.502
759.00 1.502
759.10 1.502
759.20 1.502
759.30 1.502
759.40 1.502
759.50 1.502
759.60 1.502
759.70 1.502
759.80 1.502
759.90 1.501
760.00 1.501
760.10 1.501
760.20 1.501
760.30 1.501
760.40 1.501
760.50 1.501
760.60 1.501
760.70 1.501
760.80 1.501
760.90 1.5
761.00 1.5
761.10 1.5
761.20 1.5
761.30 1.5
761.40 1.5
761.50 1.5
761.60 1.5
761.70 1.5
761.80 1.5
761.90 1.5
762.00 1.499
762.10 1.499
762.20 1.499
762.30 1.499
762.40 1.499
762.50 1.499
762.60 1.499
762.70 1.499
762.80 1.499
762.90 1.499
763.00 1.499
763.10 1.498
763.20 1.498
763.30 1.498
763.40 1.498
763.50 1.498
763.60 1.498
763.70 1.498
763.80 1.498
763.90 1.498
764.00 1.498
764.10 1.497
764.20 1.497
764.30 1.497
764.40 1.497
764.50 1.497
764.60 1.497
764.70 1.497
764.80 1.497
764.90 1.497
765.00 1.497
765.10 1.497
765.20 1.496
765.30 1.496
765.40 1.496
765.50 1.496
765.60 1.496
765.70 1.496
765.80 1.496
765.90 1.496
766.00 1.496
766.10 1.496
766.20 1.496
766.30 1.495
766.40 1.495
766.50 1.495
766.60 1.495
766.70 1.495
766.80 1.495
766.90 1.495
767.00 1.495
767.10 1.495
767.20 1.495
767.30 1.494
767.40 1.494
767.50 1.494
767.60 1.494
767.70 1.494
767.80 1.494
767.90 1.494
768.00 1.494
768.10 1.494
768.20 1.494
768.30 1.494
768.40 1.493
768.50 1.493
768.60 1.493
768.70 1.493
768.80 1.493
768.90 1.493
769.00 1.493
769.10 1.493
769.20 1.493
769.30 1.493
769.40 1.493
769.50 1.492
769.60 1.492
769.70 1.492
769.80 1.492
769.90 1.492
770.00 1.492
770.10 1.492
770.20 1.492
770.30 1.492
770.40 1.492
770.50 1.492
770.60 1.491
770.70 1.491
770.80 1.491
770.90 1.491
771.00 1.491
771.10 1.491
771.20 1.491
771.30 1.491
771.40 1.491
771.50 1.491
771.60 1.491
771.70 1.491
771.80 1.49
771.90 1.49
772.00 1.49
772.10 1.49
772.20 1.49
772.30 1.49
772.40 1.49
772.50 1.49
772.60 1.49
772.70 1.49
772.80 1.49
772.90 1.49
773.00 1.489
773.10 1.489
773.20 1.489
773.30 1.489
773.40 1.489
773.50 1.489
773.60 1.489
773.70 1.489
773.80 1.489
773.90 1.489
774.00 1.489
774.10 1.489
774.20 1.489
774.30 1.488
774.40 1.488
774.50 1.488
774.60 1.488
774.70 1.488
774.80 1.488
774.90 1.488
775.00 1.488
775.10 1.488
775.20 1.488
775.30 1.488
775.40 1.488
775.50 1.487
775.60 1.487
775.70 1.487
775.80 1.487
775.90 1.487
776.00 1.487
776.10 1.487
776.20 1.487
776.30 1.487
776.40 1.487
776.50 1.487
776.60 1.487
776.70 1.486
776.80 1.486
776.90 1.486
777.00 1.486
777.10 1.486
777.20 1.486
777.30 1.486
777.40 1.486
777.50 1.486
777.60 1.486
777.70 1.486
777.80 1.486
777.90 1.485
778.00 1.485
778.10 1.485
778.20 1.485
778.30 1.485
778.40 1.485
778.50 1.485
778.60 1.485
778.70 1.485
778.80 1.485
778.90 1.485
779.00 1.485
779.10 1.484
779.20 1.484
779.30 1.484
779.40 1.484
779.50 1.484
779.60 1.484
779.70 1.484
779.80 1.484
779.90 1.484
780.00 1.484
780.10 1.484
780.20 1.484
780.30 1.484
780.40 1.484
780.50 1.483
780.60 1.483
780.70 1.483
780.80 1.483
780.90 1.483
781.00 1.483
781.10 1.483
781.20 1.483
781.30 1.483
781.40 1.483
781.50 1.483
781.60 1.483
781.70 1.483
781.80 1.483
781.90 1.483
782.00 1.482
782.10 1.482
782.20 1.482
782.30 1.482
782.40 1.482
782.50 1.482
782.60 1.482
782.70 1.482
782.80 1.482
782.90 1.482
783.00 1.482
783.10 1.482
783.20 1.482
783.30 1.482
783.40 1.482
783.50 1.482
783.60 1.481
783.70 1.481
783.80 1.481
783.90 1.481
784.00 1.481
784.10 1.481
784.20 1.481
784.30 1.481
784.40 1.481
784.50 1.481
784.60 1.481
784.70 1.481
784.80 1.481
784.90 1.481
785.00 1.481
785.10 1.48
785.20 1.48
785.30 1.48
785.40 1.48
785.50 1.48
785.60 1.48
785.70 1.48
785.80 1.48
785.90 1.48
786.00 1.48
786.10 1.48
786.20 1.48
786.30 1.48
786.40 1.48
786.50 1.48
786.60 1.48
786.70 1.479
786.80 1.479
786.90 1.479
787.00 1.479
787.10 1.479
787.20 1.479
787.30 1.479
787.40 1.479
787.50 1.479
787.60 1.479
787.70 1.479
787.80 1.479
787.90 1.479
788.00 1.479
788.10 1.479
788.20 1.478
788.30 1.478
788.40 1.478
788.50 1.478
788.60 1.478
788.70 1.478
788.80 1.478
788.90 1.478
789.00 1.478
789.10 1.478
789.20 1.478
789.30 1.478
789.40 1.478
789.50 1.478
789.60 1.478
789.70 1.478
789.80 1.477
789.90 1.477
790.00 1.477
790.10 1.477
790.20 1.477
790.30 1.477
790.40 1.477
790.50 1.477
790.60 1.477
790.70 1.477
790.80 1.477
790.90 1.477
791.00 1.477
791.10 1.477
791.20 1.477
791.30 1.476
791.40 1.476
791.50 1.476
791.60 1.476
791.70 1.476
791.80 1.476
791.90 1.476
792.00 1.476
792.10 1.476
792.20 1.476
792.30 1.476
792.40 1.476
792.50 1.476
792.60 1.476
792.70 1.476
792.80 1.475
792.90 1.475
793.00 1.475
793.10 1.475
793.20 1.475
793.30 1.475
793.40 1.475
793.50 1.475
793.60 1.475
793.70 1.475
793.80 1.475
793.90 1.475
794.00 1.475
794.10 1.475
794.20 1.475
794.30 1.475
794.40 1.474
794.50 1.474
794.60 1.474
794.70 1.474
794.80 1.474
794.90 1.474
795.00 1.474
795.10 1.474
795.20 1.474
795.30 1.474
795.40 1.474
795.50 1.474
795.60 1.474
795.70 1.474
795.80 1.474
795.90 1.473
796.00 1.473
796.10 1.473
796.20 1.473
796.30 1.473
796.40 1.473
796.50 1.473
796.60 1.473
796.70 1.473
796.80 1.473
796.90 1.473
797.00 1.473
797.10 1.473
797.20 1.473
797.30 1.473
797.40 1.472
797.50 1.472
797.60 1.472
797.70 1.472
797.80 1.472
797.90 1.472
798.00 1.472
798.10 1.472
798.20 1.472
798.30 1.472
798.40 1.472
798.50 1.472
798.60 1.472
798.70 1.472
798.80 1.472
798.90 1.471
799.00 1.471
799.10 1.471
799.20 1.471
799.30 1.471
799.40 1.471
799.50 1.471
799.60 1.471
799.70 1.471
799.80 1.471
799.90 1.471
800.00 1.471
800.10 1.471
800.20 1.471
800.30 1.47
800.40 1.47
800.50 1.47
800.60 1.47
800.70 1.47
800.80 1.47
800.90 1.47
801.00 1.47
801.10 1.47
801.20 1.47
801.30 1.47
801.40 1.469
801.50 1.469
801.60 1.469
801.70 1.469
801.80 1.469
801.90 1.469
802.00 1.469
802.10 1.469
802.20 1.469
802.30 1.469
802.40 1.468
802.50 1.468
802.60 1.468
802.70 1.468
802.80 1.468
802.90 1.468
803.00 1.468
803.10 1.468
803.20 1.468
803.30 1.468
803.40 1.468
803.50 1.467
803.60 1.467
803.70 1.467
803.80 1.467
803.90 1.467
804.00 1.467
804.10 1.467
804.20 1.467
804.30 1.467
804.40 1.467
804.50 1.466
804.60 1.466
804.70 1.466
804.80 1.466
804.90 1.466
805.00 1.466
805.10 1.466
805.20 1.466
805.30 1.466
805.40 1.466
805.50 1.466
805.60 1.465
805.70 1.465
805.80 1.465
805.90 1.465
806.00 1.465
806.10 1.465
806.20 1.465
806.30 1.465
806.40 1.465
806.50 1.465
806.60 1.465
806.70 1.464
806.80 1.464
806.90 1.464
807.00 1.464
807.10 1.464
807.20 1.464
807.30 1.464
807.40 1.464
807.50 1.464
807.60 1.464
807.70 1.463
807.80 1.463
807.90 1.463
808.00 1.463
808.10 1.463
808.20 1.463
808.30 1.463
808.40 1.463
808.50 1.463
808.60 1.463
808.70 1.463
808.80 1.462
808.90 1.462
809.00 1.462
809.10 1.462
809.20 1.462
809.30 1.462
809.40 1.462
809.50 1.462
809.60 1.462
809.70 1.462
809.80 1.461
809.90 1.461
810.00 1.461
810.10 1.461
810.20 1.461
810.30 1.461
810.40 1.461
810.50 1.461
810.60 1.461
810.70 1.46
810.80 1.46
810.90 1.46
811.00 1.46
811.10 1.46
811.20 1.46
811.30 1.46
811.40 1.459
811.50 1.459
811.60 1.459
811.70 1.459
811.80 1.459
811.90 1.459
812.00 1.459
812.10 1.459
812.20 1.458
812.30 1.458
812.40 1.458
812.50 1.458
812.60 1.458
812.70 1.458
812.80 1.458
812.90 1.458
813.00 1.457
813.10 1.457
813.20 1.457
813.30 1.457
813.40 1.457
813.50 1.457
813.60 1.457
813.70 1.456
813.80 1.456
813.90 1.456
814.00 1.456
814.10 1.456
814.20 1.456
814.30 1.456
814.40 1.456
814.50 1.455
814.60 1.455
814.70 1.455
814.80 1.455
814.90 1.455
815.00 1.455
815.10 1.455
815.20 1.455
815.30 1.454
815.40 1.454
815.50 1.454
815.60 1.454
815.70 1.454
815.80 1.454
815.90 1.454
816.00 1.453
816.10 1.453
816.20 1.453
816.30 1.453
816.40 1.453
816.50 1.453
816.60 1.453
816.70 1.453
816.80 1.452
816.90 1.452
817.00 1.452
817.10 1.452
817.20 1.452
817.30 1.452
817.40 1.452
817.50 1.452
817.60 1.451
817.70 1.451
817.80 1.451
817.90 1.451
818.00 1.451
818.10 1.451
818.20 1.451
818.30 1.45
818.40 1.45
818.50 1.45
818.60 1.45
818.70 1.45
818.80 1.45
818.90 1.45
819.00 1.45
819.10 1.449
819.20 1.449
819.30 1.449
819.40 1.449
819.50 1.449
819.60 1.449
819.70 1.449
819.80 1.449
819.90 1.448
820.00 1.448
820.10 1.448
820.20 1.448
820.30 1.448
820.40 1.448
820.50 1.448
820.60 1.447
820.70 1.447
820.80 1.447
820.90 1.447
821.00 1.447
821.10 1.447
821.20 1.447
821.30 1.446
821.40 1.446
821.50 1.446
821.60 1.446
821.70 1.446
821.80 1.446
821.90 1.446
822.00 1.445
822.10 1.445
822.20 1.445
822.30 1.445
822.40 1.445
822.50 1.445
822.60 1.444
822.70 1.444
822.80 1.444
822.90 1.444
823.00 1.444
823.10 1.444
823.20 1.444
823.30 1.443
823.40 1.443
823.50 1.443
823.60 1.443
823.70 1.443
823.80 1.443
823.90 1.442
824.00 1.442
824.10 1.442
824.20 1.442
824.30 1.442
824.40 1.442
824.50 1.441
824.60 1.441
824.70 1.441
824.80 1.441
824.90 1.441
825.00 1.441
825.10 1.441
825.20 1.44
825.30 1.44
825.40 1.44
825.50 1.44
825.60 1.44
825.70 1.44
825.80 1.439
825.90 1.439
826.00 1.439
826.10 1.439
826.20 1.439
826.30 1.439
826.40 1.438
826.50 1.438
826.60 1.438
826.70 1.438
826.80 1.438
826.90 1.438
827.00 1.438
827.10 1.437
827.20 1.437
827.30 1.437
827.40 1.437
827.50 1.437
827.60 1.437
827.70 1.436
827.80 1.436
827.90 1.436
828.00 1.436
828.10 1.436
828.20 1.436
828.30 1.435
828.40 1.435
828.50 1.435
828.60 1.435
828.70 1.435
828.80 1.435
828.90 1.434
829.00 1.434
829.10 1.434
829.20 1.434
829.30 1.434
829.40 1.434
829.50 1.433
829.60 1.433
829.70 1.433
829.80 1.433
829.90 1.433
830.00 1.433
830.10 1.432
830.20 1.432
830.30 1.432
830.40 1.432
830.50 1.432
830.60 1.432
830.70 1.431
830.80 1.431
830.90 1.431
831.00 1.431
831.10 1.431
831.20 1.431
831.30 1.43
831.40 1.43
831.50 1.43
831.60 1.43
831.70 1.43
831.80 1.43
831.90 1.429
832.00 1.429
832.10 1.429
832.20 1.429
832.30 1.429
832.40 1.428
832.50 1.428
832.60 1.428
832.70 1.428
832.80 1.428
832.90 1.428
833.00 1.427
833.10 1.427
833.20 1.427
833.30 1.427
833.40 1.427
833.50 1.426
833.60 1.426
833.70 1.426
833.80 1.426
833.90 1.426
834.00 1.426
834.10 1.425
834.20 1.425
834.30 1.425
834.40 1.425
834.50 1.425
834.60 1.425
834.70 1.424
834.80 1.424
834.90 1.424
835.00 1.424
835.10 1.424
835.20 1.423
835.30 1.423
835.40 1.423
835.50 1.423
835.60 1.423
835.70 1.423
835.80 1.422
835.90 1.422
836.00 1.422
836.10 1.422
836.20 1.422
836.30 1.421
836.40 1.421
836.50 1.421
836.60 1.421
836.70 1.421
836.80 1.421
836.90 1.42
837.00 1.42
837.10 1.42
837.20 1.42
837.30 1.42
837.40 1.419
837.50 1.419
837.60 1.419
837.70 1.419
837.80 1.419
837.90 1.419
838.00 1.418
838.10 1.418
838.20 1.418
838.30 1.418
838.40 1.418
838.50 1.417
838.60 1.417
838.70 1.417
838.80 1.417
838.90 1.417
839.00 1.416
839.10 1.416
839.20 1.416
839.30 1.416
839.40 1.416
839.50 1.416
839.60 1.415
839.70 1.415
839.80 1.415
839.90 1.415
840.00 1.415
840.10 1.414
840.20 1.414
840.30 1.414
840.40 1.414
840.50 1.414
840.60 1.413
840.70 1.413
840.80 1.413
840.90 1.413
841.00 1.413
841.10 1.413
841.20 1.412
841.30 1.412
841.40 1.412
841.50 1.412
841.60 1.412
841.70 1.411
841.80 1.411
841.90 1.411
842.00 1.411
842.10 1.411
842.20 1.41
842.30 1.41
842.40 1.41
842.50 1.41
842.60 1.41
842.70 1.409
842.80 1.409
842.90 1.409
843.00 1.409
843.10 1.409
843.20 1.408
843.30 1.408
843.40 1.408
843.50 1.408
843.60 1.408
843.70 1.407
843.80 1.407
843.90 1.407
844.00 1.407
844.10 1.407
844.20 1.406
844.30 1.406
844.40 1.406
844.50 1.406
844.60 1.406
844.70 1.406
844.80 1.405
844.90 1.405
845.00 1.405
845.10 1.405
845.20 1.405
845.30 1.404
845.40 1.404
845.50 1.404
845.60 1.404
845.70 1.404
845.80 1.403
845.90 1.403
846.00 1.403
846.10 1.403
846.20 1.403
846.30 1.402
846.40 1.402
846.50 1.402
846.60 1.402
846.70 1.402
846.80 1.401
846.90 1.401
847.00 1.401
847.10 1.401
847.20 1.401
847.30 1.4
847.40 1.4
847.50 1.4
847.60 1.4
847.70 1.4
847.80 1.399
847.90 1.399
848.00 1.399
848.10 1.399
848.20 1.398
848.30 1.398
848.40 1.398
848.50 1.398
848.60 1.398
848.70 1.397
848.80 1.397
848.90 1.397
849.00 1.397
849.10 1.397
849.20 1.396
849.30 1.396
849.40 1.396
849.50 1.396
849.60 1.396
849.70 1.395
849.80 1.395
849.90 1.395
850.00 1.395
850.10 1.395
850.20 1.394
850.30 1.394
850.40 1.394
850.50 1.394
850.60 1.394
850.70 1.393
850.80 1.393
850.90 1.393
851.00 1.393
851.10 1.392
851.20 1.392
851.30 1.392
851.40 1.392
851.50 1.392
851.60 1.391
851.70 1.391
851.80 1.391
851.90 1.391
852.00 1.391
852.10 1.39
852.20 1.39
852.30 1.39
852.40 1.39
852.50 1.39
852.60 1.389
852.70 1.389
852.80 1.389
852.90 1.389
853.00 1.388
853.10 1.388
853.20 1.388
853.30 1.388
853.40 1.388
853.50 1.387
853.60 1.387
853.70 1.387
853.80 1.387
853.90 1.386
854.00 1.386
854.10 1.386
854.20 1.386
854.30 1.386
854.40 1.385
854.50 1.385
854.60 1.385
854.70 1.385
854.80 1.384
854.90 1.384
855.00 1.384
855.10 1.384
855.20 1.384
855.30 1.383
855.40 1.383
855.50 1.383
855.60 1.383
855.70 1.383
855.80 1.382
855.90 1.382
856.00 1.382
856.10 1.382
856.20 1.381
856.30 1.381
856.40 1.381
856.50 1.381
856.60 1.381
856.70 1.38
856.80 1.38
856.90 1.38
857.00 1.38
857.10 1.379
857.20 1.379
857.30 1.379
857.40 1.379
857.50 1.379
857.60 1.378
857.70 1.378
857.80 1.378
857.90 1.378
858.00 1.377
858.10 1.377
858.20 1.377
858.30 1.377
858.40 1.377
858.50 1.376
858.60 1.376
858.70 1.376
858.80 1.376
858.90 1.375
859.00 1.375
859.10 1.375
859.20 1.375
859.30 1.375
859.40 1.374
859.50 1.374
859.60 1.374
859.70 1.374
859.80 1.373
859.90 1.373
860.00 1.373
860.10 1.373
860.20 1.372
860.30 1.372
860.40 1.372
860.50 1.372
860.60 1.372
860.70 1.371
860.80 1.371
860.90 1.371
861.00 1.371
861.10 1.37
861.20 1.37
861.30 1.37
861.40 1.37
861.50 1.37
861.60 1.369
861.70 1.369
861.80 1.369
861.90 1.369
862.00 1.368
862.10 1.368
862.20 1.368
862.30 1.368
862.40 1.367
862.50 1.367
862.60 1.367
862.70 1.367
862.80 1.366
862.90 1.366
863.00 1.366
863.10 1.366
863.20 1.366
863.30 1.365
863.40 1.365
863.50 1.365
863.60 1.365
863.70 1.364
863.80 1.364
863.90 1.364
864.00 1.364
864.10 1.363
864.20 1.363
864.30 1.363
864.40 1.363
864.50 1.362
864.60 1.362
864.70 1.362
864.80 1.362
864.90 1.361
865.00 1.361
865.10 1.361
865.20 1.361
865.30 1.36
865.40 1.36
865.50 1.36
865.60 1.36
865.70 1.36
865.80 1.359
865.90 1.359
866.00 1.359
866.10 1.359
866.20 1.358
866.30 1.358
866.40 1.358
866.50 1.358
866.60 1.357
866.70 1.357
866.80 1.357
866.90 1.357
867.00 1.356
867.10 1.356
867.20 1.356
867.30 1.356
867.40 1.355
867.50 1.355
867.60 1.355
867.70 1.355
867.80 1.354
867.90 1.354
868.00 1.354
868.10 1.354
868.20 1.353
868.30 1.353
868.40 1.353
868.50 1.353
868.60 1.352
868.70 1.352
868.80 1.352
868.90 1.352
869.00 1.351
869.10 1.351
869.20 1.351
869.30 1.351
869.40 1.35
869.50 1.35
869.60 1.35
869.70 1.35
869.80 1.349
869.90 1.349
870.00 1.349
870.10 1.349
870.20 1.348
870.30 1.348
870.40 1.348
870.50 1.348
870.60 1.347
870.70 1.347
870.80 1.347
870.90 1.347
871.00 1.346
871.10 1.346
871.20 1.346
871.30 1.346
871.40 1.345
871.50 1.345
871.60 1.345
871.70 1.345
871.80 1.344
871.90 1.344
872.00 1.344
872.10 1.344
872.20 1.343
872.30 1.343
872.40 1.343
872.50 1.342
872.60 1.342
872.70 1.342
872.80 1.342
872.90 1.341
873.00 1.341
873.10 1.341
873.20 1.341
873.30 1.34
873.40 1.34
873.50 1.34
873.60 1.339
873.70 1.339
873.80 1.339
873.90 1.339
874.00 1.338
874.10 1.338
874.20 1.338
874.30 1.338
874.40 1.337
874.50 1.337
874.60 1.337
874.70 1.337
874.80 1.336
874.90 1.336
875.00 1.336
875.10 1.335
875.20 1.335
875.30 1.335
875.40 1.335
875.50 1.334
875.60 1.334
875.70 1.334
875.80 1.334
875.90 1.333
876.00 1.333
876.10 1.333
876.20 1.332
876.30 1.332
876.40 1.332
876.50 1.332
876.60 1.331
876.70 1.331
876.80 1.331
876.90 1.331
877.00 1.33
877.10 1.33
877.20 1.33
877.30 1.329
877.40 1.329
877.50 1.329
877.60 1.329
877.70 1.328
877.80 1.328
877.90 1.328
878.00 1.327
878.10 1.327
878.20 1.327
878.30 1.327
878.40 1.326
878.50 1.326
878.60 1.326
878.70 1.325
878.80 1.325
878.90 1.325
879.00 1.325
879.10 1.324
879.20 1.324
879.30 1.324
879.40 1.323
879.50 1.323
879.60 1.323
879.70 1.323
879.80 1.322
879.90 1.322
880.00 1.322
880.10 1.321
880.20 1.321
880.30 1.321
880.40 1.32
880.50 1.32
880.60 1.32
880.70 1.32
880.80 1.319
880.90 1.319
881.00 1.319
881.10 1.318
881.20 1.318
881.30 1.318
881.40 1.318
881.50 1.317
881.60 1.317
881.70 1.317
881.80 1.316
881.90 1.316
882.00 1.316
882.10 1.316
882.20 1.315
882.30 1.315
882.40 1.315
882.50 1.314
882.60 1.314
882.70 1.314
882.80 1.313
882.90 1.313
883.00 1.313
883.10 1.312
883.20 1.312
883.30 1.312
883.40 1.312
883.50 1.311
883.60 1.311
883.70 1.311
883.80 1.31
883.90 1.31
884.00 1.31
884.10 1.309
884.20 1.309
884.30 1.309
884.40 1.308
884.50 1.308
884.60 1.308
884.70 1.307
884.80 1.307
884.90 1.307
885.00 1.307
885.10 1.306
885.20 1.306
885.30 1.306
885.40 1.305
885.50 1.305
885.60 1.305
885.70 1.304
885.80 1.304
885.90 1.304
886.00 1.303
886.10 1.303
886.20 1.303
886.30 1.303
886.40 1.302
886.50 1.302
886.60 1.302
886.70 1.301
886.80 1.301
886.90 1.301
887.00 1.3
887.10 1.3
887.20 1.3
887.30 1.299
887.40 1.299
887.50 1.299
887.60 1.298
887.70 1.298
887.80 1.298
887.90 1.297
888.00 1.297
888.10 1.297
888.20 1.296
888.30 1.296
888.40 1.296
888.50 1.295
888.60 1.295
888.70 1.295
888.80 1.294
888.90 1.294
889.00 1.294
889.10 1.293
889.20 1.293
889.30 1.293
889.40 1.292
889.50 1.292
889.60 1.292
889.70 1.291
889.80 1.291
889.90 1.291
890.00 1.29
890.10 1.29
890.20 1.29
890.30 1.289
890.40 1.289
890.50 1.289
890.60 1.288
890.70 1.288
890.80 1.288
890.90 1.287
891.00 1.287
891.10 1.287
891.20 1.286
891.30 1.286
891.40 1.286
891.50 1.285
891.60 1.285
891.70 1.285
891.80 1.284
891.90 1.284
892.00 1.284
892.10 1.283
892.20 1.283
892.30 1.283
892.40 1.282
892.50 1.282
892.60 1.282
892.70 1.281
892.80 1.281
892.90 1.281
893.00 1.28
893.10 1.28
893.20 1.28
893.30 1.279
893.40 1.279
893.50 1.279
893.60 1.278
893.70 1.278
893.80 1.278
893.90 1.277
894.00 1.277
894.10 1.277
894.20 1.276
894.30 1.276
894.40 1.276
894.50 1.275
894.60 1.275
894.70 1.275
894.80 1.274
894.90 1.274
895.00 1.274
895.10 1.273
895.20 1.273
895.30 1.273
895.40 1.273
895.50 1.272
895.60 1.272
895.70 1.272
895.80 1.271
895.90 1.271
896.00 1.271
896.10 1.27
896.20 1.27
896.30 1.27
896.40 1.269
896.50 1.269
896.60 1.269
896.70 1.268
896.80 1.268
896.90 1.268
897.00 1.267
897.10 1.267
897.20 1.267
897.30 1.266
897.40 1.266
897.50 1.265
897.60 1.265
897.70 1.265
897.80 1.264
897.90 1.264
898.00 1.263
898.10 1.263
898.20 1.263
898.30 1.262
898.40 1.262
898.50 1.261
898.60 1.261
898.70 1.261
898.80 1.26
898.90 1.26
899.00 1.26
899.10 1.259
899.20 1.259
899.30 1.258
899.40 1.258
899.50 1.258
899.60 1.257
899.70 1.257
899.80 1.256
899.90 1.256
900.00 1.256
900.10 1.255
900.20 1.255
900.30 1.255
900.40 1.254
900.50 1.254
900.60 1.253
900.70 1.253
900.80 1.253
900.90 1.252
901.00 1.252
901.10 1.251
901.20 1.251
901.30 1.251
901.40 1.25
901.50 1.25
901.60 1.25
901.70 1.249
901.80 1.249
901.90 1.248
902.00 1.248
902.10 1.248
902.20 1.247
902.30 1.247
902.40 1.246
902.50 1.246
902.60 1.245
902.70 1.245
902.80 1.244
902.90 1.244
903.00 1.243
903.10 1.243
903.20 1.242
903.30 1.242
903.40 1.241
903.50 1.241
903.60 1.24
903.70 1.24
903.80 1.239
903.90 1.239
904.00 1.239
904.10 1.238
904.20 1.238
904.30 1.237
904.40 1.237
904.50 1.236
904.60 1.236
904.70 1.235
904.80 1.235
904.90 1.234
905.00 1.234
905.10 1.233
905.20 1.233
905.30 1.232
905.40 1.232
905.50 1.231
905.60 1.231
905.70 1.231
905.80 1.23
905.90 1.23
906.00 1.229
906.10 1.229
906.20 1.228
906.30 1.228
906.40 1.227
906.50 1.227
906.60 1.226
906.70 1.226
906.80 1.225
906.90 1.225
907.00 1.224
907.10 1.224
907.20 1.224
907.30 1.223
907.40 1.223
907.50 1.222
907.60 1.222
907.70 1.221
907.80 1.221
907.90 1.22
908.00 1.22
908.10 1.22
908.20 1.219
908.30 1.219
908.40 1.218
908.50 1.218
908.60 1.217
908.70 1.217
908.80 1.216
908.90 1.216
909.00 1.216
909.10 1.215
909.20 1.215
909.30 1.214
909.40 1.214
909.50 1.213
909.60 1.213
909.70 1.212
909.80 1.212
909.90 1.212
910.00 1.211
910.10 1.211
910.20 1.21
910.30 1.21
910.40 1.209
910.50 1.209
910.60 1.208
910.70 1.208
910.80 1.208
910.90 1.207
911.00 1.207
911.10 1.206
911.20 1.206
911.30 1.205
911.40 1.205
911.50 1.204
911.60 1.204
911.70 1.204
911.80 1.203
911.90 1.203
912.00 1.202
912.10 1.202
912.20 1.201
912.30 1.201
912.40 1.201
912.50 1.2
912.60 1.2
912.70 1.199
912.80 1.199
912.90 1.198
913.00 1.198
913.10 1.198
913.20 1.197
913.30 1.197
913.40 1.196
913.50 1.196
913.60 1.195
913.70 1.195
913.80 1.195
913.90 1.194
914.00 1.194
914.10 1.193
914.20 1.193
914.30 1.192
914.40 1.192
914.50 1.192
914.60 1.191
914.70 1.191
914.80 1.19
914.90 1.19
915.00 1.189
915.10 1.189
915.20 1.189
915.30 1.188
915.40 1.188
915.50 1.187
915.60 1.187
915.70 1.187
915.80 1.186
915.90 1.186
916.00 1.185
916.10 1.185
916.20 1.184
916.30 1.184
916.40 1.184
916.50 1.183
916.60 1.183
916.70 1.182
916.80 1.182
916.90 1.181
917.00 1.181
917.10 1.181
917.20 1.18
917.30 1.18
917.40 1.179
917.50 1.179
917.60 1.178
917.70 1.178
917.80 1.177
917.90 1.177
918.00 1.176
918.10 1.176
918.20 1.175
918.30 1.175
918.40 1.175
918.50 1.174
918.60 1.174
918.70 1.173
918.80 1.173
918.90 1.172
919.00 1.172
919.10 1.171
919.20 1.171
919.30 1.17
919.40 1.17
919.50 1.169
919.60 1.169
919.70 1.168
919.80 1.168
919.90 1.168
920.00 1.167
920.10 1.167
920.20 1.166
920.30 1.166
920.40 1.165
920.50 1.165
920.60 1.164
920.70 1.164
920.80 1.163
920.90 1.163
921.00 1.162
921.10 1.162
921.20 1.162
921.30 1.161
921.40 1.161
921.50 1.16
921.60 1.16
921.70 1.159
921.80 1.159
921.90 1.158
922.00 1.158
922.10 1.157
922.20 1.157
922.30 1.156
922.40 1.156
922.50 1.155
922.60 1.155
922.70 1.155
922.80 1.154
922.90 1.154
923.00 1.153
923.10 1.153
923.20 1.152
923.30 1.152
923.40 1.151
923.50 1.151
923.60 1.15
923.70 1.15
923.80 1.149
923.90 1.149
924.00 1.148
924.10 1.148
924.20 1.147
924.30 1.147
924.40 1.146
924.50 1.146
924.60 1.145
924.70 1.145
924.80 1.144
924.90 1.144
925.00 1.143
925.10 1.143
925.20 1.142
925.30 1.142
925.40 1.142
925.50 1.141
925.60 1.141
925.70 1.14
925.80 1.14
925.90 1.139
926.00 1.139
926.10 1.138
926.20 1.138
926.30 1.137
926.40 1.137
926.50 1.136
926.60 1.136
926.70 1.135
926.80 1.135
926.90 1.134
927.00 1.134
927.10 1.133
927.20 1.133
927.30 1.132
927.40 1.132
927.50 1.131
927.60 1.131
927.70 1.13
927.80 1.13
927.90 1.129
928.00 1.129
928.10 1.128
928.20 1.128
928.30 1.127
928.40 1.127
928.50 1.126
928.60 1.126
928.70 1.125
928.80 1.125
928.90 1.124
929.00 1.124
929.10 1.123
929.20 1.123
929.30 1.122
929.40 1.122
929.50 1.121
929.60 1.121
929.70 1.12
929.80 1.12
929.90 1.119
930.00 1.119
930.10 1.118
930.20 1.118
930.30 1.117
930.40 1.117
930.50 1.116
930.60 1.116
930.70 1.115
930.80 1.115
930.90 1.114
931.00 1.114
931.10 1.113
931.20 1.113
931.30 1.113
931.40 1.112
931.50 1.112
931.60 1.111
931.70 1.111
931.80 1.11
931.90 1.11
932.00 1.109
932.10 1.109
932.20 1.108
932.30 1.108
932.40 1.107
932.50 1.107
932.60 1.106
932.70 1.105
932.80 1.105
932.90 1.104
933.00 1.104
933.10 1.103
933.20 1.103
933.30 1.102
933.40 1.102
933.50 1.101
933.60 1.101
933.70 1.1
933.80 1.1
933.90 1.099
934.00 1.099
934.10 1.098
934.20 1.098
934.30 1.097
934.40 1.097
934.50 1.096
934.60 1.096
934.70 1.095
934.80 1.095
934.90 1.094
935.00 1.094
935.10 1.093
935.20 1.093
935.30 1.092
935.40 1.092
935.50 1.091
935.60 1.091
935.70 1.09
935.80 1.09
935.90 1.089
936.00 1.089
936.10 1.088
936.20 1.088
936.30 1.087
936.40 1.087
936.50 1.086
936.60 1.085
936.70 1.085
936.80 1.084
936.90 1.084
937.00 1.083
937.10 1.083
937.20 1.082
937.30 1.082
937.40 1.081
937.50 1.081
937.60 1.08
937.70 1.08
937.80 1.079
937.90 1.079
938.00 1.078
938.10 1.078
938.20 1.077
938.30 1.077
938.40 1.076
938.50 1.076
938.60 1.075
938.70 1.075
938.80 1.074
938.90 1.074
939.00 1.073
939.10 1.072
939.20 1.072
939.30 1.071
939.40 1.071
939.50 1.07
939.60 1.07
939.70 1.069
939.80 1.069
939.90 1.068
940.00 1.068
940.10 1.067
940.20 1.067
940.30 1.066
940.40 1.066
940.50 1.065
940.60 1.065
940.70 1.064
940.80 1.063
940.90 1.063
941.00 1.062
941.10 1.062
941.20 1.061
941.30 1.061
941.40 1.06
941.50 1.06
941.60 1.059
941.70 1.059
941.80 1.058
941.90 1.058
942.00 1.057
942.10 1.057
942.20 1.056
942.30 1.055
942.40 1.055
942.50 1.054
942.60 1.054
942.70 1.053
942.80 1.053
942.90 1.052
943.00 1.052
943.10 1.051
943.20 1.051
943.30 1.05
943.40 1.05
943.50 1.049
943.60 1.049
943.70 1.048
943.80 1.048
943.90 1.047
944.00 1.046
944.10 1.046
944.20 1.045
944.30 1.045
944.40 1.044
944.50 1.044
944.60 1.043
944.70 1.043
944.80 1.042
944.90 1.042
945.00 1.041
945.10 1.041
945.20 1.04
945.30 1.04
945.40 1.039
945.50 1.038
945.60 1.038
945.70 1.037
945.80 1.037
945.90 1.036
946.00 1.036
946.10 1.035
946.20 1.035
946.30 1.034
946.40 1.034
946.50 1.033
946.60 1.033
946.70 1.032
946.80 1.031
946.90 1.031
947.00 1.03
947.10 1.03
947.20 1.029
947.30 1.029
947.40 1.028
947.50 1.028
947.60 1.027
947.70 1.027
947.80 1.026
947.90 1.026
948.00 1.025
948.10 1.024
948.20 1.024
948.30 1.023
948.40 1.023
948.50 1.022
948.60 1.022
948.70 1.021
948.80 1.021
948.90 1.02
949.00 1.02
949.10 1.019
949.20 1.018
949.30 1.018
949.40 1.017
949.50 1.017
949.60 1.016
949.70 1.016
949.80 1.015
949.90 1.015
950.00 1.014
950.10 1.014
950.20 1.013
950.30 1.012
950.40 1.012
950.50 1.011
950.60 1.011
950.70 1.01
950.80 1.01
950.90 1.009
951.00 1.009
951.10 1.008
951.20 1.008
951.30 1.007
951.40 1.007
951.50 1.006
951.60 1.005
951.70 1.005
951.80 1.004
951.90 1.004
952.00 1.003
952.10 1.003
952.20 1.002
952.30 1.002
952.40 1.001
952.50 1.001
952.60 1
952.70 0.9995
952.80 0.9989
952.90 0.9984
953.00 0.9979
953.10 0.9973
953.20 0.9968
953.30 0.9963
953.40 0.9957
953.50 0.9952
953.60 0.9946
953.70 0.9941
953.80 0.9935
953.90 0.993
954.00 0.9924
954.10 0.9919
954.20 0.9914
954.30 0.9908
954.40 0.9903
954.50 0.9897
954.60 0.9892
954.70 0.9887
954.80 0.9881
954.90 0.9875
955.00 0.987
955.10 0.9864
955.20 0.9859
955.30 0.9854
955.40 0.9848
955.50 0.9843
955.60 0.9837
955.70 0.9832
955.80 0.9827
955.90 0.9821
956.00 0.9816
956.10 0.981
956.20 0.9805
956.30 0.9799
956.40 0.9793
956.50 0.9788
956.60 0.9782
956.70 0.9777
956.80 0.9771
956.90 0.9766
957.00 0.976
957.10 0.9755
957.20 0.975
957.30 0.9744
957.40 0.9739
957.50 0.9733
957.60 0.9728
957.70 0.9722
957.80 0.9717
957.90 0.9711
958.00 0.9706
958.10 0.9701
958.20 0.9695
958.30 0.969
958.40 0.9684
958.50 0.9679
958.60 0.9673
958.70 0.9668
958.80 0.9663
958.90 0.9657
959.00 0.9652
959.10 0.9646
959.20 0.9641
959.30 0.9635
959.40 0.963
959.50 0.9625
959.60 0.9619
959.70 0.9614
959.80 0.9608
959.90 0.9603
960.00 0.9598
960.10 0.9592
960.20 0.9587
960.30 0.9581
960.40 0.9576
960.50 0.9571
960.60 0.9565
960.70 0.956
960.80 0.9554
960.90 0.9549
961.00 0.9544
961.10 0.9538
961.20 0.9533
961.30 0.9527
961.40 0.9522
961.50 0.9517
961.60 0.9511
961.70 0.9506
961.80 0.9501
961.90 0.9495
962.00 0.949
962.10 0.9485
962.20 0.9479
962.30 0.9474
962.40 0.9468
962.50 0.9463
962.60 0.9458
962.70 0.9452
962.80 0.9447
962.90 0.9442
963.00 0.9436
963.10 0.9431
963.20 0.9426
963.30 0.942
963.40 0.9415
963.50 0.941
963.60 0.9404
963.70 0.9399
963.80 0.9393
963.90 0.9388
964.00 0.9383
964.10 0.9377
964.20 0.9372
964.30 0.9366
964.40 0.9361
964.50 0.9356
964.60 0.935
964.70 0.9345
964.80 0.9339
964.90 0.9334
965.00 0.9329
965.10 0.9323
965.20 0.9318
965.30 0.9312
965.40 0.9307
965.50 0.9301
965.60 0.9296
965.70 0.9291
965.80 0.9285
965.90 0.928
966.00 0.9275
966.10 0.9269
966.20 0.9264
966.30 0.9258
966.40 0.9253
966.50 0.9248
966.60 0.9242
966.70 0.9237
966.80 0.9231
966.90 0.9226
967.00 0.9221
967.10 0.9215
967.20 0.921
967.30 0.9205
967.40 0.92
967.50 0.9194
967.60 0.9189
967.70 0.9184
967.80 0.9178
967.90 0.9173
968.00 0.9168
968.10 0.9162
968.20 0.9157
968.30 0.9152
968.40 0.9147
968.50 0.9141
968.60 0.9136
968.70 0.9131
968.80 0.9126
968.90 0.912
969.00 0.9115
969.10 0.911
969.20 0.9105
969.30 0.9099
969.40 0.9094
969.50 0.9089
969.60 0.9084
969.70 0.9078
969.80 0.9073
969.90 0.9068
970.00 0.9063
970.10 0.9057
970.20 0.9052
970.30 0.9047
970.40 0.9042
970.50 0.9036
970.60 0.9031
970.70 0.9026
970.80 0.9021
970.90 0.9016
971.00 0.9011
971.10 0.9005
971.20 0.9
971.30 0.8995
971.40 0.899
971.50 0.8985
971.60 0.8979
971.70 0.8974
971.80 0.8969
971.90 0.8964
972.00 0.8959
972.10 0.8954
972.20 0.8948
972.30 0.8943
972.40 0.8938
972.50 0.8933
972.60 0.8928
972.70 0.8922
972.80 0.8917
972.90 0.8912
973.00 0.8907
973.10 0.8902
973.20 0.8897
973.30 0.8891
973.40 0.8886
973.50 0.8881
973.60 0.8876
973.70 0.8871
973.80 0.8866
973.90 0.886
974.00 0.8855
974.10 0.885
974.20 0.8845
974.30 0.884
974.40 0.8835
974.50 0.883
974.60 0.8825
974.70 0.8819
974.80 0.8814
974.90 0.8809
975.00 0.8804
975.10 0.8799
975.20 0.8794
975.30 0.8789
975.40 0.8784
975.50 0.8779
975.60 0.8774
975.70 0.8768
975.80 0.8763
975.90 0.8758
976.00 0.8753
976.10 0.8748
976.20 0.8743
976.30 0.8738
976.40 0.8733
976.50 0.8728
976.60 0.8723
976.70 0.8718
976.80 0.8713
976.90 0.8707
977.00 0.8702
977.10 0.8697
977.20 0.8692
977.30 0.8687
977.40 0.8682
977.50 0.8677
977.60 0.8672
977.70 0.8667
977.80 0.8662
977.90 0.8657
978.00 0.8653
978.10 0.8648
978.20 0.8643
978.30 0.8638
978.40 0.8633
978.50 0.8628
978.60 0.8623
978.70 0.8618
978.80 0.8613
978.90 0.8608
979.00 0.8603
979.10 0.8598
979.20 0.8593
979.30 0.8588
979.40 0.8583
979.50 0.8578
979.60 0.8573
979.70 0.8568
979.80 0.8563
979.90 0.8558
980.00 0.8553
980.10 0.8548
980.20 0.8543
980.30 0.8538
980.40 0.8534
980.50 0.8529
980.60 0.8524
980.70 0.8519
980.80 0.8514
980.90 0.8509
981.00 0.8504
981.10 0.8499
981.20 0.8494
981.30 0.8489
981.40 0.8484
981.50 0.8479
981.60 0.8474
981.70 0.847
981.80 0.8465
981.90 0.846
982.00 0.8455
982.10 0.845
982.20 0.8445
982.30 0.844
982.40 0.8436
982.50 0.8431
982.60 0.8426
982.70 0.8421
982.80 0.8416
982.90 0.8411
983.00 0.8407
983.10 0.8402
983.20 0.8397
983.30 0.8392
983.40 0.8387
983.50 0.8383
983.60 0.8378
983.70 0.8373
983.80 0.8368
983.90 0.8363
984.00 0.8359
984.10 0.8354
984.20 0.8349
984.30 0.8344
984.40 0.8339
984.50 0.8335
984.60 0.833
984.70 0.8325
984.80 0.8321
984.90 0.8316
985.00 0.8311
985.10 0.8307
985.20 0.8302
985.30 0.8298
985.40 0.8293
985.50 0.8289
985.60 0.8284
985.70 0.8279
985.80 0.8275
985.90 0.827
986.00 0.8266
986.10 0.8261
986.20 0.8257
986.30 0.8252
986.40 0.8247
986.50 0.8243
986.60 0.8238
986.70 0.8234
986.80 0.8229
986.90 0.8225
987.00 0.822
987.10 0.8215
987.20 0.8211
987.30 0.8206
987.40 0.8201
987.50 0.8196
987.60 0.8192
987.70 0.8187
987.80 0.8182
987.90 0.8177
988.00 0.8173
988.10 0.8168
988.20 0.8163
988.30 0.8159
988.40 0.8154
988.50 0.8149
988.60 0.8144
988.70 0.814
988.80 0.8135
988.90 0.813
989.00 0.8125
989.10 0.8121
989.20 0.8116
989.30 0.8111
989.40 0.8106
989.50 0.8102
989.60 0.8097
989.70 0.8092
989.80 0.8088
989.90 0.8083
990.00 0.8078
990.10 0.8073
990.20 0.8069
990.30 0.8064
990.40 0.8059
990.50 0.8054
990.60 0.805
990.70 0.8045
990.80 0.804
990.90 0.8036
991.00 0.8031
991.10 0.8026
991.20 0.8021
991.30 0.8017
991.40 0.8012
991.50 0.8007
991.60 0.8002
991.70 0.7998
991.80 0.7993
991.90 0.7988
992.00 0.7984
992.10 0.7979
992.20 0.7974
992.30 0.797
992.40 0.7965
992.50 0.796
992.60 0.7956
992.70 0.7951
992.80 0.7946
992.90 0.7941
993.00 0.7937
993.10 0.7932
993.20 0.7927
993.30 0.7922
993.40 0.7918
993.50 0.7913
993.60 0.7908
993.70 0.7904
993.80 0.7899
993.90 0.7894
994.00 0.7889
994.10 0.7885
994.20 0.788
994.30 0.7875
994.40 0.787
994.50 0.7866
994.60 0.7861
994.70 0.7856
994.80 0.785
994.90 0.7845
995.00 0.784
995.10 0.7834
995.20 0.7829
995.30 0.7823
995.40 0.7818
995.50 0.7812
995.60 0.7807
995.70 0.7802
995.80 0.7798
995.90 0.7793
996.00 0.7788
996.10 0.7784
996.20 0.7779
996.30 0.7774
996.40 0.777
996.50 0.7765
996.60 0.776
996.70 0.7756
996.80 0.7751
996.90 0.7747
997.00 0.7742
997.10 0.7737
997.20 0.7733
997.30 0.7728
997.40 0.7724
997.50 0.7719
997.60 0.7715
997.70 0.771
997.80 0.7706
997.90 0.7701
998.00 0.7697
998.10 0.7692
998.20 0.7688
998.30 0.7683
998.40 0.7679
998.50 0.7674
998.60 0.767
998.70 0.7666
998.80 0.7661
998.90 0.7657
999.00 0.7652
999.10 0.7648
999.20 0.7643
999.30 0.7639
999.40 0.7634
999.50 0.763
999.60 0.7626
999.70 0.7621
999.80 0.7617
999.90 0.7613
1000.00 0.7608
1000.10 0.7604
1000.20 0.7599
1000.30 0.7595
1000.40 0.7591
1000.50 0.7586
1000.60 0.7582
1000.70 0.7578
1000.80 0.7573
1000.90 0.7569
1001.00 0.7565
1001.10 0.756
1001.20 0.7556
1001.30 0.7552
1001.40 0.7547
1001.50 0.7543
1001.60 0.7539
1001.70 0.7534
1001.80 0.753
1001.90 0.7526
1002.00 0.7521
1002.10 0.7517
1002.20 0.7513
1002.30 0.7509
1002.40 0.7505
1002.50 0.7501
1002.60 0.7496
1002.70 0.7492
1002.80 0.7488
1002.90 0.7484
1003.00 0.748
1003.10 0.7476
1003.20 0.7471
1003.30 0.7467
1003.40 0.7463
1003.50 0.7459
1003.60 0.7455
1003.70 0.745
1003.80 0.7446
1003.90 0.7442
1004.00 0.7438
1004.10 0.7434
1004.20 0.743
1004.30 0.7426
1004.40 0.7422
1004.50 0.7418
1004.60 0.7414
1004.70 0.741
1004.80 0.7406
1004.90 0.7401
1005.00 0.7395
1005.10 0.7391
1005.20 0.7387
1005.30 0.7383
1005.40 0.7379
1005.50 0.7375
1005.60 0.7371
1005.70 0.7367
1005.80 0.7363
1005.90 0.7359
1006.00 0.7355
1006.10 0.7351
1006.20 0.7347
1006.30 0.7343
1006.40 0.734
1006.50 0.7336
1006.60 0.7332
1006.70 0.7328
1006.80 0.7324
1006.90 0.732
1007.00 0.7316
1007.10 0.7312
1007.20 0.7308
1007.30 0.7304
1007.40 0.73
1007.50 0.7297
1007.60 0.7293
1007.70 0.7289
1007.80 0.7285
1007.90 0.7281
1008.00 0.7278
1008.10 0.7274
1008.20 0.727
1008.30 0.7266
1008.40 0.7263
1008.50 0.7259
1008.60 0.7255
1008.70 0.7251
1008.80 0.7248
1008.90 0.7244
1009.00 0.724
1009.10 0.7237
1009.20 0.7233
1009.30 0.7229
1009.40 0.7225
1009.50 0.7222
1009.60 0.7218
1009.70 0.7214
1009.80 0.7211
1009.90 0.7207
1010.00 0.7203
1010.10 0.72
1010.20 0.7196
1010.30 0.7193
1010.40 0.7189
1010.50 0.7185
1010.60 0.7182
1010.70 0.7178
1010.80 0.7175
1010.90 0.7171
1011.00 0.7167
1011.10 0.7164
1011.20 0.716
1011.30 0.7157
1011.40 0.7153
1011.50 0.7149
1011.60 0.7146
1011.70 0.7142
1011.80 0.7139
1011.90 0.7135
1012.00 0.7132
1012.10 0.7128
1012.20 0.7125
1012.30 0.7121
1012.40 0.7118
1012.50 0.7114
1012.60 0.7111
1012.70 0.7108
1012.80 0.7104
1012.90 0.7101
1013.00 0.7097
1013.10 0.7094
1013.20 0.709
1013.30 0.7087
1013.40 0.7084
1013.50 0.708
1013.60 0.7077
1013.70 0.7073
1013.80 0.707
1013.90 0.7067
1014.00 0.7063
1014.10 0.706
1014.20 0.7057
1014.30 0.7053
1014.40 0.705
1014.50 0.7047
1014.60 0.7043
1014.70 0.704
1014.80 0.7037
1014.90 0.7034
1015.00 0.7031
1015.10 0.7028
1015.20 0.7025
1015.30 0.7022
1015.40 0.7019
1015.50 0.7016
1015.60 0.7013
1015.70 0.701
1015.80 0.7007
1015.90 0.7004
1016.00 0.7001
1016.10 0.6998
1016.20 0.6995
1016.30 0.6992
1016.40 0.6989
1016.50 0.6986
1016.60 0.6983
1016.70 0.698
1016.80 0.6977
1016.90 0.6974
1017.00 0.6971
1017.10 0.6968
1017.20 0.6965
1017.30 0.6961
1017.40 0.6958
1017.50 0.6955
1017.60 0.6952
1017.70 0.6949
1017.80 0.6946
1017.90 0.6942
1018.00 0.6939
1018.10 0.6936
1018.20 0.6933
1018.30 0.693
1018.40 0.6927
1018.50 0.6924
1018.60 0.692
1018.70 0.6917
1018.80 0.6914
1018.90 0.6911
1019.00 0.6908
1019.10 0.6905
1019.20 0.6902
1019.30 0.6899
1019.40 0.6896
1019.50 0.6893
1019.60 0.689
1019.70 0.6886
1019.80 0.6883
1019.90 0.688
1020.00 0.6877
1020.10 0.6874
1020.20 0.6871
1020.30 0.6868
1020.40 0.6865
1020.50 0.6862
1020.60 0.6859
1020.70 0.6856
1020.80 0.6853
1020.90 0.685
1021.00 0.6847
1021.10 0.6844
1021.20 0.6841
1021.30 0.6838
1021.40 0.6835
1021.50 0.6832
1021.60 0.6829
1021.70 0.6826
1021.80 0.6823
1021.90 0.682
1022.00 0.6817
1022.10 0.6814
1022.20 0.6811
1022.30 0.6808
1022.40 0.6805
1022.50 0.6802
1022.60 0.6799
1022.70 0.6796
1022.80 0.6793
1022.90 0.679
1023.00 0.6787
1023.10 0.6784
1023.20 0.6781
1023.30 0.6778
1023.40 0.6776
1023.50 0.6773
1023.60 0.677
1023.70 0.6767
1023.80 0.6764
1023.90 0.6761
1024.00 0.6758
1024.10 0.6755
1024.20 0.6752
1024.30 0.6749
1024.40 0.6746
1024.50 0.6743
1024.60 0.674
1024.70 0.6738
1024.80 0.6735
1024.90 0.6732
1025.00 0.6729
1025.10 0.6726
1025.20 0.6723
1025.30 0.672
1025.40 0.6718
1025.50 0.6715
1025.60 0.6712
1025.70 0.6709
1025.80 0.6706
1025.90 0.6703
1026.00 0.67
1026.10 0.6698
1026.20 0.6695
1026.30 0.6692
1026.40 0.6689
1026.50 0.6686
1026.60 0.6683
1026.70 0.668
1026.80 0.6678
1026.90 0.6675
1027.00 0.6672
1027.10 0.6669
1027.20 0.6667
1027.30 0.6664
1027.40 0.6661
1027.50 0.6658
1027.60 0.6656
1027.70 0.6653
1027.80 0.665
1027.90 0.6648
1028.00 0.6645
1028.10 0.6642
1028.20 0.664
1028.30 0.6637
1028.40 0.6634
1028.50 0.6631
1028.60 0.6629
1028.70 0.6626
1028.80 0.6623
1028.90 0.6621
1029.00 0.6618
1029.10 0.6615
1029.20 0.6613
1029.30 0.661
1029.40 0.6607
1029.50 0.6605
1029.60 0.6602
1029.70 0.6599
1029.80 0.6597
1029.90 0.6594
1030.00 0.6591
1030.10 0.6589
1030.20 0.6586
1030.30 0.6583
1030.40 0.6581
1030.50 0.6578
1030.60 0.6575
1030.70 0.6573
1030.80 0.657
1030.90 0.6567
1031.00 0.6565
1031.10 0.6562
1031.20 0.6559
1031.30 0.6557
1031.40 0.6554
1031.50 0.6551
1031.60 0.6549
1031.70 0.6546
1031.80 0.6543
1031.90 0.6541
1032.00 0.6538
1032.10 0.6535
1032.20 0.6533
1032.30 0.653
1032.40 0.6528
1032.50 0.6525
1032.60 0.6523
1032.70 0.652
1032.80 0.6518
1032.90 0.6515
1033.00 0.6513
1033.10 0.651
1033.20 0.6508
1033.30 0.6505
1033.40 0.6503
1033.50 0.65
1033.60 0.6498
1033.70 0.6495
1033.80 0.6493
1033.90 0.649
1034.00 0.6488
1034.10 0.6485
1034.20 0.6483
1034.30 0.648
1034.40 0.6478
1034.50 0.6475
1034.60 0.6473
1034.70 0.6471
1034.80 0.6468
1034.90 0.6466
1035.00 0.6463
1035.10 0.6461
1035.20 0.6458
1035.30 0.6456
1035.40 0.6453
1035.50 0.6451
1035.60 0.6448
1035.70 0.6446
1035.80 0.6443
1035.90 0.6441
1036.00 0.6438
1036.10 0.6436
1036.20 0.6433
1036.30 0.6431
1036.40 0.6428
1036.50 0.6426
1036.60 0.6423
1036.70 0.6421
1036.80 0.6419
1036.90 0.6416
1037.00 0.6414
1037.10 0.6411
1037.20 0.6409
1037.30 0.6407
1037.40 0.6404
1037.50 0.6402
1037.60 0.64
1037.70 0.6398
1037.80 0.6395
1037.90 0.6393
1038.00 0.6391
1038.10 0.6388
1038.20 0.6386
1038.30 0.6384
1038.40 0.6382
1038.50 0.6379
1038.60 0.6377
1038.70 0.6375
1038.80 0.6372
1038.90 0.637
1039.00 0.6368
1039.10 0.6366
1039.20 0.6363
1039.30 0.6361
1039.40 0.6359
1039.50 0.6357
1039.60 0.6354
1039.70 0.6352
1039.80 0.635
1039.90 0.6347
1040.00 0.6345
1040.10 0.6343
1040.20 0.6341
1040.30 0.6338
1040.40 0.6336
1040.50 0.6334
1040.60 0.6332
1040.70 0.6329
1040.80 0.6327
1040.90 0.6325
1041.00 0.6323
1041.10 0.632
1041.20 0.6318
1041.30 0.6316
1041.40 0.6314
1041.50 0.6311
1041.60 0.6309
1041.70 0.6307
1041.80 0.6304
1041.90 0.6302
1042.00 0.63
1042.10 0.6298
1042.20 0.6296
1042.30 0.6294
1042.40 0.6292
1042.50 0.629
1042.60 0.6287
1042.70 0.6285
1042.80 0.6283
1042.90 0.6281
1043.00 0.6279
1043.10 0.6277
1043.20 0.6275
1043.30 0.6273
1043.40 0.6271
1043.50 0.6269
1043.60 0.6267
1043.70 0.6265
1043.80 0.6263
1043.90 0.6261
1044.00 0.6258
1044.10 0.6256
1044.20 0.6254
1044.30 0.6252
1044.40 0.625
1044.50 0.6248
1044.60 0.6246
1044.70 0.6244
1044.80 0.6242
1044.90 0.624
1045.00 0.6238
1045.10 0.6236
1045.20 0.6234
1045.30 0.6232
1045.40 0.623
1045.50 0.6228
1045.60 0.6225
1045.70 0.6223
1045.80 0.6221
1045.90 0.6219
1046.00 0.6217
1046.10 0.6215
1046.20 0.6213
1046.30 0.6211
1046.40 0.6209
1046.50 0.6207
1046.60 0.6205
1046.70 0.6203
1046.80 0.6201
1046.90 0.6199
1047.00 0.6197
1047.10 0.6195
1047.20 0.6193
1047.30 0.6191
1047.40 0.6189
1047.50 0.6187
1047.60 0.6185
1047.70 0.6183
1047.80 0.6182
1047.90 0.618
1048.00 0.6178
1048.10 0.6176
1048.20 0.6174
1048.30 0.6172
1048.40 0.617
1048.50 0.6168
1048.60 0.6166
1048.70 0.6164
1048.80 0.6163
1048.90 0.6161
1049.00 0.6159
1049.10 0.6157
1049.20 0.6155
1049.30 0.6153
1049.40 0.6151
1049.50 0.6149
1049.60 0.6147
1049.70 0.6146
1049.80 0.6144
1049.90 0.6142
1050.00 0.614
1050.10 0.6138
1050.20 0.6136
1050.30 0.6134
1050.40 0.6132
1050.50 0.6131
1050.60 0.6129
1050.70 0.6127
1050.80 0.6125
1050.90 0.6123
1051.00 0.6121
1051.10 0.6119
1051.20 0.6117
1051.30 0.6116
1051.40 0.6114
1051.50 0.6112
1051.60 0.611
1051.70 0.6108
1051.80 0.6106
1051.90 0.6104
1052.00 0.6102
1052.10 0.6101
1052.20 0.6099
1052.30 0.6097
1052.40 0.6096
1052.50 0.6094
1052.60 0.6092
1052.70 0.609
1052.80 0.6089
1052.90 0.6087
1053.00 0.6085
1053.10 0.6084
1053.20 0.6082
1053.30 0.608
1053.40 0.6079
1053.50 0.6077
1053.60 0.6075
1053.70 0.6074
1053.80 0.6072
1053.90 0.607
1054.00 0.6068
1054.10 0.6067
1054.20 0.6065
1054.30 0.6063
1054.40 0.6062
1054.50 0.606
1054.60 0.6058
1054.70 0.6057
1054.80 0.6055
1054.90 0.6053
1055.00 0.6052
1055.10 0.605
1055.20 0.6048
1055.30 0.6046
1055.40 0.6045
1055.50 0.6043
1055.60 0.6041
1055.70 0.604
1055.80 0.6038
1055.90 0.6036
1056.00 0.6035
1056.10 0.6033
1056.20 0.6031
1056.30 0.603
1056.40 0.6028
1056.50 0.6026
1056.60 0.6025
1056.70 0.6023
1056.80 0.6021
1056.90 0.602
1057.00 0.6018
1057.10 0.6016
1057.20 0.6015
1057.30 0.6013
1057.40 0.6012
1057.50 0.601
1057.60 0.6009
1057.70 0.6007
1057.80 0.6006
1057.90 0.6004
1058.00 0.6003
1058.10 0.6001
1058.20 0.6
1058.30 0.5998
1058.40 0.5997
1058.50 0.5995
1058.60 0.5994
1058.70 0.5992
1058.80 0.5991
1058.90 0.5989
1059.00 0.5988
1059.10 0.5986
1059.20 0.5985
1059.30 0.5983
1059.40 0.5982
1059.50 0.598
1059.60 0.5979
1059.70 0.5977
1059.80 0.5976
1059.90 0.5974
1060.00 0.5973
1060.10 0.5971
1060.20 0.597
1060.30 0.5968
1060.40 0.5967
1060.50 0.5965
1060.60 0.5964
1060.70 0.5962
1060.80 0.5961
1060.90 0.5959
1061.00 0.5958
1061.10 0.5956
1061.20 0.5955
1061.30 0.5953
1061.40 0.5952
1061.50 0.595
1061.60 0.5949
1061.70 0.5948
1061.80 0.5946
1061.90 0.5945
1062.00 0.5943
1062.10 0.5942
1062.20 0.594
1062.30 0.5939
1062.40 0.5938
1062.50 0.5936
1062.60 0.5935
1062.70 0.5934
1062.80 0.5932
1062.90 0.5931
1063.00 0.593
1063.10 0.5928
1063.20 0.5927
1063.30 0.5925
1063.40 0.5924
1063.50 0.5923
1063.60 0.5921
1063.70 0.592
1063.80 0.5919
1063.90 0.5917
1064.00 0.5916
1064.10 0.5915
1064.20 0.5913
1064.30 0.5912
1064.40 0.5911
1064.50 0.5909
1064.60 0.5908
1064.70 0.5907
1064.80 0.5905
1064.90 0.5904
1065.00 0.5903
1065.10 0.5901
1065.20 0.59
1065.30 0.5899
1065.40 0.5897
1065.50 0.5896
1065.60 0.5895
1065.70 0.5893
1065.80 0.5892
1065.90 0.589
1066.00 0.5889
1066.10 0.5888
1066.20 0.5886
1066.30 0.5885
1066.40 0.5884
1066.50 0.5882
1066.60 0.5881
1066.70 0.588
1066.80 0.5878
1066.90 0.5877
1067.00 0.5876
1067.10 0.5875
1067.20 0.5873
1067.30 0.5872
1067.40 0.5871
1067.50 0.587
1067.60 0.5869
1067.70 0.5868
1067.80 0.5866
1067.90 0.5865
1068.00 0.5864
1068.10 0.5863
1068.20 0.5862
1068.30 0.5861
1068.40 0.5859
1068.50 0.5858
1068.60 0.5857
1068.70 0.5856
1068.80 0.5855
1068.90 0.5854
1069.00 0.5852
1069.10 0.5851
1069.20 0.585
1069.30 0.5849
1069.40 0.5848
1069.50 0.5847
1069.60 0.5845
1069.70 0.5844
1069.80 0.5843
1069.90 0.5842
1070.00 0.5841
1070.10 0.584
1070.20 0.5838
1070.30 0.5837
1070.40 0.5836
1070.50 0.5835
1070.60 0.5834
1070.70 0.5833
1070.80 0.5831
1070.90 0.583
1071.00 0.5829
1071.10 0.5828
1071.20 0.5827
1071.30 0.5826
1071.40 0.5825
1071.50 0.5823
1071.60 0.5822
1071.70 0.5821
1071.80 0.582
1071.90 0.5819
1072.00 0.5818
1072.10 0.5816
1072.20 0.5815
1072.30 0.5814
1072.40 0.5813
1072.50 0.5812
1072.60 0.5811
1072.70 0.581
1072.80 0.5809
1072.90 0.5807
1073.00 0.5806
1073.10 0.5805
1073.20 0.5804
1073.30 0.5803
1073.40 0.5802
1073.50 0.5801
1073.60 0.58
1073.70 0.5799
1073.80 0.5798
1073.90 0.5797
1074.00 0.5796
1074.10 0.5795
1074.20 0.5793
1074.30 0.5792
1074.40 0.5791
1074.50 0.579
1074.60 0.5789
1074.70 0.5788
1074.80 0.5787
1074.90 0.5786
1075.00 0.5785
1075.10 0.5784
1075.20 0.5783
1075.30 0.5782
1075.40 0.5781
1075.50 0.578
1075.60 0.5779
1075.70 0.5778
1075.80 0.5777
1075.90 0.5776
1076.00 0.5775
1076.10 0.5774
1076.20 0.5773
1076.30 0.5772
1076.40 0.5771
1076.50 0.5769
1076.60 0.5768
1076.70 0.5767
1076.80 0.5766
1076.90 0.5765
1077.00 0.5764
1077.10 0.5763
1077.20 0.5762
1077.30 0.5761
1077.40 0.576
1077.50 0.5759
1077.60 0.5758
1077.70 0.5757
1077.80 0.5756
1077.90 0.5755
1078.00 0.5754
1078.10 0.5753
1078.20 0.5752
1078.30 0.5751
1078.40 0.575
1078.50 0.5749
1078.60 0.5748
1078.70 0.5747
1078.80 0.5746
1078.90 0.5745
1079.00 0.5744
1079.10 0.5743
1079.20 0.5742
1079.30 0.5741
1079.40 0.574
1079.50 0.5739
1079.60 0.5738
1079.70 0.5738
1079.80 0.5737
1079.90 0.5736
1080.00 0.5735
1080.10 0.5734
1080.20 0.5733
1080.30 0.5732
1080.40 0.5731
1080.50 0.573
1080.60 0.573
1080.70 0.5729
1080.80 0.5728
1080.90 0.5727
1081.00 0.5726
1081.10 0.5725
1081.20 0.5724
1081.30 0.5723
1081.40 0.5722
1081.50 0.5722
1081.60 0.5721
1081.70 0.572
1081.80 0.5719
1081.90 0.5718
1082.00 0.5717
1082.10 0.5716
1082.20 0.5715
1082.30 0.5714
1082.40 0.5713
1082.50 0.5713
1082.60 0.5712
1082.70 0.5711
1082.80 0.571
1082.90 0.5709
1083.00 0.5708
1083.10 0.5707
1083.20 0.5706
1083.30 0.5706
1083.40 0.5705
1083.50 0.5704
1083.60 0.5703
1083.70 0.5702
1083.80 0.5701
1083.90 0.57
1084.00 0.57
1084.10 0.5699
1084.20 0.5698
1084.30 0.5697
1084.40 0.5696
1084.50 0.5695
1084.60 0.5694
1084.70 0.5693
1084.80 0.5693
1084.90 0.5692
1085.00 0.5691
1085.10 0.569
1085.20 0.5689
1085.30 0.5689
1085.40 0.5688
1085.50 0.5687
1085.60 0.5686
1085.70 0.5685
1085.80 0.5684
1085.90 0.5684
1086.00 0.5683
1086.10 0.5682
1086.20 0.5681
1086.30 0.568
1086.40 0.568
1086.50 0.5679
1086.60 0.5678
1086.70 0.5677
1086.80 0.5676
1086.90 0.5675
1087.00 0.5675
1087.10 0.5674
1087.20 0.5673
1087.30 0.5672
1087.40 0.5671
1087.50 0.567
1087.60 0.567
1087.70 0.5669
1087.80 0.5668
1087.90 0.5667
1088.00 0.5666
1088.10 0.5666
1088.20 0.5665
1088.30 0.5664
1088.40 0.5663
1088.50 0.5662
1088.60 0.5662
1088.70 0.5661
1088.80 0.566
1088.90 0.5659
1089.00 0.5659
1089.10 0.5658
1089.20 0.5657
1089.30 0.5656
1089.40 0.5656
1089.50 0.5655
1089.60 0.5654
1089.70 0.5653
1089.80 0.5653
1089.90 0.5652
1090.00 0.5651
1090.10 0.565
1090.20 0.5649
1090.30 0.5649
1090.40 0.5648
1090.50 0.5647
1090.60 0.5646
1090.70 0.5646
1090.80 0.5645
1090.90 0.5644
1091.00 0.5644
1091.10 0.5643
1091.20 0.5642
1091.30 0.5641
1091.40 0.5641
1091.50 0.564
1091.60 0.5639
1091.70 0.5638
1091.80 0.5638
1091.90 0.5637
1092.00 0.5636
1092.10 0.5635
1092.20 0.5635
1092.30 0.5634
1092.40 0.5633
1092.50 0.5633
1092.60 0.5632
1092.70 0.5631
1092.80 0.5631
1092.90 0.563
1093.00 0.563
1093.10 0.5629
1093.20 0.5629
1093.30 0.5628
1093.40 0.5627
1093.50 0.5627
1093.60 0.5626
1093.70 0.5625
1093.80 0.5624
1093.90 0.5624
1094.00 0.5623
1094.10 0.5622
1094.20 0.5622
1094.30 0.5621
1094.40 0.562
1094.50 0.5619
1094.60 0.5619
1094.70 0.5618
1094.80 0.5617
1094.90 0.5617
1095.00 0.5616
1095.10 0.5615
1095.20 0.5615
1095.30 0.5614
1095.40 0.5613
1095.50 0.5613
1095.60 0.5612
1095.70 0.5611
1095.80 0.5611
1095.90 0.561
1096.00 0.5609
1096.10 0.5609
1096.20 0.5608
1096.30 0.5607
1096.40 0.5607
1096.50 0.5606
1096.60 0.5605
1096.70 0.5605
1096.80 0.5604
1096.90 0.5603
1097.00 0.5603
1097.10 0.5602
1097.20 0.5601
1097.30 0.5601
1097.40 0.56
1097.50 0.5599
1097.60 0.5599
1097.70 0.5598
1097.80 0.5597
1097.90 0.5597
1098.00 0.5596
1098.10 0.5596
1098.20 0.5595
1098.30 0.5594
1098.40 0.5594
1098.50 0.5593
1098.60 0.5592
1098.70 0.5592
1098.80 0.5591
1098.90 0.559
1099.00 0.559
1099.10 0.5589
1099.20 0.5588
1099.30 0.5588
1099.40 0.5587
1099.50 0.5586
1099.60 0.5586
1099.70 0.5585
1099.80 0.5584
1099.90 0.5584
1100.00 0.5583
1100.10 0.5582
1100.20 0.5582
1100.30 0.5581
1100.40 0.558
1100.50 0.558
1100.60 0.5579
1100.70 0.5579
1100.80 0.5578
1100.90 0.5577
1101.00 0.5577
1101.10 0.5576
1101.20 0.5575
1101.30 0.5575
1101.40 0.5574
1101.50 0.5574
1101.60 0.5573
1101.70 0.5572
1101.80 0.5572
1101.90 0.5571
1102.00 0.5571
1102.10 0.557
1102.20 0.5569
1102.30 0.5569
1102.40 0.5568
1102.50 0.5568
1102.60 0.5567
1102.70 0.5567
1102.80 0.5566
1102.90 0.5565
1103.00 0.5565
1103.10 0.5564
1103.20 0.5563
1103.30 0.5563
1103.40 0.5562
1103.50 0.5562
1103.60 0.5561
1103.70 0.556
1103.80 0.556
1103.90 0.5559
1104.00 0.5559
1104.10 0.5558
1104.20 0.5558
1104.30 0.5557
1104.40 0.5557
1104.50 0.5556
1104.60 0.5556
1104.70 0.5555
1104.80 0.5555
1104.90 0.5554
1105.00 0.5553
1105.10 0.5553
1105.20 0.5552
1105.30 0.5552
1105.40 0.5551
1105.50 0.5551
1105.60 0.555
1105.70 0.555
1105.80 0.5549
1105.90 0.5548
1106.00 0.5548
1106.10 0.5547
1106.20 0.5547
1106.30 0.5546
1106.40 0.5546
1106.50 0.5545
1106.60 0.5544
1106.70 0.5544
1106.80 0.5543
1106.90 0.5543
1107.00 0.5542
1107.10 0.5542
1107.20 0.5541
1107.30 0.5541
1107.40 0.554
1107.50 0.5539
1107.60 0.5539
1107.70 0.5538
1107.80 0.5538
1107.90 0.5537
1108.00 0.5537
1108.10 0.5536
1108.20 0.5535
1108.30 0.5535
1108.40 0.5534
1108.50 0.5534
1108.60 0.5533
1108.70 0.5533
1108.80 0.5532
1108.90 0.5532
1109.00 0.5531
1109.10 0.553
1109.20 0.553
1109.30 0.5529
1109.40 0.5529
1109.50 0.5528
1109.60 0.5528
1109.70 0.5527
1109.80 0.5527
1109.90 0.5526
1110.00 0.5525
1110.10 0.5525
1110.20 0.5524
1110.30 0.5524
1110.40 0.5523
1110.50 0.5523
1110.60 0.5522
1110.70 0.5522
1110.80 0.5521
1110.90 0.552
1111.00 0.552
1111.10 0.5519
1111.20 0.5519
1111.30 0.5518
1111.40 0.5518
1111.50 0.5517
1111.60 0.5517
1111.70 0.5516
1111.80 0.5516
1111.90 0.5515
1112.00 0.5515
1112.10 0.5514
1112.20 0.5513
1112.30 0.5513
1112.40 0.5512
1112.50 0.5512
1112.60 0.5511
1112.70 0.5511
1112.80 0.551
1112.90 0.551
1113.00 0.5509
1113.10 0.5508
1113.20 0.5508
1113.30 0.5507
1113.40 0.5507
1113.50 0.5506
1113.60 0.5506
1113.70 0.5505
1113.80 0.5505
1113.90 0.5504
1114.00 0.5504
1114.10 0.5503
1114.20 0.5503
1114.30 0.5502
1114.40 0.5501
1114.50 0.5501
1114.60 0.55
1114.70 0.55
1114.80 0.5499
1114.90 0.5499
1115.00 0.5498
1115.10 0.5498
1115.20 0.5497
1115.30 0.5497
1115.40 0.5496
1115.50 0.5496
1115.60 0.5495
1115.70 0.5495
1115.80 0.5494
1115.90 0.5494
1116.00 0.5493
1116.10 0.5492
1116.20 0.5492
1116.30 0.5491
1116.40 0.5491
1116.50 0.549
1116.60 0.549
1116.70 0.5489
1116.80 0.5489
1116.90 0.5488
1117.00 0.5488
1117.10 0.5487
1117.20 0.5487
1117.30 0.5486
1117.40 0.5486
1117.50 0.5485
1117.60 0.5485
1117.70 0.5484
1117.80 0.5484
1117.90 0.5483
1118.00 0.5483
1118.10 0.5482
1118.20 0.5482
1118.30 0.5481
1118.40 0.5481
1118.50 0.548
1118.60 0.548
1118.70 0.5479
1118.80 0.5479
1118.90 0.5478
1119.00 0.5478
1119.10 0.5477
1119.20 0.5477
1119.30 0.5476
1119.40 0.5476
1119.50 0.5475
1119.60 0.5475
1119.70 0.5474
1119.80 0.5474
1119.90 0.5474
1120.00 0.5473
1120.10 0.5473
1120.20 0.5472
1120.30 0.5472
1120.40 0.5471
1120.50 0.5471
1120.60 0.547
1120.70 0.547
1120.80 0.5469
1120.90 0.5469
1121.00 0.5468
1121.10 0.5468
1121.20 0.5467
1121.30 0.5467
1121.40 0.5466
1121.50 0.5466
1121.60 0.5465
1121.70 0.5465
1121.80 0.5464
1121.90 0.5464
1122.00 0.5463
1122.10 0.5463
1122.20 0.5462
1122.30 0.5462
1122.40 0.5461
1122.50 0.5461
1122.60 0.546
1122.70 0.546
1122.80 0.5459
1122.90 0.5459
1123.00 0.5458
1123.10 0.5458
1123.20 0.5457
1123.30 0.5457
1123.40 0.5456
1123.50 0.5456
1123.60 0.5455
1123.70 0.5455
1123.80 0.5454
1123.90 0.5454
1124.00 0.5453
1124.10 0.5453
1124.20 0.5452
1124.30 0.5452
1124.40 0.5451
1124.50 0.5451
1124.60 0.545
1124.70 0.545
1124.80 0.5449
1124.90 0.5449
1125.00 0.5448
1125.10 0.5448
1125.20 0.5447
1125.30 0.5447
1125.40 0.5446
1125.50 0.5446
1125.60 0.5445
1125.70 0.5445
1125.80 0.5444
1125.90 0.5444
1126.00 0.5443
1126.10 0.5443
1126.20 0.5442
1126.30 0.5442
1126.40 0.5441
1126.50 0.5441
1126.60 0.544
1126.70 0.544
1126.80 0.5439
1126.90 0.5439
1127.00 0.5438
1127.10 0.5438
1127.20 0.5437
1127.30 0.5437
1127.40 0.5436
1127.50 0.5436
1127.60 0.5435
1127.70 0.5435
1127.80 0.5434
1127.90 0.5434
1128.00 0.5433
1128.10 0.5433
1128.20 0.5432
1128.30 0.5432
1128.40 0.5431
1128.50 0.5431
1128.60 0.543
1128.70 0.543
1128.80 0.5429
1128.90 0.5429
1129.00 0.5428
1129.10 0.5428
1129.20 0.5427
1129.30 0.5427
1129.40 0.5426
1129.50 0.5426
1129.60 0.5426
1129.70 0.5425
1129.80 0.5425
1129.90 0.5424
1130.00 0.5424
1130.10 0.5423
1130.20 0.5423
1130.30 0.5422
1130.40 0.5422
1130.50 0.5421
1130.60 0.5421
1130.70 0.542
1130.80 0.542
1130.90 0.5419
1131.00 0.5419
1131.10 0.5418
1131.20 0.5418
1131.30 0.5417
1131.40 0.5417
1131.50 0.5416
1131.60 0.5416
1131.70 0.5415
1131.80 0.5415
1131.90 0.5415
1132.00 0.5414
1132.10 0.5413
1132.20 0.5413
1132.30 0.5412
1132.40 0.5412
1132.50 0.5411
1132.60 0.5411
1132.70 0.541
1132.80 0.541
1132.90 0.5409
1133.00 0.5409
1133.10 0.5408
1133.20 0.5408
1133.30 0.5407
1133.40 0.5406
1133.50 0.5406
1133.60 0.5405
1133.70 0.5405
1133.80 0.5404
1133.90 0.5404
1134.00 0.5403
1134.10 0.5403
1134.20 0.5402
1134.30 0.5402
1134.40 0.5401
1134.50 0.5401
1134.60 0.54
1134.70 0.5399
1134.80 0.5399
1134.90 0.5398
1135.00 0.5398
1135.10 0.5397
1135.20 0.5397
1135.30 0.5396
1135.40 0.5396
1135.50 0.5395
1135.60 0.5395
1135.70 0.5394
1135.80 0.5394
1135.90 0.5393
1136.00 0.5393
1136.10 0.5392
1136.20 0.5391
1136.30 0.5391
1136.40 0.539
1136.50 0.539
1136.60 0.5389
1136.70 0.5389
1136.80 0.5388
1136.90 0.5388
1137.00 0.5387
1137.10 0.5387
1137.20 0.5386
1137.30 0.5385
1137.40 0.5385
1137.50 0.5384
1137.60 0.5384
1137.70 0.5383
1137.80 0.5383
1137.90 0.5382
1138.00 0.5381
1138.10 0.5381
1138.20 0.538
1138.30 0.538
1138.40 0.5379
1138.50 0.5379
1138.60 0.5378
1138.70 0.5377
1138.80 0.5377
1138.90 0.5376
1139.00 0.5376
1139.10 0.5375
1139.20 0.5375
1139.30 0.5374
1139.40 0.5373
1139.50 0.5373
1139.60 0.5372
1139.70 0.5372
1139.80 0.5371
1139.90 0.5371
1140.00 0.537
1140.10 0.5369
1140.20 0.5369
1140.30 0.5368
1140.40 0.5368
1140.50 0.5367
1140.60 0.5367
1140.70 0.5366
1140.80 0.5365
1140.90 0.5365
1141.00 0.5364
1141.10 0.5364
1141.20 0.5363
1141.30 0.5363
1141.40 0.5362
1141.50 0.5361
1141.60 0.5361
1141.70 0.536
1141.80 0.536
1141.90 0.5359
1142.00 0.5359
1142.10 0.5358
1142.20 0.5357
1142.30 0.5357
1142.40 0.5356
1142.50 0.5356
1142.60 0.5355
1142.70 0.5354
1142.80 0.5354
1142.90 0.5353
1143.00 0.5353
1143.10 0.5352
1143.20 0.5351
1143.30 0.5351
1143.40 0.535
1143.50 0.535
1143.60 0.5349
1143.70 0.5348
1143.80 0.5348
1143.90 0.5347
1144.00 0.5347
1144.10 0.5346
1144.20 0.5346
1144.30 0.5345
1144.40 0.5344
1144.50 0.5344
1144.60 0.5343
1144.70 0.5343
1144.80 0.5342
1144.90 0.5341
1145.00 0.5341
1145.10 0.534
1145.20 0.534
1145.30 0.5339
1145.40 0.5339
1145.50 0.5338
1145.60 0.5337
1145.70 0.5337
1145.80 0.5336
1145.90 0.5336
1146.00 0.5335
1146.10 0.5334
1146.20 0.5334
1146.30 0.5333
1146.40 0.5333
1146.50 0.5332
1146.60 0.5331
1146.70 0.5331
1146.80 0.533
1146.90 0.533
1147.00 0.5329
1147.10 0.5328
1147.20 0.5328
1147.30 0.5327
1147.40 0.5327
1147.50 0.5326
1147.60 0.5325
1147.70 0.5325
1147.80 0.5324
1147.90 0.5323
1148.00 0.5323
1148.10 0.5322
1148.20 0.5321
1148.30 0.5321
1148.40 0.532
1148.50 0.5319
1148.60 0.5319
1148.70 0.5318
1148.80 0.5317
1148.90 0.5317
1149.00 0.5316
1149.10 0.5315
1149.20 0.5315
1149.30 0.5314
1149.40 0.5313
1149.50 0.5313
1149.60 0.5312
1149.70 0.5311
1149.80 0.5311
1149.90 0.531
1150.00 0.531
1150.10 0.5309
1150.20 0.5308
1150.30 0.5308
1150.40 0.5307
1150.50 0.5306
1150.60 0.5306
1150.70 0.5305
1150.80 0.5304
1150.90 0.5304
1151.00 0.5303
1151.10 0.5302
1151.20 0.5302
1151.30 0.5301
1151.40 0.53
1151.50 0.53
1151.60 0.5299
1151.70 0.5298
1151.80 0.5298
1151.90 0.5297
1152.00 0.5297
1152.10 0.5296
1152.20 0.5295
1152.30 0.5294
1152.40 0.5294
1152.50 0.5293
1152.60 0.5292
1152.70 0.5292
1152.80 0.5291
1152.90 0.529
1153.00 0.529
1153.10 0.5289
1153.20 0.5288
1153.30 0.5288
1153.40 0.5287
1153.50 0.5286
1153.60 0.5286
1153.70 0.5285
1153.80 0.5284
1153.90 0.5284
1154.00 0.5283
1154.10 0.5282
1154.20 0.5281
1154.30 0.5281
1154.40 0.528
1154.50 0.5279
1154.60 0.5279
1154.70 0.5278
1154.80 0.5277
1154.90 0.5277
1155.00 0.5276
1155.10 0.5275
1155.20 0.5275
1155.30 0.5274
1155.40 0.5273
1155.50 0.5273
1155.60 0.5272
1155.70 0.5271
1155.80 0.5271
1155.90 0.527
1156.00 0.5269
1156.10 0.5268
1156.20 0.5268
1156.30 0.5267
1156.40 0.5266
1156.50 0.5266
1156.60 0.5265
1156.70 0.5264
1156.80 0.5264
1156.90 0.5263
1157.00 0.5262
1157.10 0.5262
1157.20 0.5261
1157.30 0.526
1157.40 0.5259
1157.50 0.5259
1157.60 0.5258
1157.70 0.5257
1157.80 0.5256
1157.90 0.5256
1158.00 0.5255
1158.10 0.5254
1158.20 0.5253
1158.30 0.5252
1158.40 0.5252
1158.50 0.5251
1158.60 0.525
1158.70 0.5249
1158.80 0.5249
1158.90 0.5248
1159.00 0.5247
1159.10 0.5246
1159.20 0.5246
1159.30 0.5245
1159.40 0.5244
1159.50 0.5243
1159.60 0.5243
1159.70 0.5242
1159.80 0.5241
1159.90 0.524
1160.00 0.524
1160.10 0.5239
1160.20 0.5238
1160.30 0.5237
1160.40 0.5237
1160.50 0.5236
1160.60 0.5235
1160.70 0.5234
1160.80 0.5234
1160.90 0.5233
1161.00 0.5232
1161.10 0.5231
1161.20 0.5231
1161.30 0.523
1161.40 0.5229
1161.50 0.5228
1161.60 0.5228
1161.70 0.5227
1161.80 0.5226
1161.90 0.5225
1162.00 0.5225
1162.10 0.5224
1162.20 0.5223
1162.30 0.5222
1162.40 0.5221
1162.50 0.522
1162.60 0.522
1162.70 0.5219
1162.80 0.5218
1162.90 0.5217
1163.00 0.5216
1163.10 0.5216
1163.20 0.5215
1163.30 0.5214
1163.40 0.5213
1163.50 0.5212
1163.60 0.5211
1163.70 0.5211
1163.80 0.521
1163.90 0.5209
1164.00 0.5208
1164.10 0.5207
1164.20 0.5207
1164.30 0.5206
1164.40 0.5205
1164.50 0.5204
1164.60 0.5203
1164.70 0.5202
1164.80 0.5202
1164.90 0.5201
1165.00 0.52
1165.10 0.5199
1165.20 0.5198
1165.30 0.5198
1165.40 0.5197
1165.50 0.5196
1165.60 0.5195
1165.70 0.5194
1165.80 0.5194
1165.90 0.5193
1166.00 0.5192
1166.10 0.5191
1166.20 0.519
1166.30 0.5189
1166.40 0.5189
1166.50 0.5188
1166.60 0.5187
1166.70 0.5186
1166.80 0.5185
1166.90 0.5185
1167.00 0.5184
1167.10 0.5183
1167.20 0.5182
1167.30 0.5181
1167.40 0.518
1167.50 0.5179
1167.60 0.5178
1167.70 0.5178
1167.80 0.5177
1167.90 0.5176
1168.00 0.5175
1168.10 0.5174
1168.20 0.5173
1168.30 0.5172
1168.40 0.5171
1168.50 0.5171
1168.60 0.517
1168.70 0.5169
1168.80 0.5168
1168.90 0.5167
1169.00 0.5166
1169.10 0.5165
1169.20 0.5164
1169.30 0.5163
1169.40 0.5163
1169.50 0.5162
1169.60 0.5161
1169.70 0.516
1169.80 0.5159
1169.90 0.5158
1170.00 0.5157
1170.10 0.5156
1170.20 0.5155
1170.30 0.5155
1170.40 0.5154
1170.50 0.5153
1170.60 0.5152
1170.70 0.5151
1170.80 0.515
1170.90 0.5149
1171.00 0.5148
1171.10 0.5148
1171.20 0.5147
1171.30 0.5146
1171.40 0.5145
1171.50 0.5144
1171.60 0.5143
1171.70 0.5142
1171.80 0.5141
1171.90 0.5141
1172.00 0.514
1172.10 0.5139
1172.20 0.5138
1172.30 0.5137
1172.40 0.5136
1172.50 0.5135
1172.60 0.5134
1172.70 0.5133
1172.80 0.5132
1172.90 0.5131
1173.00 0.513
1173.10 0.513
1173.20 0.5129
1173.30 0.5128
1173.40 0.5127
1173.50 0.5126
1173.60 0.5125
1173.70 0.5124
1173.80 0.5123
1173.90 0.5122
1174.00 0.5121
1174.10 0.512
1174.20 0.5119
1174.30 0.5118
1174.40 0.5118
1174.50 0.5117
1174.60 0.5116
1174.70 0.5115
1174.80 0.5114
1174.90 0.5113
1175.00 0.5112
1175.10 0.5111
1175.20 0.511
1175.30 0.5109
1175.40 0.5108
1175.50 0.5107
1175.60 0.5107
1175.70 0.5106
1175.80 0.5105
1175.90 0.5104
1176.00 0.5103
1176.10 0.5102
1176.20 0.5101
1176.30 0.51
1176.40 0.5099
1176.50 0.5098
1176.60 0.5097
1176.70 0.5096
1176.80 0.5096
1176.90 0.5095
1177.00 0.5094
1177.10 0.5093
1177.20 0.5092
1177.30 0.5091
1177.40 0.509
1177.50 0.5089
1177.60 0.5088
1177.70 0.5087
1177.80 0.5086
1177.90 0.5085
1178.00 0.5084
1178.10 0.5083
1178.20 0.5082
1178.30 0.5081
1178.40 0.508
1178.50 0.5079
1178.60 0.5078
1178.70 0.5077
1178.80 0.5076
1178.90 0.5075
1179.00 0.5074
1179.10 0.5073
1179.20 0.5072
1179.30 0.5071
1179.40 0.507
1179.50 0.5069
1179.60 0.5068
1179.70 0.5067
1179.80 0.5066
1179.90 0.5065
1180.00 0.5064
1180.10 0.5063
1180.20 0.5062
1180.30 0.5061
1180.40 0.506
1180.50 0.506
1180.60 0.5059
1180.70 0.5058
1180.80 0.5057
1180.90 0.5056
1181.00 0.5055
1181.10 0.5054
1181.20 0.5053
1181.30 0.5052
1181.40 0.5051
1181.50 0.505
1181.60 0.5049
1181.70 0.5048
1181.80 0.5047
1181.90 0.5046
1182.00 0.5045
1182.10 0.5044
1182.20 0.5043
1182.30 0.5042
1182.40 0.5041
1182.50 0.504
1182.60 0.5039
1182.70 0.5038
1182.80 0.5037
1182.90 0.5036
1183.00 0.5035
1183.10 0.5034
1183.20 0.5033
1183.30 0.5032
1183.40 0.503
1183.50 0.5029
1183.60 0.5028
1183.70 0.5027
1183.80 0.5026
1183.90 0.5025
1184.00 0.5024
1184.10 0.5023
1184.20 0.5022
1184.30 0.5021
1184.40 0.502
1184.50 0.5019
1184.60 0.5018
1184.70 0.5017
1184.80 0.5016
1184.90 0.5015
1185.00 0.5014
1185.10 0.5013
1185.20 0.5012
1185.30 0.5011
1185.40 0.501
1185.50 0.5009
1185.60 0.5008
1185.70 0.5007
1185.80 0.5006
1185.90 0.5005
1186.00 0.5004
1186.10 0.5003
1186.20 0.5002
1186.30 0.5001
1186.40 0.5
1186.50 0.4999
1186.60 0.4998
1186.70 0.4997
1186.80 0.4996
1186.90 0.4995
1187.00 0.4994
1187.10 0.4993
1187.20 0.4991
1187.30 0.499
1187.40 0.4989
1187.50 0.4988
1187.60 0.4987
1187.70 0.4986
1187.80 0.4985
1187.90 0.4984
1188.00 0.4983
1188.10 0.4982
1188.20 0.4981
1188.30 0.498
1188.40 0.4979
1188.50 0.4978
1188.60 0.4977
1188.70 0.4976
1188.80 0.4975
1188.90 0.4974
1189.00 0.4973
1189.10 0.4972
1189.20 0.4971
1189.30 0.497
1189.40 0.4969
1189.50 0.4968
1189.60 0.4967
1189.70 0.4966
1189.80 0.4965
1189.90 0.4963
1190.00 0.4962
1190.10 0.4961
1190.20 0.496
1190.30 0.4959
1190.40 0.4958
1190.50 0.4957
1190.60 0.4956
1190.70 0.4955
1190.80 0.4954
1190.90 0.4953
1191.00 0.4952
1191.10 0.4951
1191.20 0.495
1191.30 0.4949
1191.40 0.4948
1191.50 0.4947
1191.60 0.4946
1191.70 0.4945
1191.80 0.4944
1191.90 0.4943
1192.00 0.4942
1192.10 0.4941
1192.20 0.494
1192.30 0.4939
1192.40 0.4938
1192.50 0.4937
1192.60 0.4936
1192.70 0.4934
1192.80 0.4933
1192.90 0.4932
1193.00 0.4931
1193.10 0.493
1193.20 0.4929
1193.30 0.4928
1193.40 0.4927
1193.50 0.4926
1193.60 0.4925
1193.70 0.4924
1193.80 0.4923
1193.90 0.4922
1194.00 0.4921
1194.10 0.492
1194.20 0.4919
1194.30 0.4917
1194.40 0.4916
1194.50 0.4915
1194.60 0.4914
1194.70 0.4913
1194.80 0.4912
1194.90 0.4911
1195.00 0.491
1195.10 0.4909
1195.20 0.4908
1195.30 0.4907
1195.40 0.4906
1195.50 0.4905
1195.60 0.4904
1195.70 0.4903
1195.80 0.4902
1195.90 0.4901
1196.00 0.49
1196.10 0.4898
1196.20 0.4897
1196.30 0.4896
1196.40 0.4895
1196.50 0.4894
1196.60 0.4893
1196.70 0.4892
1196.80 0.4891
1196.90 0.489
1197.00 0.4889
1197.10 0.4888
1197.20 0.4887
1197.30 0.4886
1197.40 0.4885
1197.50 0.4884
1197.60 0.4882
1197.70 0.4881
1197.80 0.488
1197.90 0.4879
1198.00 0.4878
1198.10 0.4877
1198.20 0.4876
1198.30 0.4875
1198.40 0.4874
1198.50 0.4872
1198.60 0.4871
1198.70 0.487
1198.80 0.4869
1198.90 0.4868
1199.00 0.4867
1199.10 0.4866
1199.20 0.4865
1199.30 0.4864
1199.40 0.4863
1199.50 0.4861
1199.60 0.486
1199.70 0.4859
1199.80 0.4858
1199.90 0.4857
1200.00 0
