# Version 2.1 - nm, norm@500 to 1, cut digits, bergeron_45000_85.dat_45000
# Wavelength(nm)  Flambda(ergs/cm^s/s/nm)
300.00 6.066
300.10 6.059
300.20 6.052
300.30 6.044
300.40 6.037
300.50 6.03
300.60 6.023
300.70 6.016
300.80 6.008
300.90 6.001
301.00 5.994
301.10 5.987
301.20 5.98
301.30 5.973
301.40 5.965
301.50 5.958
301.60 5.951
301.70 5.944
301.80 5.937
301.90 5.93
302.00 5.923
302.10 5.916
302.20 5.909
302.30 5.902
302.40 5.895
302.50 5.888
302.60 5.881
302.70 5.874
302.80 5.867
302.90 5.86
303.00 5.853
303.10 5.846
303.20 5.839
303.30 5.832
303.40 5.825
303.50 5.818
303.60 5.811
303.70 5.804
303.80 5.798
303.90 5.791
304.00 5.784
304.10 5.777
304.20 5.77
304.30 5.763
304.40 5.757
304.50 5.75
304.60 5.743
304.70 5.736
304.80 5.729
304.90 5.723
305.00 5.716
305.10 5.709
305.20 5.703
305.30 5.696
305.40 5.689
305.50 5.682
305.60 5.676
305.70 5.669
305.80 5.662
305.90 5.656
306.00 5.649
306.10 5.642
306.20 5.636
306.30 5.629
306.40 5.623
306.50 5.616
306.60 5.609
306.70 5.603
306.80 5.596
306.90 5.59
307.00 5.583
307.10 5.577
307.20 5.57
307.30 5.563
307.40 5.557
307.50 5.55
307.60 5.544
307.70 5.537
307.80 5.531
307.90 5.524
308.00 5.518
308.10 5.512
308.20 5.505
308.30 5.499
308.40 5.492
308.50 5.486
308.60 5.479
308.70 5.473
308.80 5.467
308.90 5.46
309.00 5.454
309.10 5.448
309.20 5.441
309.30 5.435
309.40 5.429
309.50 5.422
309.60 5.416
309.70 5.41
309.80 5.403
309.90 5.397
310.00 5.391
310.10 5.385
310.20 5.378
310.30 5.372
310.40 5.366
310.50 5.36
310.60 5.353
310.70 5.347
310.80 5.341
310.90 5.335
311.00 5.329
311.10 5.322
311.20 5.316
311.30 5.31
311.40 5.304
311.50 5.298
311.60 5.292
311.70 5.286
311.80 5.279
311.90 5.273
312.00 5.267
312.10 5.261
312.20 5.255
312.30 5.249
312.40 5.243
312.50 5.237
312.60 5.231
312.70 5.225
312.80 5.219
312.90 5.213
313.00 5.207
313.10 5.201
313.20 5.195
313.30 5.189
313.40 5.183
313.50 5.177
313.60 5.171
313.70 5.165
313.80 5.159
313.90 5.153
314.00 5.147
314.10 5.141
314.20 5.135
314.30 5.13
314.40 5.124
314.50 5.118
314.60 5.112
314.70 5.106
314.80 5.1
314.90 5.094
315.00 5.089
315.10 5.083
315.20 5.077
315.30 5.071
315.40 5.065
315.50 5.06
315.60 5.054
315.70 5.048
315.80 5.042
315.90 5.036
316.00 5.031
316.10 5.025
316.20 5.019
316.30 5.013
316.40 5.008
316.50 5.002
316.60 4.996
316.70 4.991
316.80 4.985
316.90 4.979
317.00 4.974
317.10 4.968
317.20 4.962
317.30 4.957
317.40 4.951
317.50 4.945
317.60 4.94
317.70 4.934
317.80 4.929
317.90 4.923
318.00 4.917
318.10 4.912
318.20 4.906
318.30 4.901
318.40 4.895
318.50 4.89
318.60 4.884
318.70 4.878
318.80 4.873
318.90 4.867
319.00 4.862
319.10 4.856
319.20 4.851
319.30 4.845
319.40 4.84
319.50 4.834
319.60 4.829
319.70 4.824
319.80 4.818
319.90 4.813
320.00 4.807
320.10 4.802
320.20 4.796
320.30 4.791
320.40 4.786
320.50 4.78
320.60 4.775
320.70 4.769
320.80 4.764
320.90 4.759
321.00 4.753
321.10 4.748
321.20 4.743
321.30 4.737
321.40 4.732
321.50 4.727
321.60 4.721
321.70 4.716
321.80 4.711
321.90 4.705
322.00 4.7
322.10 4.695
322.20 4.69
322.30 4.684
322.40 4.679
322.50 4.674
322.60 4.669
322.70 4.663
322.80 4.658
322.90 4.653
323.00 4.648
323.10 4.643
323.20 4.637
323.30 4.632
323.40 4.627
323.50 4.622
323.60 4.617
323.70 4.612
323.80 4.606
323.90 4.601
324.00 4.596
324.10 4.591
324.20 4.586
324.30 4.581
324.40 4.576
324.50 4.571
324.60 4.565
324.70 4.56
324.80 4.555
324.90 4.55
325.00 4.545
325.10 4.54
325.20 4.535
325.30 4.53
325.40 4.525
325.50 4.52
325.60 4.515
325.70 4.51
325.80 4.505
325.90 4.5
326.00 4.495
326.10 4.49
326.20 4.485
326.30 4.48
326.40 4.475
326.50 4.47
326.60 4.465
326.70 4.46
326.80 4.455
326.90 4.45
327.00 4.445
327.10 4.44
327.20 4.436
327.30 4.431
327.40 4.426
327.50 4.421
327.60 4.416
327.70 4.411
327.80 4.406
327.90 4.401
328.00 4.397
328.10 4.392
328.20 4.387
328.30 4.382
328.40 4.377
328.50 4.372
328.60 4.368
328.70 4.363
328.80 4.358
328.90 4.353
329.00 4.348
329.10 4.344
329.20 4.339
329.30 4.334
329.40 4.329
329.50 4.325
329.60 4.32
329.70 4.315
329.80 4.31
329.90 4.306
330.00 4.301
330.10 4.296
330.20 4.291
330.30 4.287
330.40 4.282
330.50 4.277
330.60 4.273
330.70 4.268
330.80 4.263
330.90 4.259
331.00 4.254
331.10 4.249
331.20 4.245
331.30 4.24
331.40 4.235
331.50 4.231
331.60 4.226
331.70 4.222
331.80 4.217
331.90 4.212
332.00 4.208
332.10 4.203
332.20 4.199
332.30 4.194
332.40 4.189
332.50 4.185
332.60 4.18
332.70 4.176
332.80 4.171
332.90 4.167
333.00 4.162
333.10 4.158
333.20 4.153
333.30 4.149
333.40 4.144
333.50 4.14
333.60 4.135
333.70 4.131
333.80 4.126
333.90 4.122
334.00 4.117
334.10 4.113
334.20 4.108
334.30 4.104
334.40 4.099
334.50 4.095
334.60 4.09
334.70 4.086
334.80 4.082
334.90 4.077
335.00 4.073
335.10 4.068
335.20 4.064
335.30 4.06
335.40 4.055
335.50 4.051
335.60 4.046
335.70 4.042
335.80 4.038
335.90 4.033
336.00 4.029
336.10 4.025
336.20 4.02
336.30 4.016
336.40 4.012
336.50 4.007
336.60 4.003
336.70 3.999
336.80 3.994
336.90 3.99
337.00 3.986
337.10 3.982
337.20 3.977
337.30 3.973
337.40 3.969
337.50 3.964
337.60 3.96
337.70 3.956
337.80 3.952
337.90 3.947
338.00 3.943
338.10 3.939
338.20 3.935
338.30 3.93
338.40 3.926
338.50 3.922
338.60 3.918
338.70 3.914
338.80 3.91
338.90 3.905
339.00 3.901
339.10 3.897
339.20 3.893
339.30 3.889
339.40 3.884
339.50 3.88
339.60 3.876
339.70 3.872
339.80 3.868
339.90 3.864
340.00 3.86
340.10 3.855
340.20 3.851
340.30 3.847
340.40 3.843
340.50 3.839
340.60 3.835
340.70 3.831
340.80 3.827
340.90 3.823
341.00 3.819
341.10 3.815
341.20 3.811
341.30 3.807
341.40 3.802
341.50 3.798
341.60 3.794
341.70 3.79
341.80 3.786
341.90 3.782
342.00 3.778
342.10 3.774
342.20 3.77
342.30 3.766
342.40 3.762
342.50 3.758
342.60 3.754
342.70 3.75
342.80 3.746
342.90 3.742
343.00 3.738
343.10 3.735
343.20 3.731
343.30 3.727
343.40 3.723
343.50 3.719
343.60 3.715
343.70 3.711
343.80 3.707
343.90 3.703
344.00 3.699
344.10 3.695
344.20 3.691
344.30 3.687
344.40 3.684
344.50 3.68
344.60 3.676
344.70 3.672
344.80 3.668
344.90 3.664
345.00 3.66
345.10 3.656
345.20 3.653
345.30 3.649
345.40 3.645
345.50 3.641
345.60 3.637
345.70 3.633
345.80 3.63
345.90 3.626
346.00 3.622
346.10 3.618
346.20 3.614
346.30 3.611
346.40 3.607
346.50 3.603
346.60 3.599
346.70 3.595
346.80 3.592
346.90 3.588
347.00 3.584
347.10 3.58
347.20 3.577
347.30 3.573
347.40 3.569
347.50 3.565
347.60 3.562
347.70 3.558
347.80 3.554
347.90 3.551
348.00 3.547
348.10 3.543
348.20 3.539
348.30 3.536
348.40 3.532
348.50 3.528
348.60 3.525
348.70 3.521
348.80 3.517
348.90 3.514
349.00 3.51
349.10 3.506
349.20 3.503
349.30 3.499
349.40 3.496
349.50 3.492
349.60 3.488
349.70 3.485
349.80 3.481
349.90 3.477
350.00 3.474
350.10 3.47
350.20 3.467
350.30 3.463
350.40 3.459
350.50 3.456
350.60 3.452
350.70 3.449
350.80 3.445
350.90 3.441
351.00 3.438
351.10 3.434
351.20 3.431
351.30 3.427
351.40 3.424
351.50 3.42
351.60 3.417
351.70 3.413
351.80 3.41
351.90 3.406
352.00 3.402
352.10 3.399
352.20 3.395
352.30 3.392
352.40 3.388
352.50 3.385
352.60 3.381
352.70 3.378
352.80 3.374
352.90 3.371
353.00 3.368
353.10 3.364
353.20 3.361
353.30 3.357
353.40 3.354
353.50 3.35
353.60 3.347
353.70 3.343
353.80 3.34
353.90 3.336
354.00 3.333
354.10 3.33
354.20 3.326
354.30 3.323
354.40 3.319
354.50 3.316
354.60 3.313
354.70 3.309
354.80 3.306
354.90 3.302
355.00 3.299
355.10 3.296
355.20 3.292
355.30 3.289
355.40 3.285
355.50 3.282
355.60 3.279
355.70 3.275
355.80 3.272
355.90 3.269
356.00 3.265
356.10 3.262
356.20 3.259
356.30 3.255
356.40 3.252
356.50 3.249
356.60 3.245
356.70 3.242
356.80 3.239
356.90 3.235
357.00 3.232
357.10 3.229
357.20 3.226
357.30 3.222
357.40 3.219
357.50 3.216
357.60 3.212
357.70 3.209
357.80 3.206
357.90 3.203
358.00 3.199
358.10 3.196
358.20 3.193
358.30 3.19
358.40 3.186
358.50 3.183
358.60 3.18
358.70 3.177
358.80 3.173
358.90 3.17
359.00 3.167
359.10 3.164
359.20 3.161
359.30 3.157
359.40 3.154
359.50 3.151
359.60 3.148
359.70 3.145
359.80 3.141
359.90 3.138
360.00 3.135
360.10 3.132
360.20 3.129
360.30 3.126
360.40 3.122
360.50 3.119
360.60 3.116
360.70 3.113
360.80 3.11
360.90 3.107
361.00 3.104
361.10 3.1
361.20 3.097
361.30 3.094
361.40 3.091
361.50 3.088
361.60 3.085
361.70 3.082
361.80 3.079
361.90 3.075
362.00 3.072
362.10 3.069
362.20 3.066
362.30 3.063
362.40 3.06
362.50 3.057
362.60 3.054
362.70 3.051
362.80 3.048
362.90 3.045
363.00 3.042
363.10 3.038
363.20 3.035
363.30 3.032
363.40 3.029
363.50 3.026
363.60 3.023
363.70 3.02
363.80 3.017
363.90 3.014
364.00 3.011
364.10 3.008
364.20 3.005
364.30 3.002
364.40 2.999
364.50 2.996
364.60 2.993
364.70 2.99
364.80 2.987
364.90 2.984
365.00 2.981
365.10 2.978
365.20 2.975
365.30 2.972
365.40 2.969
365.50 2.966
365.60 2.963
365.70 2.96
365.80 2.957
365.90 2.955
366.00 2.952
366.10 2.949
366.20 2.946
366.30 2.943
366.40 2.94
366.50 2.936
366.60 2.933
366.70 2.93
366.80 2.927
366.90 2.924
367.00 2.921
367.10 2.918
367.20 2.915
367.30 2.913
367.40 2.91
367.50 2.907
367.60 2.904
367.70 2.901
367.80 2.898
367.90 2.895
368.00 2.892
368.10 2.889
368.20 2.886
368.30 2.883
368.40 2.88
368.50 2.877
368.60 2.874
368.70 2.871
368.80 2.868
368.90 2.865
369.00 2.862
369.10 2.859
369.20 2.856
369.30 2.853
369.40 2.85
369.50 2.847
369.60 2.844
369.70 2.841
369.80 2.838
369.90 2.835
370.00 2.832
370.10 2.829
370.20 2.826
370.30 2.823
370.40 2.82
370.50 2.817
370.60 2.814
370.70 2.812
370.80 2.809
370.90 2.806
371.00 2.803
371.10 2.8
371.20 2.797
371.30 2.794
371.40 2.791
371.50 2.789
371.60 2.786
371.70 2.783
371.80 2.78
371.90 2.777
372.00 2.774
372.10 2.772
372.20 2.769
372.30 2.766
372.40 2.763
372.50 2.761
372.60 2.758
372.70 2.755
372.80 2.752
372.90 2.75
373.00 2.747
373.10 2.744
373.20 2.741
373.30 2.739
373.40 2.736
373.50 2.733
373.60 2.73
373.70 2.728
373.80 2.725
373.90 2.722
374.00 2.72
374.10 2.717
374.20 2.714
374.30 2.711
374.40 2.709
374.50 2.706
374.60 2.703
374.70 2.7
374.80 2.698
374.90 2.695
375.00 2.692
375.10 2.69
375.20 2.687
375.30 2.684
375.40 2.681
375.50 2.679
375.60 2.676
375.70 2.673
375.80 2.671
375.90 2.668
376.00 2.665
376.10 2.663
376.20 2.66
376.30 2.657
376.40 2.655
376.50 2.652
376.60 2.649
376.70 2.647
376.80 2.644
376.90 2.642
377.00 2.639
377.10 2.636
377.20 2.634
377.30 2.631
377.40 2.629
377.50 2.626
377.60 2.624
377.70 2.621
377.80 2.619
377.90 2.616
378.00 2.614
378.10 2.611
378.20 2.609
378.30 2.606
378.40 2.604
378.50 2.601
378.60 2.599
378.70 2.596
378.80 2.594
378.90 2.591
379.00 2.589
379.10 2.587
379.20 2.584
379.30 2.582
379.40 2.579
379.50 2.577
379.60 2.574
379.70 2.572
379.80 2.57
379.90 2.567
380.00 2.565
380.10 2.563
380.20 2.56
380.30 2.558
380.40 2.556
380.50 2.554
380.60 2.551
380.70 2.549
380.80 2.547
380.90 2.544
381.00 2.542
381.10 2.54
381.20 2.538
381.30 2.535
381.40 2.533
381.50 2.531
381.60 2.528
381.70 2.526
381.80 2.524
381.90 2.521
382.00 2.519
382.10 2.517
382.20 2.514
382.30 2.512
382.40 2.51
382.50 2.507
382.60 2.505
382.70 2.502
382.80 2.5
382.90 2.498
383.00 2.495
383.10 2.493
383.20 2.491
383.30 2.488
383.40 2.486
383.50 2.484
383.60 2.482
383.70 2.48
383.80 2.478
383.90 2.476
384.00 2.474
384.10 2.473
384.20 2.471
384.30 2.469
384.40 2.467
384.50 2.465
384.60 2.463
384.70 2.462
384.80 2.46
384.90 2.458
385.00 2.456
385.10 2.454
385.20 2.452
385.30 2.45
385.40 2.448
385.50 2.446
385.60 2.444
385.70 2.442
385.80 2.439
385.90 2.437
386.00 2.435
386.10 2.433
386.20 2.43
386.30 2.428
386.40 2.426
386.50 2.423
386.60 2.421
386.70 2.418
386.80 2.416
386.90 2.413
387.00 2.41
387.10 2.408
387.20 2.405
387.30 2.402
387.40 2.399
387.50 2.397
387.60 2.394
387.70 2.391
387.80 2.388
387.90 2.385
388.00 2.383
388.10 2.38
388.20 2.377
388.30 2.374
388.40 2.372
388.50 2.369
388.60 2.366
388.70 2.364
388.80 2.362
388.90 2.36
389.00 2.359
389.10 2.357
389.20 2.356
389.30 2.355
389.40 2.354
389.50 2.353
389.60 2.352
389.70 2.351
389.80 2.35
389.90 2.349
390.00 2.349
390.10 2.348
390.20 2.347
390.30 2.346
390.40 2.345
390.50 2.344
390.60 2.343
390.70 2.342
390.80 2.341
390.90 2.34
391.00 2.339
391.10 2.338
391.20 2.336
391.30 2.335
391.40 2.334
391.50 2.332
391.60 2.331
391.70 2.329
391.80 2.327
391.90 2.325
392.00 2.324
392.10 2.322
392.20 2.32
392.30 2.318
392.40 2.315
392.50 2.313
392.60 2.311
392.70 2.309
392.80 2.306
392.90 2.304
393.00 2.301
393.10 2.298
393.20 2.295
393.30 2.293
393.40 2.29
393.50 2.287
393.60 2.283
393.70 2.28
393.80 2.277
393.90 2.273
394.00 2.27
394.10 2.266
394.20 2.263
394.30 2.259
394.40 2.255
394.50 2.251
394.60 2.247
394.70 2.243
394.80 2.239
394.90 2.235
395.00 2.23
395.10 2.226
395.20 2.221
395.30 2.217
395.40 2.212
395.50 2.207
395.60 2.202
395.70 2.197
395.80 2.193
395.90 2.188
396.00 2.183
396.10 2.178
396.20 2.172
396.30 2.167
396.40 2.162
396.50 2.157
396.60 2.153
396.70 2.148
396.80 2.143
396.90 2.139
397.00 2.135
397.10 2.136
397.20 2.137
397.30 2.138
397.40 2.139
397.50 2.141
397.60 2.142
397.70 2.144
397.80 2.146
397.90 2.148
398.00 2.15
398.10 2.151
398.20 2.153
398.30 2.155
398.40 2.156
398.50 2.158
398.60 2.159
398.70 2.161
398.80 2.162
398.90 2.163
399.00 2.165
399.10 2.166
399.20 2.167
399.30 2.168
399.40 2.169
399.50 2.17
399.60 2.17
399.70 2.171
399.80 2.171
399.90 2.172
400.00 2.172
400.10 2.173
400.20 2.173
400.30 2.173
400.40 2.173
400.50 2.173
400.60 2.173
400.70 2.173
400.80 2.173
400.90 2.172
401.00 2.172
401.10 2.171
401.20 2.171
401.30 2.17
401.40 2.169
401.50 2.169
401.60 2.168
401.70 2.167
401.80 2.166
401.90 2.165
402.00 2.164
402.10 2.162
402.20 2.161
402.30 2.16
402.40 2.158
402.50 2.157
402.60 2.155
402.70 2.153
402.80 2.152
402.90 2.15
403.00 2.148
403.10 2.146
403.20 2.144
403.30 2.142
403.40 2.14
403.50 2.138
403.60 2.136
403.70 2.133
403.80 2.131
403.90 2.128
404.00 2.126
404.10 2.123
404.20 2.12
404.30 2.117
404.40 2.115
404.50 2.112
404.60 2.108
404.70 2.105
404.80 2.102
404.90 2.099
405.00 2.095
405.10 2.092
405.20 2.088
405.30 2.085
405.40 2.081
405.50 2.077
405.60 2.073
405.70 2.069
405.80 2.065
405.90 2.061
406.00 2.056
406.10 2.052
406.20 2.047
406.30 2.042
406.40 2.038
406.50 2.033
406.60 2.028
406.70 2.022
406.80 2.017
406.90 2.012
407.00 2.006
407.10 2
407.20 1.995
407.30 1.989
407.40 1.983
407.50 1.976
407.60 1.97
407.70 1.963
407.80 1.957
407.90 1.95
408.00 1.943
408.10 1.936
408.20 1.929
408.30 1.921
408.40 1.914
408.50 1.906
408.60 1.898
408.70 1.89
408.80 1.882
408.90 1.874
409.00 1.866
409.10 1.858
409.20 1.85
409.30 1.841
409.40 1.833
409.50 1.825
409.60 1.817
409.70 1.81
409.80 1.804
409.90 1.799
410.00 1.797
410.10 1.796
410.20 1.797
410.30 1.793
410.40 1.791
410.50 1.792
410.60 1.795
410.70 1.799
410.80 1.803
410.90 1.808
411.00 1.813
411.10 1.818
411.20 1.823
411.30 1.828
411.40 1.834
411.50 1.839
411.60 1.843
411.70 1.848
411.80 1.853
411.90 1.857
412.00 1.862
412.10 1.866
412.20 1.87
412.30 1.874
412.40 1.878
412.50 1.881
412.60 1.885
412.70 1.888
412.80 1.891
412.90 1.894
413.00 1.897
413.10 1.9
413.20 1.903
413.30 1.905
413.40 1.907
413.50 1.91
413.60 1.912
413.70 1.914
413.80 1.916
413.90 1.917
414.00 1.919
414.10 1.921
414.20 1.922
414.30 1.923
414.40 1.925
414.50 1.926
414.60 1.927
414.70 1.928
414.80 1.929
414.90 1.929
415.00 1.93
415.10 1.931
415.20 1.931
415.30 1.932
415.40 1.932
415.50 1.932
415.60 1.933
415.70 1.933
415.80 1.933
415.90 1.933
416.00 1.933
416.10 1.933
416.20 1.933
416.30 1.933
416.40 1.933
416.50 1.932
416.60 1.932
416.70 1.932
416.80 1.931
416.90 1.931
417.00 1.93
417.10 1.93
417.20 1.929
417.30 1.929
417.40 1.928
417.50 1.927
417.60 1.926
417.70 1.926
417.80 1.925
417.90 1.924
418.00 1.923
418.10 1.922
418.20 1.921
418.30 1.92
418.40 1.92
418.50 1.919
418.60 1.917
418.70 1.916
418.80 1.915
418.90 1.914
419.00 1.913
419.10 1.912
419.20 1.911
419.30 1.91
419.40 1.908
419.50 1.907
419.60 1.906
419.70 1.905
419.80 1.903
419.90 1.902
420.00 1.901
420.10 1.899
420.20 1.898
420.30 1.897
420.40 1.895
420.50 1.894
420.60 1.892
420.70 1.891
420.80 1.889
420.90 1.888
421.00 1.886
421.10 1.885
421.20 1.883
421.30 1.882
421.40 1.88
421.50 1.879
421.60 1.877
421.70 1.876
421.80 1.874
421.90 1.872
422.00 1.871
422.10 1.869
422.20 1.867
422.30 1.866
422.40 1.864
422.50 1.862
422.60 1.861
422.70 1.859
422.80 1.857
422.90 1.855
423.00 1.853
423.10 1.852
423.20 1.85
423.30 1.848
423.40 1.846
423.50 1.844
423.60 1.842
423.70 1.841
423.80 1.839
423.90 1.837
424.00 1.835
424.10 1.833
424.20 1.831
424.30 1.829
424.40 1.827
424.50 1.825
424.60 1.823
424.70 1.821
424.80 1.818
424.90 1.816
425.00 1.814
425.10 1.812
425.20 1.81
425.30 1.808
425.40 1.805
425.50 1.803
425.60 1.801
425.70 1.798
425.80 1.796
425.90 1.794
426.00 1.791
426.10 1.789
426.20 1.786
426.30 1.784
426.40 1.781
426.50 1.779
426.60 1.776
426.70 1.774
426.80 1.771
426.90 1.768
427.00 1.765
427.10 1.763
427.20 1.76
427.30 1.757
427.40 1.754
427.50 1.751
427.60 1.748
427.70 1.745
427.80 1.742
427.90 1.738
428.00 1.735
428.10 1.732
428.20 1.729
428.30 1.725
428.40 1.722
428.50 1.718
428.60 1.714
428.70 1.711
428.80 1.707
428.90 1.703
429.00 1.699
429.10 1.695
429.20 1.691
429.30 1.687
429.40 1.683
429.50 1.678
429.60 1.674
429.70 1.669
429.80 1.664
429.90 1.66
430.00 1.655
430.10 1.65
430.20 1.645
430.30 1.639
430.40 1.634
430.50 1.629
430.60 1.623
430.70 1.617
430.80 1.611
430.90 1.605
431.00 1.599
431.10 1.593
431.20 1.586
431.30 1.58
431.40 1.573
431.50 1.566
431.60 1.559
431.70 1.552
431.80 1.544
431.90 1.537
432.00 1.529
432.10 1.521
432.20 1.513
432.30 1.504
432.40 1.496
432.50 1.487
432.60 1.479
432.70 1.47
432.80 1.461
432.90 1.451
433.00 1.442
433.10 1.433
433.20 1.423
433.30 1.414
433.40 1.405
433.50 1.395
433.60 1.386
433.70 1.377
433.80 1.367
433.90 1.356
434.00 1.344
434.10 1.344
434.20 1.354
434.30 1.362
434.40 1.37
434.50 1.377
434.60 1.384
434.70 1.391
434.80 1.398
434.90 1.405
435.00 1.412
435.10 1.419
435.20 1.426
435.30 1.433
435.40 1.439
435.50 1.446
435.60 1.452
435.70 1.458
435.80 1.464
435.90 1.47
436.00 1.475
436.10 1.481
436.20 1.486
436.30 1.491
436.40 1.495
436.50 1.5
436.60 1.504
436.70 1.508
436.80 1.512
436.90 1.516
437.00 1.52
437.10 1.523
437.20 1.527
437.30 1.53
437.40 1.533
437.50 1.536
437.60 1.539
437.70 1.541
437.80 1.544
437.90 1.546
438.00 1.548
438.10 1.551
438.20 1.553
438.30 1.554
438.40 1.556
438.50 1.558
438.60 1.559
438.70 1.561
438.80 1.562
438.90 1.564
439.00 1.565
439.10 1.566
439.20 1.567
439.30 1.568
439.40 1.569
439.50 1.569
439.60 1.57
439.70 1.571
439.80 1.571
439.90 1.572
440.00 1.572
440.10 1.573
440.20 1.573
440.30 1.573
440.40 1.573
440.50 1.573
440.60 1.574
440.70 1.574
440.80 1.574
440.90 1.574
441.00 1.573
441.10 1.573
441.20 1.573
441.30 1.573
441.40 1.573
441.50 1.572
441.60 1.572
441.70 1.572
441.80 1.571
441.90 1.571
442.00 1.57
442.10 1.57
442.20 1.569
442.30 1.569
442.40 1.568
442.50 1.568
442.60 1.567
442.70 1.567
442.80 1.566
442.90 1.565
443.00 1.565
443.10 1.564
443.20 1.563
443.30 1.562
443.40 1.562
443.50 1.561
443.60 1.56
443.70 1.559
443.80 1.558
443.90 1.558
444.00 1.557
444.10 1.556
444.20 1.555
444.30 1.554
444.40 1.553
444.50 1.552
444.60 1.551
444.70 1.55
444.80 1.55
444.90 1.549
445.00 1.548
445.10 1.547
445.20 1.546
445.30 1.545
445.40 1.544
445.50 1.543
445.60 1.542
445.70 1.541
445.80 1.54
445.90 1.539
446.00 1.538
446.10 1.536
446.20 1.535
446.30 1.534
446.40 1.533
446.50 1.532
446.60 1.531
446.70 1.53
446.80 1.529
446.90 1.528
447.00 1.527
447.10 1.526
447.20 1.525
447.30 1.524
447.40 1.522
447.50 1.521
447.60 1.52
447.70 1.519
447.80 1.518
447.90 1.517
448.00 1.516
448.10 1.515
448.20 1.513
448.30 1.512
448.40 1.511
448.50 1.51
448.60 1.509
448.70 1.508
448.80 1.507
448.90 1.506
449.00 1.504
449.10 1.503
449.20 1.502
449.30 1.501
449.40 1.5
449.50 1.499
449.60 1.497
449.70 1.496
449.80 1.495
449.90 1.494
450.00 1.493
450.10 1.492
450.20 1.49
450.30 1.489
450.40 1.488
450.50 1.487
450.60 1.486
450.70 1.485
450.80 1.483
450.90 1.482
451.00 1.481
451.10 1.48
451.20 1.479
451.30 1.478
451.40 1.476
451.50 1.475
451.60 1.474
451.70 1.473
451.80 1.472
451.90 1.471
452.00 1.469
452.10 1.468
452.20 1.467
452.30 1.466
452.40 1.465
452.50 1.464
452.60 1.462
452.70 1.461
452.80 1.46
452.90 1.459
453.00 1.458
453.10 1.457
453.20 1.455
453.30 1.454
453.40 1.453
453.50 1.452
453.60 1.451
453.70 1.449
453.80 1.448
453.90 1.447
454.00 1.446
454.10 1.445
454.20 1.444
454.30 1.442
454.40 1.441
454.50 1.44
454.60 1.439
454.70 1.438
454.80 1.437
454.90 1.435
455.00 1.434
455.10 1.433
455.20 1.432
455.30 1.431
455.40 1.43
455.50 1.428
455.60 1.427
455.70 1.426
455.80 1.425
455.90 1.424
456.00 1.423
456.10 1.421
456.20 1.42
456.30 1.419
456.40 1.418
456.50 1.417
456.60 1.416
456.70 1.414
456.80 1.413
456.90 1.412
457.00 1.411
457.10 1.41
457.20 1.409
457.30 1.408
457.40 1.406
457.50 1.405
457.60 1.404
457.70 1.403
457.80 1.402
457.90 1.401
458.00 1.399
458.10 1.398
458.20 1.397
458.30 1.396
458.40 1.395
458.50 1.394
458.60 1.393
458.70 1.391
458.80 1.39
458.90 1.389
459.00 1.388
459.10 1.387
459.20 1.386
459.30 1.385
459.40 1.383
459.50 1.382
459.60 1.381
459.70 1.38
459.80 1.379
459.90 1.378
460.00 1.377
460.10 1.375
460.20 1.374
460.30 1.373
460.40 1.372
460.50 1.371
460.60 1.37
460.70 1.369
460.80 1.367
460.90 1.366
461.00 1.365
461.10 1.364
461.20 1.363
461.30 1.362
461.40 1.361
461.50 1.36
461.60 1.358
461.70 1.357
461.80 1.356
461.90 1.355
462.00 1.354
462.10 1.353
462.20 1.352
462.30 1.35
462.40 1.349
462.50 1.348
462.60 1.347
462.70 1.346
462.80 1.345
462.90 1.344
463.00 1.343
463.10 1.342
463.20 1.34
463.30 1.339
463.40 1.338
463.50 1.337
463.60 1.336
463.70 1.335
463.80 1.334
463.90 1.333
464.00 1.331
464.10 1.33
464.20 1.329
464.30 1.328
464.40 1.327
464.50 1.326
464.60 1.325
464.70 1.324
464.80 1.323
464.90 1.321
465.00 1.32
465.10 1.319
465.20 1.318
465.30 1.317
465.40 1.316
465.50 1.315
465.60 1.314
465.70 1.313
465.80 1.311
465.90 1.31
466.00 1.309
466.10 1.308
466.20 1.307
466.30 1.306
466.40 1.305
466.50 1.304
466.60 1.303
466.70 1.301
466.80 1.3
466.90 1.299
467.00 1.298
467.10 1.297
467.20 1.296
467.30 1.295
467.40 1.294
467.50 1.293
467.60 1.291
467.70 1.29
467.80 1.289
467.90 1.288
468.00 1.287
468.10 1.286
468.20 1.285
468.30 1.284
468.40 1.283
468.50 1.281
468.60 1.28
468.70 1.279
468.80 1.278
468.90 1.277
469.00 1.276
469.10 1.275
469.20 1.274
469.30 1.273
469.40 1.271
469.50 1.27
469.60 1.269
469.70 1.268
469.80 1.267
469.90 1.266
470.00 1.265
470.10 1.264
470.20 1.263
470.30 1.261
470.40 1.26
470.50 1.259
470.60 1.258
470.70 1.257
470.80 1.256
470.90 1.255
471.00 1.254
471.10 1.252
471.20 1.251
471.30 1.25
471.40 1.249
471.50 1.248
471.60 1.247
471.70 1.246
471.80 1.244
471.90 1.243
472.00 1.242
472.10 1.241
472.20 1.24
472.30 1.239
472.40 1.238
472.50 1.236
472.60 1.235
472.70 1.234
472.80 1.233
472.90 1.232
473.00 1.231
473.10 1.229
473.20 1.228
473.30 1.227
473.40 1.226
473.50 1.225
473.60 1.223
473.70 1.222
473.80 1.221
473.90 1.22
474.00 1.219
474.10 1.218
474.20 1.216
474.30 1.215
474.40 1.214
474.50 1.213
474.60 1.211
474.70 1.21
474.80 1.209
474.90 1.208
475.00 1.206
475.10 1.205
475.20 1.204
475.30 1.203
475.40 1.201
475.50 1.2
475.60 1.199
475.70 1.197
475.80 1.196
475.90 1.195
476.00 1.193
476.10 1.192
476.20 1.191
476.30 1.189
476.40 1.188
476.50 1.187
476.60 1.185
476.70 1.184
476.80 1.182
476.90 1.181
477.00 1.18
477.10 1.178
477.20 1.177
477.30 1.175
477.40 1.174
477.50 1.172
477.60 1.171
477.70 1.169
477.80 1.168
477.90 1.166
478.00 1.165
478.10 1.163
478.20 1.161
478.30 1.16
478.40 1.158
478.50 1.156
478.60 1.155
478.70 1.153
478.80 1.151
478.90 1.15
479.00 1.148
479.10 1.146
479.20 1.144
479.30 1.142
479.40 1.14
479.50 1.138
479.60 1.136
479.70 1.134
479.80 1.132
479.90 1.13
480.00 1.128
480.10 1.127
480.20 1.124
480.30 1.122
480.40 1.12
480.50 1.117
480.60 1.115
480.70 1.113
480.80 1.11
480.90 1.108
481.00 1.106
481.10 1.103
481.20 1.1
481.30 1.098
481.40 1.095
481.50 1.092
481.60 1.089
481.70 1.086
481.80 1.083
481.90 1.08
482.00 1.077
482.10 1.074
482.20 1.071
482.30 1.067
482.40 1.064
482.50 1.06
482.60 1.056
482.70 1.053
482.80 1.049
482.90 1.046
483.00 1.042
483.10 1.038
483.20 1.034
483.30 1.029
483.40 1.025
483.50 1.02
483.60 1.015
483.70 1.011
483.80 1.006
483.90 1.001
484.00 0.9967
484.10 0.9921
484.20 0.9868
484.30 0.9812
484.40 0.9756
484.50 0.97
484.60 0.9645
484.70 0.9584
484.80 0.9522
484.90 0.946
485.00 0.9398
485.10 0.9335
485.20 0.927
485.30 0.9204
485.40 0.9136
485.50 0.9069
485.60 0.9001
485.70 0.8935
485.80 0.8874
485.90 0.8817
486.00 0.8786
486.10 0.8893
486.20 0.8822
486.30 0.8768
486.40 0.8804
486.50 0.8847
486.60 0.8898
486.70 0.8952
486.80 0.9006
486.90 0.906
487.00 0.9113
487.10 0.9165
487.20 0.9215
487.30 0.9263
487.40 0.9311
487.50 0.9358
487.60 0.9406
487.70 0.9449
487.80 0.949
487.90 0.953
488.00 0.957
488.10 0.9611
488.20 0.9644
488.30 0.9675
488.40 0.9705
488.50 0.9736
488.60 0.9766
488.70 0.9796
488.80 0.9826
488.90 0.9857
489.00 0.9887
489.10 0.9917
489.20 0.994
489.30 0.9959
489.40 0.9979
489.50 0.9998
489.60 1.002
489.70 1.004
489.80 1.006
489.90 1.008
490.00 1.009
490.10 1.011
490.20 1.013
490.30 1.014
490.40 1.015
490.50 1.016
490.60 1.017
490.70 1.018
490.80 1.02
490.90 1.021
491.00 1.022
491.10 1.023
491.20 1.024
491.30 1.024
491.40 1.025
491.50 1.025
491.60 1.026
491.70 1.026
491.80 1.027
491.90 1.028
492.00 1.028
492.10 1.029
492.20 1.029
492.30 1.029
492.40 1.029
492.50 1.029
492.60 1.03
492.70 1.03
492.80 1.03
492.90 1.03
493.00 1.03
493.10 1.03
493.20 1.03
493.30 1.03
493.40 1.03
493.50 1.03
493.60 1.03
493.70 1.03
493.80 1.03
493.90 1.03
494.00 1.03
494.10 1.029
494.20 1.029
494.30 1.029
494.40 1.029
494.50 1.028
494.60 1.028
494.70 1.028
494.80 1.027
494.90 1.027
495.00 1.027
495.10 1.027
495.20 1.026
495.30 1.026
495.40 1.025
495.50 1.025
495.60 1.025
495.70 1.024
495.80 1.024
495.90 1.023
496.00 1.023
496.10 1.022
496.20 1.022
496.30 1.021
496.40 1.021
496.50 1.02
496.60 1.02
496.70 1.019
496.80 1.019
496.90 1.018
497.00 1.018
497.10 1.017
497.20 1.017
497.30 1.016
497.40 1.016
497.50 1.015
497.60 1.015
497.70 1.014
497.80 1.013
497.90 1.013
498.00 1.012
498.10 1.012
498.20 1.011
498.30 1.011
498.40 1.01
498.50 1.009
498.60 1.009
498.70 1.008
498.80 1.008
498.90 1.007
499.00 1.006
499.10 1.006
499.20 1.005
499.30 1.004
499.40 1.004
499.50 1.003
499.60 1.003
499.70 1.002
499.80 1.001
499.90 1.001
500.00 1
500.10 0.9994
500.20 0.9987
500.30 0.9981
500.40 0.9974
500.50 0.9967
500.60 0.9961
500.70 0.9954
500.80 0.9948
500.90 0.9941
501.00 0.9935
501.10 0.9928
501.20 0.9921
501.30 0.9915
501.40 0.9908
501.50 0.9901
501.60 0.9895
501.70 0.9888
501.80 0.9881
501.90 0.9874
502.00 0.9868
502.10 0.9861
502.20 0.9854
502.30 0.9847
502.40 0.9841
502.50 0.9834
502.60 0.9827
502.70 0.982
502.80 0.9813
502.90 0.9807
503.00 0.98
503.10 0.9793
503.20 0.9786
503.30 0.9779
503.40 0.9773
503.50 0.9766
503.60 0.9759
503.70 0.9752
503.80 0.9745
503.90 0.9738
504.00 0.9732
504.10 0.9725
504.20 0.9718
504.30 0.9711
504.40 0.9704
504.50 0.9697
504.60 0.969
504.70 0.9683
504.80 0.9677
504.90 0.967
505.00 0.9663
505.10 0.9656
505.20 0.9649
505.30 0.9642
505.40 0.9635
505.50 0.9628
505.60 0.9622
505.70 0.9615
505.80 0.9608
505.90 0.9601
506.00 0.9594
506.10 0.9587
506.20 0.958
506.30 0.9573
506.40 0.9567
506.50 0.956
506.60 0.9553
506.70 0.9546
506.80 0.9539
506.90 0.9532
507.00 0.9525
507.10 0.9519
507.20 0.9512
507.30 0.9505
507.40 0.9498
507.50 0.9491
507.60 0.9484
507.70 0.9477
507.80 0.947
507.90 0.9464
508.00 0.9457
508.10 0.945
508.20 0.9443
508.30 0.9436
508.40 0.9429
508.50 0.9423
508.60 0.9416
508.70 0.9409
508.80 0.9402
508.90 0.9395
509.00 0.9388
509.10 0.9382
509.20 0.9375
509.30 0.9368
509.40 0.9361
509.50 0.9354
509.60 0.9348
509.70 0.9341
509.80 0.9334
509.90 0.9327
510.00 0.932
510.10 0.9314
510.20 0.9307
510.30 0.93
510.40 0.9293
510.50 0.9287
510.60 0.928
510.70 0.9273
510.80 0.9266
510.90 0.926
511.00 0.9253
511.10 0.9246
511.20 0.9239
511.30 0.9233
511.40 0.9226
511.50 0.9219
511.60 0.9212
511.70 0.9206
511.80 0.9199
511.90 0.9192
512.00 0.9186
512.10 0.9179
512.20 0.9172
512.30 0.9166
512.40 0.9159
512.50 0.9152
512.60 0.9146
512.70 0.9139
512.80 0.9132
512.90 0.9126
513.00 0.9119
513.10 0.9112
513.20 0.9106
513.30 0.9099
513.40 0.9092
513.50 0.9086
513.60 0.9079
513.70 0.9072
513.80 0.9066
513.90 0.9059
514.00 0.9053
514.10 0.9046
514.20 0.9039
514.30 0.9033
514.40 0.9026
514.50 0.902
514.60 0.9013
514.70 0.9006
514.80 0.9
514.90 0.8993
515.00 0.8987
515.10 0.898
515.20 0.8974
515.30 0.8967
515.40 0.8961
515.50 0.8954
515.60 0.8948
515.70 0.8941
515.80 0.8934
515.90 0.8928
516.00 0.8921
516.10 0.8915
516.20 0.8908
516.30 0.8902
516.40 0.8895
516.50 0.8889
516.60 0.8882
516.70 0.8876
516.80 0.887
516.90 0.8863
517.00 0.8857
517.10 0.885
517.20 0.8844
517.30 0.8837
517.40 0.8831
517.50 0.8824
517.60 0.8818
517.70 0.8812
517.80 0.8805
517.90 0.8799
518.00 0.8792
518.10 0.8786
518.20 0.878
518.30 0.8773
518.40 0.8767
518.50 0.876
518.60 0.8754
518.70 0.8748
518.80 0.8741
518.90 0.8735
519.00 0.8729
519.10 0.8722
519.20 0.8716
519.30 0.871
519.40 0.8703
519.50 0.8697
519.60 0.8691
519.70 0.8684
519.80 0.8678
519.90 0.8672
520.00 0.8665
520.10 0.8659
520.20 0.8653
520.30 0.8646
520.40 0.864
520.50 0.8634
520.60 0.8628
520.70 0.8621
520.80 0.8615
520.90 0.8609
521.00 0.8603
521.10 0.8596
521.20 0.859
521.30 0.8584
521.40 0.8578
521.50 0.8571
521.60 0.8565
521.70 0.8559
521.80 0.8553
521.90 0.8547
522.00 0.854
522.10 0.8534
522.20 0.8528
522.30 0.8522
522.40 0.8516
522.50 0.8509
522.60 0.8503
522.70 0.8497
522.80 0.8491
522.90 0.8485
523.00 0.8479
523.10 0.8473
523.20 0.8466
523.30 0.846
523.40 0.8454
523.50 0.8448
523.60 0.8442
523.70 0.8436
523.80 0.843
523.90 0.8424
524.00 0.8418
524.10 0.8411
524.20 0.8405
524.30 0.8399
524.40 0.8393
524.50 0.8387
524.60 0.8381
524.70 0.8375
524.80 0.8369
524.90 0.8363
525.00 0.8357
525.10 0.8351
525.20 0.8345
525.30 0.8339
525.40 0.8333
525.50 0.8327
525.60 0.8321
525.70 0.8315
525.80 0.8309
525.90 0.8303
526.00 0.8297
526.10 0.8291
526.20 0.8285
526.30 0.8279
526.40 0.8273
526.50 0.8267
526.60 0.8261
526.70 0.8255
526.80 0.8249
526.90 0.8243
527.00 0.8237
527.10 0.8231
527.20 0.8225
527.30 0.8219
527.40 0.8214
527.50 0.8208
527.60 0.8202
527.70 0.8196
527.80 0.819
527.90 0.8184
528.00 0.8178
528.10 0.8172
528.20 0.8166
528.30 0.8161
528.40 0.8155
528.50 0.8149
528.60 0.8143
528.70 0.8137
528.80 0.8131
528.90 0.8125
529.00 0.812
529.10 0.8114
529.20 0.8108
529.30 0.8102
529.40 0.8096
529.50 0.8091
529.60 0.8085
529.70 0.8079
529.80 0.8073
529.90 0.8067
530.00 0.8062
530.10 0.8056
530.20 0.805
530.30 0.8044
530.40 0.8038
530.50 0.8033
530.60 0.8027
530.70 0.8021
530.80 0.8016
530.90 0.801
531.00 0.8004
531.10 0.7998
531.20 0.7993
531.30 0.7987
531.40 0.7981
531.50 0.7975
531.60 0.797
531.70 0.7964
531.80 0.7958
531.90 0.7953
532.00 0.7947
532.10 0.7941
532.20 0.7936
532.30 0.793
532.40 0.7924
532.50 0.7919
532.60 0.7913
532.70 0.7907
532.80 0.7902
532.90 0.7896
533.00 0.789
533.10 0.7885
533.20 0.7879
533.30 0.7874
533.40 0.7868
533.50 0.7862
533.60 0.7857
533.70 0.7851
533.80 0.7846
533.90 0.784
534.00 0.7834
534.10 0.7829
534.20 0.7823
534.30 0.7818
534.40 0.7812
534.50 0.7807
534.60 0.7801
534.70 0.7795
534.80 0.779
534.90 0.7784
535.00 0.7779
535.10 0.7773
535.20 0.7768
535.30 0.7762
535.40 0.7757
535.50 0.7751
535.60 0.7746
535.70 0.774
535.80 0.7735
535.90 0.7729
536.00 0.7724
536.10 0.7718
536.20 0.7713
536.30 0.7707
536.40 0.7702
536.50 0.7696
536.60 0.7691
536.70 0.7686
536.80 0.768
536.90 0.7675
537.00 0.7669
537.10 0.7664
537.20 0.7658
537.30 0.7653
537.40 0.7647
537.50 0.7642
537.60 0.7637
537.70 0.7631
537.80 0.7626
537.90 0.762
538.00 0.7615
538.10 0.761
538.20 0.7604
538.30 0.7599
538.40 0.7594
538.50 0.7588
538.60 0.7583
538.70 0.7577
538.80 0.7572
538.90 0.7567
539.00 0.7561
539.10 0.7556
539.20 0.7551
539.30 0.7545
539.40 0.754
539.50 0.7535
539.60 0.7529
539.70 0.7524
539.80 0.7519
539.90 0.7514
540.00 0.7508
540.10 0.7503
540.20 0.7498
540.30 0.7492
540.40 0.7487
540.50 0.7482
540.60 0.7477
540.70 0.7471
540.80 0.7466
540.90 0.7461
541.00 0.7456
541.10 0.745
541.20 0.7445
541.30 0.744
541.40 0.7435
541.50 0.7429
541.60 0.7424
541.70 0.7419
541.80 0.7414
541.90 0.7408
542.00 0.7403
542.10 0.7398
542.20 0.7393
542.30 0.7388
542.40 0.7382
542.50 0.7377
542.60 0.7372
542.70 0.7367
542.80 0.7362
542.90 0.7357
543.00 0.7351
543.10 0.7346
543.20 0.7341
543.30 0.7336
543.40 0.7331
543.50 0.7326
543.60 0.7321
543.70 0.7315
543.80 0.731
543.90 0.7305
544.00 0.73
544.10 0.7295
544.20 0.729
544.30 0.7285
544.40 0.728
544.50 0.7275
544.60 0.7269
544.70 0.7264
544.80 0.7259
544.90 0.7254
545.00 0.7249
545.10 0.7244
545.20 0.7239
545.30 0.7234
545.40 0.7229
545.50 0.7224
545.60 0.7219
545.70 0.7214
545.80 0.7209
545.90 0.7204
546.00 0.7199
546.10 0.7194
546.20 0.7189
546.30 0.7184
546.40 0.7179
546.50 0.7174
546.60 0.7169
546.70 0.7164
546.80 0.7159
546.90 0.7154
547.00 0.7149
547.10 0.7144
547.20 0.7139
547.30 0.7134
547.40 0.7129
547.50 0.7124
547.60 0.7119
547.70 0.7114
547.80 0.7109
547.90 0.7104
548.00 0.7099
548.10 0.7094
548.20 0.7089
548.30 0.7084
548.40 0.7079
548.50 0.7074
548.60 0.7069
548.70 0.7065
548.80 0.706
548.90 0.7055
549.00 0.705
549.10 0.7045
549.20 0.704
549.30 0.7035
549.40 0.703
549.50 0.7025
549.60 0.7021
549.70 0.7016
549.80 0.7011
549.90 0.7006
550.00 0.7001
550.10 0.6996
550.20 0.6991
550.30 0.6987
550.40 0.6982
550.50 0.6977
550.60 0.6972
550.70 0.6967
550.80 0.6962
550.90 0.6958
551.00 0.6953
551.10 0.6948
551.20 0.6943
551.30 0.6938
551.40 0.6934
551.50 0.6929
551.60 0.6924
551.70 0.6919
551.80 0.6914
551.90 0.691
552.00 0.6905
552.10 0.69
552.20 0.6895
552.30 0.6891
552.40 0.6886
552.50 0.6881
552.60 0.6876
552.70 0.6872
552.80 0.6867
552.90 0.6862
553.00 0.6857
553.10 0.6853
553.20 0.6848
553.30 0.6843
553.40 0.6838
553.50 0.6834
553.60 0.6829
553.70 0.6824
553.80 0.682
553.90 0.6815
554.00 0.681
554.10 0.6806
554.20 0.6801
554.30 0.6796
554.40 0.6792
554.50 0.6787
554.60 0.6782
554.70 0.6778
554.80 0.6773
554.90 0.6768
555.00 0.6764
555.10 0.6759
555.20 0.6754
555.30 0.675
555.40 0.6745
555.50 0.674
555.60 0.6736
555.70 0.6731
555.80 0.6726
555.90 0.6722
556.00 0.6717
556.10 0.6713
556.20 0.6708
556.30 0.6703
556.40 0.6699
556.50 0.6694
556.60 0.669
556.70 0.6685
556.80 0.668
556.90 0.6676
557.00 0.6671
557.10 0.6667
557.20 0.6662
557.30 0.6658
557.40 0.6653
557.50 0.6649
557.60 0.6644
557.70 0.6639
557.80 0.6635
557.90 0.663
558.00 0.6626
558.10 0.6621
558.20 0.6617
558.30 0.6612
558.40 0.6608
558.50 0.6603
558.60 0.6599
558.70 0.6594
558.80 0.659
558.90 0.6585
559.00 0.6581
559.10 0.6576
559.20 0.6572
559.30 0.6567
559.40 0.6563
559.50 0.6558
559.60 0.6554
559.70 0.6549
559.80 0.6545
559.90 0.654
560.00 0.6536
560.10 0.6531
560.20 0.6527
560.30 0.6523
560.40 0.6518
560.50 0.6514
560.60 0.6509
560.70 0.6505
560.80 0.65
560.90 0.6496
561.00 0.6492
561.10 0.6487
561.20 0.6483
561.30 0.6478
561.40 0.6474
561.50 0.647
561.60 0.6465
561.70 0.6461
561.80 0.6456
561.90 0.6452
562.00 0.6448
562.10 0.6443
562.20 0.6439
562.30 0.6434
562.40 0.643
562.50 0.6426
562.60 0.6421
562.70 0.6417
562.80 0.6413
562.90 0.6408
563.00 0.6404
563.10 0.64
563.20 0.6395
563.30 0.6391
563.40 0.6387
563.50 0.6382
563.60 0.6378
563.70 0.6374
563.80 0.6369
563.90 0.6365
564.00 0.6361
564.10 0.6356
564.20 0.6352
564.30 0.6348
564.40 0.6343
564.50 0.6339
564.60 0.6335
564.70 0.6331
564.80 0.6326
564.90 0.6322
565.00 0.6318
565.10 0.6314
565.20 0.6309
565.30 0.6305
565.40 0.6301
565.50 0.6296
565.60 0.6292
565.70 0.6288
565.80 0.6284
565.90 0.6279
566.00 0.6275
566.10 0.6271
566.20 0.6267
566.30 0.6263
566.40 0.6258
566.50 0.6254
566.60 0.625
566.70 0.6246
566.80 0.6241
566.90 0.6237
567.00 0.6233
567.10 0.6229
567.20 0.6225
567.30 0.622
567.40 0.6216
567.50 0.6212
567.60 0.6208
567.70 0.6204
567.80 0.62
567.90 0.6195
568.00 0.6191
568.10 0.6187
568.20 0.6183
568.30 0.6179
568.40 0.6175
568.50 0.617
568.60 0.6166
568.70 0.6162
568.80 0.6158
568.90 0.6154
569.00 0.615
569.10 0.6146
569.20 0.6142
569.30 0.6137
569.40 0.6133
569.50 0.6129
569.60 0.6125
569.70 0.6121
569.80 0.6117
569.90 0.6113
570.00 0.6109
570.10 0.6105
570.20 0.61
570.30 0.6096
570.40 0.6092
570.50 0.6088
570.60 0.6084
570.70 0.608
570.80 0.6076
570.90 0.6072
571.00 0.6068
571.10 0.6064
571.20 0.606
571.30 0.6056
571.40 0.6052
571.50 0.6048
571.60 0.6044
571.70 0.604
571.80 0.6035
571.90 0.6031
572.00 0.6027
572.10 0.6023
572.20 0.6019
572.30 0.6015
572.40 0.6011
572.50 0.6007
572.60 0.6003
572.70 0.5999
572.80 0.5995
572.90 0.5991
573.00 0.5987
573.10 0.5983
573.20 0.5979
573.30 0.5975
573.40 0.5971
573.50 0.5967
573.60 0.5963
573.70 0.5959
573.80 0.5955
573.90 0.5951
574.00 0.5948
574.10 0.5944
574.20 0.594
574.30 0.5936
574.40 0.5932
574.50 0.5928
574.60 0.5924
574.70 0.592
574.80 0.5916
574.90 0.5912
575.00 0.5908
575.10 0.5904
575.20 0.59
575.30 0.5896
575.40 0.5892
575.50 0.5888
575.60 0.5885
575.70 0.5881
575.80 0.5877
575.90 0.5873
576.00 0.5869
576.10 0.5865
576.20 0.5861
576.30 0.5857
576.40 0.5853
576.50 0.585
576.60 0.5846
576.70 0.5842
576.80 0.5838
576.90 0.5834
577.00 0.583
577.10 0.5826
577.20 0.5822
577.30 0.5819
577.40 0.5815
577.50 0.5811
577.60 0.5807
577.70 0.5803
577.80 0.5799
577.90 0.5796
578.00 0.5792
578.10 0.5788
578.20 0.5784
578.30 0.578
578.40 0.5776
578.50 0.5773
578.60 0.5769
578.70 0.5765
578.80 0.5761
578.90 0.5757
579.00 0.5753
579.10 0.575
579.20 0.5746
579.30 0.5742
579.40 0.5738
579.50 0.5735
579.60 0.5731
579.70 0.5727
579.80 0.5723
579.90 0.5719
580.00 0.5716
580.10 0.5712
580.20 0.5708
580.30 0.5704
580.40 0.5701
580.50 0.5697
580.60 0.5693
580.70 0.5689
580.80 0.5686
580.90 0.5682
581.00 0.5678
581.10 0.5674
581.20 0.5671
581.30 0.5667
581.40 0.5663
581.50 0.5659
581.60 0.5656
581.70 0.5652
581.80 0.5648
581.90 0.5645
582.00 0.5641
582.10 0.5637
582.20 0.5633
582.30 0.563
582.40 0.5626
582.50 0.5622
582.60 0.5619
582.70 0.5615
582.80 0.5611
582.90 0.5608
583.00 0.5604
583.10 0.56
583.20 0.5597
583.30 0.5593
583.40 0.5589
583.50 0.5586
583.60 0.5582
583.70 0.5578
583.80 0.5575
583.90 0.5571
584.00 0.5567
584.10 0.5564
584.20 0.556
584.30 0.5556
584.40 0.5553
584.50 0.5549
584.60 0.5545
584.70 0.5542
584.80 0.5538
584.90 0.5535
585.00 0.5531
585.10 0.5527
585.20 0.5524
585.30 0.552
585.40 0.5517
585.50 0.5513
585.60 0.5509
585.70 0.5506
585.80 0.5502
585.90 0.5499
586.00 0.5495
586.10 0.5491
586.20 0.5488
586.30 0.5484
586.40 0.5481
586.50 0.5477
586.60 0.5473
586.70 0.547
586.80 0.5466
586.90 0.5463
587.00 0.5459
587.10 0.5456
587.20 0.5452
587.30 0.5449
587.40 0.5445
587.50 0.5441
587.60 0.5438
587.70 0.5434
587.80 0.5431
587.90 0.5427
588.00 0.5424
588.10 0.542
588.20 0.5417
588.30 0.5413
588.40 0.541
588.50 0.5406
588.60 0.5403
588.70 0.5399
588.80 0.5396
588.90 0.5392
589.00 0.5389
589.10 0.5385
589.20 0.5382
589.30 0.5378
589.40 0.5375
589.50 0.5371
589.60 0.5368
589.70 0.5364
589.80 0.5361
589.90 0.5357
590.00 0.5354
590.10 0.535
590.20 0.5347
590.30 0.5343
590.40 0.534
590.50 0.5336
590.60 0.5333
590.70 0.5329
590.80 0.5326
590.90 0.5323
591.00 0.5319
591.10 0.5316
591.20 0.5312
591.30 0.5309
591.40 0.5305
591.50 0.5302
591.60 0.5298
591.70 0.5295
591.80 0.5292
591.90 0.5288
592.00 0.5285
592.10 0.5281
592.20 0.5278
592.30 0.5274
592.40 0.5271
592.50 0.5268
592.60 0.5264
592.70 0.5261
592.80 0.5257
592.90 0.5254
593.00 0.5251
593.10 0.5247
593.20 0.5244
593.30 0.524
593.40 0.5237
593.50 0.5234
593.60 0.523
593.70 0.5227
593.80 0.5224
593.90 0.522
594.00 0.5217
594.10 0.5213
594.20 0.521
594.30 0.5207
594.40 0.5203
594.50 0.52
594.60 0.5197
594.70 0.5193
594.80 0.519
594.90 0.5187
595.00 0.5183
595.10 0.518
595.20 0.5177
595.30 0.5173
595.40 0.517
595.50 0.5167
595.60 0.5163
595.70 0.516
595.80 0.5157
595.90 0.5153
596.00 0.515
596.10 0.5147
596.20 0.5143
596.30 0.514
596.40 0.5137
596.50 0.5134
596.60 0.513
596.70 0.5127
596.80 0.5124
596.90 0.512
597.00 0.5117
597.10 0.5114
597.20 0.5111
597.30 0.5107
597.40 0.5104
597.50 0.5101
597.60 0.5097
597.70 0.5094
597.80 0.5091
597.90 0.5088
598.00 0.5084
598.10 0.5081
598.20 0.5078
598.30 0.5075
598.40 0.5071
598.50 0.5068
598.60 0.5065
598.70 0.5062
598.80 0.5058
598.90 0.5055
599.00 0.5052
599.10 0.5049
599.20 0.5045
599.30 0.5042
599.40 0.5039
599.50 0.5036
599.60 0.5033
599.70 0.5029
599.80 0.5026
599.90 0.5023
600.00 0.502
600.10 0.5016
600.20 0.5013
600.30 0.501
600.40 0.5007
600.50 0.5004
600.60 0.5001
600.70 0.4997
600.80 0.4994
600.90 0.4991
601.00 0.4988
601.10 0.4985
601.20 0.4981
601.30 0.4978
601.40 0.4975
601.50 0.4972
601.60 0.4969
601.70 0.4966
601.80 0.4962
601.90 0.4959
602.00 0.4956
602.10 0.4953
602.20 0.495
602.30 0.4947
602.40 0.4943
602.50 0.494
602.60 0.4937
602.70 0.4934
602.80 0.4931
602.90 0.4928
603.00 0.4925
603.10 0.4921
603.20 0.4918
603.30 0.4915
603.40 0.4912
603.50 0.4909
603.60 0.4906
603.70 0.4903
603.80 0.49
603.90 0.4896
604.00 0.4893
604.10 0.489
604.20 0.4887
604.30 0.4884
604.40 0.4881
604.50 0.4878
604.60 0.4875
604.70 0.4872
604.80 0.4869
604.90 0.4865
605.00 0.4862
605.10 0.4859
605.20 0.4856
605.30 0.4853
605.40 0.485
605.50 0.4847
605.60 0.4844
605.70 0.4841
605.80 0.4838
605.90 0.4835
606.00 0.4832
606.10 0.4829
606.20 0.4826
606.30 0.4823
606.40 0.4819
606.50 0.4816
606.60 0.4813
606.70 0.481
606.80 0.4807
606.90 0.4804
607.00 0.4801
607.10 0.4798
607.20 0.4795
607.30 0.4792
607.40 0.4789
607.50 0.4786
607.60 0.4783
607.70 0.478
607.80 0.4777
607.90 0.4774
608.00 0.4771
608.10 0.4768
608.20 0.4765
608.30 0.4762
608.40 0.4759
608.50 0.4756
608.60 0.4753
608.70 0.475
608.80 0.4747
608.90 0.4744
609.00 0.4741
609.10 0.4738
609.20 0.4735
609.30 0.4732
609.40 0.4729
609.50 0.4726
609.60 0.4723
609.70 0.472
609.80 0.4717
609.90 0.4714
610.00 0.4711
610.10 0.4708
610.20 0.4705
610.30 0.4702
610.40 0.4699
610.50 0.4696
610.60 0.4693
610.70 0.469
610.80 0.4687
610.90 0.4684
611.00 0.4682
611.10 0.4679
611.20 0.4676
611.30 0.4673
611.40 0.467
611.50 0.4667
611.60 0.4664
611.70 0.4661
611.80 0.4658
611.90 0.4655
612.00 0.4652
612.10 0.4649
612.20 0.4646
612.30 0.4643
612.40 0.4641
612.50 0.4638
612.60 0.4635
612.70 0.4632
612.80 0.4629
612.90 0.4626
613.00 0.4623
613.10 0.462
613.20 0.4617
613.30 0.4614
613.40 0.4611
613.50 0.4609
613.60 0.4606
613.70 0.4603
613.80 0.46
613.90 0.4597
614.00 0.4594
614.10 0.4591
614.20 0.4588
614.30 0.4586
614.40 0.4583
614.50 0.458
614.60 0.4577
614.70 0.4574
614.80 0.4571
614.90 0.4568
615.00 0.4565
615.10 0.4563
615.20 0.456
615.30 0.4557
615.40 0.4554
615.50 0.4551
615.60 0.4548
615.70 0.4546
615.80 0.4543
615.90 0.454
616.00 0.4537
616.10 0.4534
616.20 0.4531
616.30 0.4528
616.40 0.4526
616.50 0.4523
616.60 0.452
616.70 0.4517
616.80 0.4514
616.90 0.4512
617.00 0.4509
617.10 0.4506
617.20 0.4503
617.30 0.45
617.40 0.4497
617.50 0.4495
617.60 0.4492
617.70 0.4489
617.80 0.4486
617.90 0.4483
618.00 0.4481
618.10 0.4478
618.20 0.4475
618.30 0.4472
618.40 0.4469
618.50 0.4467
618.60 0.4464
618.70 0.4461
618.80 0.4458
618.90 0.4456
619.00 0.4453
619.10 0.445
619.20 0.4447
619.30 0.4444
619.40 0.4442
619.50 0.4439
619.60 0.4436
619.70 0.4433
619.80 0.4431
619.90 0.4428
620.00 0.4425
620.10 0.4422
620.20 0.442
620.30 0.4417
620.40 0.4414
620.50 0.4411
620.60 0.4409
620.70 0.4406
620.80 0.4403
620.90 0.44
621.00 0.4398
621.10 0.4395
621.20 0.4392
621.30 0.4389
621.40 0.4387
621.50 0.4384
621.60 0.4381
621.70 0.4379
621.80 0.4376
621.90 0.4373
622.00 0.437
622.10 0.4368
622.20 0.4365
622.30 0.4362
622.40 0.436
622.50 0.4357
622.60 0.4354
622.70 0.4351
622.80 0.4349
622.90 0.4346
623.00 0.4343
623.10 0.4341
623.20 0.4338
623.30 0.4335
623.40 0.4333
623.50 0.433
623.60 0.4327
623.70 0.4324
623.80 0.4322
623.90 0.4319
624.00 0.4316
624.10 0.4314
624.20 0.4311
624.30 0.4308
624.40 0.4306
624.50 0.4303
624.60 0.43
624.70 0.4298
624.80 0.4295
624.90 0.4292
625.00 0.429
625.10 0.4287
625.20 0.4284
625.30 0.4282
625.40 0.4279
625.50 0.4276
625.60 0.4274
625.70 0.4271
625.80 0.4268
625.90 0.4266
626.00 0.4263
626.10 0.4261
626.20 0.4258
626.30 0.4255
626.40 0.4253
626.50 0.425
626.60 0.4247
626.70 0.4245
626.80 0.4242
626.90 0.4239
627.00 0.4237
627.10 0.4234
627.20 0.4232
627.30 0.4229
627.40 0.4226
627.50 0.4224
627.60 0.4221
627.70 0.4218
627.80 0.4216
627.90 0.4213
628.00 0.4211
628.10 0.4208
628.20 0.4205
628.30 0.4203
628.40 0.42
628.50 0.4198
628.60 0.4195
628.70 0.4192
628.80 0.419
628.90 0.4187
629.00 0.4185
629.10 0.4182
629.20 0.4179
629.30 0.4177
629.40 0.4174
629.50 0.4172
629.60 0.4169
629.70 0.4166
629.80 0.4164
629.90 0.4161
630.00 0.4159
630.10 0.4156
630.20 0.4153
630.30 0.4151
630.40 0.4148
630.50 0.4146
630.60 0.4143
630.70 0.4141
630.80 0.4138
630.90 0.4135
631.00 0.4133
631.10 0.413
631.20 0.4128
631.30 0.4125
631.40 0.4123
631.50 0.412
631.60 0.4117
631.70 0.4115
631.80 0.4112
631.90 0.411
632.00 0.4107
632.10 0.4105
632.20 0.4102
632.30 0.4099
632.40 0.4097
632.50 0.4094
632.60 0.4092
632.70 0.4089
632.80 0.4087
632.90 0.4084
633.00 0.4082
633.10 0.4079
633.20 0.4076
633.30 0.4074
633.40 0.4071
633.50 0.4069
633.60 0.4066
633.70 0.4064
633.80 0.4061
633.90 0.4059
634.00 0.4056
634.10 0.4054
634.20 0.4051
634.30 0.4048
634.40 0.4046
634.50 0.4043
634.60 0.4041
634.70 0.4038
634.80 0.4036
634.90 0.4033
635.00 0.4031
635.10 0.4028
635.20 0.4026
635.30 0.4023
635.40 0.4021
635.50 0.4018
635.60 0.4016
635.70 0.4013
635.80 0.401
635.90 0.4008
636.00 0.4005
636.10 0.4003
636.20 0.4
636.30 0.3998
636.40 0.3995
636.50 0.3993
636.60 0.399
636.70 0.3988
636.80 0.3985
636.90 0.3983
637.00 0.398
637.10 0.3978
637.20 0.3975
637.30 0.3972
637.40 0.397
637.50 0.3967
637.60 0.3965
637.70 0.3962
637.80 0.396
637.90 0.3957
638.00 0.3955
638.10 0.3952
638.20 0.395
638.30 0.3947
638.40 0.3945
638.50 0.3942
638.60 0.3939
638.70 0.3937
638.80 0.3934
638.90 0.3932
639.00 0.3929
639.10 0.3927
639.20 0.3924
639.30 0.3922
639.40 0.3919
639.50 0.3916
639.60 0.3914
639.70 0.3911
639.80 0.3909
639.90 0.3906
640.00 0.3904
640.10 0.3901
640.20 0.3899
640.30 0.3896
640.40 0.3893
640.50 0.3891
640.60 0.3888
640.70 0.3886
640.80 0.3883
640.90 0.388
641.00 0.3878
641.10 0.3875
641.20 0.3873
641.30 0.387
641.40 0.3867
641.50 0.3865
641.60 0.3862
641.70 0.386
641.80 0.3857
641.90 0.3854
642.00 0.3852
642.10 0.3849
642.20 0.3846
642.30 0.3844
642.40 0.3841
642.50 0.3838
642.60 0.3836
642.70 0.3833
642.80 0.383
642.90 0.3828
643.00 0.3825
643.10 0.3822
643.20 0.382
643.30 0.3817
643.40 0.3814
643.50 0.3812
643.60 0.3809
643.70 0.3806
643.80 0.3803
643.90 0.3801
644.00 0.3798
644.10 0.3795
644.20 0.3792
644.30 0.379
644.40 0.3787
644.50 0.3784
644.60 0.3781
644.70 0.3778
644.80 0.3775
644.90 0.3772
645.00 0.377
645.10 0.3767
645.20 0.3764
645.30 0.3761
645.40 0.3758
645.50 0.3755
645.60 0.3752
645.70 0.3749
645.80 0.3746
645.90 0.3743
646.00 0.374
646.10 0.3737
646.20 0.3734
646.30 0.3731
646.40 0.3728
646.50 0.3724
646.60 0.3721
646.70 0.3718
646.80 0.3715
646.90 0.3711
647.00 0.3708
647.10 0.3705
647.20 0.3702
647.30 0.3699
647.40 0.3695
647.50 0.3692
647.60 0.3688
647.70 0.3684
647.80 0.3681
647.90 0.3677
648.00 0.3674
648.10 0.367
648.20 0.3667
648.30 0.3663
648.40 0.3659
648.50 0.3655
648.60 0.3651
648.70 0.3648
648.80 0.3644
648.90 0.364
649.00 0.3636
649.10 0.3632
649.20 0.3628
649.30 0.3624
649.40 0.3619
649.50 0.3615
649.60 0.361
649.70 0.3605
649.80 0.3601
649.90 0.3596
650.00 0.3592
650.10 0.3587
650.20 0.3583
650.30 0.3578
650.40 0.3572
650.50 0.3567
650.60 0.3562
650.70 0.3556
650.80 0.3551
650.90 0.3545
651.00 0.354
651.10 0.3534
651.20 0.3529
651.30 0.3523
651.40 0.3516
651.50 0.351
651.60 0.3503
651.70 0.3496
651.80 0.3489
651.90 0.3482
652.00 0.3476
652.10 0.3469
652.20 0.3462
652.30 0.3455
652.40 0.3447
652.50 0.3438
652.60 0.3429
652.70 0.3421
652.80 0.3412
652.90 0.3404
653.00 0.3395
653.10 0.3386
653.20 0.3378
653.30 0.3369
653.40 0.3358
653.50 0.3346
653.60 0.3335
653.70 0.3324
653.80 0.3313
653.90 0.3302
654.00 0.3291
654.10 0.328
654.20 0.3269
654.30 0.3257
654.40 0.3244
654.50 0.323
654.60 0.3217
654.70 0.3204
654.80 0.319
654.90 0.3175
655.00 0.316
655.10 0.3145
655.20 0.313
655.30 0.3115
655.40 0.3099
655.50 0.3083
655.60 0.3067
655.70 0.3051
655.80 0.3035
655.90 0.3019
656.00 0.3004
656.10 0.2991
656.20 0.3023
656.30 0.3143
656.40 0.2992
656.50 0.2988
656.60 0.2999
656.70 0.3011
656.80 0.3023
656.90 0.3036
657.00 0.3049
657.10 0.3061
657.20 0.3074
657.30 0.3086
657.40 0.3097
657.50 0.3109
657.60 0.312
657.70 0.3131
657.80 0.3142
657.90 0.3152
658.00 0.3161
658.10 0.3171
658.20 0.3181
658.30 0.319
658.40 0.3197
658.50 0.3204
658.60 0.3211
658.70 0.3218
658.80 0.3226
658.90 0.3233
659.00 0.324
659.10 0.3247
659.20 0.3254
659.30 0.3261
659.40 0.3265
659.50 0.327
659.60 0.3274
659.70 0.3279
659.80 0.3283
659.90 0.3288
660.00 0.3292
660.10 0.3297
660.20 0.3301
660.30 0.3305
660.40 0.3308
660.50 0.331
660.60 0.3313
660.70 0.3316
660.80 0.3318
660.90 0.3321
661.00 0.3323
661.10 0.3326
661.20 0.3328
661.30 0.3331
661.40 0.3332
661.50 0.3333
661.60 0.3334
661.70 0.3335
661.80 0.3337
661.90 0.3338
662.00 0.3339
662.10 0.334
662.20 0.3342
662.30 0.3343
662.40 0.3343
662.50 0.3343
662.60 0.3343
662.70 0.3344
662.80 0.3344
662.90 0.3344
663.00 0.3345
663.10 0.3345
663.20 0.3345
663.30 0.3345
663.40 0.3345
663.50 0.3345
663.60 0.3344
663.70 0.3344
663.80 0.3344
663.90 0.3343
664.00 0.3343
664.10 0.3343
664.20 0.3342
664.30 0.3342
664.40 0.3341
664.50 0.334
664.60 0.334
664.70 0.3339
664.80 0.3338
664.90 0.3337
665.00 0.3337
665.10 0.3336
665.20 0.3335
665.30 0.3334
665.40 0.3333
665.50 0.3332
665.60 0.3331
665.70 0.333
665.80 0.3329
665.90 0.3328
666.00 0.3327
666.10 0.3326
666.20 0.3325
666.30 0.3324
666.40 0.3322
666.50 0.3321
666.60 0.332
666.70 0.3319
666.80 0.3317
666.90 0.3316
667.00 0.3315
667.10 0.3314
667.20 0.3312
667.30 0.3311
667.40 0.331
667.50 0.3308
667.60 0.3307
667.70 0.3306
667.80 0.3304
667.90 0.3303
668.00 0.3301
668.10 0.33
668.20 0.3299
668.30 0.3297
668.40 0.3296
668.50 0.3294
668.60 0.3293
668.70 0.3291
668.80 0.329
668.90 0.3288
669.00 0.3287
669.10 0.3285
669.20 0.3284
669.30 0.3282
669.40 0.328
669.50 0.3279
669.60 0.3277
669.70 0.3276
669.80 0.3274
669.90 0.3273
670.00 0.3271
670.10 0.3269
670.20 0.3268
670.30 0.3266
670.40 0.3265
670.50 0.3263
670.60 0.3261
670.70 0.326
670.80 0.3258
670.90 0.3257
671.00 0.3255
671.10 0.3253
671.20 0.3252
671.30 0.325
671.40 0.3248
671.50 0.3247
671.60 0.3245
671.70 0.3243
671.80 0.3242
671.90 0.324
672.00 0.3238
672.10 0.3237
672.20 0.3235
672.30 0.3233
672.40 0.3232
672.50 0.323
672.60 0.3228
672.70 0.3227
672.80 0.3225
672.90 0.3223
673.00 0.3222
673.10 0.322
673.20 0.3218
673.30 0.3217
673.40 0.3215
673.50 0.3213
673.60 0.3211
673.70 0.321
673.80 0.3208
673.90 0.3206
674.00 0.3205
674.10 0.3203
674.20 0.3201
674.30 0.32
674.40 0.3198
674.50 0.3196
674.60 0.3194
674.70 0.3193
674.80 0.3191
674.90 0.3189
675.00 0.3188
675.10 0.3186
675.20 0.3184
675.30 0.3182
675.40 0.3181
675.50 0.3179
675.60 0.3177
675.70 0.3176
675.80 0.3174
675.90 0.3172
676.00 0.317
676.10 0.3169
676.20 0.3167
676.30 0.3165
676.40 0.3164
676.50 0.3162
676.60 0.316
676.70 0.3158
676.80 0.3157
676.90 0.3155
677.00 0.3153
677.10 0.3152
677.20 0.315
677.30 0.3148
677.40 0.3146
677.50 0.3145
677.60 0.3143
677.70 0.3141
677.80 0.314
677.90 0.3138
678.00 0.3136
678.10 0.3134
678.20 0.3133
678.30 0.3131
678.40 0.3129
678.50 0.3128
678.60 0.3126
678.70 0.3124
678.80 0.3122
678.90 0.3121
679.00 0.3119
679.10 0.3117
679.20 0.3116
679.30 0.3114
679.40 0.3112
679.50 0.311
679.60 0.3109
679.70 0.3107
679.80 0.3105
679.90 0.3104
680.00 0.3102
680.10 0.31
680.20 0.3098
680.30 0.3097
680.40 0.3095
680.50 0.3093
680.60 0.3092
680.70 0.309
680.80 0.3088
680.90 0.3087
681.00 0.3085
681.10 0.3083
681.20 0.3081
681.30 0.308
681.40 0.3078
681.50 0.3076
681.60 0.3075
681.70 0.3073
681.80 0.3071
681.90 0.307
682.00 0.3068
682.10 0.3066
682.20 0.3064
682.30 0.3063
682.40 0.3061
682.50 0.3059
682.60 0.3058
682.70 0.3056
682.80 0.3054
682.90 0.3053
683.00 0.3051
683.10 0.3049
683.20 0.3048
683.30 0.3046
683.40 0.3044
683.50 0.3042
683.60 0.3041
683.70 0.3039
683.80 0.3037
683.90 0.3036
684.00 0.3034
684.10 0.3032
684.20 0.3031
684.30 0.3029
684.40 0.3027
684.50 0.3026
684.60 0.3024
684.70 0.3022
684.80 0.3021
684.90 0.3019
685.00 0.3017
685.10 0.3016
685.20 0.3014
685.30 0.3012
685.40 0.3011
685.50 0.3009
685.60 0.3007
685.70 0.3006
685.80 0.3004
685.90 0.3002
686.00 0.3001
686.10 0.2999
686.20 0.2997
686.30 0.2996
686.40 0.2994
686.50 0.2992
686.60 0.2991
686.70 0.2989
686.80 0.2987
686.90 0.2986
687.00 0.2984
687.10 0.2982
687.20 0.2981
687.30 0.2979
687.40 0.2977
687.50 0.2976
687.60 0.2974
687.70 0.2973
687.80 0.2971
687.90 0.2969
688.00 0.2968
688.10 0.2966
688.20 0.2964
688.30 0.2963
688.40 0.2961
688.50 0.2959
688.60 0.2958
688.70 0.2956
688.80 0.2954
688.90 0.2953
689.00 0.2951
689.10 0.295
689.20 0.2948
689.30 0.2946
689.40 0.2945
689.50 0.2943
689.60 0.2941
689.70 0.294
689.80 0.2938
689.90 0.2937
690.00 0.2935
690.10 0.2933
690.20 0.2932
690.30 0.293
690.40 0.2928
690.50 0.2927
690.60 0.2925
690.70 0.2924
690.80 0.2922
690.90 0.292
691.00 0.2919
691.10 0.2917
691.20 0.2916
691.30 0.2914
691.40 0.2912
691.50 0.2911
691.60 0.2909
691.70 0.2908
691.80 0.2906
691.90 0.2904
692.00 0.2903
692.10 0.2901
692.20 0.2899
692.30 0.2898
692.40 0.2896
692.50 0.2895
692.60 0.2893
692.70 0.2891
692.80 0.289
692.90 0.2888
693.00 0.2887
693.10 0.2885
693.20 0.2884
693.30 0.2882
693.40 0.288
693.50 0.2879
693.60 0.2877
693.70 0.2876
693.80 0.2874
693.90 0.2872
694.00 0.2871
694.10 0.2869
694.20 0.2868
694.30 0.2866
694.40 0.2864
694.50 0.2863
694.60 0.2861
694.70 0.286
694.80 0.2858
694.90 0.2857
695.00 0.2855
695.10 0.2853
695.20 0.2852
695.30 0.285
695.40 0.2849
695.50 0.2847
695.60 0.2846
695.70 0.2844
695.80 0.2842
695.90 0.2841
696.00 0.2839
696.10 0.2838
696.20 0.2836
696.30 0.2835
696.40 0.2833
696.50 0.2832
696.60 0.283
696.70 0.2828
696.80 0.2827
696.90 0.2825
697.00 0.2824
697.10 0.2822
697.20 0.2821
697.30 0.2819
697.40 0.2818
697.50 0.2816
697.60 0.2814
697.70 0.2813
697.80 0.2811
697.90 0.281
698.00 0.2808
698.10 0.2807
698.20 0.2805
698.30 0.2804
698.40 0.2802
698.50 0.2801
698.60 0.2799
698.70 0.2797
698.80 0.2796
698.90 0.2794
699.00 0.2793
699.10 0.2791
699.20 0.279
699.30 0.2788
699.40 0.2787
699.50 0.2785
699.60 0.2784
699.70 0.2782
699.80 0.2781
699.90 0.2779
700.00 0.2778
700.10 0.2776
700.20 0.2775
700.30 0.2773
700.40 0.2771
700.50 0.277
700.60 0.2768
700.70 0.2767
700.80 0.2765
700.90 0.2764
701.00 0.2762
701.10 0.2761
701.20 0.2759
701.30 0.2758
701.40 0.2756
701.50 0.2755
701.60 0.2753
701.70 0.2752
701.80 0.275
701.90 0.2749
702.00 0.2747
702.10 0.2746
702.20 0.2744
702.30 0.2743
702.40 0.2741
702.50 0.274
702.60 0.2738
702.70 0.2737
702.80 0.2735
702.90 0.2734
703.00 0.2732
703.10 0.2731
703.20 0.2729
703.30 0.2728
703.40 0.2726
703.50 0.2725
703.60 0.2723
703.70 0.2722
703.80 0.272
703.90 0.2719
704.00 0.2717
704.10 0.2716
704.20 0.2715
704.30 0.2713
704.40 0.2712
704.50 0.271
704.60 0.2709
704.70 0.2707
704.80 0.2706
704.90 0.2704
705.00 0.2703
705.10 0.2701
705.20 0.27
705.30 0.2698
705.40 0.2697
705.50 0.2695
705.60 0.2694
705.70 0.2692
705.80 0.2691
705.90 0.2689
706.00 0.2688
706.10 0.2687
706.20 0.2685
706.30 0.2684
706.40 0.2682
706.50 0.2681
706.60 0.2679
706.70 0.2678
706.80 0.2676
706.90 0.2675
707.00 0.2673
707.10 0.2672
707.20 0.2671
707.30 0.2669
707.40 0.2668
707.50 0.2666
707.60 0.2665
707.70 0.2663
707.80 0.2662
707.90 0.266
708.00 0.2659
708.10 0.2658
708.20 0.2656
708.30 0.2655
708.40 0.2653
708.50 0.2652
708.60 0.265
708.70 0.2649
708.80 0.2647
708.90 0.2646
709.00 0.2645
709.10 0.2643
709.20 0.2642
709.30 0.264
709.40 0.2639
709.50 0.2637
709.60 0.2636
709.70 0.2635
709.80 0.2633
709.90 0.2632
710.00 0.263
710.10 0.2629
710.20 0.2627
710.30 0.2626
710.40 0.2625
710.50 0.2623
710.60 0.2622
710.70 0.262
710.80 0.2619
710.90 0.2617
711.00 0.2616
711.10 0.2615
711.20 0.2613
711.30 0.2612
711.40 0.261
711.50 0.2609
711.60 0.2608
711.70 0.2606
711.80 0.2605
711.90 0.2603
712.00 0.2602
712.10 0.2601
712.20 0.2599
712.30 0.2598
712.40 0.2596
712.50 0.2595
712.60 0.2594
712.70 0.2592
712.80 0.2591
712.90 0.2589
713.00 0.2588
713.10 0.2587
713.20 0.2585
713.30 0.2584
713.40 0.2582
713.50 0.2581
713.60 0.258
713.70 0.2578
713.80 0.2577
713.90 0.2575
714.00 0.2574
714.10 0.2573
714.20 0.2571
714.30 0.257
714.40 0.2568
714.50 0.2567
714.60 0.2566
714.70 0.2564
714.80 0.2563
714.90 0.2562
715.00 0.256
715.10 0.2559
715.20 0.2557
715.30 0.2556
715.40 0.2555
715.50 0.2553
715.60 0.2552
715.70 0.2551
715.80 0.2549
715.90 0.2548
716.00 0.2546
716.10 0.2545
716.20 0.2544
716.30 0.2542
716.40 0.2541
716.50 0.254
716.60 0.2538
716.70 0.2537
716.80 0.2536
716.90 0.2534
717.00 0.2533
717.10 0.2532
717.20 0.253
717.30 0.2529
717.40 0.2527
717.50 0.2526
717.60 0.2525
717.70 0.2523
717.80 0.2522
717.90 0.2521
718.00 0.2519
718.10 0.2518
718.20 0.2517
718.30 0.2515
718.40 0.2514
718.50 0.2513
718.60 0.2511
718.70 0.251
718.80 0.2509
718.90 0.2507
719.00 0.2506
719.10 0.2504
719.20 0.2503
719.30 0.2502
719.40 0.25
719.50 0.2499
719.60 0.2498
719.70 0.2496
719.80 0.2495
719.90 0.2494
720.00 0.2492
720.10 0.2491
720.20 0.249
720.30 0.2488
720.40 0.2487
720.50 0.2486
720.60 0.2484
720.70 0.2483
720.80 0.2482
720.90 0.248
721.00 0.2479
721.10 0.2478
721.20 0.2477
721.30 0.2475
721.40 0.2474
721.50 0.2473
721.60 0.2471
721.70 0.247
721.80 0.2469
721.90 0.2467
722.00 0.2466
722.10 0.2465
722.20 0.2463
722.30 0.2462
722.40 0.2461
722.50 0.2459
722.60 0.2458
722.70 0.2457
722.80 0.2456
722.90 0.2454
723.00 0.2453
723.10 0.2452
723.20 0.245
723.30 0.2449
723.40 0.2448
723.50 0.2446
723.60 0.2445
723.70 0.2444
723.80 0.2442
723.90 0.2441
724.00 0.244
724.10 0.2439
724.20 0.2437
724.30 0.2436
724.40 0.2435
724.50 0.2433
724.60 0.2432
724.70 0.2431
724.80 0.2429
724.90 0.2428
725.00 0.2427
725.10 0.2426
725.20 0.2424
725.30 0.2423
725.40 0.2422
725.50 0.242
725.60 0.2419
725.70 0.2418
725.80 0.2417
725.90 0.2415
726.00 0.2414
726.10 0.2413
726.20 0.2412
726.30 0.241
726.40 0.2409
726.50 0.2408
726.60 0.2406
726.70 0.2405
726.80 0.2404
726.90 0.2403
727.00 0.2401
727.10 0.24
727.20 0.2399
727.30 0.2397
727.40 0.2396
727.50 0.2395
727.60 0.2394
727.70 0.2392
727.80 0.2391
727.90 0.239
728.00 0.2389
728.10 0.2387
728.20 0.2386
728.30 0.2385
728.40 0.2384
728.50 0.2382
728.60 0.2381
728.70 0.238
728.80 0.2379
728.90 0.2377
729.00 0.2376
729.10 0.2375
729.20 0.2373
729.30 0.2372
729.40 0.2371
729.50 0.237
729.60 0.2368
729.70 0.2367
729.80 0.2366
729.90 0.2365
730.00 0.2363
730.10 0.2362
730.20 0.2361
730.30 0.236
730.40 0.2358
730.50 0.2357
730.60 0.2356
730.70 0.2355
730.80 0.2354
730.90 0.2352
731.00 0.2351
731.10 0.235
731.20 0.2349
731.30 0.2347
731.40 0.2346
731.50 0.2345
731.60 0.2344
731.70 0.2343
731.80 0.2341
731.90 0.234
732.00 0.2339
732.10 0.2338
732.20 0.2336
732.30 0.2335
732.40 0.2334
732.50 0.2333
732.60 0.2331
732.70 0.233
732.80 0.2329
732.90 0.2328
733.00 0.2327
733.10 0.2325
733.20 0.2324
733.30 0.2323
733.40 0.2322
733.50 0.2321
733.60 0.2319
733.70 0.2318
733.80 0.2317
733.90 0.2316
734.00 0.2314
734.10 0.2313
734.20 0.2312
734.30 0.2311
734.40 0.231
734.50 0.2308
734.60 0.2307
734.70 0.2306
734.80 0.2305
734.90 0.2304
735.00 0.2302
735.10 0.2301
735.20 0.23
735.30 0.2299
735.40 0.2298
735.50 0.2296
735.60 0.2295
735.70 0.2294
735.80 0.2293
735.90 0.2292
736.00 0.229
736.10 0.2289
736.20 0.2288
736.30 0.2287
736.40 0.2286
736.50 0.2284
736.60 0.2283
736.70 0.2282
736.80 0.2281
736.90 0.228
737.00 0.2278
737.10 0.2277
737.20 0.2276
737.30 0.2275
737.40 0.2274
737.50 0.2272
737.60 0.2271
737.70 0.227
737.80 0.2269
737.90 0.2268
738.00 0.2266
738.10 0.2265
738.20 0.2264
738.30 0.2263
738.40 0.2262
738.50 0.226
738.60 0.2259
738.70 0.2258
738.80 0.2257
738.90 0.2256
739.00 0.2255
739.10 0.2253
739.20 0.2252
739.30 0.2251
739.40 0.225
739.50 0.2249
739.60 0.2247
739.70 0.2246
739.80 0.2245
739.90 0.2244
740.00 0.2243
740.10 0.2242
740.20 0.224
740.30 0.2239
740.40 0.2238
740.50 0.2237
740.60 0.2236
740.70 0.2235
740.80 0.2233
740.90 0.2232
741.00 0.2231
741.10 0.223
741.20 0.2229
741.30 0.2228
741.40 0.2227
741.50 0.2225
741.60 0.2224
741.70 0.2223
741.80 0.2222
741.90 0.2221
742.00 0.222
742.10 0.2218
742.20 0.2217
742.30 0.2216
742.40 0.2215
742.50 0.2214
742.60 0.2213
742.70 0.2212
742.80 0.221
742.90 0.2209
743.00 0.2208
743.10 0.2207
743.20 0.2206
743.30 0.2205
743.40 0.2204
743.50 0.2202
743.60 0.2201
743.70 0.22
743.80 0.2199
743.90 0.2198
744.00 0.2197
744.10 0.2196
744.20 0.2195
744.30 0.2193
744.40 0.2192
744.50 0.2191
744.60 0.219
744.70 0.2189
744.80 0.2188
744.90 0.2187
745.00 0.2185
745.10 0.2184
745.20 0.2183
745.30 0.2182
745.40 0.2181
745.50 0.218
745.60 0.2179
745.70 0.2178
745.80 0.2176
745.90 0.2175
746.00 0.2174
746.10 0.2173
746.20 0.2172
746.30 0.2171
746.40 0.217
746.50 0.2169
746.60 0.2167
746.70 0.2166
746.80 0.2165
746.90 0.2164
747.00 0.2163
747.10 0.2162
747.20 0.2161
747.30 0.216
747.40 0.2158
747.50 0.2157
747.60 0.2156
747.70 0.2155
747.80 0.2154
747.90 0.2153
748.00 0.2152
748.10 0.2151
748.20 0.215
748.30 0.2148
748.40 0.2147
748.50 0.2146
748.60 0.2145
748.70 0.2144
748.80 0.2143
748.90 0.2142
749.00 0.2141
749.10 0.214
749.20 0.2138
749.30 0.2137
749.40 0.2136
749.50 0.2135
749.60 0.2134
749.70 0.2133
749.80 0.2132
749.90 0.2131
750.00 0.213
750.10 0.2128
750.20 0.2127
750.30 0.2126
750.40 0.2125
750.50 0.2124
750.60 0.2123
750.70 0.2122
750.80 0.2121
750.90 0.212
751.00 0.2119
751.10 0.2118
751.20 0.2117
751.30 0.2115
751.40 0.2114
751.50 0.2113
751.60 0.2112
751.70 0.2111
751.80 0.211
751.90 0.2109
752.00 0.2108
752.10 0.2107
752.20 0.2106
752.30 0.2105
752.40 0.2104
752.50 0.2103
752.60 0.2101
752.70 0.21
752.80 0.2099
752.90 0.2098
753.00 0.2097
753.10 0.2096
753.20 0.2095
753.30 0.2094
753.40 0.2093
753.50 0.2092
753.60 0.2091
753.70 0.209
753.80 0.2089
753.90 0.2088
754.00 0.2087
754.10 0.2085
754.20 0.2084
754.30 0.2083
754.40 0.2082
754.50 0.2081
754.60 0.208
754.70 0.2079
754.80 0.2078
754.90 0.2077
755.00 0.2076
755.10 0.2075
755.20 0.2074
755.30 0.2073
755.40 0.2072
755.50 0.2071
755.60 0.207
755.70 0.2068
755.80 0.2067
755.90 0.2066
756.00 0.2065
756.10 0.2064
756.20 0.2063
756.30 0.2062
756.40 0.2061
756.50 0.206
756.60 0.2059
756.70 0.2058
756.80 0.2057
756.90 0.2056
757.00 0.2055
757.10 0.2054
757.20 0.2053
757.30 0.2052
757.40 0.2051
757.50 0.205
757.60 0.2048
757.70 0.2047
757.80 0.2046
757.90 0.2045
758.00 0.2044
758.10 0.2043
758.20 0.2042
758.30 0.2041
758.40 0.204
758.50 0.2039
758.60 0.2038
758.70 0.2037
758.80 0.2036
758.90 0.2035
759.00 0.2034
759.10 0.2033
759.20 0.2032
759.30 0.2031
759.40 0.203
759.50 0.2029
759.60 0.2028
759.70 0.2027
759.80 0.2026
759.90 0.2024
760.00 0.2023
760.10 0.2022
760.20 0.2021
760.30 0.202
760.40 0.2019
760.50 0.2018
760.60 0.2017
760.70 0.2016
760.80 0.2015
760.90 0.2014
761.00 0.2013
761.10 0.2012
761.20 0.2011
761.30 0.201
761.40 0.2009
761.50 0.2008
761.60 0.2007
761.70 0.2006
761.80 0.2005
761.90 0.2004
762.00 0.2003
762.10 0.2002
762.20 0.2001
762.30 0.2
762.40 0.1999
762.50 0.1998
762.60 0.1997
762.70 0.1996
762.80 0.1995
762.90 0.1994
763.00 0.1993
763.10 0.1992
763.20 0.1991
763.30 0.199
763.40 0.1989
763.50 0.1988
763.60 0.1987
763.70 0.1986
763.80 0.1985
763.90 0.1984
764.00 0.1983
764.10 0.1982
764.20 0.1981
764.30 0.198
764.40 0.1979
764.50 0.1978
764.60 0.1977
764.70 0.1976
764.80 0.1975
764.90 0.1974
765.00 0.1973
765.10 0.1972
765.20 0.1971
765.30 0.197
765.40 0.1969
765.50 0.1968
765.60 0.1967
765.70 0.1966
765.80 0.1965
765.90 0.1964
766.00 0.1963
766.10 0.1962
766.20 0.1961
766.30 0.196
766.40 0.1959
766.50 0.1958
766.60 0.1957
766.70 0.1956
766.80 0.1955
766.90 0.1954
767.00 0.1953
767.10 0.1952
767.20 0.1951
767.30 0.195
767.40 0.1949
767.50 0.1948
767.60 0.1947
767.70 0.1946
767.80 0.1945
767.90 0.1944
768.00 0.1943
768.10 0.1942
768.20 0.1941
768.30 0.194
768.40 0.194
768.50 0.1939
768.60 0.1938
768.70 0.1937
768.80 0.1936
768.90 0.1935
769.00 0.1934
769.10 0.1933
769.20 0.1932
769.30 0.1931
769.40 0.193
769.50 0.1929
769.60 0.1928
769.70 0.1927
769.80 0.1926
769.90 0.1925
770.00 0.1924
770.10 0.1923
770.20 0.1922
770.30 0.1921
770.40 0.192
770.50 0.1919
770.60 0.1918
770.70 0.1917
770.80 0.1916
770.90 0.1915
771.00 0.1914
771.10 0.1913
771.20 0.1912
771.30 0.1911
771.40 0.1911
771.50 0.191
771.60 0.1909
771.70 0.1908
771.80 0.1907
771.90 0.1906
772.00 0.1905
772.10 0.1904
772.20 0.1903
772.30 0.1902
772.40 0.1901
772.50 0.19
772.60 0.1899
772.70 0.1898
772.80 0.1897
772.90 0.1896
773.00 0.1895
773.10 0.1894
773.20 0.1893
773.30 0.1893
773.40 0.1892
773.50 0.1891
773.60 0.189
773.70 0.1889
773.80 0.1888
773.90 0.1887
774.00 0.1886
774.10 0.1885
774.20 0.1884
774.30 0.1883
774.40 0.1882
774.50 0.1881
774.60 0.188
774.70 0.1879
774.80 0.1878
774.90 0.1878
775.00 0.1877
775.10 0.1876
775.20 0.1875
775.30 0.1874
775.40 0.1873
775.50 0.1872
775.60 0.1871
775.70 0.187
775.80 0.1869
775.90 0.1868
776.00 0.1867
776.10 0.1866
776.20 0.1865
776.30 0.1864
776.40 0.1864
776.50 0.1863
776.60 0.1862
776.70 0.1861
776.80 0.186
776.90 0.1859
777.00 0.1858
777.10 0.1857
777.20 0.1856
777.30 0.1855
777.40 0.1854
777.50 0.1853
777.60 0.1852
777.70 0.1851
777.80 0.1851
777.90 0.185
778.00 0.1849
778.10 0.1848
778.20 0.1847
778.30 0.1846
778.40 0.1845
778.50 0.1844
778.60 0.1843
778.70 0.1842
778.80 0.1841
778.90 0.184
779.00 0.184
779.10 0.1839
779.20 0.1838
779.30 0.1837
779.40 0.1836
779.50 0.1835
779.60 0.1834
779.70 0.1833
779.80 0.1832
779.90 0.1831
780.00 0.183
780.10 0.1829
780.20 0.1829
780.30 0.1828
780.40 0.1827
780.50 0.1826
780.60 0.1825
780.70 0.1824
780.80 0.1823
780.90 0.1822
781.00 0.1821
781.10 0.182
781.20 0.182
781.30 0.1819
781.40 0.1818
781.50 0.1817
781.60 0.1816
781.70 0.1815
781.80 0.1814
781.90 0.1813
782.00 0.1812
782.10 0.1812
782.20 0.1811
782.30 0.181
782.40 0.1809
782.50 0.1808
782.60 0.1807
782.70 0.1806
782.80 0.1805
782.90 0.1804
783.00 0.1804
783.10 0.1803
783.20 0.1802
783.30 0.1801
783.40 0.18
783.50 0.1799
783.60 0.1798
783.70 0.1797
783.80 0.1796
783.90 0.1796
784.00 0.1795
784.10 0.1794
784.20 0.1793
784.30 0.1792
784.40 0.1791
784.50 0.179
784.60 0.1789
784.70 0.1789
784.80 0.1788
784.90 0.1787
785.00 0.1786
785.10 0.1785
785.20 0.1784
785.30 0.1783
785.40 0.1782
785.50 0.1782
785.60 0.1781
785.70 0.178
785.80 0.1779
785.90 0.1778
786.00 0.1777
786.10 0.1776
786.20 0.1775
786.30 0.1775
786.40 0.1774
786.50 0.1773
786.60 0.1772
786.70 0.1771
786.80 0.177
786.90 0.1769
787.00 0.1768
787.10 0.1768
787.20 0.1767
787.30 0.1766
787.40 0.1765
787.50 0.1764
787.60 0.1763
787.70 0.1762
787.80 0.1761
787.90 0.1761
788.00 0.176
788.10 0.1759
788.20 0.1758
788.30 0.1757
788.40 0.1756
788.50 0.1755
788.60 0.1755
788.70 0.1754
788.80 0.1753
788.90 0.1752
789.00 0.1751
789.10 0.175
789.20 0.1749
789.30 0.1748
789.40 0.1748
789.50 0.1747
789.60 0.1746
789.70 0.1745
789.80 0.1744
789.90 0.1743
790.00 0.1742
790.10 0.1742
790.20 0.1741
790.30 0.174
790.40 0.1739
790.50 0.1738
790.60 0.1737
790.70 0.1737
790.80 0.1736
790.90 0.1735
791.00 0.1734
791.10 0.1733
791.20 0.1732
791.30 0.1731
791.40 0.1731
791.50 0.173
791.60 0.1729
791.70 0.1728
791.80 0.1727
791.90 0.1726
792.00 0.1726
792.10 0.1725
792.20 0.1724
792.30 0.1723
792.40 0.1722
792.50 0.1721
792.60 0.1721
792.70 0.172
792.80 0.1719
792.90 0.1718
793.00 0.1717
793.10 0.1716
793.20 0.1716
793.30 0.1715
793.40 0.1714
793.50 0.1713
793.60 0.1712
793.70 0.1711
793.80 0.1711
793.90 0.171
794.00 0.1709
794.10 0.1708
794.20 0.1707
794.30 0.1706
794.40 0.1706
794.50 0.1705
794.60 0.1704
794.70 0.1703
794.80 0.1702
794.90 0.1701
795.00 0.1701
795.10 0.17
795.20 0.1699
795.30 0.1698
795.40 0.1697
795.50 0.1697
795.60 0.1696
795.70 0.1695
795.80 0.1694
795.90 0.1693
796.00 0.1692
796.10 0.1692
796.20 0.1691
796.30 0.169
796.40 0.1689
796.50 0.1688
796.60 0.1687
796.70 0.1687
796.80 0.1686
796.90 0.1685
797.00 0.1684
797.10 0.1683
797.20 0.1683
797.30 0.1682
797.40 0.1681
797.50 0.168
797.60 0.1679
797.70 0.1678
797.80 0.1678
797.90 0.1677
798.00 0.1676
798.10 0.1675
798.20 0.1674
798.30 0.1674
798.40 0.1673
798.50 0.1672
798.60 0.1671
798.70 0.167
798.80 0.1669
798.90 0.1669
799.00 0.1668
799.10 0.1667
799.20 0.1666
799.30 0.1665
799.40 0.1665
799.50 0.1664
799.60 0.1663
799.70 0.1662
799.80 0.1661
799.90 0.1661
800.00 0.166
800.10 0.1659
800.20 0.1658
800.30 0.1657
800.40 0.1657
800.50 0.1656
800.60 0.1655
800.70 0.1654
800.80 0.1653
800.90 0.1653
801.00 0.1652
801.10 0.1651
801.20 0.165
801.30 0.1649
801.40 0.1649
801.50 0.1648
801.60 0.1647
801.70 0.1646
801.80 0.1646
801.90 0.1645
802.00 0.1644
802.10 0.1643
802.20 0.1642
802.30 0.1642
802.40 0.1641
802.50 0.164
802.60 0.1639
802.70 0.1638
802.80 0.1638
802.90 0.1637
803.00 0.1636
803.10 0.1635
803.20 0.1634
803.30 0.1634
803.40 0.1633
803.50 0.1632
803.60 0.1631
803.70 0.1631
803.80 0.163
803.90 0.1629
804.00 0.1628
804.10 0.1627
804.20 0.1627
804.30 0.1626
804.40 0.1625
804.50 0.1624
804.60 0.1624
804.70 0.1623
804.80 0.1622
804.90 0.1621
805.00 0.162
805.10 0.162
805.20 0.1619
805.30 0.1618
805.40 0.1617
805.50 0.1617
805.60 0.1616
805.70 0.1615
805.80 0.1614
805.90 0.1613
806.00 0.1613
806.10 0.1612
806.20 0.1611
806.30 0.161
806.40 0.161
806.50 0.1609
806.60 0.1608
806.70 0.1607
806.80 0.1606
806.90 0.1606
807.00 0.1605
807.10 0.1604
807.20 0.1603
807.30 0.1603
807.40 0.1602
807.50 0.1601
807.60 0.16
807.70 0.16
807.80 0.1599
807.90 0.1598
808.00 0.1597
808.10 0.1596
808.20 0.1596
808.30 0.1595
808.40 0.1594
808.50 0.1593
808.60 0.1593
808.70 0.1592
808.80 0.1591
808.90 0.159
809.00 0.159
809.10 0.1589
809.20 0.1588
809.30 0.1587
809.40 0.1586
809.50 0.1586
809.60 0.1585
809.70 0.1584
809.80 0.1583
809.90 0.1583
810.00 0.1582
810.10 0.1581
810.20 0.158
810.30 0.158
810.40 0.1579
810.50 0.1578
810.60 0.1577
810.70 0.1577
810.80 0.1576
810.90 0.1575
811.00 0.1574
811.10 0.1574
811.20 0.1573
811.30 0.1572
811.40 0.1571
811.50 0.1571
811.60 0.157
811.70 0.1569
811.80 0.1568
811.90 0.1568
812.00 0.1567
812.10 0.1566
812.20 0.1566
812.30 0.1565
812.40 0.1564
812.50 0.1563
812.60 0.1563
812.70 0.1562
812.80 0.1561
812.90 0.156
813.00 0.156
813.10 0.1559
813.20 0.1558
813.30 0.1557
813.40 0.1557
813.50 0.1556
813.60 0.1555
813.70 0.1554
813.80 0.1554
813.90 0.1553
814.00 0.1552
814.10 0.1551
814.20 0.1551
814.30 0.155
814.40 0.1549
814.50 0.1549
814.60 0.1548
814.70 0.1547
814.80 0.1546
814.90 0.1546
815.00 0.1545
815.10 0.1544
815.20 0.1543
815.30 0.1543
815.40 0.1542
815.50 0.1541
815.60 0.154
815.70 0.154
815.80 0.1539
815.90 0.1538
816.00 0.1538
816.10 0.1537
816.20 0.1536
816.30 0.1535
816.40 0.1535
816.50 0.1534
816.60 0.1533
816.70 0.1532
816.80 0.1532
816.90 0.1531
817.00 0.153
817.10 0.153
817.20 0.1529
817.30 0.1528
817.40 0.1527
817.50 0.1527
817.60 0.1526
817.70 0.1525
817.80 0.1524
817.90 0.1524
818.00 0.1523
818.10 0.1522
818.20 0.1522
818.30 0.1521
818.40 0.152
818.50 0.1519
818.60 0.1519
818.70 0.1518
818.80 0.1517
818.90 0.1517
819.00 0.1516
819.10 0.1515
819.20 0.1514
819.30 0.1514
819.40 0.1513
819.50 0.1512
819.60 0.1511
819.70 0.1511
819.80 0.151
819.90 0.1509
820.00 0.1509
820.10 0.1508
820.20 0.1507
820.30 0.1506
820.40 0.1506
820.50 0.1505
820.60 0.1504
820.70 0.1504
820.80 0.1503
820.90 0.1502
821.00 0.1502
821.10 0.1501
821.20 0.15
821.30 0.1499
821.40 0.1499
821.50 0.1498
821.60 0.1497
821.70 0.1497
821.80 0.1496
821.90 0.1495
822.00 0.1494
822.10 0.1494
822.20 0.1493
822.30 0.1492
822.40 0.1492
822.50 0.1491
822.60 0.149
822.70 0.149
822.80 0.1489
822.90 0.1488
823.00 0.1487
823.10 0.1487
823.20 0.1486
823.30 0.1485
823.40 0.1485
823.50 0.1484
823.60 0.1483
823.70 0.1483
823.80 0.1482
823.90 0.1481
824.00 0.148
824.10 0.148
824.20 0.1479
824.30 0.1478
824.40 0.1478
824.50 0.1477
824.60 0.1476
824.70 0.1476
824.80 0.1475
824.90 0.1474
825.00 0.1474
825.10 0.1473
825.20 0.1472
825.30 0.1471
825.40 0.1471
825.50 0.147
825.60 0.1469
825.70 0.1469
825.80 0.1468
825.90 0.1467
826.00 0.1467
826.10 0.1466
826.20 0.1465
826.30 0.1465
826.40 0.1464
826.50 0.1463
826.60 0.1463
826.70 0.1462
826.80 0.1461
826.90 0.146
827.00 0.146
827.10 0.1459
827.20 0.1458
827.30 0.1458
827.40 0.1457
827.50 0.1456
827.60 0.1456
827.70 0.1455
827.80 0.1454
827.90 0.1454
828.00 0.1453
828.10 0.1452
828.20 0.1452
828.30 0.1451
828.40 0.145
828.50 0.145
828.60 0.1449
828.70 0.1448
828.80 0.1448
828.90 0.1447
829.00 0.1446
829.10 0.1446
829.20 0.1445
829.30 0.1444
829.40 0.1444
829.50 0.1443
829.60 0.1442
829.70 0.1442
829.80 0.1441
829.90 0.144
830.00 0.144
830.10 0.1439
830.20 0.1438
830.30 0.1437
830.40 0.1437
830.50 0.1436
830.60 0.1435
830.70 0.1435
830.80 0.1434
830.90 0.1433
831.00 0.1433
831.10 0.1432
831.20 0.1431
831.30 0.1431
831.40 0.143
831.50 0.1429
831.60 0.1429
831.70 0.1428
831.80 0.1427
831.90 0.1427
832.00 0.1426
832.10 0.1425
832.20 0.1425
832.30 0.1424
832.40 0.1423
832.50 0.1423
832.60 0.1422
832.70 0.1421
832.80 0.1421
832.90 0.142
833.00 0.1419
833.10 0.1419
833.20 0.1418
833.30 0.1418
833.40 0.1417
833.50 0.1416
833.60 0.1416
833.70 0.1415
833.80 0.1414
833.90 0.1414
834.00 0.1413
834.10 0.1412
834.20 0.1412
834.30 0.1411
834.40 0.141
834.50 0.141
834.60 0.1409
834.70 0.1408
834.80 0.1408
834.90 0.1407
835.00 0.1406
835.10 0.1406
835.20 0.1405
835.30 0.1404
835.40 0.1404
835.50 0.1403
835.60 0.1402
835.70 0.1402
835.80 0.1401
835.90 0.14
836.00 0.14
836.10 0.1399
836.20 0.1398
836.30 0.1398
836.40 0.1397
836.50 0.1397
836.60 0.1396
836.70 0.1395
836.80 0.1395
836.90 0.1394
837.00 0.1393
837.10 0.1393
837.20 0.1392
837.30 0.1391
837.40 0.1391
837.50 0.139
837.60 0.1389
837.70 0.1389
837.80 0.1388
837.90 0.1387
838.00 0.1387
838.10 0.1386
838.20 0.1386
838.30 0.1385
838.40 0.1384
838.50 0.1384
838.60 0.1383
838.70 0.1382
838.80 0.1382
838.90 0.1381
839.00 0.138
839.10 0.138
839.20 0.1379
839.30 0.1378
839.40 0.1378
839.50 0.1377
839.60 0.1377
839.70 0.1376
839.80 0.1375
839.90 0.1375
840.00 0.1374
840.10 0.1373
840.20 0.1373
840.30 0.1372
840.40 0.1371
840.50 0.1371
840.60 0.137
840.70 0.137
840.80 0.1369
840.90 0.1368
841.00 0.1368
841.10 0.1367
841.20 0.1366
841.30 0.1366
841.40 0.1365
841.50 0.1364
841.60 0.1364
841.70 0.1363
841.80 0.1363
841.90 0.1362
842.00 0.1361
842.10 0.1361
842.20 0.136
842.30 0.1359
842.40 0.1359
842.50 0.1358
842.60 0.1358
842.70 0.1357
842.80 0.1356
842.90 0.1356
843.00 0.1355
843.10 0.1354
843.20 0.1354
843.30 0.1353
843.40 0.1353
843.50 0.1352
843.60 0.1351
843.70 0.1351
843.80 0.135
843.90 0.1349
844.00 0.1349
844.10 0.1348
844.20 0.1348
844.30 0.1347
844.40 0.1346
844.50 0.1346
844.60 0.1345
844.70 0.1344
844.80 0.1344
844.90 0.1343
845.00 0.1343
845.10 0.1342
845.20 0.1341
845.30 0.1341
845.40 0.134
845.50 0.134
845.60 0.1339
845.70 0.1338
845.80 0.1338
845.90 0.1337
846.00 0.1336
846.10 0.1336
846.20 0.1335
846.30 0.1335
846.40 0.1334
846.50 0.1333
846.60 0.1333
846.70 0.1332
846.80 0.1332
846.90 0.1331
847.00 0.133
847.10 0.133
847.20 0.1329
847.30 0.1328
847.40 0.1328
847.50 0.1327
847.60 0.1327
847.70 0.1326
847.80 0.1325
847.90 0.1325
848.00 0.1324
848.10 0.1324
848.20 0.1323
848.30 0.1322
848.40 0.1322
848.50 0.1321
848.60 0.1321
848.70 0.132
848.80 0.1319
848.90 0.1319
849.00 0.1318
849.10 0.1318
849.20 0.1317
849.30 0.1316
849.40 0.1316
849.50 0.1315
849.60 0.1315
849.70 0.1314
849.80 0.1313
849.90 0.1313
850.00 0.1312
850.10 0.1312
850.20 0.1311
850.30 0.131
850.40 0.131
850.50 0.1309
850.60 0.1309
850.70 0.1308
850.80 0.1307
850.90 0.1307
851.00 0.1306
851.10 0.1306
851.20 0.1305
851.30 0.1304
851.40 0.1304
851.50 0.1303
851.60 0.1303
851.70 0.1302
851.80 0.1301
851.90 0.1301
852.00 0.13
852.10 0.13
852.20 0.1299
852.30 0.1298
852.40 0.1298
852.50 0.1297
852.60 0.1297
852.70 0.1296
852.80 0.1295
852.90 0.1295
853.00 0.1294
853.10 0.1294
853.20 0.1293
853.30 0.1292
853.40 0.1292
853.50 0.1291
853.60 0.1291
853.70 0.129
853.80 0.129
853.90 0.1289
854.00 0.1288
854.10 0.1288
854.20 0.1287
854.30 0.1287
854.40 0.1286
854.50 0.1285
854.60 0.1285
854.70 0.1284
854.80 0.1284
854.90 0.1283
855.00 0.1282
855.10 0.1282
855.20 0.1281
855.30 0.1281
855.40 0.128
855.50 0.128
855.60 0.1279
855.70 0.1278
855.80 0.1278
855.90 0.1277
856.00 0.1277
856.10 0.1276
856.20 0.1275
856.30 0.1275
856.40 0.1274
856.50 0.1274
856.60 0.1273
856.70 0.1273
856.80 0.1272
856.90 0.1271
857.00 0.1271
857.10 0.127
857.20 0.127
857.30 0.1269
857.40 0.1269
857.50 0.1268
857.60 0.1267
857.70 0.1267
857.80 0.1266
857.90 0.1266
858.00 0.1265
858.10 0.1265
858.20 0.1264
858.30 0.1263
858.40 0.1263
858.50 0.1262
858.60 0.1262
858.70 0.1261
858.80 0.1261
858.90 0.126
859.00 0.1259
859.10 0.1259
859.20 0.1258
859.30 0.1258
859.40 0.1257
859.50 0.1257
859.60 0.1256
859.70 0.1256
859.80 0.1255
859.90 0.1254
860.00 0.1254
860.10 0.1253
860.20 0.1253
860.30 0.1252
860.40 0.1252
860.50 0.1251
860.60 0.125
860.70 0.125
860.80 0.1249
860.90 0.1249
861.00 0.1248
861.10 0.1248
861.20 0.1247
861.30 0.1247
861.40 0.1246
861.50 0.1245
861.60 0.1245
861.70 0.1244
861.80 0.1244
861.90 0.1243
862.00 0.1243
862.10 0.1242
862.20 0.1241
862.30 0.1241
862.40 0.124
862.50 0.124
862.60 0.1239
862.70 0.1239
862.80 0.1238
862.90 0.1238
863.00 0.1237
863.10 0.1236
863.20 0.1236
863.30 0.1235
863.40 0.1235
863.50 0.1234
863.60 0.1234
863.70 0.1233
863.80 0.1233
863.90 0.1232
864.00 0.1231
864.10 0.1231
864.20 0.123
864.30 0.123
864.40 0.1229
864.50 0.1229
864.60 0.1228
864.70 0.1228
864.80 0.1227
864.90 0.1226
865.00 0.1226
865.10 0.1225
865.20 0.1225
865.30 0.1224
865.40 0.1224
865.50 0.1223
865.60 0.1223
865.70 0.1222
865.80 0.1221
865.90 0.1221
866.00 0.122
866.10 0.122
866.20 0.1219
866.30 0.1219
866.40 0.1218
866.50 0.1218
866.60 0.1217
866.70 0.1217
866.80 0.1216
866.90 0.1215
867.00 0.1215
867.10 0.1214
867.20 0.1214
867.30 0.1213
867.40 0.1213
867.50 0.1212
867.60 0.1212
867.70 0.1211
867.80 0.1211
867.90 0.121
868.00 0.1209
868.10 0.1209
868.20 0.1208
868.30 0.1208
868.40 0.1207
868.50 0.1207
868.60 0.1206
868.70 0.1206
868.80 0.1205
868.90 0.1205
869.00 0.1204
869.10 0.1204
869.20 0.1203
869.30 0.1202
869.40 0.1202
869.50 0.1201
869.60 0.1201
869.70 0.12
869.80 0.12
869.90 0.1199
870.00 0.1199
870.10 0.1198
870.20 0.1198
870.30 0.1197
870.40 0.1197
870.50 0.1196
870.60 0.1195
870.70 0.1195
870.80 0.1194
870.90 0.1194
871.00 0.1193
871.10 0.1193
871.20 0.1192
871.30 0.1192
871.40 0.1191
871.50 0.1191
871.60 0.119
871.70 0.119
871.80 0.1189
871.90 0.1189
872.00 0.1188
872.10 0.1188
872.20 0.1187
872.30 0.1186
872.40 0.1186
872.50 0.1185
872.60 0.1185
872.70 0.1184
872.80 0.1184
872.90 0.1183
873.00 0.1183
873.10 0.1182
873.20 0.1182
873.30 0.1181
873.40 0.1181
873.50 0.118
873.60 0.118
873.70 0.1179
873.80 0.1179
873.90 0.1178
874.00 0.1178
874.10 0.1177
874.20 0.1176
874.30 0.1176
874.40 0.1175
874.50 0.1175
874.60 0.1174
874.70 0.1174
874.80 0.1173
874.90 0.1173
875.00 0.1172
875.10 0.1172
875.20 0.1171
875.30 0.1171
875.40 0.117
875.50 0.117
875.60 0.1169
875.70 0.1169
875.80 0.1168
875.90 0.1168
876.00 0.1167
876.10 0.1167
876.20 0.1166
876.30 0.1166
876.40 0.1165
876.50 0.1165
876.60 0.1164
876.70 0.1163
876.80 0.1163
876.90 0.1162
877.00 0.1162
877.10 0.1161
877.20 0.1161
877.30 0.116
877.40 0.116
877.50 0.1159
877.60 0.1159
877.70 0.1158
877.80 0.1158
877.90 0.1157
878.00 0.1157
878.10 0.1156
878.20 0.1156
878.30 0.1155
878.40 0.1155
878.50 0.1154
878.60 0.1154
878.70 0.1153
878.80 0.1153
878.90 0.1152
879.00 0.1152
879.10 0.1151
879.20 0.1151
879.30 0.115
879.40 0.115
879.50 0.1149
879.60 0.1149
879.70 0.1148
879.80 0.1148
879.90 0.1147
880.00 0.1147
880.10 0.1146
880.20 0.1146
880.30 0.1145
880.40 0.1145
880.50 0.1144
880.60 0.1144
880.70 0.1143
880.80 0.1143
880.90 0.1142
881.00 0.1142
881.10 0.1141
881.20 0.1141
881.30 0.114
881.40 0.114
881.50 0.1139
881.60 0.1139
881.70 0.1138
881.80 0.1138
881.90 0.1137
882.00 0.1137
882.10 0.1136
882.20 0.1136
882.30 0.1135
882.40 0.1135
882.50 0.1134
882.60 0.1134
882.70 0.1133
882.80 0.1133
882.90 0.1132
883.00 0.1132
883.10 0.1131
883.20 0.1131
883.30 0.113
883.40 0.113
883.50 0.1129
883.60 0.1129
883.70 0.1128
883.80 0.1128
883.90 0.1127
884.00 0.1127
884.10 0.1126
884.20 0.1126
884.30 0.1125
884.40 0.1125
884.50 0.1124
884.60 0.1124
884.70 0.1123
884.80 0.1123
884.90 0.1122
885.00 0.1122
885.10 0.1121
885.20 0.1121
885.30 0.112
885.40 0.112
885.50 0.1119
885.60 0.1119
885.70 0.1118
885.80 0.1118
885.90 0.1117
886.00 0.1117
886.10 0.1116
886.20 0.1116
886.30 0.1115
886.40 0.1115
886.50 0.1114
886.60 0.1114
886.70 0.1113
886.80 0.1113
886.90 0.1112
887.00 0.1112
887.10 0.1112
887.20 0.1111
887.30 0.1111
887.40 0.111
887.50 0.111
887.60 0.1109
887.70 0.1109
887.80 0.1108
887.90 0.1108
888.00 0.1107
888.10 0.1107
888.20 0.1106
888.30 0.1106
888.40 0.1105
888.50 0.1105
888.60 0.1104
888.70 0.1104
888.80 0.1103
888.90 0.1103
889.00 0.1102
889.10 0.1102
889.20 0.1101
889.30 0.1101
889.40 0.11
889.50 0.11
889.60 0.11
889.70 0.1099
889.80 0.1099
889.90 0.1098
890.00 0.1098
890.10 0.1097
890.20 0.1097
890.30 0.1096
890.40 0.1096
890.50 0.1095
890.60 0.1095
890.70 0.1094
890.80 0.1094
890.90 0.1093
891.00 0.1093
891.10 0.1092
891.20 0.1092
891.30 0.1091
891.40 0.1091
891.50 0.109
891.60 0.109
891.70 0.109
891.80 0.1089
891.90 0.1089
892.00 0.1088
892.10 0.1088
892.20 0.1087
892.30 0.1087
892.40 0.1086
892.50 0.1086
892.60 0.1085
892.70 0.1085
892.80 0.1084
892.90 0.1084
893.00 0.1083
893.10 0.1083
893.20 0.1082
893.30 0.1082
893.40 0.1082
893.50 0.1081
893.60 0.1081
893.70 0.108
893.80 0.108
893.90 0.1079
894.00 0.1079
894.10 0.1078
894.20 0.1078
894.30 0.1077
894.40 0.1077
894.50 0.1076
894.60 0.1076
894.70 0.1075
894.80 0.1075
894.90 0.1075
895.00 0.1074
895.10 0.1074
895.20 0.1073
895.30 0.1073
895.40 0.1072
895.50 0.1072
895.60 0.1071
895.70 0.1071
895.80 0.107
895.90 0.107
896.00 0.1069
896.10 0.1069
896.20 0.1069
896.30 0.1068
896.40 0.1068
896.50 0.1067
896.60 0.1067
896.70 0.1066
896.80 0.1066
896.90 0.1065
897.00 0.1065
897.10 0.1064
897.20 0.1064
897.30 0.1063
897.40 0.1063
897.50 0.1063
897.60 0.1062
897.70 0.1062
897.80 0.1061
897.90 0.1061
898.00 0.106
898.10 0.106
898.20 0.1059
898.30 0.1059
898.40 0.1058
898.50 0.1058
898.60 0.1058
898.70 0.1057
898.80 0.1057
898.90 0.1056
899.00 0.1056
899.10 0.1055
899.20 0.1055
899.30 0.1054
899.40 0.1054
899.50 0.1054
899.60 0.1053
899.70 0.1053
899.80 0.1052
899.90 0.1052
900.00 0.1051
900.10 0.1051
900.20 0.105
900.30 0.105
900.40 0.1049
900.50 0.1049
900.60 0.1049
900.70 0.1048
900.80 0.1048
900.90 0.1047
901.00 0.1047
901.10 0.1046
901.20 0.1046
901.30 0.1045
901.40 0.1045
901.50 0.1045
901.60 0.1044
901.70 0.1044
901.80 0.1043
901.90 0.1043
902.00 0.1042
902.10 0.1042
902.20 0.1041
902.30 0.1041
902.40 0.1041
902.50 0.104
902.60 0.104
902.70 0.1039
902.80 0.1039
902.90 0.1038
903.00 0.1038
903.10 0.1037
903.20 0.1037
903.30 0.1037
903.40 0.1036
903.50 0.1036
903.60 0.1035
903.70 0.1035
903.80 0.1034
903.90 0.1034
904.00 0.1033
904.10 0.1033
904.20 0.1033
904.30 0.1032
904.40 0.1032
904.50 0.1031
904.60 0.1031
904.70 0.103
904.80 0.103
904.90 0.103
905.00 0.1029
905.10 0.1029
905.20 0.1028
905.30 0.1028
905.40 0.1027
905.50 0.1027
905.60 0.1026
905.70 0.1026
905.80 0.1026
905.90 0.1025
906.00 0.1025
906.10 0.1024
906.20 0.1024
906.30 0.1023
906.40 0.1023
906.50 0.1023
906.60 0.1022
906.70 0.1022
906.80 0.1021
906.90 0.1021
907.00 0.102
907.10 0.102
907.20 0.102
907.30 0.1019
907.40 0.1019
907.50 0.1018
907.60 0.1018
907.70 0.1017
907.80 0.1017
907.90 0.1017
908.00 0.1016
908.10 0.1016
908.20 0.1015
908.30 0.1015
908.40 0.1014
908.50 0.1014
908.60 0.1014
908.70 0.1013
908.80 0.1013
908.90 0.1012
909.00 0.1012
909.10 0.1011
909.20 0.1011
909.30 0.1011
909.40 0.101
909.50 0.101
909.60 0.1009
909.70 0.1009
909.80 0.1008
909.90 0.1008
910.00 0.1008
910.10 0.1007
910.20 0.1007
910.30 0.1006
910.40 0.1006
910.50 0.1005
910.60 0.1005
910.70 0.1005
910.80 0.1004
910.90 0.1004
911.00 0.1003
911.10 0.1003
911.20 0.1002
911.30 0.1002
911.40 0.1002
911.50 0.1001
911.60 0.1001
911.70 0.1
911.80 0.09999
911.90 0.09994
912.00 0.0999
912.10 0.09986
912.20 0.09982
912.30 0.09977
912.40 0.09973
912.50 0.09969
912.60 0.09965
912.70 0.09961
912.80 0.09956
912.90 0.09952
913.00 0.09948
913.10 0.09944
913.20 0.09939
913.30 0.09935
913.40 0.09931
913.50 0.09927
913.60 0.09923
913.70 0.09918
913.80 0.09914
913.90 0.0991
914.00 0.09906
914.10 0.09901
914.20 0.09897
914.30 0.09893
914.40 0.09889
914.50 0.09885
914.60 0.0988
914.70 0.09876
914.80 0.09872
914.90 0.09868
915.00 0.09864
915.10 0.09859
915.20 0.09855
915.30 0.09851
915.40 0.09847
915.50 0.09843
915.60 0.09839
915.70 0.09834
915.80 0.0983
915.90 0.09826
916.00 0.09822
916.10 0.09818
916.20 0.09813
916.30 0.09809
916.40 0.09805
916.50 0.09801
916.60 0.09797
916.70 0.09793
916.80 0.09788
916.90 0.09784
917.00 0.0978
917.10 0.09776
917.20 0.09772
917.30 0.09768
917.40 0.09764
917.50 0.0976
917.60 0.09755
917.70 0.09751
917.80 0.09747
917.90 0.09743
918.00 0.09739
918.10 0.09735
918.20 0.09731
918.30 0.09727
918.40 0.09723
918.50 0.09719
918.60 0.09714
918.70 0.0971
918.80 0.09706
918.90 0.09702
919.00 0.09698
919.10 0.09694
919.20 0.0969
919.30 0.09686
919.40 0.09682
919.50 0.09678
919.60 0.09674
919.70 0.0967
919.80 0.09665
919.90 0.09661
920.00 0.09657
920.10 0.09653
920.20 0.09649
920.30 0.09645
920.40 0.09641
920.50 0.09637
920.60 0.09633
920.70 0.09629
920.80 0.09625
920.90 0.09621
921.00 0.09617
921.10 0.09613
921.20 0.09609
921.30 0.09605
921.40 0.096
921.50 0.09596
921.60 0.09592
921.70 0.09588
921.80 0.09584
921.90 0.0958
922.00 0.09576
922.10 0.09572
922.20 0.09568
922.30 0.09564
922.40 0.09561
922.50 0.09557
922.60 0.09553
922.70 0.09549
922.80 0.09545
922.90 0.09541
923.00 0.09537
923.10 0.09533
923.20 0.09529
923.30 0.09525
923.40 0.09521
923.50 0.09518
923.60 0.09514
923.70 0.0951
923.80 0.09506
923.90 0.09502
924.00 0.09498
924.10 0.09494
924.20 0.0949
924.30 0.09486
924.40 0.09482
924.50 0.09479
924.60 0.09475
924.70 0.09471
924.80 0.09467
924.90 0.09463
925.00 0.09459
925.10 0.09455
925.20 0.09451
925.30 0.09448
925.40 0.09444
925.50 0.0944
925.60 0.09436
925.70 0.09432
925.80 0.09428
925.90 0.09424
926.00 0.0942
926.10 0.09417
926.20 0.09413
926.30 0.09409
926.40 0.09405
926.50 0.09401
926.60 0.09397
926.70 0.09393
926.80 0.0939
926.90 0.09386
927.00 0.09382
927.10 0.09378
927.20 0.09374
927.30 0.0937
927.40 0.09367
927.50 0.09363
927.60 0.09359
927.70 0.09355
927.80 0.09352
927.90 0.09348
928.00 0.09344
928.10 0.0934
928.20 0.09336
928.30 0.09333
928.40 0.09329
928.50 0.09325
928.60 0.09321
928.70 0.09318
928.80 0.09314
928.90 0.0931
929.00 0.09306
929.10 0.09302
929.20 0.09299
929.30 0.09295
929.40 0.09291
929.50 0.09287
929.60 0.09284
929.70 0.0928
929.80 0.09276
929.90 0.09272
930.00 0.09269
930.10 0.09265
930.20 0.09261
930.30 0.09257
930.40 0.09254
930.50 0.0925
930.60 0.09246
930.70 0.09242
930.80 0.09239
930.90 0.09235
931.00 0.09231
931.10 0.09227
931.20 0.09224
931.30 0.0922
931.40 0.09216
931.50 0.09213
931.60 0.09209
931.70 0.09205
931.80 0.09201
931.90 0.09198
932.00 0.09194
932.10 0.0919
932.20 0.09186
932.30 0.09183
932.40 0.09179
932.50 0.09175
932.60 0.09171
932.70 0.09168
932.80 0.09164
932.90 0.0916
933.00 0.09156
933.10 0.09153
933.20 0.09149
933.30 0.09145
933.40 0.09141
933.50 0.09138
933.60 0.09134
933.70 0.0913
933.80 0.09126
933.90 0.09123
934.00 0.09119
934.10 0.09115
934.20 0.09112
934.30 0.09108
934.40 0.09104
934.50 0.091
934.60 0.09097
934.70 0.09093
934.80 0.09089
934.90 0.09085
935.00 0.09082
935.10 0.09078
935.20 0.09074
935.30 0.0907
935.40 0.09067
935.50 0.09063
935.60 0.09059
935.70 0.09055
935.80 0.09052
935.90 0.09048
936.00 0.09044
936.10 0.0904
936.20 0.09037
936.30 0.09033
936.40 0.09029
936.50 0.09025
936.60 0.09022
936.70 0.09018
936.80 0.09014
936.90 0.0901
937.00 0.09007
937.10 0.09003
937.20 0.08999
937.30 0.08995
937.40 0.08992
937.50 0.08988
937.60 0.08984
937.70 0.0898
937.80 0.08977
937.90 0.08973
938.00 0.08969
938.10 0.08965
938.20 0.08962
938.30 0.08958
938.40 0.08954
938.50 0.0895
938.60 0.08947
938.70 0.08943
938.80 0.08939
938.90 0.08935
939.00 0.08932
939.10 0.08928
939.20 0.08924
939.30 0.0892
939.40 0.08917
939.50 0.08913
939.60 0.08909
939.70 0.08905
939.80 0.08902
939.90 0.08898
940.00 0.08894
940.10 0.0889
940.20 0.08887
940.30 0.08883
940.40 0.08879
940.50 0.08875
940.60 0.08872
940.70 0.08868
940.80 0.08864
940.90 0.0886
941.00 0.08857
941.10 0.08853
941.20 0.08849
941.30 0.08845
941.40 0.08841
941.50 0.08838
941.60 0.08834
941.70 0.0883
941.80 0.08826
941.90 0.08823
942.00 0.08819
942.10 0.08815
942.20 0.08811
942.30 0.08808
942.40 0.08804
942.50 0.088
942.60 0.08796
942.70 0.08792
942.80 0.08789
942.90 0.08785
943.00 0.08781
943.10 0.08777
943.20 0.08774
943.30 0.0877
943.40 0.08766
943.50 0.08762
943.60 0.08759
943.70 0.08755
943.80 0.08751
943.90 0.08747
944.00 0.08744
944.10 0.0874
944.20 0.08736
944.30 0.08732
944.40 0.08728
944.50 0.08725
944.60 0.08721
944.70 0.08717
944.80 0.08713
944.90 0.0871
945.00 0.08706
945.10 0.08702
945.20 0.08698
945.30 0.08694
945.40 0.08691
945.50 0.08687
945.60 0.08683
945.70 0.08679
945.80 0.08676
945.90 0.08672
946.00 0.08668
946.10 0.08664
946.20 0.0866
946.30 0.08657
946.40 0.08653
946.50 0.08649
946.60 0.08645
946.70 0.08642
946.80 0.08638
946.90 0.08634
947.00 0.0863
947.10 0.08627
947.20 0.08623
947.30 0.08619
947.40 0.08615
947.50 0.08611
947.60 0.08608
947.70 0.08604
947.80 0.086
947.90 0.08596
948.00 0.08593
948.10 0.08589
948.20 0.08585
948.30 0.08581
948.40 0.08578
948.50 0.08574
948.60 0.0857
948.70 0.08566
948.80 0.08563
948.90 0.08559
949.00 0.08555
949.10 0.08551
949.20 0.08548
949.30 0.08544
949.40 0.0854
949.50 0.08536
949.60 0.08533
949.70 0.08529
949.80 0.08525
949.90 0.08522
950.00 0.08518
950.10 0.08514
950.20 0.0851
950.30 0.08507
950.40 0.08503
950.50 0.08499
950.60 0.08495
950.70 0.08492
950.80 0.08488
950.90 0.08484
951.00 0.08481
951.10 0.08477
951.20 0.08473
951.30 0.0847
951.40 0.08466
951.50 0.08462
951.60 0.08459
951.70 0.08455
951.80 0.08451
951.90 0.08448
952.00 0.08444
952.10 0.0844
952.20 0.08437
952.30 0.08433
952.40 0.08429
952.50 0.08426
952.60 0.08422
952.70 0.08419
952.80 0.08415
952.90 0.08412
953.00 0.08408
953.10 0.08405
953.20 0.08401
953.30 0.08397
953.40 0.08394
953.50 0.0839
953.60 0.08387
953.70 0.08384
953.80 0.0838
953.90 0.08377
954.00 0.08373
954.10 0.0837
954.20 0.08367
954.30 0.08363
954.40 0.0836
954.50 0.08357
954.60 0.08354
954.70 0.0835
954.80 0.08347
954.90 0.08344
955.00 0.0834
955.10 0.08337
955.20 0.08334
955.30 0.0833
955.40 0.08327
955.50 0.08324
955.60 0.08321
955.70 0.08317
955.80 0.08314
955.90 0.08311
956.00 0.08308
956.10 0.08305
956.20 0.08302
956.30 0.08299
956.40 0.08296
956.50 0.08293
956.60 0.08289
956.70 0.08286
956.80 0.08283
956.90 0.0828
957.00 0.08277
957.10 0.08274
957.20 0.08271
957.30 0.08268
957.40 0.08265
957.50 0.08262
957.60 0.08259
957.70 0.08256
957.80 0.08253
957.90 0.0825
958.00 0.08247
958.10 0.08244
958.20 0.08241
958.30 0.08238
958.40 0.08235
958.50 0.08232
958.60 0.08229
958.70 0.08226
958.80 0.08223
958.90 0.08221
959.00 0.08218
959.10 0.08215
959.20 0.08212
959.30 0.08209
959.40 0.08206
959.50 0.08203
959.60 0.082
959.70 0.08197
959.80 0.08194
959.90 0.08191
960.00 0.08188
960.10 0.08185
960.20 0.08182
960.30 0.08179
960.40 0.08176
960.50 0.08173
960.60 0.08171
960.70 0.08168
960.80 0.08165
960.90 0.08162
961.00 0.08159
961.10 0.08156
961.20 0.08153
961.30 0.0815
961.40 0.08147
961.50 0.08144
961.60 0.08141
961.70 0.08138
961.80 0.08135
961.90 0.08132
962.00 0.0813
962.10 0.08127
962.20 0.08124
962.30 0.08121
962.40 0.08118
962.50 0.08115
962.60 0.08112
962.70 0.08109
962.80 0.08106
962.90 0.08103
963.00 0.081
963.10 0.08097
963.20 0.08094
963.30 0.08091
963.40 0.08088
963.50 0.08086
963.60 0.08083
963.70 0.0808
963.80 0.08077
963.90 0.08074
964.00 0.08071
964.10 0.08068
964.20 0.08065
964.30 0.08062
964.40 0.08059
964.50 0.08056
964.60 0.08053
964.70 0.0805
964.80 0.08047
964.90 0.08044
965.00 0.08041
965.10 0.08038
965.20 0.08036
965.30 0.08033
965.40 0.0803
965.50 0.08027
965.60 0.08024
965.70 0.08021
965.80 0.08018
965.90 0.08015
966.00 0.08012
966.10 0.08009
966.20 0.08006
966.30 0.08003
966.40 0.08
966.50 0.07997
966.60 0.07994
966.70 0.07991
966.80 0.07988
966.90 0.07985
967.00 0.07982
967.10 0.07979
967.20 0.07976
967.30 0.07973
967.40 0.0797
967.50 0.07967
967.60 0.07965
967.70 0.07962
967.80 0.07959
967.90 0.07956
968.00 0.07953
968.10 0.0795
968.20 0.07947
968.30 0.07944
968.40 0.07941
968.50 0.07938
968.60 0.07935
968.70 0.07932
968.80 0.07929
968.90 0.07926
969.00 0.07923
969.10 0.0792
969.20 0.07917
969.30 0.07914
969.40 0.07911
969.50 0.07908
969.60 0.07905
969.70 0.07902
969.80 0.07899
969.90 0.07896
970.00 0.07893
970.10 0.0789
970.20 0.07887
970.30 0.07884
970.40 0.07881
970.50 0.07878
970.60 0.07875
970.70 0.07872
970.80 0.07869
970.90 0.07866
971.00 0.07863
971.10 0.0786
971.20 0.07857
971.30 0.07854
971.40 0.07851
971.50 0.07848
971.60 0.07845
971.70 0.07842
971.80 0.07839
971.90 0.07836
972.00 0.07833
972.10 0.0783
972.20 0.07827
972.30 0.07824
972.40 0.07821
972.50 0.07818
972.60 0.07815
972.70 0.07812
972.80 0.07809
972.90 0.07806
973.00 0.07803
973.10 0.078
973.20 0.07797
973.30 0.07794
973.40 0.07791
973.50 0.07788
973.60 0.07785
973.70 0.07782
973.80 0.07778
973.90 0.07775
974.00 0.07772
974.10 0.07769
974.20 0.07766
974.30 0.07763
974.40 0.0776
974.50 0.07757
974.60 0.07754
974.70 0.07751
974.80 0.07748
974.90 0.07745
975.00 0.07742
975.10 0.07739
975.20 0.07736
975.30 0.07733
975.40 0.0773
975.50 0.07727
975.60 0.07724
975.70 0.07721
975.80 0.07718
975.90 0.07715
976.00 0.07712
976.10 0.07708
976.20 0.07705
976.30 0.07702
976.40 0.07699
976.50 0.07696
976.60 0.07693
976.70 0.0769
976.80 0.07687
976.90 0.07684
977.00 0.07681
977.10 0.07678
977.20 0.07675
977.30 0.07672
977.40 0.07669
977.50 0.07666
977.60 0.07662
977.70 0.07659
977.80 0.07656
977.90 0.07653
978.00 0.0765
978.10 0.07647
978.20 0.07644
978.30 0.07641
978.40 0.07638
978.50 0.07635
978.60 0.07631
978.70 0.07628
978.80 0.07625
978.90 0.07622
979.00 0.07619
979.10 0.07616
979.20 0.07613
979.30 0.0761
979.40 0.07607
979.50 0.07604
979.60 0.07601
979.70 0.07597
979.80 0.07594
979.90 0.07591
980.00 0.07588
980.10 0.07585
980.20 0.07582
980.30 0.07579
980.40 0.07576
980.50 0.07573
980.60 0.0757
980.70 0.07567
980.80 0.07564
980.90 0.07561
981.00 0.07557
981.10 0.07554
981.20 0.07551
981.30 0.07548
981.40 0.07545
981.50 0.07542
981.60 0.07539
981.70 0.07536
981.80 0.07533
981.90 0.0753
982.00 0.07527
982.10 0.07524
982.20 0.0752
982.30 0.07517
982.40 0.07514
982.50 0.07511
982.60 0.07508
982.70 0.07505
982.80 0.07502
982.90 0.07498
983.00 0.07495
983.10 0.07492
983.20 0.07489
983.30 0.07486
983.40 0.07483
983.50 0.0748
983.60 0.07476
983.70 0.07473
983.80 0.0747
983.90 0.07467
984.00 0.07464
984.10 0.07461
984.20 0.07458
984.30 0.07455
984.40 0.07451
984.50 0.07448
984.60 0.07445
984.70 0.07442
984.80 0.07439
984.90 0.07436
985.00 0.07432
985.10 0.07429
985.20 0.07426
985.30 0.07423
985.40 0.0742
985.50 0.07417
985.60 0.07413
985.70 0.0741
985.80 0.07407
985.90 0.07404
986.00 0.07401
986.10 0.07397
986.20 0.07394
986.30 0.07391
986.40 0.07388
986.50 0.07385
986.60 0.07382
986.70 0.07378
986.80 0.07375
986.90 0.07372
987.00 0.07369
987.10 0.07366
987.20 0.07362
987.30 0.07359
987.40 0.07356
987.50 0.07353
987.60 0.0735
987.70 0.07346
987.80 0.07343
987.90 0.0734
988.00 0.07337
988.10 0.07333
988.20 0.0733
988.30 0.07327
988.40 0.07324
988.50 0.07321
988.60 0.07317
988.70 0.07314
988.80 0.07311
988.90 0.07308
989.00 0.07304
989.10 0.07301
989.20 0.07298
989.30 0.07294
989.40 0.07291
989.50 0.07288
989.60 0.07285
989.70 0.07281
989.80 0.07278
989.90 0.07275
990.00 0.07272
990.10 0.07268
990.20 0.07265
990.30 0.07262
990.40 0.07258
990.50 0.07255
990.60 0.07252
990.70 0.07249
990.80 0.07245
990.90 0.07242
991.00 0.07239
991.10 0.07235
991.20 0.07232
991.30 0.07229
991.40 0.07225
991.50 0.07222
991.60 0.07219
991.70 0.07215
991.80 0.07212
991.90 0.07209
992.00 0.07206
992.10 0.07202
992.20 0.07199
992.30 0.07196
992.40 0.07192
992.50 0.07189
992.60 0.07186
992.70 0.07182
992.80 0.07179
992.90 0.07175
993.00 0.07172
993.10 0.07169
993.20 0.07165
993.30 0.07162
993.40 0.07158
993.50 0.07155
993.60 0.07152
993.70 0.07148
993.80 0.07145
993.90 0.07141
994.00 0.07138
994.10 0.07135
994.20 0.07131
994.30 0.07128
994.40 0.07124
994.50 0.07121
994.60 0.07118
994.70 0.07114
994.80 0.07111
994.90 0.07107
995.00 0.07104
995.10 0.071
995.20 0.07097
995.30 0.07094
995.40 0.0709
995.50 0.07087
995.60 0.07083
995.70 0.0708
995.80 0.07076
995.90 0.07073
996.00 0.07069
996.10 0.07066
996.20 0.07062
996.30 0.07059
996.40 0.07055
996.50 0.07052
996.60 0.07048
996.70 0.07045
996.80 0.07041
996.90 0.07038
997.00 0.07035
997.10 0.07031
997.20 0.07028
997.30 0.07024
997.40 0.07021
997.50 0.07017
997.60 0.07014
997.70 0.0701
997.80 0.07006
997.90 0.07003
998.00 0.06999
998.10 0.06996
998.20 0.06992
998.30 0.06989
998.40 0.06985
998.50 0.06982
998.60 0.06978
998.70 0.06975
998.80 0.06971
998.90 0.06968
999.00 0.06964
999.10 0.0696
999.20 0.06957
999.30 0.06953
999.40 0.0695
999.50 0.06946
999.60 0.06943
999.70 0.06939
999.80 0.06936
999.90 0.06932
1000.00 0.06929
1000.10 0.06925
1000.20 0.06921
1000.30 0.06918
1000.40 0.06914
1000.50 0.06911
1000.60 0.06907
1000.70 0.06904
1000.80 0.069
1000.90 0.06896
1001.00 0.06893
1001.10 0.06889
1001.20 0.06886
1001.30 0.06882
1001.40 0.06879
1001.50 0.06875
1001.60 0.06872
1001.70 0.06868
1001.80 0.06865
1001.90 0.06861
1002.00 0.06858
1002.10 0.06855
1002.20 0.06852
1002.30 0.06849
1002.40 0.06846
1002.50 0.06842
1002.60 0.06839
1002.70 0.06836
1002.80 0.06833
1002.90 0.0683
1003.00 0.06827
1003.10 0.06824
1003.20 0.06821
1003.30 0.06818
1003.40 0.06815
1003.50 0.06813
1003.60 0.0681
1003.70 0.06807
1003.80 0.06805
1003.90 0.06802
1004.00 0.068
1004.10 0.06798
1004.20 0.06796
1004.30 0.06794
1004.40 0.06792
1004.50 0.0679
1004.60 0.06788
1004.70 0.06786
1004.80 0.06784
1004.90 0.06782
1005.00 0.06779
1005.10 0.06776
1005.20 0.06773
1005.30 0.0677
1005.40 0.06766
1005.50 0.06763
1005.60 0.0676
1005.70 0.06757
1005.80 0.06755
1005.90 0.06752
1006.00 0.06749
1006.10 0.06746
1006.20 0.06743
1006.30 0.06741
1006.40 0.06738
1006.50 0.06736
1006.60 0.06734
1006.70 0.06731
1006.80 0.06729
1006.90 0.06727
1007.00 0.06724
1007.10 0.06722
1007.20 0.0672
1007.30 0.06718
1007.40 0.06716
1007.50 0.06714
1007.60 0.06712
1007.70 0.06711
1007.80 0.06709
1007.90 0.06707
1008.00 0.06705
1008.10 0.06703
1008.20 0.06702
1008.30 0.067
1008.40 0.06698
1008.50 0.06696
1008.60 0.06695
1008.70 0.06693
1008.80 0.06691
1008.90 0.06689
1009.00 0.06688
1009.10 0.06686
1009.20 0.06684
1009.30 0.06682
1009.40 0.06681
1009.50 0.06679
1009.60 0.06677
1009.70 0.06675
1009.80 0.06674
1009.90 0.06672
1010.00 0.0667
1010.10 0.06669
1010.20 0.06667
1010.30 0.06665
1010.40 0.06663
1010.50 0.06662
1010.60 0.0666
1010.70 0.06658
1010.80 0.06657
1010.90 0.06655
1011.00 0.06653
1011.10 0.06652
1011.20 0.0665
1011.30 0.06648
1011.40 0.06646
1011.50 0.06645
1011.60 0.06643
1011.70 0.06641
1011.80 0.0664
1011.90 0.06638
1012.00 0.06636
1012.10 0.06634
1012.20 0.06633
1012.30 0.06631
1012.40 0.06629
1012.50 0.06627
1012.60 0.06626
1012.70 0.06624
1012.80 0.06622
1012.90 0.0662
1013.00 0.06619
1013.10 0.06617
1013.20 0.06615
1013.30 0.06613
1013.40 0.06612
1013.50 0.0661
1013.60 0.06608
1013.70 0.06606
1013.80 0.06604
1013.90 0.06603
1014.00 0.06601
1014.10 0.06599
1014.20 0.06597
1014.30 0.06595
1014.40 0.06594
1014.50 0.06592
1014.60 0.0659
1014.70 0.06588
1014.80 0.06586
1014.90 0.06584
1015.00 0.06582
1015.10 0.06581
1015.20 0.06579
1015.30 0.06577
1015.40 0.06575
1015.50 0.06573
1015.60 0.06571
1015.70 0.06569
1015.80 0.06567
1015.90 0.06566
1016.00 0.06564
1016.10 0.06562
1016.20 0.0656
1016.30 0.06558
1016.40 0.06556
1016.50 0.06554
1016.60 0.06552
1016.70 0.0655
1016.80 0.06549
1016.90 0.06547
1017.00 0.06545
1017.10 0.06543
1017.20 0.06541
1017.30 0.06539
1017.40 0.06537
1017.50 0.06535
1017.60 0.06533
1017.70 0.06531
1017.80 0.06529
1017.90 0.06527
1018.00 0.06525
1018.10 0.06523
1018.20 0.06521
1018.30 0.06519
1018.40 0.06517
1018.50 0.06515
1018.60 0.06513
1018.70 0.06511
1018.80 0.06509
1018.90 0.06507
1019.00 0.06505
1019.10 0.06503
1019.20 0.06501
1019.30 0.06499
1019.40 0.06497
1019.50 0.06495
1019.60 0.06493
1019.70 0.06491
1019.80 0.06489
1019.90 0.06487
1020.00 0.06485
1020.10 0.06483
1020.20 0.06481
1020.30 0.06479
1020.40 0.06477
1020.50 0.06475
1020.60 0.06473
1020.70 0.06471
1020.80 0.06469
1020.90 0.06466
1021.00 0.06464
1021.10 0.06462
1021.20 0.0646
1021.30 0.06458
1021.40 0.06456
1021.50 0.06454
1021.60 0.06452
1021.70 0.0645
1021.80 0.06448
1021.90 0.06446
1022.00 0.06444
1022.10 0.06441
1022.20 0.06439
1022.30 0.06437
1022.40 0.06435
1022.50 0.06433
1022.60 0.06431
1022.70 0.06429
1022.80 0.06427
1022.90 0.06424
1023.00 0.06422
1023.10 0.0642
1023.20 0.06418
1023.30 0.06416
1023.40 0.06414
1023.50 0.06412
1023.60 0.0641
1023.70 0.06407
1023.80 0.06405
1023.90 0.06403
1024.00 0.06401
1024.10 0.06399
1024.20 0.06397
1024.30 0.06395
1024.40 0.06393
1024.50 0.0639
1024.60 0.06388
1024.70 0.06386
1024.80 0.06384
1024.90 0.06382
1025.00 0.0638
1025.10 0.06378
1025.20 0.06375
1025.30 0.06373
1025.40 0.06371
1025.50 0.06369
1025.60 0.06367
1025.70 0.06364
1025.80 0.06362
1025.90 0.0636
1026.00 0.06358
1026.10 0.06356
1026.20 0.06354
1026.30 0.06352
1026.40 0.06349
1026.50 0.06347
1026.60 0.06345
1026.70 0.06343
1026.80 0.06341
1026.90 0.06339
1027.00 0.06336
1027.10 0.06334
1027.20 0.06332
1027.30 0.0633
1027.40 0.06327
1027.50 0.06325
1027.60 0.06323
1027.70 0.06321
1027.80 0.06319
1027.90 0.06316
1028.00 0.06314
1028.10 0.06312
1028.20 0.0631
1028.30 0.06308
1028.40 0.06305
1028.50 0.06303
1028.60 0.06301
1028.70 0.06299
1028.80 0.06297
1028.90 0.06294
1029.00 0.06292
1029.10 0.0629
1029.20 0.06288
1029.30 0.06285
1029.40 0.06283
1029.50 0.06281
1029.60 0.06279
1029.70 0.06277
1029.80 0.06274
1029.90 0.06272
1030.00 0.0627
1030.10 0.06268
1030.20 0.06266
1030.30 0.06263
1030.40 0.06261
1030.50 0.06259
1030.60 0.06257
1030.70 0.06255
1030.80 0.06252
1030.90 0.0625
1031.00 0.06248
1031.10 0.06246
1031.20 0.06244
1031.30 0.06242
1031.40 0.06239
1031.50 0.06237
1031.60 0.06235
1031.70 0.06233
1031.80 0.06231
1031.90 0.06228
1032.00 0.06226
1032.10 0.06224
1032.20 0.06222
1032.30 0.0622
1032.40 0.06217
1032.50 0.06215
1032.60 0.06213
1032.70 0.06211
1032.80 0.06208
1032.90 0.06206
1033.00 0.06204
1033.10 0.06202
1033.20 0.06199
1033.30 0.06197
1033.40 0.06195
1033.50 0.06193
1033.60 0.0619
1033.70 0.06188
1033.80 0.06186
1033.90 0.06184
1034.00 0.06182
1034.10 0.06179
1034.20 0.06177
1034.30 0.06175
1034.40 0.06173
1034.50 0.0617
1034.60 0.06168
1034.70 0.06166
1034.80 0.06164
1034.90 0.06162
1035.00 0.06159
1035.10 0.06157
1035.20 0.06155
1035.30 0.06153
1035.40 0.0615
1035.50 0.06148
1035.60 0.06146
1035.70 0.06144
1035.80 0.06142
1035.90 0.06139
1036.00 0.06137
1036.10 0.06135
1036.20 0.06133
1036.30 0.06131
1036.40 0.06128
1036.50 0.06126
1036.60 0.06124
1036.70 0.06122
1036.80 0.0612
1036.90 0.06117
1037.00 0.06115
1037.10 0.06113
1037.20 0.06111
1037.30 0.06108
1037.40 0.06106
1037.50 0.06104
1037.60 0.06102
1037.70 0.06099
1037.80 0.06097
1037.90 0.06095
1038.00 0.06093
1038.10 0.06091
1038.20 0.06088
1038.30 0.06086
1038.40 0.06084
1038.50 0.06082
1038.60 0.06079
1038.70 0.06077
1038.80 0.06075
1038.90 0.06073
1039.00 0.06071
1039.10 0.06068
1039.20 0.06066
1039.30 0.06064
1039.40 0.06062
1039.50 0.06059
1039.60 0.06057
1039.70 0.06055
1039.80 0.06053
1039.90 0.06051
1040.00 0.06048
1040.10 0.06046
1040.20 0.06044
1040.30 0.06042
1040.40 0.06039
1040.50 0.06037
1040.60 0.06035
1040.70 0.06033
1040.80 0.06031
1040.90 0.06028
1041.00 0.06026
1041.10 0.06024
1041.20 0.06022
1041.30 0.0602
1041.40 0.06017
1041.50 0.06015
1041.60 0.06013
1041.70 0.06011
1041.80 0.06009
1041.90 0.06006
1042.00 0.06004
1042.10 0.06002
1042.20 0.06
1042.30 0.05998
1042.40 0.05995
1042.50 0.05993
1042.60 0.05991
1042.70 0.05989
1042.80 0.05986
1042.90 0.05984
1043.00 0.05982
1043.10 0.0598
1043.20 0.05978
1043.30 0.05975
1043.40 0.05973
1043.50 0.05971
1043.60 0.05969
1043.70 0.05967
1043.80 0.05964
1043.90 0.05962
1044.00 0.0596
1044.10 0.05958
1044.20 0.05955
1044.30 0.05953
1044.40 0.05951
1044.50 0.05949
1044.60 0.05947
1044.70 0.05944
1044.80 0.05942
1044.90 0.0594
1045.00 0.05938
1045.10 0.05936
1045.20 0.05933
1045.30 0.05931
1045.40 0.05929
1045.50 0.05927
1045.60 0.05925
1045.70 0.05923
1045.80 0.0592
1045.90 0.05918
1046.00 0.05916
1046.10 0.05914
1046.20 0.05912
1046.30 0.05909
1046.40 0.05907
1046.50 0.05905
1046.60 0.05903
1046.70 0.05901
1046.80 0.05898
1046.90 0.05896
1047.00 0.05894
1047.10 0.05892
1047.20 0.0589
1047.30 0.05887
1047.40 0.05885
1047.50 0.05883
1047.60 0.05881
1047.70 0.05879
1047.80 0.05876
1047.90 0.05874
1048.00 0.05872
1048.10 0.0587
1048.20 0.05868
1048.30 0.05866
1048.40 0.05863
1048.50 0.05861
1048.60 0.05859
1048.70 0.05857
1048.80 0.05855
1048.90 0.05852
1049.00 0.0585
1049.10 0.05848
1049.20 0.05846
1049.30 0.05844
1049.40 0.05841
1049.50 0.05839
1049.60 0.05837
1049.70 0.05835
1049.80 0.05833
1049.90 0.05831
1050.00 0.05828
1050.10 0.05826
1050.20 0.05824
1050.30 0.05822
1050.40 0.0582
1050.50 0.05817
1050.60 0.05815
1050.70 0.05813
1050.80 0.05811
1050.90 0.05809
1051.00 0.05807
1051.10 0.05804
1051.20 0.05802
1051.30 0.058
1051.40 0.05798
1051.50 0.05796
1051.60 0.05794
1051.70 0.05791
1051.80 0.05789
1051.90 0.05787
1052.00 0.05785
1052.10 0.05783
1052.20 0.05781
1052.30 0.05778
1052.40 0.05776
1052.50 0.05774
1052.60 0.05772
1052.70 0.0577
1052.80 0.05767
1052.90 0.05765
1053.00 0.05763
1053.10 0.05761
1053.20 0.05759
1053.30 0.05757
1053.40 0.05754
1053.50 0.05752
1053.60 0.0575
1053.70 0.05748
1053.80 0.05746
1053.90 0.05744
1054.00 0.05741
1054.10 0.05739
1054.20 0.05737
1054.30 0.05735
1054.40 0.05733
1054.50 0.05731
1054.60 0.05728
1054.70 0.05726
1054.80 0.05724
1054.90 0.05722
1055.00 0.0572
1055.10 0.05718
1055.20 0.05715
1055.30 0.05713
1055.40 0.05711
1055.50 0.05709
1055.60 0.05707
1055.70 0.05705
1055.80 0.05702
1055.90 0.057
1056.00 0.05698
1056.10 0.05696
1056.20 0.05694
1056.30 0.05692
1056.40 0.0569
1056.50 0.05687
1056.60 0.05685
1056.70 0.05683
1056.80 0.05681
1056.90 0.05679
1057.00 0.05677
1057.10 0.05674
1057.20 0.05672
1057.30 0.0567
1057.40 0.05668
1057.50 0.05666
1057.60 0.05664
1057.70 0.05661
1057.80 0.05659
1057.90 0.05657
1058.00 0.05655
1058.10 0.05653
1058.20 0.05651
1058.30 0.05648
1058.40 0.05646
1058.50 0.05644
1058.60 0.05642
1058.70 0.0564
1058.80 0.05638
1058.90 0.05635
1059.00 0.05633
1059.10 0.05631
1059.20 0.05629
1059.30 0.05627
1059.40 0.05625
1059.50 0.05623
1059.60 0.0562
1059.70 0.05618
1059.80 0.05616
1059.90 0.05614
1060.00 0.05612
1060.10 0.0561
1060.20 0.05607
1060.30 0.05605
1060.40 0.05603
1060.50 0.05601
1060.60 0.05599
1060.70 0.05597
1060.80 0.05595
1060.90 0.05592
1061.00 0.0559
1061.10 0.05588
1061.20 0.05586
1061.30 0.05584
1061.40 0.05582
1061.50 0.0558
1061.60 0.05577
1061.70 0.05575
1061.80 0.05573
1061.90 0.05571
1062.00 0.05569
1062.10 0.05567
1062.20 0.05564
1062.30 0.05562
1062.40 0.0556
1062.50 0.05558
1062.60 0.05556
1062.70 0.05554
1062.80 0.05551
1062.90 0.05549
1063.00 0.05547
1063.10 0.05545
1063.20 0.05543
1063.30 0.05541
1063.40 0.05538
1063.50 0.05536
1063.60 0.05534
1063.70 0.05532
1063.80 0.0553
1063.90 0.05527
1064.00 0.05525
1064.10 0.05523
1064.20 0.05521
1064.30 0.05519
1064.40 0.05517
1064.50 0.05514
1064.60 0.05512
1064.70 0.0551
1064.80 0.05508
1064.90 0.05506
1065.00 0.05504
1065.10 0.05501
1065.20 0.05499
1065.30 0.05497
1065.40 0.05495
1065.50 0.05493
1065.60 0.05491
1065.70 0.05488
1065.80 0.05486
1065.90 0.05484
1066.00 0.05482
1066.10 0.0548
1066.20 0.05478
1066.30 0.05476
1066.40 0.05473
1066.50 0.05471
1066.60 0.05469
1066.70 0.05467
1066.80 0.05465
1066.90 0.05463
1067.00 0.0546
1067.10 0.05458
1067.20 0.05456
1067.30 0.05454
1067.40 0.05452
1067.50 0.05449
1067.60 0.05447
1067.70 0.05445
1067.80 0.05443
1067.90 0.0544
1068.00 0.05438
1068.10 0.05436
1068.20 0.05434
1068.30 0.05432
1068.40 0.05429
1068.50 0.05427
1068.60 0.05425
1068.70 0.05423
1068.80 0.0542
1068.90 0.05418
1069.00 0.05416
1069.10 0.05414
1069.20 0.05412
1069.30 0.05409
1069.40 0.05407
1069.50 0.05405
1069.60 0.05403
1069.70 0.05401
1069.80 0.05398
1069.90 0.05396
1070.00 0.05394
1070.10 0.05392
1070.20 0.0539
1070.30 0.05387
1070.40 0.05385
1070.50 0.05383
1070.60 0.05381
1070.70 0.05379
1070.80 0.05376
1070.90 0.05374
1071.00 0.05372
1071.10 0.0537
1071.20 0.05368
1071.30 0.05365
1071.40 0.05363
1071.50 0.05361
1071.60 0.05359
1071.70 0.05357
1071.80 0.05354
1071.90 0.05352
1072.00 0.0535
1072.10 0.05348
1072.20 0.05345
1072.30 0.05343
1072.40 0.05341
1072.50 0.05339
1072.60 0.05336
1072.70 0.05334
1072.80 0.05332
1072.90 0.0533
1073.00 0.05327
1073.10 0.05325
1073.20 0.05323
1073.30 0.0532
1073.40 0.05318
1073.50 0.05316
1073.60 0.05314
1073.70 0.05311
1073.80 0.05309
1073.90 0.05307
1074.00 0.05304
1074.10 0.05302
1074.20 0.053
1074.30 0.05297
1074.40 0.05295
1074.50 0.05292
1074.60 0.0529
1074.70 0.05288
1074.80 0.05285
1074.90 0.05283
1075.00 0.05281
1075.10 0.05278
1075.20 0.05276
1075.30 0.05274
1075.40 0.05271
1075.50 0.05269
1075.60 0.05267
1075.70 0.05264
1075.80 0.05262
1075.90 0.0526
1076.00 0.05257
1076.10 0.05255
1076.20 0.05253
1076.30 0.0525
1076.40 0.05248
1076.50 0.05246
1076.60 0.05243
1076.70 0.05241
1076.80 0.05239
1076.90 0.05237
1077.00 0.05234
1077.10 0.05232
1077.20 0.05229
1077.30 0.05227
1077.40 0.05225
1077.50 0.05222
1077.60 0.0522
1077.70 0.05217
1077.80 0.05215
1077.90 0.05212
1078.00 0.0521
1078.10 0.05207
1078.20 0.05205
1078.30 0.05202
1078.40 0.052
1078.50 0.05198
1078.60 0.05195
1078.70 0.05193
1078.80 0.0519
1078.90 0.05188
1079.00 0.05185
1079.10 0.05183
1079.20 0.0518
1079.30 0.05178
1079.40 0.05175
1079.50 0.05173
1079.60 0.0517
1079.70 0.05168
1079.80 0.05165
1079.90 0.05163
1080.00 0.0516
1080.10 0.05158
1080.20 0.05155
1080.30 0.05152
1080.40 0.0515
1080.50 0.05147
1080.60 0.05145
1080.70 0.05142
1080.80 0.0514
1080.90 0.05137
1081.00 0.05135
1081.10 0.05132
1081.20 0.05129
1081.30 0.05127
1081.40 0.05124
1081.50 0.05122
1081.60 0.05119
1081.70 0.05116
1081.80 0.05114
1081.90 0.05111
1082.00 0.05109
1082.10 0.05106
1082.20 0.05103
1082.30 0.051
1082.40 0.05098
1082.50 0.05095
1082.60 0.05092
1082.70 0.0509
1082.80 0.05087
1082.90 0.05084
1083.00 0.05082
1083.10 0.05079
1083.20 0.05076
1083.30 0.05073
1083.40 0.05071
1083.50 0.05068
1083.60 0.05065
1083.70 0.05062
1083.80 0.0506
1083.90 0.05057
1084.00 0.05054
1084.10 0.05051
1084.20 0.05049
1084.30 0.05046
1084.40 0.05043
1084.50 0.0504
1084.60 0.05037
1084.70 0.05034
1084.80 0.05032
1084.90 0.05029
1085.00 0.05026
1085.10 0.05023
1085.20 0.0502
1085.30 0.05017
1085.40 0.05014
1085.50 0.05011
1085.60 0.05008
1085.70 0.05006
1085.80 0.05003
1085.90 0.05
1086.00 0.04997
1086.10 0.04994
1086.20 0.04991
1086.30 0.04988
1086.40 0.04985
1086.50 0.04982
1086.60 0.0498
1086.70 0.04977
1086.80 0.04974
1086.90 0.04971
1087.00 0.04968
1087.10 0.04965
1087.20 0.04962
1087.30 0.04959
1087.40 0.04956
1087.50 0.04953
1087.60 0.0495
1087.70 0.04947
1087.80 0.04944
1087.90 0.0494
1088.00 0.04937
1088.10 0.04934
1088.20 0.04931
1088.30 0.04928
1088.40 0.04925
1088.50 0.04922
1088.60 0.04919
1088.70 0.04916
1088.80 0.04913
1088.90 0.0491
1089.00 0.04907
1089.10 0.04904
1089.20 0.04901
1089.30 0.04898
1089.40 0.04895
1089.50 0.04892
1089.60 0.04889
1089.70 0.04886
1089.80 0.04883
1089.90 0.0488
1090.00 0.04876
1090.10 0.04873
1090.20 0.0487
1090.30 0.04867
1090.40 0.04864
1090.50 0.04861
1090.60 0.04858
1090.70 0.04855
1090.80 0.04852
1090.90 0.04849
1091.00 0.04846
1091.10 0.04843
1091.20 0.04839
1091.30 0.04836
1091.40 0.04833
1091.50 0.0483
1091.60 0.04827
1091.70 0.04824
1091.80 0.04821
1091.90 0.04818
1092.00 0.04815
1092.10 0.04811
1092.20 0.04808
1092.30 0.04805
1092.40 0.04802
1092.50 0.04798
1092.60 0.04795
1092.70 0.04792
1092.80 0.04788
1092.90 0.04785
1093.00 0.04781
1093.10 0.04778
1093.20 0.04774
1093.30 0.04771
1093.40 0.04768
1093.50 0.04764
1093.60 0.04762
1093.70 0.04761
1093.80 0.0476
1093.90 0.04758
1094.00 0.04757
1094.10 0.04756
1094.20 0.04755
1094.30 0.04755
1094.40 0.04755
1094.50 0.04755
1094.60 0.04755
1094.70 0.04755
1094.80 0.04755
1094.90 0.04756
1095.00 0.04756
1095.10 0.04755
1095.20 0.04755
1095.30 0.04755
1095.40 0.04755
1095.50 0.04755
1095.60 0.04755
1095.70 0.04754
1095.80 0.04754
1095.90 0.04754
1096.00 0.04754
1096.10 0.04754
1096.20 0.04754
1096.30 0.04753
1096.40 0.04753
1096.50 0.04753
1096.60 0.04753
1096.70 0.04752
1096.80 0.04752
1096.90 0.04752
1097.00 0.04752
1097.10 0.04751
1097.20 0.04751
1097.30 0.04751
1097.40 0.0475
1097.50 0.0475
1097.60 0.0475
1097.70 0.04749
1097.80 0.04749
1097.90 0.04749
1098.00 0.04748
1098.10 0.04748
1098.20 0.04748
1098.30 0.04747
1098.40 0.04747
1098.50 0.04747
1098.60 0.04746
1098.70 0.04746
1098.80 0.04745
1098.90 0.04745
1099.00 0.04744
1099.10 0.04744
1099.20 0.04744
1099.30 0.04743
1099.40 0.04743
1099.50 0.04742
1099.60 0.04742
1099.70 0.04742
1099.80 0.04741
1099.90 0.04741
1100.00 0.0474
1100.10 0.0474
1100.20 0.04739
1100.30 0.04739
1100.40 0.04739
1100.50 0.04738
1100.60 0.04738
1100.70 0.04737
1100.80 0.04737
1100.90 0.04736
1101.00 0.04735
1101.10 0.04735
1101.20 0.04734
1101.30 0.04734
1101.40 0.04733
1101.50 0.04733
1101.60 0.04732
1101.70 0.04732
1101.80 0.04731
1101.90 0.04731
1102.00 0.0473
1102.10 0.04729
1102.20 0.04729
1102.30 0.04728
1102.40 0.04728
1102.50 0.04727
1102.60 0.04726
1102.70 0.04726
1102.80 0.04725
1102.90 0.04724
1103.00 0.04724
1103.10 0.04723
1103.20 0.04722
1103.30 0.04721
1103.40 0.04721
1103.50 0.0472
1103.60 0.04719
1103.70 0.04718
1103.80 0.04718
1103.90 0.04717
1104.00 0.04716
1104.10 0.04715
1104.20 0.04714
1104.30 0.04714
1104.40 0.04713
1104.50 0.04712
1104.60 0.04711
1104.70 0.0471
1104.80 0.04709
1104.90 0.04709
1105.00 0.04708
1105.10 0.04707
1105.20 0.04706
1105.30 0.04705
1105.40 0.04705
1105.50 0.04704
1105.60 0.04703
1105.70 0.04702
1105.80 0.04701
1105.90 0.047
1106.00 0.04699
1106.10 0.04698
1106.20 0.04697
1106.30 0.04696
1106.40 0.04695
1106.50 0.04694
1106.60 0.04693
1106.70 0.04692
1106.80 0.04692
1106.90 0.04691
1107.00 0.0469
1107.10 0.04689
1107.20 0.04688
1107.30 0.04687
1107.40 0.04686
1107.50 0.04685
1107.60 0.04683
1107.70 0.04682
1107.80 0.04681
1107.90 0.0468
1108.00 0.04679
1108.10 0.04678
1108.20 0.04677
1108.30 0.04676
1108.40 0.04675
1108.50 0.04674
1108.60 0.04673
1108.70 0.04672
1108.80 0.0467
1108.90 0.04669
1109.00 0.04668
1109.10 0.04667
1109.20 0.04666
1109.30 0.04665
1109.40 0.04664
1109.50 0.04663
1109.60 0.04662
1109.70 0.0466
1109.80 0.04659
1109.90 0.04658
1110.00 0.04657
1110.10 0.04656
1110.20 0.04655
1110.30 0.04653
1110.40 0.04652
1110.50 0.04651
1110.60 0.0465
1110.70 0.04649
1110.80 0.04647
1110.90 0.04646
1111.00 0.04645
1111.10 0.04644
1111.20 0.04643
1111.30 0.04641
1111.40 0.0464
1111.50 0.04639
1111.60 0.04638
1111.70 0.04637
1111.80 0.04635
1111.90 0.04634
1112.00 0.04633
1112.10 0.04632
1112.20 0.04631
1112.30 0.04629
1112.40 0.04628
1112.50 0.04627
1112.60 0.04625
1112.70 0.04624
1112.80 0.04623
1112.90 0.04622
1113.00 0.0462
1113.10 0.04619
1113.20 0.04618
1113.30 0.04617
1113.40 0.04615
1113.50 0.04614
1113.60 0.04613
1113.70 0.04611
1113.80 0.0461
1113.90 0.04609
1114.00 0.04607
1114.10 0.04606
1114.20 0.04605
1114.30 0.04603
1114.40 0.04602
1114.50 0.04601
1114.60 0.04599
1114.70 0.04598
1114.80 0.04597
1114.90 0.04595
1115.00 0.04594
1115.10 0.04593
1115.20 0.04591
1115.30 0.0459
1115.40 0.04589
1115.50 0.04587
1115.60 0.04586
1115.70 0.04584
1115.80 0.04583
1115.90 0.04582
1116.00 0.0458
1116.10 0.04579
1116.20 0.04578
1116.30 0.04576
1116.40 0.04575
1116.50 0.04574
1116.60 0.04572
1116.70 0.04571
1116.80 0.0457
1116.90 0.04568
1117.00 0.04567
1117.10 0.04566
1117.20 0.04564
1117.30 0.04563
1117.40 0.04561
1117.50 0.0456
1117.60 0.04559
1117.70 0.04557
1117.80 0.04556
1117.90 0.04554
1118.00 0.04553
1118.10 0.04552
1118.20 0.0455
1118.30 0.04549
1118.40 0.04547
1118.50 0.04546
1118.60 0.04544
1118.70 0.04543
1118.80 0.04542
1118.90 0.0454
1119.00 0.04539
1119.10 0.04537
1119.20 0.04536
1119.30 0.04535
1119.40 0.04533
1119.50 0.04532
1119.60 0.0453
1119.70 0.04529
1119.80 0.04528
1119.90 0.04526
1120.00 0.04525
1120.10 0.04523
1120.20 0.04522
1120.30 0.04521
1120.40 0.04519
1120.50 0.04518
1120.60 0.04516
1120.70 0.04515
1120.80 0.04514
1120.90 0.04512
1121.00 0.04511
1121.10 0.04509
1121.20 0.04508
1121.30 0.04507
1121.40 0.04505
1121.50 0.04504
1121.60 0.04502
1121.70 0.04501
1121.80 0.045
1121.90 0.04498
1122.00 0.04497
1122.10 0.04495
1122.20 0.04494
1122.30 0.04492
1122.40 0.04491
1122.50 0.04489
1122.60 0.04488
1122.70 0.04487
1122.80 0.04485
1122.90 0.04484
1123.00 0.04482
1123.10 0.04481
1123.20 0.04479
1123.30 0.04478
1123.40 0.04476
1123.50 0.04475
1123.60 0.04473
1123.70 0.04472
1123.80 0.04471
1123.90 0.04469
1124.00 0.04468
1124.10 0.04466
1124.20 0.04465
1124.30 0.04463
1124.40 0.04462
1124.50 0.0446
1124.60 0.04459
1124.70 0.04458
1124.80 0.04456
1124.90 0.04455
1125.00 0.04453
1125.10 0.04452
1125.20 0.0445
1125.30 0.04449
1125.40 0.04447
1125.50 0.04446
1125.60 0.04445
1125.70 0.04443
1125.80 0.04442
1125.90 0.0444
1126.00 0.04439
1126.10 0.04437
1126.20 0.04436
1126.30 0.04434
1126.40 0.04433
1126.50 0.04432
1126.60 0.0443
1126.70 0.04429
1126.80 0.04427
1126.90 0.04426
1127.00 0.04424
1127.10 0.04423
1127.20 0.04422
1127.30 0.0442
1127.40 0.04419
1127.50 0.04417
1127.60 0.04416
1127.70 0.04414
1127.80 0.04413
1127.90 0.04411
1128.00 0.0441
1128.10 0.04408
1128.20 0.04407
1128.30 0.04405
1128.40 0.04404
1128.50 0.04403
1128.60 0.04401
1128.70 0.044
1128.80 0.04398
1128.90 0.04397
1129.00 0.04395
1129.10 0.04394
1129.20 0.04392
1129.30 0.04391
1129.40 0.04389
1129.50 0.04388
1129.60 0.04386
1129.70 0.04385
1129.80 0.04384
1129.90 0.04382
1130.00 0.04381
1130.10 0.04379
1130.20 0.04378
1130.30 0.04376
1130.40 0.04375
1130.50 0.04373
1130.60 0.04372
1130.70 0.04371
1130.80 0.04369
1130.90 0.04368
1131.00 0.04366
1131.10 0.04365
1131.20 0.04363
1131.30 0.04362
1131.40 0.0436
1131.50 0.04359
1131.60 0.04358
1131.70 0.04356
1131.80 0.04355
1131.90 0.04353
1132.00 0.04352
1132.10 0.0435
1132.20 0.04349
1132.30 0.04347
1132.40 0.04346
1132.50 0.04344
1132.60 0.04343
1132.70 0.04342
1132.80 0.0434
1132.90 0.04339
1133.00 0.04337
1133.10 0.04336
1133.20 0.04334
1133.30 0.04333
1133.40 0.04331
1133.50 0.0433
1133.60 0.04328
1133.70 0.04327
1133.80 0.04326
1133.90 0.04324
1134.00 0.04323
1134.10 0.04321
1134.20 0.0432
1134.30 0.04318
1134.40 0.04317
1134.50 0.04315
1134.60 0.04314
1134.70 0.04313
1134.80 0.04311
1134.90 0.0431
1135.00 0.04308
1135.10 0.04307
1135.20 0.04305
1135.30 0.04304
1135.40 0.04302
1135.50 0.04301
1135.60 0.043
1135.70 0.04298
1135.80 0.04297
1135.90 0.04295
1136.00 0.04294
1136.10 0.04292
1136.20 0.04291
1136.30 0.0429
1136.40 0.04288
1136.50 0.04287
1136.60 0.04285
1136.70 0.04284
1136.80 0.04282
1136.90 0.04281
1137.00 0.04279
1137.10 0.04278
1137.20 0.04277
1137.30 0.04275
1137.40 0.04274
1137.50 0.04272
1137.60 0.04271
1137.70 0.04269
1137.80 0.04268
1137.90 0.04267
1138.00 0.04265
1138.10 0.04264
1138.20 0.04262
1138.30 0.04261
1138.40 0.04259
1138.50 0.04258
1138.60 0.04256
1138.70 0.04255
1138.80 0.04254
1138.90 0.04252
1139.00 0.04251
1139.10 0.04249
1139.20 0.04248
1139.30 0.04246
1139.40 0.04245
1139.50 0.04244
1139.60 0.04242
1139.70 0.04241
1139.80 0.04239
1139.90 0.04238
1140.00 0.04236
1140.10 0.04235
1140.20 0.04234
1140.30 0.04232
1140.40 0.04231
1140.50 0.04229
1140.60 0.04228
1140.70 0.04226
1140.80 0.04225
1140.90 0.04224
1141.00 0.04222
1141.10 0.04221
1141.20 0.04219
1141.30 0.04218
1141.40 0.04217
1141.50 0.04215
1141.60 0.04214
1141.70 0.04212
1141.80 0.04211
1141.90 0.04209
1142.00 0.04208
1142.10 0.04207
1142.20 0.04205
1142.30 0.04204
1142.40 0.04202
1142.50 0.04201
1142.60 0.042
1142.70 0.04198
1142.80 0.04197
1142.90 0.04195
1143.00 0.04194
1143.10 0.04192
1143.20 0.04191
1143.30 0.0419
1143.40 0.04188
1143.50 0.04187
1143.60 0.04185
1143.70 0.04184
1143.80 0.04183
1143.90 0.04181
1144.00 0.0418
1144.10 0.04178
1144.20 0.04177
1144.30 0.04176
1144.40 0.04174
1144.50 0.04173
1144.60 0.04171
1144.70 0.0417
1144.80 0.04168
1144.90 0.04167
1145.00 0.04166
1145.10 0.04164
1145.20 0.04163
1145.30 0.04161
1145.40 0.0416
1145.50 0.04159
1145.60 0.04157
1145.70 0.04156
1145.80 0.04154
1145.90 0.04153
1146.00 0.04152
1146.10 0.0415
1146.20 0.04149
1146.30 0.04147
1146.40 0.04146
1146.50 0.04145
1146.60 0.04143
1146.70 0.04142
1146.80 0.0414
1146.90 0.04139
1147.00 0.04138
1147.10 0.04136
1147.20 0.04135
1147.30 0.04133
1147.40 0.04132
1147.50 0.04131
1147.60 0.04129
1147.70 0.04128
1147.80 0.04127
1147.90 0.04125
1148.00 0.04124
1148.10 0.04122
1148.20 0.04121
1148.30 0.0412
1148.40 0.04118
1148.50 0.04117
1148.60 0.04115
1148.70 0.04114
1148.80 0.04113
1148.90 0.04111
1149.00 0.0411
1149.10 0.04108
1149.20 0.04107
1149.30 0.04106
1149.40 0.04104
1149.50 0.04103
1149.60 0.04102
1149.70 0.041
1149.80 0.04099
1149.90 0.04097
1150.00 0.04096
1150.10 0.04095
1150.20 0.04093
1150.30 0.04092
1150.40 0.04091
1150.50 0.04089
1150.60 0.04088
1150.70 0.04086
1150.80 0.04085
1150.90 0.04084
1151.00 0.04082
1151.10 0.04081
1151.20 0.04079
1151.30 0.04078
1151.40 0.04077
1151.50 0.04075
1151.60 0.04074
1151.70 0.04073
1151.80 0.04071
1151.90 0.0407
1152.00 0.04068
1152.10 0.04067
1152.20 0.04066
1152.30 0.04064
1152.40 0.04063
1152.50 0.04062
1152.60 0.0406
1152.70 0.04059
1152.80 0.04058
1152.90 0.04056
1153.00 0.04055
1153.10 0.04053
1153.20 0.04052
1153.30 0.04051
1153.40 0.04049
1153.50 0.04048
1153.60 0.04047
1153.70 0.04045
1153.80 0.04044
1153.90 0.04043
1154.00 0.04041
1154.10 0.0404
1154.20 0.04038
1154.30 0.04037
1154.40 0.04036
1154.50 0.04034
1154.60 0.04033
1154.70 0.04032
1154.80 0.0403
1154.90 0.04029
1155.00 0.04028
1155.10 0.04026
1155.20 0.04025
1155.30 0.04024
1155.40 0.04022
1155.50 0.04021
1155.60 0.04019
1155.70 0.04018
1155.80 0.04017
1155.90 0.04015
1156.00 0.04014
1156.10 0.04013
1156.20 0.04011
1156.30 0.0401
1156.40 0.04009
1156.50 0.04007
1156.60 0.04006
1156.70 0.04005
1156.80 0.04003
1156.90 0.04002
1157.00 0.04001
1157.10 0.03999
1157.20 0.03998
1157.30 0.03997
1157.40 0.03995
1157.50 0.03994
1157.60 0.03993
1157.70 0.03991
1157.80 0.0399
1157.90 0.03989
1158.00 0.03987
1158.10 0.03986
1158.20 0.03985
1158.30 0.03983
1158.40 0.03982
1158.50 0.0398
1158.60 0.03979
1158.70 0.03978
1158.80 0.03976
1158.90 0.03975
1159.00 0.03974
1159.10 0.03972
1159.20 0.03971
1159.30 0.0397
1159.40 0.03968
1159.50 0.03967
1159.60 0.03966
1159.70 0.03964
1159.80 0.03963
1159.90 0.03962
1160.00 0.03961
1160.10 0.03959
1160.20 0.03958
1160.30 0.03957
1160.40 0.03955
1160.50 0.03954
1160.60 0.03953
1160.70 0.03951
1160.80 0.0395
1160.90 0.03949
1161.00 0.03947
1161.10 0.03946
1161.20 0.03945
1161.30 0.03943
1161.40 0.03942
1161.50 0.03941
1161.60 0.03939
1161.70 0.03938
1161.80 0.03937
1161.90 0.03935
1162.00 0.03934
1162.10 0.03933
1162.20 0.03931
1162.30 0.0393
1162.40 0.03929
1162.50 0.03927
1162.60 0.03926
1162.70 0.03925
1162.80 0.03923
1162.90 0.03922
1163.00 0.03921
1163.10 0.0392
1163.20 0.03918
1163.30 0.03917
1163.40 0.03916
1163.50 0.03914
1163.60 0.03913
1163.70 0.03912
1163.80 0.0391
1163.90 0.03909
1164.00 0.03908
1164.10 0.03906
1164.20 0.03905
1164.30 0.03904
1164.40 0.03902
1164.50 0.03901
1164.60 0.039
1164.70 0.03899
1164.80 0.03897
1164.90 0.03896
1165.00 0.03895
1165.10 0.03893
1165.20 0.03892
1165.30 0.03891
1165.40 0.03889
1165.50 0.03888
1165.60 0.03887
1165.70 0.03886
1165.80 0.03884
1165.90 0.03883
1166.00 0.03882
1166.10 0.0388
1166.20 0.03879
1166.30 0.03878
1166.40 0.03876
1166.50 0.03875
1166.60 0.03874
1166.70 0.03873
1166.80 0.03871
1166.90 0.0387
1167.00 0.03869
1167.10 0.03867
1167.20 0.03866
1167.30 0.03865
1167.40 0.03863
1167.50 0.03862
1167.60 0.03861
1167.70 0.0386
1167.80 0.03858
1167.90 0.03857
1168.00 0.03856
1168.10 0.03854
1168.20 0.03853
1168.30 0.03852
1168.40 0.03851
1168.50 0.03849
1168.60 0.03848
1168.70 0.03847
1168.80 0.03845
1168.90 0.03844
1169.00 0.03843
1169.10 0.03842
1169.20 0.0384
1169.30 0.03839
1169.40 0.03838
1169.50 0.03836
1169.60 0.03835
1169.70 0.03834
1169.80 0.03833
1169.90 0.03831
1170.00 0.0383
1170.10 0.03829
1170.20 0.03828
1170.30 0.03826
1170.40 0.03825
1170.50 0.03824
1170.60 0.03822
1170.70 0.03821
1170.80 0.0382
1170.90 0.03819
1171.00 0.03817
1171.10 0.03816
1171.20 0.03815
1171.30 0.03813
1171.40 0.03812
1171.50 0.03811
1171.60 0.0381
1171.70 0.03808
1171.80 0.03807
1171.90 0.03806
1172.00 0.03805
1172.10 0.03803
1172.20 0.03802
1172.30 0.03801
1172.40 0.038
1172.50 0.03798
1172.60 0.03797
1172.70 0.03796
1172.80 0.03794
1172.90 0.03793
1173.00 0.03792
1173.10 0.03791
1173.20 0.03789
1173.30 0.03788
1173.40 0.03787
1173.50 0.03786
1173.60 0.03784
1173.70 0.03783
1173.80 0.03782
1173.90 0.03781
1174.00 0.03779
1174.10 0.03778
1174.20 0.03777
1174.30 0.03776
1174.40 0.03774
1174.50 0.03773
1174.60 0.03772
1174.70 0.03771
1174.80 0.03769
1174.90 0.03768
1175.00 0.03767
1175.10 0.03766
1175.20 0.03764
1175.30 0.03763
1175.40 0.03762
1175.50 0.03761
1175.60 0.03759
1175.70 0.03758
1175.80 0.03757
1175.90 0.03756
1176.00 0.03754
1176.10 0.03753
1176.20 0.03752
1176.30 0.03751
1176.40 0.03749
1176.50 0.03748
1176.60 0.03747
1176.70 0.03746
1176.80 0.03744
1176.90 0.03743
1177.00 0.03742
1177.10 0.03741
1177.20 0.03739
1177.30 0.03738
1177.40 0.03737
1177.50 0.03736
1177.60 0.03734
1177.70 0.03733
1177.80 0.03732
1177.90 0.03731
1178.00 0.03729
1178.10 0.03728
1178.20 0.03727
1178.30 0.03726
1178.40 0.03724
1178.50 0.03723
1178.60 0.03722
1178.70 0.03721
1178.80 0.0372
1178.90 0.03718
1179.00 0.03717
1179.10 0.03716
1179.20 0.03715
1179.30 0.03713
1179.40 0.03712
1179.50 0.03711
1179.60 0.0371
1179.70 0.03708
1179.80 0.03707
1179.90 0.03706
1180.00 0.03705
1180.10 0.03704
1180.20 0.03702
1180.30 0.03701
1180.40 0.037
1180.50 0.03699
1180.60 0.03697
1180.70 0.03696
1180.80 0.03695
1180.90 0.03694
1181.00 0.03692
1181.10 0.03691
1181.20 0.0369
1181.30 0.03689
1181.40 0.03688
1181.50 0.03686
1181.60 0.03685
1181.70 0.03684
1181.80 0.03683
1181.90 0.03681
1182.00 0.0368
1182.10 0.03679
1182.20 0.03678
1182.30 0.03677
1182.40 0.03675
1182.50 0.03674
1182.60 0.03673
1182.70 0.03672
1182.80 0.03671
1182.90 0.03669
1183.00 0.03668
1183.10 0.03667
1183.20 0.03666
1183.30 0.03664
1183.40 0.03663
1183.50 0.03662
1183.60 0.03661
1183.70 0.0366
1183.80 0.03658
1183.90 0.03657
1184.00 0.03656
1184.10 0.03655
1184.20 0.03654
1184.30 0.03652
1184.40 0.03651
1184.50 0.0365
1184.60 0.03649
1184.70 0.03648
1184.80 0.03646
1184.90 0.03645
1185.00 0.03644
1185.10 0.03643
1185.20 0.03642
1185.30 0.0364
1185.40 0.03639
1185.50 0.03638
1185.60 0.03637
1185.70 0.03636
1185.80 0.03634
1185.90 0.03633
1186.00 0.03632
1186.10 0.03631
1186.20 0.0363
1186.30 0.03628
1186.40 0.03627
1186.50 0.03626
1186.60 0.03625
1186.70 0.03624
1186.80 0.03622
1186.90 0.03621
1187.00 0.0362
1187.10 0.03619
1187.20 0.03618
1187.30 0.03616
1187.40 0.03615
1187.50 0.03614
1187.60 0.03613
1187.70 0.03612
1187.80 0.0361
1187.90 0.03609
1188.00 0.03608
1188.10 0.03607
1188.20 0.03606
1188.30 0.03604
1188.40 0.03603
1188.50 0.03602
1188.60 0.03601
1188.70 0.036
1188.80 0.03599
1188.90 0.03597
1189.00 0.03596
1189.10 0.03595
1189.20 0.03594
1189.30 0.03593
1189.40 0.03591
1189.50 0.0359
1189.60 0.03589
1189.70 0.03588
1189.80 0.03587
1189.90 0.03585
1190.00 0.03584
1190.10 0.03583
1190.20 0.03582
1190.30 0.03581
1190.40 0.0358
1190.50 0.03578
1190.60 0.03577
1190.70 0.03576
1190.80 0.03575
1190.90 0.03574
1191.00 0.03573
1191.10 0.03571
1191.20 0.0357
1191.30 0.03569
1191.40 0.03568
1191.50 0.03567
1191.60 0.03565
1191.70 0.03564
1191.80 0.03563
1191.90 0.03562
1192.00 0.03561
1192.10 0.0356
1192.20 0.03558
1192.30 0.03557
1192.40 0.03556
1192.50 0.03555
1192.60 0.03554
1192.70 0.03553
1192.80 0.03551
1192.90 0.0355
1193.00 0.03549
1193.10 0.03548
1193.20 0.03547
1193.30 0.03546
1193.40 0.03544
1193.50 0.03543
1193.60 0.03542
1193.70 0.03541
1193.80 0.0354
1193.90 0.03539
1194.00 0.03537
1194.10 0.03536
1194.20 0.03535
1194.30 0.03534
1194.40 0.03533
1194.50 0.03532
1194.60 0.0353
1194.70 0.03529
1194.80 0.03528
1194.90 0.03527
1195.00 0.03526
1195.10 0.03525
1195.20 0.03524
1195.30 0.03522
1195.40 0.03521
1195.50 0.0352
1195.60 0.03519
1195.70 0.03518
1195.80 0.03517
1195.90 0.03515
1196.00 0.03514
1196.10 0.03513
1196.20 0.03512
1196.30 0.03511
1196.40 0.0351
1196.50 0.03509
1196.60 0.03507
1196.70 0.03506
1196.80 0.03505
1196.90 0.03504
1197.00 0.03503
1197.10 0.03502
1197.20 0.035
1197.30 0.03499
1197.40 0.03498
1197.50 0.03497
1197.60 0.03496
1197.70 0.03495
1197.80 0.03494
1197.90 0.03492
1198.00 0.03491
1198.10 0.0349
1198.20 0.03489
1198.30 0.03488
1198.40 0.03487
1198.50 0.03486
1198.60 0.03484
1198.70 0.03483
1198.80 0.03482
1198.90 0.03481
1199.00 0.0348
1199.10 0.03479
1199.20 0.03478
1199.30 0.03477
1199.40 0.03475
1199.50 0.03474
1199.60 0.03473
1199.70 0.03472
1199.80 0.03471
1199.90 0.0347
1200.00 0
