# Version 2.1 - nm, norm@500 to 1, cut digits, bergeron_2000_80.dat_2000
# Wavelength(nm)  Flambda(ergs/cm^s/s/nm)
300.00 0.03727
300.10 0.0374
300.20 0.03753
300.30 0.03767
300.40 0.0378
300.50 0.03793
300.60 0.03807
300.70 0.0382
300.80 0.03833
300.90 0.03846
301.00 0.0386
301.10 0.03873
301.20 0.03886
301.30 0.03899
301.40 0.03912
301.50 0.03925
301.60 0.03938
301.70 0.03951
301.80 0.03964
301.90 0.03978
302.00 0.03991
302.10 0.04005
302.20 0.04019
302.30 0.04033
302.40 0.04046
302.50 0.0406
302.60 0.04074
302.70 0.04088
302.80 0.04102
302.90 0.04116
303.00 0.0413
303.10 0.04144
303.20 0.04157
303.30 0.04171
303.40 0.04185
303.50 0.04199
303.60 0.04212
303.70 0.04226
303.80 0.0424
303.90 0.04254
304.00 0.04268
304.10 0.04282
304.20 0.04297
304.30 0.04311
304.40 0.04326
304.50 0.04341
304.60 0.04355
304.70 0.0437
304.80 0.04384
304.90 0.04399
305.00 0.04413
305.10 0.04428
305.20 0.04442
305.30 0.04457
305.40 0.04471
305.50 0.04486
305.60 0.045
305.70 0.04514
305.80 0.04529
305.90 0.04543
306.00 0.04558
306.10 0.04573
306.20 0.04588
306.30 0.04604
306.40 0.04619
306.50 0.04634
306.60 0.04649
306.70 0.04665
306.80 0.0468
306.90 0.04695
307.00 0.0471
307.10 0.04726
307.20 0.04741
307.30 0.04756
307.40 0.04771
307.50 0.04786
307.60 0.04801
307.70 0.04816
307.80 0.04831
307.90 0.04846
308.00 0.04862
308.10 0.04878
308.20 0.04893
308.30 0.04909
308.40 0.04925
308.50 0.04941
308.60 0.04957
308.70 0.04973
308.80 0.04989
308.90 0.05005
309.00 0.05021
309.10 0.05037
309.20 0.05053
309.30 0.05069
309.40 0.05084
309.50 0.051
309.60 0.05116
309.70 0.05132
309.80 0.05147
309.90 0.05163
310.00 0.0518
310.10 0.05196
310.20 0.05213
310.30 0.05229
310.40 0.05246
310.50 0.05263
310.60 0.0528
310.70 0.05296
310.80 0.05313
310.90 0.0533
311.00 0.05346
311.10 0.05363
311.20 0.0538
311.30 0.05396
311.40 0.05413
311.50 0.05429
311.60 0.05446
311.70 0.05462
311.80 0.05479
311.90 0.05495
312.00 0.05512
312.10 0.05528
312.20 0.05545
312.30 0.05562
312.40 0.0558
312.50 0.05597
312.60 0.05615
312.70 0.05632
312.80 0.0565
312.90 0.05667
313.00 0.05684
313.10 0.05702
313.20 0.05719
313.30 0.05736
313.40 0.05754
313.50 0.05771
313.60 0.05788
313.70 0.05805
313.80 0.05823
313.90 0.0584
314.00 0.05858
314.10 0.05876
314.20 0.05894
314.30 0.05912
314.40 0.0593
314.50 0.05948
314.60 0.05966
314.70 0.05985
314.80 0.06003
314.90 0.06021
315.00 0.06039
315.10 0.06057
315.20 0.06075
315.30 0.06093
315.40 0.06111
315.50 0.06129
315.60 0.06147
315.70 0.06165
315.80 0.06183
315.90 0.06201
316.00 0.06219
316.10 0.06237
316.20 0.06256
316.30 0.06275
316.40 0.06294
316.50 0.06313
316.60 0.06332
316.70 0.06351
316.80 0.0637
316.90 0.06389
317.00 0.06408
317.10 0.06426
317.20 0.06445
317.30 0.06464
317.40 0.06483
317.50 0.06501
317.60 0.0652
317.70 0.06539
317.80 0.06557
317.90 0.06576
318.00 0.06595
318.10 0.06614
318.20 0.06634
318.30 0.06654
318.40 0.06674
318.50 0.06693
318.60 0.06713
318.70 0.06733
318.80 0.06752
318.90 0.06772
319.00 0.06792
319.10 0.06811
319.20 0.06831
319.30 0.0685
319.40 0.0687
319.50 0.06889
319.60 0.06909
319.70 0.06928
319.80 0.06948
319.90 0.06967
320.00 0.06987
320.10 0.07007
320.20 0.07027
320.30 0.07048
320.40 0.07069
320.50 0.07089
320.60 0.0711
320.70 0.0713
320.80 0.0715
320.90 0.07171
321.00 0.07191
321.10 0.07211
321.20 0.07232
321.30 0.07252
321.40 0.07272
321.50 0.07293
321.60 0.07313
321.70 0.07333
321.80 0.07353
321.90 0.07373
322.00 0.07394
322.10 0.07415
322.20 0.07436
322.30 0.07457
322.40 0.07479
322.50 0.075
322.60 0.07521
322.70 0.07543
322.80 0.07564
322.90 0.07585
323.00 0.07606
323.10 0.07627
323.20 0.07648
323.30 0.07669
323.40 0.07691
323.50 0.07712
323.60 0.07733
323.70 0.07753
323.80 0.07775
323.90 0.07796
324.00 0.07817
324.10 0.07838
324.20 0.07861
324.30 0.07883
324.40 0.07905
324.50 0.07927
324.60 0.07949
324.70 0.07971
324.80 0.07993
324.90 0.08015
325.00 0.08037
325.10 0.08059
325.20 0.08081
325.30 0.08103
325.40 0.08125
325.50 0.08146
325.60 0.08168
325.70 0.0819
325.80 0.08212
325.90 0.08234
326.00 0.08256
326.10 0.08278
326.20 0.08301
326.30 0.08324
326.40 0.08347
326.50 0.0837
326.60 0.08393
326.70 0.08416
326.80 0.08439
326.90 0.08461
327.00 0.08484
327.10 0.08507
327.20 0.08529
327.30 0.08552
327.40 0.08575
327.50 0.08597
327.60 0.0862
327.70 0.08643
327.80 0.08665
327.90 0.08688
328.00 0.08711
328.10 0.08734
328.20 0.08758
328.30 0.08782
328.40 0.08805
328.50 0.08829
328.60 0.08853
328.70 0.08876
328.80 0.089
328.90 0.08924
329.00 0.08947
329.10 0.08971
329.20 0.08994
329.30 0.09018
329.40 0.09041
329.50 0.09065
329.60 0.09088
329.70 0.09112
329.80 0.09135
329.90 0.09158
330.00 0.09182
330.10 0.09206
330.20 0.09231
330.30 0.09256
330.40 0.0928
330.50 0.09305
330.60 0.09329
330.70 0.09354
330.80 0.09378
330.90 0.09403
331.00 0.09427
331.10 0.09451
331.20 0.09476
331.30 0.095
331.40 0.09524
331.50 0.09549
331.60 0.09573
331.70 0.09597
331.80 0.09621
331.90 0.09645
332.00 0.09669
332.10 0.09695
332.20 0.0972
332.30 0.09746
332.40 0.09771
332.50 0.09797
332.60 0.09822
332.70 0.09847
332.80 0.09873
332.90 0.09898
333.00 0.09923
333.10 0.09948
333.20 0.09974
333.30 0.09999
333.40 0.1002
333.50 0.1005
333.60 0.1007
333.70 0.101
333.80 0.1012
333.90 0.1015
334.00 0.1017
334.10 0.102
334.20 0.1023
334.30 0.1025
334.40 0.1028
334.50 0.1031
334.60 0.1033
334.70 0.1036
334.80 0.1038
334.90 0.1041
335.00 0.1044
335.10 0.1046
335.20 0.1049
335.30 0.1051
335.40 0.1054
335.50 0.1057
335.60 0.1059
335.70 0.1062
335.80 0.1064
335.90 0.1067
336.00 0.107
336.10 0.1072
336.20 0.1075
336.30 0.1078
336.40 0.108
336.50 0.1083
336.60 0.1086
336.70 0.1089
336.80 0.1091
336.90 0.1094
337.00 0.1097
337.10 0.1099
337.20 0.1102
337.30 0.1105
337.40 0.1107
337.50 0.111
337.60 0.1113
337.70 0.1115
337.80 0.1118
337.90 0.1121
338.00 0.1123
338.10 0.1126
338.20 0.1129
338.30 0.1132
338.40 0.1135
338.50 0.1137
338.60 0.114
338.70 0.1143
338.80 0.1146
338.90 0.1149
339.00 0.1151
339.10 0.1154
339.20 0.1157
339.30 0.116
339.40 0.1162
339.50 0.1165
339.60 0.1168
339.70 0.1171
339.80 0.1173
339.90 0.1176
340.00 0.1179
340.10 0.1182
340.20 0.1185
340.30 0.1188
340.40 0.119
340.50 0.1193
340.60 0.1196
340.70 0.1199
340.80 0.1202
340.90 0.1205
341.00 0.1208
341.10 0.1211
341.20 0.1213
341.30 0.1216
341.40 0.1219
341.50 0.1222
341.60 0.1225
341.70 0.1228
341.80 0.123
341.90 0.1233
342.00 0.1236
342.10 0.1239
342.20 0.1242
342.30 0.1245
342.40 0.1248
342.50 0.1251
342.60 0.1254
342.70 0.1257
342.80 0.126
342.90 0.1263
343.00 0.1266
343.10 0.1269
343.20 0.1272
343.30 0.1275
343.40 0.1278
343.50 0.1281
343.60 0.1283
343.70 0.1286
343.80 0.1289
343.90 0.1292
344.00 0.1295
344.10 0.1298
344.20 0.1301
344.30 0.1304
344.40 0.1307
344.50 0.131
344.60 0.1313
344.70 0.1317
344.80 0.132
344.90 0.1323
345.00 0.1326
345.10 0.1329
345.20 0.1332
345.30 0.1335
345.40 0.1338
345.50 0.1341
345.60 0.1344
345.70 0.1347
345.80 0.135
345.90 0.1353
346.00 0.1356
346.10 0.1359
346.20 0.1362
346.30 0.1365
346.40 0.1368
346.50 0.1372
346.60 0.1375
346.70 0.1378
346.80 0.1381
346.90 0.1384
347.00 0.1387
347.10 0.139
347.20 0.1393
347.30 0.1397
347.40 0.14
347.50 0.1403
347.60 0.1406
347.70 0.1409
347.80 0.1412
347.90 0.1415
348.00 0.1418
348.10 0.1421
348.20 0.1425
348.30 0.1428
348.40 0.1431
348.50 0.1434
348.60 0.1438
348.70 0.1441
348.80 0.1444
348.90 0.1447
349.00 0.1451
349.10 0.1454
349.20 0.1457
349.30 0.146
349.40 0.1463
349.50 0.1467
349.60 0.147
349.70 0.1473
349.80 0.1476
349.90 0.1479
350.00 0.1482
350.10 0.1486
350.20 0.1489
350.30 0.1492
350.40 0.1496
350.50 0.1499
350.60 0.1502
350.70 0.1506
350.80 0.1509
350.90 0.1512
351.00 0.1516
351.10 0.1519
351.20 0.1522
351.30 0.1525
351.40 0.1529
351.50 0.1532
351.60 0.1535
351.70 0.1539
351.80 0.1542
351.90 0.1545
352.00 0.1548
352.10 0.1552
352.20 0.1555
352.30 0.1559
352.40 0.1562
352.50 0.1565
352.60 0.1569
352.70 0.1572
352.80 0.1576
352.90 0.1579
353.00 0.1582
353.10 0.1586
353.20 0.1589
353.30 0.1592
353.40 0.1596
353.50 0.1599
353.60 0.1603
353.70 0.1606
353.80 0.1609
353.90 0.1613
354.00 0.1616
354.10 0.1619
354.20 0.1623
354.30 0.1626
354.40 0.163
354.50 0.1633
354.60 0.1637
354.70 0.164
354.80 0.1644
354.90 0.1647
355.00 0.1651
355.10 0.1654
355.20 0.1658
355.30 0.1661
355.40 0.1665
355.50 0.1668
355.60 0.1672
355.70 0.1675
355.80 0.1679
355.90 0.1682
356.00 0.1685
356.10 0.1689
356.20 0.1693
356.30 0.1696
356.40 0.17
356.50 0.1703
356.60 0.1707
356.70 0.171
356.80 0.1714
356.90 0.1718
357.00 0.1721
357.10 0.1725
357.20 0.1728
357.30 0.1732
357.40 0.1735
357.50 0.1739
357.60 0.1742
357.70 0.1746
357.80 0.1749
357.90 0.1753
358.00 0.1756
358.10 0.176
358.20 0.1764
358.30 0.1767
358.40 0.1771
358.50 0.1775
358.60 0.1778
358.70 0.1782
358.80 0.1786
358.90 0.1789
359.00 0.1793
359.10 0.1797
359.20 0.18
359.30 0.1804
359.40 0.1808
359.50 0.1811
359.60 0.1815
359.70 0.1819
359.80 0.1822
359.90 0.1826
360.00 0.1829
360.10 0.1833
360.20 0.1837
360.30 0.1841
360.40 0.1844
360.50 0.1848
360.60 0.1852
360.70 0.1856
360.80 0.1859
360.90 0.1863
361.00 0.1867
361.10 0.1871
361.20 0.1874
361.30 0.1878
361.40 0.1882
361.50 0.1885
361.60 0.1889
361.70 0.1893
361.80 0.1897
361.90 0.19
362.00 0.1904
362.10 0.1908
362.20 0.1912
362.30 0.1915
362.40 0.1919
362.50 0.1923
362.60 0.1927
362.70 0.1931
362.80 0.1934
362.90 0.1938
363.00 0.1942
363.10 0.1946
363.20 0.195
363.30 0.1953
363.40 0.1957
363.50 0.1961
363.60 0.1965
363.70 0.1969
363.80 0.1973
363.90 0.1977
364.00 0.198
364.10 0.1984
364.20 0.1988
364.30 0.1992
364.40 0.1996
364.50 0.2
364.60 0.2003
364.70 0.2007
364.80 0.2011
364.90 0.2015
365.00 0.2019
365.10 0.2023
365.20 0.2027
365.30 0.2031
365.40 0.2035
365.50 0.2039
365.60 0.2043
365.70 0.2047
365.80 0.2051
365.90 0.2054
366.00 0.2058
366.10 0.2062
366.20 0.2066
366.30 0.207
366.40 0.2074
366.50 0.2078
366.60 0.2082
366.70 0.2086
366.80 0.209
366.90 0.2094
367.00 0.2098
367.10 0.2102
367.20 0.2106
367.30 0.211
367.40 0.2114
367.50 0.2118
367.60 0.2122
367.70 0.2126
367.80 0.213
367.90 0.2134
368.00 0.2138
368.10 0.2142
368.20 0.2146
368.30 0.215
368.40 0.2154
368.50 0.2158
368.60 0.2163
368.70 0.2167
368.80 0.2171
368.90 0.2175
369.00 0.2179
369.10 0.2183
369.20 0.2187
369.30 0.2191
369.40 0.2195
369.50 0.2199
369.60 0.2203
369.70 0.2207
369.80 0.2211
369.90 0.2215
370.00 0.2219
370.10 0.2224
370.20 0.2228
370.30 0.2232
370.40 0.2236
370.50 0.224
370.60 0.2245
370.70 0.2249
370.80 0.2253
370.90 0.2257
371.00 0.2261
371.10 0.2265
371.20 0.227
371.30 0.2274
371.40 0.2278
371.50 0.2282
371.60 0.2286
371.70 0.229
371.80 0.2294
371.90 0.2298
372.00 0.2303
372.10 0.2307
372.20 0.2311
372.30 0.2315
372.40 0.232
372.50 0.2324
372.60 0.2328
372.70 0.2332
372.80 0.2337
372.90 0.2341
373.00 0.2345
373.10 0.2349
373.20 0.2354
373.30 0.2358
373.40 0.2362
373.50 0.2366
373.60 0.2371
373.70 0.2375
373.80 0.2379
373.90 0.2383
374.00 0.2387
374.10 0.2392
374.20 0.2396
374.30 0.24
374.40 0.2405
374.50 0.2409
374.60 0.2413
374.70 0.2418
374.80 0.2422
374.90 0.2426
375.00 0.2431
375.10 0.2435
375.20 0.2439
375.30 0.2444
375.40 0.2448
375.50 0.2452
375.60 0.2457
375.70 0.2461
375.80 0.2465
375.90 0.2469
376.00 0.2474
376.10 0.2478
376.20 0.2483
376.30 0.2487
376.40 0.2491
376.50 0.2496
376.60 0.25
376.70 0.2504
376.80 0.2509
376.90 0.2513
377.00 0.2518
377.10 0.2522
377.20 0.2526
377.30 0.2531
377.40 0.2535
377.50 0.254
377.60 0.2544
377.70 0.2549
377.80 0.2553
377.90 0.2557
378.00 0.2562
378.10 0.2566
378.20 0.2571
378.30 0.2575
378.40 0.258
378.50 0.2584
378.60 0.2589
378.70 0.2593
378.80 0.2598
378.90 0.2602
379.00 0.2606
379.10 0.2611
379.20 0.2616
379.30 0.262
379.40 0.2625
379.50 0.2629
379.60 0.2634
379.70 0.2638
379.80 0.2643
379.90 0.2647
380.00 0.2652
380.10 0.2656
380.20 0.2661
380.30 0.2665
380.40 0.267
380.50 0.2674
380.60 0.2679
380.70 0.2683
380.80 0.2688
380.90 0.2692
381.00 0.2697
381.10 0.2702
381.20 0.2706
381.30 0.2711
381.40 0.2715
381.50 0.272
381.60 0.2724
381.70 0.2729
381.80 0.2734
381.90 0.2738
382.00 0.2743
382.10 0.2747
382.20 0.2752
382.30 0.2757
382.40 0.2761
382.50 0.2766
382.60 0.2771
382.70 0.2775
382.80 0.278
382.90 0.2785
383.00 0.2789
383.10 0.2794
383.20 0.2798
383.30 0.2803
383.40 0.2808
383.50 0.2812
383.60 0.2817
383.70 0.2822
383.80 0.2826
383.90 0.2831
384.00 0.2836
384.10 0.2841
384.20 0.2845
384.30 0.285
384.40 0.2855
384.50 0.2859
384.60 0.2864
384.70 0.2869
384.80 0.2873
384.90 0.2878
385.00 0.2883
385.10 0.2888
385.20 0.2892
385.30 0.2897
385.40 0.2902
385.50 0.2906
385.60 0.2911
385.70 0.2916
385.80 0.2921
385.90 0.2925
386.00 0.293
386.10 0.2935
386.20 0.294
386.30 0.2945
386.40 0.2949
386.50 0.2954
386.60 0.2959
386.70 0.2964
386.80 0.2969
386.90 0.2973
387.00 0.2978
387.10 0.2983
387.20 0.2988
387.30 0.2993
387.40 0.2997
387.50 0.3002
387.60 0.3007
387.70 0.3012
387.80 0.3017
387.90 0.3021
388.00 0.3026
388.10 0.3031
388.20 0.3036
388.30 0.3041
388.40 0.3046
388.50 0.3051
388.60 0.3055
388.70 0.306
388.80 0.3065
388.90 0.307
389.00 0.3075
389.10 0.308
389.20 0.3085
389.30 0.309
389.40 0.3094
389.50 0.3099
389.60 0.3104
389.70 0.3109
389.80 0.3114
389.90 0.3119
390.00 0.3124
390.10 0.3129
390.20 0.3134
390.30 0.3139
390.40 0.3144
390.50 0.3149
390.60 0.3153
390.70 0.3158
390.80 0.3163
390.90 0.3168
391.00 0.3173
391.10 0.3178
391.20 0.3183
391.30 0.3188
391.40 0.3193
391.50 0.3198
391.60 0.3203
391.70 0.3208
391.80 0.3213
391.90 0.3218
392.00 0.3223
392.10 0.3228
392.20 0.3233
392.30 0.3238
392.40 0.3243
392.50 0.3248
392.60 0.3253
392.70 0.3258
392.80 0.3263
392.90 0.3268
393.00 0.3273
393.10 0.3278
393.20 0.3283
393.30 0.3288
393.40 0.3293
393.50 0.3298
393.60 0.3303
393.70 0.3308
393.80 0.3313
393.90 0.3318
394.00 0.3324
394.10 0.3329
394.20 0.3334
394.30 0.3339
394.40 0.3344
394.50 0.3349
394.60 0.3354
394.70 0.3359
394.80 0.3364
394.90 0.3369
395.00 0.3374
395.10 0.338
395.20 0.3385
395.30 0.339
395.40 0.3395
395.50 0.34
395.60 0.3405
395.70 0.341
395.80 0.3415
395.90 0.3421
396.00 0.3426
396.10 0.3431
396.20 0.3436
396.30 0.3441
396.40 0.3446
396.50 0.3451
396.60 0.3457
396.70 0.3462
396.80 0.3467
396.90 0.3472
397.00 0.3477
397.10 0.3482
397.20 0.3488
397.30 0.3493
397.40 0.3498
397.50 0.3503
397.60 0.3508
397.70 0.3514
397.80 0.3519
397.90 0.3524
398.00 0.3529
398.10 0.3534
398.20 0.354
398.30 0.3545
398.40 0.355
398.50 0.3555
398.60 0.356
398.70 0.3566
398.80 0.3571
398.90 0.3576
399.00 0.3581
399.10 0.3587
399.20 0.3592
399.30 0.3597
399.40 0.3602
399.50 0.3608
399.60 0.3613
399.70 0.3618
399.80 0.3623
399.90 0.3629
400.00 0.3634
400.10 0.3639
400.20 0.3645
400.30 0.365
400.40 0.3655
400.50 0.366
400.60 0.3666
400.70 0.3671
400.80 0.3676
400.90 0.3682
401.00 0.3687
401.10 0.3692
401.20 0.3698
401.30 0.3703
401.40 0.3708
401.50 0.3714
401.60 0.3719
401.70 0.3724
401.80 0.373
401.90 0.3735
402.00 0.374
402.10 0.3746
402.20 0.3751
402.30 0.3756
402.40 0.3762
402.50 0.3767
402.60 0.3773
402.70 0.3778
402.80 0.3783
402.90 0.3789
403.00 0.3794
403.10 0.3799
403.20 0.3805
403.30 0.381
403.40 0.3816
403.50 0.3821
403.60 0.3826
403.70 0.3832
403.80 0.3837
403.90 0.3843
404.00 0.3848
404.10 0.3853
404.20 0.3859
404.30 0.3864
404.40 0.387
404.50 0.3875
404.60 0.3881
404.70 0.3886
404.80 0.3891
404.90 0.3897
405.00 0.3902
405.10 0.3908
405.20 0.3913
405.30 0.3919
405.40 0.3924
405.50 0.393
405.60 0.3935
405.70 0.3941
405.80 0.3946
405.90 0.3952
406.00 0.3957
406.10 0.3962
406.20 0.3968
406.30 0.3973
406.40 0.3979
406.50 0.3984
406.60 0.399
406.70 0.3995
406.80 0.4001
406.90 0.4007
407.00 0.4012
407.10 0.4018
407.20 0.4023
407.30 0.4029
407.40 0.4034
407.50 0.404
407.60 0.4045
407.70 0.4051
407.80 0.4056
407.90 0.4062
408.00 0.4067
408.10 0.4073
408.20 0.4078
408.30 0.4084
408.40 0.409
408.50 0.4095
408.60 0.4101
408.70 0.4106
408.80 0.4112
408.90 0.4117
409.00 0.4123
409.10 0.4129
409.20 0.4134
409.30 0.414
409.40 0.4145
409.50 0.4151
409.60 0.4157
409.70 0.4162
409.80 0.4168
409.90 0.4173
410.00 0.4179
410.10 0.4185
410.20 0.419
410.30 0.4196
410.40 0.4201
410.50 0.4207
410.60 0.4213
410.70 0.4218
410.80 0.4224
410.90 0.423
411.00 0.4235
411.10 0.4241
411.20 0.4247
411.30 0.4252
411.40 0.4258
411.50 0.4263
411.60 0.4269
411.70 0.4275
411.80 0.428
411.90 0.4286
412.00 0.4292
412.10 0.4297
412.20 0.4303
412.30 0.4309
412.40 0.4315
412.50 0.432
412.60 0.4326
412.70 0.4332
412.80 0.4337
412.90 0.4343
413.00 0.4349
413.10 0.4354
413.20 0.436
413.30 0.4366
413.40 0.4372
413.50 0.4377
413.60 0.4383
413.70 0.4389
413.80 0.4394
413.90 0.44
414.00 0.4406
414.10 0.4412
414.20 0.4417
414.30 0.4423
414.40 0.4429
414.50 0.4435
414.60 0.444
414.70 0.4446
414.80 0.4452
414.90 0.4458
415.00 0.4463
415.10 0.4469
415.20 0.4475
415.30 0.4481
415.40 0.4486
415.50 0.4492
415.60 0.4498
415.70 0.4504
415.80 0.451
415.90 0.4515
416.00 0.4521
416.10 0.4527
416.20 0.4533
416.30 0.4539
416.40 0.4544
416.50 0.455
416.60 0.4556
416.70 0.4562
416.80 0.4568
416.90 0.4573
417.00 0.4579
417.10 0.4585
417.20 0.4591
417.30 0.4597
417.40 0.4603
417.50 0.4608
417.60 0.4614
417.70 0.462
417.80 0.4626
417.90 0.4632
418.00 0.4638
418.10 0.4643
418.20 0.4649
418.30 0.4655
418.40 0.4661
418.50 0.4667
418.60 0.4673
418.70 0.4679
418.80 0.4684
418.90 0.469
419.00 0.4696
419.10 0.4702
419.20 0.4708
419.30 0.4714
419.40 0.472
419.50 0.4726
419.60 0.4732
419.70 0.4737
419.80 0.4743
419.90 0.4749
420.00 0.4755
420.10 0.4761
420.20 0.4767
420.30 0.4773
420.40 0.4779
420.50 0.4785
420.60 0.4791
420.70 0.4797
420.80 0.4802
420.90 0.4808
421.00 0.4814
421.10 0.482
421.20 0.4826
421.30 0.4832
421.40 0.4838
421.50 0.4844
421.60 0.485
421.70 0.4856
421.80 0.4862
421.90 0.4868
422.00 0.4874
422.10 0.488
422.20 0.4886
422.30 0.4892
422.40 0.4898
422.50 0.4904
422.60 0.491
422.70 0.4916
422.80 0.4922
422.90 0.4928
423.00 0.4934
423.10 0.4939
423.20 0.4945
423.30 0.4951
423.40 0.4958
423.50 0.4964
423.60 0.4969
423.70 0.4975
423.80 0.4981
423.90 0.4988
424.00 0.4994
424.10 0.5
424.20 0.5006
424.30 0.5012
424.40 0.5018
424.50 0.5024
424.60 0.503
424.70 0.5036
424.80 0.5042
424.90 0.5048
425.00 0.5054
425.10 0.506
425.20 0.5066
425.30 0.5072
425.40 0.5078
425.50 0.5084
425.60 0.509
425.70 0.5096
425.80 0.5102
425.90 0.5108
426.00 0.5114
426.10 0.512
426.20 0.5126
426.30 0.5132
426.40 0.5139
426.50 0.5145
426.60 0.5151
426.70 0.5157
426.80 0.5163
426.90 0.5169
427.00 0.5175
427.10 0.5181
427.20 0.5187
427.30 0.5193
427.40 0.5199
427.50 0.5206
427.60 0.5212
427.70 0.5218
427.80 0.5224
427.90 0.523
428.00 0.5236
428.10 0.5242
428.20 0.5248
428.30 0.5254
428.40 0.5261
428.50 0.5267
428.60 0.5273
428.70 0.5279
428.80 0.5285
428.90 0.5291
429.00 0.5297
429.10 0.5303
429.20 0.531
429.30 0.5316
429.40 0.5322
429.50 0.5328
429.60 0.5334
429.70 0.534
429.80 0.5347
429.90 0.5353
430.00 0.5359
430.10 0.5365
430.20 0.5371
430.30 0.5377
430.40 0.5383
430.50 0.539
430.60 0.5396
430.70 0.5402
430.80 0.5408
430.90 0.5414
431.00 0.5421
431.10 0.5427
431.20 0.5433
431.30 0.5439
431.40 0.5445
431.50 0.5451
431.60 0.5458
431.70 0.5464
431.80 0.547
431.90 0.5476
432.00 0.5483
432.10 0.5489
432.20 0.5495
432.30 0.5501
432.40 0.5507
432.50 0.5514
432.60 0.552
432.70 0.5526
432.80 0.5532
432.90 0.5538
433.00 0.5545
433.10 0.5551
433.20 0.5557
433.30 0.5563
433.40 0.557
433.50 0.5576
433.60 0.5582
433.70 0.5588
433.80 0.5595
433.90 0.5601
434.00 0.5607
434.10 0.5613
434.20 0.562
434.30 0.5626
434.40 0.5632
434.50 0.5638
434.60 0.5645
434.70 0.5651
434.80 0.5657
434.90 0.5663
435.00 0.567
435.10 0.5676
435.20 0.5682
435.30 0.5689
435.40 0.5695
435.50 0.5701
435.60 0.5707
435.70 0.5714
435.80 0.572
435.90 0.5726
436.00 0.5733
436.10 0.5739
436.20 0.5745
436.30 0.5751
436.40 0.5758
436.50 0.5764
436.60 0.577
436.70 0.5777
436.80 0.5783
436.90 0.5789
437.00 0.5796
437.10 0.5802
437.20 0.5808
437.30 0.5815
437.40 0.5821
437.50 0.5827
437.60 0.5834
437.70 0.584
437.80 0.5846
437.90 0.5853
438.00 0.5859
438.10 0.5865
438.20 0.5872
438.30 0.5878
438.40 0.5884
438.50 0.5891
438.60 0.5897
438.70 0.5903
438.80 0.591
438.90 0.5916
439.00 0.5922
439.10 0.5929
439.20 0.5935
439.30 0.5941
439.40 0.5948
439.50 0.5954
439.60 0.596
439.70 0.5967
439.80 0.5973
439.90 0.598
440.00 0.5986
440.10 0.5992
440.20 0.5999
440.30 0.6005
440.40 0.6012
440.50 0.6018
440.60 0.6024
440.70 0.6031
440.80 0.6037
440.90 0.6043
441.00 0.605
441.10 0.6056
441.20 0.6063
441.30 0.6069
441.40 0.6075
441.50 0.6082
441.60 0.6088
441.70 0.6095
441.80 0.6101
441.90 0.6107
442.00 0.6114
442.10 0.612
442.20 0.6127
442.30 0.6133
442.40 0.614
442.50 0.6146
442.60 0.6152
442.70 0.6159
442.80 0.6165
442.90 0.6172
443.00 0.6178
443.10 0.6185
443.20 0.6191
443.30 0.6197
443.40 0.6204
443.50 0.621
443.60 0.6217
443.70 0.6223
443.80 0.623
443.90 0.6236
444.00 0.6242
444.10 0.6249
444.20 0.6255
444.30 0.6262
444.40 0.6268
444.50 0.6275
444.60 0.6281
444.70 0.6288
444.80 0.6294
444.90 0.6301
445.00 0.6307
445.10 0.6314
445.20 0.632
445.30 0.6326
445.40 0.6333
445.50 0.6339
445.60 0.6346
445.70 0.6352
445.80 0.6359
445.90 0.6365
446.00 0.6372
446.10 0.6378
446.20 0.6385
446.30 0.6391
446.40 0.6398
446.50 0.6404
446.60 0.6411
446.70 0.6417
446.80 0.6424
446.90 0.643
447.00 0.6437
447.10 0.6443
447.20 0.645
447.30 0.6456
447.40 0.6463
447.50 0.6469
447.60 0.6476
447.70 0.6482
447.80 0.6489
447.90 0.6495
448.00 0.6502
448.10 0.6508
448.20 0.6515
448.30 0.6521
448.40 0.6528
448.50 0.6534
448.60 0.6541
448.70 0.6547
448.80 0.6554
448.90 0.6561
449.00 0.6567
449.10 0.6574
449.20 0.658
449.30 0.6587
449.40 0.6593
449.50 0.66
449.60 0.6606
449.70 0.6613
449.80 0.6619
449.90 0.6626
450.00 0.6632
450.10 0.6639
450.20 0.6645
450.30 0.6652
450.40 0.6659
450.50 0.6665
450.60 0.6672
450.70 0.6678
450.80 0.6685
450.90 0.6691
451.00 0.6698
451.10 0.6704
451.20 0.6711
451.30 0.6718
451.40 0.6724
451.50 0.6731
451.60 0.6737
451.70 0.6744
451.80 0.6751
451.90 0.6757
452.00 0.6764
452.10 0.677
452.20 0.6777
452.30 0.6783
452.40 0.679
452.50 0.6797
452.60 0.6803
452.70 0.681
452.80 0.6816
452.90 0.6823
453.00 0.683
453.10 0.6836
453.20 0.6843
453.30 0.6849
453.40 0.6856
453.50 0.6862
453.60 0.6869
453.70 0.6876
453.80 0.6882
453.90 0.6889
454.00 0.6896
454.10 0.6902
454.20 0.6909
454.30 0.6915
454.40 0.6922
454.50 0.6929
454.60 0.6935
454.70 0.6942
454.80 0.6948
454.90 0.6955
455.00 0.6962
455.10 0.6968
455.20 0.6975
455.30 0.6981
455.40 0.6988
455.50 0.6995
455.60 0.7001
455.70 0.7008
455.80 0.7015
455.90 0.7021
456.00 0.7028
456.10 0.7034
456.20 0.7041
456.30 0.7048
456.40 0.7054
456.50 0.7061
456.60 0.7068
456.70 0.7074
456.80 0.7081
456.90 0.7088
457.00 0.7094
457.10 0.7101
457.20 0.7107
457.30 0.7114
457.40 0.7121
457.50 0.7127
457.60 0.7134
457.70 0.7141
457.80 0.7147
457.90 0.7154
458.00 0.7161
458.10 0.7167
458.20 0.7174
458.30 0.7181
458.40 0.7187
458.50 0.7194
458.60 0.7201
458.70 0.7207
458.80 0.7214
458.90 0.7221
459.00 0.7227
459.10 0.7234
459.20 0.7241
459.30 0.7247
459.40 0.7254
459.50 0.726
459.60 0.7267
459.70 0.7274
459.80 0.728
459.90 0.7287
460.00 0.7294
460.10 0.7301
460.20 0.7307
460.30 0.7314
460.40 0.7321
460.50 0.7327
460.60 0.7334
460.70 0.7341
460.80 0.7347
460.90 0.7354
461.00 0.7361
461.10 0.7367
461.20 0.7374
461.30 0.7381
461.40 0.7387
461.50 0.7394
461.60 0.7401
461.70 0.7408
461.80 0.7414
461.90 0.7421
462.00 0.7428
462.10 0.7434
462.20 0.7441
462.30 0.7448
462.40 0.7454
462.50 0.7461
462.60 0.7468
462.70 0.7474
462.80 0.7481
462.90 0.7488
463.00 0.7495
463.10 0.7501
463.20 0.7508
463.30 0.7515
463.40 0.7521
463.50 0.7528
463.60 0.7535
463.70 0.7542
463.80 0.7548
463.90 0.7555
464.00 0.7562
464.10 0.7568
464.20 0.7575
464.30 0.7582
464.40 0.7589
464.50 0.7595
464.60 0.7602
464.70 0.7609
464.80 0.7615
464.90 0.7622
465.00 0.7629
465.10 0.7635
465.20 0.7642
465.30 0.7649
465.40 0.7656
465.50 0.7662
465.60 0.7669
465.70 0.7676
465.80 0.7683
465.90 0.7689
466.00 0.7696
466.10 0.7703
466.20 0.7709
466.30 0.7716
466.40 0.7723
466.50 0.773
466.60 0.7736
466.70 0.7743
466.80 0.775
466.90 0.7757
467.00 0.7763
467.10 0.777
467.20 0.7777
467.30 0.7784
467.40 0.779
467.50 0.7797
467.60 0.7804
467.70 0.7811
467.80 0.7817
467.90 0.7824
468.00 0.7831
468.10 0.7837
468.20 0.7844
468.30 0.7851
468.40 0.7858
468.50 0.7865
468.60 0.7871
468.70 0.7878
468.80 0.7885
468.90 0.7892
469.00 0.7898
469.10 0.7905
469.20 0.7912
469.30 0.7919
469.40 0.7925
469.50 0.7932
469.60 0.7939
469.70 0.7946
469.80 0.7952
469.90 0.7959
470.00 0.7966
470.10 0.7973
470.20 0.7979
470.30 0.7986
470.40 0.7993
470.50 0.8
470.60 0.8007
470.70 0.8013
470.80 0.802
470.90 0.8027
471.00 0.8034
471.10 0.8041
471.20 0.8047
471.30 0.8054
471.40 0.8061
471.50 0.8067
471.60 0.8074
471.70 0.8081
471.80 0.8088
471.90 0.8094
472.00 0.8101
472.10 0.8108
472.20 0.8115
472.30 0.8121
472.40 0.8128
472.50 0.8135
472.60 0.8142
472.70 0.8149
472.80 0.8155
472.90 0.8162
473.00 0.8169
473.10 0.8176
473.20 0.8183
473.30 0.8189
473.40 0.8196
473.50 0.8203
473.60 0.821
473.70 0.8216
473.80 0.8223
473.90 0.823
474.00 0.8237
474.10 0.8243
474.20 0.825
474.30 0.8257
474.40 0.8264
474.50 0.827
474.60 0.8277
474.70 0.8284
474.80 0.8291
474.90 0.8297
475.00 0.8304
475.10 0.8311
475.20 0.8318
475.30 0.8324
475.40 0.8331
475.50 0.8338
475.60 0.8345
475.70 0.8352
475.80 0.8358
475.90 0.8365
476.00 0.8372
476.10 0.8379
476.20 0.8385
476.30 0.8392
476.40 0.8399
476.50 0.8406
476.60 0.8413
476.70 0.8419
476.80 0.8426
476.90 0.8433
477.00 0.844
477.10 0.8447
477.20 0.8453
477.30 0.846
477.40 0.8467
477.50 0.8474
477.60 0.8481
477.70 0.8487
477.80 0.8494
477.90 0.8501
478.00 0.8508
478.10 0.8515
478.20 0.8521
478.30 0.8528
478.40 0.8535
478.50 0.8542
478.60 0.8549
478.70 0.8556
478.80 0.8562
478.90 0.8569
479.00 0.8576
479.10 0.8583
479.20 0.859
479.30 0.8596
479.40 0.8603
479.50 0.861
479.60 0.8617
479.70 0.8623
479.80 0.863
479.90 0.8637
480.00 0.8644
480.10 0.8651
480.20 0.8657
480.30 0.8664
480.40 0.8671
480.50 0.8678
480.60 0.8685
480.70 0.8692
480.80 0.8698
480.90 0.8705
481.00 0.8712
481.10 0.8719
481.20 0.8726
481.30 0.8732
481.40 0.8739
481.50 0.8746
481.60 0.8753
481.70 0.8759
481.80 0.8766
481.90 0.8773
482.00 0.878
482.10 0.8787
482.20 0.8793
482.30 0.88
482.40 0.8807
482.50 0.8814
482.60 0.8821
482.70 0.8827
482.80 0.8834
482.90 0.8841
483.00 0.8848
483.10 0.8854
483.20 0.8861
483.30 0.8868
483.40 0.8875
483.50 0.8882
483.60 0.8889
483.70 0.8895
483.80 0.8902
483.90 0.8909
484.00 0.8916
484.10 0.8922
484.20 0.8929
484.30 0.8936
484.40 0.8943
484.50 0.895
484.60 0.8956
484.70 0.8963
484.80 0.897
484.90 0.8977
485.00 0.8984
485.10 0.8991
485.20 0.8997
485.30 0.9004
485.40 0.9011
485.50 0.9018
485.60 0.9025
485.70 0.9031
485.80 0.9038
485.90 0.9045
486.00 0.9052
486.10 0.9058
486.20 0.9065
486.30 0.9072
486.40 0.9079
486.50 0.9086
486.60 0.9093
486.70 0.91
486.80 0.9106
486.90 0.9113
487.00 0.912
487.10 0.9127
487.20 0.9133
487.30 0.914
487.40 0.9147
487.50 0.9153
487.60 0.916
487.70 0.9167
487.80 0.9174
487.90 0.9181
488.00 0.9187
488.10 0.9194
488.20 0.9201
488.30 0.9208
488.40 0.9215
488.50 0.9221
488.60 0.9228
488.70 0.9235
488.80 0.9242
488.90 0.9249
489.00 0.9255
489.10 0.9262
489.20 0.9269
489.30 0.9276
489.40 0.9283
489.50 0.9289
489.60 0.9296
489.70 0.9303
489.80 0.931
489.90 0.9317
490.00 0.9323
490.10 0.933
490.20 0.9337
490.30 0.9344
490.40 0.9351
490.50 0.9357
490.60 0.9364
490.70 0.9371
490.80 0.9378
490.90 0.9385
491.00 0.9391
491.10 0.9398
491.20 0.9405
491.30 0.9412
491.40 0.9419
491.50 0.9425
491.60 0.9432
491.70 0.9439
491.80 0.9446
491.90 0.9452
492.00 0.9459
492.10 0.9466
492.20 0.9473
492.30 0.948
492.40 0.9486
492.50 0.9493
492.60 0.95
492.70 0.9507
492.80 0.9514
492.90 0.952
493.00 0.9527
493.10 0.9534
493.20 0.9541
493.30 0.9548
493.40 0.9554
493.50 0.9561
493.60 0.9568
493.70 0.9575
493.80 0.9581
493.90 0.9588
494.00 0.9595
494.10 0.9602
494.20 0.9608
494.30 0.9615
494.40 0.9622
494.50 0.9629
494.60 0.9636
494.70 0.9642
494.80 0.9649
494.90 0.9656
495.00 0.9663
495.10 0.9669
495.20 0.9676
495.30 0.9683
495.40 0.969
495.50 0.9696
495.60 0.9703
495.70 0.971
495.80 0.9716
495.90 0.9723
496.00 0.973
496.10 0.9737
496.20 0.9743
496.30 0.975
496.40 0.9757
496.50 0.9764
496.60 0.9771
496.70 0.9777
496.80 0.9784
496.90 0.9791
497.00 0.9798
497.10 0.9804
497.20 0.9811
497.30 0.9818
497.40 0.9825
497.50 0.9831
497.60 0.9838
497.70 0.9845
497.80 0.9852
497.90 0.9858
498.00 0.9865
498.10 0.9872
498.20 0.9879
498.30 0.9885
498.40 0.9892
498.50 0.9899
498.60 0.9906
498.70 0.9912
498.80 0.9919
498.90 0.9926
499.00 0.9932
499.10 0.9939
499.20 0.9946
499.30 0.9953
499.40 0.996
499.50 0.9966
499.60 0.9973
499.70 0.998
499.80 0.9987
499.90 0.9993
500.00 1
500.10 1.001
500.20 1.001
500.30 1.002
500.40 1.003
500.50 1.003
500.60 1.004
500.70 1.005
500.80 1.005
500.90 1.006
501.00 1.007
501.10 1.007
501.20 1.008
501.30 1.009
501.40 1.009
501.50 1.01
501.60 1.011
501.70 1.011
501.80 1.012
501.90 1.013
502.00 1.013
502.10 1.014
502.20 1.015
502.30 1.015
502.40 1.016
502.50 1.017
502.60 1.017
502.70 1.018
502.80 1.019
502.90 1.019
503.00 1.02
503.10 1.021
503.20 1.021
503.30 1.022
503.40 1.023
503.50 1.023
503.60 1.024
503.70 1.025
503.80 1.025
503.90 1.026
504.00 1.027
504.10 1.027
504.20 1.028
504.30 1.029
504.40 1.029
504.50 1.03
504.60 1.031
504.70 1.031
504.80 1.032
504.90 1.033
505.00 1.033
505.10 1.034
505.20 1.035
505.30 1.035
505.40 1.036
505.50 1.037
505.60 1.037
505.70 1.038
505.80 1.039
505.90 1.039
506.00 1.04
506.10 1.041
506.20 1.041
506.30 1.042
506.40 1.043
506.50 1.043
506.60 1.044
506.70 1.045
506.80 1.045
506.90 1.046
507.00 1.047
507.10 1.047
507.20 1.048
507.30 1.049
507.40 1.049
507.50 1.05
507.60 1.051
507.70 1.051
507.80 1.052
507.90 1.053
508.00 1.053
508.10 1.054
508.20 1.055
508.30 1.055
508.40 1.056
508.50 1.057
508.60 1.057
508.70 1.058
508.80 1.059
508.90 1.059
509.00 1.06
509.10 1.061
509.20 1.061
509.30 1.062
509.40 1.063
509.50 1.063
509.60 1.064
509.70 1.065
509.80 1.065
509.90 1.066
510.00 1.067
510.10 1.067
510.20 1.068
510.30 1.069
510.40 1.069
510.50 1.07
510.60 1.071
510.70 1.071
510.80 1.072
510.90 1.073
511.00 1.073
511.10 1.074
511.20 1.075
511.30 1.075
511.40 1.076
511.50 1.077
511.60 1.077
511.70 1.078
511.80 1.079
511.90 1.079
512.00 1.08
512.10 1.081
512.20 1.081
512.30 1.082
512.40 1.083
512.50 1.083
512.60 1.084
512.70 1.085
512.80 1.085
512.90 1.086
513.00 1.086
513.10 1.087
513.20 1.088
513.30 1.088
513.40 1.089
513.50 1.09
513.60 1.09
513.70 1.091
513.80 1.092
513.90 1.092
514.00 1.093
514.10 1.094
514.20 1.094
514.30 1.095
514.40 1.096
514.50 1.096
514.60 1.097
514.70 1.098
514.80 1.098
514.90 1.099
515.00 1.1
515.10 1.1
515.20 1.101
515.30 1.102
515.40 1.102
515.50 1.103
515.60 1.104
515.70 1.104
515.80 1.105
515.90 1.106
516.00 1.106
516.10 1.107
516.20 1.107
516.30 1.108
516.40 1.109
516.50 1.109
516.60 1.11
516.70 1.111
516.80 1.111
516.90 1.112
517.00 1.113
517.10 1.113
517.20 1.114
517.30 1.115
517.40 1.115
517.50 1.116
517.60 1.117
517.70 1.117
517.80 1.118
517.90 1.119
518.00 1.119
518.10 1.12
518.20 1.12
518.30 1.121
518.40 1.122
518.50 1.122
518.60 1.123
518.70 1.124
518.80 1.124
518.90 1.125
519.00 1.126
519.10 1.126
519.20 1.127
519.30 1.128
519.40 1.128
519.50 1.129
519.60 1.13
519.70 1.13
519.80 1.131
519.90 1.131
520.00 1.132
520.10 1.133
520.20 1.133
520.30 1.134
520.40 1.135
520.50 1.135
520.60 1.136
520.70 1.137
520.80 1.137
520.90 1.138
521.00 1.139
521.10 1.139
521.20 1.14
521.30 1.14
521.40 1.141
521.50 1.142
521.60 1.142
521.70 1.143
521.80 1.144
521.90 1.144
522.00 1.145
522.10 1.146
522.20 1.146
522.30 1.147
522.40 1.148
522.50 1.148
522.60 1.149
522.70 1.149
522.80 1.15
522.90 1.151
523.00 1.151
523.10 1.152
523.20 1.153
523.30 1.153
523.40 1.154
523.50 1.155
523.60 1.155
523.70 1.156
523.80 1.156
523.90 1.157
524.00 1.158
524.10 1.158
524.20 1.159
524.30 1.16
524.40 1.16
524.50 1.161
524.60 1.162
524.70 1.162
524.80 1.163
524.90 1.163
525.00 1.164
525.10 1.165
525.20 1.165
525.30 1.166
525.40 1.167
525.50 1.167
525.60 1.168
525.70 1.168
525.80 1.169
525.90 1.17
526.00 1.17
526.10 1.171
526.20 1.172
526.30 1.172
526.40 1.173
526.50 1.174
526.60 1.174
526.70 1.175
526.80 1.175
526.90 1.176
527.00 1.177
527.10 1.177
527.20 1.178
527.30 1.179
527.40 1.179
527.50 1.18
527.60 1.18
527.70 1.181
527.80 1.182
527.90 1.182
528.00 1.183
528.10 1.184
528.20 1.184
528.30 1.185
528.40 1.185
528.50 1.186
528.60 1.187
528.70 1.187
528.80 1.188
528.90 1.189
529.00 1.189
529.10 1.19
529.20 1.19
529.30 1.191
529.40 1.192
529.50 1.192
529.60 1.193
529.70 1.194
529.80 1.194
529.90 1.195
530.00 1.195
530.10 1.196
530.20 1.197
530.30 1.197
530.40 1.198
530.50 1.199
530.60 1.199
530.70 1.2
530.80 1.2
530.90 1.201
531.00 1.202
531.10 1.202
531.20 1.203
531.30 1.203
531.40 1.204
531.50 1.205
531.60 1.205
531.70 1.206
531.80 1.207
531.90 1.207
532.00 1.208
532.10 1.208
532.20 1.209
532.30 1.21
532.40 1.21
532.50 1.211
532.60 1.211
532.70 1.212
532.80 1.213
532.90 1.213
533.00 1.214
533.10 1.215
533.20 1.215
533.30 1.216
533.40 1.216
533.50 1.217
533.60 1.218
533.70 1.218
533.80 1.219
533.90 1.219
534.00 1.22
534.10 1.221
534.20 1.221
534.30 1.222
534.40 1.222
534.50 1.223
534.60 1.224
534.70 1.224
534.80 1.225
534.90 1.225
535.00 1.226
535.10 1.227
535.20 1.227
535.30 1.228
535.40 1.228
535.50 1.229
535.60 1.23
535.70 1.23
535.80 1.231
535.90 1.231
536.00 1.232
536.10 1.233
536.20 1.233
536.30 1.234
536.40 1.234
536.50 1.235
536.60 1.236
536.70 1.236
536.80 1.237
536.90 1.237
537.00 1.238
537.10 1.239
537.20 1.239
537.30 1.24
537.40 1.24
537.50 1.241
537.60 1.242
537.70 1.242
537.80 1.243
537.90 1.243
538.00 1.244
538.10 1.245
538.20 1.245
538.30 1.246
538.40 1.246
538.50 1.247
538.60 1.248
538.70 1.248
538.80 1.249
538.90 1.249
539.00 1.25
539.10 1.251
539.20 1.251
539.30 1.252
539.40 1.252
539.50 1.253
539.60 1.254
539.70 1.254
539.80 1.255
539.90 1.255
540.00 1.256
540.10 1.256
540.20 1.257
540.30 1.258
540.40 1.258
540.50 1.259
540.60 1.259
540.70 1.26
540.80 1.261
540.90 1.261
541.00 1.262
541.10 1.262
541.20 1.263
541.30 1.263
541.40 1.264
541.50 1.265
541.60 1.265
541.70 1.266
541.80 1.266
541.90 1.267
542.00 1.267
542.10 1.268
542.20 1.269
542.30 1.269
542.40 1.27
542.50 1.27
542.60 1.271
542.70 1.272
542.80 1.272
542.90 1.273
543.00 1.273
543.10 1.274
543.20 1.274
543.30 1.275
543.40 1.276
543.50 1.276
543.60 1.277
543.70 1.277
543.80 1.278
543.90 1.278
544.00 1.279
544.10 1.28
544.20 1.28
544.30 1.281
544.40 1.281
544.50 1.282
544.60 1.282
544.70 1.283
544.80 1.283
544.90 1.284
545.00 1.285
545.10 1.285
545.20 1.286
545.30 1.286
545.40 1.287
545.50 1.287
545.60 1.288
545.70 1.289
545.80 1.289
545.90 1.29
546.00 1.29
546.10 1.291
546.20 1.291
546.30 1.292
546.40 1.292
546.50 1.293
546.60 1.294
546.70 1.294
546.80 1.295
546.90 1.295
547.00 1.296
547.10 1.296
547.20 1.297
547.30 1.297
547.40 1.298
547.50 1.299
547.60 1.299
547.70 1.3
547.80 1.3
547.90 1.301
548.00 1.301
548.10 1.302
548.20 1.302
548.30 1.303
548.40 1.304
548.50 1.304
548.60 1.305
548.70 1.305
548.80 1.306
548.90 1.306
549.00 1.307
549.10 1.307
549.20 1.308
549.30 1.308
549.40 1.309
549.50 1.309
549.60 1.31
549.70 1.311
549.80 1.311
549.90 1.312
550.00 1.312
550.10 1.313
550.20 1.313
550.30 1.314
550.40 1.314
550.50 1.315
550.60 1.315
550.70 1.316
550.80 1.317
550.90 1.317
551.00 1.318
551.10 1.318
551.20 1.319
551.30 1.319
551.40 1.32
551.50 1.32
551.60 1.321
551.70 1.321
551.80 1.322
551.90 1.322
552.00 1.323
552.10 1.323
552.20 1.324
552.30 1.324
552.40 1.325
552.50 1.326
552.60 1.326
552.70 1.327
552.80 1.327
552.90 1.328
553.00 1.328
553.10 1.329
553.20 1.329
553.30 1.33
553.40 1.33
553.50 1.331
553.60 1.331
553.70 1.332
553.80 1.332
553.90 1.333
554.00 1.333
554.10 1.334
554.20 1.334
554.30 1.335
554.40 1.335
554.50 1.336
554.60 1.336
554.70 1.337
554.80 1.337
554.90 1.338
555.00 1.338
555.10 1.339
555.20 1.339
555.30 1.34
555.40 1.34
555.50 1.341
555.60 1.341
555.70 1.342
555.80 1.342
555.90 1.343
556.00 1.343
556.10 1.344
556.20 1.344
556.30 1.345
556.40 1.345
556.50 1.346
556.60 1.346
556.70 1.347
556.80 1.347
556.90 1.348
557.00 1.348
557.10 1.349
557.20 1.349
557.30 1.35
557.40 1.35
557.50 1.351
557.60 1.351
557.70 1.352
557.80 1.352
557.90 1.353
558.00 1.353
558.10 1.354
558.20 1.354
558.30 1.355
558.40 1.355
558.50 1.356
558.60 1.356
558.70 1.357
558.80 1.357
558.90 1.358
559.00 1.358
559.10 1.359
559.20 1.359
559.30 1.36
559.40 1.36
559.50 1.361
559.60 1.361
559.70 1.361
559.80 1.362
559.90 1.362
560.00 1.363
560.10 1.363
560.20 1.364
560.30 1.364
560.40 1.365
560.50 1.365
560.60 1.366
560.70 1.366
560.80 1.367
560.90 1.367
561.00 1.368
561.10 1.368
561.20 1.369
561.30 1.369
561.40 1.37
561.50 1.37
561.60 1.37
561.70 1.371
561.80 1.371
561.90 1.372
562.00 1.372
562.10 1.373
562.20 1.373
562.30 1.374
562.40 1.374
562.50 1.375
562.60 1.375
562.70 1.376
562.80 1.376
562.90 1.376
563.00 1.377
563.10 1.377
563.20 1.378
563.30 1.378
563.40 1.379
563.50 1.379
563.60 1.38
563.70 1.38
563.80 1.381
563.90 1.381
564.00 1.381
564.10 1.382
564.20 1.382
564.30 1.383
564.40 1.383
564.50 1.384
564.60 1.384
564.70 1.385
564.80 1.385
564.90 1.385
565.00 1.386
565.10 1.386
565.20 1.387
565.30 1.387
565.40 1.388
565.50 1.388
565.60 1.388
565.70 1.389
565.80 1.389
565.90 1.39
566.00 1.39
566.10 1.391
566.20 1.391
566.30 1.391
566.40 1.392
566.50 1.392
566.60 1.393
566.70 1.393
566.80 1.394
566.90 1.394
567.00 1.394
567.10 1.395
567.20 1.395
567.30 1.396
567.40 1.396
567.50 1.396
567.60 1.397
567.70 1.397
567.80 1.398
567.90 1.398
568.00 1.399
568.10 1.399
568.20 1.399
568.30 1.4
568.40 1.4
568.50 1.401
568.60 1.401
568.70 1.401
568.80 1.402
568.90 1.402
569.00 1.403
569.10 1.403
569.20 1.403
569.30 1.404
569.40 1.404
569.50 1.405
569.60 1.405
569.70 1.405
569.80 1.406
569.90 1.406
570.00 1.406
570.10 1.407
570.20 1.407
570.30 1.408
570.40 1.408
570.50 1.408
570.60 1.409
570.70 1.409
570.80 1.41
570.90 1.41
571.00 1.41
571.10 1.411
571.20 1.411
571.30 1.411
571.40 1.412
571.50 1.412
571.60 1.413
571.70 1.413
571.80 1.413
571.90 1.414
572.00 1.414
572.10 1.414
572.20 1.415
572.30 1.415
572.40 1.415
572.50 1.416
572.60 1.416
572.70 1.417
572.80 1.417
572.90 1.417
573.00 1.418
573.10 1.418
573.20 1.418
573.30 1.419
573.40 1.419
573.50 1.419
573.60 1.42
573.70 1.42
573.80 1.421
573.90 1.421
574.00 1.421
574.10 1.422
574.20 1.422
574.30 1.422
574.40 1.423
574.50 1.423
574.60 1.423
574.70 1.424
574.80 1.424
574.90 1.424
575.00 1.425
575.10 1.425
575.20 1.425
575.30 1.426
575.40 1.426
575.50 1.426
575.60 1.427
575.70 1.427
575.80 1.427
575.90 1.428
576.00 1.428
576.10 1.428
576.20 1.429
576.30 1.429
576.40 1.429
576.50 1.43
576.60 1.43
576.70 1.43
576.80 1.431
576.90 1.431
577.00 1.431
577.10 1.432
577.20 1.432
577.30 1.432
577.40 1.433
577.50 1.433
577.60 1.433
577.70 1.434
577.80 1.434
577.90 1.434
578.00 1.435
578.10 1.435
578.20 1.435
578.30 1.435
578.40 1.436
578.50 1.436
578.60 1.436
578.70 1.437
578.80 1.437
578.90 1.437
579.00 1.438
579.10 1.438
579.20 1.438
579.30 1.439
579.40 1.439
579.50 1.439
579.60 1.439
579.70 1.44
579.80 1.44
579.90 1.44
580.00 1.441
580.10 1.441
580.20 1.441
580.30 1.441
580.40 1.442
580.50 1.442
580.60 1.442
580.70 1.443
580.80 1.443
580.90 1.443
581.00 1.443
581.10 1.444
581.20 1.444
581.30 1.444
581.40 1.445
581.50 1.445
581.60 1.445
581.70 1.445
581.80 1.446
581.90 1.446
582.00 1.446
582.10 1.446
582.20 1.447
582.30 1.447
582.40 1.447
582.50 1.448
582.60 1.448
582.70 1.448
582.80 1.448
582.90 1.449
583.00 1.449
583.10 1.449
583.20 1.449
583.30 1.45
583.40 1.45
583.50 1.45
583.60 1.45
583.70 1.451
583.80 1.451
583.90 1.451
584.00 1.451
584.10 1.452
584.20 1.452
584.30 1.452
584.40 1.452
584.50 1.453
584.60 1.453
584.70 1.453
584.80 1.453
584.90 1.453
585.00 1.454
585.10 1.454
585.20 1.454
585.30 1.454
585.40 1.455
585.50 1.455
585.60 1.455
585.70 1.455
585.80 1.455
585.90 1.456
586.00 1.456
586.10 1.456
586.20 1.456
586.30 1.456
586.40 1.457
586.50 1.457
586.60 1.457
586.70 1.457
586.80 1.457
586.90 1.458
587.00 1.458
587.10 1.458
587.20 1.458
587.30 1.458
587.40 1.459
587.50 1.459
587.60 1.459
587.70 1.459
587.80 1.459
587.90 1.46
588.00 1.46
588.10 1.46
588.20 1.46
588.30 1.46
588.40 1.46
588.50 1.461
588.60 1.461
588.70 1.461
588.80 1.461
588.90 1.461
589.00 1.462
589.10 1.462
589.20 1.462
589.30 1.462
589.40 1.462
589.50 1.462
589.60 1.462
589.70 1.463
589.80 1.463
589.90 1.463
590.00 1.463
590.10 1.463
590.20 1.463
590.30 1.464
590.40 1.464
590.50 1.464
590.60 1.464
590.70 1.464
590.80 1.464
590.90 1.464
591.00 1.464
591.10 1.465
591.20 1.465
591.30 1.465
591.40 1.465
591.50 1.465
591.60 1.465
591.70 1.465
591.80 1.466
591.90 1.466
592.00 1.466
592.10 1.466
592.20 1.466
592.30 1.466
592.40 1.466
592.50 1.466
592.60 1.467
592.70 1.467
592.80 1.467
592.90 1.467
593.00 1.467
593.10 1.467
593.20 1.467
593.30 1.467
593.40 1.467
593.50 1.468
593.60 1.468
593.70 1.468
593.80 1.468
593.90 1.468
594.00 1.468
594.10 1.468
594.20 1.468
594.30 1.468
594.40 1.468
594.50 1.469
594.60 1.469
594.70 1.469
594.80 1.469
594.90 1.469
595.00 1.469
595.10 1.469
595.20 1.469
595.30 1.469
595.40 1.469
595.50 1.469
595.60 1.469
595.70 1.469
595.80 1.47
595.90 1.47
596.00 1.47
596.10 1.47
596.20 1.47
596.30 1.47
596.40 1.47
596.50 1.47
596.60 1.47
596.70 1.47
596.80 1.47
596.90 1.47
597.00 1.47
597.10 1.47
597.20 1.47
597.30 1.471
597.40 1.471
597.50 1.471
597.60 1.471
597.70 1.471
597.80 1.471
597.90 1.471
598.00 1.471
598.10 1.471
598.20 1.471
598.30 1.471
598.40 1.471
598.50 1.471
598.60 1.471
598.70 1.471
598.80 1.471
598.90 1.471
599.00 1.471
599.10 1.471
599.20 1.471
599.30 1.471
599.40 1.471
599.50 1.471
599.60 1.471
599.70 1.471
599.80 1.471
599.90 1.471
600.00 1.471
600.10 1.471
600.20 1.471
600.30 1.471
600.40 1.471
600.50 1.471
600.60 1.471
600.70 1.471
600.80 1.471
600.90 1.471
601.00 1.471
601.10 1.471
601.20 1.471
601.30 1.471
601.40 1.471
601.50 1.471
601.60 1.471
601.70 1.471
601.80 1.471
601.90 1.471
602.00 1.471
602.10 1.471
602.20 1.471
602.30 1.471
602.40 1.471
602.50 1.471
602.60 1.471
602.70 1.471
602.80 1.471
602.90 1.471
603.00 1.471
603.10 1.471
603.20 1.471
603.30 1.471
603.40 1.47
603.50 1.47
603.60 1.47
603.70 1.47
603.80 1.47
603.90 1.47
604.00 1.47
604.10 1.47
604.20 1.47
604.30 1.47
604.40 1.47
604.50 1.47
604.60 1.47
604.70 1.47
604.80 1.47
604.90 1.469
605.00 1.469
605.10 1.469
605.20 1.469
605.30 1.469
605.40 1.469
605.50 1.469
605.60 1.469
605.70 1.469
605.80 1.469
605.90 1.469
606.00 1.468
606.10 1.468
606.20 1.468
606.30 1.468
606.40 1.468
606.50 1.468
606.60 1.468
606.70 1.468
606.80 1.468
606.90 1.467
607.00 1.467
607.10 1.467
607.20 1.467
607.30 1.467
607.40 1.467
607.50 1.467
607.60 1.467
607.70 1.467
607.80 1.466
607.90 1.466
608.00 1.466
608.10 1.466
608.20 1.466
608.30 1.466
608.40 1.466
608.50 1.465
608.60 1.465
608.70 1.465
608.80 1.465
608.90 1.465
609.00 1.465
609.10 1.465
609.20 1.464
609.30 1.464
609.40 1.464
609.50 1.464
609.60 1.464
609.70 1.464
609.80 1.463
609.90 1.463
610.00 1.463
610.10 1.463
610.20 1.463
610.30 1.462
610.40 1.462
610.50 1.462
610.60 1.462
610.70 1.462
610.80 1.462
610.90 1.461
611.00 1.461
611.10 1.461
611.20 1.461
611.30 1.461
611.40 1.46
611.50 1.46
611.60 1.46
611.70 1.46
611.80 1.46
611.90 1.459
612.00 1.459
612.10 1.459
612.20 1.459
612.30 1.458
612.40 1.458
612.50 1.458
612.60 1.458
612.70 1.458
612.80 1.457
612.90 1.457
613.00 1.457
613.10 1.457
613.20 1.456
613.30 1.456
613.40 1.456
613.50 1.456
613.60 1.455
613.70 1.455
613.80 1.455
613.90 1.455
614.00 1.454
614.10 1.454
614.20 1.454
614.30 1.454
614.40 1.453
614.50 1.453
614.60 1.453
614.70 1.452
614.80 1.452
614.90 1.452
615.00 1.452
615.10 1.451
615.20 1.451
615.30 1.451
615.40 1.45
615.50 1.45
615.60 1.45
615.70 1.45
615.80 1.449
615.90 1.449
616.00 1.449
616.10 1.448
616.20 1.448
616.30 1.448
616.40 1.447
616.50 1.447
616.60 1.447
616.70 1.446
616.80 1.446
616.90 1.446
617.00 1.445
617.10 1.445
617.20 1.445
617.30 1.444
617.40 1.444
617.50 1.444
617.60 1.443
617.70 1.443
617.80 1.443
617.90 1.442
618.00 1.442
618.10 1.442
618.20 1.441
618.30 1.441
618.40 1.441
618.50 1.44
618.60 1.44
618.70 1.44
618.80 1.439
618.90 1.439
619.00 1.439
619.10 1.438
619.20 1.438
619.30 1.437
619.40 1.437
619.50 1.437
619.60 1.436
619.70 1.436
619.80 1.435
619.90 1.435
620.00 1.435
620.10 1.434
620.20 1.434
620.30 1.433
620.40 1.433
620.50 1.433
620.60 1.432
620.70 1.432
620.80 1.431
620.90 1.431
621.00 1.431
621.10 1.43
621.20 1.43
621.30 1.429
621.40 1.429
621.50 1.429
621.60 1.428
621.70 1.428
621.80 1.427
621.90 1.427
622.00 1.426
622.10 1.426
622.20 1.426
622.30 1.425
622.40 1.425
622.50 1.424
622.60 1.424
622.70 1.423
622.80 1.423
622.90 1.423
623.00 1.422
623.10 1.422
623.20 1.421
623.30 1.421
623.40 1.42
623.50 1.42
623.60 1.419
623.70 1.419
623.80 1.418
623.90 1.418
624.00 1.418
624.10 1.417
624.20 1.417
624.30 1.416
624.40 1.416
624.50 1.415
624.60 1.415
624.70 1.414
624.80 1.414
624.90 1.413
625.00 1.413
625.10 1.412
625.20 1.412
625.30 1.411
625.40 1.411
625.50 1.41
625.60 1.41
625.70 1.409
625.80 1.409
625.90 1.408
626.00 1.408
626.10 1.407
626.20 1.407
626.30 1.406
626.40 1.406
626.50 1.405
626.60 1.404
626.70 1.404
626.80 1.403
626.90 1.403
627.00 1.402
627.10 1.402
627.20 1.401
627.30 1.401
627.40 1.4
627.50 1.4
627.60 1.399
627.70 1.398
627.80 1.398
627.90 1.397
628.00 1.397
628.10 1.396
628.20 1.396
628.30 1.395
628.40 1.394
628.50 1.394
628.60 1.393
628.70 1.393
628.80 1.392
628.90 1.392
629.00 1.391
629.10 1.39
629.20 1.39
629.30 1.389
629.40 1.389
629.50 1.388
629.60 1.387
629.70 1.387
629.80 1.386
629.90 1.386
630.00 1.385
630.10 1.384
630.20 1.384
630.30 1.383
630.40 1.383
630.50 1.382
630.60 1.381
630.70 1.381
630.80 1.38
630.90 1.379
631.00 1.379
631.10 1.378
631.20 1.378
631.30 1.377
631.40 1.376
631.50 1.376
631.60 1.375
631.70 1.374
631.80 1.374
631.90 1.373
632.00 1.372
632.10 1.372
632.20 1.371
632.30 1.37
632.40 1.37
632.50 1.369
632.60 1.368
632.70 1.368
632.80 1.367
632.90 1.366
633.00 1.366
633.10 1.365
633.20 1.364
633.30 1.364
633.40 1.363
633.50 1.362
633.60 1.362
633.70 1.361
633.80 1.36
633.90 1.36
634.00 1.359
634.10 1.358
634.20 1.357
634.30 1.357
634.40 1.356
634.50 1.355
634.60 1.355
634.70 1.354
634.80 1.353
634.90 1.352
635.00 1.352
635.10 1.351
635.20 1.35
635.30 1.349
635.40 1.349
635.50 1.348
635.60 1.347
635.70 1.346
635.80 1.346
635.90 1.345
636.00 1.344
636.10 1.343
636.20 1.343
636.30 1.342
636.40 1.341
636.50 1.34
636.60 1.34
636.70 1.339
636.80 1.338
636.90 1.337
637.00 1.337
637.10 1.336
637.20 1.335
637.30 1.334
637.40 1.334
637.50 1.333
637.60 1.332
637.70 1.331
637.80 1.33
637.90 1.33
638.00 1.329
638.10 1.328
638.20 1.327
638.30 1.326
638.40 1.326
638.50 1.325
638.60 1.324
638.70 1.323
638.80 1.322
638.90 1.322
639.00 1.321
639.10 1.32
639.20 1.319
639.30 1.318
639.40 1.318
639.50 1.317
639.60 1.316
639.70 1.315
639.80 1.314
639.90 1.313
640.00 1.312
640.10 1.312
640.20 1.311
640.30 1.31
640.40 1.309
640.50 1.308
640.60 1.307
640.70 1.306
640.80 1.306
640.90 1.305
641.00 1.304
641.10 1.303
641.20 1.302
641.30 1.301
641.40 1.3
641.50 1.299
641.60 1.299
641.70 1.298
641.80 1.297
641.90 1.296
642.00 1.295
642.10 1.294
642.20 1.293
642.30 1.292
642.40 1.291
642.50 1.29
642.60 1.289
642.70 1.288
642.80 1.288
642.90 1.287
643.00 1.286
643.10 1.285
643.20 1.284
643.30 1.283
643.40 1.282
643.50 1.281
643.60 1.28
643.70 1.279
643.80 1.278
643.90 1.277
644.00 1.276
644.10 1.275
644.20 1.274
644.30 1.273
644.40 1.272
644.50 1.271
644.60 1.27
644.70 1.269
644.80 1.268
644.90 1.267
645.00 1.267
645.10 1.266
645.20 1.265
645.30 1.264
645.40 1.263
645.50 1.262
645.60 1.261
645.70 1.26
645.80 1.259
645.90 1.258
646.00 1.257
646.10 1.256
646.20 1.255
646.30 1.254
646.40 1.253
646.50 1.252
646.60 1.251
646.70 1.25
646.80 1.249
646.90 1.248
647.00 1.247
647.10 1.246
647.20 1.245
647.30 1.244
647.40 1.243
647.50 1.242
647.60 1.241
647.70 1.24
647.80 1.239
647.90 1.238
648.00 1.237
648.10 1.236
648.20 1.234
648.30 1.233
648.40 1.232
648.50 1.231
648.60 1.23
648.70 1.229
648.80 1.228
648.90 1.227
649.00 1.226
649.10 1.225
649.20 1.224
649.30 1.223
649.40 1.222
649.50 1.221
649.60 1.22
649.70 1.219
649.80 1.218
649.90 1.216
650.00 1.215
650.10 1.214
650.20 1.213
650.30 1.212
650.40 1.211
650.50 1.21
650.60 1.209
650.70 1.208
650.80 1.207
650.90 1.206
651.00 1.204
651.10 1.203
651.20 1.202
651.30 1.201
651.40 1.2
651.50 1.199
651.60 1.198
651.70 1.197
651.80 1.196
651.90 1.194
652.00 1.193
652.10 1.192
652.20 1.191
652.30 1.19
652.40 1.189
652.50 1.188
652.60 1.187
652.70 1.185
652.80 1.184
652.90 1.183
653.00 1.182
653.10 1.181
653.20 1.18
653.30 1.179
653.40 1.177
653.50 1.176
653.60 1.175
653.70 1.174
653.80 1.173
653.90 1.172
654.00 1.171
654.10 1.169
654.20 1.168
654.30 1.167
654.40 1.166
654.50 1.165
654.60 1.164
654.70 1.162
654.80 1.161
654.90 1.16
655.00 1.159
655.10 1.158
655.20 1.156
655.30 1.155
655.40 1.154
655.50 1.153
655.60 1.152
655.70 1.151
655.80 1.149
655.90 1.148
656.00 1.147
656.10 1.146
656.20 1.145
656.30 1.143
656.40 1.142
656.50 1.141
656.60 1.14
656.70 1.139
656.80 1.137
656.90 1.136
657.00 1.135
657.10 1.134
657.20 1.132
657.30 1.131
657.40 1.13
657.50 1.129
657.60 1.128
657.70 1.126
657.80 1.125
657.90 1.124
658.00 1.123
658.10 1.121
658.20 1.12
658.30 1.119
658.40 1.118
658.50 1.116
658.60 1.115
658.70 1.114
658.80 1.113
658.90 1.111
659.00 1.11
659.10 1.109
659.20 1.108
659.30 1.107
659.40 1.105
659.50 1.104
659.60 1.103
659.70 1.101
659.80 1.1
659.90 1.099
660.00 1.098
660.10 1.096
660.20 1.095
660.30 1.094
660.40 1.093
660.50 1.091
660.60 1.09
660.70 1.089
660.80 1.088
660.90 1.086
661.00 1.085
661.10 1.084
661.20 1.083
661.30 1.081
661.40 1.08
661.50 1.079
661.60 1.077
661.70 1.076
661.80 1.075
661.90 1.074
662.00 1.072
662.10 1.071
662.20 1.07
662.30 1.068
662.40 1.067
662.50 1.066
662.60 1.064
662.70 1.063
662.80 1.062
662.90 1.061
663.00 1.059
663.10 1.058
663.20 1.057
663.30 1.055
663.40 1.054
663.50 1.053
663.60 1.051
663.70 1.05
663.80 1.049
663.90 1.047
664.00 1.046
664.10 1.045
664.20 1.043
664.30 1.042
664.40 1.041
664.50 1.039
664.60 1.038
664.70 1.037
664.80 1.036
664.90 1.034
665.00 1.033
665.10 1.032
665.20 1.03
665.30 1.029
665.40 1.028
665.50 1.026
665.60 1.025
665.70 1.024
665.80 1.022
665.90 1.021
666.00 1.019
666.10 1.018
666.20 1.017
666.30 1.015
666.40 1.014
666.50 1.013
666.60 1.011
666.70 1.01
666.80 1.009
666.90 1.007
667.00 1.006
667.10 1.005
667.20 1.003
667.30 1.002
667.40 1.001
667.50 0.9992
667.60 0.9978
667.70 0.9965
667.80 0.9951
667.90 0.9938
668.00 0.9924
668.10 0.991
668.20 0.9897
668.30 0.9883
668.40 0.9869
668.50 0.9856
668.60 0.9842
668.70 0.9828
668.80 0.9815
668.90 0.9801
669.00 0.9787
669.10 0.9774
669.20 0.976
669.30 0.9746
669.40 0.9732
669.50 0.9719
669.60 0.9705
669.70 0.9691
669.80 0.9677
669.90 0.9663
670.00 0.965
670.10 0.9636
670.20 0.9622
670.30 0.9608
670.40 0.9594
670.50 0.958
670.60 0.9567
670.70 0.9553
670.80 0.9539
670.90 0.9525
671.00 0.9511
671.10 0.9497
671.20 0.9483
671.30 0.9469
671.40 0.9455
671.50 0.9441
671.60 0.9427
671.70 0.9414
671.80 0.94
671.90 0.9386
672.00 0.9372
672.10 0.9358
672.20 0.9344
672.30 0.933
672.40 0.9316
672.50 0.9302
672.60 0.9288
672.70 0.9274
672.80 0.926
672.90 0.9246
673.00 0.9232
673.10 0.9218
673.20 0.9204
673.30 0.919
673.40 0.9176
673.50 0.9162
673.60 0.9148
673.70 0.9134
673.80 0.912
673.90 0.9106
674.00 0.9092
674.10 0.9078
674.20 0.9064
674.30 0.905
674.40 0.9035
674.50 0.9021
674.60 0.9007
674.70 0.8993
674.80 0.8979
674.90 0.8965
675.00 0.8951
675.10 0.8937
675.20 0.8923
675.30 0.8909
675.40 0.8895
675.50 0.888
675.60 0.8866
675.70 0.8852
675.80 0.8838
675.90 0.8824
676.00 0.881
676.10 0.8796
676.20 0.8781
676.30 0.8767
676.40 0.8753
676.50 0.8739
676.60 0.8725
676.70 0.8711
676.80 0.8697
676.90 0.8683
677.00 0.8668
677.10 0.8654
677.20 0.864
677.30 0.8626
677.40 0.8612
677.50 0.8598
677.60 0.8584
677.70 0.857
677.80 0.8556
677.90 0.8542
678.00 0.8527
678.10 0.8513
678.20 0.8499
678.30 0.8485
678.40 0.8471
678.50 0.8457
678.60 0.8443
678.70 0.8428
678.80 0.8414
678.90 0.84
679.00 0.8386
679.10 0.8372
679.20 0.8358
679.30 0.8344
679.40 0.8329
679.50 0.8315
679.60 0.8301
679.70 0.8287
679.80 0.8273
679.90 0.8259
680.00 0.8244
680.10 0.823
680.20 0.8216
680.30 0.8202
680.40 0.8188
680.50 0.8174
680.60 0.8159
680.70 0.8145
680.80 0.8131
680.90 0.8117
681.00 0.8103
681.10 0.8089
681.20 0.8075
681.30 0.806
681.40 0.8046
681.50 0.8032
681.60 0.8018
681.70 0.8004
681.80 0.799
681.90 0.7975
682.00 0.7961
682.10 0.7947
682.20 0.7933
682.30 0.7919
682.40 0.7905
682.50 0.789
682.60 0.7876
682.70 0.7862
682.80 0.7848
682.90 0.7834
683.00 0.782
683.10 0.7805
683.20 0.7791
683.30 0.7777
683.40 0.7763
683.50 0.7749
683.60 0.7735
683.70 0.7721
683.80 0.7707
683.90 0.7693
684.00 0.7679
684.10 0.7664
684.20 0.765
684.30 0.7636
684.40 0.7622
684.50 0.7608
684.60 0.7594
684.70 0.758
684.80 0.7566
684.90 0.7552
685.00 0.7538
685.10 0.7524
685.20 0.751
685.30 0.7496
685.40 0.7482
685.50 0.7468
685.60 0.7454
685.70 0.744
685.80 0.7425
685.90 0.7411
686.00 0.7397
686.10 0.7383
686.20 0.7369
686.30 0.7355
686.40 0.7341
686.50 0.7328
686.60 0.7314
686.70 0.73
686.80 0.7286
686.90 0.7272
687.00 0.7258
687.10 0.7244
687.20 0.723
687.30 0.7216
687.40 0.7202
687.50 0.7188
687.60 0.7174
687.70 0.716
687.80 0.7146
687.90 0.7132
688.00 0.7119
688.10 0.7105
688.20 0.7091
688.30 0.7077
688.40 0.7063
688.50 0.7049
688.60 0.7035
688.70 0.7022
688.80 0.7008
688.90 0.6994
689.00 0.698
689.10 0.6966
689.20 0.6952
689.30 0.6939
689.40 0.6925
689.50 0.6911
689.60 0.6898
689.70 0.6884
689.80 0.687
689.90 0.6856
690.00 0.6843
690.10 0.6829
690.20 0.6815
690.30 0.6802
690.40 0.6788
690.50 0.6775
690.60 0.6761
690.70 0.6747
690.80 0.6734
690.90 0.672
691.00 0.6707
691.10 0.6693
691.20 0.6679
691.30 0.6666
691.40 0.6652
691.50 0.6639
691.60 0.6625
691.70 0.6612
691.80 0.6598
691.90 0.6585
692.00 0.6571
692.10 0.6558
692.20 0.6544
692.30 0.6531
692.40 0.6517
692.50 0.6504
692.60 0.649
692.70 0.6477
692.80 0.6463
692.90 0.645
693.00 0.6436
693.10 0.6423
693.20 0.6409
693.30 0.6396
693.40 0.6383
693.50 0.6369
693.60 0.6356
693.70 0.6342
693.80 0.6329
693.90 0.6316
694.00 0.6302
694.10 0.6289
694.20 0.6276
694.30 0.6262
694.40 0.6249
694.50 0.6236
694.60 0.6222
694.70 0.6209
694.80 0.6196
694.90 0.6182
695.00 0.6169
695.10 0.6156
695.20 0.6143
695.30 0.613
695.40 0.6117
695.50 0.6104
695.60 0.6091
695.70 0.6079
695.80 0.6066
695.90 0.6053
696.00 0.604
696.10 0.6027
696.20 0.6014
696.30 0.6001
696.40 0.5988
696.50 0.5976
696.60 0.5963
696.70 0.595
696.80 0.5937
696.90 0.5924
697.00 0.5911
697.10 0.5899
697.20 0.5886
697.30 0.5873
697.40 0.586
697.50 0.5848
697.60 0.5835
697.70 0.5822
697.80 0.5809
697.90 0.5797
698.00 0.5784
698.10 0.5771
698.20 0.5758
698.30 0.5746
698.40 0.5733
698.50 0.572
698.60 0.5707
698.70 0.5695
698.80 0.5682
698.90 0.5669
699.00 0.5657
699.10 0.5644
699.20 0.5631
699.30 0.5619
699.40 0.5606
699.50 0.5594
699.60 0.5581
699.70 0.5568
699.80 0.5556
699.90 0.5543
700.00 0.5531
700.10 0.5518
700.20 0.5506
700.30 0.5494
700.40 0.5482
700.50 0.547
700.60 0.5458
700.70 0.5446
700.80 0.5434
700.90 0.5422
701.00 0.541
701.10 0.5398
701.20 0.5386
701.30 0.5374
701.40 0.5362
701.50 0.535
701.60 0.5338
701.70 0.5326
701.80 0.5314
701.90 0.5302
702.00 0.529
702.10 0.5278
702.20 0.5266
702.30 0.5254
702.40 0.5242
702.50 0.523
702.60 0.5218
702.70 0.5206
702.80 0.5194
702.90 0.5182
703.00 0.517
703.10 0.5159
703.20 0.5147
703.30 0.5135
703.40 0.5123
703.50 0.5111
703.60 0.5099
703.70 0.5087
703.80 0.5075
703.90 0.5064
704.00 0.5052
704.10 0.504
704.20 0.5028
704.30 0.5016
704.40 0.5005
704.50 0.4993
704.60 0.4981
704.70 0.4969
704.80 0.4957
704.90 0.4946
705.00 0.4934
705.10 0.4923
705.20 0.4912
705.30 0.4901
705.40 0.489
705.50 0.4879
705.60 0.4868
705.70 0.4857
705.80 0.4846
705.90 0.4835
706.00 0.4824
706.10 0.4813
706.20 0.4802
706.30 0.4791
706.40 0.478
706.50 0.4769
706.60 0.4758
706.70 0.4747
706.80 0.4736
706.90 0.4725
707.00 0.4714
707.10 0.4703
707.20 0.4692
707.30 0.4681
707.40 0.467
707.50 0.466
707.60 0.4649
707.70 0.4638
707.80 0.4627
707.90 0.4616
708.00 0.4605
708.10 0.4594
708.20 0.4584
708.30 0.4573
708.40 0.4562
708.50 0.4551
708.60 0.454
708.70 0.4529
708.80 0.4519
708.90 0.4508
709.00 0.4497
709.10 0.4486
709.20 0.4475
709.30 0.4465
709.40 0.4454
709.50 0.4443
709.60 0.4432
709.70 0.4421
709.80 0.4411
709.90 0.44
710.00 0.4389
710.10 0.4379
710.20 0.4369
710.30 0.4359
710.40 0.435
710.50 0.434
710.60 0.433
710.70 0.432
710.80 0.431
710.90 0.43
711.00 0.429
711.10 0.428
711.20 0.4271
711.30 0.4261
711.40 0.4251
711.50 0.4241
711.60 0.4231
711.70 0.4221
711.80 0.4212
711.90 0.4202
712.00 0.4192
712.10 0.4182
712.20 0.4172
712.30 0.4162
712.40 0.4153
712.50 0.4143
712.60 0.4133
712.70 0.4123
712.80 0.4114
712.90 0.4104
713.00 0.4094
713.10 0.4084
713.20 0.4075
713.30 0.4065
713.40 0.4055
713.50 0.4045
713.60 0.4036
713.70 0.4026
713.80 0.4016
713.90 0.4006
714.00 0.3997
714.10 0.3987
714.20 0.3977
714.30 0.3968
714.40 0.3958
714.50 0.3948
714.60 0.3939
714.70 0.3929
714.80 0.3919
714.90 0.391
715.00 0.39
715.10 0.3891
715.20 0.3882
715.30 0.3874
715.40 0.3865
715.50 0.3856
715.60 0.3847
715.70 0.3839
715.80 0.383
715.90 0.3821
716.00 0.3813
716.10 0.3804
716.20 0.3795
716.30 0.3786
716.40 0.3778
716.50 0.3769
716.60 0.376
716.70 0.3752
716.80 0.3743
716.90 0.3734
717.00 0.3726
717.10 0.3717
717.20 0.3708
717.30 0.37
717.40 0.3691
717.50 0.3682
717.60 0.3674
717.70 0.3665
717.80 0.3657
717.90 0.3648
718.00 0.3639
718.10 0.3631
718.20 0.3622
718.30 0.3614
718.40 0.3605
718.50 0.3596
718.60 0.3588
718.70 0.3579
718.80 0.3571
718.90 0.3562
719.00 0.3553
719.10 0.3545
719.20 0.3536
719.30 0.3528
719.40 0.3519
719.50 0.3511
719.60 0.3502
719.70 0.3494
719.80 0.3485
719.90 0.3477
720.00 0.3468
720.10 0.346
720.20 0.3453
720.30 0.3445
720.40 0.3438
720.50 0.343
720.60 0.3423
720.70 0.3415
720.80 0.3408
720.90 0.34
721.00 0.3393
721.10 0.3386
721.20 0.3378
721.30 0.3371
721.40 0.3363
721.50 0.3356
721.60 0.3348
721.70 0.3341
721.80 0.3333
721.90 0.3326
722.00 0.3318
722.10 0.3311
722.20 0.3304
722.30 0.3296
722.40 0.3289
722.50 0.3281
722.60 0.3274
722.70 0.3266
722.80 0.3259
722.90 0.3252
723.00 0.3244
723.10 0.3237
723.20 0.3229
723.30 0.3222
723.40 0.3215
723.50 0.3207
723.60 0.32
723.70 0.3193
723.80 0.3185
723.90 0.3178
724.00 0.317
724.10 0.3163
724.20 0.3156
724.30 0.3148
724.40 0.3141
724.50 0.3134
724.60 0.3126
724.70 0.3119
724.80 0.3112
724.90 0.3104
725.00 0.3097
725.10 0.3091
725.20 0.3084
725.30 0.3078
725.40 0.3072
725.50 0.3065
725.60 0.3059
725.70 0.3053
725.80 0.3046
725.90 0.304
726.00 0.3034
726.10 0.3027
726.20 0.3021
726.30 0.3015
726.40 0.3008
726.50 0.3002
726.60 0.2996
726.70 0.2989
726.80 0.2983
726.90 0.2977
727.00 0.297
727.10 0.2964
727.20 0.2958
727.30 0.2952
727.40 0.2945
727.50 0.2939
727.60 0.2933
727.70 0.2927
727.80 0.292
727.90 0.2914
728.00 0.2908
728.10 0.2901
728.20 0.2895
728.30 0.2889
728.40 0.2883
728.50 0.2876
728.60 0.287
728.70 0.2864
728.80 0.2858
728.90 0.2852
729.00 0.2845
729.10 0.2839
729.20 0.2833
729.30 0.2827
729.40 0.282
729.50 0.2814
729.60 0.2808
729.70 0.2802
729.80 0.2796
729.90 0.2789
730.00 0.2783
730.10 0.2779
730.20 0.2774
730.30 0.2769
730.40 0.2765
730.50 0.276
730.60 0.2756
730.70 0.2751
730.80 0.2746
730.90 0.2742
731.00 0.2737
731.10 0.2733
731.20 0.2728
731.30 0.2723
731.40 0.2719
731.50 0.2714
731.60 0.271
731.70 0.2705
731.80 0.2701
731.90 0.2696
732.00 0.2691
732.10 0.2687
732.20 0.2682
732.30 0.2678
732.40 0.2673
732.50 0.2669
732.60 0.2664
732.70 0.266
732.80 0.2655
732.90 0.2651
733.00 0.2646
733.10 0.2641
733.20 0.2637
733.30 0.2632
733.40 0.2628
733.50 0.2623
733.60 0.2619
733.70 0.2614
733.80 0.261
733.90 0.2605
734.00 0.2601
734.10 0.2596
734.20 0.2592
734.30 0.2587
734.40 0.2583
734.50 0.2578
734.60 0.2574
734.70 0.2569
734.80 0.2565
734.90 0.256
735.00 0.2556
735.10 0.2551
735.20 0.2547
735.30 0.2542
735.40 0.2538
735.50 0.2533
735.60 0.2529
735.70 0.2524
735.80 0.252
735.90 0.2515
736.00 0.2511
736.10 0.2507
736.20 0.2502
736.30 0.2498
736.40 0.2493
736.50 0.2489
736.60 0.2484
736.70 0.248
736.80 0.2475
736.90 0.2471
737.00 0.2466
737.10 0.2462
737.20 0.2458
737.30 0.2453
737.40 0.2449
737.50 0.2444
737.60 0.244
737.70 0.2435
737.80 0.2431
737.90 0.2427
738.00 0.2422
738.10 0.2418
738.20 0.2413
738.30 0.2409
738.40 0.2404
738.50 0.24
738.60 0.2396
738.70 0.2391
738.80 0.2387
738.90 0.2382
739.00 0.2378
739.10 0.2374
739.20 0.2369
739.30 0.2365
739.40 0.236
739.50 0.2356
739.60 0.2352
739.70 0.2347
739.80 0.2343
739.90 0.2339
740.00 0.2334
740.10 0.2331
740.20 0.2329
740.30 0.2326
740.40 0.2323
740.50 0.2321
740.60 0.2318
740.70 0.2315
740.80 0.2312
740.90 0.231
741.00 0.2307
741.10 0.2304
741.20 0.2301
741.30 0.2299
741.40 0.2296
741.50 0.2293
741.60 0.2291
741.70 0.2288
741.80 0.2285
741.90 0.2282
742.00 0.228
742.10 0.2277
742.20 0.2274
742.30 0.2272
742.40 0.2269
742.50 0.2266
742.60 0.2263
742.70 0.2261
742.80 0.2258
742.90 0.2255
743.00 0.2253
743.10 0.225
743.20 0.2247
743.30 0.2245
743.40 0.2242
743.50 0.2239
743.60 0.2236
743.70 0.2234
743.80 0.2231
743.90 0.2228
744.00 0.2226
744.10 0.2223
744.20 0.222
744.30 0.2218
744.40 0.2215
744.50 0.2212
744.60 0.221
744.70 0.2207
744.80 0.2204
744.90 0.2202
745.00 0.2199
745.10 0.2196
745.20 0.2194
745.30 0.2191
745.40 0.2188
745.50 0.2186
745.60 0.2183
745.70 0.218
745.80 0.2178
745.90 0.2175
746.00 0.2172
746.10 0.217
746.20 0.2167
746.30 0.2164
746.40 0.2162
746.50 0.2159
746.60 0.2156
746.70 0.2154
746.80 0.2151
746.90 0.2148
747.00 0.2146
747.10 0.2143
747.20 0.214
747.30 0.2138
747.40 0.2135
747.50 0.2133
747.60 0.213
747.70 0.2127
747.80 0.2125
747.90 0.2122
748.00 0.2119
748.10 0.2117
748.20 0.2114
748.30 0.2111
748.40 0.2109
748.50 0.2106
748.60 0.2104
748.70 0.2101
748.80 0.2098
748.90 0.2096
749.00 0.2093
749.10 0.2091
749.20 0.2088
749.30 0.2085
749.40 0.2083
749.50 0.208
749.60 0.2077
749.70 0.2075
749.80 0.2072
749.90 0.207
750.00 0.2067
750.10 0.2065
750.20 0.2064
750.30 0.2062
750.40 0.206
750.50 0.2059
750.60 0.2057
750.70 0.2055
750.80 0.2054
750.90 0.2052
751.00 0.205
751.10 0.2049
751.20 0.2047
751.30 0.2045
751.40 0.2044
751.50 0.2042
751.60 0.204
751.70 0.2039
751.80 0.2037
751.90 0.2035
752.00 0.2034
752.10 0.2032
752.20 0.203
752.30 0.2029
752.40 0.2027
752.50 0.2025
752.60 0.2024
752.70 0.2022
752.80 0.202
752.90 0.2019
753.00 0.2017
753.10 0.2015
753.20 0.2014
753.30 0.2012
753.40 0.201
753.50 0.2009
753.60 0.2007
753.70 0.2005
753.80 0.2004
753.90 0.2002
754.00 0.2
754.10 0.1999
754.20 0.1997
754.30 0.1995
754.40 0.1994
754.50 0.1992
754.60 0.1991
754.70 0.1989
754.80 0.1987
754.90 0.1986
755.00 0.1984
755.10 0.1982
755.20 0.1981
755.30 0.1979
755.40 0.1977
755.50 0.1976
755.60 0.1974
755.70 0.1973
755.80 0.1971
755.90 0.1969
756.00 0.1968
756.10 0.1966
756.20 0.1964
756.30 0.1963
756.40 0.1961
756.50 0.1959
756.60 0.1958
756.70 0.1956
756.80 0.1955
756.90 0.1953
757.00 0.1951
757.10 0.195
757.20 0.1948
757.30 0.1946
757.40 0.1945
757.50 0.1943
757.60 0.1942
757.70 0.194
757.80 0.1938
757.90 0.1937
758.00 0.1935
758.10 0.1933
758.20 0.1932
758.30 0.193
758.40 0.1929
758.50 0.1927
758.60 0.1925
758.70 0.1924
758.80 0.1922
758.90 0.1921
759.00 0.1919
759.10 0.1917
759.20 0.1916
759.30 0.1914
759.40 0.1913
759.50 0.1911
759.60 0.1909
759.70 0.1908
759.80 0.1906
759.90 0.1905
760.00 0.1903
760.10 0.1902
760.20 0.1901
760.30 0.19
760.40 0.1899
760.50 0.1897
760.60 0.1896
760.70 0.1895
760.80 0.1894
760.90 0.1893
761.00 0.1892
761.10 0.1891
761.20 0.189
761.30 0.1889
761.40 0.1888
761.50 0.1887
761.60 0.1886
761.70 0.1884
761.80 0.1883
761.90 0.1882
762.00 0.1881
762.10 0.188
762.20 0.1879
762.30 0.1878
762.40 0.1877
762.50 0.1876
762.60 0.1875
762.70 0.1874
762.80 0.1873
762.90 0.1872
763.00 0.187
763.10 0.1869
763.20 0.1868
763.30 0.1867
763.40 0.1866
763.50 0.1865
763.60 0.1864
763.70 0.1863
763.80 0.1862
763.90 0.1861
764.00 0.186
764.10 0.1859
764.20 0.1858
764.30 0.1857
764.40 0.1855
764.50 0.1854
764.60 0.1853
764.70 0.1852
764.80 0.1851
764.90 0.185
765.00 0.1849
765.10 0.1848
765.20 0.1847
765.30 0.1846
765.40 0.1845
765.50 0.1844
765.60 0.1843
765.70 0.1842
765.80 0.1841
765.90 0.1839
766.00 0.1838
766.10 0.1837
766.20 0.1836
766.30 0.1835
766.40 0.1834
766.50 0.1833
766.60 0.1832
766.70 0.1831
766.80 0.183
766.90 0.1829
767.00 0.1828
767.10 0.1827
767.20 0.1826
767.30 0.1825
767.40 0.1824
767.50 0.1823
767.60 0.1822
767.70 0.182
767.80 0.1819
767.90 0.1818
768.00 0.1817
768.10 0.1816
768.20 0.1815
768.30 0.1814
768.40 0.1813
768.50 0.1812
768.60 0.1811
768.70 0.181
768.80 0.1809
768.90 0.1808
769.00 0.1807
769.10 0.1806
769.20 0.1805
769.30 0.1804
769.40 0.1803
769.50 0.1802
769.60 0.1801
769.70 0.18
769.80 0.1798
769.90 0.1797
770.00 0.1796
770.10 0.1796
770.20 0.1795
770.30 0.1795
770.40 0.1794
770.50 0.1794
770.60 0.1793
770.70 0.1793
770.80 0.1792
770.90 0.1792
771.00 0.1791
771.10 0.1791
771.20 0.179
771.30 0.179
771.40 0.1789
771.50 0.1789
771.60 0.1788
771.70 0.1788
771.80 0.1787
771.90 0.1787
772.00 0.1786
772.10 0.1786
772.20 0.1785
772.30 0.1785
772.40 0.1784
772.50 0.1784
772.60 0.1783
772.70 0.1783
772.80 0.1782
772.90 0.1782
773.00 0.1781
773.10 0.1781
773.20 0.178
773.30 0.178
773.40 0.1779
773.50 0.1779
773.60 0.1778
773.70 0.1778
773.80 0.1777
773.90 0.1777
774.00 0.1776
774.10 0.1776
774.20 0.1775
774.30 0.1775
774.40 0.1774
774.50 0.1774
774.60 0.1773
774.70 0.1773
774.80 0.1772
774.90 0.1772
775.00 0.1771
775.10 0.1771
775.20 0.177
775.30 0.177
775.40 0.1769
775.50 0.1769
775.60 0.1768
775.70 0.1768
775.80 0.1767
775.90 0.1767
776.00 0.1766
776.10 0.1766
776.20 0.1765
776.30 0.1765
776.40 0.1764
776.50 0.1764
776.60 0.1763
776.70 0.1763
776.80 0.1762
776.90 0.1762
777.00 0.1761
777.10 0.1761
777.20 0.176
777.30 0.176
777.40 0.1759
777.50 0.1759
777.60 0.1758
777.70 0.1758
777.80 0.1757
777.90 0.1757
778.00 0.1756
778.10 0.1756
778.20 0.1755
778.30 0.1755
778.40 0.1754
778.50 0.1754
778.60 0.1753
778.70 0.1753
778.80 0.1752
778.90 0.1752
779.00 0.1751
779.10 0.1751
779.20 0.175
779.30 0.175
779.40 0.1749
779.50 0.1749
779.60 0.1748
779.70 0.1748
779.80 0.1747
779.90 0.1747
780.00 0.1746
780.10 0.1747
780.20 0.1747
780.30 0.1747
780.40 0.1748
780.50 0.1748
780.60 0.1748
780.70 0.1749
780.80 0.1749
780.90 0.1749
781.00 0.1749
781.10 0.175
781.20 0.175
781.30 0.175
781.40 0.1751
781.50 0.1751
781.60 0.1751
781.70 0.1752
781.80 0.1752
781.90 0.1752
782.00 0.1752
782.10 0.1753
782.20 0.1753
782.30 0.1753
782.40 0.1754
782.50 0.1754
782.60 0.1754
782.70 0.1755
782.80 0.1755
782.90 0.1755
783.00 0.1755
783.10 0.1756
783.20 0.1756
783.30 0.1756
783.40 0.1757
783.50 0.1757
783.60 0.1757
783.70 0.1758
783.80 0.1758
783.90 0.1758
784.00 0.1758
784.10 0.1759
784.20 0.1759
784.30 0.1759
784.40 0.176
784.50 0.176
784.60 0.176
784.70 0.1761
784.80 0.1761
784.90 0.1761
785.00 0.1761
785.10 0.1762
785.20 0.1762
785.30 0.1762
785.40 0.1763
785.50 0.1763
785.60 0.1763
785.70 0.1763
785.80 0.1764
785.90 0.1764
786.00 0.1764
786.10 0.1765
786.20 0.1765
786.30 0.1765
786.40 0.1766
786.50 0.1766
786.60 0.1766
786.70 0.1766
786.80 0.1767
786.90 0.1767
787.00 0.1767
787.10 0.1768
787.20 0.1768
787.30 0.1768
787.40 0.1768
787.50 0.1769
787.60 0.1769
787.70 0.1769
787.80 0.177
787.90 0.177
788.00 0.177
788.10 0.177
788.20 0.1771
788.30 0.1771
788.40 0.1771
788.50 0.1772
788.60 0.1772
788.70 0.1772
788.80 0.1773
788.90 0.1773
789.00 0.1773
789.10 0.1773
789.20 0.1774
789.30 0.1774
789.40 0.1774
789.50 0.1775
789.60 0.1775
789.70 0.1775
789.80 0.1775
789.90 0.1776
790.00 0.1776
790.10 0.1777
790.20 0.1777
790.30 0.1778
790.40 0.1779
790.50 0.1779
790.60 0.178
790.70 0.1781
790.80 0.1782
790.90 0.1782
791.00 0.1783
791.10 0.1784
791.20 0.1784
791.30 0.1785
791.40 0.1786
791.50 0.1787
791.60 0.1787
791.70 0.1788
791.80 0.1789
791.90 0.1789
792.00 0.179
792.10 0.1791
792.20 0.1791
792.30 0.1792
792.40 0.1793
792.50 0.1794
792.60 0.1794
792.70 0.1795
792.80 0.1796
792.90 0.1796
793.00 0.1797
793.10 0.1798
793.20 0.1798
793.30 0.1799
793.40 0.18
793.50 0.1801
793.60 0.1801
793.70 0.1802
793.80 0.1803
793.90 0.1803
794.00 0.1804
794.10 0.1805
794.20 0.1805
794.30 0.1806
794.40 0.1807
794.50 0.1808
794.60 0.1808
794.70 0.1809
794.80 0.181
794.90 0.181
795.00 0.1811
795.10 0.1812
795.20 0.1812
795.30 0.1813
795.40 0.1814
795.50 0.1814
795.60 0.1815
795.70 0.1816
795.80 0.1817
795.90 0.1817
796.00 0.1818
796.10 0.1819
796.20 0.1819
796.30 0.182
796.40 0.1821
796.50 0.1821
796.60 0.1822
796.70 0.1823
796.80 0.1823
796.90 0.1824
797.00 0.1825
797.10 0.1825
797.20 0.1826
797.30 0.1827
797.40 0.1827
797.50 0.1828
797.60 0.1829
797.70 0.183
797.80 0.183
797.90 0.1831
798.00 0.1832
798.10 0.1832
798.20 0.1833
798.30 0.1834
798.40 0.1834
798.50 0.1835
798.60 0.1836
798.70 0.1836
798.80 0.1837
798.90 0.1838
799.00 0.1838
799.10 0.1839
799.20 0.184
799.30 0.184
799.40 0.1841
799.50 0.1842
799.60 0.1842
799.70 0.1843
799.80 0.1844
799.90 0.1844
800.00 0.1845
800.10 0.1845
800.20 0.1846
800.30 0.1846
800.40 0.1847
800.50 0.1847
800.60 0.1847
800.70 0.1848
800.80 0.1848
800.90 0.1848
801.00 0.1849
801.10 0.1849
801.20 0.185
801.30 0.185
801.40 0.185
801.50 0.1851
801.60 0.1851
801.70 0.1851
801.80 0.1852
801.90 0.1852
802.00 0.1853
802.10 0.1853
802.20 0.1853
802.30 0.1854
802.40 0.1854
802.50 0.1854
802.60 0.1855
802.70 0.1855
802.80 0.1856
802.90 0.1856
803.00 0.1856
803.10 0.1857
803.20 0.1857
803.30 0.1857
803.40 0.1858
803.50 0.1858
803.60 0.1858
803.70 0.1859
803.80 0.1859
803.90 0.186
804.00 0.186
804.10 0.186
804.20 0.1861
804.30 0.1861
804.40 0.1861
804.50 0.1862
804.60 0.1862
804.70 0.1862
804.80 0.1863
804.90 0.1863
805.00 0.1864
805.10 0.1864
805.20 0.1864
805.30 0.1865
805.40 0.1865
805.50 0.1865
805.60 0.1866
805.70 0.1866
805.80 0.1867
805.90 0.1867
806.00 0.1867
806.10 0.1868
806.20 0.1868
806.30 0.1868
806.40 0.1869
806.50 0.1869
806.60 0.1869
806.70 0.187
806.80 0.187
806.90 0.187
807.00 0.1871
807.10 0.1871
807.20 0.1872
807.30 0.1872
807.40 0.1872
807.50 0.1873
807.60 0.1873
807.70 0.1873
807.80 0.1874
807.90 0.1874
808.00 0.1874
808.10 0.1875
808.20 0.1875
808.30 0.1876
808.40 0.1876
808.50 0.1876
808.60 0.1877
808.70 0.1877
808.80 0.1877
808.90 0.1878
809.00 0.1878
809.10 0.1878
809.20 0.1879
809.30 0.1879
809.40 0.1879
809.50 0.188
809.60 0.188
809.70 0.188
809.80 0.1881
809.90 0.1881
810.00 0.1882
810.10 0.1882
810.20 0.1882
810.30 0.1882
810.40 0.1882
810.50 0.1882
810.60 0.1882
810.70 0.1882
810.80 0.1882
810.90 0.1882
811.00 0.1882
811.10 0.1882
811.20 0.1882
811.30 0.1882
811.40 0.1882
811.50 0.1882
811.60 0.1882
811.70 0.1882
811.80 0.1882
811.90 0.1882
812.00 0.1882
812.10 0.1882
812.20 0.1882
812.30 0.1882
812.40 0.1882
812.50 0.1882
812.60 0.1883
812.70 0.1883
812.80 0.1883
812.90 0.1883
813.00 0.1883
813.10 0.1883
813.20 0.1883
813.30 0.1883
813.40 0.1883
813.50 0.1883
813.60 0.1883
813.70 0.1883
813.80 0.1883
813.90 0.1883
814.00 0.1883
814.10 0.1883
814.20 0.1883
814.30 0.1883
814.40 0.1883
814.50 0.1883
814.60 0.1883
814.70 0.1883
814.80 0.1883
814.90 0.1883
815.00 0.1883
815.10 0.1883
815.20 0.1883
815.30 0.1883
815.40 0.1884
815.50 0.1884
815.60 0.1884
815.70 0.1884
815.80 0.1884
815.90 0.1884
816.00 0.1884
816.10 0.1884
816.20 0.1884
816.30 0.1884
816.40 0.1884
816.50 0.1884
816.60 0.1884
816.70 0.1884
816.80 0.1884
816.90 0.1884
817.00 0.1884
817.10 0.1884
817.20 0.1884
817.30 0.1884
817.40 0.1884
817.50 0.1884
817.60 0.1884
817.70 0.1884
817.80 0.1884
817.90 0.1884
818.00 0.1884
818.10 0.1884
818.20 0.1884
818.30 0.1884
818.40 0.1885
818.50 0.1885
818.60 0.1885
818.70 0.1885
818.80 0.1885
818.90 0.1885
819.00 0.1885
819.10 0.1885
819.20 0.1885
819.30 0.1885
819.40 0.1885
819.50 0.1885
819.60 0.1885
819.70 0.1885
819.80 0.1885
819.90 0.1885
820.00 0.1885
820.10 0.1885
820.20 0.1885
820.30 0.1885
820.40 0.1885
820.50 0.1885
820.60 0.1886
820.70 0.1886
820.80 0.1886
820.90 0.1886
821.00 0.1886
821.10 0.1886
821.20 0.1886
821.30 0.1886
821.40 0.1886
821.50 0.1887
821.60 0.1887
821.70 0.1887
821.80 0.1887
821.90 0.1887
822.00 0.1887
822.10 0.1887
822.20 0.1888
822.30 0.1888
822.40 0.1888
822.50 0.1888
822.60 0.1888
822.70 0.1888
822.80 0.1889
822.90 0.1889
823.00 0.1889
823.10 0.1889
823.20 0.1889
823.30 0.1889
823.40 0.189
823.50 0.189
823.60 0.189
823.70 0.189
823.80 0.189
823.90 0.1891
824.00 0.1891
824.10 0.1891
824.20 0.1891
824.30 0.1891
824.40 0.1891
824.50 0.1892
824.60 0.1892
824.70 0.1892
824.80 0.1892
824.90 0.1892
825.00 0.1893
825.10 0.1893
825.20 0.1893
825.30 0.1893
825.40 0.1893
825.50 0.1893
825.60 0.1894
825.70 0.1894
825.80 0.1894
825.90 0.1894
826.00 0.1894
826.10 0.1894
826.20 0.1895
826.30 0.1895
826.40 0.1895
826.50 0.1895
826.60 0.1895
826.70 0.1896
826.80 0.1896
826.90 0.1896
827.00 0.1896
827.10 0.1896
827.20 0.1896
827.30 0.1897
827.40 0.1897
827.50 0.1897
827.60 0.1897
827.70 0.1898
827.80 0.1898
827.90 0.1898
828.00 0.1898
828.10 0.1899
828.20 0.1899
828.30 0.1899
828.40 0.1899
828.50 0.19
828.60 0.19
828.70 0.19
828.80 0.19
828.90 0.19
829.00 0.1901
829.10 0.1901
829.20 0.1901
829.30 0.1901
829.40 0.1902
829.50 0.1902
829.60 0.1902
829.70 0.1902
829.80 0.1902
829.90 0.1903
830.00 0.1903
830.10 0.1903
830.20 0.1903
830.30 0.1904
830.40 0.1904
830.50 0.1904
830.60 0.1904
830.70 0.1905
830.80 0.1905
830.90 0.1905
831.00 0.1905
831.10 0.1905
831.20 0.1906
831.30 0.1906
831.40 0.1906
831.50 0.1906
831.60 0.1907
831.70 0.1907
831.80 0.1907
831.90 0.1907
832.00 0.1907
832.10 0.1908
832.20 0.1908
832.30 0.1908
832.40 0.1908
832.50 0.1908
832.60 0.1908
832.70 0.1909
832.80 0.1909
832.90 0.1909
833.00 0.1909
833.10 0.1909
833.20 0.1909
833.30 0.191
833.40 0.191
833.50 0.191
833.60 0.191
833.70 0.191
833.80 0.191
833.90 0.1911
834.00 0.1911
834.10 0.1911
834.20 0.1911
834.30 0.1911
834.40 0.1911
834.50 0.1912
834.60 0.1912
834.70 0.1912
834.80 0.1912
834.90 0.1912
835.00 0.1912
835.10 0.1913
835.20 0.1913
835.30 0.1913
835.40 0.1913
835.50 0.1913
835.60 0.1913
835.70 0.1914
835.80 0.1914
835.90 0.1914
836.00 0.1914
836.10 0.1914
836.20 0.1914
836.30 0.1915
836.40 0.1915
836.50 0.1915
836.60 0.1915
836.70 0.1915
836.80 0.1915
836.90 0.1915
837.00 0.1916
837.10 0.1916
837.20 0.1916
837.30 0.1916
837.40 0.1916
837.50 0.1916
837.60 0.1916
837.70 0.1916
837.80 0.1917
837.90 0.1917
838.00 0.1917
838.10 0.1917
838.20 0.1917
838.30 0.1917
838.40 0.1917
838.50 0.1917
838.60 0.1917
838.70 0.1918
838.80 0.1918
838.90 0.1918
839.00 0.1918
839.10 0.1918
839.20 0.1918
839.30 0.1918
839.40 0.1918
839.50 0.1918
839.60 0.1919
839.70 0.1919
839.80 0.1919
839.90 0.1919
840.00 0.1919
840.10 0.1919
840.20 0.1919
840.30 0.1919
840.40 0.1919
840.50 0.1919
840.60 0.192
840.70 0.192
840.80 0.192
840.90 0.192
841.00 0.192
841.10 0.192
841.20 0.192
841.30 0.192
841.40 0.192
841.50 0.1921
841.60 0.1921
841.70 0.1921
841.80 0.1921
841.90 0.1921
842.00 0.1921
842.10 0.1921
842.20 0.1921
842.30 0.1921
842.40 0.1921
842.50 0.1921
842.60 0.1921
842.70 0.1921
842.80 0.1922
842.90 0.1922
843.00 0.1922
843.10 0.1922
843.20 0.1922
843.30 0.1922
843.40 0.1922
843.50 0.1922
843.60 0.1922
843.70 0.1922
843.80 0.1922
843.90 0.1922
844.00 0.1922
844.10 0.1922
844.20 0.1922
844.30 0.1922
844.40 0.1922
844.50 0.1923
844.60 0.1923
844.70 0.1923
844.80 0.1923
844.90 0.1923
845.00 0.1923
845.10 0.1923
845.20 0.1923
845.30 0.1923
845.40 0.1923
845.50 0.1923
845.60 0.1923
845.70 0.1923
845.80 0.1923
845.90 0.1923
846.00 0.1923
846.10 0.1923
846.20 0.1923
846.30 0.1923
846.40 0.1924
846.50 0.1924
846.60 0.1924
846.70 0.1924
846.80 0.1924
846.90 0.1924
847.00 0.1924
847.10 0.1924
847.20 0.1924
847.30 0.1924
847.40 0.1924
847.50 0.1924
847.60 0.1924
847.70 0.1924
847.80 0.1924
847.90 0.1924
848.00 0.1924
848.10 0.1924
848.20 0.1924
848.30 0.1924
848.40 0.1924
848.50 0.1924
848.60 0.1924
848.70 0.1925
848.80 0.1925
848.90 0.1925
849.00 0.1925
849.10 0.1925
849.20 0.1925
849.30 0.1925
849.40 0.1925
849.50 0.1925
849.60 0.1925
849.70 0.1925
849.80 0.1925
849.90 0.1925
850.00 0.1925
850.10 0.1925
850.20 0.1925
850.30 0.1925
850.40 0.1925
850.50 0.1925
850.60 0.1925
850.70 0.1925
850.80 0.1925
850.90 0.1925
851.00 0.1925
851.10 0.1925
851.20 0.1925
851.30 0.1925
851.40 0.1926
851.50 0.1926
851.60 0.1926
851.70 0.1926
851.80 0.1926
851.90 0.1926
852.00 0.1926
852.10 0.1926
852.20 0.1926
852.30 0.1926
852.40 0.1926
852.50 0.1926
852.60 0.1926
852.70 0.1926
852.80 0.1926
852.90 0.1926
853.00 0.1926
853.10 0.1926
853.20 0.1926
853.30 0.1926
853.40 0.1926
853.50 0.1926
853.60 0.1926
853.70 0.1926
853.80 0.1926
853.90 0.1926
854.00 0.1926
854.10 0.1926
854.20 0.1926
854.30 0.1926
854.40 0.1927
854.50 0.1927
854.60 0.1927
854.70 0.1927
854.80 0.1927
854.90 0.1927
855.00 0.1927
855.10 0.1927
855.20 0.1927
855.30 0.1927
855.40 0.1927
855.50 0.1927
855.60 0.1927
855.70 0.1927
855.80 0.1927
855.90 0.1927
856.00 0.1927
856.10 0.1927
856.20 0.1927
856.30 0.1927
856.40 0.1927
856.50 0.1927
856.60 0.1927
856.70 0.1927
856.80 0.1927
856.90 0.1927
857.00 0.1927
857.10 0.1927
857.20 0.1927
857.30 0.1927
857.40 0.1927
857.50 0.1927
857.60 0.1927
857.70 0.1928
857.80 0.1928
857.90 0.1928
858.00 0.1928
858.10 0.1928
858.20 0.1928
858.30 0.1928
858.40 0.1928
858.50 0.1928
858.60 0.1928
858.70 0.1928
858.80 0.1928
858.90 0.1928
859.00 0.1928
859.10 0.1928
859.20 0.1928
859.30 0.1928
859.40 0.1928
859.50 0.1928
859.60 0.1928
859.70 0.1928
859.80 0.1928
859.90 0.1928
860.00 0.1928
860.10 0.1928
860.20 0.1928
860.30 0.1928
860.40 0.1928
860.50 0.1928
860.60 0.1928
860.70 0.1928
860.80 0.1928
860.90 0.1928
861.00 0.1928
861.10 0.1928
861.20 0.1929
861.30 0.1929
861.40 0.1929
861.50 0.1929
861.60 0.1929
861.70 0.1929
861.80 0.1929
861.90 0.1929
862.00 0.1929
862.10 0.1929
862.20 0.1929
862.30 0.1929
862.40 0.1929
862.50 0.1929
862.60 0.1929
862.70 0.1929
862.80 0.1929
862.90 0.1929
863.00 0.1929
863.10 0.1929
863.20 0.1929
863.30 0.1929
863.40 0.1929
863.50 0.193
863.60 0.193
863.70 0.193
863.80 0.193
863.90 0.193
864.00 0.193
864.10 0.193
864.20 0.193
864.30 0.193
864.40 0.193
864.50 0.193
864.60 0.193
864.70 0.193
864.80 0.193
864.90 0.193
865.00 0.193
865.10 0.193
865.20 0.193
865.30 0.193
865.40 0.193
865.50 0.1931
865.60 0.1931
865.70 0.1931
865.80 0.1931
865.90 0.1931
866.00 0.1931
866.10 0.1931
866.20 0.1931
866.30 0.1931
866.40 0.1931
866.50 0.1931
866.60 0.1931
866.70 0.1931
866.80 0.1931
866.90 0.1931
867.00 0.1931
867.10 0.1931
867.20 0.1931
867.30 0.1931
867.40 0.1931
867.50 0.1931
867.60 0.1931
867.70 0.1931
867.80 0.1931
867.90 0.1931
868.00 0.1931
868.10 0.1931
868.20 0.193
868.30 0.193
868.40 0.193
868.50 0.193
868.60 0.193
868.70 0.193
868.80 0.193
868.90 0.193
869.00 0.193
869.10 0.193
869.20 0.193
869.30 0.193
869.40 0.193
869.50 0.193
869.60 0.1929
869.70 0.1929
869.80 0.1929
869.90 0.1929
870.00 0.1929
870.10 0.1929
870.20 0.1929
870.30 0.1929
870.40 0.1929
870.50 0.1929
870.60 0.1929
870.70 0.1929
870.80 0.1929
870.90 0.1929
871.00 0.1929
871.10 0.1928
871.20 0.1928
871.30 0.1928
871.40 0.1928
871.50 0.1928
871.60 0.1928
871.70 0.1928
871.80 0.1928
871.90 0.1928
872.00 0.1928
872.10 0.1928
872.20 0.1927
872.30 0.1927
872.40 0.1927
872.50 0.1927
872.60 0.1927
872.70 0.1927
872.80 0.1926
872.90 0.1926
873.00 0.1926
873.10 0.1926
873.20 0.1926
873.30 0.1925
873.40 0.1925
873.50 0.1925
873.60 0.1925
873.70 0.1925
873.80 0.1925
873.90 0.1924
874.00 0.1924
874.10 0.1924
874.20 0.1924
874.30 0.1924
874.40 0.1924
874.50 0.1923
874.60 0.1923
874.70 0.1923
874.80 0.1923
874.90 0.1923
875.00 0.1922
875.10 0.1922
875.20 0.1922
875.30 0.1922
875.40 0.1922
875.50 0.1922
875.60 0.1921
875.70 0.1921
875.80 0.1921
875.90 0.1921
876.00 0.1921
876.10 0.192
876.20 0.192
876.30 0.192
876.40 0.192
876.50 0.192
876.60 0.192
876.70 0.1919
876.80 0.1919
876.90 0.1919
877.00 0.1919
877.10 0.1918
877.20 0.1918
877.30 0.1918
877.40 0.1917
877.50 0.1917
877.60 0.1916
877.70 0.1916
877.80 0.1916
877.90 0.1915
878.00 0.1915
878.10 0.1914
878.20 0.1914
878.30 0.1914
878.40 0.1913
878.50 0.1913
878.60 0.1912
878.70 0.1912
878.80 0.1911
878.90 0.1911
879.00 0.1911
879.10 0.191
879.20 0.191
879.30 0.1909
879.40 0.1909
879.50 0.1909
879.60 0.1908
879.70 0.1908
879.80 0.1907
879.90 0.1907
880.00 0.1907
880.10 0.1906
880.20 0.1906
880.30 0.1905
880.40 0.1905
880.50 0.1905
880.60 0.1904
880.70 0.1904
880.80 0.1903
880.90 0.1903
881.00 0.1903
881.10 0.1902
881.20 0.1902
881.30 0.1901
881.40 0.1901
881.50 0.19
881.60 0.19
881.70 0.19
881.80 0.1899
881.90 0.1899
882.00 0.1898
882.10 0.1898
882.20 0.1897
882.30 0.1897
882.40 0.1896
882.50 0.1896
882.60 0.1895
882.70 0.1894
882.80 0.1894
882.90 0.1893
883.00 0.1893
883.10 0.1892
883.20 0.1891
883.30 0.1891
883.40 0.189
883.50 0.189
883.60 0.1889
883.70 0.1888
883.80 0.1888
883.90 0.1887
884.00 0.1887
884.10 0.1886
884.20 0.1885
884.30 0.1885
884.40 0.1884
884.50 0.1884
884.60 0.1883
884.70 0.1883
884.80 0.1882
884.90 0.1881
885.00 0.1881
885.10 0.188
885.20 0.188
885.30 0.1879
885.40 0.1878
885.50 0.1878
885.60 0.1877
885.70 0.1877
885.80 0.1876
885.90 0.1875
886.00 0.1875
886.10 0.1874
886.20 0.1874
886.30 0.1873
886.40 0.1873
886.50 0.1872
886.60 0.1871
886.70 0.1871
886.80 0.187
886.90 0.187
887.00 0.1869
887.10 0.1868
887.20 0.1868
887.30 0.1867
887.40 0.1866
887.50 0.1865
887.60 0.1864
887.70 0.1864
887.80 0.1863
887.90 0.1862
888.00 0.1861
888.10 0.1861
888.20 0.186
888.30 0.1859
888.40 0.1858
888.50 0.1858
888.60 0.1857
888.70 0.1856
888.80 0.1855
888.90 0.1855
889.00 0.1854
889.10 0.1853
889.20 0.1852
889.30 0.1852
889.40 0.1851
889.50 0.185
889.60 0.1849
889.70 0.1849
889.80 0.1848
889.90 0.1847
890.00 0.1846
890.10 0.1846
890.20 0.1845
890.30 0.1844
890.40 0.1843
890.50 0.1843
890.60 0.1842
890.70 0.1841
890.80 0.184
890.90 0.184
891.00 0.1839
891.10 0.1838
891.20 0.1837
891.30 0.1836
891.40 0.1836
891.50 0.1835
891.60 0.1834
891.70 0.1833
891.80 0.1833
891.90 0.1832
892.00 0.1831
892.10 0.183
892.20 0.1829
892.30 0.1829
892.40 0.1828
892.50 0.1827
892.60 0.1826
892.70 0.1825
892.80 0.1824
892.90 0.1823
893.00 0.1822
893.10 0.1822
893.20 0.1821
893.30 0.182
893.40 0.1819
893.50 0.1818
893.60 0.1817
893.70 0.1816
893.80 0.1815
893.90 0.1814
894.00 0.1814
894.10 0.1813
894.20 0.1812
894.30 0.1811
894.40 0.181
894.50 0.1809
894.60 0.1808
894.70 0.1807
894.80 0.1807
894.90 0.1806
895.00 0.1805
895.10 0.1804
895.20 0.1803
895.30 0.1802
895.40 0.1801
895.50 0.18
895.60 0.18
895.70 0.1799
895.80 0.1798
895.90 0.1797
896.00 0.1796
896.10 0.1795
896.20 0.1794
896.30 0.1793
896.40 0.1793
896.50 0.1792
896.60 0.1791
896.70 0.179
896.80 0.1789
896.90 0.1788
897.00 0.1787
897.10 0.1786
897.20 0.1785
897.30 0.1784
897.40 0.1783
897.50 0.1782
897.60 0.1781
897.70 0.178
897.80 0.1779
897.90 0.1778
898.00 0.1777
898.10 0.1776
898.20 0.1775
898.30 0.1774
898.40 0.1773
898.50 0.1772
898.60 0.1771
898.70 0.177
898.80 0.1769
898.90 0.1768
899.00 0.1767
899.10 0.1766
899.20 0.1765
899.30 0.1765
899.40 0.1764
899.50 0.1763
899.60 0.1762
899.70 0.1761
899.80 0.176
899.90 0.1759
900.00 0.1758
900.10 0.1757
900.20 0.1756
900.30 0.1755
900.40 0.1754
900.50 0.1753
900.60 0.1752
900.70 0.1751
900.80 0.175
900.90 0.1749
901.00 0.1748
901.10 0.1747
901.20 0.1746
901.30 0.1745
901.40 0.1744
901.50 0.1743
901.60 0.1742
901.70 0.1741
901.80 0.174
901.90 0.1739
902.00 0.1738
902.10 0.1737
902.20 0.1736
902.30 0.1735
902.40 0.1734
902.50 0.1733
902.60 0.1731
902.70 0.173
902.80 0.1729
902.90 0.1728
903.00 0.1727
903.10 0.1726
903.20 0.1725
903.30 0.1724
903.40 0.1723
903.50 0.1722
903.60 0.1721
903.70 0.172
903.80 0.1719
903.90 0.1717
904.00 0.1716
904.10 0.1715
904.20 0.1714
904.30 0.1713
904.40 0.1712
904.50 0.1711
904.60 0.171
904.70 0.1709
904.80 0.1708
904.90 0.1707
905.00 0.1706
905.10 0.1705
905.20 0.1703
905.30 0.1702
905.40 0.1701
905.50 0.17
905.60 0.1699
905.70 0.1698
905.80 0.1697
905.90 0.1696
906.00 0.1695
906.10 0.1694
906.20 0.1693
906.30 0.1692
906.40 0.1691
906.50 0.169
906.60 0.1689
906.70 0.1687
906.80 0.1686
906.90 0.1685
907.00 0.1684
907.10 0.1683
907.20 0.1682
907.30 0.1681
907.40 0.1679
907.50 0.1678
907.60 0.1677
907.70 0.1676
907.80 0.1675
907.90 0.1673
908.00 0.1672
908.10 0.1671
908.20 0.167
908.30 0.1668
908.40 0.1667
908.50 0.1666
908.60 0.1665
908.70 0.1664
908.80 0.1662
908.90 0.1661
909.00 0.166
909.10 0.1659
909.20 0.1658
909.30 0.1656
909.40 0.1655
909.50 0.1654
909.60 0.1653
909.70 0.1651
909.80 0.165
909.90 0.1649
910.00 0.1648
910.10 0.1647
910.20 0.1645
910.30 0.1644
910.40 0.1643
910.50 0.1642
910.60 0.1641
910.70 0.1639
910.80 0.1638
910.90 0.1637
911.00 0.1636
911.10 0.1635
911.20 0.1633
911.30 0.1632
911.40 0.1631
911.50 0.163
911.60 0.1629
911.70 0.1627
911.80 0.1626
911.90 0.1625
912.00 0.1624
912.10 0.1622
912.20 0.1621
912.30 0.162
912.40 0.1618
912.50 0.1617
912.60 0.1616
912.70 0.1614
912.80 0.1613
912.90 0.1612
913.00 0.1611
913.10 0.1609
913.20 0.1608
913.30 0.1607
913.40 0.1605
913.50 0.1604
913.60 0.1603
913.70 0.1601
913.80 0.16
913.90 0.1599
914.00 0.1597
914.10 0.1596
914.20 0.1595
914.30 0.1593
914.40 0.1592
914.50 0.1591
914.60 0.1589
914.70 0.1588
914.80 0.1587
914.90 0.1585
915.00 0.1584
915.10 0.1583
915.20 0.1582
915.30 0.158
915.40 0.1579
915.50 0.1578
915.60 0.1576
915.70 0.1575
915.80 0.1574
915.90 0.1572
916.00 0.1571
916.10 0.157
916.20 0.1568
916.30 0.1567
916.40 0.1566
916.50 0.1565
916.60 0.1563
916.70 0.1562
916.80 0.1561
916.90 0.1559
917.00 0.1558
917.10 0.1557
917.20 0.1555
917.30 0.1554
917.40 0.1552
917.50 0.1551
917.60 0.155
917.70 0.1548
917.80 0.1547
917.90 0.1545
918.00 0.1544
918.10 0.1543
918.20 0.1541
918.30 0.154
918.40 0.1538
918.50 0.1537
918.60 0.1536
918.70 0.1534
918.80 0.1533
918.90 0.1531
919.00 0.153
919.10 0.1529
919.20 0.1527
919.30 0.1526
919.40 0.1524
919.50 0.1523
919.60 0.1522
919.70 0.152
919.80 0.1519
919.90 0.1517
920.00 0.1516
920.10 0.1515
920.20 0.1513
920.30 0.1512
920.40 0.151
920.50 0.1509
920.60 0.1508
920.70 0.1506
920.80 0.1505
920.90 0.1504
921.00 0.1502
921.10 0.1501
921.20 0.1499
921.30 0.1498
921.40 0.1497
921.50 0.1495
921.60 0.1494
921.70 0.1492
921.80 0.1491
921.90 0.149
922.00 0.1488
922.10 0.1487
922.20 0.1485
922.30 0.1484
922.40 0.1482
922.50 0.1481
922.60 0.148
922.70 0.1478
922.80 0.1477
922.90 0.1475
923.00 0.1474
923.10 0.1472
923.20 0.1471
923.30 0.1469
923.40 0.1468
923.50 0.1466
923.60 0.1465
923.70 0.1464
923.80 0.1462
923.90 0.1461
924.00 0.1459
924.10 0.1458
924.20 0.1456
924.30 0.1455
924.40 0.1453
924.50 0.1452
924.60 0.145
924.70 0.1449
924.80 0.1448
924.90 0.1446
925.00 0.1445
925.10 0.1443
925.20 0.1442
925.30 0.144
925.40 0.1439
925.50 0.1437
925.60 0.1436
925.70 0.1435
925.80 0.1433
925.90 0.1432
926.00 0.143
926.10 0.1429
926.20 0.1427
926.30 0.1426
926.40 0.1424
926.50 0.1423
926.60 0.1422
926.70 0.142
926.80 0.1419
926.90 0.1417
927.00 0.1416
927.10 0.1414
927.20 0.1413
927.30 0.1411
927.40 0.141
927.50 0.1408
927.60 0.1407
927.70 0.1405
927.80 0.1404
927.90 0.1402
928.00 0.1401
928.10 0.1399
928.20 0.1398
928.30 0.1396
928.40 0.1395
928.50 0.1393
928.60 0.1392
928.70 0.139
928.80 0.1389
928.90 0.1387
929.00 0.1386
929.10 0.1384
929.20 0.1383
929.30 0.1381
929.40 0.138
929.50 0.1378
929.60 0.1377
929.70 0.1375
929.80 0.1374
929.90 0.1372
930.00 0.1371
930.10 0.1369
930.20 0.1368
930.30 0.1366
930.40 0.1365
930.50 0.1363
930.60 0.1362
930.70 0.136
930.80 0.1359
930.90 0.1357
931.00 0.1356
931.10 0.1354
931.20 0.1353
931.30 0.1351
931.40 0.135
931.50 0.1348
931.60 0.1347
931.70 0.1345
931.80 0.1344
931.90 0.1342
932.00 0.1341
932.10 0.1339
932.20 0.1338
932.30 0.1336
932.40 0.1335
932.50 0.1333
932.60 0.1332
932.70 0.133
932.80 0.1329
932.90 0.1327
933.00 0.1326
933.10 0.1324
933.20 0.1323
933.30 0.1321
933.40 0.132
933.50 0.1318
933.60 0.1317
933.70 0.1315
933.80 0.1314
933.90 0.1312
934.00 0.1311
934.10 0.1309
934.20 0.1308
934.30 0.1306
934.40 0.1305
934.50 0.1303
934.60 0.1302
934.70 0.13
934.80 0.1299
934.90 0.1297
935.00 0.1296
935.10 0.1294
935.20 0.1292
935.30 0.1291
935.40 0.1289
935.50 0.1288
935.60 0.1286
935.70 0.1285
935.80 0.1283
935.90 0.1282
936.00 0.128
936.10 0.1279
936.20 0.1277
936.30 0.1276
936.40 0.1274
936.50 0.1273
936.60 0.1271
936.70 0.127
936.80 0.1268
936.90 0.1267
937.00 0.1265
937.10 0.1264
937.20 0.1262
937.30 0.1261
937.40 0.1259
937.50 0.1258
937.60 0.1256
937.70 0.1255
937.80 0.1253
937.90 0.1252
938.00 0.125
938.10 0.1249
938.20 0.1247
938.30 0.1246
938.40 0.1244
938.50 0.1243
938.60 0.1241
938.70 0.124
938.80 0.1238
938.90 0.1237
939.00 0.1235
939.10 0.1234
939.20 0.1232
939.30 0.1231
939.40 0.1229
939.50 0.1227
939.60 0.1226
939.70 0.1224
939.80 0.1223
939.90 0.1221
940.00 0.122
940.10 0.1218
940.20 0.1217
940.30 0.1215
940.40 0.1214
940.50 0.1212
940.60 0.1211
940.70 0.1209
940.80 0.1208
940.90 0.1206
941.00 0.1205
941.10 0.1203
941.20 0.1202
941.30 0.12
941.40 0.1199
941.50 0.1197
941.60 0.1196
941.70 0.1194
941.80 0.1193
941.90 0.1191
942.00 0.119
942.10 0.1188
942.20 0.1187
942.30 0.1185
942.40 0.1184
942.50 0.1182
942.60 0.1181
942.70 0.1179
942.80 0.1178
942.90 0.1176
943.00 0.1175
943.10 0.1173
943.20 0.1172
943.30 0.117
943.40 0.1169
943.50 0.1168
943.60 0.1166
943.70 0.1165
943.80 0.1163
943.90 0.1162
944.00 0.116
944.10 0.1159
944.20 0.1157
944.30 0.1156
944.40 0.1154
944.50 0.1153
944.60 0.1151
944.70 0.115
944.80 0.1148
944.90 0.1147
945.00 0.1145
945.10 0.1144
945.20 0.1142
945.30 0.1141
945.40 0.1139
945.50 0.1138
945.60 0.1136
945.70 0.1135
945.80 0.1134
945.90 0.1132
946.00 0.1131
946.10 0.1129
946.20 0.1128
946.30 0.1126
946.40 0.1125
946.50 0.1123
946.60 0.1122
946.70 0.112
946.80 0.1119
946.90 0.1117
947.00 0.1116
947.10 0.1114
947.20 0.1113
947.30 0.1112
947.40 0.111
947.50 0.1109
947.60 0.1107
947.70 0.1106
947.80 0.1104
947.90 0.1103
948.00 0.1101
948.10 0.11
948.20 0.1098
948.30 0.1097
948.40 0.1096
948.50 0.1094
948.60 0.1093
948.70 0.1091
948.80 0.109
948.90 0.1088
949.00 0.1087
949.10 0.1085
949.20 0.1084
949.30 0.1082
949.40 0.1081
949.50 0.108
949.60 0.1078
949.70 0.1077
949.80 0.1075
949.90 0.1074
950.00 0.1072
950.10 0.1071
950.20 0.1069
950.30 0.1068
950.40 0.1067
950.50 0.1065
950.60 0.1064
950.70 0.1062
950.80 0.1061
950.90 0.1059
951.00 0.1058
951.10 0.1057
951.20 0.1055
951.30 0.1054
951.40 0.1052
951.50 0.1051
951.60 0.1049
951.70 0.1048
951.80 0.1047
951.90 0.1045
952.00 0.1044
952.10 0.1042
952.20 0.1041
952.30 0.1039
952.40 0.1038
952.50 0.1037
952.60 0.1035
952.70 0.1034
952.80 0.1032
952.90 0.1031
953.00 0.1029
953.10 0.1028
953.20 0.1027
953.30 0.1025
953.40 0.1024
953.50 0.1022
953.60 0.1021
953.70 0.102
953.80 0.1018
953.90 0.1017
954.00 0.1015
954.10 0.1014
954.20 0.1013
954.30 0.1011
954.40 0.101
954.50 0.1008
954.60 0.1007
954.70 0.1006
954.80 0.1004
954.90 0.1003
955.00 0.1001
955.10 0.09999
955.20 0.09985
955.30 0.09971
955.40 0.09957
955.50 0.09943
955.60 0.09929
955.70 0.09915
955.80 0.09902
955.90 0.09887
956.00 0.09873
956.10 0.09859
956.20 0.09845
956.30 0.09831
956.40 0.09816
956.50 0.09802
956.60 0.09788
956.70 0.09774
956.80 0.0976
956.90 0.09746
957.00 0.09731
957.10 0.09718
957.20 0.09704
957.30 0.0969
957.40 0.09676
957.50 0.09662
957.60 0.09649
957.70 0.09635
957.80 0.09621
957.90 0.09608
958.00 0.09594
958.10 0.0958
958.20 0.09567
958.30 0.09553
958.40 0.09539
958.50 0.09526
958.60 0.09512
958.70 0.09498
958.80 0.09485
958.90 0.09471
959.00 0.09457
959.10 0.09444
959.20 0.0943
959.30 0.09416
959.40 0.09403
959.50 0.09389
959.60 0.09376
959.70 0.09362
959.80 0.09349
959.90 0.09335
960.00 0.09322
960.10 0.09308
960.20 0.09295
960.30 0.09282
960.40 0.09268
960.50 0.09255
960.60 0.09241
960.70 0.09228
960.80 0.09214
960.90 0.09201
961.00 0.09188
961.10 0.09174
961.20 0.09161
961.30 0.09147
961.40 0.09134
961.50 0.09121
961.60 0.09107
961.70 0.09094
961.80 0.09081
961.90 0.09067
962.00 0.09054
962.10 0.09041
962.20 0.09028
962.30 0.09014
962.40 0.09001
962.50 0.08988
962.60 0.08975
962.70 0.08962
962.80 0.08948
962.90 0.08935
963.00 0.08922
963.10 0.08909
963.20 0.08896
963.30 0.08883
963.40 0.08869
963.50 0.08856
963.60 0.08843
963.70 0.0883
963.80 0.08817
963.90 0.08804
964.00 0.08791
964.10 0.08778
964.20 0.08765
964.30 0.08752
964.40 0.08739
964.50 0.08725
964.60 0.08712
964.70 0.08699
964.80 0.08685
964.90 0.08672
965.00 0.08659
965.10 0.08646
965.20 0.08632
965.30 0.08619
965.40 0.08606
965.50 0.08593
965.60 0.08579
965.70 0.08566
965.80 0.08553
965.90 0.0854
966.00 0.08527
966.10 0.08513
966.20 0.085
966.30 0.08487
966.40 0.08474
966.50 0.08461
966.60 0.08449
966.70 0.08436
966.80 0.08423
966.90 0.08411
967.00 0.08398
967.10 0.08385
967.20 0.08373
967.30 0.0836
967.40 0.08347
967.50 0.08335
967.60 0.08322
967.70 0.0831
967.80 0.08297
967.90 0.08285
968.00 0.08272
968.10 0.08259
968.20 0.08247
968.30 0.08234
968.40 0.08222
968.50 0.08209
968.60 0.08197
968.70 0.08185
968.80 0.08172
968.90 0.0816
969.00 0.08148
969.10 0.08135
969.20 0.08123
969.30 0.08111
969.40 0.08098
969.50 0.08086
969.60 0.08074
969.70 0.08061
969.80 0.08049
969.90 0.08037
970.00 0.08024
970.10 0.08012
970.20 0.08
970.30 0.07988
970.40 0.07975
970.50 0.07963
970.60 0.07951
970.70 0.07939
970.80 0.07927
970.90 0.07915
971.00 0.07903
971.10 0.07891
971.20 0.07879
971.30 0.07867
971.40 0.07855
971.50 0.07843
971.60 0.07831
971.70 0.07819
971.80 0.07807
971.90 0.07795
972.00 0.07783
972.10 0.07771
972.20 0.07759
972.30 0.07747
972.40 0.07735
972.50 0.07724
972.60 0.07712
972.70 0.077
972.80 0.07688
972.90 0.07676
973.00 0.07665
973.10 0.07653
973.20 0.07641
973.30 0.07629
973.40 0.07618
973.50 0.07606
973.60 0.07594
973.70 0.07582
973.80 0.07571
973.90 0.07559
974.00 0.07547
974.10 0.07535
974.20 0.07524
974.30 0.07512
974.40 0.075
974.50 0.07489
974.60 0.07477
974.70 0.07465
974.80 0.07454
974.90 0.07442
975.00 0.07431
975.10 0.07419
975.20 0.07408
975.30 0.07396
975.40 0.07384
975.50 0.07373
975.60 0.07361
975.70 0.0735
975.80 0.07338
975.90 0.07327
976.00 0.07315
976.10 0.07304
976.20 0.07292
976.30 0.07281
976.40 0.07269
976.50 0.07257
976.60 0.07246
976.70 0.07234
976.80 0.07223
976.90 0.07211
977.00 0.072
977.10 0.07189
977.20 0.07178
977.30 0.07167
977.40 0.07156
977.50 0.07145
977.60 0.07135
977.70 0.07124
977.80 0.07113
977.90 0.07102
978.00 0.07091
978.10 0.0708
978.20 0.07069
978.30 0.07058
978.40 0.07048
978.50 0.07037
978.60 0.07026
978.70 0.07015
978.80 0.07004
978.90 0.06993
979.00 0.06982
979.10 0.06972
979.20 0.06961
979.30 0.0695
979.40 0.06939
979.50 0.06928
979.60 0.06918
979.70 0.06907
979.80 0.06896
979.90 0.06885
980.00 0.06874
980.10 0.06864
980.20 0.06853
980.30 0.06842
980.40 0.06831
980.50 0.06821
980.60 0.0681
980.70 0.06799
980.80 0.06788
980.90 0.06777
981.00 0.06767
981.10 0.06756
981.20 0.06745
981.30 0.06735
981.40 0.06724
981.50 0.06713
981.60 0.06702
981.70 0.06692
981.80 0.06681
981.90 0.0667
982.00 0.0666
982.10 0.06649
982.20 0.06639
982.30 0.06629
982.40 0.06618
982.50 0.06608
982.60 0.06598
982.70 0.06588
982.80 0.06577
982.90 0.06567
983.00 0.06557
983.10 0.06546
983.20 0.06536
983.30 0.06526
983.40 0.06516
983.50 0.06505
983.60 0.06495
983.70 0.06485
983.80 0.06475
983.90 0.06465
984.00 0.06454
984.10 0.06444
984.20 0.06434
984.30 0.06424
984.40 0.06413
984.50 0.06403
984.60 0.06393
984.70 0.06383
984.80 0.06374
984.90 0.06364
985.00 0.06355
985.10 0.06345
985.20 0.06336
985.30 0.06326
985.40 0.06317
985.50 0.06307
985.60 0.06297
985.70 0.06288
985.80 0.06278
985.90 0.06269
986.00 0.06259
986.10 0.0625
986.20 0.0624
986.30 0.06231
986.40 0.06221
986.50 0.06212
986.60 0.06202
986.70 0.06193
986.80 0.06183
986.90 0.06174
987.00 0.06164
987.10 0.06155
987.20 0.06145
987.30 0.06135
987.40 0.06125
987.50 0.06115
987.60 0.06105
987.70 0.06095
987.80 0.06085
987.90 0.06075
988.00 0.06065
988.10 0.06056
988.20 0.06046
988.30 0.06036
988.40 0.06026
988.50 0.06016
988.60 0.06006
988.70 0.05996
988.80 0.05987
988.90 0.05977
989.00 0.05967
989.10 0.05957
989.20 0.05947
989.30 0.05938
989.40 0.05928
989.50 0.05918
989.60 0.05908
989.70 0.05898
989.80 0.05889
989.90 0.05879
990.00 0.05869
990.10 0.05859
990.20 0.05849
990.30 0.0584
990.40 0.0583
990.50 0.0582
990.60 0.0581
990.70 0.05801
990.80 0.05791
990.90 0.05781
991.00 0.05771
991.10 0.05762
991.20 0.05752
991.30 0.05742
991.40 0.05733
991.50 0.05723
991.60 0.05713
991.70 0.05704
991.80 0.05694
991.90 0.05684
992.00 0.05674
992.10 0.05665
992.20 0.05655
992.30 0.05645
992.40 0.05636
992.50 0.05626
992.60 0.05616
992.70 0.05607
992.80 0.05597
992.90 0.05588
993.00 0.05578
993.10 0.05568
993.20 0.05559
993.30 0.05549
993.40 0.05539
993.50 0.0553
993.60 0.0552
993.70 0.05511
993.80 0.05501
993.90 0.05491
994.00 0.05482
994.10 0.05472
994.20 0.05463
994.30 0.05453
994.40 0.05444
994.50 0.05434
994.60 0.05424
994.70 0.05413
994.80 0.05401
994.90 0.05389
995.00 0.05378
995.10 0.05366
995.20 0.05354
995.30 0.05342
995.40 0.0533
995.50 0.05319
995.60 0.05307
995.70 0.05297
995.80 0.05288
995.90 0.05279
996.00 0.05269
996.10 0.0526
996.20 0.05251
996.30 0.05242
996.40 0.05233
996.50 0.05223
996.60 0.05214
996.70 0.05205
996.80 0.05196
996.90 0.05187
997.00 0.05177
997.10 0.05168
997.20 0.05159
997.30 0.0515
997.40 0.05142
997.50 0.05133
997.60 0.05124
997.70 0.05115
997.80 0.05106
997.90 0.05097
998.00 0.05089
998.10 0.0508
998.20 0.05071
998.30 0.05063
998.40 0.05054
998.50 0.05045
998.60 0.05037
998.70 0.05028
998.80 0.05019
998.90 0.0501
999.00 0.05002
999.10 0.04993
999.20 0.04984
999.30 0.04976
999.40 0.04967
999.50 0.04958
999.60 0.0495
999.70 0.04941
999.80 0.04933
999.90 0.04925
1000.00 0.04917
1000.10 0.04908
1000.20 0.049
1000.30 0.04892
1000.40 0.04884
1000.50 0.04875
1000.60 0.04867
1000.70 0.04859
1000.80 0.04851
1000.90 0.04842
1001.00 0.04834
1001.10 0.04826
1001.20 0.04818
1001.30 0.04809
1001.40 0.04801
1001.50 0.04793
1001.60 0.04785
1001.70 0.04777
1001.80 0.04769
1001.90 0.04761
1002.00 0.04753
1002.10 0.04745
1002.20 0.04737
1002.30 0.04729
1002.40 0.04721
1002.50 0.04713
1002.60 0.04705
1002.70 0.04697
1002.80 0.0469
1002.90 0.04682
1003.00 0.04674
1003.10 0.04666
1003.20 0.04658
1003.30 0.04651
1003.40 0.04643
1003.50 0.04635
1003.60 0.04628
1003.70 0.0462
1003.80 0.04612
1003.90 0.04605
1004.00 0.04597
1004.10 0.04589
1004.20 0.04582
1004.30 0.04574
1004.40 0.04567
1004.50 0.04559
1004.60 0.04552
1004.70 0.04544
1004.80 0.04537
1004.90 0.04527
1005.00 0.04516
1005.10 0.04508
1005.20 0.04501
1005.30 0.04494
1005.40 0.04486
1005.50 0.04479
1005.60 0.04472
1005.70 0.04465
1005.80 0.04458
1005.90 0.0445
1006.00 0.04443
1006.10 0.04436
1006.20 0.04429
1006.30 0.04422
1006.40 0.04415
1006.50 0.04408
1006.60 0.04401
1006.70 0.04394
1006.80 0.04386
1006.90 0.04379
1007.00 0.04372
1007.10 0.04366
1007.20 0.04359
1007.30 0.04352
1007.40 0.04345
1007.50 0.04338
1007.60 0.04331
1007.70 0.04325
1007.80 0.04318
1007.90 0.04311
1008.00 0.04305
1008.10 0.04298
1008.20 0.04292
1008.30 0.04285
1008.40 0.04278
1008.50 0.04272
1008.60 0.04265
1008.70 0.04259
1008.80 0.04252
1008.90 0.04245
1009.00 0.04239
1009.10 0.04232
1009.20 0.04226
1009.30 0.04219
1009.40 0.04212
1009.50 0.04206
1009.60 0.04199
1009.70 0.04193
1009.80 0.04187
1009.90 0.04181
1010.00 0.04174
1010.10 0.04168
1010.20 0.04162
1010.30 0.04156
1010.40 0.0415
1010.50 0.04143
1010.60 0.04137
1010.70 0.04131
1010.80 0.04125
1010.90 0.04119
1011.00 0.04113
1011.10 0.04106
1011.20 0.041
1011.30 0.04094
1011.40 0.04088
1011.50 0.04082
1011.60 0.04076
1011.70 0.0407
1011.80 0.04064
1011.90 0.04058
1012.00 0.04052
1012.10 0.04046
1012.20 0.0404
1012.30 0.04035
1012.40 0.04029
1012.50 0.04023
1012.60 0.04017
1012.70 0.04011
1012.80 0.04006
1012.90 0.04
1013.00 0.03994
1013.10 0.03988
1013.20 0.03983
1013.30 0.03977
1013.40 0.03971
1013.50 0.03965
1013.60 0.0396
1013.70 0.03954
1013.80 0.03949
1013.90 0.03943
1014.00 0.03938
1014.10 0.03932
1014.20 0.03927
1014.30 0.03921
1014.40 0.03916
1014.50 0.0391
1014.60 0.03905
1014.70 0.039
1014.80 0.03895
1014.90 0.0389
1015.00 0.03885
1015.10 0.03881
1015.20 0.03876
1015.30 0.03871
1015.40 0.03866
1015.50 0.03862
1015.60 0.03857
1015.70 0.03852
1015.80 0.03847
1015.90 0.03843
1016.00 0.03838
1016.10 0.03833
1016.20 0.03828
1016.30 0.03824
1016.40 0.03819
1016.50 0.03814
1016.60 0.03809
1016.70 0.03804
1016.80 0.03799
1016.90 0.03794
1017.00 0.03789
1017.10 0.03784
1017.20 0.03779
1017.30 0.03774
1017.40 0.03768
1017.50 0.03763
1017.60 0.03758
1017.70 0.03753
1017.80 0.03748
1017.90 0.03743
1018.00 0.03738
1018.10 0.03733
1018.20 0.03728
1018.30 0.03723
1018.40 0.03718
1018.50 0.03713
1018.60 0.03708
1018.70 0.03703
1018.80 0.03698
1018.90 0.03693
1019.00 0.03688
1019.10 0.03683
1019.20 0.03678
1019.30 0.03673
1019.40 0.03668
1019.50 0.03663
1019.60 0.03658
1019.70 0.03653
1019.80 0.03648
1019.90 0.03643
1020.00 0.03638
1020.10 0.03634
1020.20 0.03629
1020.30 0.03624
1020.40 0.03619
1020.50 0.03614
1020.60 0.03609
1020.70 0.03604
1020.80 0.03599
1020.90 0.03595
1021.00 0.0359
1021.10 0.03585
1021.20 0.0358
1021.30 0.03575
1021.40 0.03571
1021.50 0.03566
1021.60 0.03561
1021.70 0.03556
1021.80 0.03552
1021.90 0.03547
1022.00 0.03542
1022.10 0.03537
1022.20 0.03533
1022.30 0.03528
1022.40 0.03523
1022.50 0.03519
1022.60 0.03514
1022.70 0.0351
1022.80 0.03505
1022.90 0.035
1023.00 0.03496
1023.10 0.03491
1023.20 0.03486
1023.30 0.03482
1023.40 0.03477
1023.50 0.03473
1023.60 0.03468
1023.70 0.03463
1023.80 0.03459
1023.90 0.03454
1024.00 0.0345
1024.10 0.03445
1024.20 0.0344
1024.30 0.03436
1024.40 0.03431
1024.50 0.03427
1024.60 0.03422
1024.70 0.03417
1024.80 0.03413
1024.90 0.03408
1025.00 0.03404
1025.10 0.03399
1025.20 0.03395
1025.30 0.0339
1025.40 0.03386
1025.50 0.03381
1025.60 0.03377
1025.70 0.03372
1025.80 0.03367
1025.90 0.03363
1026.00 0.03358
1026.10 0.03354
1026.20 0.03349
1026.30 0.03345
1026.40 0.0334
1026.50 0.03336
1026.60 0.03331
1026.70 0.03327
1026.80 0.03322
1026.90 0.03318
1027.00 0.03313
1027.10 0.03309
1027.20 0.03305
1027.30 0.03301
1027.40 0.03297
1027.50 0.03293
1027.60 0.03289
1027.70 0.03284
1027.80 0.0328
1027.90 0.03276
1028.00 0.03272
1028.10 0.03268
1028.20 0.03264
1028.30 0.0326
1028.40 0.03256
1028.50 0.03252
1028.60 0.03248
1028.70 0.03243
1028.80 0.03239
1028.90 0.03235
1029.00 0.03231
1029.10 0.03227
1029.20 0.03223
1029.30 0.03219
1029.40 0.03215
1029.50 0.03211
1029.60 0.03207
1029.70 0.03203
1029.80 0.03199
1029.90 0.03195
1030.00 0.0319
1030.10 0.03186
1030.20 0.03182
1030.30 0.03178
1030.40 0.03174
1030.50 0.0317
1030.60 0.03166
1030.70 0.03162
1030.80 0.03158
1030.90 0.03154
1031.00 0.0315
1031.10 0.03146
1031.20 0.03142
1031.30 0.03138
1031.40 0.03134
1031.50 0.0313
1031.60 0.03126
1031.70 0.03122
1031.80 0.03117
1031.90 0.03113
1032.00 0.03109
1032.10 0.03106
1032.20 0.03102
1032.30 0.03098
1032.40 0.03095
1032.50 0.03091
1032.60 0.03087
1032.70 0.03083
1032.80 0.0308
1032.90 0.03076
1033.00 0.03072
1033.10 0.03069
1033.20 0.03065
1033.30 0.03061
1033.40 0.03057
1033.50 0.03054
1033.60 0.0305
1033.70 0.03046
1033.80 0.03043
1033.90 0.03039
1034.00 0.03035
1034.10 0.03031
1034.20 0.03028
1034.30 0.03024
1034.40 0.0302
1034.50 0.03017
1034.60 0.03013
1034.70 0.03009
1034.80 0.03006
1034.90 0.03002
1035.00 0.02998
1035.10 0.02995
1035.20 0.02991
1035.30 0.02987
1035.40 0.02984
1035.50 0.0298
1035.60 0.02976
1035.70 0.02973
1035.80 0.02969
1035.90 0.02965
1036.00 0.02962
1036.10 0.02958
1036.20 0.02954
1036.30 0.02951
1036.40 0.02947
1036.50 0.02943
1036.60 0.0294
1036.70 0.02936
1036.80 0.02932
1036.90 0.02929
1037.00 0.02925
1037.10 0.02922
1037.20 0.02918
1037.30 0.02915
1037.40 0.02912
1037.50 0.02909
1037.60 0.02905
1037.70 0.02902
1037.80 0.02899
1037.90 0.02896
1038.00 0.02893
1038.10 0.02889
1038.20 0.02886
1038.30 0.02883
1038.40 0.0288
1038.50 0.02876
1038.60 0.02873
1038.70 0.0287
1038.80 0.02867
1038.90 0.02864
1039.00 0.0286
1039.10 0.02857
1039.20 0.02854
1039.30 0.02851
1039.40 0.02847
1039.50 0.02844
1039.60 0.02841
1039.70 0.02838
1039.80 0.02835
1039.90 0.02831
1040.00 0.02828
1040.10 0.02825
1040.20 0.02822
1040.30 0.02819
1040.40 0.02815
1040.50 0.02812
1040.60 0.02809
1040.70 0.02806
1040.80 0.02803
1040.90 0.02799
1041.00 0.02796
1041.10 0.02793
1041.20 0.0279
1041.30 0.02787
1041.40 0.02783
1041.50 0.0278
1041.60 0.02777
1041.70 0.02774
1041.80 0.02771
1041.90 0.02768
1042.00 0.02764
1042.10 0.02762
1042.20 0.02759
1042.30 0.02756
1042.40 0.02753
1042.50 0.0275
1042.60 0.02747
1042.70 0.02745
1042.80 0.02742
1042.90 0.02739
1043.00 0.02736
1043.10 0.02733
1043.20 0.02731
1043.30 0.02728
1043.40 0.02725
1043.50 0.02722
1043.60 0.02719
1043.70 0.02717
1043.80 0.02714
1043.90 0.02711
1044.00 0.02708
1044.10 0.02705
1044.20 0.02703
1044.30 0.027
1044.40 0.02697
1044.50 0.02694
1044.60 0.02691
1044.70 0.02689
1044.80 0.02686
1044.90 0.02683
1045.00 0.0268
1045.10 0.02677
1045.20 0.02675
1045.30 0.02672
1045.40 0.02669
1045.50 0.02666
1045.60 0.02663
1045.70 0.02661
1045.80 0.02658
1045.90 0.02655
1046.00 0.02652
1046.10 0.0265
1046.20 0.02647
1046.30 0.02644
1046.40 0.02641
1046.50 0.02638
1046.60 0.02636
1046.70 0.02633
1046.80 0.0263
1046.90 0.02627
1047.00 0.02625
1047.10 0.02622
1047.20 0.0262
1047.30 0.02617
1047.40 0.02615
1047.50 0.02612
1047.60 0.0261
1047.70 0.02608
1047.80 0.02605
1047.90 0.02603
1048.00 0.026
1048.10 0.02598
1048.20 0.02596
1048.30 0.02593
1048.40 0.02591
1048.50 0.02588
1048.60 0.02586
1048.70 0.02584
1048.80 0.02581
1048.90 0.02579
1049.00 0.02576
1049.10 0.02574
1049.20 0.02571
1049.30 0.02569
1049.40 0.02567
1049.50 0.02564
1049.60 0.02562
1049.70 0.02559
1049.80 0.02557
1049.90 0.02555
1050.00 0.02552
1050.10 0.0255
1050.20 0.02547
1050.30 0.02545
1050.40 0.02543
1050.50 0.0254
1050.60 0.02538
1050.70 0.02536
1050.80 0.02533
1050.90 0.02531
1051.00 0.02528
1051.10 0.02526
1051.20 0.02524
1051.30 0.02521
1051.40 0.02519
1051.50 0.02516
1051.60 0.02514
1051.70 0.02512
1051.80 0.02509
1051.90 0.02507
1052.00 0.02505
1052.10 0.02502
1052.20 0.025
1052.30 0.02498
1052.40 0.02496
1052.50 0.02494
1052.60 0.02491
1052.70 0.02489
1052.80 0.02487
1052.90 0.02485
1053.00 0.02483
1053.10 0.02481
1053.20 0.02478
1053.30 0.02476
1053.40 0.02474
1053.50 0.02472
1053.60 0.0247
1053.70 0.02468
1053.80 0.02466
1053.90 0.02463
1054.00 0.02461
1054.10 0.02459
1054.20 0.02457
1054.30 0.02455
1054.40 0.02453
1054.50 0.0245
1054.60 0.02448
1054.70 0.02446
1054.80 0.02444
1054.90 0.02442
1055.00 0.0244
1055.10 0.02437
1055.20 0.02435
1055.30 0.02433
1055.40 0.02431
1055.50 0.02429
1055.60 0.02427
1055.70 0.02425
1055.80 0.02422
1055.90 0.0242
1056.00 0.02418
1056.10 0.02416
1056.20 0.02414
1056.30 0.02412
1056.40 0.0241
1056.50 0.02407
1056.60 0.02405
1056.70 0.02403
1056.80 0.02401
1056.90 0.02399
1057.00 0.02397
1057.10 0.02395
1057.20 0.02393
1057.30 0.02391
1057.40 0.02389
1057.50 0.02387
1057.60 0.02385
1057.70 0.02383
1057.80 0.02381
1057.90 0.0238
1058.00 0.02378
1058.10 0.02376
1058.20 0.02374
1058.30 0.02372
1058.40 0.0237
1058.50 0.02368
1058.60 0.02366
1058.70 0.02364
1058.80 0.02362
1058.90 0.0236
1059.00 0.02359
1059.10 0.02357
1059.20 0.02355
1059.30 0.02353
1059.40 0.02351
1059.50 0.02349
1059.60 0.02347
1059.70 0.02345
1059.80 0.02343
1059.90 0.02341
1060.00 0.0234
1060.10 0.02338
1060.20 0.02336
1060.30 0.02334
1060.40 0.02332
1060.50 0.0233
1060.60 0.02328
1060.70 0.02326
1060.80 0.02324
1060.90 0.02322
1061.00 0.02321
1061.10 0.02319
1061.20 0.02317
1061.30 0.02315
1061.40 0.02313
1061.50 0.02311
1061.60 0.02309
1061.70 0.02307
1061.80 0.02305
1061.90 0.02304
1062.00 0.02302
1062.10 0.023
1062.20 0.02298
1062.30 0.02297
1062.40 0.02295
1062.50 0.02293
1062.60 0.02292
1062.70 0.0229
1062.80 0.02288
1062.90 0.02287
1063.00 0.02285
1063.10 0.02283
1063.20 0.02282
1063.30 0.0228
1063.40 0.02279
1063.50 0.02277
1063.60 0.02275
1063.70 0.02274
1063.80 0.02272
1063.90 0.0227
1064.00 0.02269
1064.10 0.02267
1064.20 0.02265
1064.30 0.02264
1064.40 0.02262
1064.50 0.0226
1064.60 0.02259
1064.70 0.02257
1064.80 0.02256
1064.90 0.02254
1065.00 0.02252
1065.10 0.02251
1065.20 0.02249
1065.30 0.02247
1065.40 0.02246
1065.50 0.02244
1065.60 0.02242
1065.70 0.02241
1065.80 0.02239
1065.90 0.02238
1066.00 0.02236
1066.10 0.02234
1066.20 0.02233
1066.30 0.02231
1066.40 0.02229
1066.50 0.02228
1066.60 0.02226
1066.70 0.02224
1066.80 0.02223
1066.90 0.02221
1067.00 0.0222
1067.10 0.02218
1067.20 0.02217
1067.30 0.02215
1067.40 0.02214
1067.50 0.02212
1067.60 0.02211
1067.70 0.02209
1067.80 0.02208
1067.90 0.02206
1068.00 0.02205
1068.10 0.02203
1068.20 0.02202
1068.30 0.022
1068.40 0.02199
1068.50 0.02197
1068.60 0.02196
1068.70 0.02194
1068.80 0.02193
1068.90 0.02191
1069.00 0.0219
1069.10 0.02188
1069.20 0.02187
1069.30 0.02185
1069.40 0.02184
1069.50 0.02182
1069.60 0.02181
1069.70 0.02179
1069.80 0.02178
1069.90 0.02177
1070.00 0.02175
1070.10 0.02174
1070.20 0.02172
1070.30 0.02171
1070.40 0.02169
1070.50 0.02168
1070.60 0.02166
1070.70 0.02165
1070.80 0.02163
1070.90 0.02162
1071.00 0.0216
1071.10 0.02159
1071.20 0.02157
1071.30 0.02156
1071.40 0.02154
1071.50 0.02153
1071.60 0.02151
1071.70 0.0215
1071.80 0.02149
1071.90 0.02147
1072.00 0.02146
1072.10 0.02144
1072.20 0.02143
1072.30 0.02142
1072.40 0.02141
1072.50 0.0214
1072.60 0.02138
1072.70 0.02137
1072.80 0.02136
1072.90 0.02135
1073.00 0.02134
1073.10 0.02133
1073.20 0.02131
1073.30 0.0213
1073.40 0.02129
1073.50 0.02128
1073.60 0.02127
1073.70 0.02126
1073.80 0.02125
1073.90 0.02124
1074.00 0.02123
1074.10 0.02122
1074.20 0.02121
1074.30 0.0212
1074.40 0.02119
1074.50 0.02118
1074.60 0.02117
1074.70 0.02116
1074.80 0.02115
1074.90 0.02113
1075.00 0.02112
1075.10 0.02111
1075.20 0.0211
1075.30 0.02109
1075.40 0.02108
1075.50 0.02107
1075.60 0.02106
1075.70 0.02105
1075.80 0.02104
1075.90 0.02103
1076.00 0.02102
1076.10 0.02101
1076.20 0.021
1076.30 0.02099
1076.40 0.02098
1076.50 0.02097
1076.60 0.02096
1076.70 0.02095
1076.80 0.02094
1076.90 0.02093
1077.00 0.02092
1077.10 0.02091
1077.20 0.0209
1077.30 0.02089
1077.40 0.02089
1077.50 0.02088
1077.60 0.02087
1077.70 0.02086
1077.80 0.02085
1077.90 0.02084
1078.00 0.02084
1078.10 0.02083
1078.20 0.02082
1078.30 0.02081
1078.40 0.0208
1078.50 0.0208
1078.60 0.02079
1078.70 0.02078
1078.80 0.02077
1078.90 0.02076
1079.00 0.02075
1079.10 0.02075
1079.20 0.02074
1079.30 0.02073
1079.40 0.02072
1079.50 0.02071
1079.60 0.02071
1079.70 0.0207
1079.80 0.0207
1079.90 0.02069
1080.00 0.02068
1080.10 0.02068
1080.20 0.02067
1080.30 0.02067
1080.40 0.02066
1080.50 0.02065
1080.60 0.02065
1080.70 0.02064
1080.80 0.02064
1080.90 0.02063
1081.00 0.02062
1081.10 0.02062
1081.20 0.02061
1081.30 0.02061
1081.40 0.0206
1081.50 0.02059
1081.60 0.02059
1081.70 0.02058
1081.80 0.02057
1081.90 0.02057
1082.00 0.02056
1082.10 0.02056
1082.20 0.02055
1082.30 0.02055
1082.40 0.02054
1082.50 0.02053
1082.60 0.02053
1082.70 0.02052
1082.80 0.02052
1082.90 0.02051
1083.00 0.02051
1083.10 0.0205
1083.20 0.0205
1083.30 0.02049
1083.40 0.02048
1083.50 0.02048
1083.60 0.02047
1083.70 0.02047
1083.80 0.02046
1083.90 0.02046
1084.00 0.02045
1084.10 0.02045
1084.20 0.02044
1084.30 0.02044
1084.40 0.02043
1084.50 0.02043
1084.60 0.02043
1084.70 0.02042
1084.80 0.02042
1084.90 0.02041
1085.00 0.02041
1085.10 0.0204
1085.20 0.0204
1085.30 0.0204
1085.40 0.02039
1085.50 0.02039
1085.60 0.02038
1085.70 0.02038
1085.80 0.02037
1085.90 0.02037
1086.00 0.02037
1086.10 0.02036
1086.20 0.02036
1086.30 0.02035
1086.40 0.02035
1086.50 0.02035
1086.60 0.02034
1086.70 0.02034
1086.80 0.02033
1086.90 0.02033
1087.00 0.02033
1087.10 0.02032
1087.20 0.02032
1087.30 0.02032
1087.40 0.02031
1087.50 0.02031
1087.60 0.02031
1087.70 0.02031
1087.80 0.0203
1087.90 0.0203
1088.00 0.0203
1088.10 0.02029
1088.20 0.02029
1088.30 0.02029
1088.40 0.02028
1088.50 0.02028
1088.60 0.02028
1088.70 0.02028
1088.80 0.02028
1088.90 0.02027
1089.00 0.02027
1089.10 0.02027
1089.20 0.02027
1089.30 0.02026
1089.40 0.02026
1089.50 0.02026
1089.60 0.02026
1089.70 0.02026
1089.80 0.02025
1089.90 0.02025
1090.00 0.02025
1090.10 0.02025
1090.20 0.02025
1090.30 0.02024
1090.40 0.02024
1090.50 0.02024
1090.60 0.02024
1090.70 0.02024
1090.80 0.02024
1090.90 0.02023
1091.00 0.02023
1091.10 0.02023
1091.20 0.02023
1091.30 0.02023
1091.40 0.02023
1091.50 0.02023
1091.60 0.02022
1091.70 0.02022
1091.80 0.02022
1091.90 0.02022
1092.00 0.02022
1092.10 0.02022
1092.20 0.02022
1092.30 0.02022
1092.40 0.02022
1092.50 0.02021
1092.60 0.02021
1092.70 0.02022
1092.80 0.02023
1092.90 0.02024
1093.00 0.02025
1093.10 0.02026
1093.20 0.02026
1093.30 0.02026
1093.40 0.02026
1093.50 0.02026
1093.60 0.02026
1093.70 0.02026
1093.80 0.02026
1093.90 0.02026
1094.00 0.02026
1094.10 0.02026
1094.20 0.02026
1094.30 0.02025
1094.40 0.02025
1094.50 0.02025
1094.60 0.02025
1094.70 0.02025
1094.80 0.02025
1094.90 0.02025
1095.00 0.02025
1095.10 0.02025
1095.20 0.02025
1095.30 0.02025
1095.40 0.02025
1095.50 0.02026
1095.60 0.02026
1095.70 0.02026
1095.80 0.02026
1095.90 0.02026
1096.00 0.02026
1096.10 0.02026
1096.20 0.02026
1096.30 0.02026
1096.40 0.02026
1096.50 0.02026
1096.60 0.02026
1096.70 0.02026
1096.80 0.02026
1096.90 0.02026
1097.00 0.02026
1097.10 0.02026
1097.20 0.02026
1097.30 0.02026
1097.40 0.02026
1097.50 0.02026
1097.60 0.02026
1097.70 0.02026
1097.80 0.02026
1097.90 0.02026
1098.00 0.02027
1098.10 0.02027
1098.20 0.02027
1098.30 0.02027
1098.40 0.02027
1098.50 0.02027
1098.60 0.02027
1098.70 0.02027
1098.80 0.02027
1098.90 0.02027
1099.00 0.02027
1099.10 0.02027
1099.20 0.02028
1099.30 0.02028
1099.40 0.02028
1099.50 0.02028
1099.60 0.02028
1099.70 0.02028
1099.80 0.02028
1099.90 0.02028
1100.00 0.02028
1100.10 0.02028
1100.20 0.02029
1100.30 0.02029
1100.40 0.02029
1100.50 0.02029
1100.60 0.02029
1100.70 0.02029
1100.80 0.02029
1100.90 0.02029
1101.00 0.0203
1101.10 0.0203
1101.20 0.0203
1101.30 0.0203
1101.40 0.0203
1101.50 0.0203
1101.60 0.02031
1101.70 0.02031
1101.80 0.02031
1101.90 0.02031
1102.00 0.02031
1102.10 0.02031
1102.20 0.02031
1102.30 0.02032
1102.40 0.02032
1102.50 0.02032
1102.60 0.02032
1102.70 0.02032
1102.80 0.02032
1102.90 0.02033
1103.00 0.02033
1103.10 0.02033
1103.20 0.02033
1103.30 0.02033
1103.40 0.02033
1103.50 0.02034
1103.60 0.02034
1103.70 0.02034
1103.80 0.02034
1103.90 0.02034
1104.00 0.02035
1104.10 0.02035
1104.20 0.02035
1104.30 0.02035
1104.40 0.02035
1104.50 0.02036
1104.60 0.02036
1104.70 0.02036
1104.80 0.02036
1104.90 0.02036
1105.00 0.02037
1105.10 0.02037
1105.20 0.02037
1105.30 0.02037
1105.40 0.02037
1105.50 0.02038
1105.60 0.02038
1105.70 0.02038
1105.80 0.02038
1105.90 0.02039
1106.00 0.02039
1106.10 0.02039
1106.20 0.02039
1106.30 0.0204
1106.40 0.0204
1106.50 0.0204
1106.60 0.0204
1106.70 0.02041
1106.80 0.02041
1106.90 0.02041
1107.00 0.02041
1107.10 0.02042
1107.20 0.02042
1107.30 0.02042
1107.40 0.02042
1107.50 0.02043
1107.60 0.02043
1107.70 0.02043
1107.80 0.02044
1107.90 0.02044
1108.00 0.02044
1108.10 0.02045
1108.20 0.02045
1108.30 0.02045
1108.40 0.02046
1108.50 0.02046
1108.60 0.02046
1108.70 0.02047
1108.80 0.02047
1108.90 0.02047
1109.00 0.02047
1109.10 0.02048
1109.20 0.02048
1109.30 0.02048
1109.40 0.02049
1109.50 0.02049
1109.60 0.02049
1109.70 0.0205
1109.80 0.0205
1109.90 0.0205
1110.00 0.02051
1110.10 0.02051
1110.20 0.02052
1110.30 0.02052
1110.40 0.02052
1110.50 0.02053
1110.60 0.02053
1110.70 0.02053
1110.80 0.02054
1110.90 0.02054
1111.00 0.02054
1111.10 0.02055
1111.20 0.02055
1111.30 0.02056
1111.40 0.02056
1111.50 0.02056
1111.60 0.02057
1111.70 0.02057
1111.80 0.02057
1111.90 0.02058
1112.00 0.02058
1112.10 0.02059
1112.20 0.02059
1112.30 0.02059
1112.40 0.0206
1112.50 0.0206
1112.60 0.02061
1112.70 0.02061
1112.80 0.02061
1112.90 0.02062
1113.00 0.02062
1113.10 0.02063
1113.20 0.02063
1113.30 0.02064
1113.40 0.02064
1113.50 0.02064
1113.60 0.02065
1113.70 0.02065
1113.80 0.02066
1113.90 0.02066
1114.00 0.02067
1114.10 0.02067
1114.20 0.02068
1114.30 0.02068
1114.40 0.02069
1114.50 0.02069
1114.60 0.0207
1114.70 0.0207
1114.80 0.02071
1114.90 0.02071
1115.00 0.02072
1115.10 0.02072
1115.20 0.02073
1115.30 0.02073
1115.40 0.02074
1115.50 0.02074
1115.60 0.02074
1115.70 0.02075
1115.80 0.02075
1115.90 0.02076
1116.00 0.02076
1116.10 0.02077
1116.20 0.02077
1116.30 0.02078
1116.40 0.02078
1116.50 0.02079
1116.60 0.02079
1116.70 0.0208
1116.80 0.0208
1116.90 0.02081
1117.00 0.02081
1117.10 0.02082
1117.20 0.02082
1117.30 0.02083
1117.40 0.02083
1117.50 0.02084
1117.60 0.02085
1117.70 0.02085
1117.80 0.02086
1117.90 0.02086
1118.00 0.02087
1118.10 0.02087
1118.20 0.02088
1118.30 0.02088
1118.40 0.02089
1118.50 0.0209
1118.60 0.0209
1118.70 0.02091
1118.80 0.02091
1118.90 0.02092
1119.00 0.02092
1119.10 0.02093
1119.20 0.02094
1119.30 0.02094
1119.40 0.02095
1119.50 0.02095
1119.60 0.02096
1119.70 0.02096
1119.80 0.02097
1119.90 0.02097
1120.00 0.02098
1120.10 0.02099
1120.20 0.02099
1120.30 0.021
1120.40 0.021
1120.50 0.02101
1120.60 0.02101
1120.70 0.02102
1120.80 0.02103
1120.90 0.02103
1121.00 0.02104
1121.10 0.02104
1121.20 0.02105
1121.30 0.02105
1121.40 0.02106
1121.50 0.02106
1121.60 0.02107
1121.70 0.02108
1121.80 0.02108
1121.90 0.02109
1122.00 0.02109
1122.10 0.0211
1122.20 0.02111
1122.30 0.02112
1122.40 0.02112
1122.50 0.02113
1122.60 0.02114
1122.70 0.02115
1122.80 0.02116
1122.90 0.02117
1123.00 0.02117
1123.10 0.02118
1123.20 0.02119
1123.30 0.0212
1123.40 0.02121
1123.50 0.02121
1123.60 0.02122
1123.70 0.02123
1123.80 0.02124
1123.90 0.02125
1124.00 0.02126
1124.10 0.02126
1124.20 0.02127
1124.30 0.02128
1124.40 0.02129
1124.50 0.0213
1124.60 0.0213
1124.70 0.02131
1124.80 0.02132
1124.90 0.02133
1125.00 0.02134
1125.10 0.02134
1125.20 0.02135
1125.30 0.02136
1125.40 0.02137
1125.50 0.02138
1125.60 0.02139
1125.70 0.02139
1125.80 0.0214
1125.90 0.02141
1126.00 0.02142
1126.10 0.02143
1126.20 0.02143
1126.30 0.02144
1126.40 0.02145
1126.50 0.02146
1126.60 0.02147
1126.70 0.02147
1126.80 0.02148
1126.90 0.02149
1127.00 0.0215
1127.10 0.02151
1127.20 0.02152
1127.30 0.02153
1127.40 0.02154
1127.50 0.02155
1127.60 0.02156
1127.70 0.02158
1127.80 0.02159
1127.90 0.0216
1128.00 0.02161
1128.10 0.02162
1128.20 0.02163
1128.30 0.02164
1128.40 0.02165
1128.50 0.02166
1128.60 0.02167
1128.70 0.02169
1128.80 0.0217
1128.90 0.02171
1129.00 0.02172
1129.10 0.02173
1129.20 0.02174
1129.30 0.02175
1129.40 0.02176
1129.50 0.02177
1129.60 0.02178
1129.70 0.02179
1129.80 0.02181
1129.90 0.02182
1130.00 0.02183
1130.10 0.02184
1130.20 0.02185
1130.30 0.02186
1130.40 0.02187
1130.50 0.02188
1130.60 0.02189
1130.70 0.0219
1130.80 0.02191
1130.90 0.02193
1131.00 0.02194
1131.10 0.02195
1131.20 0.02196
1131.30 0.02197
1131.40 0.02198
1131.50 0.02199
1131.60 0.022
1131.70 0.02201
1131.80 0.02202
1131.90 0.02203
1132.00 0.02204
1132.10 0.02206
1132.20 0.02207
1132.30 0.02208
1132.40 0.02209
1132.50 0.0221
1132.60 0.02211
1132.70 0.02212
1132.80 0.02214
1132.90 0.02215
1133.00 0.02216
1133.10 0.02217
1133.20 0.02218
1133.30 0.02219
1133.40 0.0222
1133.50 0.02221
1133.60 0.02223
1133.70 0.02224
1133.80 0.02225
1133.90 0.02226
1134.00 0.02227
1134.10 0.02228
1134.20 0.02229
1134.30 0.0223
1134.40 0.02231
1134.50 0.02233
1134.60 0.02234
1134.70 0.02235
1134.80 0.02236
1134.90 0.02237
1135.00 0.02238
1135.10 0.02239
1135.20 0.0224
1135.30 0.02242
1135.40 0.02243
1135.50 0.02244
1135.60 0.02245
1135.70 0.02246
1135.80 0.02247
1135.90 0.02248
1136.00 0.02249
1136.10 0.0225
1136.20 0.02252
1136.30 0.02253
1136.40 0.02254
1136.50 0.02255
1136.60 0.02256
1136.70 0.02257
1136.80 0.02258
1136.90 0.02259
1137.00 0.0226
1137.10 0.02262
1137.20 0.02263
1137.30 0.02264
1137.40 0.02265
1137.50 0.02267
1137.60 0.02268
1137.70 0.02269
1137.80 0.0227
1137.90 0.02271
1138.00 0.02273
1138.10 0.02274
1138.20 0.02275
1138.30 0.02276
1138.40 0.02278
1138.50 0.02279
1138.60 0.0228
1138.70 0.02281
1138.80 0.02282
1138.90 0.02284
1139.00 0.02285
1139.10 0.02286
1139.20 0.02287
1139.30 0.02289
1139.40 0.0229
1139.50 0.02291
1139.60 0.02292
1139.70 0.02293
1139.80 0.02295
1139.90 0.02296
1140.00 0.02297
1140.10 0.02298
1140.20 0.02299
1140.30 0.02301
1140.40 0.02302
1140.50 0.02303
1140.60 0.02304
1140.70 0.02305
1140.80 0.02307
1140.90 0.02308
1141.00 0.02309
1141.10 0.0231
1141.20 0.02312
1141.30 0.02313
1141.40 0.02314
1141.50 0.02315
1141.60 0.02316
1141.70 0.02318
1141.80 0.02319
1141.90 0.0232
1142.00 0.02321
1142.10 0.02323
1142.20 0.02324
1142.30 0.02325
1142.40 0.02327
1142.50 0.02328
1142.60 0.0233
1142.70 0.02331
1142.80 0.02332
1142.90 0.02334
1143.00 0.02335
1143.10 0.02337
1143.20 0.02338
1143.30 0.02339
1143.40 0.02341
1143.50 0.02342
1143.60 0.02344
1143.70 0.02345
1143.80 0.02346
1143.90 0.02348
1144.00 0.02349
1144.10 0.0235
1144.20 0.02352
1144.30 0.02353
1144.40 0.02355
1144.50 0.02356
1144.60 0.02357
1144.70 0.02359
1144.80 0.0236
1144.90 0.02362
1145.00 0.02363
1145.10 0.02364
1145.20 0.02366
1145.30 0.02367
1145.40 0.02368
1145.50 0.0237
1145.60 0.02371
1145.70 0.02373
1145.80 0.02374
1145.90 0.02375
1146.00 0.02377
1146.10 0.02378
1146.20 0.02379
1146.30 0.02381
1146.40 0.02382
1146.50 0.02384
1146.60 0.02385
1146.70 0.02386
1146.80 0.02388
1146.90 0.02389
1147.00 0.02391
1147.10 0.02392
1147.20 0.02393
1147.30 0.02394
1147.40 0.02395
1147.50 0.02397
1147.60 0.02398
1147.70 0.02399
1147.80 0.024
1147.90 0.02402
1148.00 0.02403
1148.10 0.02404
1148.20 0.02405
1148.30 0.02406
1148.40 0.02408
1148.50 0.02409
1148.60 0.0241
1148.70 0.02411
1148.80 0.02412
1148.90 0.02414
1149.00 0.02415
1149.10 0.02416
1149.20 0.02417
1149.30 0.02419
1149.40 0.0242
1149.50 0.02421
1149.60 0.02422
1149.70 0.02423
1149.80 0.02425
1149.90 0.02426
1150.00 0.02427
1150.10 0.02428
1150.20 0.02429
1150.30 0.02431
1150.40 0.02432
1150.50 0.02433
1150.60 0.02434
1150.70 0.02436
1150.80 0.02437
1150.90 0.02438
1151.00 0.02439
1151.10 0.0244
1151.20 0.02442
1151.30 0.02443
1151.40 0.02444
1151.50 0.02445
1151.60 0.02446
1151.70 0.02448
1151.80 0.02449
1151.90 0.0245
1152.00 0.02451
1152.10 0.02452
1152.20 0.02454
1152.30 0.02455
1152.40 0.02456
1152.50 0.02458
1152.60 0.02459
1152.70 0.0246
1152.80 0.02461
1152.90 0.02463
1153.00 0.02464
1153.10 0.02465
1153.20 0.02466
1153.30 0.02468
1153.40 0.02469
1153.50 0.0247
1153.60 0.02471
1153.70 0.02473
1153.80 0.02474
1153.90 0.02475
1154.00 0.02476
1154.10 0.02478
1154.20 0.02479
1154.30 0.0248
1154.40 0.02481
1154.50 0.02483
1154.60 0.02484
1154.70 0.02485
1154.80 0.02487
1154.90 0.02488
1155.00 0.02489
1155.10 0.0249
1155.20 0.02492
1155.30 0.02493
1155.40 0.02494
1155.50 0.02495
1155.60 0.02497
1155.70 0.02498
1155.80 0.02499
1155.90 0.025
1156.00 0.02502
1156.10 0.02503
1156.20 0.02504
1156.30 0.02505
1156.40 0.02507
1156.50 0.02508
1156.60 0.02509
1156.70 0.0251
1156.80 0.02512
1156.90 0.02513
1157.00 0.02514
1157.10 0.02515
1157.20 0.02516
1157.30 0.02517
1157.40 0.02518
1157.50 0.02519
1157.60 0.0252
1157.70 0.02521
1157.80 0.02522
1157.90 0.02523
1158.00 0.02524
1158.10 0.02525
1158.20 0.02526
1158.30 0.02527
1158.40 0.02529
1158.50 0.0253
1158.60 0.02531
1158.70 0.02532
1158.80 0.02533
1158.90 0.02534
1159.00 0.02535
1159.10 0.02536
1159.20 0.02537
1159.30 0.02538
1159.40 0.02539
1159.50 0.0254
1159.60 0.02541
1159.70 0.02542
1159.80 0.02543
1159.90 0.02544
1160.00 0.02545
1160.10 0.02546
1160.20 0.02547
1160.30 0.02548
1160.40 0.02549
1160.50 0.0255
1160.60 0.02551
1160.70 0.02552
1160.80 0.02553
1160.90 0.02554
1161.00 0.02555
1161.10 0.02556
1161.20 0.02557
1161.30 0.02558
1161.40 0.02559
1161.50 0.0256
1161.60 0.02561
1161.70 0.02562
1161.80 0.02563
1161.90 0.02564
1162.00 0.02565
1162.10 0.02566
1162.20 0.02567
1162.30 0.02568
1162.40 0.02569
1162.50 0.0257
1162.60 0.02571
1162.70 0.02572
1162.80 0.02572
1162.90 0.02573
1163.00 0.02574
1163.10 0.02575
1163.20 0.02576
1163.30 0.02577
1163.40 0.02578
1163.50 0.02579
1163.60 0.02579
1163.70 0.0258
1163.80 0.02581
1163.90 0.02582
1164.00 0.02583
1164.10 0.02584
1164.20 0.02585
1164.30 0.02585
1164.40 0.02586
1164.50 0.02587
1164.60 0.02588
1164.70 0.02589
1164.80 0.0259
1164.90 0.02591
1165.00 0.02592
1165.10 0.02592
1165.20 0.02593
1165.30 0.02594
1165.40 0.02595
1165.50 0.02596
1165.60 0.02597
1165.70 0.02598
1165.80 0.02598
1165.90 0.02599
1166.00 0.026
1166.10 0.02601
1166.20 0.02602
1166.30 0.02603
1166.40 0.02604
1166.50 0.02604
1166.60 0.02605
1166.70 0.02606
1166.80 0.02607
1166.90 0.02608
1167.00 0.02609
1167.10 0.0261
1167.20 0.0261
1167.30 0.02611
1167.40 0.02612
1167.50 0.02613
1167.60 0.02614
1167.70 0.02615
1167.80 0.02615
1167.90 0.02616
1168.00 0.02617
1168.10 0.02618
1168.20 0.02619
1168.30 0.0262
1168.40 0.0262
1168.50 0.02621
1168.60 0.02622
1168.70 0.02623
1168.80 0.02624
1168.90 0.02624
1169.00 0.02625
1169.10 0.02626
1169.20 0.02627
1169.30 0.02628
1169.40 0.02629
1169.50 0.02629
1169.60 0.0263
1169.70 0.02631
1169.80 0.02632
1169.90 0.02633
1170.00 0.02634
1170.10 0.02634
1170.20 0.02635
1170.30 0.02636
1170.40 0.02637
1170.50 0.02638
1170.60 0.02638
1170.70 0.02639
1170.80 0.0264
1170.90 0.02641
1171.00 0.02642
1171.10 0.02643
1171.20 0.02643
1171.30 0.02644
1171.40 0.02645
1171.50 0.02646
1171.60 0.02647
1171.70 0.02647
1171.80 0.02648
1171.90 0.02649
1172.00 0.0265
1172.10 0.0265
1172.20 0.02651
1172.30 0.02651
1172.40 0.02651
1172.50 0.02652
1172.60 0.02652
1172.70 0.02653
1172.80 0.02653
1172.90 0.02653
1173.00 0.02654
1173.10 0.02654
1173.20 0.02654
1173.30 0.02655
1173.40 0.02655
1173.50 0.02656
1173.60 0.02656
1173.70 0.02656
1173.80 0.02657
1173.90 0.02657
1174.00 0.02658
1174.10 0.02658
1174.20 0.02658
1174.30 0.02659
1174.40 0.02659
1174.50 0.02659
1174.60 0.0266
1174.70 0.0266
1174.80 0.02661
1174.90 0.02661
1175.00 0.02661
1175.10 0.02662
1175.20 0.02662
1175.30 0.02662
1175.40 0.02663
1175.50 0.02663
1175.60 0.02664
1175.70 0.02664
1175.80 0.02664
1175.90 0.02665
1176.00 0.02665
1176.10 0.02665
1176.20 0.02666
1176.30 0.02666
1176.40 0.02667
1176.50 0.02667
1176.60 0.02667
1176.70 0.02668
1176.80 0.02668
1176.90 0.02668
1177.00 0.02669
1177.10 0.02669
1177.20 0.02669
1177.30 0.02669
1177.40 0.02669
1177.50 0.02669
1177.60 0.02669
1177.70 0.02669
1177.80 0.02669
1177.90 0.02669
1178.00 0.0267
1178.10 0.0267
1178.20 0.0267
1178.30 0.0267
1178.40 0.0267
1178.50 0.0267
1178.60 0.0267
1178.70 0.0267
1178.80 0.0267
1178.90 0.0267
1179.00 0.0267
1179.10 0.0267
1179.20 0.0267
1179.30 0.0267
1179.40 0.0267
1179.50 0.02671
1179.60 0.02671
1179.70 0.02671
1179.80 0.02671
1179.90 0.02671
1180.00 0.02671
1180.10 0.02671
1180.20 0.02671
1180.30 0.02671
1180.40 0.02671
1180.50 0.02671
1180.60 0.02671
1180.70 0.02671
1180.80 0.02671
1180.90 0.02671
1181.00 0.02671
1181.10 0.02672
1181.20 0.02672
1181.30 0.02672
1181.40 0.02672
1181.50 0.02672
1181.60 0.02672
1181.70 0.02672
1181.80 0.02672
1181.90 0.02672
1182.00 0.02672
1182.10 0.02672
1182.20 0.02671
1182.30 0.02671
1182.40 0.0267
1182.50 0.0267
1182.60 0.0267
1182.70 0.02669
1182.80 0.02669
1182.90 0.02668
1183.00 0.02668
1183.10 0.02668
1183.20 0.02667
1183.30 0.02667
1183.40 0.02666
1183.50 0.02666
1183.60 0.02666
1183.70 0.02665
1183.80 0.02665
1183.90 0.02664
1184.00 0.02664
1184.10 0.02664
1184.20 0.02663
1184.30 0.02663
1184.40 0.02662
1184.50 0.02662
1184.60 0.02662
1184.70 0.02661
1184.80 0.02661
1184.90 0.0266
1185.00 0.0266
1185.10 0.0266
1185.20 0.02659
1185.30 0.02659
1185.40 0.02658
1185.50 0.02658
1185.60 0.02658
1185.70 0.02657
1185.80 0.02657
1185.90 0.02656
1186.00 0.02656
1186.10 0.02656
1186.20 0.02655
1186.30 0.02655
1186.40 0.02654
1186.50 0.02654
1186.60 0.02654
1186.70 0.02653
1186.80 0.02653
1186.90 0.02652
1187.00 0.02652
1187.10 0.02652
1187.20 0.02651
1187.30 0.02651
1187.40 0.02651
1187.50 0.02651
1187.60 0.0265
1187.70 0.0265
1187.80 0.0265
1187.90 0.02649
1188.00 0.02649
1188.10 0.02649
1188.20 0.02649
1188.30 0.02648
1188.40 0.02648
1188.50 0.02648
1188.60 0.02647
1188.70 0.02647
1188.80 0.02647
1188.90 0.02647
1189.00 0.02646
1189.10 0.02646
1189.20 0.02646
1189.30 0.02646
1189.40 0.02645
1189.50 0.02645
1189.60 0.02645
1189.70 0.02644
1189.80 0.02644
1189.90 0.02644
1190.00 0.02644
1190.10 0.02643
1190.20 0.02643
1190.30 0.02643
1190.40 0.02643
1190.50 0.02642
1190.60 0.02642
1190.70 0.02642
1190.80 0.02641
1190.90 0.02641
1191.00 0.02641
1191.10 0.02641
1191.20 0.0264
1191.30 0.0264
1191.40 0.0264
1191.50 0.02639
1191.60 0.02639
1191.70 0.02639
1191.80 0.02639
1191.90 0.02638
1192.00 0.02638
1192.10 0.02638
1192.20 0.02637
1192.30 0.02637
1192.40 0.02637
1192.50 0.02636
1192.60 0.02636
1192.70 0.02636
1192.80 0.02635
1192.90 0.02635
1193.00 0.02635
1193.10 0.02634
1193.20 0.02634
1193.30 0.02633
1193.40 0.02633
1193.50 0.02633
1193.60 0.02632
1193.70 0.02632
1193.80 0.02632
1193.90 0.02631
1194.00 0.02631
1194.10 0.02631
1194.20 0.0263
1194.30 0.0263
1194.40 0.0263
1194.50 0.02629
1194.60 0.02629
1194.70 0.02628
1194.80 0.02628
1194.90 0.02628
1195.00 0.02627
1195.10 0.02627
1195.20 0.02627
1195.30 0.02626
1195.40 0.02626
1195.50 0.02626
1195.60 0.02625
1195.70 0.02625
1195.80 0.02625
1195.90 0.02624
1196.00 0.02624
1196.10 0.02624
1196.20 0.02623
1196.30 0.02623
1196.40 0.02622
1196.50 0.02622
1196.60 0.02622
1196.70 0.02621
1196.80 0.02621
1196.90 0.02621
1197.00 0.0262
1197.10 0.0262
1197.20 0.02619
1197.30 0.02618
1197.40 0.02618
1197.50 0.02617
1197.60 0.02616
1197.70 0.02616
1197.80 0.02615
1197.90 0.02615
1198.00 0.02614
1198.10 0.02613
1198.20 0.02613
1198.30 0.02612
1198.40 0.02611
1198.50 0.02611
1198.60 0.0261
1198.70 0.02609
1198.80 0.02609
1198.90 0.02608
1199.00 0.02607
1199.10 0.02607
1199.20 0.02606
1199.30 0.02606
1199.40 0.02605
1199.50 0.02604
1199.60 0.02604
1199.70 0.02603
1199.80 0.02602
1199.90 0.02602
1200.00 0
