# Version 2.1 - nm, norm@500 to 1, cut digits, bergeron_55000_75.dat_55000
# Wavelength(nm)  Flambda(ergs/cm^s/s/nm)
300.00 6.299
300.10 6.291
300.20 6.284
300.30 6.276
300.40 6.268
300.50 6.261
300.60 6.253
300.70 6.246
300.80 6.238
300.90 6.23
301.00 6.223
301.10 6.215
301.20 6.208
301.30 6.2
301.40 6.193
301.50 6.185
301.60 6.178
301.70 6.17
301.80 6.163
301.90 6.156
302.00 6.148
302.10 6.141
302.20 6.133
302.30 6.126
302.40 6.119
302.50 6.111
302.60 6.104
302.70 6.096
302.80 6.089
302.90 6.082
303.00 6.074
303.10 6.067
303.20 6.06
303.30 6.053
303.40 6.045
303.50 6.038
303.60 6.031
303.70 6.024
303.80 6.016
303.90 6.009
304.00 6.002
304.10 5.995
304.20 5.988
304.30 5.98
304.40 5.973
304.50 5.966
304.60 5.959
304.70 5.952
304.80 5.945
304.90 5.938
305.00 5.93
305.10 5.923
305.20 5.916
305.30 5.909
305.40 5.902
305.50 5.895
305.60 5.888
305.70 5.881
305.80 5.874
305.90 5.867
306.00 5.86
306.10 5.853
306.20 5.846
306.30 5.839
306.40 5.832
306.50 5.825
306.60 5.818
306.70 5.811
306.80 5.804
306.90 5.798
307.00 5.791
307.10 5.784
307.20 5.777
307.30 5.77
307.40 5.763
307.50 5.756
307.60 5.75
307.70 5.743
307.80 5.736
307.90 5.729
308.00 5.722
308.10 5.716
308.20 5.709
308.30 5.702
308.40 5.695
308.50 5.689
308.60 5.682
308.70 5.675
308.80 5.668
308.90 5.662
309.00 5.655
309.10 5.648
309.20 5.642
309.30 5.635
309.40 5.628
309.50 5.622
309.60 5.615
309.70 5.608
309.80 5.602
309.90 5.595
310.00 5.589
310.10 5.582
310.20 5.576
310.30 5.569
310.40 5.562
310.50 5.556
310.60 5.549
310.70 5.543
310.80 5.536
310.90 5.53
311.00 5.523
311.10 5.517
311.20 5.51
311.30 5.504
311.40 5.497
311.50 5.491
311.60 5.485
311.70 5.478
311.80 5.472
311.90 5.465
312.00 5.459
312.10 5.453
312.20 5.446
312.30 5.44
312.40 5.433
312.50 5.427
312.60 5.421
312.70 5.414
312.80 5.408
312.90 5.402
313.00 5.395
313.10 5.389
313.20 5.383
313.30 5.377
313.40 5.37
313.50 5.364
313.60 5.358
313.70 5.352
313.80 5.345
313.90 5.339
314.00 5.333
314.10 5.327
314.20 5.32
314.30 5.314
314.40 5.308
314.50 5.302
314.60 5.296
314.70 5.29
314.80 5.283
314.90 5.277
315.00 5.271
315.10 5.265
315.20 5.259
315.30 5.253
315.40 5.247
315.50 5.241
315.60 5.235
315.70 5.229
315.80 5.223
315.90 5.217
316.00 5.211
316.10 5.204
316.20 5.198
316.30 5.192
316.40 5.186
316.50 5.18
316.60 5.174
316.70 5.168
316.80 5.163
316.90 5.157
317.00 5.151
317.10 5.145
317.20 5.139
317.30 5.133
317.40 5.127
317.50 5.121
317.60 5.115
317.70 5.109
317.80 5.103
317.90 5.097
318.00 5.092
318.10 5.086
318.20 5.08
318.30 5.074
318.40 5.068
318.50 5.062
318.60 5.057
318.70 5.051
318.80 5.045
318.90 5.039
319.00 5.033
319.10 5.028
319.20 5.022
319.30 5.016
319.40 5.01
319.50 5.005
319.60 4.999
319.70 4.993
319.80 4.988
319.90 4.982
320.00 4.976
320.10 4.97
320.20 4.965
320.30 4.959
320.40 4.953
320.50 4.948
320.60 4.942
320.70 4.936
320.80 4.931
320.90 4.925
321.00 4.92
321.10 4.914
321.20 4.908
321.30 4.903
321.40 4.897
321.50 4.892
321.60 4.886
321.70 4.881
321.80 4.875
321.90 4.869
322.00 4.864
322.10 4.858
322.20 4.853
322.30 4.847
322.40 4.842
322.50 4.836
322.60 4.831
322.70 4.825
322.80 4.82
322.90 4.814
323.00 4.809
323.10 4.804
323.20 4.798
323.30 4.793
323.40 4.787
323.50 4.782
323.60 4.776
323.70 4.771
323.80 4.766
323.90 4.76
324.00 4.755
324.10 4.749
324.20 4.744
324.30 4.739
324.40 4.733
324.50 4.728
324.60 4.723
324.70 4.717
324.80 4.712
324.90 4.707
325.00 4.701
325.10 4.696
325.20 4.691
325.30 4.686
325.40 4.68
325.50 4.675
325.60 4.67
325.70 4.665
325.80 4.659
325.90 4.654
326.00 4.649
326.10 4.644
326.20 4.638
326.30 4.633
326.40 4.628
326.50 4.623
326.60 4.618
326.70 4.612
326.80 4.607
326.90 4.602
327.00 4.597
327.10 4.592
327.20 4.587
327.30 4.581
327.40 4.576
327.50 4.571
327.60 4.566
327.70 4.561
327.80 4.556
327.90 4.551
328.00 4.546
328.10 4.541
328.20 4.536
328.30 4.531
328.40 4.525
328.50 4.52
328.60 4.515
328.70 4.51
328.80 4.505
328.90 4.5
329.00 4.495
329.10 4.49
329.20 4.485
329.30 4.48
329.40 4.475
329.50 4.47
329.60 4.465
329.70 4.46
329.80 4.455
329.90 4.45
330.00 4.445
330.10 4.441
330.20 4.436
330.30 4.431
330.40 4.426
330.50 4.421
330.60 4.416
330.70 4.411
330.80 4.406
330.90 4.401
331.00 4.397
331.10 4.392
331.20 4.387
331.30 4.382
331.40 4.377
331.50 4.372
331.60 4.367
331.70 4.363
331.80 4.358
331.90 4.353
332.00 4.348
332.10 4.343
332.20 4.338
332.30 4.334
332.40 4.329
332.50 4.324
332.60 4.319
332.70 4.315
332.80 4.31
332.90 4.305
333.00 4.3
333.10 4.296
333.20 4.291
333.30 4.286
333.40 4.281
333.50 4.277
333.60 4.272
333.70 4.267
333.80 4.263
333.90 4.258
334.00 4.253
334.10 4.249
334.20 4.244
334.30 4.239
334.40 4.235
334.50 4.23
334.60 4.225
334.70 4.221
334.80 4.216
334.90 4.211
335.00 4.207
335.10 4.202
335.20 4.198
335.30 4.193
335.40 4.188
335.50 4.184
335.60 4.179
335.70 4.175
335.80 4.17
335.90 4.166
336.00 4.161
336.10 4.156
336.20 4.152
336.30 4.147
336.40 4.143
336.50 4.138
336.60 4.134
336.70 4.129
336.80 4.125
336.90 4.12
337.00 4.116
337.10 4.111
337.20 4.107
337.30 4.102
337.40 4.098
337.50 4.094
337.60 4.089
337.70 4.085
337.80 4.08
337.90 4.076
338.00 4.071
338.10 4.067
338.20 4.062
338.30 4.058
338.40 4.054
338.50 4.049
338.60 4.045
338.70 4.041
338.80 4.036
338.90 4.032
339.00 4.027
339.10 4.023
339.20 4.019
339.30 4.014
339.40 4.01
339.50 4.006
339.60 4.001
339.70 3.997
339.80 3.993
339.90 3.988
340.00 3.984
340.10 3.98
340.20 3.975
340.30 3.971
340.40 3.967
340.50 3.963
340.60 3.958
340.70 3.954
340.80 3.95
340.90 3.946
341.00 3.941
341.10 3.937
341.20 3.933
341.30 3.929
341.40 3.924
341.50 3.92
341.60 3.916
341.70 3.912
341.80 3.907
341.90 3.903
342.00 3.899
342.10 3.895
342.20 3.891
342.30 3.886
342.40 3.882
342.50 3.878
342.60 3.874
342.70 3.87
342.80 3.866
342.90 3.862
343.00 3.857
343.10 3.853
343.20 3.849
343.30 3.845
343.40 3.841
343.50 3.837
343.60 3.833
343.70 3.829
343.80 3.824
343.90 3.82
344.00 3.816
344.10 3.812
344.20 3.808
344.30 3.804
344.40 3.8
344.50 3.796
344.60 3.792
344.70 3.788
344.80 3.784
344.90 3.78
345.00 3.776
345.10 3.772
345.20 3.768
345.30 3.764
345.40 3.76
345.50 3.756
345.60 3.752
345.70 3.748
345.80 3.744
345.90 3.74
346.00 3.736
346.10 3.732
346.20 3.728
346.30 3.724
346.40 3.72
346.50 3.716
346.60 3.712
346.70 3.708
346.80 3.704
346.90 3.7
347.00 3.696
347.10 3.692
347.20 3.688
347.30 3.685
347.40 3.681
347.50 3.677
347.60 3.673
347.70 3.669
347.80 3.665
347.90 3.661
348.00 3.657
348.10 3.653
348.20 3.65
348.30 3.646
348.40 3.642
348.50 3.638
348.60 3.634
348.70 3.63
348.80 3.627
348.90 3.623
349.00 3.619
349.10 3.615
349.20 3.611
349.30 3.608
349.40 3.604
349.50 3.6
349.60 3.596
349.70 3.592
349.80 3.589
349.90 3.585
350.00 3.581
350.10 3.577
350.20 3.573
350.30 3.57
350.40 3.566
350.50 3.562
350.60 3.559
350.70 3.555
350.80 3.551
350.90 3.547
351.00 3.544
351.10 3.54
351.20 3.536
351.30 3.532
351.40 3.529
351.50 3.525
351.60 3.521
351.70 3.518
351.80 3.514
351.90 3.51
352.00 3.507
352.10 3.503
352.20 3.499
352.30 3.496
352.40 3.492
352.50 3.488
352.60 3.485
352.70 3.481
352.80 3.477
352.90 3.474
353.00 3.47
353.10 3.467
353.20 3.463
353.30 3.459
353.40 3.456
353.50 3.452
353.60 3.449
353.70 3.445
353.80 3.441
353.90 3.438
354.00 3.434
354.10 3.431
354.20 3.427
354.30 3.423
354.40 3.42
354.50 3.416
354.60 3.413
354.70 3.409
354.80 3.406
354.90 3.402
355.00 3.399
355.10 3.395
355.20 3.392
355.30 3.388
355.40 3.385
355.50 3.381
355.60 3.378
355.70 3.374
355.80 3.371
355.90 3.367
356.00 3.364
356.10 3.36
356.20 3.357
356.30 3.353
356.40 3.35
356.50 3.346
356.60 3.343
356.70 3.339
356.80 3.336
356.90 3.332
357.00 3.329
357.10 3.326
357.20 3.322
357.30 3.319
357.40 3.315
357.50 3.312
357.60 3.308
357.70 3.305
357.80 3.302
357.90 3.298
358.00 3.295
358.10 3.291
358.20 3.288
358.30 3.285
358.40 3.281
358.50 3.278
358.60 3.275
358.70 3.271
358.80 3.268
358.90 3.264
359.00 3.261
359.10 3.258
359.20 3.254
359.30 3.251
359.40 3.248
359.50 3.244
359.60 3.241
359.70 3.238
359.80 3.234
359.90 3.231
360.00 3.228
360.10 3.224
360.20 3.221
360.30 3.218
360.40 3.215
360.50 3.211
360.60 3.208
360.70 3.205
360.80 3.202
360.90 3.198
361.00 3.195
361.10 3.192
361.20 3.188
361.30 3.185
361.40 3.182
361.50 3.179
361.60 3.175
361.70 3.172
361.80 3.169
361.90 3.166
362.00 3.162
362.10 3.159
362.20 3.156
362.30 3.153
362.40 3.15
362.50 3.146
362.60 3.143
362.70 3.14
362.80 3.137
362.90 3.134
363.00 3.13
363.10 3.127
363.20 3.124
363.30 3.121
363.40 3.118
363.50 3.115
363.60 3.111
363.70 3.108
363.80 3.105
363.90 3.102
364.00 3.099
364.10 3.096
364.20 3.093
364.30 3.089
364.40 3.086
364.50 3.083
364.60 3.08
364.70 3.077
364.80 3.074
364.90 3.071
365.00 3.068
365.10 3.065
365.20 3.061
365.30 3.058
365.40 3.055
365.50 3.052
365.60 3.049
365.70 3.046
365.80 3.043
365.90 3.04
366.00 3.037
366.10 3.034
366.20 3.03
366.30 3.027
366.40 3.024
366.50 3.021
366.60 3.018
366.70 3.015
366.80 3.012
366.90 3.008
367.00 3.005
367.10 3.002
367.20 2.999
367.30 2.996
367.40 2.993
367.50 2.99
367.60 2.987
367.70 2.983
367.80 2.98
367.90 2.977
368.00 2.974
368.10 2.971
368.20 2.968
368.30 2.965
368.40 2.962
368.50 2.959
368.60 2.956
368.70 2.953
368.80 2.95
368.90 2.946
369.00 2.943
369.10 2.94
369.20 2.937
369.30 2.934
369.40 2.931
369.50 2.928
369.60 2.925
369.70 2.922
369.80 2.919
369.90 2.916
370.00 2.913
370.10 2.91
370.20 2.907
370.30 2.904
370.40 2.901
370.50 2.898
370.60 2.895
370.70 2.892
370.80 2.889
370.90 2.886
371.00 2.883
371.10 2.88
371.20 2.877
371.30 2.874
371.40 2.871
371.50 2.868
371.60 2.865
371.70 2.862
371.80 2.859
371.90 2.857
372.00 2.854
372.10 2.851
372.20 2.848
372.30 2.845
372.40 2.842
372.50 2.839
372.60 2.836
372.70 2.834
372.80 2.831
372.90 2.828
373.00 2.825
373.10 2.822
373.20 2.819
373.30 2.817
373.40 2.814
373.50 2.811
373.60 2.808
373.70 2.805
373.80 2.802
373.90 2.8
374.00 2.797
374.10 2.794
374.20 2.791
374.30 2.789
374.40 2.786
374.50 2.783
374.60 2.78
374.70 2.778
374.80 2.775
374.90 2.772
375.00 2.77
375.10 2.767
375.20 2.764
375.30 2.761
375.40 2.759
375.50 2.756
375.60 2.753
375.70 2.751
375.80 2.748
375.90 2.745
376.00 2.743
376.10 2.74
376.20 2.737
376.30 2.735
376.40 2.732
376.50 2.729
376.60 2.727
376.70 2.724
376.80 2.722
376.90 2.719
377.00 2.716
377.10 2.714
377.20 2.711
377.30 2.709
377.40 2.707
377.50 2.704
377.60 2.702
377.70 2.699
377.80 2.697
377.90 2.695
378.00 2.692
378.10 2.69
378.20 2.687
378.30 2.685
378.40 2.682
378.50 2.68
378.60 2.677
378.70 2.674
378.80 2.672
378.90 2.669
379.00 2.667
379.10 2.664
379.20 2.662
379.30 2.659
379.40 2.657
379.50 2.655
379.60 2.652
379.70 2.65
379.80 2.647
379.90 2.645
380.00 2.642
380.10 2.64
380.20 2.638
380.30 2.636
380.40 2.634
380.50 2.632
380.60 2.63
380.70 2.628
380.80 2.626
380.90 2.624
381.00 2.622
381.10 2.62
381.20 2.618
381.30 2.615
381.40 2.613
381.50 2.611
381.60 2.608
381.70 2.606
381.80 2.603
381.90 2.6
382.00 2.597
382.10 2.594
382.20 2.591
382.30 2.588
382.40 2.585
382.50 2.582
382.60 2.578
382.70 2.575
382.80 2.572
382.90 2.568
383.00 2.565
383.10 2.562
383.20 2.559
383.30 2.555
383.40 2.553
383.50 2.55
383.60 2.548
383.70 2.547
383.80 2.546
383.90 2.545
384.00 2.544
384.10 2.544
384.20 2.543
384.30 2.542
384.40 2.542
384.50 2.541
384.60 2.54
384.70 2.539
384.80 2.538
384.90 2.537
385.00 2.536
385.10 2.534
385.20 2.533
385.30 2.531
385.40 2.529
385.50 2.527
385.60 2.525
385.70 2.523
385.80 2.521
385.90 2.519
386.00 2.516
386.10 2.513
386.20 2.511
386.30 2.507
386.40 2.504
386.50 2.501
386.60 2.497
386.70 2.494
386.80 2.49
386.90 2.486
387.00 2.482
387.10 2.478
387.20 2.473
387.30 2.469
387.40 2.464
387.50 2.459
387.60 2.454
387.70 2.449
387.80 2.443
387.90 2.438
388.00 2.432
388.10 2.427
388.20 2.421
388.30 2.416
388.40 2.41
388.50 2.405
388.60 2.4
388.70 2.396
388.80 2.392
388.90 2.39
389.00 2.388
389.10 2.388
389.20 2.388
389.30 2.39
389.40 2.391
389.50 2.393
389.60 2.395
389.70 2.397
389.80 2.399
389.90 2.4
390.00 2.402
390.10 2.404
390.20 2.405
390.30 2.407
390.40 2.408
390.50 2.409
390.60 2.41
390.70 2.411
390.80 2.412
390.90 2.412
391.00 2.413
391.10 2.413
391.20 2.413
391.30 2.413
391.40 2.413
391.50 2.412
391.60 2.412
391.70 2.411
391.80 2.41
391.90 2.409
392.00 2.408
392.10 2.407
392.20 2.405
392.30 2.404
392.40 2.402
392.50 2.4
392.60 2.398
392.70 2.396
392.80 2.393
392.90 2.391
393.00 2.388
393.10 2.385
393.20 2.382
393.30 2.379
393.40 2.376
393.50 2.372
393.60 2.368
393.70 2.365
393.80 2.361
393.90 2.356
394.00 2.352
394.10 2.347
394.20 2.342
394.30 2.337
394.40 2.332
394.50 2.326
394.60 2.321
394.70 2.315
394.80 2.309
394.90 2.302
395.00 2.295
395.10 2.288
395.20 2.281
395.30 2.274
395.40 2.266
395.50 2.258
395.60 2.25
395.70 2.241
395.80 2.232
395.90 2.223
396.00 2.214
396.10 2.205
396.20 2.195
396.30 2.186
396.40 2.176
396.50 2.166
396.60 2.156
396.70 2.147
396.80 2.137
396.90 2.128
397.00 2.12
397.10 2.124
397.20 2.129
397.30 2.134
397.40 2.141
397.50 2.147
397.60 2.153
397.70 2.159
397.80 2.165
397.90 2.171
398.00 2.176
398.10 2.182
398.20 2.187
398.30 2.192
398.40 2.197
398.50 2.201
398.60 2.205
398.70 2.21
398.80 2.213
398.90 2.217
399.00 2.22
399.10 2.223
399.20 2.226
399.30 2.228
399.40 2.231
399.50 2.233
399.60 2.235
399.70 2.237
399.80 2.238
399.90 2.24
400.00 2.241
400.10 2.242
400.20 2.243
400.30 2.243
400.40 2.244
400.50 2.244
400.60 2.245
400.70 2.245
400.80 2.245
400.90 2.245
401.00 2.245
401.10 2.244
401.20 2.244
401.30 2.243
401.40 2.243
401.50 2.242
401.60 2.241
401.70 2.24
401.80 2.239
401.90 2.238
402.00 2.237
402.10 2.236
402.20 2.235
402.30 2.233
402.40 2.232
402.50 2.231
402.60 2.229
402.70 2.228
402.80 2.226
402.90 2.224
403.00 2.223
403.10 2.221
403.20 2.219
403.30 2.217
403.40 2.215
403.50 2.213
403.60 2.211
403.70 2.209
403.80 2.206
403.90 2.204
404.00 2.202
404.10 2.2
404.20 2.197
404.30 2.195
404.40 2.192
404.50 2.189
404.60 2.187
404.70 2.184
404.80 2.181
404.90 2.178
405.00 2.175
405.10 2.172
405.20 2.169
405.30 2.166
405.40 2.163
405.50 2.159
405.60 2.156
405.70 2.152
405.80 2.148
405.90 2.145
406.00 2.141
406.10 2.137
406.20 2.132
406.30 2.128
406.40 2.124
406.50 2.119
406.60 2.114
406.70 2.109
406.80 2.104
406.90 2.099
407.00 2.094
407.10 2.088
407.20 2.082
407.30 2.076
407.40 2.07
407.50 2.063
407.60 2.056
407.70 2.049
407.80 2.042
407.90 2.034
408.00 2.026
408.10 2.018
408.20 2.009
408.30 2
408.40 1.991
408.50 1.981
408.60 1.971
408.70 1.961
408.80 1.95
408.90 1.939
409.00 1.927
409.10 1.915
409.20 1.903
409.30 1.891
409.40 1.878
409.50 1.864
409.60 1.851
409.70 1.838
409.80 1.824
409.90 1.811
410.00 1.802
410.10 1.799
410.20 1.801
410.30 1.798
410.40 1.8
410.50 1.808
410.60 1.818
410.70 1.828
410.80 1.839
410.90 1.848
411.00 1.858
411.10 1.868
411.20 1.877
411.30 1.885
411.40 1.894
411.50 1.901
411.60 1.909
411.70 1.916
411.80 1.922
411.90 1.928
412.00 1.934
412.10 1.94
412.20 1.945
412.30 1.949
412.40 1.954
412.50 1.958
412.60 1.962
412.70 1.965
412.80 1.968
412.90 1.971
413.00 1.974
413.10 1.977
413.20 1.979
413.30 1.981
413.40 1.983
413.50 1.984
413.60 1.986
413.70 1.987
413.80 1.988
413.90 1.989
414.00 1.99
414.10 1.991
414.20 1.991
414.30 1.991
414.40 1.992
414.50 1.992
414.60 1.992
414.70 1.992
414.80 1.992
414.90 1.992
415.00 1.991
415.10 1.991
415.20 1.991
415.30 1.99
415.40 1.989
415.50 1.989
415.60 1.988
415.70 1.987
415.80 1.987
415.90 1.986
416.00 1.985
416.10 1.984
416.20 1.983
416.30 1.982
416.40 1.981
416.50 1.98
416.60 1.979
416.70 1.978
416.80 1.977
416.90 1.975
417.00 1.974
417.10 1.973
417.20 1.972
417.30 1.97
417.40 1.969
417.50 1.968
417.60 1.966
417.70 1.965
417.80 1.964
417.90 1.962
418.00 1.961
418.10 1.959
418.20 1.958
418.30 1.956
418.40 1.955
418.50 1.954
418.60 1.952
418.70 1.951
418.80 1.949
418.90 1.948
419.00 1.946
419.10 1.944
419.20 1.943
419.30 1.941
419.40 1.94
419.50 1.938
419.60 1.937
419.70 1.935
419.80 1.933
419.90 1.932
420.00 1.93
420.10 1.929
420.20 1.927
420.30 1.925
420.40 1.924
420.50 1.922
420.60 1.921
420.70 1.919
420.80 1.917
420.90 1.916
421.00 1.914
421.10 1.912
421.20 1.911
421.30 1.909
421.40 1.907
421.50 1.906
421.60 1.904
421.70 1.902
421.80 1.901
421.90 1.899
422.00 1.897
422.10 1.896
422.20 1.894
422.30 1.892
422.40 1.89
422.50 1.889
422.60 1.887
422.70 1.885
422.80 1.884
422.90 1.882
423.00 1.88
423.10 1.878
423.20 1.877
423.30 1.875
423.40 1.873
423.50 1.871
423.60 1.87
423.70 1.868
423.80 1.866
423.90 1.864
424.00 1.863
424.10 1.861
424.20 1.859
424.30 1.857
424.40 1.856
424.50 1.854
424.60 1.852
424.70 1.85
424.80 1.848
424.90 1.847
425.00 1.845
425.10 1.843
425.20 1.841
425.30 1.839
425.40 1.837
425.50 1.835
425.60 1.834
425.70 1.832
425.80 1.83
425.90 1.828
426.00 1.826
426.10 1.824
426.20 1.822
426.30 1.82
426.40 1.818
426.50 1.816
426.60 1.814
426.70 1.812
426.80 1.81
426.90 1.808
427.00 1.806
427.10 1.804
427.20 1.802
427.30 1.8
427.40 1.798
427.50 1.796
427.60 1.793
427.70 1.791
427.80 1.789
427.90 1.787
428.00 1.784
428.10 1.782
428.20 1.78
428.30 1.777
428.40 1.775
428.50 1.772
428.60 1.77
428.70 1.767
428.80 1.765
428.90 1.762
429.00 1.759
429.10 1.756
429.20 1.754
429.30 1.751
429.40 1.748
429.50 1.745
429.60 1.741
429.70 1.738
429.80 1.735
429.90 1.731
430.00 1.728
430.10 1.724
430.20 1.72
430.30 1.717
430.40 1.712
430.50 1.708
430.60 1.704
430.70 1.7
430.80 1.695
430.90 1.69
431.00 1.685
431.10 1.68
431.20 1.674
431.30 1.669
431.40 1.663
431.50 1.657
431.60 1.65
431.70 1.644
431.80 1.637
431.90 1.629
432.00 1.622
432.10 1.614
432.20 1.606
432.30 1.597
432.40 1.588
432.50 1.579
432.60 1.569
432.70 1.559
432.80 1.548
432.90 1.537
433.00 1.526
433.10 1.514
433.20 1.502
433.30 1.489
433.40 1.476
433.50 1.464
433.60 1.451
433.70 1.438
433.80 1.426
433.90 1.414
434.00 1.404
434.10 1.403
434.20 1.411
434.30 1.421
434.40 1.431
434.50 1.441
434.60 1.451
434.70 1.462
434.80 1.472
434.90 1.482
435.00 1.491
435.10 1.501
435.20 1.509
435.30 1.517
435.40 1.525
435.50 1.533
435.60 1.54
435.70 1.546
435.80 1.552
435.90 1.558
436.00 1.564
436.10 1.568
436.20 1.573
436.30 1.577
436.40 1.581
436.50 1.585
436.60 1.589
436.70 1.592
436.80 1.595
436.90 1.597
437.00 1.6
437.10 1.602
437.20 1.604
437.30 1.605
437.40 1.607
437.50 1.608
437.60 1.61
437.70 1.611
437.80 1.612
437.90 1.613
438.00 1.613
438.10 1.614
438.20 1.614
438.30 1.615
438.40 1.615
438.50 1.615
438.60 1.615
438.70 1.615
438.80 1.615
438.90 1.615
439.00 1.615
439.10 1.615
439.20 1.614
439.30 1.614
439.40 1.614
439.50 1.613
439.60 1.613
439.70 1.612
439.80 1.611
439.90 1.611
440.00 1.61
440.10 1.609
440.20 1.609
440.30 1.608
440.40 1.607
440.50 1.606
440.60 1.605
440.70 1.604
440.80 1.604
440.90 1.603
441.00 1.602
441.10 1.601
441.20 1.6
441.30 1.599
441.40 1.598
441.50 1.597
441.60 1.596
441.70 1.595
441.80 1.594
441.90 1.593
442.00 1.592
442.10 1.59
442.20 1.589
442.30 1.588
442.40 1.587
442.50 1.586
442.60 1.585
442.70 1.584
442.80 1.583
442.90 1.581
443.00 1.58
443.10 1.579
443.20 1.578
443.30 1.577
443.40 1.576
443.50 1.574
443.60 1.573
443.70 1.572
443.80 1.571
443.90 1.57
444.00 1.568
444.10 1.567
444.20 1.566
444.30 1.565
444.40 1.564
444.50 1.562
444.60 1.561
444.70 1.56
444.80 1.559
444.90 1.557
445.00 1.556
445.10 1.555
445.20 1.554
445.30 1.552
445.40 1.551
445.50 1.55
445.60 1.549
445.70 1.547
445.80 1.546
445.90 1.545
446.00 1.544
446.10 1.542
446.20 1.541
446.30 1.54
446.40 1.539
446.50 1.537
446.60 1.536
446.70 1.535
446.80 1.534
446.90 1.533
447.00 1.531
447.10 1.53
447.20 1.529
447.30 1.527
447.40 1.526
447.50 1.525
447.60 1.524
447.70 1.522
447.80 1.521
447.90 1.52
448.00 1.519
448.10 1.517
448.20 1.516
448.30 1.515
448.40 1.514
448.50 1.513
448.60 1.511
448.70 1.51
448.80 1.509
448.90 1.508
449.00 1.506
449.10 1.505
449.20 1.504
449.30 1.503
449.40 1.501
449.50 1.5
449.60 1.499
449.70 1.498
449.80 1.496
449.90 1.495
450.00 1.494
450.10 1.493
450.20 1.491
450.30 1.49
450.40 1.489
450.50 1.488
450.60 1.486
450.70 1.485
450.80 1.484
450.90 1.483
451.00 1.482
451.10 1.48
451.20 1.479
451.30 1.478
451.40 1.477
451.50 1.475
451.60 1.474
451.70 1.473
451.80 1.472
451.90 1.47
452.00 1.469
452.10 1.468
452.20 1.467
452.30 1.466
452.40 1.464
452.50 1.463
452.60 1.462
452.70 1.461
452.80 1.46
452.90 1.458
453.00 1.457
453.10 1.456
453.20 1.455
453.30 1.453
453.40 1.452
453.50 1.451
453.60 1.45
453.70 1.449
453.80 1.447
453.90 1.446
454.00 1.445
454.10 1.444
454.20 1.443
454.30 1.441
454.40 1.44
454.50 1.439
454.60 1.438
454.70 1.437
454.80 1.435
454.90 1.434
455.00 1.433
455.10 1.432
455.20 1.431
455.30 1.429
455.40 1.428
455.50 1.427
455.60 1.426
455.70 1.425
455.80 1.424
455.90 1.422
456.00 1.421
456.10 1.42
456.20 1.419
456.30 1.418
456.40 1.416
456.50 1.415
456.60 1.414
456.70 1.413
456.80 1.412
456.90 1.411
457.00 1.409
457.10 1.408
457.20 1.407
457.30 1.406
457.40 1.405
457.50 1.404
457.60 1.402
457.70 1.401
457.80 1.4
457.90 1.399
458.00 1.398
458.10 1.397
458.20 1.395
458.30 1.394
458.40 1.393
458.50 1.392
458.60 1.391
458.70 1.39
458.80 1.389
458.90 1.387
459.00 1.386
459.10 1.385
459.20 1.384
459.30 1.383
459.40 1.382
459.50 1.381
459.60 1.379
459.70 1.378
459.80 1.377
459.90 1.376
460.00 1.375
460.10 1.374
460.20 1.373
460.30 1.371
460.40 1.37
460.50 1.369
460.60 1.368
460.70 1.367
460.80 1.366
460.90 1.365
461.00 1.363
461.10 1.362
461.20 1.361
461.30 1.36
461.40 1.359
461.50 1.358
461.60 1.357
461.70 1.356
461.80 1.355
461.90 1.353
462.00 1.352
462.10 1.351
462.20 1.35
462.30 1.349
462.40 1.348
462.50 1.347
462.60 1.346
462.70 1.344
462.80 1.343
462.90 1.342
463.00 1.341
463.10 1.34
463.20 1.339
463.30 1.338
463.40 1.337
463.50 1.336
463.60 1.335
463.70 1.333
463.80 1.332
463.90 1.331
464.00 1.33
464.10 1.329
464.20 1.328
464.30 1.327
464.40 1.326
464.50 1.325
464.60 1.324
464.70 1.322
464.80 1.321
464.90 1.32
465.00 1.319
465.10 1.318
465.20 1.317
465.30 1.316
465.40 1.315
465.50 1.314
465.60 1.313
465.70 1.312
465.80 1.311
465.90 1.309
466.00 1.308
466.10 1.307
466.20 1.306
466.30 1.305
466.40 1.304
466.50 1.303
466.60 1.302
466.70 1.301
466.80 1.3
466.90 1.299
467.00 1.298
467.10 1.297
467.20 1.295
467.30 1.294
467.40 1.293
467.50 1.292
467.60 1.291
467.70 1.29
467.80 1.289
467.90 1.288
468.00 1.287
468.10 1.286
468.20 1.285
468.30 1.284
468.40 1.283
468.50 1.282
468.60 1.281
468.70 1.28
468.80 1.278
468.90 1.277
469.00 1.276
469.10 1.275
469.20 1.274
469.30 1.273
469.40 1.272
469.50 1.271
469.60 1.27
469.70 1.269
469.80 1.268
469.90 1.267
470.00 1.266
470.10 1.265
470.20 1.264
470.30 1.263
470.40 1.262
470.50 1.261
470.60 1.26
470.70 1.259
470.80 1.257
470.90 1.256
471.00 1.255
471.10 1.254
471.20 1.253
471.30 1.252
471.40 1.251
471.50 1.25
471.60 1.249
471.70 1.248
471.80 1.247
471.90 1.246
472.00 1.245
472.10 1.244
472.20 1.243
472.30 1.242
472.40 1.241
472.50 1.24
472.60 1.239
472.70 1.238
472.80 1.237
472.90 1.236
473.00 1.235
473.10 1.234
473.20 1.232
473.30 1.231
473.40 1.23
473.50 1.229
473.60 1.228
473.70 1.227
473.80 1.226
473.90 1.225
474.00 1.224
474.10 1.223
474.20 1.222
474.30 1.221
474.40 1.22
474.50 1.219
474.60 1.218
474.70 1.217
474.80 1.216
474.90 1.215
475.00 1.214
475.10 1.213
475.20 1.212
475.30 1.21
475.40 1.209
475.50 1.208
475.60 1.207
475.70 1.206
475.80 1.205
475.90 1.204
476.00 1.203
476.10 1.202
476.20 1.201
476.30 1.2
476.40 1.199
476.50 1.198
476.60 1.197
476.70 1.195
476.80 1.194
476.90 1.193
477.00 1.192
477.10 1.191
477.20 1.19
477.30 1.189
477.40 1.188
477.50 1.187
477.60 1.185
477.70 1.184
477.80 1.183
477.90 1.182
478.00 1.181
478.10 1.18
478.20 1.179
478.30 1.177
478.40 1.176
478.50 1.175
478.60 1.174
478.70 1.173
478.80 1.171
478.90 1.17
479.00 1.169
479.10 1.168
479.20 1.166
479.30 1.165
479.40 1.164
479.50 1.162
479.60 1.161
479.70 1.16
479.80 1.158
479.90 1.157
480.00 1.156
480.10 1.155
480.20 1.153
480.30 1.151
480.40 1.15
480.50 1.148
480.60 1.147
480.70 1.145
480.80 1.144
480.90 1.142
481.00 1.141
481.10 1.139
481.20 1.137
481.30 1.135
481.40 1.133
481.50 1.132
481.60 1.13
481.70 1.128
481.80 1.126
481.90 1.124
482.00 1.122
482.10 1.12
482.20 1.118
482.30 1.115
482.40 1.112
482.50 1.11
482.60 1.107
482.70 1.104
482.80 1.102
482.90 1.099
483.00 1.097
483.10 1.094
483.20 1.09
483.30 1.087
483.40 1.083
483.50 1.079
483.60 1.075
483.70 1.071
483.80 1.067
483.90 1.063
484.00 1.059
484.10 1.055
484.20 1.05
484.30 1.045
484.40 1.04
484.50 1.034
484.60 1.029
484.70 1.023
484.80 1.016
484.90 1.01
485.00 1.003
485.10 0.9966
485.20 0.9894
485.30 0.9819
485.40 0.9741
485.50 0.9663
485.60 0.9582
485.70 0.9499
485.80 0.9414
485.90 0.9326
486.00 0.9237
486.10 0.9266
486.20 0.921
486.30 0.9244
486.40 0.9319
486.50 0.9393
486.60 0.9462
486.70 0.953
486.80 0.9596
486.90 0.9659
487.00 0.972
487.10 0.9779
487.20 0.9832
487.30 0.9882
487.40 0.9932
487.50 0.9982
487.60 1.003
487.70 1.007
487.80 1.011
487.90 1.015
488.00 1.018
488.10 1.022
488.20 1.025
488.30 1.027
488.40 1.029
488.50 1.031
488.60 1.033
488.70 1.035
488.80 1.038
488.90 1.04
489.00 1.042
489.10 1.044
489.20 1.045
489.30 1.046
489.40 1.047
489.50 1.048
489.60 1.049
489.70 1.049
489.80 1.05
489.90 1.051
490.00 1.052
490.10 1.053
490.20 1.053
490.30 1.053
490.40 1.053
490.50 1.054
490.60 1.054
490.70 1.054
490.80 1.054
490.90 1.054
491.00 1.054
491.10 1.054
491.20 1.054
491.30 1.054
491.40 1.054
491.50 1.053
491.60 1.053
491.70 1.053
491.80 1.053
491.90 1.052
492.00 1.052
492.10 1.052
492.20 1.052
492.30 1.051
492.40 1.051
492.50 1.05
492.60 1.05
492.70 1.049
492.80 1.049
492.90 1.048
493.00 1.048
493.10 1.047
493.20 1.047
493.30 1.046
493.40 1.046
493.50 1.045
493.60 1.044
493.70 1.044
493.80 1.043
493.90 1.043
494.00 1.042
494.10 1.042
494.20 1.041
494.30 1.04
494.40 1.04
494.50 1.039
494.60 1.038
494.70 1.038
494.80 1.037
494.90 1.036
495.00 1.036
495.10 1.035
495.20 1.034
495.30 1.034
495.40 1.033
495.50 1.032
495.60 1.032
495.70 1.031
495.80 1.03
495.90 1.03
496.00 1.029
496.10 1.028
496.20 1.028
496.30 1.027
496.40 1.026
496.50 1.025
496.60 1.025
496.70 1.024
496.80 1.023
496.90 1.023
497.00 1.022
497.10 1.021
497.20 1.02
497.30 1.02
497.40 1.019
497.50 1.018
497.60 1.018
497.70 1.017
497.80 1.016
497.90 1.015
498.00 1.015
498.10 1.014
498.20 1.013
498.30 1.012
498.40 1.012
498.50 1.011
498.60 1.01
498.70 1.01
498.80 1.009
498.90 1.008
499.00 1.007
499.10 1.007
499.20 1.006
499.30 1.005
499.40 1.004
499.50 1.004
499.60 1.003
499.70 1.002
499.80 1.001
499.90 1.001
500.00 1
500.10 0.9993
500.20 0.9985
500.30 0.9978
500.40 0.9971
500.50 0.9963
500.60 0.9956
500.70 0.9949
500.80 0.9941
500.90 0.9934
501.00 0.9927
501.10 0.9919
501.20 0.9912
501.30 0.9905
501.40 0.9897
501.50 0.989
501.60 0.9883
501.70 0.9875
501.80 0.9868
501.90 0.9861
502.00 0.9853
502.10 0.9846
502.20 0.9839
502.30 0.9831
502.40 0.9824
502.50 0.9817
502.60 0.981
502.70 0.9802
502.80 0.9795
502.90 0.9788
503.00 0.978
503.10 0.9773
503.20 0.9766
503.30 0.9759
503.40 0.9751
503.50 0.9744
503.60 0.9737
503.70 0.973
503.80 0.9722
503.90 0.9715
504.00 0.9708
504.10 0.9701
504.20 0.9693
504.30 0.9686
504.40 0.9679
504.50 0.9672
504.60 0.9665
504.70 0.9657
504.80 0.965
504.90 0.9643
505.00 0.9636
505.10 0.9629
505.20 0.9621
505.30 0.9614
505.40 0.9607
505.50 0.96
505.60 0.9593
505.70 0.9586
505.80 0.9578
505.90 0.9571
506.00 0.9564
506.10 0.9557
506.20 0.955
506.30 0.9543
506.40 0.9536
506.50 0.9529
506.60 0.9521
506.70 0.9514
506.80 0.9507
506.90 0.95
507.00 0.9493
507.10 0.9486
507.20 0.9479
507.30 0.9472
507.40 0.9465
507.50 0.9458
507.60 0.9451
507.70 0.9444
507.80 0.9437
507.90 0.943
508.00 0.9423
508.10 0.9416
508.20 0.9409
508.30 0.9401
508.40 0.9394
508.50 0.9387
508.60 0.9381
508.70 0.9374
508.80 0.9367
508.90 0.936
509.00 0.9353
509.10 0.9346
509.20 0.9339
509.30 0.9332
509.40 0.9325
509.50 0.9318
509.60 0.9311
509.70 0.9304
509.80 0.9297
509.90 0.929
510.00 0.9283
510.10 0.9276
510.20 0.9269
510.30 0.9263
510.40 0.9256
510.50 0.9249
510.60 0.9242
510.70 0.9235
510.80 0.9228
510.90 0.9221
511.00 0.9214
511.10 0.9208
511.20 0.9201
511.30 0.9194
511.40 0.9187
511.50 0.918
511.60 0.9173
511.70 0.9167
511.80 0.916
511.90 0.9153
512.00 0.9146
512.10 0.9139
512.20 0.9133
512.30 0.9126
512.40 0.9119
512.50 0.9112
512.60 0.9106
512.70 0.9099
512.80 0.9092
512.90 0.9085
513.00 0.9079
513.10 0.9072
513.20 0.9065
513.30 0.9058
513.40 0.9052
513.50 0.9045
513.60 0.9038
513.70 0.9032
513.80 0.9025
513.90 0.9018
514.00 0.9012
514.10 0.9005
514.20 0.8998
514.30 0.8992
514.40 0.8985
514.50 0.8978
514.60 0.8972
514.70 0.8965
514.80 0.8958
514.90 0.8952
515.00 0.8945
515.10 0.8939
515.20 0.8932
515.30 0.8925
515.40 0.8919
515.50 0.8912
515.60 0.8906
515.70 0.8899
515.80 0.8892
515.90 0.8886
516.00 0.8879
516.10 0.8873
516.20 0.8866
516.30 0.886
516.40 0.8853
516.50 0.8847
516.60 0.884
516.70 0.8834
516.80 0.8827
516.90 0.8821
517.00 0.8814
517.10 0.8808
517.20 0.8801
517.30 0.8795
517.40 0.8788
517.50 0.8782
517.60 0.8775
517.70 0.8769
517.80 0.8762
517.90 0.8756
518.00 0.8749
518.10 0.8743
518.20 0.8737
518.30 0.873
518.40 0.8724
518.50 0.8717
518.60 0.8711
518.70 0.8704
518.80 0.8698
518.90 0.8692
519.00 0.8685
519.10 0.8679
519.20 0.8673
519.30 0.8666
519.40 0.866
519.50 0.8653
519.60 0.8647
519.70 0.8641
519.80 0.8634
519.90 0.8628
520.00 0.8622
520.10 0.8615
520.20 0.8609
520.30 0.8603
520.40 0.8597
520.50 0.859
520.60 0.8584
520.70 0.8578
520.80 0.8571
520.90 0.8565
521.00 0.8559
521.10 0.8553
521.20 0.8546
521.30 0.854
521.40 0.8534
521.50 0.8528
521.60 0.8521
521.70 0.8515
521.80 0.8509
521.90 0.8503
522.00 0.8496
522.10 0.849
522.20 0.8484
522.30 0.8478
522.40 0.8472
522.50 0.8465
522.60 0.8459
522.70 0.8453
522.80 0.8447
522.90 0.8441
523.00 0.8435
523.10 0.8428
523.20 0.8422
523.30 0.8416
523.40 0.841
523.50 0.8404
523.60 0.8398
523.70 0.8392
523.80 0.8386
523.90 0.8379
524.00 0.8373
524.10 0.8367
524.20 0.8361
524.30 0.8355
524.40 0.8349
524.50 0.8343
524.60 0.8337
524.70 0.8331
524.80 0.8325
524.90 0.8319
525.00 0.8313
525.10 0.8307
525.20 0.8301
525.30 0.8295
525.40 0.8289
525.50 0.8283
525.60 0.8277
525.70 0.827
525.80 0.8264
525.90 0.8258
526.00 0.8252
526.10 0.8246
526.20 0.8241
526.30 0.8235
526.40 0.8229
526.50 0.8223
526.60 0.8217
526.70 0.8211
526.80 0.8205
526.90 0.8199
527.00 0.8193
527.10 0.8187
527.20 0.8181
527.30 0.8175
527.40 0.8169
527.50 0.8163
527.60 0.8157
527.70 0.8151
527.80 0.8146
527.90 0.814
528.00 0.8134
528.10 0.8128
528.20 0.8122
528.30 0.8116
528.40 0.811
528.50 0.8104
528.60 0.8099
528.70 0.8093
528.80 0.8087
528.90 0.8081
529.00 0.8075
529.10 0.8069
529.20 0.8064
529.30 0.8058
529.40 0.8052
529.50 0.8046
529.60 0.804
529.70 0.8035
529.80 0.8029
529.90 0.8023
530.00 0.8017
530.10 0.8011
530.20 0.8006
530.30 0.8
530.40 0.7994
530.50 0.7988
530.60 0.7983
530.70 0.7977
530.80 0.7971
530.90 0.7965
531.00 0.796
531.10 0.7954
531.20 0.7948
531.30 0.7942
531.40 0.7937
531.50 0.7931
531.60 0.7925
531.70 0.792
531.80 0.7914
531.90 0.7908
532.00 0.7903
532.10 0.7897
532.20 0.7891
532.30 0.7886
532.40 0.788
532.50 0.7874
532.60 0.7869
532.70 0.7863
532.80 0.7857
532.90 0.7852
533.00 0.7846
533.10 0.7841
533.20 0.7835
533.30 0.7829
533.40 0.7824
533.50 0.7818
533.60 0.7812
533.70 0.7807
533.80 0.7801
533.90 0.7796
534.00 0.779
534.10 0.7785
534.20 0.7779
534.30 0.7773
534.40 0.7768
534.50 0.7762
534.60 0.7757
534.70 0.7751
534.80 0.7746
534.90 0.774
535.00 0.7735
535.10 0.7729
535.20 0.7724
535.30 0.7718
535.40 0.7713
535.50 0.7707
535.60 0.7702
535.70 0.7696
535.80 0.7691
535.90 0.7685
536.00 0.768
536.10 0.7674
536.20 0.7669
536.30 0.7663
536.40 0.7658
536.50 0.7652
536.60 0.7647
536.70 0.7641
536.80 0.7636
536.90 0.7631
537.00 0.7625
537.10 0.762
537.20 0.7614
537.30 0.7609
537.40 0.7603
537.50 0.7598
537.60 0.7593
537.70 0.7587
537.80 0.7582
537.90 0.7576
538.00 0.7571
538.10 0.7566
538.20 0.756
538.30 0.7555
538.40 0.755
538.50 0.7544
538.60 0.7539
538.70 0.7534
538.80 0.7528
538.90 0.7523
539.00 0.7517
539.10 0.7512
539.20 0.7507
539.30 0.7502
539.40 0.7496
539.50 0.7491
539.60 0.7486
539.70 0.748
539.80 0.7475
539.90 0.747
540.00 0.7464
540.10 0.7459
540.20 0.7454
540.30 0.7449
540.40 0.7443
540.50 0.7438
540.60 0.7433
540.70 0.7428
540.80 0.7422
540.90 0.7417
541.00 0.7412
541.10 0.7407
541.20 0.7401
541.30 0.7396
541.40 0.7391
541.50 0.7386
541.60 0.738
541.70 0.7375
541.80 0.737
541.90 0.7365
542.00 0.736
542.10 0.7354
542.20 0.7349
542.30 0.7344
542.40 0.7339
542.50 0.7334
542.60 0.7329
542.70 0.7323
542.80 0.7318
542.90 0.7313
543.00 0.7308
543.10 0.7303
543.20 0.7298
543.30 0.7293
543.40 0.7287
543.50 0.7282
543.60 0.7277
543.70 0.7272
543.80 0.7267
543.90 0.7262
544.00 0.7257
544.10 0.7252
544.20 0.7246
544.30 0.7241
544.40 0.7236
544.50 0.7231
544.60 0.7226
544.70 0.7221
544.80 0.7216
544.90 0.7211
545.00 0.7206
545.10 0.7201
545.20 0.7196
545.30 0.7191
545.40 0.7186
545.50 0.7181
545.60 0.7176
545.70 0.7171
545.80 0.7166
545.90 0.7161
546.00 0.7156
546.10 0.7151
546.20 0.7145
546.30 0.7141
546.40 0.7136
546.50 0.7131
546.60 0.7126
546.70 0.7121
546.80 0.7116
546.90 0.7111
547.00 0.7106
547.10 0.7101
547.20 0.7096
547.30 0.7091
547.40 0.7086
547.50 0.7081
547.60 0.7076
547.70 0.7071
547.80 0.7066
547.90 0.7061
548.00 0.7056
548.10 0.7051
548.20 0.7046
548.30 0.7041
548.40 0.7036
548.50 0.7032
548.60 0.7027
548.70 0.7022
548.80 0.7017
548.90 0.7012
549.00 0.7007
549.10 0.7002
549.20 0.6997
549.30 0.6992
549.40 0.6988
549.50 0.6983
549.60 0.6978
549.70 0.6973
549.80 0.6968
549.90 0.6963
550.00 0.6958
550.10 0.6954
550.20 0.6949
550.30 0.6944
550.40 0.6939
550.50 0.6934
550.60 0.6929
550.70 0.6925
550.80 0.692
550.90 0.6915
551.00 0.691
551.10 0.6905
551.20 0.6901
551.30 0.6896
551.40 0.6891
551.50 0.6886
551.60 0.6882
551.70 0.6877
551.80 0.6872
551.90 0.6867
552.00 0.6862
552.10 0.6858
552.20 0.6853
552.30 0.6848
552.40 0.6843
552.50 0.6839
552.60 0.6834
552.70 0.6829
552.80 0.6825
552.90 0.682
553.00 0.6815
553.10 0.681
553.20 0.6806
553.30 0.6801
553.40 0.6796
553.50 0.6792
553.60 0.6787
553.70 0.6782
553.80 0.6777
553.90 0.6773
554.00 0.6768
554.10 0.6763
554.20 0.6759
554.30 0.6754
554.40 0.6749
554.50 0.6745
554.60 0.674
554.70 0.6735
554.80 0.6731
554.90 0.6726
555.00 0.6722
555.10 0.6717
555.20 0.6712
555.30 0.6708
555.40 0.6703
555.50 0.6698
555.60 0.6694
555.70 0.6689
555.80 0.6685
555.90 0.668
556.00 0.6675
556.10 0.6671
556.20 0.6666
556.30 0.6662
556.40 0.6657
556.50 0.6652
556.60 0.6648
556.70 0.6643
556.80 0.6639
556.90 0.6634
557.00 0.663
557.10 0.6625
557.20 0.6621
557.30 0.6616
557.40 0.6611
557.50 0.6607
557.60 0.6602
557.70 0.6598
557.80 0.6593
557.90 0.6589
558.00 0.6584
558.10 0.658
558.20 0.6575
558.30 0.6571
558.40 0.6566
558.50 0.6562
558.60 0.6557
558.70 0.6553
558.80 0.6548
558.90 0.6544
559.00 0.6539
559.10 0.6535
559.20 0.653
559.30 0.6526
559.40 0.6521
559.50 0.6517
559.60 0.6512
559.70 0.6508
559.80 0.6504
559.90 0.6499
560.00 0.6495
560.10 0.649
560.20 0.6486
560.30 0.6481
560.40 0.6477
560.50 0.6473
560.60 0.6468
560.70 0.6464
560.80 0.6459
560.90 0.6455
561.00 0.645
561.10 0.6446
561.20 0.6442
561.30 0.6437
561.40 0.6433
561.50 0.6428
561.60 0.6424
561.70 0.642
561.80 0.6415
561.90 0.6411
562.00 0.6407
562.10 0.6402
562.20 0.6398
562.30 0.6394
562.40 0.6389
562.50 0.6385
562.60 0.638
562.70 0.6376
562.80 0.6372
562.90 0.6367
563.00 0.6363
563.10 0.6359
563.20 0.6354
563.30 0.635
563.40 0.6346
563.50 0.6342
563.60 0.6337
563.70 0.6333
563.80 0.6329
563.90 0.6324
564.00 0.632
564.10 0.6316
564.20 0.6311
564.30 0.6307
564.40 0.6303
564.50 0.6299
564.60 0.6294
564.70 0.629
564.80 0.6286
564.90 0.6282
565.00 0.6277
565.10 0.6273
565.20 0.6269
565.30 0.6265
565.40 0.626
565.50 0.6256
565.60 0.6252
565.70 0.6248
565.80 0.6243
565.90 0.6239
566.00 0.6235
566.10 0.6231
566.20 0.6226
566.30 0.6222
566.40 0.6218
566.50 0.6214
566.60 0.621
566.70 0.6205
566.80 0.6201
566.90 0.6197
567.00 0.6193
567.10 0.6189
567.20 0.6185
567.30 0.618
567.40 0.6176
567.50 0.6172
567.60 0.6168
567.70 0.6164
567.80 0.616
567.90 0.6155
568.00 0.6151
568.10 0.6147
568.20 0.6143
568.30 0.6139
568.40 0.6135
568.50 0.6131
568.60 0.6126
568.70 0.6122
568.80 0.6118
568.90 0.6114
569.00 0.611
569.10 0.6106
569.20 0.6102
569.30 0.6098
569.40 0.6093
569.50 0.6089
569.60 0.6085
569.70 0.6081
569.80 0.6077
569.90 0.6073
570.00 0.6069
570.10 0.6065
570.20 0.6061
570.30 0.6057
570.40 0.6053
570.50 0.6049
570.60 0.6045
570.70 0.604
570.80 0.6036
570.90 0.6032
571.00 0.6028
571.10 0.6024
571.20 0.602
571.30 0.6016
571.40 0.6012
571.50 0.6008
571.60 0.6004
571.70 0.6
571.80 0.5996
571.90 0.5992
572.00 0.5988
572.10 0.5984
572.20 0.598
572.30 0.5976
572.40 0.5972
572.50 0.5968
572.60 0.5964
572.70 0.596
572.80 0.5956
572.90 0.5952
573.00 0.5948
573.10 0.5944
573.20 0.594
573.30 0.5936
573.40 0.5932
573.50 0.5928
573.60 0.5924
573.70 0.592
573.80 0.5916
573.90 0.5912
574.00 0.5908
574.10 0.5905
574.20 0.5901
574.30 0.5897
574.40 0.5893
574.50 0.5889
574.60 0.5885
574.70 0.5881
574.80 0.5877
574.90 0.5873
575.00 0.5869
575.10 0.5865
575.20 0.5861
575.30 0.5857
575.40 0.5854
575.50 0.585
575.60 0.5846
575.70 0.5842
575.80 0.5838
575.90 0.5834
576.00 0.583
576.10 0.5826
576.20 0.5822
576.30 0.5819
576.40 0.5815
576.50 0.5811
576.60 0.5807
576.70 0.5803
576.80 0.5799
576.90 0.5795
577.00 0.5792
577.10 0.5788
577.20 0.5784
577.30 0.578
577.40 0.5776
577.50 0.5772
577.60 0.5769
577.70 0.5765
577.80 0.5761
577.90 0.5757
578.00 0.5753
578.10 0.5749
578.20 0.5746
578.30 0.5742
578.40 0.5738
578.50 0.5734
578.60 0.573
578.70 0.5727
578.80 0.5723
578.90 0.5719
579.00 0.5715
579.10 0.5711
579.20 0.5708
579.30 0.5704
579.40 0.57
579.50 0.5696
579.60 0.5693
579.70 0.5689
579.80 0.5685
579.90 0.5681
580.00 0.5678
580.10 0.5674
580.20 0.567
580.30 0.5666
580.40 0.5663
580.50 0.5659
580.60 0.5655
580.70 0.5651
580.80 0.5648
580.90 0.5644
581.00 0.564
581.10 0.5636
581.20 0.5633
581.30 0.5629
581.40 0.5625
581.50 0.5622
581.60 0.5618
581.70 0.5614
581.80 0.561
581.90 0.5607
582.00 0.5603
582.10 0.5599
582.20 0.5596
582.30 0.5592
582.40 0.5588
582.50 0.5585
582.60 0.5581
582.70 0.5577
582.80 0.5574
582.90 0.557
583.00 0.5566
583.10 0.5563
583.20 0.5559
583.30 0.5555
583.40 0.5552
583.50 0.5548
583.60 0.5544
583.70 0.5541
583.80 0.5537
583.90 0.5534
584.00 0.553
584.10 0.5526
584.20 0.5523
584.30 0.5519
584.40 0.5515
584.50 0.5512
584.60 0.5508
584.70 0.5505
584.80 0.5501
584.90 0.5497
585.00 0.5494
585.10 0.549
585.20 0.5487
585.30 0.5483
585.40 0.5479
585.50 0.5476
585.60 0.5472
585.70 0.5469
585.80 0.5465
585.90 0.5461
586.00 0.5458
586.10 0.5454
586.20 0.5451
586.30 0.5447
586.40 0.5444
586.50 0.544
586.60 0.5436
586.70 0.5433
586.80 0.5429
586.90 0.5426
587.00 0.5422
587.10 0.5419
587.20 0.5415
587.30 0.5412
587.40 0.5408
587.50 0.5405
587.60 0.5401
587.70 0.5398
587.80 0.5394
587.90 0.539
588.00 0.5387
588.10 0.5383
588.20 0.538
588.30 0.5376
588.40 0.5373
588.50 0.5369
588.60 0.5366
588.70 0.5362
588.80 0.5359
588.90 0.5355
589.00 0.5352
589.10 0.5348
589.20 0.5345
589.30 0.5342
589.40 0.5338
589.50 0.5335
589.60 0.5331
589.70 0.5328
589.80 0.5324
589.90 0.5321
590.00 0.5317
590.10 0.5314
590.20 0.531
590.30 0.5307
590.40 0.5303
590.50 0.53
590.60 0.5297
590.70 0.5293
590.80 0.529
590.90 0.5286
591.00 0.5283
591.10 0.5279
591.20 0.5276
591.30 0.5273
591.40 0.5269
591.50 0.5266
591.60 0.5262
591.70 0.5259
591.80 0.5255
591.90 0.5252
592.00 0.5249
592.10 0.5245
592.20 0.5242
592.30 0.5238
592.40 0.5235
592.50 0.5232
592.60 0.5228
592.70 0.5225
592.80 0.5222
592.90 0.5218
593.00 0.5215
593.10 0.5211
593.20 0.5208
593.30 0.5205
593.40 0.5201
593.50 0.5198
593.60 0.5195
593.70 0.5191
593.80 0.5188
593.90 0.5185
594.00 0.5181
594.10 0.5178
594.20 0.5174
594.30 0.5171
594.40 0.5168
594.50 0.5164
594.60 0.5161
594.70 0.5158
594.80 0.5154
594.90 0.5151
595.00 0.5148
595.10 0.5144
595.20 0.5141
595.30 0.5138
595.40 0.5135
595.50 0.5131
595.60 0.5128
595.70 0.5125
595.80 0.5121
595.90 0.5118
596.00 0.5115
596.10 0.5111
596.20 0.5108
596.30 0.5105
596.40 0.5102
596.50 0.5098
596.60 0.5095
596.70 0.5092
596.80 0.5088
596.90 0.5085
597.00 0.5082
597.10 0.5079
597.20 0.5075
597.30 0.5072
597.40 0.5069
597.50 0.5066
597.60 0.5062
597.70 0.5059
597.80 0.5056
597.90 0.5053
598.00 0.5049
598.10 0.5046
598.20 0.5043
598.30 0.504
598.40 0.5036
598.50 0.5033
598.60 0.503
598.70 0.5027
598.80 0.5024
598.90 0.502
599.00 0.5017
599.10 0.5014
599.20 0.5011
599.30 0.5007
599.40 0.5004
599.50 0.5001
599.60 0.4998
599.70 0.4995
599.80 0.4991
599.90 0.4988
600.00 0.4985
600.10 0.4982
600.20 0.4979
600.30 0.4976
600.40 0.4972
600.50 0.4969
600.60 0.4966
600.70 0.4963
600.80 0.496
600.90 0.4956
601.00 0.4953
601.10 0.495
601.20 0.4947
601.30 0.4944
601.40 0.4941
601.50 0.4938
601.60 0.4934
601.70 0.4931
601.80 0.4928
601.90 0.4925
602.00 0.4922
602.10 0.4919
602.20 0.4916
602.30 0.4912
602.40 0.4909
602.50 0.4906
602.60 0.4903
602.70 0.49
602.80 0.4897
602.90 0.4894
603.00 0.4891
603.10 0.4887
603.20 0.4884
603.30 0.4881
603.40 0.4878
603.50 0.4875
603.60 0.4872
603.70 0.4869
603.80 0.4866
603.90 0.4863
604.00 0.486
604.10 0.4856
604.20 0.4853
604.30 0.485
604.40 0.4847
604.50 0.4844
604.60 0.4841
604.70 0.4838
604.80 0.4835
604.90 0.4832
605.00 0.4829
605.10 0.4826
605.20 0.4823
605.30 0.482
605.40 0.4816
605.50 0.4813
605.60 0.481
605.70 0.4807
605.80 0.4804
605.90 0.4801
606.00 0.4798
606.10 0.4795
606.20 0.4792
606.30 0.4789
606.40 0.4786
606.50 0.4783
606.60 0.478
606.70 0.4777
606.80 0.4774
606.90 0.4771
607.00 0.4768
607.10 0.4765
607.20 0.4762
607.30 0.4759
607.40 0.4756
607.50 0.4753
607.60 0.475
607.70 0.4747
607.80 0.4744
607.90 0.4741
608.00 0.4738
608.10 0.4735
608.20 0.4732
608.30 0.4729
608.40 0.4726
608.50 0.4723
608.60 0.472
608.70 0.4717
608.80 0.4714
608.90 0.4711
609.00 0.4708
609.10 0.4705
609.20 0.4702
609.30 0.4699
609.40 0.4696
609.50 0.4693
609.60 0.469
609.70 0.4687
609.80 0.4684
609.90 0.4681
610.00 0.4678
610.10 0.4675
610.20 0.4673
610.30 0.467
610.40 0.4667
610.50 0.4664
610.60 0.4661
610.70 0.4658
610.80 0.4655
610.90 0.4652
611.00 0.4649
611.10 0.4646
611.20 0.4643
611.30 0.464
611.40 0.4637
611.50 0.4634
611.60 0.4632
611.70 0.4629
611.80 0.4626
611.90 0.4623
612.00 0.462
612.10 0.4617
612.20 0.4614
612.30 0.4611
612.40 0.4608
612.50 0.4605
612.60 0.4603
612.70 0.46
612.80 0.4597
612.90 0.4594
613.00 0.4591
613.10 0.4588
613.20 0.4585
613.30 0.4582
613.40 0.458
613.50 0.4577
613.60 0.4574
613.70 0.4571
613.80 0.4568
613.90 0.4565
614.00 0.4562
614.10 0.4559
614.20 0.4557
614.30 0.4554
614.40 0.4551
614.50 0.4548
614.60 0.4545
614.70 0.4542
614.80 0.454
614.90 0.4537
615.00 0.4534
615.10 0.4531
615.20 0.4528
615.30 0.4525
615.40 0.4523
615.50 0.452
615.60 0.4517
615.70 0.4514
615.80 0.4511
615.90 0.4508
616.00 0.4506
616.10 0.4503
616.20 0.45
616.30 0.4497
616.40 0.4494
616.50 0.4492
616.60 0.4489
616.70 0.4486
616.80 0.4483
616.90 0.448
617.00 0.4478
617.10 0.4475
617.20 0.4472
617.30 0.4469
617.40 0.4467
617.50 0.4464
617.60 0.4461
617.70 0.4458
617.80 0.4455
617.90 0.4453
618.00 0.445
618.10 0.4447
618.20 0.4444
618.30 0.4442
618.40 0.4439
618.50 0.4436
618.60 0.4433
618.70 0.4431
618.80 0.4428
618.90 0.4425
619.00 0.4422
619.10 0.4419
619.20 0.4417
619.30 0.4414
619.40 0.4411
619.50 0.4409
619.60 0.4406
619.70 0.4403
619.80 0.44
619.90 0.4398
620.00 0.4395
620.10 0.4392
620.20 0.4389
620.30 0.4387
620.40 0.4384
620.50 0.4381
620.60 0.4379
620.70 0.4376
620.80 0.4373
620.90 0.437
621.00 0.4368
621.10 0.4365
621.20 0.4362
621.30 0.436
621.40 0.4357
621.50 0.4354
621.60 0.4351
621.70 0.4349
621.80 0.4346
621.90 0.4343
622.00 0.4341
622.10 0.4338
622.20 0.4335
622.30 0.4333
622.40 0.433
622.50 0.4327
622.60 0.4325
622.70 0.4322
622.80 0.4319
622.90 0.4317
623.00 0.4314
623.10 0.4311
623.20 0.4309
623.30 0.4306
623.40 0.4303
623.50 0.4301
623.60 0.4298
623.70 0.4295
623.80 0.4293
623.90 0.429
624.00 0.4287
624.10 0.4285
624.20 0.4282
624.30 0.4279
624.40 0.4277
624.50 0.4274
624.60 0.4272
624.70 0.4269
624.80 0.4266
624.90 0.4264
625.00 0.4261
625.10 0.4258
625.20 0.4256
625.30 0.4253
625.40 0.4251
625.50 0.4248
625.60 0.4245
625.70 0.4243
625.80 0.424
625.90 0.4237
626.00 0.4235
626.10 0.4232
626.20 0.423
626.30 0.4227
626.40 0.4224
626.50 0.4222
626.60 0.4219
626.70 0.4217
626.80 0.4214
626.90 0.4211
627.00 0.4209
627.10 0.4206
627.20 0.4204
627.30 0.4201
627.40 0.4199
627.50 0.4196
627.60 0.4193
627.70 0.4191
627.80 0.4188
627.90 0.4186
628.00 0.4183
628.10 0.418
628.20 0.4178
628.30 0.4175
628.40 0.4173
628.50 0.417
628.60 0.4168
628.70 0.4165
628.80 0.4163
628.90 0.416
629.00 0.4157
629.10 0.4155
629.20 0.4152
629.30 0.415
629.40 0.4147
629.50 0.4145
629.60 0.4142
629.70 0.414
629.80 0.4137
629.90 0.4135
630.00 0.4132
630.10 0.4129
630.20 0.4127
630.30 0.4124
630.40 0.4122
630.50 0.4119
630.60 0.4117
630.70 0.4114
630.80 0.4112
630.90 0.4109
631.00 0.4107
631.10 0.4104
631.20 0.4102
631.30 0.4099
631.40 0.4097
631.50 0.4094
631.60 0.4092
631.70 0.4089
631.80 0.4087
631.90 0.4084
632.00 0.4082
632.10 0.4079
632.20 0.4077
632.30 0.4074
632.40 0.4072
632.50 0.4069
632.60 0.4067
632.70 0.4064
632.80 0.4062
632.90 0.4059
633.00 0.4057
633.10 0.4054
633.20 0.4052
633.30 0.4049
633.40 0.4047
633.50 0.4044
633.60 0.4042
633.70 0.4039
633.80 0.4037
633.90 0.4035
634.00 0.4032
634.10 0.403
634.20 0.4027
634.30 0.4025
634.40 0.4022
634.50 0.402
634.60 0.4017
634.70 0.4015
634.80 0.4012
634.90 0.401
635.00 0.4007
635.10 0.4005
635.20 0.4003
635.30 0.4
635.40 0.3998
635.50 0.3995
635.60 0.3993
635.70 0.399
635.80 0.3988
635.90 0.3985
636.00 0.3983
636.10 0.3981
636.20 0.3978
636.30 0.3976
636.40 0.3973
636.50 0.3971
636.60 0.3968
636.70 0.3966
636.80 0.3964
636.90 0.3961
637.00 0.3959
637.10 0.3956
637.20 0.3954
637.30 0.3951
637.40 0.3949
637.50 0.3947
637.60 0.3944
637.70 0.3942
637.80 0.3939
637.90 0.3937
638.00 0.3935
638.10 0.3932
638.20 0.393
638.30 0.3927
638.40 0.3925
638.50 0.3923
638.60 0.392
638.70 0.3918
638.80 0.3915
638.90 0.3913
639.00 0.3911
639.10 0.3908
639.20 0.3906
639.30 0.3903
639.40 0.3901
639.50 0.3899
639.60 0.3896
639.70 0.3894
639.80 0.3891
639.90 0.3889
640.00 0.3887
640.10 0.3884
640.20 0.3882
640.30 0.3879
640.40 0.3877
640.50 0.3875
640.60 0.3872
640.70 0.387
640.80 0.3867
640.90 0.3865
641.00 0.3863
641.10 0.386
641.20 0.3858
641.30 0.3856
641.40 0.3853
641.50 0.3851
641.60 0.3848
641.70 0.3846
641.80 0.3844
641.90 0.3841
642.00 0.3839
642.10 0.3836
642.20 0.3834
642.30 0.3832
642.40 0.3829
642.50 0.3827
642.60 0.3825
642.70 0.3822
642.80 0.382
642.90 0.3817
643.00 0.3815
643.10 0.3813
643.20 0.381
643.30 0.3808
643.40 0.3805
643.50 0.3803
643.60 0.3801
643.70 0.3798
643.80 0.3796
643.90 0.3793
644.00 0.3791
644.10 0.3789
644.20 0.3786
644.30 0.3784
644.40 0.3781
644.50 0.3779
644.60 0.3777
644.70 0.3774
644.80 0.3772
644.90 0.3769
645.00 0.3767
645.10 0.3764
645.20 0.3762
645.30 0.376
645.40 0.3757
645.50 0.3755
645.60 0.3752
645.70 0.375
645.80 0.3747
645.90 0.3745
646.00 0.3742
646.10 0.374
646.20 0.3738
646.30 0.3735
646.40 0.3733
646.50 0.373
646.60 0.3728
646.70 0.3725
646.80 0.3723
646.90 0.372
647.00 0.3718
647.10 0.3715
647.20 0.3713
647.30 0.371
647.40 0.3707
647.50 0.3705
647.60 0.3702
647.70 0.37
647.80 0.3697
647.90 0.3694
648.00 0.3692
648.10 0.3689
648.20 0.3686
648.30 0.3684
648.40 0.3681
648.50 0.3678
648.60 0.3675
648.70 0.3673
648.80 0.367
648.90 0.3667
649.00 0.3664
649.10 0.3662
649.20 0.3659
649.30 0.3656
649.40 0.3653
649.50 0.365
649.60 0.3647
649.70 0.3644
649.80 0.3641
649.90 0.3638
650.00 0.3635
650.10 0.3632
650.20 0.3629
650.30 0.3625
650.40 0.3622
650.50 0.3618
650.60 0.3615
650.70 0.3611
650.80 0.3608
650.90 0.3604
651.00 0.3601
651.10 0.3597
651.20 0.3593
651.30 0.359
651.40 0.3585
651.50 0.3581
651.60 0.3577
651.70 0.3572
651.80 0.3568
651.90 0.3563
652.00 0.3559
652.10 0.3554
652.20 0.355
652.30 0.3545
652.40 0.3539
652.50 0.3533
652.60 0.3527
652.70 0.3521
652.80 0.3515
652.90 0.3509
653.00 0.3503
653.10 0.3497
653.20 0.3491
653.30 0.3485
653.40 0.3475
653.50 0.3466
653.60 0.3457
653.70 0.3448
653.80 0.3439
653.90 0.343
654.00 0.3421
654.10 0.3412
654.20 0.3403
654.30 0.3394
654.40 0.3381
654.50 0.3369
654.60 0.3356
654.70 0.3344
654.80 0.3331
654.90 0.3315
655.00 0.3299
655.10 0.3284
655.20 0.3268
655.30 0.3252
655.40 0.3234
655.50 0.3215
655.60 0.3195
655.70 0.3175
655.80 0.3152
655.90 0.3127
656.00 0.3093
656.10 0.3056
656.20 0.3031
656.30 0.3142
656.40 0.3022
656.50 0.3064
656.60 0.3094
656.70 0.3123
656.80 0.3142
656.90 0.3161
657.00 0.3177
657.10 0.3193
657.20 0.3207
657.30 0.3221
657.40 0.3233
657.50 0.3245
657.60 0.3256
657.70 0.3268
657.80 0.3279
657.90 0.3288
658.00 0.3296
658.10 0.3305
658.20 0.3313
658.30 0.3321
658.40 0.3326
658.50 0.3331
658.60 0.3336
658.70 0.3341
658.80 0.3345
658.90 0.335
659.00 0.3355
659.10 0.336
659.20 0.3365
659.30 0.3369
659.40 0.3371
659.50 0.3373
659.60 0.3375
659.70 0.3376
659.80 0.3378
659.90 0.338
660.00 0.3382
660.10 0.3384
660.20 0.3385
660.30 0.3387
660.40 0.3387
660.50 0.3387
660.60 0.3387
660.70 0.3388
660.80 0.3388
660.90 0.3388
661.00 0.3388
661.10 0.3388
661.20 0.3389
661.30 0.3389
661.40 0.3388
661.50 0.3387
661.60 0.3387
661.70 0.3386
661.80 0.3385
661.90 0.3385
662.00 0.3384
662.10 0.3383
662.20 0.3382
662.30 0.3382
662.40 0.3381
662.50 0.3379
662.60 0.3378
662.70 0.3377
662.80 0.3376
662.90 0.3375
663.00 0.3374
663.10 0.3372
663.20 0.3371
663.30 0.337
663.40 0.3369
663.50 0.3367
663.60 0.3366
663.70 0.3364
663.80 0.3363
663.90 0.3362
664.00 0.336
664.10 0.3359
664.20 0.3357
664.30 0.3356
664.40 0.3354
664.50 0.3353
664.60 0.3351
664.70 0.3349
664.80 0.3348
664.90 0.3346
665.00 0.3345
665.10 0.3343
665.20 0.3342
665.30 0.334
665.40 0.3338
665.50 0.3337
665.60 0.3335
665.70 0.3333
665.80 0.3332
665.90 0.333
666.00 0.3328
666.10 0.3327
666.20 0.3325
666.30 0.3323
666.40 0.3321
666.50 0.332
666.60 0.3318
666.70 0.3316
666.80 0.3315
666.90 0.3313
667.00 0.3311
667.10 0.3309
667.20 0.3308
667.30 0.3306
667.40 0.3304
667.50 0.3302
667.60 0.3301
667.70 0.3299
667.80 0.3297
667.90 0.3295
668.00 0.3293
668.10 0.3292
668.20 0.329
668.30 0.3288
668.40 0.3286
668.50 0.3285
668.60 0.3283
668.70 0.3281
668.80 0.3279
668.90 0.3277
669.00 0.3276
669.10 0.3274
669.20 0.3272
669.30 0.327
669.40 0.3269
669.50 0.3267
669.60 0.3265
669.70 0.3263
669.80 0.3261
669.90 0.326
670.00 0.3258
670.10 0.3256
670.20 0.3254
670.30 0.3252
670.40 0.3251
670.50 0.3249
670.60 0.3247
670.70 0.3245
670.80 0.3243
670.90 0.3242
671.00 0.324
671.10 0.3238
671.20 0.3236
671.30 0.3234
671.40 0.3233
671.50 0.3231
671.60 0.3229
671.70 0.3227
671.80 0.3225
671.90 0.3224
672.00 0.3222
672.10 0.322
672.20 0.3218
672.30 0.3216
672.40 0.3215
672.50 0.3213
672.60 0.3211
672.70 0.3209
672.80 0.3207
672.90 0.3206
673.00 0.3204
673.10 0.3202
673.20 0.32
673.30 0.3198
673.40 0.3197
673.50 0.3195
673.60 0.3193
673.70 0.3191
673.80 0.3189
673.90 0.3188
674.00 0.3186
674.10 0.3184
674.20 0.3182
674.30 0.318
674.40 0.3179
674.50 0.3177
674.60 0.3175
674.70 0.3173
674.80 0.3172
674.90 0.317
675.00 0.3168
675.10 0.3166
675.20 0.3164
675.30 0.3163
675.40 0.3161
675.50 0.3159
675.60 0.3157
675.70 0.3155
675.80 0.3154
675.90 0.3152
676.00 0.315
676.10 0.3148
676.20 0.3147
676.30 0.3145
676.40 0.3143
676.50 0.3141
676.60 0.314
676.70 0.3138
676.80 0.3136
676.90 0.3134
677.00 0.3132
677.10 0.3131
677.20 0.3129
677.30 0.3127
677.40 0.3125
677.50 0.3124
677.60 0.3122
677.70 0.312
677.80 0.3118
677.90 0.3117
678.00 0.3115
678.10 0.3113
678.20 0.3111
678.30 0.311
678.40 0.3108
678.50 0.3106
678.60 0.3104
678.70 0.3103
678.80 0.3101
678.90 0.3099
679.00 0.3097
679.10 0.3096
679.20 0.3094
679.30 0.3092
679.40 0.309
679.50 0.3089
679.60 0.3087
679.70 0.3085
679.80 0.3083
679.90 0.3082
680.00 0.308
680.10 0.3078
680.20 0.3077
680.30 0.3075
680.40 0.3073
680.50 0.3071
680.60 0.307
680.70 0.3068
680.80 0.3066
680.90 0.3064
681.00 0.3063
681.10 0.3061
681.20 0.3059
681.30 0.3058
681.40 0.3056
681.50 0.3054
681.60 0.3052
681.70 0.3051
681.80 0.3049
681.90 0.3047
682.00 0.3046
682.10 0.3044
682.20 0.3042
682.30 0.304
682.40 0.3039
682.50 0.3037
682.60 0.3035
682.70 0.3034
682.80 0.3032
682.90 0.303
683.00 0.3028
683.10 0.3027
683.20 0.3025
683.30 0.3023
683.40 0.3022
683.50 0.302
683.60 0.3018
683.70 0.3017
683.80 0.3015
683.90 0.3013
684.00 0.3011
684.10 0.301
684.20 0.3008
684.30 0.3006
684.40 0.3005
684.50 0.3003
684.60 0.3001
684.70 0.3
684.80 0.2998
684.90 0.2996
685.00 0.2995
685.10 0.2993
685.20 0.2991
685.30 0.299
685.40 0.2988
685.50 0.2986
685.60 0.2985
685.70 0.2983
685.80 0.2981
685.90 0.298
686.00 0.2978
686.10 0.2976
686.20 0.2975
686.30 0.2973
686.40 0.2971
686.50 0.297
686.60 0.2968
686.70 0.2966
686.80 0.2965
686.90 0.2963
687.00 0.2961
687.10 0.296
687.20 0.2958
687.30 0.2956
687.40 0.2955
687.50 0.2953
687.60 0.2951
687.70 0.295
687.80 0.2948
687.90 0.2946
688.00 0.2945
688.10 0.2943
688.20 0.2941
688.30 0.294
688.40 0.2938
688.50 0.2937
688.60 0.2935
688.70 0.2933
688.80 0.2932
688.90 0.293
689.00 0.2928
689.10 0.2927
689.20 0.2925
689.30 0.2923
689.40 0.2922
689.50 0.292
689.60 0.2919
689.70 0.2917
689.80 0.2915
689.90 0.2914
690.00 0.2912
690.10 0.2911
690.20 0.2909
690.30 0.2907
690.40 0.2906
690.50 0.2904
690.60 0.2902
690.70 0.2901
690.80 0.2899
690.90 0.2898
691.00 0.2896
691.10 0.2894
691.20 0.2893
691.30 0.2891
691.40 0.289
691.50 0.2888
691.60 0.2886
691.70 0.2885
691.80 0.2883
691.90 0.2882
692.00 0.288
692.10 0.2878
692.20 0.2877
692.30 0.2875
692.40 0.2874
692.50 0.2872
692.60 0.287
692.70 0.2869
692.80 0.2867
692.90 0.2866
693.00 0.2864
693.10 0.2862
693.20 0.2861
693.30 0.2859
693.40 0.2858
693.50 0.2856
693.60 0.2854
693.70 0.2853
693.80 0.2851
693.90 0.285
694.00 0.2848
694.10 0.2847
694.20 0.2845
694.30 0.2843
694.40 0.2842
694.50 0.284
694.60 0.2839
694.70 0.2837
694.80 0.2835
694.90 0.2834
695.00 0.2832
695.10 0.2831
695.20 0.2829
695.30 0.2828
695.40 0.2826
695.50 0.2824
695.60 0.2823
695.70 0.2821
695.80 0.282
695.90 0.2818
696.00 0.2817
696.10 0.2815
696.20 0.2814
696.30 0.2812
696.40 0.281
696.50 0.2809
696.60 0.2807
696.70 0.2806
696.80 0.2804
696.90 0.2803
697.00 0.2801
697.10 0.28
697.20 0.2798
697.30 0.2797
697.40 0.2795
697.50 0.2793
697.60 0.2792
697.70 0.279
697.80 0.2789
697.90 0.2787
698.00 0.2786
698.10 0.2784
698.20 0.2783
698.30 0.2781
698.40 0.278
698.50 0.2778
698.60 0.2777
698.70 0.2775
698.80 0.2773
698.90 0.2772
699.00 0.277
699.10 0.2769
699.20 0.2767
699.30 0.2766
699.40 0.2764
699.50 0.2763
699.60 0.2761
699.70 0.276
699.80 0.2758
699.90 0.2757
700.00 0.2755
700.10 0.2754
700.20 0.2752
700.30 0.2751
700.40 0.2749
700.50 0.2748
700.60 0.2746
700.70 0.2745
700.80 0.2743
700.90 0.2742
701.00 0.274
701.10 0.2739
701.20 0.2737
701.30 0.2736
701.40 0.2734
701.50 0.2733
701.60 0.2731
701.70 0.273
701.80 0.2728
701.90 0.2727
702.00 0.2725
702.10 0.2724
702.20 0.2722
702.30 0.2721
702.40 0.2719
702.50 0.2718
702.60 0.2716
702.70 0.2715
702.80 0.2713
702.90 0.2712
703.00 0.271
703.10 0.2709
703.20 0.2707
703.30 0.2706
703.40 0.2704
703.50 0.2703
703.60 0.2701
703.70 0.27
703.80 0.2698
703.90 0.2697
704.00 0.2695
704.10 0.2694
704.20 0.2692
704.30 0.2691
704.40 0.2689
704.50 0.2688
704.60 0.2687
704.70 0.2685
704.80 0.2684
704.90 0.2682
705.00 0.2681
705.10 0.2679
705.20 0.2678
705.30 0.2676
705.40 0.2675
705.50 0.2673
705.60 0.2672
705.70 0.267
705.80 0.2669
705.90 0.2668
706.00 0.2666
706.10 0.2665
706.20 0.2663
706.30 0.2662
706.40 0.266
706.50 0.2659
706.60 0.2657
706.70 0.2656
706.80 0.2654
706.90 0.2653
707.00 0.2652
707.10 0.265
707.20 0.2649
707.30 0.2647
707.40 0.2646
707.50 0.2644
707.60 0.2643
707.70 0.2641
707.80 0.264
707.90 0.2639
708.00 0.2637
708.10 0.2636
708.20 0.2634
708.30 0.2633
708.40 0.2631
708.50 0.263
708.60 0.2629
708.70 0.2627
708.80 0.2626
708.90 0.2624
709.00 0.2623
709.10 0.2621
709.20 0.262
709.30 0.2619
709.40 0.2617
709.50 0.2616
709.60 0.2614
709.70 0.2613
709.80 0.2611
709.90 0.261
710.00 0.2609
710.10 0.2607
710.20 0.2606
710.30 0.2604
710.40 0.2603
710.50 0.2602
710.60 0.26
710.70 0.2599
710.80 0.2597
710.90 0.2596
711.00 0.2595
711.10 0.2593
711.20 0.2592
711.30 0.259
711.40 0.2589
711.50 0.2588
711.60 0.2586
711.70 0.2585
711.80 0.2583
711.90 0.2582
712.00 0.2581
712.10 0.2579
712.20 0.2578
712.30 0.2576
712.40 0.2575
712.50 0.2574
712.60 0.2572
712.70 0.2571
712.80 0.2569
712.90 0.2568
713.00 0.2567
713.10 0.2565
713.20 0.2564
713.30 0.2562
713.40 0.2561
713.50 0.256
713.60 0.2558
713.70 0.2557
713.80 0.2555
713.90 0.2554
714.00 0.2553
714.10 0.2551
714.20 0.255
714.30 0.2549
714.40 0.2547
714.50 0.2546
714.60 0.2544
714.70 0.2543
714.80 0.2542
714.90 0.254
715.00 0.2539
715.10 0.2538
715.20 0.2536
715.30 0.2535
715.40 0.2533
715.50 0.2532
715.60 0.2531
715.70 0.2529
715.80 0.2528
715.90 0.2527
716.00 0.2525
716.10 0.2524
716.20 0.2523
716.30 0.2521
716.40 0.252
716.50 0.2519
716.60 0.2517
716.70 0.2516
716.80 0.2515
716.90 0.2513
717.00 0.2512
717.10 0.251
717.20 0.2509
717.30 0.2508
717.40 0.2506
717.50 0.2505
717.60 0.2504
717.70 0.2502
717.80 0.2501
717.90 0.25
718.00 0.2498
718.10 0.2497
718.20 0.2496
718.30 0.2494
718.40 0.2493
718.50 0.2492
718.60 0.249
718.70 0.2489
718.80 0.2488
718.90 0.2486
719.00 0.2485
719.10 0.2484
719.20 0.2482
719.30 0.2481
719.40 0.248
719.50 0.2478
719.60 0.2477
719.70 0.2476
719.80 0.2474
719.90 0.2473
720.00 0.2472
720.10 0.247
720.20 0.2469
720.30 0.2468
720.40 0.2466
720.50 0.2465
720.60 0.2464
720.70 0.2462
720.80 0.2461
720.90 0.246
721.00 0.2458
721.10 0.2457
721.20 0.2456
721.30 0.2455
721.40 0.2453
721.50 0.2452
721.60 0.2451
721.70 0.2449
721.80 0.2448
721.90 0.2447
722.00 0.2445
722.10 0.2444
722.20 0.2443
722.30 0.2441
722.40 0.244
722.50 0.2439
722.60 0.2438
722.70 0.2436
722.80 0.2435
722.90 0.2434
723.00 0.2432
723.10 0.2431
723.20 0.243
723.30 0.2428
723.40 0.2427
723.50 0.2426
723.60 0.2425
723.70 0.2423
723.80 0.2422
723.90 0.2421
724.00 0.2419
724.10 0.2418
724.20 0.2417
724.30 0.2416
724.40 0.2414
724.50 0.2413
724.60 0.2412
724.70 0.241
724.80 0.2409
724.90 0.2408
725.00 0.2406
725.10 0.2405
725.20 0.2404
725.30 0.2403
725.40 0.2401
725.50 0.24
725.60 0.2399
725.70 0.2398
725.80 0.2396
725.90 0.2395
726.00 0.2394
726.10 0.2393
726.20 0.2391
726.30 0.239
726.40 0.2389
726.50 0.2387
726.60 0.2386
726.70 0.2385
726.80 0.2384
726.90 0.2382
727.00 0.2381
727.10 0.238
727.20 0.2379
727.30 0.2377
727.40 0.2376
727.50 0.2375
727.60 0.2374
727.70 0.2372
727.80 0.2371
727.90 0.237
728.00 0.2369
728.10 0.2367
728.20 0.2366
728.30 0.2365
728.40 0.2363
728.50 0.2362
728.60 0.2361
728.70 0.236
728.80 0.2358
728.90 0.2357
729.00 0.2356
729.10 0.2355
729.20 0.2353
729.30 0.2352
729.40 0.2351
729.50 0.235
729.60 0.2348
729.70 0.2347
729.80 0.2346
729.90 0.2345
730.00 0.2344
730.10 0.2342
730.20 0.2341
730.30 0.234
730.40 0.2339
730.50 0.2337
730.60 0.2336
730.70 0.2335
730.80 0.2334
730.90 0.2332
731.00 0.2331
731.10 0.233
731.20 0.2329
731.30 0.2328
731.40 0.2326
731.50 0.2325
731.60 0.2324
731.70 0.2323
731.80 0.2321
731.90 0.232
732.00 0.2319
732.10 0.2318
732.20 0.2317
732.30 0.2315
732.40 0.2314
732.50 0.2313
732.60 0.2312
732.70 0.2311
732.80 0.2309
732.90 0.2308
733.00 0.2307
733.10 0.2306
733.20 0.2305
733.30 0.2303
733.40 0.2302
733.50 0.2301
733.60 0.23
733.70 0.2298
733.80 0.2297
733.90 0.2296
734.00 0.2295
734.10 0.2294
734.20 0.2292
734.30 0.2291
734.40 0.229
734.50 0.2289
734.60 0.2288
734.70 0.2286
734.80 0.2285
734.90 0.2284
735.00 0.2283
735.10 0.2282
735.20 0.228
735.30 0.2279
735.40 0.2278
735.50 0.2277
735.60 0.2276
735.70 0.2274
735.80 0.2273
735.90 0.2272
736.00 0.2271
736.10 0.227
736.20 0.2268
736.30 0.2267
736.40 0.2266
736.50 0.2265
736.60 0.2264
736.70 0.2263
736.80 0.2261
736.90 0.226
737.00 0.2259
737.10 0.2258
737.20 0.2257
737.30 0.2255
737.40 0.2254
737.50 0.2253
737.60 0.2252
737.70 0.2251
737.80 0.2249
737.90 0.2248
738.00 0.2247
738.10 0.2246
738.20 0.2245
738.30 0.2244
738.40 0.2242
738.50 0.2241
738.60 0.224
738.70 0.2239
738.80 0.2238
738.90 0.2237
739.00 0.2235
739.10 0.2234
739.20 0.2233
739.30 0.2232
739.40 0.2231
739.50 0.2229
739.60 0.2228
739.70 0.2227
739.80 0.2226
739.90 0.2225
740.00 0.2224
740.10 0.2222
740.20 0.2221
740.30 0.222
740.40 0.2219
740.50 0.2218
740.60 0.2217
740.70 0.2216
740.80 0.2214
740.90 0.2213
741.00 0.2212
741.10 0.2211
741.20 0.221
741.30 0.2209
741.40 0.2208
741.50 0.2206
741.60 0.2205
741.70 0.2204
741.80 0.2203
741.90 0.2202
742.00 0.2201
742.10 0.22
742.20 0.2198
742.30 0.2197
742.40 0.2196
742.50 0.2195
742.60 0.2194
742.70 0.2193
742.80 0.2192
742.90 0.219
743.00 0.2189
743.10 0.2188
743.20 0.2187
743.30 0.2186
743.40 0.2185
743.50 0.2184
743.60 0.2183
743.70 0.2181
743.80 0.218
743.90 0.2179
744.00 0.2178
744.10 0.2177
744.20 0.2176
744.30 0.2175
744.40 0.2174
744.50 0.2172
744.60 0.2171
744.70 0.217
744.80 0.2169
744.90 0.2168
745.00 0.2167
745.10 0.2166
745.20 0.2165
745.30 0.2163
745.40 0.2162
745.50 0.2161
745.60 0.216
745.70 0.2159
745.80 0.2158
745.90 0.2157
746.00 0.2156
746.10 0.2154
746.20 0.2153
746.30 0.2152
746.40 0.2151
746.50 0.215
746.60 0.2149
746.70 0.2148
746.80 0.2147
746.90 0.2146
747.00 0.2144
747.10 0.2143
747.20 0.2142
747.30 0.2141
747.40 0.214
747.50 0.2139
747.60 0.2138
747.70 0.2137
747.80 0.2136
747.90 0.2134
748.00 0.2133
748.10 0.2132
748.20 0.2131
748.30 0.213
748.40 0.2129
748.50 0.2128
748.60 0.2127
748.70 0.2126
748.80 0.2124
748.90 0.2123
749.00 0.2122
749.10 0.2121
749.20 0.212
749.30 0.2119
749.40 0.2118
749.50 0.2117
749.60 0.2116
749.70 0.2115
749.80 0.2113
749.90 0.2112
750.00 0.2111
750.10 0.211
750.20 0.2109
750.30 0.2108
750.40 0.2107
750.50 0.2106
750.60 0.2105
750.70 0.2104
750.80 0.2103
750.90 0.2102
751.00 0.2101
751.10 0.2099
751.20 0.2098
751.30 0.2097
751.40 0.2096
751.50 0.2095
751.60 0.2094
751.70 0.2093
751.80 0.2092
751.90 0.2091
752.00 0.209
752.10 0.2089
752.20 0.2088
752.30 0.2087
752.40 0.2086
752.50 0.2085
752.60 0.2083
752.70 0.2082
752.80 0.2081
752.90 0.208
753.00 0.2079
753.10 0.2078
753.20 0.2077
753.30 0.2076
753.40 0.2075
753.50 0.2074
753.60 0.2073
753.70 0.2072
753.80 0.2071
753.90 0.207
754.00 0.2069
754.10 0.2068
754.20 0.2066
754.30 0.2065
754.40 0.2064
754.50 0.2063
754.60 0.2062
754.70 0.2061
754.80 0.206
754.90 0.2059
755.00 0.2058
755.10 0.2057
755.20 0.2056
755.30 0.2055
755.40 0.2054
755.50 0.2053
755.60 0.2052
755.70 0.2051
755.80 0.205
755.90 0.2049
756.00 0.2048
756.10 0.2046
756.20 0.2045
756.30 0.2044
756.40 0.2043
756.50 0.2042
756.60 0.2041
756.70 0.204
756.80 0.2039
756.90 0.2038
757.00 0.2037
757.10 0.2036
757.20 0.2035
757.30 0.2034
757.40 0.2033
757.50 0.2032
757.60 0.2031
757.70 0.203
757.80 0.2029
757.90 0.2028
758.00 0.2027
758.10 0.2026
758.20 0.2025
758.30 0.2024
758.40 0.2023
758.50 0.2021
758.60 0.202
758.70 0.2019
758.80 0.2018
758.90 0.2017
759.00 0.2016
759.10 0.2015
759.20 0.2014
759.30 0.2013
759.40 0.2012
759.50 0.2011
759.60 0.201
759.70 0.2009
759.80 0.2008
759.90 0.2007
760.00 0.2006
760.10 0.2005
760.20 0.2004
760.30 0.2003
760.40 0.2002
760.50 0.2001
760.60 0.2
760.70 0.1999
760.80 0.1998
760.90 0.1997
761.00 0.1996
761.10 0.1995
761.20 0.1994
761.30 0.1993
761.40 0.1992
761.50 0.1991
761.60 0.199
761.70 0.1989
761.80 0.1988
761.90 0.1987
762.00 0.1986
762.10 0.1985
762.20 0.1984
762.30 0.1983
762.40 0.1982
762.50 0.1981
762.60 0.198
762.70 0.1979
762.80 0.1978
762.90 0.1977
763.00 0.1976
763.10 0.1975
763.20 0.1974
763.30 0.1973
763.40 0.1972
763.50 0.1971
763.60 0.197
763.70 0.1969
763.80 0.1968
763.90 0.1967
764.00 0.1966
764.10 0.1965
764.20 0.1964
764.30 0.1963
764.40 0.1962
764.50 0.1961
764.60 0.196
764.70 0.1959
764.80 0.1958
764.90 0.1957
765.00 0.1956
765.10 0.1955
765.20 0.1954
765.30 0.1953
765.40 0.1952
765.50 0.1951
765.60 0.195
765.70 0.1949
765.80 0.1948
765.90 0.1947
766.00 0.1946
766.10 0.1945
766.20 0.1944
766.30 0.1943
766.40 0.1942
766.50 0.1941
766.60 0.194
766.70 0.1939
766.80 0.1938
766.90 0.1937
767.00 0.1936
767.10 0.1935
767.20 0.1934
767.30 0.1933
767.40 0.1932
767.50 0.1931
767.60 0.193
767.70 0.1929
767.80 0.1929
767.90 0.1928
768.00 0.1927
768.10 0.1926
768.20 0.1925
768.30 0.1924
768.40 0.1923
768.50 0.1922
768.60 0.1921
768.70 0.192
768.80 0.1919
768.90 0.1918
769.00 0.1917
769.10 0.1916
769.20 0.1915
769.30 0.1914
769.40 0.1913
769.50 0.1912
769.60 0.1911
769.70 0.191
769.80 0.1909
769.90 0.1908
770.00 0.1907
770.10 0.1906
770.20 0.1905
770.30 0.1904
770.40 0.1903
770.50 0.1902
770.60 0.1901
770.70 0.1901
770.80 0.19
770.90 0.1899
771.00 0.1898
771.10 0.1897
771.20 0.1896
771.30 0.1895
771.40 0.1894
771.50 0.1893
771.60 0.1892
771.70 0.1891
771.80 0.189
771.90 0.1889
772.00 0.1888
772.10 0.1887
772.20 0.1886
772.30 0.1885
772.40 0.1885
772.50 0.1884
772.60 0.1883
772.70 0.1882
772.80 0.1881
772.90 0.188
773.00 0.1879
773.10 0.1878
773.20 0.1877
773.30 0.1876
773.40 0.1875
773.50 0.1874
773.60 0.1873
773.70 0.1872
773.80 0.1871
773.90 0.187
774.00 0.187
774.10 0.1869
774.20 0.1868
774.30 0.1867
774.40 0.1866
774.50 0.1865
774.60 0.1864
774.70 0.1863
774.80 0.1862
774.90 0.1861
775.00 0.186
775.10 0.1859
775.20 0.1858
775.30 0.1857
775.40 0.1857
775.50 0.1856
775.60 0.1855
775.70 0.1854
775.80 0.1853
775.90 0.1852
776.00 0.1851
776.10 0.185
776.20 0.1849
776.30 0.1848
776.40 0.1847
776.50 0.1846
776.60 0.1845
776.70 0.1845
776.80 0.1844
776.90 0.1843
777.00 0.1842
777.10 0.1841
777.20 0.184
777.30 0.1839
777.40 0.1838
777.50 0.1837
777.60 0.1836
777.70 0.1835
777.80 0.1834
777.90 0.1834
778.00 0.1833
778.10 0.1832
778.20 0.1831
778.30 0.183
778.40 0.1829
778.50 0.1828
778.60 0.1827
778.70 0.1826
778.80 0.1825
778.90 0.1824
779.00 0.1823
779.10 0.1823
779.20 0.1822
779.30 0.1821
779.40 0.182
779.50 0.1819
779.60 0.1818
779.70 0.1817
779.80 0.1816
779.90 0.1815
780.00 0.1814
780.10 0.1813
780.20 0.1813
780.30 0.1812
780.40 0.1811
780.50 0.181
780.60 0.1809
780.70 0.1808
780.80 0.1807
780.90 0.1806
781.00 0.1805
781.10 0.1805
781.20 0.1804
781.30 0.1803
781.40 0.1802
781.50 0.1801
781.60 0.18
781.70 0.1799
781.80 0.1798
781.90 0.1798
782.00 0.1797
782.10 0.1796
782.20 0.1795
782.30 0.1794
782.40 0.1793
782.50 0.1792
782.60 0.1791
782.70 0.179
782.80 0.179
782.90 0.1789
783.00 0.1788
783.10 0.1787
783.20 0.1786
783.30 0.1785
783.40 0.1784
783.50 0.1783
783.60 0.1783
783.70 0.1782
783.80 0.1781
783.90 0.178
784.00 0.1779
784.10 0.1778
784.20 0.1777
784.30 0.1776
784.40 0.1776
784.50 0.1775
784.60 0.1774
784.70 0.1773
784.80 0.1772
784.90 0.1771
785.00 0.177
785.10 0.1769
785.20 0.1769
785.30 0.1768
785.40 0.1767
785.50 0.1766
785.60 0.1765
785.70 0.1764
785.80 0.1763
785.90 0.1762
786.00 0.1762
786.10 0.1761
786.20 0.176
786.30 0.1759
786.40 0.1758
786.50 0.1757
786.60 0.1756
786.70 0.1756
786.80 0.1755
786.90 0.1754
787.00 0.1753
787.10 0.1752
787.20 0.1751
787.30 0.175
787.40 0.1749
787.50 0.1749
787.60 0.1748
787.70 0.1747
787.80 0.1746
787.90 0.1745
788.00 0.1744
788.10 0.1743
788.20 0.1743
788.30 0.1742
788.40 0.1741
788.50 0.174
788.60 0.1739
788.70 0.1738
788.80 0.1737
788.90 0.1737
789.00 0.1736
789.10 0.1735
789.20 0.1734
789.30 0.1733
789.40 0.1732
789.50 0.1731
789.60 0.1731
789.70 0.173
789.80 0.1729
789.90 0.1728
790.00 0.1727
790.10 0.1726
790.20 0.1725
790.30 0.1725
790.40 0.1724
790.50 0.1723
790.60 0.1722
790.70 0.1721
790.80 0.172
790.90 0.172
791.00 0.1719
791.10 0.1718
791.20 0.1717
791.30 0.1716
791.40 0.1715
791.50 0.1715
791.60 0.1714
791.70 0.1713
791.80 0.1712
791.90 0.1711
792.00 0.171
792.10 0.171
792.20 0.1709
792.30 0.1708
792.40 0.1707
792.50 0.1706
792.60 0.1705
792.70 0.1705
792.80 0.1704
792.90 0.1703
793.00 0.1702
793.10 0.1701
793.20 0.1701
793.30 0.17
793.40 0.1699
793.50 0.1698
793.60 0.1697
793.70 0.1696
793.80 0.1696
793.90 0.1695
794.00 0.1694
794.10 0.1693
794.20 0.1692
794.30 0.1691
794.40 0.1691
794.50 0.169
794.60 0.1689
794.70 0.1688
794.80 0.1687
794.90 0.1687
795.00 0.1686
795.10 0.1685
795.20 0.1684
795.30 0.1683
795.40 0.1682
795.50 0.1682
795.60 0.1681
795.70 0.168
795.80 0.1679
795.90 0.1678
796.00 0.1678
796.10 0.1677
796.20 0.1676
796.30 0.1675
796.40 0.1674
796.50 0.1673
796.60 0.1673
796.70 0.1672
796.80 0.1671
796.90 0.167
797.00 0.1669
797.10 0.1669
797.20 0.1668
797.30 0.1667
797.40 0.1666
797.50 0.1665
797.60 0.1665
797.70 0.1664
797.80 0.1663
797.90 0.1662
798.00 0.1661
798.10 0.166
798.20 0.166
798.30 0.1659
798.40 0.1658
798.50 0.1657
798.60 0.1656
798.70 0.1656
798.80 0.1655
798.90 0.1654
799.00 0.1653
799.10 0.1652
799.20 0.1652
799.30 0.1651
799.40 0.165
799.50 0.1649
799.60 0.1648
799.70 0.1648
799.80 0.1647
799.90 0.1646
800.00 0.1645
800.10 0.1644
800.20 0.1644
800.30 0.1643
800.40 0.1642
800.50 0.1641
800.60 0.164
800.70 0.164
800.80 0.1639
800.90 0.1638
801.00 0.1637
801.10 0.1636
801.20 0.1636
801.30 0.1635
801.40 0.1634
801.50 0.1633
801.60 0.1633
801.70 0.1632
801.80 0.1631
801.90 0.163
802.00 0.1629
802.10 0.1629
802.20 0.1628
802.30 0.1627
802.40 0.1626
802.50 0.1626
802.60 0.1625
802.70 0.1624
802.80 0.1623
802.90 0.1622
803.00 0.1622
803.10 0.1621
803.20 0.162
803.30 0.1619
803.40 0.1619
803.50 0.1618
803.60 0.1617
803.70 0.1616
803.80 0.1615
803.90 0.1615
804.00 0.1614
804.10 0.1613
804.20 0.1612
804.30 0.1612
804.40 0.1611
804.50 0.161
804.60 0.1609
804.70 0.1608
804.80 0.1608
804.90 0.1607
805.00 0.1606
805.10 0.1605
805.20 0.1605
805.30 0.1604
805.40 0.1603
805.50 0.1602
805.60 0.1602
805.70 0.1601
805.80 0.16
805.90 0.1599
806.00 0.1598
806.10 0.1598
806.20 0.1597
806.30 0.1596
806.40 0.1595
806.50 0.1595
806.60 0.1594
806.70 0.1593
806.80 0.1592
806.90 0.1592
807.00 0.1591
807.10 0.159
807.20 0.1589
807.30 0.1588
807.40 0.1588
807.50 0.1587
807.60 0.1586
807.70 0.1585
807.80 0.1585
807.90 0.1584
808.00 0.1583
808.10 0.1582
808.20 0.1582
808.30 0.1581
808.40 0.158
808.50 0.1579
808.60 0.1579
808.70 0.1578
808.80 0.1577
808.90 0.1576
809.00 0.1576
809.10 0.1575
809.20 0.1574
809.30 0.1573
809.40 0.1572
809.50 0.1572
809.60 0.1571
809.70 0.157
809.80 0.1569
809.90 0.1569
810.00 0.1568
810.10 0.1567
810.20 0.1566
810.30 0.1566
810.40 0.1565
810.50 0.1564
810.60 0.1563
810.70 0.1563
810.80 0.1562
810.90 0.1561
811.00 0.1561
811.10 0.156
811.20 0.1559
811.30 0.1558
811.40 0.1558
811.50 0.1557
811.60 0.1556
811.70 0.1555
811.80 0.1555
811.90 0.1554
812.00 0.1553
812.10 0.1552
812.20 0.1552
812.30 0.1551
812.40 0.155
812.50 0.1549
812.60 0.1549
812.70 0.1548
812.80 0.1547
812.90 0.1547
813.00 0.1546
813.10 0.1545
813.20 0.1544
813.30 0.1544
813.40 0.1543
813.50 0.1542
813.60 0.1541
813.70 0.1541
813.80 0.154
813.90 0.1539
814.00 0.1538
814.10 0.1538
814.20 0.1537
814.30 0.1536
814.40 0.1536
814.50 0.1535
814.60 0.1534
814.70 0.1533
814.80 0.1533
814.90 0.1532
815.00 0.1531
815.10 0.153
815.20 0.153
815.30 0.1529
815.40 0.1528
815.50 0.1528
815.60 0.1527
815.70 0.1526
815.80 0.1525
815.90 0.1525
816.00 0.1524
816.10 0.1523
816.20 0.1522
816.30 0.1522
816.40 0.1521
816.50 0.152
816.60 0.152
816.70 0.1519
816.80 0.1518
816.90 0.1517
817.00 0.1517
817.10 0.1516
817.20 0.1515
817.30 0.1515
817.40 0.1514
817.50 0.1513
817.60 0.1512
817.70 0.1512
817.80 0.1511
817.90 0.151
818.00 0.151
818.10 0.1509
818.20 0.1508
818.30 0.1507
818.40 0.1507
818.50 0.1506
818.60 0.1505
818.70 0.1505
818.80 0.1504
818.90 0.1503
819.00 0.1502
819.10 0.1502
819.20 0.1501
819.30 0.15
819.40 0.15
819.50 0.1499
819.60 0.1498
819.70 0.1497
819.80 0.1497
819.90 0.1496
820.00 0.1495
820.10 0.1495
820.20 0.1494
820.30 0.1493
820.40 0.1492
820.50 0.1492
820.60 0.1491
820.70 0.149
820.80 0.149
820.90 0.1489
821.00 0.1488
821.10 0.1487
821.20 0.1487
821.30 0.1486
821.40 0.1485
821.50 0.1485
821.60 0.1484
821.70 0.1483
821.80 0.1483
821.90 0.1482
822.00 0.1481
822.10 0.148
822.20 0.148
822.30 0.1479
822.40 0.1478
822.50 0.1478
822.60 0.1477
822.70 0.1476
822.80 0.1476
822.90 0.1475
823.00 0.1474
823.10 0.1474
823.20 0.1473
823.30 0.1472
823.40 0.1471
823.50 0.1471
823.60 0.147
823.70 0.1469
823.80 0.1469
823.90 0.1468
824.00 0.1467
824.10 0.1467
824.20 0.1466
824.30 0.1465
824.40 0.1465
824.50 0.1464
824.60 0.1463
824.70 0.1463
824.80 0.1462
824.90 0.1461
825.00 0.146
825.10 0.146
825.20 0.1459
825.30 0.1458
825.40 0.1458
825.50 0.1457
825.60 0.1456
825.70 0.1456
825.80 0.1455
825.90 0.1454
826.00 0.1454
826.10 0.1453
826.20 0.1452
826.30 0.1452
826.40 0.1451
826.50 0.145
826.60 0.145
826.70 0.1449
826.80 0.1448
826.90 0.1447
827.00 0.1447
827.10 0.1446
827.20 0.1445
827.30 0.1445
827.40 0.1444
827.50 0.1443
827.60 0.1443
827.70 0.1442
827.80 0.1441
827.90 0.1441
828.00 0.144
828.10 0.1439
828.20 0.1439
828.30 0.1438
828.40 0.1437
828.50 0.1437
828.60 0.1436
828.70 0.1435
828.80 0.1435
828.90 0.1434
829.00 0.1433
829.10 0.1433
829.20 0.1432
829.30 0.1431
829.40 0.1431
829.50 0.143
829.60 0.1429
829.70 0.1429
829.80 0.1428
829.90 0.1427
830.00 0.1427
830.10 0.1426
830.20 0.1425
830.30 0.1425
830.40 0.1424
830.50 0.1423
830.60 0.1423
830.70 0.1422
830.80 0.1421
830.90 0.1421
831.00 0.142
831.10 0.1419
831.20 0.1419
831.30 0.1418
831.40 0.1417
831.50 0.1417
831.60 0.1416
831.70 0.1415
831.80 0.1415
831.90 0.1414
832.00 0.1413
832.10 0.1413
832.20 0.1412
832.30 0.1411
832.40 0.1411
832.50 0.141
832.60 0.1409
832.70 0.1409
832.80 0.1408
832.90 0.1408
833.00 0.1407
833.10 0.1406
833.20 0.1406
833.30 0.1405
833.40 0.1404
833.50 0.1404
833.60 0.1403
833.70 0.1402
833.80 0.1402
833.90 0.1401
834.00 0.14
834.10 0.14
834.20 0.1399
834.30 0.1398
834.40 0.1398
834.50 0.1397
834.60 0.1396
834.70 0.1396
834.80 0.1395
834.90 0.1394
835.00 0.1394
835.10 0.1393
835.20 0.1392
835.30 0.1392
835.40 0.1391
835.50 0.1391
835.60 0.139
835.70 0.1389
835.80 0.1389
835.90 0.1388
836.00 0.1387
836.10 0.1387
836.20 0.1386
836.30 0.1385
836.40 0.1385
836.50 0.1384
836.60 0.1383
836.70 0.1383
836.80 0.1382
836.90 0.1381
837.00 0.1381
837.10 0.138
837.20 0.138
837.30 0.1379
837.40 0.1378
837.50 0.1378
837.60 0.1377
837.70 0.1376
837.80 0.1376
837.90 0.1375
838.00 0.1374
838.10 0.1374
838.20 0.1373
838.30 0.1373
838.40 0.1372
838.50 0.1371
838.60 0.1371
838.70 0.137
838.80 0.1369
838.90 0.1369
839.00 0.1368
839.10 0.1367
839.20 0.1367
839.30 0.1366
839.40 0.1366
839.50 0.1365
839.60 0.1364
839.70 0.1364
839.80 0.1363
839.90 0.1362
840.00 0.1362
840.10 0.1361
840.20 0.1361
840.30 0.136
840.40 0.1359
840.50 0.1359
840.60 0.1358
840.70 0.1357
840.80 0.1357
840.90 0.1356
841.00 0.1356
841.10 0.1355
841.20 0.1354
841.30 0.1354
841.40 0.1353
841.50 0.1352
841.60 0.1352
841.70 0.1351
841.80 0.135
841.90 0.135
842.00 0.1349
842.10 0.1349
842.20 0.1348
842.30 0.1347
842.40 0.1347
842.50 0.1346
842.60 0.1346
842.70 0.1345
842.80 0.1344
842.90 0.1344
843.00 0.1343
843.10 0.1342
843.20 0.1342
843.30 0.1341
843.40 0.1341
843.50 0.134
843.60 0.1339
843.70 0.1339
843.80 0.1338
843.90 0.1337
844.00 0.1337
844.10 0.1336
844.20 0.1336
844.30 0.1335
844.40 0.1334
844.50 0.1334
844.60 0.1333
844.70 0.1333
844.80 0.1332
844.90 0.1331
845.00 0.1331
845.10 0.133
845.20 0.133
845.30 0.1329
845.40 0.1328
845.50 0.1328
845.60 0.1327
845.70 0.1326
845.80 0.1326
845.90 0.1325
846.00 0.1325
846.10 0.1324
846.20 0.1323
846.30 0.1323
846.40 0.1322
846.50 0.1322
846.60 0.1321
846.70 0.132
846.80 0.132
846.90 0.1319
847.00 0.1319
847.10 0.1318
847.20 0.1317
847.30 0.1317
847.40 0.1316
847.50 0.1316
847.60 0.1315
847.70 0.1314
847.80 0.1314
847.90 0.1313
848.00 0.1313
848.10 0.1312
848.20 0.1311
848.30 0.1311
848.40 0.131
848.50 0.131
848.60 0.1309
848.70 0.1308
848.80 0.1308
848.90 0.1307
849.00 0.1307
849.10 0.1306
849.20 0.1305
849.30 0.1305
849.40 0.1304
849.50 0.1304
849.60 0.1303
849.70 0.1302
849.80 0.1302
849.90 0.1301
850.00 0.1301
850.10 0.13
850.20 0.1299
850.30 0.1299
850.40 0.1298
850.50 0.1298
850.60 0.1297
850.70 0.1296
850.80 0.1296
850.90 0.1295
851.00 0.1295
851.10 0.1294
851.20 0.1293
851.30 0.1293
851.40 0.1292
851.50 0.1292
851.60 0.1291
851.70 0.129
851.80 0.129
851.90 0.1289
852.00 0.1289
852.10 0.1288
852.20 0.1288
852.30 0.1287
852.40 0.1286
852.50 0.1286
852.60 0.1285
852.70 0.1285
852.80 0.1284
852.90 0.1283
853.00 0.1283
853.10 0.1282
853.20 0.1282
853.30 0.1281
853.40 0.1281
853.50 0.128
853.60 0.1279
853.70 0.1279
853.80 0.1278
853.90 0.1278
854.00 0.1277
854.10 0.1276
854.20 0.1276
854.30 0.1275
854.40 0.1275
854.50 0.1274
854.60 0.1274
854.70 0.1273
854.80 0.1272
854.90 0.1272
855.00 0.1271
855.10 0.1271
855.20 0.127
855.30 0.127
855.40 0.1269
855.50 0.1268
855.60 0.1268
855.70 0.1267
855.80 0.1267
855.90 0.1266
856.00 0.1265
856.10 0.1265
856.20 0.1264
856.30 0.1264
856.40 0.1263
856.50 0.1263
856.60 0.1262
856.70 0.1261
856.80 0.1261
856.90 0.126
857.00 0.126
857.10 0.1259
857.20 0.1259
857.30 0.1258
857.40 0.1257
857.50 0.1257
857.60 0.1256
857.70 0.1256
857.80 0.1255
857.90 0.1255
858.00 0.1254
858.10 0.1253
858.20 0.1253
858.30 0.1252
858.40 0.1252
858.50 0.1251
858.60 0.1251
858.70 0.125
858.80 0.125
858.90 0.1249
859.00 0.1248
859.10 0.1248
859.20 0.1247
859.30 0.1247
859.40 0.1246
859.50 0.1246
859.60 0.1245
859.70 0.1244
859.80 0.1244
859.90 0.1243
860.00 0.1243
860.10 0.1242
860.20 0.1242
860.30 0.1241
860.40 0.1241
860.50 0.124
860.60 0.1239
860.70 0.1239
860.80 0.1238
860.90 0.1238
861.00 0.1237
861.10 0.1237
861.20 0.1236
861.30 0.1236
861.40 0.1235
861.50 0.1234
861.60 0.1234
861.70 0.1233
861.80 0.1233
861.90 0.1232
862.00 0.1232
862.10 0.1231
862.20 0.1231
862.30 0.123
862.40 0.1229
862.50 0.1229
862.60 0.1228
862.70 0.1228
862.80 0.1227
862.90 0.1227
863.00 0.1226
863.10 0.1226
863.20 0.1225
863.30 0.1224
863.40 0.1224
863.50 0.1223
863.60 0.1223
863.70 0.1222
863.80 0.1222
863.90 0.1221
864.00 0.1221
864.10 0.122
864.20 0.122
864.30 0.1219
864.40 0.1218
864.50 0.1218
864.60 0.1217
864.70 0.1217
864.80 0.1216
864.90 0.1216
865.00 0.1215
865.10 0.1215
865.20 0.1214
865.30 0.1214
865.40 0.1213
865.50 0.1212
865.60 0.1212
865.70 0.1211
865.80 0.1211
865.90 0.121
866.00 0.121
866.10 0.1209
866.20 0.1209
866.30 0.1208
866.40 0.1208
866.50 0.1207
866.60 0.1206
866.70 0.1206
866.80 0.1205
866.90 0.1205
867.00 0.1204
867.10 0.1204
867.20 0.1203
867.30 0.1203
867.40 0.1202
867.50 0.1202
867.60 0.1201
867.70 0.1201
867.80 0.12
867.90 0.1199
868.00 0.1199
868.10 0.1198
868.20 0.1198
868.30 0.1197
868.40 0.1197
868.50 0.1196
868.60 0.1196
868.70 0.1195
868.80 0.1195
868.90 0.1194
869.00 0.1194
869.10 0.1193
869.20 0.1193
869.30 0.1192
869.40 0.1192
869.50 0.1191
869.60 0.119
869.70 0.119
869.80 0.1189
869.90 0.1189
870.00 0.1188
870.10 0.1188
870.20 0.1187
870.30 0.1187
870.40 0.1186
870.50 0.1186
870.60 0.1185
870.70 0.1185
870.80 0.1184
870.90 0.1184
871.00 0.1183
871.10 0.1183
871.20 0.1182
871.30 0.1181
871.40 0.1181
871.50 0.118
871.60 0.118
871.70 0.1179
871.80 0.1179
871.90 0.1178
872.00 0.1178
872.10 0.1177
872.20 0.1177
872.30 0.1176
872.40 0.1176
872.50 0.1175
872.60 0.1175
872.70 0.1174
872.80 0.1174
872.90 0.1173
873.00 0.1173
873.10 0.1172
873.20 0.1172
873.30 0.1171
873.40 0.1171
873.50 0.117
873.60 0.1169
873.70 0.1169
873.80 0.1168
873.90 0.1168
874.00 0.1167
874.10 0.1167
874.20 0.1166
874.30 0.1166
874.40 0.1165
874.50 0.1165
874.60 0.1164
874.70 0.1164
874.80 0.1163
874.90 0.1163
875.00 0.1162
875.10 0.1162
875.20 0.1161
875.30 0.1161
875.40 0.116
875.50 0.116
875.60 0.1159
875.70 0.1159
875.80 0.1158
875.90 0.1158
876.00 0.1157
876.10 0.1157
876.20 0.1156
876.30 0.1156
876.40 0.1155
876.50 0.1155
876.60 0.1154
876.70 0.1154
876.80 0.1153
876.90 0.1153
877.00 0.1152
877.10 0.1152
877.20 0.1151
877.30 0.1151
877.40 0.115
877.50 0.115
877.60 0.1149
877.70 0.1149
877.80 0.1148
877.90 0.1148
878.00 0.1147
878.10 0.1147
878.20 0.1146
878.30 0.1146
878.40 0.1145
878.50 0.1145
878.60 0.1144
878.70 0.1144
878.80 0.1143
878.90 0.1143
879.00 0.1142
879.10 0.1141
879.20 0.1141
879.30 0.114
879.40 0.114
879.50 0.1139
879.60 0.1139
879.70 0.1138
879.80 0.1138
879.90 0.1137
880.00 0.1137
880.10 0.1136
880.20 0.1136
880.30 0.1136
880.40 0.1135
880.50 0.1135
880.60 0.1134
880.70 0.1134
880.80 0.1133
880.90 0.1133
881.00 0.1132
881.10 0.1132
881.20 0.1131
881.30 0.1131
881.40 0.113
881.50 0.113
881.60 0.1129
881.70 0.1129
881.80 0.1128
881.90 0.1128
882.00 0.1127
882.10 0.1127
882.20 0.1126
882.30 0.1126
882.40 0.1125
882.50 0.1125
882.60 0.1124
882.70 0.1124
882.80 0.1123
882.90 0.1123
883.00 0.1122
883.10 0.1122
883.20 0.1121
883.30 0.1121
883.40 0.112
883.50 0.112
883.60 0.1119
883.70 0.1119
883.80 0.1118
883.90 0.1118
884.00 0.1117
884.10 0.1117
884.20 0.1116
884.30 0.1116
884.40 0.1115
884.50 0.1115
884.60 0.1114
884.70 0.1114
884.80 0.1113
884.90 0.1113
885.00 0.1112
885.10 0.1112
885.20 0.1112
885.30 0.1111
885.40 0.1111
885.50 0.111
885.60 0.111
885.70 0.1109
885.80 0.1109
885.90 0.1108
886.00 0.1108
886.10 0.1107
886.20 0.1107
886.30 0.1106
886.40 0.1106
886.50 0.1105
886.60 0.1105
886.70 0.1104
886.80 0.1104
886.90 0.1103
887.00 0.1103
887.10 0.1102
887.20 0.1102
887.30 0.1101
887.40 0.1101
887.50 0.11
887.60 0.11
887.70 0.11
887.80 0.1099
887.90 0.1099
888.00 0.1098
888.10 0.1098
888.20 0.1097
888.30 0.1097
888.40 0.1096
888.50 0.1096
888.60 0.1095
888.70 0.1095
888.80 0.1094
888.90 0.1094
889.00 0.1093
889.10 0.1093
889.20 0.1092
889.30 0.1092
889.40 0.1091
889.50 0.1091
889.60 0.109
889.70 0.109
889.80 0.109
889.90 0.1089
890.00 0.1089
890.10 0.1088
890.20 0.1088
890.30 0.1087
890.40 0.1087
890.50 0.1086
890.60 0.1086
890.70 0.1085
890.80 0.1085
890.90 0.1084
891.00 0.1084
891.10 0.1083
891.20 0.1083
891.30 0.1082
891.40 0.1082
891.50 0.1082
891.60 0.1081
891.70 0.1081
891.80 0.108
891.90 0.108
892.00 0.1079
892.10 0.1079
892.20 0.1078
892.30 0.1078
892.40 0.1077
892.50 0.1077
892.60 0.1076
892.70 0.1076
892.80 0.1075
892.90 0.1075
893.00 0.1075
893.10 0.1074
893.20 0.1074
893.30 0.1073
893.40 0.1073
893.50 0.1072
893.60 0.1072
893.70 0.1071
893.80 0.1071
893.90 0.107
894.00 0.107
894.10 0.1069
894.20 0.1069
894.30 0.1068
894.40 0.1068
894.50 0.1068
894.60 0.1067
894.70 0.1067
894.80 0.1066
894.90 0.1066
895.00 0.1065
895.10 0.1065
895.20 0.1064
895.30 0.1064
895.40 0.1063
895.50 0.1063
895.60 0.1062
895.70 0.1062
895.80 0.1062
895.90 0.1061
896.00 0.1061
896.10 0.106
896.20 0.106
896.30 0.1059
896.40 0.1059
896.50 0.1058
896.60 0.1058
896.70 0.1057
896.80 0.1057
896.90 0.1056
897.00 0.1056
897.10 0.1056
897.20 0.1055
897.30 0.1055
897.40 0.1054
897.50 0.1054
897.60 0.1053
897.70 0.1053
897.80 0.1052
897.90 0.1052
898.00 0.1051
898.10 0.1051
898.20 0.1051
898.30 0.105
898.40 0.105
898.50 0.1049
898.60 0.1049
898.70 0.1048
898.80 0.1048
898.90 0.1047
899.00 0.1047
899.10 0.1047
899.20 0.1046
899.30 0.1046
899.40 0.1045
899.50 0.1045
899.60 0.1044
899.70 0.1044
899.80 0.1043
899.90 0.1043
900.00 0.1043
900.10 0.1042
900.20 0.1042
900.30 0.1041
900.40 0.1041
900.50 0.104
900.60 0.104
900.70 0.1039
900.80 0.1039
900.90 0.1039
901.00 0.1038
901.10 0.1038
901.20 0.1037
901.30 0.1037
901.40 0.1036
901.50 0.1036
901.60 0.1035
901.70 0.1035
901.80 0.1035
901.90 0.1034
902.00 0.1034
902.10 0.1033
902.20 0.1033
902.30 0.1032
902.40 0.1032
902.50 0.1031
902.60 0.1031
902.70 0.1031
902.80 0.103
902.90 0.103
903.00 0.1029
903.10 0.1029
903.20 0.1028
903.30 0.1028
903.40 0.1028
903.50 0.1027
903.60 0.1027
903.70 0.1026
903.80 0.1026
903.90 0.1025
904.00 0.1025
904.10 0.1025
904.20 0.1024
904.30 0.1024
904.40 0.1023
904.50 0.1023
904.60 0.1022
904.70 0.1022
904.80 0.1022
904.90 0.1021
905.00 0.1021
905.10 0.102
905.20 0.102
905.30 0.1019
905.40 0.1019
905.50 0.1019
905.60 0.1018
905.70 0.1018
905.80 0.1017
905.90 0.1017
906.00 0.1016
906.10 0.1016
906.20 0.1016
906.30 0.1015
906.40 0.1015
906.50 0.1014
906.60 0.1014
906.70 0.1013
906.80 0.1013
906.90 0.1013
907.00 0.1012
907.10 0.1012
907.20 0.1011
907.30 0.1011
907.40 0.101
907.50 0.101
907.60 0.101
907.70 0.1009
907.80 0.1009
907.90 0.1008
908.00 0.1008
908.10 0.1007
908.20 0.1007
908.30 0.1007
908.40 0.1006
908.50 0.1006
908.60 0.1005
908.70 0.1005
908.80 0.1004
908.90 0.1004
909.00 0.1004
909.10 0.1003
909.20 0.1003
909.30 0.1002
909.40 0.1002
909.50 0.1001
909.60 0.1001
909.70 0.1001
909.80 0.1
909.90 0.09998
910.00 0.09994
910.10 0.0999
910.20 0.09985
910.30 0.09981
910.40 0.09977
910.50 0.09973
910.60 0.09968
910.70 0.09964
910.80 0.0996
910.90 0.09956
911.00 0.09952
911.10 0.09947
911.20 0.09943
911.30 0.09939
911.40 0.09935
911.50 0.0993
911.60 0.09926
911.70 0.09922
911.80 0.09918
911.90 0.09914
912.00 0.09909
912.10 0.09905
912.20 0.09901
912.30 0.09896
912.40 0.09892
912.50 0.09888
912.60 0.09883
912.70 0.09879
912.80 0.09875
912.90 0.0987
913.00 0.09866
913.10 0.09862
913.20 0.09857
913.30 0.09853
913.40 0.09849
913.50 0.09844
913.60 0.0984
913.70 0.09836
913.80 0.09831
913.90 0.09827
914.00 0.09823
914.10 0.09818
914.20 0.09814
914.30 0.0981
914.40 0.09805
914.50 0.09801
914.60 0.09797
914.70 0.09792
914.80 0.09788
914.90 0.09784
915.00 0.0978
915.10 0.09775
915.20 0.09771
915.30 0.09767
915.40 0.09762
915.50 0.09758
915.60 0.09754
915.70 0.09749
915.80 0.09745
915.90 0.09741
916.00 0.09737
916.10 0.09732
916.20 0.09728
916.30 0.09724
916.40 0.09719
916.50 0.09715
916.60 0.09711
916.70 0.09707
916.80 0.09702
916.90 0.09698
917.00 0.09694
917.10 0.0969
917.20 0.09685
917.30 0.09681
917.40 0.09677
917.50 0.09673
917.60 0.09668
917.70 0.09664
917.80 0.0966
917.90 0.09656
918.00 0.09651
918.10 0.09647
918.20 0.09643
918.30 0.09639
918.40 0.09634
918.50 0.0963
918.60 0.09626
918.70 0.09622
918.80 0.09617
918.90 0.09613
919.00 0.09609
919.10 0.09605
919.20 0.09601
919.30 0.09596
919.40 0.09592
919.50 0.09588
919.60 0.09584
919.70 0.09579
919.80 0.09575
919.90 0.09571
920.00 0.09567
920.10 0.09563
920.20 0.09558
920.30 0.09554
920.40 0.0955
920.50 0.09546
920.60 0.09542
920.70 0.09537
920.80 0.09533
920.90 0.09529
921.00 0.09525
921.10 0.09521
921.20 0.09516
921.30 0.09512
921.40 0.09508
921.50 0.09504
921.60 0.095
921.70 0.09496
921.80 0.09491
921.90 0.09487
922.00 0.09483
922.10 0.09479
922.20 0.09475
922.30 0.09472
922.40 0.09468
922.50 0.09464
922.60 0.0946
922.70 0.09457
922.80 0.09453
922.90 0.09449
923.00 0.09445
923.10 0.09442
923.20 0.09438
923.30 0.09434
923.40 0.0943
923.50 0.09426
923.60 0.09423
923.70 0.09419
923.80 0.09415
923.90 0.09411
924.00 0.09408
924.10 0.09404
924.20 0.094
924.30 0.09396
924.40 0.09393
924.50 0.09389
924.60 0.09385
924.70 0.09381
924.80 0.09378
924.90 0.09374
925.00 0.0937
925.10 0.09366
925.20 0.09363
925.30 0.09359
925.40 0.09355
925.50 0.09352
925.60 0.09348
925.70 0.09344
925.80 0.0934
925.90 0.09337
926.00 0.09333
926.10 0.09329
926.20 0.09325
926.30 0.09322
926.40 0.09318
926.50 0.09314
926.60 0.09311
926.70 0.09307
926.80 0.09303
926.90 0.09299
927.00 0.09296
927.10 0.09292
927.20 0.09289
927.30 0.09285
927.40 0.09281
927.50 0.09278
927.60 0.09274
927.70 0.09271
927.80 0.09267
927.90 0.09264
928.00 0.0926
928.10 0.09257
928.20 0.09253
928.30 0.0925
928.40 0.09246
928.50 0.09243
928.60 0.09239
928.70 0.09235
928.80 0.09232
928.90 0.09228
929.00 0.09225
929.10 0.09221
929.20 0.09218
929.30 0.09214
929.40 0.09211
929.50 0.09207
929.60 0.09204
929.70 0.092
929.80 0.09197
929.90 0.09193
930.00 0.0919
930.10 0.09186
930.20 0.09183
930.30 0.09179
930.40 0.09176
930.50 0.09172
930.60 0.09169
930.70 0.09165
930.80 0.09161
930.90 0.09158
931.00 0.09154
931.10 0.09151
931.20 0.09147
931.30 0.09144
931.40 0.0914
931.50 0.09137
931.60 0.09133
931.70 0.0913
931.80 0.09126
931.90 0.09123
932.00 0.0912
932.10 0.09116
932.20 0.09112
932.30 0.09109
932.40 0.09105
932.50 0.09101
932.60 0.09098
932.70 0.09094
932.80 0.09091
932.90 0.09087
933.00 0.09083
933.10 0.0908
933.20 0.09076
933.30 0.09073
933.40 0.09069
933.50 0.09065
933.60 0.09062
933.70 0.09058
933.80 0.09055
933.90 0.09051
934.00 0.09048
934.10 0.09044
934.20 0.0904
934.30 0.09037
934.40 0.09033
934.50 0.09029
934.60 0.09026
934.70 0.09022
934.80 0.09018
934.90 0.09015
935.00 0.09011
935.10 0.09007
935.20 0.09004
935.30 0.09
935.40 0.08996
935.50 0.08993
935.60 0.08989
935.70 0.08985
935.80 0.08982
935.90 0.08978
936.00 0.08974
936.10 0.08971
936.20 0.08967
936.30 0.08963
936.40 0.0896
936.50 0.08956
936.60 0.08952
936.70 0.08949
936.80 0.08945
936.90 0.08942
937.00 0.08938
937.10 0.08934
937.20 0.0893
937.30 0.08927
937.40 0.08923
937.50 0.08919
937.60 0.08916
937.70 0.08912
937.80 0.08908
937.90 0.08904
938.00 0.08901
938.10 0.08897
938.20 0.08893
938.30 0.0889
938.40 0.08886
938.50 0.08882
938.60 0.08878
938.70 0.08874
938.80 0.08871
938.90 0.08867
939.00 0.08863
939.10 0.08859
939.20 0.08856
939.30 0.08852
939.40 0.08848
939.50 0.08844
939.60 0.08841
939.70 0.08837
939.80 0.08833
939.90 0.08829
940.00 0.08825
940.10 0.08822
940.20 0.08818
940.30 0.08814
940.40 0.0881
940.50 0.08807
940.60 0.08803
940.70 0.08799
940.80 0.08795
940.90 0.08791
941.00 0.08787
941.10 0.08783
941.20 0.0878
941.30 0.08776
941.40 0.08772
941.50 0.08768
941.60 0.08764
941.70 0.08761
941.80 0.08757
941.90 0.08753
942.00 0.08749
942.10 0.08745
942.20 0.08741
942.30 0.08737
942.40 0.08734
942.50 0.0873
942.60 0.08726
942.70 0.08722
942.80 0.08718
942.90 0.08714
943.00 0.0871
943.10 0.08706
943.20 0.08702
943.30 0.08698
943.40 0.08694
943.50 0.0869
943.60 0.08687
943.70 0.08683
943.80 0.08679
943.90 0.08675
944.00 0.08671
944.10 0.08667
944.20 0.08663
944.30 0.08659
944.40 0.08655
944.50 0.08651
944.60 0.08647
944.70 0.08643
944.80 0.08639
944.90 0.08635
945.00 0.08631
945.10 0.08627
945.20 0.08623
945.30 0.08619
945.40 0.08615
945.50 0.08611
945.60 0.08607
945.70 0.08603
945.80 0.08599
945.90 0.08595
946.00 0.08591
946.10 0.08587
946.20 0.08583
946.30 0.08579
946.40 0.08575
946.50 0.08571
946.60 0.08567
946.70 0.08563
946.80 0.08559
946.90 0.08555
947.00 0.08551
947.10 0.08547
947.20 0.08542
947.30 0.08538
947.40 0.08534
947.50 0.0853
947.60 0.08526
947.70 0.08522
947.80 0.08518
947.90 0.08513
948.00 0.08509
948.10 0.08505
948.20 0.08501
948.30 0.08497
948.40 0.08493
948.50 0.08489
948.60 0.08485
948.70 0.0848
948.80 0.08476
948.90 0.08472
949.00 0.08468
949.10 0.08464
949.20 0.0846
949.30 0.08456
949.40 0.08451
949.50 0.08447
949.60 0.08443
949.70 0.08439
949.80 0.08435
949.90 0.08431
950.00 0.08426
950.10 0.08422
950.20 0.08418
950.30 0.08414
950.40 0.0841
950.50 0.08405
950.60 0.08401
950.70 0.08397
950.80 0.08393
950.90 0.08389
951.00 0.08385
951.10 0.08381
951.20 0.08376
951.30 0.08372
951.40 0.08368
951.50 0.08364
951.60 0.0836
951.70 0.08356
951.80 0.08352
951.90 0.08348
952.00 0.08343
952.10 0.08339
952.20 0.08335
952.30 0.08331
952.40 0.08327
952.50 0.08323
952.60 0.08319
952.70 0.08315
952.80 0.08311
952.90 0.08308
953.00 0.08304
953.10 0.083
953.20 0.08296
953.30 0.08293
953.40 0.08289
953.50 0.08285
953.60 0.08282
953.70 0.08278
953.80 0.08275
953.90 0.08271
954.00 0.08268
954.10 0.08265
954.20 0.08262
954.30 0.08259
954.40 0.08256
954.50 0.08253
954.60 0.0825
954.70 0.08247
954.80 0.08243
954.90 0.08239
955.00 0.08235
955.10 0.08232
955.20 0.08229
955.30 0.08225
955.40 0.08222
955.50 0.08219
955.60 0.08216
955.70 0.08213
955.80 0.0821
955.90 0.08207
956.00 0.08204
956.10 0.08201
956.20 0.08199
956.30 0.08196
956.40 0.08193
956.50 0.0819
956.60 0.08188
956.70 0.08185
956.80 0.08182
956.90 0.08179
957.00 0.08177
957.10 0.08174
957.20 0.08172
957.30 0.08169
957.40 0.08166
957.50 0.08164
957.60 0.08161
957.70 0.08159
957.80 0.08156
957.90 0.08154
958.00 0.08151
958.10 0.08149
958.20 0.08146
958.30 0.08144
958.40 0.08141
958.50 0.08139
958.60 0.08136
958.70 0.08134
958.80 0.08131
958.90 0.08129
959.00 0.08126
959.10 0.08124
959.20 0.08121
959.30 0.08119
959.40 0.08116
959.50 0.08114
959.60 0.08111
959.70 0.08109
959.80 0.08106
959.90 0.08104
960.00 0.08101
960.10 0.08099
960.20 0.08096
960.30 0.08094
960.40 0.08091
960.50 0.08089
960.60 0.08086
960.70 0.08084
960.80 0.08081
960.90 0.08078
961.00 0.08076
961.10 0.08073
961.20 0.08071
961.30 0.08068
961.40 0.08066
961.50 0.08063
961.60 0.08061
961.70 0.08058
961.80 0.08055
961.90 0.08053
962.00 0.0805
962.10 0.08048
962.20 0.08045
962.30 0.08042
962.40 0.0804
962.50 0.08037
962.60 0.08034
962.70 0.08032
962.80 0.08029
962.90 0.08026
963.00 0.08024
963.10 0.08021
963.20 0.08018
963.30 0.08016
963.40 0.08013
963.50 0.0801
963.60 0.08008
963.70 0.08005
963.80 0.08002
963.90 0.08
964.00 0.07997
964.10 0.07994
964.20 0.07991
964.30 0.07989
964.40 0.07986
964.50 0.07983
964.60 0.0798
964.70 0.07978
964.80 0.07975
964.90 0.07972
965.00 0.07969
965.10 0.07967
965.20 0.07964
965.30 0.07961
965.40 0.07958
965.50 0.07955
965.60 0.07953
965.70 0.0795
965.80 0.07947
965.90 0.07944
966.00 0.07942
966.10 0.07939
966.20 0.07936
966.30 0.07933
966.40 0.0793
966.50 0.07928
966.60 0.07925
966.70 0.07922
966.80 0.07919
966.90 0.07916
967.00 0.07914
967.10 0.07911
967.20 0.07908
967.30 0.07905
967.40 0.07902
967.50 0.07899
967.60 0.07896
967.70 0.07893
967.80 0.07891
967.90 0.07888
968.00 0.07885
968.10 0.07882
968.20 0.07879
968.30 0.07876
968.40 0.07873
968.50 0.0787
968.60 0.07868
968.70 0.07865
968.80 0.07862
968.90 0.07859
969.00 0.07856
969.10 0.07853
969.20 0.0785
969.30 0.07847
969.40 0.07844
969.50 0.07841
969.60 0.07839
969.70 0.07836
969.80 0.07833
969.90 0.0783
970.00 0.07827
970.10 0.07824
970.20 0.07821
970.30 0.07818
970.40 0.07815
970.50 0.07812
970.60 0.07809
970.70 0.07806
970.80 0.07804
970.90 0.07801
971.00 0.07798
971.10 0.07795
971.20 0.07792
971.30 0.07789
971.40 0.07786
971.50 0.07783
971.60 0.0778
971.70 0.07777
971.80 0.07774
971.90 0.07771
972.00 0.07768
972.10 0.07765
972.20 0.07762
972.30 0.07759
972.40 0.07756
972.50 0.07753
972.60 0.0775
972.70 0.07747
972.80 0.07744
972.90 0.07741
973.00 0.07739
973.10 0.07736
973.20 0.07733
973.30 0.0773
973.40 0.07727
973.50 0.07724
973.60 0.07721
973.70 0.07718
973.80 0.07715
973.90 0.07712
974.00 0.07709
974.10 0.07706
974.20 0.07703
974.30 0.077
974.40 0.07697
974.50 0.07694
974.60 0.07691
974.70 0.07688
974.80 0.07685
974.90 0.07682
975.00 0.07679
975.10 0.07676
975.20 0.07673
975.30 0.0767
975.40 0.07667
975.50 0.07664
975.60 0.07661
975.70 0.07658
975.80 0.07655
975.90 0.07652
976.00 0.07649
976.10 0.07646
976.20 0.07643
976.30 0.0764
976.40 0.07637
976.50 0.07634
976.60 0.07631
976.70 0.07628
976.80 0.07625
976.90 0.07622
977.00 0.07619
977.10 0.07616
977.20 0.07613
977.30 0.0761
977.40 0.07607
977.50 0.07604
977.60 0.07601
977.70 0.07598
977.80 0.07595
977.90 0.07592
978.00 0.07589
978.10 0.07586
978.20 0.07583
978.30 0.0758
978.40 0.07577
978.50 0.07574
978.60 0.07571
978.70 0.07568
978.80 0.07565
978.90 0.07562
979.00 0.07559
979.10 0.07556
979.20 0.07553
979.30 0.0755
979.40 0.07547
979.50 0.07544
979.60 0.07541
979.70 0.07538
979.80 0.07535
979.90 0.07532
980.00 0.07529
980.10 0.07526
980.20 0.07523
980.30 0.0752
980.40 0.07517
980.50 0.07514
980.60 0.07511
980.70 0.07508
980.80 0.07505
980.90 0.07502
981.00 0.07499
981.10 0.07496
981.20 0.07493
981.30 0.0749
981.40 0.07487
981.50 0.07484
981.60 0.07481
981.70 0.07478
981.80 0.07475
981.90 0.07472
982.00 0.07469
982.10 0.07466
982.20 0.07463
982.30 0.0746
982.40 0.07457
982.50 0.07454
982.60 0.07451
982.70 0.07448
982.80 0.07445
982.90 0.07442
983.00 0.07439
983.10 0.07436
983.20 0.07433
983.30 0.0743
983.40 0.07426
983.50 0.07423
983.60 0.0742
983.70 0.07417
983.80 0.07414
983.90 0.07411
984.00 0.07408
984.10 0.07405
984.20 0.07402
984.30 0.07399
984.40 0.07396
984.50 0.07393
984.60 0.0739
984.70 0.07387
984.80 0.07384
984.90 0.07381
985.00 0.07378
985.10 0.07375
985.20 0.07372
985.30 0.07369
985.40 0.07366
985.50 0.07363
985.60 0.0736
985.70 0.07356
985.80 0.07353
985.90 0.0735
986.00 0.07347
986.10 0.07344
986.20 0.07341
986.30 0.07338
986.40 0.07335
986.50 0.07332
986.60 0.07329
986.70 0.07326
986.80 0.07323
986.90 0.0732
987.00 0.07317
987.10 0.07314
987.20 0.07311
987.30 0.07307
987.40 0.07304
987.50 0.07301
987.60 0.07298
987.70 0.07295
987.80 0.07292
987.90 0.07289
988.00 0.07286
988.10 0.07283
988.20 0.0728
988.30 0.07276
988.40 0.07273
988.50 0.0727
988.60 0.07267
988.70 0.07264
988.80 0.07261
988.90 0.07258
989.00 0.07255
989.10 0.07251
989.20 0.07248
989.30 0.07245
989.40 0.07242
989.50 0.07239
989.60 0.07236
989.70 0.07232
989.80 0.07229
989.90 0.07226
990.00 0.07223
990.10 0.0722
990.20 0.07217
990.30 0.07214
990.40 0.0721
990.50 0.07207
990.60 0.07204
990.70 0.07201
990.80 0.07198
990.90 0.07194
991.00 0.07191
991.10 0.07188
991.20 0.07185
991.30 0.07181
991.40 0.07178
991.50 0.07175
991.60 0.07172
991.70 0.07169
991.80 0.07165
991.90 0.07162
992.00 0.07159
992.10 0.07156
992.20 0.07152
992.30 0.07149
992.40 0.07146
992.50 0.07142
992.60 0.07139
992.70 0.07136
992.80 0.07132
992.90 0.07129
993.00 0.07126
993.10 0.07122
993.20 0.07119
993.30 0.07116
993.40 0.07112
993.50 0.07109
993.60 0.07105
993.70 0.07102
993.80 0.07099
993.90 0.07095
994.00 0.07092
994.10 0.07089
994.20 0.07085
994.30 0.07082
994.40 0.07079
994.50 0.07075
994.60 0.07072
994.70 0.07068
994.80 0.07065
994.90 0.07061
995.00 0.07058
995.10 0.07054
995.20 0.07051
995.30 0.07047
995.40 0.07044
995.50 0.0704
995.60 0.07037
995.70 0.07033
995.80 0.0703
995.90 0.07026
996.00 0.07022
996.10 0.07019
996.20 0.07015
996.30 0.07011
996.40 0.07008
996.50 0.07004
996.60 0.07001
996.70 0.06997
996.80 0.06993
996.90 0.0699
997.00 0.06986
997.10 0.06982
997.20 0.06979
997.30 0.06975
997.40 0.06971
997.50 0.06967
997.60 0.06964
997.70 0.0696
997.80 0.06956
997.90 0.06952
998.00 0.06948
998.10 0.06944
998.20 0.0694
998.30 0.06936
998.40 0.06932
998.50 0.06928
998.60 0.06924
998.70 0.0692
998.80 0.06916
998.90 0.06913
999.00 0.06909
999.10 0.06905
999.20 0.06901
999.30 0.06897
999.40 0.06893
999.50 0.06889
999.60 0.06885
999.70 0.06881
999.80 0.06877
999.90 0.06872
1000.00 0.06868
1000.10 0.06864
1000.20 0.0686
1000.30 0.06855
1000.40 0.06851
1000.50 0.06847
1000.60 0.06843
1000.70 0.06838
1000.80 0.06834
1000.90 0.0683
1001.00 0.06826
1001.10 0.06821
1001.20 0.06817
1001.30 0.06813
1001.40 0.06809
1001.50 0.06804
1001.60 0.068
1001.70 0.06796
1001.80 0.06792
1001.90 0.06788
1002.00 0.06783
1002.10 0.06779
1002.20 0.06775
1002.30 0.06771
1002.40 0.06767
1002.50 0.06763
1002.60 0.06759
1002.70 0.06755
1002.80 0.06751
1002.90 0.06747
1003.00 0.06743
1003.10 0.06739
1003.20 0.06736
1003.30 0.06732
1003.40 0.06729
1003.50 0.06726
1003.60 0.06723
1003.70 0.06719
1003.80 0.06716
1003.90 0.06714
1004.00 0.06712
1004.10 0.0671
1004.20 0.06708
1004.30 0.06707
1004.40 0.06706
1004.50 0.06706
1004.60 0.06707
1004.70 0.06707
1004.80 0.06707
1004.90 0.06705
1005.00 0.06703
1005.10 0.06698
1005.20 0.06693
1005.30 0.06688
1005.40 0.06682
1005.50 0.06678
1005.60 0.06675
1005.70 0.06671
1005.80 0.06668
1005.90 0.06665
1006.00 0.06661
1006.10 0.06658
1006.20 0.06656
1006.30 0.06654
1006.40 0.06652
1006.50 0.06651
1006.60 0.06649
1006.70 0.06648
1006.80 0.06646
1006.90 0.06644
1007.00 0.06643
1007.10 0.06642
1007.20 0.0664
1007.30 0.06639
1007.40 0.06638
1007.50 0.06637
1007.60 0.06636
1007.70 0.06635
1007.80 0.06634
1007.90 0.06633
1008.00 0.06632
1008.10 0.06631
1008.20 0.0663
1008.30 0.06629
1008.40 0.06628
1008.50 0.06627
1008.60 0.06626
1008.70 0.06625
1008.80 0.06624
1008.90 0.06623
1009.00 0.06622
1009.10 0.06621
1009.20 0.0662
1009.30 0.06619
1009.40 0.06618
1009.50 0.06617
1009.60 0.06616
1009.70 0.06615
1009.80 0.06614
1009.90 0.06612
1010.00 0.06611
1010.10 0.0661
1010.20 0.06608
1010.30 0.06607
1010.40 0.06606
1010.50 0.06605
1010.60 0.06603
1010.70 0.06602
1010.80 0.06601
1010.90 0.066
1011.00 0.06598
1011.10 0.06597
1011.20 0.06596
1011.30 0.06595
1011.40 0.06593
1011.50 0.06592
1011.60 0.06591
1011.70 0.06589
1011.80 0.06588
1011.90 0.06587
1012.00 0.06585
1012.10 0.06584
1012.20 0.06582
1012.30 0.0658
1012.40 0.06579
1012.50 0.06577
1012.60 0.06576
1012.70 0.06574
1012.80 0.06572
1012.90 0.06571
1013.00 0.06569
1013.10 0.06568
1013.20 0.06566
1013.30 0.06564
1013.40 0.06563
1013.50 0.06561
1013.60 0.0656
1013.70 0.06558
1013.80 0.06556
1013.90 0.06554
1014.00 0.06553
1014.10 0.06551
1014.20 0.06549
1014.30 0.06547
1014.40 0.06546
1014.50 0.06544
1014.60 0.06542
1014.70 0.0654
1014.80 0.06538
1014.90 0.06537
1015.00 0.06535
1015.10 0.06533
1015.20 0.06531
1015.30 0.06529
1015.40 0.06527
1015.50 0.06525
1015.60 0.06523
1015.70 0.06521
1015.80 0.06519
1015.90 0.06518
1016.00 0.06516
1016.10 0.06514
1016.20 0.06512
1016.30 0.0651
1016.40 0.06508
1016.50 0.06506
1016.60 0.06504
1016.70 0.06502
1016.80 0.065
1016.90 0.06498
1017.00 0.06496
1017.10 0.06494
1017.20 0.06492
1017.30 0.0649
1017.40 0.06488
1017.50 0.06486
1017.60 0.06484
1017.70 0.06482
1017.80 0.0648
1017.90 0.06478
1018.00 0.06476
1018.10 0.06474
1018.20 0.06471
1018.30 0.06469
1018.40 0.06467
1018.50 0.06465
1018.60 0.06463
1018.70 0.06461
1018.80 0.06459
1018.90 0.06457
1019.00 0.06455
1019.10 0.06452
1019.20 0.0645
1019.30 0.06448
1019.40 0.06446
1019.50 0.06444
1019.60 0.06442
1019.70 0.0644
1019.80 0.06437
1019.90 0.06435
1020.00 0.06433
1020.10 0.06431
1020.20 0.06429
1020.30 0.06427
1020.40 0.06425
1020.50 0.06422
1020.60 0.0642
1020.70 0.06418
1020.80 0.06416
1020.90 0.06414
1021.00 0.06411
1021.10 0.06409
1021.20 0.06407
1021.30 0.06405
1021.40 0.06403
1021.50 0.064
1021.60 0.06398
1021.70 0.06396
1021.80 0.06394
1021.90 0.06392
1022.00 0.06389
1022.10 0.06387
1022.20 0.06385
1022.30 0.06383
1022.40 0.0638
1022.50 0.06378
1022.60 0.06376
1022.70 0.06374
1022.80 0.06371
1022.90 0.06369
1023.00 0.06367
1023.10 0.06365
1023.20 0.06362
1023.30 0.0636
1023.40 0.06358
1023.50 0.06356
1023.60 0.06353
1023.70 0.06351
1023.80 0.06349
1023.90 0.06347
1024.00 0.06344
1024.10 0.06342
1024.20 0.0634
1024.30 0.06338
1024.40 0.06335
1024.50 0.06333
1024.60 0.06331
1024.70 0.06329
1024.80 0.06326
1024.90 0.06324
1025.00 0.06322
1025.10 0.0632
1025.20 0.06317
1025.30 0.06315
1025.40 0.06313
1025.50 0.0631
1025.60 0.06308
1025.70 0.06306
1025.80 0.06304
1025.90 0.06301
1026.00 0.06299
1026.10 0.06297
1026.20 0.06295
1026.30 0.06292
1026.40 0.0629
1026.50 0.06288
1026.60 0.06285
1026.70 0.06283
1026.80 0.06281
1026.90 0.06279
1027.00 0.06276
1027.10 0.06274
1027.20 0.06272
1027.30 0.0627
1027.40 0.06267
1027.50 0.06265
1027.60 0.06263
1027.70 0.0626
1027.80 0.06258
1027.90 0.06256
1028.00 0.06253
1028.10 0.06251
1028.20 0.06249
1028.30 0.06247
1028.40 0.06244
1028.50 0.06242
1028.60 0.0624
1028.70 0.06237
1028.80 0.06235
1028.90 0.06233
1029.00 0.06231
1029.10 0.06228
1029.20 0.06226
1029.30 0.06224
1029.40 0.06221
1029.50 0.06219
1029.60 0.06217
1029.70 0.06215
1029.80 0.06212
1029.90 0.0621
1030.00 0.06208
1030.10 0.06205
1030.20 0.06203
1030.30 0.06201
1030.40 0.06199
1030.50 0.06196
1030.60 0.06194
1030.70 0.06192
1030.80 0.0619
1030.90 0.06187
1031.00 0.06185
1031.10 0.06183
1031.20 0.0618
1031.30 0.06178
1031.40 0.06176
1031.50 0.06174
1031.60 0.06171
1031.70 0.06169
1031.80 0.06167
1031.90 0.06165
1032.00 0.06162
1032.10 0.0616
1032.20 0.06158
1032.30 0.06156
1032.40 0.06153
1032.50 0.06151
1032.60 0.06149
1032.70 0.06146
1032.80 0.06144
1032.90 0.06142
1033.00 0.0614
1033.10 0.06137
1033.20 0.06135
1033.30 0.06133
1033.40 0.0613
1033.50 0.06128
1033.60 0.06126
1033.70 0.06124
1033.80 0.06121
1033.90 0.06119
1034.00 0.06117
1034.10 0.06115
1034.20 0.06112
1034.30 0.0611
1034.40 0.06108
1034.50 0.06106
1034.60 0.06103
1034.70 0.06101
1034.80 0.06099
1034.90 0.06096
1035.00 0.06094
1035.10 0.06092
1035.20 0.0609
1035.30 0.06087
1035.40 0.06085
1035.50 0.06083
1035.60 0.06081
1035.70 0.06078
1035.80 0.06076
1035.90 0.06074
1036.00 0.06072
1036.10 0.06069
1036.20 0.06067
1036.30 0.06065
1036.40 0.06063
1036.50 0.0606
1036.60 0.06058
1036.70 0.06056
1036.80 0.06054
1036.90 0.06051
1037.00 0.06049
1037.10 0.06047
1037.20 0.06045
1037.30 0.06042
1037.40 0.0604
1037.50 0.06038
1037.60 0.06036
1037.70 0.06033
1037.80 0.06031
1037.90 0.06029
1038.00 0.06027
1038.10 0.06024
1038.20 0.06022
1038.30 0.0602
1038.40 0.06018
1038.50 0.06016
1038.60 0.06013
1038.70 0.06011
1038.80 0.06009
1038.90 0.06007
1039.00 0.06004
1039.10 0.06002
1039.20 0.06
1039.30 0.05998
1039.40 0.05995
1039.50 0.05993
1039.60 0.05991
1039.70 0.05989
1039.80 0.05987
1039.90 0.05984
1040.00 0.05982
1040.10 0.0598
1040.20 0.05978
1040.30 0.05975
1040.40 0.05973
1040.50 0.05971
1040.60 0.05969
1040.70 0.05967
1040.80 0.05964
1040.90 0.05962
1041.00 0.0596
1041.10 0.05958
1041.20 0.05955
1041.30 0.05953
1041.40 0.05951
1041.50 0.05949
1041.60 0.05947
1041.70 0.05944
1041.80 0.05942
1041.90 0.0594
1042.00 0.05938
1042.10 0.05936
1042.20 0.05933
1042.30 0.05931
1042.40 0.05929
1042.50 0.05927
1042.60 0.05924
1042.70 0.05922
1042.80 0.0592
1042.90 0.05918
1043.00 0.05916
1043.10 0.05913
1043.20 0.05911
1043.30 0.05909
1043.40 0.05907
1043.50 0.05905
1043.60 0.05903
1043.70 0.059
1043.80 0.05898
1043.90 0.05896
1044.00 0.05894
1044.10 0.05892
1044.20 0.05889
1044.30 0.05887
1044.40 0.05885
1044.50 0.05883
1044.60 0.05881
1044.70 0.05878
1044.80 0.05876
1044.90 0.05874
1045.00 0.05872
1045.10 0.0587
1045.20 0.05867
1045.30 0.05865
1045.40 0.05863
1045.50 0.05861
1045.60 0.05859
1045.70 0.05857
1045.80 0.05854
1045.90 0.05852
1046.00 0.0585
1046.10 0.05848
1046.20 0.05846
1046.30 0.05844
1046.40 0.05841
1046.50 0.05839
1046.60 0.05837
1046.70 0.05835
1046.80 0.05833
1046.90 0.0583
1047.00 0.05828
1047.10 0.05826
1047.20 0.05824
1047.30 0.05822
1047.40 0.0582
1047.50 0.05817
1047.60 0.05815
1047.70 0.05813
1047.80 0.05811
1047.90 0.05809
1048.00 0.05807
1048.10 0.05805
1048.20 0.05802
1048.30 0.058
1048.40 0.05798
1048.50 0.05796
1048.60 0.05794
1048.70 0.05792
1048.80 0.05789
1048.90 0.05787
1049.00 0.05785
1049.10 0.05783
1049.20 0.05781
1049.30 0.05779
1049.40 0.05777
1049.50 0.05774
1049.60 0.05772
1049.70 0.0577
1049.80 0.05768
1049.90 0.05766
1050.00 0.05764
1050.10 0.05762
1050.20 0.05759
1050.30 0.05757
1050.40 0.05755
1050.50 0.05753
1050.60 0.05751
1050.70 0.05749
1050.80 0.05747
1050.90 0.05744
1051.00 0.05742
1051.10 0.0574
1051.20 0.05738
1051.30 0.05736
1051.40 0.05734
1051.50 0.05732
1051.60 0.0573
1051.70 0.05727
1051.80 0.05725
1051.90 0.05723
1052.00 0.05721
1052.10 0.05719
1052.20 0.05717
1052.30 0.05715
1052.40 0.05713
1052.50 0.0571
1052.60 0.05708
1052.70 0.05706
1052.80 0.05704
1052.90 0.05702
1053.00 0.057
1053.10 0.05698
1053.20 0.05696
1053.30 0.05693
1053.40 0.05691
1053.50 0.05689
1053.60 0.05687
1053.70 0.05685
1053.80 0.05683
1053.90 0.05681
1054.00 0.05679
1054.10 0.05677
1054.20 0.05674
1054.30 0.05672
1054.40 0.0567
1054.50 0.05668
1054.60 0.05666
1054.70 0.05664
1054.80 0.05662
1054.90 0.0566
1055.00 0.05658
1055.10 0.05656
1055.20 0.05653
1055.30 0.05651
1055.40 0.05649
1055.50 0.05647
1055.60 0.05645
1055.70 0.05643
1055.80 0.05641
1055.90 0.05639
1056.00 0.05637
1056.10 0.05635
1056.20 0.05632
1056.30 0.0563
1056.40 0.05628
1056.50 0.05626
1056.60 0.05624
1056.70 0.05622
1056.80 0.0562
1056.90 0.05618
1057.00 0.05616
1057.10 0.05614
1057.20 0.05612
1057.30 0.05609
1057.40 0.05607
1057.50 0.05605
1057.60 0.05603
1057.70 0.05601
1057.80 0.05599
1057.90 0.05597
1058.00 0.05595
1058.10 0.05593
1058.20 0.05591
1058.30 0.05589
1058.40 0.05587
1058.50 0.05585
1058.60 0.05582
1058.70 0.0558
1058.80 0.05578
1058.90 0.05576
1059.00 0.05574
1059.10 0.05572
1059.20 0.0557
1059.30 0.05568
1059.40 0.05566
1059.50 0.05564
1059.60 0.05562
1059.70 0.0556
1059.80 0.05558
1059.90 0.05556
1060.00 0.05553
1060.10 0.05551
1060.20 0.05549
1060.30 0.05547
1060.40 0.05545
1060.50 0.05543
1060.60 0.05541
1060.70 0.05539
1060.80 0.05537
1060.90 0.05535
1061.00 0.05533
1061.10 0.05531
1061.20 0.05529
1061.30 0.05527
1061.40 0.05525
1061.50 0.05523
1061.60 0.05521
1061.70 0.05518
1061.80 0.05516
1061.90 0.05514
1062.00 0.05512
1062.10 0.0551
1062.20 0.05508
1062.30 0.05506
1062.40 0.05504
1062.50 0.05502
1062.60 0.055
1062.70 0.05498
1062.80 0.05496
1062.90 0.05494
1063.00 0.05492
1063.10 0.0549
1063.20 0.05488
1063.30 0.05486
1063.40 0.05484
1063.50 0.05482
1063.60 0.05479
1063.70 0.05477
1063.80 0.05475
1063.90 0.05473
1064.00 0.05471
1064.10 0.05469
1064.20 0.05467
1064.30 0.05465
1064.40 0.05463
1064.50 0.05461
1064.60 0.05459
1064.70 0.05457
1064.80 0.05455
1064.90 0.05453
1065.00 0.05451
1065.10 0.05449
1065.20 0.05447
1065.30 0.05445
1065.40 0.05443
1065.50 0.05441
1065.60 0.05439
1065.70 0.05437
1065.80 0.05435
1065.90 0.05433
1066.00 0.05431
1066.10 0.05429
1066.20 0.05427
1066.30 0.05424
1066.40 0.05422
1066.50 0.0542
1066.60 0.05418
1066.70 0.05416
1066.80 0.05414
1066.90 0.05412
1067.00 0.0541
1067.10 0.05408
1067.20 0.05406
1067.30 0.05404
1067.40 0.05402
1067.50 0.054
1067.60 0.05398
1067.70 0.05396
1067.80 0.05394
1067.90 0.05392
1068.00 0.0539
1068.10 0.05388
1068.20 0.05386
1068.30 0.05384
1068.40 0.05382
1068.50 0.0538
1068.60 0.05378
1068.70 0.05376
1068.80 0.05374
1068.90 0.05372
1069.00 0.0537
1069.10 0.05367
1069.20 0.05365
1069.30 0.05363
1069.40 0.05361
1069.50 0.05359
1069.60 0.05357
1069.70 0.05355
1069.80 0.05353
1069.90 0.05351
1070.00 0.05349
1070.10 0.05347
1070.20 0.05345
1070.30 0.05343
1070.40 0.05341
1070.50 0.05339
1070.60 0.05337
1070.70 0.05335
1070.80 0.05333
1070.90 0.05331
1071.00 0.05329
1071.10 0.05327
1071.20 0.05325
1071.30 0.05323
1071.40 0.05321
1071.50 0.05319
1071.60 0.05317
1071.70 0.05315
1071.80 0.05313
1071.90 0.05311
1072.00 0.05309
1072.10 0.05307
1072.20 0.05305
1072.30 0.05303
1072.40 0.05301
1072.50 0.05299
1072.60 0.05297
1072.70 0.05295
1072.80 0.05293
1072.90 0.0529
1073.00 0.05288
1073.10 0.05286
1073.20 0.05284
1073.30 0.05282
1073.40 0.0528
1073.50 0.05278
1073.60 0.05276
1073.70 0.05274
1073.80 0.05272
1073.90 0.0527
1074.00 0.05268
1074.10 0.05266
1074.20 0.05264
1074.30 0.05262
1074.40 0.0526
1074.50 0.05257
1074.60 0.05255
1074.70 0.05253
1074.80 0.05251
1074.90 0.05249
1075.00 0.05247
1075.10 0.05245
1075.20 0.05243
1075.30 0.05241
1075.40 0.05239
1075.50 0.05237
1075.60 0.05235
1075.70 0.05233
1075.80 0.05231
1075.90 0.05228
1076.00 0.05226
1076.10 0.05224
1076.20 0.05222
1076.30 0.0522
1076.40 0.05218
1076.50 0.05216
1076.60 0.05214
1076.70 0.05212
1076.80 0.0521
1076.90 0.05208
1077.00 0.05206
1077.10 0.05204
1077.20 0.05202
1077.30 0.05199
1077.40 0.05197
1077.50 0.05195
1077.60 0.05193
1077.70 0.05191
1077.80 0.05189
1077.90 0.05187
1078.00 0.05184
1078.10 0.05182
1078.20 0.0518
1078.30 0.05178
1078.40 0.05176
1078.50 0.05174
1078.60 0.05172
1078.70 0.05169
1078.80 0.05167
1078.90 0.05165
1079.00 0.05163
1079.10 0.05161
1079.20 0.05159
1079.30 0.05156
1079.40 0.05154
1079.50 0.05152
1079.60 0.0515
1079.70 0.05148
1079.80 0.05145
1079.90 0.05143
1080.00 0.05141
1080.10 0.05139
1080.20 0.05136
1080.30 0.05134
1080.40 0.05132
1080.50 0.0513
1080.60 0.05127
1080.70 0.05125
1080.80 0.05123
1080.90 0.05121
1081.00 0.05118
1081.10 0.05116
1081.20 0.05114
1081.30 0.05112
1081.40 0.05109
1081.50 0.05107
1081.60 0.05105
1081.70 0.05103
1081.80 0.051
1081.90 0.05098
1082.00 0.05096
1082.10 0.05093
1082.20 0.05091
1082.30 0.05088
1082.40 0.05086
1082.50 0.05083
1082.60 0.05081
1082.70 0.05079
1082.80 0.05076
1082.90 0.05074
1083.00 0.05071
1083.10 0.05069
1083.20 0.05067
1083.30 0.05064
1083.40 0.05062
1083.50 0.05059
1083.60 0.05057
1083.70 0.05054
1083.80 0.05052
1083.90 0.05049
1084.00 0.05047
1084.10 0.05044
1084.20 0.05041
1084.30 0.05039
1084.40 0.05036
1084.50 0.05034
1084.60 0.05031
1084.70 0.05028
1084.80 0.05025
1084.90 0.05023
1085.00 0.0502
1085.10 0.05017
1085.20 0.05014
1085.30 0.05012
1085.40 0.05009
1085.50 0.05006
1085.60 0.05003
1085.70 0.05001
1085.80 0.04998
1085.90 0.04995
1086.00 0.04992
1086.10 0.0499
1086.20 0.04987
1086.30 0.04984
1086.40 0.04981
1086.50 0.04979
1086.60 0.04976
1086.70 0.04973
1086.80 0.0497
1086.90 0.04967
1087.00 0.04964
1087.10 0.04961
1087.20 0.04957
1087.30 0.04954
1087.40 0.04951
1087.50 0.04948
1087.60 0.04945
1087.70 0.04942
1087.80 0.04938
1087.90 0.04935
1088.00 0.04932
1088.10 0.04929
1088.20 0.04926
1088.30 0.04923
1088.40 0.0492
1088.50 0.04916
1088.60 0.04913
1088.70 0.04909
1088.80 0.04906
1088.90 0.04903
1089.00 0.04899
1089.10 0.04896
1089.20 0.04892
1089.30 0.04889
1089.40 0.04885
1089.50 0.04882
1089.60 0.04879
1089.70 0.04875
1089.80 0.04872
1089.90 0.04868
1090.00 0.04865
1090.10 0.04861
1090.20 0.04858
1090.30 0.04855
1090.40 0.04851
1090.50 0.04848
1090.60 0.04844
1090.70 0.04841
1090.80 0.04838
1090.90 0.04834
1091.00 0.04831
1091.10 0.04828
1091.20 0.04824
1091.30 0.04821
1091.40 0.04818
1091.50 0.04815
1091.60 0.04811
1091.70 0.04808
1091.80 0.04805
1091.90 0.04801
1092.00 0.04798
1092.10 0.04795
1092.20 0.04793
1092.30 0.0479
1092.40 0.04788
1092.50 0.04785
1092.60 0.04782
1092.70 0.0478
1092.80 0.04778
1092.90 0.04776
1093.00 0.04775
1093.10 0.04773
1093.20 0.04772
1093.30 0.0477
1093.40 0.04769
1093.50 0.04769
1093.60 0.04771
1093.70 0.04773
1093.80 0.04775
1093.90 0.04774
1094.00 0.04769
1094.10 0.04764
1094.20 0.04758
1094.30 0.04754
1094.40 0.04752
1094.50 0.04751
1094.60 0.04749
1094.70 0.04747
1094.80 0.04745
1094.90 0.04744
1095.00 0.04742
1095.10 0.04742
1095.20 0.04742
1095.30 0.04741
1095.40 0.04741
1095.50 0.0474
1095.60 0.0474
1095.70 0.0474
1095.80 0.04739
1095.90 0.04739
1096.00 0.04738
1096.10 0.04738
1096.20 0.04738
1096.30 0.04737
1096.40 0.04737
1096.50 0.04737
1096.60 0.04737
1096.70 0.04737
1096.80 0.04737
1096.90 0.04737
1097.00 0.04737
1097.10 0.04737
1097.20 0.04737
1097.30 0.04737
1097.40 0.04737
1097.50 0.04737
1097.60 0.04737
1097.70 0.04737
1097.80 0.04737
1097.90 0.04737
1098.00 0.04737
1098.10 0.04737
1098.20 0.04737
1098.30 0.04737
1098.40 0.04737
1098.50 0.04737
1098.60 0.04737
1098.70 0.04737
1098.80 0.04737
1098.90 0.04736
1099.00 0.04736
1099.10 0.04736
1099.20 0.04736
1099.30 0.04735
1099.40 0.04735
1099.50 0.04735
1099.60 0.04735
1099.70 0.04734
1099.80 0.04734
1099.90 0.04734
1100.00 0.04734
1100.10 0.04733
1100.20 0.04733
1100.30 0.04733
1100.40 0.04733
1100.50 0.04732
1100.60 0.04732
1100.70 0.04731
1100.80 0.0473
1100.90 0.0473
1101.00 0.04729
1101.10 0.04729
1101.20 0.04728
1101.30 0.04727
1101.40 0.04727
1101.50 0.04726
1101.60 0.04726
1101.70 0.04725
1101.80 0.04724
1101.90 0.04724
1102.00 0.04723
1102.10 0.04722
1102.20 0.04722
1102.30 0.04721
1102.40 0.0472
1102.50 0.04719
1102.60 0.04718
1102.70 0.04717
1102.80 0.04717
1102.90 0.04716
1103.00 0.04715
1103.10 0.04714
1103.20 0.04713
1103.30 0.04712
1103.40 0.04711
1103.50 0.0471
1103.60 0.04709
1103.70 0.04708
1103.80 0.04707
1103.90 0.04706
1104.00 0.04705
1104.10 0.04704
1104.20 0.04703
1104.30 0.04702
1104.40 0.047
1104.50 0.04699
1104.60 0.04698
1104.70 0.04697
1104.80 0.04696
1104.90 0.04695
1105.00 0.04694
1105.10 0.04693
1105.20 0.04692
1105.30 0.04691
1105.40 0.0469
1105.50 0.04689
1105.60 0.04687
1105.70 0.04686
1105.80 0.04685
1105.90 0.04684
1106.00 0.04682
1106.10 0.04681
1106.20 0.0468
1106.30 0.04679
1106.40 0.04677
1106.50 0.04676
1106.60 0.04675
1106.70 0.04674
1106.80 0.04672
1106.90 0.04671
1107.00 0.0467
1107.10 0.04669
1107.20 0.04667
1107.30 0.04666
1107.40 0.04665
1107.50 0.04663
1107.60 0.04662
1107.70 0.04661
1107.80 0.04659
1107.90 0.04658
1108.00 0.04657
1108.10 0.04655
1108.20 0.04654
1108.30 0.04653
1108.40 0.04651
1108.50 0.0465
1108.60 0.04648
1108.70 0.04647
1108.80 0.04646
1108.90 0.04644
1109.00 0.04643
1109.10 0.04642
1109.20 0.0464
1109.30 0.04639
1109.40 0.04638
1109.50 0.04636
1109.60 0.04635
1109.70 0.04633
1109.80 0.04632
1109.90 0.0463
1110.00 0.04629
1110.10 0.04627
1110.20 0.04626
1110.30 0.04625
1110.40 0.04623
1110.50 0.04622
1110.60 0.0462
1110.70 0.04619
1110.80 0.04617
1110.90 0.04616
1111.00 0.04615
1111.10 0.04613
1111.20 0.04612
1111.30 0.0461
1111.40 0.04609
1111.50 0.04607
1111.60 0.04606
1111.70 0.04604
1111.80 0.04603
1111.90 0.04602
1112.00 0.046
1112.10 0.04599
1112.20 0.04597
1112.30 0.04596
1112.40 0.04594
1112.50 0.04593
1112.60 0.04591
1112.70 0.0459
1112.80 0.04588
1112.90 0.04587
1113.00 0.04585
1113.10 0.04584
1113.20 0.04582
1113.30 0.04581
1113.40 0.04579
1113.50 0.04578
1113.60 0.04576
1113.70 0.04575
1113.80 0.04573
1113.90 0.04572
1114.00 0.0457
1114.10 0.04569
1114.20 0.04567
1114.30 0.04566
1114.40 0.04564
1114.50 0.04563
1114.60 0.04561
1114.70 0.0456
1114.80 0.04558
1114.90 0.04557
1115.00 0.04555
1115.10 0.04554
1115.20 0.04552
1115.30 0.04551
1115.40 0.04549
1115.50 0.04548
1115.60 0.04546
1115.70 0.04545
1115.80 0.04543
1115.90 0.04542
1116.00 0.0454
1116.10 0.04539
1116.20 0.04537
1116.30 0.04536
1116.40 0.04534
1116.50 0.04533
1116.60 0.04531
1116.70 0.0453
1116.80 0.04528
1116.90 0.04527
1117.00 0.04525
1117.10 0.04524
1117.20 0.04522
1117.30 0.04521
1117.40 0.04519
1117.50 0.04518
1117.60 0.04516
1117.70 0.04515
1117.80 0.04513
1117.90 0.04512
1118.00 0.0451
1118.10 0.04509
1118.20 0.04507
1118.30 0.04506
1118.40 0.04504
1118.50 0.04502
1118.60 0.04501
1118.70 0.04499
1118.80 0.04498
1118.90 0.04496
1119.00 0.04495
1119.10 0.04493
1119.20 0.04492
1119.30 0.0449
1119.40 0.04489
1119.50 0.04487
1119.60 0.04486
1119.70 0.04484
1119.80 0.04483
1119.90 0.04481
1120.00 0.0448
1120.10 0.04478
1120.20 0.04477
1120.30 0.04475
1120.40 0.04474
1120.50 0.04472
1120.60 0.04471
1120.70 0.04469
1120.80 0.04468
1120.90 0.04466
1121.00 0.04465
1121.10 0.04463
1121.20 0.04462
1121.30 0.0446
1121.40 0.04459
1121.50 0.04457
1121.60 0.04456
1121.70 0.04454
1121.80 0.04453
1121.90 0.04451
1122.00 0.0445
1122.10 0.04448
1122.20 0.04447
1122.30 0.04445
1122.40 0.04444
1122.50 0.04442
1122.60 0.0444
1122.70 0.04439
1122.80 0.04437
1122.90 0.04436
1123.00 0.04434
1123.10 0.04433
1123.20 0.04431
1123.30 0.0443
1123.40 0.04428
1123.50 0.04427
1123.60 0.04425
1123.70 0.04424
1123.80 0.04422
1123.90 0.04421
1124.00 0.04419
1124.10 0.04418
1124.20 0.04416
1124.30 0.04415
1124.40 0.04413
1124.50 0.04412
1124.60 0.0441
1124.70 0.04409
1124.80 0.04407
1124.90 0.04406
1125.00 0.04404
1125.10 0.04403
1125.20 0.04401
1125.30 0.044
1125.40 0.04398
1125.50 0.04397
1125.60 0.04395
1125.70 0.04394
1125.80 0.04392
1125.90 0.04391
1126.00 0.04389
1126.10 0.04388
1126.20 0.04386
1126.30 0.04385
1126.40 0.04383
1126.50 0.04382
1126.60 0.0438
1126.70 0.04379
1126.80 0.04377
1126.90 0.04376
1127.00 0.04374
1127.10 0.04373
1127.20 0.04371
1127.30 0.0437
1127.40 0.04368
1127.50 0.04367
1127.60 0.04365
1127.70 0.04364
1127.80 0.04362
1127.90 0.04361
1128.00 0.04359
1128.10 0.04358
1128.20 0.04356
1128.30 0.04355
1128.40 0.04353
1128.50 0.04352
1128.60 0.0435
1128.70 0.04349
1128.80 0.04347
1128.90 0.04346
1129.00 0.04344
1129.10 0.04343
1129.20 0.04342
1129.30 0.0434
1129.40 0.04339
1129.50 0.04337
1129.60 0.04336
1129.70 0.04334
1129.80 0.04333
1129.90 0.04331
1130.00 0.0433
1130.10 0.04328
1130.20 0.04327
1130.30 0.04325
1130.40 0.04324
1130.50 0.04322
1130.60 0.04321
1130.70 0.04319
1130.80 0.04318
1130.90 0.04316
1131.00 0.04315
1131.10 0.04313
1131.20 0.04312
1131.30 0.0431
1131.40 0.04309
1131.50 0.04307
1131.60 0.04306
1131.70 0.04305
1131.80 0.04303
1131.90 0.04302
1132.00 0.043
1132.10 0.04299
1132.20 0.04297
1132.30 0.04296
1132.40 0.04294
1132.50 0.04293
1132.60 0.04291
1132.70 0.0429
1132.80 0.04288
1132.90 0.04287
1133.00 0.04285
1133.10 0.04284
1133.20 0.04283
1133.30 0.04281
1133.40 0.0428
1133.50 0.04278
1133.60 0.04277
1133.70 0.04275
1133.80 0.04274
1133.90 0.04272
1134.00 0.04271
1134.10 0.04269
1134.20 0.04268
1134.30 0.04266
1134.40 0.04265
1134.50 0.04264
1134.60 0.04262
1134.70 0.04261
1134.80 0.04259
1134.90 0.04258
1135.00 0.04256
1135.10 0.04255
1135.20 0.04253
1135.30 0.04252
1135.40 0.0425
1135.50 0.04249
1135.60 0.04248
1135.70 0.04246
1135.80 0.04245
1135.90 0.04243
1136.00 0.04242
1136.10 0.0424
1136.20 0.04239
1136.30 0.04237
1136.40 0.04236
1136.50 0.04234
1136.60 0.04233
1136.70 0.04232
1136.80 0.0423
1136.90 0.04229
1137.00 0.04227
1137.10 0.04226
1137.20 0.04224
1137.30 0.04223
1137.40 0.04221
1137.50 0.0422
1137.60 0.04219
1137.70 0.04217
1137.80 0.04216
1137.90 0.04214
1138.00 0.04213
1138.10 0.04211
1138.20 0.0421
1138.30 0.04209
1138.40 0.04207
1138.50 0.04206
1138.60 0.04204
1138.70 0.04203
1138.80 0.04201
1138.90 0.042
1139.00 0.04198
1139.10 0.04197
1139.20 0.04196
1139.30 0.04194
1139.40 0.04193
1139.50 0.04191
1139.60 0.0419
1139.70 0.04188
1139.80 0.04187
1139.90 0.04186
1140.00 0.04184
1140.10 0.04183
1140.20 0.04181
1140.30 0.0418
1140.40 0.04178
1140.50 0.04177
1140.60 0.04176
1140.70 0.04174
1140.80 0.04173
1140.90 0.04171
1141.00 0.0417
1141.10 0.04169
1141.20 0.04167
1141.30 0.04166
1141.40 0.04164
1141.50 0.04163
1141.60 0.04161
1141.70 0.0416
1141.80 0.04159
1141.90 0.04157
1142.00 0.04156
1142.10 0.04154
1142.20 0.04153
1142.30 0.04151
1142.40 0.0415
1142.50 0.04149
1142.60 0.04147
1142.70 0.04146
1142.80 0.04144
1142.90 0.04143
1143.00 0.04142
1143.10 0.0414
1143.20 0.04139
1143.30 0.04137
1143.40 0.04136
1143.50 0.04135
1143.60 0.04133
1143.70 0.04132
1143.80 0.0413
1143.90 0.04129
1144.00 0.04128
1144.10 0.04126
1144.20 0.04125
1144.30 0.04123
1144.40 0.04122
1144.50 0.04121
1144.60 0.04119
1144.70 0.04118
1144.80 0.04116
1144.90 0.04115
1145.00 0.04114
1145.10 0.04112
1145.20 0.04111
1145.30 0.04109
1145.40 0.04108
1145.50 0.04107
1145.60 0.04105
1145.70 0.04104
1145.80 0.04102
1145.90 0.04101
1146.00 0.041
1146.10 0.04098
1146.20 0.04097
1146.30 0.04095
1146.40 0.04094
1146.50 0.04093
1146.60 0.04091
1146.70 0.0409
1146.80 0.04088
1146.90 0.04087
1147.00 0.04086
1147.10 0.04084
1147.20 0.04083
1147.30 0.04081
1147.40 0.0408
1147.50 0.04079
1147.60 0.04077
1147.70 0.04076
1147.80 0.04075
1147.90 0.04073
1148.00 0.04072
1148.10 0.0407
1148.20 0.04069
1148.30 0.04068
1148.40 0.04066
1148.50 0.04065
1148.60 0.04064
1148.70 0.04062
1148.80 0.04061
1148.90 0.04059
1149.00 0.04058
1149.10 0.04057
1149.20 0.04055
1149.30 0.04054
1149.40 0.04053
1149.50 0.04051
1149.60 0.0405
1149.70 0.04048
1149.80 0.04047
1149.90 0.04046
1150.00 0.04044
1150.10 0.04043
1150.20 0.04042
1150.30 0.0404
1150.40 0.04039
1150.50 0.04037
1150.60 0.04036
1150.70 0.04035
1150.80 0.04033
1150.90 0.04032
1151.00 0.04031
1151.10 0.04029
1151.20 0.04028
1151.30 0.04027
1151.40 0.04025
1151.50 0.04024
1151.60 0.04022
1151.70 0.04021
1151.80 0.0402
1151.90 0.04018
1152.00 0.04017
1152.10 0.04016
1152.20 0.04014
1152.30 0.04013
1152.40 0.04012
1152.50 0.0401
1152.60 0.04009
1152.70 0.04007
1152.80 0.04006
1152.90 0.04005
1153.00 0.04003
1153.10 0.04002
1153.20 0.04001
1153.30 0.03999
1153.40 0.03998
1153.50 0.03997
1153.60 0.03995
1153.70 0.03994
1153.80 0.03993
1153.90 0.03991
1154.00 0.0399
1154.10 0.03989
1154.20 0.03987
1154.30 0.03986
1154.40 0.03985
1154.50 0.03983
1154.60 0.03982
1154.70 0.03981
1154.80 0.03979
1154.90 0.03978
1155.00 0.03976
1155.10 0.03975
1155.20 0.03974
1155.30 0.03972
1155.40 0.03971
1155.50 0.0397
1155.60 0.03968
1155.70 0.03967
1155.80 0.03966
1155.90 0.03964
1156.00 0.03963
1156.10 0.03962
1156.20 0.0396
1156.30 0.03959
1156.40 0.03958
1156.50 0.03956
1156.60 0.03955
1156.70 0.03954
1156.80 0.03952
1156.90 0.03951
1157.00 0.0395
1157.10 0.03948
1157.20 0.03947
1157.30 0.03946
1157.40 0.03944
1157.50 0.03943
1157.60 0.03942
1157.70 0.0394
1157.80 0.03939
1157.90 0.03938
1158.00 0.03936
1158.10 0.03935
1158.20 0.03934
1158.30 0.03932
1158.40 0.03931
1158.50 0.0393
1158.60 0.03929
1158.70 0.03927
1158.80 0.03926
1158.90 0.03925
1159.00 0.03923
1159.10 0.03922
1159.20 0.03921
1159.30 0.03919
1159.40 0.03918
1159.50 0.03917
1159.60 0.03915
1159.70 0.03914
1159.80 0.03913
1159.90 0.03911
1160.00 0.0391
1160.10 0.03909
1160.20 0.03907
1160.30 0.03906
1160.40 0.03905
1160.50 0.03903
1160.60 0.03902
1160.70 0.03901
1160.80 0.039
1160.90 0.03898
1161.00 0.03897
1161.10 0.03896
1161.20 0.03894
1161.30 0.03893
1161.40 0.03892
1161.50 0.0389
1161.60 0.03889
1161.70 0.03888
1161.80 0.03886
1161.90 0.03885
1162.00 0.03884
1162.10 0.03883
1162.20 0.03881
1162.30 0.0388
1162.40 0.03879
1162.50 0.03877
1162.60 0.03876
1162.70 0.03875
1162.80 0.03873
1162.90 0.03872
1163.00 0.03871
1163.10 0.0387
1163.20 0.03868
1163.30 0.03867
1163.40 0.03866
1163.50 0.03864
1163.60 0.03863
1163.70 0.03862
1163.80 0.0386
1163.90 0.03859
1164.00 0.03858
1164.10 0.03857
1164.20 0.03855
1164.30 0.03854
1164.40 0.03853
1164.50 0.03851
1164.60 0.0385
1164.70 0.03849
1164.80 0.03848
1164.90 0.03846
1165.00 0.03845
1165.10 0.03844
1165.20 0.03842
1165.30 0.03841
1165.40 0.0384
1165.50 0.03839
1165.60 0.03837
1165.70 0.03836
1165.80 0.03835
1165.90 0.03833
1166.00 0.03832
1166.10 0.03831
1166.20 0.0383
1166.30 0.03828
1166.40 0.03827
1166.50 0.03826
1166.60 0.03824
1166.70 0.03823
1166.80 0.03822
1166.90 0.03821
1167.00 0.03819
1167.10 0.03818
1167.20 0.03817
1167.30 0.03815
1167.40 0.03814
1167.50 0.03813
1167.60 0.03812
1167.70 0.0381
1167.80 0.03809
1167.90 0.03808
1168.00 0.03807
1168.10 0.03805
1168.20 0.03804
1168.30 0.03803
1168.40 0.03801
1168.50 0.038
1168.60 0.03799
1168.70 0.03798
1168.80 0.03796
1168.90 0.03795
1169.00 0.03794
1169.10 0.03793
1169.20 0.03791
1169.30 0.0379
1169.40 0.03789
1169.50 0.03788
1169.60 0.03786
1169.70 0.03785
1169.80 0.03784
1169.90 0.03783
1170.00 0.03781
1170.10 0.0378
1170.20 0.03779
1170.30 0.03777
1170.40 0.03776
1170.50 0.03775
1170.60 0.03774
1170.70 0.03772
1170.80 0.03771
1170.90 0.0377
1171.00 0.03769
1171.10 0.03767
1171.20 0.03766
1171.30 0.03765
1171.40 0.03764
1171.50 0.03762
1171.60 0.03761
1171.70 0.0376
1171.80 0.03759
1171.90 0.03757
1172.00 0.03756
1172.10 0.03755
1172.20 0.03754
1172.30 0.03752
1172.40 0.03751
1172.50 0.0375
1172.60 0.03749
1172.70 0.03747
1172.80 0.03746
1172.90 0.03745
1173.00 0.03744
1173.10 0.03742
1173.20 0.03741
1173.30 0.0374
1173.40 0.03739
1173.50 0.03737
1173.60 0.03736
1173.70 0.03735
1173.80 0.03734
1173.90 0.03732
1174.00 0.03731
1174.10 0.0373
1174.20 0.03729
1174.30 0.03727
1174.40 0.03726
1174.50 0.03725
1174.60 0.03724
1174.70 0.03723
1174.80 0.03721
1174.90 0.0372
1175.00 0.03719
1175.10 0.03718
1175.20 0.03716
1175.30 0.03715
1175.40 0.03714
1175.50 0.03713
1175.60 0.03711
1175.70 0.0371
1175.80 0.03709
1175.90 0.03708
1176.00 0.03706
1176.10 0.03705
1176.20 0.03704
1176.30 0.03703
1176.40 0.03702
1176.50 0.037
1176.60 0.03699
1176.70 0.03698
1176.80 0.03697
1176.90 0.03695
1177.00 0.03694
1177.10 0.03693
1177.20 0.03692
1177.30 0.03691
1177.40 0.03689
1177.50 0.03688
1177.60 0.03687
1177.70 0.03686
1177.80 0.03684
1177.90 0.03683
1178.00 0.03682
1178.10 0.03681
1178.20 0.0368
1178.30 0.03678
1178.40 0.03677
1178.50 0.03676
1178.60 0.03675
1178.70 0.03673
1178.80 0.03672
1178.90 0.03671
1179.00 0.0367
1179.10 0.03669
1179.20 0.03667
1179.30 0.03666
1179.40 0.03665
1179.50 0.03664
1179.60 0.03663
1179.70 0.03661
1179.80 0.0366
1179.90 0.03659
1180.00 0.03658
1180.10 0.03656
1180.20 0.03655
1180.30 0.03654
1180.40 0.03653
1180.50 0.03652
1180.60 0.0365
1180.70 0.03649
1180.80 0.03648
1180.90 0.03647
1181.00 0.03646
1181.10 0.03644
1181.20 0.03643
1181.30 0.03642
1181.40 0.03641
1181.50 0.0364
1181.60 0.03638
1181.70 0.03637
1181.80 0.03636
1181.90 0.03635
1182.00 0.03634
1182.10 0.03632
1182.20 0.03631
1182.30 0.0363
1182.40 0.03629
1182.50 0.03628
1182.60 0.03626
1182.70 0.03625
1182.80 0.03624
1182.90 0.03623
1183.00 0.03622
1183.10 0.0362
1183.20 0.03619
1183.30 0.03618
1183.40 0.03617
1183.50 0.03616
1183.60 0.03614
1183.70 0.03613
1183.80 0.03612
1183.90 0.03611
1184.00 0.0361
1184.10 0.03608
1184.20 0.03607
1184.30 0.03606
1184.40 0.03605
1184.50 0.03604
1184.60 0.03603
1184.70 0.03601
1184.80 0.036
1184.90 0.03599
1185.00 0.03598
1185.10 0.03597
1185.20 0.03595
1185.30 0.03594
1185.40 0.03593
1185.50 0.03592
1185.60 0.03591
1185.70 0.03589
1185.80 0.03588
1185.90 0.03587
1186.00 0.03586
1186.10 0.03585
1186.20 0.03584
1186.30 0.03582
1186.40 0.03581
1186.50 0.0358
1186.60 0.03579
1186.70 0.03578
1186.80 0.03576
1186.90 0.03575
1187.00 0.03574
1187.10 0.03573
1187.20 0.03572
1187.30 0.03571
1187.40 0.03569
1187.50 0.03568
1187.60 0.03567
1187.70 0.03566
1187.80 0.03565
1187.90 0.03564
1188.00 0.03562
1188.10 0.03561
1188.20 0.0356
1188.30 0.03559
1188.40 0.03558
1188.50 0.03557
1188.60 0.03555
1188.70 0.03554
1188.80 0.03553
1188.90 0.03552
1189.00 0.03551
1189.10 0.0355
1189.20 0.03548
1189.30 0.03547
1189.40 0.03546
1189.50 0.03545
1189.60 0.03544
1189.70 0.03543
1189.80 0.03541
1189.90 0.0354
1190.00 0.03539
1190.10 0.03538
1190.20 0.03537
1190.30 0.03536
1190.40 0.03534
1190.50 0.03533
1190.60 0.03532
1190.70 0.03531
1190.80 0.0353
1190.90 0.03529
1191.00 0.03527
1191.10 0.03526
1191.20 0.03525
1191.30 0.03524
1191.40 0.03523
1191.50 0.03522
1191.60 0.03521
1191.70 0.03519
1191.80 0.03518
1191.90 0.03517
1192.00 0.03516
1192.10 0.03515
1192.20 0.03514
1192.30 0.03512
1192.40 0.03511
1192.50 0.0351
1192.60 0.03509
1192.70 0.03508
1192.80 0.03507
1192.90 0.03506
1193.00 0.03504
1193.10 0.03503
1193.20 0.03502
1193.30 0.03501
1193.40 0.035
1193.50 0.03499
1193.60 0.03498
1193.70 0.03496
1193.80 0.03495
1193.90 0.03494
1194.00 0.03493
1194.10 0.03492
1194.20 0.03491
1194.30 0.0349
1194.40 0.03488
1194.50 0.03487
1194.60 0.03486
1194.70 0.03485
1194.80 0.03484
1194.90 0.03483
1195.00 0.03482
1195.10 0.0348
1195.20 0.03479
1195.30 0.03478
1195.40 0.03477
1195.50 0.03476
1195.60 0.03475
1195.70 0.03474
1195.80 0.03472
1195.90 0.03471
1196.00 0.0347
1196.10 0.03469
1196.20 0.03468
1196.30 0.03467
1196.40 0.03466
1196.50 0.03465
1196.60 0.03463
1196.70 0.03462
1196.80 0.03461
1196.90 0.0346
1197.00 0.03459
1197.10 0.03458
1197.20 0.03457
1197.30 0.03455
1197.40 0.03454
1197.50 0.03453
1197.60 0.03452
1197.70 0.03451
1197.80 0.0345
1197.90 0.03449
1198.00 0.03448
1198.10 0.03446
1198.20 0.03445
1198.30 0.03444
1198.40 0.03443
1198.50 0.03442
1198.60 0.03441
1198.70 0.0344
1198.80 0.03439
1198.90 0.03438
1199.00 0.03436
1199.10 0.03435
1199.20 0.03434
1199.30 0.03433
1199.40 0.03432
1199.50 0.03431
1199.60 0.0343
1199.70 0.03429
1199.80 0.03427
1199.90 0.03426
1200.00 0
