# Version 2.1 - nm, norm@500 to 1, cut digits, bergeron_30000_95.dat_30000
# Wavelength(nm)  Flambda(ergs/cm^s/s/nm)
300.00 5.256
300.10 5.25
300.20 5.244
300.30 5.238
300.40 5.232
300.50 5.226
300.60 5.22
300.70 5.214
300.80 5.208
300.90 5.202
301.00 5.196
301.10 5.19
301.20 5.184
301.30 5.178
301.40 5.172
301.50 5.166
301.60 5.16
301.70 5.154
301.80 5.148
301.90 5.143
302.00 5.137
302.10 5.131
302.20 5.125
302.30 5.119
302.40 5.113
302.50 5.108
302.60 5.102
302.70 5.096
302.80 5.09
302.90 5.084
303.00 5.079
303.10 5.073
303.20 5.067
303.30 5.061
303.40 5.055
303.50 5.05
303.60 5.044
303.70 5.038
303.80 5.033
303.90 5.027
304.00 5.021
304.10 5.016
304.20 5.01
304.30 5.004
304.40 4.998
304.50 4.993
304.60 4.987
304.70 4.982
304.80 4.976
304.90 4.97
305.00 4.965
305.10 4.959
305.20 4.953
305.30 4.948
305.40 4.942
305.50 4.937
305.60 4.931
305.70 4.926
305.80 4.92
305.90 4.915
306.00 4.909
306.10 4.903
306.20 4.898
306.30 4.892
306.40 4.887
306.50 4.881
306.60 4.876
306.70 4.87
306.80 4.865
306.90 4.86
307.00 4.854
307.10 4.849
307.20 4.843
307.30 4.838
307.40 4.832
307.50 4.827
307.60 4.821
307.70 4.816
307.80 4.811
307.90 4.805
308.00 4.8
308.10 4.795
308.20 4.789
308.30 4.784
308.40 4.778
308.50 4.773
308.60 4.768
308.70 4.762
308.80 4.757
308.90 4.752
309.00 4.747
309.10 4.741
309.20 4.736
309.30 4.731
309.40 4.725
309.50 4.72
309.60 4.715
309.70 4.71
309.80 4.704
309.90 4.699
310.00 4.694
310.10 4.689
310.20 4.683
310.30 4.678
310.40 4.673
310.50 4.668
310.60 4.663
310.70 4.657
310.80 4.652
310.90 4.647
311.00 4.642
311.10 4.637
311.20 4.632
311.30 4.627
311.40 4.621
311.50 4.616
311.60 4.611
311.70 4.606
311.80 4.601
311.90 4.596
312.00 4.591
312.10 4.586
312.20 4.581
312.30 4.576
312.40 4.571
312.50 4.566
312.60 4.56
312.70 4.555
312.80 4.55
312.90 4.545
313.00 4.54
313.10 4.535
313.20 4.53
313.30 4.525
313.40 4.52
313.50 4.515
313.60 4.51
313.70 4.505
313.80 4.501
313.90 4.496
314.00 4.491
314.10 4.486
314.20 4.481
314.30 4.476
314.40 4.471
314.50 4.466
314.60 4.461
314.70 4.456
314.80 4.451
314.90 4.446
315.00 4.442
315.10 4.437
315.20 4.432
315.30 4.427
315.40 4.422
315.50 4.417
315.60 4.412
315.70 4.408
315.80 4.403
315.90 4.398
316.00 4.393
316.10 4.388
316.20 4.384
316.30 4.379
316.40 4.374
316.50 4.369
316.60 4.364
316.70 4.36
316.80 4.355
316.90 4.35
317.00 4.345
317.10 4.341
317.20 4.336
317.30 4.331
317.40 4.327
317.50 4.322
317.60 4.317
317.70 4.312
317.80 4.308
317.90 4.303
318.00 4.298
318.10 4.294
318.20 4.289
318.30 4.284
318.40 4.28
318.50 4.275
318.60 4.27
318.70 4.266
318.80 4.261
318.90 4.257
319.00 4.252
319.10 4.247
319.20 4.243
319.30 4.238
319.40 4.234
319.50 4.229
319.60 4.224
319.70 4.22
319.80 4.215
319.90 4.211
320.00 4.206
320.10 4.202
320.20 4.197
320.30 4.193
320.40 4.188
320.50 4.183
320.60 4.179
320.70 4.174
320.80 4.17
320.90 4.165
321.00 4.161
321.10 4.156
321.20 4.152
321.30 4.148
321.40 4.143
321.50 4.139
321.60 4.134
321.70 4.13
321.80 4.125
321.90 4.121
322.00 4.116
322.10 4.112
322.20 4.108
322.30 4.103
322.40 4.099
322.50 4.094
322.60 4.09
322.70 4.086
322.80 4.081
322.90 4.077
323.00 4.072
323.10 4.068
323.20 4.064
323.30 4.059
323.40 4.055
323.50 4.051
323.60 4.046
323.70 4.042
323.80 4.038
323.90 4.033
324.00 4.029
324.10 4.025
324.20 4.02
324.30 4.016
324.40 4.012
324.50 4.008
324.60 4.003
324.70 3.999
324.80 3.995
324.90 3.991
325.00 3.986
325.10 3.982
325.20 3.978
325.30 3.974
325.40 3.969
325.50 3.965
325.60 3.961
325.70 3.957
325.80 3.952
325.90 3.948
326.00 3.944
326.10 3.94
326.20 3.936
326.30 3.932
326.40 3.927
326.50 3.923
326.60 3.919
326.70 3.915
326.80 3.911
326.90 3.907
327.00 3.902
327.10 3.898
327.20 3.894
327.30 3.89
327.40 3.886
327.50 3.882
327.60 3.878
327.70 3.874
327.80 3.87
327.90 3.865
328.00 3.861
328.10 3.857
328.20 3.853
328.30 3.849
328.40 3.845
328.50 3.841
328.60 3.837
328.70 3.833
328.80 3.829
328.90 3.825
329.00 3.821
329.10 3.817
329.20 3.813
329.30 3.809
329.40 3.805
329.50 3.801
329.60 3.797
329.70 3.793
329.80 3.789
329.90 3.785
330.00 3.781
330.10 3.777
330.20 3.773
330.30 3.769
330.40 3.765
330.50 3.761
330.60 3.757
330.70 3.753
330.80 3.749
330.90 3.745
331.00 3.741
331.10 3.737
331.20 3.734
331.30 3.73
331.40 3.726
331.50 3.722
331.60 3.718
331.70 3.714
331.80 3.71
331.90 3.706
332.00 3.702
332.10 3.699
332.20 3.695
332.30 3.691
332.40 3.687
332.50 3.683
332.60 3.679
332.70 3.675
332.80 3.672
332.90 3.668
333.00 3.664
333.10 3.66
333.20 3.656
333.30 3.653
333.40 3.649
333.50 3.645
333.60 3.641
333.70 3.637
333.80 3.634
333.90 3.63
334.00 3.626
334.10 3.622
334.20 3.618
334.30 3.615
334.40 3.611
334.50 3.607
334.60 3.604
334.70 3.6
334.80 3.596
334.90 3.592
335.00 3.589
335.10 3.585
335.20 3.581
335.30 3.577
335.40 3.574
335.50 3.57
335.60 3.566
335.70 3.563
335.80 3.559
335.90 3.555
336.00 3.552
336.10 3.548
336.20 3.544
336.30 3.541
336.40 3.537
336.50 3.533
336.60 3.53
336.70 3.526
336.80 3.522
336.90 3.519
337.00 3.515
337.10 3.512
337.20 3.508
337.30 3.504
337.40 3.501
337.50 3.497
337.60 3.494
337.70 3.49
337.80 3.486
337.90 3.483
338.00 3.479
338.10 3.476
338.20 3.472
338.30 3.468
338.40 3.465
338.50 3.461
338.60 3.458
338.70 3.454
338.80 3.451
338.90 3.447
339.00 3.444
339.10 3.44
339.20 3.437
339.30 3.433
339.40 3.43
339.50 3.426
339.60 3.423
339.70 3.419
339.80 3.416
339.90 3.412
340.00 3.409
340.10 3.405
340.20 3.402
340.30 3.398
340.40 3.395
340.50 3.391
340.60 3.388
340.70 3.384
340.80 3.381
340.90 3.377
341.00 3.374
341.10 3.37
341.20 3.367
341.30 3.364
341.40 3.36
341.50 3.357
341.60 3.353
341.70 3.35
341.80 3.347
341.90 3.343
342.00 3.34
342.10 3.336
342.20 3.333
342.30 3.33
342.40 3.326
342.50 3.323
342.60 3.319
342.70 3.316
342.80 3.313
342.90 3.309
343.00 3.306
343.10 3.303
343.20 3.299
343.30 3.296
343.40 3.293
343.50 3.289
343.60 3.286
343.70 3.283
343.80 3.279
343.90 3.276
344.00 3.273
344.10 3.269
344.20 3.266
344.30 3.263
344.40 3.259
344.50 3.256
344.60 3.253
344.70 3.25
344.80 3.246
344.90 3.243
345.00 3.24
345.10 3.236
345.20 3.233
345.30 3.23
345.40 3.227
345.50 3.223
345.60 3.22
345.70 3.217
345.80 3.214
345.90 3.21
346.00 3.207
346.10 3.204
346.20 3.201
346.30 3.198
346.40 3.194
346.50 3.191
346.60 3.188
346.70 3.185
346.80 3.182
346.90 3.178
347.00 3.175
347.10 3.172
347.20 3.169
347.30 3.166
347.40 3.162
347.50 3.159
347.60 3.156
347.70 3.153
347.80 3.15
347.90 3.147
348.00 3.144
348.10 3.14
348.20 3.137
348.30 3.134
348.40 3.131
348.50 3.128
348.60 3.125
348.70 3.122
348.80 3.119
348.90 3.115
349.00 3.112
349.10 3.109
349.20 3.106
349.30 3.103
349.40 3.1
349.50 3.097
349.60 3.094
349.70 3.091
349.80 3.088
349.90 3.084
350.00 3.081
350.10 3.078
350.20 3.075
350.30 3.072
350.40 3.069
350.50 3.066
350.60 3.063
350.70 3.06
350.80 3.057
350.90 3.054
351.00 3.051
351.10 3.048
351.20 3.045
351.30 3.042
351.40 3.039
351.50 3.036
351.60 3.033
351.70 3.03
351.80 3.027
351.90 3.024
352.00 3.021
352.10 3.018
352.20 3.015
352.30 3.012
352.40 3.009
352.50 3.006
352.60 3.003
352.70 3
352.80 2.997
352.90 2.994
353.00 2.991
353.10 2.988
353.20 2.985
353.30 2.982
353.40 2.979
353.50 2.976
353.60 2.973
353.70 2.97
353.80 2.968
353.90 2.965
354.00 2.962
354.10 2.959
354.20 2.956
354.30 2.953
354.40 2.95
354.50 2.947
354.60 2.944
354.70 2.941
354.80 2.938
354.90 2.936
355.00 2.933
355.10 2.93
355.20 2.927
355.30 2.924
355.40 2.921
355.50 2.918
355.60 2.915
355.70 2.913
355.80 2.91
355.90 2.907
356.00 2.904
356.10 2.901
356.20 2.898
356.30 2.896
356.40 2.893
356.50 2.89
356.60 2.887
356.70 2.884
356.80 2.881
356.90 2.879
357.00 2.876
357.10 2.873
357.20 2.87
357.30 2.867
357.40 2.865
357.50 2.862
357.60 2.859
357.70 2.856
357.80 2.853
357.90 2.851
358.00 2.848
358.10 2.845
358.20 2.842
358.30 2.84
358.40 2.837
358.50 2.834
358.60 2.831
358.70 2.828
358.80 2.826
358.90 2.823
359.00 2.82
359.10 2.817
359.20 2.815
359.30 2.812
359.40 2.809
359.50 2.807
359.60 2.804
359.70 2.801
359.80 2.798
359.90 2.796
360.00 2.793
360.10 2.79
360.20 2.788
360.30 2.785
360.40 2.782
360.50 2.779
360.60 2.777
360.70 2.774
360.80 2.771
360.90 2.769
361.00 2.766
361.10 2.763
361.20 2.761
361.30 2.758
361.40 2.755
361.50 2.753
361.60 2.75
361.70 2.747
361.80 2.745
361.90 2.742
362.00 2.739
362.10 2.737
362.20 2.734
362.30 2.731
362.40 2.729
362.50 2.726
362.60 2.724
362.70 2.721
362.80 2.718
362.90 2.716
363.00 2.713
363.10 2.711
363.20 2.708
363.30 2.705
363.40 2.703
363.50 2.7
363.60 2.698
363.70 2.695
363.80 2.692
363.90 2.69
364.00 2.687
364.10 2.685
364.20 2.682
364.30 2.679
364.40 2.677
364.50 2.674
364.60 2.672
364.70 2.669
364.80 2.667
364.90 2.664
365.00 2.662
365.10 2.659
365.20 2.656
365.30 2.654
365.40 2.651
365.50 2.649
365.60 2.646
365.70 2.644
365.80 2.641
365.90 2.639
366.00 2.636
366.10 2.634
366.20 2.631
366.30 2.628
366.40 2.626
366.50 2.623
366.60 2.621
366.70 2.618
366.80 2.615
366.90 2.613
367.00 2.61
367.10 2.608
367.20 2.605
367.30 2.602
367.40 2.6
367.50 2.597
367.60 2.595
367.70 2.592
367.80 2.59
367.90 2.587
368.00 2.584
368.10 2.582
368.20 2.579
368.30 2.576
368.40 2.574
368.50 2.571
368.60 2.568
368.70 2.565
368.80 2.563
368.90 2.56
369.00 2.557
369.10 2.554
369.20 2.552
369.30 2.549
369.40 2.546
369.50 2.544
369.60 2.541
369.70 2.538
369.80 2.536
369.90 2.533
370.00 2.53
370.10 2.527
370.20 2.525
370.30 2.522
370.40 2.52
370.50 2.517
370.60 2.514
370.70 2.512
370.80 2.509
370.90 2.506
371.00 2.504
371.10 2.501
371.20 2.499
371.30 2.496
371.40 2.493
371.50 2.491
371.60 2.488
371.70 2.486
371.80 2.483
371.90 2.48
372.00 2.478
372.10 2.475
372.20 2.473
372.30 2.471
372.40 2.469
372.50 2.466
372.60 2.464
372.70 2.462
372.80 2.46
372.90 2.457
373.00 2.455
373.10 2.453
373.20 2.45
373.30 2.448
373.40 2.446
373.50 2.444
373.60 2.441
373.70 2.439
373.80 2.437
373.90 2.435
374.00 2.432
374.10 2.43
374.20 2.427
374.30 2.425
374.40 2.422
374.50 2.42
374.60 2.417
374.70 2.415
374.80 2.412
374.90 2.41
375.00 2.408
375.10 2.405
375.20 2.403
375.30 2.4
375.40 2.398
375.50 2.395
375.60 2.393
375.70 2.39
375.80 2.388
375.90 2.385
376.00 2.383
376.10 2.38
376.20 2.378
376.30 2.376
376.40 2.373
376.50 2.371
376.60 2.368
376.70 2.366
376.80 2.364
376.90 2.361
377.00 2.359
377.10 2.357
377.20 2.354
377.30 2.352
377.40 2.35
377.50 2.348
377.60 2.345
377.70 2.343
377.80 2.341
377.90 2.339
378.00 2.336
378.10 2.334
378.20 2.332
378.30 2.33
378.40 2.328
378.50 2.325
378.60 2.323
378.70 2.321
378.80 2.319
378.90 2.317
379.00 2.314
379.10 2.312
379.20 2.31
379.30 2.308
379.40 2.306
379.50 2.304
379.60 2.301
379.70 2.299
379.80 2.297
379.90 2.295
380.00 2.293
380.10 2.291
380.20 2.289
380.30 2.287
380.40 2.285
380.50 2.283
380.60 2.281
380.70 2.279
380.80 2.277
380.90 2.275
381.00 2.273
381.10 2.271
381.20 2.269
381.30 2.267
381.40 2.265
381.50 2.263
381.60 2.261
381.70 2.259
381.80 2.257
381.90 2.255
382.00 2.253
382.10 2.251
382.20 2.249
382.30 2.247
382.40 2.245
382.50 2.243
382.60 2.241
382.70 2.238
382.80 2.236
382.90 2.234
383.00 2.232
383.10 2.23
383.20 2.228
383.30 2.226
383.40 2.224
383.50 2.223
383.60 2.221
383.70 2.219
383.80 2.217
383.90 2.216
384.00 2.214
384.10 2.213
384.20 2.211
384.30 2.21
384.40 2.208
384.50 2.206
384.60 2.205
384.70 2.203
384.80 2.202
384.90 2.2
385.00 2.198
385.10 2.197
385.20 2.195
385.30 2.193
385.40 2.192
385.50 2.19
385.60 2.188
385.70 2.186
385.80 2.185
385.90 2.183
386.00 2.181
386.10 2.179
386.20 2.177
386.30 2.175
386.40 2.174
386.50 2.172
386.60 2.17
386.70 2.168
386.80 2.166
386.90 2.164
387.00 2.162
387.10 2.16
387.20 2.158
387.30 2.155
387.40 2.153
387.50 2.151
387.60 2.149
387.70 2.147
387.80 2.145
387.90 2.143
388.00 2.141
388.10 2.139
388.20 2.136
388.30 2.134
388.40 2.132
388.50 2.13
388.60 2.128
388.70 2.127
388.80 2.125
388.90 2.123
389.00 2.122
389.10 2.121
389.20 2.12
389.30 2.119
389.40 2.118
389.50 2.117
389.60 2.116
389.70 2.116
389.80 2.115
389.90 2.114
390.00 2.113
390.10 2.113
390.20 2.112
390.30 2.111
390.40 2.11
390.50 2.109
390.60 2.108
390.70 2.107
390.80 2.106
390.90 2.105
391.00 2.104
391.10 2.103
391.20 2.102
391.30 2.101
391.40 2.1
391.50 2.098
391.60 2.097
391.70 2.096
391.80 2.094
391.90 2.093
392.00 2.091
392.10 2.09
392.20 2.088
392.30 2.086
392.40 2.084
392.50 2.083
392.60 2.081
392.70 2.079
392.80 2.077
392.90 2.075
393.00 2.073
393.10 2.07
393.20 2.068
393.30 2.066
393.40 2.064
393.50 2.061
393.60 2.059
393.70 2.056
393.80 2.053
393.90 2.051
394.00 2.048
394.10 2.045
394.20 2.042
394.30 2.039
394.40 2.036
394.50 2.033
394.60 2.03
394.70 2.027
394.80 2.024
394.90 2.02
395.00 2.017
395.10 2.014
395.20 2.01
395.30 2.007
395.40 2.003
395.50 1.999
395.60 1.996
395.70 1.992
395.80 1.988
395.90 1.984
396.00 1.981
396.10 1.977
396.20 1.973
396.30 1.969
396.40 1.965
396.50 1.961
396.60 1.958
396.70 1.954
396.80 1.951
396.90 1.947
397.00 1.944
397.10 1.945
397.20 1.946
397.30 1.947
397.40 1.948
397.50 1.95
397.60 1.951
397.70 1.953
397.80 1.954
397.90 1.956
398.00 1.958
398.10 1.959
398.20 1.961
398.30 1.962
398.40 1.964
398.50 1.965
398.60 1.966
398.70 1.968
398.80 1.969
398.90 1.97
399.00 1.971
399.10 1.972
399.20 1.973
399.30 1.974
399.40 1.975
399.50 1.976
399.60 1.977
399.70 1.977
399.80 1.978
399.90 1.978
400.00 1.979
400.10 1.979
400.20 1.979
400.30 1.979
400.40 1.98
400.50 1.98
400.60 1.98
400.70 1.98
400.80 1.979
400.90 1.979
401.00 1.979
401.10 1.978
401.20 1.978
401.30 1.977
401.40 1.977
401.50 1.976
401.60 1.975
401.70 1.974
401.80 1.973
401.90 1.972
402.00 1.971
402.10 1.97
402.20 1.969
402.30 1.968
402.40 1.966
402.50 1.965
402.60 1.963
402.70 1.961
402.80 1.96
402.90 1.958
403.00 1.956
403.10 1.954
403.20 1.952
403.30 1.95
403.40 1.948
403.50 1.945
403.60 1.943
403.70 1.94
403.80 1.938
403.90 1.935
404.00 1.932
404.10 1.93
404.20 1.927
404.30 1.924
404.40 1.921
404.50 1.917
404.60 1.914
404.70 1.911
404.80 1.907
404.90 1.904
405.00 1.9
405.10 1.896
405.20 1.892
405.30 1.889
405.40 1.884
405.50 1.88
405.60 1.876
405.70 1.872
405.80 1.867
405.90 1.863
406.00 1.858
406.10 1.853
406.20 1.848
406.30 1.844
406.40 1.838
406.50 1.833
406.60 1.828
406.70 1.823
406.80 1.817
406.90 1.811
407.00 1.806
407.10 1.8
407.20 1.794
407.30 1.788
407.40 1.782
407.50 1.775
407.60 1.769
407.70 1.763
407.80 1.756
407.90 1.749
408.00 1.743
408.10 1.736
408.20 1.729
408.30 1.722
408.40 1.715
408.50 1.707
408.60 1.7
408.70 1.693
408.80 1.685
408.90 1.678
409.00 1.671
409.10 1.664
409.20 1.656
409.30 1.649
409.40 1.642
409.50 1.636
409.60 1.629
409.70 1.624
409.80 1.619
409.90 1.614
410.00 1.612
410.10 1.611
410.20 1.611
410.30 1.609
410.40 1.609
410.50 1.61
410.60 1.612
410.70 1.615
410.80 1.619
410.90 1.624
411.00 1.628
411.10 1.633
411.20 1.638
411.30 1.643
411.40 1.648
411.50 1.653
411.60 1.658
411.70 1.663
411.80 1.668
411.90 1.673
412.00 1.678
412.10 1.683
412.20 1.687
412.30 1.692
412.40 1.697
412.50 1.701
412.60 1.705
412.70 1.71
412.80 1.714
412.90 1.718
413.00 1.722
413.10 1.726
413.20 1.729
413.30 1.733
413.40 1.736
413.50 1.74
413.60 1.743
413.70 1.746
413.80 1.75
413.90 1.753
414.00 1.756
414.10 1.758
414.20 1.761
414.30 1.764
414.40 1.766
414.50 1.769
414.60 1.771
414.70 1.773
414.80 1.776
414.90 1.778
415.00 1.78
415.10 1.782
415.20 1.784
415.30 1.786
415.40 1.787
415.50 1.789
415.60 1.791
415.70 1.792
415.80 1.793
415.90 1.795
416.00 1.796
416.10 1.797
416.20 1.798
416.30 1.8
416.40 1.801
416.50 1.801
416.60 1.802
416.70 1.803
416.80 1.804
416.90 1.805
417.00 1.805
417.10 1.806
417.20 1.806
417.30 1.807
417.40 1.807
417.50 1.808
417.60 1.808
417.70 1.808
417.80 1.808
417.90 1.808
418.00 1.808
418.10 1.808
418.20 1.808
418.30 1.808
418.40 1.808
418.50 1.808
418.60 1.808
418.70 1.808
418.80 1.807
418.90 1.807
419.00 1.806
419.10 1.806
419.20 1.805
419.30 1.805
419.40 1.804
419.50 1.804
419.60 1.803
419.70 1.802
419.80 1.802
419.90 1.801
420.00 1.8
420.10 1.799
420.20 1.798
420.30 1.797
420.40 1.796
420.50 1.795
420.60 1.794
420.70 1.793
420.80 1.792
420.90 1.79
421.00 1.789
421.10 1.788
421.20 1.786
421.30 1.785
421.40 1.784
421.50 1.782
421.60 1.781
421.70 1.779
421.80 1.778
421.90 1.776
422.00 1.774
422.10 1.773
422.20 1.771
422.30 1.769
422.40 1.767
422.50 1.765
422.60 1.764
422.70 1.762
422.80 1.76
422.90 1.758
423.00 1.756
423.10 1.753
423.20 1.751
423.30 1.749
423.40 1.747
423.50 1.745
423.60 1.742
423.70 1.74
423.80 1.738
423.90 1.735
424.00 1.733
424.10 1.73
424.20 1.727
424.30 1.725
424.40 1.722
424.50 1.719
424.60 1.717
424.70 1.714
424.80 1.711
424.90 1.708
425.00 1.705
425.10 1.702
425.20 1.699
425.30 1.696
425.40 1.693
425.50 1.689
425.60 1.686
425.70 1.683
425.80 1.679
425.90 1.676
426.00 1.673
426.10 1.669
426.20 1.665
426.30 1.662
426.40 1.658
426.50 1.654
426.60 1.65
426.70 1.646
426.80 1.642
426.90 1.638
427.00 1.634
427.10 1.63
427.20 1.626
427.30 1.621
427.40 1.617
427.50 1.612
427.60 1.608
427.70 1.603
427.80 1.599
427.90 1.594
428.00 1.589
428.10 1.584
428.20 1.579
428.30 1.574
428.40 1.569
428.50 1.564
428.60 1.558
428.70 1.553
428.80 1.548
428.90 1.542
429.00 1.536
429.10 1.531
429.20 1.525
429.30 1.519
429.40 1.513
429.50 1.507
429.60 1.501
429.70 1.495
429.80 1.488
429.90 1.482
430.00 1.475
430.10 1.468
430.20 1.462
430.30 1.455
430.40 1.448
430.50 1.441
430.60 1.434
430.70 1.426
430.80 1.419
430.90 1.411
431.00 1.404
431.10 1.396
431.20 1.388
431.30 1.38
431.40 1.372
431.50 1.364
431.60 1.356
431.70 1.347
431.80 1.338
431.90 1.33
432.00 1.321
432.10 1.312
432.20 1.303
432.30 1.293
432.40 1.284
432.50 1.274
432.60 1.264
432.70 1.255
432.80 1.244
432.90 1.234
433.00 1.224
433.10 1.213
433.20 1.203
433.30 1.192
433.40 1.18
433.50 1.169
433.60 1.157
433.70 1.144
433.80 1.129
433.90 1.113
434.00 1.094
434.10 1.094
434.20 1.112
434.30 1.126
434.40 1.139
434.50 1.151
434.60 1.161
434.70 1.171
434.80 1.18
434.90 1.19
435.00 1.199
435.10 1.207
435.20 1.216
435.30 1.224
435.40 1.232
435.50 1.24
435.60 1.248
435.70 1.256
435.80 1.263
435.90 1.27
436.00 1.278
436.10 1.285
436.20 1.291
436.30 1.298
436.40 1.304
436.50 1.311
436.60 1.317
436.70 1.323
436.80 1.329
436.90 1.335
437.00 1.341
437.10 1.346
437.20 1.351
437.30 1.357
437.40 1.362
437.50 1.367
437.60 1.372
437.70 1.377
437.80 1.381
437.90 1.386
438.00 1.39
438.10 1.395
438.20 1.399
438.30 1.403
438.40 1.407
438.50 1.411
438.60 1.415
438.70 1.418
438.80 1.422
438.90 1.426
439.00 1.429
439.10 1.432
439.20 1.436
439.30 1.439
439.40 1.442
439.50 1.445
439.60 1.448
439.70 1.451
439.80 1.453
439.90 1.456
440.00 1.459
440.10 1.461
440.20 1.464
440.30 1.466
440.40 1.468
440.50 1.471
440.60 1.473
440.70 1.475
440.80 1.477
440.90 1.479
441.00 1.481
441.10 1.482
441.20 1.484
441.30 1.486
441.40 1.488
441.50 1.489
441.60 1.491
441.70 1.492
441.80 1.493
441.90 1.495
442.00 1.496
442.10 1.497
442.20 1.498
442.30 1.5
442.40 1.501
442.50 1.502
442.60 1.503
442.70 1.504
442.80 1.505
442.90 1.505
443.00 1.506
443.10 1.507
443.20 1.508
443.30 1.508
443.40 1.509
443.50 1.51
443.60 1.51
443.70 1.511
443.80 1.511
443.90 1.512
444.00 1.512
444.10 1.512
444.20 1.513
444.30 1.513
444.40 1.513
444.50 1.514
444.60 1.514
444.70 1.514
444.80 1.514
444.90 1.514
445.00 1.514
445.10 1.514
445.20 1.514
445.30 1.514
445.40 1.514
445.50 1.514
445.60 1.514
445.70 1.514
445.80 1.514
445.90 1.514
446.00 1.514
446.10 1.514
446.20 1.513
446.30 1.513
446.40 1.513
446.50 1.513
446.60 1.512
446.70 1.512
446.80 1.512
446.90 1.511
447.00 1.511
447.10 1.511
447.20 1.51
447.30 1.51
447.40 1.509
447.50 1.509
447.60 1.509
447.70 1.508
447.80 1.508
447.90 1.507
448.00 1.507
448.10 1.506
448.20 1.505
448.30 1.505
448.40 1.504
448.50 1.504
448.60 1.503
448.70 1.503
448.80 1.502
448.90 1.501
449.00 1.501
449.10 1.5
449.20 1.499
449.30 1.499
449.40 1.498
449.50 1.497
449.60 1.496
449.70 1.496
449.80 1.495
449.90 1.494
450.00 1.493
450.10 1.493
450.20 1.492
450.30 1.491
450.40 1.49
450.50 1.49
450.60 1.489
450.70 1.488
450.80 1.487
450.90 1.486
451.00 1.485
451.10 1.485
451.20 1.484
451.30 1.483
451.40 1.482
451.50 1.481
451.60 1.48
451.70 1.479
451.80 1.478
451.90 1.478
452.00 1.477
452.10 1.476
452.20 1.475
452.30 1.474
452.40 1.473
452.50 1.472
452.60 1.471
452.70 1.47
452.80 1.469
452.90 1.468
453.00 1.467
453.10 1.466
453.20 1.465
453.30 1.464
453.40 1.463
453.50 1.462
453.60 1.461
453.70 1.46
453.80 1.459
453.90 1.458
454.00 1.457
454.10 1.456
454.20 1.455
454.30 1.454
454.40 1.453
454.50 1.452
454.60 1.451
454.70 1.45
454.80 1.449
454.90 1.448
455.00 1.447
455.10 1.446
455.20 1.445
455.30 1.444
455.40 1.443
455.50 1.442
455.60 1.441
455.70 1.44
455.80 1.439
455.90 1.437
456.00 1.436
456.10 1.435
456.20 1.434
456.30 1.433
456.40 1.432
456.50 1.431
456.60 1.43
456.70 1.429
456.80 1.428
456.90 1.427
457.00 1.425
457.10 1.424
457.20 1.423
457.30 1.422
457.40 1.421
457.50 1.42
457.60 1.419
457.70 1.418
457.80 1.417
457.90 1.415
458.00 1.414
458.10 1.413
458.20 1.412
458.30 1.411
458.40 1.41
458.50 1.409
458.60 1.407
458.70 1.406
458.80 1.405
458.90 1.404
459.00 1.403
459.10 1.402
459.20 1.401
459.30 1.399
459.40 1.398
459.50 1.397
459.60 1.396
459.70 1.395
459.80 1.394
459.90 1.392
460.00 1.391
460.10 1.39
460.20 1.389
460.30 1.388
460.40 1.387
460.50 1.385
460.60 1.384
460.70 1.383
460.80 1.382
460.90 1.381
461.00 1.379
461.10 1.378
461.20 1.377
461.30 1.376
461.40 1.375
461.50 1.373
461.60 1.372
461.70 1.371
461.80 1.37
461.90 1.369
462.00 1.367
462.10 1.366
462.20 1.365
462.30 1.364
462.40 1.362
462.50 1.361
462.60 1.36
462.70 1.359
462.80 1.358
462.90 1.356
463.00 1.355
463.10 1.354
463.20 1.353
463.30 1.351
463.40 1.35
463.50 1.349
463.60 1.348
463.70 1.346
463.80 1.345
463.90 1.344
464.00 1.343
464.10 1.341
464.20 1.34
464.30 1.339
464.40 1.338
464.50 1.336
464.60 1.335
464.70 1.334
464.80 1.332
464.90 1.331
465.00 1.33
465.10 1.329
465.20 1.327
465.30 1.326
465.40 1.325
465.50 1.323
465.60 1.322
465.70 1.321
465.80 1.319
465.90 1.318
466.00 1.317
466.10 1.316
466.20 1.314
466.30 1.313
466.40 1.312
466.50 1.31
466.60 1.309
466.70 1.308
466.80 1.306
466.90 1.305
467.00 1.303
467.10 1.302
467.20 1.301
467.30 1.299
467.40 1.298
467.50 1.297
467.60 1.295
467.70 1.294
467.80 1.293
467.90 1.291
468.00 1.29
468.10 1.288
468.20 1.287
468.30 1.286
468.40 1.284
468.50 1.283
468.60 1.281
468.70 1.28
468.80 1.278
468.90 1.277
469.00 1.276
469.10 1.274
469.20 1.273
469.30 1.271
469.40 1.27
469.50 1.268
469.60 1.267
469.70 1.265
469.80 1.264
469.90 1.262
470.00 1.261
470.10 1.259
470.20 1.258
470.30 1.256
470.40 1.255
470.50 1.253
470.60 1.252
470.70 1.25
470.80 1.248
470.90 1.247
471.00 1.245
471.10 1.244
471.20 1.242
471.30 1.24
471.40 1.239
471.50 1.237
471.60 1.236
471.70 1.234
471.80 1.232
471.90 1.231
472.00 1.229
472.10 1.227
472.20 1.226
472.30 1.224
472.40 1.222
472.50 1.22
472.60 1.219
472.70 1.217
472.80 1.215
472.90 1.214
473.00 1.212
473.10 1.21
473.20 1.208
473.30 1.206
473.40 1.205
473.50 1.203
473.60 1.201
473.70 1.199
473.80 1.197
473.90 1.195
474.00 1.193
474.10 1.192
474.20 1.19
474.30 1.188
474.40 1.186
474.50 1.184
474.60 1.182
474.70 1.18
474.80 1.178
474.90 1.176
475.00 1.174
475.10 1.172
475.20 1.169
475.30 1.167
475.40 1.165
475.50 1.163
475.60 1.161
475.70 1.159
475.80 1.156
475.90 1.154
476.00 1.152
476.10 1.15
476.20 1.148
476.30 1.145
476.40 1.143
476.50 1.14
476.60 1.138
476.70 1.136
476.80 1.133
476.90 1.131
477.00 1.128
477.10 1.126
477.20 1.124
477.30 1.121
477.40 1.118
477.50 1.116
477.60 1.113
477.70 1.11
477.80 1.108
477.90 1.105
478.00 1.102
478.10 1.1
478.20 1.097
478.30 1.094
478.40 1.091
478.50 1.088
478.60 1.085
478.70 1.082
478.80 1.079
478.90 1.076
479.00 1.073
479.10 1.07
479.20 1.067
479.30 1.064
479.40 1.061
479.50 1.057
479.60 1.054
479.70 1.051
479.80 1.047
479.90 1.044
480.00 1.041
480.10 1.037
480.20 1.034
480.30 1.03
480.40 1.026
480.50 1.022
480.60 1.019
480.70 1.015
480.80 1.011
480.90 1.007
481.00 1.004
481.10 0.9999
481.20 0.9958
481.30 0.9914
481.40 0.9871
481.50 0.9828
481.60 0.9785
481.70 0.9742
481.80 0.9699
481.90 0.9656
482.00 0.9613
482.10 0.957
482.20 0.9522
482.30 0.9471
482.40 0.9421
482.50 0.9371
482.60 0.9321
482.70 0.9271
482.80 0.922
482.90 0.917
483.00 0.912
483.10 0.907
483.20 0.9013
483.30 0.8953
483.40 0.8893
483.50 0.8833
483.60 0.8773
483.70 0.8713
483.80 0.8653
483.90 0.8593
484.00 0.8533
484.10 0.8473
484.20 0.8406
484.30 0.8335
484.40 0.8265
484.50 0.8194
484.60 0.8123
484.70 0.8046
484.80 0.7965
484.90 0.7884
485.00 0.7803
485.10 0.7722
485.20 0.7634
485.30 0.7543
485.40 0.7448
485.50 0.735
485.60 0.7249
485.70 0.7145
485.80 0.7045
485.90 0.6946
486.00 0.6884
486.10 0.7038
486.20 0.693
486.30 0.688
486.40 0.6958
486.50 0.7046
486.60 0.7138
486.70 0.7232
486.80 0.7322
486.90 0.7408
487.00 0.7491
487.10 0.757
487.20 0.7643
487.30 0.7713
487.40 0.7783
487.50 0.7852
487.60 0.7922
487.70 0.7984
487.80 0.8042
487.90 0.8101
488.00 0.8159
488.10 0.8217
488.20 0.8267
488.30 0.8314
488.40 0.8361
488.50 0.8407
488.60 0.8454
488.70 0.85
488.80 0.8547
488.90 0.8593
489.00 0.864
489.10 0.8686
489.20 0.8725
489.30 0.8761
489.40 0.8796
489.50 0.8832
489.60 0.8867
489.70 0.8903
489.80 0.8938
489.90 0.8974
490.00 0.9009
490.10 0.9045
490.20 0.9075
490.30 0.9102
490.40 0.913
490.50 0.9157
490.60 0.9185
490.70 0.9212
490.80 0.924
490.90 0.9267
491.00 0.9295
491.10 0.9322
491.20 0.9345
491.30 0.9366
491.40 0.9388
491.50 0.9409
491.60 0.943
491.70 0.9451
491.80 0.9472
491.90 0.9494
492.00 0.9515
492.10 0.9536
492.20 0.9554
492.30 0.957
492.40 0.9586
492.50 0.9602
492.60 0.9618
492.70 0.9634
492.80 0.965
492.90 0.9666
493.00 0.9682
493.10 0.9698
493.20 0.9712
493.30 0.9723
493.40 0.9735
493.50 0.9747
493.60 0.9759
493.70 0.9771
493.80 0.9783
493.90 0.9795
494.00 0.9807
494.10 0.9819
494.20 0.9828
494.30 0.9837
494.40 0.9845
494.50 0.9854
494.60 0.9862
494.70 0.9871
494.80 0.9879
494.90 0.9887
495.00 0.9896
495.10 0.9904
495.20 0.9911
495.30 0.9917
495.40 0.9922
495.50 0.9928
495.60 0.9933
495.70 0.9939
495.80 0.9945
495.90 0.995
496.00 0.9956
496.10 0.9962
496.20 0.9966
496.30 0.9969
496.40 0.9972
496.50 0.9976
496.60 0.9979
496.70 0.9982
496.80 0.9986
496.90 0.9989
497.00 0.9993
497.10 0.9996
497.20 0.9998
497.30 0.9999
497.40 1
497.50 1
497.60 1
497.70 1.001
497.80 1.001
497.90 1.001
498.00 1.001
498.10 1.001
498.20 1.001
498.30 1.001
498.40 1.001
498.50 1.001
498.60 1.001
498.70 1.001
498.80 1.001
498.90 1.001
499.00 1.001
499.10 1.001
499.20 1.001
499.30 1.001
499.40 1.001
499.50 1.001
499.60 1.001
499.70 1
499.80 1
499.90 1
500.00 1
500.10 0.9999
500.20 0.9997
500.30 0.9994
500.40 0.9992
500.50 0.999
500.60 0.9988
500.70 0.9985
500.80 0.9983
500.90 0.9981
501.00 0.9978
501.10 0.9976
501.20 0.9973
501.30 0.997
501.40 0.9967
501.50 0.9964
501.60 0.9961
501.70 0.9958
501.80 0.9955
501.90 0.9952
502.00 0.9949
502.10 0.9946
502.20 0.9942
502.30 0.9938
502.40 0.9935
502.50 0.9931
502.60 0.9927
502.70 0.9923
502.80 0.992
502.90 0.9916
503.00 0.9912
503.10 0.9908
503.20 0.9904
503.30 0.99
503.40 0.9896
503.50 0.9891
503.60 0.9887
503.70 0.9883
503.80 0.9879
503.90 0.9874
504.00 0.987
504.10 0.9866
504.20 0.9861
504.30 0.9857
504.40 0.9852
504.50 0.9847
504.60 0.9843
504.70 0.9838
504.80 0.9833
504.90 0.9828
505.00 0.9824
505.10 0.9819
505.20 0.9814
505.30 0.9809
505.40 0.9804
505.50 0.9799
505.60 0.9794
505.70 0.9789
505.80 0.9784
505.90 0.9779
506.00 0.9774
506.10 0.9769
506.20 0.9764
506.30 0.9758
506.40 0.9753
506.50 0.9748
506.60 0.9742
506.70 0.9737
506.80 0.9732
506.90 0.9727
507.00 0.9721
507.10 0.9716
507.20 0.9711
507.30 0.9705
507.40 0.9699
507.50 0.9694
507.60 0.9688
507.70 0.9683
507.80 0.9677
507.90 0.9672
508.00 0.9666
508.10 0.9661
508.20 0.9655
508.30 0.965
508.40 0.9644
508.50 0.9638
508.60 0.9632
508.70 0.9627
508.80 0.9621
508.90 0.9615
509.00 0.961
509.10 0.9604
509.20 0.9598
509.30 0.9592
509.40 0.9587
509.50 0.9581
509.60 0.9575
509.70 0.9569
509.80 0.9563
509.90 0.9557
510.00 0.9552
510.10 0.9546
510.20 0.954
510.30 0.9534
510.40 0.9528
510.50 0.9522
510.60 0.9516
510.70 0.951
510.80 0.9504
510.90 0.9498
511.00 0.9493
511.10 0.9487
511.20 0.9481
511.30 0.9475
511.40 0.9469
511.50 0.9463
511.60 0.9457
511.70 0.9451
511.80 0.9445
511.90 0.9439
512.00 0.9433
512.10 0.9427
512.20 0.942
512.30 0.9414
512.40 0.9408
512.50 0.9402
512.60 0.9396
512.70 0.939
512.80 0.9384
512.90 0.9378
513.00 0.9372
513.10 0.9366
513.20 0.936
513.30 0.9354
513.40 0.9348
513.50 0.9341
513.60 0.9335
513.70 0.9329
513.80 0.9323
513.90 0.9317
514.00 0.9311
514.10 0.9305
514.20 0.9299
514.30 0.9293
514.40 0.9286
514.50 0.928
514.60 0.9274
514.70 0.9268
514.80 0.9262
514.90 0.9256
515.00 0.925
515.10 0.9243
515.20 0.9237
515.30 0.9231
515.40 0.9225
515.50 0.9219
515.60 0.9213
515.70 0.9206
515.80 0.92
515.90 0.9194
516.00 0.9188
516.10 0.9182
516.20 0.9176
516.30 0.917
516.40 0.9163
516.50 0.9157
516.60 0.9151
516.70 0.9145
516.80 0.9139
516.90 0.9133
517.00 0.9126
517.10 0.912
517.20 0.9114
517.30 0.9108
517.40 0.9102
517.50 0.9096
517.60 0.9089
517.70 0.9083
517.80 0.9077
517.90 0.9071
518.00 0.9065
518.10 0.9059
518.20 0.9053
518.30 0.9046
518.40 0.904
518.50 0.9034
518.60 0.9028
518.70 0.9022
518.80 0.9016
518.90 0.901
519.00 0.9003
519.10 0.8997
519.20 0.8991
519.30 0.8985
519.40 0.8979
519.50 0.8973
519.60 0.8967
519.70 0.896
519.80 0.8954
519.90 0.8948
520.00 0.8942
520.10 0.8936
520.20 0.893
520.30 0.8924
520.40 0.8918
520.50 0.8911
520.60 0.8905
520.70 0.8899
520.80 0.8893
520.90 0.8887
521.00 0.8881
521.10 0.8875
521.20 0.8869
521.30 0.8863
521.40 0.8856
521.50 0.885
521.60 0.8844
521.70 0.8838
521.80 0.8832
521.90 0.8826
522.00 0.882
522.10 0.8814
522.20 0.8808
522.30 0.8802
522.40 0.8796
522.50 0.879
522.60 0.8784
522.70 0.8777
522.80 0.8771
522.90 0.8765
523.00 0.8759
523.10 0.8753
523.20 0.8747
523.30 0.8741
523.40 0.8735
523.50 0.8729
523.60 0.8723
523.70 0.8717
523.80 0.8711
523.90 0.8705
524.00 0.8699
524.10 0.8693
524.20 0.8687
524.30 0.8681
524.40 0.8675
524.50 0.8669
524.60 0.8663
524.70 0.8657
524.80 0.8651
524.90 0.8645
525.00 0.8639
525.10 0.8633
525.20 0.8627
525.30 0.8621
525.40 0.8615
525.50 0.8609
525.60 0.8603
525.70 0.8597
525.80 0.8591
525.90 0.8585
526.00 0.8579
526.10 0.8573
526.20 0.8567
526.30 0.8561
526.40 0.8555
526.50 0.8549
526.60 0.8544
526.70 0.8538
526.80 0.8532
526.90 0.8526
527.00 0.852
527.10 0.8514
527.20 0.8508
527.30 0.8502
527.40 0.8496
527.50 0.849
527.60 0.8484
527.70 0.8479
527.80 0.8473
527.90 0.8467
528.00 0.8461
528.10 0.8455
528.20 0.8449
528.30 0.8443
528.40 0.8437
528.50 0.8432
528.60 0.8426
528.70 0.842
528.80 0.8414
528.90 0.8408
529.00 0.8402
529.10 0.8396
529.20 0.8391
529.30 0.8385
529.40 0.8379
529.50 0.8373
529.60 0.8367
529.70 0.8362
529.80 0.8356
529.90 0.835
530.00 0.8344
530.10 0.8338
530.20 0.8333
530.30 0.8327
530.40 0.8321
530.50 0.8315
530.60 0.8309
530.70 0.8304
530.80 0.8298
530.90 0.8292
531.00 0.8286
531.10 0.8281
531.20 0.8275
531.30 0.8269
531.40 0.8263
531.50 0.8258
531.60 0.8252
531.70 0.8246
531.80 0.824
531.90 0.8235
532.00 0.8229
532.10 0.8223
532.20 0.8218
532.30 0.8212
532.40 0.8206
532.50 0.82
532.60 0.8195
532.70 0.8189
532.80 0.8183
532.90 0.8178
533.00 0.8172
533.10 0.8166
533.20 0.8161
533.30 0.8155
533.40 0.8149
533.50 0.8144
533.60 0.8138
533.70 0.8132
533.80 0.8127
533.90 0.8121
534.00 0.8116
534.10 0.811
534.20 0.8104
534.30 0.8099
534.40 0.8093
534.50 0.8087
534.60 0.8082
534.70 0.8076
534.80 0.8071
534.90 0.8065
535.00 0.8059
535.10 0.8054
535.20 0.8048
535.30 0.8043
535.40 0.8037
535.50 0.8032
535.60 0.8026
535.70 0.802
535.80 0.8015
535.90 0.8009
536.00 0.8004
536.10 0.7998
536.20 0.7993
536.30 0.7987
536.40 0.7982
536.50 0.7976
536.60 0.7971
536.70 0.7965
536.80 0.796
536.90 0.7954
537.00 0.7949
537.10 0.7943
537.20 0.7938
537.30 0.7932
537.40 0.7927
537.50 0.7921
537.60 0.7916
537.70 0.791
537.80 0.7905
537.90 0.7899
538.00 0.7894
538.10 0.7888
538.20 0.7883
538.30 0.7877
538.40 0.7872
538.50 0.7866
538.60 0.7861
538.70 0.7856
538.80 0.785
538.90 0.7845
539.00 0.7839
539.10 0.7834
539.20 0.7828
539.30 0.7823
539.40 0.7818
539.50 0.7812
539.60 0.7807
539.70 0.7801
539.80 0.7796
539.90 0.7791
540.00 0.7785
540.10 0.778
540.20 0.7775
540.30 0.7769
540.40 0.7764
540.50 0.7759
540.60 0.7753
540.70 0.7748
540.80 0.7743
540.90 0.7737
541.00 0.7732
541.10 0.7727
541.20 0.7721
541.30 0.7716
541.40 0.7711
541.50 0.7705
541.60 0.77
541.70 0.7695
541.80 0.7689
541.90 0.7684
542.00 0.7679
542.10 0.7673
542.20 0.7668
542.30 0.7663
542.40 0.7658
542.50 0.7652
542.60 0.7647
542.70 0.7642
542.80 0.7637
542.90 0.7631
543.00 0.7626
543.10 0.7621
543.20 0.7616
543.30 0.761
543.40 0.7605
543.50 0.76
543.60 0.7595
543.70 0.7589
543.80 0.7584
543.90 0.7579
544.00 0.7574
544.10 0.7569
544.20 0.7563
544.30 0.7558
544.40 0.7553
544.50 0.7548
544.60 0.7543
544.70 0.7537
544.80 0.7532
544.90 0.7527
545.00 0.7522
545.10 0.7517
545.20 0.7512
545.30 0.7506
545.40 0.7501
545.50 0.7496
545.60 0.7491
545.70 0.7486
545.80 0.7481
545.90 0.7476
546.00 0.7471
546.10 0.7465
546.20 0.746
546.30 0.7455
546.40 0.745
546.50 0.7445
546.60 0.744
546.70 0.7435
546.80 0.743
546.90 0.7425
547.00 0.742
547.10 0.7414
547.20 0.7409
547.30 0.7404
547.40 0.7399
547.50 0.7394
547.60 0.7389
547.70 0.7384
547.80 0.7379
547.90 0.7374
548.00 0.7369
548.10 0.7364
548.20 0.7359
548.30 0.7354
548.40 0.7349
548.50 0.7344
548.60 0.7339
548.70 0.7334
548.80 0.7329
548.90 0.7324
549.00 0.7319
549.10 0.7314
549.20 0.7309
549.30 0.7304
549.40 0.7299
549.50 0.7294
549.60 0.7289
549.70 0.7284
549.80 0.7279
549.90 0.7274
550.00 0.7269
550.10 0.7264
550.20 0.7259
550.30 0.7254
550.40 0.7249
550.50 0.7244
550.60 0.7239
550.70 0.7234
550.80 0.7229
550.90 0.7225
551.00 0.722
551.10 0.7215
551.20 0.721
551.30 0.7205
551.40 0.72
551.50 0.7195
551.60 0.719
551.70 0.7185
551.80 0.718
551.90 0.7176
552.00 0.7171
552.10 0.7166
552.20 0.7161
552.30 0.7156
552.40 0.7151
552.50 0.7146
552.60 0.7142
552.70 0.7137
552.80 0.7132
552.90 0.7127
553.00 0.7122
553.10 0.7117
553.20 0.7112
553.30 0.7108
553.40 0.7103
553.50 0.7098
553.60 0.7093
553.70 0.7088
553.80 0.7084
553.90 0.7079
554.00 0.7074
554.10 0.7069
554.20 0.7064
554.30 0.706
554.40 0.7055
554.50 0.705
554.60 0.7045
554.70 0.704
554.80 0.7036
554.90 0.7031
555.00 0.7026
555.10 0.7021
555.20 0.7017
555.30 0.7012
555.40 0.7007
555.50 0.7002
555.60 0.6998
555.70 0.6993
555.80 0.6988
555.90 0.6984
556.00 0.6979
556.10 0.6974
556.20 0.6969
556.30 0.6965
556.40 0.696
556.50 0.6955
556.60 0.6951
556.70 0.6946
556.80 0.6941
556.90 0.6937
557.00 0.6932
557.10 0.6927
557.20 0.6922
557.30 0.6918
557.40 0.6913
557.50 0.6908
557.60 0.6904
557.70 0.6899
557.80 0.6895
557.90 0.689
558.00 0.6885
558.10 0.6881
558.20 0.6876
558.30 0.6871
558.40 0.6867
558.50 0.6862
558.60 0.6857
558.70 0.6853
558.80 0.6848
558.90 0.6844
559.00 0.6839
559.10 0.6834
559.20 0.683
559.30 0.6825
559.40 0.6821
559.50 0.6816
559.60 0.6811
559.70 0.6807
559.80 0.6802
559.90 0.6798
560.00 0.6793
560.10 0.6789
560.20 0.6784
560.30 0.6779
560.40 0.6775
560.50 0.677
560.60 0.6766
560.70 0.6761
560.80 0.6757
560.90 0.6752
561.00 0.6748
561.10 0.6743
561.20 0.6739
561.30 0.6734
561.40 0.673
561.50 0.6725
561.60 0.6721
561.70 0.6716
561.80 0.6712
561.90 0.6707
562.00 0.6703
562.10 0.6698
562.20 0.6694
562.30 0.6689
562.40 0.6685
562.50 0.668
562.60 0.6676
562.70 0.6671
562.80 0.6667
562.90 0.6662
563.00 0.6658
563.10 0.6653
563.20 0.6649
563.30 0.6645
563.40 0.664
563.50 0.6636
563.60 0.6631
563.70 0.6627
563.80 0.6622
563.90 0.6618
564.00 0.6613
564.10 0.6609
564.20 0.6605
564.30 0.66
564.40 0.6596
564.50 0.6591
564.60 0.6587
564.70 0.6583
564.80 0.6578
564.90 0.6574
565.00 0.6569
565.10 0.6565
565.20 0.6561
565.30 0.6556
565.40 0.6552
565.50 0.6548
565.60 0.6543
565.70 0.6539
565.80 0.6535
565.90 0.653
566.00 0.6526
566.10 0.6521
566.20 0.6517
566.30 0.6513
566.40 0.6508
566.50 0.6504
566.60 0.65
566.70 0.6495
566.80 0.6491
566.90 0.6487
567.00 0.6483
567.10 0.6478
567.20 0.6474
567.30 0.647
567.40 0.6465
567.50 0.6461
567.60 0.6457
567.70 0.6452
567.80 0.6448
567.90 0.6444
568.00 0.644
568.10 0.6435
568.20 0.6431
568.30 0.6427
568.40 0.6423
568.50 0.6418
568.60 0.6414
568.70 0.641
568.80 0.6405
568.90 0.6401
569.00 0.6397
569.10 0.6393
569.20 0.6388
569.30 0.6384
569.40 0.638
569.50 0.6376
569.60 0.6372
569.70 0.6367
569.80 0.6363
569.90 0.6359
570.00 0.6355
570.10 0.6351
570.20 0.6346
570.30 0.6342
570.40 0.6338
570.50 0.6334
570.60 0.633
570.70 0.6325
570.80 0.6321
570.90 0.6317
571.00 0.6313
571.10 0.6309
571.20 0.6304
571.30 0.63
571.40 0.6296
571.50 0.6292
571.60 0.6288
571.70 0.6284
571.80 0.628
571.90 0.6275
572.00 0.6271
572.10 0.6267
572.20 0.6263
572.30 0.6259
572.40 0.6255
572.50 0.6251
572.60 0.6246
572.70 0.6242
572.80 0.6238
572.90 0.6234
573.00 0.623
573.10 0.6226
573.20 0.6222
573.30 0.6218
573.40 0.6214
573.50 0.6209
573.60 0.6205
573.70 0.6201
573.80 0.6197
573.90 0.6193
574.00 0.6189
574.10 0.6185
574.20 0.6181
574.30 0.6177
574.40 0.6173
574.50 0.6169
574.60 0.6165
574.70 0.6161
574.80 0.6157
574.90 0.6153
575.00 0.6148
575.10 0.6144
575.20 0.614
575.30 0.6136
575.40 0.6132
575.50 0.6128
575.60 0.6124
575.70 0.612
575.80 0.6116
575.90 0.6112
576.00 0.6108
576.10 0.6104
576.20 0.61
576.30 0.6096
576.40 0.6092
576.50 0.6088
576.60 0.6084
576.70 0.608
576.80 0.6076
576.90 0.6072
577.00 0.6068
577.10 0.6064
577.20 0.606
577.30 0.6056
577.40 0.6052
577.50 0.6048
577.60 0.6044
577.70 0.604
577.80 0.6037
577.90 0.6033
578.00 0.6029
578.10 0.6025
578.20 0.6021
578.30 0.6017
578.40 0.6013
578.50 0.6009
578.60 0.6005
578.70 0.6001
578.80 0.5997
578.90 0.5993
579.00 0.5989
579.10 0.5985
579.20 0.5981
579.30 0.5978
579.40 0.5974
579.50 0.597
579.60 0.5966
579.70 0.5962
579.80 0.5958
579.90 0.5954
580.00 0.595
580.10 0.5946
580.20 0.5943
580.30 0.5939
580.40 0.5935
580.50 0.5931
580.60 0.5927
580.70 0.5923
580.80 0.5919
580.90 0.5915
581.00 0.5912
581.10 0.5908
581.20 0.5904
581.30 0.59
581.40 0.5896
581.50 0.5892
581.60 0.5889
581.70 0.5885
581.80 0.5881
581.90 0.5877
582.00 0.5873
582.10 0.5869
582.20 0.5866
582.30 0.5862
582.40 0.5858
582.50 0.5854
582.60 0.585
582.70 0.5847
582.80 0.5843
582.90 0.5839
583.00 0.5835
583.10 0.5831
583.20 0.5828
583.30 0.5824
583.40 0.582
583.50 0.5816
583.60 0.5812
583.70 0.5809
583.80 0.5805
583.90 0.5801
584.00 0.5797
584.10 0.5794
584.20 0.579
584.30 0.5786
584.40 0.5782
584.50 0.5779
584.60 0.5775
584.70 0.5771
584.80 0.5767
584.90 0.5764
585.00 0.576
585.10 0.5756
585.20 0.5752
585.30 0.5749
585.40 0.5745
585.50 0.5741
585.60 0.5738
585.70 0.5734
585.80 0.573
585.90 0.5726
586.00 0.5723
586.10 0.5719
586.20 0.5715
586.30 0.5712
586.40 0.5708
586.50 0.5704
586.60 0.57
586.70 0.5697
586.80 0.5693
586.90 0.5689
587.00 0.5686
587.10 0.5682
587.20 0.5678
587.30 0.5675
587.40 0.5671
587.50 0.5667
587.60 0.5664
587.70 0.566
587.80 0.5656
587.90 0.5653
588.00 0.5649
588.10 0.5645
588.20 0.5642
588.30 0.5638
588.40 0.5635
588.50 0.5631
588.60 0.5627
588.70 0.5624
588.80 0.562
588.90 0.5616
589.00 0.5613
589.10 0.5609
589.20 0.5606
589.30 0.5602
589.40 0.5598
589.50 0.5595
589.60 0.5591
589.70 0.5587
589.80 0.5584
589.90 0.558
590.00 0.5577
590.10 0.5573
590.20 0.5569
590.30 0.5566
590.40 0.5562
590.50 0.5559
590.60 0.5555
590.70 0.5552
590.80 0.5548
590.90 0.5544
591.00 0.5541
591.10 0.5537
591.20 0.5534
591.30 0.553
591.40 0.5527
591.50 0.5523
591.60 0.552
591.70 0.5516
591.80 0.5512
591.90 0.5509
592.00 0.5505
592.10 0.5502
592.20 0.5498
592.30 0.5495
592.40 0.5491
592.50 0.5488
592.60 0.5484
592.70 0.5481
592.80 0.5477
592.90 0.5474
593.00 0.547
593.10 0.5467
593.20 0.5463
593.30 0.546
593.40 0.5456
593.50 0.5453
593.60 0.5449
593.70 0.5446
593.80 0.5442
593.90 0.5439
594.00 0.5435
594.10 0.5432
594.20 0.5428
594.30 0.5425
594.40 0.5421
594.50 0.5418
594.60 0.5414
594.70 0.5411
594.80 0.5407
594.90 0.5404
595.00 0.54
595.10 0.5397
595.20 0.5393
595.30 0.539
595.40 0.5387
595.50 0.5383
595.60 0.538
595.70 0.5376
595.80 0.5373
595.90 0.5369
596.00 0.5366
596.10 0.5362
596.20 0.5359
596.30 0.5356
596.40 0.5352
596.50 0.5349
596.60 0.5345
596.70 0.5342
596.80 0.5339
596.90 0.5335
597.00 0.5332
597.10 0.5328
597.20 0.5325
597.30 0.5321
597.40 0.5318
597.50 0.5315
597.60 0.5311
597.70 0.5308
597.80 0.5305
597.90 0.5301
598.00 0.5298
598.10 0.5294
598.20 0.5291
598.30 0.5288
598.40 0.5284
598.50 0.5281
598.60 0.5277
598.70 0.5274
598.80 0.5271
598.90 0.5267
599.00 0.5264
599.10 0.5261
599.20 0.5257
599.30 0.5254
599.40 0.5251
599.50 0.5247
599.60 0.5244
599.70 0.5241
599.80 0.5237
599.90 0.5234
600.00 0.5231
600.10 0.5227
600.20 0.5224
600.30 0.5221
600.40 0.5217
600.50 0.5214
600.60 0.5211
600.70 0.5207
600.80 0.5204
600.90 0.5201
601.00 0.5197
601.10 0.5194
601.20 0.5191
601.30 0.5187
601.40 0.5184
601.50 0.5181
601.60 0.5178
601.70 0.5174
601.80 0.5171
601.90 0.5168
602.00 0.5164
602.10 0.5161
602.20 0.5158
602.30 0.5155
602.40 0.5151
602.50 0.5148
602.60 0.5145
602.70 0.5141
602.80 0.5138
602.90 0.5135
603.00 0.5132
603.10 0.5128
603.20 0.5125
603.30 0.5122
603.40 0.5119
603.50 0.5115
603.60 0.5112
603.70 0.5109
603.80 0.5106
603.90 0.5102
604.00 0.5099
604.10 0.5096
604.20 0.5093
604.30 0.5089
604.40 0.5086
604.50 0.5083
604.60 0.508
604.70 0.5076
604.80 0.5073
604.90 0.507
605.00 0.5067
605.10 0.5064
605.20 0.506
605.30 0.5057
605.40 0.5054
605.50 0.5051
605.60 0.5047
605.70 0.5044
605.80 0.5041
605.90 0.5038
606.00 0.5035
606.10 0.5031
606.20 0.5028
606.30 0.5025
606.40 0.5022
606.50 0.5019
606.60 0.5016
606.70 0.5012
606.80 0.5009
606.90 0.5006
607.00 0.5003
607.10 0.5
607.20 0.4996
607.30 0.4993
607.40 0.499
607.50 0.4987
607.60 0.4984
607.70 0.4981
607.80 0.4977
607.90 0.4974
608.00 0.4971
608.10 0.4968
608.20 0.4965
608.30 0.4962
608.40 0.4959
608.50 0.4955
608.60 0.4952
608.70 0.4949
608.80 0.4946
608.90 0.4943
609.00 0.494
609.10 0.4937
609.20 0.4933
609.30 0.493
609.40 0.4927
609.50 0.4924
609.60 0.4921
609.70 0.4918
609.80 0.4915
609.90 0.4912
610.00 0.4908
610.10 0.4905
610.20 0.4902
610.30 0.4899
610.40 0.4896
610.50 0.4893
610.60 0.489
610.70 0.4887
610.80 0.4884
610.90 0.488
611.00 0.4877
611.10 0.4874
611.20 0.4871
611.30 0.4868
611.40 0.4865
611.50 0.4862
611.60 0.4859
611.70 0.4856
611.80 0.4853
611.90 0.485
612.00 0.4847
612.10 0.4843
612.20 0.484
612.30 0.4837
612.40 0.4834
612.50 0.4831
612.60 0.4828
612.70 0.4825
612.80 0.4822
612.90 0.4819
613.00 0.4816
613.10 0.4813
613.20 0.481
613.30 0.4807
613.40 0.4804
613.50 0.4801
613.60 0.4798
613.70 0.4794
613.80 0.4791
613.90 0.4788
614.00 0.4785
614.10 0.4782
614.20 0.4779
614.30 0.4776
614.40 0.4773
614.50 0.477
614.60 0.4767
614.70 0.4764
614.80 0.4761
614.90 0.4758
615.00 0.4755
615.10 0.4752
615.20 0.4749
615.30 0.4746
615.40 0.4743
615.50 0.474
615.60 0.4737
615.70 0.4734
615.80 0.4731
615.90 0.4728
616.00 0.4725
616.10 0.4722
616.20 0.4719
616.30 0.4716
616.40 0.4713
616.50 0.471
616.60 0.4707
616.70 0.4704
616.80 0.4701
616.90 0.4698
617.00 0.4695
617.10 0.4692
617.20 0.4689
617.30 0.4686
617.40 0.4683
617.50 0.468
617.60 0.4677
617.70 0.4674
617.80 0.4671
617.90 0.4668
618.00 0.4665
618.10 0.4662
618.20 0.4659
618.30 0.4656
618.40 0.4653
618.50 0.465
618.60 0.4647
618.70 0.4644
618.80 0.4641
618.90 0.4638
619.00 0.4635
619.10 0.4632
619.20 0.4629
619.30 0.4626
619.40 0.4623
619.50 0.462
619.60 0.4617
619.70 0.4614
619.80 0.4611
619.90 0.4608
620.00 0.4606
620.10 0.4603
620.20 0.46
620.30 0.4597
620.40 0.4594
620.50 0.4591
620.60 0.4588
620.70 0.4585
620.80 0.4582
620.90 0.4579
621.00 0.4576
621.10 0.4573
621.20 0.457
621.30 0.4567
621.40 0.4564
621.50 0.4561
621.60 0.4558
621.70 0.4555
621.80 0.4552
621.90 0.455
622.00 0.4547
622.10 0.4544
622.20 0.4541
622.30 0.4538
622.40 0.4535
622.50 0.4532
622.60 0.4529
622.70 0.4526
622.80 0.4523
622.90 0.452
623.00 0.4517
623.10 0.4514
623.20 0.4511
623.30 0.4508
623.40 0.4506
623.50 0.4503
623.60 0.45
623.70 0.4497
623.80 0.4494
623.90 0.4491
624.00 0.4488
624.10 0.4485
624.20 0.4482
624.30 0.4479
624.40 0.4476
624.50 0.4473
624.60 0.447
624.70 0.4467
624.80 0.4465
624.90 0.4462
625.00 0.4459
625.10 0.4456
625.20 0.4453
625.30 0.445
625.40 0.4447
625.50 0.4444
625.60 0.4441
625.70 0.4438
625.80 0.4435
625.90 0.4432
626.00 0.4429
626.10 0.4427
626.20 0.4424
626.30 0.4421
626.40 0.4418
626.50 0.4415
626.60 0.4412
626.70 0.4409
626.80 0.4406
626.90 0.4403
627.00 0.44
627.10 0.4397
627.20 0.4394
627.30 0.4391
627.40 0.4389
627.50 0.4386
627.60 0.4383
627.70 0.438
627.80 0.4377
627.90 0.4374
628.00 0.4371
628.10 0.4368
628.20 0.4365
628.30 0.4362
628.40 0.4359
628.50 0.4356
628.60 0.4353
628.70 0.435
628.80 0.4347
628.90 0.4345
629.00 0.4342
629.10 0.4339
629.20 0.4336
629.30 0.4333
629.40 0.433
629.50 0.4327
629.60 0.4324
629.70 0.4321
629.80 0.4318
629.90 0.4315
630.00 0.4312
630.10 0.4309
630.20 0.4306
630.30 0.4303
630.40 0.43
630.50 0.4297
630.60 0.4294
630.70 0.4291
630.80 0.4288
630.90 0.4285
631.00 0.4282
631.10 0.428
631.20 0.4277
631.30 0.4274
631.40 0.4271
631.50 0.4268
631.60 0.4265
631.70 0.4262
631.80 0.4259
631.90 0.4256
632.00 0.4253
632.10 0.425
632.20 0.4247
632.30 0.4244
632.40 0.4241
632.50 0.4238
632.60 0.4235
632.70 0.4232
632.80 0.4229
632.90 0.4225
633.00 0.4222
633.10 0.4219
633.20 0.4216
633.30 0.4213
633.40 0.421
633.50 0.4207
633.60 0.4204
633.70 0.4201
633.80 0.4198
633.90 0.4195
634.00 0.4192
634.10 0.4189
634.20 0.4186
634.30 0.4183
634.40 0.418
634.50 0.4177
634.60 0.4173
634.70 0.417
634.80 0.4167
634.90 0.4164
635.00 0.4161
635.10 0.4158
635.20 0.4155
635.30 0.4152
635.40 0.4148
635.50 0.4145
635.60 0.4142
635.70 0.4139
635.80 0.4136
635.90 0.4133
636.00 0.4129
636.10 0.4126
636.20 0.4123
636.30 0.412
636.40 0.4117
636.50 0.4113
636.60 0.411
636.70 0.4107
636.80 0.4104
636.90 0.41
637.00 0.4097
637.10 0.4094
637.20 0.4091
637.30 0.4087
637.40 0.4084
637.50 0.4081
637.60 0.4077
637.70 0.4074
637.80 0.4071
637.90 0.4067
638.00 0.4064
638.10 0.4061
638.20 0.4057
638.30 0.4054
638.40 0.4051
638.50 0.4047
638.60 0.4044
638.70 0.404
638.80 0.4037
638.90 0.4033
639.00 0.403
639.10 0.4027
639.20 0.4023
639.30 0.402
639.40 0.4016
639.50 0.4012
639.60 0.4009
639.70 0.4005
639.80 0.4002
639.90 0.3998
640.00 0.3995
640.10 0.3991
640.20 0.3987
640.30 0.3984
640.40 0.398
640.50 0.3976
640.60 0.3973
640.70 0.3969
640.80 0.3965
640.90 0.3961
641.00 0.3958
641.10 0.3954
641.20 0.395
641.30 0.3946
641.40 0.3942
641.50 0.3938
641.60 0.3934
641.70 0.3931
641.80 0.3927
641.90 0.3923
642.00 0.3919
642.10 0.3915
642.20 0.3911
642.30 0.3907
642.40 0.3903
642.50 0.3898
642.60 0.3894
642.70 0.389
642.80 0.3886
642.90 0.3882
643.00 0.3878
643.10 0.3873
643.20 0.3869
643.30 0.3865
643.40 0.386
643.50 0.3856
643.60 0.3851
643.70 0.3847
643.80 0.3843
643.90 0.3838
644.00 0.3834
644.10 0.3829
644.20 0.3825
644.30 0.382
644.40 0.3815
644.50 0.381
644.60 0.3806
644.70 0.3801
644.80 0.3796
644.90 0.3791
645.00 0.3786
645.10 0.3781
645.20 0.3777
645.30 0.3772
645.40 0.3766
645.50 0.3761
645.60 0.3756
645.70 0.375
645.80 0.3745
645.90 0.374
646.00 0.3735
646.10 0.3729
646.20 0.3724
646.30 0.3719
646.40 0.3713
646.50 0.3707
646.60 0.3701
646.70 0.3696
646.80 0.369
646.90 0.3684
647.00 0.3678
647.10 0.3672
647.20 0.3667
647.30 0.3661
647.40 0.3654
647.50 0.3648
647.60 0.3641
647.70 0.3635
647.80 0.3628
647.90 0.3622
648.00 0.3616
648.10 0.3609
648.20 0.3603
648.30 0.3596
648.40 0.3589
648.50 0.3582
648.60 0.3574
648.70 0.3567
648.80 0.356
648.90 0.3553
649.00 0.3545
649.10 0.3538
649.20 0.3531
649.30 0.3524
649.40 0.3515
649.50 0.3507
649.60 0.3499
649.70 0.3491
649.80 0.3482
649.90 0.3474
650.00 0.3466
650.10 0.3458
650.20 0.345
650.30 0.3441
650.40 0.3432
650.50 0.3422
650.60 0.3413
650.70 0.3403
650.80 0.3394
650.90 0.3384
651.00 0.3375
651.10 0.3366
651.20 0.3356
651.30 0.3346
651.40 0.3335
651.50 0.3324
651.60 0.3313
651.70 0.3302
651.80 0.3291
651.90 0.328
652.00 0.3269
652.10 0.3258
652.20 0.3247
652.30 0.3236
652.40 0.3223
652.50 0.3209
652.60 0.3196
652.70 0.3183
652.80 0.317
652.90 0.3157
653.00 0.3144
653.10 0.3131
653.20 0.3118
653.30 0.3104
653.40 0.3088
653.50 0.3072
653.60 0.3055
653.70 0.3039
653.80 0.3023
653.90 0.3007
654.00 0.2991
654.10 0.2975
654.20 0.2959
654.30 0.2942
654.40 0.2923
654.50 0.2903
654.60 0.2884
654.70 0.2865
654.80 0.2845
654.90 0.2822
655.00 0.28
655.10 0.2777
655.20 0.2755
655.30 0.2732
655.40 0.2706
655.50 0.268
655.60 0.2652
655.70 0.2624
655.80 0.2593
655.90 0.2562
656.00 0.2527
656.10 0.2492
656.20 0.2447
656.30 0.2435
656.40 0.2462
656.50 0.25
656.60 0.2532
656.70 0.2563
656.80 0.2591
656.90 0.2618
657.00 0.2643
657.10 0.2668
657.20 0.269
657.30 0.2712
657.40 0.2731
657.50 0.2751
657.60 0.277
657.70 0.279
657.80 0.2808
657.90 0.2824
658.00 0.284
658.10 0.2856
658.20 0.2872
658.30 0.2888
658.40 0.29
658.50 0.2913
658.60 0.2926
658.70 0.2938
658.80 0.2951
658.90 0.2963
659.00 0.2976
659.10 0.2988
659.20 0.3001
659.30 0.3013
659.40 0.3022
659.50 0.3032
659.60 0.3041
659.70 0.3051
659.80 0.306
659.90 0.3069
660.00 0.3079
660.10 0.3088
660.20 0.3097
660.30 0.3106
660.40 0.3113
660.50 0.312
660.60 0.3128
660.70 0.3135
660.80 0.3142
660.90 0.3149
661.00 0.3156
661.10 0.3163
661.20 0.317
661.30 0.3177
661.40 0.3182
661.50 0.3188
661.60 0.3193
661.70 0.3198
661.80 0.3204
661.90 0.3209
662.00 0.3214
662.10 0.322
662.20 0.3225
662.30 0.323
662.40 0.3234
662.50 0.3238
662.60 0.3242
662.70 0.3246
662.80 0.325
662.90 0.3254
663.00 0.3258
663.10 0.3262
663.20 0.3266
663.30 0.327
663.40 0.3273
663.50 0.3276
663.60 0.3279
663.70 0.3282
663.80 0.3285
663.90 0.3288
664.00 0.3291
664.10 0.3294
664.20 0.3296
664.30 0.3299
664.40 0.3301
664.50 0.3303
664.60 0.3305
664.70 0.3307
664.80 0.331
664.90 0.3312
665.00 0.3314
665.10 0.3316
665.20 0.3318
665.30 0.332
665.40 0.3321
665.50 0.3323
665.60 0.3324
665.70 0.3325
665.80 0.3327
665.90 0.3328
666.00 0.3329
666.10 0.3331
666.20 0.3332
666.30 0.3333
666.40 0.3334
666.50 0.3335
666.60 0.3336
666.70 0.3337
666.80 0.3337
666.90 0.3338
667.00 0.3339
667.10 0.334
667.20 0.3341
667.30 0.3341
667.40 0.3342
667.50 0.3342
667.60 0.3342
667.70 0.3343
667.80 0.3343
667.90 0.3344
668.00 0.3344
668.10 0.3344
668.20 0.3345
668.30 0.3345
668.40 0.3345
668.50 0.3345
668.60 0.3345
668.70 0.3345
668.80 0.3345
668.90 0.3345
669.00 0.3345
669.10 0.3345
669.20 0.3345
669.30 0.3345
669.40 0.3344
669.50 0.3344
669.60 0.3344
669.70 0.3343
669.80 0.3343
669.90 0.3343
670.00 0.3342
670.10 0.3342
670.20 0.3342
670.30 0.3341
670.40 0.3341
670.50 0.334
670.60 0.3339
670.70 0.3339
670.80 0.3338
670.90 0.3338
671.00 0.3337
671.10 0.3337
671.20 0.3336
671.30 0.3335
671.40 0.3335
671.50 0.3334
671.60 0.3333
671.70 0.3332
671.80 0.3332
671.90 0.3331
672.00 0.333
672.10 0.3329
672.20 0.3328
672.30 0.3328
672.40 0.3327
672.50 0.3326
672.60 0.3325
672.70 0.3324
672.80 0.3323
672.90 0.3322
673.00 0.3321
673.10 0.332
673.20 0.3319
673.30 0.3318
673.40 0.3317
673.50 0.3316
673.60 0.3315
673.70 0.3314
673.80 0.3313
673.90 0.3312
674.00 0.3311
674.10 0.331
674.20 0.3309
674.30 0.3307
674.40 0.3306
674.50 0.3305
674.60 0.3304
674.70 0.3303
674.80 0.3302
674.90 0.33
675.00 0.3299
675.10 0.3298
675.20 0.3297
675.30 0.3296
675.40 0.3294
675.50 0.3293
675.60 0.3292
675.70 0.3291
675.80 0.3289
675.90 0.3288
676.00 0.3287
676.10 0.3285
676.20 0.3284
676.30 0.3283
676.40 0.3282
676.50 0.328
676.60 0.3279
676.70 0.3277
676.80 0.3276
676.90 0.3275
677.00 0.3273
677.10 0.3272
677.20 0.3271
677.30 0.3269
677.40 0.3268
677.50 0.3267
677.60 0.3265
677.70 0.3264
677.80 0.3262
677.90 0.3261
678.00 0.326
678.10 0.3258
678.20 0.3257
678.30 0.3255
678.40 0.3254
678.50 0.3253
678.60 0.3251
678.70 0.325
678.80 0.3248
678.90 0.3247
679.00 0.3245
679.10 0.3244
679.20 0.3242
679.30 0.3241
679.40 0.324
679.50 0.3238
679.60 0.3237
679.70 0.3235
679.80 0.3234
679.90 0.3232
680.00 0.3231
680.10 0.3229
680.20 0.3228
680.30 0.3226
680.40 0.3225
680.50 0.3223
680.60 0.3222
680.70 0.322
680.80 0.3219
680.90 0.3217
681.00 0.3216
681.10 0.3214
681.20 0.3213
681.30 0.3211
681.40 0.3209
681.50 0.3208
681.60 0.3206
681.70 0.3205
681.80 0.3203
681.90 0.3202
682.00 0.32
682.10 0.3199
682.20 0.3197
682.30 0.3196
682.40 0.3194
682.50 0.3193
682.60 0.3191
682.70 0.3189
682.80 0.3188
682.90 0.3186
683.00 0.3185
683.10 0.3183
683.20 0.3182
683.30 0.318
683.40 0.3179
683.50 0.3177
683.60 0.3175
683.70 0.3174
683.80 0.3172
683.90 0.3171
684.00 0.3169
684.10 0.3167
684.20 0.3166
684.30 0.3164
684.40 0.3163
684.50 0.3161
684.60 0.316
684.70 0.3158
684.80 0.3156
684.90 0.3155
685.00 0.3153
685.10 0.3152
685.20 0.315
685.30 0.3149
685.40 0.3147
685.50 0.3145
685.60 0.3144
685.70 0.3142
685.80 0.3141
685.90 0.3139
686.00 0.3137
686.10 0.3136
686.20 0.3134
686.30 0.3133
686.40 0.3131
686.50 0.3129
686.60 0.3128
686.70 0.3126
686.80 0.3125
686.90 0.3123
687.00 0.3121
687.10 0.312
687.20 0.3118
687.30 0.3117
687.40 0.3115
687.50 0.3114
687.60 0.3112
687.70 0.311
687.80 0.3109
687.90 0.3107
688.00 0.3106
688.10 0.3104
688.20 0.3102
688.30 0.3101
688.40 0.3099
688.50 0.3098
688.60 0.3096
688.70 0.3094
688.80 0.3093
688.90 0.3091
689.00 0.309
689.10 0.3088
689.20 0.3086
689.30 0.3085
689.40 0.3083
689.50 0.3081
689.60 0.308
689.70 0.3078
689.80 0.3077
689.90 0.3075
690.00 0.3073
690.10 0.3072
690.20 0.307
690.30 0.3069
690.40 0.3067
690.50 0.3065
690.60 0.3064
690.70 0.3062
690.80 0.3061
690.90 0.3059
691.00 0.3057
691.10 0.3056
691.20 0.3054
691.30 0.3053
691.40 0.3051
691.50 0.3049
691.60 0.3048
691.70 0.3046
691.80 0.3045
691.90 0.3043
692.00 0.3041
692.10 0.304
692.20 0.3038
692.30 0.3037
692.40 0.3035
692.50 0.3033
692.60 0.3032
692.70 0.303
692.80 0.3029
692.90 0.3027
693.00 0.3025
693.10 0.3024
693.20 0.3022
693.30 0.3021
693.40 0.3019
693.50 0.3018
693.60 0.3016
693.70 0.3014
693.80 0.3013
693.90 0.3011
694.00 0.301
694.10 0.3008
694.20 0.3007
694.30 0.3005
694.40 0.3003
694.50 0.3002
694.60 0.3
694.70 0.2999
694.80 0.2997
694.90 0.2996
695.00 0.2994
695.10 0.2992
695.20 0.2991
695.30 0.2989
695.40 0.2988
695.50 0.2986
695.60 0.2984
695.70 0.2983
695.80 0.2981
695.90 0.298
696.00 0.2978
696.10 0.2977
696.20 0.2975
696.30 0.2973
696.40 0.2972
696.50 0.297
696.60 0.2969
696.70 0.2967
696.80 0.2966
696.90 0.2964
697.00 0.2962
697.10 0.2961
697.20 0.2959
697.30 0.2958
697.40 0.2956
697.50 0.2955
697.60 0.2953
697.70 0.2951
697.80 0.295
697.90 0.2948
698.00 0.2947
698.10 0.2945
698.20 0.2944
698.30 0.2942
698.40 0.294
698.50 0.2939
698.60 0.2937
698.70 0.2936
698.80 0.2934
698.90 0.2933
699.00 0.2931
699.10 0.293
699.20 0.2928
699.30 0.2926
699.40 0.2925
699.50 0.2923
699.60 0.2922
699.70 0.292
699.80 0.2919
699.90 0.2917
700.00 0.2916
700.10 0.2914
700.20 0.2913
700.30 0.2911
700.40 0.2909
700.50 0.2908
700.60 0.2906
700.70 0.2905
700.80 0.2903
700.90 0.2902
701.00 0.29
701.10 0.2899
701.20 0.2897
701.30 0.2896
701.40 0.2894
701.50 0.2892
701.60 0.2891
701.70 0.2889
701.80 0.2888
701.90 0.2886
702.00 0.2885
702.10 0.2883
702.20 0.2882
702.30 0.288
702.40 0.2879
702.50 0.2877
702.60 0.2876
702.70 0.2874
702.80 0.2873
702.90 0.2871
703.00 0.287
703.10 0.2868
703.20 0.2866
703.30 0.2865
703.40 0.2863
703.50 0.2862
703.60 0.286
703.70 0.2859
703.80 0.2857
703.90 0.2856
704.00 0.2854
704.10 0.2853
704.20 0.2851
704.30 0.285
704.40 0.2848
704.50 0.2847
704.60 0.2845
704.70 0.2844
704.80 0.2842
704.90 0.2841
705.00 0.2839
705.10 0.2838
705.20 0.2836
705.30 0.2835
705.40 0.2833
705.50 0.2832
705.60 0.283
705.70 0.2829
705.80 0.2827
705.90 0.2826
706.00 0.2824
706.10 0.2823
706.20 0.2821
706.30 0.282
706.40 0.2818
706.50 0.2817
706.60 0.2815
706.70 0.2814
706.80 0.2812
706.90 0.2811
707.00 0.2809
707.10 0.2808
707.20 0.2806
707.30 0.2805
707.40 0.2803
707.50 0.2802
707.60 0.28
707.70 0.2799
707.80 0.2797
707.90 0.2796
708.00 0.2794
708.10 0.2793
708.20 0.2791
708.30 0.279
708.40 0.2788
708.50 0.2787
708.60 0.2785
708.70 0.2784
708.80 0.2782
708.90 0.2781
709.00 0.278
709.10 0.2778
709.20 0.2777
709.30 0.2775
709.40 0.2774
709.50 0.2772
709.60 0.2771
709.70 0.2769
709.80 0.2768
709.90 0.2766
710.00 0.2765
710.10 0.2763
710.20 0.2762
710.30 0.276
710.40 0.2759
710.50 0.2757
710.60 0.2756
710.70 0.2755
710.80 0.2753
710.90 0.2752
711.00 0.275
711.10 0.2749
711.20 0.2747
711.30 0.2746
711.40 0.2744
711.50 0.2743
711.60 0.2741
711.70 0.274
711.80 0.2739
711.90 0.2737
712.00 0.2736
712.10 0.2734
712.20 0.2733
712.30 0.2731
712.40 0.273
712.50 0.2728
712.60 0.2727
712.70 0.2726
712.80 0.2724
712.90 0.2723
713.00 0.2721
713.10 0.272
713.20 0.2718
713.30 0.2717
713.40 0.2715
713.50 0.2714
713.60 0.2713
713.70 0.2711
713.80 0.271
713.90 0.2708
714.00 0.2707
714.10 0.2705
714.20 0.2704
714.30 0.2703
714.40 0.2701
714.50 0.27
714.60 0.2698
714.70 0.2697
714.80 0.2695
714.90 0.2694
715.00 0.2693
715.10 0.2691
715.20 0.269
715.30 0.2688
715.40 0.2687
715.50 0.2685
715.60 0.2684
715.70 0.2683
715.80 0.2681
715.90 0.268
716.00 0.2678
716.10 0.2677
716.20 0.2676
716.30 0.2674
716.40 0.2673
716.50 0.2671
716.60 0.267
716.70 0.2668
716.80 0.2667
716.90 0.2666
717.00 0.2664
717.10 0.2663
717.20 0.2661
717.30 0.266
717.40 0.2659
717.50 0.2657
717.60 0.2656
717.70 0.2654
717.80 0.2653
717.90 0.2652
718.00 0.265
718.10 0.2649
718.20 0.2647
718.30 0.2646
718.40 0.2645
718.50 0.2643
718.60 0.2642
718.70 0.2641
718.80 0.2639
718.90 0.2638
719.00 0.2636
719.10 0.2635
719.20 0.2634
719.30 0.2632
719.40 0.2631
719.50 0.2629
719.60 0.2628
719.70 0.2627
719.80 0.2625
719.90 0.2624
720.00 0.2622
720.10 0.2621
720.20 0.262
720.30 0.2618
720.40 0.2617
720.50 0.2616
720.60 0.2614
720.70 0.2613
720.80 0.2611
720.90 0.261
721.00 0.2609
721.10 0.2607
721.20 0.2606
721.30 0.2605
721.40 0.2603
721.50 0.2602
721.60 0.2601
721.70 0.2599
721.80 0.2598
721.90 0.2596
722.00 0.2595
722.10 0.2594
722.20 0.2592
722.30 0.2591
722.40 0.259
722.50 0.2588
722.60 0.2587
722.70 0.2586
722.80 0.2584
722.90 0.2583
723.00 0.2581
723.10 0.258
723.20 0.2579
723.30 0.2577
723.40 0.2576
723.50 0.2575
723.60 0.2573
723.70 0.2572
723.80 0.2571
723.90 0.2569
724.00 0.2568
724.10 0.2567
724.20 0.2565
724.30 0.2564
724.40 0.2563
724.50 0.2561
724.60 0.256
724.70 0.2559
724.80 0.2557
724.90 0.2556
725.00 0.2555
725.10 0.2553
725.20 0.2552
725.30 0.2551
725.40 0.2549
725.50 0.2548
725.60 0.2547
725.70 0.2545
725.80 0.2544
725.90 0.2543
726.00 0.2541
726.10 0.254
726.20 0.2539
726.30 0.2537
726.40 0.2536
726.50 0.2535
726.60 0.2533
726.70 0.2532
726.80 0.2531
726.90 0.2529
727.00 0.2528
727.10 0.2527
727.20 0.2525
727.30 0.2524
727.40 0.2523
727.50 0.2521
727.60 0.252
727.70 0.2519
727.80 0.2517
727.90 0.2516
728.00 0.2515
728.10 0.2514
728.20 0.2512
728.30 0.2511
728.40 0.251
728.50 0.2508
728.60 0.2507
728.70 0.2506
728.80 0.2504
728.90 0.2503
729.00 0.2502
729.10 0.25
729.20 0.2499
729.30 0.2498
729.40 0.2497
729.50 0.2495
729.60 0.2494
729.70 0.2493
729.80 0.2491
729.90 0.249
730.00 0.2489
730.10 0.2487
730.20 0.2486
730.30 0.2485
730.40 0.2484
730.50 0.2482
730.60 0.2481
730.70 0.248
730.80 0.2478
730.90 0.2477
731.00 0.2476
731.10 0.2475
731.20 0.2473
731.30 0.2472
731.40 0.2471
731.50 0.2469
731.60 0.2468
731.70 0.2467
731.80 0.2466
731.90 0.2464
732.00 0.2463
732.10 0.2462
732.20 0.2461
732.30 0.2459
732.40 0.2458
732.50 0.2457
732.60 0.2455
732.70 0.2454
732.80 0.2453
732.90 0.2452
733.00 0.245
733.10 0.2449
733.20 0.2448
733.30 0.2447
733.40 0.2445
733.50 0.2444
733.60 0.2443
733.70 0.2442
733.80 0.244
733.90 0.2439
734.00 0.2438
734.10 0.2437
734.20 0.2435
734.30 0.2434
734.40 0.2433
734.50 0.2431
734.60 0.243
734.70 0.2429
734.80 0.2428
734.90 0.2426
735.00 0.2425
735.10 0.2424
735.20 0.2423
735.30 0.2421
735.40 0.242
735.50 0.2419
735.60 0.2418
735.70 0.2416
735.80 0.2415
735.90 0.2414
736.00 0.2413
736.10 0.2411
736.20 0.241
736.30 0.2409
736.40 0.2408
736.50 0.2406
736.60 0.2405
736.70 0.2404
736.80 0.2403
736.90 0.2401
737.00 0.24
737.10 0.2399
737.20 0.2398
737.30 0.2396
737.40 0.2395
737.50 0.2394
737.60 0.2393
737.70 0.2392
737.80 0.239
737.90 0.2389
738.00 0.2388
738.10 0.2387
738.20 0.2385
738.30 0.2384
738.40 0.2383
738.50 0.2382
738.60 0.238
738.70 0.2379
738.80 0.2378
738.90 0.2377
739.00 0.2375
739.10 0.2374
739.20 0.2373
739.30 0.2372
739.40 0.2371
739.50 0.2369
739.60 0.2368
739.70 0.2367
739.80 0.2366
739.90 0.2364
740.00 0.2363
740.10 0.2362
740.20 0.2361
740.30 0.236
740.40 0.2358
740.50 0.2357
740.60 0.2356
740.70 0.2355
740.80 0.2354
740.90 0.2352
741.00 0.2351
741.10 0.235
741.20 0.2349
741.30 0.2348
741.40 0.2346
741.50 0.2345
741.60 0.2344
741.70 0.2343
741.80 0.2342
741.90 0.234
742.00 0.2339
742.10 0.2338
742.20 0.2337
742.30 0.2336
742.40 0.2334
742.50 0.2333
742.60 0.2332
742.70 0.2331
742.80 0.233
742.90 0.2328
743.00 0.2327
743.10 0.2326
743.20 0.2325
743.30 0.2324
743.40 0.2323
743.50 0.2321
743.60 0.232
743.70 0.2319
743.80 0.2318
743.90 0.2317
744.00 0.2315
744.10 0.2314
744.20 0.2313
744.30 0.2312
744.40 0.2311
744.50 0.2309
744.60 0.2308
744.70 0.2307
744.80 0.2306
744.90 0.2305
745.00 0.2304
745.10 0.2302
745.20 0.2301
745.30 0.23
745.40 0.2299
745.50 0.2298
745.60 0.2297
745.70 0.2295
745.80 0.2294
745.90 0.2293
746.00 0.2292
746.10 0.2291
746.20 0.2289
746.30 0.2288
746.40 0.2287
746.50 0.2286
746.60 0.2285
746.70 0.2284
746.80 0.2282
746.90 0.2281
747.00 0.228
747.10 0.2279
747.20 0.2278
747.30 0.2277
747.40 0.2275
747.50 0.2274
747.60 0.2273
747.70 0.2272
747.80 0.2271
747.90 0.227
748.00 0.2268
748.10 0.2267
748.20 0.2266
748.30 0.2265
748.40 0.2264
748.50 0.2263
748.60 0.2262
748.70 0.226
748.80 0.2259
748.90 0.2258
749.00 0.2257
749.10 0.2256
749.20 0.2255
749.30 0.2253
749.40 0.2252
749.50 0.2251
749.60 0.225
749.70 0.2249
749.80 0.2248
749.90 0.2247
750.00 0.2245
750.10 0.2244
750.20 0.2243
750.30 0.2242
750.40 0.2241
750.50 0.224
750.60 0.2239
750.70 0.2237
750.80 0.2236
750.90 0.2235
751.00 0.2234
751.10 0.2233
751.20 0.2232
751.30 0.2231
751.40 0.223
751.50 0.2228
751.60 0.2227
751.70 0.2226
751.80 0.2225
751.90 0.2224
752.00 0.2223
752.10 0.2222
752.20 0.2221
752.30 0.2219
752.40 0.2218
752.50 0.2217
752.60 0.2216
752.70 0.2215
752.80 0.2214
752.90 0.2213
753.00 0.2212
753.10 0.2211
753.20 0.2209
753.30 0.2208
753.40 0.2207
753.50 0.2206
753.60 0.2205
753.70 0.2204
753.80 0.2203
753.90 0.2202
754.00 0.2201
754.10 0.2199
754.20 0.2198
754.30 0.2197
754.40 0.2196
754.50 0.2195
754.60 0.2194
754.70 0.2193
754.80 0.2192
754.90 0.2191
755.00 0.2189
755.10 0.2188
755.20 0.2187
755.30 0.2186
755.40 0.2185
755.50 0.2184
755.60 0.2183
755.70 0.2182
755.80 0.2181
755.90 0.2179
756.00 0.2178
756.10 0.2177
756.20 0.2176
756.30 0.2175
756.40 0.2174
756.50 0.2173
756.60 0.2172
756.70 0.2171
756.80 0.217
756.90 0.2168
757.00 0.2167
757.10 0.2166
757.20 0.2165
757.30 0.2164
757.40 0.2163
757.50 0.2162
757.60 0.2161
757.70 0.216
757.80 0.2159
757.90 0.2158
758.00 0.2156
758.10 0.2155
758.20 0.2154
758.30 0.2153
758.40 0.2152
758.50 0.2151
758.60 0.215
758.70 0.2149
758.80 0.2148
758.90 0.2147
759.00 0.2146
759.10 0.2144
759.20 0.2143
759.30 0.2142
759.40 0.2141
759.50 0.214
759.60 0.2139
759.70 0.2138
759.80 0.2137
759.90 0.2136
760.00 0.2135
760.10 0.2134
760.20 0.2133
760.30 0.2132
760.40 0.2131
760.50 0.2129
760.60 0.2128
760.70 0.2127
760.80 0.2126
760.90 0.2125
761.00 0.2124
761.10 0.2123
761.20 0.2122
761.30 0.2121
761.40 0.212
761.50 0.2119
761.60 0.2118
761.70 0.2117
761.80 0.2116
761.90 0.2115
762.00 0.2114
762.10 0.2113
762.20 0.2111
762.30 0.211
762.40 0.2109
762.50 0.2108
762.60 0.2107
762.70 0.2106
762.80 0.2105
762.90 0.2104
763.00 0.2103
763.10 0.2102
763.20 0.2101
763.30 0.21
763.40 0.2099
763.50 0.2098
763.60 0.2097
763.70 0.2096
763.80 0.2095
763.90 0.2094
764.00 0.2093
764.10 0.2092
764.20 0.2091
764.30 0.2089
764.40 0.2088
764.50 0.2087
764.60 0.2086
764.70 0.2085
764.80 0.2084
764.90 0.2083
765.00 0.2082
765.10 0.2081
765.20 0.208
765.30 0.2079
765.40 0.2078
765.50 0.2077
765.60 0.2076
765.70 0.2075
765.80 0.2074
765.90 0.2073
766.00 0.2072
766.10 0.2071
766.20 0.207
766.30 0.2069
766.40 0.2068
766.50 0.2067
766.60 0.2066
766.70 0.2065
766.80 0.2064
766.90 0.2063
767.00 0.2062
767.10 0.206
767.20 0.2059
767.30 0.2058
767.40 0.2057
767.50 0.2056
767.60 0.2055
767.70 0.2054
767.80 0.2053
767.90 0.2052
768.00 0.2051
768.10 0.205
768.20 0.2049
768.30 0.2048
768.40 0.2047
768.50 0.2046
768.60 0.2045
768.70 0.2044
768.80 0.2043
768.90 0.2042
769.00 0.2041
769.10 0.204
769.20 0.2039
769.30 0.2038
769.40 0.2037
769.50 0.2036
769.60 0.2035
769.70 0.2034
769.80 0.2033
769.90 0.2032
770.00 0.2031
770.10 0.203
770.20 0.2029
770.30 0.2028
770.40 0.2027
770.50 0.2026
770.60 0.2025
770.70 0.2024
770.80 0.2023
770.90 0.2022
771.00 0.2021
771.10 0.202
771.20 0.2019
771.30 0.2018
771.40 0.2017
771.50 0.2016
771.60 0.2015
771.70 0.2014
771.80 0.2013
771.90 0.2012
772.00 0.2011
772.10 0.201
772.20 0.2009
772.30 0.2008
772.40 0.2007
772.50 0.2006
772.60 0.2005
772.70 0.2004
772.80 0.2003
772.90 0.2002
773.00 0.2001
773.10 0.2
773.20 0.1999
773.30 0.1998
773.40 0.1997
773.50 0.1996
773.60 0.1995
773.70 0.1994
773.80 0.1993
773.90 0.1992
774.00 0.1991
774.10 0.199
774.20 0.1989
774.30 0.1988
774.40 0.1987
774.50 0.1986
774.60 0.1985
774.70 0.1984
774.80 0.1983
774.90 0.1982
775.00 0.1981
775.10 0.198
775.20 0.1979
775.30 0.1978
775.40 0.1978
775.50 0.1977
775.60 0.1976
775.70 0.1975
775.80 0.1974
775.90 0.1973
776.00 0.1972
776.10 0.1971
776.20 0.197
776.30 0.1969
776.40 0.1968
776.50 0.1967
776.60 0.1966
776.70 0.1965
776.80 0.1964
776.90 0.1963
777.00 0.1962
777.10 0.1961
777.20 0.196
777.30 0.1959
777.40 0.1958
777.50 0.1957
777.60 0.1956
777.70 0.1955
777.80 0.1954
777.90 0.1953
778.00 0.1952
778.10 0.1951
778.20 0.195
778.30 0.1949
778.40 0.1948
778.50 0.1947
778.60 0.1947
778.70 0.1946
778.80 0.1945
778.90 0.1944
779.00 0.1943
779.10 0.1942
779.20 0.1941
779.30 0.194
779.40 0.1939
779.50 0.1938
779.60 0.1937
779.70 0.1936
779.80 0.1935
779.90 0.1934
780.00 0.1933
780.10 0.1932
780.20 0.1931
780.30 0.193
780.40 0.1929
780.50 0.1928
780.60 0.1927
780.70 0.1927
780.80 0.1926
780.90 0.1925
781.00 0.1924
781.10 0.1923
781.20 0.1922
781.30 0.1921
781.40 0.192
781.50 0.1919
781.60 0.1918
781.70 0.1917
781.80 0.1916
781.90 0.1915
782.00 0.1914
782.10 0.1913
782.20 0.1913
782.30 0.1912
782.40 0.1911
782.50 0.191
782.60 0.1909
782.70 0.1908
782.80 0.1907
782.90 0.1906
783.00 0.1905
783.10 0.1904
783.20 0.1903
783.30 0.1902
783.40 0.1901
783.50 0.19
783.60 0.19
783.70 0.1899
783.80 0.1898
783.90 0.1897
784.00 0.1896
784.10 0.1895
784.20 0.1894
784.30 0.1893
784.40 0.1892
784.50 0.1891
784.60 0.189
784.70 0.1889
784.80 0.1888
784.90 0.1888
785.00 0.1887
785.10 0.1886
785.20 0.1885
785.30 0.1884
785.40 0.1883
785.50 0.1882
785.60 0.1881
785.70 0.188
785.80 0.1879
785.90 0.1878
786.00 0.1877
786.10 0.1877
786.20 0.1876
786.30 0.1875
786.40 0.1874
786.50 0.1873
786.60 0.1872
786.70 0.1871
786.80 0.187
786.90 0.1869
787.00 0.1868
787.10 0.1867
787.20 0.1867
787.30 0.1866
787.40 0.1865
787.50 0.1864
787.60 0.1863
787.70 0.1862
787.80 0.1861
787.90 0.186
788.00 0.1859
788.10 0.1858
788.20 0.1857
788.30 0.1857
788.40 0.1856
788.50 0.1855
788.60 0.1854
788.70 0.1853
788.80 0.1852
788.90 0.1851
789.00 0.185
789.10 0.1849
789.20 0.1848
789.30 0.1848
789.40 0.1847
789.50 0.1846
789.60 0.1845
789.70 0.1844
789.80 0.1843
789.90 0.1842
790.00 0.1841
790.10 0.184
790.20 0.1839
790.30 0.1839
790.40 0.1838
790.50 0.1837
790.60 0.1836
790.70 0.1835
790.80 0.1834
790.90 0.1833
791.00 0.1832
791.10 0.1832
791.20 0.1831
791.30 0.183
791.40 0.1829
791.50 0.1828
791.60 0.1827
791.70 0.1826
791.80 0.1825
791.90 0.1824
792.00 0.1824
792.10 0.1823
792.20 0.1822
792.30 0.1821
792.40 0.182
792.50 0.1819
792.60 0.1818
792.70 0.1817
792.80 0.1817
792.90 0.1816
793.00 0.1815
793.10 0.1814
793.20 0.1813
793.30 0.1812
793.40 0.1811
793.50 0.181
793.60 0.181
793.70 0.1809
793.80 0.1808
793.90 0.1807
794.00 0.1806
794.10 0.1805
794.20 0.1804
794.30 0.1804
794.40 0.1803
794.50 0.1802
794.60 0.1801
794.70 0.18
794.80 0.1799
794.90 0.1798
795.00 0.1797
795.10 0.1797
795.20 0.1796
795.30 0.1795
795.40 0.1794
795.50 0.1793
795.60 0.1792
795.70 0.1791
795.80 0.1791
795.90 0.179
796.00 0.1789
796.10 0.1788
796.20 0.1787
796.30 0.1786
796.40 0.1785
796.50 0.1785
796.60 0.1784
796.70 0.1783
796.80 0.1782
796.90 0.1781
797.00 0.178
797.10 0.1779
797.20 0.1779
797.30 0.1778
797.40 0.1777
797.50 0.1776
797.60 0.1775
797.70 0.1774
797.80 0.1773
797.90 0.1773
798.00 0.1772
798.10 0.1771
798.20 0.177
798.30 0.1769
798.40 0.1768
798.50 0.1767
798.60 0.1767
798.70 0.1766
798.80 0.1765
798.90 0.1764
799.00 0.1763
799.10 0.1762
799.20 0.1761
799.30 0.1761
799.40 0.176
799.50 0.1759
799.60 0.1758
799.70 0.1757
799.80 0.1756
799.90 0.1756
800.00 0.1755
800.10 0.1754
800.20 0.1753
800.30 0.1752
800.40 0.1751
800.50 0.1751
800.60 0.175
800.70 0.1749
800.80 0.1748
800.90 0.1747
801.00 0.1746
801.10 0.1746
801.20 0.1745
801.30 0.1744
801.40 0.1743
801.50 0.1742
801.60 0.1741
801.70 0.1741
801.80 0.174
801.90 0.1739
802.00 0.1738
802.10 0.1737
802.20 0.1736
802.30 0.1736
802.40 0.1735
802.50 0.1734
802.60 0.1733
802.70 0.1732
802.80 0.1732
802.90 0.1731
803.00 0.173
803.10 0.1729
803.20 0.1728
803.30 0.1727
803.40 0.1727
803.50 0.1726
803.60 0.1725
803.70 0.1724
803.80 0.1723
803.90 0.1722
804.00 0.1722
804.10 0.1721
804.20 0.172
804.30 0.1719
804.40 0.1718
804.50 0.1718
804.60 0.1717
804.70 0.1716
804.80 0.1715
804.90 0.1714
805.00 0.1713
805.10 0.1713
805.20 0.1712
805.30 0.1711
805.40 0.171
805.50 0.1709
805.60 0.1709
805.70 0.1708
805.80 0.1707
805.90 0.1706
806.00 0.1705
806.10 0.1705
806.20 0.1704
806.30 0.1703
806.40 0.1702
806.50 0.1701
806.60 0.1701
806.70 0.17
806.80 0.1699
806.90 0.1698
807.00 0.1697
807.10 0.1696
807.20 0.1696
807.30 0.1695
807.40 0.1694
807.50 0.1693
807.60 0.1692
807.70 0.1692
807.80 0.1691
807.90 0.169
808.00 0.1689
808.10 0.1688
808.20 0.1688
808.30 0.1687
808.40 0.1686
808.50 0.1685
808.60 0.1684
808.70 0.1684
808.80 0.1683
808.90 0.1682
809.00 0.1681
809.10 0.168
809.20 0.168
809.30 0.1679
809.40 0.1678
809.50 0.1677
809.60 0.1676
809.70 0.1676
809.80 0.1675
809.90 0.1674
810.00 0.1673
810.10 0.1672
810.20 0.1672
810.30 0.1671
810.40 0.167
810.50 0.1669
810.60 0.1668
810.70 0.1668
810.80 0.1667
810.90 0.1666
811.00 0.1665
811.10 0.1665
811.20 0.1664
811.30 0.1663
811.40 0.1662
811.50 0.1661
811.60 0.1661
811.70 0.166
811.80 0.1659
811.90 0.1658
812.00 0.1658
812.10 0.1657
812.20 0.1656
812.30 0.1655
812.40 0.1654
812.50 0.1654
812.60 0.1653
812.70 0.1652
812.80 0.1651
812.90 0.1651
813.00 0.165
813.10 0.1649
813.20 0.1648
813.30 0.1647
813.40 0.1647
813.50 0.1646
813.60 0.1645
813.70 0.1644
813.80 0.1644
813.90 0.1643
814.00 0.1642
814.10 0.1641
814.20 0.1641
814.30 0.164
814.40 0.1639
814.50 0.1638
814.60 0.1637
814.70 0.1637
814.80 0.1636
814.90 0.1635
815.00 0.1634
815.10 0.1634
815.20 0.1633
815.30 0.1632
815.40 0.1631
815.50 0.1631
815.60 0.163
815.70 0.1629
815.80 0.1628
815.90 0.1628
816.00 0.1627
816.10 0.1626
816.20 0.1625
816.30 0.1624
816.40 0.1624
816.50 0.1623
816.60 0.1622
816.70 0.1621
816.80 0.1621
816.90 0.162
817.00 0.1619
817.10 0.1618
817.20 0.1618
817.30 0.1617
817.40 0.1616
817.50 0.1615
817.60 0.1615
817.70 0.1614
817.80 0.1613
817.90 0.1612
818.00 0.1612
818.10 0.1611
818.20 0.161
818.30 0.1609
818.40 0.1608
818.50 0.1608
818.60 0.1607
818.70 0.1606
818.80 0.1605
818.90 0.1605
819.00 0.1604
819.10 0.1603
819.20 0.1602
819.30 0.1602
819.40 0.1601
819.50 0.16
819.60 0.1599
819.70 0.1599
819.80 0.1598
819.90 0.1597
820.00 0.1596
820.10 0.1596
820.20 0.1595
820.30 0.1594
820.40 0.1593
820.50 0.1593
820.60 0.1592
820.70 0.1591
820.80 0.159
820.90 0.159
821.00 0.1589
821.10 0.1588
821.20 0.1588
821.30 0.1587
821.40 0.1586
821.50 0.1585
821.60 0.1585
821.70 0.1584
821.80 0.1583
821.90 0.1582
822.00 0.1582
822.10 0.1581
822.20 0.158
822.30 0.1579
822.40 0.1579
822.50 0.1578
822.60 0.1577
822.70 0.1576
822.80 0.1576
822.90 0.1575
823.00 0.1574
823.10 0.1574
823.20 0.1573
823.30 0.1572
823.40 0.1571
823.50 0.1571
823.60 0.157
823.70 0.1569
823.80 0.1568
823.90 0.1568
824.00 0.1567
824.10 0.1566
824.20 0.1566
824.30 0.1565
824.40 0.1564
824.50 0.1563
824.60 0.1563
824.70 0.1562
824.80 0.1561
824.90 0.156
825.00 0.156
825.10 0.1559
825.20 0.1558
825.30 0.1558
825.40 0.1557
825.50 0.1556
825.60 0.1555
825.70 0.1555
825.80 0.1554
825.90 0.1553
826.00 0.1552
826.10 0.1552
826.20 0.1551
826.30 0.155
826.40 0.155
826.50 0.1549
826.60 0.1548
826.70 0.1547
826.80 0.1547
826.90 0.1546
827.00 0.1545
827.10 0.1545
827.20 0.1544
827.30 0.1543
827.40 0.1542
827.50 0.1542
827.60 0.1541
827.70 0.154
827.80 0.154
827.90 0.1539
828.00 0.1538
828.10 0.1537
828.20 0.1537
828.30 0.1536
828.40 0.1535
828.50 0.1535
828.60 0.1534
828.70 0.1533
828.80 0.1532
828.90 0.1532
829.00 0.1531
829.10 0.153
829.20 0.153
829.30 0.1529
829.40 0.1528
829.50 0.1528
829.60 0.1527
829.70 0.1526
829.80 0.1525
829.90 0.1525
830.00 0.1524
830.10 0.1523
830.20 0.1523
830.30 0.1522
830.40 0.1521
830.50 0.152
830.60 0.152
830.70 0.1519
830.80 0.1518
830.90 0.1518
831.00 0.1517
831.10 0.1516
831.20 0.1516
831.30 0.1515
831.40 0.1514
831.50 0.1513
831.60 0.1513
831.70 0.1512
831.80 0.1511
831.90 0.1511
832.00 0.151
832.10 0.1509
832.20 0.1509
832.30 0.1508
832.40 0.1507
832.50 0.1506
832.60 0.1506
832.70 0.1505
832.80 0.1504
832.90 0.1504
833.00 0.1503
833.10 0.1502
833.20 0.1502
833.30 0.1501
833.40 0.15
833.50 0.15
833.60 0.1499
833.70 0.1498
833.80 0.1497
833.90 0.1497
834.00 0.1496
834.10 0.1495
834.20 0.1495
834.30 0.1494
834.40 0.1493
834.50 0.1493
834.60 0.1492
834.70 0.1491
834.80 0.1491
834.90 0.149
835.00 0.1489
835.10 0.1488
835.20 0.1488
835.30 0.1487
835.40 0.1486
835.50 0.1486
835.60 0.1485
835.70 0.1484
835.80 0.1484
835.90 0.1483
836.00 0.1482
836.10 0.1482
836.20 0.1481
836.30 0.148
836.40 0.148
836.50 0.1479
836.60 0.1478
836.70 0.1477
836.80 0.1477
836.90 0.1476
837.00 0.1475
837.10 0.1475
837.20 0.1474
837.30 0.1473
837.40 0.1473
837.50 0.1472
837.60 0.1471
837.70 0.1471
837.80 0.147
837.90 0.1469
838.00 0.1469
838.10 0.1468
838.20 0.1467
838.30 0.1467
838.40 0.1466
838.50 0.1465
838.60 0.1465
838.70 0.1464
838.80 0.1463
838.90 0.1463
839.00 0.1462
839.10 0.1461
839.20 0.1461
839.30 0.146
839.40 0.1459
839.50 0.1459
839.60 0.1458
839.70 0.1457
839.80 0.1456
839.90 0.1456
840.00 0.1455
840.10 0.1454
840.20 0.1454
840.30 0.1453
840.40 0.1452
840.50 0.1452
840.60 0.1451
840.70 0.145
840.80 0.145
840.90 0.1449
841.00 0.1448
841.10 0.1448
841.20 0.1447
841.30 0.1446
841.40 0.1446
841.50 0.1445
841.60 0.1444
841.70 0.1444
841.80 0.1443
841.90 0.1442
842.00 0.1442
842.10 0.1441
842.20 0.144
842.30 0.144
842.40 0.1439
842.50 0.1438
842.60 0.1438
842.70 0.1437
842.80 0.1436
842.90 0.1436
843.00 0.1435
843.10 0.1434
843.20 0.1434
843.30 0.1433
843.40 0.1432
843.50 0.1432
843.60 0.1431
843.70 0.143
843.80 0.143
843.90 0.1429
844.00 0.1429
844.10 0.1428
844.20 0.1427
844.30 0.1427
844.40 0.1426
844.50 0.1425
844.60 0.1425
844.70 0.1424
844.80 0.1423
844.90 0.1423
845.00 0.1422
845.10 0.1421
845.20 0.1421
845.30 0.142
845.40 0.1419
845.50 0.1419
845.60 0.1418
845.70 0.1417
845.80 0.1417
845.90 0.1416
846.00 0.1415
846.10 0.1415
846.20 0.1414
846.30 0.1413
846.40 0.1413
846.50 0.1412
846.60 0.1411
846.70 0.1411
846.80 0.141
846.90 0.1409
847.00 0.1409
847.10 0.1408
847.20 0.1408
847.30 0.1407
847.40 0.1406
847.50 0.1406
847.60 0.1405
847.70 0.1404
847.80 0.1404
847.90 0.1403
848.00 0.1402
848.10 0.1402
848.20 0.1401
848.30 0.14
848.40 0.14
848.50 0.1399
848.60 0.1398
848.70 0.1398
848.80 0.1397
848.90 0.1397
849.00 0.1396
849.10 0.1395
849.20 0.1395
849.30 0.1394
849.40 0.1393
849.50 0.1393
849.60 0.1392
849.70 0.1391
849.80 0.1391
849.90 0.139
850.00 0.1389
850.10 0.1389
850.20 0.1388
850.30 0.1388
850.40 0.1387
850.50 0.1386
850.60 0.1386
850.70 0.1385
850.80 0.1384
850.90 0.1384
851.00 0.1383
851.10 0.1382
851.20 0.1382
851.30 0.1381
851.40 0.1381
851.50 0.138
851.60 0.1379
851.70 0.1379
851.80 0.1378
851.90 0.1377
852.00 0.1377
852.10 0.1376
852.20 0.1375
852.30 0.1375
852.40 0.1374
852.50 0.1374
852.60 0.1373
852.70 0.1372
852.80 0.1372
852.90 0.1371
853.00 0.137
853.10 0.137
853.20 0.1369
853.30 0.1369
853.40 0.1368
853.50 0.1367
853.60 0.1367
853.70 0.1366
853.80 0.1365
853.90 0.1365
854.00 0.1364
854.10 0.1364
854.20 0.1363
854.30 0.1362
854.40 0.1362
854.50 0.1361
854.60 0.136
854.70 0.136
854.80 0.1359
854.90 0.1359
855.00 0.1358
855.10 0.1357
855.20 0.1357
855.30 0.1356
855.40 0.1356
855.50 0.1355
855.60 0.1354
855.70 0.1354
855.80 0.1353
855.90 0.1352
856.00 0.1352
856.10 0.1351
856.20 0.1351
856.30 0.135
856.40 0.1349
856.50 0.1349
856.60 0.1348
856.70 0.1347
856.80 0.1347
856.90 0.1346
857.00 0.1346
857.10 0.1345
857.20 0.1344
857.30 0.1344
857.40 0.1343
857.50 0.1343
857.60 0.1342
857.70 0.1342
857.80 0.1341
857.90 0.134
858.00 0.134
858.10 0.1339
858.20 0.1339
858.30 0.1338
858.40 0.1337
858.50 0.1337
858.60 0.1336
858.70 0.1336
858.80 0.1335
858.90 0.1335
859.00 0.1334
859.10 0.1333
859.20 0.1333
859.30 0.1332
859.40 0.1332
859.50 0.1331
859.60 0.133
859.70 0.133
859.80 0.1329
859.90 0.1329
860.00 0.1328
860.10 0.1328
860.20 0.1327
860.30 0.1326
860.40 0.1326
860.50 0.1325
860.60 0.1325
860.70 0.1324
860.80 0.1324
860.90 0.1323
861.00 0.1322
861.10 0.1322
861.20 0.1321
861.30 0.1321
861.40 0.132
861.50 0.1319
861.60 0.1319
861.70 0.1318
861.80 0.1318
861.90 0.1317
862.00 0.1317
862.10 0.1316
862.20 0.1315
862.30 0.1315
862.40 0.1314
862.50 0.1314
862.60 0.1313
862.70 0.1312
862.80 0.1312
862.90 0.1311
863.00 0.1311
863.10 0.131
863.20 0.1309
863.30 0.1309
863.40 0.1308
863.50 0.1308
863.60 0.1307
863.70 0.1306
863.80 0.1306
863.90 0.1305
864.00 0.1305
864.10 0.1304
864.20 0.1303
864.30 0.1303
864.40 0.1302
864.50 0.1302
864.60 0.1301
864.70 0.1301
864.80 0.13
864.90 0.1299
865.00 0.1299
865.10 0.1298
865.20 0.1298
865.30 0.1297
865.40 0.1296
865.50 0.1296
865.60 0.1295
865.70 0.1295
865.80 0.1294
865.90 0.1293
866.00 0.1293
866.10 0.1292
866.20 0.1292
866.30 0.1291
866.40 0.1291
866.50 0.129
866.60 0.1289
866.70 0.1289
866.80 0.1288
866.90 0.1288
867.00 0.1287
867.10 0.1286
867.20 0.1286
867.30 0.1285
867.40 0.1285
867.50 0.1284
867.60 0.1284
867.70 0.1283
867.80 0.1282
867.90 0.1282
868.00 0.1281
868.10 0.1281
868.20 0.128
868.30 0.128
868.40 0.1279
868.50 0.1278
868.60 0.1278
868.70 0.1277
868.80 0.1277
868.90 0.1276
869.00 0.1276
869.10 0.1275
869.20 0.1274
869.30 0.1274
869.40 0.1273
869.50 0.1273
869.60 0.1272
869.70 0.1272
869.80 0.1271
869.90 0.1271
870.00 0.127
870.10 0.1269
870.20 0.1269
870.30 0.1268
870.40 0.1268
870.50 0.1267
870.60 0.1267
870.70 0.1266
870.80 0.1265
870.90 0.1265
871.00 0.1264
871.10 0.1264
871.20 0.1263
871.30 0.1263
871.40 0.1262
871.50 0.1262
871.60 0.1261
871.70 0.126
871.80 0.126
871.90 0.1259
872.00 0.1259
872.10 0.1258
872.20 0.1258
872.30 0.1257
872.40 0.1256
872.50 0.1256
872.60 0.1255
872.70 0.1255
872.80 0.1254
872.90 0.1254
873.00 0.1253
873.10 0.1253
873.20 0.1252
873.30 0.1251
873.40 0.1251
873.50 0.125
873.60 0.125
873.70 0.1249
873.80 0.1249
873.90 0.1248
874.00 0.1248
874.10 0.1247
874.20 0.1246
874.30 0.1246
874.40 0.1245
874.50 0.1245
874.60 0.1244
874.70 0.1244
874.80 0.1243
874.90 0.1242
875.00 0.1242
875.10 0.1241
875.20 0.1241
875.30 0.124
875.40 0.124
875.50 0.1239
875.60 0.1239
875.70 0.1238
875.80 0.1238
875.90 0.1237
876.00 0.1236
876.10 0.1236
876.20 0.1235
876.30 0.1235
876.40 0.1234
876.50 0.1234
876.60 0.1233
876.70 0.1233
876.80 0.1232
876.90 0.1231
877.00 0.1231
877.10 0.123
877.20 0.123
877.30 0.1229
877.40 0.1229
877.50 0.1228
877.60 0.1228
877.70 0.1227
877.80 0.1227
877.90 0.1226
878.00 0.1225
878.10 0.1225
878.20 0.1224
878.30 0.1224
878.40 0.1223
878.50 0.1223
878.60 0.1222
878.70 0.1222
878.80 0.1221
878.90 0.1221
879.00 0.122
879.10 0.122
879.20 0.1219
879.30 0.1219
879.40 0.1218
879.50 0.1217
879.60 0.1217
879.70 0.1216
879.80 0.1216
879.90 0.1215
880.00 0.1215
880.10 0.1214
880.20 0.1214
880.30 0.1213
880.40 0.1213
880.50 0.1212
880.60 0.1212
880.70 0.1211
880.80 0.1211
880.90 0.121
881.00 0.1209
881.10 0.1209
881.20 0.1208
881.30 0.1208
881.40 0.1207
881.50 0.1207
881.60 0.1206
881.70 0.1206
881.80 0.1205
881.90 0.1205
882.00 0.1204
882.10 0.1204
882.20 0.1203
882.30 0.1203
882.40 0.1202
882.50 0.1202
882.60 0.1201
882.70 0.12
882.80 0.12
882.90 0.1199
883.00 0.1199
883.10 0.1198
883.20 0.1198
883.30 0.1197
883.40 0.1197
883.50 0.1196
883.60 0.1196
883.70 0.1195
883.80 0.1195
883.90 0.1194
884.00 0.1194
884.10 0.1193
884.20 0.1193
884.30 0.1192
884.40 0.1192
884.50 0.1191
884.60 0.1191
884.70 0.119
884.80 0.1189
884.90 0.1189
885.00 0.1188
885.10 0.1188
885.20 0.1187
885.30 0.1187
885.40 0.1186
885.50 0.1186
885.60 0.1185
885.70 0.1185
885.80 0.1184
885.90 0.1184
886.00 0.1183
886.10 0.1183
886.20 0.1182
886.30 0.1182
886.40 0.1181
886.50 0.1181
886.60 0.118
886.70 0.118
886.80 0.1179
886.90 0.1179
887.00 0.1178
887.10 0.1178
887.20 0.1177
887.30 0.1177
887.40 0.1176
887.50 0.1175
887.60 0.1175
887.70 0.1174
887.80 0.1174
887.90 0.1173
888.00 0.1173
888.10 0.1172
888.20 0.1172
888.30 0.1171
888.40 0.1171
888.50 0.117
888.60 0.117
888.70 0.1169
888.80 0.1169
888.90 0.1168
889.00 0.1168
889.10 0.1167
889.20 0.1167
889.30 0.1166
889.40 0.1166
889.50 0.1165
889.60 0.1165
889.70 0.1164
889.80 0.1164
889.90 0.1163
890.00 0.1163
890.10 0.1162
890.20 0.1162
890.30 0.1161
890.40 0.1161
890.50 0.116
890.60 0.116
890.70 0.1159
890.80 0.1159
890.90 0.1158
891.00 0.1158
891.10 0.1157
891.20 0.1157
891.30 0.1156
891.40 0.1156
891.50 0.1155
891.60 0.1155
891.70 0.1154
891.80 0.1154
891.90 0.1153
892.00 0.1153
892.10 0.1152
892.20 0.1152
892.30 0.1151
892.40 0.1151
892.50 0.115
892.60 0.115
892.70 0.1149
892.80 0.1149
892.90 0.1148
893.00 0.1148
893.10 0.1147
893.20 0.1147
893.30 0.1146
893.40 0.1146
893.50 0.1145
893.60 0.1145
893.70 0.1144
893.80 0.1144
893.90 0.1143
894.00 0.1143
894.10 0.1142
894.20 0.1142
894.30 0.1142
894.40 0.1141
894.50 0.1141
894.60 0.114
894.70 0.114
894.80 0.1139
894.90 0.1139
895.00 0.1138
895.10 0.1138
895.20 0.1137
895.30 0.1137
895.40 0.1136
895.50 0.1136
895.60 0.1135
895.70 0.1135
895.80 0.1134
895.90 0.1134
896.00 0.1133
896.10 0.1133
896.20 0.1132
896.30 0.1132
896.40 0.1131
896.50 0.1131
896.60 0.113
896.70 0.113
896.80 0.1129
896.90 0.1129
897.00 0.1128
897.10 0.1128
897.20 0.1127
897.30 0.1127
897.40 0.1126
897.50 0.1126
897.60 0.1125
897.70 0.1125
897.80 0.1124
897.90 0.1124
898.00 0.1124
898.10 0.1123
898.20 0.1123
898.30 0.1122
898.40 0.1122
898.50 0.1121
898.60 0.1121
898.70 0.112
898.80 0.112
898.90 0.1119
899.00 0.1119
899.10 0.1118
899.20 0.1118
899.30 0.1117
899.40 0.1117
899.50 0.1116
899.60 0.1116
899.70 0.1115
899.80 0.1115
899.90 0.1114
900.00 0.1114
900.10 0.1113
900.20 0.1113
900.30 0.1113
900.40 0.1112
900.50 0.1112
900.60 0.1111
900.70 0.1111
900.80 0.111
900.90 0.111
901.00 0.1109
901.10 0.1109
901.20 0.1108
901.30 0.1108
901.40 0.1107
901.50 0.1107
901.60 0.1106
901.70 0.1106
901.80 0.1105
901.90 0.1105
902.00 0.1104
902.10 0.1104
902.20 0.1104
902.30 0.1103
902.40 0.1103
902.50 0.1102
902.60 0.1102
902.70 0.1101
902.80 0.1101
902.90 0.11
903.00 0.11
903.10 0.1099
903.20 0.1099
903.30 0.1098
903.40 0.1098
903.50 0.1098
903.60 0.1097
903.70 0.1097
903.80 0.1096
903.90 0.1096
904.00 0.1095
904.10 0.1095
904.20 0.1094
904.30 0.1094
904.40 0.1093
904.50 0.1093
904.60 0.1092
904.70 0.1092
904.80 0.1092
904.90 0.1091
905.00 0.1091
905.10 0.109
905.20 0.109
905.30 0.1089
905.40 0.1089
905.50 0.1088
905.60 0.1088
905.70 0.1087
905.80 0.1087
905.90 0.1087
906.00 0.1086
906.10 0.1086
906.20 0.1085
906.30 0.1085
906.40 0.1084
906.50 0.1084
906.60 0.1083
906.70 0.1083
906.80 0.1082
906.90 0.1082
907.00 0.1081
907.10 0.1081
907.20 0.1081
907.30 0.108
907.40 0.108
907.50 0.1079
907.60 0.1079
907.70 0.1078
907.80 0.1078
907.90 0.1077
908.00 0.1077
908.10 0.1077
908.20 0.1076
908.30 0.1076
908.40 0.1075
908.50 0.1075
908.60 0.1074
908.70 0.1074
908.80 0.1073
908.90 0.1073
909.00 0.1072
909.10 0.1072
909.20 0.1072
909.30 0.1071
909.40 0.1071
909.50 0.107
909.60 0.107
909.70 0.1069
909.80 0.1069
909.90 0.1068
910.00 0.1068
910.10 0.1068
910.20 0.1067
910.30 0.1067
910.40 0.1066
910.50 0.1066
910.60 0.1065
910.70 0.1065
910.80 0.1064
910.90 0.1064
911.00 0.1064
911.10 0.1063
911.20 0.1063
911.30 0.1062
911.40 0.1062
911.50 0.1061
911.60 0.1061
911.70 0.106
911.80 0.106
911.90 0.106
912.00 0.1059
912.10 0.1059
912.20 0.1058
912.30 0.1058
912.40 0.1057
912.50 0.1057
912.60 0.1056
912.70 0.1056
912.80 0.1056
912.90 0.1055
913.00 0.1055
913.10 0.1054
913.20 0.1054
913.30 0.1053
913.40 0.1053
913.50 0.1052
913.60 0.1052
913.70 0.1052
913.80 0.1051
913.90 0.1051
914.00 0.105
914.10 0.105
914.20 0.1049
914.30 0.1049
914.40 0.1048
914.50 0.1048
914.60 0.1048
914.70 0.1047
914.80 0.1047
914.90 0.1046
915.00 0.1046
915.10 0.1045
915.20 0.1045
915.30 0.1045
915.40 0.1044
915.50 0.1044
915.60 0.1043
915.70 0.1043
915.80 0.1042
915.90 0.1042
916.00 0.1041
916.10 0.1041
916.20 0.1041
916.30 0.104
916.40 0.104
916.50 0.1039
916.60 0.1039
916.70 0.1038
916.80 0.1038
916.90 0.1038
917.00 0.1037
917.10 0.1037
917.20 0.1036
917.30 0.1036
917.40 0.1035
917.50 0.1035
917.60 0.1035
917.70 0.1034
917.80 0.1034
917.90 0.1033
918.00 0.1033
918.10 0.1032
918.20 0.1032
918.30 0.1032
918.40 0.1031
918.50 0.1031
918.60 0.103
918.70 0.103
918.80 0.1029
918.90 0.1029
919.00 0.1029
919.10 0.1028
919.20 0.1028
919.30 0.1027
919.40 0.1027
919.50 0.1026
919.60 0.1026
919.70 0.1026
919.80 0.1025
919.90 0.1025
920.00 0.1024
920.10 0.1024
920.20 0.1023
920.30 0.1023
920.40 0.1023
920.50 0.1022
920.60 0.1022
920.70 0.1021
920.80 0.1021
920.90 0.102
921.00 0.102
921.10 0.102
921.20 0.1019
921.30 0.1019
921.40 0.1018
921.50 0.1018
921.60 0.1017
921.70 0.1017
921.80 0.1017
921.90 0.1016
922.00 0.1016
922.10 0.1015
922.20 0.1015
922.30 0.1014
922.40 0.1014
922.50 0.1014
922.60 0.1013
922.70 0.1013
922.80 0.1012
922.90 0.1012
923.00 0.1012
923.10 0.1011
923.20 0.1011
923.30 0.101
923.40 0.101
923.50 0.101
923.60 0.1009
923.70 0.1009
923.80 0.1008
923.90 0.1008
924.00 0.1008
924.10 0.1007
924.20 0.1007
924.30 0.1006
924.40 0.1006
924.50 0.1006
924.60 0.1005
924.70 0.1005
924.80 0.1004
924.90 0.1004
925.00 0.1004
925.10 0.1003
925.20 0.1003
925.30 0.1002
925.40 0.1002
925.50 0.1001
925.60 0.1001
925.70 0.1001
925.80 0.1
925.90 0.09999
926.00 0.09995
926.10 0.09991
926.20 0.09987
926.30 0.09983
926.40 0.09979
926.50 0.09975
926.60 0.09971
926.70 0.09967
926.80 0.09962
926.90 0.09958
927.00 0.09954
927.10 0.0995
927.20 0.09947
927.30 0.09943
927.40 0.09939
927.50 0.09935
927.60 0.09931
927.70 0.09927
927.80 0.09923
927.90 0.09919
928.00 0.09915
928.10 0.09911
928.20 0.09907
928.30 0.09903
928.40 0.09899
928.50 0.09895
928.60 0.09891
928.70 0.09887
928.80 0.09883
928.90 0.09879
929.00 0.09875
929.10 0.09871
929.20 0.09867
929.30 0.09863
929.40 0.09859
929.50 0.09855
929.60 0.09852
929.70 0.09848
929.80 0.09844
929.90 0.0984
930.00 0.09836
930.10 0.09832
930.20 0.09828
930.30 0.09824
930.40 0.0982
930.50 0.09816
930.60 0.09812
930.70 0.09808
930.80 0.09804
930.90 0.098
931.00 0.09797
931.10 0.09793
931.20 0.09789
931.30 0.09785
931.40 0.09781
931.50 0.09777
931.60 0.09773
931.70 0.09769
931.80 0.09765
931.90 0.09761
932.00 0.09757
932.10 0.09754
932.20 0.0975
932.30 0.09746
932.40 0.09742
932.50 0.09738
932.60 0.09734
932.70 0.0973
932.80 0.09726
932.90 0.09722
933.00 0.09718
933.10 0.09714
933.20 0.0971
933.30 0.09707
933.40 0.09703
933.50 0.09699
933.60 0.09695
933.70 0.09691
933.80 0.09687
933.90 0.09683
934.00 0.09679
934.10 0.09675
934.20 0.09671
934.30 0.09668
934.40 0.09664
934.50 0.0966
934.60 0.09656
934.70 0.09652
934.80 0.09648
934.90 0.09644
935.00 0.0964
935.10 0.09636
935.20 0.09632
935.30 0.09628
935.40 0.09624
935.50 0.09621
935.60 0.09617
935.70 0.09613
935.80 0.09609
935.90 0.09605
936.00 0.09601
936.10 0.09597
936.20 0.09593
936.30 0.09589
936.40 0.09585
936.50 0.09582
936.60 0.09578
936.70 0.09574
936.80 0.0957
936.90 0.09566
937.00 0.09562
937.10 0.09558
937.20 0.09554
937.30 0.0955
937.40 0.09547
937.50 0.09543
937.60 0.09539
937.70 0.09535
937.80 0.09531
937.90 0.09527
938.00 0.09523
938.10 0.09519
938.20 0.09515
938.30 0.09511
938.40 0.09508
938.50 0.09504
938.60 0.095
938.70 0.09496
938.80 0.09492
938.90 0.09488
939.00 0.09484
939.10 0.0948
939.20 0.09476
939.30 0.09472
939.40 0.09468
939.50 0.09465
939.60 0.09461
939.70 0.09457
939.80 0.09453
939.90 0.09449
940.00 0.09445
940.10 0.09441
940.20 0.09437
940.30 0.09433
940.40 0.0943
940.50 0.09426
940.60 0.09422
940.70 0.09418
940.80 0.09414
940.90 0.0941
941.00 0.09406
941.10 0.09402
941.20 0.09398
941.30 0.09394
941.40 0.09391
941.50 0.09387
941.60 0.09383
941.70 0.09379
941.80 0.09375
941.90 0.09371
942.00 0.09367
942.10 0.09363
942.20 0.09359
942.30 0.09356
942.40 0.09352
942.50 0.09348
942.60 0.09344
942.70 0.0934
942.80 0.09336
942.90 0.09332
943.00 0.09328
943.10 0.09324
943.20 0.0932
943.30 0.09317
943.40 0.09313
943.50 0.09309
943.60 0.09305
943.70 0.09301
943.80 0.09297
943.90 0.09293
944.00 0.09289
944.10 0.09285
944.20 0.09282
944.30 0.09278
944.40 0.09274
944.50 0.0927
944.60 0.09266
944.70 0.09262
944.80 0.09258
944.90 0.09254
945.00 0.0925
945.10 0.09247
945.20 0.09243
945.30 0.09239
945.40 0.09235
945.50 0.09231
945.60 0.09227
945.70 0.09223
945.80 0.09219
945.90 0.09215
946.00 0.09212
946.10 0.09208
946.20 0.09204
946.30 0.092
946.40 0.09196
946.50 0.09192
946.60 0.09188
946.70 0.09184
946.80 0.09181
946.90 0.09177
947.00 0.09173
947.10 0.09169
947.20 0.09165
947.30 0.09161
947.40 0.09157
947.50 0.09153
947.60 0.09149
947.70 0.09146
947.80 0.09142
947.90 0.09138
948.00 0.09134
948.10 0.0913
948.20 0.09126
948.30 0.09122
948.40 0.09118
948.50 0.09115
948.60 0.09111
948.70 0.09107
948.80 0.09103
948.90 0.09099
949.00 0.09095
949.10 0.09091
949.20 0.09088
949.30 0.09084
949.40 0.0908
949.50 0.09076
949.60 0.09072
949.70 0.09068
949.80 0.09065
949.90 0.09061
950.00 0.09057
950.10 0.09053
950.20 0.09049
950.30 0.09045
950.40 0.09042
950.50 0.09038
950.60 0.09034
950.70 0.0903
950.80 0.09026
950.90 0.09022
951.00 0.09019
951.10 0.09015
951.20 0.09011
951.30 0.09007
951.40 0.09003
951.50 0.08999
951.60 0.08996
951.70 0.08992
951.80 0.08988
951.90 0.08984
952.00 0.08981
952.10 0.08977
952.20 0.08973
952.30 0.08969
952.40 0.08965
952.50 0.08962
952.60 0.08958
952.70 0.08954
952.80 0.0895
952.90 0.08947
953.00 0.08943
953.10 0.08939
953.20 0.08936
953.30 0.08932
953.40 0.08928
953.50 0.08925
953.60 0.08921
953.70 0.08917
953.80 0.08914
953.90 0.0891
954.00 0.08906
954.10 0.08903
954.20 0.08899
954.30 0.08896
954.40 0.08892
954.50 0.08889
954.60 0.08885
954.70 0.08882
954.80 0.08878
954.90 0.08875
955.00 0.08872
955.10 0.08868
955.20 0.08865
955.30 0.08862
955.40 0.08858
955.50 0.08855
955.60 0.08852
955.70 0.08849
955.80 0.08845
955.90 0.08842
956.00 0.08839
956.10 0.08836
956.20 0.08833
956.30 0.0883
956.40 0.08826
956.50 0.08823
956.60 0.0882
956.70 0.08817
956.80 0.08814
956.90 0.0881
957.00 0.08807
957.10 0.08804
957.20 0.08801
957.30 0.08798
957.40 0.08795
957.50 0.08792
957.60 0.08789
957.70 0.08785
957.80 0.08782
957.90 0.08779
958.00 0.08776
958.10 0.08773
958.20 0.0877
958.30 0.08767
958.40 0.08764
958.50 0.08761
958.60 0.08757
958.70 0.08754
958.80 0.08751
958.90 0.08748
959.00 0.08745
959.10 0.08742
959.20 0.08739
959.30 0.08736
959.40 0.08733
959.50 0.0873
959.60 0.08726
959.70 0.08723
959.80 0.0872
959.90 0.08717
960.00 0.08714
960.10 0.08711
960.20 0.08708
960.30 0.08705
960.40 0.08702
960.50 0.08699
960.60 0.08696
960.70 0.08692
960.80 0.08689
960.90 0.08686
961.00 0.08683
961.10 0.0868
961.20 0.08677
961.30 0.08674
961.40 0.08671
961.50 0.08668
961.60 0.08665
961.70 0.08662
961.80 0.08659
961.90 0.08655
962.00 0.08652
962.10 0.08649
962.20 0.08646
962.30 0.08643
962.40 0.0864
962.50 0.08637
962.60 0.08634
962.70 0.08631
962.80 0.08628
962.90 0.08625
963.00 0.08621
963.10 0.08618
963.20 0.08615
963.30 0.08612
963.40 0.08609
963.50 0.08606
963.60 0.08603
963.70 0.086
963.80 0.08597
963.90 0.08594
964.00 0.08591
964.10 0.08587
964.20 0.08584
964.30 0.08581
964.40 0.08578
964.50 0.08575
964.60 0.08572
964.70 0.08569
964.80 0.08566
964.90 0.08563
965.00 0.08559
965.10 0.08556
965.20 0.08553
965.30 0.0855
965.40 0.08547
965.50 0.08544
965.60 0.08541
965.70 0.08538
965.80 0.08535
965.90 0.08531
966.00 0.08528
966.10 0.08525
966.20 0.08522
966.30 0.08519
966.40 0.08516
966.50 0.08513
966.60 0.0851
966.70 0.08506
966.80 0.08503
966.90 0.085
967.00 0.08497
967.10 0.08494
967.20 0.08491
967.30 0.08488
967.40 0.08485
967.50 0.08481
967.60 0.08478
967.70 0.08475
967.80 0.08472
967.90 0.08469
968.00 0.08466
968.10 0.08463
968.20 0.08459
968.30 0.08456
968.40 0.08453
968.50 0.0845
968.60 0.08447
968.70 0.08444
968.80 0.0844
968.90 0.08437
969.00 0.08434
969.10 0.08431
969.20 0.08428
969.30 0.08425
969.40 0.08422
969.50 0.08418
969.60 0.08415
969.70 0.08412
969.80 0.08409
969.90 0.08406
970.00 0.08403
970.10 0.08399
970.20 0.08396
970.30 0.08393
970.40 0.0839
970.50 0.08387
970.60 0.08384
970.70 0.0838
970.80 0.08377
970.90 0.08374
971.00 0.08371
971.10 0.08368
971.20 0.08364
971.30 0.08361
971.40 0.08358
971.50 0.08355
971.60 0.08352
971.70 0.08349
971.80 0.08345
971.90 0.08342
972.00 0.08339
972.10 0.08336
972.20 0.08333
972.30 0.08329
972.40 0.08326
972.50 0.08323
972.60 0.0832
972.70 0.08316
972.80 0.08313
972.90 0.0831
973.00 0.08307
973.10 0.08304
973.20 0.083
973.30 0.08297
973.40 0.08294
973.50 0.08291
973.60 0.08288
973.70 0.08284
973.80 0.08281
973.90 0.08278
974.00 0.08275
974.10 0.08271
974.20 0.08268
974.30 0.08265
974.40 0.08262
974.50 0.08259
974.60 0.08255
974.70 0.08252
974.80 0.08249
974.90 0.08245
975.00 0.08242
975.10 0.08239
975.20 0.08236
975.30 0.08232
975.40 0.08229
975.50 0.08226
975.60 0.08223
975.70 0.08219
975.80 0.08216
975.90 0.08213
976.00 0.0821
976.10 0.08206
976.20 0.08203
976.30 0.082
976.40 0.08197
976.50 0.08193
976.60 0.0819
976.70 0.08187
976.80 0.08184
976.90 0.0818
977.00 0.08177
977.10 0.08174
977.20 0.08171
977.30 0.08167
977.40 0.08164
977.50 0.0816
977.60 0.08157
977.70 0.08154
977.80 0.0815
977.90 0.08147
978.00 0.08144
978.10 0.0814
978.20 0.08137
978.30 0.08134
978.40 0.0813
978.50 0.08127
978.60 0.08124
978.70 0.0812
978.80 0.08117
978.90 0.08114
979.00 0.0811
979.10 0.08107
979.20 0.08104
979.30 0.081
979.40 0.08097
979.50 0.08094
979.60 0.08091
979.70 0.08087
979.80 0.08084
979.90 0.08081
980.00 0.08077
980.10 0.08074
980.20 0.08071
980.30 0.08067
980.40 0.08064
980.50 0.08061
980.60 0.08057
980.70 0.08054
980.80 0.08051
980.90 0.08047
981.00 0.08044
981.10 0.08041
981.20 0.08038
981.30 0.08034
981.40 0.08031
981.50 0.08028
981.60 0.08024
981.70 0.08021
981.80 0.08018
981.90 0.08015
982.00 0.08011
982.10 0.08008
982.20 0.08004
982.30 0.08001
982.40 0.07998
982.50 0.07994
982.60 0.07991
982.70 0.07987
982.80 0.07984
982.90 0.07981
983.00 0.07977
983.10 0.07974
983.20 0.0797
983.30 0.07967
983.40 0.07964
983.50 0.0796
983.60 0.07957
983.70 0.07953
983.80 0.0795
983.90 0.07947
984.00 0.07943
984.10 0.0794
984.20 0.07936
984.30 0.07933
984.40 0.0793
984.50 0.07926
984.60 0.07923
984.70 0.07919
984.80 0.07916
984.90 0.07912
985.00 0.07909
985.10 0.07906
985.20 0.07902
985.30 0.07899
985.40 0.07895
985.50 0.07892
985.60 0.07888
985.70 0.07885
985.80 0.07881
985.90 0.07878
986.00 0.07874
986.10 0.07871
986.20 0.07868
986.30 0.07864
986.40 0.07861
986.50 0.07857
986.60 0.07854
986.70 0.0785
986.80 0.07847
986.90 0.07843
987.00 0.0784
987.10 0.07837
987.20 0.07833
987.30 0.07829
987.40 0.07826
987.50 0.07822
987.60 0.07819
987.70 0.07815
987.80 0.07812
987.90 0.07808
988.00 0.07805
988.10 0.07801
988.20 0.07798
988.30 0.07794
988.40 0.07791
988.50 0.07787
988.60 0.07784
988.70 0.0778
988.80 0.07777
988.90 0.07773
989.00 0.0777
989.10 0.07766
989.20 0.07763
989.30 0.07759
989.40 0.07756
989.50 0.07752
989.60 0.07749
989.70 0.07745
989.80 0.07741
989.90 0.07738
990.00 0.07734
990.10 0.07731
990.20 0.07727
990.30 0.07724
990.40 0.0772
990.50 0.07717
990.60 0.07713
990.70 0.0771
990.80 0.07706
990.90 0.07702
991.00 0.07699
991.10 0.07695
991.20 0.07692
991.30 0.07688
991.40 0.07684
991.50 0.07681
991.60 0.07677
991.70 0.07674
991.80 0.0767
991.90 0.07667
992.00 0.07663
992.10 0.07659
992.20 0.07656
992.30 0.07652
992.40 0.07649
992.50 0.07645
992.60 0.07641
992.70 0.07638
992.80 0.07634
992.90 0.0763
993.00 0.07627
993.10 0.07623
993.20 0.07619
993.30 0.07616
993.40 0.07612
993.50 0.07608
993.60 0.07605
993.70 0.07601
993.80 0.07598
993.90 0.07594
994.00 0.0759
994.10 0.07587
994.20 0.07583
994.30 0.07579
994.40 0.07576
994.50 0.07572
994.60 0.07568
994.70 0.07565
994.80 0.07561
994.90 0.07557
995.00 0.07554
995.10 0.0755
995.20 0.07546
995.30 0.07543
995.40 0.07539
995.50 0.07535
995.60 0.07532
995.70 0.07528
995.80 0.07524
995.90 0.07521
996.00 0.07517
996.10 0.07513
996.20 0.0751
996.30 0.07506
996.40 0.07502
996.50 0.07499
996.60 0.07495
996.70 0.07491
996.80 0.07488
996.90 0.07484
997.00 0.0748
997.10 0.07477
997.20 0.07473
997.30 0.07469
997.40 0.07466
997.50 0.07462
997.60 0.07458
997.70 0.07454
997.80 0.07451
997.90 0.07447
998.00 0.07443
998.10 0.0744
998.20 0.07436
998.30 0.07432
998.40 0.07429
998.50 0.07425
998.60 0.07421
998.70 0.07418
998.80 0.07414
998.90 0.0741
999.00 0.07407
999.10 0.07403
999.20 0.07399
999.30 0.07396
999.40 0.07392
999.50 0.07388
999.60 0.07385
999.70 0.07381
999.80 0.07378
999.90 0.07374
1000.00 0.0737
1000.10 0.07367
1000.20 0.07363
1000.30 0.0736
1000.40 0.07356
1000.50 0.07353
1000.60 0.07349
1000.70 0.07345
1000.80 0.07342
1000.90 0.07338
1001.00 0.07335
1001.10 0.07331
1001.20 0.07328
1001.30 0.07324
1001.40 0.0732
1001.50 0.07317
1001.60 0.07313
1001.70 0.0731
1001.80 0.07306
1001.90 0.07303
1002.00 0.073
1002.10 0.07296
1002.20 0.07293
1002.30 0.0729
1002.40 0.07287
1002.50 0.07283
1002.60 0.0728
1002.70 0.07277
1002.80 0.07274
1002.90 0.0727
1003.00 0.07267
1003.10 0.07264
1003.20 0.07261
1003.30 0.07258
1003.40 0.07255
1003.50 0.07252
1003.60 0.07249
1003.70 0.07246
1003.80 0.07243
1003.90 0.0724
1004.00 0.07238
1004.10 0.07235
1004.20 0.07232
1004.30 0.0723
1004.40 0.07227
1004.50 0.07225
1004.60 0.07222
1004.70 0.0722
1004.80 0.07218
1004.90 0.07215
1005.00 0.07213
1005.10 0.0721
1005.20 0.07207
1005.30 0.07204
1005.40 0.07201
1005.50 0.07198
1005.60 0.07196
1005.70 0.07193
1005.80 0.0719
1005.90 0.07188
1006.00 0.07185
1006.10 0.07182
1006.20 0.0718
1006.30 0.07178
1006.40 0.07175
1006.50 0.07173
1006.60 0.07171
1006.70 0.07169
1006.80 0.07166
1006.90 0.07164
1007.00 0.07162
1007.10 0.0716
1007.20 0.07158
1007.30 0.07156
1007.40 0.07154
1007.50 0.07152
1007.60 0.0715
1007.70 0.07148
1007.80 0.07146
1007.90 0.07144
1008.00 0.07142
1008.10 0.0714
1008.20 0.07139
1008.30 0.07137
1008.40 0.07135
1008.50 0.07133
1008.60 0.07131
1008.70 0.07129
1008.80 0.07128
1008.90 0.07126
1009.00 0.07124
1009.10 0.07122
1009.20 0.0712
1009.30 0.07118
1009.40 0.07117
1009.50 0.07115
1009.60 0.07113
1009.70 0.07111
1009.80 0.07109
1009.90 0.07108
1010.00 0.07106
1010.10 0.07104
1010.20 0.07102
1010.30 0.07101
1010.40 0.07099
1010.50 0.07097
1010.60 0.07096
1010.70 0.07094
1010.80 0.07092
1010.90 0.0709
1011.00 0.07089
1011.10 0.07087
1011.20 0.07085
1011.30 0.07084
1011.40 0.07082
1011.50 0.0708
1011.60 0.07078
1011.70 0.07077
1011.80 0.07075
1011.90 0.07073
1012.00 0.07072
1012.10 0.0707
1012.20 0.07068
1012.30 0.07066
1012.40 0.07065
1012.50 0.07063
1012.60 0.07061
1012.70 0.0706
1012.80 0.07058
1012.90 0.07056
1013.00 0.07054
1013.10 0.07053
1013.20 0.07051
1013.30 0.07049
1013.40 0.07048
1013.50 0.07046
1013.60 0.07044
1013.70 0.07042
1013.80 0.07041
1013.90 0.07039
1014.00 0.07037
1014.10 0.07035
1014.20 0.07034
1014.30 0.07032
1014.40 0.0703
1014.50 0.07028
1014.60 0.07027
1014.70 0.07025
1014.80 0.07023
1014.90 0.07021
1015.00 0.07019
1015.10 0.07018
1015.20 0.07016
1015.30 0.07014
1015.40 0.07012
1015.50 0.0701
1015.60 0.07009
1015.70 0.07007
1015.80 0.07005
1015.90 0.07003
1016.00 0.07001
1016.10 0.07
1016.20 0.06998
1016.30 0.06996
1016.40 0.06994
1016.50 0.06993
1016.60 0.06991
1016.70 0.06989
1016.80 0.06987
1016.90 0.06985
1017.00 0.06983
1017.10 0.06982
1017.20 0.0698
1017.30 0.06978
1017.40 0.06976
1017.50 0.06974
1017.60 0.06972
1017.70 0.0697
1017.80 0.06969
1017.90 0.06967
1018.00 0.06965
1018.10 0.06963
1018.20 0.06961
1018.30 0.06959
1018.40 0.06957
1018.50 0.06956
1018.60 0.06954
1018.70 0.06952
1018.80 0.0695
1018.90 0.06948
1019.00 0.06946
1019.10 0.06944
1019.20 0.06942
1019.30 0.0694
1019.40 0.06938
1019.50 0.06936
1019.60 0.06934
1019.70 0.06932
1019.80 0.06931
1019.90 0.06929
1020.00 0.06927
1020.10 0.06925
1020.20 0.06923
1020.30 0.06921
1020.40 0.06919
1020.50 0.06917
1020.60 0.06915
1020.70 0.06913
1020.80 0.06911
1020.90 0.06909
1021.00 0.06907
1021.10 0.06905
1021.20 0.06903
1021.30 0.06901
1021.40 0.06899
1021.50 0.06897
1021.60 0.06895
1021.70 0.06893
1021.80 0.06891
1021.90 0.0689
1022.00 0.06888
1022.10 0.06886
1022.20 0.06883
1022.30 0.06881
1022.40 0.06879
1022.50 0.06877
1022.60 0.06875
1022.70 0.06873
1022.80 0.06871
1022.90 0.06869
1023.00 0.06867
1023.10 0.06865
1023.20 0.06863
1023.30 0.06861
1023.40 0.06859
1023.50 0.06857
1023.60 0.06855
1023.70 0.06853
1023.80 0.06851
1023.90 0.06849
1024.00 0.06847
1024.10 0.06845
1024.20 0.06843
1024.30 0.06841
1024.40 0.06839
1024.50 0.06837
1024.60 0.06835
1024.70 0.06833
1024.80 0.0683
1024.90 0.06828
1025.00 0.06826
1025.10 0.06824
1025.20 0.06822
1025.30 0.0682
1025.40 0.06818
1025.50 0.06816
1025.60 0.06814
1025.70 0.06811
1025.80 0.06809
1025.90 0.06807
1026.00 0.06805
1026.10 0.06803
1026.20 0.06801
1026.30 0.06799
1026.40 0.06797
1026.50 0.06795
1026.60 0.06793
1026.70 0.06791
1026.80 0.06788
1026.90 0.06786
1027.00 0.06784
1027.10 0.06782
1027.20 0.0678
1027.30 0.06778
1027.40 0.06775
1027.50 0.06773
1027.60 0.06771
1027.70 0.06769
1027.80 0.06767
1027.90 0.06765
1028.00 0.06762
1028.10 0.0676
1028.20 0.06758
1028.30 0.06756
1028.40 0.06754
1028.50 0.06751
1028.60 0.06749
1028.70 0.06747
1028.80 0.06745
1028.90 0.06743
1029.00 0.06741
1029.10 0.06738
1029.20 0.06736
1029.30 0.06734
1029.40 0.06732
1029.50 0.0673
1029.60 0.06727
1029.70 0.06725
1029.80 0.06723
1029.90 0.06721
1030.00 0.06719
1030.10 0.06717
1030.20 0.06714
1030.30 0.06712
1030.40 0.0671
1030.50 0.06708
1030.60 0.06706
1030.70 0.06704
1030.80 0.06701
1030.90 0.06699
1031.00 0.06697
1031.10 0.06695
1031.20 0.06693
1031.30 0.06691
1031.40 0.06688
1031.50 0.06686
1031.60 0.06684
1031.70 0.06682
1031.80 0.0668
1031.90 0.06678
1032.00 0.06675
1032.10 0.06673
1032.20 0.06671
1032.30 0.06669
1032.40 0.06666
1032.50 0.06664
1032.60 0.06662
1032.70 0.0666
1032.80 0.06657
1032.90 0.06655
1033.00 0.06653
1033.10 0.0665
1033.20 0.06648
1033.30 0.06646
1033.40 0.06644
1033.50 0.06641
1033.60 0.06639
1033.70 0.06637
1033.80 0.06635
1033.90 0.06632
1034.00 0.0663
1034.10 0.06628
1034.20 0.06626
1034.30 0.06623
1034.40 0.06621
1034.50 0.06619
1034.60 0.06617
1034.70 0.06614
1034.80 0.06612
1034.90 0.0661
1035.00 0.06608
1035.10 0.06605
1035.20 0.06603
1035.30 0.06601
1035.40 0.06599
1035.50 0.06596
1035.60 0.06594
1035.70 0.06592
1035.80 0.0659
1035.90 0.06587
1036.00 0.06585
1036.10 0.06583
1036.20 0.06581
1036.30 0.06578
1036.40 0.06576
1036.50 0.06574
1036.60 0.06572
1036.70 0.06569
1036.80 0.06567
1036.90 0.06565
1037.00 0.06563
1037.10 0.0656
1037.20 0.06558
1037.30 0.06556
1037.40 0.06553
1037.50 0.06551
1037.60 0.06549
1037.70 0.06546
1037.80 0.06544
1037.90 0.06542
1038.00 0.06539
1038.10 0.06537
1038.20 0.06535
1038.30 0.06532
1038.40 0.0653
1038.50 0.06528
1038.60 0.06525
1038.70 0.06523
1038.80 0.06521
1038.90 0.06519
1039.00 0.06516
1039.10 0.06514
1039.20 0.06512
1039.30 0.06509
1039.40 0.06507
1039.50 0.06505
1039.60 0.06502
1039.70 0.065
1039.80 0.06498
1039.90 0.06495
1040.00 0.06493
1040.10 0.06491
1040.20 0.06488
1040.30 0.06486
1040.40 0.06484
1040.50 0.06482
1040.60 0.06479
1040.70 0.06477
1040.80 0.06475
1040.90 0.06472
1041.00 0.0647
1041.10 0.06468
1041.20 0.06465
1041.30 0.06463
1041.40 0.06461
1041.50 0.06459
1041.60 0.06456
1041.70 0.06454
1041.80 0.06452
1041.90 0.06449
1042.00 0.06447
1042.10 0.06445
1042.20 0.06442
1042.30 0.0644
1042.40 0.06438
1042.50 0.06435
1042.60 0.06433
1042.70 0.0643
1042.80 0.06428
1042.90 0.06426
1043.00 0.06423
1043.10 0.06421
1043.20 0.06419
1043.30 0.06416
1043.40 0.06414
1043.50 0.06411
1043.60 0.06409
1043.70 0.06407
1043.80 0.06404
1043.90 0.06402
1044.00 0.064
1044.10 0.06397
1044.20 0.06395
1044.30 0.06393
1044.40 0.0639
1044.50 0.06388
1044.60 0.06386
1044.70 0.06383
1044.80 0.06381
1044.90 0.06378
1045.00 0.06376
1045.10 0.06374
1045.20 0.06371
1045.30 0.06369
1045.40 0.06367
1045.50 0.06364
1045.60 0.06362
1045.70 0.0636
1045.80 0.06357
1045.90 0.06355
1046.00 0.06353
1046.10 0.0635
1046.20 0.06348
1046.30 0.06346
1046.40 0.06343
1046.50 0.06341
1046.60 0.06339
1046.70 0.06336
1046.80 0.06334
1046.90 0.06332
1047.00 0.06329
1047.10 0.06327
1047.20 0.06324
1047.30 0.06322
1047.40 0.0632
1047.50 0.06317
1047.60 0.06315
1047.70 0.06312
1047.80 0.0631
1047.90 0.06307
1048.00 0.06305
1048.10 0.06303
1048.20 0.063
1048.30 0.06298
1048.40 0.06295
1048.50 0.06293
1048.60 0.06291
1048.70 0.06288
1048.80 0.06286
1048.90 0.06283
1049.00 0.06281
1049.10 0.06279
1049.20 0.06276
1049.30 0.06274
1049.40 0.06271
1049.50 0.06269
1049.60 0.06267
1049.70 0.06264
1049.80 0.06262
1049.90 0.06259
1050.00 0.06257
1050.10 0.06255
1050.20 0.06252
1050.30 0.0625
1050.40 0.06247
1050.50 0.06245
1050.60 0.06243
1050.70 0.0624
1050.80 0.06238
1050.90 0.06235
1051.00 0.06233
1051.10 0.06231
1051.20 0.06228
1051.30 0.06226
1051.40 0.06224
1051.50 0.06221
1051.60 0.06219
1051.70 0.06216
1051.80 0.06214
1051.90 0.06212
1052.00 0.06209
1052.10 0.06207
1052.20 0.06204
1052.30 0.06202
1052.40 0.06199
1052.50 0.06197
1052.60 0.06194
1052.70 0.06192
1052.80 0.06189
1052.90 0.06187
1053.00 0.06185
1053.10 0.06182
1053.20 0.0618
1053.30 0.06177
1053.40 0.06175
1053.50 0.06172
1053.60 0.0617
1053.70 0.06167
1053.80 0.06165
1053.90 0.06162
1054.00 0.0616
1054.10 0.06158
1054.20 0.06155
1054.30 0.06153
1054.40 0.0615
1054.50 0.06148
1054.60 0.06145
1054.70 0.06143
1054.80 0.0614
1054.90 0.06138
1055.00 0.06136
1055.10 0.06133
1055.20 0.06131
1055.30 0.06128
1055.40 0.06126
1055.50 0.06123
1055.60 0.06121
1055.70 0.06118
1055.80 0.06116
1055.90 0.06114
1056.00 0.06111
1056.10 0.06109
1056.20 0.06106
1056.30 0.06104
1056.40 0.06101
1056.50 0.06099
1056.60 0.06097
1056.70 0.06094
1056.80 0.06092
1056.90 0.06089
1057.00 0.06087
1057.10 0.06084
1057.20 0.06082
1057.30 0.06079
1057.40 0.06077
1057.50 0.06074
1057.60 0.06072
1057.70 0.06069
1057.80 0.06067
1057.90 0.06064
1058.00 0.06061
1058.10 0.06059
1058.20 0.06056
1058.30 0.06054
1058.40 0.06051
1058.50 0.06049
1058.60 0.06046
1058.70 0.06044
1058.80 0.06041
1058.90 0.06039
1059.00 0.06036
1059.10 0.06034
1059.20 0.06031
1059.30 0.06029
1059.40 0.06026
1059.50 0.06024
1059.60 0.06021
1059.70 0.06019
1059.80 0.06016
1059.90 0.06014
1060.00 0.06011
1060.10 0.06009
1060.20 0.06006
1060.30 0.06004
1060.40 0.06001
1060.50 0.05999
1060.60 0.05996
1060.70 0.05994
1060.80 0.05991
1060.90 0.05989
1061.00 0.05986
1061.10 0.05984
1061.20 0.05981
1061.30 0.05979
1061.40 0.05976
1061.50 0.05974
1061.60 0.05971
1061.70 0.05969
1061.80 0.05966
1061.90 0.05964
1062.00 0.05961
1062.10 0.05959
1062.20 0.05956
1062.30 0.05953
1062.40 0.05951
1062.50 0.05948
1062.60 0.05945
1062.70 0.05943
1062.80 0.0594
1062.90 0.05938
1063.00 0.05935
1063.10 0.05932
1063.20 0.0593
1063.30 0.05927
1063.40 0.05924
1063.50 0.05922
1063.60 0.05919
1063.70 0.05917
1063.80 0.05914
1063.90 0.05911
1064.00 0.05909
1064.10 0.05906
1064.20 0.05904
1064.30 0.05901
1064.40 0.05898
1064.50 0.05896
1064.60 0.05893
1064.70 0.05891
1064.80 0.05888
1064.90 0.05885
1065.00 0.05883
1065.10 0.0588
1065.20 0.05878
1065.30 0.05875
1065.40 0.05872
1065.50 0.0587
1065.60 0.05867
1065.70 0.05865
1065.80 0.05862
1065.90 0.05859
1066.00 0.05857
1066.10 0.05854
1066.20 0.05852
1066.30 0.05849
1066.40 0.05846
1066.50 0.05844
1066.60 0.05841
1066.70 0.05839
1066.80 0.05836
1066.90 0.05834
1067.00 0.05831
1067.10 0.05828
1067.20 0.05825
1067.30 0.05823
1067.40 0.0582
1067.50 0.05817
1067.60 0.05814
1067.70 0.05812
1067.80 0.05809
1067.90 0.05806
1068.00 0.05803
1068.10 0.05801
1068.20 0.05798
1068.30 0.05795
1068.40 0.05792
1068.50 0.0579
1068.60 0.05787
1068.70 0.05784
1068.80 0.05781
1068.90 0.05779
1069.00 0.05776
1069.10 0.05773
1069.20 0.0577
1069.30 0.05768
1069.40 0.05765
1069.50 0.05762
1069.60 0.0576
1069.70 0.05757
1069.80 0.05754
1069.90 0.05751
1070.00 0.05749
1070.10 0.05746
1070.20 0.05743
1070.30 0.0574
1070.40 0.05738
1070.50 0.05735
1070.60 0.05732
1070.70 0.05729
1070.80 0.05727
1070.90 0.05724
1071.00 0.05721
1071.10 0.05719
1071.20 0.05716
1071.30 0.05713
1071.40 0.0571
1071.50 0.05708
1071.60 0.05705
1071.70 0.05702
1071.80 0.057
1071.90 0.05697
1072.00 0.05694
1072.10 0.05691
1072.20 0.05688
1072.30 0.05686
1072.40 0.05683
1072.50 0.0568
1072.60 0.05677
1072.70 0.05674
1072.80 0.05671
1072.90 0.05669
1073.00 0.05666
1073.10 0.05663
1073.20 0.0566
1073.30 0.05657
1073.40 0.05654
1073.50 0.05651
1073.60 0.05648
1073.70 0.05646
1073.80 0.05643
1073.90 0.0564
1074.00 0.05637
1074.10 0.05634
1074.20 0.05631
1074.30 0.05628
1074.40 0.05625
1074.50 0.05622
1074.60 0.05619
1074.70 0.05616
1074.80 0.05613
1074.90 0.0561
1075.00 0.05607
1075.10 0.05604
1075.20 0.05601
1075.30 0.05598
1075.40 0.05595
1075.50 0.05592
1075.60 0.05589
1075.70 0.05586
1075.80 0.05584
1075.90 0.05581
1076.00 0.05578
1076.10 0.05575
1076.20 0.05572
1076.30 0.05569
1076.40 0.05566
1076.50 0.05563
1076.60 0.0556
1076.70 0.05557
1076.80 0.05554
1076.90 0.05551
1077.00 0.05548
1077.10 0.05545
1077.20 0.05542
1077.30 0.05539
1077.40 0.05536
1077.50 0.05533
1077.60 0.0553
1077.70 0.05527
1077.80 0.05524
1077.90 0.05521
1078.00 0.05518
1078.10 0.05514
1078.20 0.05511
1078.30 0.05508
1078.40 0.05505
1078.50 0.05502
1078.60 0.05499
1078.70 0.05496
1078.80 0.05493
1078.90 0.0549
1079.00 0.05487
1079.10 0.05483
1079.20 0.0548
1079.30 0.05477
1079.40 0.05474
1079.50 0.05471
1079.60 0.05468
1079.70 0.05465
1079.80 0.05461
1079.90 0.05458
1080.00 0.05455
1080.10 0.05452
1080.20 0.05448
1080.30 0.05445
1080.40 0.05442
1080.50 0.05439
1080.60 0.05436
1080.70 0.05432
1080.80 0.05429
1080.90 0.05426
1081.00 0.05423
1081.10 0.0542
1081.20 0.05416
1081.30 0.05413
1081.40 0.0541
1081.50 0.05407
1081.60 0.05403
1081.70 0.054
1081.80 0.05397
1081.90 0.05394
1082.00 0.0539
1082.10 0.05387
1082.20 0.05384
1082.30 0.0538
1082.40 0.05377
1082.50 0.05374
1082.60 0.0537
1082.70 0.05367
1082.80 0.05363
1082.90 0.0536
1083.00 0.05357
1083.10 0.05353
1083.20 0.0535
1083.30 0.05347
1083.40 0.05343
1083.50 0.0534
1083.60 0.05337
1083.70 0.05333
1083.80 0.0533
1083.90 0.05326
1084.00 0.05323
1084.10 0.05319
1084.20 0.05316
1084.30 0.05313
1084.40 0.05309
1084.50 0.05306
1084.60 0.05302
1084.70 0.05299
1084.80 0.05295
1084.90 0.05292
1085.00 0.05288
1085.10 0.05285
1085.20 0.05281
1085.30 0.05277
1085.40 0.05274
1085.50 0.0527
1085.60 0.05267
1085.70 0.05263
1085.80 0.0526
1085.90 0.05256
1086.00 0.05253
1086.10 0.05249
1086.20 0.05246
1086.30 0.05242
1086.40 0.05239
1086.50 0.05235
1086.60 0.05231
1086.70 0.05228
1086.80 0.05224
1086.90 0.05221
1087.00 0.05217
1087.10 0.05213
1087.20 0.0521
1087.30 0.05206
1087.40 0.05202
1087.50 0.05198
1087.60 0.05195
1087.70 0.05191
1087.80 0.05187
1087.90 0.05184
1088.00 0.0518
1088.10 0.05176
1088.20 0.05172
1088.30 0.05169
1088.40 0.05165
1088.50 0.05161
1088.60 0.05157
1088.70 0.05153
1088.80 0.0515
1088.90 0.05146
1089.00 0.05142
1089.10 0.05138
1089.20 0.05134
1089.30 0.0513
1089.40 0.05126
1089.50 0.05122
1089.60 0.05118
1089.70 0.05114
1089.80 0.0511
1089.90 0.05106
1090.00 0.05103
1090.10 0.05099
1090.20 0.05095
1090.30 0.05091
1090.40 0.05087
1090.50 0.05083
1090.60 0.05079
1090.70 0.05074
1090.80 0.0507
1090.90 0.05066
1091.00 0.05061
1091.10 0.05057
1091.20 0.05053
1091.30 0.05048
1091.40 0.05044
1091.50 0.0504
1091.60 0.05036
1091.70 0.05031
1091.80 0.05027
1091.90 0.05023
1092.00 0.05018
1092.10 0.05014
1092.20 0.05009
1092.30 0.05004
1092.40 0.04999
1092.50 0.04995
1092.60 0.0499
1092.70 0.04985
1092.80 0.0498
1092.90 0.04975
1093.00 0.0497
1093.10 0.04965
1093.20 0.0496
1093.30 0.04954
1093.40 0.04949
1093.50 0.04944
1093.60 0.04939
1093.70 0.04936
1093.80 0.04933
1093.90 0.04933
1094.00 0.04935
1094.10 0.04937
1094.20 0.0494
1094.30 0.04942
1094.40 0.04944
1094.50 0.04945
1094.60 0.04947
1094.70 0.04949
1094.80 0.04951
1094.90 0.04952
1095.00 0.04954
1095.10 0.04955
1095.20 0.04956
1095.30 0.04957
1095.40 0.04959
1095.50 0.0496
1095.60 0.04961
1095.70 0.04962
1095.80 0.04963
1095.90 0.04964
1096.00 0.04966
1096.10 0.04967
1096.20 0.04968
1096.30 0.04969
1096.40 0.0497
1096.50 0.04971
1096.60 0.04972
1096.70 0.04973
1096.80 0.04974
1096.90 0.04974
1097.00 0.04975
1097.10 0.04976
1097.20 0.04976
1097.30 0.04977
1097.40 0.04977
1097.50 0.04978
1097.60 0.04978
1097.70 0.04979
1097.80 0.04979
1097.90 0.0498
1098.00 0.0498
1098.10 0.04981
1098.20 0.04981
1098.30 0.04982
1098.40 0.04982
1098.50 0.04983
1098.60 0.04983
1098.70 0.04983
1098.80 0.04983
1098.90 0.04984
1099.00 0.04984
1099.10 0.04984
1099.20 0.04984
1099.30 0.04984
1099.40 0.04985
1099.50 0.04985
1099.60 0.04985
1099.70 0.04985
1099.80 0.04986
1099.90 0.04986
1100.00 0.04986
1100.10 0.04986
1100.20 0.04986
1100.30 0.04987
1100.40 0.04987
1100.50 0.04987
1100.60 0.04987
1100.70 0.04987
1100.80 0.04987
1100.90 0.04987
1101.00 0.04987
1101.10 0.04987
1101.20 0.04987
1101.30 0.04987
1101.40 0.04987
1101.50 0.04987
1101.60 0.04987
1101.70 0.04987
1101.80 0.04987
1101.90 0.04987
1102.00 0.04987
1102.10 0.04987
1102.20 0.04987
1102.30 0.04987
1102.40 0.04987
1102.50 0.04987
1102.60 0.04987
1102.70 0.04987
1102.80 0.04986
1102.90 0.04986
1103.00 0.04986
1103.10 0.04986
1103.20 0.04986
1103.30 0.04986
1103.40 0.04986
1103.50 0.04985
1103.60 0.04985
1103.70 0.04985
1103.80 0.04984
1103.90 0.04984
1104.00 0.04984
1104.10 0.04984
1104.20 0.04983
1104.30 0.04983
1104.40 0.04983
1104.50 0.04982
1104.60 0.04982
1104.70 0.04982
1104.80 0.04982
1104.90 0.04981
1105.00 0.04981
1105.10 0.04981
1105.20 0.04981
1105.30 0.0498
1105.40 0.0498
1105.50 0.0498
1105.60 0.04979
1105.70 0.04979
1105.80 0.04978
1105.90 0.04978
1106.00 0.04977
1106.10 0.04977
1106.20 0.04977
1106.30 0.04976
1106.40 0.04976
1106.50 0.04975
1106.60 0.04975
1106.70 0.04974
1106.80 0.04974
1106.90 0.04974
1107.00 0.04973
1107.10 0.04973
1107.20 0.04972
1107.30 0.04972
1107.40 0.04971
1107.50 0.04971
1107.60 0.0497
1107.70 0.04969
1107.80 0.04969
1107.90 0.04968
1108.00 0.04968
1108.10 0.04967
1108.20 0.04967
1108.30 0.04966
1108.40 0.04965
1108.50 0.04965
1108.60 0.04964
1108.70 0.04964
1108.80 0.04963
1108.90 0.04962
1109.00 0.04962
1109.10 0.04961
1109.20 0.04961
1109.30 0.0496
1109.40 0.04959
1109.50 0.04959
1109.60 0.04958
1109.70 0.04957
1109.80 0.04957
1109.90 0.04956
1110.00 0.04955
1110.10 0.04954
1110.20 0.04954
1110.30 0.04953
1110.40 0.04952
1110.50 0.04951
1110.60 0.04951
1110.70 0.0495
1110.80 0.04949
1110.90 0.04948
1111.00 0.04948
1111.10 0.04947
1111.20 0.04946
1111.30 0.04945
1111.40 0.04945
1111.50 0.04944
1111.60 0.04943
1111.70 0.04943
1111.80 0.04942
1111.90 0.04941
1112.00 0.0494
1112.10 0.04939
1112.20 0.04939
1112.30 0.04938
1112.40 0.04937
1112.50 0.04936
1112.60 0.04935
1112.70 0.04934
1112.80 0.04933
1112.90 0.04933
1113.00 0.04932
1113.10 0.04931
1113.20 0.0493
1113.30 0.04929
1113.40 0.04928
1113.50 0.04927
1113.60 0.04926
1113.70 0.04925
1113.80 0.04925
1113.90 0.04924
1114.00 0.04923
1114.10 0.04922
1114.20 0.04921
1114.30 0.0492
1114.40 0.04919
1114.50 0.04918
1114.60 0.04917
1114.70 0.04916
1114.80 0.04915
1114.90 0.04914
1115.00 0.04913
1115.10 0.04912
1115.20 0.04911
1115.30 0.0491
1115.40 0.04909
1115.50 0.04908
1115.60 0.04907
1115.70 0.04906
1115.80 0.04905
1115.90 0.04904
1116.00 0.04903
1116.10 0.04902
1116.20 0.04901
1116.30 0.049
1116.40 0.04899
1116.50 0.04898
1116.60 0.04897
1116.70 0.04896
1116.80 0.04895
1116.90 0.04894
1117.00 0.04893
1117.10 0.04892
1117.20 0.04891
1117.30 0.0489
1117.40 0.04889
1117.50 0.04888
1117.60 0.04887
1117.70 0.04885
1117.80 0.04884
1117.90 0.04883
1118.00 0.04882
1118.10 0.04881
1118.20 0.0488
1118.30 0.04879
1118.40 0.04877
1118.50 0.04876
1118.60 0.04875
1118.70 0.04874
1118.80 0.04873
1118.90 0.04872
1119.00 0.04871
1119.10 0.04869
1119.20 0.04868
1119.30 0.04867
1119.40 0.04866
1119.50 0.04865
1119.60 0.04864
1119.70 0.04863
1119.80 0.04861
1119.90 0.0486
1120.00 0.04859
1120.10 0.04858
1120.20 0.04857
1120.30 0.04856
1120.40 0.04855
1120.50 0.04854
1120.60 0.04852
1120.70 0.04851
1120.80 0.0485
1120.90 0.04849
1121.00 0.04848
1121.10 0.04847
1121.20 0.04846
1121.30 0.04844
1121.40 0.04843
1121.50 0.04842
1121.60 0.04841
1121.70 0.0484
1121.80 0.04839
1121.90 0.04838
1122.00 0.04837
1122.10 0.04835
1122.20 0.04834
1122.30 0.04833
1122.40 0.04831
1122.50 0.0483
1122.60 0.04829
1122.70 0.04828
1122.80 0.04826
1122.90 0.04825
1123.00 0.04824
1123.10 0.04823
1123.20 0.04821
1123.30 0.0482
1123.40 0.04819
1123.50 0.04817
1123.60 0.04816
1123.70 0.04815
1123.80 0.04814
1123.90 0.04812
1124.00 0.04811
1124.10 0.0481
1124.20 0.04809
1124.30 0.04807
1124.40 0.04806
1124.50 0.04805
1124.60 0.04804
1124.70 0.04802
1124.80 0.04801
1124.90 0.048
1125.00 0.04798
1125.10 0.04797
1125.20 0.04796
1125.30 0.04795
1125.40 0.04793
1125.50 0.04792
1125.60 0.04791
1125.70 0.0479
1125.80 0.04788
1125.90 0.04787
1126.00 0.04786
1126.10 0.04785
1126.20 0.04783
1126.30 0.04782
1126.40 0.04781
1126.50 0.0478
1126.60 0.04778
1126.70 0.04777
1126.80 0.04776
1126.90 0.04774
1127.00 0.04773
1127.10 0.04772
1127.20 0.04771
1127.30 0.04769
1127.40 0.04768
1127.50 0.04766
1127.60 0.04765
1127.70 0.04764
1127.80 0.04762
1127.90 0.04761
1128.00 0.0476
1128.10 0.04758
1128.20 0.04757
1128.30 0.04756
1128.40 0.04754
1128.50 0.04753
1128.60 0.04752
1128.70 0.0475
1128.80 0.04749
1128.90 0.04747
1129.00 0.04746
1129.10 0.04745
1129.20 0.04743
1129.30 0.04742
1129.40 0.04741
1129.50 0.04739
1129.60 0.04738
1129.70 0.04737
1129.80 0.04735
1129.90 0.04734
1130.00 0.04733
1130.10 0.04731
1130.20 0.0473
1130.30 0.04729
1130.40 0.04727
1130.50 0.04726
1130.60 0.04724
1130.70 0.04723
1130.80 0.04722
1130.90 0.0472
1131.00 0.04719
1131.10 0.04718
1131.20 0.04716
1131.30 0.04715
1131.40 0.04714
1131.50 0.04712
1131.60 0.04711
1131.70 0.0471
1131.80 0.04708
1131.90 0.04707
1132.00 0.04706
1132.10 0.04704
1132.20 0.04703
1132.30 0.04701
1132.40 0.047
1132.50 0.04699
1132.60 0.04697
1132.70 0.04696
1132.80 0.04694
1132.90 0.04693
1133.00 0.04692
1133.10 0.0469
1133.20 0.04689
1133.30 0.04687
1133.40 0.04686
1133.50 0.04685
1133.60 0.04683
1133.70 0.04682
1133.80 0.0468
1133.90 0.04679
1134.00 0.04678
1134.10 0.04676
1134.20 0.04675
1134.30 0.04673
1134.40 0.04672
1134.50 0.04671
1134.60 0.04669
1134.70 0.04668
1134.80 0.04666
1134.90 0.04665
1135.00 0.04664
1135.10 0.04662
1135.20 0.04661
1135.30 0.04659
1135.40 0.04658
1135.50 0.04657
1135.60 0.04655
1135.70 0.04654
1135.80 0.04652
1135.90 0.04651
1136.00 0.0465
1136.10 0.04648
1136.20 0.04647
1136.30 0.04645
1136.40 0.04644
1136.50 0.04643
1136.60 0.04641
1136.70 0.0464
1136.80 0.04638
1136.90 0.04637
1137.00 0.04636
1137.10 0.04634
1137.20 0.04633
1137.30 0.04631
1137.40 0.0463
1137.50 0.04628
1137.60 0.04627
1137.70 0.04626
1137.80 0.04624
1137.90 0.04623
1138.00 0.04621
1138.10 0.0462
1138.20 0.04618
1138.30 0.04617
1138.40 0.04616
1138.50 0.04614
1138.60 0.04613
1138.70 0.04611
1138.80 0.0461
1138.90 0.04608
1139.00 0.04607
1139.10 0.04606
1139.20 0.04604
1139.30 0.04603
1139.40 0.04601
1139.50 0.046
1139.60 0.04598
1139.70 0.04597
1139.80 0.04596
1139.90 0.04594
1140.00 0.04593
1140.10 0.04591
1140.20 0.0459
1140.30 0.04588
1140.40 0.04587
1140.50 0.04586
1140.60 0.04584
1140.70 0.04583
1140.80 0.04581
1140.90 0.0458
1141.00 0.04579
1141.10 0.04577
1141.20 0.04576
1141.30 0.04574
1141.40 0.04573
1141.50 0.04571
1141.60 0.0457
1141.70 0.04569
1141.80 0.04567
1141.90 0.04566
1142.00 0.04564
1142.10 0.04563
1142.20 0.04561
1142.30 0.0456
1142.40 0.04559
1142.50 0.04557
1142.60 0.04556
1142.70 0.04554
1142.80 0.04553
1142.90 0.04551
1143.00 0.0455
1143.10 0.04548
1143.20 0.04547
1143.30 0.04546
1143.40 0.04544
1143.50 0.04543
1143.60 0.04541
1143.70 0.0454
1143.80 0.04538
1143.90 0.04537
1144.00 0.04535
1144.10 0.04534
1144.20 0.04533
1144.30 0.04531
1144.40 0.0453
1144.50 0.04528
1144.60 0.04527
1144.70 0.04525
1144.80 0.04524
1144.90 0.04523
1145.00 0.04521
1145.10 0.0452
1145.20 0.04518
1145.30 0.04517
1145.40 0.04515
1145.50 0.04514
1145.60 0.04512
1145.70 0.04511
1145.80 0.0451
1145.90 0.04508
1146.00 0.04507
1146.10 0.04505
1146.20 0.04504
1146.30 0.04502
1146.40 0.04501
1146.50 0.045
1146.60 0.04498
1146.70 0.04497
1146.80 0.04495
1146.90 0.04494
1147.00 0.04492
1147.10 0.04491
1147.20 0.0449
1147.30 0.04488
1147.40 0.04487
1147.50 0.04485
1147.60 0.04484
1147.70 0.04482
1147.80 0.04481
1147.90 0.04479
1148.00 0.04478
1148.10 0.04477
1148.20 0.04475
1148.30 0.04474
1148.40 0.04472
1148.50 0.04471
1148.60 0.04469
1148.70 0.04468
1148.80 0.04467
1148.90 0.04465
1149.00 0.04464
1149.10 0.04462
1149.20 0.04461
1149.30 0.04459
1149.40 0.04458
1149.50 0.04456
1149.60 0.04455
1149.70 0.04454
1149.80 0.04452
1149.90 0.04451
1150.00 0.04449
1150.10 0.04448
1150.20 0.04446
1150.30 0.04445
1150.40 0.04444
1150.50 0.04442
1150.60 0.04441
1150.70 0.04439
1150.80 0.04438
1150.90 0.04436
1151.00 0.04435
1151.10 0.04434
1151.20 0.04432
1151.30 0.04431
1151.40 0.04429
1151.50 0.04428
1151.60 0.04426
1151.70 0.04425
1151.80 0.04424
1151.90 0.04422
1152.00 0.04421
1152.10 0.04419
1152.20 0.04418
1152.30 0.04416
1152.40 0.04415
1152.50 0.04414
1152.60 0.04412
1152.70 0.04411
1152.80 0.04409
1152.90 0.04408
1153.00 0.04406
1153.10 0.04405
1153.20 0.04403
1153.30 0.04402
1153.40 0.04401
1153.50 0.04399
1153.60 0.04398
1153.70 0.04396
1153.80 0.04395
1153.90 0.04393
1154.00 0.04392
1154.10 0.04391
1154.20 0.04389
1154.30 0.04388
1154.40 0.04386
1154.50 0.04385
1154.60 0.04383
1154.70 0.04382
1154.80 0.04381
1154.90 0.04379
1155.00 0.04378
1155.10 0.04376
1155.20 0.04375
1155.30 0.04373
1155.40 0.04372
1155.50 0.04371
1155.60 0.04369
1155.70 0.04368
1155.80 0.04366
1155.90 0.04365
1156.00 0.04364
1156.10 0.04362
1156.20 0.04361
1156.30 0.04359
1156.40 0.04358
1156.50 0.04356
1156.60 0.04355
1156.70 0.04354
1156.80 0.04352
1156.90 0.04351
1157.00 0.04349
1157.10 0.04348
1157.20 0.04346
1157.30 0.04345
1157.40 0.04344
1157.50 0.04342
1157.60 0.04341
1157.70 0.04339
1157.80 0.04338
1157.90 0.04337
1158.00 0.04335
1158.10 0.04334
1158.20 0.04332
1158.30 0.04331
1158.40 0.04329
1158.50 0.04328
1158.60 0.04327
1158.70 0.04325
1158.80 0.04324
1158.90 0.04322
1159.00 0.04321
1159.10 0.0432
1159.20 0.04318
1159.30 0.04317
1159.40 0.04315
1159.50 0.04314
1159.60 0.04312
1159.70 0.04311
1159.80 0.0431
1159.90 0.04308
1160.00 0.04307
1160.10 0.04305
1160.20 0.04304
1160.30 0.04303
1160.40 0.04301
1160.50 0.043
1160.60 0.04298
1160.70 0.04297
1160.80 0.04296
1160.90 0.04294
1161.00 0.04293
1161.10 0.04291
1161.20 0.0429
1161.30 0.04288
1161.40 0.04287
1161.50 0.04286
1161.60 0.04284
1161.70 0.04283
1161.80 0.04281
1161.90 0.0428
1162.00 0.04279
1162.10 0.04277
1162.20 0.04276
1162.30 0.04274
1162.40 0.04273
1162.50 0.04272
1162.60 0.0427
1162.70 0.04269
1162.80 0.04267
1162.90 0.04266
1163.00 0.04265
1163.10 0.04263
1163.20 0.04262
1163.30 0.0426
1163.40 0.04259
1163.50 0.04258
1163.60 0.04256
1163.70 0.04255
1163.80 0.04253
1163.90 0.04252
1164.00 0.04251
1164.10 0.04249
1164.20 0.04248
1164.30 0.04246
1164.40 0.04245
1164.50 0.04244
1164.60 0.04242
1164.70 0.04241
1164.80 0.04239
1164.90 0.04238
1165.00 0.04237
1165.10 0.04235
1165.20 0.04234
1165.30 0.04232
1165.40 0.04231
1165.50 0.0423
1165.60 0.04228
1165.70 0.04227
1165.80 0.04225
1165.90 0.04224
1166.00 0.04223
1166.10 0.04221
1166.20 0.0422
1166.30 0.04219
1166.40 0.04217
1166.50 0.04216
1166.60 0.04214
1166.70 0.04213
1166.80 0.04212
1166.90 0.0421
1167.00 0.04209
1167.10 0.04207
1167.20 0.04206
1167.30 0.04205
1167.40 0.04203
1167.50 0.04202
1167.60 0.042
1167.70 0.04199
1167.80 0.04198
1167.90 0.04196
1168.00 0.04195
1168.10 0.04194
1168.20 0.04192
1168.30 0.04191
1168.40 0.04189
1168.50 0.04188
1168.60 0.04187
1168.70 0.04185
1168.80 0.04184
1168.90 0.04182
1169.00 0.04181
1169.10 0.0418
1169.20 0.04178
1169.30 0.04177
1169.40 0.04176
1169.50 0.04174
1169.60 0.04173
1169.70 0.04171
1169.80 0.0417
1169.90 0.04169
1170.00 0.04167
1170.10 0.04166
1170.20 0.04165
1170.30 0.04163
1170.40 0.04162
1170.50 0.0416
1170.60 0.04159
1170.70 0.04158
1170.80 0.04156
1170.90 0.04155
1171.00 0.04154
1171.10 0.04152
1171.20 0.04151
1171.30 0.04149
1171.40 0.04148
1171.50 0.04147
1171.60 0.04145
1171.70 0.04144
1171.80 0.04143
1171.90 0.04141
1172.00 0.0414
1172.10 0.04138
1172.20 0.04137
1172.30 0.04136
1172.40 0.04134
1172.50 0.04133
1172.60 0.04132
1172.70 0.0413
1172.80 0.04129
1172.90 0.04128
1173.00 0.04126
1173.10 0.04125
1173.20 0.04123
1173.30 0.04122
1173.40 0.04121
1173.50 0.04119
1173.60 0.04118
1173.70 0.04117
1173.80 0.04115
1173.90 0.04114
1174.00 0.04113
1174.10 0.04111
1174.20 0.0411
1174.30 0.04108
1174.40 0.04107
1174.50 0.04106
1174.60 0.04104
1174.70 0.04103
1174.80 0.04102
1174.90 0.041
1175.00 0.04099
1175.10 0.04098
1175.20 0.04096
1175.30 0.04095
1175.40 0.04094
1175.50 0.04092
1175.60 0.04091
1175.70 0.0409
1175.80 0.04088
1175.90 0.04087
1176.00 0.04085
1176.10 0.04084
1176.20 0.04083
1176.30 0.04081
1176.40 0.0408
1176.50 0.04079
1176.60 0.04077
1176.70 0.04076
1176.80 0.04075
1176.90 0.04073
1177.00 0.04072
1177.10 0.04071
1177.20 0.04069
1177.30 0.04068
1177.40 0.04067
1177.50 0.04065
1177.60 0.04064
1177.70 0.04063
1177.80 0.04061
1177.90 0.0406
1178.00 0.04058
1178.10 0.04057
1178.20 0.04056
1178.30 0.04054
1178.40 0.04053
1178.50 0.04052
1178.60 0.0405
1178.70 0.04049
1178.80 0.04048
1178.90 0.04046
1179.00 0.04045
1179.10 0.04044
1179.20 0.04042
1179.30 0.04041
1179.40 0.0404
1179.50 0.04038
1179.60 0.04037
1179.70 0.04036
1179.80 0.04034
1179.90 0.04033
1180.00 0.04032
1180.10 0.0403
1180.20 0.04029
1180.30 0.04028
1180.40 0.04026
1180.50 0.04025
1180.60 0.04024
1180.70 0.04022
1180.80 0.04021
1180.90 0.0402
1181.00 0.04018
1181.10 0.04017
1181.20 0.04016
1181.30 0.04014
1181.40 0.04013
1181.50 0.04012
1181.60 0.0401
1181.70 0.04009
1181.80 0.04008
1181.90 0.04006
1182.00 0.04005
1182.10 0.04004
1182.20 0.04002
1182.30 0.04001
1182.40 0.04
1182.50 0.03998
1182.60 0.03997
1182.70 0.03996
1182.80 0.03994
1182.90 0.03993
1183.00 0.03992
1183.10 0.0399
1183.20 0.03989
1183.30 0.03988
1183.40 0.03987
1183.50 0.03985
1183.60 0.03984
1183.70 0.03983
1183.80 0.03981
1183.90 0.0398
1184.00 0.03979
1184.10 0.03977
1184.20 0.03976
1184.30 0.03975
1184.40 0.03973
1184.50 0.03972
1184.60 0.03971
1184.70 0.03969
1184.80 0.03968
1184.90 0.03967
1185.00 0.03965
1185.10 0.03964
1185.20 0.03963
1185.30 0.03961
1185.40 0.0396
1185.50 0.03959
1185.60 0.03958
1185.70 0.03956
1185.80 0.03955
1185.90 0.03954
1186.00 0.03952
1186.10 0.03951
1186.20 0.0395
1186.30 0.03948
1186.40 0.03947
1186.50 0.03946
1186.60 0.03944
1186.70 0.03943
1186.80 0.03942
1186.90 0.0394
1187.00 0.03939
1187.10 0.03938
1187.20 0.03937
1187.30 0.03935
1187.40 0.03934
1187.50 0.03933
1187.60 0.03931
1187.70 0.0393
1187.80 0.03929
1187.90 0.03927
1188.00 0.03926
1188.10 0.03925
1188.20 0.03924
1188.30 0.03922
1188.40 0.03921
1188.50 0.0392
1188.60 0.03918
1188.70 0.03917
1188.80 0.03916
1188.90 0.03914
1189.00 0.03913
1189.10 0.03912
1189.20 0.03911
1189.30 0.03909
1189.40 0.03908
1189.50 0.03907
1189.60 0.03905
1189.70 0.03904
1189.80 0.03903
1189.90 0.03901
1190.00 0.039
1190.10 0.03899
1190.20 0.03898
1190.30 0.03896
1190.40 0.03895
1190.50 0.03894
1190.60 0.03892
1190.70 0.03891
1190.80 0.0389
1190.90 0.03889
1191.00 0.03887
1191.10 0.03886
1191.20 0.03885
1191.30 0.03883
1191.40 0.03882
1191.50 0.03881
1191.60 0.03879
1191.70 0.03878
1191.80 0.03877
1191.90 0.03876
1192.00 0.03874
1192.10 0.03873
1192.20 0.03872
1192.30 0.0387
1192.40 0.03869
1192.50 0.03868
1192.60 0.03867
1192.70 0.03865
1192.80 0.03864
1192.90 0.03863
1193.00 0.03861
1193.10 0.0386
1193.20 0.03859
1193.30 0.03858
1193.40 0.03856
1193.50 0.03855
1193.60 0.03854
1193.70 0.03852
1193.80 0.03851
1193.90 0.0385
1194.00 0.03849
1194.10 0.03847
1194.20 0.03846
1194.30 0.03845
1194.40 0.03844
1194.50 0.03842
1194.60 0.03841
1194.70 0.0384
1194.80 0.03838
1194.90 0.03837
1195.00 0.03836
1195.10 0.03835
1195.20 0.03833
1195.30 0.03832
1195.40 0.03831
1195.50 0.0383
1195.60 0.03828
1195.70 0.03827
1195.80 0.03826
1195.90 0.03824
1196.00 0.03823
1196.10 0.03822
1196.20 0.03821
1196.30 0.03819
1196.40 0.03818
1196.50 0.03817
1196.60 0.03816
1196.70 0.03814
1196.80 0.03813
1196.90 0.03812
1197.00 0.0381
1197.10 0.03809
1197.20 0.03808
1197.30 0.03807
1197.40 0.03805
1197.50 0.03804
1197.60 0.03803
1197.70 0.03802
1197.80 0.038
1197.90 0.03799
1198.00 0.03798
1198.10 0.03797
1198.20 0.03795
1198.30 0.03794
1198.40 0.03793
1198.50 0.03791
1198.60 0.0379
1198.70 0.03789
1198.80 0.03788
1198.90 0.03786
1199.00 0.03785
1199.10 0.03784
1199.20 0.03783
1199.30 0.03781
1199.40 0.0378
1199.50 0.03779
1199.60 0.03778
1199.70 0.03776
1199.80 0.03775
1199.90 0.03774
1200.00 0
