# Version 2.1 - nm, norm@500 to 1, cut digits, bergeron_120000_75.dat_120000
# Wavelength(nm)  Flambda(ergs/cm^s/s/nm)
300.00 6.952
300.10 6.943
300.20 6.934
300.30 6.926
300.40 6.917
300.50 6.908
300.60 6.899
300.70 6.891
300.80 6.882
300.90 6.873
301.00 6.865
301.10 6.856
301.20 6.847
301.30 6.839
301.40 6.83
301.50 6.822
301.60 6.813
301.70 6.804
301.80 6.796
301.90 6.787
302.00 6.779
302.10 6.77
302.20 6.762
302.30 6.753
302.40 6.745
302.50 6.736
302.60 6.728
302.70 6.719
302.80 6.711
302.90 6.703
303.00 6.694
303.10 6.686
303.20 6.677
303.30 6.669
303.40 6.661
303.50 6.652
303.60 6.644
303.70 6.636
303.80 6.627
303.90 6.619
304.00 6.611
304.10 6.603
304.20 6.594
304.30 6.586
304.40 6.578
304.50 6.57
304.60 6.562
304.70 6.553
304.80 6.545
304.90 6.537
305.00 6.529
305.10 6.521
305.20 6.513
305.30 6.505
305.40 6.497
305.50 6.488
305.60 6.48
305.70 6.472
305.80 6.464
305.90 6.456
306.00 6.448
306.10 6.44
306.20 6.432
306.30 6.424
306.40 6.416
306.50 6.408
306.60 6.4
306.70 6.393
306.80 6.385
306.90 6.377
307.00 6.369
307.10 6.361
307.20 6.353
307.30 6.345
307.40 6.337
307.50 6.33
307.60 6.322
307.70 6.314
307.80 6.306
307.90 6.298
308.00 6.291
308.10 6.283
308.20 6.275
308.30 6.267
308.40 6.26
308.50 6.252
308.60 6.244
308.70 6.237
308.80 6.229
308.90 6.221
309.00 6.214
309.10 6.206
309.20 6.198
309.30 6.191
309.40 6.183
309.50 6.176
309.60 6.168
309.70 6.16
309.80 6.153
309.90 6.145
310.00 6.138
310.10 6.13
310.20 6.123
310.30 6.115
310.40 6.108
310.50 6.1
310.60 6.093
310.70 6.085
310.80 6.078
310.90 6.071
311.00 6.063
311.10 6.056
311.20 6.048
311.30 6.041
311.40 6.034
311.50 6.026
311.60 6.019
311.70 6.011
311.80 6.004
311.90 5.997
312.00 5.99
312.10 5.982
312.20 5.975
312.30 5.968
312.40 5.96
312.50 5.953
312.60 5.946
312.70 5.939
312.80 5.931
312.90 5.924
313.00 5.917
313.10 5.91
313.20 5.903
313.30 5.896
313.40 5.888
313.50 5.881
313.60 5.874
313.70 5.867
313.80 5.86
313.90 5.853
314.00 5.846
314.10 5.839
314.20 5.832
314.30 5.825
314.40 5.818
314.50 5.81
314.60 5.803
314.70 5.796
314.80 5.789
314.90 5.782
315.00 5.775
315.10 5.769
315.20 5.762
315.30 5.755
315.40 5.748
315.50 5.741
315.60 5.734
315.70 5.727
315.80 5.72
315.90 5.713
316.00 5.706
316.10 5.699
316.20 5.693
316.30 5.686
316.40 5.679
316.50 5.672
316.60 5.665
316.70 5.658
316.80 5.652
316.90 5.645
317.00 5.638
317.10 5.631
317.20 5.625
317.30 5.618
317.40 5.611
317.50 5.604
317.60 5.598
317.70 5.591
317.80 5.584
317.90 5.578
318.00 5.571
318.10 5.564
318.20 5.558
318.30 5.551
318.40 5.544
318.50 5.538
318.60 5.531
318.70 5.525
318.80 5.518
318.90 5.511
319.00 5.505
319.10 5.498
319.20 5.492
319.30 5.485
319.40 5.479
319.50 5.472
319.60 5.466
319.70 5.459
319.80 5.453
319.90 5.446
320.00 5.44
320.10 5.433
320.20 5.427
320.30 5.42
320.40 5.414
320.50 5.407
320.60 5.401
320.70 5.395
320.80 5.388
320.90 5.382
321.00 5.375
321.10 5.369
321.20 5.363
321.30 5.356
321.40 5.35
321.50 5.344
321.60 5.337
321.70 5.331
321.80 5.325
321.90 5.318
322.00 5.312
322.10 5.306
322.20 5.3
322.30 5.293
322.40 5.287
322.50 5.281
322.60 5.275
322.70 5.268
322.80 5.262
322.90 5.256
323.00 5.25
323.10 5.244
323.20 5.238
323.30 5.231
323.40 5.225
323.50 5.219
323.60 5.213
323.70 5.207
323.80 5.201
323.90 5.195
324.00 5.188
324.10 5.182
324.20 5.176
324.30 5.17
324.40 5.164
324.50 5.158
324.60 5.152
324.70 5.146
324.80 5.14
324.90 5.134
325.00 5.128
325.10 5.122
325.20 5.116
325.30 5.11
325.40 5.104
325.50 5.098
325.60 5.092
325.70 5.086
325.80 5.08
325.90 5.074
326.00 5.068
326.10 5.062
326.20 5.056
326.30 5.051
326.40 5.045
326.50 5.039
326.60 5.033
326.70 5.027
326.80 5.021
326.90 5.015
327.00 5.01
327.10 5.004
327.20 4.998
327.30 4.992
327.40 4.986
327.50 4.98
327.60 4.975
327.70 4.969
327.80 4.963
327.90 4.957
328.00 4.952
328.10 4.946
328.20 4.94
328.30 4.934
328.40 4.929
328.50 4.923
328.60 4.917
328.70 4.912
328.80 4.906
328.90 4.9
329.00 4.895
329.10 4.889
329.20 4.883
329.30 4.878
329.40 4.872
329.50 4.866
329.60 4.861
329.70 4.855
329.80 4.849
329.90 4.844
330.00 4.838
330.10 4.833
330.20 4.827
330.30 4.822
330.40 4.816
330.50 4.811
330.60 4.805
330.70 4.8
330.80 4.794
330.90 4.788
331.00 4.783
331.10 4.777
331.20 4.772
331.30 4.766
331.40 4.761
331.50 4.756
331.60 4.75
331.70 4.745
331.80 4.739
331.90 4.734
332.00 4.728
332.10 4.723
332.20 4.717
332.30 4.712
332.40 4.707
332.50 4.701
332.60 4.696
332.70 4.691
332.80 4.685
332.90 4.68
333.00 4.674
333.10 4.669
333.20 4.664
333.30 4.658
333.40 4.653
333.50 4.648
333.60 4.642
333.70 4.637
333.80 4.632
333.90 4.627
334.00 4.621
334.10 4.616
334.20 4.611
334.30 4.606
334.40 4.6
334.50 4.595
334.60 4.59
334.70 4.585
334.80 4.579
334.90 4.574
335.00 4.569
335.10 4.564
335.20 4.559
335.30 4.553
335.40 4.548
335.50 4.543
335.60 4.538
335.70 4.533
335.80 4.528
335.90 4.522
336.00 4.517
336.10 4.512
336.20 4.507
336.30 4.502
336.40 4.497
336.50 4.492
336.60 4.487
336.70 4.482
336.80 4.477
336.90 4.472
337.00 4.466
337.10 4.461
337.20 4.456
337.30 4.451
337.40 4.446
337.50 4.441
337.60 4.436
337.70 4.431
337.80 4.426
337.90 4.421
338.00 4.416
338.10 4.411
338.20 4.406
338.30 4.401
338.40 4.396
338.50 4.391
338.60 4.387
338.70 4.382
338.80 4.377
338.90 4.372
339.00 4.367
339.10 4.362
339.20 4.357
339.30 4.352
339.40 4.347
339.50 4.342
339.60 4.337
339.70 4.333
339.80 4.328
339.90 4.323
340.00 4.318
340.10 4.313
340.20 4.308
340.30 4.304
340.40 4.299
340.50 4.294
340.60 4.289
340.70 4.284
340.80 4.28
340.90 4.275
341.00 4.27
341.10 4.265
341.20 4.26
341.30 4.256
341.40 4.251
341.50 4.246
341.60 4.241
341.70 4.237
341.80 4.232
341.90 4.227
342.00 4.222
342.10 4.218
342.20 4.213
342.30 4.208
342.40 4.204
342.50 4.199
342.60 4.194
342.70 4.19
342.80 4.185
342.90 4.18
343.00 4.176
343.10 4.171
343.20 4.167
343.30 4.162
343.40 4.157
343.50 4.153
343.60 4.148
343.70 4.143
343.80 4.139
343.90 4.134
344.00 4.13
344.10 4.125
344.20 4.121
344.30 4.116
344.40 4.111
344.50 4.107
344.60 4.102
344.70 4.098
344.80 4.093
344.90 4.089
345.00 4.084
345.10 4.08
345.20 4.075
345.30 4.071
345.40 4.066
345.50 4.062
345.60 4.057
345.70 4.053
345.80 4.048
345.90 4.044
346.00 4.039
346.10 4.035
346.20 4.03
346.30 4.026
346.40 4.022
346.50 4.017
346.60 4.013
346.70 4.008
346.80 4.004
346.90 4
347.00 3.995
347.10 3.991
347.20 3.986
347.30 3.982
347.40 3.978
347.50 3.973
347.60 3.969
347.70 3.965
347.80 3.96
347.90 3.956
348.00 3.951
348.10 3.947
348.20 3.943
348.30 3.939
348.40 3.934
348.50 3.93
348.60 3.926
348.70 3.921
348.80 3.917
348.90 3.913
349.00 3.909
349.10 3.904
349.20 3.9
349.30 3.896
349.40 3.891
349.50 3.887
349.60 3.883
349.70 3.879
349.80 3.874
349.90 3.87
350.00 3.866
350.10 3.862
350.20 3.858
350.30 3.853
350.40 3.849
350.50 3.845
350.60 3.841
350.70 3.837
350.80 3.833
350.90 3.828
351.00 3.824
351.10 3.82
351.20 3.816
351.30 3.812
351.40 3.808
351.50 3.803
351.60 3.799
351.70 3.795
351.80 3.791
351.90 3.787
352.00 3.783
352.10 3.779
352.20 3.775
352.30 3.771
352.40 3.766
352.50 3.762
352.60 3.758
352.70 3.754
352.80 3.75
352.90 3.746
353.00 3.742
353.10 3.738
353.20 3.734
353.30 3.73
353.40 3.726
353.50 3.722
353.60 3.718
353.70 3.714
353.80 3.71
353.90 3.706
354.00 3.702
354.10 3.698
354.20 3.694
354.30 3.69
354.40 3.686
354.50 3.682
354.60 3.678
354.70 3.674
354.80 3.67
354.90 3.666
355.00 3.662
355.10 3.658
355.20 3.654
355.30 3.65
355.40 3.647
355.50 3.643
355.60 3.639
355.70 3.635
355.80 3.631
355.90 3.627
356.00 3.623
356.10 3.619
356.20 3.615
356.30 3.611
356.40 3.608
356.50 3.604
356.60 3.6
356.70 3.596
356.80 3.592
356.90 3.588
357.00 3.585
357.10 3.581
357.20 3.577
357.30 3.573
357.40 3.569
357.50 3.565
357.60 3.562
357.70 3.558
357.80 3.554
357.90 3.55
358.00 3.546
358.10 3.543
358.20 3.539
358.30 3.535
358.40 3.531
358.50 3.528
358.60 3.524
358.70 3.52
358.80 3.516
358.90 3.513
359.00 3.509
359.10 3.505
359.20 3.501
359.30 3.498
359.40 3.494
359.50 3.49
359.60 3.487
359.70 3.483
359.80 3.479
359.90 3.475
360.00 3.472
360.10 3.468
360.20 3.464
360.30 3.461
360.40 3.457
360.50 3.453
360.60 3.45
360.70 3.446
360.80 3.442
360.90 3.439
361.00 3.435
361.10 3.432
361.20 3.428
361.30 3.424
361.40 3.421
361.50 3.417
361.60 3.413
361.70 3.41
361.80 3.406
361.90 3.403
362.00 3.399
362.10 3.395
362.20 3.392
362.30 3.388
362.40 3.385
362.50 3.381
362.60 3.378
362.70 3.374
362.80 3.37
362.90 3.367
363.00 3.363
363.10 3.36
363.20 3.356
363.30 3.353
363.40 3.349
363.50 3.346
363.60 3.342
363.70 3.339
363.80 3.335
363.90 3.332
364.00 3.328
364.10 3.325
364.20 3.321
364.30 3.318
364.40 3.314
364.50 3.311
364.60 3.307
364.70 3.304
364.80 3.3
364.90 3.297
365.00 3.294
365.10 3.29
365.20 3.287
365.30 3.283
365.40 3.28
365.50 3.276
365.60 3.273
365.70 3.269
365.80 3.266
365.90 3.263
366.00 3.259
366.10 3.256
366.20 3.252
366.30 3.249
366.40 3.246
366.50 3.242
366.60 3.239
366.70 3.235
366.80 3.232
366.90 3.229
367.00 3.225
367.10 3.222
367.20 3.218
367.30 3.215
367.40 3.212
367.50 3.208
367.60 3.205
367.70 3.201
367.80 3.198
367.90 3.195
368.00 3.191
368.10 3.188
368.20 3.185
368.30 3.181
368.40 3.178
368.50 3.175
368.60 3.171
368.70 3.168
368.80 3.165
368.90 3.161
369.00 3.158
369.10 3.155
369.20 3.151
369.30 3.148
369.40 3.145
369.50 3.141
369.60 3.138
369.70 3.135
369.80 3.132
369.90 3.128
370.00 3.125
370.10 3.122
370.20 3.119
370.30 3.115
370.40 3.112
370.50 3.109
370.60 3.106
370.70 3.102
370.80 3.099
370.90 3.096
371.00 3.093
371.10 3.089
371.20 3.086
371.30 3.083
371.40 3.08
371.50 3.077
371.60 3.073
371.70 3.07
371.80 3.067
371.90 3.064
372.00 3.061
372.10 3.057
372.20 3.054
372.30 3.051
372.40 3.048
372.50 3.045
372.60 3.042
372.70 3.039
372.80 3.035
372.90 3.032
373.00 3.029
373.10 3.026
373.20 3.023
373.30 3.02
373.40 3.017
373.50 3.014
373.60 3.01
373.70 3.007
373.80 3.004
373.90 3.001
374.00 2.998
374.10 2.995
374.20 2.992
374.30 2.989
374.40 2.986
374.50 2.983
374.60 2.98
374.70 2.977
374.80 2.973
374.90 2.97
375.00 2.967
375.10 2.964
375.20 2.961
375.30 2.958
375.40 2.955
375.50 2.952
375.60 2.949
375.70 2.946
375.80 2.943
375.90 2.94
376.00 2.937
376.10 2.934
376.20 2.931
376.30 2.928
376.40 2.925
376.50 2.922
376.60 2.919
376.70 2.916
376.80 2.913
376.90 2.91
377.00 2.907
377.10 2.905
377.20 2.902
377.30 2.899
377.40 2.896
377.50 2.893
377.60 2.89
377.70 2.887
377.80 2.884
377.90 2.881
378.00 2.878
378.10 2.876
378.20 2.873
378.30 2.87
378.40 2.867
378.50 2.864
378.60 2.861
378.70 2.858
378.80 2.855
378.90 2.853
379.00 2.85
379.10 2.847
379.20 2.844
379.30 2.841
379.40 2.838
379.50 2.836
379.60 2.833
379.70 2.83
379.80 2.827
379.90 2.824
380.00 2.822
380.10 2.819
380.20 2.816
380.30 2.814
380.40 2.811
380.50 2.808
380.60 2.805
380.70 2.803
380.80 2.8
380.90 2.797
381.00 2.795
381.10 2.792
381.20 2.789
381.30 2.786
381.40 2.784
381.50 2.781
381.60 2.778
381.70 2.775
381.80 2.773
381.90 2.77
382.00 2.767
382.10 2.764
382.20 2.761
382.30 2.759
382.40 2.756
382.50 2.753
382.60 2.75
382.70 2.747
382.80 2.744
382.90 2.742
383.00 2.739
383.10 2.736
383.20 2.733
383.30 2.73
383.40 2.728
383.50 2.725
383.60 2.722
383.70 2.72
383.80 2.717
383.90 2.715
384.00 2.713
384.10 2.71
384.20 2.708
384.30 2.706
384.40 2.703
384.50 2.701
384.60 2.699
384.70 2.696
384.80 2.694
384.90 2.692
385.00 2.689
385.10 2.687
385.20 2.684
385.30 2.682
385.40 2.679
385.50 2.677
385.60 2.674
385.70 2.672
385.80 2.669
385.90 2.666
386.00 2.664
386.10 2.661
386.20 2.658
386.30 2.655
386.40 2.653
386.50 2.65
386.60 2.647
386.70 2.644
386.80 2.641
386.90 2.638
387.00 2.635
387.10 2.632
387.20 2.629
387.30 2.626
387.40 2.623
387.50 2.62
387.60 2.617
387.70 2.613
387.80 2.61
387.90 2.607
388.00 2.604
388.10 2.601
388.20 2.597
388.30 2.594
388.40 2.591
388.50 2.588
388.60 2.585
388.70 2.582
388.80 2.58
388.90 2.577
389.00 2.575
389.10 2.573
389.20 2.571
389.30 2.569
389.40 2.567
389.50 2.566
389.60 2.564
389.70 2.563
389.80 2.561
389.90 2.56
390.00 2.558
390.10 2.556
390.20 2.555
390.30 2.553
390.40 2.552
390.50 2.55
390.60 2.548
390.70 2.547
390.80 2.545
390.90 2.543
391.00 2.541
391.10 2.539
391.20 2.537
391.30 2.536
391.40 2.534
391.50 2.532
391.60 2.529
391.70 2.527
391.80 2.525
391.90 2.523
392.00 2.521
392.10 2.519
392.20 2.516
392.30 2.514
392.40 2.512
392.50 2.509
392.60 2.507
392.70 2.504
392.80 2.502
392.90 2.499
393.00 2.497
393.10 2.494
393.20 2.491
393.30 2.488
393.40 2.486
393.50 2.483
393.60 2.48
393.70 2.477
393.80 2.474
393.90 2.471
394.00 2.468
394.10 2.465
394.20 2.461
394.30 2.458
394.40 2.455
394.50 2.451
394.60 2.448
394.70 2.444
394.80 2.441
394.90 2.437
395.00 2.433
395.10 2.43
395.20 2.426
395.30 2.422
395.40 2.418
395.50 2.414
395.60 2.41
395.70 2.405
395.80 2.401
395.90 2.397
396.00 2.393
396.10 2.388
396.20 2.384
396.30 2.379
396.40 2.375
396.50 2.37
396.60 2.366
396.70 2.361
396.80 2.357
396.90 2.353
397.00 2.349
397.10 2.348
397.20 2.348
397.30 2.348
397.40 2.348
397.50 2.348
397.60 2.348
397.70 2.348
397.80 2.349
397.90 2.349
398.00 2.349
398.10 2.349
398.20 2.348
398.30 2.348
398.40 2.348
398.50 2.348
398.60 2.347
398.70 2.347
398.80 2.347
398.90 2.346
399.00 2.345
399.10 2.345
399.20 2.344
399.30 2.343
399.40 2.342
399.50 2.341
399.60 2.34
399.70 2.339
399.80 2.338
399.90 2.337
400.00 2.336
400.10 2.335
400.20 2.333
400.30 2.332
400.40 2.331
400.50 2.329
400.60 2.328
400.70 2.326
400.80 2.325
400.90 2.323
401.00 2.322
401.10 2.32
401.20 2.318
401.30 2.317
401.40 2.315
401.50 2.313
401.60 2.312
401.70 2.31
401.80 2.308
401.90 2.306
402.00 2.304
402.10 2.302
402.20 2.3
402.30 2.298
402.40 2.296
402.50 2.294
402.60 2.292
402.70 2.29
402.80 2.288
402.90 2.286
403.00 2.284
403.10 2.282
403.20 2.28
403.30 2.278
403.40 2.276
403.50 2.274
403.60 2.271
403.70 2.269
403.80 2.267
403.90 2.265
404.00 2.262
404.10 2.26
404.20 2.258
404.30 2.255
404.40 2.253
404.50 2.251
404.60 2.248
404.70 2.246
404.80 2.244
404.90 2.241
405.00 2.239
405.10 2.236
405.20 2.233
405.30 2.231
405.40 2.228
405.50 2.226
405.60 2.223
405.70 2.22
405.80 2.217
405.90 2.215
406.00 2.212
406.10 2.209
406.20 2.206
406.30 2.203
406.40 2.2
406.50 2.197
406.60 2.194
406.70 2.191
406.80 2.187
406.90 2.184
407.00 2.181
407.10 2.177
407.20 2.174
407.30 2.17
407.40 2.166
407.50 2.162
407.60 2.158
407.70 2.154
407.80 2.15
407.90 2.146
408.00 2.142
408.10 2.137
408.20 2.133
408.30 2.128
408.40 2.123
408.50 2.118
408.60 2.113
408.70 2.108
408.80 2.102
408.90 2.097
409.00 2.091
409.10 2.085
409.20 2.079
409.30 2.073
409.40 2.067
409.50 2.061
409.60 2.054
409.70 2.048
409.80 2.042
409.90 2.037
410.00 2.034
410.10 2.033
410.20 2.034
410.30 2.029
410.40 2.027
410.50 2.027
410.60 2.03
410.70 2.032
410.80 2.035
410.90 2.037
411.00 2.039
411.10 2.042
411.20 2.044
411.30 2.046
411.40 2.048
411.50 2.05
411.60 2.051
411.70 2.053
411.80 2.054
411.90 2.055
412.00 2.056
412.10 2.057
412.20 2.057
412.30 2.058
412.40 2.058
412.50 2.059
412.60 2.059
412.70 2.059
412.80 2.059
412.90 2.059
413.00 2.059
413.10 2.058
413.20 2.058
413.30 2.058
413.40 2.057
413.50 2.056
413.60 2.056
413.70 2.055
413.80 2.054
413.90 2.053
414.00 2.052
414.10 2.051
414.20 2.05
414.30 2.049
414.40 2.048
414.50 2.047
414.60 2.046
414.70 2.045
414.80 2.043
414.90 2.042
415.00 2.041
415.10 2.039
415.20 2.038
415.30 2.037
415.40 2.035
415.50 2.034
415.60 2.032
415.70 2.031
415.80 2.029
415.90 2.028
416.00 2.026
416.10 2.025
416.20 2.023
416.30 2.022
416.40 2.02
416.50 2.018
416.60 2.017
416.70 2.015
416.80 2.014
416.90 2.012
417.00 2.01
417.10 2.009
417.20 2.007
417.30 2.005
417.40 2.004
417.50 2.002
417.60 2
417.70 1.999
417.80 1.997
417.90 1.995
418.00 1.993
418.10 1.992
418.20 1.99
418.30 1.988
418.40 1.987
418.50 1.985
418.60 1.983
418.70 1.981
418.80 1.98
418.90 1.978
419.00 1.976
419.10 1.974
419.20 1.973
419.30 1.971
419.40 1.969
419.50 1.967
419.60 1.966
419.70 1.964
419.80 1.962
419.90 1.96
420.00 1.959
420.10 1.957
420.20 1.955
420.30 1.953
420.40 1.952
420.50 1.95
420.60 1.948
420.70 1.946
420.80 1.945
420.90 1.943
421.00 1.941
421.10 1.939
421.20 1.938
421.30 1.936
421.40 1.934
421.50 1.932
421.60 1.931
421.70 1.929
421.80 1.927
421.90 1.925
422.00 1.924
422.10 1.922
422.20 1.92
422.30 1.918
422.40 1.917
422.50 1.915
422.60 1.913
422.70 1.911
422.80 1.91
422.90 1.908
423.00 1.906
423.10 1.904
423.20 1.903
423.30 1.901
423.40 1.899
423.50 1.897
423.60 1.896
423.70 1.894
423.80 1.892
423.90 1.89
424.00 1.889
424.10 1.887
424.20 1.885
424.30 1.883
424.40 1.881
424.50 1.88
424.60 1.878
424.70 1.876
424.80 1.874
424.90 1.873
425.00 1.871
425.10 1.869
425.20 1.867
425.30 1.866
425.40 1.864
425.50 1.862
425.60 1.86
425.70 1.859
425.80 1.857
425.90 1.855
426.00 1.853
426.10 1.851
426.20 1.85
426.30 1.848
426.40 1.846
426.50 1.844
426.60 1.842
426.70 1.841
426.80 1.839
426.90 1.837
427.00 1.835
427.10 1.833
427.20 1.831
427.30 1.83
427.40 1.828
427.50 1.826
427.60 1.824
427.70 1.822
427.80 1.82
427.90 1.818
428.00 1.816
428.10 1.814
428.20 1.813
428.30 1.811
428.40 1.809
428.50 1.807
428.60 1.805
428.70 1.803
428.80 1.801
428.90 1.799
429.00 1.796
429.10 1.794
429.20 1.792
429.30 1.79
429.40 1.788
429.50 1.786
429.60 1.783
429.70 1.781
429.80 1.779
429.90 1.776
430.00 1.774
430.10 1.772
430.20 1.769
430.30 1.766
430.40 1.764
430.50 1.761
430.60 1.758
430.70 1.756
430.80 1.753
430.90 1.75
431.00 1.747
431.10 1.743
431.20 1.74
431.30 1.737
431.40 1.733
431.50 1.73
431.60 1.726
431.70 1.722
431.80 1.718
431.90 1.714
432.00 1.71
432.10 1.705
432.20 1.701
432.30 1.696
432.40 1.691
432.50 1.686
432.60 1.68
432.70 1.675
432.80 1.669
432.90 1.663
433.00 1.657
433.10 1.65
433.20 1.644
433.30 1.637
433.40 1.631
433.50 1.624
433.60 1.617
433.70 1.61
433.80 1.603
433.90 1.595
434.00 1.588
434.10 1.587
434.20 1.592
434.30 1.596
434.40 1.6
434.50 1.605
434.60 1.609
434.70 1.613
434.80 1.617
434.90 1.62
435.00 1.624
435.10 1.627
435.20 1.631
435.30 1.634
435.40 1.636
435.50 1.639
435.60 1.641
435.70 1.643
435.80 1.645
435.90 1.647
436.00 1.649
436.10 1.65
436.20 1.651
436.30 1.653
436.40 1.653
436.50 1.654
436.60 1.655
436.70 1.655
436.80 1.656
436.90 1.656
437.00 1.656
437.10 1.656
437.20 1.656
437.30 1.656
437.40 1.656
437.50 1.655
437.60 1.655
437.70 1.655
437.80 1.654
437.90 1.654
438.00 1.653
438.10 1.652
438.20 1.652
438.30 1.651
438.40 1.65
438.50 1.649
438.60 1.648
438.70 1.648
438.80 1.647
438.90 1.646
439.00 1.645
439.10 1.644
439.20 1.643
439.30 1.642
439.40 1.64
439.50 1.639
439.60 1.638
439.70 1.637
439.80 1.636
439.90 1.635
440.00 1.634
440.10 1.633
440.20 1.631
440.30 1.63
440.40 1.629
440.50 1.628
440.60 1.626
440.70 1.625
440.80 1.624
440.90 1.623
441.00 1.621
441.10 1.62
441.20 1.619
441.30 1.618
441.40 1.616
441.50 1.615
441.60 1.614
441.70 1.613
441.80 1.611
441.90 1.61
442.00 1.609
442.10 1.607
442.20 1.606
442.30 1.605
442.40 1.603
442.50 1.602
442.60 1.601
442.70 1.599
442.80 1.598
442.90 1.597
443.00 1.595
443.10 1.594
443.20 1.593
443.30 1.591
443.40 1.59
443.50 1.589
443.60 1.587
443.70 1.586
443.80 1.585
443.90 1.584
444.00 1.582
444.10 1.581
444.20 1.58
444.30 1.578
444.40 1.577
444.50 1.576
444.60 1.574
444.70 1.573
444.80 1.572
444.90 1.57
445.00 1.569
445.10 1.568
445.20 1.566
445.30 1.565
445.40 1.564
445.50 1.562
445.60 1.561
445.70 1.56
445.80 1.558
445.90 1.557
446.00 1.556
446.10 1.554
446.20 1.553
446.30 1.552
446.40 1.55
446.50 1.549
446.60 1.548
446.70 1.546
446.80 1.545
446.90 1.544
447.00 1.542
447.10 1.541
447.20 1.54
447.30 1.538
447.40 1.537
447.50 1.536
447.60 1.535
447.70 1.533
447.80 1.532
447.90 1.531
448.00 1.529
448.10 1.528
448.20 1.527
448.30 1.525
448.40 1.524
448.50 1.523
448.60 1.521
448.70 1.52
448.80 1.519
448.90 1.518
449.00 1.516
449.10 1.515
449.20 1.514
449.30 1.512
449.40 1.511
449.50 1.51
449.60 1.509
449.70 1.507
449.80 1.506
449.90 1.505
450.00 1.503
450.10 1.502
450.20 1.501
450.30 1.5
450.40 1.498
450.50 1.497
450.60 1.496
450.70 1.494
450.80 1.493
450.90 1.492
451.00 1.491
451.10 1.489
451.20 1.488
451.30 1.487
451.40 1.486
451.50 1.484
451.60 1.483
451.70 1.482
451.80 1.48
451.90 1.479
452.00 1.478
452.10 1.477
452.20 1.475
452.30 1.474
452.40 1.473
452.50 1.472
452.60 1.47
452.70 1.469
452.80 1.468
452.90 1.467
453.00 1.465
453.10 1.464
453.20 1.463
453.30 1.462
453.40 1.46
453.50 1.459
453.60 1.458
453.70 1.457
453.80 1.456
453.90 1.454
454.00 1.453
454.10 1.452
454.20 1.451
454.30 1.449
454.40 1.448
454.50 1.447
454.60 1.446
454.70 1.444
454.80 1.443
454.90 1.442
455.00 1.441
455.10 1.44
455.20 1.438
455.30 1.437
455.40 1.436
455.50 1.435
455.60 1.433
455.70 1.432
455.80 1.431
455.90 1.43
456.00 1.429
456.10 1.427
456.20 1.426
456.30 1.425
456.40 1.424
456.50 1.423
456.60 1.421
456.70 1.42
456.80 1.419
456.90 1.418
457.00 1.417
457.10 1.415
457.20 1.414
457.30 1.413
457.40 1.412
457.50 1.411
457.60 1.409
457.70 1.408
457.80 1.407
457.90 1.406
458.00 1.405
458.10 1.403
458.20 1.402
458.30 1.401
458.40 1.4
458.50 1.399
458.60 1.398
458.70 1.396
458.80 1.395
458.90 1.394
459.00 1.393
459.10 1.392
459.20 1.39
459.30 1.389
459.40 1.388
459.50 1.387
459.60 1.386
459.70 1.385
459.80 1.383
459.90 1.382
460.00 1.381
460.10 1.38
460.20 1.379
460.30 1.378
460.40 1.377
460.50 1.375
460.60 1.374
460.70 1.373
460.80 1.372
460.90 1.371
461.00 1.37
461.10 1.368
461.20 1.367
461.30 1.366
461.40 1.365
461.50 1.364
461.60 1.363
461.70 1.362
461.80 1.36
461.90 1.359
462.00 1.358
462.10 1.357
462.20 1.356
462.30 1.355
462.40 1.354
462.50 1.352
462.60 1.351
462.70 1.35
462.80 1.349
462.90 1.348
463.00 1.347
463.10 1.346
463.20 1.345
463.30 1.343
463.40 1.342
463.50 1.341
463.60 1.34
463.70 1.339
463.80 1.338
463.90 1.337
464.00 1.336
464.10 1.335
464.20 1.333
464.30 1.332
464.40 1.331
464.50 1.33
464.60 1.329
464.70 1.328
464.80 1.327
464.90 1.326
465.00 1.325
465.10 1.323
465.20 1.322
465.30 1.321
465.40 1.32
465.50 1.319
465.60 1.318
465.70 1.317
465.80 1.316
465.90 1.315
466.00 1.314
466.10 1.312
466.20 1.311
466.30 1.31
466.40 1.309
466.50 1.308
466.60 1.307
466.70 1.306
466.80 1.305
466.90 1.304
467.00 1.303
467.10 1.302
467.20 1.3
467.30 1.299
467.40 1.298
467.50 1.297
467.60 1.296
467.70 1.295
467.80 1.294
467.90 1.293
468.00 1.292
468.10 1.291
468.20 1.29
468.30 1.289
468.40 1.288
468.50 1.287
468.60 1.285
468.70 1.284
468.80 1.283
468.90 1.282
469.00 1.281
469.10 1.28
469.20 1.279
469.30 1.278
469.40 1.277
469.50 1.276
469.60 1.275
469.70 1.274
469.80 1.273
469.90 1.272
470.00 1.271
470.10 1.27
470.20 1.268
470.30 1.267
470.40 1.266
470.50 1.265
470.60 1.264
470.70 1.263
470.80 1.262
470.90 1.261
471.00 1.26
471.10 1.259
471.20 1.258
471.30 1.257
471.40 1.256
471.50 1.255
471.60 1.254
471.70 1.253
471.80 1.252
471.90 1.251
472.00 1.25
472.10 1.249
472.20 1.248
472.30 1.247
472.40 1.246
472.50 1.245
472.60 1.243
472.70 1.242
472.80 1.241
472.90 1.24
473.00 1.239
473.10 1.238
473.20 1.237
473.30 1.236
473.40 1.235
473.50 1.234
473.60 1.233
473.70 1.232
473.80 1.231
473.90 1.23
474.00 1.229
474.10 1.228
474.20 1.227
474.30 1.226
474.40 1.225
474.50 1.224
474.60 1.223
474.70 1.222
474.80 1.221
474.90 1.22
475.00 1.219
475.10 1.218
475.20 1.217
475.30 1.216
475.40 1.215
475.50 1.214
475.60 1.213
475.70 1.212
475.80 1.211
475.90 1.21
476.00 1.209
476.10 1.208
476.20 1.207
476.30 1.206
476.40 1.205
476.50 1.204
476.60 1.203
476.70 1.202
476.80 1.2
476.90 1.199
477.00 1.198
477.10 1.197
477.20 1.196
477.30 1.195
477.40 1.194
477.50 1.193
477.60 1.192
477.70 1.191
477.80 1.19
477.90 1.189
478.00 1.188
478.10 1.187
478.20 1.186
478.30 1.185
478.40 1.184
478.50 1.183
478.60 1.182
478.70 1.181
478.80 1.18
478.90 1.179
479.00 1.178
479.10 1.177
479.20 1.176
479.30 1.174
479.40 1.173
479.50 1.172
479.60 1.171
479.70 1.17
479.80 1.169
479.90 1.168
480.00 1.167
480.10 1.166
480.20 1.165
480.30 1.163
480.40 1.162
480.50 1.161
480.60 1.16
480.70 1.159
480.80 1.157
480.90 1.156
481.00 1.155
481.10 1.154
481.20 1.153
481.30 1.151
481.40 1.15
481.50 1.149
481.60 1.147
481.70 1.146
481.80 1.145
481.90 1.143
482.00 1.142
482.10 1.141
482.20 1.139
482.30 1.137
482.40 1.136
482.50 1.134
482.60 1.132
482.70 1.131
482.80 1.129
482.90 1.127
483.00 1.126
483.10 1.124
483.20 1.122
483.30 1.12
483.40 1.117
483.50 1.115
483.60 1.113
483.70 1.11
483.80 1.108
483.90 1.106
484.00 1.103
484.10 1.101
484.20 1.098
484.30 1.095
484.40 1.092
484.50 1.089
484.60 1.085
484.70 1.082
484.80 1.078
484.90 1.074
485.00 1.07
485.10 1.066
485.20 1.062
485.30 1.057
485.40 1.053
485.50 1.048
485.60 1.042
485.70 1.036
485.80 1.03
485.90 1.023
486.00 1.018
486.10 1.027
486.20 1.021
486.30 1.016
486.40 1.021
486.50 1.026
486.60 1.031
486.70 1.035
486.80 1.039
486.90 1.042
487.00 1.045
487.10 1.048
487.20 1.05
487.30 1.052
487.40 1.054
487.50 1.057
487.60 1.059
487.70 1.06
487.80 1.062
487.90 1.063
488.00 1.065
488.10 1.066
488.20 1.067
488.30 1.067
488.40 1.068
488.50 1.069
488.60 1.069
488.70 1.07
488.80 1.07
488.90 1.071
489.00 1.071
489.10 1.072
489.20 1.072
489.30 1.072
489.40 1.072
489.50 1.071
489.60 1.071
489.70 1.071
489.80 1.071
489.90 1.071
490.00 1.071
490.10 1.071
490.20 1.07
490.30 1.07
490.40 1.069
490.50 1.069
490.60 1.068
490.70 1.068
490.80 1.067
490.90 1.067
491.00 1.067
491.10 1.066
491.20 1.065
491.30 1.065
491.40 1.064
491.50 1.064
491.60 1.063
491.70 1.062
491.80 1.062
491.90 1.061
492.00 1.06
492.10 1.06
492.20 1.059
492.30 1.058
492.40 1.058
492.50 1.057
492.60 1.056
492.70 1.056
492.80 1.055
492.90 1.054
493.00 1.054
493.10 1.053
493.20 1.052
493.30 1.051
493.40 1.051
493.50 1.05
493.60 1.049
493.70 1.048
493.80 1.048
493.90 1.047
494.00 1.046
494.10 1.045
494.20 1.045
494.30 1.044
494.40 1.043
494.50 1.042
494.60 1.042
494.70 1.041
494.80 1.04
494.90 1.039
495.00 1.039
495.10 1.038
495.20 1.037
495.30 1.036
495.40 1.035
495.50 1.035
495.60 1.034
495.70 1.033
495.80 1.032
495.90 1.032
496.00 1.031
496.10 1.03
496.20 1.029
496.30 1.029
496.40 1.028
496.50 1.027
496.60 1.026
496.70 1.025
496.80 1.025
496.90 1.024
497.00 1.023
497.10 1.022
497.20 1.022
497.30 1.021
497.40 1.02
497.50 1.019
497.60 1.018
497.70 1.018
497.80 1.017
497.90 1.016
498.00 1.015
498.10 1.015
498.20 1.014
498.30 1.013
498.40 1.012
498.50 1.012
498.60 1.011
498.70 1.01
498.80 1.009
498.90 1.008
499.00 1.008
499.10 1.007
499.20 1.006
499.30 1.005
499.40 1.005
499.50 1.004
499.60 1.003
499.70 1.002
499.80 1.002
499.90 1.001
500.00 1
500.10 0.9992
500.20 0.9985
500.30 0.9977
500.40 0.9969
500.50 0.9962
500.60 0.9954
500.70 0.9947
500.80 0.9939
500.90 0.9931
501.00 0.9924
501.10 0.9916
501.20 0.9909
501.30 0.9901
501.40 0.9893
501.50 0.9886
501.60 0.9878
501.70 0.9871
501.80 0.9863
501.90 0.9856
502.00 0.9848
502.10 0.9841
502.20 0.9833
502.30 0.9825
502.40 0.9818
502.50 0.981
502.60 0.9803
502.70 0.9795
502.80 0.9788
502.90 0.978
503.00 0.9773
503.10 0.9766
503.20 0.9758
503.30 0.9751
503.40 0.9743
503.50 0.9736
503.60 0.9728
503.70 0.9721
503.80 0.9713
503.90 0.9706
504.00 0.9698
504.10 0.9691
504.20 0.9684
504.30 0.9676
504.40 0.9669
504.50 0.9662
504.60 0.9654
504.70 0.9647
504.80 0.9639
504.90 0.9632
505.00 0.9625
505.10 0.9617
505.20 0.961
505.30 0.9603
505.40 0.9595
505.50 0.9588
505.60 0.9581
505.70 0.9573
505.80 0.9566
505.90 0.9559
506.00 0.9552
506.10 0.9544
506.20 0.9537
506.30 0.953
506.40 0.9522
506.50 0.9515
506.60 0.9508
506.70 0.9501
506.80 0.9493
506.90 0.9486
507.00 0.9479
507.10 0.9472
507.20 0.9465
507.30 0.9457
507.40 0.945
507.50 0.9443
507.60 0.9436
507.70 0.9429
507.80 0.9421
507.90 0.9414
508.00 0.9407
508.10 0.94
508.20 0.9393
508.30 0.9386
508.40 0.9379
508.50 0.9371
508.60 0.9364
508.70 0.9357
508.80 0.935
508.90 0.9343
509.00 0.9336
509.10 0.9329
509.20 0.9322
509.30 0.9315
509.40 0.9308
509.50 0.9301
509.60 0.9293
509.70 0.9286
509.80 0.9279
509.90 0.9272
510.00 0.9265
510.10 0.9258
510.20 0.9251
510.30 0.9244
510.40 0.9237
510.50 0.923
510.60 0.9223
510.70 0.9216
510.80 0.9209
510.90 0.9202
511.00 0.9195
511.10 0.9188
511.20 0.9181
511.30 0.9175
511.40 0.9168
511.50 0.9161
511.60 0.9154
511.70 0.9147
511.80 0.914
511.90 0.9133
512.00 0.9126
512.10 0.9119
512.20 0.9112
512.30 0.9105
512.40 0.9099
512.50 0.9092
512.60 0.9085
512.70 0.9078
512.80 0.9071
512.90 0.9064
513.00 0.9057
513.10 0.9051
513.20 0.9044
513.30 0.9037
513.40 0.903
513.50 0.9023
513.60 0.9017
513.70 0.901
513.80 0.9003
513.90 0.8996
514.00 0.8989
514.10 0.8983
514.20 0.8976
514.30 0.8969
514.40 0.8962
514.50 0.8956
514.60 0.8949
514.70 0.8942
514.80 0.8936
514.90 0.8929
515.00 0.8922
515.10 0.8915
515.20 0.8909
515.30 0.8902
515.40 0.8895
515.50 0.8889
515.60 0.8882
515.70 0.8875
515.80 0.8869
515.90 0.8862
516.00 0.8855
516.10 0.8849
516.20 0.8842
516.30 0.8835
516.40 0.8829
516.50 0.8822
516.60 0.8816
516.70 0.8809
516.80 0.8802
516.90 0.8796
517.00 0.8789
517.10 0.8783
517.20 0.8776
517.30 0.8769
517.40 0.8763
517.50 0.8756
517.60 0.875
517.70 0.8743
517.80 0.8737
517.90 0.873
518.00 0.8724
518.10 0.8717
518.20 0.8711
518.30 0.8704
518.40 0.8698
518.50 0.8691
518.60 0.8685
518.70 0.8678
518.80 0.8672
518.90 0.8665
519.00 0.8659
519.10 0.8652
519.20 0.8646
519.30 0.8639
519.40 0.8633
519.50 0.8627
519.60 0.862
519.70 0.8614
519.80 0.8607
519.90 0.8601
520.00 0.8594
520.10 0.8588
520.20 0.8582
520.30 0.8575
520.40 0.8569
520.50 0.8562
520.60 0.8556
520.70 0.855
520.80 0.8543
520.90 0.8537
521.00 0.8531
521.10 0.8524
521.20 0.8518
521.30 0.8512
521.40 0.8505
521.50 0.8499
521.60 0.8493
521.70 0.8486
521.80 0.848
521.90 0.8474
522.00 0.8468
522.10 0.8461
522.20 0.8455
522.30 0.8449
522.40 0.8443
522.50 0.8436
522.60 0.843
522.70 0.8424
522.80 0.8418
522.90 0.8411
523.00 0.8405
523.10 0.8399
523.20 0.8393
523.30 0.8386
523.40 0.838
523.50 0.8374
523.60 0.8368
523.70 0.8362
523.80 0.8355
523.90 0.8349
524.00 0.8343
524.10 0.8337
524.20 0.8331
524.30 0.8325
524.40 0.8318
524.50 0.8312
524.60 0.8306
524.70 0.83
524.80 0.8294
524.90 0.8288
525.00 0.8282
525.10 0.8276
525.20 0.8269
525.30 0.8263
525.40 0.8257
525.50 0.8251
525.60 0.8245
525.70 0.8239
525.80 0.8233
525.90 0.8227
526.00 0.8221
526.10 0.8215
526.20 0.8209
526.30 0.8203
526.40 0.8197
526.50 0.8191
526.60 0.8185
526.70 0.8179
526.80 0.8173
526.90 0.8167
527.00 0.8161
527.10 0.8154
527.20 0.8148
527.30 0.8143
527.40 0.8137
527.50 0.8131
527.60 0.8125
527.70 0.8119
527.80 0.8113
527.90 0.8107
528.00 0.8101
528.10 0.8095
528.20 0.8089
528.30 0.8083
528.40 0.8077
528.50 0.8071
528.60 0.8065
528.70 0.8059
528.80 0.8053
528.90 0.8048
529.00 0.8042
529.10 0.8036
529.20 0.803
529.30 0.8024
529.40 0.8018
529.50 0.8012
529.60 0.8006
529.70 0.8001
529.80 0.7995
529.90 0.7989
530.00 0.7983
530.10 0.7977
530.20 0.7971
530.30 0.7965
530.40 0.796
530.50 0.7954
530.60 0.7948
530.70 0.7942
530.80 0.7936
530.90 0.7931
531.00 0.7925
531.10 0.7919
531.20 0.7913
531.30 0.7908
531.40 0.7902
531.50 0.7896
531.60 0.789
531.70 0.7885
531.80 0.7879
531.90 0.7873
532.00 0.7867
532.10 0.7862
532.20 0.7856
532.30 0.785
532.40 0.7844
532.50 0.7839
532.60 0.7833
532.70 0.7827
532.80 0.7822
532.90 0.7816
533.00 0.781
533.10 0.7805
533.20 0.7799
533.30 0.7793
533.40 0.7788
533.50 0.7782
533.60 0.7776
533.70 0.7771
533.80 0.7765
533.90 0.7759
534.00 0.7754
534.10 0.7748
534.20 0.7742
534.30 0.7737
534.40 0.7731
534.50 0.7726
534.60 0.772
534.70 0.7714
534.80 0.7709
534.90 0.7703
535.00 0.7698
535.10 0.7692
535.20 0.7687
535.30 0.7681
535.40 0.7675
535.50 0.767
535.60 0.7664
535.70 0.7659
535.80 0.7653
535.90 0.7648
536.00 0.7642
536.10 0.7637
536.20 0.7631
536.30 0.7626
536.40 0.762
536.50 0.7615
536.60 0.7609
536.70 0.7604
536.80 0.7598
536.90 0.7593
537.00 0.7587
537.10 0.7582
537.20 0.7576
537.30 0.7571
537.40 0.7565
537.50 0.756
537.60 0.7554
537.70 0.7549
537.80 0.7543
537.90 0.7538
538.00 0.7533
538.10 0.7527
538.20 0.7522
538.30 0.7516
538.40 0.7511
538.50 0.7505
538.60 0.75
538.70 0.7495
538.80 0.7489
538.90 0.7484
539.00 0.7479
539.10 0.7473
539.20 0.7468
539.30 0.7462
539.40 0.7457
539.50 0.7452
539.60 0.7446
539.70 0.7441
539.80 0.7436
539.90 0.743
540.00 0.7425
540.10 0.742
540.20 0.7414
540.30 0.7409
540.40 0.7404
540.50 0.7398
540.60 0.7393
540.70 0.7388
540.80 0.7382
540.90 0.7377
541.00 0.7372
541.10 0.7367
541.20 0.7361
541.30 0.7356
541.40 0.7351
541.50 0.7346
541.60 0.734
541.70 0.7335
541.80 0.733
541.90 0.7325
542.00 0.7319
542.10 0.7314
542.20 0.7309
542.30 0.7304
542.40 0.7298
542.50 0.7293
542.60 0.7288
542.70 0.7283
542.80 0.7278
542.90 0.7272
543.00 0.7267
543.10 0.7262
543.20 0.7257
543.30 0.7252
543.40 0.7246
543.50 0.7241
543.60 0.7236
543.70 0.7231
543.80 0.7226
543.90 0.7221
544.00 0.7215
544.10 0.721
544.20 0.7205
544.30 0.72
544.40 0.7195
544.50 0.719
544.60 0.7185
544.70 0.718
544.80 0.7175
544.90 0.7169
545.00 0.7164
545.10 0.7159
545.20 0.7154
545.30 0.7149
545.40 0.7144
545.50 0.7139
545.60 0.7134
545.70 0.7129
545.80 0.7124
545.90 0.7119
546.00 0.7114
546.10 0.7108
546.20 0.7103
546.30 0.7098
546.40 0.7093
546.50 0.7088
546.60 0.7083
546.70 0.7078
546.80 0.7073
546.90 0.7068
547.00 0.7063
547.10 0.7058
547.20 0.7053
547.30 0.7048
547.40 0.7043
547.50 0.7038
547.60 0.7033
547.70 0.7028
547.80 0.7023
547.90 0.7018
548.00 0.7013
548.10 0.7008
548.20 0.7003
548.30 0.6998
548.40 0.6994
548.50 0.6989
548.60 0.6984
548.70 0.6979
548.80 0.6974
548.90 0.6969
549.00 0.6964
549.10 0.6959
549.20 0.6954
549.30 0.6949
549.40 0.6944
549.50 0.6939
549.60 0.6935
549.70 0.693
549.80 0.6925
549.90 0.692
550.00 0.6915
550.10 0.691
550.20 0.6905
550.30 0.69
550.40 0.6895
550.50 0.6891
550.60 0.6886
550.70 0.6881
550.80 0.6876
550.90 0.6871
551.00 0.6866
551.10 0.6862
551.20 0.6857
551.30 0.6852
551.40 0.6847
551.50 0.6842
551.60 0.6837
551.70 0.6833
551.80 0.6828
551.90 0.6823
552.00 0.6818
552.10 0.6813
552.20 0.6809
552.30 0.6804
552.40 0.6799
552.50 0.6794
552.60 0.679
552.70 0.6785
552.80 0.678
552.90 0.6775
553.00 0.6771
553.10 0.6766
553.20 0.6761
553.30 0.6756
553.40 0.6752
553.50 0.6747
553.60 0.6742
553.70 0.6737
553.80 0.6733
553.90 0.6728
554.00 0.6723
554.10 0.6719
554.20 0.6714
554.30 0.6709
554.40 0.6705
554.50 0.67
554.60 0.6695
554.70 0.669
554.80 0.6686
554.90 0.6681
555.00 0.6676
555.10 0.6672
555.20 0.6667
555.30 0.6662
555.40 0.6658
555.50 0.6653
555.60 0.6649
555.70 0.6644
555.80 0.6639
555.90 0.6635
556.00 0.663
556.10 0.6625
556.20 0.6621
556.30 0.6616
556.40 0.6611
556.50 0.6607
556.60 0.6602
556.70 0.6598
556.80 0.6593
556.90 0.6588
557.00 0.6584
557.10 0.6579
557.20 0.6575
557.30 0.657
557.40 0.6566
557.50 0.6561
557.60 0.6556
557.70 0.6552
557.80 0.6547
557.90 0.6543
558.00 0.6538
558.10 0.6534
558.20 0.6529
558.30 0.6525
558.40 0.652
558.50 0.6516
558.60 0.6511
558.70 0.6507
558.80 0.6502
558.90 0.6498
559.00 0.6493
559.10 0.6489
559.20 0.6484
559.30 0.648
559.40 0.6475
559.50 0.6471
559.60 0.6466
559.70 0.6462
559.80 0.6457
559.90 0.6453
560.00 0.6448
560.10 0.6444
560.20 0.6439
560.30 0.6435
560.40 0.643
560.50 0.6426
560.60 0.6421
560.70 0.6417
560.80 0.6412
560.90 0.6408
561.00 0.6404
561.10 0.6399
561.20 0.6395
561.30 0.639
561.40 0.6386
561.50 0.6382
561.60 0.6377
561.70 0.6373
561.80 0.6368
561.90 0.6364
562.00 0.6359
562.10 0.6355
562.20 0.6351
562.30 0.6346
562.40 0.6342
562.50 0.6338
562.60 0.6333
562.70 0.6329
562.80 0.6325
562.90 0.632
563.00 0.6316
563.10 0.6311
563.20 0.6307
563.30 0.6303
563.40 0.6298
563.50 0.6294
563.60 0.629
563.70 0.6285
563.80 0.6281
563.90 0.6277
564.00 0.6272
564.10 0.6268
564.20 0.6264
564.30 0.626
564.40 0.6255
564.50 0.6251
564.60 0.6247
564.70 0.6242
564.80 0.6238
564.90 0.6234
565.00 0.6229
565.10 0.6225
565.20 0.6221
565.30 0.6217
565.40 0.6212
565.50 0.6208
565.60 0.6204
565.70 0.62
565.80 0.6195
565.90 0.6191
566.00 0.6187
566.10 0.6183
566.20 0.6178
566.30 0.6174
566.40 0.617
566.50 0.6166
566.60 0.6162
566.70 0.6157
566.80 0.6153
566.90 0.6149
567.00 0.6145
567.10 0.614
567.20 0.6136
567.30 0.6132
567.40 0.6128
567.50 0.6124
567.60 0.6119
567.70 0.6115
567.80 0.6111
567.90 0.6107
568.00 0.6103
568.10 0.6099
568.20 0.6094
568.30 0.609
568.40 0.6086
568.50 0.6082
568.60 0.6078
568.70 0.6074
568.80 0.607
568.90 0.6065
569.00 0.6061
569.10 0.6057
569.20 0.6053
569.30 0.6049
569.40 0.6045
569.50 0.6041
569.60 0.6036
569.70 0.6032
569.80 0.6028
569.90 0.6024
570.00 0.602
570.10 0.6016
570.20 0.6012
570.30 0.6008
570.40 0.6004
570.50 0.6
570.60 0.5996
570.70 0.5991
570.80 0.5987
570.90 0.5983
571.00 0.5979
571.10 0.5975
571.20 0.5971
571.30 0.5967
571.40 0.5963
571.50 0.5959
571.60 0.5955
571.70 0.5951
571.80 0.5947
571.90 0.5943
572.00 0.5939
572.10 0.5935
572.20 0.5931
572.30 0.5927
572.40 0.5923
572.50 0.5919
572.60 0.5915
572.70 0.5911
572.80 0.5907
572.90 0.5903
573.00 0.5899
573.10 0.5895
573.20 0.5891
573.30 0.5887
573.40 0.5883
573.50 0.5879
573.60 0.5875
573.70 0.5871
573.80 0.5867
573.90 0.5863
574.00 0.5859
574.10 0.5855
574.20 0.5851
574.30 0.5847
574.40 0.5843
574.50 0.5839
574.60 0.5835
574.70 0.5831
574.80 0.5827
574.90 0.5823
575.00 0.5819
575.10 0.5815
575.20 0.5812
575.30 0.5808
575.40 0.5804
575.50 0.58
575.60 0.5796
575.70 0.5792
575.80 0.5788
575.90 0.5784
576.00 0.578
576.10 0.5776
576.20 0.5772
576.30 0.5769
576.40 0.5765
576.50 0.5761
576.60 0.5757
576.70 0.5753
576.80 0.5749
576.90 0.5745
577.00 0.5742
577.10 0.5738
577.20 0.5734
577.30 0.573
577.40 0.5726
577.50 0.5722
577.60 0.5718
577.70 0.5715
577.80 0.5711
577.90 0.5707
578.00 0.5703
578.10 0.5699
578.20 0.5695
578.30 0.5692
578.40 0.5688
578.50 0.5684
578.60 0.568
578.70 0.5676
578.80 0.5673
578.90 0.5669
579.00 0.5665
579.10 0.5661
579.20 0.5657
579.30 0.5654
579.40 0.565
579.50 0.5646
579.60 0.5642
579.70 0.5638
579.80 0.5635
579.90 0.5631
580.00 0.5627
580.10 0.5623
580.20 0.562
580.30 0.5616
580.40 0.5612
580.50 0.5608
580.60 0.5605
580.70 0.5601
580.80 0.5597
580.90 0.5593
581.00 0.559
581.10 0.5586
581.20 0.5582
581.30 0.5578
581.40 0.5575
581.50 0.5571
581.60 0.5567
581.70 0.5564
581.80 0.556
581.90 0.5556
582.00 0.5552
582.10 0.5549
582.20 0.5545
582.30 0.5541
582.40 0.5538
582.50 0.5534
582.60 0.553
582.70 0.5527
582.80 0.5523
582.90 0.5519
583.00 0.5515
583.10 0.5512
583.20 0.5508
583.30 0.5504
583.40 0.5501
583.50 0.5497
583.60 0.5493
583.70 0.549
583.80 0.5486
583.90 0.5483
584.00 0.5479
584.10 0.5475
584.20 0.5472
584.30 0.5468
584.40 0.5464
584.50 0.5461
584.60 0.5457
584.70 0.5453
584.80 0.545
584.90 0.5446
585.00 0.5443
585.10 0.5439
585.20 0.5435
585.30 0.5432
585.40 0.5428
585.50 0.5425
585.60 0.5421
585.70 0.5417
585.80 0.5414
585.90 0.541
586.00 0.5407
586.10 0.5403
586.20 0.5399
586.30 0.5396
586.40 0.5392
586.50 0.5389
586.60 0.5385
586.70 0.5382
586.80 0.5378
586.90 0.5375
587.00 0.5371
587.10 0.5367
587.20 0.5364
587.30 0.536
587.40 0.5357
587.50 0.5353
587.60 0.535
587.70 0.5346
587.80 0.5343
587.90 0.5339
588.00 0.5336
588.10 0.5332
588.20 0.5329
588.30 0.5325
588.40 0.5322
588.50 0.5318
588.60 0.5315
588.70 0.5311
588.80 0.5308
588.90 0.5304
589.00 0.53
589.10 0.5297
589.20 0.5294
589.30 0.529
589.40 0.5287
589.50 0.5283
589.60 0.528
589.70 0.5276
589.80 0.5273
589.90 0.5269
590.00 0.5266
590.10 0.5262
590.20 0.5259
590.30 0.5255
590.40 0.5252
590.50 0.5248
590.60 0.5245
590.70 0.5242
590.80 0.5238
590.90 0.5235
591.00 0.5231
591.10 0.5228
591.20 0.5224
591.30 0.5221
591.40 0.5217
591.50 0.5214
591.60 0.5211
591.70 0.5207
591.80 0.5204
591.90 0.52
592.00 0.5197
592.10 0.5194
592.20 0.519
592.30 0.5187
592.40 0.5183
592.50 0.518
592.60 0.5177
592.70 0.5173
592.80 0.517
592.90 0.5166
593.00 0.5163
593.10 0.516
593.20 0.5156
593.30 0.5153
593.40 0.5149
593.50 0.5146
593.60 0.5143
593.70 0.5139
593.80 0.5136
593.90 0.5133
594.00 0.5129
594.10 0.5126
594.20 0.5123
594.30 0.5119
594.40 0.5116
594.50 0.5113
594.60 0.5109
594.70 0.5106
594.80 0.5103
594.90 0.5099
595.00 0.5096
595.10 0.5093
595.20 0.5089
595.30 0.5086
595.40 0.5083
595.50 0.5079
595.60 0.5076
595.70 0.5073
595.80 0.5069
595.90 0.5066
596.00 0.5063
596.10 0.5059
596.20 0.5056
596.30 0.5053
596.40 0.505
596.50 0.5046
596.60 0.5043
596.70 0.504
596.80 0.5036
596.90 0.5033
597.00 0.503
597.10 0.5027
597.20 0.5023
597.30 0.502
597.40 0.5017
597.50 0.5014
597.60 0.501
597.70 0.5007
597.80 0.5004
597.90 0.5001
598.00 0.4997
598.10 0.4994
598.20 0.4991
598.30 0.4988
598.40 0.4984
598.50 0.4981
598.60 0.4978
598.70 0.4975
598.80 0.4971
598.90 0.4968
599.00 0.4965
599.10 0.4962
599.20 0.4959
599.30 0.4955
599.40 0.4952
599.50 0.4949
599.60 0.4946
599.70 0.4943
599.80 0.4939
599.90 0.4936
600.00 0.4933
600.10 0.493
600.20 0.4927
600.30 0.4923
600.40 0.492
600.50 0.4917
600.60 0.4914
600.70 0.4911
600.80 0.4907
600.90 0.4904
601.00 0.4901
601.10 0.4898
601.20 0.4895
601.30 0.4892
601.40 0.4888
601.50 0.4885
601.60 0.4882
601.70 0.4879
601.80 0.4876
601.90 0.4873
602.00 0.487
602.10 0.4866
602.20 0.4863
602.30 0.486
602.40 0.4857
602.50 0.4854
602.60 0.4851
602.70 0.4848
602.80 0.4844
602.90 0.4841
603.00 0.4838
603.10 0.4835
603.20 0.4832
603.30 0.4829
603.40 0.4826
603.50 0.4823
603.60 0.482
603.70 0.4817
603.80 0.4813
603.90 0.481
604.00 0.4807
604.10 0.4804
604.20 0.4801
604.30 0.4798
604.40 0.4795
604.50 0.4792
604.60 0.4789
604.70 0.4786
604.80 0.4783
604.90 0.4779
605.00 0.4776
605.10 0.4773
605.20 0.477
605.30 0.4767
605.40 0.4764
605.50 0.4761
605.60 0.4758
605.70 0.4755
605.80 0.4752
605.90 0.4749
606.00 0.4746
606.10 0.4743
606.20 0.474
606.30 0.4737
606.40 0.4734
606.50 0.4731
606.60 0.4728
606.70 0.4725
606.80 0.4722
606.90 0.4719
607.00 0.4716
607.10 0.4713
607.20 0.471
607.30 0.4707
607.40 0.4704
607.50 0.47
607.60 0.4697
607.70 0.4694
607.80 0.4691
607.90 0.4688
608.00 0.4685
608.10 0.4682
608.20 0.468
608.30 0.4677
608.40 0.4674
608.50 0.4671
608.60 0.4668
608.70 0.4665
608.80 0.4662
608.90 0.4659
609.00 0.4656
609.10 0.4653
609.20 0.465
609.30 0.4647
609.40 0.4644
609.50 0.4641
609.60 0.4638
609.70 0.4635
609.80 0.4632
609.90 0.4629
610.00 0.4626
610.10 0.4623
610.20 0.462
610.30 0.4617
610.40 0.4614
610.50 0.4611
610.60 0.4608
610.70 0.4606
610.80 0.4603
610.90 0.46
611.00 0.4597
611.10 0.4594
611.20 0.4591
611.30 0.4588
611.40 0.4585
611.50 0.4582
611.60 0.4579
611.70 0.4576
611.80 0.4573
611.90 0.4571
612.00 0.4568
612.10 0.4565
612.20 0.4562
612.30 0.4559
612.40 0.4556
612.50 0.4553
612.60 0.455
612.70 0.4547
612.80 0.4544
612.90 0.4542
613.00 0.4539
613.10 0.4536
613.20 0.4533
613.30 0.453
613.40 0.4527
613.50 0.4524
613.60 0.4521
613.70 0.4519
613.80 0.4516
613.90 0.4513
614.00 0.451
614.10 0.4507
614.20 0.4504
614.30 0.4501
614.40 0.4499
614.50 0.4496
614.60 0.4493
614.70 0.449
614.80 0.4487
614.90 0.4484
615.00 0.4482
615.10 0.4479
615.20 0.4476
615.30 0.4473
615.40 0.447
615.50 0.4467
615.60 0.4465
615.70 0.4462
615.80 0.4459
615.90 0.4456
616.00 0.4453
616.10 0.4451
616.20 0.4448
616.30 0.4445
616.40 0.4442
616.50 0.4439
616.60 0.4437
616.70 0.4434
616.80 0.4431
616.90 0.4428
617.00 0.4425
617.10 0.4423
617.20 0.442
617.30 0.4417
617.40 0.4414
617.50 0.4411
617.60 0.4409
617.70 0.4406
617.80 0.4403
617.90 0.44
618.00 0.4398
618.10 0.4395
618.20 0.4392
618.30 0.4389
618.40 0.4387
618.50 0.4384
618.60 0.4381
618.70 0.4378
618.80 0.4376
618.90 0.4373
619.00 0.437
619.10 0.4367
619.20 0.4365
619.30 0.4362
619.40 0.4359
619.50 0.4356
619.60 0.4354
619.70 0.4351
619.80 0.4348
619.90 0.4345
620.00 0.4343
620.10 0.434
620.20 0.4337
620.30 0.4335
620.40 0.4332
620.50 0.4329
620.60 0.4326
620.70 0.4324
620.80 0.4321
620.90 0.4318
621.00 0.4316
621.10 0.4313
621.20 0.431
621.30 0.4307
621.40 0.4305
621.50 0.4302
621.60 0.4299
621.70 0.4297
621.80 0.4294
621.90 0.4291
622.00 0.4289
622.10 0.4286
622.20 0.4283
622.30 0.4281
622.40 0.4278
622.50 0.4275
622.60 0.4273
622.70 0.427
622.80 0.4267
622.90 0.4265
623.00 0.4262
623.10 0.4259
623.20 0.4257
623.30 0.4254
623.40 0.4251
623.50 0.4249
623.60 0.4246
623.70 0.4243
623.80 0.4241
623.90 0.4238
624.00 0.4235
624.10 0.4233
624.20 0.423
624.30 0.4228
624.40 0.4225
624.50 0.4222
624.60 0.422
624.70 0.4217
624.80 0.4214
624.90 0.4212
625.00 0.4209
625.10 0.4207
625.20 0.4204
625.30 0.4201
625.40 0.4199
625.50 0.4196
625.60 0.4193
625.70 0.4191
625.80 0.4188
625.90 0.4186
626.00 0.4183
626.10 0.418
626.20 0.4178
626.30 0.4175
626.40 0.4173
626.50 0.417
626.60 0.4167
626.70 0.4165
626.80 0.4162
626.90 0.416
627.00 0.4157
627.10 0.4155
627.20 0.4152
627.30 0.4149
627.40 0.4147
627.50 0.4144
627.60 0.4142
627.70 0.4139
627.80 0.4137
627.90 0.4134
628.00 0.4131
628.10 0.4129
628.20 0.4126
628.30 0.4124
628.40 0.4121
628.50 0.4119
628.60 0.4116
628.70 0.4114
628.80 0.4111
628.90 0.4108
629.00 0.4106
629.10 0.4103
629.20 0.4101
629.30 0.4098
629.40 0.4096
629.50 0.4093
629.60 0.4091
629.70 0.4088
629.80 0.4086
629.90 0.4083
630.00 0.4081
630.10 0.4078
630.20 0.4076
630.30 0.4073
630.40 0.4071
630.50 0.4068
630.60 0.4066
630.70 0.4063
630.80 0.4061
630.90 0.4058
631.00 0.4055
631.10 0.4053
631.20 0.405
631.30 0.4048
631.40 0.4046
631.50 0.4043
631.60 0.4041
631.70 0.4038
631.80 0.4036
631.90 0.4033
632.00 0.4031
632.10 0.4028
632.20 0.4026
632.30 0.4023
632.40 0.4021
632.50 0.4018
632.60 0.4016
632.70 0.4013
632.80 0.4011
632.90 0.4008
633.00 0.4006
633.10 0.4003
633.20 0.4001
633.30 0.3998
633.40 0.3996
633.50 0.3993
633.60 0.3991
633.70 0.3989
633.80 0.3986
633.90 0.3984
634.00 0.3981
634.10 0.3979
634.20 0.3976
634.30 0.3974
634.40 0.3971
634.50 0.3969
634.60 0.3967
634.70 0.3964
634.80 0.3962
634.90 0.3959
635.00 0.3957
635.10 0.3954
635.20 0.3952
635.30 0.395
635.40 0.3947
635.50 0.3945
635.60 0.3942
635.70 0.394
635.80 0.3937
635.90 0.3935
636.00 0.3933
636.10 0.393
636.20 0.3928
636.30 0.3925
636.40 0.3923
636.50 0.3921
636.60 0.3918
636.70 0.3916
636.80 0.3913
636.90 0.3911
637.00 0.3909
637.10 0.3906
637.20 0.3904
637.30 0.3901
637.40 0.3899
637.50 0.3897
637.60 0.3894
637.70 0.3892
637.80 0.3889
637.90 0.3887
638.00 0.3885
638.10 0.3882
638.20 0.388
638.30 0.3878
638.40 0.3875
638.50 0.3873
638.60 0.387
638.70 0.3868
638.80 0.3866
638.90 0.3863
639.00 0.3861
639.10 0.3859
639.20 0.3856
639.30 0.3854
639.40 0.3852
639.50 0.3849
639.60 0.3847
639.70 0.3844
639.80 0.3842
639.90 0.384
640.00 0.3837
640.10 0.3835
640.20 0.3833
640.30 0.383
640.40 0.3828
640.50 0.3826
640.60 0.3823
640.70 0.3821
640.80 0.3819
640.90 0.3816
641.00 0.3814
641.10 0.3812
641.20 0.3809
641.30 0.3807
641.40 0.3805
641.50 0.3802
641.60 0.38
641.70 0.3798
641.80 0.3795
641.90 0.3793
642.00 0.3791
642.10 0.3788
642.20 0.3786
642.30 0.3784
642.40 0.3781
642.50 0.3779
642.60 0.3777
642.70 0.3774
642.80 0.3772
642.90 0.377
643.00 0.3767
643.10 0.3765
643.20 0.3763
643.30 0.3761
643.40 0.3758
643.50 0.3756
643.60 0.3754
643.70 0.3751
643.80 0.3749
643.90 0.3747
644.00 0.3744
644.10 0.3742
644.20 0.374
644.30 0.3737
644.40 0.3735
644.50 0.3733
644.60 0.3731
644.70 0.3728
644.80 0.3726
644.90 0.3724
645.00 0.3721
645.10 0.3719
645.20 0.3717
645.30 0.3714
645.40 0.3712
645.50 0.371
645.60 0.3708
645.70 0.3705
645.80 0.3703
645.90 0.3701
646.00 0.3698
646.10 0.3696
646.20 0.3694
646.30 0.3691
646.40 0.3689
646.50 0.3687
646.60 0.3684
646.70 0.3682
646.80 0.368
646.90 0.3677
647.00 0.3675
647.10 0.3673
647.20 0.3671
647.30 0.3668
647.40 0.3666
647.50 0.3664
647.60 0.3661
647.70 0.3659
647.80 0.3657
647.90 0.3654
648.00 0.3652
648.10 0.365
648.20 0.3647
648.30 0.3645
648.40 0.3642
648.50 0.364
648.60 0.3638
648.70 0.3635
648.80 0.3633
648.90 0.363
649.00 0.3628
649.10 0.3626
649.20 0.3623
649.30 0.3621
649.40 0.3618
649.50 0.3616
649.60 0.3613
649.70 0.3611
649.80 0.3608
649.90 0.3606
650.00 0.3603
650.10 0.3601
650.20 0.3598
650.30 0.3596
650.40 0.3593
650.50 0.3591
650.60 0.3588
650.70 0.3585
650.80 0.3583
650.90 0.358
651.00 0.3577
651.10 0.3575
651.20 0.3572
651.30 0.3569
651.40 0.3566
651.50 0.3563
651.60 0.356
651.70 0.3557
651.80 0.3554
651.90 0.3551
652.00 0.3548
652.10 0.3545
652.20 0.3542
652.30 0.3538
652.40 0.3535
652.50 0.3531
652.60 0.3527
652.70 0.3523
652.80 0.3519
652.90 0.3515
653.00 0.3511
653.10 0.3507
653.20 0.3504
653.30 0.3499
653.40 0.3494
653.50 0.3488
653.60 0.3483
653.70 0.3477
653.80 0.3471
653.90 0.3466
654.00 0.346
654.10 0.3454
654.20 0.3449
654.30 0.3443
654.40 0.3435
654.50 0.3426
654.60 0.3418
654.70 0.341
654.80 0.3402
654.90 0.3391
655.00 0.338
655.10 0.3369
655.20 0.3358
655.30 0.3346
655.40 0.3332
655.50 0.3317
655.60 0.33
655.70 0.3281
655.80 0.3257
655.90 0.3231
656.00 0.3196
656.10 0.3161
656.20 0.3221
656.30 0.3325
656.40 0.3169
656.50 0.3165
656.60 0.3197
656.70 0.3226
656.80 0.3247
656.90 0.3265
657.00 0.3279
657.10 0.3292
657.20 0.3302
657.30 0.3311
657.40 0.3318
657.50 0.3325
657.60 0.3332
657.70 0.3339
657.80 0.3345
657.90 0.3349
658.00 0.3353
658.10 0.3357
658.20 0.3361
658.30 0.3365
658.40 0.3366
658.50 0.3368
658.60 0.3369
658.70 0.3371
658.80 0.3372
658.90 0.3374
659.00 0.3375
659.10 0.3377
659.20 0.3378
659.30 0.3379
659.40 0.3379
659.50 0.3379
659.60 0.3378
659.70 0.3378
659.80 0.3378
659.90 0.3377
660.00 0.3377
660.10 0.3377
660.20 0.3377
660.30 0.3376
660.40 0.3375
660.50 0.3374
660.60 0.3373
660.70 0.3372
660.80 0.3371
660.90 0.3369
661.00 0.3368
661.10 0.3367
661.20 0.3366
661.30 0.3365
661.40 0.3363
661.50 0.3362
661.60 0.336
661.70 0.3359
661.80 0.3357
661.90 0.3356
662.00 0.3355
662.10 0.3353
662.20 0.3352
662.30 0.335
662.40 0.3348
662.50 0.3347
662.60 0.3345
662.70 0.3343
662.80 0.3342
662.90 0.334
663.00 0.3338
663.10 0.3337
663.20 0.3335
663.30 0.3333
663.40 0.3332
663.50 0.333
663.60 0.3328
663.70 0.3326
663.80 0.3325
663.90 0.3323
664.00 0.3321
664.10 0.3319
664.20 0.3317
664.30 0.3316
664.40 0.3314
664.50 0.3312
664.60 0.331
664.70 0.3308
664.80 0.3307
664.90 0.3305
665.00 0.3303
665.10 0.3301
665.20 0.3299
665.30 0.3298
665.40 0.3296
665.50 0.3294
665.60 0.3292
665.70 0.329
665.80 0.3288
665.90 0.3287
666.00 0.3285
666.10 0.3283
666.20 0.3281
666.30 0.3279
666.40 0.3277
666.50 0.3276
666.60 0.3274
666.70 0.3272
666.80 0.327
666.90 0.3268
667.00 0.3266
667.10 0.3264
667.20 0.3263
667.30 0.3261
667.40 0.3259
667.50 0.3257
667.60 0.3255
667.70 0.3253
667.80 0.3251
667.90 0.325
668.00 0.3248
668.10 0.3246
668.20 0.3244
668.30 0.3242
668.40 0.324
668.50 0.3239
668.60 0.3237
668.70 0.3235
668.80 0.3233
668.90 0.3231
669.00 0.3229
669.10 0.3227
669.20 0.3226
669.30 0.3224
669.40 0.3222
669.50 0.322
669.60 0.3218
669.70 0.3216
669.80 0.3215
669.90 0.3213
670.00 0.3211
670.10 0.3209
670.20 0.3207
670.30 0.3205
670.40 0.3204
670.50 0.3202
670.60 0.32
670.70 0.3198
670.80 0.3196
670.90 0.3194
671.00 0.3193
671.10 0.3191
671.20 0.3189
671.30 0.3187
671.40 0.3185
671.50 0.3183
671.60 0.3182
671.70 0.318
671.80 0.3178
671.90 0.3176
672.00 0.3174
672.10 0.3172
672.20 0.3171
672.30 0.3169
672.40 0.3167
672.50 0.3165
672.60 0.3163
672.70 0.3162
672.80 0.316
672.90 0.3158
673.00 0.3156
673.10 0.3154
673.20 0.3152
673.30 0.3151
673.40 0.3149
673.50 0.3147
673.60 0.3145
673.70 0.3143
673.80 0.3142
673.90 0.314
674.00 0.3138
674.10 0.3136
674.20 0.3134
674.30 0.3133
674.40 0.3131
674.50 0.3129
674.60 0.3127
674.70 0.3125
674.80 0.3124
674.90 0.3122
675.00 0.312
675.10 0.3118
675.20 0.3116
675.30 0.3115
675.40 0.3113
675.50 0.3111
675.60 0.3109
675.70 0.3108
675.80 0.3106
675.90 0.3104
676.00 0.3102
676.10 0.31
676.20 0.3099
676.30 0.3097
676.40 0.3095
676.50 0.3093
676.60 0.3092
676.70 0.309
676.80 0.3088
676.90 0.3086
677.00 0.3084
677.10 0.3083
677.20 0.3081
677.30 0.3079
677.40 0.3077
677.50 0.3076
677.60 0.3074
677.70 0.3072
677.80 0.307
677.90 0.3069
678.00 0.3067
678.10 0.3065
678.20 0.3063
678.30 0.3062
678.40 0.306
678.50 0.3058
678.60 0.3056
678.70 0.3055
678.80 0.3053
678.90 0.3051
679.00 0.3049
679.10 0.3048
679.20 0.3046
679.30 0.3044
679.40 0.3042
679.50 0.3041
679.60 0.3039
679.70 0.3037
679.80 0.3035
679.90 0.3034
680.00 0.3032
680.10 0.303
680.20 0.3029
680.30 0.3027
680.40 0.3025
680.50 0.3023
680.60 0.3022
680.70 0.302
680.80 0.3018
680.90 0.3016
681.00 0.3015
681.10 0.3013
681.20 0.3011
681.30 0.301
681.40 0.3008
681.50 0.3006
681.60 0.3004
681.70 0.3003
681.80 0.3001
681.90 0.2999
682.00 0.2998
682.10 0.2996
682.20 0.2994
682.30 0.2992
682.40 0.2991
682.50 0.2989
682.60 0.2987
682.70 0.2986
682.80 0.2984
682.90 0.2982
683.00 0.2981
683.10 0.2979
683.20 0.2977
683.30 0.2976
683.40 0.2974
683.50 0.2972
683.60 0.297
683.70 0.2969
683.80 0.2967
683.90 0.2965
684.00 0.2964
684.10 0.2962
684.20 0.296
684.30 0.2959
684.40 0.2957
684.50 0.2955
684.60 0.2954
684.70 0.2952
684.80 0.295
684.90 0.2949
685.00 0.2947
685.10 0.2945
685.20 0.2944
685.30 0.2942
685.40 0.294
685.50 0.2939
685.60 0.2937
685.70 0.2935
685.80 0.2934
685.90 0.2932
686.00 0.293
686.10 0.2929
686.20 0.2927
686.30 0.2925
686.40 0.2924
686.50 0.2922
686.60 0.292
686.70 0.2919
686.80 0.2917
686.90 0.2915
687.00 0.2914
687.10 0.2912
687.20 0.291
687.30 0.2909
687.40 0.2907
687.50 0.2905
687.60 0.2904
687.70 0.2902
687.80 0.2901
687.90 0.2899
688.00 0.2897
688.10 0.2896
688.20 0.2894
688.30 0.2892
688.40 0.2891
688.50 0.2889
688.60 0.2887
688.70 0.2886
688.80 0.2884
688.90 0.2883
689.00 0.2881
689.10 0.2879
689.20 0.2878
689.30 0.2876
689.40 0.2874
689.50 0.2873
689.60 0.2871
689.70 0.287
689.80 0.2868
689.90 0.2866
690.00 0.2865
690.10 0.2863
690.20 0.2862
690.30 0.286
690.40 0.2858
690.50 0.2857
690.60 0.2855
690.70 0.2854
690.80 0.2852
690.90 0.285
691.00 0.2849
691.10 0.2847
691.20 0.2846
691.30 0.2844
691.40 0.2842
691.50 0.2841
691.60 0.2839
691.70 0.2838
691.80 0.2836
691.90 0.2834
692.00 0.2833
692.10 0.2831
692.20 0.283
692.30 0.2828
692.40 0.2826
692.50 0.2825
692.60 0.2823
692.70 0.2822
692.80 0.282
692.90 0.2818
693.00 0.2817
693.10 0.2815
693.20 0.2814
693.30 0.2812
693.40 0.2811
693.50 0.2809
693.60 0.2807
693.70 0.2806
693.80 0.2804
693.90 0.2803
694.00 0.2801
694.10 0.28
694.20 0.2798
694.30 0.2796
694.40 0.2795
694.50 0.2793
694.60 0.2792
694.70 0.279
694.80 0.2789
694.90 0.2787
695.00 0.2785
695.10 0.2784
695.20 0.2782
695.30 0.2781
695.40 0.2779
695.50 0.2778
695.60 0.2776
695.70 0.2775
695.80 0.2773
695.90 0.2771
696.00 0.277
696.10 0.2768
696.20 0.2767
696.30 0.2765
696.40 0.2764
696.50 0.2762
696.60 0.2761
696.70 0.2759
696.80 0.2758
696.90 0.2756
697.00 0.2754
697.10 0.2753
697.20 0.2751
697.30 0.275
697.40 0.2748
697.50 0.2747
697.60 0.2745
697.70 0.2744
697.80 0.2742
697.90 0.2741
698.00 0.2739
698.10 0.2738
698.20 0.2736
698.30 0.2735
698.40 0.2733
698.50 0.2732
698.60 0.273
698.70 0.2728
698.80 0.2727
698.90 0.2725
699.00 0.2724
699.10 0.2722
699.20 0.2721
699.30 0.2719
699.40 0.2718
699.50 0.2716
699.60 0.2715
699.70 0.2713
699.80 0.2712
699.90 0.271
700.00 0.2709
700.10 0.2707
700.20 0.2706
700.30 0.2704
700.40 0.2703
700.50 0.2701
700.60 0.27
700.70 0.2698
700.80 0.2697
700.90 0.2695
701.00 0.2694
701.10 0.2692
701.20 0.2691
701.30 0.2689
701.40 0.2688
701.50 0.2686
701.60 0.2685
701.70 0.2683
701.80 0.2682
701.90 0.268
702.00 0.2679
702.10 0.2677
702.20 0.2676
702.30 0.2674
702.40 0.2673
702.50 0.2672
702.60 0.267
702.70 0.2669
702.80 0.2667
702.90 0.2666
703.00 0.2664
703.10 0.2663
703.20 0.2661
703.30 0.266
703.40 0.2658
703.50 0.2657
703.60 0.2655
703.70 0.2654
703.80 0.2652
703.90 0.2651
704.00 0.2649
704.10 0.2648
704.20 0.2646
704.30 0.2645
704.40 0.2644
704.50 0.2642
704.60 0.2641
704.70 0.2639
704.80 0.2638
704.90 0.2636
705.00 0.2635
705.10 0.2633
705.20 0.2632
705.30 0.263
705.40 0.2629
705.50 0.2627
705.60 0.2626
705.70 0.2625
705.80 0.2623
705.90 0.2622
706.00 0.262
706.10 0.2619
706.20 0.2617
706.30 0.2616
706.40 0.2615
706.50 0.2613
706.60 0.2612
706.70 0.261
706.80 0.2609
706.90 0.2607
707.00 0.2606
707.10 0.2604
707.20 0.2603
707.30 0.2602
707.40 0.26
707.50 0.2599
707.60 0.2597
707.70 0.2596
707.80 0.2594
707.90 0.2593
708.00 0.2592
708.10 0.259
708.20 0.2589
708.30 0.2587
708.40 0.2586
708.50 0.2584
708.60 0.2583
708.70 0.2582
708.80 0.258
708.90 0.2579
709.00 0.2577
709.10 0.2576
709.20 0.2575
709.30 0.2573
709.40 0.2572
709.50 0.257
709.60 0.2569
709.70 0.2567
709.80 0.2566
709.90 0.2565
710.00 0.2563
710.10 0.2562
710.20 0.256
710.30 0.2559
710.40 0.2558
710.50 0.2556
710.60 0.2555
710.70 0.2553
710.80 0.2552
710.90 0.2551
711.00 0.2549
711.10 0.2548
711.20 0.2546
711.30 0.2545
711.40 0.2544
711.50 0.2542
711.60 0.2541
711.70 0.254
711.80 0.2538
711.90 0.2537
712.00 0.2535
712.10 0.2534
712.20 0.2533
712.30 0.2531
712.40 0.253
712.50 0.2528
712.60 0.2527
712.70 0.2526
712.80 0.2524
712.90 0.2523
713.00 0.2522
713.10 0.252
713.20 0.2519
713.30 0.2517
713.40 0.2516
713.50 0.2515
713.60 0.2513
713.70 0.2512
713.80 0.2511
713.90 0.2509
714.00 0.2508
714.10 0.2506
714.20 0.2505
714.30 0.2504
714.40 0.2502
714.50 0.2501
714.60 0.25
714.70 0.2498
714.80 0.2497
714.90 0.2495
715.00 0.2494
715.10 0.2493
715.20 0.2491
715.30 0.249
715.40 0.2489
715.50 0.2487
715.60 0.2486
715.70 0.2485
715.80 0.2483
715.90 0.2482
716.00 0.2481
716.10 0.2479
716.20 0.2478
716.30 0.2477
716.40 0.2475
716.50 0.2474
716.60 0.2473
716.70 0.2471
716.80 0.247
716.90 0.2469
717.00 0.2467
717.10 0.2466
717.20 0.2465
717.30 0.2463
717.40 0.2462
717.50 0.2461
717.60 0.2459
717.70 0.2458
717.80 0.2457
717.90 0.2455
718.00 0.2454
718.10 0.2453
718.20 0.2451
718.30 0.245
718.40 0.2449
718.50 0.2447
718.60 0.2446
718.70 0.2445
718.80 0.2443
718.90 0.2442
719.00 0.2441
719.10 0.2439
719.20 0.2438
719.30 0.2437
719.40 0.2435
719.50 0.2434
719.60 0.2433
719.70 0.2431
719.80 0.243
719.90 0.2429
720.00 0.2427
720.10 0.2426
720.20 0.2425
720.30 0.2423
720.40 0.2422
720.50 0.2421
720.60 0.242
720.70 0.2418
720.80 0.2417
720.90 0.2416
721.00 0.2414
721.10 0.2413
721.20 0.2412
721.30 0.241
721.40 0.2409
721.50 0.2408
721.60 0.2407
721.70 0.2405
721.80 0.2404
721.90 0.2403
722.00 0.2401
722.10 0.24
722.20 0.2399
722.30 0.2397
722.40 0.2396
722.50 0.2395
722.60 0.2394
722.70 0.2392
722.80 0.2391
722.90 0.239
723.00 0.2388
723.10 0.2387
723.20 0.2386
723.30 0.2385
723.40 0.2383
723.50 0.2382
723.60 0.2381
723.70 0.2379
723.80 0.2378
723.90 0.2377
724.00 0.2376
724.10 0.2374
724.20 0.2373
724.30 0.2372
724.40 0.237
724.50 0.2369
724.60 0.2368
724.70 0.2367
724.80 0.2365
724.90 0.2364
725.00 0.2363
725.10 0.2362
725.20 0.236
725.30 0.2359
725.40 0.2358
725.50 0.2357
725.60 0.2355
725.70 0.2354
725.80 0.2353
725.90 0.2351
726.00 0.235
726.10 0.2349
726.20 0.2348
726.30 0.2346
726.40 0.2345
726.50 0.2344
726.60 0.2343
726.70 0.2341
726.80 0.234
726.90 0.2339
727.00 0.2338
727.10 0.2336
727.20 0.2335
727.30 0.2334
727.40 0.2333
727.50 0.2331
727.60 0.233
727.70 0.2329
727.80 0.2328
727.90 0.2326
728.00 0.2325
728.10 0.2324
728.20 0.2323
728.30 0.2321
728.40 0.232
728.50 0.2319
728.60 0.2318
728.70 0.2316
728.80 0.2315
728.90 0.2314
729.00 0.2313
729.10 0.2312
729.20 0.231
729.30 0.2309
729.40 0.2308
729.50 0.2307
729.60 0.2305
729.70 0.2304
729.80 0.2303
729.90 0.2302
730.00 0.23
730.10 0.2299
730.20 0.2298
730.30 0.2297
730.40 0.2296
730.50 0.2294
730.60 0.2293
730.70 0.2292
730.80 0.2291
730.90 0.2289
731.00 0.2288
731.10 0.2287
731.20 0.2286
731.30 0.2285
731.40 0.2283
731.50 0.2282
731.60 0.2281
731.70 0.228
731.80 0.2279
731.90 0.2277
732.00 0.2276
732.10 0.2275
732.20 0.2274
732.30 0.2273
732.40 0.2271
732.50 0.227
732.60 0.2269
732.70 0.2268
732.80 0.2267
732.90 0.2265
733.00 0.2264
733.10 0.2263
733.20 0.2262
733.30 0.2261
733.40 0.2259
733.50 0.2258
733.60 0.2257
733.70 0.2256
733.80 0.2255
733.90 0.2253
734.00 0.2252
734.10 0.2251
734.20 0.225
734.30 0.2249
734.40 0.2247
734.50 0.2246
734.60 0.2245
734.70 0.2244
734.80 0.2243
734.90 0.2242
735.00 0.224
735.10 0.2239
735.20 0.2238
735.30 0.2237
735.40 0.2236
735.50 0.2234
735.60 0.2233
735.70 0.2232
735.80 0.2231
735.90 0.223
736.00 0.2228
736.10 0.2227
736.20 0.2226
736.30 0.2225
736.40 0.2224
736.50 0.2223
736.60 0.2221
736.70 0.222
736.80 0.2219
736.90 0.2218
737.00 0.2217
737.10 0.2216
737.20 0.2214
737.30 0.2213
737.40 0.2212
737.50 0.2211
737.60 0.221
737.70 0.2208
737.80 0.2207
737.90 0.2206
738.00 0.2205
738.10 0.2204
738.20 0.2203
738.30 0.2201
738.40 0.22
738.50 0.2199
738.60 0.2198
738.70 0.2197
738.80 0.2196
738.90 0.2194
739.00 0.2193
739.10 0.2192
739.20 0.2191
739.30 0.219
739.40 0.2189
739.50 0.2187
739.60 0.2186
739.70 0.2185
739.80 0.2184
739.90 0.2183
740.00 0.2182
740.10 0.2181
740.20 0.2179
740.30 0.2178
740.40 0.2177
740.50 0.2176
740.60 0.2175
740.70 0.2174
740.80 0.2173
740.90 0.2171
741.00 0.217
741.10 0.2169
741.20 0.2168
741.30 0.2167
741.40 0.2166
741.50 0.2165
741.60 0.2164
741.70 0.2162
741.80 0.2161
741.90 0.216
742.00 0.2159
742.10 0.2158
742.20 0.2157
742.30 0.2156
742.40 0.2154
742.50 0.2153
742.60 0.2152
742.70 0.2151
742.80 0.215
742.90 0.2149
743.00 0.2148
743.10 0.2147
743.20 0.2146
743.30 0.2144
743.40 0.2143
743.50 0.2142
743.60 0.2141
743.70 0.214
743.80 0.2139
743.90 0.2138
744.00 0.2137
744.10 0.2135
744.20 0.2134
744.30 0.2133
744.40 0.2132
744.50 0.2131
744.60 0.213
744.70 0.2129
744.80 0.2128
744.90 0.2127
745.00 0.2125
745.10 0.2124
745.20 0.2123
745.30 0.2122
745.40 0.2121
745.50 0.212
745.60 0.2119
745.70 0.2118
745.80 0.2117
745.90 0.2115
746.00 0.2114
746.10 0.2113
746.20 0.2112
746.30 0.2111
746.40 0.211
746.50 0.2109
746.60 0.2108
746.70 0.2107
746.80 0.2105
746.90 0.2104
747.00 0.2103
747.10 0.2102
747.20 0.2101
747.30 0.21
747.40 0.2099
747.50 0.2098
747.60 0.2097
747.70 0.2096
747.80 0.2094
747.90 0.2093
748.00 0.2092
748.10 0.2091
748.20 0.209
748.30 0.2089
748.40 0.2088
748.50 0.2087
748.60 0.2086
748.70 0.2085
748.80 0.2084
748.90 0.2082
749.00 0.2081
749.10 0.208
749.20 0.2079
749.30 0.2078
749.40 0.2077
749.50 0.2076
749.60 0.2075
749.70 0.2074
749.80 0.2073
749.90 0.2072
750.00 0.207
750.10 0.2069
750.20 0.2068
750.30 0.2067
750.40 0.2066
750.50 0.2065
750.60 0.2064
750.70 0.2063
750.80 0.2062
750.90 0.2061
751.00 0.206
751.10 0.2059
751.20 0.2058
751.30 0.2057
751.40 0.2056
751.50 0.2055
751.60 0.2053
751.70 0.2052
751.80 0.2051
751.90 0.205
752.00 0.2049
752.10 0.2048
752.20 0.2047
752.30 0.2046
752.40 0.2045
752.50 0.2044
752.60 0.2043
752.70 0.2042
752.80 0.2041
752.90 0.204
753.00 0.2039
753.10 0.2038
753.20 0.2037
753.30 0.2036
753.40 0.2035
753.50 0.2033
753.60 0.2032
753.70 0.2031
753.80 0.203
753.90 0.2029
754.00 0.2028
754.10 0.2027
754.20 0.2026
754.30 0.2025
754.40 0.2024
754.50 0.2023
754.60 0.2022
754.70 0.2021
754.80 0.202
754.90 0.2019
755.00 0.2018
755.10 0.2017
755.20 0.2016
755.30 0.2015
755.40 0.2014
755.50 0.2013
755.60 0.2012
755.70 0.2011
755.80 0.2009
755.90 0.2008
756.00 0.2007
756.10 0.2006
756.20 0.2005
756.30 0.2004
756.40 0.2003
756.50 0.2002
756.60 0.2001
756.70 0.2
756.80 0.1999
756.90 0.1998
757.00 0.1997
757.10 0.1996
757.20 0.1995
757.30 0.1994
757.40 0.1993
757.50 0.1992
757.60 0.1991
757.70 0.199
757.80 0.1989
757.90 0.1988
758.00 0.1987
758.10 0.1986
758.20 0.1985
758.30 0.1984
758.40 0.1983
758.50 0.1982
758.60 0.1981
758.70 0.198
758.80 0.1979
758.90 0.1978
759.00 0.1977
759.10 0.1976
759.20 0.1974
759.30 0.1973
759.40 0.1972
759.50 0.1971
759.60 0.197
759.70 0.1969
759.80 0.1968
759.90 0.1967
760.00 0.1966
760.10 0.1965
760.20 0.1964
760.30 0.1963
760.40 0.1962
760.50 0.1961
760.60 0.196
760.70 0.1959
760.80 0.1958
760.90 0.1957
761.00 0.1956
761.10 0.1955
761.20 0.1954
761.30 0.1953
761.40 0.1952
761.50 0.1951
761.60 0.195
761.70 0.1949
761.80 0.1948
761.90 0.1947
762.00 0.1946
762.10 0.1945
762.20 0.1944
762.30 0.1943
762.40 0.1942
762.50 0.1941
762.60 0.194
762.70 0.194
762.80 0.1939
762.90 0.1938
763.00 0.1937
763.10 0.1936
763.20 0.1935
763.30 0.1934
763.40 0.1933
763.50 0.1932
763.60 0.1931
763.70 0.193
763.80 0.1929
763.90 0.1928
764.00 0.1927
764.10 0.1926
764.20 0.1925
764.30 0.1924
764.40 0.1923
764.50 0.1922
764.60 0.1921
764.70 0.192
764.80 0.1919
764.90 0.1918
765.00 0.1917
765.10 0.1916
765.20 0.1915
765.30 0.1914
765.40 0.1913
765.50 0.1912
765.60 0.1911
765.70 0.191
765.80 0.1909
765.90 0.1908
766.00 0.1907
766.10 0.1906
766.20 0.1905
766.30 0.1904
766.40 0.1903
766.50 0.1902
766.60 0.1901
766.70 0.19
766.80 0.1899
766.90 0.1898
767.00 0.1897
767.10 0.1897
767.20 0.1896
767.30 0.1895
767.40 0.1894
767.50 0.1893
767.60 0.1892
767.70 0.1891
767.80 0.189
767.90 0.1889
768.00 0.1888
768.10 0.1887
768.20 0.1886
768.30 0.1885
768.40 0.1884
768.50 0.1883
768.60 0.1882
768.70 0.1881
768.80 0.188
768.90 0.1879
769.00 0.1878
769.10 0.1877
769.20 0.1876
769.30 0.1875
769.40 0.1874
769.50 0.1873
769.60 0.1872
769.70 0.1872
769.80 0.1871
769.90 0.187
770.00 0.1869
770.10 0.1868
770.20 0.1867
770.30 0.1866
770.40 0.1865
770.50 0.1864
770.60 0.1863
770.70 0.1862
770.80 0.1861
770.90 0.186
771.00 0.1859
771.10 0.1858
771.20 0.1857
771.30 0.1857
771.40 0.1856
771.50 0.1855
771.60 0.1854
771.70 0.1853
771.80 0.1852
771.90 0.1851
772.00 0.185
772.10 0.1849
772.20 0.1848
772.30 0.1847
772.40 0.1846
772.50 0.1845
772.60 0.1844
772.70 0.1843
772.80 0.1843
772.90 0.1842
773.00 0.1841
773.10 0.184
773.20 0.1839
773.30 0.1838
773.40 0.1837
773.50 0.1836
773.60 0.1835
773.70 0.1834
773.80 0.1833
773.90 0.1832
774.00 0.1831
774.10 0.1831
774.20 0.183
774.30 0.1829
774.40 0.1828
774.50 0.1827
774.60 0.1826
774.70 0.1825
774.80 0.1824
774.90 0.1823
775.00 0.1822
775.10 0.1821
775.20 0.182
775.30 0.182
775.40 0.1819
775.50 0.1818
775.60 0.1817
775.70 0.1816
775.80 0.1815
775.90 0.1814
776.00 0.1813
776.10 0.1812
776.20 0.1811
776.30 0.181
776.40 0.181
776.50 0.1809
776.60 0.1808
776.70 0.1807
776.80 0.1806
776.90 0.1805
777.00 0.1804
777.10 0.1803
777.20 0.1802
777.30 0.1801
777.40 0.18
777.50 0.18
777.60 0.1799
777.70 0.1798
777.80 0.1797
777.90 0.1796
778.00 0.1795
778.10 0.1794
778.20 0.1793
778.30 0.1792
778.40 0.1791
778.50 0.179
778.60 0.179
778.70 0.1789
778.80 0.1788
778.90 0.1787
779.00 0.1786
779.10 0.1785
779.20 0.1784
779.30 0.1783
779.40 0.1782
779.50 0.1781
779.60 0.1781
779.70 0.178
779.80 0.1779
779.90 0.1778
780.00 0.1777
780.10 0.1776
780.20 0.1775
780.30 0.1774
780.40 0.1773
780.50 0.1773
780.60 0.1772
780.70 0.1771
780.80 0.177
780.90 0.1769
781.00 0.1768
781.10 0.1767
781.20 0.1766
781.30 0.1766
781.40 0.1765
781.50 0.1764
781.60 0.1763
781.70 0.1762
781.80 0.1761
781.90 0.176
782.00 0.1759
782.10 0.1759
782.20 0.1758
782.30 0.1757
782.40 0.1756
782.50 0.1755
782.60 0.1754
782.70 0.1753
782.80 0.1752
782.90 0.1752
783.00 0.1751
783.10 0.175
783.20 0.1749
783.30 0.1748
783.40 0.1747
783.50 0.1746
783.60 0.1746
783.70 0.1745
783.80 0.1744
783.90 0.1743
784.00 0.1742
784.10 0.1741
784.20 0.174
784.30 0.1739
784.40 0.1739
784.50 0.1738
784.60 0.1737
784.70 0.1736
784.80 0.1735
784.90 0.1734
785.00 0.1733
785.10 0.1733
785.20 0.1732
785.30 0.1731
785.40 0.173
785.50 0.1729
785.60 0.1728
785.70 0.1727
785.80 0.1727
785.90 0.1726
786.00 0.1725
786.10 0.1724
786.20 0.1723
786.30 0.1722
786.40 0.1721
786.50 0.1721
786.60 0.172
786.70 0.1719
786.80 0.1718
786.90 0.1717
787.00 0.1716
787.10 0.1715
787.20 0.1715
787.30 0.1714
787.40 0.1713
787.50 0.1712
787.60 0.1711
787.70 0.171
787.80 0.1709
787.90 0.1709
788.00 0.1708
788.10 0.1707
788.20 0.1706
788.30 0.1705
788.40 0.1704
788.50 0.1704
788.60 0.1703
788.70 0.1702
788.80 0.1701
788.90 0.17
789.00 0.1699
789.10 0.1698
789.20 0.1698
789.30 0.1697
789.40 0.1696
789.50 0.1695
789.60 0.1694
789.70 0.1693
789.80 0.1693
789.90 0.1692
790.00 0.1691
790.10 0.169
790.20 0.1689
790.30 0.1688
790.40 0.1688
790.50 0.1687
790.60 0.1686
790.70 0.1685
790.80 0.1684
790.90 0.1683
791.00 0.1683
791.10 0.1682
791.20 0.1681
791.30 0.168
791.40 0.1679
791.50 0.1679
791.60 0.1678
791.70 0.1677
791.80 0.1676
791.90 0.1675
792.00 0.1674
792.10 0.1674
792.20 0.1673
792.30 0.1672
792.40 0.1671
792.50 0.167
792.60 0.1669
792.70 0.1669
792.80 0.1668
792.90 0.1667
793.00 0.1666
793.10 0.1665
793.20 0.1665
793.30 0.1664
793.40 0.1663
793.50 0.1662
793.60 0.1661
793.70 0.1661
793.80 0.166
793.90 0.1659
794.00 0.1658
794.10 0.1657
794.20 0.1656
794.30 0.1656
794.40 0.1655
794.50 0.1654
794.60 0.1653
794.70 0.1652
794.80 0.1652
794.90 0.1651
795.00 0.165
795.10 0.1649
795.20 0.1648
795.30 0.1648
795.40 0.1647
795.50 0.1646
795.60 0.1645
795.70 0.1644
795.80 0.1643
795.90 0.1643
796.00 0.1642
796.10 0.1641
796.20 0.164
796.30 0.1639
796.40 0.1639
796.50 0.1638
796.60 0.1637
796.70 0.1636
796.80 0.1635
796.90 0.1635
797.00 0.1634
797.10 0.1633
797.20 0.1632
797.30 0.1631
797.40 0.1631
797.50 0.163
797.60 0.1629
797.70 0.1628
797.80 0.1627
797.90 0.1627
798.00 0.1626
798.10 0.1625
798.20 0.1624
798.30 0.1623
798.40 0.1623
798.50 0.1622
798.60 0.1621
798.70 0.162
798.80 0.1619
798.90 0.1619
799.00 0.1618
799.10 0.1617
799.20 0.1616
799.30 0.1615
799.40 0.1615
799.50 0.1614
799.60 0.1613
799.70 0.1612
799.80 0.1612
799.90 0.1611
800.00 0.161
800.10 0.1609
800.20 0.1608
800.30 0.1608
800.40 0.1607
800.50 0.1606
800.60 0.1605
800.70 0.1604
800.80 0.1604
800.90 0.1603
801.00 0.1602
801.10 0.1601
801.20 0.1601
801.30 0.16
801.40 0.1599
801.50 0.1598
801.60 0.1598
801.70 0.1597
801.80 0.1596
801.90 0.1595
802.00 0.1594
802.10 0.1594
802.20 0.1593
802.30 0.1592
802.40 0.1591
802.50 0.1591
802.60 0.159
802.70 0.1589
802.80 0.1588
802.90 0.1588
803.00 0.1587
803.10 0.1586
803.20 0.1585
803.30 0.1584
803.40 0.1584
803.50 0.1583
803.60 0.1582
803.70 0.1581
803.80 0.1581
803.90 0.158
804.00 0.1579
804.10 0.1578
804.20 0.1578
804.30 0.1577
804.40 0.1576
804.50 0.1575
804.60 0.1575
804.70 0.1574
804.80 0.1573
804.90 0.1572
805.00 0.1571
805.10 0.1571
805.20 0.157
805.30 0.1569
805.40 0.1568
805.50 0.1568
805.60 0.1567
805.70 0.1566
805.80 0.1565
805.90 0.1565
806.00 0.1564
806.10 0.1563
806.20 0.1562
806.30 0.1562
806.40 0.1561
806.50 0.156
806.60 0.1559
806.70 0.1559
806.80 0.1558
806.90 0.1557
807.00 0.1556
807.10 0.1556
807.20 0.1555
807.30 0.1554
807.40 0.1553
807.50 0.1553
807.60 0.1552
807.70 0.1551
807.80 0.155
807.90 0.155
808.00 0.1549
808.10 0.1548
808.20 0.1547
808.30 0.1547
808.40 0.1546
808.50 0.1545
808.60 0.1544
808.70 0.1544
808.80 0.1543
808.90 0.1542
809.00 0.1541
809.10 0.1541
809.20 0.154
809.30 0.1539
809.40 0.1538
809.50 0.1538
809.60 0.1537
809.70 0.1536
809.80 0.1535
809.90 0.1535
810.00 0.1534
810.10 0.1533
810.20 0.1532
810.30 0.1532
810.40 0.1531
810.50 0.153
810.60 0.1529
810.70 0.1529
810.80 0.1528
810.90 0.1527
811.00 0.1526
811.10 0.1526
811.20 0.1525
811.30 0.1524
811.40 0.1524
811.50 0.1523
811.60 0.1522
811.70 0.1521
811.80 0.1521
811.90 0.152
812.00 0.1519
812.10 0.1518
812.20 0.1518
812.30 0.1517
812.40 0.1516
812.50 0.1516
812.60 0.1515
812.70 0.1514
812.80 0.1513
812.90 0.1513
813.00 0.1512
813.10 0.1511
813.20 0.1511
813.30 0.151
813.40 0.1509
813.50 0.1508
813.60 0.1508
813.70 0.1507
813.80 0.1506
813.90 0.1505
814.00 0.1505
814.10 0.1504
814.20 0.1503
814.30 0.1503
814.40 0.1502
814.50 0.1501
814.60 0.15
814.70 0.15
814.80 0.1499
814.90 0.1498
815.00 0.1498
815.10 0.1497
815.20 0.1496
815.30 0.1495
815.40 0.1495
815.50 0.1494
815.60 0.1493
815.70 0.1493
815.80 0.1492
815.90 0.1491
816.00 0.149
816.10 0.149
816.20 0.1489
816.30 0.1488
816.40 0.1488
816.50 0.1487
816.60 0.1486
816.70 0.1485
816.80 0.1485
816.90 0.1484
817.00 0.1483
817.10 0.1483
817.20 0.1482
817.30 0.1481
817.40 0.148
817.50 0.148
817.60 0.1479
817.70 0.1478
817.80 0.1478
817.90 0.1477
818.00 0.1476
818.10 0.1476
818.20 0.1475
818.30 0.1474
818.40 0.1473
818.50 0.1473
818.60 0.1472
818.70 0.1471
818.80 0.1471
818.90 0.147
819.00 0.1469
819.10 0.1468
819.20 0.1468
819.30 0.1467
819.40 0.1466
819.50 0.1466
819.60 0.1465
819.70 0.1464
819.80 0.1464
819.90 0.1463
820.00 0.1462
820.10 0.1461
820.20 0.1461
820.30 0.146
820.40 0.1459
820.50 0.1459
820.60 0.1458
820.70 0.1457
820.80 0.1457
820.90 0.1456
821.00 0.1455
821.10 0.1454
821.20 0.1454
821.30 0.1453
821.40 0.1452
821.50 0.1452
821.60 0.1451
821.70 0.145
821.80 0.145
821.90 0.1449
822.00 0.1448
822.10 0.1448
822.20 0.1447
822.30 0.1446
822.40 0.1446
822.50 0.1445
822.60 0.1444
822.70 0.1444
822.80 0.1443
822.90 0.1442
823.00 0.1441
823.10 0.1441
823.20 0.144
823.30 0.1439
823.40 0.1439
823.50 0.1438
823.60 0.1437
823.70 0.1437
823.80 0.1436
823.90 0.1435
824.00 0.1435
824.10 0.1434
824.20 0.1433
824.30 0.1433
824.40 0.1432
824.50 0.1431
824.60 0.1431
824.70 0.143
824.80 0.1429
824.90 0.1429
825.00 0.1428
825.10 0.1427
825.20 0.1427
825.30 0.1426
825.40 0.1425
825.50 0.1425
825.60 0.1424
825.70 0.1423
825.80 0.1422
825.90 0.1422
826.00 0.1421
826.10 0.142
826.20 0.142
826.30 0.1419
826.40 0.1418
826.50 0.1418
826.60 0.1417
826.70 0.1416
826.80 0.1416
826.90 0.1415
827.00 0.1414
827.10 0.1414
827.20 0.1413
827.30 0.1412
827.40 0.1412
827.50 0.1411
827.60 0.141
827.70 0.141
827.80 0.1409
827.90 0.1408
828.00 0.1408
828.10 0.1407
828.20 0.1406
828.30 0.1406
828.40 0.1405
828.50 0.1404
828.60 0.1404
828.70 0.1403
828.80 0.1403
828.90 0.1402
829.00 0.1401
829.10 0.1401
829.20 0.14
829.30 0.1399
829.40 0.1399
829.50 0.1398
829.60 0.1397
829.70 0.1397
829.80 0.1396
829.90 0.1395
830.00 0.1395
830.10 0.1394
830.20 0.1393
830.30 0.1393
830.40 0.1392
830.50 0.1391
830.60 0.1391
830.70 0.139
830.80 0.1389
830.90 0.1389
831.00 0.1388
831.10 0.1387
831.20 0.1387
831.30 0.1386
831.40 0.1385
831.50 0.1385
831.60 0.1384
831.70 0.1383
831.80 0.1383
831.90 0.1382
832.00 0.1382
832.10 0.1381
832.20 0.138
832.30 0.138
832.40 0.1379
832.50 0.1378
832.60 0.1378
832.70 0.1377
832.80 0.1376
832.90 0.1376
833.00 0.1375
833.10 0.1374
833.20 0.1374
833.30 0.1373
833.40 0.1373
833.50 0.1372
833.60 0.1371
833.70 0.1371
833.80 0.137
833.90 0.1369
834.00 0.1369
834.10 0.1368
834.20 0.1367
834.30 0.1367
834.40 0.1366
834.50 0.1365
834.60 0.1365
834.70 0.1364
834.80 0.1364
834.90 0.1363
835.00 0.1362
835.10 0.1362
835.20 0.1361
835.30 0.136
835.40 0.136
835.50 0.1359
835.60 0.1358
835.70 0.1358
835.80 0.1357
835.90 0.1357
836.00 0.1356
836.10 0.1355
836.20 0.1355
836.30 0.1354
836.40 0.1353
836.50 0.1353
836.60 0.1352
836.70 0.1351
836.80 0.1351
836.90 0.135
837.00 0.135
837.10 0.1349
837.20 0.1348
837.30 0.1348
837.40 0.1347
837.50 0.1346
837.60 0.1346
837.70 0.1345
837.80 0.1345
837.90 0.1344
838.00 0.1343
838.10 0.1343
838.20 0.1342
838.30 0.1341
838.40 0.1341
838.50 0.134
838.60 0.134
838.70 0.1339
838.80 0.1338
838.90 0.1338
839.00 0.1337
839.10 0.1336
839.20 0.1336
839.30 0.1335
839.40 0.1335
839.50 0.1334
839.60 0.1333
839.70 0.1333
839.80 0.1332
839.90 0.1332
840.00 0.1331
840.10 0.133
840.20 0.133
840.30 0.1329
840.40 0.1328
840.50 0.1328
840.60 0.1327
840.70 0.1327
840.80 0.1326
840.90 0.1325
841.00 0.1325
841.10 0.1324
841.20 0.1323
841.30 0.1323
841.40 0.1322
841.50 0.1322
841.60 0.1321
841.70 0.132
841.80 0.132
841.90 0.1319
842.00 0.1319
842.10 0.1318
842.20 0.1317
842.30 0.1317
842.40 0.1316
842.50 0.1316
842.60 0.1315
842.70 0.1314
842.80 0.1314
842.90 0.1313
843.00 0.1312
843.10 0.1312
843.20 0.1311
843.30 0.1311
843.40 0.131
843.50 0.1309
843.60 0.1309
843.70 0.1308
843.80 0.1308
843.90 0.1307
844.00 0.1306
844.10 0.1306
844.20 0.1305
844.30 0.1305
844.40 0.1304
844.50 0.1303
844.60 0.1303
844.70 0.1302
844.80 0.1302
844.90 0.1301
845.00 0.13
845.10 0.13
845.20 0.1299
845.30 0.1299
845.40 0.1298
845.50 0.1297
845.60 0.1297
845.70 0.1296
845.80 0.1296
845.90 0.1295
846.00 0.1294
846.10 0.1294
846.20 0.1293
846.30 0.1293
846.40 0.1292
846.50 0.1291
846.60 0.1291
846.70 0.129
846.80 0.129
846.90 0.1289
847.00 0.1288
847.10 0.1288
847.20 0.1287
847.30 0.1287
847.40 0.1286
847.50 0.1285
847.60 0.1285
847.70 0.1284
847.80 0.1284
847.90 0.1283
848.00 0.1283
848.10 0.1282
848.20 0.1281
848.30 0.1281
848.40 0.128
848.50 0.128
848.60 0.1279
848.70 0.1278
848.80 0.1278
848.90 0.1277
849.00 0.1277
849.10 0.1276
849.20 0.1275
849.30 0.1275
849.40 0.1274
849.50 0.1274
849.60 0.1273
849.70 0.1273
849.80 0.1272
849.90 0.1271
850.00 0.1271
850.10 0.127
850.20 0.127
850.30 0.1269
850.40 0.1268
850.50 0.1268
850.60 0.1267
850.70 0.1267
850.80 0.1266
850.90 0.1266
851.00 0.1265
851.10 0.1264
851.20 0.1264
851.30 0.1263
851.40 0.1263
851.50 0.1262
851.60 0.1261
851.70 0.1261
851.80 0.126
851.90 0.126
852.00 0.1259
852.10 0.1259
852.20 0.1258
852.30 0.1257
852.40 0.1257
852.50 0.1256
852.60 0.1256
852.70 0.1255
852.80 0.1255
852.90 0.1254
853.00 0.1253
853.10 0.1253
853.20 0.1252
853.30 0.1252
853.40 0.1251
853.50 0.1251
853.60 0.125
853.70 0.1249
853.80 0.1249
853.90 0.1248
854.00 0.1248
854.10 0.1247
854.20 0.1247
854.30 0.1246
854.40 0.1245
854.50 0.1245
854.60 0.1244
854.70 0.1244
854.80 0.1243
854.90 0.1243
855.00 0.1242
855.10 0.1241
855.20 0.1241
855.30 0.124
855.40 0.124
855.50 0.1239
855.60 0.1239
855.70 0.1238
855.80 0.1237
855.90 0.1237
856.00 0.1236
856.10 0.1236
856.20 0.1235
856.30 0.1235
856.40 0.1234
856.50 0.1234
856.60 0.1233
856.70 0.1232
856.80 0.1232
856.90 0.1231
857.00 0.1231
857.10 0.123
857.20 0.123
857.30 0.1229
857.40 0.1228
857.50 0.1228
857.60 0.1227
857.70 0.1227
857.80 0.1226
857.90 0.1226
858.00 0.1225
858.10 0.1225
858.20 0.1224
858.30 0.1223
858.40 0.1223
858.50 0.1222
858.60 0.1222
858.70 0.1221
858.80 0.1221
858.90 0.122
859.00 0.122
859.10 0.1219
859.20 0.1218
859.30 0.1218
859.40 0.1217
859.50 0.1217
859.60 0.1216
859.70 0.1216
859.80 0.1215
859.90 0.1215
860.00 0.1214
860.10 0.1213
860.20 0.1213
860.30 0.1212
860.40 0.1212
860.50 0.1211
860.60 0.1211
860.70 0.121
860.80 0.121
860.90 0.1209
861.00 0.1209
861.10 0.1208
861.20 0.1207
861.30 0.1207
861.40 0.1206
861.50 0.1206
861.60 0.1205
861.70 0.1205
861.80 0.1204
861.90 0.1204
862.00 0.1203
862.10 0.1203
862.20 0.1202
862.30 0.1201
862.40 0.1201
862.50 0.12
862.60 0.12
862.70 0.1199
862.80 0.1199
862.90 0.1198
863.00 0.1198
863.10 0.1197
863.20 0.1197
863.30 0.1196
863.40 0.1195
863.50 0.1195
863.60 0.1194
863.70 0.1194
863.80 0.1193
863.90 0.1193
864.00 0.1192
864.10 0.1192
864.20 0.1191
864.30 0.1191
864.40 0.119
864.50 0.119
864.60 0.1189
864.70 0.1188
864.80 0.1188
864.90 0.1187
865.00 0.1187
865.10 0.1186
865.20 0.1186
865.30 0.1185
865.40 0.1185
865.50 0.1184
865.60 0.1184
865.70 0.1183
865.80 0.1183
865.90 0.1182
866.00 0.1182
866.10 0.1181
866.20 0.118
866.30 0.118
866.40 0.1179
866.50 0.1179
866.60 0.1178
866.70 0.1178
866.80 0.1177
866.90 0.1177
867.00 0.1176
867.10 0.1176
867.20 0.1175
867.30 0.1175
867.40 0.1174
867.50 0.1174
867.60 0.1173
867.70 0.1173
867.80 0.1172
867.90 0.1171
868.00 0.1171
868.10 0.117
868.20 0.117
868.30 0.1169
868.40 0.1169
868.50 0.1168
868.60 0.1168
868.70 0.1167
868.80 0.1167
868.90 0.1166
869.00 0.1166
869.10 0.1165
869.20 0.1165
869.30 0.1164
869.40 0.1164
869.50 0.1163
869.60 0.1163
869.70 0.1162
869.80 0.1161
869.90 0.1161
870.00 0.116
870.10 0.116
870.20 0.1159
870.30 0.1159
870.40 0.1158
870.50 0.1158
870.60 0.1157
870.70 0.1157
870.80 0.1156
870.90 0.1156
871.00 0.1155
871.10 0.1155
871.20 0.1154
871.30 0.1154
871.40 0.1153
871.50 0.1153
871.60 0.1152
871.70 0.1152
871.80 0.1151
871.90 0.1151
872.00 0.115
872.10 0.115
872.20 0.1149
872.30 0.1149
872.40 0.1148
872.50 0.1147
872.60 0.1147
872.70 0.1146
872.80 0.1146
872.90 0.1145
873.00 0.1145
873.10 0.1144
873.20 0.1144
873.30 0.1143
873.40 0.1143
873.50 0.1142
873.60 0.1142
873.70 0.1141
873.80 0.1141
873.90 0.114
874.00 0.114
874.10 0.1139
874.20 0.1139
874.30 0.1138
874.40 0.1138
874.50 0.1137
874.60 0.1137
874.70 0.1136
874.80 0.1136
874.90 0.1135
875.00 0.1135
875.10 0.1134
875.20 0.1134
875.30 0.1133
875.40 0.1133
875.50 0.1132
875.60 0.1132
875.70 0.1131
875.80 0.1131
875.90 0.113
876.00 0.113
876.10 0.1129
876.20 0.1129
876.30 0.1128
876.40 0.1128
876.50 0.1127
876.60 0.1127
876.70 0.1126
876.80 0.1126
876.90 0.1125
877.00 0.1125
877.10 0.1124
877.20 0.1124
877.30 0.1123
877.40 0.1123
877.50 0.1122
877.60 0.1122
877.70 0.1121
877.80 0.1121
877.90 0.112
878.00 0.112
878.10 0.1119
878.20 0.1119
878.30 0.1118
878.40 0.1118
878.50 0.1117
878.60 0.1117
878.70 0.1116
878.80 0.1116
878.90 0.1115
879.00 0.1115
879.10 0.1114
879.20 0.1114
879.30 0.1113
879.40 0.1113
879.50 0.1112
879.60 0.1112
879.70 0.1111
879.80 0.1111
879.90 0.111
880.00 0.111
880.10 0.1109
880.20 0.1109
880.30 0.1108
880.40 0.1108
880.50 0.1107
880.60 0.1107
880.70 0.1106
880.80 0.1106
880.90 0.1105
881.00 0.1105
881.10 0.1104
881.20 0.1104
881.30 0.1103
881.40 0.1103
881.50 0.1102
881.60 0.1102
881.70 0.1101
881.80 0.1101
881.90 0.11
882.00 0.11
882.10 0.11
882.20 0.1099
882.30 0.1099
882.40 0.1098
882.50 0.1098
882.60 0.1097
882.70 0.1097
882.80 0.1096
882.90 0.1096
883.00 0.1095
883.10 0.1095
883.20 0.1094
883.30 0.1094
883.40 0.1093
883.50 0.1093
883.60 0.1092
883.70 0.1092
883.80 0.1091
883.90 0.1091
884.00 0.109
884.10 0.109
884.20 0.1089
884.30 0.1089
884.40 0.1088
884.50 0.1088
884.60 0.1087
884.70 0.1087
884.80 0.1087
884.90 0.1086
885.00 0.1086
885.10 0.1085
885.20 0.1085
885.30 0.1084
885.40 0.1084
885.50 0.1083
885.60 0.1083
885.70 0.1082
885.80 0.1082
885.90 0.1081
886.00 0.1081
886.10 0.108
886.20 0.108
886.30 0.1079
886.40 0.1079
886.50 0.1078
886.60 0.1078
886.70 0.1077
886.80 0.1077
886.90 0.1077
887.00 0.1076
887.10 0.1076
887.20 0.1075
887.30 0.1075
887.40 0.1074
887.50 0.1074
887.60 0.1073
887.70 0.1073
887.80 0.1072
887.90 0.1072
888.00 0.1071
888.10 0.1071
888.20 0.107
888.30 0.107
888.40 0.1069
888.50 0.1069
888.60 0.1069
888.70 0.1068
888.80 0.1068
888.90 0.1067
889.00 0.1067
889.10 0.1066
889.20 0.1066
889.30 0.1065
889.40 0.1065
889.50 0.1064
889.60 0.1064
889.70 0.1063
889.80 0.1063
889.90 0.1062
890.00 0.1062
890.10 0.1061
890.20 0.1061
890.30 0.1061
890.40 0.106
890.50 0.106
890.60 0.1059
890.70 0.1059
890.80 0.1058
890.90 0.1058
891.00 0.1057
891.10 0.1057
891.20 0.1056
891.30 0.1056
891.40 0.1055
891.50 0.1055
891.60 0.1054
891.70 0.1054
891.80 0.1054
891.90 0.1053
892.00 0.1053
892.10 0.1052
892.20 0.1052
892.30 0.1051
892.40 0.1051
892.50 0.105
892.60 0.105
892.70 0.1049
892.80 0.1049
892.90 0.1048
893.00 0.1048
893.10 0.1048
893.20 0.1047
893.30 0.1047
893.40 0.1046
893.50 0.1046
893.60 0.1045
893.70 0.1045
893.80 0.1044
893.90 0.1044
894.00 0.1043
894.10 0.1043
894.20 0.1043
894.30 0.1042
894.40 0.1042
894.50 0.1041
894.60 0.1041
894.70 0.104
894.80 0.104
894.90 0.1039
895.00 0.1039
895.10 0.1038
895.20 0.1038
895.30 0.1038
895.40 0.1037
895.50 0.1037
895.60 0.1036
895.70 0.1036
895.80 0.1035
895.90 0.1035
896.00 0.1034
896.10 0.1034
896.20 0.1034
896.30 0.1033
896.40 0.1033
896.50 0.1032
896.60 0.1032
896.70 0.1031
896.80 0.1031
896.90 0.103
897.00 0.103
897.10 0.1029
897.20 0.1029
897.30 0.1029
897.40 0.1028
897.50 0.1028
897.60 0.1027
897.70 0.1027
897.80 0.1026
897.90 0.1026
898.00 0.1026
898.10 0.1025
898.20 0.1025
898.30 0.1024
898.40 0.1024
898.50 0.1023
898.60 0.1023
898.70 0.1022
898.80 0.1022
898.90 0.1022
899.00 0.1021
899.10 0.1021
899.20 0.102
899.30 0.102
899.40 0.1019
899.50 0.1019
899.60 0.1018
899.70 0.1018
899.80 0.1018
899.90 0.1017
900.00 0.1017
900.10 0.1016
900.20 0.1016
900.30 0.1015
900.40 0.1015
900.50 0.1015
900.60 0.1014
900.70 0.1014
900.80 0.1013
900.90 0.1013
901.00 0.1012
901.10 0.1012
901.20 0.1012
901.30 0.1011
901.40 0.1011
901.50 0.101
901.60 0.101
901.70 0.1009
901.80 0.1009
901.90 0.1008
902.00 0.1008
902.10 0.1008
902.20 0.1007
902.30 0.1007
902.40 0.1006
902.50 0.1006
902.60 0.1005
902.70 0.1005
902.80 0.1005
902.90 0.1004
903.00 0.1004
903.10 0.1003
903.20 0.1003
903.30 0.1002
903.40 0.1002
903.50 0.1001
903.60 0.1001
903.70 0.1001
903.80 0.1
903.90 0.09997
904.00 0.09993
904.10 0.09989
904.20 0.09984
904.30 0.0998
904.40 0.09976
904.50 0.09971
904.60 0.09967
904.70 0.09963
904.80 0.09958
904.90 0.09954
905.00 0.0995
905.10 0.09945
905.20 0.09941
905.30 0.09937
905.40 0.09932
905.50 0.09928
905.60 0.09924
905.70 0.09919
905.80 0.09915
905.90 0.09911
906.00 0.09906
906.10 0.09902
906.20 0.09898
906.30 0.09893
906.40 0.09889
906.50 0.09885
906.60 0.09881
906.70 0.09876
906.80 0.09872
906.90 0.09868
907.00 0.09863
907.10 0.09859
907.20 0.09855
907.30 0.09851
907.40 0.09846
907.50 0.09842
907.60 0.09838
907.70 0.09834
907.80 0.0983
907.90 0.09825
908.00 0.09821
908.10 0.09817
908.20 0.09813
908.30 0.09808
908.40 0.09804
908.50 0.098
908.60 0.09796
908.70 0.09792
908.80 0.09787
908.90 0.09783
909.00 0.09779
909.10 0.09775
909.20 0.09771
909.30 0.09766
909.40 0.09762
909.50 0.09758
909.60 0.09754
909.70 0.0975
909.80 0.09745
909.90 0.09741
910.00 0.09737
910.10 0.09733
910.20 0.09729
910.30 0.09725
910.40 0.0972
910.50 0.09716
910.60 0.09712
910.70 0.09708
910.80 0.09704
910.90 0.09699
911.00 0.09695
911.10 0.09691
911.20 0.09687
911.30 0.09683
911.40 0.09679
911.50 0.09674
911.60 0.0967
911.70 0.09666
911.80 0.09662
911.90 0.09658
912.00 0.09654
912.10 0.0965
912.20 0.09645
912.30 0.09641
912.40 0.09637
912.50 0.09633
912.60 0.09629
912.70 0.09625
912.80 0.09621
912.90 0.09617
913.00 0.09613
913.10 0.09608
913.20 0.09604
913.30 0.096
913.40 0.09596
913.50 0.09592
913.60 0.09588
913.70 0.09584
913.80 0.0958
913.90 0.09576
914.00 0.09572
914.10 0.09567
914.20 0.09563
914.30 0.09559
914.40 0.09555
914.50 0.09551
914.60 0.09547
914.70 0.09543
914.80 0.09539
914.90 0.09535
915.00 0.09531
915.10 0.09527
915.20 0.09523
915.30 0.09518
915.40 0.09514
915.50 0.0951
915.60 0.09506
915.70 0.09502
915.80 0.09498
915.90 0.09494
916.00 0.0949
916.10 0.09486
916.20 0.09482
916.30 0.09478
916.40 0.09474
916.50 0.0947
916.60 0.09466
916.70 0.09462
916.80 0.09458
916.90 0.09453
917.00 0.09449
917.10 0.09445
917.20 0.09442
917.30 0.09438
917.40 0.09434
917.50 0.0943
917.60 0.09426
917.70 0.09422
917.80 0.09418
917.90 0.09414
918.00 0.0941
918.10 0.09406
918.20 0.09402
918.30 0.09398
918.40 0.09394
918.50 0.0939
918.60 0.09386
918.70 0.09382
918.80 0.09379
918.90 0.09375
919.00 0.09371
919.10 0.09367
919.20 0.09363
919.30 0.09359
919.40 0.09355
919.50 0.09351
919.60 0.09347
919.70 0.09343
919.80 0.09339
919.90 0.09335
920.00 0.09332
920.10 0.09328
920.20 0.09324
920.30 0.0932
920.40 0.09316
920.50 0.09312
920.60 0.09308
920.70 0.09304
920.80 0.093
920.90 0.09296
921.00 0.09293
921.10 0.09289
921.20 0.09285
921.30 0.09281
921.40 0.09277
921.50 0.09273
921.60 0.09269
921.70 0.09265
921.80 0.09261
921.90 0.09258
922.00 0.09254
922.10 0.0925
922.20 0.09246
922.30 0.09242
922.40 0.09238
922.50 0.09234
922.60 0.0923
922.70 0.09226
922.80 0.09222
922.90 0.09218
923.00 0.09214
923.10 0.0921
923.20 0.09207
923.30 0.09203
923.40 0.09199
923.50 0.09195
923.60 0.09191
923.70 0.09187
923.80 0.09183
923.90 0.09179
924.00 0.09175
924.10 0.09171
924.20 0.09167
924.30 0.09163
924.40 0.0916
924.50 0.09156
924.60 0.09152
924.70 0.09148
924.80 0.09144
924.90 0.0914
925.00 0.09136
925.10 0.09132
925.20 0.09128
925.30 0.09125
925.40 0.09121
925.50 0.09117
925.60 0.09113
925.70 0.09109
925.80 0.09105
925.90 0.09101
926.00 0.09097
926.10 0.09093
926.20 0.0909
926.30 0.09086
926.40 0.09082
926.50 0.09078
926.60 0.09074
926.70 0.0907
926.80 0.09066
926.90 0.09062
927.00 0.09059
927.10 0.09055
927.20 0.09051
927.30 0.09047
927.40 0.09043
927.50 0.0904
927.60 0.09036
927.70 0.09032
927.80 0.09028
927.90 0.09025
928.00 0.09021
928.10 0.09017
928.20 0.09013
928.30 0.09009
928.40 0.09006
928.50 0.09002
928.60 0.08998
928.70 0.08994
928.80 0.08991
928.90 0.08987
929.00 0.08983
929.10 0.08979
929.20 0.08976
929.30 0.08972
929.40 0.08968
929.50 0.08964
929.60 0.08961
929.70 0.08957
929.80 0.08953
929.90 0.08949
930.00 0.08946
930.10 0.08942
930.20 0.08938
930.30 0.08934
930.40 0.08931
930.50 0.08927
930.60 0.08923
930.70 0.0892
930.80 0.08916
930.90 0.08912
931.00 0.08908
931.10 0.08905
931.20 0.08901
931.30 0.08897
931.40 0.08893
931.50 0.0889
931.60 0.08886
931.70 0.08882
931.80 0.08879
931.90 0.08875
932.00 0.08871
932.10 0.08867
932.20 0.08864
932.30 0.0886
932.40 0.08856
932.50 0.08853
932.60 0.08849
932.70 0.08845
932.80 0.08842
932.90 0.08838
933.00 0.08834
933.10 0.0883
933.20 0.08827
933.30 0.08823
933.40 0.08819
933.50 0.08816
933.60 0.08812
933.70 0.08808
933.80 0.08805
933.90 0.08801
934.00 0.08797
934.10 0.08794
934.20 0.0879
934.30 0.08786
934.40 0.08783
934.50 0.08779
934.60 0.08775
934.70 0.08772
934.80 0.08768
934.90 0.08764
935.00 0.08761
935.10 0.08757
935.20 0.08753
935.30 0.0875
935.40 0.08746
935.50 0.08743
935.60 0.08739
935.70 0.08735
935.80 0.08732
935.90 0.08728
936.00 0.08724
936.10 0.08721
936.20 0.08717
936.30 0.08713
936.40 0.0871
936.50 0.08706
936.60 0.08703
936.70 0.08699
936.80 0.08695
936.90 0.08692
937.00 0.08688
937.10 0.08684
937.20 0.08681
937.30 0.08677
937.40 0.08673
937.50 0.0867
937.60 0.08666
937.70 0.08663
937.80 0.08659
937.90 0.08655
938.00 0.08652
938.10 0.08648
938.20 0.08645
938.30 0.08641
938.40 0.08637
938.50 0.08634
938.60 0.0863
938.70 0.08627
938.80 0.08623
938.90 0.08619
939.00 0.08616
939.10 0.08612
939.20 0.08609
939.30 0.08605
939.40 0.08601
939.50 0.08598
939.60 0.08594
939.70 0.08591
939.80 0.08587
939.90 0.08583
940.00 0.0858
940.10 0.08576
940.20 0.08573
940.30 0.08569
940.40 0.08565
940.50 0.08562
940.60 0.08558
940.70 0.08555
940.80 0.08551
940.90 0.08547
941.00 0.08544
941.10 0.0854
941.20 0.08537
941.30 0.08533
941.40 0.0853
941.50 0.08526
941.60 0.08522
941.70 0.08519
941.80 0.08515
941.90 0.08512
942.00 0.08508
942.10 0.08505
942.20 0.08501
942.30 0.08497
942.40 0.08494
942.50 0.0849
942.60 0.08487
942.70 0.08483
942.80 0.0848
942.90 0.08476
943.00 0.08473
943.10 0.08469
943.20 0.08465
943.30 0.08462
943.40 0.08458
943.50 0.08455
943.60 0.08451
943.70 0.08448
943.80 0.08444
943.90 0.08441
944.00 0.08437
944.10 0.08434
944.20 0.0843
944.30 0.08426
944.40 0.08423
944.50 0.08419
944.60 0.08416
944.70 0.08412
944.80 0.08409
944.90 0.08405
945.00 0.08402
945.10 0.08398
945.20 0.08395
945.30 0.08391
945.40 0.08388
945.50 0.08384
945.60 0.08381
945.70 0.08377
945.80 0.08373
945.90 0.0837
946.00 0.08366
946.10 0.08363
946.20 0.08359
946.30 0.08356
946.40 0.08352
946.50 0.08349
946.60 0.08345
946.70 0.08342
946.80 0.08338
946.90 0.08335
947.00 0.08331
947.10 0.08328
947.20 0.08324
947.30 0.08321
947.40 0.08317
947.50 0.08314
947.60 0.0831
947.70 0.08307
947.80 0.08303
947.90 0.083
948.00 0.08296
948.10 0.08293
948.20 0.0829
948.30 0.08286
948.40 0.08283
948.50 0.08279
948.60 0.08276
948.70 0.08272
948.80 0.08269
948.90 0.08265
949.00 0.08262
949.10 0.08258
949.20 0.08255
949.30 0.08251
949.40 0.08248
949.50 0.08245
949.60 0.08241
949.70 0.08238
949.80 0.08234
949.90 0.08231
950.00 0.08227
950.10 0.08224
950.20 0.08221
950.30 0.08217
950.40 0.08214
950.50 0.0821
950.60 0.08207
950.70 0.08204
950.80 0.082
950.90 0.08197
951.00 0.08193
951.10 0.0819
951.20 0.08187
951.30 0.08183
951.40 0.0818
951.50 0.08177
951.60 0.08173
951.70 0.0817
951.80 0.08167
951.90 0.08163
952.00 0.0816
952.10 0.08157
952.20 0.08154
952.30 0.0815
952.40 0.08147
952.50 0.08144
952.60 0.08141
952.70 0.08137
952.80 0.08134
952.90 0.08131
953.00 0.08128
953.10 0.08125
953.20 0.08122
953.30 0.08118
953.40 0.08115
953.50 0.08112
953.60 0.08109
953.70 0.08106
953.80 0.08103
953.90 0.081
954.00 0.08097
954.10 0.08094
954.20 0.08091
954.30 0.08088
954.40 0.08086
954.50 0.08083
954.60 0.08079
954.70 0.08076
954.80 0.08072
954.90 0.08069
955.00 0.08065
955.10 0.08061
955.20 0.08058
955.30 0.08054
955.40 0.0805
955.50 0.08047
955.60 0.08043
955.70 0.0804
955.80 0.08036
955.90 0.08033
956.00 0.08029
956.10 0.08026
956.20 0.08023
956.30 0.08019
956.40 0.08016
956.50 0.08012
956.60 0.08009
956.70 0.08006
956.80 0.08002
956.90 0.07999
957.00 0.07995
957.10 0.07992
957.20 0.07989
957.30 0.07985
957.40 0.07982
957.50 0.07979
957.60 0.07976
957.70 0.07973
957.80 0.07969
957.90 0.07966
958.00 0.07963
958.10 0.0796
958.20 0.07956
958.30 0.07953
958.40 0.0795
958.50 0.07947
958.60 0.07944
958.70 0.0794
958.80 0.07937
958.90 0.07934
959.00 0.07931
959.10 0.07927
959.20 0.07924
959.30 0.07921
959.40 0.07918
959.50 0.07915
959.60 0.07912
959.70 0.07908
959.80 0.07905
959.90 0.07902
960.00 0.07899
960.10 0.07896
960.20 0.07893
960.30 0.0789
960.40 0.07886
960.50 0.07883
960.60 0.0788
960.70 0.07877
960.80 0.07874
960.90 0.07871
961.00 0.07868
961.10 0.07864
961.20 0.07861
961.30 0.07858
961.40 0.07855
961.50 0.07852
961.60 0.07849
961.70 0.07846
961.80 0.07843
961.90 0.0784
962.00 0.07836
962.10 0.07833
962.20 0.0783
962.30 0.07827
962.40 0.07824
962.50 0.07821
962.60 0.07818
962.70 0.07815
962.80 0.07812
962.90 0.07809
963.00 0.07805
963.10 0.07802
963.20 0.07799
963.30 0.07796
963.40 0.07793
963.50 0.0779
963.60 0.07787
963.70 0.07784
963.80 0.07781
963.90 0.07778
964.00 0.07775
964.10 0.07772
964.20 0.07768
964.30 0.07765
964.40 0.07762
964.50 0.07759
964.60 0.07756
964.70 0.07753
964.80 0.0775
964.90 0.07747
965.00 0.07744
965.10 0.07741
965.20 0.07738
965.30 0.07735
965.40 0.07732
965.50 0.07729
965.60 0.07725
965.70 0.07722
965.80 0.07719
965.90 0.07716
966.00 0.07713
966.10 0.0771
966.20 0.07707
966.30 0.07704
966.40 0.07701
966.50 0.07698
966.60 0.07695
966.70 0.07692
966.80 0.07689
966.90 0.07686
967.00 0.07683
967.10 0.0768
967.20 0.07677
967.30 0.07674
967.40 0.0767
967.50 0.07667
967.60 0.07664
967.70 0.07661
967.80 0.07658
967.90 0.07655
968.00 0.07652
968.10 0.07649
968.20 0.07646
968.30 0.07643
968.40 0.0764
968.50 0.07637
968.60 0.07634
968.70 0.07631
968.80 0.07628
968.90 0.07625
969.00 0.07622
969.10 0.07619
969.20 0.07616
969.30 0.07613
969.40 0.0761
969.50 0.07607
969.60 0.07604
969.70 0.07601
969.80 0.07598
969.90 0.07595
970.00 0.07592
970.10 0.07589
970.20 0.07585
970.30 0.07582
970.40 0.07579
970.50 0.07576
970.60 0.07573
970.70 0.0757
970.80 0.07567
970.90 0.07564
971.00 0.07561
971.10 0.07558
971.20 0.07555
971.30 0.07552
971.40 0.07549
971.50 0.07546
971.60 0.07543
971.70 0.0754
971.80 0.07537
971.90 0.07534
972.00 0.07531
972.10 0.07528
972.20 0.07525
972.30 0.07522
972.40 0.07519
972.50 0.07516
972.60 0.07513
972.70 0.0751
972.80 0.07507
972.90 0.07504
973.00 0.07501
973.10 0.07498
973.20 0.07495
973.30 0.07492
973.40 0.07489
973.50 0.07486
973.60 0.07483
973.70 0.0748
973.80 0.07477
973.90 0.07474
974.00 0.07471
974.10 0.07468
974.20 0.07466
974.30 0.07463
974.40 0.0746
974.50 0.07457
974.60 0.07454
974.70 0.07451
974.80 0.07448
974.90 0.07445
975.00 0.07442
975.10 0.07439
975.20 0.07436
975.30 0.07433
975.40 0.0743
975.50 0.07427
975.60 0.07424
975.70 0.07421
975.80 0.07418
975.90 0.07415
976.00 0.07412
976.10 0.07409
976.20 0.07406
976.30 0.07403
976.40 0.074
976.50 0.07397
976.60 0.07394
976.70 0.07391
976.80 0.07388
976.90 0.07386
977.00 0.07383
977.10 0.0738
977.20 0.07377
977.30 0.07374
977.40 0.07371
977.50 0.07368
977.60 0.07365
977.70 0.07362
977.80 0.07359
977.90 0.07356
978.00 0.07353
978.10 0.0735
978.20 0.07347
978.30 0.07344
978.40 0.07341
978.50 0.07338
978.60 0.07336
978.70 0.07333
978.80 0.0733
978.90 0.07327
979.00 0.07324
979.10 0.07321
979.20 0.07318
979.30 0.07315
979.40 0.07312
979.50 0.07309
979.60 0.07306
979.70 0.07303
979.80 0.073
979.90 0.07298
980.00 0.07295
980.10 0.07292
980.20 0.07289
980.30 0.07286
980.40 0.07283
980.50 0.0728
980.60 0.07277
980.70 0.07274
980.80 0.07271
980.90 0.07268
981.00 0.07266
981.10 0.07263
981.20 0.0726
981.30 0.07257
981.40 0.07254
981.50 0.07251
981.60 0.07248
981.70 0.07245
981.80 0.07242
981.90 0.07239
982.00 0.07237
982.10 0.07234
982.20 0.07231
982.30 0.07228
982.40 0.07225
982.50 0.07222
982.60 0.07219
982.70 0.07216
982.80 0.07213
982.90 0.0721
983.00 0.07208
983.10 0.07205
983.20 0.07202
983.30 0.07199
983.40 0.07196
983.50 0.07193
983.60 0.0719
983.70 0.07187
983.80 0.07185
983.90 0.07182
984.00 0.07179
984.10 0.07176
984.20 0.07173
984.30 0.0717
984.40 0.07167
984.50 0.07164
984.60 0.07162
984.70 0.07159
984.80 0.07156
984.90 0.07153
985.00 0.0715
985.10 0.07147
985.20 0.07144
985.30 0.07141
985.40 0.07139
985.50 0.07136
985.60 0.07133
985.70 0.0713
985.80 0.07127
985.90 0.07124
986.00 0.07121
986.10 0.07119
986.20 0.07116
986.30 0.07113
986.40 0.0711
986.50 0.07107
986.60 0.07104
986.70 0.07101
986.80 0.07099
986.90 0.07096
987.00 0.07093
987.10 0.0709
987.20 0.07087
987.30 0.07084
987.40 0.07081
987.50 0.07079
987.60 0.07076
987.70 0.07073
987.80 0.0707
987.90 0.07067
988.00 0.07064
988.10 0.07062
988.20 0.07059
988.30 0.07056
988.40 0.07053
988.50 0.0705
988.60 0.07047
988.70 0.07045
988.80 0.07042
988.90 0.07039
989.00 0.07036
989.10 0.07033
989.20 0.0703
989.30 0.07027
989.40 0.07025
989.50 0.07022
989.60 0.07019
989.70 0.07016
989.80 0.07013
989.90 0.0701
990.00 0.07008
990.10 0.07005
990.20 0.07002
990.30 0.06999
990.40 0.06996
990.50 0.06993
990.60 0.06991
990.70 0.06988
990.80 0.06985
990.90 0.06982
991.00 0.06979
991.10 0.06976
991.20 0.06974
991.30 0.06971
991.40 0.06968
991.50 0.06965
991.60 0.06962
991.70 0.06959
991.80 0.06957
991.90 0.06954
992.00 0.06951
992.10 0.06948
992.20 0.06945
992.30 0.06943
992.40 0.0694
992.50 0.06937
992.60 0.06934
992.70 0.06931
992.80 0.06928
992.90 0.06926
993.00 0.06923
993.10 0.0692
993.20 0.06917
993.30 0.06914
993.40 0.06911
993.50 0.06909
993.60 0.06906
993.70 0.06903
993.80 0.069
993.90 0.06897
994.00 0.06894
994.10 0.06892
994.20 0.06889
994.30 0.06886
994.40 0.06883
994.50 0.0688
994.60 0.06878
994.70 0.06875
994.80 0.06872
994.90 0.06869
995.00 0.06866
995.10 0.06863
995.20 0.06861
995.30 0.06858
995.40 0.06855
995.50 0.06852
995.60 0.06849
995.70 0.06846
995.80 0.06844
995.90 0.06841
996.00 0.06838
996.10 0.06835
996.20 0.06832
996.30 0.06829
996.40 0.06827
996.50 0.06824
996.60 0.06821
996.70 0.06818
996.80 0.06815
996.90 0.06812
997.00 0.0681
997.10 0.06807
997.20 0.06804
997.30 0.06801
997.40 0.06798
997.50 0.06795
997.60 0.06793
997.70 0.0679
997.80 0.06787
997.90 0.06784
998.00 0.06781
998.10 0.06778
998.20 0.06776
998.30 0.06773
998.40 0.0677
998.50 0.06767
998.60 0.06764
998.70 0.06762
998.80 0.06759
998.90 0.06756
999.00 0.06753
999.10 0.0675
999.20 0.06747
999.30 0.06745
999.40 0.06742
999.50 0.06739
999.60 0.06736
999.70 0.06733
999.80 0.0673
999.90 0.06728
1000.00 0.06725
1000.10 0.06722
1000.20 0.06719
1000.30 0.06716
1000.40 0.06714
1000.50 0.06711
1000.60 0.06708
1000.70 0.06705
1000.80 0.06702
1000.90 0.06699
1001.00 0.06697
1001.10 0.06694
1001.20 0.06691
1001.30 0.06688
1001.40 0.06685
1001.50 0.06683
1001.60 0.0668
1001.70 0.06677
1001.80 0.06674
1001.90 0.06672
1002.00 0.06669
1002.10 0.06667
1002.20 0.06664
1002.30 0.06662
1002.40 0.06659
1002.50 0.06657
1002.60 0.06654
1002.70 0.06652
1002.80 0.06649
1002.90 0.06647
1003.00 0.06644
1003.10 0.06642
1003.20 0.06639
1003.30 0.06637
1003.40 0.06635
1003.50 0.06633
1003.60 0.06631
1003.70 0.06629
1003.80 0.06627
1003.90 0.06625
1004.00 0.06623
1004.10 0.06622
1004.20 0.0662
1004.30 0.06619
1004.40 0.06617
1004.50 0.06616
1004.60 0.06614
1004.70 0.06612
1004.80 0.0661
1004.90 0.06607
1005.00 0.06605
1005.10 0.06602
1005.20 0.06598
1005.30 0.06595
1005.40 0.06592
1005.50 0.06589
1005.60 0.06585
1005.70 0.06582
1005.80 0.06578
1005.90 0.06575
1006.00 0.06571
1006.10 0.06568
1006.20 0.06565
1006.30 0.06562
1006.40 0.06559
1006.50 0.06556
1006.60 0.06553
1006.70 0.0655
1006.80 0.06547
1006.90 0.06544
1007.00 0.06541
1007.10 0.06539
1007.20 0.06536
1007.30 0.06534
1007.40 0.06531
1007.50 0.06528
1007.60 0.06526
1007.70 0.06523
1007.80 0.06521
1007.90 0.06518
1008.00 0.06516
1008.10 0.06514
1008.20 0.06511
1008.30 0.06509
1008.40 0.06506
1008.50 0.06504
1008.60 0.06502
1008.70 0.06499
1008.80 0.06497
1008.90 0.06494
1009.00 0.06492
1009.10 0.06489
1009.20 0.06487
1009.30 0.06485
1009.40 0.06482
1009.50 0.0648
1009.60 0.06477
1009.70 0.06475
1009.80 0.06473
1009.90 0.0647
1010.00 0.06468
1010.10 0.06466
1010.20 0.06463
1010.30 0.06461
1010.40 0.06459
1010.50 0.06456
1010.60 0.06454
1010.70 0.06452
1010.80 0.06449
1010.90 0.06447
1011.00 0.06445
1011.10 0.06442
1011.20 0.0644
1011.30 0.06438
1011.40 0.06436
1011.50 0.06433
1011.60 0.06431
1011.70 0.06429
1011.80 0.06426
1011.90 0.06424
1012.00 0.06422
1012.10 0.06419
1012.20 0.06417
1012.30 0.06415
1012.40 0.06412
1012.50 0.0641
1012.60 0.06408
1012.70 0.06405
1012.80 0.06403
1012.90 0.06401
1013.00 0.06398
1013.10 0.06396
1013.20 0.06394
1013.30 0.06391
1013.40 0.06389
1013.50 0.06387
1013.60 0.06384
1013.70 0.06382
1013.80 0.0638
1013.90 0.06377
1014.00 0.06375
1014.10 0.06373
1014.20 0.0637
1014.30 0.06368
1014.40 0.06366
1014.50 0.06363
1014.60 0.06361
1014.70 0.06359
1014.80 0.06356
1014.90 0.06354
1015.00 0.06352
1015.10 0.06349
1015.20 0.06347
1015.30 0.06345
1015.40 0.06342
1015.50 0.0634
1015.60 0.06338
1015.70 0.06335
1015.80 0.06333
1015.90 0.06331
1016.00 0.06328
1016.10 0.06326
1016.20 0.06324
1016.30 0.06321
1016.40 0.06319
1016.50 0.06317
1016.60 0.06314
1016.70 0.06312
1016.80 0.0631
1016.90 0.06307
1017.00 0.06305
1017.10 0.06303
1017.20 0.063
1017.30 0.06298
1017.40 0.06296
1017.50 0.06293
1017.60 0.06291
1017.70 0.06289
1017.80 0.06286
1017.90 0.06284
1018.00 0.06282
1018.10 0.06279
1018.20 0.06277
1018.30 0.06275
1018.40 0.06272
1018.50 0.0627
1018.60 0.06268
1018.70 0.06265
1018.80 0.06263
1018.90 0.06261
1019.00 0.06258
1019.10 0.06256
1019.20 0.06254
1019.30 0.06251
1019.40 0.06249
1019.50 0.06247
1019.60 0.06244
1019.70 0.06242
1019.80 0.0624
1019.90 0.06237
1020.00 0.06235
1020.10 0.06233
1020.20 0.0623
1020.30 0.06228
1020.40 0.06226
1020.50 0.06223
1020.60 0.06221
1020.70 0.06219
1020.80 0.06216
1020.90 0.06214
1021.00 0.06212
1021.10 0.06209
1021.20 0.06207
1021.30 0.06205
1021.40 0.06202
1021.50 0.062
1021.60 0.06198
1021.70 0.06195
1021.80 0.06193
1021.90 0.06191
1022.00 0.06188
1022.10 0.06186
1022.20 0.06184
1022.30 0.06181
1022.40 0.06179
1022.50 0.06177
1022.60 0.06174
1022.70 0.06172
1022.80 0.0617
1022.90 0.06167
1023.00 0.06165
1023.10 0.06163
1023.20 0.0616
1023.30 0.06158
1023.40 0.06156
1023.50 0.06154
1023.60 0.06151
1023.70 0.06149
1023.80 0.06147
1023.90 0.06144
1024.00 0.06142
1024.10 0.0614
1024.20 0.06137
1024.30 0.06135
1024.40 0.06133
1024.50 0.0613
1024.60 0.06128
1024.70 0.06126
1024.80 0.06123
1024.90 0.06121
1025.00 0.06119
1025.10 0.06117
1025.20 0.06114
1025.30 0.06112
1025.40 0.0611
1025.50 0.06107
1025.60 0.06105
1025.70 0.06103
1025.80 0.061
1025.90 0.06098
1026.00 0.06096
1026.10 0.06093
1026.20 0.06091
1026.30 0.06089
1026.40 0.06087
1026.50 0.06084
1026.60 0.06082
1026.70 0.0608
1026.80 0.06077
1026.90 0.06075
1027.00 0.06073
1027.10 0.06071
1027.20 0.06068
1027.30 0.06066
1027.40 0.06064
1027.50 0.06061
1027.60 0.06059
1027.70 0.06057
1027.80 0.06055
1027.90 0.06052
1028.00 0.0605
1028.10 0.06048
1028.20 0.06045
1028.30 0.06043
1028.40 0.06041
1028.50 0.06039
1028.60 0.06036
1028.70 0.06034
1028.80 0.06032
1028.90 0.06029
1029.00 0.06027
1029.10 0.06025
1029.20 0.06023
1029.30 0.0602
1029.40 0.06018
1029.50 0.06016
1029.60 0.06014
1029.70 0.06011
1029.80 0.06009
1029.90 0.06007
1030.00 0.06004
1030.10 0.06002
1030.20 0.06
1030.30 0.05998
1030.40 0.05995
1030.50 0.05993
1030.60 0.05991
1030.70 0.05989
1030.80 0.05986
1030.90 0.05984
1031.00 0.05982
1031.10 0.0598
1031.20 0.05977
1031.30 0.05975
1031.40 0.05973
1031.50 0.05971
1031.60 0.05968
1031.70 0.05966
1031.80 0.05964
1031.90 0.05962
1032.00 0.05959
1032.10 0.05957
1032.20 0.05955
1032.30 0.05953
1032.40 0.0595
1032.50 0.05948
1032.60 0.05946
1032.70 0.05944
1032.80 0.05941
1032.90 0.05939
1033.00 0.05937
1033.10 0.05935
1033.20 0.05932
1033.30 0.0593
1033.40 0.05928
1033.50 0.05926
1033.60 0.05924
1033.70 0.05921
1033.80 0.05919
1033.90 0.05917
1034.00 0.05915
1034.10 0.05912
1034.20 0.0591
1034.30 0.05908
1034.40 0.05906
1034.50 0.05903
1034.60 0.05901
1034.70 0.05899
1034.80 0.05897
1034.90 0.05895
1035.00 0.05892
1035.10 0.0589
1035.20 0.05888
1035.30 0.05886
1035.40 0.05883
1035.50 0.05881
1035.60 0.05879
1035.70 0.05877
1035.80 0.05875
1035.90 0.05872
1036.00 0.0587
1036.10 0.05868
1036.20 0.05866
1036.30 0.05864
1036.40 0.05861
1036.50 0.05859
1036.60 0.05857
1036.70 0.05855
1036.80 0.05853
1036.90 0.0585
1037.00 0.05848
1037.10 0.05846
1037.20 0.05844
1037.30 0.05842
1037.40 0.05839
1037.50 0.05837
1037.60 0.05835
1037.70 0.05833
1037.80 0.05831
1037.90 0.05828
1038.00 0.05826
1038.10 0.05824
1038.20 0.05822
1038.30 0.0582
1038.40 0.05817
1038.50 0.05815
1038.60 0.05813
1038.70 0.05811
1038.80 0.05809
1038.90 0.05807
1039.00 0.05804
1039.10 0.05802
1039.20 0.058
1039.30 0.05798
1039.40 0.05796
1039.50 0.05793
1039.60 0.05791
1039.70 0.05789
1039.80 0.05787
1039.90 0.05785
1040.00 0.05783
1040.10 0.0578
1040.20 0.05778
1040.30 0.05776
1040.40 0.05774
1040.50 0.05772
1040.60 0.0577
1040.70 0.05767
1040.80 0.05765
1040.90 0.05763
1041.00 0.05761
1041.10 0.05759
1041.20 0.05757
1041.30 0.05754
1041.40 0.05752
1041.50 0.0575
1041.60 0.05748
1041.70 0.05746
1041.80 0.05744
1041.90 0.05741
1042.00 0.05739
1042.10 0.05737
1042.20 0.05735
1042.30 0.05733
1042.40 0.05731
1042.50 0.05729
1042.60 0.05726
1042.70 0.05724
1042.80 0.05722
1042.90 0.0572
1043.00 0.05718
1043.10 0.05716
1043.20 0.05714
1043.30 0.05711
1043.40 0.05709
1043.50 0.05707
1043.60 0.05705
1043.70 0.05703
1043.80 0.05701
1043.90 0.05699
1044.00 0.05697
1044.10 0.05694
1044.20 0.05692
1044.30 0.0569
1044.40 0.05688
1044.50 0.05686
1044.60 0.05684
1044.70 0.05682
1044.80 0.0568
1044.90 0.05677
1045.00 0.05675
1045.10 0.05673
1045.20 0.05671
1045.30 0.05669
1045.40 0.05667
1045.50 0.05665
1045.60 0.05663
1045.70 0.0566
1045.80 0.05658
1045.90 0.05656
1046.00 0.05654
1046.10 0.05652
1046.20 0.0565
1046.30 0.05648
1046.40 0.05646
1046.50 0.05644
1046.60 0.05641
1046.70 0.05639
1046.80 0.05637
1046.90 0.05635
1047.00 0.05633
1047.10 0.05631
1047.20 0.05629
1047.30 0.05627
1047.40 0.05625
1047.50 0.05622
1047.60 0.0562
1047.70 0.05618
1047.80 0.05616
1047.90 0.05614
1048.00 0.05612
1048.10 0.0561
1048.20 0.05608
1048.30 0.05606
1048.40 0.05604
1048.50 0.05602
1048.60 0.05599
1048.70 0.05597
1048.80 0.05595
1048.90 0.05593
1049.00 0.05591
1049.10 0.05589
1049.20 0.05587
1049.30 0.05585
1049.40 0.05583
1049.50 0.05581
1049.60 0.05579
1049.70 0.05577
1049.80 0.05574
1049.90 0.05572
1050.00 0.0557
1050.10 0.05568
1050.20 0.05566
1050.30 0.05564
1050.40 0.05562
1050.50 0.0556
1050.60 0.05558
1050.70 0.05556
1050.80 0.05554
1050.90 0.05552
1051.00 0.0555
1051.10 0.05548
1051.20 0.05545
1051.30 0.05543
1051.40 0.05541
1051.50 0.05539
1051.60 0.05537
1051.70 0.05535
1051.80 0.05533
1051.90 0.05531
1052.00 0.05529
1052.10 0.05527
1052.20 0.05525
1052.30 0.05523
1052.40 0.05521
1052.50 0.05519
1052.60 0.05517
1052.70 0.05515
1052.80 0.05513
1052.90 0.05511
1053.00 0.05508
1053.10 0.05506
1053.20 0.05504
1053.30 0.05502
1053.40 0.055
1053.50 0.05498
1053.60 0.05496
1053.70 0.05494
1053.80 0.05492
1053.90 0.0549
1054.00 0.05488
1054.10 0.05486
1054.20 0.05484
1054.30 0.05482
1054.40 0.0548
1054.50 0.05478
1054.60 0.05476
1054.70 0.05474
1054.80 0.05472
1054.90 0.0547
1055.00 0.05468
1055.10 0.05466
1055.20 0.05464
1055.30 0.05462
1055.40 0.0546
1055.50 0.05458
1055.60 0.05456
1055.70 0.05454
1055.80 0.05451
1055.90 0.05449
1056.00 0.05447
1056.10 0.05445
1056.20 0.05443
1056.30 0.05441
1056.40 0.05439
1056.50 0.05437
1056.60 0.05435
1056.70 0.05433
1056.80 0.05431
1056.90 0.05429
1057.00 0.05427
1057.10 0.05425
1057.20 0.05423
1057.30 0.05421
1057.40 0.05419
1057.50 0.05417
1057.60 0.05415
1057.70 0.05413
1057.80 0.05411
1057.90 0.05409
1058.00 0.05407
1058.10 0.05405
1058.20 0.05403
1058.30 0.05401
1058.40 0.05399
1058.50 0.05397
1058.60 0.05395
1058.70 0.05393
1058.80 0.05391
1058.90 0.05389
1059.00 0.05387
1059.10 0.05385
1059.20 0.05383
1059.30 0.05381
1059.40 0.05379
1059.50 0.05377
1059.60 0.05375
1059.70 0.05373
1059.80 0.05371
1059.90 0.05369
1060.00 0.05367
1060.10 0.05365
1060.20 0.05363
1060.30 0.05361
1060.40 0.05359
1060.50 0.05357
1060.60 0.05355
1060.70 0.05353
1060.80 0.05351
1060.90 0.05349
1061.00 0.05348
1061.10 0.05346
1061.20 0.05344
1061.30 0.05342
1061.40 0.0534
1061.50 0.05338
1061.60 0.05336
1061.70 0.05334
1061.80 0.05332
1061.90 0.0533
1062.00 0.05328
1062.10 0.05326
1062.20 0.05324
1062.30 0.05322
1062.40 0.0532
1062.50 0.05318
1062.60 0.05316
1062.70 0.05314
1062.80 0.05312
1062.90 0.0531
1063.00 0.05308
1063.10 0.05306
1063.20 0.05304
1063.30 0.05302
1063.40 0.053
1063.50 0.05298
1063.60 0.05296
1063.70 0.05294
1063.80 0.05292
1063.90 0.05291
1064.00 0.05289
1064.10 0.05287
1064.20 0.05285
1064.30 0.05283
1064.40 0.05281
1064.50 0.05279
1064.60 0.05277
1064.70 0.05275
1064.80 0.05273
1064.90 0.05271
1065.00 0.05269
1065.10 0.05267
1065.20 0.05265
1065.30 0.05263
1065.40 0.05261
1065.50 0.05259
1065.60 0.05257
1065.70 0.05256
1065.80 0.05254
1065.90 0.05252
1066.00 0.0525
1066.10 0.05248
1066.20 0.05246
1066.30 0.05244
1066.40 0.05242
1066.50 0.0524
1066.60 0.05238
1066.70 0.05236
1066.80 0.05234
1066.90 0.05232
1067.00 0.0523
1067.10 0.05228
1067.20 0.05227
1067.30 0.05225
1067.40 0.05223
1067.50 0.05221
1067.60 0.05219
1067.70 0.05217
1067.80 0.05215
1067.90 0.05213
1068.00 0.05211
1068.10 0.05209
1068.20 0.05207
1068.30 0.05205
1068.40 0.05203
1068.50 0.05202
1068.60 0.052
1068.70 0.05198
1068.80 0.05196
1068.90 0.05194
1069.00 0.05192
1069.10 0.0519
1069.20 0.05188
1069.30 0.05186
1069.40 0.05184
1069.50 0.05182
1069.60 0.0518
1069.70 0.05179
1069.80 0.05177
1069.90 0.05175
1070.00 0.05173
1070.10 0.05171
1070.20 0.05169
1070.30 0.05167
1070.40 0.05165
1070.50 0.05163
1070.60 0.05161
1070.70 0.0516
1070.80 0.05158
1070.90 0.05156
1071.00 0.05154
1071.10 0.05152
1071.20 0.0515
1071.30 0.05148
1071.40 0.05146
1071.50 0.05144
1071.60 0.05142
1071.70 0.0514
1071.80 0.05139
1071.90 0.05137
1072.00 0.05135
1072.10 0.05133
1072.20 0.05131
1072.30 0.05129
1072.40 0.05127
1072.50 0.05125
1072.60 0.05123
1072.70 0.05122
1072.80 0.0512
1072.90 0.05118
1073.00 0.05116
1073.10 0.05114
1073.20 0.05112
1073.30 0.0511
1073.40 0.05108
1073.50 0.05106
1073.60 0.05105
1073.70 0.05103
1073.80 0.05101
1073.90 0.05099
1074.00 0.05097
1074.10 0.05095
1074.20 0.05093
1074.30 0.05091
1074.40 0.05089
1074.50 0.05088
1074.60 0.05086
1074.70 0.05084
1074.80 0.05082
1074.90 0.0508
1075.00 0.05078
1075.10 0.05076
1075.20 0.05074
1075.30 0.05072
1075.40 0.05071
1075.50 0.05069
1075.60 0.05067
1075.70 0.05065
1075.80 0.05063
1075.90 0.05061
1076.00 0.05059
1076.10 0.05057
1076.20 0.05056
1076.30 0.05054
1076.40 0.05052
1076.50 0.0505
1076.60 0.05048
1076.70 0.05046
1076.80 0.05044
1076.90 0.05042
1077.00 0.05041
1077.10 0.05039
1077.20 0.05037
1077.30 0.05035
1077.40 0.05033
1077.50 0.05031
1077.60 0.05029
1077.70 0.05027
1077.80 0.05026
1077.90 0.05024
1078.00 0.05022
1078.10 0.0502
1078.20 0.05018
1078.30 0.05016
1078.40 0.05014
1078.50 0.05012
1078.60 0.05011
1078.70 0.05009
1078.80 0.05007
1078.90 0.05005
1079.00 0.05003
1079.10 0.05001
1079.20 0.04999
1079.30 0.04997
1079.40 0.04996
1079.50 0.04994
1079.60 0.04992
1079.70 0.0499
1079.80 0.04988
1079.90 0.04986
1080.00 0.04984
1080.10 0.04982
1080.20 0.0498
1080.30 0.04979
1080.40 0.04977
1080.50 0.04975
1080.60 0.04973
1080.70 0.04971
1080.80 0.04969
1080.90 0.04967
1081.00 0.04965
1081.10 0.04964
1081.20 0.04962
1081.30 0.0496
1081.40 0.04958
1081.50 0.04956
1081.60 0.04954
1081.70 0.04952
1081.80 0.0495
1081.90 0.04948
1082.00 0.04947
1082.10 0.04945
1082.20 0.04943
1082.30 0.04941
1082.40 0.04939
1082.50 0.04937
1082.60 0.04935
1082.70 0.04933
1082.80 0.04931
1082.90 0.04929
1083.00 0.04928
1083.10 0.04926
1083.20 0.04924
1083.30 0.04922
1083.40 0.0492
1083.50 0.04918
1083.60 0.04916
1083.70 0.04914
1083.80 0.04912
1083.90 0.0491
1084.00 0.04908
1084.10 0.04906
1084.20 0.04905
1084.30 0.04903
1084.40 0.04901
1084.50 0.04899
1084.60 0.04897
1084.70 0.04895
1084.80 0.04893
1084.90 0.04891
1085.00 0.04889
1085.10 0.04887
1085.20 0.04885
1085.30 0.04883
1085.40 0.04881
1085.50 0.04879
1085.60 0.04877
1085.70 0.04875
1085.80 0.04873
1085.90 0.04872
1086.00 0.0487
1086.10 0.04868
1086.20 0.04866
1086.30 0.04864
1086.40 0.04862
1086.50 0.0486
1086.60 0.04858
1086.70 0.04856
1086.80 0.04854
1086.90 0.04852
1087.00 0.0485
1087.10 0.04848
1087.20 0.04846
1087.30 0.04844
1087.40 0.04842
1087.50 0.0484
1087.60 0.04838
1087.70 0.04836
1087.80 0.04834
1087.90 0.04832
1088.00 0.0483
1088.10 0.04828
1088.20 0.04826
1088.30 0.04824
1088.40 0.04822
1088.50 0.0482
1088.60 0.04818
1088.70 0.04816
1088.80 0.04814
1088.90 0.04813
1089.00 0.04811
1089.10 0.04809
1089.20 0.04807
1089.30 0.04805
1089.40 0.04803
1089.50 0.04801
1089.60 0.04799
1089.70 0.04797
1089.80 0.04795
1089.90 0.04793
1090.00 0.04791
1090.10 0.04789
1090.20 0.04787
1090.30 0.04785
1090.40 0.04783
1090.50 0.04782
1090.60 0.0478
1090.70 0.04778
1090.80 0.04777
1090.90 0.04775
1091.00 0.04773
1091.10 0.04772
1091.20 0.0477
1091.30 0.04768
1091.40 0.04767
1091.50 0.04765
1091.60 0.04764
1091.70 0.04762
1091.80 0.0476
1091.90 0.04759
1092.00 0.04757
1092.10 0.04756
1092.20 0.04755
1092.30 0.04754
1092.40 0.04753
1092.50 0.04752
1092.60 0.04751
1092.70 0.0475
1092.80 0.04749
1092.90 0.04748
1093.00 0.04748
1093.10 0.04747
1093.20 0.04747
1093.30 0.04746
1093.40 0.04747
1093.50 0.04748
1093.60 0.04751
1093.70 0.04752
1093.80 0.04753
1093.90 0.04751
1094.00 0.04746
1094.10 0.0474
1094.20 0.04735
1094.30 0.0473
1094.40 0.04727
1094.50 0.04724
1094.60 0.04721
1094.70 0.04718
1094.80 0.04716
1094.90 0.04713
1095.00 0.0471
1095.10 0.04708
1095.20 0.04706
1095.30 0.04704
1095.40 0.04702
1095.50 0.047
1095.60 0.04698
1095.70 0.04696
1095.80 0.04694
1095.90 0.04692
1096.00 0.0469
1096.10 0.04688
1096.20 0.04686
1096.30 0.04684
1096.40 0.04682
1096.50 0.0468
1096.60 0.04678
1096.70 0.04677
1096.80 0.04675
1096.90 0.04674
1097.00 0.04672
1097.10 0.0467
1097.20 0.04669
1097.30 0.04668
1097.40 0.04666
1097.50 0.04665
1097.60 0.04663
1097.70 0.04662
1097.80 0.0466
1097.90 0.04659
1098.00 0.04657
1098.10 0.04656
1098.20 0.04654
1098.30 0.04653
1098.40 0.04651
1098.50 0.0465
1098.60 0.04649
1098.70 0.04647
1098.80 0.04646
1098.90 0.04644
1099.00 0.04643
1099.10 0.04642
1099.20 0.0464
1099.30 0.04639
1099.40 0.04637
1099.50 0.04636
1099.60 0.04634
1099.70 0.04633
1099.80 0.04632
1099.90 0.0463
1100.00 0.04629
1100.10 0.04627
1100.20 0.04626
1100.30 0.04625
1100.40 0.04623
1100.50 0.04622
1100.60 0.0462
1100.70 0.04619
1100.80 0.04618
1100.90 0.04616
1101.00 0.04615
1101.10 0.04613
1101.20 0.04612
1101.30 0.0461
1101.40 0.04609
1101.50 0.04607
1101.60 0.04606
1101.70 0.04605
1101.80 0.04603
1101.90 0.04602
1102.00 0.046
1102.10 0.04599
1102.20 0.04597
1102.30 0.04596
1102.40 0.04594
1102.50 0.04593
1102.60 0.04592
1102.70 0.0459
1102.80 0.04589
1102.90 0.04587
1103.00 0.04586
1103.10 0.04584
1103.20 0.04583
1103.30 0.04581
1103.40 0.0458
1103.50 0.04578
1103.60 0.04577
1103.70 0.04575
1103.80 0.04574
1103.90 0.04572
1104.00 0.04571
1104.10 0.04569
1104.20 0.04568
1104.30 0.04566
1104.40 0.04565
1104.50 0.04563
1104.60 0.04562
1104.70 0.0456
1104.80 0.04559
1104.90 0.04557
1105.00 0.04556
1105.10 0.04554
1105.20 0.04553
1105.30 0.04551
1105.40 0.0455
1105.50 0.04548
1105.60 0.04547
1105.70 0.04545
1105.80 0.04544
1105.90 0.04542
1106.00 0.04541
1106.10 0.04539
1106.20 0.04538
1106.30 0.04536
1106.40 0.04535
1106.50 0.04533
1106.60 0.04532
1106.70 0.0453
1106.80 0.04529
1106.90 0.04527
1107.00 0.04526
1107.10 0.04524
1107.20 0.04522
1107.30 0.04521
1107.40 0.04519
1107.50 0.04518
1107.60 0.04516
1107.70 0.04515
1107.80 0.04513
1107.90 0.04512
1108.00 0.0451
1108.10 0.04509
1108.20 0.04507
1108.30 0.04506
1108.40 0.04504
1108.50 0.04503
1108.60 0.04501
1108.70 0.04499
1108.80 0.04498
1108.90 0.04496
1109.00 0.04495
1109.10 0.04493
1109.20 0.04492
1109.30 0.0449
1109.40 0.04489
1109.50 0.04487
1109.60 0.04486
1109.70 0.04484
1109.80 0.04483
1109.90 0.04481
1110.00 0.0448
1110.10 0.04478
1110.20 0.04476
1110.30 0.04475
1110.40 0.04473
1110.50 0.04472
1110.60 0.0447
1110.70 0.04469
1110.80 0.04467
1110.90 0.04466
1111.00 0.04464
1111.10 0.04463
1111.20 0.04461
1111.30 0.0446
1111.40 0.04458
1111.50 0.04456
1111.60 0.04455
1111.70 0.04453
1111.80 0.04452
1111.90 0.0445
1112.00 0.04449
1112.10 0.04447
1112.20 0.04446
1112.30 0.04444
1112.40 0.04443
1112.50 0.04441
1112.60 0.0444
1112.70 0.04438
1112.80 0.04437
1112.90 0.04435
1113.00 0.04433
1113.10 0.04432
1113.20 0.0443
1113.30 0.04429
1113.40 0.04427
1113.50 0.04426
1113.60 0.04424
1113.70 0.04423
1113.80 0.04421
1113.90 0.0442
1114.00 0.04418
1114.10 0.04417
1114.20 0.04415
1114.30 0.04414
1114.40 0.04412
1114.50 0.0441
1114.60 0.04409
1114.70 0.04407
1114.80 0.04406
1114.90 0.04404
1115.00 0.04403
1115.10 0.04401
1115.20 0.044
1115.30 0.04398
1115.40 0.04397
1115.50 0.04395
1115.60 0.04394
1115.70 0.04392
1115.80 0.04391
1115.90 0.04389
1116.00 0.04388
1116.10 0.04386
1116.20 0.04385
1116.30 0.04383
1116.40 0.04382
1116.50 0.0438
1116.60 0.04379
1116.70 0.04377
1116.80 0.04375
1116.90 0.04374
1117.00 0.04372
1117.10 0.04371
1117.20 0.04369
1117.30 0.04368
1117.40 0.04366
1117.50 0.04365
1117.60 0.04363
1117.70 0.04362
1117.80 0.0436
1117.90 0.04359
1118.00 0.04357
1118.10 0.04356
1118.20 0.04354
1118.30 0.04353
1118.40 0.04351
1118.50 0.0435
1118.60 0.04348
1118.70 0.04347
1118.80 0.04345
1118.90 0.04344
1119.00 0.04342
1119.10 0.04341
1119.20 0.04339
1119.30 0.04338
1119.40 0.04336
1119.50 0.04335
1119.60 0.04333
1119.70 0.04332
1119.80 0.0433
1119.90 0.04329
1120.00 0.04327
1120.10 0.04326
1120.20 0.04324
1120.30 0.04323
1120.40 0.04321
1120.50 0.0432
1120.60 0.04318
1120.70 0.04317
1120.80 0.04315
1120.90 0.04314
1121.00 0.04312
1121.10 0.04311
1121.20 0.04309
1121.30 0.04308
1121.40 0.04306
1121.50 0.04305
1121.60 0.04303
1121.70 0.04302
1121.80 0.043
1121.90 0.04299
1122.00 0.04297
1122.10 0.04296
1122.20 0.04294
1122.30 0.04293
1122.40 0.04291
1122.50 0.0429
1122.60 0.04288
1122.70 0.04287
1122.80 0.04285
1122.90 0.04284
1123.00 0.04282
1123.10 0.04281
1123.20 0.04279
1123.30 0.04278
1123.40 0.04276
1123.50 0.04275
1123.60 0.04273
1123.70 0.04272
1123.80 0.0427
1123.90 0.04269
1124.00 0.04267
1124.10 0.04266
1124.20 0.04265
1124.30 0.04263
1124.40 0.04262
1124.50 0.0426
1124.60 0.04259
1124.70 0.04257
1124.80 0.04256
1124.90 0.04254
1125.00 0.04253
1125.10 0.04251
1125.20 0.0425
1125.30 0.04248
1125.40 0.04247
1125.50 0.04245
1125.60 0.04244
1125.70 0.04242
1125.80 0.04241
1125.90 0.04239
1126.00 0.04238
1126.10 0.04237
1126.20 0.04235
1126.30 0.04234
1126.40 0.04232
1126.50 0.04231
1126.60 0.04229
1126.70 0.04228
1126.80 0.04226
1126.90 0.04225
1127.00 0.04223
1127.10 0.04222
1127.20 0.0422
1127.30 0.04219
1127.40 0.04217
1127.50 0.04216
1127.60 0.04215
1127.70 0.04213
1127.80 0.04212
1127.90 0.0421
1128.00 0.04209
1128.10 0.04207
1128.20 0.04206
1128.30 0.04204
1128.40 0.04203
1128.50 0.04201
1128.60 0.042
1128.70 0.04199
1128.80 0.04197
1128.90 0.04196
1129.00 0.04194
1129.10 0.04193
1129.20 0.04191
1129.30 0.0419
1129.40 0.04188
1129.50 0.04187
1129.60 0.04186
1129.70 0.04184
1129.80 0.04183
1129.90 0.04181
1130.00 0.0418
1130.10 0.04178
1130.20 0.04177
1130.30 0.04175
1130.40 0.04174
1130.50 0.04173
1130.60 0.04171
1130.70 0.0417
1130.80 0.04168
1130.90 0.04167
1131.00 0.04165
1131.10 0.04164
1131.20 0.04162
1131.30 0.04161
1131.40 0.0416
1131.50 0.04158
1131.60 0.04157
1131.70 0.04155
1131.80 0.04154
1131.90 0.04152
1132.00 0.04151
1132.10 0.04149
1132.20 0.04148
1132.30 0.04147
1132.40 0.04145
1132.50 0.04144
1132.60 0.04142
1132.70 0.04141
1132.80 0.0414
1132.90 0.04138
1133.00 0.04137
1133.10 0.04135
1133.20 0.04134
1133.30 0.04132
1133.40 0.04131
1133.50 0.0413
1133.60 0.04128
1133.70 0.04127
1133.80 0.04125
1133.90 0.04124
1134.00 0.04122
1134.10 0.04121
1134.20 0.0412
1134.30 0.04118
1134.40 0.04117
1134.50 0.04115
1134.60 0.04114
1134.70 0.04113
1134.80 0.04111
1134.90 0.0411
1135.00 0.04108
1135.10 0.04107
1135.20 0.04105
1135.30 0.04104
1135.40 0.04103
1135.50 0.04101
1135.60 0.041
1135.70 0.04098
1135.80 0.04097
1135.90 0.04096
1136.00 0.04094
1136.10 0.04093
1136.20 0.04091
1136.30 0.0409
1136.40 0.04088
1136.50 0.04087
1136.60 0.04086
1136.70 0.04084
1136.80 0.04083
1136.90 0.04081
1137.00 0.0408
1137.10 0.04079
1137.20 0.04077
1137.30 0.04076
1137.40 0.04074
1137.50 0.04073
1137.60 0.04072
1137.70 0.0407
1137.80 0.04069
1137.90 0.04067
1138.00 0.04066
1138.10 0.04065
1138.20 0.04063
1138.30 0.04062
1138.40 0.0406
1138.50 0.04059
1138.60 0.04058
1138.70 0.04056
1138.80 0.04055
1138.90 0.04054
1139.00 0.04052
1139.10 0.04051
1139.20 0.04049
1139.30 0.04048
1139.40 0.04047
1139.50 0.04045
1139.60 0.04044
1139.70 0.04042
1139.80 0.04041
1139.90 0.0404
1140.00 0.04038
1140.10 0.04037
1140.20 0.04035
1140.30 0.04034
1140.40 0.04033
1140.50 0.04031
1140.60 0.0403
1140.70 0.04029
1140.80 0.04027
1140.90 0.04026
1141.00 0.04024
1141.10 0.04023
1141.20 0.04022
1141.30 0.0402
1141.40 0.04019
1141.50 0.04018
1141.60 0.04016
1141.70 0.04015
1141.80 0.04013
1141.90 0.04012
1142.00 0.04011
1142.10 0.04009
1142.20 0.04008
1142.30 0.04007
1142.40 0.04005
1142.50 0.04004
1142.60 0.04002
1142.70 0.04001
1142.80 0.04
1142.90 0.03998
1143.00 0.03997
1143.10 0.03996
1143.20 0.03994
1143.30 0.03993
1143.40 0.03991
1143.50 0.0399
1143.60 0.03989
1143.70 0.03987
1143.80 0.03986
1143.90 0.03985
1144.00 0.03983
1144.10 0.03982
1144.20 0.03981
1144.30 0.03979
1144.40 0.03978
1144.50 0.03977
1144.60 0.03975
1144.70 0.03974
1144.80 0.03972
1144.90 0.03971
1145.00 0.0397
1145.10 0.03968
1145.20 0.03967
1145.30 0.03966
1145.40 0.03964
1145.50 0.03963
1145.60 0.03962
1145.70 0.0396
1145.80 0.03959
1145.90 0.03958
1146.00 0.03956
1146.10 0.03955
1146.20 0.03953
1146.30 0.03952
1146.40 0.03951
1146.50 0.03949
1146.60 0.03948
1146.70 0.03947
1146.80 0.03945
1146.90 0.03944
1147.00 0.03943
1147.10 0.03941
1147.20 0.0394
1147.30 0.03939
1147.40 0.03937
1147.50 0.03936
1147.60 0.03935
1147.70 0.03933
1147.80 0.03932
1147.90 0.03931
1148.00 0.03929
1148.10 0.03928
1148.20 0.03927
1148.30 0.03925
1148.40 0.03924
1148.50 0.03923
1148.60 0.03921
1148.70 0.0392
1148.80 0.03919
1148.90 0.03917
1149.00 0.03916
1149.10 0.03915
1149.20 0.03913
1149.30 0.03912
1149.40 0.03911
1149.50 0.03909
1149.60 0.03908
1149.70 0.03907
1149.80 0.03905
1149.90 0.03904
1150.00 0.03903
1150.10 0.03901
1150.20 0.039
1150.30 0.03899
1150.40 0.03897
1150.50 0.03896
1150.60 0.03895
1150.70 0.03893
1150.80 0.03892
1150.90 0.03891
1151.00 0.03889
1151.10 0.03888
1151.20 0.03887
1151.30 0.03885
1151.40 0.03884
1151.50 0.03883
1151.60 0.03881
1151.70 0.0388
1151.80 0.03879
1151.90 0.03877
1152.00 0.03876
1152.10 0.03875
1152.20 0.03874
1152.30 0.03872
1152.40 0.03871
1152.50 0.0387
1152.60 0.03868
1152.70 0.03867
1152.80 0.03866
1152.90 0.03864
1153.00 0.03863
1153.10 0.03862
1153.20 0.0386
1153.30 0.03859
1153.40 0.03858
1153.50 0.03856
1153.60 0.03855
1153.70 0.03854
1153.80 0.03853
1153.90 0.03851
1154.00 0.0385
1154.10 0.03849
1154.20 0.03847
1154.30 0.03846
1154.40 0.03845
1154.50 0.03843
1154.60 0.03842
1154.70 0.03841
1154.80 0.0384
1154.90 0.03838
1155.00 0.03837
1155.10 0.03836
1155.20 0.03834
1155.30 0.03833
1155.40 0.03832
1155.50 0.0383
1155.60 0.03829
1155.70 0.03828
1155.80 0.03827
1155.90 0.03825
1156.00 0.03824
1156.10 0.03823
1156.20 0.03821
1156.30 0.0382
1156.40 0.03819
1156.50 0.03817
1156.60 0.03816
1156.70 0.03815
1156.80 0.03814
1156.90 0.03812
1157.00 0.03811
1157.10 0.0381
1157.20 0.03808
1157.30 0.03807
1157.40 0.03806
1157.50 0.03805
1157.60 0.03803
1157.70 0.03802
1157.80 0.03801
1157.90 0.03799
1158.00 0.03798
1158.10 0.03797
1158.20 0.03796
1158.30 0.03794
1158.40 0.03793
1158.50 0.03792
1158.60 0.0379
1158.70 0.03789
1158.80 0.03788
1158.90 0.03787
1159.00 0.03785
1159.10 0.03784
1159.20 0.03783
1159.30 0.03782
1159.40 0.0378
1159.50 0.03779
1159.60 0.03778
1159.70 0.03776
1159.80 0.03775
1159.90 0.03774
1160.00 0.03773
1160.10 0.03771
1160.20 0.0377
1160.30 0.03769
1160.40 0.03768
1160.50 0.03766
1160.60 0.03765
1160.70 0.03764
1160.80 0.03762
1160.90 0.03761
1161.00 0.0376
1161.10 0.03759
1161.20 0.03757
1161.30 0.03756
1161.40 0.03755
1161.50 0.03754
1161.60 0.03752
1161.70 0.03751
1161.80 0.0375
1161.90 0.03748
1162.00 0.03747
1162.10 0.03746
1162.20 0.03745
1162.30 0.03743
1162.40 0.03742
1162.50 0.03741
1162.60 0.0374
1162.70 0.03738
1162.80 0.03737
1162.90 0.03736
1163.00 0.03735
1163.10 0.03733
1163.20 0.03732
1163.30 0.03731
1163.40 0.0373
1163.50 0.03728
1163.60 0.03727
1163.70 0.03726
1163.80 0.03725
1163.90 0.03723
1164.00 0.03722
1164.10 0.03721
1164.20 0.0372
1164.30 0.03718
1164.40 0.03717
1164.50 0.03716
1164.60 0.03715
1164.70 0.03713
1164.80 0.03712
1164.90 0.03711
1165.00 0.0371
1165.10 0.03708
1165.20 0.03707
1165.30 0.03706
1165.40 0.03705
1165.50 0.03703
1165.60 0.03702
1165.70 0.03701
1165.80 0.037
1165.90 0.03698
1166.00 0.03697
1166.10 0.03696
1166.20 0.03695
1166.30 0.03693
1166.40 0.03692
1166.50 0.03691
1166.60 0.0369
1166.70 0.03689
1166.80 0.03687
1166.90 0.03686
1167.00 0.03685
1167.10 0.03684
1167.20 0.03682
1167.30 0.03681
1167.40 0.0368
1167.50 0.03679
1167.60 0.03677
1167.70 0.03676
1167.80 0.03675
1167.90 0.03674
1168.00 0.03672
1168.10 0.03671
1168.20 0.0367
1168.30 0.03669
1168.40 0.03668
1168.50 0.03666
1168.60 0.03665
1168.70 0.03664
1168.80 0.03663
1168.90 0.03661
1169.00 0.0366
1169.10 0.03659
1169.20 0.03658
1169.30 0.03657
1169.40 0.03655
1169.50 0.03654
1169.60 0.03653
1169.70 0.03652
1169.80 0.0365
1169.90 0.03649
1170.00 0.03648
1170.10 0.03647
1170.20 0.03646
1170.30 0.03644
1170.40 0.03643
1170.50 0.03642
1170.60 0.03641
1170.70 0.03639
1170.80 0.03638
1170.90 0.03637
1171.00 0.03636
1171.10 0.03635
1171.20 0.03633
1171.30 0.03632
1171.40 0.03631
1171.50 0.0363
1171.60 0.03628
1171.70 0.03627
1171.80 0.03626
1171.90 0.03625
1172.00 0.03624
1172.10 0.03622
1172.20 0.03621
1172.30 0.0362
1172.40 0.03619
1172.50 0.03618
1172.60 0.03616
1172.70 0.03615
1172.80 0.03614
1172.90 0.03613
1173.00 0.03612
1173.10 0.0361
1173.20 0.03609
1173.30 0.03608
1173.40 0.03607
1173.50 0.03606
1173.60 0.03604
1173.70 0.03603
1173.80 0.03602
1173.90 0.03601
1174.00 0.036
1174.10 0.03598
1174.20 0.03597
1174.30 0.03596
1174.40 0.03595
1174.50 0.03594
1174.60 0.03592
1174.70 0.03591
1174.80 0.0359
1174.90 0.03589
1175.00 0.03588
1175.10 0.03586
1175.20 0.03585
1175.30 0.03584
1175.40 0.03583
1175.50 0.03582
1175.60 0.0358
1175.70 0.03579
1175.80 0.03578
1175.90 0.03577
1176.00 0.03576
1176.10 0.03574
1176.20 0.03573
1176.30 0.03572
1176.40 0.03571
1176.50 0.0357
1176.60 0.03568
1176.70 0.03567
1176.80 0.03566
1176.90 0.03565
1177.00 0.03564
1177.10 0.03563
1177.20 0.03561
1177.30 0.0356
1177.40 0.03559
1177.50 0.03558
1177.60 0.03557
1177.70 0.03555
1177.80 0.03554
1177.90 0.03553
1178.00 0.03552
1178.10 0.03551
1178.20 0.0355
1178.30 0.03548
1178.40 0.03547
1178.50 0.03546
1178.60 0.03545
1178.70 0.03544
1178.80 0.03543
1178.90 0.03541
1179.00 0.0354
1179.10 0.03539
1179.20 0.03538
1179.30 0.03537
1179.40 0.03535
1179.50 0.03534
1179.60 0.03533
1179.70 0.03532
1179.80 0.03531
1179.90 0.0353
1180.00 0.03528
1180.10 0.03527
1180.20 0.03526
1180.30 0.03525
1180.40 0.03524
1180.50 0.03523
1180.60 0.03521
1180.70 0.0352
1180.80 0.03519
1180.90 0.03518
1181.00 0.03517
1181.10 0.03516
1181.20 0.03514
1181.30 0.03513
1181.40 0.03512
1181.50 0.03511
1181.60 0.0351
1181.70 0.03509
1181.80 0.03507
1181.90 0.03506
1182.00 0.03505
1182.10 0.03504
1182.20 0.03503
1182.30 0.03502
1182.40 0.035
1182.50 0.03499
1182.60 0.03498
1182.70 0.03497
1182.80 0.03496
1182.90 0.03495
1183.00 0.03494
1183.10 0.03492
1183.20 0.03491
1183.30 0.0349
1183.40 0.03489
1183.50 0.03488
1183.60 0.03487
1183.70 0.03485
1183.80 0.03484
1183.90 0.03483
1184.00 0.03482
1184.10 0.03481
1184.20 0.0348
1184.30 0.03479
1184.40 0.03477
1184.50 0.03476
1184.60 0.03475
1184.70 0.03474
1184.80 0.03473
1184.90 0.03472
1185.00 0.03471
1185.10 0.03469
1185.20 0.03468
1185.30 0.03467
1185.40 0.03466
1185.50 0.03465
1185.60 0.03464
1185.70 0.03462
1185.80 0.03461
1185.90 0.0346
1186.00 0.03459
1186.10 0.03458
1186.20 0.03457
1186.30 0.03456
1186.40 0.03454
1186.50 0.03453
1186.60 0.03452
1186.70 0.03451
1186.80 0.0345
1186.90 0.03449
1187.00 0.03448
1187.10 0.03446
1187.20 0.03445
1187.30 0.03444
1187.40 0.03443
1187.50 0.03442
1187.60 0.03441
1187.70 0.0344
1187.80 0.03439
1187.90 0.03437
1188.00 0.03436
1188.10 0.03435
1188.20 0.03434
1188.30 0.03433
1188.40 0.03432
1188.50 0.03431
1188.60 0.0343
1188.70 0.03428
1188.80 0.03427
1188.90 0.03426
1189.00 0.03425
1189.10 0.03424
1189.20 0.03423
1189.30 0.03422
1189.40 0.03421
1189.50 0.03419
1189.60 0.03418
1189.70 0.03417
1189.80 0.03416
1189.90 0.03415
1190.00 0.03414
1190.10 0.03413
1190.20 0.03412
1190.30 0.0341
1190.40 0.03409
1190.50 0.03408
1190.60 0.03407
1190.70 0.03406
1190.80 0.03405
1190.90 0.03404
1191.00 0.03403
1191.10 0.03401
1191.20 0.034
1191.30 0.03399
1191.40 0.03398
1191.50 0.03397
1191.60 0.03396
1191.70 0.03395
1191.80 0.03394
1191.90 0.03392
1192.00 0.03391
1192.10 0.0339
1192.20 0.03389
1192.30 0.03388
1192.40 0.03387
1192.50 0.03386
1192.60 0.03385
1192.70 0.03384
1192.80 0.03382
1192.90 0.03381
1193.00 0.0338
1193.10 0.03379
1193.20 0.03378
1193.30 0.03377
1193.40 0.03376
1193.50 0.03375
1193.60 0.03374
1193.70 0.03373
1193.80 0.03371
1193.90 0.0337
1194.00 0.03369
1194.10 0.03368
1194.20 0.03367
1194.30 0.03366
1194.40 0.03365
1194.50 0.03364
1194.60 0.03363
1194.70 0.03361
1194.80 0.0336
1194.90 0.03359
1195.00 0.03358
1195.10 0.03357
1195.20 0.03356
1195.30 0.03355
1195.40 0.03354
1195.50 0.03353
1195.60 0.03352
1195.70 0.0335
1195.80 0.03349
1195.90 0.03348
1196.00 0.03347
1196.10 0.03346
1196.20 0.03345
1196.30 0.03344
1196.40 0.03343
1196.50 0.03342
1196.60 0.03341
1196.70 0.0334
1196.80 0.03338
1196.90 0.03337
1197.00 0.03336
1197.10 0.03335
1197.20 0.03334
1197.30 0.03333
1197.40 0.03332
1197.50 0.03331
1197.60 0.0333
1197.70 0.03329
1197.80 0.03328
1197.90 0.03326
1198.00 0.03325
1198.10 0.03324
1198.20 0.03323
1198.30 0.03322
1198.40 0.03321
1198.50 0.0332
1198.60 0.03319
1198.70 0.03318
1198.80 0.03317
1198.90 0.03316
1199.00 0.03315
1199.10 0.03313
1199.20 0.03312
1199.30 0.03311
1199.40 0.0331
1199.50 0.03309
1199.60 0.03308
1199.70 0.03307
1199.80 0.03306
1199.90 0.03305
1200.00 0
