# Version 2.1 - nm, norm@500 to 1, cut digits, bergeron_45000_65.dat_45000
# Wavelength(nm)  Flambda(ergs/cm^s/s/nm)
300.00 6.018
300.10 6.011
300.20 6.004
300.30 5.996
300.40 5.989
300.50 5.982
300.60 5.975
300.70 5.968
300.80 5.961
300.90 5.954
301.00 5.947
301.10 5.939
301.20 5.932
301.30 5.925
301.40 5.918
301.50 5.911
301.60 5.904
301.70 5.897
301.80 5.89
301.90 5.883
302.00 5.876
302.10 5.869
302.20 5.862
302.30 5.855
302.40 5.848
302.50 5.842
302.60 5.835
302.70 5.828
302.80 5.821
302.90 5.814
303.00 5.807
303.10 5.8
303.20 5.793
303.30 5.786
303.40 5.78
303.50 5.773
303.60 5.766
303.70 5.759
303.80 5.752
303.90 5.746
304.00 5.739
304.10 5.732
304.20 5.725
304.30 5.719
304.40 5.712
304.50 5.705
304.60 5.698
304.70 5.692
304.80 5.685
304.90 5.678
305.00 5.672
305.10 5.665
305.20 5.658
305.30 5.652
305.40 5.645
305.50 5.638
305.60 5.632
305.70 5.625
305.80 5.619
305.90 5.612
306.00 5.605
306.10 5.599
306.20 5.592
306.30 5.586
306.40 5.579
306.50 5.573
306.60 5.566
306.70 5.56
306.80 5.553
306.90 5.547
307.00 5.54
307.10 5.534
307.20 5.527
307.30 5.521
307.40 5.514
307.50 5.508
307.60 5.501
307.70 5.495
307.80 5.489
307.90 5.482
308.00 5.476
308.10 5.469
308.20 5.463
308.30 5.457
308.40 5.45
308.50 5.444
308.60 5.438
308.70 5.431
308.80 5.425
308.90 5.419
309.00 5.412
309.10 5.406
309.20 5.4
309.30 5.394
309.40 5.387
309.50 5.381
309.60 5.375
309.70 5.369
309.80 5.362
309.90 5.356
310.00 5.35
310.10 5.344
310.20 5.338
310.30 5.331
310.40 5.325
310.50 5.319
310.60 5.313
310.70 5.307
310.80 5.301
310.90 5.295
311.00 5.288
311.10 5.282
311.20 5.276
311.30 5.27
311.40 5.264
311.50 5.258
311.60 5.252
311.70 5.246
311.80 5.24
311.90 5.234
312.00 5.228
312.10 5.222
312.20 5.216
312.30 5.21
312.40 5.204
312.50 5.198
312.60 5.192
312.70 5.186
312.80 5.18
312.90 5.174
313.00 5.168
313.10 5.162
313.20 5.156
313.30 5.15
313.40 5.144
313.50 5.138
313.60 5.132
313.70 5.127
313.80 5.121
313.90 5.115
314.00 5.109
314.10 5.103
314.20 5.097
314.30 5.091
314.40 5.086
314.50 5.08
314.60 5.074
314.70 5.068
314.80 5.062
314.90 5.057
315.00 5.051
315.10 5.045
315.20 5.039
315.30 5.034
315.40 5.028
315.50 5.022
315.60 5.016
315.70 5.011
315.80 5.005
315.90 4.999
316.00 4.994
316.10 4.988
316.20 4.982
316.30 4.977
316.40 4.971
316.50 4.965
316.60 4.96
316.70 4.954
316.80 4.948
316.90 4.943
317.00 4.937
317.10 4.932
317.20 4.926
317.30 4.92
317.40 4.915
317.50 4.909
317.60 4.904
317.70 4.898
317.80 4.893
317.90 4.887
318.00 4.881
318.10 4.876
318.20 4.87
318.30 4.865
318.40 4.859
318.50 4.854
318.60 4.848
318.70 4.843
318.80 4.837
318.90 4.832
319.00 4.827
319.10 4.821
319.20 4.816
319.30 4.81
319.40 4.805
319.50 4.799
319.60 4.794
319.70 4.789
319.80 4.783
319.90 4.778
320.00 4.772
320.10 4.767
320.20 4.762
320.30 4.756
320.40 4.751
320.50 4.746
320.60 4.74
320.70 4.735
320.80 4.73
320.90 4.724
321.00 4.719
321.10 4.714
321.20 4.708
321.30 4.703
321.40 4.698
321.50 4.693
321.60 4.687
321.70 4.682
321.80 4.677
321.90 4.672
322.00 4.666
322.10 4.661
322.20 4.656
322.30 4.651
322.40 4.646
322.50 4.64
322.60 4.635
322.70 4.63
322.80 4.625
322.90 4.62
323.00 4.615
323.10 4.609
323.20 4.604
323.30 4.599
323.40 4.594
323.50 4.589
323.60 4.584
323.70 4.579
323.80 4.574
323.90 4.569
324.00 4.563
324.10 4.558
324.20 4.553
324.30 4.548
324.40 4.543
324.50 4.538
324.60 4.533
324.70 4.528
324.80 4.523
324.90 4.518
325.00 4.513
325.10 4.508
325.20 4.503
325.30 4.498
325.40 4.493
325.50 4.488
325.60 4.483
325.70 4.478
325.80 4.473
325.90 4.468
326.00 4.463
326.10 4.458
326.20 4.453
326.30 4.448
326.40 4.444
326.50 4.439
326.60 4.434
326.70 4.429
326.80 4.424
326.90 4.419
327.00 4.414
327.10 4.409
327.20 4.404
327.30 4.4
327.40 4.395
327.50 4.39
327.60 4.385
327.70 4.38
327.80 4.375
327.90 4.371
328.00 4.366
328.10 4.361
328.20 4.356
328.30 4.351
328.40 4.347
328.50 4.342
328.60 4.337
328.70 4.332
328.80 4.328
328.90 4.323
329.00 4.318
329.10 4.313
329.20 4.309
329.30 4.304
329.40 4.299
329.50 4.294
329.60 4.29
329.70 4.285
329.80 4.28
329.90 4.276
330.00 4.271
330.10 4.266
330.20 4.262
330.30 4.257
330.40 4.252
330.50 4.248
330.60 4.243
330.70 4.238
330.80 4.234
330.90 4.229
331.00 4.225
331.10 4.22
331.20 4.215
331.30 4.211
331.40 4.206
331.50 4.202
331.60 4.197
331.70 4.192
331.80 4.188
331.90 4.183
332.00 4.179
332.10 4.174
332.20 4.17
332.30 4.165
332.40 4.161
332.50 4.156
332.60 4.152
332.70 4.147
332.80 4.143
332.90 4.138
333.00 4.134
333.10 4.129
333.20 4.125
333.30 4.12
333.40 4.116
333.50 4.111
333.60 4.107
333.70 4.102
333.80 4.098
333.90 4.093
334.00 4.089
334.10 4.085
334.20 4.08
334.30 4.076
334.40 4.071
334.50 4.067
334.60 4.063
334.70 4.058
334.80 4.054
334.90 4.049
335.00 4.045
335.10 4.041
335.20 4.036
335.30 4.032
335.40 4.028
335.50 4.023
335.60 4.019
335.70 4.015
335.80 4.01
335.90 4.006
336.00 4.002
336.10 3.997
336.20 3.993
336.30 3.989
336.40 3.984
336.50 3.98
336.60 3.976
336.70 3.972
336.80 3.967
336.90 3.963
337.00 3.959
337.10 3.955
337.20 3.95
337.30 3.946
337.40 3.942
337.50 3.938
337.60 3.933
337.70 3.929
337.80 3.925
337.90 3.921
338.00 3.917
338.10 3.912
338.20 3.908
338.30 3.904
338.40 3.9
338.50 3.896
338.60 3.892
338.70 3.887
338.80 3.883
338.90 3.879
339.00 3.875
339.10 3.871
339.20 3.867
339.30 3.863
339.40 3.858
339.50 3.854
339.60 3.85
339.70 3.846
339.80 3.842
339.90 3.838
340.00 3.834
340.10 3.83
340.20 3.826
340.30 3.822
340.40 3.818
340.50 3.814
340.60 3.81
340.70 3.805
340.80 3.801
340.90 3.797
341.00 3.793
341.10 3.789
341.20 3.785
341.30 3.781
341.40 3.777
341.50 3.773
341.60 3.769
341.70 3.765
341.80 3.761
341.90 3.757
342.00 3.753
342.10 3.749
342.20 3.745
342.30 3.741
342.40 3.737
342.50 3.734
342.60 3.73
342.70 3.726
342.80 3.722
342.90 3.718
343.00 3.714
343.10 3.71
343.20 3.706
343.30 3.702
343.40 3.698
343.50 3.694
343.60 3.69
343.70 3.686
343.80 3.683
343.90 3.679
344.00 3.675
344.10 3.671
344.20 3.667
344.30 3.663
344.40 3.659
344.50 3.656
344.60 3.652
344.70 3.648
344.80 3.644
344.90 3.64
345.00 3.636
345.10 3.633
345.20 3.629
345.30 3.625
345.40 3.621
345.50 3.617
345.60 3.614
345.70 3.61
345.80 3.606
345.90 3.602
346.00 3.598
346.10 3.595
346.20 3.591
346.30 3.587
346.40 3.583
346.50 3.58
346.60 3.576
346.70 3.572
346.80 3.568
346.90 3.565
347.00 3.561
347.10 3.557
347.20 3.554
347.30 3.55
347.40 3.546
347.50 3.542
347.60 3.539
347.70 3.535
347.80 3.531
347.90 3.528
348.00 3.524
348.10 3.52
348.20 3.517
348.30 3.513
348.40 3.509
348.50 3.506
348.60 3.502
348.70 3.498
348.80 3.495
348.90 3.491
349.00 3.487
349.10 3.484
349.20 3.48
349.30 3.477
349.40 3.473
349.50 3.469
349.60 3.466
349.70 3.462
349.80 3.459
349.90 3.455
350.00 3.451
350.10 3.448
350.20 3.444
350.30 3.441
350.40 3.437
350.50 3.434
350.60 3.43
350.70 3.427
350.80 3.423
350.90 3.419
351.00 3.416
351.10 3.412
351.20 3.409
351.30 3.405
351.40 3.402
351.50 3.398
351.60 3.395
351.70 3.391
351.80 3.388
351.90 3.384
352.00 3.381
352.10 3.377
352.20 3.374
352.30 3.37
352.40 3.367
352.50 3.363
352.60 3.36
352.70 3.356
352.80 3.353
352.90 3.35
353.00 3.346
353.10 3.343
353.20 3.339
353.30 3.336
353.40 3.332
353.50 3.329
353.60 3.326
353.70 3.322
353.80 3.319
353.90 3.315
354.00 3.312
354.10 3.308
354.20 3.305
354.30 3.302
354.40 3.298
354.50 3.295
354.60 3.292
354.70 3.288
354.80 3.285
354.90 3.282
355.00 3.278
355.10 3.275
355.20 3.271
355.30 3.268
355.40 3.265
355.50 3.261
355.60 3.258
355.70 3.255
355.80 3.251
355.90 3.248
356.00 3.245
356.10 3.241
356.20 3.238
356.30 3.235
356.40 3.232
356.50 3.228
356.60 3.225
356.70 3.222
356.80 3.218
356.90 3.215
357.00 3.212
357.10 3.209
357.20 3.205
357.30 3.202
357.40 3.199
357.50 3.196
357.60 3.192
357.70 3.189
357.80 3.186
357.90 3.183
358.00 3.179
358.10 3.176
358.20 3.173
358.30 3.17
358.40 3.166
358.50 3.163
358.60 3.16
358.70 3.157
358.80 3.154
358.90 3.15
359.00 3.147
359.10 3.144
359.20 3.141
359.30 3.138
359.40 3.135
359.50 3.131
359.60 3.128
359.70 3.125
359.80 3.122
359.90 3.119
360.00 3.116
360.10 3.112
360.20 3.109
360.30 3.106
360.40 3.103
360.50 3.1
360.60 3.097
360.70 3.094
360.80 3.091
360.90 3.087
361.00 3.084
361.10 3.081
361.20 3.078
361.30 3.075
361.40 3.072
361.50 3.069
361.60 3.066
361.70 3.063
361.80 3.06
361.90 3.056
362.00 3.053
362.10 3.05
362.20 3.047
362.30 3.044
362.40 3.041
362.50 3.038
362.60 3.035
362.70 3.032
362.80 3.029
362.90 3.026
363.00 3.023
363.10 3.02
363.20 3.017
363.30 3.014
363.40 3.011
363.50 3.008
363.60 3.005
363.70 3.002
363.80 2.999
363.90 2.996
364.00 2.993
364.10 2.99
364.20 2.987
364.30 2.984
364.40 2.981
364.50 2.978
364.60 2.975
364.70 2.972
364.80 2.969
364.90 2.966
365.00 2.963
365.10 2.96
365.20 2.957
365.30 2.954
365.40 2.951
365.50 2.948
365.60 2.945
365.70 2.942
365.80 2.94
365.90 2.937
366.00 2.934
366.10 2.931
366.20 2.927
366.30 2.924
366.40 2.921
366.50 2.918
366.60 2.915
366.70 2.912
366.80 2.909
366.90 2.906
367.00 2.903
367.10 2.9
367.20 2.897
367.30 2.894
367.40 2.891
367.50 2.888
367.60 2.885
367.70 2.882
367.80 2.879
367.90 2.875
368.00 2.872
368.10 2.869
368.20 2.866
368.30 2.863
368.40 2.861
368.50 2.858
368.60 2.855
368.70 2.852
368.80 2.849
368.90 2.846
369.00 2.843
369.10 2.84
369.20 2.837
369.30 2.834
369.40 2.831
369.50 2.828
369.60 2.825
369.70 2.822
369.80 2.819
369.90 2.816
370.00 2.813
370.10 2.81
370.20 2.808
370.30 2.805
370.40 2.802
370.50 2.799
370.60 2.796
370.70 2.793
370.80 2.791
370.90 2.788
371.00 2.785
371.10 2.782
371.20 2.779
371.30 2.777
371.40 2.774
371.50 2.771
371.60 2.768
371.70 2.765
371.80 2.763
371.90 2.76
372.00 2.757
372.10 2.755
372.20 2.752
372.30 2.75
372.40 2.747
372.50 2.745
372.60 2.742
372.70 2.74
372.80 2.737
372.90 2.735
373.00 2.732
373.10 2.73
373.20 2.727
373.30 2.725
373.40 2.722
373.50 2.72
373.60 2.718
373.70 2.715
373.80 2.713
373.90 2.71
374.00 2.708
374.10 2.706
374.20 2.703
374.30 2.701
374.40 2.699
374.50 2.697
374.60 2.694
374.70 2.692
374.80 2.69
374.90 2.688
375.00 2.686
375.10 2.683
375.20 2.681
375.30 2.679
375.40 2.677
375.50 2.675
375.60 2.672
375.70 2.67
375.80 2.668
375.90 2.666
376.00 2.664
376.10 2.66
376.20 2.657
376.30 2.653
376.40 2.649
376.50 2.646
376.60 2.642
376.70 2.639
376.80 2.635
376.90 2.632
377.00 2.628
377.10 2.628
377.20 2.628
377.30 2.627
377.40 2.627
377.50 2.626
377.60 2.626
377.70 2.626
377.80 2.625
377.90 2.625
378.00 2.625
378.10 2.621
378.20 2.617
378.30 2.614
378.40 2.61
378.50 2.607
378.60 2.603
378.70 2.599
378.80 2.596
378.90 2.592
379.00 2.589
379.10 2.584
379.20 2.58
379.30 2.575
379.40 2.57
379.50 2.566
379.60 2.561
379.70 2.557
379.80 2.552
379.90 2.548
380.00 2.543
380.10 2.546
380.20 2.549
380.30 2.551
380.40 2.554
380.50 2.557
380.60 2.56
380.70 2.563
380.80 2.565
380.90 2.568
381.00 2.571
381.10 2.57
381.20 2.569
381.30 2.568
381.40 2.567
381.50 2.566
381.60 2.563
381.70 2.56
381.80 2.555
381.90 2.551
382.00 2.545
382.10 2.539
382.20 2.532
382.30 2.521
382.40 2.51
382.50 2.499
382.60 2.487
382.70 2.476
382.80 2.465
382.90 2.454
383.00 2.443
383.10 2.432
383.20 2.421
383.30 2.407
383.40 2.394
383.50 2.382
383.60 2.382
383.70 2.391
383.80 2.402
383.90 2.413
384.00 2.423
384.10 2.433
384.20 2.443
384.30 2.452
384.40 2.461
384.50 2.468
384.60 2.475
384.70 2.482
384.80 2.488
384.90 2.493
385.00 2.497
385.10 2.501
385.20 2.504
385.30 2.507
385.40 2.508
385.50 2.51
385.60 2.511
385.70 2.511
385.80 2.51
385.90 2.51
386.00 2.508
386.10 2.506
386.20 2.504
386.30 2.501
386.40 2.497
386.50 2.493
386.60 2.488
386.70 2.482
386.80 2.476
386.90 2.469
387.00 2.461
387.10 2.453
387.20 2.444
387.30 2.434
387.40 2.423
387.50 2.411
387.60 2.398
387.70 2.384
387.80 2.369
387.90 2.353
388.00 2.336
388.10 2.318
388.20 2.298
388.30 2.278
388.40 2.256
388.50 2.234
388.60 2.211
388.70 2.188
388.80 2.171
388.90 2.158
389.00 2.166
389.10 2.179
389.20 2.198
389.30 2.217
389.40 2.236
389.50 2.254
389.60 2.271
389.70 2.286
389.80 2.301
389.90 2.314
390.00 2.327
390.10 2.339
390.20 2.349
390.30 2.358
390.40 2.367
390.50 2.375
390.60 2.382
390.70 2.388
390.80 2.393
390.90 2.398
391.00 2.403
391.10 2.406
391.20 2.409
391.30 2.412
391.40 2.415
391.50 2.416
391.60 2.418
391.70 2.419
391.80 2.42
391.90 2.42
392.00 2.42
392.10 2.42
392.20 2.42
392.30 2.419
392.40 2.418
392.50 2.417
392.60 2.416
392.70 2.414
392.80 2.412
392.90 2.41
393.00 2.408
393.10 2.405
393.20 2.403
393.30 2.4
393.40 2.397
393.50 2.393
393.60 2.389
393.70 2.385
393.80 2.381
393.90 2.377
394.00 2.372
394.10 2.366
394.20 2.361
394.30 2.355
394.40 2.349
394.50 2.342
394.60 2.334
394.70 2.327
394.80 2.318
394.90 2.309
395.00 2.299
395.10 2.289
395.20 2.278
395.30 2.265
395.40 2.252
395.50 2.239
395.60 2.223
395.70 2.207
395.80 2.19
395.90 2.171
396.00 2.15
396.10 2.129
396.20 2.105
396.30 2.081
396.40 2.055
396.50 2.027
396.60 1.998
396.70 1.967
396.80 1.935
396.90 1.903
397.00 1.871
397.10 1.897
397.20 1.924
397.30 1.953
397.40 1.98
397.50 2.006
397.60 2.031
397.70 2.053
397.80 2.074
397.90 2.094
398.00 2.111
398.10 2.128
398.20 2.143
398.30 2.156
398.40 2.169
398.50 2.18
398.60 2.19
398.70 2.199
398.80 2.207
398.90 2.215
399.00 2.221
399.10 2.227
399.20 2.232
399.30 2.237
399.40 2.241
399.50 2.244
399.60 2.247
399.70 2.25
399.80 2.252
399.90 2.254
400.00 2.255
400.10 2.256
400.20 2.257
400.30 2.258
400.40 2.259
400.50 2.259
400.60 2.259
400.70 2.259
400.80 2.259
400.90 2.258
401.00 2.258
401.10 2.257
401.20 2.256
401.30 2.256
401.40 2.255
401.50 2.254
401.60 2.252
401.70 2.251
401.80 2.25
401.90 2.249
402.00 2.247
402.10 2.246
402.20 2.244
402.30 2.243
402.40 2.241
402.50 2.24
402.60 2.238
402.70 2.236
402.80 2.234
402.90 2.233
403.00 2.231
403.10 2.229
403.20 2.227
403.30 2.225
403.40 2.223
403.50 2.221
403.60 2.219
403.70 2.217
403.80 2.215
403.90 2.213
404.00 2.211
404.10 2.209
404.20 2.206
404.30 2.204
404.40 2.202
404.50 2.199
404.60 2.197
404.70 2.195
404.80 2.192
404.90 2.19
405.00 2.187
405.10 2.185
405.20 2.182
405.30 2.179
405.40 2.176
405.50 2.174
405.60 2.171
405.70 2.168
405.80 2.165
405.90 2.162
406.00 2.158
406.10 2.155
406.20 2.151
406.30 2.148
406.40 2.144
406.50 2.14
406.60 2.136
406.70 2.132
406.80 2.128
406.90 2.123
407.00 2.118
407.10 2.113
407.20 2.108
407.30 2.103
407.40 2.097
407.50 2.09
407.60 2.084
407.70 2.077
407.80 2.069
407.90 2.061
408.00 2.052
408.10 2.043
408.20 2.033
408.30 2.022
408.40 2.011
408.50 1.999
408.60 1.985
408.70 1.971
408.80 1.955
408.90 1.939
409.00 1.921
409.10 1.901
409.20 1.88
409.30 1.858
409.40 1.833
409.50 1.807
409.60 1.779
409.70 1.749
409.80 1.717
409.90 1.683
410.00 1.644
410.10 1.614
410.20 1.592
410.30 1.625
410.40 1.659
410.50 1.693
410.60 1.722
410.70 1.749
410.80 1.776
410.90 1.799
411.00 1.821
411.10 1.841
411.20 1.859
411.30 1.875
411.40 1.891
411.50 1.904
411.60 1.917
411.70 1.928
411.80 1.938
411.90 1.947
412.00 1.955
412.10 1.962
412.20 1.968
412.30 1.974
412.40 1.979
412.50 1.984
412.60 1.988
412.70 1.991
412.80 1.994
412.90 1.996
413.00 1.999
413.10 2
413.20 2.002
413.30 2.003
413.40 2.004
413.50 2.005
413.60 2.006
413.70 2.006
413.80 2.006
413.90 2.006
414.00 2.006
414.10 2.006
414.20 2.006
414.30 2.005
414.40 2.005
414.50 2.004
414.60 2.004
414.70 2.003
414.80 2.002
414.90 2.001
415.00 2
415.10 1.999
415.20 1.998
415.30 1.997
415.40 1.996
415.50 1.995
415.60 1.993
415.70 1.992
415.80 1.991
415.90 1.989
416.00 1.988
416.10 1.987
416.20 1.985
416.30 1.984
416.40 1.983
416.50 1.981
416.60 1.98
416.70 1.978
416.80 1.977
416.90 1.975
417.00 1.974
417.10 1.972
417.20 1.971
417.30 1.969
417.40 1.967
417.50 1.966
417.60 1.964
417.70 1.963
417.80 1.961
417.90 1.96
418.00 1.958
418.10 1.956
418.20 1.955
418.30 1.953
418.40 1.951
418.50 1.95
418.60 1.948
418.70 1.947
418.80 1.945
418.90 1.943
419.00 1.942
419.10 1.94
419.20 1.938
419.30 1.937
419.40 1.935
419.50 1.933
419.60 1.932
419.70 1.93
419.80 1.928
419.90 1.927
420.00 1.925
420.10 1.923
420.20 1.922
420.30 1.92
420.40 1.918
420.50 1.917
420.60 1.915
420.70 1.913
420.80 1.912
420.90 1.91
421.00 1.908
421.10 1.907
421.20 1.905
421.30 1.903
421.40 1.902
421.50 1.9
421.60 1.898
421.70 1.897
421.80 1.895
421.90 1.893
422.00 1.892
422.10 1.89
422.20 1.888
422.30 1.887
422.40 1.885
422.50 1.883
422.60 1.882
422.70 1.88
422.80 1.878
422.90 1.877
423.00 1.875
423.10 1.873
423.20 1.871
423.30 1.87
423.40 1.868
423.50 1.866
423.60 1.865
423.70 1.863
423.80 1.861
423.90 1.86
424.00 1.858
424.10 1.856
424.20 1.855
424.30 1.853
424.40 1.851
424.50 1.85
424.60 1.848
424.70 1.846
424.80 1.844
424.90 1.843
425.00 1.841
425.10 1.839
425.20 1.838
425.30 1.836
425.40 1.834
425.50 1.832
425.60 1.831
425.70 1.829
425.80 1.827
425.90 1.826
426.00 1.824
426.10 1.822
426.20 1.82
426.30 1.819
426.40 1.817
426.50 1.815
426.60 1.813
426.70 1.812
426.80 1.81
426.90 1.808
427.00 1.806
427.10 1.804
427.20 1.803
427.30 1.801
427.40 1.799
427.50 1.797
427.60 1.795
427.70 1.793
427.80 1.791
427.90 1.79
428.00 1.788
428.10 1.786
428.20 1.784
428.30 1.782
428.40 1.78
428.50 1.778
428.60 1.776
428.70 1.774
428.80 1.772
428.90 1.769
429.00 1.767
429.10 1.765
429.20 1.763
429.30 1.761
429.40 1.758
429.50 1.756
429.60 1.754
429.70 1.751
429.80 1.748
429.90 1.746
430.00 1.743
430.10 1.74
430.20 1.738
430.30 1.735
430.40 1.732
430.50 1.728
430.60 1.725
430.70 1.722
430.80 1.718
430.90 1.714
431.00 1.71
431.10 1.706
431.20 1.702
431.30 1.697
431.40 1.692
431.50 1.687
431.60 1.681
431.70 1.675
431.80 1.669
431.90 1.662
432.00 1.654
432.10 1.646
432.20 1.638
432.30 1.628
432.40 1.618
432.50 1.607
432.60 1.595
432.70 1.583
432.80 1.568
432.90 1.553
433.00 1.537
433.10 1.519
433.20 1.5
433.30 1.479
433.40 1.456
433.50 1.432
433.60 1.406
433.70 1.377
433.80 1.345
433.90 1.31
434.00 1.265
434.10 1.265
434.20 1.31
434.30 1.342
434.40 1.372
434.50 1.398
434.60 1.421
434.70 1.443
434.80 1.463
434.90 1.481
435.00 1.497
435.10 1.513
435.20 1.526
435.30 1.538
435.40 1.549
435.50 1.559
435.60 1.568
435.70 1.576
435.80 1.583
435.90 1.589
436.00 1.595
436.10 1.6
436.20 1.604
436.30 1.608
436.40 1.611
436.50 1.614
436.60 1.617
436.70 1.619
436.80 1.621
436.90 1.622
437.00 1.624
437.10 1.625
437.20 1.626
437.30 1.626
437.40 1.627
437.50 1.627
437.60 1.628
437.70 1.628
437.80 1.628
437.90 1.628
438.00 1.628
438.10 1.627
438.20 1.627
438.30 1.627
438.40 1.626
438.50 1.626
438.60 1.625
438.70 1.624
438.80 1.624
438.90 1.623
439.00 1.622
439.10 1.621
439.20 1.62
439.30 1.62
439.40 1.619
439.50 1.618
439.60 1.617
439.70 1.616
439.80 1.615
439.90 1.614
440.00 1.613
440.10 1.612
440.20 1.611
440.30 1.61
440.40 1.608
440.50 1.607
440.60 1.606
440.70 1.605
440.80 1.604
440.90 1.603
441.00 1.602
441.10 1.6
441.20 1.599
441.30 1.598
441.40 1.597
441.50 1.596
441.60 1.594
441.70 1.593
441.80 1.592
441.90 1.591
442.00 1.59
442.10 1.588
442.20 1.587
442.30 1.586
442.40 1.585
442.50 1.583
442.60 1.582
442.70 1.581
442.80 1.58
442.90 1.578
443.00 1.577
443.10 1.576
443.20 1.575
443.30 1.573
443.40 1.572
443.50 1.571
443.60 1.569
443.70 1.568
443.80 1.567
443.90 1.566
444.00 1.564
444.10 1.563
444.20 1.562
444.30 1.561
444.40 1.559
444.50 1.558
444.60 1.557
444.70 1.555
444.80 1.554
444.90 1.553
445.00 1.552
445.10 1.55
445.20 1.549
445.30 1.548
445.40 1.547
445.50 1.545
445.60 1.544
445.70 1.543
445.80 1.541
445.90 1.54
446.00 1.539
446.10 1.538
446.20 1.536
446.30 1.535
446.40 1.534
446.50 1.533
446.60 1.531
446.70 1.53
446.80 1.529
446.90 1.527
447.00 1.526
447.10 1.525
447.20 1.524
447.30 1.522
447.40 1.521
447.50 1.52
447.60 1.519
447.70 1.517
447.80 1.516
447.90 1.515
448.00 1.514
448.10 1.512
448.20 1.511
448.30 1.51
448.40 1.509
448.50 1.507
448.60 1.506
448.70 1.505
448.80 1.504
448.90 1.502
449.00 1.501
449.10 1.5
449.20 1.499
449.30 1.497
449.40 1.496
449.50 1.495
449.60 1.494
449.70 1.492
449.80 1.491
449.90 1.49
450.00 1.489
450.10 1.487
450.20 1.486
450.30 1.485
450.40 1.484
450.50 1.482
450.60 1.481
450.70 1.48
450.80 1.479
450.90 1.478
451.00 1.476
451.10 1.475
451.20 1.474
451.30 1.473
451.40 1.471
451.50 1.47
451.60 1.469
451.70 1.468
451.80 1.467
451.90 1.465
452.00 1.464
452.10 1.463
452.20 1.462
452.30 1.461
452.40 1.459
452.50 1.458
452.60 1.457
452.70 1.456
452.80 1.454
452.90 1.453
453.00 1.452
453.10 1.451
453.20 1.45
453.30 1.448
453.40 1.447
453.50 1.446
453.60 1.445
453.70 1.444
453.80 1.442
453.90 1.441
454.00 1.44
454.10 1.439
454.20 1.438
454.30 1.437
454.40 1.435
454.50 1.434
454.60 1.433
454.70 1.432
454.80 1.431
454.90 1.429
455.00 1.428
455.10 1.427
455.20 1.426
455.30 1.425
455.40 1.424
455.50 1.422
455.60 1.421
455.70 1.42
455.80 1.419
455.90 1.418
456.00 1.416
456.10 1.415
456.20 1.414
456.30 1.413
456.40 1.412
456.50 1.411
456.60 1.409
456.70 1.408
456.80 1.407
456.90 1.406
457.00 1.405
457.10 1.404
457.20 1.403
457.30 1.401
457.40 1.4
457.50 1.399
457.60 1.398
457.70 1.397
457.80 1.396
457.90 1.394
458.00 1.393
458.10 1.392
458.20 1.391
458.30 1.39
458.40 1.389
458.50 1.388
458.60 1.386
458.70 1.385
458.80 1.384
458.90 1.383
459.00 1.382
459.10 1.381
459.20 1.38
459.30 1.379
459.40 1.377
459.50 1.376
459.60 1.375
459.70 1.374
459.80 1.373
459.90 1.372
460.00 1.371
460.10 1.37
460.20 1.368
460.30 1.367
460.40 1.366
460.50 1.365
460.60 1.364
460.70 1.363
460.80 1.362
460.90 1.361
461.00 1.359
461.10 1.358
461.20 1.357
461.30 1.356
461.40 1.355
461.50 1.354
461.60 1.353
461.70 1.352
461.80 1.351
461.90 1.349
462.00 1.348
462.10 1.347
462.20 1.346
462.30 1.345
462.40 1.344
462.50 1.343
462.60 1.342
462.70 1.341
462.80 1.34
462.90 1.338
463.00 1.337
463.10 1.336
463.20 1.335
463.30 1.334
463.40 1.333
463.50 1.332
463.60 1.331
463.70 1.33
463.80 1.329
463.90 1.328
464.00 1.327
464.10 1.325
464.20 1.324
464.30 1.323
464.40 1.322
464.50 1.321
464.60 1.32
464.70 1.319
464.80 1.318
464.90 1.317
465.00 1.316
465.10 1.315
465.20 1.314
465.30 1.313
465.40 1.312
465.50 1.31
465.60 1.309
465.70 1.308
465.80 1.307
465.90 1.306
466.00 1.305
466.10 1.304
466.20 1.303
466.30 1.302
466.40 1.301
466.50 1.3
466.60 1.299
466.70 1.298
466.80 1.297
466.90 1.296
467.00 1.295
467.10 1.294
467.20 1.292
467.30 1.291
467.40 1.29
467.50 1.289
467.60 1.288
467.70 1.287
467.80 1.286
467.90 1.285
468.00 1.284
468.10 1.283
468.20 1.282
468.30 1.281
468.40 1.28
468.50 1.279
468.60 1.278
468.70 1.277
468.80 1.276
468.90 1.275
469.00 1.274
469.10 1.273
469.20 1.272
469.30 1.271
469.40 1.27
469.50 1.269
469.60 1.268
469.70 1.267
469.80 1.265
469.90 1.264
470.00 1.263
470.10 1.262
470.20 1.261
470.30 1.26
470.40 1.259
470.50 1.258
470.60 1.257
470.70 1.256
470.80 1.255
470.90 1.254
471.00 1.253
471.10 1.252
471.20 1.251
471.30 1.25
471.40 1.249
471.50 1.248
471.60 1.247
471.70 1.246
471.80 1.245
471.90 1.244
472.00 1.243
472.10 1.242
472.20 1.241
472.30 1.24
472.40 1.239
472.50 1.238
472.60 1.237
472.70 1.236
472.80 1.235
472.90 1.234
473.00 1.233
473.10 1.232
473.20 1.231
473.30 1.23
473.40 1.229
473.50 1.228
473.60 1.227
473.70 1.226
473.80 1.225
473.90 1.224
474.00 1.223
474.10 1.222
474.20 1.221
474.30 1.22
474.40 1.219
474.50 1.218
474.60 1.217
474.70 1.216
474.80 1.215
474.90 1.214
475.00 1.213
475.10 1.212
475.20 1.211
475.30 1.21
475.40 1.209
475.50 1.208
475.60 1.207
475.70 1.206
475.80 1.205
475.90 1.204
476.00 1.203
476.10 1.202
476.20 1.201
476.30 1.2
476.40 1.199
476.50 1.198
476.60 1.197
476.70 1.196
476.80 1.195
476.90 1.194
477.00 1.193
477.10 1.192
477.20 1.191
477.30 1.19
477.40 1.189
477.50 1.188
477.60 1.187
477.70 1.186
477.80 1.185
477.90 1.184
478.00 1.183
478.10 1.182
478.20 1.181
478.30 1.18
478.40 1.179
478.50 1.178
478.60 1.176
478.70 1.175
478.80 1.174
478.90 1.173
479.00 1.172
479.10 1.171
479.20 1.17
479.30 1.169
479.40 1.168
479.50 1.167
479.60 1.166
479.70 1.165
479.80 1.163
479.90 1.162
480.00 1.161
480.10 1.16
480.20 1.159
480.30 1.158
480.40 1.156
480.50 1.155
480.60 1.154
480.70 1.153
480.80 1.151
480.90 1.15
481.00 1.149
481.10 1.148
481.20 1.146
481.30 1.145
481.40 1.143
481.50 1.142
481.60 1.14
481.70 1.139
481.80 1.137
481.90 1.136
482.00 1.134
482.10 1.133
482.20 1.131
482.30 1.129
482.40 1.127
482.50 1.125
482.60 1.123
482.70 1.121
482.80 1.119
482.90 1.117
483.00 1.114
483.10 1.112
483.20 1.109
483.30 1.106
483.40 1.102
483.50 1.099
483.60 1.095
483.70 1.092
483.80 1.088
483.90 1.085
484.00 1.081
484.10 1.078
484.20 1.073
484.30 1.067
484.40 1.061
484.50 1.055
484.60 1.05
484.70 1.042
484.80 1.033
484.90 1.025
485.00 1.016
485.10 1.008
485.20 0.9974
485.30 0.9861
485.40 0.9735
485.50 0.9604
485.60 0.9457
485.70 0.9302
485.80 0.9117
485.90 0.8918
486.00 0.8637
486.10 0.8123
486.20 0.829
486.30 0.8737
486.40 0.8949
486.50 0.9136
486.60 0.9292
486.70 0.9433
486.80 0.9557
486.90 0.9673
487.00 0.9776
487.10 0.9873
487.20 0.9951
487.30 1.002
487.40 1.009
487.50 1.016
487.60 1.023
487.70 1.028
487.80 1.032
487.90 1.036
488.00 1.04
488.10 1.044
488.20 1.046
488.30 1.048
488.40 1.05
488.50 1.051
488.60 1.053
488.70 1.055
488.80 1.057
488.90 1.058
489.00 1.06
489.10 1.062
489.20 1.062
489.30 1.063
489.40 1.063
489.50 1.063
489.60 1.064
489.70 1.064
489.80 1.064
489.90 1.064
490.00 1.065
490.10 1.065
490.20 1.065
490.30 1.065
490.40 1.064
490.50 1.064
490.60 1.064
490.70 1.064
490.80 1.063
490.90 1.063
491.00 1.063
491.10 1.062
491.20 1.062
491.30 1.061
491.40 1.061
491.50 1.06
491.60 1.06
491.70 1.059
491.80 1.059
491.90 1.058
492.00 1.058
492.10 1.057
492.20 1.057
492.30 1.056
492.40 1.055
492.50 1.055
492.60 1.054
492.70 1.053
492.80 1.053
492.90 1.052
493.00 1.051
493.10 1.051
493.20 1.05
493.30 1.049
493.40 1.049
493.50 1.048
493.60 1.047
493.70 1.047
493.80 1.046
493.90 1.045
494.00 1.045
494.10 1.044
494.20 1.043
494.30 1.042
494.40 1.042
494.50 1.041
494.60 1.04
494.70 1.04
494.80 1.039
494.90 1.038
495.00 1.037
495.10 1.037
495.20 1.036
495.30 1.035
495.40 1.034
495.50 1.034
495.60 1.033
495.70 1.032
495.80 1.031
495.90 1.031
496.00 1.03
496.10 1.029
496.20 1.028
496.30 1.028
496.40 1.027
496.50 1.026
496.60 1.025
496.70 1.025
496.80 1.024
496.90 1.023
497.00 1.022
497.10 1.022
497.20 1.021
497.30 1.02
497.40 1.019
497.50 1.019
497.60 1.018
497.70 1.017
497.80 1.016
497.90 1.016
498.00 1.015
498.10 1.014
498.20 1.013
498.30 1.013
498.40 1.012
498.50 1.011
498.60 1.01
498.70 1.01
498.80 1.009
498.90 1.008
499.00 1.007
499.10 1.007
499.20 1.006
499.30 1.005
499.40 1.004
499.50 1.004
499.60 1.003
499.70 1.002
499.80 1.001
499.90 1.001
500.00 1
500.10 0.9993
500.20 0.9985
500.30 0.9978
500.40 0.997
500.50 0.9963
500.60 0.9955
500.70 0.9948
500.80 0.9941
500.90 0.9933
501.00 0.9926
501.10 0.9918
501.20 0.9911
501.30 0.9904
501.40 0.9896
501.50 0.9889
501.60 0.9881
501.70 0.9874
501.80 0.9867
501.90 0.9859
502.00 0.9852
502.10 0.9845
502.20 0.9837
502.30 0.983
502.40 0.9823
502.50 0.9815
502.60 0.9808
502.70 0.9801
502.80 0.9793
502.90 0.9786
503.00 0.9779
503.10 0.9771
503.20 0.9764
503.30 0.9757
503.40 0.975
503.50 0.9742
503.60 0.9735
503.70 0.9728
503.80 0.972
503.90 0.9713
504.00 0.9706
504.10 0.9699
504.20 0.9691
504.30 0.9684
504.40 0.9677
504.50 0.967
504.60 0.9663
504.70 0.9655
504.80 0.9648
504.90 0.9641
505.00 0.9634
505.10 0.9627
505.20 0.9619
505.30 0.9612
505.40 0.9605
505.50 0.9598
505.60 0.9591
505.70 0.9584
505.80 0.9577
505.90 0.9569
506.00 0.9562
506.10 0.9555
506.20 0.9548
506.30 0.9541
506.40 0.9534
506.50 0.9527
506.60 0.952
506.70 0.9513
506.80 0.9505
506.90 0.9498
507.00 0.9491
507.10 0.9484
507.20 0.9477
507.30 0.947
507.40 0.9463
507.50 0.9456
507.60 0.9449
507.70 0.9442
507.80 0.9435
507.90 0.9428
508.00 0.9421
508.10 0.9414
508.20 0.9407
508.30 0.94
508.40 0.9393
508.50 0.9386
508.60 0.9379
508.70 0.9372
508.80 0.9365
508.90 0.9358
509.00 0.9351
509.10 0.9344
509.20 0.9337
509.30 0.9331
509.40 0.9324
509.50 0.9317
509.60 0.931
509.70 0.9303
509.80 0.9296
509.90 0.9289
510.00 0.9282
510.10 0.9275
510.20 0.9268
510.30 0.9262
510.40 0.9255
510.50 0.9248
510.60 0.9241
510.70 0.9234
510.80 0.9227
510.90 0.9221
511.00 0.9214
511.10 0.9207
511.20 0.92
511.30 0.9193
511.40 0.9187
511.50 0.918
511.60 0.9173
511.70 0.9166
511.80 0.9159
511.90 0.9153
512.00 0.9146
512.10 0.9139
512.20 0.9132
512.30 0.9126
512.40 0.9119
512.50 0.9112
512.60 0.9105
512.70 0.9099
512.80 0.9092
512.90 0.9085
513.00 0.9079
513.10 0.9072
513.20 0.9065
513.30 0.9059
513.40 0.9052
513.50 0.9045
513.60 0.9039
513.70 0.9032
513.80 0.9025
513.90 0.9019
514.00 0.9012
514.10 0.9005
514.20 0.8999
514.30 0.8992
514.40 0.8986
514.50 0.8979
514.60 0.8972
514.70 0.8966
514.80 0.8959
514.90 0.8953
515.00 0.8946
515.10 0.8939
515.20 0.8933
515.30 0.8926
515.40 0.892
515.50 0.8913
515.60 0.8907
515.70 0.89
515.80 0.8894
515.90 0.8887
516.00 0.888
516.10 0.8874
516.20 0.8867
516.30 0.8861
516.40 0.8854
516.50 0.8848
516.60 0.8842
516.70 0.8835
516.80 0.8829
516.90 0.8822
517.00 0.8816
517.10 0.8809
517.20 0.8803
517.30 0.8796
517.40 0.879
517.50 0.8783
517.60 0.8777
517.70 0.8771
517.80 0.8764
517.90 0.8758
518.00 0.8751
518.10 0.8745
518.20 0.8739
518.30 0.8732
518.40 0.8726
518.50 0.8719
518.60 0.8713
518.70 0.8707
518.80 0.87
518.90 0.8694
519.00 0.8688
519.10 0.8681
519.20 0.8675
519.30 0.8669
519.40 0.8662
519.50 0.8656
519.60 0.865
519.70 0.8643
519.80 0.8637
519.90 0.8631
520.00 0.8625
520.10 0.8618
520.20 0.8612
520.30 0.8606
520.40 0.8599
520.50 0.8593
520.60 0.8587
520.70 0.8581
520.80 0.8574
520.90 0.8568
521.00 0.8562
521.10 0.8556
521.20 0.855
521.30 0.8543
521.40 0.8537
521.50 0.8531
521.60 0.8525
521.70 0.8519
521.80 0.8512
521.90 0.8506
522.00 0.85
522.10 0.8494
522.20 0.8488
522.30 0.8482
522.40 0.8475
522.50 0.8469
522.60 0.8463
522.70 0.8457
522.80 0.8451
522.90 0.8445
523.00 0.8439
523.10 0.8432
523.20 0.8426
523.30 0.842
523.40 0.8414
523.50 0.8408
523.60 0.8402
523.70 0.8396
523.80 0.839
523.90 0.8384
524.00 0.8378
524.10 0.8372
524.20 0.8366
524.30 0.836
524.40 0.8354
524.50 0.8347
524.60 0.8341
524.70 0.8335
524.80 0.8329
524.90 0.8323
525.00 0.8317
525.10 0.8311
525.20 0.8305
525.30 0.8299
525.40 0.8293
525.50 0.8287
525.60 0.8281
525.70 0.8275
525.80 0.8269
525.90 0.8264
526.00 0.8258
526.10 0.8252
526.20 0.8246
526.30 0.824
526.40 0.8234
526.50 0.8228
526.60 0.8222
526.70 0.8216
526.80 0.821
526.90 0.8204
527.00 0.8198
527.10 0.8192
527.20 0.8187
527.30 0.8181
527.40 0.8175
527.50 0.8169
527.60 0.8163
527.70 0.8157
527.80 0.8151
527.90 0.8145
528.00 0.814
528.10 0.8134
528.20 0.8128
528.30 0.8122
528.40 0.8116
528.50 0.811
528.60 0.8105
528.70 0.8099
528.80 0.8093
528.90 0.8087
529.00 0.8081
529.10 0.8076
529.20 0.807
529.30 0.8064
529.40 0.8058
529.50 0.8052
529.60 0.8047
529.70 0.8041
529.80 0.8035
529.90 0.8029
530.00 0.8024
530.10 0.8018
530.20 0.8012
530.30 0.8006
530.40 0.8001
530.50 0.7995
530.60 0.7989
530.70 0.7984
530.80 0.7978
530.90 0.7972
531.00 0.7967
531.10 0.7961
531.20 0.7955
531.30 0.7949
531.40 0.7944
531.50 0.7938
531.60 0.7932
531.70 0.7927
531.80 0.7921
531.90 0.7916
532.00 0.791
532.10 0.7904
532.20 0.7899
532.30 0.7893
532.40 0.7887
532.50 0.7882
532.60 0.7876
532.70 0.7871
532.80 0.7865
532.90 0.7859
533.00 0.7854
533.10 0.7848
533.20 0.7843
533.30 0.7837
533.40 0.7831
533.50 0.7826
533.60 0.782
533.70 0.7815
533.80 0.7809
533.90 0.7804
534.00 0.7798
534.10 0.7793
534.20 0.7787
534.30 0.7781
534.40 0.7776
534.50 0.777
534.60 0.7765
534.70 0.7759
534.80 0.7754
534.90 0.7748
535.00 0.7743
535.10 0.7737
535.20 0.7732
535.30 0.7726
535.40 0.7721
535.50 0.7715
535.60 0.771
535.70 0.7705
535.80 0.7699
535.90 0.7694
536.00 0.7688
536.10 0.7683
536.20 0.7677
536.30 0.7672
536.40 0.7666
536.50 0.7661
536.60 0.7656
536.70 0.765
536.80 0.7645
536.90 0.7639
537.00 0.7634
537.10 0.7629
537.20 0.7623
537.30 0.7618
537.40 0.7612
537.50 0.7607
537.60 0.7602
537.70 0.7596
537.80 0.7591
537.90 0.7586
538.00 0.758
538.10 0.7575
538.20 0.757
538.30 0.7564
538.40 0.7559
538.50 0.7554
538.60 0.7548
538.70 0.7543
538.80 0.7538
538.90 0.7532
539.00 0.7527
539.10 0.7522
539.20 0.7516
539.30 0.7511
539.40 0.7506
539.50 0.7501
539.60 0.7495
539.70 0.749
539.80 0.7485
539.90 0.7479
540.00 0.7474
540.10 0.7469
540.20 0.7464
540.30 0.7458
540.40 0.7453
540.50 0.7448
540.60 0.7443
540.70 0.7438
540.80 0.7432
540.90 0.7427
541.00 0.7422
541.10 0.7417
541.20 0.7411
541.30 0.7406
541.40 0.7401
541.50 0.7396
541.60 0.7391
541.70 0.7386
541.80 0.738
541.90 0.7375
542.00 0.737
542.10 0.7365
542.20 0.736
542.30 0.7355
542.40 0.7349
542.50 0.7344
542.60 0.7339
542.70 0.7334
542.80 0.7329
542.90 0.7324
543.00 0.7319
543.10 0.7313
543.20 0.7308
543.30 0.7303
543.40 0.7298
543.50 0.7293
543.60 0.7288
543.70 0.7283
543.80 0.7278
543.90 0.7273
544.00 0.7268
544.10 0.7263
544.20 0.7258
544.30 0.7252
544.40 0.7247
544.50 0.7242
544.60 0.7237
544.70 0.7232
544.80 0.7227
544.90 0.7222
545.00 0.7217
545.10 0.7212
545.20 0.7207
545.30 0.7202
545.40 0.7197
545.50 0.7192
545.60 0.7187
545.70 0.7182
545.80 0.7177
545.90 0.7172
546.00 0.7167
546.10 0.7162
546.20 0.7157
546.30 0.7152
546.40 0.7147
546.50 0.7142
546.60 0.7137
546.70 0.7132
546.80 0.7127
546.90 0.7122
547.00 0.7117
547.10 0.7112
547.20 0.7108
547.30 0.7103
547.40 0.7098
547.50 0.7093
547.60 0.7088
547.70 0.7083
547.80 0.7078
547.90 0.7073
548.00 0.7068
548.10 0.7063
548.20 0.7058
548.30 0.7053
548.40 0.7049
548.50 0.7044
548.60 0.7039
548.70 0.7034
548.80 0.7029
548.90 0.7024
549.00 0.7019
549.10 0.7015
549.20 0.701
549.30 0.7005
549.40 0.7
549.50 0.6995
549.60 0.699
549.70 0.6985
549.80 0.6981
549.90 0.6976
550.00 0.6971
550.10 0.6966
550.20 0.6961
550.30 0.6957
550.40 0.6952
550.50 0.6947
550.60 0.6942
550.70 0.6937
550.80 0.6933
550.90 0.6928
551.00 0.6923
551.10 0.6918
551.20 0.6914
551.30 0.6909
551.40 0.6904
551.50 0.6899
551.60 0.6894
551.70 0.689
551.80 0.6885
551.90 0.688
552.00 0.6876
552.10 0.6871
552.20 0.6866
552.30 0.6861
552.40 0.6857
552.50 0.6852
552.60 0.6847
552.70 0.6842
552.80 0.6838
552.90 0.6833
553.00 0.6828
553.10 0.6824
553.20 0.6819
553.30 0.6814
553.40 0.681
553.50 0.6805
553.60 0.68
553.70 0.6796
553.80 0.6791
553.90 0.6786
554.00 0.6782
554.10 0.6777
554.20 0.6772
554.30 0.6768
554.40 0.6763
554.50 0.6758
554.60 0.6754
554.70 0.6749
554.80 0.6745
554.90 0.674
555.00 0.6735
555.10 0.6731
555.20 0.6726
555.30 0.6721
555.40 0.6717
555.50 0.6712
555.60 0.6708
555.70 0.6703
555.80 0.6699
555.90 0.6694
556.00 0.6689
556.10 0.6685
556.20 0.668
556.30 0.6676
556.40 0.6671
556.50 0.6667
556.60 0.6662
556.70 0.6657
556.80 0.6653
556.90 0.6648
557.00 0.6644
557.10 0.6639
557.20 0.6635
557.30 0.663
557.40 0.6626
557.50 0.6621
557.60 0.6617
557.70 0.6612
557.80 0.6608
557.90 0.6603
558.00 0.6599
558.10 0.6594
558.20 0.659
558.30 0.6585
558.40 0.6581
558.50 0.6576
558.60 0.6572
558.70 0.6567
558.80 0.6563
558.90 0.6558
559.00 0.6554
559.10 0.6549
559.20 0.6545
559.30 0.6541
559.40 0.6536
559.50 0.6532
559.60 0.6527
559.70 0.6523
559.80 0.6518
559.90 0.6514
560.00 0.651
560.10 0.6505
560.20 0.6501
560.30 0.6496
560.40 0.6492
560.50 0.6487
560.60 0.6483
560.70 0.6479
560.80 0.6474
560.90 0.647
561.00 0.6465
561.10 0.6461
561.20 0.6457
561.30 0.6452
561.40 0.6448
561.50 0.6444
561.60 0.6439
561.70 0.6435
561.80 0.6431
561.90 0.6426
562.00 0.6422
562.10 0.6417
562.20 0.6413
562.30 0.6409
562.40 0.6404
562.50 0.64
562.60 0.6396
562.70 0.6392
562.80 0.6387
562.90 0.6383
563.00 0.6379
563.10 0.6374
563.20 0.637
563.30 0.6366
563.40 0.6361
563.50 0.6357
563.60 0.6353
563.70 0.6348
563.80 0.6344
563.90 0.634
564.00 0.6336
564.10 0.6331
564.20 0.6327
564.30 0.6323
564.40 0.6319
564.50 0.6314
564.60 0.631
564.70 0.6306
564.80 0.6302
564.90 0.6297
565.00 0.6293
565.10 0.6289
565.20 0.6285
565.30 0.628
565.40 0.6276
565.50 0.6272
565.60 0.6268
565.70 0.6264
565.80 0.6259
565.90 0.6255
566.00 0.6251
566.10 0.6247
566.20 0.6242
566.30 0.6238
566.40 0.6234
566.50 0.623
566.60 0.6226
566.70 0.6222
566.80 0.6217
566.90 0.6213
567.00 0.6209
567.10 0.6205
567.20 0.6201
567.30 0.6197
567.40 0.6192
567.50 0.6188
567.60 0.6184
567.70 0.618
567.80 0.6176
567.90 0.6172
568.00 0.6168
568.10 0.6163
568.20 0.6159
568.30 0.6155
568.40 0.6151
568.50 0.6147
568.60 0.6143
568.70 0.6139
568.80 0.6135
568.90 0.613
569.00 0.6126
569.10 0.6122
569.20 0.6118
569.30 0.6114
569.40 0.611
569.50 0.6106
569.60 0.6102
569.70 0.6098
569.80 0.6094
569.90 0.609
570.00 0.6086
570.10 0.6082
570.20 0.6077
570.30 0.6073
570.40 0.6069
570.50 0.6065
570.60 0.6061
570.70 0.6057
570.80 0.6053
570.90 0.6049
571.00 0.6045
571.10 0.6041
571.20 0.6037
571.30 0.6033
571.40 0.6029
571.50 0.6025
571.60 0.6021
571.70 0.6017
571.80 0.6013
571.90 0.6009
572.00 0.6005
572.10 0.6001
572.20 0.5997
572.30 0.5993
572.40 0.5989
572.50 0.5985
572.60 0.5981
572.70 0.5977
572.80 0.5973
572.90 0.5969
573.00 0.5965
573.10 0.5961
573.20 0.5957
573.30 0.5953
573.40 0.5949
573.50 0.5945
573.60 0.5942
573.70 0.5938
573.80 0.5934
573.90 0.593
574.00 0.5926
574.10 0.5922
574.20 0.5918
574.30 0.5914
574.40 0.591
574.50 0.5906
574.60 0.5902
574.70 0.5898
574.80 0.5894
574.90 0.5891
575.00 0.5887
575.10 0.5883
575.20 0.5879
575.30 0.5875
575.40 0.5871
575.50 0.5867
575.60 0.5863
575.70 0.5859
575.80 0.5856
575.90 0.5852
576.00 0.5848
576.10 0.5844
576.20 0.584
576.30 0.5836
576.40 0.5832
576.50 0.5829
576.60 0.5825
576.70 0.5821
576.80 0.5817
576.90 0.5813
577.00 0.5809
577.10 0.5805
577.20 0.5802
577.30 0.5798
577.40 0.5794
577.50 0.579
577.60 0.5786
577.70 0.5783
577.80 0.5779
577.90 0.5775
578.00 0.5771
578.10 0.5767
578.20 0.5764
578.30 0.576
578.40 0.5756
578.50 0.5752
578.60 0.5748
578.70 0.5745
578.80 0.5741
578.90 0.5737
579.00 0.5733
579.10 0.5729
579.20 0.5726
579.30 0.5722
579.40 0.5718
579.50 0.5714
579.60 0.5711
579.70 0.5707
579.80 0.5703
579.90 0.5699
580.00 0.5696
580.10 0.5692
580.20 0.5688
580.30 0.5684
580.40 0.5681
580.50 0.5677
580.60 0.5673
580.70 0.567
580.80 0.5666
580.90 0.5662
581.00 0.5658
581.10 0.5655
581.20 0.5651
581.30 0.5647
581.40 0.5644
581.50 0.564
581.60 0.5636
581.70 0.5633
581.80 0.5629
581.90 0.5625
582.00 0.5622
582.10 0.5618
582.20 0.5614
582.30 0.561
582.40 0.5607
582.50 0.5603
582.60 0.5599
582.70 0.5596
582.80 0.5592
582.90 0.5589
583.00 0.5585
583.10 0.5581
583.20 0.5578
583.30 0.5574
583.40 0.557
583.50 0.5567
583.60 0.5563
583.70 0.5559
583.80 0.5556
583.90 0.5552
584.00 0.5549
584.10 0.5545
584.20 0.5541
584.30 0.5538
584.40 0.5534
584.50 0.553
584.60 0.5527
584.70 0.5523
584.80 0.552
584.90 0.5516
585.00 0.5512
585.10 0.5509
585.20 0.5505
585.30 0.5502
585.40 0.5498
585.50 0.5495
585.60 0.5491
585.70 0.5487
585.80 0.5484
585.90 0.548
586.00 0.5477
586.10 0.5473
586.20 0.547
586.30 0.5466
586.40 0.5462
586.50 0.5459
586.60 0.5455
586.70 0.5452
586.80 0.5448
586.90 0.5445
587.00 0.5441
587.10 0.5438
587.20 0.5434
587.30 0.5431
587.40 0.5427
587.50 0.5424
587.60 0.542
587.70 0.5417
587.80 0.5413
587.90 0.541
588.00 0.5406
588.10 0.5403
588.20 0.5399
588.30 0.5396
588.40 0.5392
588.50 0.5389
588.60 0.5385
588.70 0.5382
588.80 0.5378
588.90 0.5375
589.00 0.5371
589.10 0.5368
589.20 0.5364
589.30 0.5361
589.40 0.5357
589.50 0.5354
589.60 0.535
589.70 0.5347
589.80 0.5343
589.90 0.534
590.00 0.5337
590.10 0.5333
590.20 0.533
590.30 0.5326
590.40 0.5323
590.50 0.5319
590.60 0.5316
590.70 0.5313
590.80 0.5309
590.90 0.5306
591.00 0.5302
591.10 0.5299
591.20 0.5295
591.30 0.5292
591.40 0.5289
591.50 0.5285
591.60 0.5282
591.70 0.5278
591.80 0.5275
591.90 0.5272
592.00 0.5268
592.10 0.5265
592.20 0.5261
592.30 0.5258
592.40 0.5255
592.50 0.5251
592.60 0.5248
592.70 0.5244
592.80 0.5241
592.90 0.5238
593.00 0.5234
593.10 0.5231
593.20 0.5228
593.30 0.5224
593.40 0.5221
593.50 0.5218
593.60 0.5214
593.70 0.5211
593.80 0.5208
593.90 0.5204
594.00 0.5201
594.10 0.5198
594.20 0.5194
594.30 0.5191
594.40 0.5188
594.50 0.5184
594.60 0.5181
594.70 0.5178
594.80 0.5174
594.90 0.5171
595.00 0.5168
595.10 0.5164
595.20 0.5161
595.30 0.5158
595.40 0.5154
595.50 0.5151
595.60 0.5148
595.70 0.5145
595.80 0.5141
595.90 0.5138
596.00 0.5135
596.10 0.5131
596.20 0.5128
596.30 0.5125
596.40 0.5122
596.50 0.5118
596.60 0.5115
596.70 0.5112
596.80 0.5108
596.90 0.5105
597.00 0.5102
597.10 0.5099
597.20 0.5095
597.30 0.5092
597.40 0.5089
597.50 0.5086
597.60 0.5082
597.70 0.5079
597.80 0.5076
597.90 0.5073
598.00 0.5069
598.10 0.5066
598.20 0.5063
598.30 0.506
598.40 0.5057
598.50 0.5053
598.60 0.505
598.70 0.5047
598.80 0.5044
598.90 0.504
599.00 0.5037
599.10 0.5034
599.20 0.5031
599.30 0.5028
599.40 0.5024
599.50 0.5021
599.60 0.5018
599.70 0.5015
599.80 0.5012
599.90 0.5008
600.00 0.5005
600.10 0.5002
600.20 0.4999
600.30 0.4996
600.40 0.4993
600.50 0.4989
600.60 0.4986
600.70 0.4983
600.80 0.498
600.90 0.4977
601.00 0.4974
601.10 0.497
601.20 0.4967
601.30 0.4964
601.40 0.4961
601.50 0.4958
601.60 0.4955
601.70 0.4952
601.80 0.4948
601.90 0.4945
602.00 0.4942
602.10 0.4939
602.20 0.4936
602.30 0.4933
602.40 0.493
602.50 0.4927
602.60 0.4923
602.70 0.492
602.80 0.4917
602.90 0.4914
603.00 0.4911
603.10 0.4908
603.20 0.4905
603.30 0.4902
603.40 0.4899
603.50 0.4895
603.60 0.4892
603.70 0.4889
603.80 0.4886
603.90 0.4883
604.00 0.488
604.10 0.4877
604.20 0.4874
604.30 0.4871
604.40 0.4868
604.50 0.4865
604.60 0.4862
604.70 0.4859
604.80 0.4855
604.90 0.4852
605.00 0.4849
605.10 0.4846
605.20 0.4843
605.30 0.484
605.40 0.4837
605.50 0.4834
605.60 0.4831
605.70 0.4828
605.80 0.4825
605.90 0.4822
606.00 0.4819
606.10 0.4816
606.20 0.4813
606.30 0.481
606.40 0.4807
606.50 0.4804
606.60 0.4801
606.70 0.4798
606.80 0.4795
606.90 0.4792
607.00 0.4789
607.10 0.4786
607.20 0.4783
607.30 0.478
607.40 0.4777
607.50 0.4774
607.60 0.4771
607.70 0.4768
607.80 0.4765
607.90 0.4762
608.00 0.4759
608.10 0.4756
608.20 0.4753
608.30 0.475
608.40 0.4747
608.50 0.4744
608.60 0.4741
608.70 0.4738
608.80 0.4735
608.90 0.4732
609.00 0.4729
609.10 0.4726
609.20 0.4723
609.30 0.472
609.40 0.4717
609.50 0.4714
609.60 0.4711
609.70 0.4708
609.80 0.4705
609.90 0.4702
610.00 0.4699
610.10 0.4696
610.20 0.4694
610.30 0.4691
610.40 0.4688
610.50 0.4685
610.60 0.4682
610.70 0.4679
610.80 0.4676
610.90 0.4673
611.00 0.467
611.10 0.4667
611.20 0.4664
611.30 0.4661
611.40 0.4658
611.50 0.4656
611.60 0.4653
611.70 0.465
611.80 0.4647
611.90 0.4644
612.00 0.4641
612.10 0.4638
612.20 0.4635
612.30 0.4632
612.40 0.4629
612.50 0.4627
612.60 0.4624
612.70 0.4621
612.80 0.4618
612.90 0.4615
613.00 0.4612
613.10 0.4609
613.20 0.4606
613.30 0.4604
613.40 0.4601
613.50 0.4598
613.60 0.4595
613.70 0.4592
613.80 0.4589
613.90 0.4586
614.00 0.4584
614.10 0.4581
614.20 0.4578
614.30 0.4575
614.40 0.4572
614.50 0.4569
614.60 0.4567
614.70 0.4564
614.80 0.4561
614.90 0.4558
615.00 0.4555
615.10 0.4552
615.20 0.455
615.30 0.4547
615.40 0.4544
615.50 0.4541
615.60 0.4538
615.70 0.4535
615.80 0.4533
615.90 0.453
616.00 0.4527
616.10 0.4524
616.20 0.4521
616.30 0.4519
616.40 0.4516
616.50 0.4513
616.60 0.451
616.70 0.4507
616.80 0.4505
616.90 0.4502
617.00 0.4499
617.10 0.4496
617.20 0.4493
617.30 0.4491
617.40 0.4488
617.50 0.4485
617.60 0.4482
617.70 0.448
617.80 0.4477
617.90 0.4474
618.00 0.4471
618.10 0.4469
618.20 0.4466
618.30 0.4463
618.40 0.446
618.50 0.4458
618.60 0.4455
618.70 0.4452
618.80 0.4449
618.90 0.4447
619.00 0.4444
619.10 0.4441
619.20 0.4438
619.30 0.4436
619.40 0.4433
619.50 0.443
619.60 0.4427
619.70 0.4425
619.80 0.4422
619.90 0.4419
620.00 0.4416
620.10 0.4414
620.20 0.4411
620.30 0.4408
620.40 0.4406
620.50 0.4403
620.60 0.44
620.70 0.4397
620.80 0.4395
620.90 0.4392
621.00 0.4389
621.10 0.4387
621.20 0.4384
621.30 0.4381
621.40 0.4379
621.50 0.4376
621.60 0.4373
621.70 0.437
621.80 0.4368
621.90 0.4365
622.00 0.4362
622.10 0.436
622.20 0.4357
622.30 0.4354
622.40 0.4352
622.50 0.4349
622.60 0.4346
622.70 0.4344
622.80 0.4341
622.90 0.4338
623.00 0.4336
623.10 0.4333
623.20 0.433
623.30 0.4328
623.40 0.4325
623.50 0.4322
623.60 0.432
623.70 0.4317
623.80 0.4314
623.90 0.4312
624.00 0.4309
624.10 0.4307
624.20 0.4304
624.30 0.4301
624.40 0.4299
624.50 0.4296
624.60 0.4293
624.70 0.4291
624.80 0.4288
624.90 0.4286
625.00 0.4283
625.10 0.428
625.20 0.4278
625.30 0.4275
625.40 0.4272
625.50 0.427
625.60 0.4267
625.70 0.4265
625.80 0.4262
625.90 0.4259
626.00 0.4257
626.10 0.4254
626.20 0.4252
626.30 0.4249
626.40 0.4246
626.50 0.4244
626.60 0.4241
626.70 0.4239
626.80 0.4236
626.90 0.4233
627.00 0.4231
627.10 0.4228
627.20 0.4226
627.30 0.4223
627.40 0.4221
627.50 0.4218
627.60 0.4215
627.70 0.4213
627.80 0.421
627.90 0.4208
628.00 0.4205
628.10 0.4203
628.20 0.42
628.30 0.4197
628.40 0.4195
628.50 0.4192
628.60 0.419
628.70 0.4187
628.80 0.4185
628.90 0.4182
629.00 0.418
629.10 0.4177
629.20 0.4175
629.30 0.4172
629.40 0.4169
629.50 0.4167
629.60 0.4164
629.70 0.4162
629.80 0.4159
629.90 0.4157
630.00 0.4154
630.10 0.4152
630.20 0.4149
630.30 0.4147
630.40 0.4144
630.50 0.4142
630.60 0.4139
630.70 0.4137
630.80 0.4134
630.90 0.4132
631.00 0.4129
631.10 0.4127
631.20 0.4124
631.30 0.4122
631.40 0.4119
631.50 0.4117
631.60 0.4114
631.70 0.4112
631.80 0.4109
631.90 0.4107
632.00 0.4104
632.10 0.4102
632.20 0.4099
632.30 0.4097
632.40 0.4094
632.50 0.4092
632.60 0.4089
632.70 0.4087
632.80 0.4084
632.90 0.4082
633.00 0.4079
633.10 0.4077
633.20 0.4074
633.30 0.4072
633.40 0.4069
633.50 0.4067
633.60 0.4065
633.70 0.4062
633.80 0.406
633.90 0.4057
634.00 0.4055
634.10 0.4052
634.20 0.405
634.30 0.4047
634.40 0.4045
634.50 0.4043
634.60 0.404
634.70 0.4038
634.80 0.4035
634.90 0.4033
635.00 0.403
635.10 0.4028
635.20 0.4025
635.30 0.4023
635.40 0.4021
635.50 0.4018
635.60 0.4016
635.70 0.4013
635.80 0.4011
635.90 0.4008
636.00 0.4006
636.10 0.4004
636.20 0.4001
636.30 0.3999
636.40 0.3996
636.50 0.3994
636.60 0.3992
636.70 0.3989
636.80 0.3987
636.90 0.3984
637.00 0.3982
637.10 0.3979
637.20 0.3977
637.30 0.3975
637.40 0.3972
637.50 0.397
637.60 0.3968
637.70 0.3965
637.80 0.3963
637.90 0.396
638.00 0.3958
638.10 0.3956
638.20 0.3953
638.30 0.3951
638.40 0.3948
638.50 0.3946
638.60 0.3944
638.70 0.3941
638.80 0.3939
638.90 0.3936
639.00 0.3934
639.10 0.3932
639.20 0.3929
639.30 0.3927
639.40 0.3925
639.50 0.3922
639.60 0.392
639.70 0.3918
639.80 0.3915
639.90 0.3913
640.00 0.391
640.10 0.3908
640.20 0.3906
640.30 0.3903
640.40 0.3901
640.50 0.3899
640.60 0.3896
640.70 0.3894
640.80 0.3892
640.90 0.3889
641.00 0.3887
641.10 0.3885
641.20 0.3882
641.30 0.388
641.40 0.3877
641.50 0.3875
641.60 0.3873
641.70 0.387
641.80 0.3868
641.90 0.3866
642.00 0.3863
642.10 0.3861
642.20 0.3859
642.30 0.3856
642.40 0.3854
642.50 0.3852
642.60 0.3849
642.70 0.3847
642.80 0.3845
642.90 0.3842
643.00 0.384
643.10 0.3838
643.20 0.3835
643.30 0.3833
643.40 0.3831
643.50 0.3828
643.60 0.3826
643.70 0.3824
643.80 0.3821
643.90 0.3819
644.00 0.3817
644.10 0.3814
644.20 0.3812
644.30 0.381
644.40 0.3807
644.50 0.3805
644.60 0.3803
644.70 0.38
644.80 0.3798
644.90 0.3796
645.00 0.3793
645.10 0.3791
645.20 0.3789
645.30 0.3786
645.40 0.3784
645.50 0.3782
645.60 0.3779
645.70 0.3777
645.80 0.3775
645.90 0.3772
646.00 0.377
646.10 0.3768
646.20 0.3765
646.30 0.3763
646.40 0.3761
646.50 0.3758
646.60 0.3756
646.70 0.3754
646.80 0.3751
646.90 0.3749
647.00 0.3746
647.10 0.3744
647.20 0.3742
647.30 0.3739
647.40 0.3737
647.50 0.3735
647.60 0.3732
647.70 0.373
647.80 0.3727
647.90 0.3725
648.00 0.3723
648.10 0.372
648.20 0.3718
648.30 0.3715
648.40 0.3713
648.50 0.371
648.60 0.3708
648.70 0.3705
648.80 0.3703
648.90 0.37
649.00 0.3698
649.10 0.3695
649.20 0.3693
649.30 0.369
649.40 0.3688
649.50 0.3685
649.60 0.3682
649.70 0.368
649.80 0.3677
649.90 0.3675
650.00 0.3672
650.10 0.3669
650.20 0.3667
650.30 0.3664
650.40 0.3661
650.50 0.3658
650.60 0.3655
650.70 0.3652
650.80 0.3649
650.90 0.3646
651.00 0.3643
651.10 0.364
651.20 0.3638
651.30 0.3635
651.40 0.3631
651.50 0.3627
651.60 0.3624
651.70 0.362
651.80 0.3617
651.90 0.3613
652.00 0.361
652.10 0.3606
652.20 0.3603
652.30 0.3599
652.40 0.3594
652.50 0.3589
652.60 0.3584
652.70 0.3579
652.80 0.3574
652.90 0.3569
653.00 0.3564
653.10 0.3559
653.20 0.3554
653.30 0.3549
653.40 0.354
653.50 0.3532
653.60 0.3524
653.70 0.3515
653.80 0.3507
653.90 0.3498
654.00 0.349
654.10 0.3482
654.20 0.3473
654.30 0.3464
654.40 0.345
654.50 0.3436
654.60 0.3422
654.70 0.3408
654.80 0.3392
654.90 0.3371
655.00 0.335
655.10 0.3329
655.20 0.3308
655.30 0.3285
655.40 0.3257
655.50 0.3228
655.60 0.3194
655.70 0.3158
655.80 0.3115
655.90 0.3065
656.00 0.2991
656.10 0.2905
656.20 0.2642
656.30 0.2597
656.40 0.2763
656.50 0.2935
656.60 0.3008
656.70 0.3073
656.80 0.3113
656.90 0.3151
657.00 0.3181
657.10 0.321
657.20 0.3234
657.30 0.3257
657.40 0.3274
657.50 0.3292
657.60 0.3309
657.70 0.3326
657.80 0.3341
657.90 0.3351
658.00 0.3361
658.10 0.3371
658.20 0.3381
658.30 0.339
658.40 0.3394
658.50 0.3398
658.60 0.3402
658.70 0.3406
658.80 0.341
658.90 0.3415
659.00 0.3419
659.10 0.3423
659.20 0.3427
659.30 0.3431
659.40 0.3431
659.50 0.3432
659.60 0.3433
659.70 0.3433
659.80 0.3434
659.90 0.3435
660.00 0.3435
660.10 0.3436
660.20 0.3437
660.30 0.3437
660.40 0.3437
660.50 0.3436
660.60 0.3435
660.70 0.3435
660.80 0.3434
660.90 0.3433
661.00 0.3433
661.10 0.3432
661.20 0.3431
661.30 0.343
661.40 0.3429
661.50 0.3428
661.60 0.3427
661.70 0.3425
661.80 0.3424
661.90 0.3423
662.00 0.3422
662.10 0.342
662.20 0.3419
662.30 0.3418
662.40 0.3416
662.50 0.3415
662.60 0.3413
662.70 0.3412
662.80 0.341
662.90 0.3408
663.00 0.3407
663.10 0.3405
663.20 0.3404
663.30 0.3402
663.40 0.3401
663.50 0.3399
663.60 0.3397
663.70 0.3395
663.80 0.3394
663.90 0.3392
664.00 0.339
664.10 0.3389
664.20 0.3387
664.30 0.3385
664.40 0.3384
664.50 0.3382
664.60 0.338
664.70 0.3378
664.80 0.3376
664.90 0.3375
665.00 0.3373
665.10 0.3371
665.20 0.3369
665.30 0.3368
665.40 0.3366
665.50 0.3364
665.60 0.3362
665.70 0.336
665.80 0.3359
665.90 0.3357
666.00 0.3355
666.10 0.3353
666.20 0.3351
666.30 0.335
666.40 0.3348
666.50 0.3346
666.60 0.3344
666.70 0.3342
666.80 0.334
666.90 0.3339
667.00 0.3337
667.10 0.3335
667.20 0.3333
667.30 0.3331
667.40 0.3329
667.50 0.3328
667.60 0.3326
667.70 0.3324
667.80 0.3322
667.90 0.332
668.00 0.3318
668.10 0.3316
668.20 0.3315
668.30 0.3313
668.40 0.3311
668.50 0.3309
668.60 0.3307
668.70 0.3305
668.80 0.3304
668.90 0.3302
669.00 0.33
669.10 0.3298
669.20 0.3296
669.30 0.3294
669.40 0.3292
669.50 0.3291
669.60 0.3289
669.70 0.3287
669.80 0.3285
669.90 0.3283
670.00 0.3281
670.10 0.328
670.20 0.3278
670.30 0.3276
670.40 0.3274
670.50 0.3272
670.60 0.327
670.70 0.3269
670.80 0.3267
670.90 0.3265
671.00 0.3263
671.10 0.3261
671.20 0.3259
671.30 0.3258
671.40 0.3256
671.50 0.3254
671.60 0.3252
671.70 0.325
671.80 0.3248
671.90 0.3247
672.00 0.3245
672.10 0.3243
672.20 0.3241
672.30 0.3239
672.40 0.3237
672.50 0.3236
672.60 0.3234
672.70 0.3232
672.80 0.323
672.90 0.3228
673.00 0.3227
673.10 0.3225
673.20 0.3223
673.30 0.3221
673.40 0.3219
673.50 0.3217
673.60 0.3216
673.70 0.3214
673.80 0.3212
673.90 0.321
674.00 0.3208
674.10 0.3207
674.20 0.3205
674.30 0.3203
674.40 0.3201
674.50 0.3199
674.60 0.3198
674.70 0.3196
674.80 0.3194
674.90 0.3192
675.00 0.319
675.10 0.3189
675.20 0.3187
675.30 0.3185
675.40 0.3183
675.50 0.3181
675.60 0.318
675.70 0.3178
675.80 0.3176
675.90 0.3174
676.00 0.3172
676.10 0.3171
676.20 0.3169
676.30 0.3167
676.40 0.3165
676.50 0.3163
676.60 0.3162
676.70 0.316
676.80 0.3158
676.90 0.3156
677.00 0.3155
677.10 0.3153
677.20 0.3151
677.30 0.3149
677.40 0.3147
677.50 0.3146
677.60 0.3144
677.70 0.3142
677.80 0.314
677.90 0.3139
678.00 0.3137
678.10 0.3135
678.20 0.3133
678.30 0.3132
678.40 0.313
678.50 0.3128
678.60 0.3126
678.70 0.3125
678.80 0.3123
678.90 0.3121
679.00 0.3119
679.10 0.3118
679.20 0.3116
679.30 0.3114
679.40 0.3112
679.50 0.3111
679.60 0.3109
679.70 0.3107
679.80 0.3105
679.90 0.3104
680.00 0.3102
680.10 0.31
680.20 0.3098
680.30 0.3097
680.40 0.3095
680.50 0.3093
680.60 0.3091
680.70 0.309
680.80 0.3088
680.90 0.3086
681.00 0.3084
681.10 0.3083
681.20 0.3081
681.30 0.3079
681.40 0.3078
681.50 0.3076
681.60 0.3074
681.70 0.3072
681.80 0.3071
681.90 0.3069
682.00 0.3067
682.10 0.3065
682.20 0.3064
682.30 0.3062
682.40 0.306
682.50 0.3059
682.60 0.3057
682.70 0.3055
682.80 0.3053
682.90 0.3052
683.00 0.305
683.10 0.3048
683.20 0.3047
683.30 0.3045
683.40 0.3043
683.50 0.3041
683.60 0.304
683.70 0.3038
683.80 0.3036
683.90 0.3035
684.00 0.3033
684.10 0.3031
684.20 0.303
684.30 0.3028
684.40 0.3026
684.50 0.3025
684.60 0.3023
684.70 0.3021
684.80 0.3019
684.90 0.3018
685.00 0.3016
685.10 0.3014
685.20 0.3013
685.30 0.3011
685.40 0.3009
685.50 0.3008
685.60 0.3006
685.70 0.3004
685.80 0.3003
685.90 0.3001
686.00 0.2999
686.10 0.2998
686.20 0.2996
686.30 0.2994
686.40 0.2993
686.50 0.2991
686.60 0.2989
686.70 0.2988
686.80 0.2986
686.90 0.2984
687.00 0.2983
687.10 0.2981
687.20 0.2979
687.30 0.2978
687.40 0.2976
687.50 0.2974
687.60 0.2973
687.70 0.2971
687.80 0.2969
687.90 0.2968
688.00 0.2966
688.10 0.2964
688.20 0.2963
688.30 0.2961
688.40 0.2959
688.50 0.2958
688.60 0.2956
688.70 0.2955
688.80 0.2953
688.90 0.2951
689.00 0.295
689.10 0.2948
689.20 0.2946
689.30 0.2945
689.40 0.2943
689.50 0.2941
689.60 0.294
689.70 0.2938
689.80 0.2937
689.90 0.2935
690.00 0.2933
690.10 0.2932
690.20 0.293
690.30 0.2928
690.40 0.2927
690.50 0.2925
690.60 0.2924
690.70 0.2922
690.80 0.292
690.90 0.2919
691.00 0.2917
691.10 0.2916
691.20 0.2914
691.30 0.2912
691.40 0.2911
691.50 0.2909
691.60 0.2907
691.70 0.2906
691.80 0.2904
691.90 0.2903
692.00 0.2901
692.10 0.2899
692.20 0.2898
692.30 0.2896
692.40 0.2895
692.50 0.2893
692.60 0.2891
692.70 0.289
692.80 0.2888
692.90 0.2887
693.00 0.2885
693.10 0.2883
693.20 0.2882
693.30 0.288
693.40 0.2879
693.50 0.2877
693.60 0.2875
693.70 0.2874
693.80 0.2872
693.90 0.2871
694.00 0.2869
694.10 0.2868
694.20 0.2866
694.30 0.2864
694.40 0.2863
694.50 0.2861
694.60 0.286
694.70 0.2858
694.80 0.2856
694.90 0.2855
695.00 0.2853
695.10 0.2852
695.20 0.285
695.30 0.2849
695.40 0.2847
695.50 0.2845
695.60 0.2844
695.70 0.2842
695.80 0.2841
695.90 0.2839
696.00 0.2838
696.10 0.2836
696.20 0.2835
696.30 0.2833
696.40 0.2831
696.50 0.283
696.60 0.2828
696.70 0.2827
696.80 0.2825
696.90 0.2824
697.00 0.2822
697.10 0.2821
697.20 0.2819
697.30 0.2817
697.40 0.2816
697.50 0.2814
697.60 0.2813
697.70 0.2811
697.80 0.281
697.90 0.2808
698.00 0.2807
698.10 0.2805
698.20 0.2804
698.30 0.2802
698.40 0.28
698.50 0.2799
698.60 0.2797
698.70 0.2796
698.80 0.2794
698.90 0.2793
699.00 0.2791
699.10 0.279
699.20 0.2788
699.30 0.2787
699.40 0.2785
699.50 0.2784
699.60 0.2782
699.70 0.2781
699.80 0.2779
699.90 0.2777
700.00 0.2776
700.10 0.2774
700.20 0.2773
700.30 0.2771
700.40 0.277
700.50 0.2768
700.60 0.2767
700.70 0.2765
700.80 0.2764
700.90 0.2762
701.00 0.2761
701.10 0.2759
701.20 0.2758
701.30 0.2756
701.40 0.2755
701.50 0.2753
701.60 0.2752
701.70 0.275
701.80 0.2749
701.90 0.2747
702.00 0.2746
702.10 0.2744
702.20 0.2743
702.30 0.2741
702.40 0.274
702.50 0.2738
702.60 0.2737
702.70 0.2735
702.80 0.2734
702.90 0.2732
703.00 0.2731
703.10 0.2729
703.20 0.2728
703.30 0.2726
703.40 0.2725
703.50 0.2723
703.60 0.2722
703.70 0.272
703.80 0.2719
703.90 0.2718
704.00 0.2716
704.10 0.2715
704.20 0.2713
704.30 0.2712
704.40 0.271
704.50 0.2709
704.60 0.2707
704.70 0.2706
704.80 0.2704
704.90 0.2703
705.00 0.2701
705.10 0.27
705.20 0.2698
705.30 0.2697
705.40 0.2695
705.50 0.2694
705.60 0.2692
705.70 0.2691
705.80 0.269
705.90 0.2688
706.00 0.2687
706.10 0.2685
706.20 0.2684
706.30 0.2682
706.40 0.2681
706.50 0.2679
706.60 0.2678
706.70 0.2676
706.80 0.2675
706.90 0.2674
707.00 0.2672
707.10 0.2671
707.20 0.2669
707.30 0.2668
707.40 0.2666
707.50 0.2665
707.60 0.2663
707.70 0.2662
707.80 0.2661
707.90 0.2659
708.00 0.2658
708.10 0.2656
708.20 0.2655
708.30 0.2653
708.40 0.2652
708.50 0.265
708.60 0.2649
708.70 0.2648
708.80 0.2646
708.90 0.2645
709.00 0.2643
709.10 0.2642
709.20 0.264
709.30 0.2639
709.40 0.2638
709.50 0.2636
709.60 0.2635
709.70 0.2633
709.80 0.2632
709.90 0.263
710.00 0.2629
710.10 0.2628
710.20 0.2626
710.30 0.2625
710.40 0.2623
710.50 0.2622
710.60 0.2621
710.70 0.2619
710.80 0.2618
710.90 0.2616
711.00 0.2615
711.10 0.2613
711.20 0.2612
711.30 0.2611
711.40 0.2609
711.50 0.2608
711.60 0.2606
711.70 0.2605
711.80 0.2604
711.90 0.2602
712.00 0.2601
712.10 0.2599
712.20 0.2598
712.30 0.2597
712.40 0.2595
712.50 0.2594
712.60 0.2592
712.70 0.2591
712.80 0.259
712.90 0.2588
713.00 0.2587
713.10 0.2585
713.20 0.2584
713.30 0.2583
713.40 0.2581
713.50 0.258
713.60 0.2579
713.70 0.2577
713.80 0.2576
713.90 0.2574
714.00 0.2573
714.10 0.2572
714.20 0.257
714.30 0.2569
714.40 0.2567
714.50 0.2566
714.60 0.2565
714.70 0.2563
714.80 0.2562
714.90 0.2561
715.00 0.2559
715.10 0.2558
715.20 0.2556
715.30 0.2555
715.40 0.2554
715.50 0.2552
715.60 0.2551
715.70 0.255
715.80 0.2548
715.90 0.2547
716.00 0.2546
716.10 0.2544
716.20 0.2543
716.30 0.2541
716.40 0.254
716.50 0.2539
716.60 0.2537
716.70 0.2536
716.80 0.2535
716.90 0.2533
717.00 0.2532
717.10 0.2531
717.20 0.2529
717.30 0.2528
717.40 0.2527
717.50 0.2525
717.60 0.2524
717.70 0.2522
717.80 0.2521
717.90 0.252
718.00 0.2518
718.10 0.2517
718.20 0.2516
718.30 0.2514
718.40 0.2513
718.50 0.2512
718.60 0.251
718.70 0.2509
718.80 0.2508
718.90 0.2506
719.00 0.2505
719.10 0.2504
719.20 0.2502
719.30 0.2501
719.40 0.25
719.50 0.2498
719.60 0.2497
719.70 0.2496
719.80 0.2494
719.90 0.2493
720.00 0.2492
720.10 0.249
720.20 0.2489
720.30 0.2488
720.40 0.2486
720.50 0.2485
720.60 0.2484
720.70 0.2482
720.80 0.2481
720.90 0.248
721.00 0.2478
721.10 0.2477
721.20 0.2476
721.30 0.2474
721.40 0.2473
721.50 0.2472
721.60 0.2471
721.70 0.2469
721.80 0.2468
721.90 0.2467
722.00 0.2465
722.10 0.2464
722.20 0.2463
722.30 0.2461
722.40 0.246
722.50 0.2459
722.60 0.2457
722.70 0.2456
722.80 0.2455
722.90 0.2454
723.00 0.2452
723.10 0.2451
723.20 0.245
723.30 0.2448
723.40 0.2447
723.50 0.2446
723.60 0.2444
723.70 0.2443
723.80 0.2442
723.90 0.2441
724.00 0.2439
724.10 0.2438
724.20 0.2437
724.30 0.2435
724.40 0.2434
724.50 0.2433
724.60 0.2431
724.70 0.243
724.80 0.2429
724.90 0.2428
725.00 0.2426
725.10 0.2425
725.20 0.2424
725.30 0.2422
725.40 0.2421
725.50 0.242
725.60 0.2419
725.70 0.2417
725.80 0.2416
725.90 0.2415
726.00 0.2414
726.10 0.2412
726.20 0.2411
726.30 0.241
726.40 0.2408
726.50 0.2407
726.60 0.2406
726.70 0.2405
726.80 0.2403
726.90 0.2402
727.00 0.2401
727.10 0.24
727.20 0.2398
727.30 0.2397
727.40 0.2396
727.50 0.2395
727.60 0.2393
727.70 0.2392
727.80 0.2391
727.90 0.2389
728.00 0.2388
728.10 0.2387
728.20 0.2386
728.30 0.2384
728.40 0.2383
728.50 0.2382
728.60 0.2381
728.70 0.2379
728.80 0.2378
728.90 0.2377
729.00 0.2376
729.10 0.2374
729.20 0.2373
729.30 0.2372
729.40 0.2371
729.50 0.2369
729.60 0.2368
729.70 0.2367
729.80 0.2366
729.90 0.2364
730.00 0.2363
730.10 0.2362
730.20 0.2361
730.30 0.2359
730.40 0.2358
730.50 0.2357
730.60 0.2356
730.70 0.2355
730.80 0.2353
730.90 0.2352
731.00 0.2351
731.10 0.235
731.20 0.2348
731.30 0.2347
731.40 0.2346
731.50 0.2345
731.60 0.2344
731.70 0.2342
731.80 0.2341
731.90 0.234
732.00 0.2339
732.10 0.2337
732.20 0.2336
732.30 0.2335
732.40 0.2334
732.50 0.2333
732.60 0.2331
732.70 0.233
732.80 0.2329
732.90 0.2328
733.00 0.2326
733.10 0.2325
733.20 0.2324
733.30 0.2323
733.40 0.2322
733.50 0.232
733.60 0.2319
733.70 0.2318
733.80 0.2317
733.90 0.2316
734.00 0.2314
734.10 0.2313
734.20 0.2312
734.30 0.2311
734.40 0.2309
734.50 0.2308
734.60 0.2307
734.70 0.2306
734.80 0.2305
734.90 0.2303
735.00 0.2302
735.10 0.2301
735.20 0.23
735.30 0.2299
735.40 0.2297
735.50 0.2296
735.60 0.2295
735.70 0.2294
735.80 0.2293
735.90 0.2291
736.00 0.229
736.10 0.2289
736.20 0.2288
736.30 0.2287
736.40 0.2285
736.50 0.2284
736.60 0.2283
736.70 0.2282
736.80 0.2281
736.90 0.228
737.00 0.2278
737.10 0.2277
737.20 0.2276
737.30 0.2275
737.40 0.2274
737.50 0.2272
737.60 0.2271
737.70 0.227
737.80 0.2269
737.90 0.2268
738.00 0.2266
738.10 0.2265
738.20 0.2264
738.30 0.2263
738.40 0.2262
738.50 0.2261
738.60 0.2259
738.70 0.2258
738.80 0.2257
738.90 0.2256
739.00 0.2255
739.10 0.2253
739.20 0.2252
739.30 0.2251
739.40 0.225
739.50 0.2249
739.60 0.2248
739.70 0.2246
739.80 0.2245
739.90 0.2244
740.00 0.2243
740.10 0.2242
740.20 0.2241
740.30 0.2239
740.40 0.2238
740.50 0.2237
740.60 0.2236
740.70 0.2235
740.80 0.2234
740.90 0.2232
741.00 0.2231
741.10 0.223
741.20 0.2229
741.30 0.2228
741.40 0.2227
741.50 0.2226
741.60 0.2224
741.70 0.2223
741.80 0.2222
741.90 0.2221
742.00 0.222
742.10 0.2219
742.20 0.2218
742.30 0.2216
742.40 0.2215
742.50 0.2214
742.60 0.2213
742.70 0.2212
742.80 0.2211
742.90 0.221
743.00 0.2208
743.10 0.2207
743.20 0.2206
743.30 0.2205
743.40 0.2204
743.50 0.2203
743.60 0.2202
743.70 0.22
743.80 0.2199
743.90 0.2198
744.00 0.2197
744.10 0.2196
744.20 0.2195
744.30 0.2194
744.40 0.2193
744.50 0.2191
744.60 0.219
744.70 0.2189
744.80 0.2188
744.90 0.2187
745.00 0.2186
745.10 0.2185
745.20 0.2184
745.30 0.2182
745.40 0.2181
745.50 0.218
745.60 0.2179
745.70 0.2178
745.80 0.2177
745.90 0.2176
746.00 0.2175
746.10 0.2173
746.20 0.2172
746.30 0.2171
746.40 0.217
746.50 0.2169
746.60 0.2168
746.70 0.2167
746.80 0.2166
746.90 0.2164
747.00 0.2163
747.10 0.2162
747.20 0.2161
747.30 0.216
747.40 0.2159
747.50 0.2158
747.60 0.2157
747.70 0.2156
747.80 0.2154
747.90 0.2153
748.00 0.2152
748.10 0.2151
748.20 0.215
748.30 0.2149
748.40 0.2148
748.50 0.2147
748.60 0.2146
748.70 0.2144
748.80 0.2143
748.90 0.2142
749.00 0.2141
749.10 0.214
749.20 0.2139
749.30 0.2138
749.40 0.2137
749.50 0.2136
749.60 0.2134
749.70 0.2133
749.80 0.2132
749.90 0.2131
750.00 0.213
750.10 0.2129
750.20 0.2128
750.30 0.2127
750.40 0.2126
750.50 0.2125
750.60 0.2124
750.70 0.2123
750.80 0.2121
750.90 0.212
751.00 0.2119
751.10 0.2118
751.20 0.2117
751.30 0.2116
751.40 0.2115
751.50 0.2114
751.60 0.2113
751.70 0.2112
751.80 0.2111
751.90 0.211
752.00 0.2109
752.10 0.2107
752.20 0.2106
752.30 0.2105
752.40 0.2104
752.50 0.2103
752.60 0.2102
752.70 0.2101
752.80 0.21
752.90 0.2099
753.00 0.2098
753.10 0.2097
753.20 0.2096
753.30 0.2095
753.40 0.2094
753.50 0.2093
753.60 0.2091
753.70 0.209
753.80 0.2089
753.90 0.2088
754.00 0.2087
754.10 0.2086
754.20 0.2085
754.30 0.2084
754.40 0.2083
754.50 0.2082
754.60 0.2081
754.70 0.208
754.80 0.2079
754.90 0.2078
755.00 0.2077
755.10 0.2076
755.20 0.2074
755.30 0.2073
755.40 0.2072
755.50 0.2071
755.60 0.207
755.70 0.2069
755.80 0.2068
755.90 0.2067
756.00 0.2066
756.10 0.2065
756.20 0.2064
756.30 0.2063
756.40 0.2062
756.50 0.2061
756.60 0.206
756.70 0.2059
756.80 0.2058
756.90 0.2057
757.00 0.2056
757.10 0.2055
757.20 0.2053
757.30 0.2052
757.40 0.2051
757.50 0.205
757.60 0.2049
757.70 0.2048
757.80 0.2047
757.90 0.2046
758.00 0.2045
758.10 0.2044
758.20 0.2043
758.30 0.2042
758.40 0.2041
758.50 0.204
758.60 0.2039
758.70 0.2038
758.80 0.2037
758.90 0.2036
759.00 0.2035
759.10 0.2034
759.20 0.2033
759.30 0.2032
759.40 0.2031
759.50 0.203
759.60 0.2028
759.70 0.2027
759.80 0.2026
759.90 0.2025
760.00 0.2024
760.10 0.2023
760.20 0.2022
760.30 0.2021
760.40 0.202
760.50 0.2019
760.60 0.2018
760.70 0.2017
760.80 0.2016
760.90 0.2015
761.00 0.2014
761.10 0.2013
761.20 0.2012
761.30 0.2011
761.40 0.201
761.50 0.2009
761.60 0.2008
761.70 0.2007
761.80 0.2006
761.90 0.2005
762.00 0.2004
762.10 0.2003
762.20 0.2002
762.30 0.2001
762.40 0.2
762.50 0.1999
762.60 0.1998
762.70 0.1997
762.80 0.1996
762.90 0.1995
763.00 0.1994
763.10 0.1993
763.20 0.1992
763.30 0.1991
763.40 0.199
763.50 0.1989
763.60 0.1988
763.70 0.1987
763.80 0.1986
763.90 0.1985
764.00 0.1984
764.10 0.1983
764.20 0.1982
764.30 0.1981
764.40 0.198
764.50 0.1979
764.60 0.1978
764.70 0.1977
764.80 0.1976
764.90 0.1975
765.00 0.1974
765.10 0.1973
765.20 0.1972
765.30 0.1971
765.40 0.197
765.50 0.1969
765.60 0.1968
765.70 0.1967
765.80 0.1966
765.90 0.1965
766.00 0.1964
766.10 0.1963
766.20 0.1962
766.30 0.1961
766.40 0.196
766.50 0.1959
766.60 0.1958
766.70 0.1957
766.80 0.1956
766.90 0.1955
767.00 0.1954
767.10 0.1953
767.20 0.1952
767.30 0.1951
767.40 0.195
767.50 0.1949
767.60 0.1949
767.70 0.1948
767.80 0.1947
767.90 0.1946
768.00 0.1945
768.10 0.1944
768.20 0.1943
768.30 0.1942
768.40 0.1941
768.50 0.194
768.60 0.1939
768.70 0.1938
768.80 0.1937
768.90 0.1936
769.00 0.1935
769.10 0.1934
769.20 0.1933
769.30 0.1932
769.40 0.1931
769.50 0.193
769.60 0.1929
769.70 0.1928
769.80 0.1927
769.90 0.1926
770.00 0.1925
770.10 0.1924
770.20 0.1923
770.30 0.1922
770.40 0.1921
770.50 0.192
770.60 0.1919
770.70 0.1918
770.80 0.1917
770.90 0.1917
771.00 0.1916
771.10 0.1915
771.20 0.1914
771.30 0.1913
771.40 0.1912
771.50 0.1911
771.60 0.191
771.70 0.1909
771.80 0.1908
771.90 0.1907
772.00 0.1906
772.10 0.1905
772.20 0.1904
772.30 0.1903
772.40 0.1902
772.50 0.1901
772.60 0.19
772.70 0.19
772.80 0.1899
772.90 0.1898
773.00 0.1897
773.10 0.1896
773.20 0.1895
773.30 0.1894
773.40 0.1893
773.50 0.1892
773.60 0.1891
773.70 0.189
773.80 0.1889
773.90 0.1888
774.00 0.1887
774.10 0.1886
774.20 0.1885
774.30 0.1885
774.40 0.1884
774.50 0.1883
774.60 0.1882
774.70 0.1881
774.80 0.188
774.90 0.1879
775.00 0.1878
775.10 0.1877
775.20 0.1876
775.30 0.1875
775.40 0.1874
775.50 0.1873
775.60 0.1872
775.70 0.1871
775.80 0.1871
775.90 0.187
776.00 0.1869
776.10 0.1868
776.20 0.1867
776.30 0.1866
776.40 0.1865
776.50 0.1864
776.60 0.1863
776.70 0.1862
776.80 0.1861
776.90 0.186
777.00 0.1859
777.10 0.1858
777.20 0.1858
777.30 0.1857
777.40 0.1856
777.50 0.1855
777.60 0.1854
777.70 0.1853
777.80 0.1852
777.90 0.1851
778.00 0.185
778.10 0.1849
778.20 0.1848
778.30 0.1847
778.40 0.1847
778.50 0.1846
778.60 0.1845
778.70 0.1844
778.80 0.1843
778.90 0.1842
779.00 0.1841
779.10 0.184
779.20 0.1839
779.30 0.1838
779.40 0.1837
779.50 0.1836
779.60 0.1836
779.70 0.1835
779.80 0.1834
779.90 0.1833
780.00 0.1832
780.10 0.1831
780.20 0.183
780.30 0.1829
780.40 0.1828
780.50 0.1827
780.60 0.1827
780.70 0.1826
780.80 0.1825
780.90 0.1824
781.00 0.1823
781.10 0.1822
781.20 0.1821
781.30 0.182
781.40 0.1819
781.50 0.1818
781.60 0.1818
781.70 0.1817
781.80 0.1816
781.90 0.1815
782.00 0.1814
782.10 0.1813
782.20 0.1812
782.30 0.1811
782.40 0.181
782.50 0.181
782.60 0.1809
782.70 0.1808
782.80 0.1807
782.90 0.1806
783.00 0.1805
783.10 0.1804
783.20 0.1803
783.30 0.1803
783.40 0.1802
783.50 0.1801
783.60 0.18
783.70 0.1799
783.80 0.1798
783.90 0.1797
784.00 0.1796
784.10 0.1795
784.20 0.1795
784.30 0.1794
784.40 0.1793
784.50 0.1792
784.60 0.1791
784.70 0.179
784.80 0.1789
784.90 0.1788
785.00 0.1788
785.10 0.1787
785.20 0.1786
785.30 0.1785
785.40 0.1784
785.50 0.1783
785.60 0.1782
785.70 0.1781
785.80 0.1781
785.90 0.178
786.00 0.1779
786.10 0.1778
786.20 0.1777
786.30 0.1776
786.40 0.1775
786.50 0.1774
786.60 0.1774
786.70 0.1773
786.80 0.1772
786.90 0.1771
787.00 0.177
787.10 0.1769
787.20 0.1768
787.30 0.1768
787.40 0.1767
787.50 0.1766
787.60 0.1765
787.70 0.1764
787.80 0.1763
787.90 0.1762
788.00 0.1761
788.10 0.1761
788.20 0.176
788.30 0.1759
788.40 0.1758
788.50 0.1757
788.60 0.1756
788.70 0.1755
788.80 0.1755
788.90 0.1754
789.00 0.1753
789.10 0.1752
789.20 0.1751
789.30 0.175
789.40 0.1749
789.50 0.1749
789.60 0.1748
789.70 0.1747
789.80 0.1746
789.90 0.1745
790.00 0.1744
790.10 0.1743
790.20 0.1743
790.30 0.1742
790.40 0.1741
790.50 0.174
790.60 0.1739
790.70 0.1738
790.80 0.1737
790.90 0.1737
791.00 0.1736
791.10 0.1735
791.20 0.1734
791.30 0.1733
791.40 0.1732
791.50 0.1732
791.60 0.1731
791.70 0.173
791.80 0.1729
791.90 0.1728
792.00 0.1727
792.10 0.1727
792.20 0.1726
792.30 0.1725
792.40 0.1724
792.50 0.1723
792.60 0.1722
792.70 0.1722
792.80 0.1721
792.90 0.172
793.00 0.1719
793.10 0.1718
793.20 0.1717
793.30 0.1717
793.40 0.1716
793.50 0.1715
793.60 0.1714
793.70 0.1713
793.80 0.1712
793.90 0.1712
794.00 0.1711
794.10 0.171
794.20 0.1709
794.30 0.1708
794.40 0.1708
794.50 0.1707
794.60 0.1706
794.70 0.1705
794.80 0.1704
794.90 0.1703
795.00 0.1703
795.10 0.1702
795.20 0.1701
795.30 0.17
795.40 0.1699
795.50 0.1698
795.60 0.1698
795.70 0.1697
795.80 0.1696
795.90 0.1695
796.00 0.1694
796.10 0.1694
796.20 0.1693
796.30 0.1692
796.40 0.1691
796.50 0.169
796.60 0.1689
796.70 0.1689
796.80 0.1688
796.90 0.1687
797.00 0.1686
797.10 0.1685
797.20 0.1685
797.30 0.1684
797.40 0.1683
797.50 0.1682
797.60 0.1681
797.70 0.168
797.80 0.168
797.90 0.1679
798.00 0.1678
798.10 0.1677
798.20 0.1676
798.30 0.1676
798.40 0.1675
798.50 0.1674
798.60 0.1673
798.70 0.1672
798.80 0.1671
798.90 0.1671
799.00 0.167
799.10 0.1669
799.20 0.1668
799.30 0.1667
799.40 0.1667
799.50 0.1666
799.60 0.1665
799.70 0.1664
799.80 0.1663
799.90 0.1663
800.00 0.1662
800.10 0.1661
800.20 0.166
800.30 0.1659
800.40 0.1659
800.50 0.1658
800.60 0.1657
800.70 0.1656
800.80 0.1655
800.90 0.1655
801.00 0.1654
801.10 0.1653
801.20 0.1652
801.30 0.1651
801.40 0.1651
801.50 0.165
801.60 0.1649
801.70 0.1648
801.80 0.1648
801.90 0.1647
802.00 0.1646
802.10 0.1645
802.20 0.1644
802.30 0.1644
802.40 0.1643
802.50 0.1642
802.60 0.1641
802.70 0.164
802.80 0.164
802.90 0.1639
803.00 0.1638
803.10 0.1637
803.20 0.1637
803.30 0.1636
803.40 0.1635
803.50 0.1634
803.60 0.1633
803.70 0.1633
803.80 0.1632
803.90 0.1631
804.00 0.163
804.10 0.163
804.20 0.1629
804.30 0.1628
804.40 0.1627
804.50 0.1626
804.60 0.1626
804.70 0.1625
804.80 0.1624
804.90 0.1623
805.00 0.1623
805.10 0.1622
805.20 0.1621
805.30 0.162
805.40 0.1619
805.50 0.1619
805.60 0.1618
805.70 0.1617
805.80 0.1616
805.90 0.1616
806.00 0.1615
806.10 0.1614
806.20 0.1613
806.30 0.1612
806.40 0.1612
806.50 0.1611
806.60 0.161
806.70 0.1609
806.80 0.1609
806.90 0.1608
807.00 0.1607
807.10 0.1606
807.20 0.1606
807.30 0.1605
807.40 0.1604
807.50 0.1603
807.60 0.1602
807.70 0.1602
807.80 0.1601
807.90 0.16
808.00 0.1599
808.10 0.1599
808.20 0.1598
808.30 0.1597
808.40 0.1596
808.50 0.1596
808.60 0.1595
808.70 0.1594
808.80 0.1593
808.90 0.1593
809.00 0.1592
809.10 0.1591
809.20 0.159
809.30 0.1589
809.40 0.1589
809.50 0.1588
809.60 0.1587
809.70 0.1586
809.80 0.1586
809.90 0.1585
810.00 0.1584
810.10 0.1583
810.20 0.1583
810.30 0.1582
810.40 0.1581
810.50 0.158
810.60 0.158
810.70 0.1579
810.80 0.1578
810.90 0.1577
811.00 0.1577
811.10 0.1576
811.20 0.1575
811.30 0.1574
811.40 0.1574
811.50 0.1573
811.60 0.1572
811.70 0.1571
811.80 0.1571
811.90 0.157
812.00 0.1569
812.10 0.1569
812.20 0.1568
812.30 0.1567
812.40 0.1566
812.50 0.1566
812.60 0.1565
812.70 0.1564
812.80 0.1563
812.90 0.1563
813.00 0.1562
813.10 0.1561
813.20 0.156
813.30 0.156
813.40 0.1559
813.50 0.1558
813.60 0.1557
813.70 0.1557
813.80 0.1556
813.90 0.1555
814.00 0.1555
814.10 0.1554
814.20 0.1553
814.30 0.1552
814.40 0.1552
814.50 0.1551
814.60 0.155
814.70 0.1549
814.80 0.1549
814.90 0.1548
815.00 0.1547
815.10 0.1546
815.20 0.1546
815.30 0.1545
815.40 0.1544
815.50 0.1544
815.60 0.1543
815.70 0.1542
815.80 0.1541
815.90 0.1541
816.00 0.154
816.10 0.1539
816.20 0.1538
816.30 0.1538
816.40 0.1537
816.50 0.1536
816.60 0.1536
816.70 0.1535
816.80 0.1534
816.90 0.1533
817.00 0.1533
817.10 0.1532
817.20 0.1531
817.30 0.153
817.40 0.153
817.50 0.1529
817.60 0.1528
817.70 0.1528
817.80 0.1527
817.90 0.1526
818.00 0.1525
818.10 0.1525
818.20 0.1524
818.30 0.1523
818.40 0.1522
818.50 0.1522
818.60 0.1521
818.70 0.152
818.80 0.152
818.90 0.1519
819.00 0.1518
819.10 0.1517
819.20 0.1517
819.30 0.1516
819.40 0.1515
819.50 0.1515
819.60 0.1514
819.70 0.1513
819.80 0.1512
819.90 0.1512
820.00 0.1511
820.10 0.151
820.20 0.151
820.30 0.1509
820.40 0.1508
820.50 0.1507
820.60 0.1507
820.70 0.1506
820.80 0.1505
820.90 0.1505
821.00 0.1504
821.10 0.1503
821.20 0.1503
821.30 0.1502
821.40 0.1501
821.50 0.15
821.60 0.15
821.70 0.1499
821.80 0.1498
821.90 0.1498
822.00 0.1497
822.10 0.1496
822.20 0.1495
822.30 0.1495
822.40 0.1494
822.50 0.1493
822.60 0.1493
822.70 0.1492
822.80 0.1491
822.90 0.1491
823.00 0.149
823.10 0.1489
823.20 0.1489
823.30 0.1488
823.40 0.1487
823.50 0.1486
823.60 0.1486
823.70 0.1485
823.80 0.1484
823.90 0.1484
824.00 0.1483
824.10 0.1482
824.20 0.1482
824.30 0.1481
824.40 0.148
824.50 0.1479
824.60 0.1479
824.70 0.1478
824.80 0.1477
824.90 0.1477
825.00 0.1476
825.10 0.1475
825.20 0.1475
825.30 0.1474
825.40 0.1473
825.50 0.1473
825.60 0.1472
825.70 0.1471
825.80 0.1471
825.90 0.147
826.00 0.1469
826.10 0.1468
826.20 0.1468
826.30 0.1467
826.40 0.1466
826.50 0.1466
826.60 0.1465
826.70 0.1464
826.80 0.1464
826.90 0.1463
827.00 0.1462
827.10 0.1462
827.20 0.1461
827.30 0.146
827.40 0.146
827.50 0.1459
827.60 0.1458
827.70 0.1458
827.80 0.1457
827.90 0.1456
828.00 0.1455
828.10 0.1455
828.20 0.1454
828.30 0.1453
828.40 0.1453
828.50 0.1452
828.60 0.1451
828.70 0.1451
828.80 0.145
828.90 0.1449
829.00 0.1449
829.10 0.1448
829.20 0.1447
829.30 0.1447
829.40 0.1446
829.50 0.1445
829.60 0.1445
829.70 0.1444
829.80 0.1443
829.90 0.1443
830.00 0.1442
830.10 0.1441
830.20 0.1441
830.30 0.144
830.40 0.1439
830.50 0.1439
830.60 0.1438
830.70 0.1437
830.80 0.1437
830.90 0.1436
831.00 0.1435
831.10 0.1435
831.20 0.1434
831.30 0.1433
831.40 0.1433
831.50 0.1432
831.60 0.1431
831.70 0.1431
831.80 0.143
831.90 0.1429
832.00 0.1429
832.10 0.1428
832.20 0.1427
832.30 0.1427
832.40 0.1426
832.50 0.1425
832.60 0.1425
832.70 0.1424
832.80 0.1423
832.90 0.1423
833.00 0.1422
833.10 0.1421
833.20 0.1421
833.30 0.142
833.40 0.1419
833.50 0.1419
833.60 0.1418
833.70 0.1417
833.80 0.1417
833.90 0.1416
834.00 0.1415
834.10 0.1415
834.20 0.1414
834.30 0.1413
834.40 0.1413
834.50 0.1412
834.60 0.1411
834.70 0.1411
834.80 0.141
834.90 0.1409
835.00 0.1409
835.10 0.1408
835.20 0.1407
835.30 0.1407
835.40 0.1406
835.50 0.1406
835.60 0.1405
835.70 0.1404
835.80 0.1404
835.90 0.1403
836.00 0.1402
836.10 0.1402
836.20 0.1401
836.30 0.14
836.40 0.14
836.50 0.1399
836.60 0.1398
836.70 0.1398
836.80 0.1397
836.90 0.1396
837.00 0.1396
837.10 0.1395
837.20 0.1394
837.30 0.1394
837.40 0.1393
837.50 0.1392
837.60 0.1392
837.70 0.1391
837.80 0.1391
837.90 0.139
838.00 0.1389
838.10 0.1389
838.20 0.1388
838.30 0.1387
838.40 0.1387
838.50 0.1386
838.60 0.1385
838.70 0.1385
838.80 0.1384
838.90 0.1384
839.00 0.1383
839.10 0.1382
839.20 0.1382
839.30 0.1381
839.40 0.138
839.50 0.138
839.60 0.1379
839.70 0.1378
839.80 0.1378
839.90 0.1377
840.00 0.1377
840.10 0.1376
840.20 0.1375
840.30 0.1375
840.40 0.1374
840.50 0.1373
840.60 0.1373
840.70 0.1372
840.80 0.1371
840.90 0.1371
841.00 0.137
841.10 0.137
841.20 0.1369
841.30 0.1368
841.40 0.1368
841.50 0.1367
841.60 0.1366
841.70 0.1366
841.80 0.1365
841.90 0.1364
842.00 0.1364
842.10 0.1363
842.20 0.1363
842.30 0.1362
842.40 0.1361
842.50 0.1361
842.60 0.136
842.70 0.1359
842.80 0.1359
842.90 0.1358
843.00 0.1358
843.10 0.1357
843.20 0.1356
843.30 0.1356
843.40 0.1355
843.50 0.1355
843.60 0.1354
843.70 0.1353
843.80 0.1353
843.90 0.1352
844.00 0.1351
844.10 0.1351
844.20 0.135
844.30 0.135
844.40 0.1349
844.50 0.1348
844.60 0.1348
844.70 0.1347
844.80 0.1346
844.90 0.1346
845.00 0.1345
845.10 0.1345
845.20 0.1344
845.30 0.1343
845.40 0.1343
845.50 0.1342
845.60 0.1342
845.70 0.1341
845.80 0.134
845.90 0.134
846.00 0.1339
846.10 0.1338
846.20 0.1338
846.30 0.1337
846.40 0.1337
846.50 0.1336
846.60 0.1335
846.70 0.1335
846.80 0.1334
846.90 0.1334
847.00 0.1333
847.10 0.1332
847.20 0.1332
847.30 0.1331
847.40 0.133
847.50 0.133
847.60 0.1329
847.70 0.1329
847.80 0.1328
847.90 0.1327
848.00 0.1327
848.10 0.1326
848.20 0.1326
848.30 0.1325
848.40 0.1324
848.50 0.1324
848.60 0.1323
848.70 0.1323
848.80 0.1322
848.90 0.1321
849.00 0.1321
849.10 0.132
849.20 0.132
849.30 0.1319
849.40 0.1318
849.50 0.1318
849.60 0.1317
849.70 0.1317
849.80 0.1316
849.90 0.1315
850.00 0.1315
850.10 0.1314
850.20 0.1314
850.30 0.1313
850.40 0.1312
850.50 0.1312
850.60 0.1311
850.70 0.1311
850.80 0.131
850.90 0.1309
851.00 0.1309
851.10 0.1308
851.20 0.1308
851.30 0.1307
851.40 0.1306
851.50 0.1306
851.60 0.1305
851.70 0.1305
851.80 0.1304
851.90 0.1303
852.00 0.1303
852.10 0.1302
852.20 0.1302
852.30 0.1301
852.40 0.1301
852.50 0.13
852.60 0.1299
852.70 0.1299
852.80 0.1298
852.90 0.1298
853.00 0.1297
853.10 0.1296
853.20 0.1296
853.30 0.1295
853.40 0.1295
853.50 0.1294
853.60 0.1294
853.70 0.1293
853.80 0.1292
853.90 0.1292
854.00 0.1291
854.10 0.1291
854.20 0.129
854.30 0.1289
854.40 0.1289
854.50 0.1288
854.60 0.1288
854.70 0.1287
854.80 0.1287
854.90 0.1286
855.00 0.1285
855.10 0.1285
855.20 0.1284
855.30 0.1284
855.40 0.1283
855.50 0.1282
855.60 0.1282
855.70 0.1281
855.80 0.1281
855.90 0.128
856.00 0.128
856.10 0.1279
856.20 0.1278
856.30 0.1278
856.40 0.1277
856.50 0.1277
856.60 0.1276
856.70 0.1276
856.80 0.1275
856.90 0.1274
857.00 0.1274
857.10 0.1273
857.20 0.1273
857.30 0.1272
857.40 0.1272
857.50 0.1271
857.60 0.127
857.70 0.127
857.80 0.1269
857.90 0.1269
858.00 0.1268
858.10 0.1268
858.20 0.1267
858.30 0.1266
858.40 0.1266
858.50 0.1265
858.60 0.1265
858.70 0.1264
858.80 0.1264
858.90 0.1263
859.00 0.1263
859.10 0.1262
859.20 0.1261
859.30 0.1261
859.40 0.126
859.50 0.126
859.60 0.1259
859.70 0.1259
859.80 0.1258
859.90 0.1257
860.00 0.1257
860.10 0.1256
860.20 0.1256
860.30 0.1255
860.40 0.1255
860.50 0.1254
860.60 0.1254
860.70 0.1253
860.80 0.1252
860.90 0.1252
861.00 0.1251
861.10 0.1251
861.20 0.125
861.30 0.125
861.40 0.1249
861.50 0.1249
861.60 0.1248
861.70 0.1247
861.80 0.1247
861.90 0.1246
862.00 0.1246
862.10 0.1245
862.20 0.1245
862.30 0.1244
862.40 0.1244
862.50 0.1243
862.60 0.1242
862.70 0.1242
862.80 0.1241
862.90 0.1241
863.00 0.124
863.10 0.124
863.20 0.1239
863.30 0.1239
863.40 0.1238
863.50 0.1238
863.60 0.1237
863.70 0.1236
863.80 0.1236
863.90 0.1235
864.00 0.1235
864.10 0.1234
864.20 0.1234
864.30 0.1233
864.40 0.1233
864.50 0.1232
864.60 0.1232
864.70 0.1231
864.80 0.123
864.90 0.123
865.00 0.1229
865.10 0.1229
865.20 0.1228
865.30 0.1228
865.40 0.1227
865.50 0.1227
865.60 0.1226
865.70 0.1226
865.80 0.1225
865.90 0.1224
866.00 0.1224
866.10 0.1223
866.20 0.1223
866.30 0.1222
866.40 0.1222
866.50 0.1221
866.60 0.1221
866.70 0.122
866.80 0.122
866.90 0.1219
867.00 0.1219
867.10 0.1218
867.20 0.1217
867.30 0.1217
867.40 0.1216
867.50 0.1216
867.60 0.1215
867.70 0.1215
867.80 0.1214
867.90 0.1214
868.00 0.1213
868.10 0.1213
868.20 0.1212
868.30 0.1212
868.40 0.1211
868.50 0.1211
868.60 0.121
868.70 0.1209
868.80 0.1209
868.90 0.1208
869.00 0.1208
869.10 0.1207
869.20 0.1207
869.30 0.1206
869.40 0.1206
869.50 0.1205
869.60 0.1205
869.70 0.1204
869.80 0.1204
869.90 0.1203
870.00 0.1203
870.10 0.1202
870.20 0.1202
870.30 0.1201
870.40 0.12
870.50 0.12
870.60 0.1199
870.70 0.1199
870.80 0.1198
870.90 0.1198
871.00 0.1197
871.10 0.1197
871.20 0.1196
871.30 0.1196
871.40 0.1195
871.50 0.1195
871.60 0.1194
871.70 0.1194
871.80 0.1193
871.90 0.1193
872.00 0.1192
872.10 0.1192
872.20 0.1191
872.30 0.1191
872.40 0.119
872.50 0.1189
872.60 0.1189
872.70 0.1188
872.80 0.1188
872.90 0.1187
873.00 0.1187
873.10 0.1186
873.20 0.1186
873.30 0.1185
873.40 0.1185
873.50 0.1184
873.60 0.1184
873.70 0.1183
873.80 0.1183
873.90 0.1182
874.00 0.1182
874.10 0.1181
874.20 0.1181
874.30 0.118
874.40 0.118
874.50 0.1179
874.60 0.1179
874.70 0.1178
874.80 0.1178
874.90 0.1177
875.00 0.1177
875.10 0.1176
875.20 0.1176
875.30 0.1175
875.40 0.1175
875.50 0.1174
875.60 0.1174
875.70 0.1173
875.80 0.1173
875.90 0.1172
876.00 0.1172
876.10 0.1171
876.20 0.117
876.30 0.117
876.40 0.1169
876.50 0.1169
876.60 0.1168
876.70 0.1168
876.80 0.1167
876.90 0.1167
877.00 0.1166
877.10 0.1166
877.20 0.1165
877.30 0.1165
877.40 0.1164
877.50 0.1164
877.60 0.1163
877.70 0.1163
877.80 0.1162
877.90 0.1162
878.00 0.1161
878.10 0.1161
878.20 0.116
878.30 0.116
878.40 0.1159
878.50 0.1159
878.60 0.1158
878.70 0.1158
878.80 0.1157
878.90 0.1157
879.00 0.1156
879.10 0.1156
879.20 0.1155
879.30 0.1155
879.40 0.1154
879.50 0.1154
879.60 0.1153
879.70 0.1153
879.80 0.1152
879.90 0.1152
880.00 0.1151
880.10 0.1151
880.20 0.115
880.30 0.115
880.40 0.1149
880.50 0.1149
880.60 0.1148
880.70 0.1148
880.80 0.1147
880.90 0.1147
881.00 0.1146
881.10 0.1146
881.20 0.1145
881.30 0.1145
881.40 0.1144
881.50 0.1144
881.60 0.1143
881.70 0.1143
881.80 0.1142
881.90 0.1142
882.00 0.1141
882.10 0.1141
882.20 0.114
882.30 0.114
882.40 0.1139
882.50 0.1139
882.60 0.1138
882.70 0.1138
882.80 0.1137
882.90 0.1137
883.00 0.1136
883.10 0.1136
883.20 0.1135
883.30 0.1135
883.40 0.1134
883.50 0.1134
883.60 0.1133
883.70 0.1133
883.80 0.1132
883.90 0.1132
884.00 0.1131
884.10 0.1131
884.20 0.113
884.30 0.113
884.40 0.1129
884.50 0.1129
884.60 0.1128
884.70 0.1128
884.80 0.1127
884.90 0.1126
885.00 0.1126
885.10 0.1125
885.20 0.1125
885.30 0.1124
885.40 0.1124
885.50 0.1123
885.60 0.1123
885.70 0.1122
885.80 0.1122
885.90 0.1121
886.00 0.1121
886.10 0.112
886.20 0.112
886.30 0.1119
886.40 0.1119
886.50 0.1118
886.60 0.1118
886.70 0.1117
886.80 0.1117
886.90 0.1116
887.00 0.1116
887.10 0.1115
887.20 0.1115
887.30 0.1115
887.40 0.1114
887.50 0.1114
887.60 0.1113
887.70 0.1113
887.80 0.1112
887.90 0.1112
888.00 0.1112
888.10 0.1111
888.20 0.1111
888.30 0.111
888.40 0.111
888.50 0.1109
888.60 0.1109
888.70 0.1109
888.80 0.1108
888.90 0.1108
889.00 0.1107
889.10 0.1107
889.20 0.1106
889.30 0.1106
889.40 0.1106
889.50 0.1105
889.60 0.1105
889.70 0.1104
889.80 0.1104
889.90 0.1103
890.00 0.1103
890.10 0.1103
890.20 0.1102
890.30 0.1102
890.40 0.1101
890.50 0.1101
890.60 0.11
890.70 0.11
890.80 0.11
890.90 0.1099
891.00 0.1099
891.10 0.1098
891.20 0.1098
891.30 0.1097
891.40 0.1097
891.50 0.1097
891.60 0.1096
891.70 0.1096
891.80 0.1095
891.90 0.1095
892.00 0.1094
892.10 0.1094
892.20 0.1093
892.30 0.1093
892.40 0.1092
892.50 0.1092
892.60 0.1091
892.70 0.1091
892.80 0.109
892.90 0.109
893.00 0.1089
893.10 0.1089
893.20 0.1088
893.30 0.1088
893.40 0.1087
893.50 0.1087
893.60 0.1086
893.70 0.1086
893.80 0.1085
893.90 0.1085
894.00 0.1084
894.10 0.1084
894.20 0.1083
894.30 0.1083
894.40 0.1082
894.50 0.1082
894.60 0.1081
894.70 0.1081
894.80 0.108
894.90 0.108
895.00 0.1079
895.10 0.1079
895.20 0.1078
895.30 0.1078
895.40 0.1077
895.50 0.1077
895.60 0.1076
895.70 0.1076
895.80 0.1075
895.90 0.1075
896.00 0.1074
896.10 0.1074
896.20 0.1073
896.30 0.1073
896.40 0.1072
896.50 0.1072
896.60 0.1071
896.70 0.1071
896.80 0.107
896.90 0.107
897.00 0.1069
897.10 0.1069
897.20 0.1068
897.30 0.1068
897.40 0.1067
897.50 0.1066
897.60 0.1066
897.70 0.1065
897.80 0.1065
897.90 0.1064
898.00 0.1064
898.10 0.1063
898.20 0.1063
898.30 0.1062
898.40 0.1061
898.50 0.1061
898.60 0.106
898.70 0.106
898.80 0.1059
898.90 0.1059
899.00 0.1058
899.10 0.1058
899.20 0.1057
899.30 0.1057
899.40 0.1056
899.50 0.1056
899.60 0.1055
899.70 0.1054
899.80 0.1054
899.90 0.1053
900.00 0.1053
900.10 0.1052
900.20 0.1052
900.30 0.1051
900.40 0.1051
900.50 0.105
900.60 0.105
900.70 0.1049
900.80 0.1048
900.90 0.1048
901.00 0.1047
901.10 0.1047
901.20 0.1046
901.30 0.1046
901.40 0.1045
901.50 0.1045
901.60 0.1044
901.70 0.1044
901.80 0.1043
901.90 0.1043
902.00 0.1042
902.10 0.1042
902.20 0.1041
902.30 0.1041
902.40 0.1041
902.50 0.104
902.60 0.104
902.70 0.104
902.80 0.104
902.90 0.1039
903.00 0.1039
903.10 0.1039
903.20 0.1038
903.30 0.1038
903.40 0.1038
903.50 0.1037
903.60 0.1037
903.70 0.1037
903.80 0.1037
903.90 0.1036
904.00 0.1036
904.10 0.1036
904.20 0.1035
904.30 0.1035
904.40 0.1035
904.50 0.1034
904.60 0.1034
904.70 0.1034
904.80 0.1034
904.90 0.1033
905.00 0.1033
905.10 0.1033
905.20 0.1032
905.30 0.1032
905.40 0.1032
905.50 0.1031
905.60 0.1031
905.70 0.1031
905.80 0.1031
905.90 0.103
906.00 0.103
906.10 0.103
906.20 0.1029
906.30 0.1029
906.40 0.1029
906.50 0.1028
906.60 0.1028
906.70 0.1028
906.80 0.1028
906.90 0.1027
907.00 0.1027
907.10 0.1027
907.20 0.1026
907.30 0.1026
907.40 0.1025
907.50 0.1025
907.60 0.1025
907.70 0.1024
907.80 0.1024
907.90 0.1023
908.00 0.1023
908.10 0.1023
908.20 0.1022
908.30 0.1022
908.40 0.1021
908.50 0.1021
908.60 0.1021
908.70 0.102
908.80 0.102
908.90 0.102
909.00 0.1019
909.10 0.1019
909.20 0.1018
909.30 0.1018
909.40 0.1018
909.50 0.1017
909.60 0.1017
909.70 0.1016
909.80 0.1016
909.90 0.1016
910.00 0.1015
910.10 0.1015
910.20 0.1014
910.30 0.1014
910.40 0.1014
910.50 0.1013
910.60 0.1013
910.70 0.1013
910.80 0.1012
910.90 0.1012
911.00 0.1011
911.10 0.1011
911.20 0.1011
911.30 0.101
911.40 0.101
911.50 0.1009
911.60 0.1009
911.70 0.1009
911.80 0.1008
911.90 0.1008
912.00 0.1008
912.10 0.1007
912.20 0.1007
912.30 0.1006
912.40 0.1006
912.50 0.1005
912.60 0.1005
912.70 0.1004
912.80 0.1004
912.90 0.1003
913.00 0.1003
913.10 0.1002
913.20 0.1002
913.30 0.1001
913.40 0.1001
913.50 0.1
913.60 0.09996
913.70 0.09991
913.80 0.09986
913.90 0.09981
914.00 0.09976
914.10 0.09971
914.20 0.09966
914.30 0.09961
914.40 0.09956
914.50 0.09951
914.60 0.09946
914.70 0.09941
914.80 0.09936
914.90 0.09931
915.00 0.09926
915.10 0.09921
915.20 0.09916
915.30 0.09911
915.40 0.09906
915.50 0.09901
915.60 0.09897
915.70 0.09892
915.80 0.09887
915.90 0.09882
916.00 0.09877
916.10 0.09872
916.20 0.09867
916.30 0.09862
916.40 0.09857
916.50 0.09852
916.60 0.09847
916.70 0.09842
916.80 0.09837
916.90 0.09833
917.00 0.09828
917.10 0.09821
917.20 0.09815
917.30 0.09808
917.40 0.09801
917.50 0.09795
917.60 0.09788
917.70 0.09782
917.80 0.09775
917.90 0.09769
918.00 0.09762
918.10 0.09756
918.20 0.09749
918.30 0.09743
918.40 0.09736
918.50 0.09729
918.60 0.09723
918.70 0.09716
918.80 0.0971
918.90 0.09703
919.00 0.09697
919.10 0.0969
919.20 0.09684
919.30 0.09677
919.40 0.09671
919.50 0.09664
919.60 0.09658
919.70 0.09651
919.80 0.09645
919.90 0.09638
920.00 0.09632
920.10 0.09625
920.20 0.09619
920.30 0.09612
920.40 0.09606
920.50 0.09599
920.60 0.09593
920.70 0.09587
920.80 0.0958
920.90 0.09574
921.00 0.09567
921.10 0.09561
921.20 0.09554
921.30 0.09548
921.40 0.09541
921.50 0.09535
921.60 0.09528
921.70 0.09522
921.80 0.09516
921.90 0.09509
922.00 0.09503
922.10 0.09501
922.20 0.09498
922.30 0.09496
922.40 0.09494
922.50 0.09492
922.60 0.0949
922.70 0.09488
922.80 0.09486
922.90 0.09484
923.00 0.09482
923.10 0.0948
923.20 0.09478
923.30 0.09475
923.40 0.09473
923.50 0.09471
923.60 0.09469
923.70 0.09467
923.80 0.09465
923.90 0.09463
924.00 0.09461
924.10 0.09459
924.20 0.09457
924.30 0.09455
924.40 0.09453
924.50 0.0945
924.60 0.09448
924.70 0.09446
924.80 0.09444
924.90 0.09442
925.00 0.0944
925.10 0.09438
925.20 0.09436
925.30 0.09434
925.40 0.09432
925.50 0.0943
925.60 0.09428
925.70 0.09426
925.80 0.09423
925.90 0.09421
926.00 0.09419
926.10 0.09417
926.20 0.09415
926.30 0.09413
926.40 0.09411
926.50 0.09409
926.60 0.09407
926.70 0.09405
926.80 0.09403
926.90 0.09401
927.00 0.09399
927.10 0.09396
927.20 0.09394
927.30 0.09391
927.40 0.09389
927.50 0.09387
927.60 0.09384
927.70 0.09382
927.80 0.09379
927.90 0.09377
928.00 0.09374
928.10 0.09372
928.20 0.0937
928.30 0.09367
928.40 0.09365
928.50 0.09362
928.60 0.0936
928.70 0.09357
928.80 0.09355
928.90 0.09353
929.00 0.0935
929.10 0.09348
929.20 0.09345
929.30 0.09343
929.40 0.0934
929.50 0.09338
929.60 0.09336
929.70 0.09333
929.80 0.09331
929.90 0.09328
930.00 0.09326
930.10 0.09324
930.20 0.09321
930.30 0.09319
930.40 0.09316
930.50 0.09314
930.60 0.09312
930.70 0.09309
930.80 0.09307
930.90 0.09304
931.00 0.09302
931.10 0.093
931.20 0.09297
931.30 0.09295
931.40 0.09292
931.50 0.0929
931.60 0.09288
931.70 0.09285
931.80 0.09283
931.90 0.0928
932.00 0.09278
932.10 0.09275
932.20 0.09271
932.30 0.09268
932.40 0.09265
932.50 0.09262
932.60 0.09258
932.70 0.09255
932.80 0.09252
932.90 0.09249
933.00 0.09245
933.10 0.09242
933.20 0.09239
933.30 0.09236
933.40 0.09232
933.50 0.09229
933.60 0.09226
933.70 0.09223
933.80 0.09219
933.90 0.09216
934.00 0.09213
934.10 0.0921
934.20 0.09206
934.30 0.09203
934.40 0.092
934.50 0.09196
934.60 0.09192
934.70 0.09189
934.80 0.09185
934.90 0.09182
935.00 0.09178
935.10 0.09175
935.20 0.09171
935.30 0.09168
935.40 0.09164
935.50 0.09161
935.60 0.09157
935.70 0.09153
935.80 0.0915
935.90 0.09146
936.00 0.09143
936.10 0.09139
936.20 0.09136
936.30 0.09132
936.40 0.09129
936.50 0.09125
936.60 0.09122
936.70 0.09118
936.80 0.09115
936.90 0.09111
937.00 0.09108
937.10 0.09104
937.20 0.091
937.30 0.09097
937.40 0.09093
937.50 0.09089
937.60 0.09085
937.70 0.09082
937.80 0.09078
937.90 0.09074
938.00 0.09071
938.10 0.09067
938.20 0.09063
938.30 0.0906
938.40 0.09056
938.50 0.09052
938.60 0.09048
938.70 0.09044
938.80 0.09041
938.90 0.09037
939.00 0.09033
939.10 0.09029
939.20 0.09025
939.30 0.09022
939.40 0.09018
939.50 0.09014
939.60 0.0901
939.70 0.09006
939.80 0.09003
939.90 0.08999
940.00 0.08995
940.10 0.08991
940.20 0.08988
940.30 0.08984
940.40 0.0898
940.50 0.08976
940.60 0.08972
940.70 0.08968
940.80 0.08964
940.90 0.0896
941.00 0.08956
941.10 0.08952
941.20 0.08948
941.30 0.08944
941.40 0.0894
941.50 0.08936
941.60 0.08932
941.70 0.08928
941.80 0.08925
941.90 0.08921
942.00 0.08917
942.10 0.08913
942.20 0.08909
942.30 0.08905
942.40 0.089
942.50 0.08896
942.60 0.08892
942.70 0.08888
942.80 0.08884
942.90 0.08879
943.00 0.08875
943.10 0.08871
943.20 0.08867
943.30 0.08863
943.40 0.08858
943.50 0.08854
943.60 0.0885
943.70 0.08846
943.80 0.08842
943.90 0.08838
944.00 0.08833
944.10 0.08829
944.20 0.08825
944.30 0.08821
944.40 0.08816
944.50 0.08812
944.60 0.08808
944.70 0.08803
944.80 0.08799
944.90 0.08794
945.00 0.0879
945.10 0.08785
945.20 0.08781
945.30 0.08776
945.40 0.08772
945.50 0.08767
945.60 0.08762
945.70 0.08757
945.80 0.08753
945.90 0.08748
946.00 0.08743
946.10 0.08738
946.20 0.08733
946.30 0.08729
946.40 0.08724
946.50 0.08719
946.60 0.08714
946.70 0.0871
946.80 0.08705
946.90 0.087
947.00 0.08695
947.10 0.0869
947.20 0.08685
947.30 0.0868
947.40 0.08674
947.50 0.08669
947.60 0.08663
947.70 0.08657
947.80 0.08652
947.90 0.08646
948.00 0.08641
948.10 0.08635
948.20 0.08629
948.30 0.08624
948.40 0.08618
948.50 0.08613
948.60 0.08607
948.70 0.08601
948.80 0.08596
948.90 0.0859
949.00 0.08585
949.10 0.08579
949.20 0.08573
949.30 0.08568
949.40 0.08561
949.50 0.08554
949.60 0.08547
949.70 0.0854
949.80 0.08533
949.90 0.08527
950.00 0.0852
950.10 0.08513
950.20 0.08506
950.30 0.08499
950.40 0.08492
950.50 0.08485
950.60 0.08479
950.70 0.08472
950.80 0.08465
950.90 0.08458
951.00 0.08451
951.10 0.08444
951.20 0.08438
951.30 0.08431
951.40 0.08423
951.50 0.08415
951.60 0.08407
951.70 0.08399
951.80 0.08391
951.90 0.08384
952.00 0.08376
952.10 0.08367
952.20 0.08359
952.30 0.08351
952.40 0.08342
952.50 0.08334
952.60 0.08326
952.70 0.08317
952.80 0.08309
952.90 0.08301
953.00 0.08292
953.10 0.08284
953.20 0.08276
953.30 0.08267
953.40 0.08259
953.50 0.0825
953.60 0.08243
953.70 0.08235
953.80 0.08227
953.90 0.0822
954.00 0.08213
954.10 0.08207
954.20 0.08201
954.30 0.08196
954.40 0.08192
954.50 0.0819
954.60 0.08187
954.70 0.08183
954.80 0.08181
954.90 0.08179
955.00 0.08177
955.10 0.08174
955.20 0.08175
955.30 0.08176
955.40 0.08177
955.50 0.08178
955.60 0.08179
955.70 0.0818
955.80 0.08181
955.90 0.08183
956.00 0.08185
956.10 0.08186
956.20 0.08188
956.30 0.0819
956.40 0.08192
956.50 0.08193
956.60 0.08195
956.70 0.08197
956.80 0.08199
956.90 0.082
957.00 0.08202
957.10 0.08204
957.20 0.08205
957.30 0.08206
957.40 0.08207
957.50 0.08207
957.60 0.08208
957.70 0.08208
957.80 0.08209
957.90 0.08209
958.00 0.0821
958.10 0.0821
958.20 0.08211
958.30 0.08211
958.40 0.08212
958.50 0.08212
958.60 0.08213
958.70 0.08213
958.80 0.08213
958.90 0.08214
959.00 0.08214
959.10 0.08215
959.20 0.08215
959.30 0.08216
959.40 0.08215
959.50 0.08214
959.60 0.08213
959.70 0.08212
959.80 0.08211
959.90 0.0821
960.00 0.08209
960.10 0.08208
960.20 0.08207
960.30 0.08206
960.40 0.08205
960.50 0.08204
960.60 0.08203
960.70 0.08202
960.80 0.08201
960.90 0.082
961.00 0.08199
961.10 0.08199
961.20 0.08198
961.30 0.08197
961.40 0.08195
961.50 0.08193
961.60 0.08192
961.70 0.0819
961.80 0.08188
961.90 0.08187
962.00 0.08185
962.10 0.08183
962.20 0.08181
962.30 0.08179
962.40 0.08177
962.50 0.08175
962.60 0.08173
962.70 0.08171
962.80 0.08169
962.90 0.08167
963.00 0.08165
963.10 0.08163
963.20 0.08161
963.30 0.08159
963.40 0.08156
963.50 0.08154
963.60 0.08152
963.70 0.08149
963.80 0.08147
963.90 0.08145
964.00 0.08142
964.10 0.0814
964.20 0.08138
964.30 0.08135
964.40 0.08133
964.50 0.0813
964.60 0.08127
964.70 0.08125
964.80 0.08122
964.90 0.0812
965.00 0.08117
965.10 0.08114
965.20 0.08112
965.30 0.08109
965.40 0.08107
965.50 0.08104
965.60 0.08101
965.70 0.08099
965.80 0.08096
965.90 0.08094
966.00 0.08091
966.10 0.08088
966.20 0.08086
966.30 0.08083
966.40 0.0808
966.50 0.08078
966.60 0.08075
966.70 0.08072
966.80 0.08069
966.90 0.08066
967.00 0.08064
967.10 0.08061
967.20 0.08058
967.30 0.08055
967.40 0.08052
967.50 0.08049
967.60 0.08046
967.70 0.08044
967.80 0.08041
967.90 0.08038
968.00 0.08035
968.10 0.08032
968.20 0.08029
968.30 0.08026
968.40 0.08023
968.50 0.08021
968.60 0.08018
968.70 0.08015
968.80 0.08012
968.90 0.08009
969.00 0.08006
969.10 0.08003
969.20 0.08
969.30 0.07997
969.40 0.07994
969.50 0.07991
969.60 0.07988
969.70 0.07985
969.80 0.07982
969.90 0.07979
970.00 0.07976
970.10 0.07973
970.20 0.0797
970.30 0.07967
970.40 0.07964
970.50 0.07961
970.60 0.07958
970.70 0.07955
970.80 0.07952
970.90 0.07949
971.00 0.07946
971.10 0.07943
971.20 0.0794
971.30 0.07937
971.40 0.07934
971.50 0.07931
971.60 0.07928
971.70 0.07925
971.80 0.07922
971.90 0.07919
972.00 0.07916
972.10 0.07913
972.20 0.0791
972.30 0.07907
972.40 0.07904
972.50 0.07901
972.60 0.07898
972.70 0.07895
972.80 0.07892
972.90 0.07889
973.00 0.07886
973.10 0.07883
973.20 0.0788
973.30 0.07877
973.40 0.07874
973.50 0.07871
973.60 0.07867
973.70 0.07864
973.80 0.07861
973.90 0.07858
974.00 0.07855
974.10 0.07852
974.20 0.07849
974.30 0.07846
974.40 0.07843
974.50 0.0784
974.60 0.07837
974.70 0.07834
974.80 0.07831
974.90 0.07828
975.00 0.07825
975.10 0.07822
975.20 0.07819
975.30 0.07816
975.40 0.07813
975.50 0.0781
975.60 0.07806
975.70 0.07803
975.80 0.078
975.90 0.07797
976.00 0.07794
976.10 0.07791
976.20 0.07788
976.30 0.07785
976.40 0.07782
976.50 0.07779
976.60 0.07776
976.70 0.07773
976.80 0.0777
976.90 0.07767
977.00 0.07764
977.10 0.07761
977.20 0.07758
977.30 0.07755
977.40 0.07752
977.50 0.07748
977.60 0.07745
977.70 0.07742
977.80 0.07739
977.90 0.07736
978.00 0.07733
978.10 0.0773
978.20 0.07727
978.30 0.07724
978.40 0.07721
978.50 0.07718
978.60 0.07715
978.70 0.07712
978.80 0.07709
978.90 0.07706
979.00 0.07703
979.10 0.077
979.20 0.07696
979.30 0.07693
979.40 0.0769
979.50 0.07687
979.60 0.07684
979.70 0.07681
979.80 0.07678
979.90 0.07675
980.00 0.07672
980.10 0.07669
980.20 0.07666
980.30 0.07663
980.40 0.0766
980.50 0.07657
980.60 0.07654
980.70 0.07651
980.80 0.07648
980.90 0.07645
981.00 0.07642
981.10 0.07639
981.20 0.07636
981.30 0.07633
981.40 0.0763
981.50 0.07627
981.60 0.07624
981.70 0.07621
981.80 0.07618
981.90 0.07614
982.00 0.07611
982.10 0.07608
982.20 0.07605
982.30 0.07602
982.40 0.07599
982.50 0.07596
982.60 0.07593
982.70 0.0759
982.80 0.07587
982.90 0.07584
983.00 0.07581
983.10 0.07578
983.20 0.07575
983.30 0.07572
983.40 0.07569
983.50 0.07566
983.60 0.07563
983.70 0.0756
983.80 0.07557
983.90 0.07554
984.00 0.07551
984.10 0.07548
984.20 0.07545
984.30 0.07542
984.40 0.07539
984.50 0.07536
984.60 0.07533
984.70 0.07529
984.80 0.07526
984.90 0.07523
985.00 0.0752
985.10 0.07517
985.20 0.07514
985.30 0.07511
985.40 0.07508
985.50 0.07505
985.60 0.07502
985.70 0.07499
985.80 0.07496
985.90 0.07493
986.00 0.0749
986.10 0.07487
986.20 0.07484
986.30 0.07481
986.40 0.07478
986.50 0.07475
986.60 0.07472
986.70 0.07469
986.80 0.07466
986.90 0.07463
987.00 0.0746
987.10 0.07456
987.20 0.07453
987.30 0.0745
987.40 0.07447
987.50 0.07444
987.60 0.07441
987.70 0.07438
987.80 0.07435
987.90 0.07432
988.00 0.07429
988.10 0.07426
988.20 0.07423
988.30 0.0742
988.40 0.07417
988.50 0.07414
988.60 0.07411
988.70 0.07407
988.80 0.07404
988.90 0.07401
989.00 0.07398
989.10 0.07395
989.20 0.07392
989.30 0.07389
989.40 0.07386
989.50 0.07382
989.60 0.07379
989.70 0.07376
989.80 0.07373
989.90 0.0737
990.00 0.07367
990.10 0.07364
990.20 0.07361
990.30 0.07358
990.40 0.07355
990.50 0.07351
990.60 0.07348
990.70 0.07345
990.80 0.07342
990.90 0.07339
991.00 0.07336
991.10 0.07332
991.20 0.07329
991.30 0.07326
991.40 0.07323
991.50 0.0732
991.60 0.07317
991.70 0.07313
991.80 0.0731
991.90 0.07307
992.00 0.07304
992.10 0.07301
992.20 0.07297
992.30 0.07294
992.40 0.07291
992.50 0.07288
992.60 0.07284
992.70 0.07281
992.80 0.07278
992.90 0.07274
993.00 0.07271
993.10 0.07267
993.20 0.07264
993.30 0.07261
993.40 0.07257
993.50 0.07254
993.60 0.0725
993.70 0.07247
993.80 0.07244
993.90 0.0724
994.00 0.07237
994.10 0.07234
994.20 0.0723
994.30 0.07227
994.40 0.07223
994.50 0.0722
994.60 0.07217
994.70 0.07213
994.80 0.07209
994.90 0.07206
995.00 0.07202
995.10 0.07199
995.20 0.07195
995.30 0.07191
995.40 0.07188
995.50 0.07184
995.60 0.0718
995.70 0.07177
995.80 0.07173
995.90 0.07169
996.00 0.07165
996.10 0.07161
996.20 0.07157
996.30 0.07153
996.40 0.07149
996.50 0.07145
996.60 0.07141
996.70 0.07137
996.80 0.07133
996.90 0.07129
997.00 0.07126
997.10 0.07121
997.20 0.07117
997.30 0.07113
997.40 0.07108
997.50 0.07104
997.60 0.071
997.70 0.07095
997.80 0.0709
997.90 0.07085
998.00 0.0708
998.10 0.07075
998.20 0.0707
998.30 0.07065
998.40 0.0706
998.50 0.07055
998.60 0.0705
998.70 0.07045
998.80 0.0704
998.90 0.07035
999.00 0.0703
999.10 0.07025
999.20 0.0702
999.30 0.07015
999.40 0.0701
999.50 0.07005
999.60 0.07
999.70 0.06994
999.80 0.06987
999.90 0.0698
1000.00 0.06973
1000.10 0.06966
1000.20 0.0696
1000.30 0.06953
1000.40 0.06946
1000.50 0.06939
1000.60 0.06932
1000.70 0.06926
1000.80 0.06919
1000.90 0.06912
1001.00 0.06905
1001.10 0.06898
1001.20 0.06892
1001.30 0.06885
1001.40 0.06878
1001.50 0.06871
1001.60 0.06864
1001.70 0.06857
1001.80 0.06848
1001.90 0.0684
1002.00 0.06832
1002.10 0.06823
1002.20 0.06814
1002.30 0.06804
1002.40 0.06795
1002.50 0.06786
1002.60 0.06777
1002.70 0.06768
1002.80 0.06758
1002.90 0.06749
1003.00 0.0674
1003.10 0.06731
1003.20 0.06721
1003.30 0.06711
1003.40 0.06701
1003.50 0.06691
1003.60 0.06681
1003.70 0.0667
1003.80 0.0666
1003.90 0.06651
1004.00 0.06642
1004.10 0.06632
1004.20 0.06623
1004.30 0.06616
1004.40 0.0661
1004.50 0.06605
1004.60 0.06606
1004.70 0.06612
1004.80 0.06624
1004.90 0.06625
1005.00 0.06626
1005.10 0.06618
1005.20 0.06607
1005.30 0.06596
1005.40 0.06585
1005.50 0.06585
1005.60 0.06589
1005.70 0.06592
1005.80 0.06596
1005.90 0.06599
1006.00 0.06603
1006.10 0.06606
1006.20 0.06611
1006.30 0.06615
1006.40 0.0662
1006.50 0.06625
1006.60 0.0663
1006.70 0.06635
1006.80 0.0664
1006.90 0.06645
1007.00 0.06649
1007.10 0.06653
1007.20 0.06657
1007.30 0.06661
1007.40 0.06665
1007.50 0.06669
1007.60 0.06673
1007.70 0.06676
1007.80 0.06678
1007.90 0.0668
1008.00 0.06682
1008.10 0.06684
1008.20 0.06687
1008.30 0.06689
1008.40 0.06691
1008.50 0.06693
1008.60 0.06695
1008.70 0.06697
1008.80 0.06699
1008.90 0.06701
1009.00 0.06704
1009.10 0.06706
1009.20 0.06708
1009.30 0.0671
1009.40 0.06712
1009.50 0.06714
1009.60 0.06716
1009.70 0.06717
1009.80 0.06717
1009.90 0.06717
1010.00 0.06717
1010.10 0.06717
1010.20 0.06717
1010.30 0.06717
1010.40 0.06717
1010.50 0.06717
1010.60 0.06717
1010.70 0.06717
1010.80 0.06717
1010.90 0.06717
1011.00 0.06717
1011.10 0.06717
1011.20 0.06717
1011.30 0.06717
1011.40 0.06717
1011.50 0.06717
1011.60 0.06717
1011.70 0.06716
1011.80 0.06715
1011.90 0.06714
1012.00 0.06713
1012.10 0.06712
1012.20 0.06711
1012.30 0.0671
1012.40 0.06708
1012.50 0.06707
1012.60 0.06706
1012.70 0.06705
1012.80 0.06703
1012.90 0.06702
1013.00 0.06701
1013.10 0.06699
1013.20 0.06698
1013.30 0.06697
1013.40 0.06696
1013.50 0.06694
1013.60 0.06693
1013.70 0.06691
1013.80 0.0669
1013.90 0.06688
1014.00 0.06686
1014.10 0.06685
1014.20 0.06683
1014.30 0.06681
1014.40 0.0668
1014.50 0.06678
1014.60 0.06676
1014.70 0.06674
1014.80 0.06672
1014.90 0.0667
1015.00 0.06668
1015.10 0.06666
1015.20 0.06664
1015.30 0.06663
1015.40 0.06661
1015.50 0.06659
1015.60 0.06657
1015.70 0.06655
1015.80 0.06653
1015.90 0.06651
1016.00 0.06649
1016.10 0.06647
1016.20 0.06645
1016.30 0.06643
1016.40 0.06641
1016.50 0.06639
1016.60 0.06637
1016.70 0.06635
1016.80 0.06633
1016.90 0.06631
1017.00 0.06628
1017.10 0.06626
1017.20 0.06624
1017.30 0.06622
1017.40 0.0662
1017.50 0.06617
1017.60 0.06615
1017.70 0.06613
1017.80 0.06611
1017.90 0.06609
1018.00 0.06606
1018.10 0.06604
1018.20 0.06602
1018.30 0.066
1018.40 0.06598
1018.50 0.06595
1018.60 0.06593
1018.70 0.06591
1018.80 0.06589
1018.90 0.06586
1019.00 0.06584
1019.10 0.06582
1019.20 0.06579
1019.30 0.06577
1019.40 0.06575
1019.50 0.06573
1019.60 0.0657
1019.70 0.06568
1019.80 0.06566
1019.90 0.06563
1020.00 0.06561
1020.10 0.06559
1020.20 0.06557
1020.30 0.06554
1020.40 0.06552
1020.50 0.0655
1020.60 0.06547
1020.70 0.06545
1020.80 0.06543
1020.90 0.0654
1021.00 0.06538
1021.10 0.06536
1021.20 0.06533
1021.30 0.06531
1021.40 0.06529
1021.50 0.06526
1021.60 0.06524
1021.70 0.06522
1021.80 0.06519
1021.90 0.06517
1022.00 0.06515
1022.10 0.06512
1022.20 0.0651
1022.30 0.06508
1022.40 0.06505
1022.50 0.06503
1022.60 0.065
1022.70 0.06498
1022.80 0.06496
1022.90 0.06493
1023.00 0.06491
1023.10 0.06489
1023.20 0.06486
1023.30 0.06484
1023.40 0.06481
1023.50 0.06479
1023.60 0.06477
1023.70 0.06474
1023.80 0.06472
1023.90 0.0647
1024.00 0.06467
1024.10 0.06465
1024.20 0.06463
1024.30 0.0646
1024.40 0.06458
1024.50 0.06456
1024.60 0.06453
1024.70 0.06451
1024.80 0.06448
1024.90 0.06446
1025.00 0.06444
1025.10 0.06441
1025.20 0.06439
1025.30 0.06437
1025.40 0.06434
1025.50 0.06432
1025.60 0.06429
1025.70 0.06427
1025.80 0.06425
1025.90 0.06422
1026.00 0.0642
1026.10 0.06418
1026.20 0.06415
1026.30 0.06413
1026.40 0.0641
1026.50 0.06408
1026.60 0.06406
1026.70 0.06403
1026.80 0.06401
1026.90 0.06399
1027.00 0.06396
1027.10 0.06394
1027.20 0.06392
1027.30 0.06389
1027.40 0.06387
1027.50 0.06384
1027.60 0.06382
1027.70 0.0638
1027.80 0.06377
1027.90 0.06375
1028.00 0.06373
1028.10 0.0637
1028.20 0.06368
1028.30 0.06365
1028.40 0.06363
1028.50 0.06361
1028.60 0.06358
1028.70 0.06356
1028.80 0.06354
1028.90 0.06351
1029.00 0.06349
1029.10 0.06347
1029.20 0.06344
1029.30 0.06342
1029.40 0.06339
1029.50 0.06337
1029.60 0.06335
1029.70 0.06332
1029.80 0.0633
1029.90 0.06328
1030.00 0.06325
1030.10 0.06323
1030.20 0.06321
1030.30 0.06318
1030.40 0.06316
1030.50 0.06314
1030.60 0.06311
1030.70 0.06309
1030.80 0.06307
1030.90 0.06304
1031.00 0.06302
1031.10 0.063
1031.20 0.06297
1031.30 0.06295
1031.40 0.06292
1031.50 0.0629
1031.60 0.06288
1031.70 0.06285
1031.80 0.06283
1031.90 0.06281
1032.00 0.06278
1032.10 0.06276
1032.20 0.06274
1032.30 0.06271
1032.40 0.06269
1032.50 0.06267
1032.60 0.06264
1032.70 0.06262
1032.80 0.0626
1032.90 0.06257
1033.00 0.06255
1033.10 0.06253
1033.20 0.0625
1033.30 0.06248
1033.40 0.06246
1033.50 0.06243
1033.60 0.06241
1033.70 0.06239
1033.80 0.06236
1033.90 0.06234
1034.00 0.06232
1034.10 0.0623
1034.20 0.06227
1034.30 0.06225
1034.40 0.06223
1034.50 0.0622
1034.60 0.06218
1034.70 0.06216
1034.80 0.06213
1034.90 0.06211
1035.00 0.06209
1035.10 0.06206
1035.20 0.06204
1035.30 0.06202
1035.40 0.06199
1035.50 0.06197
1035.60 0.06195
1035.70 0.06192
1035.80 0.0619
1035.90 0.06188
1036.00 0.06186
1036.10 0.06183
1036.20 0.06181
1036.30 0.06179
1036.40 0.06176
1036.50 0.06174
1036.60 0.06172
1036.70 0.06169
1036.80 0.06167
1036.90 0.06165
1037.00 0.06162
1037.10 0.0616
1037.20 0.06158
1037.30 0.06156
1037.40 0.06153
1037.50 0.06151
1037.60 0.06149
1037.70 0.06146
1037.80 0.06144
1037.90 0.06142
1038.00 0.0614
1038.10 0.06137
1038.20 0.06135
1038.30 0.06133
1038.40 0.0613
1038.50 0.06128
1038.60 0.06126
1038.70 0.06124
1038.80 0.06121
1038.90 0.06119
1039.00 0.06117
1039.10 0.06115
1039.20 0.06112
1039.30 0.0611
1039.40 0.06108
1039.50 0.06105
1039.60 0.06103
1039.70 0.06101
1039.80 0.06099
1039.90 0.06096
1040.00 0.06094
1040.10 0.06092
1040.20 0.0609
1040.30 0.06087
1040.40 0.06085
1040.50 0.06083
1040.60 0.0608
1040.70 0.06078
1040.80 0.06076
1040.90 0.06074
1041.00 0.06071
1041.10 0.06069
1041.20 0.06067
1041.30 0.06065
1041.40 0.06062
1041.50 0.0606
1041.60 0.06058
1041.70 0.06056
1041.80 0.06053
1041.90 0.06051
1042.00 0.06049
1042.10 0.06047
1042.20 0.06044
1042.30 0.06042
1042.40 0.0604
1042.50 0.06038
1042.60 0.06035
1042.70 0.06033
1042.80 0.06031
1042.90 0.06029
1043.00 0.06026
1043.10 0.06024
1043.20 0.06022
1043.30 0.0602
1043.40 0.06017
1043.50 0.06015
1043.60 0.06013
1043.70 0.06011
1043.80 0.06009
1043.90 0.06006
1044.00 0.06004
1044.10 0.06002
1044.20 0.06
1044.30 0.05997
1044.40 0.05995
1044.50 0.05993
1044.60 0.05991
1044.70 0.05988
1044.80 0.05986
1044.90 0.05984
1045.00 0.05982
1045.10 0.0598
1045.20 0.05977
1045.30 0.05975
1045.40 0.05973
1045.50 0.05971
1045.60 0.05968
1045.70 0.05966
1045.80 0.05964
1045.90 0.05962
1046.00 0.0596
1046.10 0.05957
1046.20 0.05955
1046.30 0.05953
1046.40 0.05951
1046.50 0.05949
1046.60 0.05946
1046.70 0.05944
1046.80 0.05942
1046.90 0.0594
1047.00 0.05937
1047.10 0.05935
1047.20 0.05933
1047.30 0.05931
1047.40 0.05929
1047.50 0.05926
1047.60 0.05924
1047.70 0.05922
1047.80 0.0592
1047.90 0.05918
1048.00 0.05916
1048.10 0.05913
1048.20 0.05911
1048.30 0.05909
1048.40 0.05907
1048.50 0.05905
1048.60 0.05902
1048.70 0.059
1048.80 0.05898
1048.90 0.05896
1049.00 0.05894
1049.10 0.05891
1049.20 0.05889
1049.30 0.05887
1049.40 0.05885
1049.50 0.05883
1049.60 0.05881
1049.70 0.05878
1049.80 0.05876
1049.90 0.05874
1050.00 0.05872
1050.10 0.0587
1050.20 0.05868
1050.30 0.05865
1050.40 0.05863
1050.50 0.05861
1050.60 0.05859
1050.70 0.05857
1050.80 0.05854
1050.90 0.05852
1051.00 0.0585
1051.10 0.05848
1051.20 0.05846
1051.30 0.05844
1051.40 0.05841
1051.50 0.05839
1051.60 0.05837
1051.70 0.05835
1051.80 0.05833
1051.90 0.05831
1052.00 0.05828
1052.10 0.05826
1052.20 0.05824
1052.30 0.05822
1052.40 0.0582
1052.50 0.05818
1052.60 0.05816
1052.70 0.05813
1052.80 0.05811
1052.90 0.05809
1053.00 0.05807
1053.10 0.05805
1053.20 0.05803
1053.30 0.05801
1053.40 0.05798
1053.50 0.05796
1053.60 0.05794
1053.70 0.05792
1053.80 0.0579
1053.90 0.05788
1054.00 0.05786
1054.10 0.05783
1054.20 0.05781
1054.30 0.05779
1054.40 0.05777
1054.50 0.05775
1054.60 0.05773
1054.70 0.05771
1054.80 0.05769
1054.90 0.05766
1055.00 0.05764
1055.10 0.05762
1055.20 0.0576
1055.30 0.05758
1055.40 0.05756
1055.50 0.05754
1055.60 0.05752
1055.70 0.05749
1055.80 0.05747
1055.90 0.05745
1056.00 0.05743
1056.10 0.05741
1056.20 0.05739
1056.30 0.05737
1056.40 0.05735
1056.50 0.05732
1056.60 0.0573
1056.70 0.05728
1056.80 0.05726
1056.90 0.05724
1057.00 0.05722
1057.10 0.0572
1057.20 0.05718
1057.30 0.05716
1057.40 0.05713
1057.50 0.05711
1057.60 0.05709
1057.70 0.05707
1057.80 0.05705
1057.90 0.05703
1058.00 0.05701
1058.10 0.05699
1058.20 0.05697
1058.30 0.05695
1058.40 0.05692
1058.50 0.0569
1058.60 0.05688
1058.70 0.05686
1058.80 0.05684
1058.90 0.05682
1059.00 0.0568
1059.10 0.05678
1059.20 0.05676
1059.30 0.05674
1059.40 0.05671
1059.50 0.05669
1059.60 0.05667
1059.70 0.05665
1059.80 0.05663
1059.90 0.05661
1060.00 0.05659
1060.10 0.05657
1060.20 0.05655
1060.30 0.05653
1060.40 0.05651
1060.50 0.05649
1060.60 0.05646
1060.70 0.05644
1060.80 0.05642
1060.90 0.0564
1061.00 0.05638
1061.10 0.05636
1061.20 0.05634
1061.30 0.05632
1061.40 0.0563
1061.50 0.05628
1061.60 0.05626
1061.70 0.05624
1061.80 0.05622
1061.90 0.05619
1062.00 0.05617
1062.10 0.05615
1062.20 0.05613
1062.30 0.05611
1062.40 0.05609
1062.50 0.05607
1062.60 0.05605
1062.70 0.05603
1062.80 0.05601
1062.90 0.05599
1063.00 0.05597
1063.10 0.05595
1063.20 0.05593
1063.30 0.05591
1063.40 0.05588
1063.50 0.05586
1063.60 0.05584
1063.70 0.05582
1063.80 0.0558
1063.90 0.05578
1064.00 0.05576
1064.10 0.05574
1064.20 0.05572
1064.30 0.0557
1064.40 0.05568
1064.50 0.05566
1064.60 0.05564
1064.70 0.05562
1064.80 0.0556
1064.90 0.05558
1065.00 0.05556
1065.10 0.05554
1065.20 0.05552
1065.30 0.0555
1065.40 0.05547
1065.50 0.05545
1065.60 0.05543
1065.70 0.05541
1065.80 0.05539
1065.90 0.05537
1066.00 0.05535
1066.10 0.05533
1066.20 0.05531
1066.30 0.05529
1066.40 0.05527
1066.50 0.05525
1066.60 0.05523
1066.70 0.05521
1066.80 0.05519
1066.90 0.05517
1067.00 0.05515
1067.10 0.05513
1067.20 0.05511
1067.30 0.05509
1067.40 0.05507
1067.50 0.05505
1067.60 0.05503
1067.70 0.05501
1067.80 0.05499
1067.90 0.05497
1068.00 0.05495
1068.10 0.05492
1068.20 0.0549
1068.30 0.05488
1068.40 0.05486
1068.50 0.05484
1068.60 0.05482
1068.70 0.0548
1068.80 0.05478
1068.90 0.05476
1069.00 0.05474
1069.10 0.05472
1069.20 0.0547
1069.30 0.05468
1069.40 0.05466
1069.50 0.05464
1069.60 0.05462
1069.70 0.0546
1069.80 0.05458
1069.90 0.05456
1070.00 0.05454
1070.10 0.05452
1070.20 0.0545
1070.30 0.05448
1070.40 0.05446
1070.50 0.05444
1070.60 0.05442
1070.70 0.0544
1070.80 0.05438
1070.90 0.05436
1071.00 0.05434
1071.10 0.05432
1071.20 0.0543
1071.30 0.05428
1071.40 0.05426
1071.50 0.05424
1071.60 0.05422
1071.70 0.0542
1071.80 0.05418
1071.90 0.05416
1072.00 0.05414
1072.10 0.05412
1072.20 0.0541
1072.30 0.05408
1072.40 0.05406
1072.50 0.05404
1072.60 0.05402
1072.70 0.054
1072.80 0.05398
1072.90 0.05396
1073.00 0.05394
1073.10 0.05392
1073.20 0.0539
1073.30 0.05388
1073.40 0.05386
1073.50 0.05384
1073.60 0.05382
1073.70 0.05379
1073.80 0.05377
1073.90 0.05375
1074.00 0.05373
1074.10 0.05371
1074.20 0.05369
1074.30 0.05367
1074.40 0.05365
1074.50 0.05363
1074.60 0.05361
1074.70 0.05359
1074.80 0.05357
1074.90 0.05355
1075.00 0.05353
1075.10 0.05351
1075.20 0.05349
1075.30 0.05347
1075.40 0.05345
1075.50 0.05343
1075.60 0.05341
1075.70 0.05339
1075.80 0.05337
1075.90 0.05335
1076.00 0.05333
1076.10 0.05331
1076.20 0.05329
1076.30 0.05327
1076.40 0.05325
1076.50 0.05323
1076.60 0.05321
1076.70 0.05319
1076.80 0.05317
1076.90 0.05315
1077.00 0.05313
1077.10 0.05311
1077.20 0.05309
1077.30 0.05307
1077.40 0.05305
1077.50 0.05303
1077.60 0.05301
1077.70 0.05299
1077.80 0.05296
1077.90 0.05294
1078.00 0.05292
1078.10 0.0529
1078.20 0.05288
1078.30 0.05286
1078.40 0.05284
1078.50 0.05282
1078.60 0.0528
1078.70 0.05278
1078.80 0.05276
1078.90 0.05274
1079.00 0.05272
1079.10 0.0527
1079.20 0.05268
1079.30 0.05266
1079.40 0.05263
1079.50 0.05261
1079.60 0.05259
1079.70 0.05257
1079.80 0.05255
1079.90 0.05253
1080.00 0.05251
1080.10 0.05249
1080.20 0.05246
1080.30 0.05244
1080.40 0.05242
1080.50 0.0524
1080.60 0.05238
1080.70 0.05236
1080.80 0.05234
1080.90 0.05231
1081.00 0.05229
1081.10 0.05227
1081.20 0.05225
1081.30 0.05223
1081.40 0.05221
1081.50 0.05219
1081.60 0.05216
1081.70 0.05214
1081.80 0.05212
1081.90 0.0521
1082.00 0.05208
1082.10 0.05205
1082.20 0.05203
1082.30 0.05201
1082.40 0.05198
1082.50 0.05196
1082.60 0.05194
1082.70 0.05192
1082.80 0.05189
1082.90 0.05187
1083.00 0.05185
1083.10 0.05182
1083.20 0.0518
1083.30 0.05178
1083.40 0.05176
1083.50 0.05173
1083.60 0.05171
1083.70 0.05168
1083.80 0.05166
1083.90 0.05163
1084.00 0.05161
1084.10 0.05159
1084.20 0.05156
1084.30 0.05154
1084.40 0.05151
1084.50 0.05149
1084.60 0.05146
1084.70 0.05143
1084.80 0.0514
1084.90 0.05137
1085.00 0.05135
1085.10 0.05132
1085.20 0.05129
1085.30 0.05126
1085.40 0.05124
1085.50 0.05121
1085.60 0.05118
1085.70 0.05115
1085.80 0.05112
1085.90 0.0511
1086.00 0.05107
1086.10 0.05104
1086.20 0.05101
1086.30 0.05099
1086.40 0.05096
1086.50 0.05093
1086.60 0.0509
1086.70 0.05087
1086.80 0.05083
1086.90 0.0508
1087.00 0.05077
1087.10 0.05073
1087.20 0.05069
1087.30 0.05066
1087.40 0.05062
1087.50 0.05058
1087.60 0.05055
1087.70 0.05051
1087.80 0.05047
1087.90 0.05043
1088.00 0.0504
1088.10 0.05036
1088.20 0.05032
1088.30 0.05029
1088.40 0.05025
1088.50 0.05021
1088.60 0.05015
1088.70 0.0501
1088.80 0.05005
1088.90 0.05
1089.00 0.04995
1089.10 0.0499
1089.20 0.04984
1089.30 0.04979
1089.40 0.04974
1089.50 0.04969
1089.60 0.04964
1089.70 0.04958
1089.80 0.04953
1089.90 0.04948
1090.00 0.04943
1090.10 0.04938
1090.20 0.04933
1090.30 0.04927
1090.40 0.04922
1090.50 0.04916
1090.60 0.04909
1090.70 0.04902
1090.80 0.04895
1090.90 0.04887
1091.00 0.0488
1091.10 0.04873
1091.20 0.04866
1091.30 0.04858
1091.40 0.04851
1091.50 0.04844
1091.60 0.04837
1091.70 0.04829
1091.80 0.04822
1091.90 0.04815
1092.00 0.04807
1092.10 0.04799
1092.20 0.04791
1092.30 0.04783
1092.40 0.04775
1092.50 0.04766
1092.60 0.04758
1092.70 0.04751
1092.80 0.04743
1092.90 0.04736
1093.00 0.04729
1093.10 0.04723
1093.20 0.04718
1093.30 0.04714
1093.40 0.04714
1093.50 0.04716
1093.60 0.04726
1093.70 0.04735
1093.80 0.04741
1093.90 0.04742
1094.00 0.0473
1094.10 0.04718
1094.20 0.04707
1094.30 0.04699
1094.40 0.04702
1094.50 0.04705
1094.60 0.04707
1094.70 0.0471
1094.80 0.04712
1094.90 0.04715
1095.00 0.04718
1095.10 0.04723
1095.20 0.04727
1095.30 0.04732
1095.40 0.04736
1095.50 0.04741
1095.60 0.04745
1095.70 0.0475
1095.80 0.04754
1095.90 0.04759
1096.00 0.04763
1096.10 0.04768
1096.20 0.04772
1096.30 0.04777
1096.40 0.04781
1096.50 0.04785
1096.60 0.04789
1096.70 0.04792
1096.80 0.04795
1096.90 0.04799
1097.00 0.04802
1097.10 0.04804
1097.20 0.04806
1097.30 0.04808
1097.40 0.0481
1097.50 0.04812
1097.60 0.04814
1097.70 0.04816
1097.80 0.04818
1097.90 0.0482
1098.00 0.04822
1098.10 0.04824
1098.20 0.04826
1098.30 0.04829
1098.40 0.04831
1098.50 0.04832
1098.60 0.04832
1098.70 0.04833
1098.80 0.04833
1098.90 0.04834
1099.00 0.04834
1099.10 0.04835
1099.20 0.04835
1099.30 0.04835
1099.40 0.04836
1099.50 0.04836
1099.60 0.04837
1099.70 0.04837
1099.80 0.04837
1099.90 0.04838
1100.00 0.04838
1100.10 0.04839
1100.20 0.04839
1100.30 0.04839
1100.40 0.0484
1100.50 0.0484
1100.60 0.04839
1100.70 0.04839
1100.80 0.04838
1100.90 0.04838
1101.00 0.04837
1101.10 0.04837
1101.20 0.04836
1101.30 0.04836
1101.40 0.04835
1101.50 0.04834
1101.60 0.04834
1101.70 0.04833
1101.80 0.04833
1101.90 0.04832
1102.00 0.04832
1102.10 0.04831
1102.20 0.0483
1102.30 0.04829
1102.40 0.04828
1102.50 0.04827
1102.60 0.04826
1102.70 0.04825
1102.80 0.04824
1102.90 0.04823
1103.00 0.04822
1103.10 0.04821
1103.20 0.0482
1103.30 0.04819
1103.40 0.04818
1103.50 0.04817
1103.60 0.04816
1103.70 0.04814
1103.80 0.04813
1103.90 0.04812
1104.00 0.04811
1104.10 0.04809
1104.20 0.04808
1104.30 0.04807
1104.40 0.04805
1104.50 0.04804
1104.60 0.04803
1104.70 0.04802
1104.80 0.048
1104.90 0.04799
1105.00 0.04798
1105.10 0.04797
1105.20 0.04795
1105.30 0.04794
1105.40 0.04793
1105.50 0.04792
1105.60 0.0479
1105.70 0.04789
1105.80 0.04787
1105.90 0.04786
1106.00 0.04784
1106.10 0.04783
1106.20 0.04782
1106.30 0.0478
1106.40 0.04779
1106.50 0.04777
1106.60 0.04776
1106.70 0.04775
1106.80 0.04773
1106.90 0.04772
1107.00 0.0477
1107.10 0.04769
1107.20 0.04767
1107.30 0.04766
1107.40 0.04764
1107.50 0.04763
1107.60 0.04761
1107.70 0.0476
1107.80 0.04758
1107.90 0.04757
1108.00 0.04755
1108.10 0.04754
1108.20 0.04752
1108.30 0.04751
1108.40 0.04749
1108.50 0.04748
1108.60 0.04746
1108.70 0.04745
1108.80 0.04743
1108.90 0.04742
1109.00 0.0474
1109.10 0.04739
1109.20 0.04737
1109.30 0.04736
1109.40 0.04734
1109.50 0.04733
1109.60 0.04731
1109.70 0.0473
1109.80 0.04728
1109.90 0.04726
1110.00 0.04725
1110.10 0.04723
1110.20 0.04722
1110.30 0.0472
1110.40 0.04719
1110.50 0.04717
1110.60 0.04716
1110.70 0.04714
1110.80 0.04712
1110.90 0.04711
1111.00 0.04709
1111.10 0.04708
1111.20 0.04706
1111.30 0.04705
1111.40 0.04703
1111.50 0.04702
1111.60 0.047
1111.70 0.04698
1111.80 0.04697
1111.90 0.04695
1112.00 0.04694
1112.10 0.04692
1112.20 0.04691
1112.30 0.04689
1112.40 0.04688
1112.50 0.04686
1112.60 0.04684
1112.70 0.04683
1112.80 0.04681
1112.90 0.0468
1113.00 0.04678
1113.10 0.04677
1113.20 0.04675
1113.30 0.04673
1113.40 0.04672
1113.50 0.0467
1113.60 0.04669
1113.70 0.04667
1113.80 0.04665
1113.90 0.04664
1114.00 0.04662
1114.10 0.04661
1114.20 0.04659
1114.30 0.04658
1114.40 0.04656
1114.50 0.04654
1114.60 0.04653
1114.70 0.04651
1114.80 0.0465
1114.90 0.04648
1115.00 0.04647
1115.10 0.04645
1115.20 0.04643
1115.30 0.04642
1115.40 0.0464
1115.50 0.04639
1115.60 0.04637
1115.70 0.04635
1115.80 0.04634
1115.90 0.04632
1116.00 0.04631
1116.10 0.04629
1116.20 0.04628
1116.30 0.04626
1116.40 0.04624
1116.50 0.04623
1116.60 0.04621
1116.70 0.0462
1116.80 0.04618
1116.90 0.04617
1117.00 0.04615
1117.10 0.04613
1117.20 0.04612
1117.30 0.0461
1117.40 0.04609
1117.50 0.04607
1117.60 0.04606
1117.70 0.04604
1117.80 0.04602
1117.90 0.04601
1118.00 0.04599
1118.10 0.04598
1118.20 0.04596
1118.30 0.04595
1118.40 0.04593
1118.50 0.04591
1118.60 0.0459
1118.70 0.04588
1118.80 0.04587
1118.90 0.04585
1119.00 0.04584
1119.10 0.04582
1119.20 0.0458
1119.30 0.04579
1119.40 0.04577
1119.50 0.04576
1119.60 0.04574
1119.70 0.04573
1119.80 0.04571
1119.90 0.04569
1120.00 0.04568
1120.10 0.04566
1120.20 0.04565
1120.30 0.04563
1120.40 0.04562
1120.50 0.0456
1120.60 0.04558
1120.70 0.04557
1120.80 0.04555
1120.90 0.04554
1121.00 0.04552
1121.10 0.04551
1121.20 0.04549
1121.30 0.04548
1121.40 0.04546
1121.50 0.04544
1121.60 0.04543
1121.70 0.04541
1121.80 0.0454
1121.90 0.04538
1122.00 0.04537
1122.10 0.04535
1122.20 0.04533
1122.30 0.04532
1122.40 0.0453
1122.50 0.04529
1122.60 0.04527
1122.70 0.04526
1122.80 0.04524
1122.90 0.04523
1123.00 0.04521
1123.10 0.0452
1123.20 0.04518
1123.30 0.04516
1123.40 0.04515
1123.50 0.04513
1123.60 0.04512
1123.70 0.0451
1123.80 0.04509
1123.90 0.04507
1124.00 0.04506
1124.10 0.04504
1124.20 0.04502
1124.30 0.04501
1124.40 0.04499
1124.50 0.04498
1124.60 0.04496
1124.70 0.04495
1124.80 0.04493
1124.90 0.04492
1125.00 0.0449
1125.10 0.04489
1125.20 0.04487
1125.30 0.04485
1125.40 0.04484
1125.50 0.04482
1125.60 0.04481
1125.70 0.04479
1125.80 0.04478
1125.90 0.04476
1126.00 0.04475
1126.10 0.04473
1126.20 0.04472
1126.30 0.0447
1126.40 0.04469
1126.50 0.04467
1126.60 0.04465
1126.70 0.04464
1126.80 0.04462
1126.90 0.04461
1127.00 0.04459
1127.10 0.04458
1127.20 0.04456
1127.30 0.04455
1127.40 0.04453
1127.50 0.04452
1127.60 0.0445
1127.70 0.04449
1127.80 0.04447
1127.90 0.04446
1128.00 0.04444
1128.10 0.04443
1128.20 0.04441
1128.30 0.0444
1128.40 0.04438
1128.50 0.04436
1128.60 0.04435
1128.70 0.04433
1128.80 0.04432
1128.90 0.0443
1129.00 0.04429
1129.10 0.04427
1129.20 0.04426
1129.30 0.04424
1129.40 0.04423
1129.50 0.04421
1129.60 0.0442
1129.70 0.04418
1129.80 0.04417
1129.90 0.04415
1130.00 0.04414
1130.10 0.04412
1130.20 0.04411
1130.30 0.04409
1130.40 0.04408
1130.50 0.04406
1130.60 0.04405
1130.70 0.04403
1130.80 0.04402
1130.90 0.044
1131.00 0.04399
1131.10 0.04397
1131.20 0.04396
1131.30 0.04394
1131.40 0.04393
1131.50 0.04391
1131.60 0.0439
1131.70 0.04388
1131.80 0.04387
1131.90 0.04385
1132.00 0.04384
1132.10 0.04382
1132.20 0.04381
1132.30 0.04379
1132.40 0.04378
1132.50 0.04376
1132.60 0.04375
1132.70 0.04373
1132.80 0.04372
1132.90 0.0437
1133.00 0.04369
1133.10 0.04367
1133.20 0.04366
1133.30 0.04364
1133.40 0.04363
1133.50 0.04361
1133.60 0.0436
1133.70 0.04358
1133.80 0.04357
1133.90 0.04355
1134.00 0.04354
1134.10 0.04352
1134.20 0.04351
1134.30 0.04349
1134.40 0.04348
1134.50 0.04346
1134.60 0.04345
1134.70 0.04343
1134.80 0.04342
1134.90 0.0434
1135.00 0.04339
1135.10 0.04337
1135.20 0.04336
1135.30 0.04334
1135.40 0.04333
1135.50 0.04331
1135.60 0.0433
1135.70 0.04328
1135.80 0.04327
1135.90 0.04325
1136.00 0.04324
1136.10 0.04322
1136.20 0.04321
1136.30 0.04319
1136.40 0.04318
1136.50 0.04317
1136.60 0.04315
1136.70 0.04314
1136.80 0.04312
1136.90 0.04311
1137.00 0.04309
1137.10 0.04308
1137.20 0.04306
1137.30 0.04305
1137.40 0.04303
1137.50 0.04302
1137.60 0.043
1137.70 0.04299
1137.80 0.04297
1137.90 0.04296
1138.00 0.04294
1138.10 0.04293
1138.20 0.04292
1138.30 0.0429
1138.40 0.04289
1138.50 0.04287
1138.60 0.04286
1138.70 0.04284
1138.80 0.04283
1138.90 0.04281
1139.00 0.0428
1139.10 0.04278
1139.20 0.04277
1139.30 0.04276
1139.40 0.04274
1139.50 0.04273
1139.60 0.04271
1139.70 0.0427
1139.80 0.04268
1139.90 0.04267
1140.00 0.04265
1140.10 0.04264
1140.20 0.04262
1140.30 0.04261
1140.40 0.04259
1140.50 0.04258
1140.60 0.04257
1140.70 0.04255
1140.80 0.04254
1140.90 0.04252
1141.00 0.04251
1141.10 0.04249
1141.20 0.04248
1141.30 0.04246
1141.40 0.04245
1141.50 0.04244
1141.60 0.04242
1141.70 0.04241
1141.80 0.04239
1141.90 0.04238
1142.00 0.04236
1142.10 0.04235
1142.20 0.04233
1142.30 0.04232
1142.40 0.04231
1142.50 0.04229
1142.60 0.04228
1142.70 0.04226
1142.80 0.04225
1142.90 0.04223
1143.00 0.04222
1143.10 0.04221
1143.20 0.04219
1143.30 0.04218
1143.40 0.04216
1143.50 0.04215
1143.60 0.04213
1143.70 0.04212
1143.80 0.0421
1143.90 0.04209
1144.00 0.04208
1144.10 0.04206
1144.20 0.04205
1144.30 0.04203
1144.40 0.04202
1144.50 0.042
1144.60 0.04199
1144.70 0.04198
1144.80 0.04196
1144.90 0.04195
1145.00 0.04193
1145.10 0.04192
1145.20 0.04191
1145.30 0.04189
1145.40 0.04188
1145.50 0.04186
1145.60 0.04185
1145.70 0.04183
1145.80 0.04182
1145.90 0.04181
1146.00 0.04179
1146.10 0.04178
1146.20 0.04176
1146.30 0.04175
1146.40 0.04173
1146.50 0.04172
1146.60 0.04171
1146.70 0.04169
1146.80 0.04168
1146.90 0.04166
1147.00 0.04165
1147.10 0.04164
1147.20 0.04162
1147.30 0.04161
1147.40 0.04159
1147.50 0.04158
1147.60 0.04157
1147.70 0.04155
1147.80 0.04154
1147.90 0.04152
1148.00 0.04151
1148.10 0.04149
1148.20 0.04148
1148.30 0.04147
1148.40 0.04145
1148.50 0.04144
1148.60 0.04142
1148.70 0.04141
1148.80 0.0414
1148.90 0.04138
1149.00 0.04137
1149.10 0.04135
1149.20 0.04134
1149.30 0.04133
1149.40 0.04131
1149.50 0.0413
1149.60 0.04128
1149.70 0.04127
1149.80 0.04126
1149.90 0.04124
1150.00 0.04123
1150.10 0.04121
1150.20 0.0412
1150.30 0.04119
1150.40 0.04117
1150.50 0.04116
1150.60 0.04115
1150.70 0.04113
1150.80 0.04112
1150.90 0.0411
1151.00 0.04109
1151.10 0.04108
1151.20 0.04106
1151.30 0.04105
1151.40 0.04103
1151.50 0.04102
1151.60 0.04101
1151.70 0.04099
1151.80 0.04098
1151.90 0.04096
1152.00 0.04095
1152.10 0.04094
1152.20 0.04092
1152.30 0.04091
1152.40 0.0409
1152.50 0.04088
1152.60 0.04087
1152.70 0.04085
1152.80 0.04084
1152.90 0.04083
1153.00 0.04081
1153.10 0.0408
1153.20 0.04079
1153.30 0.04077
1153.40 0.04076
1153.50 0.04074
1153.60 0.04073
1153.70 0.04072
1153.80 0.0407
1153.90 0.04069
1154.00 0.04068
1154.10 0.04066
1154.20 0.04065
1154.30 0.04063
1154.40 0.04062
1154.50 0.04061
1154.60 0.04059
1154.70 0.04058
1154.80 0.04057
1154.90 0.04055
1155.00 0.04054
1155.10 0.04052
1155.20 0.04051
1155.30 0.0405
1155.40 0.04048
1155.50 0.04047
1155.60 0.04046
1155.70 0.04044
1155.80 0.04043
1155.90 0.04042
1156.00 0.0404
1156.10 0.04039
1156.20 0.04037
1156.30 0.04036
1156.40 0.04035
1156.50 0.04033
1156.60 0.04032
1156.70 0.04031
1156.80 0.04029
1156.90 0.04028
1157.00 0.04027
1157.10 0.04025
1157.20 0.04024
1157.30 0.04023
1157.40 0.04021
1157.50 0.0402
1157.60 0.04019
1157.70 0.04017
1157.80 0.04016
1157.90 0.04014
1158.00 0.04013
1158.10 0.04012
1158.20 0.0401
1158.30 0.04009
1158.40 0.04008
1158.50 0.04006
1158.60 0.04005
1158.70 0.04004
1158.80 0.04002
1158.90 0.04001
1159.00 0.04
1159.10 0.03998
1159.20 0.03997
1159.30 0.03996
1159.40 0.03994
1159.50 0.03993
1159.60 0.03992
1159.70 0.0399
1159.80 0.03989
1159.90 0.03988
1160.00 0.03986
1160.10 0.03985
1160.20 0.03984
1160.30 0.03982
1160.40 0.03981
1160.50 0.0398
1160.60 0.03978
1160.70 0.03977
1160.80 0.03976
1160.90 0.03974
1161.00 0.03973
1161.10 0.03972
1161.20 0.0397
1161.30 0.03969
1161.40 0.03968
1161.50 0.03966
1161.60 0.03965
1161.70 0.03964
1161.80 0.03962
1161.90 0.03961
1162.00 0.0396
1162.10 0.03958
1162.20 0.03957
1162.30 0.03956
1162.40 0.03954
1162.50 0.03953
1162.60 0.03952
1162.70 0.0395
1162.80 0.03949
1162.90 0.03948
1163.00 0.03946
1163.10 0.03945
1163.20 0.03944
1163.30 0.03942
1163.40 0.03941
1163.50 0.0394
1163.60 0.03938
1163.70 0.03937
1163.80 0.03936
1163.90 0.03935
1164.00 0.03933
1164.10 0.03932
1164.20 0.03931
1164.30 0.03929
1164.40 0.03928
1164.50 0.03927
1164.60 0.03925
1164.70 0.03924
1164.80 0.03923
1164.90 0.03921
1165.00 0.0392
1165.10 0.03919
1165.20 0.03917
1165.30 0.03916
1165.40 0.03915
1165.50 0.03914
1165.60 0.03912
1165.70 0.03911
1165.80 0.0391
1165.90 0.03908
1166.00 0.03907
1166.10 0.03906
1166.20 0.03904
1166.30 0.03903
1166.40 0.03902
1166.50 0.03901
1166.60 0.03899
1166.70 0.03898
1166.80 0.03897
1166.90 0.03895
1167.00 0.03894
1167.10 0.03893
1167.20 0.03891
1167.30 0.0389
1167.40 0.03889
1167.50 0.03888
1167.60 0.03886
1167.70 0.03885
1167.80 0.03884
1167.90 0.03882
1168.00 0.03881
1168.10 0.0388
1168.20 0.03878
1168.30 0.03877
1168.40 0.03876
1168.50 0.03875
1168.60 0.03873
1168.70 0.03872
1168.80 0.03871
1168.90 0.03869
1169.00 0.03868
1169.10 0.03867
1169.20 0.03866
1169.30 0.03864
1169.40 0.03863
1169.50 0.03862
1169.60 0.0386
1169.70 0.03859
1169.80 0.03858
1169.90 0.03857
1170.00 0.03855
1170.10 0.03854
1170.20 0.03853
1170.30 0.03851
1170.40 0.0385
1170.50 0.03849
1170.60 0.03848
1170.70 0.03846
1170.80 0.03845
1170.90 0.03844
1171.00 0.03842
1171.10 0.03841
1171.20 0.0384
1171.30 0.03839
1171.40 0.03837
1171.50 0.03836
1171.60 0.03835
1171.70 0.03833
1171.80 0.03832
1171.90 0.03831
1172.00 0.0383
1172.10 0.03828
1172.20 0.03827
1172.30 0.03826
1172.40 0.03825
1172.50 0.03823
1172.60 0.03822
1172.70 0.03821
1172.80 0.0382
1172.90 0.03818
1173.00 0.03817
1173.10 0.03816
1173.20 0.03814
1173.30 0.03813
1173.40 0.03812
1173.50 0.03811
1173.60 0.03809
1173.70 0.03808
1173.80 0.03807
1173.90 0.03806
1174.00 0.03804
1174.10 0.03803
1174.20 0.03802
1174.30 0.03801
1174.40 0.03799
1174.50 0.03798
1174.60 0.03797
1174.70 0.03796
1174.80 0.03794
1174.90 0.03793
1175.00 0.03792
1175.10 0.03791
1175.20 0.03789
1175.30 0.03788
1175.40 0.03787
1175.50 0.03785
1175.60 0.03784
1175.70 0.03783
1175.80 0.03782
1175.90 0.0378
1176.00 0.03779
1176.10 0.03778
1176.20 0.03777
1176.30 0.03775
1176.40 0.03774
1176.50 0.03773
1176.60 0.03772
1176.70 0.0377
1176.80 0.03769
1176.90 0.03768
1177.00 0.03767
1177.10 0.03765
1177.20 0.03764
1177.30 0.03763
1177.40 0.03762
1177.50 0.03761
1177.60 0.03759
1177.70 0.03758
1177.80 0.03757
1177.90 0.03756
1178.00 0.03754
1178.10 0.03753
1178.20 0.03752
1178.30 0.03751
1178.40 0.03749
1178.50 0.03748
1178.60 0.03747
1178.70 0.03746
1178.80 0.03744
1178.90 0.03743
1179.00 0.03742
1179.10 0.03741
1179.20 0.03739
1179.30 0.03738
1179.40 0.03737
1179.50 0.03736
1179.60 0.03735
1179.70 0.03733
1179.80 0.03732
1179.90 0.03731
1180.00 0.0373
1180.10 0.03728
1180.20 0.03727
1180.30 0.03726
1180.40 0.03725
1180.50 0.03723
1180.60 0.03722
1180.70 0.03721
1180.80 0.0372
1180.90 0.03719
1181.00 0.03717
1181.10 0.03716
1181.20 0.03715
1181.30 0.03714
1181.40 0.03712
1181.50 0.03711
1181.60 0.0371
1181.70 0.03709
1181.80 0.03707
1181.90 0.03706
1182.00 0.03705
1182.10 0.03704
1182.20 0.03703
1182.30 0.03701
1182.40 0.037
1182.50 0.03699
1182.60 0.03698
1182.70 0.03697
1182.80 0.03695
1182.90 0.03694
1183.00 0.03693
1183.10 0.03692
1183.20 0.0369
1183.30 0.03689
1183.40 0.03688
1183.50 0.03687
1183.60 0.03686
1183.70 0.03684
1183.80 0.03683
1183.90 0.03682
1184.00 0.03681
1184.10 0.0368
1184.20 0.03678
1184.30 0.03677
1184.40 0.03676
1184.50 0.03675
1184.60 0.03674
1184.70 0.03672
1184.80 0.03671
1184.90 0.0367
1185.00 0.03669
1185.10 0.03667
1185.20 0.03666
1185.30 0.03665
1185.40 0.03664
1185.50 0.03663
1185.60 0.03661
1185.70 0.0366
1185.80 0.03659
1185.90 0.03658
1186.00 0.03657
1186.10 0.03655
1186.20 0.03654
1186.30 0.03653
1186.40 0.03652
1186.50 0.03651
1186.60 0.03649
1186.70 0.03648
1186.80 0.03647
1186.90 0.03646
1187.00 0.03645
1187.10 0.03643
1187.20 0.03642
1187.30 0.03641
1187.40 0.0364
1187.50 0.03639
1187.60 0.03637
1187.70 0.03636
1187.80 0.03635
1187.90 0.03634
1188.00 0.03633
1188.10 0.03632
1188.20 0.0363
1188.30 0.03629
1188.40 0.03628
1188.50 0.03627
1188.60 0.03626
1188.70 0.03624
1188.80 0.03623
1188.90 0.03622
1189.00 0.03621
1189.10 0.0362
1189.20 0.03618
1189.30 0.03617
1189.40 0.03616
1189.50 0.03615
1189.60 0.03614
1189.70 0.03613
1189.80 0.03611
1189.90 0.0361
1190.00 0.03609
1190.10 0.03608
1190.20 0.03607
1190.30 0.03605
1190.40 0.03604
1190.50 0.03603
1190.60 0.03602
1190.70 0.03601
1190.80 0.036
1190.90 0.03598
1191.00 0.03597
1191.10 0.03596
1191.20 0.03595
1191.30 0.03594
1191.40 0.03592
1191.50 0.03591
1191.60 0.0359
1191.70 0.03589
1191.80 0.03588
1191.90 0.03587
1192.00 0.03585
1192.10 0.03584
1192.20 0.03583
1192.30 0.03582
1192.40 0.03581
1192.50 0.0358
1192.60 0.03578
1192.70 0.03577
1192.80 0.03576
1192.90 0.03575
1193.00 0.03574
1193.10 0.03573
1193.20 0.03571
1193.30 0.0357
1193.40 0.03569
1193.50 0.03568
1193.60 0.03567
1193.70 0.03566
1193.80 0.03564
1193.90 0.03563
1194.00 0.03562
1194.10 0.03561
1194.20 0.0356
1194.30 0.03559
1194.40 0.03557
1194.50 0.03556
1194.60 0.03555
1194.70 0.03554
1194.80 0.03553
1194.90 0.03552
1195.00 0.03551
1195.10 0.03549
1195.20 0.03548
1195.30 0.03547
1195.40 0.03546
1195.50 0.03545
1195.60 0.03544
1195.70 0.03542
1195.80 0.03541
1195.90 0.0354
1196.00 0.03539
1196.10 0.03538
1196.20 0.03537
1196.30 0.03535
1196.40 0.03534
1196.50 0.03533
1196.60 0.03532
1196.70 0.03531
1196.80 0.0353
1196.90 0.03529
1197.00 0.03527
1197.10 0.03526
1197.20 0.03525
1197.30 0.03524
1197.40 0.03523
1197.50 0.03522
1197.60 0.03521
1197.70 0.03519
1197.80 0.03518
1197.90 0.03517
1198.00 0.03516
1198.10 0.03515
1198.20 0.03514
1198.30 0.03513
1198.40 0.03511
1198.50 0.0351
1198.60 0.03509
1198.70 0.03508
1198.80 0.03507
1198.90 0.03506
1199.00 0.03505
1199.10 0.03503
1199.20 0.03502
1199.30 0.03501
1199.40 0.035
1199.50 0.03499
1199.60 0.03498
1199.70 0.03497
1199.80 0.03495
1199.90 0.03494
1200.00 0
