# Version 2.1 - nm, norm@500 to 1, cut digits, bergeron_2500_80.dat_2500
# Wavelength(nm)  Flambda(ergs/cm^s/s/nm)
300.00 0.06497
300.10 0.06515
300.20 0.06534
300.30 0.06554
300.40 0.06573
300.50 0.06592
300.60 0.06611
300.70 0.0663
300.80 0.06649
300.90 0.06668
301.00 0.06687
301.10 0.06706
301.20 0.06725
301.30 0.06744
301.40 0.06763
301.50 0.06782
301.60 0.068
301.70 0.06819
301.80 0.06838
301.90 0.06857
302.00 0.06876
302.10 0.06895
302.20 0.06915
302.30 0.06935
302.40 0.06955
302.50 0.06975
302.60 0.06995
302.70 0.07015
302.80 0.07034
302.90 0.07054
303.00 0.07074
303.10 0.07093
303.20 0.07113
303.30 0.07133
303.40 0.07152
303.50 0.07172
303.60 0.07191
303.70 0.07211
303.80 0.0723
303.90 0.0725
304.00 0.0727
304.10 0.0729
304.20 0.07311
304.30 0.07331
304.40 0.07352
304.50 0.07372
304.60 0.07393
304.70 0.07413
304.80 0.07434
304.90 0.07454
305.00 0.07475
305.10 0.07495
305.20 0.07515
305.30 0.07536
305.40 0.07556
305.50 0.07576
305.60 0.07597
305.70 0.07617
305.80 0.07637
305.90 0.07657
306.00 0.07678
306.10 0.07699
306.20 0.0772
306.30 0.07742
306.40 0.07763
306.50 0.07784
306.60 0.07805
306.70 0.07827
306.80 0.07848
306.90 0.07869
307.00 0.0789
307.10 0.07911
307.20 0.07933
307.30 0.07954
307.40 0.07975
307.50 0.07996
307.60 0.08017
307.70 0.08038
307.80 0.08058
307.90 0.08079
308.00 0.08101
308.10 0.08123
308.20 0.08145
308.30 0.08167
308.40 0.08189
308.50 0.08211
308.60 0.08233
308.70 0.08255
308.80 0.08277
308.90 0.08299
309.00 0.08321
309.10 0.08342
309.20 0.08364
309.30 0.08386
309.40 0.08408
309.50 0.0843
309.60 0.08451
309.70 0.08473
309.80 0.08495
309.90 0.08516
310.00 0.08539
310.10 0.08561
310.20 0.08584
310.30 0.08607
310.40 0.0863
310.50 0.08652
310.60 0.08675
310.70 0.08698
310.80 0.08721
310.90 0.08743
311.00 0.08766
311.10 0.08789
311.20 0.08811
311.30 0.08834
311.40 0.08857
311.50 0.08879
311.60 0.08902
311.70 0.08924
311.80 0.08947
311.90 0.08969
312.00 0.08991
312.10 0.09014
312.20 0.09037
312.30 0.0906
312.40 0.09083
312.50 0.09107
312.60 0.09131
312.70 0.09154
312.80 0.09178
312.90 0.09201
313.00 0.09225
313.10 0.09248
313.20 0.09271
313.30 0.09295
313.40 0.09318
313.50 0.09341
313.60 0.09365
313.70 0.09388
313.80 0.09411
313.90 0.09435
314.00 0.09458
314.10 0.09482
314.20 0.09506
314.30 0.09531
314.40 0.09555
314.50 0.09579
314.60 0.09603
314.70 0.09628
314.80 0.09652
314.90 0.09676
315.00 0.097
315.10 0.09724
315.20 0.09748
315.30 0.09772
315.40 0.09796
315.50 0.0982
315.60 0.09844
315.70 0.09868
315.80 0.09892
315.90 0.09916
316.00 0.09941
316.10 0.09965
316.20 0.0999
316.30 0.1001
316.40 0.1004
316.50 0.1007
316.60 0.1009
316.70 0.1011
316.80 0.1014
316.90 0.1016
317.00 0.1019
317.10 0.1021
317.20 0.1024
317.30 0.1026
317.40 0.1029
317.50 0.1031
317.60 0.1034
317.70 0.1036
317.80 0.1039
317.90 0.1041
318.00 0.1044
318.10 0.1046
318.20 0.1049
318.30 0.1051
318.40 0.1054
318.50 0.1057
318.60 0.1059
318.70 0.1062
318.80 0.1064
318.90 0.1067
319.00 0.1069
319.10 0.1072
319.20 0.1075
319.30 0.1077
319.40 0.108
319.50 0.1082
319.60 0.1085
319.70 0.1087
319.80 0.109
319.90 0.1092
320.00 0.1095
320.10 0.1098
320.20 0.11
320.30 0.1103
320.40 0.1106
320.50 0.1108
320.60 0.1111
320.70 0.1114
320.80 0.1116
320.90 0.1119
321.00 0.1122
321.10 0.1124
321.20 0.1127
321.30 0.1129
321.40 0.1132
321.50 0.1135
321.60 0.1137
321.70 0.114
321.80 0.1142
321.90 0.1145
322.00 0.1148
322.10 0.115
322.20 0.1153
322.30 0.1156
322.40 0.1159
322.50 0.1161
322.60 0.1164
322.70 0.1167
322.80 0.117
322.90 0.1172
323.00 0.1175
323.10 0.1178
323.20 0.118
323.30 0.1183
323.40 0.1186
323.50 0.1189
323.60 0.1191
323.70 0.1194
323.80 0.1197
323.90 0.1199
324.00 0.1202
324.10 0.1205
324.20 0.1208
324.30 0.121
324.40 0.1213
324.50 0.1216
324.60 0.1219
324.70 0.1222
324.80 0.1224
324.90 0.1227
325.00 0.123
325.10 0.1233
325.20 0.1236
325.30 0.1238
325.40 0.1241
325.50 0.1244
325.60 0.1247
325.70 0.1249
325.80 0.1252
325.90 0.1255
326.00 0.1258
326.10 0.1261
326.20 0.1264
326.30 0.1266
326.40 0.1269
326.50 0.1272
326.60 0.1275
326.70 0.1278
326.80 0.1281
326.90 0.1284
327.00 0.1287
327.10 0.1289
327.20 0.1292
327.30 0.1295
327.40 0.1298
327.50 0.1301
327.60 0.1304
327.70 0.1307
327.80 0.1309
327.90 0.1312
328.00 0.1315
328.10 0.1318
328.20 0.1321
328.30 0.1324
328.40 0.1327
328.50 0.133
328.60 0.1333
328.70 0.1336
328.80 0.1339
328.90 0.1342
329.00 0.1345
329.10 0.1348
329.20 0.1351
329.30 0.1353
329.40 0.1356
329.50 0.1359
329.60 0.1362
329.70 0.1365
329.80 0.1368
329.90 0.1371
330.00 0.1374
330.10 0.1377
330.20 0.138
330.30 0.1383
330.40 0.1386
330.50 0.1389
330.60 0.1392
330.70 0.1395
330.80 0.1398
330.90 0.1401
331.00 0.1404
331.10 0.1407
331.20 0.141
331.30 0.1413
331.40 0.1416
331.50 0.1419
331.60 0.1422
331.70 0.1425
331.80 0.1428
331.90 0.1431
332.00 0.1434
332.10 0.1437
332.20 0.1441
332.30 0.1444
332.40 0.1447
332.50 0.145
332.60 0.1453
332.70 0.1456
332.80 0.1459
332.90 0.1462
333.00 0.1465
333.10 0.1469
333.20 0.1472
333.30 0.1475
333.40 0.1478
333.50 0.1481
333.60 0.1484
333.70 0.1487
333.80 0.149
333.90 0.1493
334.00 0.1496
334.10 0.1499
334.20 0.1503
334.30 0.1506
334.40 0.1509
334.50 0.1512
334.60 0.1515
334.70 0.1519
334.80 0.1522
334.90 0.1525
335.00 0.1528
335.10 0.1531
335.20 0.1534
335.30 0.1538
335.40 0.1541
335.50 0.1544
335.60 0.1547
335.70 0.155
335.80 0.1553
335.90 0.1556
336.00 0.156
336.10 0.1563
336.20 0.1566
336.30 0.1569
336.40 0.1573
336.50 0.1576
336.60 0.1579
336.70 0.1582
336.80 0.1586
336.90 0.1589
337.00 0.1592
337.10 0.1595
337.20 0.1599
337.30 0.1602
337.40 0.1605
337.50 0.1608
337.60 0.1612
337.70 0.1615
337.80 0.1618
337.90 0.1621
338.00 0.1624
338.10 0.1628
338.20 0.1631
338.30 0.1635
338.40 0.1638
338.50 0.1641
338.60 0.1645
338.70 0.1648
338.80 0.1651
338.90 0.1655
339.00 0.1658
339.10 0.1661
339.20 0.1664
339.30 0.1668
339.40 0.1671
339.50 0.1674
339.60 0.1678
339.70 0.1681
339.80 0.1684
339.90 0.1688
340.00 0.1691
340.10 0.1694
340.20 0.1698
340.30 0.1701
340.40 0.1705
340.50 0.1708
340.60 0.1711
340.70 0.1715
340.80 0.1718
340.90 0.1722
341.00 0.1725
341.10 0.1728
341.20 0.1732
341.30 0.1735
341.40 0.1739
341.50 0.1742
341.60 0.1745
341.70 0.1749
341.80 0.1752
341.90 0.1755
342.00 0.1759
342.10 0.1762
342.20 0.1766
342.30 0.1769
342.40 0.1773
342.50 0.1776
342.60 0.178
342.70 0.1783
342.80 0.1787
342.90 0.179
343.00 0.1794
343.10 0.1797
343.20 0.1801
343.30 0.1804
343.40 0.1807
343.50 0.1811
343.60 0.1814
343.70 0.1818
343.80 0.1821
343.90 0.1825
344.00 0.1828
344.10 0.1832
344.20 0.1835
344.30 0.1839
344.40 0.1842
344.50 0.1846
344.60 0.185
344.70 0.1853
344.80 0.1857
344.90 0.186
345.00 0.1864
345.10 0.1867
345.20 0.1871
345.30 0.1874
345.40 0.1878
345.50 0.1881
345.60 0.1885
345.70 0.1888
345.80 0.1892
345.90 0.1895
346.00 0.1899
346.10 0.1903
346.20 0.1906
346.30 0.191
346.40 0.1914
346.50 0.1917
346.60 0.1921
346.70 0.1925
346.80 0.1928
346.90 0.1932
347.00 0.1935
347.10 0.1939
347.20 0.1943
347.30 0.1946
347.40 0.195
347.50 0.1953
347.60 0.1957
347.70 0.1961
347.80 0.1964
347.90 0.1968
348.00 0.1971
348.10 0.1975
348.20 0.1979
348.30 0.1983
348.40 0.1986
348.50 0.199
348.60 0.1994
348.70 0.1997
348.80 0.2001
348.90 0.2005
349.00 0.2008
349.10 0.2012
349.20 0.2016
349.30 0.2019
349.40 0.2023
349.50 0.2027
349.60 0.203
349.70 0.2034
349.80 0.2038
349.90 0.2041
350.00 0.2045
350.10 0.2049
350.20 0.2053
350.30 0.2056
350.40 0.206
350.50 0.2064
350.60 0.2068
350.70 0.2072
350.80 0.2075
350.90 0.2079
351.00 0.2083
351.10 0.2087
351.20 0.209
351.30 0.2094
351.40 0.2098
351.50 0.2102
351.60 0.2105
351.70 0.2109
351.80 0.2113
351.90 0.2117
352.00 0.212
352.10 0.2124
352.20 0.2128
352.30 0.2132
352.40 0.2136
352.50 0.214
352.60 0.2143
352.70 0.2147
352.80 0.2151
352.90 0.2155
353.00 0.2159
353.10 0.2163
353.20 0.2167
353.30 0.217
353.40 0.2174
353.50 0.2178
353.60 0.2182
353.70 0.2186
353.80 0.2189
353.90 0.2193
354.00 0.2197
354.10 0.2201
354.20 0.2205
354.30 0.2209
354.40 0.2213
354.50 0.2217
354.60 0.2221
354.70 0.2224
354.80 0.2228
354.90 0.2232
355.00 0.2236
355.10 0.224
355.20 0.2244
355.30 0.2248
355.40 0.2252
355.50 0.2256
355.60 0.2259
355.70 0.2263
355.80 0.2267
355.90 0.2271
356.00 0.2275
356.10 0.2279
356.20 0.2283
356.30 0.2287
356.40 0.2291
356.50 0.2295
356.60 0.2299
356.70 0.2303
356.80 0.2307
356.90 0.2311
357.00 0.2315
357.10 0.2319
357.20 0.2323
357.30 0.2327
357.40 0.2331
357.50 0.2335
357.60 0.2339
357.70 0.2343
357.80 0.2347
357.90 0.2351
358.00 0.2354
358.10 0.2359
358.20 0.2363
358.30 0.2367
358.40 0.2371
358.50 0.2375
358.60 0.2379
358.70 0.2383
358.80 0.2387
358.90 0.2391
359.00 0.2395
359.10 0.2399
359.20 0.2403
359.30 0.2407
359.40 0.2411
359.50 0.2415
359.60 0.2419
359.70 0.2423
359.80 0.2427
359.90 0.2431
360.00 0.2435
360.10 0.2439
360.20 0.2444
360.30 0.2448
360.40 0.2452
360.50 0.2456
360.60 0.246
360.70 0.2464
360.80 0.2468
360.90 0.2473
361.00 0.2477
361.10 0.2481
361.20 0.2485
361.30 0.2489
361.40 0.2493
361.50 0.2497
361.60 0.2501
361.70 0.2505
361.80 0.2509
361.90 0.2513
362.00 0.2517
362.10 0.2522
362.20 0.2526
362.30 0.253
362.40 0.2534
362.50 0.2538
362.60 0.2542
362.70 0.2547
362.80 0.2551
362.90 0.2555
363.00 0.2559
363.10 0.2563
363.20 0.2568
363.30 0.2572
363.40 0.2576
363.50 0.258
363.60 0.2584
363.70 0.2589
363.80 0.2593
363.90 0.2597
364.00 0.2601
364.10 0.2605
364.20 0.261
364.30 0.2614
364.40 0.2618
364.50 0.2622
364.60 0.2626
364.70 0.2631
364.80 0.2635
364.90 0.2639
365.00 0.2643
365.10 0.2648
365.20 0.2652
365.30 0.2656
365.40 0.266
365.50 0.2665
365.60 0.2669
365.70 0.2673
365.80 0.2677
365.90 0.2682
366.00 0.2686
366.10 0.269
366.20 0.2695
366.30 0.2699
366.40 0.2703
366.50 0.2708
366.60 0.2712
366.70 0.2716
366.80 0.2721
366.90 0.2725
367.00 0.2729
367.10 0.2733
367.20 0.2738
367.30 0.2742
367.40 0.2746
367.50 0.2751
367.60 0.2755
367.70 0.2759
367.80 0.2763
367.90 0.2768
368.00 0.2772
368.10 0.2776
368.20 0.2781
368.30 0.2785
368.40 0.279
368.50 0.2794
368.60 0.2798
368.70 0.2803
368.80 0.2807
368.90 0.2812
369.00 0.2816
369.10 0.282
369.20 0.2825
369.30 0.2829
369.40 0.2833
369.50 0.2838
369.60 0.2842
369.70 0.2846
369.80 0.2851
369.90 0.2855
370.00 0.2859
370.10 0.2864
370.20 0.2868
370.30 0.2873
370.40 0.2877
370.50 0.2882
370.60 0.2886
370.70 0.2891
370.80 0.2895
370.90 0.29
371.00 0.2904
371.10 0.2908
371.20 0.2913
371.30 0.2917
371.40 0.2922
371.50 0.2926
371.60 0.2931
371.70 0.2935
371.80 0.2939
371.90 0.2944
372.00 0.2948
372.10 0.2953
372.20 0.2957
372.30 0.2962
372.40 0.2966
372.50 0.2971
372.60 0.2975
372.70 0.298
372.80 0.2984
372.90 0.2989
373.00 0.2993
373.10 0.2998
373.20 0.3002
373.30 0.3007
373.40 0.3011
373.50 0.3016
373.60 0.302
373.70 0.3025
373.80 0.3029
373.90 0.3034
374.00 0.3038
374.10 0.3043
374.20 0.3047
374.30 0.3052
374.40 0.3057
374.50 0.3061
374.60 0.3066
374.70 0.307
374.80 0.3075
374.90 0.3079
375.00 0.3084
375.10 0.3089
375.20 0.3093
375.30 0.3098
375.40 0.3102
375.50 0.3107
375.60 0.3111
375.70 0.3116
375.80 0.312
375.90 0.3125
376.00 0.3129
376.10 0.3134
376.20 0.3139
376.30 0.3143
376.40 0.3148
376.50 0.3152
376.60 0.3157
376.70 0.3162
376.80 0.3166
376.90 0.3171
377.00 0.3175
377.10 0.318
377.20 0.3185
377.30 0.3189
377.40 0.3194
377.50 0.3199
377.60 0.3203
377.70 0.3208
377.80 0.3212
377.90 0.3217
378.00 0.3222
378.10 0.3226
378.20 0.3231
378.30 0.3236
378.40 0.324
378.50 0.3245
378.60 0.325
378.70 0.3254
378.80 0.3259
378.90 0.3264
379.00 0.3268
379.10 0.3273
379.20 0.3278
379.30 0.3282
379.40 0.3287
379.50 0.3292
379.60 0.3296
379.70 0.3301
379.80 0.3306
379.90 0.3311
380.00 0.3315
380.10 0.332
380.20 0.3325
380.30 0.3329
380.40 0.3334
380.50 0.3339
380.60 0.3344
380.70 0.3348
380.80 0.3353
380.90 0.3358
381.00 0.3362
381.10 0.3367
381.20 0.3372
381.30 0.3377
381.40 0.3381
381.50 0.3386
381.60 0.3391
381.70 0.3396
381.80 0.34
381.90 0.3405
382.00 0.341
382.10 0.3415
382.20 0.3419
382.30 0.3424
382.40 0.3429
382.50 0.3434
382.60 0.3439
382.70 0.3443
382.80 0.3448
382.90 0.3453
383.00 0.3458
383.10 0.3462
383.20 0.3467
383.30 0.3472
383.40 0.3477
383.50 0.3482
383.60 0.3486
383.70 0.3491
383.80 0.3496
383.90 0.3501
384.00 0.3506
384.10 0.351
384.20 0.3515
384.30 0.352
384.40 0.3525
384.50 0.353
384.60 0.3535
384.70 0.3539
384.80 0.3544
384.90 0.3549
385.00 0.3554
385.10 0.3559
385.20 0.3564
385.30 0.3568
385.40 0.3573
385.50 0.3578
385.60 0.3583
385.70 0.3588
385.80 0.3593
385.90 0.3598
386.00 0.3603
386.10 0.3607
386.20 0.3612
386.30 0.3617
386.40 0.3622
386.50 0.3627
386.60 0.3632
386.70 0.3637
386.80 0.3642
386.90 0.3646
387.00 0.3651
387.10 0.3656
387.20 0.3661
387.30 0.3666
387.40 0.3671
387.50 0.3676
387.60 0.3681
387.70 0.3686
387.80 0.3691
387.90 0.3696
388.00 0.37
388.10 0.3705
388.20 0.371
388.30 0.3715
388.40 0.372
388.50 0.3725
388.60 0.373
388.70 0.3735
388.80 0.374
388.90 0.3745
389.00 0.375
389.10 0.3755
389.20 0.376
389.30 0.3765
389.40 0.377
389.50 0.3775
389.60 0.378
389.70 0.3785
389.80 0.3789
389.90 0.3794
390.00 0.3799
390.10 0.3804
390.20 0.3809
390.30 0.3814
390.40 0.3819
390.50 0.3824
390.60 0.3829
390.70 0.3834
390.80 0.3839
390.90 0.3844
391.00 0.3849
391.10 0.3854
391.20 0.3859
391.30 0.3864
391.40 0.3869
391.50 0.3874
391.60 0.3879
391.70 0.3884
391.80 0.3889
391.90 0.3894
392.00 0.3899
392.10 0.3904
392.20 0.3909
392.30 0.3915
392.40 0.392
392.50 0.3925
392.60 0.393
392.70 0.3935
392.80 0.394
392.90 0.3945
393.00 0.395
393.10 0.3955
393.20 0.396
393.30 0.3965
393.40 0.397
393.50 0.3975
393.60 0.398
393.70 0.3985
393.80 0.399
393.90 0.3995
394.00 0.4
394.10 0.4006
394.20 0.4011
394.30 0.4016
394.40 0.4021
394.50 0.4026
394.60 0.4031
394.70 0.4036
394.80 0.4041
394.90 0.4046
395.00 0.4051
395.10 0.4056
395.20 0.4062
395.30 0.4067
395.40 0.4072
395.50 0.4077
395.60 0.4082
395.70 0.4087
395.80 0.4092
395.90 0.4097
396.00 0.4102
396.10 0.4107
396.20 0.4113
396.30 0.4118
396.40 0.4123
396.50 0.4128
396.60 0.4133
396.70 0.4138
396.80 0.4143
396.90 0.4149
397.00 0.4154
397.10 0.4159
397.20 0.4164
397.30 0.4169
397.40 0.4174
397.50 0.4179
397.60 0.4185
397.70 0.419
397.80 0.4195
397.90 0.42
398.00 0.4205
398.10 0.421
398.20 0.4216
398.30 0.4221
398.40 0.4226
398.50 0.4231
398.60 0.4236
398.70 0.4241
398.80 0.4247
398.90 0.4252
399.00 0.4257
399.10 0.4262
399.20 0.4267
399.30 0.4273
399.40 0.4278
399.50 0.4283
399.60 0.4288
399.70 0.4293
399.80 0.4299
399.90 0.4304
400.00 0.4309
400.10 0.4314
400.20 0.4319
400.30 0.4325
400.40 0.433
400.50 0.4335
400.60 0.434
400.70 0.4346
400.80 0.4351
400.90 0.4356
401.00 0.4361
401.10 0.4367
401.20 0.4372
401.30 0.4377
401.40 0.4382
401.50 0.4387
401.60 0.4393
401.70 0.4398
401.80 0.4403
401.90 0.4408
402.00 0.4414
402.10 0.4419
402.20 0.4424
402.30 0.4429
402.40 0.4435
402.50 0.444
402.60 0.4445
402.70 0.4451
402.80 0.4456
402.90 0.4461
403.00 0.4466
403.10 0.4472
403.20 0.4477
403.30 0.4482
403.40 0.4487
403.50 0.4493
403.60 0.4498
403.70 0.4503
403.80 0.4509
403.90 0.4514
404.00 0.4519
404.10 0.4524
404.20 0.453
404.30 0.4535
404.40 0.454
404.50 0.4546
404.60 0.4551
404.70 0.4556
404.80 0.4562
404.90 0.4567
405.00 0.4572
405.10 0.4578
405.20 0.4583
405.30 0.4588
405.40 0.4594
405.50 0.4599
405.60 0.4604
405.70 0.4609
405.80 0.4615
405.90 0.462
406.00 0.4625
406.10 0.4631
406.20 0.4636
406.30 0.4641
406.40 0.4647
406.50 0.4652
406.60 0.4658
406.70 0.4663
406.80 0.4668
406.90 0.4674
407.00 0.4679
407.10 0.4684
407.20 0.469
407.30 0.4695
407.40 0.47
407.50 0.4706
407.60 0.4711
407.70 0.4716
407.80 0.4722
407.90 0.4727
408.00 0.4733
408.10 0.4738
408.20 0.4743
408.30 0.4749
408.40 0.4754
408.50 0.4759
408.60 0.4765
408.70 0.477
408.80 0.4776
408.90 0.4781
409.00 0.4786
409.10 0.4792
409.20 0.4797
409.30 0.4803
409.40 0.4808
409.50 0.4813
409.60 0.4819
409.70 0.4824
409.80 0.483
409.90 0.4835
410.00 0.484
410.10 0.4846
410.20 0.4851
410.30 0.4857
410.40 0.4862
410.50 0.4867
410.60 0.4873
410.70 0.4878
410.80 0.4884
410.90 0.4889
411.00 0.4895
411.10 0.49
411.20 0.4906
411.30 0.4911
411.40 0.4916
411.50 0.4922
411.60 0.4927
411.70 0.4933
411.80 0.4938
411.90 0.4944
412.00 0.4949
412.10 0.4954
412.20 0.496
412.30 0.4965
412.40 0.4971
412.50 0.4976
412.60 0.4982
412.70 0.4987
412.80 0.4993
412.90 0.4998
413.00 0.5004
413.10 0.5009
413.20 0.5015
413.30 0.502
413.40 0.5025
413.50 0.5031
413.60 0.5036
413.70 0.5042
413.80 0.5047
413.90 0.5053
414.00 0.5058
414.10 0.5064
414.20 0.5069
414.30 0.5075
414.40 0.508
414.50 0.5086
414.60 0.5091
414.70 0.5097
414.80 0.5102
414.90 0.5108
415.00 0.5113
415.10 0.5119
415.20 0.5124
415.30 0.513
415.40 0.5135
415.50 0.5141
415.60 0.5146
415.70 0.5152
415.80 0.5157
415.90 0.5163
416.00 0.5168
416.10 0.5174
416.20 0.5179
416.30 0.5185
416.40 0.519
416.50 0.5196
416.60 0.5201
416.70 0.5207
416.80 0.5212
416.90 0.5218
417.00 0.5223
417.10 0.5229
417.20 0.5234
417.30 0.524
417.40 0.5246
417.50 0.5251
417.60 0.5257
417.70 0.5262
417.80 0.5268
417.90 0.5273
418.00 0.5279
418.10 0.5284
418.20 0.529
418.30 0.5295
418.40 0.5301
418.50 0.5306
418.60 0.5312
418.70 0.5318
418.80 0.5323
418.90 0.5329
419.00 0.5334
419.10 0.534
419.20 0.5345
419.30 0.5351
419.40 0.5357
419.50 0.5362
419.60 0.5368
419.70 0.5373
419.80 0.5379
419.90 0.5384
420.00 0.539
420.10 0.5395
420.20 0.5401
420.30 0.5407
420.40 0.5412
420.50 0.5418
420.60 0.5423
420.70 0.5429
420.80 0.5435
420.90 0.544
421.00 0.5446
421.10 0.5451
421.20 0.5457
421.30 0.5463
421.40 0.5468
421.50 0.5474
421.60 0.5479
421.70 0.5485
421.80 0.549
421.90 0.5496
422.00 0.5502
422.10 0.5507
422.20 0.5513
422.30 0.5518
422.40 0.5524
422.50 0.553
422.60 0.5535
422.70 0.5541
422.80 0.5547
422.90 0.5552
423.00 0.5558
423.10 0.5563
423.20 0.5569
423.30 0.5575
423.40 0.558
423.50 0.5586
423.60 0.5591
423.70 0.5597
423.80 0.5603
423.90 0.5608
424.00 0.5614
424.10 0.562
424.20 0.5625
424.30 0.5631
424.40 0.5637
424.50 0.5642
424.60 0.5648
424.70 0.5654
424.80 0.5659
424.90 0.5665
425.00 0.567
425.10 0.5676
425.20 0.5682
425.30 0.5687
425.40 0.5693
425.50 0.5698
425.60 0.5704
425.70 0.571
425.80 0.5716
425.90 0.5721
426.00 0.5727
426.10 0.5733
426.20 0.5738
426.30 0.5744
426.40 0.5749
426.50 0.5755
426.60 0.5761
426.70 0.5766
426.80 0.5772
426.90 0.5778
427.00 0.5783
427.10 0.5789
427.20 0.5795
427.30 0.58
427.40 0.5806
427.50 0.5812
427.60 0.5818
427.70 0.5823
427.80 0.5829
427.90 0.5834
428.00 0.584
428.10 0.5846
428.20 0.5851
428.30 0.5857
428.40 0.5863
428.50 0.5869
428.60 0.5874
428.70 0.588
428.80 0.5886
428.90 0.5891
429.00 0.5897
429.10 0.5902
429.20 0.5908
429.30 0.5914
429.40 0.5919
429.50 0.5925
429.60 0.5931
429.70 0.5937
429.80 0.5942
429.90 0.5948
430.00 0.5954
430.10 0.596
430.20 0.5965
430.30 0.5971
430.40 0.5977
430.50 0.5982
430.60 0.5988
430.70 0.5994
430.80 0.5999
430.90 0.6005
431.00 0.6011
431.10 0.6017
431.20 0.6022
431.30 0.6028
431.40 0.6034
431.50 0.6039
431.60 0.6045
431.70 0.6051
431.80 0.6057
431.90 0.6062
432.00 0.6068
432.10 0.6074
432.20 0.6079
432.30 0.6085
432.40 0.6091
432.50 0.6097
432.60 0.6102
432.70 0.6108
432.80 0.6114
432.90 0.612
433.00 0.6125
433.10 0.6131
433.20 0.6137
433.30 0.6143
433.40 0.6148
433.50 0.6154
433.60 0.616
433.70 0.6165
433.80 0.6171
433.90 0.6177
434.00 0.6183
434.10 0.6189
434.20 0.6194
434.30 0.62
434.40 0.6205
434.50 0.6211
434.60 0.6217
434.70 0.6223
434.80 0.6228
434.90 0.6234
435.00 0.624
435.10 0.6245
435.20 0.6252
435.30 0.6257
435.40 0.6263
435.50 0.6269
435.60 0.6275
435.70 0.628
435.80 0.6286
435.90 0.6292
436.00 0.6297
436.10 0.6303
436.20 0.6309
436.30 0.6315
436.40 0.632
436.50 0.6326
436.60 0.6332
436.70 0.6338
436.80 0.6343
436.90 0.6349
437.00 0.6355
437.10 0.6361
437.20 0.6366
437.30 0.6372
437.40 0.6378
437.50 0.6384
437.60 0.639
437.70 0.6395
437.80 0.6401
437.90 0.6407
438.00 0.6413
438.10 0.6419
438.20 0.6424
438.30 0.643
438.40 0.6436
438.50 0.6442
438.60 0.6447
438.70 0.6453
438.80 0.6459
438.90 0.6465
439.00 0.6471
439.10 0.6476
439.20 0.6482
439.30 0.6488
439.40 0.6494
439.50 0.65
439.60 0.6505
439.70 0.6511
439.80 0.6517
439.90 0.6522
440.00 0.6528
440.10 0.6534
440.20 0.654
440.30 0.6546
440.40 0.6552
440.50 0.6557
440.60 0.6563
440.70 0.6569
440.80 0.6575
440.90 0.658
441.00 0.6586
441.10 0.6592
441.20 0.6598
441.30 0.6604
441.40 0.661
441.50 0.6615
441.60 0.6621
441.70 0.6627
441.80 0.6633
441.90 0.6639
442.00 0.6644
442.10 0.665
442.20 0.6656
442.30 0.6662
442.40 0.6667
442.50 0.6673
442.60 0.6679
442.70 0.6685
442.80 0.6691
442.90 0.6697
443.00 0.6702
443.10 0.6708
443.20 0.6714
443.30 0.672
443.40 0.6726
443.50 0.6731
443.60 0.6737
443.70 0.6743
443.80 0.6749
443.90 0.6754
444.00 0.676
444.10 0.6766
444.20 0.6772
444.30 0.6778
444.40 0.6784
444.50 0.679
444.60 0.6795
444.70 0.6801
444.80 0.6807
444.90 0.6812
445.00 0.6818
445.10 0.6824
445.20 0.683
445.30 0.6836
445.40 0.6842
445.50 0.6847
445.60 0.6853
445.70 0.6859
445.80 0.6865
445.90 0.6871
446.00 0.6877
446.10 0.6883
446.20 0.6888
446.30 0.6894
446.40 0.69
446.50 0.6906
446.60 0.6911
446.70 0.6917
446.80 0.6923
446.90 0.6929
447.00 0.6935
447.10 0.6941
447.20 0.6947
447.30 0.6952
447.40 0.6958
447.50 0.6964
447.60 0.697
447.70 0.6976
447.80 0.6981
447.90 0.6987
448.00 0.6993
448.10 0.6999
448.20 0.7005
448.30 0.7011
448.40 0.7016
448.50 0.7022
448.60 0.7028
448.70 0.7034
448.80 0.704
448.90 0.7045
449.00 0.7051
449.10 0.7057
449.20 0.7063
449.30 0.7069
449.40 0.7075
449.50 0.708
449.60 0.7086
449.70 0.7092
449.80 0.7098
449.90 0.7104
450.00 0.711
450.10 0.7116
450.20 0.7122
450.30 0.7128
450.40 0.7133
450.50 0.7139
450.60 0.7145
450.70 0.7151
450.80 0.7157
450.90 0.7163
451.00 0.7168
451.10 0.7174
451.20 0.718
451.30 0.7186
451.40 0.7192
451.50 0.7197
451.60 0.7203
451.70 0.7209
451.80 0.7215
451.90 0.7221
452.00 0.7227
452.10 0.7233
452.20 0.7238
452.30 0.7244
452.40 0.725
452.50 0.7256
452.60 0.7262
452.70 0.7267
452.80 0.7273
452.90 0.7279
453.00 0.7285
453.10 0.7291
453.20 0.7297
453.30 0.7302
453.40 0.7308
453.50 0.7314
453.60 0.732
453.70 0.7326
453.80 0.7332
453.90 0.7338
454.00 0.7343
454.10 0.7349
454.20 0.7355
454.30 0.7361
454.40 0.7367
454.50 0.7373
454.60 0.7378
454.70 0.7384
454.80 0.739
454.90 0.7396
455.00 0.7402
455.10 0.7408
455.20 0.7414
455.30 0.7419
455.40 0.7425
455.50 0.7431
455.60 0.7437
455.70 0.7443
455.80 0.7449
455.90 0.7455
456.00 0.746
456.10 0.7466
456.20 0.7472
456.30 0.7478
456.40 0.7484
456.50 0.749
456.60 0.7496
456.70 0.7502
456.80 0.7507
456.90 0.7513
457.00 0.7519
457.10 0.7525
457.20 0.7531
457.30 0.7537
457.40 0.7543
457.50 0.7548
457.60 0.7554
457.70 0.756
457.80 0.7566
457.90 0.7572
458.00 0.7577
458.10 0.7583
458.20 0.7589
458.30 0.7595
458.40 0.7601
458.50 0.7607
458.60 0.7612
458.70 0.7618
458.80 0.7624
458.90 0.763
459.00 0.7636
459.10 0.7642
459.20 0.7648
459.30 0.7654
459.40 0.766
459.50 0.7665
459.60 0.7671
459.70 0.7677
459.80 0.7683
459.90 0.7689
460.00 0.7694
460.10 0.77
460.20 0.7706
460.30 0.7712
460.40 0.7718
460.50 0.7724
460.60 0.773
460.70 0.7736
460.80 0.7741
460.90 0.7747
461.00 0.7753
461.10 0.7759
461.20 0.7765
461.30 0.7771
461.40 0.7777
461.50 0.7782
461.60 0.7788
461.70 0.7794
461.80 0.78
461.90 0.7806
462.00 0.7812
462.10 0.7817
462.20 0.7823
462.30 0.7829
462.40 0.7835
462.50 0.7841
462.60 0.7847
462.70 0.7853
462.80 0.7859
462.90 0.7864
463.00 0.787
463.10 0.7876
463.20 0.7882
463.30 0.7888
463.40 0.7894
463.50 0.79
463.60 0.7905
463.70 0.7911
463.80 0.7917
463.90 0.7923
464.00 0.7929
464.10 0.7935
464.20 0.7941
464.30 0.7946
464.40 0.7952
464.50 0.7958
464.60 0.7964
464.70 0.797
464.80 0.7976
464.90 0.7981
465.00 0.7987
465.10 0.7993
465.20 0.7999
465.30 0.8005
465.40 0.8011
465.50 0.8017
465.60 0.8022
465.70 0.8028
465.80 0.8034
465.90 0.804
466.00 0.8046
466.10 0.8052
466.20 0.8057
466.30 0.8063
466.40 0.8069
466.50 0.8075
466.60 0.8081
466.70 0.8087
466.80 0.8092
466.90 0.8098
467.00 0.8104
467.10 0.811
467.20 0.8116
467.30 0.8122
467.40 0.8127
467.50 0.8133
467.60 0.8139
467.70 0.8145
467.80 0.8151
467.90 0.8157
468.00 0.8163
468.10 0.8168
468.20 0.8174
468.30 0.818
468.40 0.8186
468.50 0.8192
468.60 0.8198
468.70 0.8203
468.80 0.8209
468.90 0.8215
469.00 0.8221
469.10 0.8226
469.20 0.8232
469.30 0.8238
469.40 0.8244
469.50 0.825
469.60 0.8256
469.70 0.8262
469.80 0.8268
469.90 0.8273
470.00 0.8279
470.10 0.8285
470.20 0.8291
470.30 0.8297
470.40 0.8303
470.50 0.8308
470.60 0.8314
470.70 0.832
470.80 0.8326
470.90 0.8332
471.00 0.8337
471.10 0.8343
471.20 0.8349
471.30 0.8355
471.40 0.8361
471.50 0.8367
471.60 0.8373
471.70 0.8378
471.80 0.8384
471.90 0.839
472.00 0.8396
472.10 0.8402
472.20 0.8408
472.30 0.8413
472.40 0.8419
472.50 0.8425
472.60 0.8431
472.70 0.8437
472.80 0.8443
472.90 0.8448
473.00 0.8454
473.10 0.846
473.20 0.8466
473.30 0.8472
473.40 0.8477
473.50 0.8483
473.60 0.8489
473.70 0.8495
473.80 0.8501
473.90 0.8506
474.00 0.8512
474.10 0.8518
474.20 0.8524
474.30 0.853
474.40 0.8535
474.50 0.8541
474.60 0.8547
474.70 0.8553
474.80 0.8559
474.90 0.8565
475.00 0.857
475.10 0.8576
475.20 0.8582
475.30 0.8588
475.40 0.8594
475.50 0.8599
475.60 0.8605
475.70 0.8611
475.80 0.8617
475.90 0.8623
476.00 0.8629
476.10 0.8634
476.20 0.864
476.30 0.8646
476.40 0.8652
476.50 0.8658
476.60 0.8663
476.70 0.8669
476.80 0.8675
476.90 0.8681
477.00 0.8687
477.10 0.8692
477.20 0.8698
477.30 0.8704
477.40 0.871
477.50 0.8716
477.60 0.8721
477.70 0.8727
477.80 0.8733
477.90 0.8739
478.00 0.8745
478.10 0.875
478.20 0.8756
478.30 0.8762
478.40 0.8768
478.50 0.8774
478.60 0.8779
478.70 0.8785
478.80 0.8791
478.90 0.8797
479.00 0.8802
479.10 0.8808
479.20 0.8814
479.30 0.882
479.40 0.8826
479.50 0.8831
479.60 0.8837
479.70 0.8843
479.80 0.8849
479.90 0.8855
480.00 0.886
480.10 0.8866
480.20 0.8872
480.30 0.8878
480.40 0.8883
480.50 0.8889
480.60 0.8895
480.70 0.8901
480.80 0.8907
480.90 0.8912
481.00 0.8918
481.10 0.8924
481.20 0.893
481.30 0.8936
481.40 0.8941
481.50 0.8947
481.60 0.8953
481.70 0.8959
481.80 0.8965
481.90 0.897
482.00 0.8976
482.10 0.8982
482.20 0.8988
482.30 0.8993
482.40 0.8999
482.50 0.9005
482.60 0.9011
482.70 0.9016
482.80 0.9022
482.90 0.9028
483.00 0.9033
483.10 0.9039
483.20 0.9045
483.30 0.9051
483.40 0.9057
483.50 0.9062
483.60 0.9068
483.70 0.9074
483.80 0.908
483.90 0.9085
484.00 0.9091
484.10 0.9097
484.20 0.9103
484.30 0.9108
484.40 0.9114
484.50 0.912
484.60 0.9126
484.70 0.9131
484.80 0.9137
484.90 0.9143
485.00 0.9149
485.10 0.9154
485.20 0.916
485.30 0.9166
485.40 0.9172
485.50 0.9177
485.60 0.9183
485.70 0.9189
485.80 0.9194
485.90 0.92
486.00 0.9206
486.10 0.9212
486.20 0.9217
486.30 0.9223
486.40 0.9229
486.50 0.9235
486.60 0.924
486.70 0.9246
486.80 0.9252
486.90 0.9258
487.00 0.9263
487.10 0.9269
487.20 0.9275
487.30 0.9281
487.40 0.9286
487.50 0.9292
487.60 0.9298
487.70 0.9303
487.80 0.9309
487.90 0.9315
488.00 0.9321
488.10 0.9326
488.20 0.9332
488.30 0.9338
488.40 0.9344
488.50 0.9349
488.60 0.9355
488.70 0.9361
488.80 0.9366
488.90 0.9372
489.00 0.9378
489.10 0.9383
489.20 0.9389
489.30 0.9395
489.40 0.9401
489.50 0.9406
489.60 0.9412
489.70 0.9418
489.80 0.9423
489.90 0.9429
490.00 0.9435
490.10 0.944
490.20 0.9446
490.30 0.9452
490.40 0.9458
490.50 0.9463
490.60 0.9469
490.70 0.9475
490.80 0.9481
490.90 0.9486
491.00 0.9492
491.10 0.9498
491.20 0.9503
491.30 0.9509
491.40 0.9515
491.50 0.9521
491.60 0.9526
491.70 0.9532
491.80 0.9538
491.90 0.9543
492.00 0.9549
492.10 0.9555
492.20 0.956
492.30 0.9566
492.40 0.9572
492.50 0.9577
492.60 0.9583
492.70 0.9589
492.80 0.9594
492.90 0.96
493.00 0.9605
493.10 0.9611
493.20 0.9617
493.30 0.9622
493.40 0.9628
493.50 0.9634
493.60 0.964
493.70 0.9645
493.80 0.9651
493.90 0.9657
494.00 0.9662
494.10 0.9668
494.20 0.9674
494.30 0.9679
494.40 0.9685
494.50 0.9691
494.60 0.9696
494.70 0.9702
494.80 0.9707
494.90 0.9713
495.00 0.9719
495.10 0.9724
495.20 0.973
495.30 0.9736
495.40 0.9741
495.50 0.9747
495.60 0.9753
495.70 0.9758
495.80 0.9764
495.90 0.977
496.00 0.9775
496.10 0.9781
496.20 0.9787
496.30 0.9792
496.40 0.9798
496.50 0.9803
496.60 0.9809
496.70 0.9815
496.80 0.982
496.90 0.9826
497.00 0.9832
497.10 0.9837
497.20 0.9843
497.30 0.9848
497.40 0.9854
497.50 0.986
497.60 0.9865
497.70 0.9871
497.80 0.9877
497.90 0.9882
498.00 0.9888
498.10 0.9893
498.20 0.9899
498.30 0.9905
498.40 0.991
498.50 0.9916
498.60 0.9922
498.70 0.9927
498.80 0.9933
498.90 0.9939
499.00 0.9944
499.10 0.995
499.20 0.9955
499.30 0.9961
499.40 0.9967
499.50 0.9972
499.60 0.9978
499.70 0.9983
499.80 0.9989
499.90 0.9994
500.00 1
500.10 1.001
500.20 1.001
500.30 1.002
500.40 1.002
500.50 1.003
500.60 1.003
500.70 1.004
500.80 1.004
500.90 1.005
501.00 1.006
501.10 1.006
501.20 1.007
501.30 1.007
501.40 1.008
501.50 1.008
501.60 1.009
501.70 1.01
501.80 1.01
501.90 1.011
502.00 1.011
502.10 1.012
502.20 1.012
502.30 1.013
502.40 1.013
502.50 1.014
502.60 1.015
502.70 1.015
502.80 1.016
502.90 1.016
503.00 1.017
503.10 1.017
503.20 1.018
503.30 1.018
503.40 1.019
503.50 1.02
503.60 1.02
503.70 1.021
503.80 1.021
503.90 1.022
504.00 1.022
504.10 1.023
504.20 1.023
504.30 1.024
504.40 1.024
504.50 1.025
504.60 1.026
504.70 1.026
504.80 1.027
504.90 1.027
505.00 1.028
505.10 1.028
505.20 1.029
505.30 1.029
505.40 1.03
505.50 1.031
505.60 1.031
505.70 1.032
505.80 1.032
505.90 1.033
506.00 1.033
506.10 1.034
506.20 1.034
506.30 1.035
506.40 1.036
506.50 1.036
506.60 1.037
506.70 1.037
506.80 1.038
506.90 1.038
507.00 1.039
507.10 1.039
507.20 1.04
507.30 1.04
507.40 1.041
507.50 1.042
507.60 1.042
507.70 1.043
507.80 1.043
507.90 1.044
508.00 1.044
508.10 1.045
508.20 1.045
508.30 1.046
508.40 1.046
508.50 1.047
508.60 1.048
508.70 1.048
508.80 1.049
508.90 1.049
509.00 1.05
509.10 1.05
509.20 1.051
509.30 1.051
509.40 1.052
509.50 1.053
509.60 1.053
509.70 1.054
509.80 1.054
509.90 1.055
510.00 1.055
510.10 1.056
510.20 1.056
510.30 1.057
510.40 1.057
510.50 1.058
510.60 1.059
510.70 1.059
510.80 1.06
510.90 1.06
511.00 1.061
511.10 1.061
511.20 1.062
511.30 1.062
511.40 1.063
511.50 1.063
511.60 1.064
511.70 1.065
511.80 1.065
511.90 1.066
512.00 1.066
512.10 1.067
512.20 1.067
512.30 1.068
512.40 1.068
512.50 1.069
512.60 1.069
512.70 1.07
512.80 1.07
512.90 1.071
513.00 1.072
513.10 1.072
513.20 1.073
513.30 1.073
513.40 1.074
513.50 1.074
513.60 1.075
513.70 1.075
513.80 1.076
513.90 1.076
514.00 1.077
514.10 1.077
514.20 1.078
514.30 1.079
514.40 1.079
514.50 1.08
514.60 1.08
514.70 1.081
514.80 1.081
514.90 1.082
515.00 1.082
515.10 1.083
515.20 1.083
515.30 1.084
515.40 1.084
515.50 1.085
515.60 1.086
515.70 1.086
515.80 1.087
515.90 1.087
516.00 1.088
516.10 1.088
516.20 1.089
516.30 1.089
516.40 1.09
516.50 1.09
516.60 1.091
516.70 1.091
516.80 1.092
516.90 1.093
517.00 1.093
517.10 1.094
517.20 1.094
517.30 1.095
517.40 1.095
517.50 1.096
517.60 1.096
517.70 1.097
517.80 1.097
517.90 1.098
518.00 1.098
518.10 1.099
518.20 1.099
518.30 1.1
518.40 1.101
518.50 1.101
518.60 1.102
518.70 1.102
518.80 1.103
518.90 1.103
519.00 1.104
519.10 1.104
519.20 1.105
519.30 1.105
519.40 1.106
519.50 1.106
519.60 1.107
519.70 1.107
519.80 1.108
519.90 1.108
520.00 1.109
520.10 1.11
520.20 1.11
520.30 1.111
520.40 1.111
520.50 1.112
520.60 1.112
520.70 1.113
520.80 1.113
520.90 1.114
521.00 1.114
521.10 1.115
521.20 1.115
521.30 1.116
521.40 1.116
521.50 1.117
521.60 1.117
521.70 1.118
521.80 1.119
521.90 1.119
522.00 1.12
522.10 1.12
522.20 1.121
522.30 1.121
522.40 1.122
522.50 1.122
522.60 1.123
522.70 1.123
522.80 1.124
522.90 1.124
523.00 1.125
523.10 1.125
523.20 1.126
523.30 1.126
523.40 1.127
523.50 1.127
523.60 1.128
523.70 1.128
523.80 1.129
523.90 1.13
524.00 1.13
524.10 1.131
524.20 1.131
524.30 1.132
524.40 1.132
524.50 1.133
524.60 1.133
524.70 1.134
524.80 1.134
524.90 1.135
525.00 1.135
525.10 1.136
525.20 1.136
525.30 1.137
525.40 1.137
525.50 1.138
525.60 1.138
525.70 1.139
525.80 1.139
525.90 1.14
526.00 1.14
526.10 1.141
526.20 1.142
526.30 1.142
526.40 1.143
526.50 1.143
526.60 1.144
526.70 1.144
526.80 1.145
526.90 1.145
527.00 1.146
527.10 1.146
527.20 1.147
527.30 1.147
527.40 1.148
527.50 1.148
527.60 1.149
527.70 1.149
527.80 1.15
527.90 1.15
528.00 1.151
528.10 1.151
528.20 1.152
528.30 1.152
528.40 1.153
528.50 1.153
528.60 1.154
528.70 1.154
528.80 1.155
528.90 1.155
529.00 1.156
529.10 1.156
529.20 1.157
529.30 1.157
529.40 1.158
529.50 1.158
529.60 1.159
529.70 1.16
529.80 1.16
529.90 1.161
530.00 1.161
530.10 1.162
530.20 1.162
530.30 1.163
530.40 1.163
530.50 1.164
530.60 1.164
530.70 1.165
530.80 1.165
530.90 1.166
531.00 1.166
531.10 1.167
531.20 1.167
531.30 1.168
531.40 1.168
531.50 1.169
531.60 1.169
531.70 1.17
531.80 1.17
531.90 1.171
532.00 1.171
532.10 1.172
532.20 1.172
532.30 1.173
532.40 1.173
532.50 1.174
532.60 1.174
532.70 1.175
532.80 1.175
532.90 1.176
533.00 1.176
533.10 1.177
533.20 1.177
533.30 1.178
533.40 1.178
533.50 1.179
533.60 1.179
533.70 1.18
533.80 1.18
533.90 1.181
534.00 1.181
534.10 1.182
534.20 1.182
534.30 1.183
534.40 1.183
534.50 1.184
534.60 1.184
534.70 1.185
534.80 1.185
534.90 1.186
535.00 1.186
535.10 1.187
535.20 1.187
535.30 1.188
535.40 1.188
535.50 1.189
535.60 1.189
535.70 1.19
535.80 1.19
535.90 1.191
536.00 1.191
536.10 1.192
536.20 1.192
536.30 1.193
536.40 1.193
536.50 1.194
536.60 1.194
536.70 1.195
536.80 1.195
536.90 1.196
537.00 1.196
537.10 1.197
537.20 1.197
537.30 1.198
537.40 1.198
537.50 1.199
537.60 1.199
537.70 1.2
537.80 1.2
537.90 1.201
538.00 1.201
538.10 1.202
538.20 1.202
538.30 1.203
538.40 1.203
538.50 1.204
538.60 1.204
538.70 1.205
538.80 1.205
538.90 1.206
539.00 1.206
539.10 1.207
539.20 1.207
539.30 1.208
539.40 1.208
539.50 1.209
539.60 1.209
539.70 1.21
539.80 1.21
539.90 1.211
540.00 1.211
540.10 1.212
540.20 1.212
540.30 1.212
540.40 1.213
540.50 1.213
540.60 1.214
540.70 1.214
540.80 1.215
540.90 1.215
541.00 1.216
541.10 1.216
541.20 1.217
541.30 1.217
541.40 1.218
541.50 1.218
541.60 1.219
541.70 1.219
541.80 1.22
541.90 1.22
542.00 1.221
542.10 1.221
542.20 1.222
542.30 1.222
542.40 1.223
542.50 1.223
542.60 1.224
542.70 1.224
542.80 1.225
542.90 1.225
543.00 1.226
543.10 1.226
543.20 1.227
543.30 1.227
543.40 1.227
543.50 1.228
543.60 1.228
543.70 1.229
543.80 1.229
543.90 1.23
544.00 1.23
544.10 1.231
544.20 1.231
544.30 1.232
544.40 1.232
544.50 1.233
544.60 1.233
544.70 1.234
544.80 1.234
544.90 1.235
545.00 1.235
545.10 1.236
545.20 1.236
545.30 1.237
545.40 1.237
545.50 1.238
545.60 1.238
545.70 1.238
545.80 1.239
545.90 1.239
546.00 1.24
546.10 1.24
546.20 1.241
546.30 1.241
546.40 1.242
546.50 1.242
546.60 1.243
546.70 1.243
546.80 1.244
546.90 1.244
547.00 1.245
547.10 1.245
547.20 1.246
547.30 1.246
547.40 1.246
547.50 1.247
547.60 1.247
547.70 1.248
547.80 1.248
547.90 1.249
548.00 1.249
548.10 1.25
548.20 1.25
548.30 1.251
548.40 1.251
548.50 1.252
548.60 1.252
548.70 1.253
548.80 1.253
548.90 1.253
549.00 1.254
549.10 1.254
549.20 1.255
549.30 1.255
549.40 1.256
549.50 1.256
549.60 1.257
549.70 1.257
549.80 1.258
549.90 1.258
550.00 1.259
550.10 1.259
550.20 1.26
550.30 1.26
550.40 1.26
550.50 1.261
550.60 1.261
550.70 1.262
550.80 1.262
550.90 1.263
551.00 1.263
551.10 1.264
551.20 1.264
551.30 1.265
551.40 1.265
551.50 1.266
551.60 1.266
551.70 1.266
551.80 1.267
551.90 1.267
552.00 1.268
552.10 1.268
552.20 1.269
552.30 1.269
552.40 1.27
552.50 1.27
552.60 1.271
552.70 1.271
552.80 1.271
552.90 1.272
553.00 1.272
553.10 1.273
553.20 1.273
553.30 1.274
553.40 1.274
553.50 1.275
553.60 1.275
553.70 1.276
553.80 1.276
553.90 1.276
554.00 1.277
554.10 1.277
554.20 1.278
554.30 1.278
554.40 1.279
554.50 1.279
554.60 1.28
554.70 1.28
554.80 1.281
554.90 1.281
555.00 1.281
555.10 1.282
555.20 1.282
555.30 1.283
555.40 1.283
555.50 1.284
555.60 1.284
555.70 1.285
555.80 1.285
555.90 1.285
556.00 1.286
556.10 1.286
556.20 1.287
556.30 1.287
556.40 1.288
556.50 1.288
556.60 1.289
556.70 1.289
556.80 1.289
556.90 1.29
557.00 1.29
557.10 1.291
557.20 1.291
557.30 1.292
557.40 1.292
557.50 1.293
557.60 1.293
557.70 1.293
557.80 1.294
557.90 1.294
558.00 1.295
558.10 1.295
558.20 1.296
558.30 1.296
558.40 1.296
558.50 1.297
558.60 1.297
558.70 1.298
558.80 1.298
558.90 1.299
559.00 1.299
559.10 1.3
559.20 1.3
559.30 1.3
559.40 1.301
559.50 1.301
559.60 1.302
559.70 1.302
559.80 1.303
559.90 1.303
560.00 1.303
560.10 1.304
560.20 1.304
560.30 1.305
560.40 1.305
560.50 1.306
560.60 1.306
560.70 1.306
560.80 1.307
560.90 1.307
561.00 1.308
561.10 1.308
561.20 1.309
561.30 1.309
561.40 1.31
561.50 1.31
561.60 1.31
561.70 1.311
561.80 1.311
561.90 1.312
562.00 1.312
562.10 1.313
562.20 1.313
562.30 1.313
562.40 1.314
562.50 1.314
562.60 1.315
562.70 1.315
562.80 1.316
562.90 1.316
563.00 1.316
563.10 1.317
563.20 1.317
563.30 1.318
563.40 1.318
563.50 1.318
563.60 1.319
563.70 1.319
563.80 1.32
563.90 1.32
564.00 1.321
564.10 1.321
564.20 1.321
564.30 1.322
564.40 1.322
564.50 1.323
564.60 1.323
564.70 1.324
564.80 1.324
564.90 1.324
565.00 1.325
565.10 1.325
565.20 1.326
565.30 1.326
565.40 1.326
565.50 1.327
565.60 1.327
565.70 1.328
565.80 1.328
565.90 1.329
566.00 1.329
566.10 1.329
566.20 1.33
566.30 1.33
566.40 1.331
566.50 1.331
566.60 1.331
566.70 1.332
566.80 1.332
566.90 1.333
567.00 1.333
567.10 1.334
567.20 1.334
567.30 1.334
567.40 1.335
567.50 1.335
567.60 1.336
567.70 1.336
567.80 1.336
567.90 1.337
568.00 1.337
568.10 1.338
568.20 1.338
568.30 1.338
568.40 1.339
568.50 1.339
568.60 1.34
568.70 1.34
568.80 1.34
568.90 1.341
569.00 1.341
569.10 1.342
569.20 1.342
569.30 1.342
569.40 1.343
569.50 1.343
569.60 1.344
569.70 1.344
569.80 1.344
569.90 1.345
570.00 1.345
570.10 1.346
570.20 1.346
570.30 1.346
570.40 1.347
570.50 1.347
570.60 1.348
570.70 1.348
570.80 1.348
570.90 1.349
571.00 1.349
571.10 1.35
571.20 1.35
571.30 1.35
571.40 1.351
571.50 1.351
571.60 1.352
571.70 1.352
571.80 1.352
571.90 1.353
572.00 1.353
572.10 1.354
572.20 1.354
572.30 1.354
572.40 1.355
572.50 1.355
572.60 1.356
572.70 1.356
572.80 1.356
572.90 1.357
573.00 1.357
573.10 1.357
573.20 1.358
573.30 1.358
573.40 1.359
573.50 1.359
573.60 1.359
573.70 1.36
573.80 1.36
573.90 1.361
574.00 1.361
574.10 1.361
574.20 1.362
574.30 1.362
574.40 1.363
574.50 1.363
574.60 1.363
574.70 1.364
574.80 1.364
574.90 1.364
575.00 1.365
575.10 1.365
575.20 1.366
575.30 1.366
575.40 1.366
575.50 1.367
575.60 1.367
575.70 1.367
575.80 1.368
575.90 1.368
576.00 1.369
576.10 1.369
576.20 1.369
576.30 1.37
576.40 1.37
576.50 1.371
576.60 1.371
576.70 1.371
576.80 1.372
576.90 1.372
577.00 1.372
577.10 1.373
577.20 1.373
577.30 1.374
577.40 1.374
577.50 1.374
577.60 1.375
577.70 1.375
577.80 1.375
577.90 1.376
578.00 1.376
578.10 1.376
578.20 1.377
578.30 1.377
578.40 1.378
578.50 1.378
578.60 1.378
578.70 1.379
578.80 1.379
578.90 1.379
579.00 1.38
579.10 1.38
579.20 1.381
579.30 1.381
579.40 1.381
579.50 1.382
579.60 1.382
579.70 1.382
579.80 1.383
579.90 1.383
580.00 1.383
580.10 1.384
580.20 1.384
580.30 1.385
580.40 1.385
580.50 1.385
580.60 1.386
580.70 1.386
580.80 1.386
580.90 1.387
581.00 1.387
581.10 1.387
581.20 1.388
581.30 1.388
581.40 1.388
581.50 1.389
581.60 1.389
581.70 1.39
581.80 1.39
581.90 1.39
582.00 1.391
582.10 1.391
582.20 1.391
582.30 1.392
582.40 1.392
582.50 1.392
582.60 1.393
582.70 1.393
582.80 1.393
582.90 1.394
583.00 1.394
583.10 1.394
583.20 1.395
583.30 1.395
583.40 1.395
583.50 1.396
583.60 1.396
583.70 1.397
583.80 1.397
583.90 1.397
584.00 1.398
584.10 1.398
584.20 1.398
584.30 1.399
584.40 1.399
584.50 1.399
584.60 1.4
584.70 1.4
584.80 1.4
584.90 1.401
585.00 1.401
585.10 1.401
585.20 1.402
585.30 1.402
585.40 1.402
585.50 1.403
585.60 1.403
585.70 1.403
585.80 1.404
585.90 1.404
586.00 1.404
586.10 1.405
586.20 1.405
586.30 1.405
586.40 1.406
586.50 1.406
586.60 1.406
586.70 1.407
586.80 1.407
586.90 1.407
587.00 1.408
587.10 1.408
587.20 1.408
587.30 1.409
587.40 1.409
587.50 1.409
587.60 1.41
587.70 1.41
587.80 1.41
587.90 1.411
588.00 1.411
588.10 1.411
588.20 1.412
588.30 1.412
588.40 1.412
588.50 1.413
588.60 1.413
588.70 1.413
588.80 1.413
588.90 1.414
589.00 1.414
589.10 1.414
589.20 1.415
589.30 1.415
589.40 1.415
589.50 1.416
589.60 1.416
589.70 1.416
589.80 1.417
589.90 1.417
590.00 1.417
590.10 1.418
590.20 1.418
590.30 1.418
590.40 1.419
590.50 1.419
590.60 1.419
590.70 1.419
590.80 1.42
590.90 1.42
591.00 1.42
591.10 1.421
591.20 1.421
591.30 1.421
591.40 1.422
591.50 1.422
591.60 1.422
591.70 1.423
591.80 1.423
591.90 1.423
592.00 1.423
592.10 1.424
592.20 1.424
592.30 1.424
592.40 1.425
592.50 1.425
592.60 1.425
592.70 1.426
592.80 1.426
592.90 1.426
593.00 1.427
593.10 1.427
593.20 1.427
593.30 1.427
593.40 1.428
593.50 1.428
593.60 1.428
593.70 1.429
593.80 1.429
593.90 1.429
594.00 1.429
594.10 1.43
594.20 1.43
594.30 1.43
594.40 1.431
594.50 1.431
594.60 1.431
594.70 1.432
594.80 1.432
594.90 1.432
595.00 1.432
595.10 1.433
595.20 1.433
595.30 1.433
595.40 1.434
595.50 1.434
595.60 1.434
595.70 1.434
595.80 1.435
595.90 1.435
596.00 1.435
596.10 1.436
596.20 1.436
596.30 1.436
596.40 1.436
596.50 1.437
596.60 1.437
596.70 1.437
596.80 1.438
596.90 1.438
597.00 1.438
597.10 1.438
597.20 1.439
597.30 1.439
597.40 1.439
597.50 1.439
597.60 1.44
597.70 1.44
597.80 1.44
597.90 1.441
598.00 1.441
598.10 1.441
598.20 1.441
598.30 1.442
598.40 1.442
598.50 1.442
598.60 1.442
598.70 1.443
598.80 1.443
598.90 1.443
599.00 1.444
599.10 1.444
599.20 1.444
599.30 1.444
599.40 1.445
599.50 1.445
599.60 1.445
599.70 1.445
599.80 1.446
599.90 1.446
600.00 1.446
600.10 1.446
600.20 1.447
600.30 1.447
600.40 1.447
600.50 1.448
600.60 1.448
600.70 1.448
600.80 1.448
600.90 1.449
601.00 1.449
601.10 1.449
601.20 1.449
601.30 1.45
601.40 1.45
601.50 1.45
601.60 1.45
601.70 1.451
601.80 1.451
601.90 1.451
602.00 1.451
602.10 1.452
602.20 1.452
602.30 1.452
602.40 1.452
602.50 1.453
602.60 1.453
602.70 1.453
602.80 1.453
602.90 1.454
603.00 1.454
603.10 1.454
603.20 1.454
603.30 1.455
603.40 1.455
603.50 1.455
603.60 1.455
603.70 1.456
603.80 1.456
603.90 1.456
604.00 1.456
604.10 1.456
604.20 1.457
604.30 1.457
604.40 1.457
604.50 1.457
604.60 1.458
604.70 1.458
604.80 1.458
604.90 1.458
605.00 1.459
605.10 1.459
605.20 1.459
605.30 1.459
605.40 1.459
605.50 1.46
605.60 1.46
605.70 1.46
605.80 1.46
605.90 1.461
606.00 1.461
606.10 1.461
606.20 1.461
606.30 1.462
606.40 1.462
606.50 1.462
606.60 1.462
606.70 1.462
606.80 1.463
606.90 1.463
607.00 1.463
607.10 1.463
607.20 1.464
607.30 1.464
607.40 1.464
607.50 1.464
607.60 1.464
607.70 1.465
607.80 1.465
607.90 1.465
608.00 1.465
608.10 1.465
608.20 1.466
608.30 1.466
608.40 1.466
608.50 1.466
608.60 1.467
608.70 1.467
608.80 1.467
608.90 1.467
609.00 1.467
609.10 1.468
609.20 1.468
609.30 1.468
609.40 1.468
609.50 1.468
609.60 1.469
609.70 1.469
609.80 1.469
609.90 1.469
610.00 1.469
610.10 1.47
610.20 1.47
610.30 1.47
610.40 1.47
610.50 1.47
610.60 1.471
610.70 1.471
610.80 1.471
610.90 1.471
611.00 1.471
611.10 1.472
611.20 1.472
611.30 1.472
611.40 1.472
611.50 1.472
611.60 1.472
611.70 1.473
611.80 1.473
611.90 1.473
612.00 1.473
612.10 1.473
612.20 1.474
612.30 1.474
612.40 1.474
612.50 1.474
612.60 1.474
612.70 1.474
612.80 1.475
612.90 1.475
613.00 1.475
613.10 1.475
613.20 1.475
613.30 1.476
613.40 1.476
613.50 1.476
613.60 1.476
613.70 1.476
613.80 1.476
613.90 1.477
614.00 1.477
614.10 1.477
614.20 1.477
614.30 1.477
614.40 1.477
614.50 1.478
614.60 1.478
614.70 1.478
614.80 1.478
614.90 1.478
615.00 1.478
615.10 1.479
615.20 1.479
615.30 1.479
615.40 1.479
615.50 1.479
615.60 1.479
615.70 1.479
615.80 1.48
615.90 1.48
616.00 1.48
616.10 1.48
616.20 1.48
616.30 1.48
616.40 1.481
616.50 1.481
616.60 1.481
616.70 1.481
616.80 1.481
616.90 1.481
617.00 1.481
617.10 1.482
617.20 1.482
617.30 1.482
617.40 1.482
617.50 1.482
617.60 1.482
617.70 1.482
617.80 1.483
617.90 1.483
618.00 1.483
618.10 1.483
618.20 1.483
618.30 1.483
618.40 1.483
618.50 1.483
618.60 1.484
618.70 1.484
618.80 1.484
618.90 1.484
619.00 1.484
619.10 1.484
619.20 1.484
619.30 1.485
619.40 1.485
619.50 1.485
619.60 1.485
619.70 1.485
619.80 1.485
619.90 1.485
620.00 1.485
620.10 1.486
620.20 1.486
620.30 1.486
620.40 1.486
620.50 1.486
620.60 1.486
620.70 1.486
620.80 1.486
620.90 1.486
621.00 1.487
621.10 1.487
621.20 1.487
621.30 1.487
621.40 1.487
621.50 1.487
621.60 1.487
621.70 1.487
621.80 1.487
621.90 1.488
622.00 1.488
622.10 1.488
622.20 1.488
622.30 1.488
622.40 1.488
622.50 1.488
622.60 1.488
622.70 1.488
622.80 1.488
622.90 1.489
623.00 1.489
623.10 1.489
623.20 1.489
623.30 1.489
623.40 1.489
623.50 1.489
623.60 1.489
623.70 1.489
623.80 1.489
623.90 1.489
624.00 1.49
624.10 1.49
624.20 1.49
624.30 1.49
624.40 1.49
624.50 1.49
624.60 1.49
624.70 1.49
624.80 1.49
624.90 1.49
625.00 1.49
625.10 1.49
625.20 1.491
625.30 1.491
625.40 1.491
625.50 1.491
625.60 1.491
625.70 1.491
625.80 1.491
625.90 1.491
626.00 1.491
626.10 1.491
626.20 1.491
626.30 1.491
626.40 1.491
626.50 1.491
626.60 1.491
626.70 1.492
626.80 1.492
626.90 1.492
627.00 1.492
627.10 1.492
627.20 1.492
627.30 1.492
627.40 1.492
627.50 1.492
627.60 1.492
627.70 1.492
627.80 1.492
627.90 1.492
628.00 1.492
628.10 1.492
628.20 1.492
628.30 1.492
628.40 1.492
628.50 1.492
628.60 1.493
628.70 1.493
628.80 1.493
628.90 1.493
629.00 1.493
629.10 1.493
629.20 1.493
629.30 1.493
629.40 1.493
629.50 1.493
629.60 1.493
629.70 1.493
629.80 1.493
629.90 1.493
630.00 1.493
630.10 1.493
630.20 1.493
630.30 1.493
630.40 1.493
630.50 1.493
630.60 1.493
630.70 1.493
630.80 1.493
630.90 1.493
631.00 1.493
631.10 1.493
631.20 1.493
631.30 1.493
631.40 1.493
631.50 1.493
631.60 1.493
631.70 1.493
631.80 1.493
631.90 1.493
632.00 1.493
632.10 1.493
632.20 1.493
632.30 1.493
632.40 1.493
632.50 1.493
632.60 1.493
632.70 1.493
632.80 1.493
632.90 1.493
633.00 1.493
633.10 1.493
633.20 1.493
633.30 1.493
633.40 1.493
633.50 1.493
633.60 1.493
633.70 1.493
633.80 1.493
633.90 1.493
634.00 1.493
634.10 1.493
634.20 1.493
634.30 1.493
634.40 1.493
634.50 1.493
634.60 1.493
634.70 1.493
634.80 1.493
634.90 1.493
635.00 1.493
635.10 1.493
635.20 1.493
635.30 1.493
635.40 1.493
635.50 1.493
635.60 1.493
635.70 1.493
635.80 1.493
635.90 1.493
636.00 1.493
636.10 1.493
636.20 1.493
636.30 1.493
636.40 1.493
636.50 1.493
636.60 1.493
636.70 1.493
636.80 1.493
636.90 1.492
637.00 1.492
637.10 1.492
637.20 1.492
637.30 1.492
637.40 1.492
637.50 1.492
637.60 1.492
637.70 1.492
637.80 1.492
637.90 1.492
638.00 1.492
638.10 1.492
638.20 1.492
638.30 1.492
638.40 1.492
638.50 1.492
638.60 1.492
638.70 1.491
638.80 1.491
638.90 1.491
639.00 1.491
639.10 1.491
639.20 1.491
639.30 1.491
639.40 1.491
639.50 1.491
639.60 1.491
639.70 1.491
639.80 1.491
639.90 1.491
640.00 1.49
640.10 1.49
640.20 1.49
640.30 1.49
640.40 1.49
640.50 1.49
640.60 1.49
640.70 1.49
640.80 1.49
640.90 1.49
641.00 1.49
641.10 1.489
641.20 1.489
641.30 1.489
641.40 1.489
641.50 1.489
641.60 1.489
641.70 1.489
641.80 1.489
641.90 1.489
642.00 1.489
642.10 1.488
642.20 1.488
642.30 1.488
642.40 1.488
642.50 1.488
642.60 1.488
642.70 1.488
642.80 1.488
642.90 1.487
643.00 1.487
643.10 1.487
643.20 1.487
643.30 1.487
643.40 1.487
643.50 1.487
643.60 1.486
643.70 1.486
643.80 1.486
643.90 1.486
644.00 1.486
644.10 1.486
644.20 1.486
644.30 1.485
644.40 1.485
644.50 1.485
644.60 1.485
644.70 1.485
644.80 1.485
644.90 1.485
645.00 1.484
645.10 1.484
645.20 1.484
645.30 1.484
645.40 1.484
645.50 1.484
645.60 1.483
645.70 1.483
645.80 1.483
645.90 1.483
646.00 1.483
646.10 1.483
646.20 1.482
646.30 1.482
646.40 1.482
646.50 1.482
646.60 1.482
646.70 1.482
646.80 1.481
646.90 1.481
647.00 1.481
647.10 1.481
647.20 1.481
647.30 1.481
647.40 1.48
647.50 1.48
647.60 1.48
647.70 1.48
647.80 1.48
647.90 1.479
648.00 1.479
648.10 1.479
648.20 1.479
648.30 1.479
648.40 1.478
648.50 1.478
648.60 1.478
648.70 1.478
648.80 1.478
648.90 1.477
649.00 1.477
649.10 1.477
649.20 1.477
649.30 1.477
649.40 1.476
649.50 1.476
649.60 1.476
649.70 1.476
649.80 1.475
649.90 1.475
650.00 1.475
650.10 1.475
650.20 1.475
650.30 1.474
650.40 1.474
650.50 1.474
650.60 1.474
650.70 1.473
650.80 1.473
650.90 1.473
651.00 1.473
651.10 1.472
651.20 1.472
651.30 1.472
651.40 1.472
651.50 1.471
651.60 1.471
651.70 1.471
651.80 1.471
651.90 1.47
652.00 1.47
652.10 1.47
652.20 1.47
652.30 1.469
652.40 1.469
652.50 1.469
652.60 1.469
652.70 1.468
652.80 1.468
652.90 1.468
653.00 1.468
653.10 1.467
653.20 1.467
653.30 1.467
653.40 1.466
653.50 1.466
653.60 1.466
653.70 1.466
653.80 1.465
653.90 1.465
654.00 1.465
654.10 1.464
654.20 1.464
654.30 1.464
654.40 1.464
654.50 1.463
654.60 1.463
654.70 1.463
654.80 1.462
654.90 1.462
655.00 1.462
655.10 1.461
655.20 1.461
655.30 1.461
655.40 1.461
655.50 1.46
655.60 1.46
655.70 1.46
655.80 1.459
655.90 1.459
656.00 1.459
656.10 1.458
656.20 1.458
656.30 1.458
656.40 1.457
656.50 1.457
656.60 1.457
656.70 1.456
656.80 1.456
656.90 1.456
657.00 1.455
657.10 1.455
657.20 1.455
657.30 1.454
657.40 1.454
657.50 1.454
657.60 1.453
657.70 1.453
657.80 1.453
657.90 1.452
658.00 1.452
658.10 1.451
658.20 1.451
658.30 1.451
658.40 1.45
658.50 1.45
658.60 1.45
658.70 1.449
658.80 1.449
658.90 1.449
659.00 1.448
659.10 1.448
659.20 1.447
659.30 1.447
659.40 1.447
659.50 1.446
659.60 1.446
659.70 1.445
659.80 1.445
659.90 1.445
660.00 1.444
660.10 1.444
660.20 1.444
660.30 1.443
660.40 1.443
660.50 1.442
660.60 1.442
660.70 1.442
660.80 1.441
660.90 1.441
661.00 1.44
661.10 1.44
661.20 1.439
661.30 1.439
661.40 1.439
661.50 1.438
661.60 1.438
661.70 1.437
661.80 1.437
661.90 1.437
662.00 1.436
662.10 1.436
662.20 1.435
662.30 1.435
662.40 1.434
662.50 1.434
662.60 1.433
662.70 1.433
662.80 1.433
662.90 1.432
663.00 1.432
663.10 1.431
663.20 1.431
663.30 1.43
663.40 1.43
663.50 1.429
663.60 1.429
663.70 1.429
663.80 1.428
663.90 1.428
664.00 1.427
664.10 1.427
664.20 1.426
664.30 1.426
664.40 1.425
664.50 1.425
664.60 1.424
664.70 1.424
664.80 1.423
664.90 1.423
665.00 1.422
665.10 1.422
665.20 1.421
665.30 1.421
665.40 1.42
665.50 1.42
665.60 1.419
665.70 1.419
665.80 1.418
665.90 1.418
666.00 1.417
666.10 1.417
666.20 1.416
666.30 1.416
666.40 1.415
666.50 1.415
666.60 1.414
666.70 1.414
666.80 1.413
666.90 1.413
667.00 1.412
667.10 1.412
667.20 1.411
667.30 1.411
667.40 1.41
667.50 1.409
667.60 1.409
667.70 1.408
667.80 1.408
667.90 1.407
668.00 1.407
668.10 1.406
668.20 1.406
668.30 1.405
668.40 1.405
668.50 1.404
668.60 1.403
668.70 1.403
668.80 1.402
668.90 1.402
669.00 1.401
669.10 1.401
669.20 1.4
669.30 1.399
669.40 1.399
669.50 1.398
669.60 1.398
669.70 1.397
669.80 1.396
669.90 1.396
670.00 1.395
670.10 1.395
670.20 1.394
670.30 1.394
670.40 1.393
670.50 1.392
670.60 1.392
670.70 1.391
670.80 1.39
670.90 1.39
671.00 1.389
671.10 1.389
671.20 1.388
671.30 1.387
671.40 1.387
671.50 1.386
671.60 1.385
671.70 1.385
671.80 1.384
671.90 1.384
672.00 1.383
672.10 1.382
672.20 1.382
672.30 1.381
672.40 1.38
672.50 1.38
672.60 1.379
672.70 1.378
672.80 1.378
672.90 1.377
673.00 1.376
673.10 1.376
673.20 1.375
673.30 1.375
673.40 1.374
673.50 1.373
673.60 1.372
673.70 1.372
673.80 1.371
673.90 1.37
674.00 1.37
674.10 1.369
674.20 1.368
674.30 1.368
674.40 1.367
674.50 1.366
674.60 1.366
674.70 1.365
674.80 1.364
674.90 1.364
675.00 1.363
675.10 1.362
675.20 1.361
675.30 1.361
675.40 1.36
675.50 1.359
675.60 1.359
675.70 1.358
675.80 1.357
675.90 1.356
676.00 1.356
676.10 1.355
676.20 1.354
676.30 1.354
676.40 1.353
676.50 1.352
676.60 1.351
676.70 1.351
676.80 1.35
676.90 1.349
677.00 1.348
677.10 1.348
677.20 1.347
677.30 1.346
677.40 1.345
677.50 1.344
677.60 1.344
677.70 1.343
677.80 1.342
677.90 1.341
678.00 1.341
678.10 1.34
678.20 1.339
678.30 1.338
678.40 1.338
678.50 1.337
678.60 1.336
678.70 1.335
678.80 1.334
678.90 1.334
679.00 1.333
679.10 1.332
679.20 1.331
679.30 1.33
679.40 1.33
679.50 1.329
679.60 1.328
679.70 1.327
679.80 1.326
679.90 1.326
680.00 1.325
680.10 1.324
680.20 1.323
680.30 1.322
680.40 1.321
680.50 1.321
680.60 1.32
680.70 1.319
680.80 1.318
680.90 1.317
681.00 1.316
681.10 1.316
681.20 1.315
681.30 1.314
681.40 1.313
681.50 1.312
681.60 1.311
681.70 1.31
681.80 1.31
681.90 1.309
682.00 1.308
682.10 1.307
682.20 1.306
682.30 1.305
682.40 1.304
682.50 1.303
682.60 1.302
682.70 1.302
682.80 1.301
682.90 1.3
683.00 1.299
683.10 1.298
683.20 1.297
683.30 1.296
683.40 1.295
683.50 1.294
683.60 1.294
683.70 1.293
683.80 1.292
683.90 1.291
684.00 1.29
684.10 1.289
684.20 1.288
684.30 1.287
684.40 1.286
684.50 1.285
684.60 1.284
684.70 1.283
684.80 1.282
684.90 1.281
685.00 1.281
685.10 1.28
685.20 1.279
685.30 1.278
685.40 1.277
685.50 1.276
685.60 1.275
685.70 1.274
685.80 1.273
685.90 1.272
686.00 1.271
686.10 1.27
686.20 1.269
686.30 1.268
686.40 1.267
686.50 1.266
686.60 1.265
686.70 1.264
686.80 1.263
686.90 1.262
687.00 1.261
687.10 1.26
687.20 1.259
687.30 1.258
687.40 1.257
687.50 1.256
687.60 1.255
687.70 1.254
687.80 1.253
687.90 1.252
688.00 1.251
688.10 1.25
688.20 1.249
688.30 1.248
688.40 1.247
688.50 1.246
688.60 1.245
688.70 1.244
688.80 1.243
688.90 1.242
689.00 1.241
689.10 1.24
689.20 1.239
689.30 1.238
689.40 1.237
689.50 1.236
689.60 1.234
689.70 1.233
689.80 1.232
689.90 1.231
690.00 1.23
690.10 1.229
690.20 1.228
690.30 1.227
690.40 1.226
690.50 1.224
690.60 1.223
690.70 1.222
690.80 1.221
690.90 1.22
691.00 1.219
691.10 1.218
691.20 1.217
691.30 1.215
691.40 1.214
691.50 1.213
691.60 1.212
691.70 1.211
691.80 1.21
691.90 1.209
692.00 1.208
692.10 1.207
692.20 1.205
692.30 1.204
692.40 1.203
692.50 1.202
692.60 1.201
692.70 1.2
692.80 1.199
692.90 1.198
693.00 1.197
693.10 1.196
693.20 1.194
693.30 1.193
693.40 1.192
693.50 1.191
693.60 1.19
693.70 1.189
693.80 1.188
693.90 1.187
694.00 1.186
694.10 1.185
694.20 1.183
694.30 1.182
694.40 1.181
694.50 1.18
694.60 1.179
694.70 1.178
694.80 1.177
694.90 1.176
695.00 1.175
695.10 1.174
695.20 1.172
695.30 1.171
695.40 1.17
695.50 1.169
695.60 1.167
695.70 1.166
695.80 1.165
695.90 1.164
696.00 1.163
696.10 1.161
696.20 1.16
696.30 1.159
696.40 1.158
696.50 1.157
696.60 1.155
696.70 1.154
696.80 1.153
696.90 1.152
697.00 1.151
697.10 1.149
697.20 1.148
697.30 1.147
697.40 1.146
697.50 1.145
697.60 1.143
697.70 1.142
697.80 1.141
697.90 1.14
698.00 1.139
698.10 1.137
698.20 1.136
698.30 1.135
698.40 1.134
698.50 1.133
698.60 1.132
698.70 1.13
698.80 1.129
698.90 1.128
699.00 1.127
699.10 1.126
699.20 1.124
699.30 1.123
699.40 1.122
699.50 1.121
699.60 1.12
699.70 1.118
699.80 1.117
699.90 1.116
700.00 1.115
700.10 1.114
700.20 1.112
700.30 1.111
700.40 1.11
700.50 1.109
700.60 1.107
700.70 1.106
700.80 1.105
700.90 1.103
701.00 1.102
701.10 1.101
701.20 1.1
701.30 1.098
701.40 1.097
701.50 1.096
701.60 1.095
701.70 1.093
701.80 1.092
701.90 1.091
702.00 1.089
702.10 1.088
702.20 1.087
702.30 1.086
702.40 1.084
702.50 1.083
702.60 1.082
702.70 1.081
702.80 1.079
702.90 1.078
703.00 1.077
703.10 1.076
703.20 1.074
703.30 1.073
703.40 1.072
703.50 1.071
703.60 1.069
703.70 1.068
703.80 1.067
703.90 1.066
704.00 1.064
704.10 1.063
704.20 1.062
704.30 1.061
704.40 1.059
704.50 1.058
704.60 1.057
704.70 1.056
704.80 1.054
704.90 1.053
705.00 1.052
705.10 1.051
705.20 1.049
705.30 1.048
705.40 1.047
705.50 1.045
705.60 1.044
705.70 1.043
705.80 1.041
705.90 1.04
706.00 1.039
706.10 1.038
706.20 1.036
706.30 1.035
706.40 1.034
706.50 1.032
706.60 1.031
706.70 1.03
706.80 1.029
706.90 1.027
707.00 1.026
707.10 1.025
707.20 1.023
707.30 1.022
707.40 1.021
707.50 1.02
707.60 1.018
707.70 1.017
707.80 1.016
707.90 1.015
708.00 1.013
708.10 1.012
708.20 1.011
708.30 1.009
708.40 1.008
708.50 1.007
708.60 1.006
708.70 1.004
708.80 1.003
708.90 1.002
709.00 1.001
709.10 0.9992
709.20 0.998
709.30 0.9967
709.40 0.9954
709.50 0.9942
709.60 0.9929
709.70 0.9916
709.80 0.9904
709.90 0.9891
710.00 0.9879
710.10 0.9866
710.20 0.9853
710.30 0.984
710.40 0.9827
710.50 0.9814
710.60 0.9802
710.70 0.9789
710.80 0.9776
710.90 0.9763
711.00 0.9751
711.10 0.9738
711.20 0.9725
711.30 0.9712
711.40 0.97
711.50 0.9687
711.60 0.9674
711.70 0.9661
711.80 0.9649
711.90 0.9636
712.00 0.9623
712.10 0.9611
712.20 0.9598
712.30 0.9585
712.40 0.9573
712.50 0.956
712.60 0.9547
712.70 0.9535
712.80 0.9522
712.90 0.9509
713.00 0.9497
713.10 0.9484
713.20 0.9472
713.30 0.9459
713.40 0.9446
713.50 0.9434
713.60 0.9421
713.70 0.9409
713.80 0.9396
713.90 0.9383
714.00 0.9371
714.10 0.9358
714.20 0.9346
714.30 0.9333
714.40 0.9321
714.50 0.9308
714.60 0.9296
714.70 0.9283
714.80 0.9271
714.90 0.9258
715.00 0.9246
715.10 0.9233
715.20 0.9221
715.30 0.9209
715.40 0.9196
715.50 0.9184
715.60 0.9172
715.70 0.9159
715.80 0.9147
715.90 0.9135
716.00 0.9122
716.10 0.911
716.20 0.9098
716.30 0.9086
716.40 0.9073
716.50 0.9061
716.60 0.9049
716.70 0.9037
716.80 0.9024
716.90 0.9012
717.00 0.9
717.10 0.8988
717.20 0.8975
717.30 0.8963
717.40 0.8951
717.50 0.8939
717.60 0.8927
717.70 0.8915
717.80 0.8902
717.90 0.889
718.00 0.8878
718.10 0.8866
718.20 0.8854
718.30 0.8842
718.40 0.8829
718.50 0.8817
718.60 0.8805
718.70 0.8793
718.80 0.8781
718.90 0.8769
719.00 0.8757
719.10 0.8745
719.20 0.8733
719.30 0.872
719.40 0.8708
719.50 0.8696
719.60 0.8684
719.70 0.8672
719.80 0.866
719.90 0.8648
720.00 0.8636
720.10 0.8625
720.20 0.8613
720.30 0.8602
720.40 0.859
720.50 0.8579
720.60 0.8568
720.70 0.8556
720.80 0.8545
720.90 0.8534
721.00 0.8522
721.10 0.8511
721.20 0.85
721.30 0.8488
721.40 0.8477
721.50 0.8466
721.60 0.8454
721.70 0.8443
721.80 0.8432
721.90 0.842
722.00 0.8409
722.10 0.8398
722.20 0.8386
722.30 0.8375
722.40 0.8364
722.50 0.8353
722.60 0.8341
722.70 0.833
722.80 0.8319
722.90 0.8308
723.00 0.8296
723.10 0.8285
723.20 0.8274
723.30 0.8263
723.40 0.8251
723.50 0.824
723.60 0.8229
723.70 0.8218
723.80 0.8207
723.90 0.8195
724.00 0.8184
724.10 0.8173
724.20 0.8162
724.30 0.8151
724.40 0.814
724.50 0.8128
724.60 0.8117
724.70 0.8106
724.80 0.8095
724.90 0.8084
725.00 0.8073
725.10 0.8062
725.20 0.8052
725.30 0.8042
725.40 0.8032
725.50 0.8022
725.60 0.8011
725.70 0.8001
725.80 0.7991
725.90 0.7981
726.00 0.7971
726.10 0.796
726.20 0.795
726.30 0.794
726.40 0.793
726.50 0.792
726.60 0.791
726.70 0.7899
726.80 0.7889
726.90 0.7879
727.00 0.7869
727.10 0.7859
727.20 0.7849
727.30 0.7839
727.40 0.7829
727.50 0.7819
727.60 0.7808
727.70 0.7798
727.80 0.7788
727.90 0.7778
728.00 0.7768
728.10 0.7758
728.20 0.7748
728.30 0.7738
728.40 0.7728
728.50 0.7718
728.60 0.7708
728.70 0.7698
728.80 0.7688
728.90 0.7678
729.00 0.7668
729.10 0.7658
729.20 0.7648
729.30 0.7638
729.40 0.7628
729.50 0.7618
729.60 0.7608
729.70 0.7598
729.80 0.7588
729.90 0.7578
730.00 0.7568
730.10 0.7559
730.20 0.7551
730.30 0.7543
730.40 0.7535
730.50 0.7527
730.60 0.7519
730.70 0.7511
730.80 0.7503
730.90 0.7495
731.00 0.7487
731.10 0.7479
731.20 0.7471
731.30 0.7463
731.40 0.7455
731.50 0.7447
731.60 0.7439
731.70 0.7431
731.80 0.7423
731.90 0.7415
732.00 0.7407
732.10 0.7399
732.20 0.7391
732.30 0.7383
732.40 0.7375
732.50 0.7367
732.60 0.7359
732.70 0.7351
732.80 0.7343
732.90 0.7335
733.00 0.7327
733.10 0.7319
733.20 0.7311
733.30 0.7303
733.40 0.7296
733.50 0.7288
733.60 0.728
733.70 0.7272
733.80 0.7264
733.90 0.7256
734.00 0.7248
734.10 0.724
734.20 0.7232
734.30 0.7224
734.40 0.7216
734.50 0.7209
734.60 0.7201
734.70 0.7193
734.80 0.7185
734.90 0.7177
735.00 0.7169
735.10 0.7161
735.20 0.7153
735.30 0.7146
735.40 0.7138
735.50 0.713
735.60 0.7122
735.70 0.7114
735.80 0.7106
735.90 0.7098
736.00 0.7091
736.10 0.7083
736.20 0.7075
736.30 0.7067
736.40 0.7059
736.50 0.7052
736.60 0.7044
736.70 0.7036
736.80 0.7028
736.90 0.702
737.00 0.7013
737.10 0.7005
737.20 0.6997
737.30 0.6989
737.40 0.6981
737.50 0.6974
737.60 0.6966
737.70 0.6958
737.80 0.695
737.90 0.6943
738.00 0.6935
738.10 0.6927
738.20 0.6919
738.30 0.6912
738.40 0.6904
738.50 0.6896
738.60 0.6889
738.70 0.6881
738.80 0.6873
738.90 0.6865
739.00 0.6858
739.10 0.685
739.20 0.6842
739.30 0.6835
739.40 0.6827
739.50 0.6819
739.60 0.6811
739.70 0.6804
739.80 0.6796
739.90 0.6788
740.00 0.6781
740.10 0.6775
740.20 0.677
740.30 0.6765
740.40 0.676
740.50 0.6754
740.60 0.6749
740.70 0.6744
740.80 0.6739
740.90 0.6733
741.00 0.6728
741.10 0.6723
741.20 0.6718
741.30 0.6712
741.40 0.6707
741.50 0.6702
741.60 0.6697
741.70 0.6691
741.80 0.6686
741.90 0.6681
742.00 0.6676
742.10 0.667
742.20 0.6665
742.30 0.666
742.40 0.6655
742.50 0.665
742.60 0.6644
742.70 0.6639
742.80 0.6634
742.90 0.6629
743.00 0.6623
743.10 0.6618
743.20 0.6613
743.30 0.6608
743.40 0.6603
743.50 0.6597
743.60 0.6592
743.70 0.6587
743.80 0.6582
743.90 0.6577
744.00 0.6572
744.10 0.6566
744.20 0.6561
744.30 0.6556
744.40 0.6551
744.50 0.6546
744.60 0.6541
744.70 0.6535
744.80 0.653
744.90 0.6525
745.00 0.652
745.10 0.6515
745.20 0.651
745.30 0.6504
745.40 0.6499
745.50 0.6494
745.60 0.6489
745.70 0.6484
745.80 0.6479
745.90 0.6474
746.00 0.6468
746.10 0.6463
746.20 0.6458
746.30 0.6453
746.40 0.6448
746.50 0.6443
746.60 0.6438
746.70 0.6433
746.80 0.6428
746.90 0.6422
747.00 0.6417
747.10 0.6412
747.20 0.6407
747.30 0.6402
747.40 0.6397
747.50 0.6392
747.60 0.6387
747.70 0.6382
747.80 0.6377
747.90 0.6372
748.00 0.6366
748.10 0.6361
748.20 0.6356
748.30 0.6351
748.40 0.6346
748.50 0.6341
748.60 0.6336
748.70 0.6331
748.80 0.6326
748.90 0.6321
749.00 0.6316
749.10 0.6311
749.20 0.6306
749.30 0.6301
749.40 0.6296
749.50 0.6291
749.60 0.6285
749.70 0.628
749.80 0.6275
749.90 0.627
750.00 0.6265
750.10 0.6262
750.20 0.6258
750.30 0.6255
750.40 0.6251
750.50 0.6247
750.60 0.6244
750.70 0.624
750.80 0.6237
750.90 0.6233
751.00 0.623
751.10 0.6226
751.20 0.6223
751.30 0.6219
751.40 0.6215
751.50 0.6212
751.60 0.6208
751.70 0.6205
751.80 0.6201
751.90 0.6198
752.00 0.6194
752.10 0.6191
752.20 0.6187
752.30 0.6183
752.40 0.618
752.50 0.6176
752.60 0.6173
752.70 0.6169
752.80 0.6166
752.90 0.6162
753.00 0.6159
753.10 0.6155
753.20 0.6152
753.30 0.6148
753.40 0.6145
753.50 0.6141
753.60 0.6138
753.70 0.6134
753.80 0.6131
753.90 0.6127
754.00 0.6124
754.10 0.612
754.20 0.6116
754.30 0.6113
754.40 0.6109
754.50 0.6106
754.60 0.6102
754.70 0.6099
754.80 0.6095
754.90 0.6092
755.00 0.6088
755.10 0.6085
755.20 0.6081
755.30 0.6078
755.40 0.6075
755.50 0.6071
755.60 0.6068
755.70 0.6064
755.80 0.6061
755.90 0.6057
756.00 0.6054
756.10 0.605
756.20 0.6047
756.30 0.6043
756.40 0.604
756.50 0.6036
756.60 0.6033
756.70 0.6029
756.80 0.6026
756.90 0.6022
757.00 0.6019
757.10 0.6015
757.20 0.6012
757.30 0.6008
757.40 0.6005
757.50 0.6002
757.60 0.5998
757.70 0.5995
757.80 0.5991
757.90 0.5988
758.00 0.5984
758.10 0.5981
758.20 0.5977
758.30 0.5974
758.40 0.5971
758.50 0.5967
758.60 0.5964
758.70 0.596
758.80 0.5957
758.90 0.5953
759.00 0.595
759.10 0.5946
759.20 0.5943
759.30 0.594
759.40 0.5936
759.50 0.5933
759.60 0.5929
759.70 0.5926
759.80 0.5923
759.90 0.5919
760.00 0.5916
760.10 0.5913
760.20 0.5911
760.30 0.5908
760.40 0.5905
760.50 0.5903
760.60 0.59
760.70 0.5898
760.80 0.5895
760.90 0.5892
761.00 0.589
761.10 0.5887
761.20 0.5885
761.30 0.5882
761.40 0.588
761.50 0.5877
761.60 0.5875
761.70 0.5872
761.80 0.5869
761.90 0.5867
762.00 0.5864
762.10 0.5862
762.20 0.5859
762.30 0.5857
762.40 0.5854
762.50 0.5851
762.60 0.5849
762.70 0.5846
762.80 0.5844
762.90 0.5841
763.00 0.5839
763.10 0.5836
763.20 0.5834
763.30 0.5831
763.40 0.5829
763.50 0.5826
763.60 0.5823
763.70 0.5821
763.80 0.5818
763.90 0.5816
764.00 0.5813
764.10 0.5811
764.20 0.5808
764.30 0.5806
764.40 0.5803
764.50 0.5801
764.60 0.5798
764.70 0.5796
764.80 0.5793
764.90 0.5791
765.00 0.5788
765.10 0.5785
765.20 0.5783
765.30 0.578
765.40 0.5778
765.50 0.5775
765.60 0.5773
765.70 0.577
765.80 0.5768
765.90 0.5765
766.00 0.5763
766.10 0.576
766.20 0.5758
766.30 0.5755
766.40 0.5753
766.50 0.575
766.60 0.5748
766.70 0.5745
766.80 0.5743
766.90 0.574
767.00 0.5738
767.10 0.5735
767.20 0.5733
767.30 0.573
767.40 0.5728
767.50 0.5725
767.60 0.5723
767.70 0.572
767.80 0.5718
767.90 0.5715
768.00 0.5713
768.10 0.571
768.20 0.5708
768.30 0.5705
768.40 0.5703
768.50 0.57
768.60 0.5698
768.70 0.5695
768.80 0.5693
768.90 0.569
769.00 0.5688
769.10 0.5685
769.20 0.5683
769.30 0.568
769.40 0.5678
769.50 0.5675
769.60 0.5673
769.70 0.567
769.80 0.5668
769.90 0.5666
770.00 0.5663
770.10 0.5662
770.20 0.566
770.30 0.5659
770.40 0.5657
770.50 0.5656
770.60 0.5654
770.70 0.5653
770.80 0.5652
770.90 0.565
771.00 0.5649
771.10 0.5647
771.20 0.5646
771.30 0.5644
771.40 0.5643
771.50 0.5642
771.60 0.564
771.70 0.5639
771.80 0.5637
771.90 0.5636
772.00 0.5634
772.10 0.5633
772.20 0.5631
772.30 0.563
772.40 0.5629
772.50 0.5627
772.60 0.5626
772.70 0.5624
772.80 0.5623
772.90 0.5621
773.00 0.562
773.10 0.5619
773.20 0.5617
773.30 0.5616
773.40 0.5614
773.50 0.5613
773.60 0.5612
773.70 0.561
773.80 0.5609
773.90 0.5607
774.00 0.5606
774.10 0.5604
774.20 0.5603
774.30 0.5602
774.40 0.56
774.50 0.5599
774.60 0.5597
774.70 0.5596
774.80 0.5595
774.90 0.5593
775.00 0.5592
775.10 0.559
775.20 0.5589
775.30 0.5587
775.40 0.5586
775.50 0.5585
775.60 0.5583
775.70 0.5582
775.80 0.558
775.90 0.5579
776.00 0.5578
776.10 0.5576
776.20 0.5575
776.30 0.5573
776.40 0.5572
776.50 0.5571
776.60 0.5569
776.70 0.5568
776.80 0.5566
776.90 0.5565
777.00 0.5563
777.10 0.5562
777.20 0.5561
777.30 0.5559
777.40 0.5558
777.50 0.5556
777.60 0.5555
777.70 0.5554
777.80 0.5552
777.90 0.5551
778.00 0.5549
778.10 0.5548
778.20 0.5547
778.30 0.5545
778.40 0.5544
778.50 0.5543
778.60 0.5541
778.70 0.554
778.80 0.5538
778.90 0.5537
779.00 0.5536
779.10 0.5534
779.20 0.5533
779.30 0.5531
779.40 0.553
779.50 0.5529
779.60 0.5527
779.70 0.5526
779.80 0.5524
779.90 0.5523
780.00 0.5522
780.10 0.5521
780.20 0.5521
780.30 0.5521
780.40 0.5521
780.50 0.5521
780.60 0.5521
780.70 0.5521
780.80 0.552
780.90 0.552
781.00 0.552
781.10 0.552
781.20 0.552
781.30 0.552
781.40 0.552
781.50 0.5519
781.60 0.5519
781.70 0.5519
781.80 0.5519
781.90 0.5519
782.00 0.5519
782.10 0.5519
782.20 0.5518
782.30 0.5518
782.40 0.5518
782.50 0.5518
782.60 0.5518
782.70 0.5518
782.80 0.5518
782.90 0.5517
783.00 0.5517
783.10 0.5517
783.20 0.5517
783.30 0.5517
783.40 0.5517
783.50 0.5517
783.60 0.5516
783.70 0.5516
783.80 0.5516
783.90 0.5516
784.00 0.5516
784.10 0.5516
784.20 0.5515
784.30 0.5515
784.40 0.5515
784.50 0.5515
784.60 0.5515
784.70 0.5515
784.80 0.5515
784.90 0.5514
785.00 0.5514
785.10 0.5514
785.20 0.5514
785.30 0.5514
785.40 0.5514
785.50 0.5514
785.60 0.5513
785.70 0.5513
785.80 0.5513
785.90 0.5513
786.00 0.5513
786.10 0.5513
786.20 0.5512
786.30 0.5512
786.40 0.5512
786.50 0.5512
786.60 0.5512
786.70 0.5512
786.80 0.5512
786.90 0.5511
787.00 0.5511
787.10 0.5511
787.20 0.5511
787.30 0.5511
787.40 0.5511
787.50 0.5511
787.60 0.551
787.70 0.551
787.80 0.551
787.90 0.551
788.00 0.551
788.10 0.551
788.20 0.5509
788.30 0.5509
788.40 0.5509
788.50 0.5509
788.60 0.5509
788.70 0.5509
788.80 0.5509
788.90 0.5508
789.00 0.5508
789.10 0.5508
789.20 0.5508
789.30 0.5508
789.40 0.5508
789.50 0.5507
789.60 0.5507
789.70 0.5507
789.80 0.5507
789.90 0.5507
790.00 0.5507
790.10 0.5507
790.20 0.5507
790.30 0.5508
790.40 0.5508
790.50 0.5508
790.60 0.5509
790.70 0.5509
790.80 0.551
790.90 0.551
791.00 0.551
791.10 0.5511
791.20 0.5511
791.30 0.5511
791.40 0.5512
791.50 0.5512
791.60 0.5512
791.70 0.5513
791.80 0.5513
791.90 0.5513
792.00 0.5514
792.10 0.5514
792.20 0.5514
792.30 0.5515
792.40 0.5515
792.50 0.5515
792.60 0.5516
792.70 0.5516
792.80 0.5517
792.90 0.5517
793.00 0.5517
793.10 0.5518
793.20 0.5518
793.30 0.5518
793.40 0.5519
793.50 0.5519
793.60 0.5519
793.70 0.552
793.80 0.552
793.90 0.552
794.00 0.5521
794.10 0.5521
794.20 0.5521
794.30 0.5522
794.40 0.5522
794.50 0.5522
794.60 0.5523
794.70 0.5523
794.80 0.5523
794.90 0.5524
795.00 0.5524
795.10 0.5524
795.20 0.5525
795.30 0.5525
795.40 0.5525
795.50 0.5526
795.60 0.5526
795.70 0.5526
795.80 0.5527
795.90 0.5527
796.00 0.5527
796.10 0.5528
796.20 0.5528
796.30 0.5528
796.40 0.5529
796.50 0.5529
796.60 0.5529
796.70 0.553
796.80 0.553
796.90 0.553
797.00 0.5531
797.10 0.5531
797.20 0.5531
797.30 0.5532
797.40 0.5532
797.50 0.5532
797.60 0.5533
797.70 0.5533
797.80 0.5533
797.90 0.5534
798.00 0.5534
798.10 0.5534
798.20 0.5535
798.30 0.5535
798.40 0.5535
798.50 0.5536
798.60 0.5536
798.70 0.5536
798.80 0.5537
798.90 0.5537
799.00 0.5537
799.10 0.5538
799.20 0.5538
799.30 0.5538
799.40 0.5539
799.50 0.5539
799.60 0.5539
799.70 0.554
799.80 0.554
799.90 0.554
800.00 0.554
800.10 0.554
800.20 0.554
800.30 0.554
800.40 0.554
800.50 0.5539
800.60 0.5539
800.70 0.5539
800.80 0.5539
800.90 0.5539
801.00 0.5538
801.10 0.5538
801.20 0.5538
801.30 0.5538
801.40 0.5538
801.50 0.5537
801.60 0.5537
801.70 0.5537
801.80 0.5537
801.90 0.5536
802.00 0.5536
802.10 0.5536
802.20 0.5536
802.30 0.5536
802.40 0.5535
802.50 0.5535
802.60 0.5535
802.70 0.5535
802.80 0.5535
802.90 0.5534
803.00 0.5534
803.10 0.5534
803.20 0.5534
803.30 0.5534
803.40 0.5533
803.50 0.5533
803.60 0.5533
803.70 0.5533
803.80 0.5532
803.90 0.5532
804.00 0.5532
804.10 0.5532
804.20 0.5532
804.30 0.5531
804.40 0.5531
804.50 0.5531
804.60 0.5531
804.70 0.5531
804.80 0.553
804.90 0.553
805.00 0.553
805.10 0.553
805.20 0.5529
805.30 0.5529
805.40 0.5529
805.50 0.5529
805.60 0.5529
805.70 0.5528
805.80 0.5528
805.90 0.5528
806.00 0.5528
806.10 0.5528
806.20 0.5527
806.30 0.5527
806.40 0.5527
806.50 0.5527
806.60 0.5527
806.70 0.5526
806.80 0.5526
806.90 0.5526
807.00 0.5526
807.10 0.5525
807.20 0.5525
807.30 0.5525
807.40 0.5525
807.50 0.5525
807.60 0.5524
807.70 0.5524
807.80 0.5524
807.90 0.5524
808.00 0.5524
808.10 0.5523
808.20 0.5523
808.30 0.5523
808.40 0.5523
808.50 0.5522
808.60 0.5522
808.70 0.5522
808.80 0.5522
808.90 0.5522
809.00 0.5521
809.10 0.5521
809.20 0.5521
809.30 0.5521
809.40 0.552
809.50 0.552
809.60 0.552
809.70 0.552
809.80 0.552
809.90 0.5519
810.00 0.5519
810.10 0.5518
810.20 0.5517
810.30 0.5516
810.40 0.5515
810.50 0.5514
810.60 0.5513
810.70 0.5513
810.80 0.5512
810.90 0.5511
811.00 0.551
811.10 0.5509
811.20 0.5508
811.30 0.5507
811.40 0.5506
811.50 0.5505
811.60 0.5504
811.70 0.5503
811.80 0.5502
811.90 0.5501
812.00 0.55
812.10 0.5499
812.20 0.5498
812.30 0.5497
812.40 0.5496
812.50 0.5495
812.60 0.5494
812.70 0.5493
812.80 0.5493
812.90 0.5492
813.00 0.5491
813.10 0.549
813.20 0.5489
813.30 0.5488
813.40 0.5487
813.50 0.5486
813.60 0.5485
813.70 0.5484
813.80 0.5483
813.90 0.5482
814.00 0.5481
814.10 0.548
814.20 0.5479
814.30 0.5478
814.40 0.5477
814.50 0.5476
814.60 0.5475
814.70 0.5475
814.80 0.5474
814.90 0.5473
815.00 0.5472
815.10 0.5471
815.20 0.547
815.30 0.5469
815.40 0.5468
815.50 0.5467
815.60 0.5466
815.70 0.5465
815.80 0.5464
815.90 0.5463
816.00 0.5462
816.10 0.5461
816.20 0.546
816.30 0.5459
816.40 0.5459
816.50 0.5458
816.60 0.5457
816.70 0.5456
816.80 0.5455
816.90 0.5454
817.00 0.5453
817.10 0.5452
817.20 0.5451
817.30 0.545
817.40 0.5449
817.50 0.5448
817.60 0.5447
817.70 0.5446
817.80 0.5445
817.90 0.5445
818.00 0.5444
818.10 0.5443
818.20 0.5442
818.30 0.5441
818.40 0.544
818.50 0.5439
818.60 0.5438
818.70 0.5437
818.80 0.5436
818.90 0.5435
819.00 0.5434
819.10 0.5433
819.20 0.5432
819.30 0.5431
819.40 0.5431
819.50 0.543
819.60 0.5429
819.70 0.5428
819.80 0.5427
819.90 0.5426
820.00 0.5425
820.10 0.5424
820.20 0.5423
820.30 0.5422
820.40 0.5421
820.50 0.542
820.60 0.5418
820.70 0.5417
820.80 0.5416
820.90 0.5415
821.00 0.5414
821.10 0.5413
821.20 0.5411
821.30 0.541
821.40 0.5409
821.50 0.5408
821.60 0.5407
821.70 0.5406
821.80 0.5405
821.90 0.5403
822.00 0.5402
822.10 0.5401
822.20 0.54
822.30 0.5399
822.40 0.5397
822.50 0.5396
822.60 0.5395
822.70 0.5394
822.80 0.5392
822.90 0.5391
823.00 0.539
823.10 0.5389
823.20 0.5387
823.30 0.5386
823.40 0.5385
823.50 0.5384
823.60 0.5383
823.70 0.5381
823.80 0.538
823.90 0.5379
824.00 0.5378
824.10 0.5376
824.20 0.5375
824.30 0.5374
824.40 0.5373
824.50 0.5372
824.60 0.537
824.70 0.5369
824.80 0.5368
824.90 0.5367
825.00 0.5365
825.10 0.5364
825.20 0.5363
825.30 0.5362
825.40 0.5361
825.50 0.5359
825.60 0.5358
825.70 0.5357
825.80 0.5356
825.90 0.5354
826.00 0.5353
826.10 0.5352
826.20 0.5351
826.30 0.535
826.40 0.5348
826.50 0.5347
826.60 0.5346
826.70 0.5345
826.80 0.5344
826.90 0.5342
827.00 0.5341
827.10 0.534
827.20 0.5339
827.30 0.5337
827.40 0.5336
827.50 0.5335
827.60 0.5334
827.70 0.5332
827.80 0.5331
827.90 0.533
828.00 0.5328
828.10 0.5327
828.20 0.5326
828.30 0.5325
828.40 0.5323
828.50 0.5322
828.60 0.5321
828.70 0.532
828.80 0.5318
828.90 0.5317
829.00 0.5316
829.10 0.5315
829.20 0.5313
829.30 0.5312
829.40 0.5311
829.50 0.531
829.60 0.5308
829.70 0.5307
829.80 0.5306
829.90 0.5305
830.00 0.5303
830.10 0.5302
830.20 0.5301
830.30 0.53
830.40 0.5298
830.50 0.5297
830.60 0.5296
830.70 0.5295
830.80 0.5293
830.90 0.5292
831.00 0.5291
831.10 0.529
831.20 0.5288
831.30 0.5287
831.40 0.5286
831.50 0.5285
831.60 0.5283
831.70 0.5282
831.80 0.5281
831.90 0.528
832.00 0.5278
832.10 0.5277
832.20 0.5276
832.30 0.5275
832.40 0.5273
832.50 0.5272
832.60 0.5271
832.70 0.527
832.80 0.5268
832.90 0.5267
833.00 0.5266
833.10 0.5265
833.20 0.5263
833.30 0.5262
833.40 0.5261
833.50 0.526
833.60 0.5258
833.70 0.5257
833.80 0.5256
833.90 0.5255
834.00 0.5253
834.10 0.5252
834.20 0.5251
834.30 0.525
834.40 0.5248
834.50 0.5247
834.60 0.5246
834.70 0.5245
834.80 0.5243
834.90 0.5242
835.00 0.5241
835.10 0.524
835.20 0.5238
835.30 0.5237
835.40 0.5236
835.50 0.5235
835.60 0.5233
835.70 0.5232
835.80 0.5231
835.90 0.523
836.00 0.5229
836.10 0.5227
836.20 0.5226
836.30 0.5225
836.40 0.5224
836.50 0.5222
836.60 0.5221
836.70 0.522
836.80 0.5219
836.90 0.5217
837.00 0.5216
837.10 0.5215
837.20 0.5214
837.30 0.5212
837.40 0.5211
837.50 0.521
837.60 0.5209
837.70 0.5207
837.80 0.5206
837.90 0.5205
838.00 0.5204
838.10 0.5202
838.20 0.5201
838.30 0.52
838.40 0.5199
838.50 0.5197
838.60 0.5196
838.70 0.5195
838.80 0.5194
838.90 0.5192
839.00 0.5191
839.10 0.519
839.20 0.5189
839.30 0.5187
839.40 0.5186
839.50 0.5185
839.60 0.5184
839.70 0.5182
839.80 0.5181
839.90 0.518
840.00 0.5179
840.10 0.5177
840.20 0.5176
840.30 0.5175
840.40 0.5174
840.50 0.5172
840.60 0.5171
840.70 0.517
840.80 0.5169
840.90 0.5167
841.00 0.5166
841.10 0.5165
841.20 0.5164
841.30 0.5162
841.40 0.5161
841.50 0.516
841.60 0.5159
841.70 0.5158
841.80 0.5156
841.90 0.5155
842.00 0.5154
842.10 0.5153
842.20 0.5151
842.30 0.515
842.40 0.5149
842.50 0.5148
842.60 0.5146
842.70 0.5145
842.80 0.5144
842.90 0.5143
843.00 0.5141
843.10 0.514
843.20 0.5139
843.30 0.5138
843.40 0.5136
843.50 0.5135
843.60 0.5134
843.70 0.5133
843.80 0.5131
843.90 0.513
844.00 0.5129
844.10 0.5128
844.20 0.5126
844.30 0.5125
844.40 0.5124
844.50 0.5123
844.60 0.5121
844.70 0.512
844.80 0.5119
844.90 0.5118
845.00 0.5116
845.10 0.5115
845.20 0.5114
845.30 0.5113
845.40 0.5111
845.50 0.511
845.60 0.5109
845.70 0.5108
845.80 0.5107
845.90 0.5105
846.00 0.5104
846.10 0.5103
846.20 0.5102
846.30 0.51
846.40 0.5099
846.50 0.5098
846.60 0.5097
846.70 0.5095
846.80 0.5094
846.90 0.5093
847.00 0.5092
847.10 0.509
847.20 0.5089
847.30 0.5088
847.40 0.5087
847.50 0.5085
847.60 0.5084
847.70 0.5083
847.80 0.5081
847.90 0.508
848.00 0.5079
848.10 0.5077
848.20 0.5076
848.30 0.5075
848.40 0.5074
848.50 0.5072
848.60 0.5071
848.70 0.507
848.80 0.5068
848.90 0.5067
849.00 0.5066
849.10 0.5065
849.20 0.5063
849.30 0.5062
849.40 0.5061
849.50 0.5059
849.60 0.5058
849.70 0.5057
849.80 0.5056
849.90 0.5054
850.00 0.5053
850.10 0.5052
850.20 0.505
850.30 0.5049
850.40 0.5048
850.50 0.5047
850.60 0.5045
850.70 0.5044
850.80 0.5043
850.90 0.5041
851.00 0.504
851.10 0.5039
851.20 0.5038
851.30 0.5036
851.40 0.5035
851.50 0.5034
851.60 0.5033
851.70 0.5031
851.80 0.503
851.90 0.5029
852.00 0.5027
852.10 0.5026
852.20 0.5025
852.30 0.5023
852.40 0.5022
852.50 0.5021
852.60 0.5019
852.70 0.5018
852.80 0.5017
852.90 0.5015
853.00 0.5014
853.10 0.5012
853.20 0.5011
853.30 0.501
853.40 0.5008
853.50 0.5007
853.60 0.5006
853.70 0.5004
853.80 0.5003
853.90 0.5002
854.00 0.5
854.10 0.4999
854.20 0.4998
854.30 0.4996
854.40 0.4995
854.50 0.4993
854.60 0.4992
854.70 0.4991
854.80 0.4989
854.90 0.4988
855.00 0.4987
855.10 0.4985
855.20 0.4984
855.30 0.4983
855.40 0.4981
855.50 0.498
855.60 0.4979
855.70 0.4977
855.80 0.4976
855.90 0.4975
856.00 0.4973
856.10 0.4972
856.20 0.4971
856.30 0.4969
856.40 0.4968
856.50 0.4967
856.60 0.4965
856.70 0.4964
856.80 0.4963
856.90 0.4961
857.00 0.496
857.10 0.4958
857.20 0.4957
857.30 0.4956
857.40 0.4954
857.50 0.4953
857.60 0.4951
857.70 0.495
857.80 0.4949
857.90 0.4947
858.00 0.4946
858.10 0.4944
858.20 0.4943
858.30 0.4941
858.40 0.494
858.50 0.4939
858.60 0.4937
858.70 0.4936
858.80 0.4934
858.90 0.4933
859.00 0.4932
859.10 0.493
859.20 0.4929
859.30 0.4927
859.40 0.4926
859.50 0.4924
859.60 0.4923
859.70 0.4922
859.80 0.492
859.90 0.4919
860.00 0.4917
860.10 0.4916
860.20 0.4915
860.30 0.4913
860.40 0.4912
860.50 0.491
860.60 0.4909
860.70 0.4908
860.80 0.4906
860.90 0.4905
861.00 0.4903
861.10 0.4902
861.20 0.4901
861.30 0.4899
861.40 0.4898
861.50 0.4896
861.60 0.4895
861.70 0.4894
861.80 0.4892
861.90 0.4891
862.00 0.4889
862.10 0.4888
862.20 0.4886
862.30 0.4885
862.40 0.4883
862.50 0.4882
862.60 0.488
862.70 0.4879
862.80 0.4877
862.90 0.4876
863.00 0.4875
863.10 0.4873
863.20 0.4872
863.30 0.487
863.40 0.4869
863.50 0.4867
863.60 0.4866
863.70 0.4864
863.80 0.4863
863.90 0.4861
864.00 0.486
864.10 0.4858
864.20 0.4857
864.30 0.4855
864.40 0.4854
864.50 0.4852
864.60 0.4851
864.70 0.4849
864.80 0.4848
864.90 0.4846
865.00 0.4845
865.10 0.4843
865.20 0.4842
865.30 0.4841
865.40 0.4839
865.50 0.4838
865.60 0.4836
865.70 0.4835
865.80 0.4833
865.90 0.4832
866.00 0.483
866.10 0.4829
866.20 0.4827
866.30 0.4826
866.40 0.4824
866.50 0.4823
866.60 0.4821
866.70 0.482
866.80 0.4819
866.90 0.4817
867.00 0.4816
867.10 0.4814
867.20 0.4812
867.30 0.4811
867.40 0.4809
867.50 0.4807
867.60 0.4806
867.70 0.4804
867.80 0.4802
867.90 0.4801
868.00 0.4799
868.10 0.4797
868.20 0.4796
868.30 0.4794
868.40 0.4792
868.50 0.4791
868.60 0.4789
868.70 0.4788
868.80 0.4786
868.90 0.4784
869.00 0.4783
869.10 0.4781
869.20 0.4779
869.30 0.4778
869.40 0.4776
869.50 0.4774
869.60 0.4773
869.70 0.4771
869.80 0.477
869.90 0.4768
870.00 0.4766
870.10 0.4765
870.20 0.4763
870.30 0.4761
870.40 0.476
870.50 0.4758
870.60 0.4756
870.70 0.4755
870.80 0.4753
870.90 0.4752
871.00 0.475
871.10 0.4748
871.20 0.4747
871.30 0.4745
871.40 0.4743
871.50 0.4742
871.60 0.474
871.70 0.4739
871.80 0.4737
871.90 0.4735
872.00 0.4734
872.10 0.4732
872.20 0.473
872.30 0.4728
872.40 0.4726
872.50 0.4725
872.60 0.4723
872.70 0.4721
872.80 0.4719
872.90 0.4717
873.00 0.4716
873.10 0.4714
873.20 0.4712
873.30 0.471
873.40 0.4709
873.50 0.4707
873.60 0.4705
873.70 0.4703
873.80 0.4701
873.90 0.47
874.00 0.4698
874.10 0.4696
874.20 0.4694
874.30 0.4692
874.40 0.4691
874.50 0.4689
874.60 0.4687
874.70 0.4685
874.80 0.4684
874.90 0.4682
875.00 0.468
875.10 0.4678
875.20 0.4676
875.30 0.4675
875.40 0.4673
875.50 0.4671
875.60 0.4669
875.70 0.4668
875.80 0.4666
875.90 0.4664
876.00 0.4662
876.10 0.466
876.20 0.4659
876.30 0.4657
876.40 0.4655
876.50 0.4653
876.60 0.4652
876.70 0.465
876.80 0.4648
876.90 0.4646
877.00 0.4645
877.10 0.4643
877.20 0.4641
877.30 0.4639
877.40 0.4637
877.50 0.4635
877.60 0.4633
877.70 0.4631
877.80 0.4629
877.90 0.4627
878.00 0.4625
878.10 0.4623
878.20 0.4621
878.30 0.4619
878.40 0.4617
878.50 0.4615
878.60 0.4613
878.70 0.4611
878.80 0.4609
878.90 0.4607
879.00 0.4605
879.10 0.4603
879.20 0.4601
879.30 0.4599
879.40 0.4597
879.50 0.4595
879.60 0.4593
879.70 0.4591
879.80 0.4589
879.90 0.4587
880.00 0.4585
880.10 0.4583
880.20 0.4581
880.30 0.4579
880.40 0.4577
880.50 0.4575
880.60 0.4573
880.70 0.4571
880.80 0.4569
880.90 0.4567
881.00 0.4565
881.10 0.4564
881.20 0.4562
881.30 0.456
881.40 0.4558
881.50 0.4556
881.60 0.4554
881.70 0.4552
881.80 0.455
881.90 0.4548
882.00 0.4546
882.10 0.4544
882.20 0.4542
882.30 0.4539
882.40 0.4537
882.50 0.4535
882.60 0.4533
882.70 0.4531
882.80 0.4528
882.90 0.4526
883.00 0.4524
883.10 0.4522
883.20 0.452
883.30 0.4518
883.40 0.4515
883.50 0.4513
883.60 0.4511
883.70 0.4509
883.80 0.4507
883.90 0.4505
884.00 0.4502
884.10 0.45
884.20 0.4498
884.30 0.4496
884.40 0.4494
884.50 0.4492
884.60 0.4489
884.70 0.4487
884.80 0.4485
884.90 0.4483
885.00 0.4481
885.10 0.4479
885.20 0.4476
885.30 0.4474
885.40 0.4472
885.50 0.447
885.60 0.4468
885.70 0.4466
885.80 0.4463
885.90 0.4461
886.00 0.4459
886.10 0.4457
886.20 0.4455
886.30 0.4453
886.40 0.4451
886.50 0.4448
886.60 0.4446
886.70 0.4444
886.80 0.4442
886.90 0.444
887.00 0.4438
887.10 0.4435
887.20 0.4433
887.30 0.4431
887.40 0.4428
887.50 0.4426
887.60 0.4424
887.70 0.4421
887.80 0.4419
887.90 0.4417
888.00 0.4414
888.10 0.4412
888.20 0.4409
888.30 0.4407
888.40 0.4405
888.50 0.4402
888.60 0.44
888.70 0.4398
888.80 0.4395
888.90 0.4393
889.00 0.4391
889.10 0.4388
889.20 0.4386
889.30 0.4384
889.40 0.4381
889.50 0.4379
889.60 0.4377
889.70 0.4374
889.80 0.4372
889.90 0.437
890.00 0.4367
890.10 0.4365
890.20 0.4363
890.30 0.436
890.40 0.4358
890.50 0.4356
890.60 0.4354
890.70 0.4351
890.80 0.4349
890.90 0.4347
891.00 0.4344
891.10 0.4342
891.20 0.434
891.30 0.4337
891.40 0.4335
891.50 0.4333
891.60 0.433
891.70 0.4328
891.80 0.4326
891.90 0.4323
892.00 0.4321
892.10 0.4319
892.20 0.4316
892.30 0.4313
892.40 0.4311
892.50 0.4308
892.60 0.4305
892.70 0.4303
892.80 0.43
892.90 0.4298
893.00 0.4295
893.10 0.4292
893.20 0.429
893.30 0.4287
893.40 0.4285
893.50 0.4282
893.60 0.428
893.70 0.4277
893.80 0.4274
893.90 0.4272
894.00 0.4269
894.10 0.4267
894.20 0.4264
894.30 0.4261
894.40 0.4259
894.50 0.4256
894.60 0.4254
894.70 0.4251
894.80 0.4249
894.90 0.4246
895.00 0.4243
895.10 0.4241
895.20 0.4238
895.30 0.4236
895.40 0.4233
895.50 0.4231
895.60 0.4228
895.70 0.4225
895.80 0.4223
895.90 0.422
896.00 0.4218
896.10 0.4215
896.20 0.4213
896.30 0.421
896.40 0.4207
896.50 0.4205
896.60 0.4202
896.70 0.42
896.80 0.4197
896.90 0.4195
897.00 0.4192
897.10 0.4189
897.20 0.4187
897.30 0.4184
897.40 0.4181
897.50 0.4179
897.60 0.4176
897.70 0.4173
897.80 0.4171
897.90 0.4168
898.00 0.4165
898.10 0.4163
898.20 0.416
898.30 0.4158
898.40 0.4155
898.50 0.4152
898.60 0.415
898.70 0.4147
898.80 0.4144
898.90 0.4142
899.00 0.4139
899.10 0.4136
899.20 0.4134
899.30 0.4131
899.40 0.4128
899.50 0.4126
899.60 0.4123
899.70 0.412
899.80 0.4118
899.90 0.4115
900.00 0.4113
900.10 0.411
900.20 0.4107
900.30 0.4105
900.40 0.4102
900.50 0.4099
900.60 0.4097
900.70 0.4094
900.80 0.4092
900.90 0.4089
901.00 0.4086
901.10 0.4084
901.20 0.4081
901.30 0.4078
901.40 0.4076
901.50 0.4073
901.60 0.4071
901.70 0.4068
901.80 0.4065
901.90 0.4063
902.00 0.406
902.10 0.4057
902.20 0.4055
902.30 0.4052
902.40 0.405
902.50 0.4047
902.60 0.4044
902.70 0.4042
902.80 0.4039
902.90 0.4036
903.00 0.4034
903.10 0.4031
903.20 0.4028
903.30 0.4026
903.40 0.4023
903.50 0.4021
903.60 0.4018
903.70 0.4015
903.80 0.4013
903.90 0.401
904.00 0.4007
904.10 0.4005
904.20 0.4002
904.30 0.4
904.40 0.3997
904.50 0.3994
904.60 0.3992
904.70 0.3989
904.80 0.3987
904.90 0.3984
905.00 0.3981
905.10 0.3979
905.20 0.3976
905.30 0.3973
905.40 0.3971
905.50 0.3968
905.60 0.3966
905.70 0.3963
905.80 0.396
905.90 0.3958
906.00 0.3955
906.10 0.3953
906.20 0.395
906.30 0.3947
906.40 0.3945
906.50 0.3942
906.60 0.394
906.70 0.3937
906.80 0.3934
906.90 0.3932
907.00 0.3929
907.10 0.3926
907.20 0.3923
907.30 0.3921
907.40 0.3918
907.50 0.3915
907.60 0.3912
907.70 0.3909
907.80 0.3906
907.90 0.3903
908.00 0.39
908.10 0.3898
908.20 0.3895
908.30 0.3892
908.40 0.3889
908.50 0.3886
908.60 0.3883
908.70 0.388
908.80 0.3877
908.90 0.3875
909.00 0.3872
909.10 0.3869
909.20 0.3866
909.30 0.3863
909.40 0.386
909.50 0.3857
909.60 0.3854
909.70 0.3852
909.80 0.3849
909.90 0.3846
910.00 0.3843
910.10 0.384
910.20 0.3837
910.30 0.3834
910.40 0.3832
910.50 0.3829
910.60 0.3826
910.70 0.3823
910.80 0.382
910.90 0.3817
911.00 0.3815
911.10 0.3812
911.20 0.3809
911.30 0.3806
911.40 0.3803
911.50 0.38
911.60 0.3798
911.70 0.3795
911.80 0.3792
911.90 0.3789
912.00 0.3786
912.10 0.3783
912.20 0.378
912.30 0.3777
912.40 0.3774
912.50 0.3771
912.60 0.3768
912.70 0.3765
912.80 0.3762
912.90 0.3758
913.00 0.3755
913.10 0.3752
913.20 0.3749
913.30 0.3746
913.40 0.3743
913.50 0.374
913.60 0.3737
913.70 0.3734
913.80 0.3731
913.90 0.3728
914.00 0.3725
914.10 0.3722
914.20 0.3719
914.30 0.3716
914.40 0.3712
914.50 0.3709
914.60 0.3706
914.70 0.3703
914.80 0.37
914.90 0.3697
915.00 0.3694
915.10 0.3691
915.20 0.3688
915.30 0.3685
915.40 0.3682
915.50 0.3679
915.60 0.3676
915.70 0.3673
915.80 0.367
915.90 0.3667
916.00 0.3664
916.10 0.3661
916.20 0.3658
916.30 0.3655
916.40 0.3652
916.50 0.3649
916.60 0.3646
916.70 0.3642
916.80 0.3639
916.90 0.3636
917.00 0.3633
917.10 0.363
917.20 0.3627
917.30 0.3624
917.40 0.3621
917.50 0.3618
917.60 0.3615
917.70 0.3612
917.80 0.3609
917.90 0.3606
918.00 0.3602
918.10 0.3599
918.20 0.3596
918.30 0.3593
918.40 0.359
918.50 0.3587
918.60 0.3584
918.70 0.3581
918.80 0.3578
918.90 0.3575
919.00 0.3572
919.10 0.3568
919.20 0.3565
919.30 0.3562
919.40 0.3559
919.50 0.3556
919.60 0.3553
919.70 0.355
919.80 0.3547
919.90 0.3544
920.00 0.3541
920.10 0.3538
920.20 0.3535
920.30 0.3532
920.40 0.3529
920.50 0.3526
920.60 0.3522
920.70 0.3519
920.80 0.3516
920.90 0.3513
921.00 0.351
921.10 0.3507
921.20 0.3504
921.30 0.3501
921.40 0.3498
921.50 0.3495
921.60 0.3492
921.70 0.3489
921.80 0.3486
921.90 0.3483
922.00 0.348
922.10 0.3477
922.20 0.3474
922.30 0.347
922.40 0.3467
922.50 0.3464
922.60 0.3461
922.70 0.3458
922.80 0.3455
922.90 0.3452
923.00 0.3448
923.10 0.3445
923.20 0.3442
923.30 0.3439
923.40 0.3436
923.50 0.3433
923.60 0.343
923.70 0.3427
923.80 0.3424
923.90 0.342
924.00 0.3417
924.10 0.3414
924.20 0.3411
924.30 0.3408
924.40 0.3405
924.50 0.3402
924.60 0.3399
924.70 0.3396
924.80 0.3392
924.90 0.3389
925.00 0.3386
925.10 0.3383
925.20 0.338
925.30 0.3377
925.40 0.3374
925.50 0.3371
925.60 0.3368
925.70 0.3365
925.80 0.3362
925.90 0.3358
926.00 0.3355
926.10 0.3352
926.20 0.3349
926.30 0.3346
926.40 0.3343
926.50 0.334
926.60 0.3337
926.70 0.3334
926.80 0.3331
926.90 0.3328
927.00 0.3325
927.10 0.3321
927.20 0.3318
927.30 0.3315
927.40 0.3312
927.50 0.3309
927.60 0.3306
927.70 0.3302
927.80 0.3299
927.90 0.3296
928.00 0.3293
928.10 0.329
928.20 0.3287
928.30 0.3284
928.40 0.328
928.50 0.3277
928.60 0.3274
928.70 0.3271
928.80 0.3268
928.90 0.3265
929.00 0.3262
929.10 0.3258
929.20 0.3255
929.30 0.3252
929.40 0.3249
929.50 0.3246
929.60 0.3243
929.70 0.324
929.80 0.3236
929.90 0.3233
930.00 0.323
930.10 0.3227
930.20 0.3224
930.30 0.3221
930.40 0.3218
930.50 0.3215
930.60 0.3211
930.70 0.3208
930.80 0.3205
930.90 0.3202
931.00 0.3199
931.10 0.3196
931.20 0.3193
931.30 0.319
931.40 0.3187
931.50 0.3183
931.60 0.318
931.70 0.3177
931.80 0.3174
931.90 0.3171
932.00 0.3168
932.10 0.3165
932.20 0.3162
932.30 0.3159
932.40 0.3155
932.50 0.3152
932.60 0.3149
932.70 0.3146
932.80 0.3143
932.90 0.314
933.00 0.3137
933.10 0.3134
933.20 0.313
933.30 0.3127
933.40 0.3124
933.50 0.3121
933.60 0.3118
933.70 0.3115
933.80 0.3112
933.90 0.3109
934.00 0.3106
934.10 0.3102
934.20 0.3099
934.30 0.3096
934.40 0.3093
934.50 0.309
934.60 0.3087
934.70 0.3084
934.80 0.3081
934.90 0.3078
935.00 0.3074
935.10 0.3071
935.20 0.3068
935.30 0.3065
935.40 0.3062
935.50 0.3059
935.60 0.3056
935.70 0.3053
935.80 0.305
935.90 0.3047
936.00 0.3043
936.10 0.304
936.20 0.3037
936.30 0.3034
936.40 0.3031
936.50 0.3028
936.60 0.3025
936.70 0.3022
936.80 0.3019
936.90 0.3016
937.00 0.3012
937.10 0.3009
937.20 0.3006
937.30 0.3003
937.40 0.3
937.50 0.2997
937.60 0.2994
937.70 0.2991
937.80 0.2988
937.90 0.2985
938.00 0.2982
938.10 0.2978
938.20 0.2975
938.30 0.2972
938.40 0.2969
938.50 0.2966
938.60 0.2963
938.70 0.296
938.80 0.2957
938.90 0.2954
939.00 0.295
939.10 0.2947
939.20 0.2944
939.30 0.2941
939.40 0.2938
939.50 0.2935
939.60 0.2932
939.70 0.2929
939.80 0.2926
939.90 0.2922
940.00 0.2919
940.10 0.2916
940.20 0.2913
940.30 0.291
940.40 0.2907
940.50 0.2904
940.60 0.2901
940.70 0.2898
940.80 0.2895
940.90 0.2892
941.00 0.2889
941.10 0.2886
941.20 0.2883
941.30 0.2879
941.40 0.2876
941.50 0.2873
941.60 0.287
941.70 0.2867
941.80 0.2864
941.90 0.2861
942.00 0.2858
942.10 0.2855
942.20 0.2852
942.30 0.2849
942.40 0.2846
942.50 0.2843
942.60 0.284
942.70 0.2837
942.80 0.2834
942.90 0.2831
943.00 0.2828
943.10 0.2825
943.20 0.2822
943.30 0.2819
943.40 0.2816
943.50 0.2813
943.60 0.2809
943.70 0.2806
943.80 0.2803
943.90 0.28
944.00 0.2797
944.10 0.2794
944.20 0.2791
944.30 0.2788
944.40 0.2785
944.50 0.2782
944.60 0.2779
944.70 0.2776
944.80 0.2773
944.90 0.277
945.00 0.2767
945.10 0.2764
945.20 0.2761
945.30 0.2758
945.40 0.2755
945.50 0.2752
945.60 0.2749
945.70 0.2746
945.80 0.2743
945.90 0.274
946.00 0.2737
946.10 0.2734
946.20 0.2731
946.30 0.2728
946.40 0.2725
946.50 0.2722
946.60 0.2719
946.70 0.2716
946.80 0.2713
946.90 0.271
947.00 0.2707
947.10 0.2704
947.20 0.2701
947.30 0.2698
947.40 0.2695
947.50 0.2692
947.60 0.2689
947.70 0.2686
947.80 0.2683
947.90 0.268
948.00 0.2677
948.10 0.2674
948.20 0.2671
948.30 0.2668
948.40 0.2665
948.50 0.2663
948.60 0.266
948.70 0.2657
948.80 0.2654
948.90 0.2651
949.00 0.2648
949.10 0.2645
949.20 0.2642
949.30 0.2639
949.40 0.2636
949.50 0.2633
949.60 0.263
949.70 0.2627
949.80 0.2624
949.90 0.2621
950.00 0.2618
950.10 0.2615
950.20 0.2612
950.30 0.2609
950.40 0.2606
950.50 0.2604
950.60 0.2601
950.70 0.2598
950.80 0.2595
950.90 0.2592
951.00 0.2589
951.10 0.2586
951.20 0.2583
951.30 0.258
951.40 0.2577
951.50 0.2574
951.60 0.2571
951.70 0.2569
951.80 0.2566
951.90 0.2563
952.00 0.256
952.10 0.2557
952.20 0.2554
952.30 0.2551
952.40 0.2548
952.50 0.2545
952.60 0.2543
952.70 0.254
952.80 0.2537
952.90 0.2534
953.00 0.2531
953.10 0.2528
953.20 0.2525
953.30 0.2522
953.40 0.252
953.50 0.2517
953.60 0.2514
953.70 0.2511
953.80 0.2508
953.90 0.2505
954.00 0.2502
954.10 0.25
954.20 0.2497
954.30 0.2494
954.40 0.2491
954.50 0.2488
954.60 0.2485
954.70 0.2482
954.80 0.248
954.90 0.2477
955.00 0.2474
955.10 0.2471
955.20 0.2468
955.30 0.2465
955.40 0.2463
955.50 0.246
955.60 0.2457
955.70 0.2454
955.80 0.2451
955.90 0.2448
956.00 0.2445
956.10 0.2443
956.20 0.244
956.30 0.2437
956.40 0.2434
956.50 0.2431
956.60 0.2428
956.70 0.2425
956.80 0.2422
956.90 0.2419
957.00 0.2417
957.10 0.2414
957.20 0.2411
957.30 0.2408
957.40 0.2405
957.50 0.2403
957.60 0.24
957.70 0.2397
957.80 0.2394
957.90 0.2392
958.00 0.2389
958.10 0.2386
958.20 0.2383
958.30 0.238
958.40 0.2378
958.50 0.2375
958.60 0.2372
958.70 0.2369
958.80 0.2367
958.90 0.2364
959.00 0.2361
959.10 0.2358
959.20 0.2356
959.30 0.2353
959.40 0.235
959.50 0.2347
959.60 0.2345
959.70 0.2342
959.80 0.2339
959.90 0.2336
960.00 0.2334
960.10 0.2331
960.20 0.2328
960.30 0.2326
960.40 0.2323
960.50 0.232
960.60 0.2317
960.70 0.2315
960.80 0.2312
960.90 0.2309
961.00 0.2307
961.10 0.2304
961.20 0.2301
961.30 0.2298
961.40 0.2296
961.50 0.2293
961.60 0.229
961.70 0.2288
961.80 0.2285
961.90 0.2282
962.00 0.228
962.10 0.2277
962.20 0.2274
962.30 0.2272
962.40 0.2269
962.50 0.2266
962.60 0.2264
962.70 0.2261
962.80 0.2259
962.90 0.2256
963.00 0.2253
963.10 0.2251
963.20 0.2248
963.30 0.2245
963.40 0.2243
963.50 0.224
963.60 0.2237
963.70 0.2235
963.80 0.2232
963.90 0.2229
964.00 0.2227
964.10 0.2224
964.20 0.2222
964.30 0.2219
964.40 0.2216
964.50 0.2214
964.60 0.2211
964.70 0.2208
964.80 0.2206
964.90 0.2203
965.00 0.22
965.10 0.2198
965.20 0.2195
965.30 0.2192
965.40 0.219
965.50 0.2187
965.60 0.2184
965.70 0.2182
965.80 0.2179
965.90 0.2176
966.00 0.2174
966.10 0.2171
966.20 0.2169
966.30 0.2166
966.40 0.2163
966.50 0.2161
966.60 0.2158
966.70 0.2156
966.80 0.2153
966.90 0.2151
967.00 0.2148
967.10 0.2145
967.20 0.2143
967.30 0.214
967.40 0.2138
967.50 0.2135
967.60 0.2133
967.70 0.213
967.80 0.2128
967.90 0.2125
968.00 0.2123
968.10 0.212
968.20 0.2118
968.30 0.2115
968.40 0.2113
968.50 0.211
968.60 0.2108
968.70 0.2105
968.80 0.2103
968.90 0.21
969.00 0.2098
969.10 0.2095
969.20 0.2093
969.30 0.209
969.40 0.2088
969.50 0.2085
969.60 0.2083
969.70 0.208
969.80 0.2078
969.90 0.2076
970.00 0.2073
970.10 0.2071
970.20 0.2068
970.30 0.2066
970.40 0.2063
970.50 0.2061
970.60 0.2058
970.70 0.2056
970.80 0.2054
970.90 0.2051
971.00 0.2049
971.10 0.2046
971.20 0.2044
971.30 0.2041
971.40 0.2039
971.50 0.2037
971.60 0.2034
971.70 0.2032
971.80 0.2029
971.90 0.2027
972.00 0.2025
972.10 0.2022
972.20 0.202
972.30 0.2017
972.40 0.2015
972.50 0.2013
972.60 0.201
972.70 0.2008
972.80 0.2006
972.90 0.2003
973.00 0.2001
973.10 0.1999
973.20 0.1996
973.30 0.1994
973.40 0.1992
973.50 0.1989
973.60 0.1987
973.70 0.1984
973.80 0.1982
973.90 0.198
974.00 0.1977
974.10 0.1975
974.20 0.1973
974.30 0.197
974.40 0.1968
974.50 0.1966
974.60 0.1963
974.70 0.1961
974.80 0.1959
974.90 0.1956
975.00 0.1954
975.10 0.1952
975.20 0.195
975.30 0.1947
975.40 0.1945
975.50 0.1943
975.60 0.194
975.70 0.1938
975.80 0.1936
975.90 0.1933
976.00 0.1931
976.10 0.1929
976.20 0.1926
976.30 0.1924
976.40 0.1922
976.50 0.192
976.60 0.1917
976.70 0.1915
976.80 0.1913
976.90 0.191
977.00 0.1908
977.10 0.1906
977.20 0.1904
977.30 0.1901
977.40 0.1899
977.50 0.1897
977.60 0.1895
977.70 0.1893
977.80 0.1891
977.90 0.1888
978.00 0.1886
978.10 0.1884
978.20 0.1882
978.30 0.188
978.40 0.1878
978.50 0.1875
978.60 0.1873
978.70 0.1871
978.80 0.1869
978.90 0.1867
979.00 0.1864
979.10 0.1862
979.20 0.186
979.30 0.1858
979.40 0.1856
979.50 0.1854
979.60 0.1851
979.70 0.1849
979.80 0.1847
979.90 0.1845
980.00 0.1843
980.10 0.1841
980.20 0.1838
980.30 0.1836
980.40 0.1834
980.50 0.1832
980.60 0.183
980.70 0.1828
980.80 0.1826
980.90 0.1823
981.00 0.1821
981.10 0.1819
981.20 0.1817
981.30 0.1815
981.40 0.1813
981.50 0.181
981.60 0.1808
981.70 0.1806
981.80 0.1804
981.90 0.1802
982.00 0.18
982.10 0.1798
982.20 0.1796
982.30 0.1794
982.40 0.1791
982.50 0.1789
982.60 0.1787
982.70 0.1785
982.80 0.1783
982.90 0.1781
983.00 0.1779
983.10 0.1777
983.20 0.1775
983.30 0.1773
983.40 0.1771
983.50 0.1769
983.60 0.1767
983.70 0.1765
983.80 0.1763
983.90 0.1761
984.00 0.1759
984.10 0.1757
984.20 0.1755
984.30 0.1752
984.40 0.175
984.50 0.1748
984.60 0.1746
984.70 0.1744
984.80 0.1742
984.90 0.1741
985.00 0.1739
985.10 0.1737
985.20 0.1735
985.30 0.1733
985.40 0.1731
985.50 0.1729
985.60 0.1727
985.70 0.1725
985.80 0.1723
985.90 0.1721
986.00 0.172
986.10 0.1718
986.20 0.1716
986.30 0.1714
986.40 0.1712
986.50 0.171
986.60 0.1708
986.70 0.1706
986.80 0.1704
986.90 0.1702
987.00 0.1701
987.10 0.1699
987.20 0.1697
987.30 0.1695
987.40 0.1693
987.50 0.1691
987.60 0.1689
987.70 0.1687
987.80 0.1685
987.90 0.1683
988.00 0.1681
988.10 0.1679
988.20 0.1677
988.30 0.1675
988.40 0.1673
988.50 0.1671
988.60 0.1669
988.70 0.1667
988.80 0.1665
988.90 0.1663
989.00 0.1661
989.10 0.1659
989.20 0.1657
989.30 0.1655
989.40 0.1653
989.50 0.1651
989.60 0.1649
989.70 0.1647
989.80 0.1645
989.90 0.1643
990.00 0.1641
990.10 0.1639
990.20 0.1637
990.30 0.1635
990.40 0.1633
990.50 0.1631
990.60 0.163
990.70 0.1628
990.80 0.1626
990.90 0.1624
991.00 0.1622
991.10 0.162
991.20 0.1618
991.30 0.1616
991.40 0.1614
991.50 0.1612
991.60 0.161
991.70 0.1608
991.80 0.1606
991.90 0.1604
992.00 0.1602
992.10 0.16
992.20 0.1598
992.30 0.1596
992.40 0.1594
992.50 0.1593
992.60 0.1591
992.70 0.1589
992.80 0.1587
992.90 0.1585
993.00 0.1583
993.10 0.1581
993.20 0.1579
993.30 0.1577
993.40 0.1575
993.50 0.1573
993.60 0.1571
993.70 0.1569
993.80 0.1567
993.90 0.1565
994.00 0.1564
994.10 0.1562
994.20 0.156
994.30 0.1558
994.40 0.1556
994.50 0.1554
994.60 0.1552
994.70 0.155
994.80 0.1547
994.90 0.1545
995.00 0.1543
995.10 0.154
995.20 0.1538
995.30 0.1536
995.40 0.1533
995.50 0.1531
995.60 0.1529
995.70 0.1527
995.80 0.1525
995.90 0.1523
996.00 0.1521
996.10 0.1519
996.20 0.1517
996.30 0.1515
996.40 0.1514
996.50 0.1512
996.60 0.151
996.70 0.1508
996.80 0.1506
996.90 0.1504
997.00 0.1503
997.10 0.1501
997.20 0.1499
997.30 0.1497
997.40 0.1495
997.50 0.1493
997.60 0.1492
997.70 0.149
997.80 0.1488
997.90 0.1486
998.00 0.1485
998.10 0.1483
998.20 0.1481
998.30 0.1479
998.40 0.1477
998.50 0.1476
998.60 0.1474
998.70 0.1472
998.80 0.147
998.90 0.1469
999.00 0.1467
999.10 0.1465
999.20 0.1463
999.30 0.1462
999.40 0.146
999.50 0.1458
999.60 0.1456
999.70 0.1455
999.80 0.1453
999.90 0.1451
1000.00 0.145
1000.10 0.1448
1000.20 0.1446
1000.30 0.1445
1000.40 0.1443
1000.50 0.1441
1000.60 0.144
1000.70 0.1438
1000.80 0.1436
1000.90 0.1435
1001.00 0.1433
1001.10 0.1431
1001.20 0.143
1001.30 0.1428
1001.40 0.1426
1001.50 0.1424
1001.60 0.1423
1001.70 0.1421
1001.80 0.142
1001.90 0.1418
1002.00 0.1416
1002.10 0.1415
1002.20 0.1413
1002.30 0.1412
1002.40 0.141
1002.50 0.1408
1002.60 0.1407
1002.70 0.1405
1002.80 0.1404
1002.90 0.1402
1003.00 0.14
1003.10 0.1399
1003.20 0.1397
1003.30 0.1396
1003.40 0.1394
1003.50 0.1392
1003.60 0.1391
1003.70 0.1389
1003.80 0.1388
1003.90 0.1386
1004.00 0.1385
1004.10 0.1383
1004.20 0.1382
1004.30 0.138
1004.40 0.1378
1004.50 0.1377
1004.60 0.1375
1004.70 0.1374
1004.80 0.1372
1004.90 0.137
1005.00 0.1368
1005.10 0.1367
1005.20 0.1365
1005.30 0.1364
1005.40 0.1362
1005.50 0.1361
1005.60 0.1359
1005.70 0.1358
1005.80 0.1356
1005.90 0.1355
1006.00 0.1353
1006.10 0.1352
1006.20 0.135
1006.30 0.1349
1006.40 0.1347
1006.50 0.1346
1006.60 0.1345
1006.70 0.1343
1006.80 0.1342
1006.90 0.134
1007.00 0.1339
1007.10 0.1337
1007.20 0.1336
1007.30 0.1335
1007.40 0.1333
1007.50 0.1332
1007.60 0.133
1007.70 0.1329
1007.80 0.1328
1007.90 0.1326
1008.00 0.1325
1008.10 0.1324
1008.20 0.1322
1008.30 0.1321
1008.40 0.1319
1008.50 0.1318
1008.60 0.1317
1008.70 0.1315
1008.80 0.1314
1008.90 0.1313
1009.00 0.1311
1009.10 0.131
1009.20 0.1309
1009.30 0.1307
1009.40 0.1306
1009.50 0.1305
1009.60 0.1303
1009.70 0.1302
1009.80 0.1301
1009.90 0.1299
1010.00 0.1298
1010.10 0.1297
1010.20 0.1296
1010.30 0.1294
1010.40 0.1293
1010.50 0.1292
1010.60 0.129
1010.70 0.1289
1010.80 0.1288
1010.90 0.1287
1011.00 0.1285
1011.10 0.1284
1011.20 0.1283
1011.30 0.1282
1011.40 0.128
1011.50 0.1279
1011.60 0.1278
1011.70 0.1276
1011.80 0.1275
1011.90 0.1274
1012.00 0.1273
1012.10 0.1272
1012.20 0.127
1012.30 0.1269
1012.40 0.1268
1012.50 0.1267
1012.60 0.1266
1012.70 0.1264
1012.80 0.1263
1012.90 0.1262
1013.00 0.1261
1013.10 0.126
1013.20 0.1259
1013.30 0.1257
1013.40 0.1256
1013.50 0.1255
1013.60 0.1254
1013.70 0.1253
1013.80 0.1251
1013.90 0.125
1014.00 0.1249
1014.10 0.1248
1014.20 0.1247
1014.30 0.1246
1014.40 0.1245
1014.50 0.1244
1014.60 0.1242
1014.70 0.1241
1014.80 0.124
1014.90 0.1239
1015.00 0.1238
1015.10 0.1237
1015.20 0.1236
1015.30 0.1235
1015.40 0.1234
1015.50 0.1234
1015.60 0.1233
1015.70 0.1232
1015.80 0.1231
1015.90 0.123
1016.00 0.1229
1016.10 0.1228
1016.20 0.1227
1016.30 0.1226
1016.40 0.1225
1016.50 0.1224
1016.60 0.1223
1016.70 0.1222
1016.80 0.1221
1016.90 0.122
1017.00 0.1219
1017.10 0.1217
1017.20 0.1216
1017.30 0.1215
1017.40 0.1214
1017.50 0.1213
1017.60 0.1212
1017.70 0.1211
1017.80 0.121
1017.90 0.1209
1018.00 0.1208
1018.10 0.1207
1018.20 0.1206
1018.30 0.1205
1018.40 0.1204
1018.50 0.1203
1018.60 0.1202
1018.70 0.1201
1018.80 0.12
1018.90 0.1199
1019.00 0.1198
1019.10 0.1197
1019.20 0.1196
1019.30 0.1194
1019.40 0.1193
1019.50 0.1192
1019.60 0.1191
1019.70 0.119
1019.80 0.1189
1019.90 0.1188
1020.00 0.1187
1020.10 0.1186
1020.20 0.1185
1020.30 0.1184
1020.40 0.1183
1020.50 0.1182
1020.60 0.1181
1020.70 0.118
1020.80 0.1179
1020.90 0.1178
1021.00 0.1177
1021.10 0.1176
1021.20 0.1175
1021.30 0.1174
1021.40 0.1173
1021.50 0.1172
1021.60 0.1171
1021.70 0.117
1021.80 0.1169
1021.90 0.1168
1022.00 0.1167
1022.10 0.1166
1022.20 0.1165
1022.30 0.1164
1022.40 0.1163
1022.50 0.1162
1022.60 0.1162
1022.70 0.1161
1022.80 0.116
1022.90 0.1159
1023.00 0.1158
1023.10 0.1157
1023.20 0.1156
1023.30 0.1155
1023.40 0.1154
1023.50 0.1153
1023.60 0.1152
1023.70 0.1151
1023.80 0.115
1023.90 0.1149
1024.00 0.1148
1024.10 0.1147
1024.20 0.1146
1024.30 0.1145
1024.40 0.1144
1024.50 0.1143
1024.60 0.1142
1024.70 0.1141
1024.80 0.114
1024.90 0.1139
1025.00 0.1139
1025.10 0.1138
1025.20 0.1137
1025.30 0.1136
1025.40 0.1135
1025.50 0.1134
1025.60 0.1133
1025.70 0.1132
1025.80 0.1131
1025.90 0.113
1026.00 0.1129
1026.10 0.1128
1026.20 0.1127
1026.30 0.1126
1026.40 0.1126
1026.50 0.1125
1026.60 0.1124
1026.70 0.1123
1026.80 0.1122
1026.90 0.1121
1027.00 0.112
1027.10 0.1119
1027.20 0.1118
1027.30 0.1117
1027.40 0.1116
1027.50 0.1116
1027.60 0.1115
1027.70 0.1114
1027.80 0.1113
1027.90 0.1112
1028.00 0.1111
1028.10 0.111
1028.20 0.111
1028.30 0.1109
1028.40 0.1108
1028.50 0.1107
1028.60 0.1106
1028.70 0.1105
1028.80 0.1104
1028.90 0.1104
1029.00 0.1103
1029.10 0.1102
1029.20 0.1101
1029.30 0.11
1029.40 0.1099
1029.50 0.1098
1029.60 0.1098
1029.70 0.1097
1029.80 0.1096
1029.90 0.1095
1030.00 0.1094
1030.10 0.1093
1030.20 0.1093
1030.30 0.1092
1030.40 0.1091
1030.50 0.109
1030.60 0.1089
1030.70 0.1088
1030.80 0.1087
1030.90 0.1087
1031.00 0.1086
1031.10 0.1085
1031.20 0.1084
1031.30 0.1083
1031.40 0.1082
1031.50 0.1081
1031.60 0.1081
1031.70 0.108
1031.80 0.1079
1031.90 0.1078
1032.00 0.1077
1032.10 0.1076
1032.20 0.1076
1032.30 0.1075
1032.40 0.1074
1032.50 0.1073
1032.60 0.1073
1032.70 0.1072
1032.80 0.1071
1032.90 0.107
1033.00 0.1069
1033.10 0.1069
1033.20 0.1068
1033.30 0.1067
1033.40 0.1066
1033.50 0.1065
1033.60 0.1065
1033.70 0.1064
1033.80 0.1063
1033.90 0.1062
1034.00 0.1062
1034.10 0.1061
1034.20 0.106
1034.30 0.1059
1034.40 0.1058
1034.50 0.1058
1034.60 0.1057
1034.70 0.1056
1034.80 0.1055
1034.90 0.1055
1035.00 0.1054
1035.10 0.1053
1035.20 0.1052
1035.30 0.1051
1035.40 0.1051
1035.50 0.105
1035.60 0.1049
1035.70 0.1048
1035.80 0.1048
1035.90 0.1047
1036.00 0.1046
1036.10 0.1045
1036.20 0.1044
1036.30 0.1044
1036.40 0.1043
1036.50 0.1042
1036.60 0.1041
1036.70 0.1041
1036.80 0.104
1036.90 0.1039
1037.00 0.1038
1037.10 0.1038
1037.20 0.1037
1037.30 0.1036
1037.40 0.1035
1037.50 0.1035
1037.60 0.1034
1037.70 0.1033
1037.80 0.1033
1037.90 0.1032
1038.00 0.1031
1038.10 0.1031
1038.20 0.103
1038.30 0.1029
1038.40 0.1029
1038.50 0.1028
1038.60 0.1027
1038.70 0.1026
1038.80 0.1026
1038.90 0.1025
1039.00 0.1024
1039.10 0.1024
1039.20 0.1023
1039.30 0.1022
1039.40 0.1022
1039.50 0.1021
1039.60 0.102
1039.70 0.102
1039.80 0.1019
1039.90 0.1018
1040.00 0.1017
1040.10 0.1017
1040.20 0.1016
1040.30 0.1015
1040.40 0.1015
1040.50 0.1014
1040.60 0.1013
1040.70 0.1013
1040.80 0.1012
1040.90 0.1011
1041.00 0.1011
1041.10 0.101
1041.20 0.1009
1041.30 0.1009
1041.40 0.1008
1041.50 0.1007
1041.60 0.1006
1041.70 0.1006
1041.80 0.1005
1041.90 0.1004
1042.00 0.1004
1042.10 0.1003
1042.20 0.1003
1042.30 0.1002
1042.40 0.1001
1042.50 0.1001
1042.60 0.1
1042.70 0.09995
1042.80 0.09989
1042.90 0.09982
1043.00 0.09976
1043.10 0.0997
1043.20 0.09964
1043.30 0.09958
1043.40 0.09952
1043.50 0.09946
1043.60 0.0994
1043.70 0.09934
1043.80 0.09928
1043.90 0.09922
1044.00 0.09915
1044.10 0.09909
1044.20 0.09903
1044.30 0.09897
1044.40 0.09891
1044.50 0.09885
1044.60 0.09879
1044.70 0.09873
1044.80 0.09867
1044.90 0.09861
1045.00 0.09855
1045.10 0.09849
1045.20 0.09843
1045.30 0.09837
1045.40 0.09831
1045.50 0.09825
1045.60 0.09818
1045.70 0.09812
1045.80 0.09806
1045.90 0.098
1046.00 0.09794
1046.10 0.09788
1046.20 0.09782
1046.30 0.09776
1046.40 0.0977
1046.50 0.09764
1046.60 0.09758
1046.70 0.09752
1046.80 0.09746
1046.90 0.0974
1047.00 0.09734
1047.10 0.09729
1047.20 0.09723
1047.30 0.09718
1047.40 0.09713
1047.50 0.09707
1047.60 0.09702
1047.70 0.09697
1047.80 0.09691
1047.90 0.09686
1048.00 0.09681
1048.10 0.09675
1048.20 0.0967
1048.30 0.09665
1048.40 0.09659
1048.50 0.09654
1048.60 0.09649
1048.70 0.09643
1048.80 0.09638
1048.90 0.09633
1049.00 0.09628
1049.10 0.09622
1049.20 0.09617
1049.30 0.09612
1049.40 0.09606
1049.50 0.09601
1049.60 0.09596
1049.70 0.0959
1049.80 0.09585
1049.90 0.0958
1050.00 0.09575
1050.10 0.09569
1050.20 0.09564
1050.30 0.09559
1050.40 0.09553
1050.50 0.09548
1050.60 0.09543
1050.70 0.09538
1050.80 0.09532
1050.90 0.09527
1051.00 0.09522
1051.10 0.09516
1051.20 0.09511
1051.30 0.09506
1051.40 0.09501
1051.50 0.09495
1051.60 0.0949
1051.70 0.09485
1051.80 0.0948
1051.90 0.09474
1052.00 0.09469
1052.10 0.09464
1052.20 0.0946
1052.30 0.09455
1052.40 0.09451
1052.50 0.09446
1052.60 0.09441
1052.70 0.09437
1052.80 0.09432
1052.90 0.09427
1053.00 0.09423
1053.10 0.09418
1053.20 0.09414
1053.30 0.09409
1053.40 0.09404
1053.50 0.094
1053.60 0.09395
1053.70 0.09391
1053.80 0.09386
1053.90 0.09381
1054.00 0.09377
1054.10 0.09372
1054.20 0.09368
1054.30 0.09363
1054.40 0.09358
1054.50 0.09354
1054.60 0.09349
1054.70 0.09345
1054.80 0.0934
1054.90 0.09335
1055.00 0.09331
1055.10 0.09326
1055.20 0.09322
1055.30 0.09317
1055.40 0.09313
1055.50 0.09308
1055.60 0.09303
1055.70 0.09299
1055.80 0.09294
1055.90 0.0929
1056.00 0.09285
1056.10 0.09281
1056.20 0.09276
1056.30 0.09271
1056.40 0.09267
1056.50 0.09262
1056.60 0.09258
1056.70 0.09253
1056.80 0.09249
1056.90 0.09244
1057.00 0.0924
1057.10 0.09236
1057.20 0.09232
1057.30 0.09228
1057.40 0.09224
1057.50 0.0922
1057.60 0.09216
1057.70 0.09212
1057.80 0.09208
1057.90 0.09204
1058.00 0.092
1058.10 0.09196
1058.20 0.09192
1058.30 0.09188
1058.40 0.09184
1058.50 0.0918
1058.60 0.09176
1058.70 0.09172
1058.80 0.09168
1058.90 0.09164
1059.00 0.0916
1059.10 0.09157
1059.20 0.09153
1059.30 0.09149
1059.40 0.09145
1059.50 0.09141
1059.60 0.09137
1059.70 0.09133
1059.80 0.09129
1059.90 0.09125
1060.00 0.09121
1060.10 0.09117
1060.20 0.09113
1060.30 0.09109
1060.40 0.09105
1060.50 0.09101
1060.60 0.09098
1060.70 0.09094
1060.80 0.0909
1060.90 0.09086
1061.00 0.09082
1061.10 0.09078
1061.20 0.09074
1061.30 0.0907
1061.40 0.09066
1061.50 0.09062
1061.60 0.09058
1061.70 0.09055
1061.80 0.09051
1061.90 0.09047
1062.00 0.09043
1062.10 0.09039
1062.20 0.09036
1062.30 0.09033
1062.40 0.09029
1062.50 0.09026
1062.60 0.09023
1062.70 0.09019
1062.80 0.09016
1062.90 0.09013
1063.00 0.09009
1063.10 0.09006
1063.20 0.09003
1063.30 0.08999
1063.40 0.08996
1063.50 0.08993
1063.60 0.08989
1063.70 0.08986
1063.80 0.08983
1063.90 0.08979
1064.00 0.08976
1064.10 0.08973
1064.20 0.08969
1064.30 0.08966
1064.40 0.08963
1064.50 0.08959
1064.60 0.08956
1064.70 0.08953
1064.80 0.08949
1064.90 0.08946
1065.00 0.08943
1065.10 0.08939
1065.20 0.08936
1065.30 0.08933
1065.40 0.08929
1065.50 0.08926
1065.60 0.08923
1065.70 0.08919
1065.80 0.08916
1065.90 0.08913
1066.00 0.08909
1066.10 0.08906
1066.20 0.08903
1066.30 0.08899
1066.40 0.08896
1066.50 0.08893
1066.60 0.0889
1066.70 0.08886
1066.80 0.08883
1066.90 0.0888
1067.00 0.08876
1067.10 0.08874
1067.20 0.08871
1067.30 0.08868
1067.40 0.08865
1067.50 0.08862
1067.60 0.08859
1067.70 0.08857
1067.80 0.08854
1067.90 0.08851
1068.00 0.08848
1068.10 0.08845
1068.20 0.08843
1068.30 0.0884
1068.40 0.08837
1068.50 0.08834
1068.60 0.08831
1068.70 0.08829
1068.80 0.08826
1068.90 0.08823
1069.00 0.0882
1069.10 0.08817
1069.20 0.08815
1069.30 0.08812
1069.40 0.08809
1069.50 0.08806
1069.60 0.08803
1069.70 0.08801
1069.80 0.08798
1069.90 0.08795
1070.00 0.08792
1070.10 0.08789
1070.20 0.08787
1070.30 0.08784
1070.40 0.08781
1070.50 0.08778
1070.60 0.08775
1070.70 0.08773
1070.80 0.0877
1070.90 0.08767
1071.00 0.08764
1071.10 0.08761
1071.20 0.08759
1071.30 0.08756
1071.40 0.08753
1071.50 0.0875
1071.60 0.08748
1071.70 0.08745
1071.80 0.08742
1071.90 0.08739
1072.00 0.08736
1072.10 0.08734
1072.20 0.08732
1072.30 0.08729
1072.40 0.08727
1072.50 0.08725
1072.60 0.08722
1072.70 0.0872
1072.80 0.08718
1072.90 0.08716
1073.00 0.08713
1073.10 0.08711
1073.20 0.08709
1073.30 0.08706
1073.40 0.08704
1073.50 0.08702
1073.60 0.087
1073.70 0.08698
1073.80 0.08696
1073.90 0.08694
1074.00 0.08692
1074.10 0.0869
1074.20 0.08688
1074.30 0.08686
1074.40 0.08684
1074.50 0.08682
1074.60 0.0868
1074.70 0.08678
1074.80 0.08676
1074.90 0.08674
1075.00 0.08672
1075.10 0.0867
1075.20 0.08668
1075.30 0.08666
1075.40 0.08664
1075.50 0.08662
1075.60 0.0866
1075.70 0.08658
1075.80 0.08656
1075.90 0.08654
1076.00 0.08652
1076.10 0.0865
1076.20 0.08648
1076.30 0.08646
1076.40 0.08644
1076.50 0.08642
1076.60 0.0864
1076.70 0.08638
1076.80 0.08636
1076.90 0.08634
1077.00 0.08632
1077.10 0.0863
1077.20 0.08628
1077.30 0.08627
1077.40 0.08625
1077.50 0.08623
1077.60 0.08622
1077.70 0.0862
1077.80 0.08618
1077.90 0.08617
1078.00 0.08615
1078.10 0.08614
1078.20 0.08612
1078.30 0.0861
1078.40 0.08609
1078.50 0.08607
1078.60 0.08606
1078.70 0.08604
1078.80 0.08603
1078.90 0.08601
1079.00 0.08599
1079.10 0.08598
1079.20 0.08596
1079.30 0.08595
1079.40 0.08593
1079.50 0.08592
1079.60 0.0859
1079.70 0.08589
1079.80 0.08588
1079.90 0.08587
1080.00 0.08586
1080.10 0.08584
1080.20 0.08583
1080.30 0.08582
1080.40 0.08581
1080.50 0.0858
1080.60 0.08579
1080.70 0.08577
1080.80 0.08576
1080.90 0.08575
1081.00 0.08574
1081.10 0.08573
1081.20 0.08571
1081.30 0.0857
1081.40 0.08569
1081.50 0.08568
1081.60 0.08567
1081.70 0.08566
1081.80 0.08564
1081.90 0.08563
1082.00 0.08562
1082.10 0.08561
1082.20 0.0856
1082.30 0.08559
1082.40 0.08558
1082.50 0.08557
1082.60 0.08555
1082.70 0.08554
1082.80 0.08553
1082.90 0.08552
1083.00 0.08551
1083.10 0.0855
1083.20 0.08549
1083.30 0.08548
1083.40 0.08547
1083.50 0.08546
1083.60 0.08545
1083.70 0.08544
1083.80 0.08543
1083.90 0.08542
1084.00 0.08541
1084.10 0.0854
1084.20 0.08539
1084.30 0.08538
1084.40 0.08537
1084.50 0.08536
1084.60 0.08536
1084.70 0.08535
1084.80 0.08534
1084.90 0.08533
1085.00 0.08532
1085.10 0.08532
1085.20 0.08531
1085.30 0.0853
1085.40 0.08529
1085.50 0.08528
1085.60 0.08528
1085.70 0.08527
1085.80 0.08526
1085.90 0.08525
1086.00 0.08524
1086.10 0.08524
1086.20 0.08523
1086.30 0.08522
1086.40 0.08521
1086.50 0.08521
1086.60 0.0852
1086.70 0.08519
1086.80 0.08519
1086.90 0.08518
1087.00 0.08517
1087.10 0.08517
1087.20 0.08516
1087.30 0.08516
1087.40 0.08515
1087.50 0.08514
1087.60 0.08514
1087.70 0.08513
1087.80 0.08513
1087.90 0.08512
1088.00 0.08512
1088.10 0.08511
1088.20 0.08511
1088.30 0.0851
1088.40 0.08509
1088.50 0.08509
1088.60 0.08509
1088.70 0.08508
1088.80 0.08508
1088.90 0.08507
1089.00 0.08507
1089.10 0.08507
1089.20 0.08506
1089.30 0.08506
1089.40 0.08506
1089.50 0.08505
1089.60 0.08505
1089.70 0.08504
1089.80 0.08504
1089.90 0.08504
1090.00 0.08503
1090.10 0.08503
1090.20 0.08503
1090.30 0.08502
1090.40 0.08502
1090.50 0.08502
1090.60 0.08501
1090.70 0.08501
1090.80 0.08501
1090.90 0.08501
1091.00 0.08501
1091.10 0.085
1091.20 0.085
1091.30 0.085
1091.40 0.085
1091.50 0.085
1091.60 0.08499
1091.70 0.08499
1091.80 0.08499
1091.90 0.08499
1092.00 0.08499
1092.10 0.08498
1092.20 0.08498
1092.30 0.08498
1092.40 0.08498
1092.50 0.08498
1092.60 0.08498
1092.70 0.08498
1092.80 0.085
1092.90 0.08502
1093.00 0.08504
1093.10 0.08505
1093.20 0.08505
1093.30 0.08505
1093.40 0.08505
1093.50 0.08505
1093.60 0.08505
1093.70 0.08505
1093.80 0.08505
1093.90 0.08505
1094.00 0.08505
1094.10 0.08505
1094.20 0.08505
1094.30 0.08505
1094.40 0.08505
1094.50 0.08506
1094.60 0.08506
1094.70 0.08506
1094.80 0.08506
1094.90 0.08506
1095.00 0.08506
1095.10 0.08506
1095.20 0.08506
1095.30 0.08506
1095.40 0.08506
1095.50 0.08506
1095.60 0.08507
1095.70 0.08507
1095.80 0.08507
1095.90 0.08507
1096.00 0.08507
1096.10 0.08507
1096.20 0.08507
1096.30 0.08507
1096.40 0.08508
1096.50 0.08508
1096.60 0.08508
1096.70 0.08508
1096.80 0.08508
1096.90 0.08509
1097.00 0.08509
1097.10 0.08509
1097.20 0.08509
1097.30 0.0851
1097.40 0.0851
1097.50 0.0851
1097.60 0.08511
1097.70 0.08511
1097.80 0.08511
1097.90 0.08511
1098.00 0.08512
1098.10 0.08512
1098.20 0.08512
1098.30 0.08513
1098.40 0.08513
1098.50 0.08513
1098.60 0.08514
1098.70 0.08514
1098.80 0.08514
1098.90 0.08515
1099.00 0.08515
1099.10 0.08515
1099.20 0.08516
1099.30 0.08516
1099.40 0.08517
1099.50 0.08517
1099.60 0.08517
1099.70 0.08518
1099.80 0.08518
1099.90 0.08519
1100.00 0.08519
1100.10 0.08519
1100.20 0.0852
1100.30 0.0852
1100.40 0.0852
1100.50 0.08521
1100.60 0.08521
1100.70 0.08522
1100.80 0.08522
1100.90 0.08523
1101.00 0.08523
1101.10 0.08524
1101.20 0.08524
1101.30 0.08525
1101.40 0.08525
1101.50 0.08526
1101.60 0.08526
1101.70 0.08527
1101.80 0.08527
1101.90 0.08528
1102.00 0.08528
1102.10 0.08528
1102.20 0.08529
1102.30 0.08529
1102.40 0.0853
1102.50 0.0853
1102.60 0.08531
1102.70 0.08531
1102.80 0.08532
1102.90 0.08533
1103.00 0.08533
1103.10 0.08534
1103.20 0.08535
1103.30 0.08535
1103.40 0.08536
1103.50 0.08536
1103.60 0.08537
1103.70 0.08538
1103.80 0.08539
1103.90 0.08539
1104.00 0.0854
1104.10 0.08541
1104.20 0.08542
1104.30 0.08542
1104.40 0.08543
1104.50 0.08544
1104.60 0.08545
1104.70 0.08545
1104.80 0.08546
1104.90 0.08547
1105.00 0.08548
1105.10 0.08548
1105.20 0.08549
1105.30 0.0855
1105.40 0.08551
1105.50 0.08551
1105.60 0.08552
1105.70 0.08553
1105.80 0.08554
1105.90 0.08555
1106.00 0.08555
1106.10 0.08556
1106.20 0.08557
1106.30 0.08558
1106.40 0.08558
1106.50 0.08559
1106.60 0.0856
1106.70 0.08561
1106.80 0.08562
1106.90 0.08562
1107.00 0.08563
1107.10 0.08564
1107.20 0.08565
1107.30 0.08565
1107.40 0.08566
1107.50 0.08567
1107.60 0.08568
1107.70 0.08569
1107.80 0.0857
1107.90 0.0857
1108.00 0.08571
1108.10 0.08572
1108.20 0.08573
1108.30 0.08574
1108.40 0.08575
1108.50 0.08575
1108.60 0.08576
1108.70 0.08577
1108.80 0.08578
1108.90 0.08579
1109.00 0.0858
1109.10 0.08581
1109.20 0.08581
1109.30 0.08582
1109.40 0.08583
1109.50 0.08584
1109.60 0.08585
1109.70 0.08586
1109.80 0.08587
1109.90 0.08588
1110.00 0.08589
1110.10 0.0859
1110.20 0.08591
1110.30 0.08592
1110.40 0.08593
1110.50 0.08594
1110.60 0.08595
1110.70 0.08596
1110.80 0.08597
1110.90 0.08598
1111.00 0.08599
1111.10 0.086
1111.20 0.08601
1111.30 0.08602
1111.40 0.08603
1111.50 0.08604
1111.60 0.08605
1111.70 0.08606
1111.80 0.08607
1111.90 0.08608
1112.00 0.08609
1112.10 0.0861
1112.20 0.08611
1112.30 0.08612
1112.40 0.08613
1112.50 0.08614
1112.60 0.08615
1112.70 0.08616
1112.80 0.08617
1112.90 0.08619
1113.00 0.0862
1113.10 0.08621
1113.20 0.08622
1113.30 0.08623
1113.40 0.08624
1113.50 0.08625
1113.60 0.08626
1113.70 0.08627
1113.80 0.08629
1113.90 0.0863
1114.00 0.08631
1114.10 0.08632
1114.20 0.08634
1114.30 0.08635
1114.40 0.08636
1114.50 0.08637
1114.60 0.08638
1114.70 0.0864
1114.80 0.08641
1114.90 0.08642
1115.00 0.08643
1115.10 0.08644
1115.20 0.08646
1115.30 0.08647
1115.40 0.08648
1115.50 0.08649
1115.60 0.0865
1115.70 0.08652
1115.80 0.08653
1115.90 0.08654
1116.00 0.08655
1116.10 0.08656
1116.20 0.08658
1116.30 0.08659
1116.40 0.0866
1116.50 0.08661
1116.60 0.08662
1116.70 0.08664
1116.80 0.08665
1116.90 0.08666
1117.00 0.08667
1117.10 0.08669
1117.20 0.0867
1117.30 0.08671
1117.40 0.08673
1117.50 0.08674
1117.60 0.08676
1117.70 0.08677
1117.80 0.08678
1117.90 0.0868
1118.00 0.08681
1118.10 0.08683
1118.20 0.08684
1118.30 0.08685
1118.40 0.08687
1118.50 0.08688
1118.60 0.0869
1118.70 0.08691
1118.80 0.08693
1118.90 0.08694
1119.00 0.08695
1119.10 0.08697
1119.20 0.08698
1119.30 0.087
1119.40 0.08701
1119.50 0.08702
1119.60 0.08704
1119.70 0.08705
1119.80 0.08707
1119.90 0.08708
1120.00 0.08709
1120.10 0.08711
1120.20 0.08712
1120.30 0.08713
1120.40 0.08715
1120.50 0.08716
1120.60 0.08718
1120.70 0.08719
1120.80 0.0872
1120.90 0.08722
1121.00 0.08723
1121.10 0.08725
1121.20 0.08726
1121.30 0.08727
1121.40 0.08729
1121.50 0.0873
1121.60 0.08732
1121.70 0.08733
1121.80 0.08734
1121.90 0.08736
1122.00 0.08737
1122.10 0.08739
1122.20 0.0874
1122.30 0.08742
1122.40 0.08744
1122.50 0.08745
1122.60 0.08747
1122.70 0.08749
1122.80 0.0875
1122.90 0.08752
1123.00 0.08753
1123.10 0.08755
1123.20 0.08757
1123.30 0.08758
1123.40 0.0876
1123.50 0.08762
1123.60 0.08763
1123.70 0.08765
1123.80 0.08766
1123.90 0.08768
1124.00 0.0877
1124.10 0.08771
1124.20 0.08773
1124.30 0.08775
1124.40 0.08776
1124.50 0.08778
1124.60 0.08779
1124.70 0.08781
1124.80 0.08783
1124.90 0.08784
1125.00 0.08786
1125.10 0.08788
1125.20 0.08789
1125.30 0.08791
1125.40 0.08792
1125.50 0.08794
1125.60 0.08796
1125.70 0.08797
1125.80 0.08799
1125.90 0.088
1126.00 0.08802
1126.10 0.08804
1126.20 0.08805
1126.30 0.08807
1126.40 0.08809
1126.50 0.0881
1126.60 0.08812
1126.70 0.08813
1126.80 0.08815
1126.90 0.08817
1127.00 0.08818
1127.10 0.0882
1127.20 0.08822
1127.30 0.08824
1127.40 0.08826
1127.50 0.08828
1127.60 0.0883
1127.70 0.08832
1127.80 0.08834
1127.90 0.08836
1128.00 0.08838
1128.10 0.0884
1128.20 0.08842
1128.30 0.08844
1128.40 0.08846
1128.50 0.08848
1128.60 0.0885
1128.70 0.08852
1128.80 0.08854
1128.90 0.08856
1129.00 0.08858
1129.10 0.0886
1129.20 0.08862
1129.30 0.08864
1129.40 0.08866
1129.50 0.08868
1129.60 0.0887
1129.70 0.08872
1129.80 0.08874
1129.90 0.08876
1130.00 0.08878
1130.10 0.0888
1130.20 0.08882
1130.30 0.08884
1130.40 0.08886
1130.50 0.08888
1130.60 0.0889
1130.70 0.08892
1130.80 0.08894
1130.90 0.08896
1131.00 0.08898
1131.10 0.089
1131.20 0.08902
1131.30 0.08904
1131.40 0.08906
1131.50 0.08908
1131.60 0.0891
1131.70 0.08912
1131.80 0.08914
1131.90 0.08916
1132.00 0.08918
1132.10 0.0892
1132.20 0.08922
1132.30 0.08924
1132.40 0.08926
1132.50 0.08928
1132.60 0.08929
1132.70 0.08931
1132.80 0.08933
1132.90 0.08935
1133.00 0.08937
1133.10 0.08939
1133.20 0.08941
1133.30 0.08943
1133.40 0.08944
1133.50 0.08946
1133.60 0.08948
1133.70 0.0895
1133.80 0.08952
1133.90 0.08954
1134.00 0.08956
1134.10 0.08958
1134.20 0.08959
1134.30 0.08961
1134.40 0.08963
1134.50 0.08965
1134.60 0.08967
1134.70 0.08969
1134.80 0.08971
1134.90 0.08972
1135.00 0.08974
1135.10 0.08976
1135.20 0.08978
1135.30 0.0898
1135.40 0.08982
1135.50 0.08984
1135.60 0.08985
1135.70 0.08987
1135.80 0.08989
1135.90 0.08991
1136.00 0.08993
1136.10 0.08995
1136.20 0.08997
1136.30 0.08998
1136.40 0.09
1136.50 0.09002
1136.60 0.09004
1136.70 0.09006
1136.80 0.09008
1136.90 0.0901
1137.00 0.09011
1137.10 0.09013
1137.20 0.09015
1137.30 0.09017
1137.40 0.09019
1137.50 0.09021
1137.60 0.09023
1137.70 0.09025
1137.80 0.09027
1137.90 0.09028
1138.00 0.0903
1138.10 0.09032
1138.20 0.09034
1138.30 0.09036
1138.40 0.09038
1138.50 0.0904
1138.60 0.09042
1138.70 0.09044
1138.80 0.09046
1138.90 0.09047
1139.00 0.09049
1139.10 0.09051
1139.20 0.09053
1139.30 0.09055
1139.40 0.09057
1139.50 0.09059
1139.60 0.09061
1139.70 0.09063
1139.80 0.09064
1139.90 0.09066
1140.00 0.09068
1140.10 0.0907
1140.20 0.09072
1140.30 0.09074
1140.40 0.09076
1140.50 0.09078
1140.60 0.09079
1140.70 0.09081
1140.80 0.09083
1140.90 0.09085
1141.00 0.09087
1141.10 0.09089
1141.20 0.09091
1141.30 0.09093
1141.40 0.09094
1141.50 0.09096
1141.60 0.09098
1141.70 0.091
1141.80 0.09102
1141.90 0.09104
1142.00 0.09106
1142.10 0.09108
1142.20 0.0911
1142.30 0.09112
1142.40 0.09114
1142.50 0.09116
1142.60 0.09118
1142.70 0.0912
1142.80 0.09122
1142.90 0.09124
1143.00 0.09126
1143.10 0.09128
1143.20 0.0913
1143.30 0.09132
1143.40 0.09134
1143.50 0.09136
1143.60 0.09138
1143.70 0.0914
1143.80 0.09142
1143.90 0.09144
1144.00 0.09146
1144.10 0.09148
1144.20 0.0915
1144.30 0.09152
1144.40 0.09154
1144.50 0.09156
1144.60 0.09158
1144.70 0.0916
1144.80 0.09162
1144.90 0.09164
1145.00 0.09166
1145.10 0.09168
1145.20 0.0917
1145.30 0.09172
1145.40 0.09174
1145.50 0.09176
1145.60 0.09178
1145.70 0.0918
1145.80 0.09182
1145.90 0.09184
1146.00 0.09186
1146.10 0.09188
1146.20 0.0919
1146.30 0.09192
1146.40 0.09194
1146.50 0.09196
1146.60 0.09198
1146.70 0.092
1146.80 0.09202
1146.90 0.09204
1147.00 0.09206
1147.10 0.09207
1147.20 0.09209
1147.30 0.0921
1147.40 0.09212
1147.50 0.09214
1147.60 0.09215
1147.70 0.09217
1147.80 0.09218
1147.90 0.0922
1148.00 0.09221
1148.10 0.09223
1148.20 0.09225
1148.30 0.09226
1148.40 0.09228
1148.50 0.09229
1148.60 0.09231
1148.70 0.09232
1148.80 0.09234
1148.90 0.09236
1149.00 0.09237
1149.10 0.09239
1149.20 0.0924
1149.30 0.09242
1149.40 0.09243
1149.50 0.09245
1149.60 0.09247
1149.70 0.09248
1149.80 0.0925
1149.90 0.09251
1150.00 0.09253
1150.10 0.09254
1150.20 0.09256
1150.30 0.09257
1150.40 0.09259
1150.50 0.09261
1150.60 0.09262
1150.70 0.09264
1150.80 0.09265
1150.90 0.09267
1151.00 0.09268
1151.10 0.0927
1151.20 0.09271
1151.30 0.09273
1151.40 0.09275
1151.50 0.09276
1151.60 0.09278
1151.70 0.09279
1151.80 0.09281
1151.90 0.09282
1152.00 0.09284
1152.10 0.09285
1152.20 0.09287
1152.30 0.09288
1152.40 0.0929
1152.50 0.09291
1152.60 0.09293
1152.70 0.09294
1152.80 0.09296
1152.90 0.09297
1153.00 0.09299
1153.10 0.093
1153.20 0.09302
1153.30 0.09303
1153.40 0.09305
1153.50 0.09306
1153.60 0.09308
1153.70 0.09309
1153.80 0.09311
1153.90 0.09312
1154.00 0.09314
1154.10 0.09315
1154.20 0.09317
1154.30 0.09318
1154.40 0.0932
1154.50 0.09321
1154.60 0.09323
1154.70 0.09324
1154.80 0.09326
1154.90 0.09327
1155.00 0.09328
1155.10 0.0933
1155.20 0.09331
1155.30 0.09333
1155.40 0.09334
1155.50 0.09336
1155.60 0.09337
1155.70 0.09339
1155.80 0.0934
1155.90 0.09342
1156.00 0.09343
1156.10 0.09345
1156.20 0.09346
1156.30 0.09348
1156.40 0.09349
1156.50 0.09351
1156.60 0.09352
1156.70 0.09354
1156.80 0.09355
1156.90 0.09356
1157.00 0.09358
1157.10 0.09359
1157.20 0.0936
1157.30 0.09361
1157.40 0.09362
1157.50 0.09363
1157.60 0.09364
1157.70 0.09365
1157.80 0.09366
1157.90 0.09367
1158.00 0.09368
1158.10 0.09369
1158.20 0.0937
1158.30 0.09371
1158.40 0.09372
1158.50 0.09373
1158.60 0.09374
1158.70 0.09375
1158.80 0.09376
1158.90 0.09377
1159.00 0.09378
1159.10 0.09379
1159.20 0.0938
1159.30 0.09381
1159.40 0.09382
1159.50 0.09383
1159.60 0.09384
1159.70 0.09385
1159.80 0.09386
1159.90 0.09387
1160.00 0.09388
1160.10 0.09389
1160.20 0.0939
1160.30 0.09391
1160.40 0.09392
1160.50 0.09393
1160.60 0.09394
1160.70 0.09395
1160.80 0.09396
1160.90 0.09397
1161.00 0.09398
1161.10 0.09399
1161.20 0.094
1161.30 0.09401
1161.40 0.09402
1161.50 0.09403
1161.60 0.09404
1161.70 0.09405
1161.80 0.09406
1161.90 0.09407
1162.00 0.09408
1162.10 0.09408
1162.20 0.09409
1162.30 0.0941
1162.40 0.0941
1162.50 0.09411
1162.60 0.09411
1162.70 0.09412
1162.80 0.09413
1162.90 0.09413
1163.00 0.09414
1163.10 0.09414
1163.20 0.09415
1163.30 0.09415
1163.40 0.09416
1163.50 0.09417
1163.60 0.09417
1163.70 0.09418
1163.80 0.09418
1163.90 0.09419
1164.00 0.0942
1164.10 0.0942
1164.20 0.09421
1164.30 0.09421
1164.40 0.09422
1164.50 0.09423
1164.60 0.09423
1164.70 0.09424
1164.80 0.09424
1164.90 0.09425
1165.00 0.09425
1165.10 0.09426
1165.20 0.09427
1165.30 0.09427
1165.40 0.09428
1165.50 0.09428
1165.60 0.09429
1165.70 0.0943
1165.80 0.0943
1165.90 0.09431
1166.00 0.09431
1166.10 0.09432
1166.20 0.09432
1166.30 0.09433
1166.40 0.09434
1166.50 0.09434
1166.60 0.09435
1166.70 0.09435
1166.80 0.09436
1166.90 0.09437
1167.00 0.09437
1167.10 0.09437
1167.20 0.09438
1167.30 0.09438
1167.40 0.09438
1167.50 0.09439
1167.60 0.09439
1167.70 0.09439
1167.80 0.0944
1167.90 0.0944
1168.00 0.0944
1168.10 0.09441
1168.20 0.09441
1168.30 0.09441
1168.40 0.09442
1168.50 0.09442
1168.60 0.09442
1168.70 0.09443
1168.80 0.09443
1168.90 0.09443
1169.00 0.09444
1169.10 0.09444
1169.20 0.09444
1169.30 0.09445
1169.40 0.09445
1169.50 0.09445
1169.60 0.09446
1169.70 0.09446
1169.80 0.09446
1169.90 0.09447
1170.00 0.09447
1170.10 0.09447
1170.20 0.09448
1170.30 0.09448
1170.40 0.09448
1170.50 0.09449
1170.60 0.09449
1170.70 0.09449
1170.80 0.0945
1170.90 0.0945
1171.00 0.0945
1171.10 0.09451
1171.20 0.09451
1171.30 0.09451
1171.40 0.09452
1171.50 0.09452
1171.60 0.09452
1171.70 0.09453
1171.80 0.09453
1171.90 0.09453
1172.00 0.09454
1172.10 0.09453
1172.20 0.09453
1172.30 0.09453
1172.40 0.09453
1172.50 0.09452
1172.60 0.09452
1172.70 0.09452
1172.80 0.09451
1172.90 0.09451
1173.00 0.09451
1173.10 0.0945
1173.20 0.0945
1173.30 0.0945
1173.40 0.0945
1173.50 0.09449
1173.60 0.09449
1173.70 0.09449
1173.80 0.09448
1173.90 0.09448
1174.00 0.09448
1174.10 0.09447
1174.20 0.09447
1174.30 0.09447
1174.40 0.09447
1174.50 0.09446
1174.60 0.09446
1174.70 0.09446
1174.80 0.09445
1174.90 0.09445
1175.00 0.09445
1175.10 0.09445
1175.20 0.09444
1175.30 0.09444
1175.40 0.09444
1175.50 0.09443
1175.60 0.09443
1175.70 0.09443
1175.80 0.09442
1175.90 0.09442
1176.00 0.09442
1176.10 0.09442
1176.20 0.09441
1176.30 0.09441
1176.40 0.09441
1176.50 0.0944
1176.60 0.0944
1176.70 0.0944
1176.80 0.09439
1176.90 0.09439
1177.00 0.09439
1177.10 0.09438
1177.20 0.09437
1177.30 0.09437
1177.40 0.09436
1177.50 0.09435
1177.60 0.09434
1177.70 0.09433
1177.80 0.09433
1177.90 0.09432
1178.00 0.09431
1178.10 0.0943
1178.20 0.09429
1178.30 0.09429
1178.40 0.09428
1178.50 0.09427
1178.60 0.09426
1178.70 0.09426
1178.80 0.09425
1178.90 0.09424
1179.00 0.09423
1179.10 0.09422
1179.20 0.09422
1179.30 0.09421
1179.40 0.0942
1179.50 0.09419
1179.60 0.09419
1179.70 0.09418
1179.80 0.09417
1179.90 0.09416
1180.00 0.09415
1180.10 0.09415
1180.20 0.09414
1180.30 0.09413
1180.40 0.09412
1180.50 0.09412
1180.60 0.09411
1180.70 0.0941
1180.80 0.09409
1180.90 0.09408
1181.00 0.09408
1181.10 0.09407
1181.20 0.09406
1181.30 0.09405
1181.40 0.09405
1181.50 0.09404
1181.60 0.09403
1181.70 0.09402
1181.80 0.09401
1181.90 0.09401
1182.00 0.094
1182.10 0.09398
1182.20 0.09397
1182.30 0.09396
1182.40 0.09394
1182.50 0.09393
1182.60 0.09391
1182.70 0.0939
1182.80 0.09388
1182.90 0.09387
1183.00 0.09385
1183.10 0.09384
1183.20 0.09382
1183.30 0.09381
1183.40 0.0938
1183.50 0.09378
1183.60 0.09377
1183.70 0.09375
1183.80 0.09374
1183.90 0.09372
1184.00 0.09371
1184.10 0.09369
1184.20 0.09368
1184.30 0.09366
1184.40 0.09365
1184.50 0.09364
1184.60 0.09362
1184.70 0.09361
1184.80 0.09359
1184.90 0.09358
1185.00 0.09356
1185.10 0.09355
1185.20 0.09353
1185.30 0.09352
1185.40 0.09351
1185.50 0.09349
1185.60 0.09348
1185.70 0.09346
1185.80 0.09345
1185.90 0.09343
1186.00 0.09342
1186.10 0.0934
1186.20 0.09339
1186.30 0.09337
1186.40 0.09336
1186.50 0.09335
1186.60 0.09333
1186.70 0.09332
1186.80 0.0933
1186.90 0.09329
1187.00 0.09327
1187.10 0.09326
1187.20 0.09325
1187.30 0.09323
1187.40 0.09322
1187.50 0.09321
1187.60 0.09319
1187.70 0.09318
1187.80 0.09316
1187.90 0.09315
1188.00 0.09314
1188.10 0.09312
1188.20 0.09311
1188.30 0.0931
1188.40 0.09308
1188.50 0.09307
1188.60 0.09306
1188.70 0.09304
1188.80 0.09303
1188.90 0.09301
1189.00 0.093
1189.10 0.09299
1189.20 0.09297
1189.30 0.09296
1189.40 0.09295
1189.50 0.09293
1189.60 0.09292
1189.70 0.09291
1189.80 0.09289
1189.90 0.09288
1190.00 0.09286
1190.10 0.09285
1190.20 0.09284
1190.30 0.09282
1190.40 0.09281
1190.50 0.0928
1190.60 0.09278
1190.70 0.09277
1190.80 0.09276
1190.90 0.09274
1191.00 0.09273
1191.10 0.09272
1191.20 0.0927
1191.30 0.09269
1191.40 0.09267
1191.50 0.09266
1191.60 0.09265
1191.70 0.09263
1191.80 0.09262
1191.90 0.09261
1192.00 0.09259
1192.10 0.09258
1192.20 0.09256
1192.30 0.09255
1192.40 0.09253
1192.50 0.09252
1192.60 0.0925
1192.70 0.09249
1192.80 0.09247
1192.90 0.09245
1193.00 0.09244
1193.10 0.09242
1193.20 0.09241
1193.30 0.09239
1193.40 0.09238
1193.50 0.09236
1193.60 0.09235
1193.70 0.09233
1193.80 0.09232
1193.90 0.0923
1194.00 0.09229
1194.10 0.09227
1194.20 0.09226
1194.30 0.09224
1194.40 0.09222
1194.50 0.09221
1194.60 0.09219
1194.70 0.09218
1194.80 0.09216
1194.90 0.09215
1195.00 0.09213
1195.10 0.09212
1195.20 0.0921
1195.30 0.09209
1195.40 0.09207
1195.50 0.09206
1195.60 0.09204
1195.70 0.09203
1195.80 0.09201
1195.90 0.092
1196.00 0.09198
1196.10 0.09197
1196.20 0.09195
1196.30 0.09193
1196.40 0.09192
1196.50 0.0919
1196.60 0.09189
1196.70 0.09187
1196.80 0.09186
1196.90 0.09184
1197.00 0.09183
1197.10 0.09181
1197.20 0.09179
1197.30 0.09177
1197.40 0.09175
1197.50 0.09173
1197.60 0.09171
1197.70 0.09169
1197.80 0.09167
1197.90 0.09165
1198.00 0.09163
1198.10 0.09161
1198.20 0.09159
1198.30 0.09157
1198.40 0.09155
1198.50 0.09153
1198.60 0.09151
1198.70 0.09149
1198.80 0.09147
1198.90 0.09145
1199.00 0.09143
1199.10 0.09142
1199.20 0.0914
1199.30 0.09138
1199.40 0.09136
1199.50 0.09134
1199.60 0.09132
1199.70 0.0913
1199.80 0.09128
1199.90 0.09126
1200.00 0
