# Version 2.1 - nm, norm@500 to 1, cut digits, bergeron_3250_65.dat_3250
# Wavelength(nm)  Flambda(ergs/cm^s/s/nm)
300.00 0.0728
300.10 0.07301
300.20 0.07321
300.30 0.07342
300.40 0.07363
300.50 0.07384
300.60 0.07405
300.70 0.07426
300.80 0.07446
300.90 0.07467
301.00 0.07488
301.10 0.07509
301.20 0.07529
301.30 0.0755
301.40 0.0757
301.50 0.07591
301.60 0.07612
301.70 0.07632
301.80 0.07653
301.90 0.07673
302.00 0.07694
302.10 0.07715
302.20 0.07737
302.30 0.07758
302.40 0.0778
302.50 0.07802
302.60 0.07823
302.70 0.07845
302.80 0.07866
302.90 0.07888
303.00 0.07909
303.10 0.07931
303.20 0.07952
303.30 0.07973
303.40 0.07995
303.50 0.08016
303.60 0.08037
303.70 0.08058
303.80 0.0808
303.90 0.08101
304.00 0.08123
304.10 0.08145
304.20 0.08167
304.30 0.08189
304.40 0.08212
304.50 0.08234
304.60 0.08257
304.70 0.08279
304.80 0.08301
304.90 0.08323
305.00 0.08346
305.10 0.08368
305.20 0.0839
305.30 0.08412
305.40 0.08434
305.50 0.08456
305.60 0.08478
305.70 0.085
305.80 0.08522
305.90 0.08544
306.00 0.08567
306.10 0.0859
306.20 0.08613
306.30 0.08636
306.40 0.08659
306.50 0.08682
306.60 0.08705
306.70 0.08728
306.80 0.08751
306.90 0.08774
307.00 0.08797
307.10 0.0882
307.20 0.08843
307.30 0.08866
307.40 0.08889
307.50 0.08911
307.60 0.08934
307.70 0.08957
307.80 0.0898
307.90 0.09002
308.00 0.09026
308.10 0.09049
308.20 0.09073
308.30 0.09097
308.40 0.09121
308.50 0.09145
308.60 0.09168
308.70 0.09192
308.80 0.09216
308.90 0.0924
309.00 0.09263
309.10 0.09287
309.20 0.09311
309.30 0.09334
309.40 0.09358
309.50 0.09382
309.60 0.09405
309.70 0.09429
309.80 0.09452
309.90 0.09476
310.00 0.095
310.10 0.09524
310.20 0.09548
310.30 0.09573
310.40 0.09598
310.50 0.09623
310.60 0.09647
310.70 0.09672
310.80 0.09696
310.90 0.09721
311.00 0.09745
311.10 0.0977
311.20 0.09794
311.30 0.09819
311.40 0.09843
311.50 0.09868
311.60 0.09892
311.70 0.09916
311.80 0.0994
311.90 0.09965
312.00 0.09989
312.10 0.1001
312.20 0.1004
312.30 0.1006
312.40 0.1009
312.50 0.1011
312.60 0.1014
312.70 0.1016
312.80 0.1019
312.90 0.1022
313.00 0.1024
313.10 0.1027
313.20 0.1029
313.30 0.1032
313.40 0.1034
313.50 0.1037
313.60 0.1039
313.70 0.1042
313.80 0.1044
313.90 0.1047
314.00 0.1049
314.10 0.1052
314.20 0.1054
314.30 0.1057
314.40 0.106
314.50 0.1062
314.60 0.1065
314.70 0.1067
314.80 0.107
314.90 0.1073
315.00 0.1075
315.10 0.1078
315.20 0.108
315.30 0.1083
315.40 0.1086
315.50 0.1088
315.60 0.1091
315.70 0.1093
315.80 0.1096
315.90 0.1099
316.00 0.1101
316.10 0.1104
316.20 0.1106
316.30 0.1109
316.40 0.1112
316.50 0.1115
316.60 0.1117
316.70 0.112
316.80 0.1123
316.90 0.1125
317.00 0.1128
317.10 0.1131
317.20 0.1133
317.30 0.1136
317.40 0.1139
317.50 0.1141
317.60 0.1144
317.70 0.1147
317.80 0.1149
317.90 0.1152
318.00 0.1155
318.10 0.1157
318.20 0.116
318.30 0.1163
318.40 0.1166
318.50 0.1168
318.60 0.1171
318.70 0.1174
318.80 0.1177
318.90 0.1179
319.00 0.1182
319.10 0.1185
319.20 0.1188
319.30 0.119
319.40 0.1193
319.50 0.1196
319.60 0.1199
319.70 0.1201
319.80 0.1204
319.90 0.1207
320.00 0.121
320.10 0.1212
320.20 0.1215
320.30 0.1218
320.40 0.1221
320.50 0.1224
320.60 0.1227
320.70 0.1229
320.80 0.1232
320.90 0.1235
321.00 0.1238
321.10 0.1241
321.20 0.1244
321.30 0.1246
321.40 0.1249
321.50 0.1252
321.60 0.1255
321.70 0.1258
321.80 0.126
321.90 0.1263
322.00 0.1266
322.10 0.1269
322.20 0.1272
322.30 0.1275
322.40 0.1278
322.50 0.1281
322.60 0.1284
322.70 0.1286
322.80 0.1289
322.90 0.1292
323.00 0.1295
323.10 0.1298
323.20 0.1301
323.30 0.1304
323.40 0.1307
323.50 0.131
323.60 0.1312
323.70 0.1315
323.80 0.1318
323.90 0.1321
324.00 0.1324
324.10 0.1327
324.20 0.133
324.30 0.1333
324.40 0.1336
324.50 0.1339
324.60 0.1342
324.70 0.1345
324.80 0.1348
324.90 0.1351
325.00 0.1354
325.10 0.1357
325.20 0.136
325.30 0.1363
325.40 0.1366
325.50 0.1369
325.60 0.1372
325.70 0.1375
325.80 0.1378
325.90 0.1381
326.00 0.1384
326.10 0.1387
326.20 0.139
326.30 0.1393
326.40 0.1396
326.50 0.1399
326.60 0.1402
326.70 0.1405
326.80 0.1408
326.90 0.1411
327.00 0.1414
327.10 0.1417
327.20 0.142
327.30 0.1423
327.40 0.1426
327.50 0.1429
327.60 0.1432
327.70 0.1435
327.80 0.1438
327.90 0.1441
328.00 0.1445
328.10 0.1448
328.20 0.1451
328.30 0.1454
328.40 0.1457
328.50 0.146
328.60 0.1463
328.70 0.1466
328.80 0.147
328.90 0.1473
329.00 0.1476
329.10 0.1479
329.20 0.1482
329.30 0.1485
329.40 0.1488
329.50 0.1491
329.60 0.1495
329.70 0.1498
329.80 0.1501
329.90 0.1504
330.00 0.1507
330.10 0.151
330.20 0.1513
330.30 0.1517
330.40 0.152
330.50 0.1523
330.60 0.1526
330.70 0.153
330.80 0.1533
330.90 0.1536
331.00 0.1539
331.10 0.1542
331.20 0.1546
331.30 0.1549
331.40 0.1552
331.50 0.1555
331.60 0.1558
331.70 0.1561
331.80 0.1565
331.90 0.1568
332.00 0.1571
332.10 0.1574
332.20 0.1578
332.30 0.1581
332.40 0.1584
332.50 0.1588
332.60 0.1591
332.70 0.1594
332.80 0.1597
332.90 0.1601
333.00 0.1604
333.10 0.1607
333.20 0.161
333.30 0.1614
333.40 0.1617
333.50 0.162
333.60 0.1624
333.70 0.1627
333.80 0.163
333.90 0.1633
334.00 0.1636
334.10 0.164
334.20 0.1643
334.30 0.1647
334.40 0.165
334.50 0.1653
334.60 0.1657
334.70 0.166
334.80 0.1663
334.90 0.1667
335.00 0.167
335.10 0.1674
335.20 0.1677
335.30 0.168
335.40 0.1684
335.50 0.1687
335.60 0.169
335.70 0.1693
335.80 0.1697
335.90 0.17
336.00 0.1703
336.10 0.1707
336.20 0.171
336.30 0.1714
336.40 0.1717
336.50 0.1721
336.60 0.1724
336.70 0.1728
336.80 0.1731
336.90 0.1734
337.00 0.1738
337.10 0.1741
337.20 0.1745
337.30 0.1748
337.40 0.1752
337.50 0.1755
337.60 0.1758
337.70 0.1762
337.80 0.1765
337.90 0.1768
338.00 0.1772
338.10 0.1775
338.20 0.1779
338.30 0.1782
338.40 0.1786
338.50 0.1789
338.60 0.1793
338.70 0.1797
338.80 0.18
338.90 0.1804
339.00 0.1807
339.10 0.1811
339.20 0.1814
339.30 0.1817
339.40 0.1821
339.50 0.1824
339.60 0.1828
339.70 0.1831
339.80 0.1835
339.90 0.1838
340.00 0.1842
340.10 0.1845
340.20 0.1849
340.30 0.1853
340.40 0.1856
340.50 0.186
340.60 0.1863
340.70 0.1867
340.80 0.187
340.90 0.1874
341.00 0.1878
341.10 0.1881
341.20 0.1885
341.30 0.1888
341.40 0.1892
341.50 0.1895
341.60 0.1899
341.70 0.1902
341.80 0.1906
341.90 0.191
342.00 0.1913
342.10 0.1917
342.20 0.192
342.30 0.1924
342.40 0.1928
342.50 0.1931
342.60 0.1935
342.70 0.1939
342.80 0.1942
342.90 0.1946
343.00 0.195
343.10 0.1953
343.20 0.1957
343.30 0.1961
343.40 0.1964
343.50 0.1968
343.60 0.1971
343.70 0.1975
343.80 0.1979
343.90 0.1982
344.00 0.1986
344.10 0.199
344.20 0.1993
344.30 0.1997
344.40 0.2001
344.50 0.2005
344.60 0.2008
344.70 0.2012
344.80 0.2016
344.90 0.2019
345.00 0.2023
345.10 0.2027
345.20 0.2031
345.30 0.2034
345.40 0.2038
345.50 0.2042
345.60 0.2045
345.70 0.2049
345.80 0.2053
345.90 0.2056
346.00 0.206
346.10 0.2064
346.20 0.2068
346.30 0.2071
346.40 0.2075
346.50 0.2079
346.60 0.2083
346.70 0.2087
346.80 0.209
346.90 0.2094
347.00 0.2098
347.10 0.2102
347.20 0.2106
347.30 0.2109
347.40 0.2113
347.50 0.2117
347.60 0.2121
347.70 0.2124
347.80 0.2128
347.90 0.2132
348.00 0.2136
348.10 0.2139
348.20 0.2143
348.30 0.2147
348.40 0.2151
348.50 0.2155
348.60 0.2159
348.70 0.2163
348.80 0.2167
348.90 0.217
349.00 0.2174
349.10 0.2178
349.20 0.2182
349.30 0.2186
349.40 0.219
349.50 0.2193
349.60 0.2197
349.70 0.2201
349.80 0.2205
349.90 0.2209
350.00 0.2212
350.10 0.2216
350.20 0.222
350.30 0.2224
350.40 0.2228
350.50 0.2232
350.60 0.2236
350.70 0.224
350.80 0.2244
350.90 0.2248
351.00 0.2252
351.10 0.2256
351.20 0.226
351.30 0.2264
351.40 0.2267
351.50 0.2271
351.60 0.2275
351.70 0.2279
351.80 0.2283
351.90 0.2287
352.00 0.2291
352.10 0.2295
352.20 0.2299
352.30 0.2303
352.40 0.2307
352.50 0.2311
352.60 0.2315
352.70 0.2319
352.80 0.2323
352.90 0.2327
353.00 0.2331
353.10 0.2335
353.20 0.2339
353.30 0.2343
353.40 0.2347
353.50 0.2351
353.60 0.2355
353.70 0.2359
353.80 0.2362
353.90 0.2366
354.00 0.237
354.10 0.2374
354.20 0.2379
354.30 0.2383
354.40 0.2387
354.50 0.2391
354.60 0.2395
354.70 0.2399
354.80 0.2403
354.90 0.2407
355.00 0.2411
355.10 0.2415
355.20 0.2419
355.30 0.2423
355.40 0.2427
355.50 0.2431
355.60 0.2435
355.70 0.2439
355.80 0.2443
355.90 0.2447
356.00 0.2451
356.10 0.2455
356.20 0.246
356.30 0.2464
356.40 0.2468
356.50 0.2472
356.60 0.2476
356.70 0.248
356.80 0.2484
356.90 0.2489
357.00 0.2493
357.10 0.2497
357.20 0.2501
357.30 0.2505
357.40 0.2509
357.50 0.2513
357.60 0.2517
357.70 0.2521
357.80 0.2525
357.90 0.2529
358.00 0.2534
358.10 0.2538
358.20 0.2542
358.30 0.2546
358.40 0.255
358.50 0.2555
358.60 0.2559
358.70 0.2563
358.80 0.2567
358.90 0.2571
359.00 0.2576
359.10 0.258
359.20 0.2584
359.30 0.2588
359.40 0.2592
359.50 0.2596
359.60 0.26
359.70 0.2605
359.80 0.2609
359.90 0.2613
360.00 0.2617
360.10 0.2621
360.20 0.2626
360.30 0.263
360.40 0.2634
360.50 0.2638
360.60 0.2643
360.70 0.2647
360.80 0.2651
360.90 0.2655
361.00 0.266
361.10 0.2664
361.20 0.2668
361.30 0.2672
361.40 0.2677
361.50 0.2681
361.60 0.2685
361.70 0.2689
361.80 0.2693
361.90 0.2698
362.00 0.2702
362.10 0.2706
362.20 0.271
362.30 0.2715
362.40 0.2719
362.50 0.2723
362.60 0.2728
362.70 0.2732
362.80 0.2736
362.90 0.274
363.00 0.2745
363.10 0.2749
363.20 0.2753
363.30 0.2758
363.40 0.2762
363.50 0.2766
363.60 0.2771
363.70 0.2775
363.80 0.2779
363.90 0.2784
364.00 0.2788
364.10 0.2792
364.20 0.2797
364.30 0.2801
364.40 0.2805
364.50 0.2809
364.60 0.2814
364.70 0.2818
364.80 0.2823
364.90 0.2827
365.00 0.2831
365.10 0.2836
365.20 0.284
365.30 0.2845
365.40 0.2849
365.50 0.2853
365.60 0.2858
365.70 0.2862
365.80 0.2866
365.90 0.2871
366.00 0.2875
366.10 0.2879
366.20 0.2884
366.30 0.2888
366.40 0.2893
366.50 0.2897
366.60 0.2902
366.70 0.2906
366.80 0.2911
366.90 0.2915
367.00 0.2919
367.10 0.2924
367.20 0.2928
367.30 0.2933
367.40 0.2937
367.50 0.2941
367.60 0.2946
367.70 0.295
367.80 0.2955
367.90 0.2959
368.00 0.2963
368.10 0.2968
368.20 0.2972
368.30 0.2977
368.40 0.2981
368.50 0.2986
368.60 0.299
368.70 0.2995
368.80 0.2999
368.90 0.3004
369.00 0.3008
369.10 0.3013
369.20 0.3017
369.30 0.3022
369.40 0.3026
369.50 0.3031
369.60 0.3035
369.70 0.304
369.80 0.3044
369.90 0.3049
370.00 0.3053
370.10 0.3058
370.20 0.3062
370.30 0.3067
370.40 0.3071
370.50 0.3076
370.60 0.308
370.70 0.3085
370.80 0.3089
370.90 0.3094
371.00 0.3099
371.10 0.3103
371.20 0.3108
371.30 0.3112
371.40 0.3117
371.50 0.3121
371.60 0.3126
371.70 0.313
371.80 0.3135
371.90 0.3139
372.00 0.3144
372.10 0.3148
372.20 0.3153
372.30 0.3158
372.40 0.3162
372.50 0.3167
372.60 0.3171
372.70 0.3176
372.80 0.3181
372.90 0.3185
373.00 0.319
373.10 0.3194
373.20 0.3199
373.30 0.3204
373.40 0.3208
373.50 0.3213
373.60 0.3217
373.70 0.3222
373.80 0.3226
373.90 0.3231
374.00 0.3235
374.10 0.324
374.20 0.3245
374.30 0.3249
374.40 0.3254
374.50 0.3259
374.60 0.3264
374.70 0.3268
374.80 0.3273
374.90 0.3277
375.00 0.3282
375.10 0.3287
375.20 0.3291
375.30 0.3296
375.40 0.3301
375.50 0.3305
375.60 0.331
375.70 0.3315
375.80 0.3319
375.90 0.3324
376.00 0.3328
376.10 0.3333
376.20 0.3338
376.30 0.3342
376.40 0.3347
376.50 0.3352
376.60 0.3356
376.70 0.3361
376.80 0.3366
376.90 0.337
377.00 0.3375
377.10 0.338
377.20 0.3385
377.30 0.3389
377.40 0.3394
377.50 0.3399
377.60 0.3403
377.70 0.3408
377.80 0.3413
377.90 0.3418
378.00 0.3422
378.10 0.3427
378.20 0.3432
378.30 0.3436
378.40 0.3441
378.50 0.3446
378.60 0.3451
378.70 0.3455
378.80 0.346
378.90 0.3465
379.00 0.347
379.10 0.3474
379.20 0.3479
379.30 0.3484
379.40 0.3489
379.50 0.3493
379.60 0.3498
379.70 0.3503
379.80 0.3508
379.90 0.3512
380.00 0.3517
380.10 0.3522
380.20 0.3527
380.30 0.3532
380.40 0.3536
380.50 0.3541
380.60 0.3546
380.70 0.3551
380.80 0.3555
380.90 0.356
381.00 0.3565
381.10 0.357
381.20 0.3575
381.30 0.3579
381.40 0.3584
381.50 0.3589
381.60 0.3594
381.70 0.3599
381.80 0.3603
381.90 0.3608
382.00 0.3613
382.10 0.3618
382.20 0.3623
382.30 0.3628
382.40 0.3632
382.50 0.3637
382.60 0.3642
382.70 0.3647
382.80 0.3652
382.90 0.3657
383.00 0.3661
383.10 0.3666
383.20 0.3671
383.30 0.3676
383.40 0.3681
383.50 0.3686
383.60 0.3691
383.70 0.3695
383.80 0.37
383.90 0.3705
384.00 0.371
384.10 0.3715
384.20 0.372
384.30 0.3725
384.40 0.3729
384.50 0.3734
384.60 0.3739
384.70 0.3744
384.80 0.3749
384.90 0.3754
385.00 0.3759
385.10 0.3764
385.20 0.3769
385.30 0.3773
385.40 0.3778
385.50 0.3783
385.60 0.3788
385.70 0.3793
385.80 0.3798
385.90 0.3803
386.00 0.3808
386.10 0.3813
386.20 0.3818
386.30 0.3823
386.40 0.3828
386.50 0.3832
386.60 0.3837
386.70 0.3842
386.80 0.3847
386.90 0.3852
387.00 0.3857
387.10 0.3862
387.20 0.3867
387.30 0.3872
387.40 0.3877
387.50 0.3882
387.60 0.3887
387.70 0.3892
387.80 0.3897
387.90 0.3902
388.00 0.3907
388.10 0.3912
388.20 0.3917
388.30 0.3921
388.40 0.3926
388.50 0.3931
388.60 0.3936
388.70 0.3941
388.80 0.3946
388.90 0.3951
389.00 0.3956
389.10 0.3961
389.20 0.3966
389.30 0.3971
389.40 0.3976
389.50 0.3981
389.60 0.3986
389.70 0.3991
389.80 0.3996
389.90 0.4001
390.00 0.4006
390.10 0.4011
390.20 0.4016
390.30 0.4021
390.40 0.4026
390.50 0.4031
390.60 0.4036
390.70 0.4041
390.80 0.4046
390.90 0.4051
391.00 0.4056
391.10 0.4061
391.20 0.4066
391.30 0.4072
391.40 0.4077
391.50 0.4082
391.60 0.4087
391.70 0.4092
391.80 0.4097
391.90 0.4102
392.00 0.4107
392.10 0.4112
392.20 0.4117
392.30 0.4122
392.40 0.4127
392.50 0.4132
392.60 0.4137
392.70 0.4142
392.80 0.4147
392.90 0.4152
393.00 0.4157
393.10 0.4162
393.20 0.4167
393.30 0.4173
393.40 0.4178
393.50 0.4183
393.60 0.4188
393.70 0.4193
393.80 0.4198
393.90 0.4203
394.00 0.4208
394.10 0.4213
394.20 0.4218
394.30 0.4223
394.40 0.4228
394.50 0.4234
394.60 0.4239
394.70 0.4244
394.80 0.4249
394.90 0.4254
395.00 0.4259
395.10 0.4264
395.20 0.4269
395.30 0.4274
395.40 0.4279
395.50 0.4285
395.60 0.429
395.70 0.4295
395.80 0.43
395.90 0.4305
396.00 0.431
396.10 0.4315
396.20 0.432
396.30 0.4326
396.40 0.4331
396.50 0.4336
396.60 0.4341
396.70 0.4346
396.80 0.4351
396.90 0.4356
397.00 0.4362
397.10 0.4367
397.20 0.4372
397.30 0.4377
397.40 0.4382
397.50 0.4387
397.60 0.4392
397.70 0.4398
397.80 0.4403
397.90 0.4408
398.00 0.4413
398.10 0.4418
398.20 0.4423
398.30 0.4429
398.40 0.4434
398.50 0.4439
398.60 0.4444
398.70 0.4449
398.80 0.4454
398.90 0.446
399.00 0.4465
399.10 0.447
399.20 0.4475
399.30 0.448
399.40 0.4486
399.50 0.4491
399.60 0.4496
399.70 0.4501
399.80 0.4506
399.90 0.4511
400.00 0.4517
400.10 0.4522
400.20 0.4527
400.30 0.4532
400.40 0.4537
400.50 0.4543
400.60 0.4548
400.70 0.4553
400.80 0.4558
400.90 0.4564
401.00 0.4569
401.10 0.4574
401.20 0.4579
401.30 0.4584
401.40 0.459
401.50 0.4595
401.60 0.46
401.70 0.4605
401.80 0.4611
401.90 0.4616
402.00 0.4621
402.10 0.4626
402.20 0.4632
402.30 0.4637
402.40 0.4642
402.50 0.4647
402.60 0.4653
402.70 0.4658
402.80 0.4663
402.90 0.4668
403.00 0.4673
403.10 0.4679
403.20 0.4684
403.30 0.4689
403.40 0.4695
403.50 0.47
403.60 0.4705
403.70 0.471
403.80 0.4716
403.90 0.4721
404.00 0.4726
404.10 0.4731
404.20 0.4737
404.30 0.4742
404.40 0.4747
404.50 0.4752
404.60 0.4758
404.70 0.4763
404.80 0.4768
404.90 0.4773
405.00 0.4779
405.10 0.4784
405.20 0.4789
405.30 0.4794
405.40 0.48
405.50 0.4805
405.60 0.481
405.70 0.4816
405.80 0.4821
405.90 0.4826
406.00 0.4832
406.10 0.4837
406.20 0.4842
406.30 0.4848
406.40 0.4853
406.50 0.4858
406.60 0.4863
406.70 0.4869
406.80 0.4874
406.90 0.488
407.00 0.4885
407.10 0.489
407.20 0.4895
407.30 0.4901
407.40 0.4906
407.50 0.4911
407.60 0.4917
407.70 0.4922
407.80 0.4927
407.90 0.4933
408.00 0.4938
408.10 0.4943
408.20 0.4949
408.30 0.4954
408.40 0.4959
408.50 0.4964
408.60 0.497
408.70 0.4975
408.80 0.4981
408.90 0.4986
409.00 0.4991
409.10 0.4997
409.20 0.5002
409.30 0.5007
409.40 0.5013
409.50 0.5018
409.60 0.5023
409.70 0.5029
409.80 0.5034
409.90 0.5039
410.00 0.5045
410.10 0.505
410.20 0.5055
410.30 0.5061
410.40 0.5066
410.50 0.5071
410.60 0.5077
410.70 0.5082
410.80 0.5088
410.90 0.5093
411.00 0.5098
411.10 0.5104
411.20 0.5109
411.30 0.5114
411.40 0.512
411.50 0.5125
411.60 0.5131
411.70 0.5136
411.80 0.5141
411.90 0.5147
412.00 0.5152
412.10 0.5158
412.20 0.5163
412.30 0.5168
412.40 0.5174
412.50 0.5179
412.60 0.5184
412.70 0.519
412.80 0.5195
412.90 0.52
413.00 0.5206
413.10 0.5211
413.20 0.5217
413.30 0.5222
413.40 0.5228
413.50 0.5233
413.60 0.5238
413.70 0.5244
413.80 0.5249
413.90 0.5255
414.00 0.526
414.10 0.5265
414.20 0.5271
414.30 0.5276
414.40 0.5282
414.50 0.5287
414.60 0.5292
414.70 0.5298
414.80 0.5303
414.90 0.5308
415.00 0.5314
415.10 0.5319
415.20 0.5325
415.30 0.533
415.40 0.5336
415.50 0.5341
415.60 0.5346
415.70 0.5352
415.80 0.5357
415.90 0.5363
416.00 0.5368
416.10 0.5374
416.20 0.5379
416.30 0.5384
416.40 0.539
416.50 0.5395
416.60 0.5401
416.70 0.5407
416.80 0.5412
416.90 0.5417
417.00 0.5423
417.10 0.5428
417.20 0.5433
417.30 0.5439
417.40 0.5445
417.50 0.545
417.60 0.5455
417.70 0.5461
417.80 0.5466
417.90 0.5472
418.00 0.5477
418.10 0.5483
418.20 0.5488
418.30 0.5493
418.40 0.5499
418.50 0.5505
418.60 0.551
418.70 0.5515
418.80 0.5521
418.90 0.5526
419.00 0.5532
419.10 0.5537
419.20 0.5543
419.30 0.5548
419.40 0.5554
419.50 0.5559
419.60 0.5565
419.70 0.557
419.80 0.5576
419.90 0.5581
420.00 0.5587
420.10 0.5592
420.20 0.5598
420.30 0.5603
420.40 0.5609
420.50 0.5614
420.60 0.5619
420.70 0.5625
420.80 0.563
420.90 0.5636
421.00 0.5641
421.10 0.5647
421.20 0.5652
421.30 0.5658
421.40 0.5663
421.50 0.5669
421.60 0.5674
421.70 0.568
421.80 0.5685
421.90 0.5691
422.00 0.5696
422.10 0.5702
422.20 0.5707
422.30 0.5713
422.40 0.5718
422.50 0.5724
422.60 0.5729
422.70 0.5735
422.80 0.574
422.90 0.5746
423.00 0.5751
423.10 0.5757
423.20 0.5762
423.30 0.5768
423.40 0.5773
423.50 0.5779
423.60 0.5784
423.70 0.579
423.80 0.5795
423.90 0.5801
424.00 0.5806
424.10 0.5812
424.20 0.5817
424.30 0.5823
424.40 0.5828
424.50 0.5834
424.60 0.5839
424.70 0.5845
424.80 0.585
424.90 0.5856
425.00 0.5861
425.10 0.5867
425.20 0.5872
425.30 0.5878
425.40 0.5884
425.50 0.5889
425.60 0.5895
425.70 0.59
425.80 0.5906
425.90 0.5911
426.00 0.5917
426.10 0.5922
426.20 0.5928
426.30 0.5933
426.40 0.5939
426.50 0.5944
426.60 0.595
426.70 0.5956
426.80 0.5961
426.90 0.5966
427.00 0.5972
427.10 0.5978
427.20 0.5983
427.30 0.5989
427.40 0.5994
427.50 0.6
427.60 0.6005
427.70 0.6011
427.80 0.6017
427.90 0.6022
428.00 0.6027
428.10 0.6033
428.20 0.6038
428.30 0.6044
428.40 0.6049
428.50 0.6055
428.60 0.6061
428.70 0.6066
428.80 0.6072
428.90 0.6077
429.00 0.6083
429.10 0.6089
429.20 0.6094
429.30 0.61
429.40 0.6105
429.50 0.6111
429.60 0.6116
429.70 0.6122
429.80 0.6127
429.90 0.6133
430.00 0.6138
430.10 0.6144
430.20 0.615
430.30 0.6155
430.40 0.6161
430.50 0.6166
430.60 0.6172
430.70 0.6177
430.80 0.6183
430.90 0.6189
431.00 0.6194
431.10 0.62
431.20 0.6205
431.30 0.6211
431.40 0.6216
431.50 0.6222
431.60 0.6227
431.70 0.6233
431.80 0.6239
431.90 0.6244
432.00 0.625
432.10 0.6255
432.20 0.6261
432.30 0.6266
432.40 0.6272
432.50 0.6277
432.60 0.6283
432.70 0.6289
432.80 0.6294
432.90 0.63
433.00 0.6306
433.10 0.6311
433.20 0.6317
433.30 0.6322
433.40 0.6328
433.50 0.6333
433.60 0.6339
433.70 0.6344
433.80 0.635
433.90 0.6356
434.00 0.6361
434.10 0.6367
434.20 0.6372
434.30 0.6378
434.40 0.6384
434.50 0.6389
434.60 0.6395
434.70 0.64
434.80 0.6406
434.90 0.6411
435.00 0.6417
435.10 0.6423
435.20 0.6428
435.30 0.6434
435.40 0.6439
435.50 0.6445
435.60 0.6451
435.70 0.6456
435.80 0.6462
435.90 0.6467
436.00 0.6473
436.10 0.6478
436.20 0.6484
436.30 0.649
436.40 0.6495
436.50 0.6501
436.60 0.6506
436.70 0.6512
436.80 0.6518
436.90 0.6523
437.00 0.6529
437.10 0.6534
437.20 0.654
437.30 0.6546
437.40 0.6551
437.50 0.6557
437.60 0.6562
437.70 0.6568
437.80 0.6574
437.90 0.6579
438.00 0.6585
438.10 0.659
438.20 0.6596
438.30 0.6602
438.40 0.6607
438.50 0.6613
438.60 0.6618
438.70 0.6624
438.80 0.663
438.90 0.6635
439.00 0.6641
439.10 0.6646
439.20 0.6652
439.30 0.6657
439.40 0.6663
439.50 0.6669
439.60 0.6674
439.70 0.668
439.80 0.6685
439.90 0.6691
440.00 0.6697
440.10 0.6702
440.20 0.6708
440.30 0.6714
440.40 0.6719
440.50 0.6725
440.60 0.673
440.70 0.6736
440.80 0.6741
440.90 0.6747
441.00 0.6753
441.10 0.6758
441.20 0.6764
441.30 0.677
441.40 0.6775
441.50 0.6781
441.60 0.6787
441.70 0.6792
441.80 0.6798
441.90 0.6803
442.00 0.6809
442.10 0.6815
442.20 0.682
442.30 0.6826
442.40 0.6831
442.50 0.6837
442.60 0.6843
442.70 0.6848
442.80 0.6854
442.90 0.686
443.00 0.6865
443.10 0.6871
443.20 0.6876
443.30 0.6882
443.40 0.6887
443.50 0.6893
443.60 0.6899
443.70 0.6904
443.80 0.691
443.90 0.6916
444.00 0.6921
444.10 0.6927
444.20 0.6932
444.30 0.6938
444.40 0.6944
444.50 0.6949
444.60 0.6955
444.70 0.696
444.80 0.6966
444.90 0.6972
445.00 0.6977
445.10 0.6983
445.20 0.6989
445.30 0.6994
445.40 0.7
445.50 0.7005
445.60 0.7011
445.70 0.7017
445.80 0.7022
445.90 0.7028
446.00 0.7034
446.10 0.7039
446.20 0.7045
446.30 0.705
446.40 0.7056
446.50 0.7061
446.60 0.7067
446.70 0.7073
446.80 0.7078
446.90 0.7084
447.00 0.7089
447.10 0.7095
447.20 0.7101
447.30 0.7106
447.40 0.7112
447.50 0.7118
447.60 0.7123
447.70 0.7129
447.80 0.7135
447.90 0.714
448.00 0.7146
448.10 0.7151
448.20 0.7157
448.30 0.7163
448.40 0.7168
448.50 0.7174
448.60 0.7179
448.70 0.7185
448.80 0.7191
448.90 0.7196
449.00 0.7202
449.10 0.7208
449.20 0.7213
449.30 0.7219
449.40 0.7224
449.50 0.723
449.60 0.7236
449.70 0.7241
449.80 0.7247
449.90 0.7252
450.00 0.7258
450.10 0.7264
450.20 0.7269
450.30 0.7275
450.40 0.7281
450.50 0.7286
450.60 0.7292
450.70 0.7297
450.80 0.7303
450.90 0.7309
451.00 0.7314
451.10 0.732
451.20 0.7325
451.30 0.7331
451.40 0.7337
451.50 0.7342
451.60 0.7348
451.70 0.7354
451.80 0.7359
451.90 0.7365
452.00 0.737
452.10 0.7376
452.20 0.7382
452.30 0.7387
452.40 0.7393
452.50 0.7399
452.60 0.7404
452.70 0.741
452.80 0.7415
452.90 0.7421
453.00 0.7427
453.10 0.7432
453.20 0.7438
453.30 0.7443
453.40 0.7449
453.50 0.7455
453.60 0.746
453.70 0.7466
453.80 0.7471
453.90 0.7477
454.00 0.7483
454.10 0.7488
454.20 0.7494
454.30 0.7499
454.40 0.7505
454.50 0.7511
454.60 0.7516
454.70 0.7522
454.80 0.7528
454.90 0.7533
455.00 0.7539
455.10 0.7545
455.20 0.755
455.30 0.7556
455.40 0.7561
455.50 0.7567
455.60 0.7573
455.70 0.7578
455.80 0.7584
455.90 0.7589
456.00 0.7595
456.10 0.7601
456.20 0.7606
456.30 0.7612
456.40 0.7617
456.50 0.7623
456.60 0.7629
456.70 0.7634
456.80 0.764
456.90 0.7645
457.00 0.7651
457.10 0.7657
457.20 0.7662
457.30 0.7668
457.40 0.7673
457.50 0.7679
457.60 0.7685
457.70 0.769
457.80 0.7696
457.90 0.7701
458.00 0.7707
458.10 0.7713
458.20 0.7718
458.30 0.7724
458.40 0.7729
458.50 0.7735
458.60 0.7741
458.70 0.7746
458.80 0.7752
458.90 0.7757
459.00 0.7763
459.10 0.7769
459.20 0.7774
459.30 0.778
459.40 0.7785
459.50 0.7791
459.60 0.7796
459.70 0.7802
459.80 0.7808
459.90 0.7813
460.00 0.7819
460.10 0.7825
460.20 0.783
460.30 0.7836
460.40 0.7841
460.50 0.7847
460.60 0.7853
460.70 0.7858
460.80 0.7864
460.90 0.7869
461.00 0.7875
461.10 0.7881
461.20 0.7886
461.30 0.7892
461.40 0.7897
461.50 0.7903
461.60 0.7908
461.70 0.7914
461.80 0.792
461.90 0.7925
462.00 0.7931
462.10 0.7936
462.20 0.7942
462.30 0.7947
462.40 0.7953
462.50 0.7959
462.60 0.7964
462.70 0.797
462.80 0.7975
462.90 0.7981
463.00 0.7987
463.10 0.7992
463.20 0.7998
463.30 0.8003
463.40 0.8009
463.50 0.8015
463.60 0.802
463.70 0.8026
463.80 0.8031
463.90 0.8037
464.00 0.8043
464.10 0.8048
464.20 0.8054
464.30 0.8059
464.40 0.8065
464.50 0.807
464.60 0.8076
464.70 0.8082
464.80 0.8087
464.90 0.8093
465.00 0.8098
465.10 0.8104
465.20 0.8109
465.30 0.8115
465.40 0.8121
465.50 0.8126
465.60 0.8132
465.70 0.8137
465.80 0.8143
465.90 0.8148
466.00 0.8154
466.10 0.8159
466.20 0.8165
466.30 0.8171
466.40 0.8176
466.50 0.8182
466.60 0.8187
466.70 0.8193
466.80 0.8198
466.90 0.8204
467.00 0.821
467.10 0.8215
467.20 0.8221
467.30 0.8226
467.40 0.8232
467.50 0.8237
467.60 0.8243
467.70 0.8249
467.80 0.8254
467.90 0.826
468.00 0.8265
468.10 0.8271
468.20 0.8276
468.30 0.8282
468.40 0.8288
468.50 0.8293
468.60 0.8299
468.70 0.8304
468.80 0.831
468.90 0.8315
469.00 0.8321
469.10 0.8327
469.20 0.8332
469.30 0.8338
469.40 0.8343
469.50 0.8349
469.60 0.8354
469.70 0.836
469.80 0.8365
469.90 0.8371
470.00 0.8376
470.10 0.8382
470.20 0.8387
470.30 0.8393
470.40 0.8399
470.50 0.8404
470.60 0.841
470.70 0.8415
470.80 0.8421
470.90 0.8426
471.00 0.8432
471.10 0.8437
471.20 0.8443
471.30 0.8449
471.40 0.8454
471.50 0.846
471.60 0.8465
471.70 0.8471
471.80 0.8476
471.90 0.8482
472.00 0.8487
472.10 0.8493
472.20 0.8498
472.30 0.8504
472.40 0.8509
472.50 0.8515
472.60 0.852
472.70 0.8526
472.80 0.8531
472.90 0.8537
473.00 0.8542
473.10 0.8548
473.20 0.8553
473.30 0.8559
473.40 0.8564
473.50 0.857
473.60 0.8576
473.70 0.8581
473.80 0.8587
473.90 0.8592
474.00 0.8598
474.10 0.8603
474.20 0.8609
474.30 0.8614
474.40 0.862
474.50 0.8625
474.60 0.8631
474.70 0.8636
474.80 0.8642
474.90 0.8647
475.00 0.8653
475.10 0.8658
475.20 0.8664
475.30 0.8669
475.40 0.8675
475.50 0.868
475.60 0.8686
475.70 0.8692
475.80 0.8697
475.90 0.8703
476.00 0.8708
476.10 0.8714
476.20 0.8719
476.30 0.8725
476.40 0.873
476.50 0.8736
476.60 0.8741
476.70 0.8747
476.80 0.8752
476.90 0.8758
477.00 0.8763
477.10 0.8768
477.20 0.8774
477.30 0.8779
477.40 0.8785
477.50 0.8791
477.60 0.8796
477.70 0.8802
477.80 0.8807
477.90 0.8813
478.00 0.8818
478.10 0.8823
478.20 0.8829
478.30 0.8834
478.40 0.884
478.50 0.8845
478.60 0.8851
478.70 0.8856
478.80 0.8862
478.90 0.8867
479.00 0.8873
479.10 0.8878
479.20 0.8884
479.30 0.8889
479.40 0.8895
479.50 0.89
479.60 0.8906
479.70 0.8911
479.80 0.8916
479.90 0.8922
480.00 0.8927
480.10 0.8933
480.20 0.8938
480.30 0.8944
480.40 0.8949
480.50 0.8955
480.60 0.896
480.70 0.8966
480.80 0.8971
480.90 0.8977
481.00 0.8982
481.10 0.8988
481.20 0.8993
481.30 0.8999
481.40 0.9004
481.50 0.9009
481.60 0.9015
481.70 0.902
481.80 0.9026
481.90 0.9031
482.00 0.9037
482.10 0.9042
482.20 0.9048
482.30 0.9053
482.40 0.9058
482.50 0.9064
482.60 0.9069
482.70 0.9075
482.80 0.908
482.90 0.9086
483.00 0.9091
483.10 0.9096
483.20 0.9102
483.30 0.9107
483.40 0.9113
483.50 0.9118
483.60 0.9124
483.70 0.9129
483.80 0.9135
483.90 0.914
484.00 0.9145
484.10 0.9151
484.20 0.9156
484.30 0.9162
484.40 0.9167
484.50 0.9172
484.60 0.9178
484.70 0.9183
484.80 0.9189
484.90 0.9194
485.00 0.92
485.10 0.9205
485.20 0.9211
485.30 0.9216
485.40 0.9221
485.50 0.9227
485.60 0.9232
485.70 0.9237
485.80 0.9243
485.90 0.9248
486.00 0.9254
486.10 0.9259
486.20 0.9264
486.30 0.927
486.40 0.9275
486.50 0.9281
486.60 0.9286
486.70 0.9292
486.80 0.9297
486.90 0.9303
487.00 0.9308
487.10 0.9313
487.20 0.9319
487.30 0.9324
487.40 0.933
487.50 0.9335
487.60 0.934
487.70 0.9346
487.80 0.9351
487.90 0.9356
488.00 0.9362
488.10 0.9367
488.20 0.9373
488.30 0.9378
488.40 0.9383
488.50 0.9389
488.60 0.9394
488.70 0.94
488.80 0.9405
488.90 0.941
489.00 0.9416
489.10 0.9421
489.20 0.9426
489.30 0.9432
489.40 0.9437
489.50 0.9443
489.60 0.9448
489.70 0.9453
489.80 0.9459
489.90 0.9464
490.00 0.9469
490.10 0.9475
490.20 0.948
490.30 0.9486
490.40 0.9491
490.50 0.9496
490.60 0.9502
490.70 0.9507
490.80 0.9512
490.90 0.9518
491.00 0.9523
491.10 0.9528
491.20 0.9534
491.30 0.9539
491.40 0.9544
491.50 0.955
491.60 0.9555
491.70 0.9561
491.80 0.9566
491.90 0.9571
492.00 0.9577
492.10 0.9582
492.20 0.9587
492.30 0.9593
492.40 0.9598
492.50 0.9603
492.60 0.9609
492.70 0.9614
492.80 0.9619
492.90 0.9625
493.00 0.963
493.10 0.9635
493.20 0.9641
493.30 0.9646
493.40 0.9651
493.50 0.9657
493.60 0.9662
493.70 0.9667
493.80 0.9673
493.90 0.9678
494.00 0.9683
494.10 0.9688
494.20 0.9694
494.30 0.9699
494.40 0.9704
494.50 0.971
494.60 0.9715
494.70 0.972
494.80 0.9726
494.90 0.9731
495.00 0.9736
495.10 0.9741
495.20 0.9747
495.30 0.9752
495.40 0.9757
495.50 0.9763
495.60 0.9768
495.70 0.9773
495.80 0.9779
495.90 0.9784
496.00 0.9789
496.10 0.9795
496.20 0.98
496.30 0.9805
496.40 0.9811
496.50 0.9816
496.60 0.9821
496.70 0.9826
496.80 0.9832
496.90 0.9837
497.00 0.9842
497.10 0.9848
497.20 0.9853
497.30 0.9858
497.40 0.9863
497.50 0.9869
497.60 0.9874
497.70 0.9879
497.80 0.9885
497.90 0.989
498.00 0.9895
498.10 0.99
498.20 0.9906
498.30 0.9911
498.40 0.9916
498.50 0.9921
498.60 0.9927
498.70 0.9932
498.80 0.9937
498.90 0.9942
499.00 0.9948
499.10 0.9953
499.20 0.9958
499.30 0.9963
499.40 0.9969
499.50 0.9974
499.60 0.9979
499.70 0.9984
499.80 0.999
499.90 0.9995
500.00 1
500.10 1.001
500.20 1.001
500.30 1.002
500.40 1.002
500.50 1.003
500.60 1.003
500.70 1.004
500.80 1.004
500.90 1.005
501.00 1.005
501.10 1.006
501.20 1.006
501.30 1.007
501.40 1.007
501.50 1.008
501.60 1.008
501.70 1.009
501.80 1.009
501.90 1.01
502.00 1.01
502.10 1.011
502.20 1.011
502.30 1.012
502.40 1.013
502.50 1.013
502.60 1.014
502.70 1.014
502.80 1.015
502.90 1.015
503.00 1.016
503.10 1.016
503.20 1.017
503.30 1.017
503.40 1.018
503.50 1.018
503.60 1.019
503.70 1.019
503.80 1.02
503.90 1.02
504.00 1.021
504.10 1.021
504.20 1.022
504.30 1.022
504.40 1.023
504.50 1.023
504.60 1.024
504.70 1.024
504.80 1.025
504.90 1.026
505.00 1.026
505.10 1.027
505.20 1.027
505.30 1.028
505.40 1.028
505.50 1.029
505.60 1.029
505.70 1.03
505.80 1.03
505.90 1.031
506.00 1.031
506.10 1.032
506.20 1.032
506.30 1.033
506.40 1.033
506.50 1.034
506.60 1.034
506.70 1.035
506.80 1.035
506.90 1.036
507.00 1.036
507.10 1.037
507.20 1.037
507.30 1.038
507.40 1.038
507.50 1.039
507.60 1.039
507.70 1.04
507.80 1.04
507.90 1.041
508.00 1.041
508.10 1.042
508.20 1.043
508.30 1.043
508.40 1.044
508.50 1.044
508.60 1.045
508.70 1.045
508.80 1.046
508.90 1.046
509.00 1.047
509.10 1.047
509.20 1.048
509.30 1.048
509.40 1.049
509.50 1.049
509.60 1.05
509.70 1.05
509.80 1.051
509.90 1.051
510.00 1.052
510.10 1.052
510.20 1.053
510.30 1.053
510.40 1.054
510.50 1.054
510.60 1.055
510.70 1.055
510.80 1.056
510.90 1.056
511.00 1.057
511.10 1.057
511.20 1.058
511.30 1.058
511.40 1.059
511.50 1.059
511.60 1.06
511.70 1.06
511.80 1.061
511.90 1.061
512.00 1.062
512.10 1.062
512.20 1.063
512.30 1.063
512.40 1.064
512.50 1.064
512.60 1.065
512.70 1.065
512.80 1.066
512.90 1.066
513.00 1.067
513.10 1.067
513.20 1.068
513.30 1.068
513.40 1.069
513.50 1.069
513.60 1.07
513.70 1.07
513.80 1.071
513.90 1.071
514.00 1.072
514.10 1.072
514.20 1.073
514.30 1.074
514.40 1.074
514.50 1.075
514.60 1.075
514.70 1.076
514.80 1.076
514.90 1.077
515.00 1.077
515.10 1.078
515.20 1.078
515.30 1.079
515.40 1.079
515.50 1.08
515.60 1.08
515.70 1.081
515.80 1.081
515.90 1.082
516.00 1.082
516.10 1.083
516.20 1.083
516.30 1.084
516.40 1.084
516.50 1.085
516.60 1.085
516.70 1.086
516.80 1.086
516.90 1.087
517.00 1.087
517.10 1.088
517.20 1.088
517.30 1.089
517.40 1.089
517.50 1.09
517.60 1.09
517.70 1.091
517.80 1.091
517.90 1.091
518.00 1.092
518.10 1.092
518.20 1.093
518.30 1.093
518.40 1.094
518.50 1.094
518.60 1.095
518.70 1.095
518.80 1.096
518.90 1.096
519.00 1.097
519.10 1.097
519.20 1.098
519.30 1.098
519.40 1.099
519.50 1.099
519.60 1.1
519.70 1.1
519.80 1.101
519.90 1.101
520.00 1.102
520.10 1.102
520.20 1.103
520.30 1.103
520.40 1.104
520.50 1.104
520.60 1.105
520.70 1.105
520.80 1.106
520.90 1.106
521.00 1.107
521.10 1.107
521.20 1.108
521.30 1.108
521.40 1.109
521.50 1.109
521.60 1.11
521.70 1.11
521.80 1.111
521.90 1.111
522.00 1.112
522.10 1.112
522.20 1.113
522.30 1.113
522.40 1.114
522.50 1.114
522.60 1.115
522.70 1.115
522.80 1.116
522.90 1.116
523.00 1.117
523.10 1.117
523.20 1.118
523.30 1.118
523.40 1.119
523.50 1.119
523.60 1.12
523.70 1.12
523.80 1.121
523.90 1.121
524.00 1.122
524.10 1.122
524.20 1.122
524.30 1.123
524.40 1.123
524.50 1.124
524.60 1.124
524.70 1.125
524.80 1.125
524.90 1.126
525.00 1.126
525.10 1.127
525.20 1.127
525.30 1.128
525.40 1.128
525.50 1.129
525.60 1.129
525.70 1.13
525.80 1.13
525.90 1.131
526.00 1.131
526.10 1.132
526.20 1.132
526.30 1.133
526.40 1.133
526.50 1.134
526.60 1.134
526.70 1.135
526.80 1.135
526.90 1.136
527.00 1.136
527.10 1.137
527.20 1.137
527.30 1.137
527.40 1.138
527.50 1.138
527.60 1.139
527.70 1.139
527.80 1.14
527.90 1.14
528.00 1.141
528.10 1.141
528.20 1.142
528.30 1.142
528.40 1.143
528.50 1.143
528.60 1.144
528.70 1.144
528.80 1.145
528.90 1.145
529.00 1.146
529.10 1.146
529.20 1.147
529.30 1.147
529.40 1.148
529.50 1.148
529.60 1.148
529.70 1.149
529.80 1.149
529.90 1.15
530.00 1.15
530.10 1.151
530.20 1.151
530.30 1.152
530.40 1.152
530.50 1.153
530.60 1.153
530.70 1.154
530.80 1.154
530.90 1.155
531.00 1.155
531.10 1.156
531.20 1.156
531.30 1.157
531.40 1.157
531.50 1.157
531.60 1.158
531.70 1.158
531.80 1.159
531.90 1.159
532.00 1.16
532.10 1.16
532.20 1.161
532.30 1.161
532.40 1.162
532.50 1.162
532.60 1.163
532.70 1.163
532.80 1.164
532.90 1.164
533.00 1.165
533.10 1.165
533.20 1.166
533.30 1.166
533.40 1.166
533.50 1.167
533.60 1.167
533.70 1.168
533.80 1.168
533.90 1.169
534.00 1.169
534.10 1.17
534.20 1.17
534.30 1.171
534.40 1.171
534.50 1.172
534.60 1.172
534.70 1.173
534.80 1.173
534.90 1.173
535.00 1.174
535.10 1.174
535.20 1.175
535.30 1.175
535.40 1.176
535.50 1.176
535.60 1.177
535.70 1.177
535.80 1.178
535.90 1.178
536.00 1.179
536.10 1.179
536.20 1.18
536.30 1.18
536.40 1.18
536.50 1.181
536.60 1.181
536.70 1.182
536.80 1.182
536.90 1.183
537.00 1.183
537.10 1.184
537.20 1.184
537.30 1.185
537.40 1.185
537.50 1.186
537.60 1.186
537.70 1.186
537.80 1.187
537.90 1.187
538.00 1.188
538.10 1.188
538.20 1.189
538.30 1.189
538.40 1.19
538.50 1.19
538.60 1.191
538.70 1.191
538.80 1.192
538.90 1.192
539.00 1.192
539.10 1.193
539.20 1.193
539.30 1.194
539.40 1.194
539.50 1.195
539.60 1.195
539.70 1.196
539.80 1.196
539.90 1.197
540.00 1.197
540.10 1.197
540.20 1.198
540.30 1.198
540.40 1.199
540.50 1.199
540.60 1.2
540.70 1.2
540.80 1.201
540.90 1.201
541.00 1.202
541.10 1.202
541.20 1.202
541.30 1.203
541.40 1.203
541.50 1.204
541.60 1.204
541.70 1.205
541.80 1.205
541.90 1.206
542.00 1.206
542.10 1.207
542.20 1.207
542.30 1.207
542.40 1.208
542.50 1.208
542.60 1.209
542.70 1.209
542.80 1.21
542.90 1.21
543.00 1.211
543.10 1.211
543.20 1.212
543.30 1.212
543.40 1.212
543.50 1.213
543.60 1.213
543.70 1.214
543.80 1.214
543.90 1.215
544.00 1.215
544.10 1.216
544.20 1.216
544.30 1.216
544.40 1.217
544.50 1.217
544.60 1.218
544.70 1.218
544.80 1.219
544.90 1.219
545.00 1.22
545.10 1.22
545.20 1.221
545.30 1.221
545.40 1.221
545.50 1.222
545.60 1.222
545.70 1.223
545.80 1.223
545.90 1.224
546.00 1.224
546.10 1.225
546.20 1.225
546.30 1.225
546.40 1.226
546.50 1.226
546.60 1.227
546.70 1.227
546.80 1.228
546.90 1.228
547.00 1.229
547.10 1.229
547.20 1.229
547.30 1.23
547.40 1.23
547.50 1.231
547.60 1.231
547.70 1.232
547.80 1.232
547.90 1.232
548.00 1.233
548.10 1.233
548.20 1.234
548.30 1.234
548.40 1.235
548.50 1.235
548.60 1.236
548.70 1.236
548.80 1.236
548.90 1.237
549.00 1.237
549.10 1.238
549.20 1.238
549.30 1.239
549.40 1.239
549.50 1.24
549.60 1.24
549.70 1.24
549.80 1.241
549.90 1.241
550.00 1.242
550.10 1.242
550.20 1.243
550.30 1.243
550.40 1.243
550.50 1.244
550.60 1.244
550.70 1.245
550.80 1.245
550.90 1.246
551.00 1.246
551.10 1.247
551.20 1.247
551.30 1.247
551.40 1.248
551.50 1.248
551.60 1.249
551.70 1.249
551.80 1.25
551.90 1.25
552.00 1.25
552.10 1.251
552.20 1.251
552.30 1.252
552.40 1.252
552.50 1.253
552.60 1.253
552.70 1.253
552.80 1.254
552.90 1.254
553.00 1.255
553.10 1.255
553.20 1.256
553.30 1.256
553.40 1.256
553.50 1.257
553.60 1.257
553.70 1.258
553.80 1.258
553.90 1.259
554.00 1.259
554.10 1.259
554.20 1.26
554.30 1.26
554.40 1.261
554.50 1.261
554.60 1.262
554.70 1.262
554.80 1.262
554.90 1.263
555.00 1.263
555.10 1.264
555.20 1.264
555.30 1.265
555.40 1.265
555.50 1.265
555.60 1.266
555.70 1.266
555.80 1.267
555.90 1.267
556.00 1.268
556.10 1.268
556.20 1.268
556.30 1.269
556.40 1.269
556.50 1.27
556.60 1.27
556.70 1.271
556.80 1.271
556.90 1.271
557.00 1.272
557.10 1.272
557.20 1.273
557.30 1.273
557.40 1.273
557.50 1.274
557.60 1.274
557.70 1.275
557.80 1.275
557.90 1.276
558.00 1.276
558.10 1.276
558.20 1.277
558.30 1.277
558.40 1.278
558.50 1.278
558.60 1.279
558.70 1.279
558.80 1.279
558.90 1.28
559.00 1.28
559.10 1.281
559.20 1.281
559.30 1.281
559.40 1.282
559.50 1.282
559.60 1.283
559.70 1.283
559.80 1.284
559.90 1.284
560.00 1.284
560.10 1.285
560.20 1.285
560.30 1.286
560.40 1.286
560.50 1.286
560.60 1.287
560.70 1.287
560.80 1.288
560.90 1.288
561.00 1.288
561.10 1.289
561.20 1.289
561.30 1.29
561.40 1.29
561.50 1.291
561.60 1.291
561.70 1.291
561.80 1.292
561.90 1.292
562.00 1.293
562.10 1.293
562.20 1.293
562.30 1.294
562.40 1.294
562.50 1.295
562.60 1.295
562.70 1.295
562.80 1.296
562.90 1.296
563.00 1.297
563.10 1.297
563.20 1.298
563.30 1.298
563.40 1.298
563.50 1.299
563.60 1.299
563.70 1.3
563.80 1.3
563.90 1.3
564.00 1.301
564.10 1.301
564.20 1.302
564.30 1.302
564.40 1.302
564.50 1.303
564.60 1.303
564.70 1.304
564.80 1.304
564.90 1.304
565.00 1.305
565.10 1.305
565.20 1.306
565.30 1.306
565.40 1.306
565.50 1.307
565.60 1.307
565.70 1.308
565.80 1.308
565.90 1.309
566.00 1.309
566.10 1.309
566.20 1.31
566.30 1.31
566.40 1.311
566.50 1.311
566.60 1.311
566.70 1.312
566.80 1.312
566.90 1.313
567.00 1.313
567.10 1.313
567.20 1.314
567.30 1.314
567.40 1.315
567.50 1.315
567.60 1.315
567.70 1.316
567.80 1.316
567.90 1.317
568.00 1.317
568.10 1.317
568.20 1.318
568.30 1.318
568.40 1.319
568.50 1.319
568.60 1.319
568.70 1.32
568.80 1.32
568.90 1.321
569.00 1.321
569.10 1.321
569.20 1.322
569.30 1.322
569.40 1.322
569.50 1.323
569.60 1.323
569.70 1.324
569.80 1.324
569.90 1.324
570.00 1.325
570.10 1.325
570.20 1.326
570.30 1.326
570.40 1.326
570.50 1.327
570.60 1.327
570.70 1.328
570.80 1.328
570.90 1.328
571.00 1.329
571.10 1.329
571.20 1.33
571.30 1.33
571.40 1.33
571.50 1.331
571.60 1.331
571.70 1.332
571.80 1.332
571.90 1.332
572.00 1.333
572.10 1.333
572.20 1.333
572.30 1.334
572.40 1.334
572.50 1.335
572.60 1.335
572.70 1.335
572.80 1.336
572.90 1.336
573.00 1.337
573.10 1.337
573.20 1.337
573.30 1.338
573.40 1.338
573.50 1.339
573.60 1.339
573.70 1.339
573.80 1.34
573.90 1.34
574.00 1.34
574.10 1.341
574.20 1.341
574.30 1.342
574.40 1.342
574.50 1.342
574.60 1.343
574.70 1.343
574.80 1.344
574.90 1.344
575.00 1.344
575.10 1.345
575.20 1.345
575.30 1.345
575.40 1.346
575.50 1.346
575.60 1.347
575.70 1.347
575.80 1.347
575.90 1.348
576.00 1.348
576.10 1.348
576.20 1.349
576.30 1.349
576.40 1.35
576.50 1.35
576.60 1.35
576.70 1.351
576.80 1.351
576.90 1.352
577.00 1.352
577.10 1.352
577.20 1.353
577.30 1.353
577.40 1.353
577.50 1.354
577.60 1.354
577.70 1.355
577.80 1.355
577.90 1.355
578.00 1.356
578.10 1.356
578.20 1.356
578.30 1.357
578.40 1.357
578.50 1.358
578.60 1.358
578.70 1.358
578.80 1.359
578.90 1.359
579.00 1.359
579.10 1.36
579.20 1.36
579.30 1.361
579.40 1.361
579.50 1.361
579.60 1.362
579.70 1.362
579.80 1.362
579.90 1.363
580.00 1.363
580.10 1.364
580.20 1.364
580.30 1.364
580.40 1.365
580.50 1.365
580.60 1.365
580.70 1.366
580.80 1.366
580.90 1.367
581.00 1.367
581.10 1.367
581.20 1.368
581.30 1.368
581.40 1.368
581.50 1.369
581.60 1.369
581.70 1.369
581.80 1.37
581.90 1.37
582.00 1.371
582.10 1.371
582.20 1.371
582.30 1.372
582.40 1.372
582.50 1.372
582.60 1.373
582.70 1.373
582.80 1.373
582.90 1.374
583.00 1.374
583.10 1.375
583.20 1.375
583.30 1.375
583.40 1.376
583.50 1.376
583.60 1.376
583.70 1.377
583.80 1.377
583.90 1.377
584.00 1.378
584.10 1.378
584.20 1.379
584.30 1.379
584.40 1.379
584.50 1.38
584.60 1.38
584.70 1.38
584.80 1.381
584.90 1.381
585.00 1.381
585.10 1.382
585.20 1.382
585.30 1.383
585.40 1.383
585.50 1.383
585.60 1.384
585.70 1.384
585.80 1.384
585.90 1.385
586.00 1.385
586.10 1.385
586.20 1.386
586.30 1.386
586.40 1.387
586.50 1.387
586.60 1.387
586.70 1.388
586.80 1.388
586.90 1.388
587.00 1.389
587.10 1.389
587.20 1.389
587.30 1.39
587.40 1.39
587.50 1.39
587.60 1.391
587.70 1.391
587.80 1.391
587.90 1.392
588.00 1.392
588.10 1.393
588.20 1.393
588.30 1.393
588.40 1.394
588.50 1.394
588.60 1.394
588.70 1.395
588.80 1.395
588.90 1.395
589.00 1.396
589.10 1.396
589.20 1.396
589.30 1.397
589.40 1.397
589.50 1.397
589.60 1.398
589.70 1.398
589.80 1.399
589.90 1.399
590.00 1.399
590.10 1.4
590.20 1.4
590.30 1.4
590.40 1.401
590.50 1.401
590.60 1.401
590.70 1.402
590.80 1.402
590.90 1.402
591.00 1.403
591.10 1.403
591.20 1.403
591.30 1.404
591.40 1.404
591.50 1.404
591.60 1.405
591.70 1.405
591.80 1.405
591.90 1.406
592.00 1.406
592.10 1.407
592.20 1.407
592.30 1.407
592.40 1.408
592.50 1.408
592.60 1.408
592.70 1.409
592.80 1.409
592.90 1.409
593.00 1.41
593.10 1.41
593.20 1.41
593.30 1.411
593.40 1.411
593.50 1.411
593.60 1.412
593.70 1.412
593.80 1.412
593.90 1.413
594.00 1.413
594.10 1.413
594.20 1.414
594.30 1.414
594.40 1.414
594.50 1.415
594.60 1.415
594.70 1.415
594.80 1.416
594.90 1.416
595.00 1.416
595.10 1.417
595.20 1.417
595.30 1.417
595.40 1.418
595.50 1.418
595.60 1.418
595.70 1.419
595.80 1.419
595.90 1.419
596.00 1.42
596.10 1.42
596.20 1.42
596.30 1.421
596.40 1.421
596.50 1.421
596.60 1.422
596.70 1.422
596.80 1.422
596.90 1.423
597.00 1.423
597.10 1.423
597.20 1.424
597.30 1.424
597.40 1.424
597.50 1.425
597.60 1.425
597.70 1.425
597.80 1.426
597.90 1.426
598.00 1.426
598.10 1.427
598.20 1.427
598.30 1.427
598.40 1.428
598.50 1.428
598.60 1.428
598.70 1.429
598.80 1.429
598.90 1.429
599.00 1.43
599.10 1.43
599.20 1.43
599.30 1.431
599.40 1.431
599.50 1.431
599.60 1.432
599.70 1.432
599.80 1.432
599.90 1.433
600.00 1.433
600.10 1.433
600.20 1.434
600.30 1.434
600.40 1.434
600.50 1.435
600.60 1.435
600.70 1.435
600.80 1.436
600.90 1.436
601.00 1.436
601.10 1.437
601.20 1.437
601.30 1.437
601.40 1.438
601.50 1.438
601.60 1.438
601.70 1.439
601.80 1.439
601.90 1.439
602.00 1.439
602.10 1.44
602.20 1.44
602.30 1.44
602.40 1.441
602.50 1.441
602.60 1.441
602.70 1.442
602.80 1.442
602.90 1.442
603.00 1.443
603.10 1.443
603.20 1.443
603.30 1.444
603.40 1.444
603.50 1.444
603.60 1.445
603.70 1.445
603.80 1.445
603.90 1.446
604.00 1.446
604.10 1.446
604.20 1.447
604.30 1.447
604.40 1.447
604.50 1.447
604.60 1.448
604.70 1.448
604.80 1.448
604.90 1.449
605.00 1.449
605.10 1.449
605.20 1.45
605.30 1.45
605.40 1.45
605.50 1.451
605.60 1.451
605.70 1.451
605.80 1.452
605.90 1.452
606.00 1.452
606.10 1.452
606.20 1.453
606.30 1.453
606.40 1.453
606.50 1.454
606.60 1.454
606.70 1.454
606.80 1.455
606.90 1.455
607.00 1.455
607.10 1.456
607.20 1.456
607.30 1.456
607.40 1.457
607.50 1.457
607.60 1.457
607.70 1.457
607.80 1.458
607.90 1.458
608.00 1.458
608.10 1.459
608.20 1.459
608.30 1.459
608.40 1.46
608.50 1.46
608.60 1.46
608.70 1.46
608.80 1.461
608.90 1.461
609.00 1.461
609.10 1.462
609.20 1.462
609.30 1.462
609.40 1.463
609.50 1.463
609.60 1.463
609.70 1.464
609.80 1.464
609.90 1.464
610.00 1.464
610.10 1.465
610.20 1.465
610.30 1.465
610.40 1.466
610.50 1.466
610.60 1.466
610.70 1.467
610.80 1.467
610.90 1.467
611.00 1.467
611.10 1.468
611.20 1.468
611.30 1.468
611.40 1.469
611.50 1.469
611.60 1.469
611.70 1.47
611.80 1.47
611.90 1.47
612.00 1.47
612.10 1.471
612.20 1.471
612.30 1.471
612.40 1.472
612.50 1.472
612.60 1.472
612.70 1.473
612.80 1.473
612.90 1.473
613.00 1.473
613.10 1.474
613.20 1.474
613.30 1.474
613.40 1.475
613.50 1.475
613.60 1.475
613.70 1.475
613.80 1.476
613.90 1.476
614.00 1.476
614.10 1.477
614.20 1.477
614.30 1.477
614.40 1.478
614.50 1.478
614.60 1.478
614.70 1.478
614.80 1.479
614.90 1.479
615.00 1.479
615.10 1.48
615.20 1.48
615.30 1.48
615.40 1.48
615.50 1.481
615.60 1.481
615.70 1.481
615.80 1.482
615.90 1.482
616.00 1.482
616.10 1.482
616.20 1.483
616.30 1.483
616.40 1.483
616.50 1.484
616.60 1.484
616.70 1.484
616.80 1.485
616.90 1.485
617.00 1.485
617.10 1.485
617.20 1.486
617.30 1.486
617.40 1.486
617.50 1.487
617.60 1.487
617.70 1.487
617.80 1.487
617.90 1.488
618.00 1.488
618.10 1.488
618.20 1.488
618.30 1.489
618.40 1.489
618.50 1.489
618.60 1.49
618.70 1.49
618.80 1.49
618.90 1.49
619.00 1.491
619.10 1.491
619.20 1.491
619.30 1.492
619.40 1.492
619.50 1.492
619.60 1.492
619.70 1.493
619.80 1.493
619.90 1.493
620.00 1.494
620.10 1.494
620.20 1.494
620.30 1.494
620.40 1.495
620.50 1.495
620.60 1.495
620.70 1.496
620.80 1.496
620.90 1.496
621.00 1.496
621.10 1.497
621.20 1.497
621.30 1.497
621.40 1.497
621.50 1.498
621.60 1.498
621.70 1.498
621.80 1.499
621.90 1.499
622.00 1.499
622.10 1.499
622.20 1.5
622.30 1.5
622.40 1.5
622.50 1.5
622.60 1.501
622.70 1.501
622.80 1.501
622.90 1.502
623.00 1.502
623.10 1.502
623.20 1.502
623.30 1.503
623.40 1.503
623.50 1.503
623.60 1.503
623.70 1.504
623.80 1.504
623.90 1.504
624.00 1.505
624.10 1.505
624.20 1.505
624.30 1.505
624.40 1.506
624.50 1.506
624.60 1.506
624.70 1.506
624.80 1.507
624.90 1.507
625.00 1.507
625.10 1.507
625.20 1.508
625.30 1.508
625.40 1.508
625.50 1.509
625.60 1.509
625.70 1.509
625.80 1.509
625.90 1.51
626.00 1.51
626.10 1.51
626.20 1.51
626.30 1.511
626.40 1.511
626.50 1.511
626.60 1.511
626.70 1.512
626.80 1.512
626.90 1.512
627.00 1.513
627.10 1.513
627.20 1.513
627.30 1.513
627.40 1.514
627.50 1.514
627.60 1.514
627.70 1.514
627.80 1.515
627.90 1.515
628.00 1.515
628.10 1.515
628.20 1.516
628.30 1.516
628.40 1.516
628.50 1.516
628.60 1.517
628.70 1.517
628.80 1.517
628.90 1.517
629.00 1.518
629.10 1.518
629.20 1.518
629.30 1.518
629.40 1.519
629.50 1.519
629.60 1.519
629.70 1.52
629.80 1.52
629.90 1.52
630.00 1.52
630.10 1.521
630.20 1.521
630.30 1.521
630.40 1.521
630.50 1.522
630.60 1.522
630.70 1.522
630.80 1.522
630.90 1.523
631.00 1.523
631.10 1.523
631.20 1.523
631.30 1.524
631.40 1.524
631.50 1.524
631.60 1.524
631.70 1.525
631.80 1.525
631.90 1.525
632.00 1.525
632.10 1.526
632.20 1.526
632.30 1.526
632.40 1.526
632.50 1.527
632.60 1.527
632.70 1.527
632.80 1.527
632.90 1.528
633.00 1.528
633.10 1.528
633.20 1.528
633.30 1.529
633.40 1.529
633.50 1.529
633.60 1.529
633.70 1.53
633.80 1.53
633.90 1.53
634.00 1.53
634.10 1.531
634.20 1.531
634.30 1.531
634.40 1.531
634.50 1.532
634.60 1.532
634.70 1.532
634.80 1.532
634.90 1.533
635.00 1.533
635.10 1.533
635.20 1.533
635.30 1.533
635.40 1.534
635.50 1.534
635.60 1.534
635.70 1.534
635.80 1.535
635.90 1.535
636.00 1.535
636.10 1.535
636.20 1.536
636.30 1.536
636.40 1.536
636.50 1.536
636.60 1.537
636.70 1.537
636.80 1.537
636.90 1.537
637.00 1.538
637.10 1.538
637.20 1.538
637.30 1.538
637.40 1.539
637.50 1.539
637.60 1.539
637.70 1.539
637.80 1.539
637.90 1.54
638.00 1.54
638.10 1.54
638.20 1.54
638.30 1.541
638.40 1.541
638.50 1.541
638.60 1.541
638.70 1.542
638.80 1.542
638.90 1.542
639.00 1.542
639.10 1.543
639.20 1.543
639.30 1.543
639.40 1.543
639.50 1.543
639.60 1.544
639.70 1.544
639.80 1.544
639.90 1.544
640.00 1.545
640.10 1.545
640.20 1.545
640.30 1.545
640.40 1.546
640.50 1.546
640.60 1.546
640.70 1.546
640.80 1.546
640.90 1.547
641.00 1.547
641.10 1.547
641.20 1.547
641.30 1.548
641.40 1.548
641.50 1.548
641.60 1.548
641.70 1.548
641.80 1.549
641.90 1.549
642.00 1.549
642.10 1.549
642.20 1.55
642.30 1.55
642.40 1.55
642.50 1.55
642.60 1.551
642.70 1.551
642.80 1.551
642.90 1.551
643.00 1.551
643.10 1.552
643.20 1.552
643.30 1.552
643.40 1.552
643.50 1.553
643.60 1.553
643.70 1.553
643.80 1.553
643.90 1.553
644.00 1.554
644.10 1.554
644.20 1.554
644.30 1.554
644.40 1.555
644.50 1.555
644.60 1.555
644.70 1.555
644.80 1.555
644.90 1.556
645.00 1.556
645.10 1.556
645.20 1.556
645.30 1.556
645.40 1.557
645.50 1.557
645.60 1.557
645.70 1.557
645.80 1.558
645.90 1.558
646.00 1.558
646.10 1.558
646.20 1.558
646.30 1.559
646.40 1.559
646.50 1.559
646.60 1.559
646.70 1.56
646.80 1.56
646.90 1.56
647.00 1.56
647.10 1.56
647.20 1.561
647.30 1.561
647.40 1.561
647.50 1.561
647.60 1.561
647.70 1.562
647.80 1.562
647.90 1.562
648.00 1.562
648.10 1.562
648.20 1.563
648.30 1.563
648.40 1.563
648.50 1.563
648.60 1.564
648.70 1.564
648.80 1.564
648.90 1.564
649.00 1.564
649.10 1.565
649.20 1.565
649.30 1.565
649.40 1.565
649.50 1.565
649.60 1.566
649.70 1.566
649.80 1.566
649.90 1.566
650.00 1.566
650.10 1.567
650.20 1.567
650.30 1.567
650.40 1.567
650.50 1.567
650.60 1.568
650.70 1.568
650.80 1.568
650.90 1.568
651.00 1.568
651.10 1.569
651.20 1.569
651.30 1.569
651.40 1.569
651.50 1.569
651.60 1.57
651.70 1.57
651.80 1.57
651.90 1.57
652.00 1.57
652.10 1.571
652.20 1.571
652.30 1.571
652.40 1.571
652.50 1.571
652.60 1.572
652.70 1.572
652.80 1.572
652.90 1.572
653.00 1.572
653.10 1.573
653.20 1.573
653.30 1.573
653.40 1.573
653.50 1.573
653.60 1.574
653.70 1.574
653.80 1.574
653.90 1.574
654.00 1.574
654.10 1.575
654.20 1.575
654.30 1.575
654.40 1.575
654.50 1.575
654.60 1.576
654.70 1.576
654.80 1.576
654.90 1.576
655.00 1.576
655.10 1.577
655.20 1.577
655.30 1.577
655.40 1.577
655.50 1.577
655.60 1.577
655.70 1.578
655.80 1.578
655.90 1.578
656.00 1.578
656.10 1.578
656.20 1.578
656.30 1.579
656.40 1.579
656.50 1.579
656.60 1.579
656.70 1.58
656.80 1.58
656.90 1.58
657.00 1.58
657.10 1.58
657.20 1.581
657.30 1.581
657.40 1.581
657.50 1.581
657.60 1.581
657.70 1.581
657.80 1.582
657.90 1.582
658.00 1.582
658.10 1.582
658.20 1.582
658.30 1.583
658.40 1.583
658.50 1.583
658.60 1.583
658.70 1.583
658.80 1.583
658.90 1.584
659.00 1.584
659.10 1.584
659.20 1.584
659.30 1.584
659.40 1.585
659.50 1.585
659.60 1.585
659.70 1.585
659.80 1.585
659.90 1.585
660.00 1.586
660.10 1.586
660.20 1.586
660.30 1.586
660.40 1.586
660.50 1.587
660.60 1.587
660.70 1.587
660.80 1.587
660.90 1.587
661.00 1.587
661.10 1.588
661.20 1.588
661.30 1.588
661.40 1.588
661.50 1.588
661.60 1.588
661.70 1.589
661.80 1.589
661.90 1.589
662.00 1.589
662.10 1.589
662.20 1.59
662.30 1.59
662.40 1.59
662.50 1.59
662.60 1.59
662.70 1.59
662.80 1.591
662.90 1.591
663.00 1.591
663.10 1.591
663.20 1.591
663.30 1.591
663.40 1.592
663.50 1.592
663.60 1.592
663.70 1.592
663.80 1.592
663.90 1.592
664.00 1.593
664.10 1.593
664.20 1.593
664.30 1.593
664.40 1.593
664.50 1.593
664.60 1.594
664.70 1.594
664.80 1.594
664.90 1.594
665.00 1.594
665.10 1.594
665.20 1.595
665.30 1.595
665.40 1.595
665.50 1.595
665.60 1.595
665.70 1.595
665.80 1.596
665.90 1.596
666.00 1.596
666.10 1.596
666.20 1.596
666.30 1.596
666.40 1.597
666.50 1.597
666.60 1.597
666.70 1.597
666.80 1.597
666.90 1.597
667.00 1.598
667.10 1.598
667.20 1.598
667.30 1.598
667.40 1.598
667.50 1.598
667.60 1.598
667.70 1.599
667.80 1.599
667.90 1.599
668.00 1.599
668.10 1.599
668.20 1.599
668.30 1.6
668.40 1.6
668.50 1.6
668.60 1.6
668.70 1.6
668.80 1.6
668.90 1.6
669.00 1.601
669.10 1.601
669.20 1.601
669.30 1.601
669.40 1.601
669.50 1.601
669.60 1.602
669.70 1.602
669.80 1.602
669.90 1.602
670.00 1.602
670.10 1.602
670.20 1.602
670.30 1.603
670.40 1.603
670.50 1.603
670.60 1.603
670.70 1.603
670.80 1.603
670.90 1.603
671.00 1.604
671.10 1.604
671.20 1.604
671.30 1.604
671.40 1.604
671.50 1.604
671.60 1.605
671.70 1.605
671.80 1.605
671.90 1.605
672.00 1.605
672.10 1.605
672.20 1.605
672.30 1.606
672.40 1.606
672.50 1.606
672.60 1.606
672.70 1.606
672.80 1.606
672.90 1.606
673.00 1.607
673.10 1.607
673.20 1.607
673.30 1.607
673.40 1.607
673.50 1.607
673.60 1.607
673.70 1.608
673.80 1.608
673.90 1.608
674.00 1.608
674.10 1.608
674.20 1.608
674.30 1.608
674.40 1.608
674.50 1.609
674.60 1.609
674.70 1.609
674.80 1.609
674.90 1.609
675.00 1.609
675.10 1.609
675.20 1.61
675.30 1.61
675.40 1.61
675.50 1.61
675.60 1.61
675.70 1.61
675.80 1.61
675.90 1.61
676.00 1.611
676.10 1.611
676.20 1.611
676.30 1.611
676.40 1.611
676.50 1.611
676.60 1.611
676.70 1.612
676.80 1.612
676.90 1.612
677.00 1.612
677.10 1.612
677.20 1.612
677.30 1.612
677.40 1.612
677.50 1.613
677.60 1.613
677.70 1.613
677.80 1.613
677.90 1.613
678.00 1.613
678.10 1.613
678.20 1.613
678.30 1.614
678.40 1.614
678.50 1.614
678.60 1.614
678.70 1.614
678.80 1.614
678.90 1.614
679.00 1.614
679.10 1.615
679.20 1.615
679.30 1.615
679.40 1.615
679.50 1.615
679.60 1.615
679.70 1.615
679.80 1.615
679.90 1.616
680.00 1.616
680.10 1.616
680.20 1.616
680.30 1.616
680.40 1.616
680.50 1.616
680.60 1.616
680.70 1.616
680.80 1.617
680.90 1.617
681.00 1.617
681.10 1.617
681.20 1.617
681.30 1.617
681.40 1.617
681.50 1.617
681.60 1.618
681.70 1.618
681.80 1.618
681.90 1.618
682.00 1.618
682.10 1.618
682.20 1.618
682.30 1.618
682.40 1.618
682.50 1.619
682.60 1.619
682.70 1.619
682.80 1.619
682.90 1.619
683.00 1.619
683.10 1.619
683.20 1.619
683.30 1.619
683.40 1.619
683.50 1.62
683.60 1.62
683.70 1.62
683.80 1.62
683.90 1.62
684.00 1.62
684.10 1.62
684.20 1.62
684.30 1.62
684.40 1.621
684.50 1.621
684.60 1.621
684.70 1.621
684.80 1.621
684.90 1.621
685.00 1.621
685.10 1.621
685.20 1.621
685.30 1.621
685.40 1.622
685.50 1.622
685.60 1.622
685.70 1.622
685.80 1.622
685.90 1.622
686.00 1.622
686.10 1.622
686.20 1.622
686.30 1.622
686.40 1.623
686.50 1.623
686.60 1.623
686.70 1.623
686.80 1.623
686.90 1.623
687.00 1.623
687.10 1.623
687.20 1.623
687.30 1.623
687.40 1.623
687.50 1.624
687.60 1.624
687.70 1.624
687.80 1.624
687.90 1.624
688.00 1.624
688.10 1.624
688.20 1.624
688.30 1.624
688.40 1.624
688.50 1.624
688.60 1.625
688.70 1.625
688.80 1.625
688.90 1.625
689.00 1.625
689.10 1.625
689.20 1.625
689.30 1.625
689.40 1.625
689.50 1.625
689.60 1.625
689.70 1.626
689.80 1.626
689.90 1.626
690.00 1.626
690.10 1.626
690.20 1.626
690.30 1.626
690.40 1.626
690.50 1.626
690.60 1.626
690.70 1.626
690.80 1.626
690.90 1.626
691.00 1.626
691.10 1.627
691.20 1.627
691.30 1.627
691.40 1.627
691.50 1.627
691.60 1.627
691.70 1.627
691.80 1.627
691.90 1.627
692.00 1.627
692.10 1.627
692.20 1.627
692.30 1.627
692.40 1.627
692.50 1.628
692.60 1.628
692.70 1.628
692.80 1.628
692.90 1.628
693.00 1.628
693.10 1.628
693.20 1.628
693.30 1.628
693.40 1.628
693.50 1.628
693.60 1.628
693.70 1.628
693.80 1.628
693.90 1.629
694.00 1.629
694.10 1.629
694.20 1.629
694.30 1.629
694.40 1.629
694.50 1.629
694.60 1.629
694.70 1.629
694.80 1.629
694.90 1.629
695.00 1.629
695.10 1.629
695.20 1.629
695.30 1.629
695.40 1.63
695.50 1.63
695.60 1.63
695.70 1.63
695.80 1.63
695.90 1.63
696.00 1.63
696.10 1.63
696.20 1.63
696.30 1.63
696.40 1.63
696.50 1.63
696.60 1.63
696.70 1.63
696.80 1.63
696.90 1.63
697.00 1.63
697.10 1.63
697.20 1.631
697.30 1.631
697.40 1.631
697.50 1.631
697.60 1.631
697.70 1.631
697.80 1.631
697.90 1.631
698.00 1.631
698.10 1.631
698.20 1.631
698.30 1.631
698.40 1.631
698.50 1.631
698.60 1.631
698.70 1.631
698.80 1.631
698.90 1.631
699.00 1.631
699.10 1.631
699.20 1.632
699.30 1.632
699.40 1.632
699.50 1.632
699.60 1.632
699.70 1.632
699.80 1.632
699.90 1.632
700.00 1.632
700.10 1.632
700.20 1.632
700.30 1.632
700.40 1.632
700.50 1.632
700.60 1.632
700.70 1.632
700.80 1.632
700.90 1.632
701.00 1.632
701.10 1.632
701.20 1.632
701.30 1.632
701.40 1.632
701.50 1.632
701.60 1.632
701.70 1.632
701.80 1.633
701.90 1.633
702.00 1.633
702.10 1.633
702.20 1.633
702.30 1.633
702.40 1.633
702.50 1.633
702.60 1.633
702.70 1.633
702.80 1.633
702.90 1.633
703.00 1.633
703.10 1.633
703.20 1.633
703.30 1.633
703.40 1.633
703.50 1.633
703.60 1.633
703.70 1.633
703.80 1.633
703.90 1.633
704.00 1.633
704.10 1.633
704.20 1.633
704.30 1.633
704.40 1.633
704.50 1.633
704.60 1.633
704.70 1.633
704.80 1.633
704.90 1.633
705.00 1.634
705.10 1.634
705.20 1.634
705.30 1.634
705.40 1.634
705.50 1.634
705.60 1.634
705.70 1.634
705.80 1.634
705.90 1.634
706.00 1.634
706.10 1.634
706.20 1.634
706.30 1.634
706.40 1.634
706.50 1.634
706.60 1.634
706.70 1.634
706.80 1.634
706.90 1.634
707.00 1.634
707.10 1.634
707.20 1.634
707.30 1.634
707.40 1.634
707.50 1.634
707.60 1.634
707.70 1.634
707.80 1.634
707.90 1.634
708.00 1.634
708.10 1.634
708.20 1.634
708.30 1.634
708.40 1.634
708.50 1.634
708.60 1.634
708.70 1.634
708.80 1.634
708.90 1.634
709.00 1.634
709.10 1.634
709.20 1.634
709.30 1.634
709.40 1.634
709.50 1.634
709.60 1.634
709.70 1.634
709.80 1.634
709.90 1.634
710.00 1.634
710.10 1.634
710.20 1.634
710.30 1.634
710.40 1.634
710.50 1.634
710.60 1.634
710.70 1.634
710.80 1.634
710.90 1.634
711.00 1.634
711.10 1.634
711.20 1.634
711.30 1.634
711.40 1.634
711.50 1.634
711.60 1.634
711.70 1.634
711.80 1.634
711.90 1.634
712.00 1.634
712.10 1.634
712.20 1.634
712.30 1.634
712.40 1.634
712.50 1.634
712.60 1.634
712.70 1.634
712.80 1.634
712.90 1.634
713.00 1.634
713.10 1.634
713.20 1.634
713.30 1.634
713.40 1.634
713.50 1.634
713.60 1.634
713.70 1.634
713.80 1.634
713.90 1.634
714.00 1.634
714.10 1.634
714.20 1.634
714.30 1.634
714.40 1.634
714.50 1.634
714.60 1.634
714.70 1.634
714.80 1.634
714.90 1.634
715.00 1.633
715.10 1.633
715.20 1.633
715.30 1.633
715.40 1.633
715.50 1.633
715.60 1.633
715.70 1.633
715.80 1.633
715.90 1.633
716.00 1.633
716.10 1.633
716.20 1.633
716.30 1.633
716.40 1.633
716.50 1.633
716.60 1.633
716.70 1.633
716.80 1.633
716.90 1.633
717.00 1.633
717.10 1.633
717.20 1.633
717.30 1.633
717.40 1.633
717.50 1.633
717.60 1.633
717.70 1.633
717.80 1.633
717.90 1.633
718.00 1.633
718.10 1.633
718.20 1.633
718.30 1.633
718.40 1.633
718.50 1.633
718.60 1.633
718.70 1.632
718.80 1.632
718.90 1.632
719.00 1.632
719.10 1.632
719.20 1.632
719.30 1.632
719.40 1.632
719.50 1.632
719.60 1.632
719.70 1.632
719.80 1.632
719.90 1.632
720.00 1.632
720.10 1.632
720.20 1.632
720.30 1.632
720.40 1.632
720.50 1.632
720.60 1.632
720.70 1.632
720.80 1.632
720.90 1.632
721.00 1.632
721.10 1.632
721.20 1.632
721.30 1.632
721.40 1.631
721.50 1.631
721.60 1.631
721.70 1.631
721.80 1.631
721.90 1.631
722.00 1.631
722.10 1.631
722.20 1.631
722.30 1.631
722.40 1.631
722.50 1.631
722.60 1.631
722.70 1.631
722.80 1.631
722.90 1.631
723.00 1.631
723.10 1.631
723.20 1.631
723.30 1.631
723.40 1.631
723.50 1.631
723.60 1.631
723.70 1.63
723.80 1.63
723.90 1.63
724.00 1.63
724.10 1.63
724.20 1.63
724.30 1.63
724.40 1.63
724.50 1.63
724.60 1.63
724.70 1.63
724.80 1.63
724.90 1.63
725.00 1.63
725.10 1.63
725.20 1.63
725.30 1.63
725.40 1.63
725.50 1.63
725.60 1.63
725.70 1.63
725.80 1.629
725.90 1.629
726.00 1.629
726.10 1.629
726.20 1.629
726.30 1.629
726.40 1.629
726.50 1.629
726.60 1.629
726.70 1.629
726.80 1.629
726.90 1.629
727.00 1.629
727.10 1.629
727.20 1.629
727.30 1.629
727.40 1.629
727.50 1.629
727.60 1.628
727.70 1.628
727.80 1.628
727.90 1.628
728.00 1.628
728.10 1.628
728.20 1.628
728.30 1.628
728.40 1.628
728.50 1.628
728.60 1.628
728.70 1.628
728.80 1.628
728.90 1.628
729.00 1.628
729.10 1.628
729.20 1.628
729.30 1.628
729.40 1.627
729.50 1.627
729.60 1.627
729.70 1.627
729.80 1.627
729.90 1.627
730.00 1.627
730.10 1.627
730.20 1.627
730.30 1.627
730.40 1.627
730.50 1.627
730.60 1.627
730.70 1.627
730.80 1.627
730.90 1.627
731.00 1.627
731.10 1.626
731.20 1.626
731.30 1.626
731.40 1.626
731.50 1.626
731.60 1.626
731.70 1.626
731.80 1.626
731.90 1.626
732.00 1.626
732.10 1.626
732.20 1.626
732.30 1.626
732.40 1.626
732.50 1.626
732.60 1.626
732.70 1.626
732.80 1.625
732.90 1.625
733.00 1.625
733.10 1.625
733.20 1.625
733.30 1.625
733.40 1.625
733.50 1.625
733.60 1.625
733.70 1.625
733.80 1.625
733.90 1.625
734.00 1.625
734.10 1.625
734.20 1.625
734.30 1.625
734.40 1.625
734.50 1.624
734.60 1.624
734.70 1.624
734.80 1.624
734.90 1.624
735.00 1.624
735.10 1.624
735.20 1.624
735.30 1.624
735.40 1.624
735.50 1.624
735.60 1.624
735.70 1.624
735.80 1.624
735.90 1.624
736.00 1.624
736.10 1.623
736.20 1.623
736.30 1.623
736.40 1.623
736.50 1.623
736.60 1.623
736.70 1.623
736.80 1.623
736.90 1.623
737.00 1.623
737.10 1.623
737.20 1.623
737.30 1.623
737.40 1.623
737.50 1.623
737.60 1.623
737.70 1.622
737.80 1.622
737.90 1.622
738.00 1.622
738.10 1.622
738.20 1.622
738.30 1.622
738.40 1.622
738.50 1.622
738.60 1.622
738.70 1.622
738.80 1.622
738.90 1.622
739.00 1.622
739.10 1.622
739.20 1.622
739.30 1.622
739.40 1.621
739.50 1.621
739.60 1.621
739.70 1.621
739.80 1.621
739.90 1.621
740.00 1.621
740.10 1.621
740.20 1.621
740.30 1.621
740.40 1.621
740.50 1.621
740.60 1.621
740.70 1.621
740.80 1.621
740.90 1.621
741.00 1.621
741.10 1.62
741.20 1.62
741.30 1.62
741.40 1.62
741.50 1.62
741.60 1.62
741.70 1.62
741.80 1.62
741.90 1.62
742.00 1.62
742.10 1.62
742.20 1.62
742.30 1.62
742.40 1.62
742.50 1.62
742.60 1.62
742.70 1.62
742.80 1.62
742.90 1.619
743.00 1.619
743.10 1.619
743.20 1.619
743.30 1.619
743.40 1.619
743.50 1.619
743.60 1.619
743.70 1.619
743.80 1.619
743.90 1.619
744.00 1.619
744.10 1.619
744.20 1.619
744.30 1.619
744.40 1.619
744.50 1.619
744.60 1.618
744.70 1.618
744.80 1.618
744.90 1.618
745.00 1.618
745.10 1.618
745.20 1.618
745.30 1.618
745.40 1.618
745.50 1.618
745.60 1.618
745.70 1.618
745.80 1.618
745.90 1.618
746.00 1.618
746.10 1.618
746.20 1.618
746.30 1.618
746.40 1.617
746.50 1.617
746.60 1.617
746.70 1.617
746.80 1.617
746.90 1.617
747.00 1.617
747.10 1.617
747.20 1.617
747.30 1.617
747.40 1.617
747.50 1.617
747.60 1.617
747.70 1.617
747.80 1.617
747.90 1.617
748.00 1.617
748.10 1.616
748.20 1.616
748.30 1.616
748.40 1.616
748.50 1.616
748.60 1.616
748.70 1.616
748.80 1.616
748.90 1.616
749.00 1.616
749.10 1.616
749.20 1.616
749.30 1.616
749.40 1.616
749.50 1.616
749.60 1.616
749.70 1.616
749.80 1.616
749.90 1.615
750.00 1.615
750.10 1.615
750.20 1.615
750.30 1.615
750.40 1.615
750.50 1.615
750.60 1.615
750.70 1.615
750.80 1.615
750.90 1.615
751.00 1.615
751.10 1.615
751.20 1.615
751.30 1.615
751.40 1.615
751.50 1.615
751.60 1.615
751.70 1.614
751.80 1.614
751.90 1.614
752.00 1.614
752.10 1.614
752.20 1.614
752.30 1.614
752.40 1.614
752.50 1.614
752.60 1.614
752.70 1.614
752.80 1.614
752.90 1.614
753.00 1.614
753.10 1.614
753.20 1.614
753.30 1.614
753.40 1.614
753.50 1.613
753.60 1.613
753.70 1.613
753.80 1.613
753.90 1.613
754.00 1.613
754.10 1.613
754.20 1.613
754.30 1.613
754.40 1.613
754.50 1.613
754.60 1.613
754.70 1.613
754.80 1.613
754.90 1.613
755.00 1.613
755.10 1.613
755.20 1.613
755.30 1.612
755.40 1.612
755.50 1.612
755.60 1.612
755.70 1.612
755.80 1.612
755.90 1.612
756.00 1.612
756.10 1.612
756.20 1.612
756.30 1.612
756.40 1.612
756.50 1.612
756.60 1.612
756.70 1.612
756.80 1.612
756.90 1.612
757.00 1.612
757.10 1.611
757.20 1.611
757.30 1.611
757.40 1.611
757.50 1.611
757.60 1.611
757.70 1.611
757.80 1.611
757.90 1.611
758.00 1.611
758.10 1.611
758.20 1.611
758.30 1.611
758.40 1.611
758.50 1.611
758.60 1.611
758.70 1.611
758.80 1.611
758.90 1.61
759.00 1.61
759.10 1.61
759.20 1.61
759.30 1.61
759.40 1.61
759.50 1.61
759.60 1.61
759.70 1.61
759.80 1.61
759.90 1.61
760.00 1.61
760.10 1.61
760.20 1.61
760.30 1.61
760.40 1.61
760.50 1.61
760.60 1.609
760.70 1.609
760.80 1.609
760.90 1.609
761.00 1.609
761.10 1.609
761.20 1.609
761.30 1.609
761.40 1.609
761.50 1.609
761.60 1.609
761.70 1.609
761.80 1.609
761.90 1.609
762.00 1.609
762.10 1.609
762.20 1.609
762.30 1.609
762.40 1.608
762.50 1.608
762.60 1.608
762.70 1.608
762.80 1.608
762.90 1.608
763.00 1.608
763.10 1.608
763.20 1.608
763.30 1.608
763.40 1.608
763.50 1.608
763.60 1.608
763.70 1.608
763.80 1.608
763.90 1.608
764.00 1.608
764.10 1.608
764.20 1.607
764.30 1.607
764.40 1.607
764.50 1.607
764.60 1.607
764.70 1.607
764.80 1.607
764.90 1.607
765.00 1.607
765.10 1.607
765.20 1.607
765.30 1.607
765.40 1.607
765.50 1.607
765.60 1.607
765.70 1.607
765.80 1.607
765.90 1.606
766.00 1.606
766.10 1.606
766.20 1.606
766.30 1.606
766.40 1.606
766.50 1.606
766.60 1.606
766.70 1.606
766.80 1.606
766.90 1.606
767.00 1.606
767.10 1.606
767.20 1.606
767.30 1.606
767.40 1.606
767.50 1.606
767.60 1.606
767.70 1.605
767.80 1.605
767.90 1.605
768.00 1.605
768.10 1.605
768.20 1.605
768.30 1.605
768.40 1.605
768.50 1.605
768.60 1.605
768.70 1.605
768.80 1.605
768.90 1.605
769.00 1.605
769.10 1.605
769.20 1.605
769.30 1.605
769.40 1.604
769.50 1.604
769.60 1.604
769.70 1.604
769.80 1.604
769.90 1.604
770.00 1.604
770.10 1.604
770.20 1.604
770.30 1.604
770.40 1.604
770.50 1.604
770.60 1.604
770.70 1.604
770.80 1.604
770.90 1.604
771.00 1.604
771.10 1.604
771.20 1.604
771.30 1.603
771.40 1.603
771.50 1.603
771.60 1.603
771.70 1.603
771.80 1.603
771.90 1.603
772.00 1.603
772.10 1.603
772.20 1.603
772.30 1.603
772.40 1.603
772.50 1.603
772.60 1.603
772.70 1.603
772.80 1.603
772.90 1.603
773.00 1.603
773.10 1.603
773.20 1.602
773.30 1.602
773.40 1.602
773.50 1.602
773.60 1.602
773.70 1.602
773.80 1.602
773.90 1.602
774.00 1.602
774.10 1.602
774.20 1.602
774.30 1.602
774.40 1.602
774.50 1.602
774.60 1.602
774.70 1.602
774.80 1.602
774.90 1.602
775.00 1.602
775.10 1.602
775.20 1.601
775.30 1.601
775.40 1.601
775.50 1.601
775.60 1.601
775.70 1.601
775.80 1.601
775.90 1.601
776.00 1.601
776.10 1.601
776.20 1.601
776.30 1.601
776.40 1.601
776.50 1.601
776.60 1.601
776.70 1.601
776.80 1.601
776.90 1.601
777.00 1.601
777.10 1.6
777.20 1.6
777.30 1.6
777.40 1.6
777.50 1.6
777.60 1.6
777.70 1.6
777.80 1.6
777.90 1.6
778.00 1.6
778.10 1.6
778.20 1.6
778.30 1.6
778.40 1.6
778.50 1.6
778.60 1.6
778.70 1.6
778.80 1.6
778.90 1.6
779.00 1.599
779.10 1.599
779.20 1.599
779.30 1.599
779.40 1.599
779.50 1.599
779.60 1.599
779.70 1.599
779.80 1.599
779.90 1.599
780.00 1.599
780.10 1.599
780.20 1.599
780.30 1.599
780.40 1.599
780.50 1.599
780.60 1.599
780.70 1.599
780.80 1.599
780.90 1.599
781.00 1.599
781.10 1.598
781.20 1.598
781.30 1.598
781.40 1.598
781.50 1.598
781.60 1.598
781.70 1.598
781.80 1.598
781.90 1.598
782.00 1.598
782.10 1.598
782.20 1.598
782.30 1.598
782.40 1.598
782.50 1.598
782.60 1.598
782.70 1.598
782.80 1.598
782.90 1.598
783.00 1.598
783.10 1.598
783.20 1.598
783.30 1.598
783.40 1.598
783.50 1.598
783.60 1.597
783.70 1.597
783.80 1.597
783.90 1.597
784.00 1.597
784.10 1.597
784.20 1.597
784.30 1.597
784.40 1.597
784.50 1.597
784.60 1.597
784.70 1.597
784.80 1.597
784.90 1.597
785.00 1.597
785.10 1.597
785.20 1.597
785.30 1.597
785.40 1.597
785.50 1.597
785.60 1.597
785.70 1.597
785.80 1.597
785.90 1.597
786.00 1.596
786.10 1.596
786.20 1.596
786.30 1.596
786.40 1.596
786.50 1.596
786.60 1.596
786.70 1.596
786.80 1.596
786.90 1.596
787.00 1.596
787.10 1.596
787.20 1.596
787.30 1.596
787.40 1.596
787.50 1.596
787.60 1.596
787.70 1.596
787.80 1.596
787.90 1.596
788.00 1.596
788.10 1.596
788.20 1.596
788.30 1.596
788.40 1.595
788.50 1.595
788.60 1.595
788.70 1.595
788.80 1.595
788.90 1.595
789.00 1.595
789.10 1.595
789.20 1.595
789.30 1.595
789.40 1.595
789.50 1.595
789.60 1.595
789.70 1.595
789.80 1.595
789.90 1.595
790.00 1.595
790.10 1.595
790.20 1.595
790.30 1.595
790.40 1.595
790.50 1.595
790.60 1.595
790.70 1.594
790.80 1.594
790.90 1.594
791.00 1.594
791.10 1.594
791.20 1.594
791.30 1.594
791.40 1.594
791.50 1.594
791.60 1.594
791.70 1.594
791.80 1.594
791.90 1.594
792.00 1.594
792.10 1.594
792.20 1.594
792.30 1.594
792.40 1.594
792.50 1.594
792.60 1.594
792.70 1.594
792.80 1.594
792.90 1.593
793.00 1.593
793.10 1.593
793.20 1.593
793.30 1.593
793.40 1.593
793.50 1.593
793.60 1.593
793.70 1.593
793.80 1.593
793.90 1.593
794.00 1.593
794.10 1.593
794.20 1.593
794.30 1.593
794.40 1.593
794.50 1.593
794.60 1.593
794.70 1.593
794.80 1.593
794.90 1.593
795.00 1.593
795.10 1.592
795.20 1.592
795.30 1.592
795.40 1.592
795.50 1.592
795.60 1.592
795.70 1.592
795.80 1.592
795.90 1.592
796.00 1.592
796.10 1.592
796.20 1.592
796.30 1.592
796.40 1.592
796.50 1.592
796.60 1.592
796.70 1.592
796.80 1.592
796.90 1.592
797.00 1.592
797.10 1.592
797.20 1.592
797.30 1.591
797.40 1.591
797.50 1.591
797.60 1.591
797.70 1.591
797.80 1.591
797.90 1.591
798.00 1.591
798.10 1.591
798.20 1.591
798.30 1.591
798.40 1.591
798.50 1.591
798.60 1.591
798.70 1.591
798.80 1.591
798.90 1.591
799.00 1.591
799.10 1.591
799.20 1.591
799.30 1.591
799.40 1.591
799.50 1.59
799.60 1.59
799.70 1.59
799.80 1.59
799.90 1.59
800.00 1.59
800.10 1.59
800.20 1.59
800.30 1.59
800.40 1.59
800.50 1.59
800.60 1.59
800.70 1.59
800.80 1.59
800.90 1.59
801.00 1.59
801.10 1.589
801.20 1.589
801.30 1.589
801.40 1.589
801.50 1.589
801.60 1.589
801.70 1.589
801.80 1.589
801.90 1.589
802.00 1.589
802.10 1.589
802.20 1.589
802.30 1.589
802.40 1.589
802.50 1.588
802.60 1.588
802.70 1.588
802.80 1.588
802.90 1.588
803.00 1.588
803.10 1.588
803.20 1.588
803.30 1.588
803.40 1.588
803.50 1.588
803.60 1.588
803.70 1.588
803.80 1.588
803.90 1.587
804.00 1.587
804.10 1.587
804.20 1.587
804.30 1.587
804.40 1.587
804.50 1.587
804.60 1.587
804.70 1.587
804.80 1.587
804.90 1.587
805.00 1.587
805.10 1.587
805.20 1.587
805.30 1.586
805.40 1.586
805.50 1.586
805.60 1.586
805.70 1.586
805.80 1.586
805.90 1.586
806.00 1.586
806.10 1.586
806.20 1.586
806.30 1.586
806.40 1.586
806.50 1.586
806.60 1.586
806.70 1.585
806.80 1.585
806.90 1.585
807.00 1.585
807.10 1.585
807.20 1.585
807.30 1.585
807.40 1.585
807.50 1.585
807.60 1.585
807.70 1.585
807.80 1.585
807.90 1.585
808.00 1.584
808.10 1.584
808.20 1.584
808.30 1.584
808.40 1.584
808.50 1.584
808.60 1.584
808.70 1.584
808.80 1.584
808.90 1.584
809.00 1.584
809.10 1.584
809.20 1.584
809.30 1.584
809.40 1.583
809.50 1.583
809.60 1.583
809.70 1.583
809.80 1.583
809.90 1.583
810.00 1.583
810.10 1.583
810.20 1.583
810.30 1.583
810.40 1.583
810.50 1.583
810.60 1.582
810.70 1.582
810.80 1.582
810.90 1.582
811.00 1.582
811.10 1.582
811.20 1.582
811.30 1.582
811.40 1.582
811.50 1.581
811.60 1.581
811.70 1.581
811.80 1.581
811.90 1.581
812.00 1.581
812.10 1.581
812.20 1.581
812.30 1.581
812.40 1.581
812.50 1.58
812.60 1.58
812.70 1.58
812.80 1.58
812.90 1.58
813.00 1.58
813.10 1.58
813.20 1.58
813.30 1.58
813.40 1.579
813.50 1.579
813.60 1.579
813.70 1.579
813.80 1.579
813.90 1.579
814.00 1.579
814.10 1.579
814.20 1.579
814.30 1.579
814.40 1.578
814.50 1.578
814.60 1.578
814.70 1.578
814.80 1.578
814.90 1.578
815.00 1.578
815.10 1.578
815.20 1.578
815.30 1.577
815.40 1.577
815.50 1.577
815.60 1.577
815.70 1.577
815.80 1.577
815.90 1.577
816.00 1.577
816.10 1.577
816.20 1.577
816.30 1.576
816.40 1.576
816.50 1.576
816.60 1.576
816.70 1.576
816.80 1.576
816.90 1.576
817.00 1.576
817.10 1.576
817.20 1.576
817.30 1.575
817.40 1.575
817.50 1.575
817.60 1.575
817.70 1.575
817.80 1.575
817.90 1.575
818.00 1.575
818.10 1.575
818.20 1.574
818.30 1.574
818.40 1.574
818.50 1.574
818.60 1.574
818.70 1.574
818.80 1.574
818.90 1.574
819.00 1.574
819.10 1.574
819.20 1.573
819.30 1.573
819.40 1.573
819.50 1.573
819.60 1.573
819.70 1.573
819.80 1.573
819.90 1.573
820.00 1.573
820.10 1.573
820.20 1.572
820.30 1.572
820.40 1.572
820.50 1.572
820.60 1.572
820.70 1.572
820.80 1.572
820.90 1.572
821.00 1.571
821.10 1.571
821.20 1.571
821.30 1.571
821.40 1.571
821.50 1.571
821.60 1.571
821.70 1.571
821.80 1.571
821.90 1.57
822.00 1.57
822.10 1.57
822.20 1.57
822.30 1.57
822.40 1.57
822.50 1.57
822.60 1.569
822.70 1.569
822.80 1.569
822.90 1.569
823.00 1.569
823.10 1.569
823.20 1.569
823.30 1.569
823.40 1.568
823.50 1.568
823.60 1.568
823.70 1.568
823.80 1.568
823.90 1.568
824.00 1.568
824.10 1.568
824.20 1.567
824.30 1.567
824.40 1.567
824.50 1.567
824.60 1.567
824.70 1.567
824.80 1.567
824.90 1.567
825.00 1.566
825.10 1.566
825.20 1.566
825.30 1.566
825.40 1.566
825.50 1.566
825.60 1.566
825.70 1.565
825.80 1.565
825.90 1.565
826.00 1.565
826.10 1.565
826.20 1.565
826.30 1.565
826.40 1.565
826.50 1.564
826.60 1.564
826.70 1.564
826.80 1.564
826.90 1.564
827.00 1.564
827.10 1.564
827.20 1.564
827.30 1.563
827.40 1.563
827.50 1.563
827.60 1.563
827.70 1.563
827.80 1.563
827.90 1.563
828.00 1.562
828.10 1.562
828.20 1.562
828.30 1.562
828.40 1.562
828.50 1.562
828.60 1.562
828.70 1.561
828.80 1.561
828.90 1.561
829.00 1.561
829.10 1.561
829.20 1.561
829.30 1.561
829.40 1.56
829.50 1.56
829.60 1.56
829.70 1.56
829.80 1.56
829.90 1.56
830.00 1.56
830.10 1.56
830.20 1.559
830.30 1.559
830.40 1.559
830.50 1.559
830.60 1.559
830.70 1.559
830.80 1.559
830.90 1.558
831.00 1.558
831.10 1.558
831.20 1.558
831.30 1.558
831.40 1.558
831.50 1.558
831.60 1.557
831.70 1.557
831.80 1.557
831.90 1.557
832.00 1.557
832.10 1.557
832.20 1.557
832.30 1.556
832.40 1.556
832.50 1.556
832.60 1.556
832.70 1.556
832.80 1.556
832.90 1.556
833.00 1.555
833.10 1.555
833.20 1.555
833.30 1.555
833.40 1.555
833.50 1.555
833.60 1.555
833.70 1.554
833.80 1.554
833.90 1.554
834.00 1.554
834.10 1.554
834.20 1.554
834.30 1.553
834.40 1.553
834.50 1.553
834.60 1.553
834.70 1.553
834.80 1.553
834.90 1.553
835.00 1.552
835.10 1.552
835.20 1.552
835.30 1.552
835.40 1.552
835.50 1.552
835.60 1.552
835.70 1.551
835.80 1.551
835.90 1.551
836.00 1.551
836.10 1.551
836.20 1.551
836.30 1.551
836.40 1.55
836.50 1.55
836.60 1.55
836.70 1.55
836.80 1.55
836.90 1.55
837.00 1.549
837.10 1.549
837.20 1.549
837.30 1.549
837.40 1.549
837.50 1.549
837.60 1.549
837.70 1.548
837.80 1.548
837.90 1.548
838.00 1.548
838.10 1.548
838.20 1.548
838.30 1.547
838.40 1.547
838.50 1.547
838.60 1.547
838.70 1.547
838.80 1.547
838.90 1.546
839.00 1.546
839.10 1.546
839.20 1.546
839.30 1.546
839.40 1.546
839.50 1.545
839.60 1.545
839.70 1.545
839.80 1.545
839.90 1.545
840.00 1.545
840.10 1.545
840.20 1.544
840.30 1.544
840.40 1.544
840.50 1.544
840.60 1.544
840.70 1.544
840.80 1.543
840.90 1.543
841.00 1.543
841.10 1.543
841.20 1.543
841.30 1.543
841.40 1.542
841.50 1.542
841.60 1.542
841.70 1.542
841.80 1.542
841.90 1.542
842.00 1.542
842.10 1.541
842.20 1.541
842.30 1.541
842.40 1.541
842.50 1.541
842.60 1.541
842.70 1.54
842.80 1.54
842.90 1.54
843.00 1.54
843.10 1.54
843.20 1.539
843.30 1.539
843.40 1.539
843.50 1.539
843.60 1.539
843.70 1.539
843.80 1.538
843.90 1.538
844.00 1.538
844.10 1.538
844.20 1.538
844.30 1.538
844.40 1.537
844.50 1.537
844.60 1.537
844.70 1.537
844.80 1.537
844.90 1.537
845.00 1.536
845.10 1.536
845.20 1.536
845.30 1.536
845.40 1.536
845.50 1.536
845.60 1.535
845.70 1.535
845.80 1.535
845.90 1.535
846.00 1.535
846.10 1.535
846.20 1.534
846.30 1.534
846.40 1.534
846.50 1.534
846.60 1.534
846.70 1.534
846.80 1.533
846.90 1.533
847.00 1.533
847.10 1.533
847.20 1.533
847.30 1.533
847.40 1.532
847.50 1.532
847.60 1.532
847.70 1.532
847.80 1.532
847.90 1.531
848.00 1.531
848.10 1.531
848.20 1.531
848.30 1.531
848.40 1.531
848.50 1.53
848.60 1.53
848.70 1.53
848.80 1.53
848.90 1.53
849.00 1.53
849.10 1.529
849.20 1.529
849.30 1.529
849.40 1.529
849.50 1.529
849.60 1.528
849.70 1.528
849.80 1.528
849.90 1.528
850.00 1.528
850.10 1.528
850.20 1.527
850.30 1.527
850.40 1.527
850.50 1.527
850.60 1.527
850.70 1.526
850.80 1.526
850.90 1.526
851.00 1.526
851.10 1.526
851.20 1.526
851.30 1.525
851.40 1.525
851.50 1.525
851.60 1.525
851.70 1.525
851.80 1.525
851.90 1.524
852.00 1.524
852.10 1.524
852.20 1.524
852.30 1.524
852.40 1.523
852.50 1.523
852.60 1.523
852.70 1.523
852.80 1.523
852.90 1.522
853.00 1.522
853.10 1.522
853.20 1.522
853.30 1.522
853.40 1.522
853.50 1.521
853.60 1.521
853.70 1.521
853.80 1.521
853.90 1.521
854.00 1.52
854.10 1.52
854.20 1.52
854.30 1.52
854.40 1.52
854.50 1.519
854.60 1.519
854.70 1.519
854.80 1.519
854.90 1.519
855.00 1.519
855.10 1.518
855.20 1.518
855.30 1.518
855.40 1.518
855.50 1.518
855.60 1.517
855.70 1.517
855.80 1.517
855.90 1.517
856.00 1.517
856.10 1.517
856.20 1.516
856.30 1.516
856.40 1.516
856.50 1.516
856.60 1.516
856.70 1.515
856.80 1.515
856.90 1.515
857.00 1.515
857.10 1.515
857.20 1.514
857.30 1.514
857.40 1.514
857.50 1.514
857.60 1.514
857.70 1.513
857.80 1.513
857.90 1.513
858.00 1.513
858.10 1.513
858.20 1.512
858.30 1.512
858.40 1.512
858.50 1.512
858.60 1.512
858.70 1.511
858.80 1.511
858.90 1.511
859.00 1.511
859.10 1.511
859.20 1.51
859.30 1.51
859.40 1.51
859.50 1.51
859.60 1.51
859.70 1.509
859.80 1.509
859.90 1.509
860.00 1.509
860.10 1.509
860.20 1.508
860.30 1.508
860.40 1.508
860.50 1.508
860.60 1.508
860.70 1.507
860.80 1.507
860.90 1.507
861.00 1.507
861.10 1.507
861.20 1.507
861.30 1.506
861.40 1.506
861.50 1.506
861.60 1.506
861.70 1.506
861.80 1.505
861.90 1.505
862.00 1.505
862.10 1.505
862.20 1.505
862.30 1.504
862.40 1.504
862.50 1.504
862.60 1.504
862.70 1.503
862.80 1.503
862.90 1.503
863.00 1.503
863.10 1.503
863.20 1.502
863.30 1.502
863.40 1.502
863.50 1.502
863.60 1.502
863.70 1.501
863.80 1.501
863.90 1.501
864.00 1.501
864.10 1.501
864.20 1.5
864.30 1.5
864.40 1.5
864.50 1.5
864.60 1.5
864.70 1.499
864.80 1.499
864.90 1.499
865.00 1.499
865.10 1.498
865.20 1.498
865.30 1.498
865.40 1.498
865.50 1.498
865.60 1.497
865.70 1.497
865.80 1.497
865.90 1.497
866.00 1.497
866.10 1.496
866.20 1.496
866.30 1.496
866.40 1.496
866.50 1.496
866.60 1.495
866.70 1.495
866.80 1.495
866.90 1.495
867.00 1.495
867.10 1.494
867.20 1.494
867.30 1.494
867.40 1.494
867.50 1.493
867.60 1.493
867.70 1.493
867.80 1.493
867.90 1.493
868.00 1.492
868.10 1.492
868.20 1.492
868.30 1.492
868.40 1.491
868.50 1.491
868.60 1.491
868.70 1.491
868.80 1.491
868.90 1.49
869.00 1.49
869.10 1.49
869.20 1.49
869.30 1.489
869.40 1.489
869.50 1.489
869.60 1.489
869.70 1.489
869.80 1.488
869.90 1.488
870.00 1.488
870.10 1.488
870.20 1.487
870.30 1.487
870.40 1.487
870.50 1.487
870.60 1.487
870.70 1.486
870.80 1.486
870.90 1.486
871.00 1.486
871.10 1.485
871.20 1.485
871.30 1.485
871.40 1.485
871.50 1.485
871.60 1.484
871.70 1.484
871.80 1.484
871.90 1.484
872.00 1.483
872.10 1.483
872.20 1.483
872.30 1.483
872.40 1.482
872.50 1.482
872.60 1.482
872.70 1.482
872.80 1.481
872.90 1.481
873.00 1.481
873.10 1.481
873.20 1.481
873.30 1.48
873.40 1.48
873.50 1.48
873.60 1.48
873.70 1.479
873.80 1.479
873.90 1.479
874.00 1.479
874.10 1.478
874.20 1.478
874.30 1.478
874.40 1.478
874.50 1.477
874.60 1.477
874.70 1.477
874.80 1.477
874.90 1.476
875.00 1.476
875.10 1.476
875.20 1.476
875.30 1.476
875.40 1.475
875.50 1.475
875.60 1.475
875.70 1.475
875.80 1.474
875.90 1.474
876.00 1.474
876.10 1.474
876.20 1.473
876.30 1.473
876.40 1.473
876.50 1.473
876.60 1.472
876.70 1.472
876.80 1.472
876.90 1.472
877.00 1.471
877.10 1.471
877.20 1.471
877.30 1.471
877.40 1.47
877.50 1.47
877.60 1.47
877.70 1.47
877.80 1.469
877.90 1.469
878.00 1.469
878.10 1.469
878.20 1.468
878.30 1.468
878.40 1.468
878.50 1.468
878.60 1.467
878.70 1.467
878.80 1.467
878.90 1.467
879.00 1.466
879.10 1.466
879.20 1.466
879.30 1.466
879.40 1.465
879.50 1.465
879.60 1.465
879.70 1.465
879.80 1.464
879.90 1.464
880.00 1.464
880.10 1.464
880.20 1.463
880.30 1.463
880.40 1.463
880.50 1.463
880.60 1.462
880.70 1.462
880.80 1.462
880.90 1.462
881.00 1.461
881.10 1.461
881.20 1.461
881.30 1.461
881.40 1.46
881.50 1.46
881.60 1.46
881.70 1.46
881.80 1.459
881.90 1.459
882.00 1.459
882.10 1.458
882.20 1.458
882.30 1.458
882.40 1.458
882.50 1.457
882.60 1.457
882.70 1.457
882.80 1.457
882.90 1.456
883.00 1.456
883.10 1.456
883.20 1.455
883.30 1.455
883.40 1.455
883.50 1.455
883.60 1.454
883.70 1.454
883.80 1.454
883.90 1.453
884.00 1.453
884.10 1.453
884.20 1.453
884.30 1.452
884.40 1.452
884.50 1.452
884.60 1.452
884.70 1.451
884.80 1.451
884.90 1.451
885.00 1.45
885.10 1.45
885.20 1.45
885.30 1.45
885.40 1.449
885.50 1.449
885.60 1.449
885.70 1.448
885.80 1.448
885.90 1.448
886.00 1.448
886.10 1.447
886.20 1.447
886.30 1.447
886.40 1.447
886.50 1.446
886.60 1.446
886.70 1.446
886.80 1.445
886.90 1.445
887.00 1.445
887.10 1.445
887.20 1.444
887.30 1.444
887.40 1.444
887.50 1.443
887.60 1.443
887.70 1.443
887.80 1.442
887.90 1.442
888.00 1.442
888.10 1.442
888.20 1.441
888.30 1.441
888.40 1.441
888.50 1.44
888.60 1.44
888.70 1.44
888.80 1.439
888.90 1.439
889.00 1.439
889.10 1.439
889.20 1.438
889.30 1.438
889.40 1.438
889.50 1.437
889.60 1.437
889.70 1.437
889.80 1.437
889.90 1.436
890.00 1.436
890.10 1.436
890.20 1.435
890.30 1.435
890.40 1.435
890.50 1.434
890.60 1.434
890.70 1.434
890.80 1.434
890.90 1.433
891.00 1.433
891.10 1.433
891.20 1.432
891.30 1.432
891.40 1.432
891.50 1.431
891.60 1.431
891.70 1.431
891.80 1.431
891.90 1.43
892.00 1.43
892.10 1.43
892.20 1.429
892.30 1.429
892.40 1.429
892.50 1.428
892.60 1.428
892.70 1.428
892.80 1.428
892.90 1.427
893.00 1.427
893.10 1.427
893.20 1.426
893.30 1.426
893.40 1.426
893.50 1.425
893.60 1.425
893.70 1.425
893.80 1.425
893.90 1.424
894.00 1.424
894.10 1.424
894.20 1.423
894.30 1.423
894.40 1.423
894.50 1.422
894.60 1.422
894.70 1.422
894.80 1.422
894.90 1.421
895.00 1.421
895.10 1.421
895.20 1.42
895.30 1.42
895.40 1.42
895.50 1.42
895.60 1.419
895.70 1.419
895.80 1.419
895.90 1.418
896.00 1.418
896.10 1.418
896.20 1.417
896.30 1.417
896.40 1.417
896.50 1.417
896.60 1.416
896.70 1.416
896.80 1.416
896.90 1.415
897.00 1.415
897.10 1.415
897.20 1.414
897.30 1.414
897.40 1.414
897.50 1.413
897.60 1.413
897.70 1.413
897.80 1.412
897.90 1.412
898.00 1.412
898.10 1.411
898.20 1.411
898.30 1.411
898.40 1.41
898.50 1.41
898.60 1.409
898.70 1.409
898.80 1.409
898.90 1.408
899.00 1.408
899.10 1.408
899.20 1.407
899.30 1.407
899.40 1.407
899.50 1.406
899.60 1.406
899.70 1.406
899.80 1.405
899.90 1.405
900.00 1.405
900.10 1.404
900.20 1.404
900.30 1.404
900.40 1.403
900.50 1.403
900.60 1.403
900.70 1.402
900.80 1.402
900.90 1.401
901.00 1.401
901.10 1.401
901.20 1.4
901.30 1.4
901.40 1.4
901.50 1.399
901.60 1.399
901.70 1.399
901.80 1.398
901.90 1.398
902.00 1.398
902.10 1.397
902.20 1.397
902.30 1.396
902.40 1.396
902.50 1.396
902.60 1.395
902.70 1.395
902.80 1.394
902.90 1.394
903.00 1.393
903.10 1.393
903.20 1.393
903.30 1.392
903.40 1.392
903.50 1.391
903.60 1.391
903.70 1.39
903.80 1.39
903.90 1.39
904.00 1.389
904.10 1.389
904.20 1.388
904.30 1.388
904.40 1.387
904.50 1.387
904.60 1.387
904.70 1.386
904.80 1.386
904.90 1.385
905.00 1.385
905.10 1.384
905.20 1.384
905.30 1.384
905.40 1.383
905.50 1.383
905.60 1.382
905.70 1.382
905.80 1.382
905.90 1.381
906.00 1.381
906.10 1.38
906.20 1.38
906.30 1.379
906.40 1.379
906.50 1.379
906.60 1.378
906.70 1.378
906.80 1.377
906.90 1.377
907.00 1.376
907.10 1.376
907.20 1.376
907.30 1.375
907.40 1.375
907.50 1.374
907.60 1.374
907.70 1.374
907.80 1.373
907.90 1.373
908.00 1.372
908.10 1.372
908.20 1.372
908.30 1.371
908.40 1.371
908.50 1.37
908.60 1.37
908.70 1.37
908.80 1.369
908.90 1.369
909.00 1.368
909.10 1.368
909.20 1.368
909.30 1.367
909.40 1.367
909.50 1.366
909.60 1.366
909.70 1.365
909.80 1.365
909.90 1.365
910.00 1.364
910.10 1.364
910.20 1.363
910.30 1.363
910.40 1.363
910.50 1.362
910.60 1.362
910.70 1.361
910.80 1.361
910.90 1.361
911.00 1.36
911.10 1.36
911.20 1.359
911.30 1.359
911.40 1.359
911.50 1.358
911.60 1.358
911.70 1.357
911.80 1.357
911.90 1.357
912.00 1.356
912.10 1.356
912.20 1.355
912.30 1.355
912.40 1.355
912.50 1.354
912.60 1.354
912.70 1.353
912.80 1.353
912.90 1.353
913.00 1.352
913.10 1.352
913.20 1.351
913.30 1.351
913.40 1.351
913.50 1.35
913.60 1.35
913.70 1.349
913.80 1.349
913.90 1.349
914.00 1.348
914.10 1.348
914.20 1.348
914.30 1.347
914.40 1.347
914.50 1.346
914.60 1.346
914.70 1.346
914.80 1.345
914.90 1.345
915.00 1.344
915.10 1.344
915.20 1.344
915.30 1.343
915.40 1.343
915.50 1.342
915.60 1.342
915.70 1.342
915.80 1.341
915.90 1.341
916.00 1.34
916.10 1.34
916.20 1.34
916.30 1.339
916.40 1.339
916.50 1.338
916.60 1.338
916.70 1.338
916.80 1.337
916.90 1.337
917.00 1.337
917.10 1.336
917.20 1.336
917.30 1.335
917.40 1.335
917.50 1.334
917.60 1.334
917.70 1.333
917.80 1.333
917.90 1.333
918.00 1.332
918.10 1.332
918.20 1.331
918.30 1.331
918.40 1.33
918.50 1.33
918.60 1.33
918.70 1.329
918.80 1.329
918.90 1.328
919.00 1.328
919.10 1.327
919.20 1.327
919.30 1.327
919.40 1.326
919.50 1.326
919.60 1.325
919.70 1.325
919.80 1.324
919.90 1.324
920.00 1.324
920.10 1.323
920.20 1.323
920.30 1.322
920.40 1.322
920.50 1.321
920.60 1.321
920.70 1.321
920.80 1.32
920.90 1.32
921.00 1.319
921.10 1.319
921.20 1.318
921.30 1.318
921.40 1.318
921.50 1.317
921.60 1.317
921.70 1.316
921.80 1.316
921.90 1.315
922.00 1.315
922.10 1.315
922.20 1.314
922.30 1.314
922.40 1.313
922.50 1.313
922.60 1.312
922.70 1.312
922.80 1.311
922.90 1.311
923.00 1.31
923.10 1.31
923.20 1.31
923.30 1.309
923.40 1.309
923.50 1.308
923.60 1.308
923.70 1.307
923.80 1.307
923.90 1.306
924.00 1.306
924.10 1.305
924.20 1.305
924.30 1.305
924.40 1.304
924.50 1.304
924.60 1.303
924.70 1.303
924.80 1.302
924.90 1.302
925.00 1.301
925.10 1.301
925.20 1.301
925.30 1.3
925.40 1.3
925.50 1.299
925.60 1.299
925.70 1.298
925.80 1.298
925.90 1.297
926.00 1.297
926.10 1.296
926.20 1.296
926.30 1.296
926.40 1.295
926.50 1.295
926.60 1.294
926.70 1.294
926.80 1.293
926.90 1.293
927.00 1.292
927.10 1.292
927.20 1.292
927.30 1.291
927.40 1.291
927.50 1.29
927.60 1.29
927.70 1.289
927.80 1.289
927.90 1.288
928.00 1.288
928.10 1.287
928.20 1.287
928.30 1.286
928.40 1.286
928.50 1.285
928.60 1.285
928.70 1.284
928.80 1.284
928.90 1.283
929.00 1.283
929.10 1.283
929.20 1.282
929.30 1.282
929.40 1.281
929.50 1.281
929.60 1.28
929.70 1.28
929.80 1.279
929.90 1.279
930.00 1.278
930.10 1.278
930.20 1.277
930.30 1.277
930.40 1.276
930.50 1.276
930.60 1.275
930.70 1.275
930.80 1.275
930.90 1.274
931.00 1.274
931.10 1.273
931.20 1.273
931.30 1.272
931.40 1.272
931.50 1.271
931.60 1.271
931.70 1.27
931.80 1.27
931.90 1.269
932.00 1.269
932.10 1.268
932.20 1.268
932.30 1.268
932.40 1.267
932.50 1.267
932.60 1.266
932.70 1.266
932.80 1.265
932.90 1.265
933.00 1.264
933.10 1.264
933.20 1.263
933.30 1.263
933.40 1.262
933.50 1.262
933.60 1.261
933.70 1.261
933.80 1.26
933.90 1.26
934.00 1.259
934.10 1.259
934.20 1.258
934.30 1.258
934.40 1.257
934.50 1.257
934.60 1.256
934.70 1.256
934.80 1.255
934.90 1.255
935.00 1.254
935.10 1.254
935.20 1.253
935.30 1.253
935.40 1.252
935.50 1.252
935.60 1.251
935.70 1.251
935.80 1.25
935.90 1.25
936.00 1.249
936.10 1.249
936.20 1.248
936.30 1.248
936.40 1.247
936.50 1.247
936.60 1.246
936.70 1.246
936.80 1.246
936.90 1.245
937.00 1.245
937.10 1.244
937.20 1.244
937.30 1.243
937.40 1.243
937.50 1.242
937.60 1.242
937.70 1.241
937.80 1.241
937.90 1.24
938.00 1.24
938.10 1.239
938.20 1.239
938.30 1.238
938.40 1.238
938.50 1.237
938.60 1.237
938.70 1.236
938.80 1.235
938.90 1.235
939.00 1.234
939.10 1.234
939.20 1.233
939.30 1.233
939.40 1.232
939.50 1.232
939.60 1.231
939.70 1.231
939.80 1.23
939.90 1.23
940.00 1.229
940.10 1.229
940.20 1.228
940.30 1.228
940.40 1.227
940.50 1.227
940.60 1.226
940.70 1.226
940.80 1.225
940.90 1.225
941.00 1.224
941.10 1.224
941.20 1.223
941.30 1.223
941.40 1.222
941.50 1.222
941.60 1.221
941.70 1.221
941.80 1.22
941.90 1.22
942.00 1.219
942.10 1.219
942.20 1.218
942.30 1.218
942.40 1.217
942.50 1.217
942.60 1.216
942.70 1.216
942.80 1.215
942.90 1.214
943.00 1.214
943.10 1.213
943.20 1.213
943.30 1.212
943.40 1.212
943.50 1.211
943.60 1.211
943.70 1.21
943.80 1.21
943.90 1.209
944.00 1.209
944.10 1.208
944.20 1.208
944.30 1.207
944.40 1.207
944.50 1.206
944.60 1.206
944.70 1.205
944.80 1.205
944.90 1.204
945.00 1.204
945.10 1.203
945.20 1.203
945.30 1.202
945.40 1.202
945.50 1.201
945.60 1.2
945.70 1.2
945.80 1.199
945.90 1.199
946.00 1.198
946.10 1.198
946.20 1.197
946.30 1.197
946.40 1.196
946.50 1.196
946.60 1.195
946.70 1.195
946.80 1.194
946.90 1.194
947.00 1.193
947.10 1.193
947.20 1.192
947.30 1.192
947.40 1.191
947.50 1.191
947.60 1.19
947.70 1.189
947.80 1.189
947.90 1.188
948.00 1.188
948.10 1.187
948.20 1.187
948.30 1.186
948.40 1.186
948.50 1.185
948.60 1.185
948.70 1.184
948.80 1.184
948.90 1.183
949.00 1.183
949.10 1.182
949.20 1.181
949.30 1.181
949.40 1.18
949.50 1.18
949.60 1.179
949.70 1.179
949.80 1.178
949.90 1.178
950.00 1.177
950.10 1.177
950.20 1.176
950.30 1.176
950.40 1.175
950.50 1.175
950.60 1.174
950.70 1.173
950.80 1.173
950.90 1.172
951.00 1.172
951.10 1.171
951.20 1.171
951.30 1.17
951.40 1.17
951.50 1.169
951.60 1.169
951.70 1.168
951.80 1.168
951.90 1.167
952.00 1.167
952.10 1.166
952.20 1.166
952.30 1.165
952.40 1.164
952.50 1.164
952.60 1.163
952.70 1.163
952.80 1.162
952.90 1.162
953.00 1.161
953.10 1.161
953.20 1.16
953.30 1.16
953.40 1.159
953.50 1.159
953.60 1.158
953.70 1.157
953.80 1.157
953.90 1.156
954.00 1.156
954.10 1.155
954.20 1.155
954.30 1.154
954.40 1.154
954.50 1.153
954.60 1.153
954.70 1.152
954.80 1.152
954.90 1.151
955.00 1.15
955.10 1.15
955.20 1.149
955.30 1.149
955.40 1.148
955.50 1.148
955.60 1.147
955.70 1.147
955.80 1.146
955.90 1.146
956.00 1.145
956.10 1.145
956.20 1.144
956.30 1.143
956.40 1.143
956.50 1.142
956.60 1.142
956.70 1.141
956.80 1.141
956.90 1.14
957.00 1.14
957.10 1.139
957.20 1.139
957.30 1.138
957.40 1.137
957.50 1.137
957.60 1.136
957.70 1.136
957.80 1.135
957.90 1.135
958.00 1.134
958.10 1.134
958.20 1.133
958.30 1.133
958.40 1.132
958.50 1.131
958.60 1.131
958.70 1.13
958.80 1.13
958.90 1.129
959.00 1.129
959.10 1.128
959.20 1.128
959.30 1.127
959.40 1.127
959.50 1.126
959.60 1.125
959.70 1.125
959.80 1.124
959.90 1.124
960.00 1.123
960.10 1.123
960.20 1.122
960.30 1.122
960.40 1.121
960.50 1.121
960.60 1.12
960.70 1.12
960.80 1.119
960.90 1.118
961.00 1.118
961.10 1.117
961.20 1.117
961.30 1.116
961.40 1.116
961.50 1.115
961.60 1.115
961.70 1.114
961.80 1.114
961.90 1.113
962.00 1.113
962.10 1.112
962.20 1.111
962.30 1.111
962.40 1.11
962.50 1.11
962.60 1.109
962.70 1.109
962.80 1.108
962.90 1.108
963.00 1.107
963.10 1.107
963.20 1.106
963.30 1.106
963.40 1.105
963.50 1.104
963.60 1.104
963.70 1.103
963.80 1.103
963.90 1.102
964.00 1.102
964.10 1.101
964.20 1.101
964.30 1.1
964.40 1.1
964.50 1.099
964.60 1.098
964.70 1.098
964.80 1.097
964.90 1.097
965.00 1.096
965.10 1.096
965.20 1.095
965.30 1.095
965.40 1.094
965.50 1.094
965.60 1.093
965.70 1.092
965.80 1.092
965.90 1.091
966.00 1.091
966.10 1.09
966.20 1.09
966.30 1.089
966.40 1.089
966.50 1.088
966.60 1.088
966.70 1.087
966.80 1.086
966.90 1.086
967.00 1.085
967.10 1.085
967.20 1.084
967.30 1.084
967.40 1.083
967.50 1.083
967.60 1.082
967.70 1.082
967.80 1.081
967.90 1.08
968.00 1.08
968.10 1.079
968.20 1.079
968.30 1.078
968.40 1.078
968.50 1.077
968.60 1.077
968.70 1.076
968.80 1.076
968.90 1.075
969.00 1.075
969.10 1.074
969.20 1.074
969.30 1.073
969.40 1.072
969.50 1.072
969.60 1.071
969.70 1.071
969.80 1.07
969.90 1.07
970.00 1.069
970.10 1.069
970.20 1.068
970.30 1.068
970.40 1.067
970.50 1.067
970.60 1.066
970.70 1.066
970.80 1.065
970.90 1.064
971.00 1.064
971.10 1.063
971.20 1.063
971.30 1.062
971.40 1.062
971.50 1.061
971.60 1.061
971.70 1.06
971.80 1.06
971.90 1.059
972.00 1.059
972.10 1.058
972.20 1.058
972.30 1.057
972.40 1.057
972.50 1.056
972.60 1.055
972.70 1.055
972.80 1.054
972.90 1.054
973.00 1.053
973.10 1.053
973.20 1.052
973.30 1.052
973.40 1.051
973.50 1.051
973.60 1.05
973.70 1.05
973.80 1.049
973.90 1.049
974.00 1.048
974.10 1.048
974.20 1.047
974.30 1.046
974.40 1.046
974.50 1.045
974.60 1.045
974.70 1.044
974.80 1.044
974.90 1.043
975.00 1.043
975.10 1.042
975.20 1.042
975.30 1.041
975.40 1.041
975.50 1.04
975.60 1.04
975.70 1.039
975.80 1.039
975.90 1.038
976.00 1.038
976.10 1.037
976.20 1.036
976.30 1.036
976.40 1.035
976.50 1.035
976.60 1.034
976.70 1.034
976.80 1.033
976.90 1.033
977.00 1.032
977.10 1.032
977.20 1.031
977.30 1.031
977.40 1.03
977.50 1.03
977.60 1.029
977.70 1.029
977.80 1.028
977.90 1.028
978.00 1.027
978.10 1.027
978.20 1.026
978.30 1.026
978.40 1.025
978.50 1.025
978.60 1.024
978.70 1.024
978.80 1.023
978.90 1.022
979.00 1.022
979.10 1.021
979.20 1.021
979.30 1.02
979.40 1.02
979.50 1.019
979.60 1.019
979.70 1.018
979.80 1.018
979.90 1.017
980.00 1.017
980.10 1.016
980.20 1.016
980.30 1.015
980.40 1.015
980.50 1.014
980.60 1.014
980.70 1.013
980.80 1.013
980.90 1.012
981.00 1.012
981.10 1.011
981.20 1.011
981.30 1.01
981.40 1.01
981.50 1.009
981.60 1.009
981.70 1.008
981.80 1.008
981.90 1.007
982.00 1.007
982.10 1.006
982.20 1.006
982.30 1.005
982.40 1.005
982.50 1.004
982.60 1.004
982.70 1.003
982.80 1.003
982.90 1.002
983.00 1.002
983.10 1.001
983.20 1.001
983.30 1
983.40 0.9996
983.50 0.9991
983.60 0.9986
983.70 0.9981
983.80 0.9976
983.90 0.9971
984.00 0.9966
984.10 0.9961
984.20 0.9956
984.30 0.9951
984.40 0.9946
984.50 0.9941
984.60 0.9936
984.70 0.9931
984.80 0.9926
984.90 0.9921
985.00 0.9916
985.10 0.9911
985.20 0.9907
985.30 0.9902
985.40 0.9897
985.50 0.9892
985.60 0.9887
985.70 0.9883
985.80 0.9878
985.90 0.9873
986.00 0.9868
986.10 0.9863
986.20 0.9859
986.30 0.9854
986.40 0.9849
986.50 0.9844
986.60 0.9839
986.70 0.9835
986.80 0.983
986.90 0.9825
987.00 0.982
987.10 0.9815
987.20 0.981
987.30 0.9805
987.40 0.98
987.50 0.9795
987.60 0.979
987.70 0.9785
987.80 0.978
987.90 0.9775
988.00 0.977
988.10 0.9765
988.20 0.976
988.30 0.9755
988.40 0.975
988.50 0.9745
988.60 0.9741
988.70 0.9736
988.80 0.9731
988.90 0.9725
989.00 0.972
989.10 0.9715
989.20 0.971
989.30 0.9705
989.40 0.97
989.50 0.9695
989.60 0.969
989.70 0.9686
989.80 0.9681
989.90 0.9676
990.00 0.9671
990.10 0.9666
990.20 0.9661
990.30 0.9656
990.40 0.9651
990.50 0.9646
990.60 0.9641
990.70 0.9636
990.80 0.9631
990.90 0.9626
991.00 0.9621
991.10 0.9616
991.20 0.9611
991.30 0.9606
991.40 0.9601
991.50 0.9596
991.60 0.9591
991.70 0.9586
991.80 0.9581
991.90 0.9576
992.00 0.9571
992.10 0.9566
992.20 0.9561
992.30 0.9556
992.40 0.9551
992.50 0.9546
992.60 0.9541
992.70 0.9536
992.80 0.9531
992.90 0.9526
993.00 0.9521
993.10 0.9516
993.20 0.9511
993.30 0.9506
993.40 0.9501
993.50 0.9496
993.60 0.9491
993.70 0.9486
993.80 0.9481
993.90 0.9476
994.00 0.9471
994.10 0.9466
994.20 0.9462
994.30 0.9457
994.40 0.9452
994.50 0.9447
994.60 0.9442
994.70 0.9436
994.80 0.943
994.90 0.9424
995.00 0.9419
995.10 0.9413
995.20 0.9407
995.30 0.9401
995.40 0.9395
995.50 0.939
995.60 0.9384
995.70 0.9379
995.80 0.9374
995.90 0.9369
996.00 0.9364
996.10 0.9359
996.20 0.9354
996.30 0.9349
996.40 0.9345
996.50 0.934
996.60 0.9335
996.70 0.933
996.80 0.9325
996.90 0.932
997.00 0.9315
997.10 0.9311
997.20 0.9306
997.30 0.9301
997.40 0.9296
997.50 0.9291
997.60 0.9286
997.70 0.9281
997.80 0.9277
997.90 0.9272
998.00 0.9267
998.10 0.9262
998.20 0.9257
998.30 0.9253
998.40 0.9248
998.50 0.9243
998.60 0.9238
998.70 0.9233
998.80 0.9229
998.90 0.9224
999.00 0.9219
999.10 0.9214
999.20 0.921
999.30 0.9205
999.40 0.92
999.50 0.9195
999.60 0.919
999.70 0.9186
999.80 0.9181
999.90 0.9176
1000.00 0.9172
1000.10 0.9167
1000.20 0.9162
1000.30 0.9158
1000.40 0.9153
1000.50 0.9148
1000.60 0.9144
1000.70 0.9139
1000.80 0.9135
1000.90 0.913
1001.00 0.9125
1001.10 0.9121
1001.20 0.9116
1001.30 0.9111
1001.40 0.9107
1001.50 0.9102
1001.60 0.9097
1001.70 0.9093
1001.80 0.9088
1001.90 0.9084
1002.00 0.9079
1002.10 0.9075
1002.20 0.907
1002.30 0.9066
1002.40 0.9061
1002.50 0.9057
1002.60 0.9052
1002.70 0.9048
1002.80 0.9043
1002.90 0.9039
1003.00 0.9034
1003.10 0.903
1003.20 0.9025
1003.30 0.9021
1003.40 0.9016
1003.50 0.9012
1003.60 0.9007
1003.70 0.9003
1003.80 0.8999
1003.90 0.8994
1004.00 0.899
1004.10 0.8985
1004.20 0.8981
1004.30 0.8977
1004.40 0.8972
1004.50 0.8967
1004.60 0.8963
1004.70 0.8959
1004.80 0.8954
1004.90 0.8949
1005.00 0.8944
1005.10 0.894
1005.20 0.8935
1005.30 0.8931
1005.40 0.8927
1005.50 0.8922
1005.60 0.8918
1005.70 0.8914
1005.80 0.8909
1005.90 0.8905
1006.00 0.8901
1006.10 0.8896
1006.20 0.8892
1006.30 0.8888
1006.40 0.8884
1006.50 0.8879
1006.60 0.8875
1006.70 0.8871
1006.80 0.8867
1006.90 0.8862
1007.00 0.8858
1007.10 0.8854
1007.20 0.885
1007.30 0.8845
1007.40 0.8841
1007.50 0.8837
1007.60 0.8833
1007.70 0.8829
1007.80 0.8824
1007.90 0.882
1008.00 0.8816
1008.10 0.8812
1008.20 0.8808
1008.30 0.8804
1008.40 0.88
1008.50 0.8796
1008.60 0.8792
1008.70 0.8788
1008.80 0.8784
1008.90 0.878
1009.00 0.8775
1009.10 0.8771
1009.20 0.8767
1009.30 0.8763
1009.40 0.8759
1009.50 0.8755
1009.60 0.8751
1009.70 0.8747
1009.80 0.8743
1009.90 0.8739
1010.00 0.8735
1010.10 0.8731
1010.20 0.8727
1010.30 0.8723
1010.40 0.8719
1010.50 0.8715
1010.60 0.8711
1010.70 0.8708
1010.80 0.8704
1010.90 0.87
1011.00 0.8696
1011.10 0.8692
1011.20 0.8688
1011.30 0.8684
1011.40 0.868
1011.50 0.8676
1011.60 0.8672
1011.70 0.8668
1011.80 0.8664
1011.90 0.8661
1012.00 0.8657
1012.10 0.8653
1012.20 0.8649
1012.30 0.8645
1012.40 0.8642
1012.50 0.8638
1012.60 0.8634
1012.70 0.863
1012.80 0.8627
1012.90 0.8623
1013.00 0.8619
1013.10 0.8615
1013.20 0.8612
1013.30 0.8608
1013.40 0.8604
1013.50 0.86
1013.60 0.8597
1013.70 0.8593
1013.80 0.8589
1013.90 0.8586
1014.00 0.8582
1014.10 0.8578
1014.20 0.8575
1014.30 0.8571
1014.40 0.8567
1014.50 0.8564
1014.60 0.856
1014.70 0.8557
1014.80 0.8554
1014.90 0.855
1015.00 0.8547
1015.10 0.8544
1015.20 0.854
1015.30 0.8537
1015.40 0.8534
1015.50 0.853
1015.60 0.8527
1015.70 0.8524
1015.80 0.852
1015.90 0.8517
1016.00 0.8514
1016.10 0.8511
1016.20 0.8507
1016.30 0.8504
1016.40 0.8501
1016.50 0.8497
1016.60 0.8494
1016.70 0.8491
1016.80 0.8487
1016.90 0.8483
1017.00 0.848
1017.10 0.8476
1017.20 0.8473
1017.30 0.8469
1017.40 0.8466
1017.50 0.8462
1017.60 0.8459
1017.70 0.8456
1017.80 0.8452
1017.90 0.8449
1018.00 0.8445
1018.10 0.8442
1018.20 0.8438
1018.30 0.8435
1018.40 0.8431
1018.50 0.8428
1018.60 0.8424
1018.70 0.8421
1018.80 0.8417
1018.90 0.8414
1019.00 0.8411
1019.10 0.8407
1019.20 0.8404
1019.30 0.84
1019.40 0.8397
1019.50 0.8394
1019.60 0.839
1019.70 0.8387
1019.80 0.8383
1019.90 0.838
1020.00 0.8377
1020.10 0.8373
1020.20 0.837
1020.30 0.8367
1020.40 0.8363
1020.50 0.836
1020.60 0.8356
1020.70 0.8353
1020.80 0.835
1020.90 0.8346
1021.00 0.8343
1021.10 0.834
1021.20 0.8336
1021.30 0.8333
1021.40 0.833
1021.50 0.8326
1021.60 0.8323
1021.70 0.832
1021.80 0.8316
1021.90 0.8313
1022.00 0.831
1022.10 0.8306
1022.20 0.8303
1022.30 0.83
1022.40 0.8297
1022.50 0.8293
1022.60 0.829
1022.70 0.8287
1022.80 0.8284
1022.90 0.828
1023.00 0.8277
1023.10 0.8274
1023.20 0.8271
1023.30 0.8267
1023.40 0.8264
1023.50 0.8261
1023.60 0.8258
1023.70 0.8254
1023.80 0.8251
1023.90 0.8248
1024.00 0.8245
1024.10 0.8242
1024.20 0.8238
1024.30 0.8235
1024.40 0.8232
1024.50 0.8229
1024.60 0.8225
1024.70 0.8222
1024.80 0.8219
1024.90 0.8216
1025.00 0.8213
1025.10 0.8209
1025.20 0.8206
1025.30 0.8203
1025.40 0.82
1025.50 0.8196
1025.60 0.8193
1025.70 0.819
1025.80 0.8187
1025.90 0.8184
1026.00 0.818
1026.10 0.8177
1026.20 0.8174
1026.30 0.8171
1026.40 0.8168
1026.50 0.8165
1026.60 0.8161
1026.70 0.8158
1026.80 0.8155
1026.90 0.8152
1027.00 0.8149
1027.10 0.8146
1027.20 0.8142
1027.30 0.8139
1027.40 0.8136
1027.50 0.8133
1027.60 0.813
1027.70 0.8127
1027.80 0.8124
1027.90 0.8121
1028.00 0.8118
1028.10 0.8115
1028.20 0.8112
1028.30 0.8109
1028.40 0.8106
1028.50 0.8103
1028.60 0.81
1028.70 0.8097
1028.80 0.8094
1028.90 0.8091
1029.00 0.8088
1029.10 0.8085
1029.20 0.8082
1029.30 0.8079
1029.40 0.8076
1029.50 0.8073
1029.60 0.807
1029.70 0.8067
1029.80 0.8064
1029.90 0.8061
1030.00 0.8058
1030.10 0.8055
1030.20 0.8052
1030.30 0.8049
1030.40 0.8046
1030.50 0.8043
1030.60 0.804
1030.70 0.8037
1030.80 0.8034
1030.90 0.8031
1031.00 0.8028
1031.10 0.8025
1031.20 0.8022
1031.30 0.8019
1031.40 0.8016
1031.50 0.8013
1031.60 0.8011
1031.70 0.8008
1031.80 0.8005
1031.90 0.8002
1032.00 0.7999
1032.10 0.7996
1032.20 0.7993
1032.30 0.799
1032.40 0.7987
1032.50 0.7985
1032.60 0.7982
1032.70 0.7979
1032.80 0.7976
1032.90 0.7973
1033.00 0.797
1033.10 0.7968
1033.20 0.7965
1033.30 0.7962
1033.40 0.7959
1033.50 0.7956
1033.60 0.7954
1033.70 0.7951
1033.80 0.7948
1033.90 0.7945
1034.00 0.7942
1034.10 0.794
1034.20 0.7937
1034.30 0.7934
1034.40 0.7931
1034.50 0.7928
1034.60 0.7926
1034.70 0.7923
1034.80 0.792
1034.90 0.7917
1035.00 0.7914
1035.10 0.7912
1035.20 0.7909
1035.30 0.7906
1035.40 0.7903
1035.50 0.79
1035.60 0.7898
1035.70 0.7895
1035.80 0.7892
1035.90 0.7889
1036.00 0.7887
1036.10 0.7884
1036.20 0.7881
1036.30 0.7878
1036.40 0.7875
1036.50 0.7873
1036.60 0.787
1036.70 0.7867
1036.80 0.7864
1036.90 0.7862
1037.00 0.7859
1037.10 0.7856
1037.20 0.7854
1037.30 0.7851
1037.40 0.7848
1037.50 0.7846
1037.60 0.7843
1037.70 0.7841
1037.80 0.7838
1037.90 0.7835
1038.00 0.7833
1038.10 0.783
1038.20 0.7828
1038.30 0.7825
1038.40 0.7823
1038.50 0.782
1038.60 0.7817
1038.70 0.7815
1038.80 0.7812
1038.90 0.781
1039.00 0.7807
1039.10 0.7804
1039.20 0.7802
1039.30 0.7799
1039.40 0.7797
1039.50 0.7794
1039.60 0.7792
1039.70 0.7789
1039.80 0.7786
1039.90 0.7784
1040.00 0.7781
1040.10 0.7779
1040.20 0.7776
1040.30 0.7774
1040.40 0.7771
1040.50 0.7769
1040.60 0.7766
1040.70 0.7763
1040.80 0.7761
1040.90 0.7758
1041.00 0.7756
1041.10 0.7753
1041.20 0.7751
1041.30 0.7748
1041.40 0.7745
1041.50 0.7743
1041.60 0.774
1041.70 0.7738
1041.80 0.7735
1041.90 0.7733
1042.00 0.773
1042.10 0.7728
1042.20 0.7725
1042.30 0.7723
1042.40 0.7721
1042.50 0.7718
1042.60 0.7716
1042.70 0.7714
1042.80 0.7711
1042.90 0.7709
1043.00 0.7706
1043.10 0.7704
1043.20 0.7702
1043.30 0.7699
1043.40 0.7697
1043.50 0.7695
1043.60 0.7692
1043.70 0.769
1043.80 0.7688
1043.90 0.7685
1044.00 0.7683
1044.10 0.768
1044.20 0.7678
1044.30 0.7676
1044.40 0.7673
1044.50 0.7671
1044.60 0.7669
1044.70 0.7666
1044.80 0.7664
1044.90 0.7662
1045.00 0.7659
1045.10 0.7657
1045.20 0.7655
1045.30 0.7652
1045.40 0.765
1045.50 0.7648
1045.60 0.7645
1045.70 0.7643
1045.80 0.7641
1045.90 0.7638
1046.00 0.7636
1046.10 0.7633
1046.20 0.7631
1046.30 0.7629
1046.40 0.7626
1046.50 0.7624
1046.60 0.7622
1046.70 0.7619
1046.80 0.7617
1046.90 0.7615
1047.00 0.7612
1047.10 0.761
1047.20 0.7608
1047.30 0.7606
1047.40 0.7604
1047.50 0.7602
1047.60 0.7599
1047.70 0.7597
1047.80 0.7595
1047.90 0.7593
1048.00 0.7591
1048.10 0.7589
1048.20 0.7586
1048.30 0.7584
1048.40 0.7582
1048.50 0.758
1048.60 0.7578
1048.70 0.7576
1048.80 0.7573
1048.90 0.7571
1049.00 0.7569
1049.10 0.7567
1049.20 0.7565
1049.30 0.7563
1049.40 0.756
1049.50 0.7558
1049.60 0.7556
1049.70 0.7554
1049.80 0.7552
1049.90 0.755
1050.00 0.7548
1050.10 0.7545
1050.20 0.7543
1050.30 0.7541
1050.40 0.7539
1050.50 0.7537
1050.60 0.7535
1050.70 0.7533
1050.80 0.753
1050.90 0.7528
1051.00 0.7526
1051.10 0.7524
1051.20 0.7522
1051.30 0.752
1051.40 0.7517
1051.50 0.7515
1051.60 0.7513
1051.70 0.7511
1051.80 0.7509
1051.90 0.7507
1052.00 0.7505
1052.10 0.7503
1052.20 0.7501
1052.30 0.7499
1052.40 0.7497
1052.50 0.7495
1052.60 0.7493
1052.70 0.7491
1052.80 0.7489
1052.90 0.7487
1053.00 0.7485
1053.10 0.7483
1053.20 0.7481
1053.30 0.7479
1053.40 0.7477
1053.50 0.7475
1053.60 0.7473
1053.70 0.7471
1053.80 0.7469
1053.90 0.7467
1054.00 0.7465
1054.10 0.7463
1054.20 0.7461
1054.30 0.7459
1054.40 0.7457
1054.50 0.7455
1054.60 0.7453
1054.70 0.7451
1054.80 0.745
1054.90 0.7448
1055.00 0.7446
1055.10 0.7444
1055.20 0.7442
1055.30 0.744
1055.40 0.7438
1055.50 0.7436
1055.60 0.7434
1055.70 0.7432
1055.80 0.743
1055.90 0.7428
1056.00 0.7426
1056.10 0.7424
1056.20 0.7422
1056.30 0.742
1056.40 0.7418
1056.50 0.7416
1056.60 0.7414
1056.70 0.7412
1056.80 0.741
1056.90 0.7408
1057.00 0.7407
1057.10 0.7405
1057.20 0.7403
1057.30 0.7401
1057.40 0.7399
1057.50 0.7398
1057.60 0.7396
1057.70 0.7394
1057.80 0.7392
1057.90 0.7391
1058.00 0.7389
1058.10 0.7387
1058.20 0.7385
1058.30 0.7384
1058.40 0.7382
1058.50 0.738
1058.60 0.7378
1058.70 0.7376
1058.80 0.7375
1058.90 0.7373
1059.00 0.7371
1059.10 0.7369
1059.20 0.7368
1059.30 0.7366
1059.40 0.7364
1059.50 0.7362
1059.60 0.7361
1059.70 0.7359
1059.80 0.7357
1059.90 0.7355
1060.00 0.7354
1060.10 0.7352
1060.20 0.735
1060.30 0.7348
1060.40 0.7347
1060.50 0.7345
1060.60 0.7343
1060.70 0.7341
1060.80 0.734
1060.90 0.7338
1061.00 0.7336
1061.10 0.7334
1061.20 0.7333
1061.30 0.7331
1061.40 0.7329
1061.50 0.7327
1061.60 0.7326
1061.70 0.7324
1061.80 0.7322
1061.90 0.732
1062.00 0.7319
1062.10 0.7317
1062.20 0.7315
1062.30 0.7314
1062.40 0.7312
1062.50 0.7311
1062.60 0.7309
1062.70 0.7307
1062.80 0.7306
1062.90 0.7304
1063.00 0.7303
1063.10 0.7301
1063.20 0.7299
1063.30 0.7298
1063.40 0.7296
1063.50 0.7295
1063.60 0.7293
1063.70 0.7292
1063.80 0.729
1063.90 0.7288
1064.00 0.7287
1064.10 0.7285
1064.20 0.7284
1064.30 0.7282
1064.40 0.7281
1064.50 0.7279
1064.60 0.7277
1064.70 0.7276
1064.80 0.7274
1064.90 0.7273
1065.00 0.7271
1065.10 0.7269
1065.20 0.7268
1065.30 0.7266
1065.40 0.7265
1065.50 0.7263
1065.60 0.7262
1065.70 0.726
1065.80 0.7258
1065.90 0.7257
1066.00 0.7255
1066.10 0.7254
1066.20 0.7252
1066.30 0.7251
1066.40 0.7249
1066.50 0.7247
1066.60 0.7246
1066.70 0.7244
1066.80 0.7243
1066.90 0.7241
1067.00 0.724
1067.10 0.7238
1067.20 0.7237
1067.30 0.7235
1067.40 0.7234
1067.50 0.7233
1067.60 0.7231
1067.70 0.723
1067.80 0.7228
1067.90 0.7227
1068.00 0.7226
1068.10 0.7224
1068.20 0.7223
1068.30 0.7222
1068.40 0.722
1068.50 0.7219
1068.60 0.7217
1068.70 0.7216
1068.80 0.7215
1068.90 0.7213
1069.00 0.7212
1069.10 0.721
1069.20 0.7209
1069.30 0.7208
1069.40 0.7206
1069.50 0.7205
1069.60 0.7203
1069.70 0.7202
1069.80 0.7201
1069.90 0.7199
1070.00 0.7198
1070.10 0.7197
1070.20 0.7195
1070.30 0.7194
1070.40 0.7192
1070.50 0.7191
1070.60 0.719
1070.70 0.7188
1070.80 0.7187
1070.90 0.7185
1071.00 0.7184
1071.10 0.7183
1071.20 0.7181
1071.30 0.718
1071.40 0.7179
1071.50 0.7177
1071.60 0.7176
1071.70 0.7174
1071.80 0.7173
1071.90 0.7172
1072.00 0.717
1072.10 0.7169
1072.20 0.7168
1072.30 0.7166
1072.40 0.7165
1072.50 0.7164
1072.60 0.7162
1072.70 0.7161
1072.80 0.716
1072.90 0.7158
1073.00 0.7157
1073.10 0.7156
1073.20 0.7154
1073.30 0.7153
1073.40 0.7152
1073.50 0.715
1073.60 0.7149
1073.70 0.7148
1073.80 0.7146
1073.90 0.7145
1074.00 0.7144
1074.10 0.7143
1074.20 0.7141
1074.30 0.714
1074.40 0.7139
1074.50 0.7138
1074.60 0.7136
1074.70 0.7135
1074.80 0.7134
1074.90 0.7132
1075.00 0.7131
1075.10 0.713
1075.20 0.7129
1075.30 0.7127
1075.40 0.7126
1075.50 0.7125
1075.60 0.7124
1075.70 0.7122
1075.80 0.7121
1075.90 0.712
1076.00 0.7118
1076.10 0.7117
1076.20 0.7116
1076.30 0.7115
1076.40 0.7113
1076.50 0.7112
1076.60 0.7111
1076.70 0.711
1076.80 0.7108
1076.90 0.7107
1077.00 0.7106
1077.10 0.7105
1077.20 0.7103
1077.30 0.7102
1077.40 0.7101
1077.50 0.71
1077.60 0.7099
1077.70 0.7098
1077.80 0.7096
1077.90 0.7095
1078.00 0.7094
1078.10 0.7093
1078.20 0.7092
1078.30 0.709
1078.40 0.7089
1078.50 0.7088
1078.60 0.7087
1078.70 0.7086
1078.80 0.7084
1078.90 0.7083
1079.00 0.7082
1079.10 0.7081
1079.20 0.708
1079.30 0.7079
1079.40 0.7077
1079.50 0.7076
1079.60 0.7075
1079.70 0.7074
1079.80 0.7073
1079.90 0.7072
1080.00 0.7071
1080.10 0.7069
1080.20 0.7068
1080.30 0.7067
1080.40 0.7066
1080.50 0.7065
1080.60 0.7064
1080.70 0.7063
1080.80 0.7062
1080.90 0.7061
1081.00 0.7059
1081.10 0.7058
1081.20 0.7057
1081.30 0.7056
1081.40 0.7055
1081.50 0.7054
1081.60 0.7053
1081.70 0.7052
1081.80 0.7051
1081.90 0.705
1082.00 0.7049
1082.10 0.7047
1082.20 0.7046
1082.30 0.7045
1082.40 0.7044
1082.50 0.7043
1082.60 0.7042
1082.70 0.7041
1082.80 0.704
1082.90 0.7039
1083.00 0.7038
1083.10 0.7037
1083.20 0.7036
1083.30 0.7034
1083.40 0.7033
1083.50 0.7032
1083.60 0.7031
1083.70 0.703
1083.80 0.7029
1083.90 0.7028
1084.00 0.7027
1084.10 0.7026
1084.20 0.7025
1084.30 0.7023
1084.40 0.7022
1084.50 0.7021
1084.60 0.702
1084.70 0.7019
1084.80 0.7018
1084.90 0.7017
1085.00 0.7016
1085.10 0.7015
1085.20 0.7014
1085.30 0.7013
1085.40 0.7012
1085.50 0.7011
1085.60 0.701
1085.70 0.7009
1085.80 0.7008
1085.90 0.7007
1086.00 0.7006
1086.10 0.7005
1086.20 0.7004
1086.30 0.7003
1086.40 0.7001
1086.50 0.7
1086.60 0.7
1086.70 0.6999
1086.80 0.6998
1086.90 0.6997
1087.00 0.6996
1087.10 0.6995
1087.20 0.6994
1087.30 0.6993
1087.40 0.6992
1087.50 0.6991
1087.60 0.699
1087.70 0.6989
1087.80 0.6988
1087.90 0.6987
1088.00 0.6986
1088.10 0.6984
1088.20 0.6983
1088.30 0.6982
1088.40 0.6981
1088.50 0.698
1088.60 0.6979
1088.70 0.6978
1088.80 0.6978
1088.90 0.6977
1089.00 0.6976
1089.10 0.6975
1089.20 0.6974
1089.30 0.6973
1089.40 0.6972
1089.50 0.6971
1089.60 0.697
1089.70 0.6969
1089.80 0.6968
1089.90 0.6967
1090.00 0.6966
1090.10 0.6965
1090.20 0.6964
1090.30 0.6963
1090.40 0.6962
1090.50 0.6961
1090.60 0.696
1090.70 0.6959
1090.80 0.6958
1090.90 0.6957
1091.00 0.6957
1091.10 0.6956
1091.20 0.6955
1091.30 0.6954
1091.40 0.6953
1091.50 0.6952
1091.60 0.6951
1091.70 0.695
1091.80 0.6949
1091.90 0.6948
1092.00 0.6947
1092.10 0.6947
1092.20 0.6946
1092.30 0.6945
1092.40 0.6944
1092.50 0.6943
1092.60 0.6942
1092.70 0.6941
1092.80 0.6941
1092.90 0.694
1093.00 0.6939
1093.10 0.6939
1093.20 0.6938
1093.30 0.6937
1093.40 0.6936
1093.50 0.6935
1093.60 0.6934
1093.70 0.6933
1093.80 0.6932
1093.90 0.6932
1094.00 0.6931
1094.10 0.693
1094.20 0.6929
1094.30 0.6928
1094.40 0.6927
1094.50 0.6926
1094.60 0.6925
1094.70 0.6924
1094.80 0.6924
1094.90 0.6923
1095.00 0.6922
1095.10 0.6921
1095.20 0.692
1095.30 0.6919
1095.40 0.6918
1095.50 0.6918
1095.60 0.6917
1095.70 0.6916
1095.80 0.6915
1095.90 0.6914
1096.00 0.6913
1096.10 0.6912
1096.20 0.6911
1096.30 0.691
1096.40 0.6909
1096.50 0.6909
1096.60 0.6908
1096.70 0.6907
1096.80 0.6906
1096.90 0.6905
1097.00 0.6905
1097.10 0.6904
1097.20 0.6903
1097.30 0.6902
1097.40 0.6901
1097.50 0.69
1097.60 0.6899
1097.70 0.6899
1097.80 0.6898
1097.90 0.6897
1098.00 0.6896
1098.10 0.6895
1098.20 0.6894
1098.30 0.6893
1098.40 0.6892
1098.50 0.6892
1098.60 0.6891
1098.70 0.689
1098.80 0.6889
1098.90 0.6888
1099.00 0.6887
1099.10 0.6887
1099.20 0.6886
1099.30 0.6885
1099.40 0.6884
1099.50 0.6883
1099.60 0.6882
1099.70 0.6882
1099.80 0.6881
1099.90 0.688
1100.00 0.6879
1100.10 0.6878
1100.20 0.6878
1100.30 0.6877
1100.40 0.6876
1100.50 0.6875
1100.60 0.6874
1100.70 0.6873
1100.80 0.6873
1100.90 0.6872
1101.00 0.6871
1101.10 0.687
1101.20 0.6869
1101.30 0.6869
1101.40 0.6868
1101.50 0.6867
1101.60 0.6866
1101.70 0.6865
1101.80 0.6865
1101.90 0.6864
1102.00 0.6863
1102.10 0.6862
1102.20 0.6862
1102.30 0.6861
1102.40 0.686
1102.50 0.6859
1102.60 0.6859
1102.70 0.6858
1102.80 0.6857
1102.90 0.6856
1103.00 0.6855
1103.10 0.6854
1103.20 0.6854
1103.30 0.6853
1103.40 0.6852
1103.50 0.6851
1103.60 0.685
1103.70 0.685
1103.80 0.6849
1103.90 0.6848
1104.00 0.6847
1104.10 0.6847
1104.20 0.6846
1104.30 0.6845
1104.40 0.6844
1104.50 0.6844
1104.60 0.6843
1104.70 0.6842
1104.80 0.6841
1104.90 0.6841
1105.00 0.684
1105.10 0.6839
1105.20 0.6838
1105.30 0.6838
1105.40 0.6837
1105.50 0.6836
1105.60 0.6835
1105.70 0.6835
1105.80 0.6834
1105.90 0.6833
1106.00 0.6832
1106.10 0.6832
1106.20 0.6831
1106.30 0.683
1106.40 0.6829
1106.50 0.6829
1106.60 0.6828
1106.70 0.6827
1106.80 0.6826
1106.90 0.6826
1107.00 0.6825
1107.10 0.6824
1107.20 0.6823
1107.30 0.6823
1107.40 0.6822
1107.50 0.6821
1107.60 0.682
1107.70 0.682
1107.80 0.6819
1107.90 0.6818
1108.00 0.6817
1108.10 0.6817
1108.20 0.6816
1108.30 0.6815
1108.40 0.6814
1108.50 0.6814
1108.60 0.6813
1108.70 0.6812
1108.80 0.6811
1108.90 0.6811
1109.00 0.681
1109.10 0.6809
1109.20 0.6808
1109.30 0.6808
1109.40 0.6807
1109.50 0.6806
1109.60 0.6806
1109.70 0.6805
1109.80 0.6804
1109.90 0.6803
1110.00 0.6803
1110.10 0.6802
1110.20 0.6801
1110.30 0.68
1110.40 0.68
1110.50 0.6799
1110.60 0.6798
1110.70 0.6798
1110.80 0.6797
1110.90 0.6796
1111.00 0.6795
1111.10 0.6795
1111.20 0.6794
1111.30 0.6793
1111.40 0.6792
1111.50 0.6792
1111.60 0.6791
1111.70 0.679
1111.80 0.679
1111.90 0.6789
1112.00 0.6788
1112.10 0.6787
1112.20 0.6787
1112.30 0.6786
1112.40 0.6785
1112.50 0.6785
1112.60 0.6784
1112.70 0.6783
1112.80 0.6782
1112.90 0.6782
1113.00 0.6781
1113.10 0.678
1113.20 0.6779
1113.30 0.6779
1113.40 0.6778
1113.50 0.6777
1113.60 0.6777
1113.70 0.6776
1113.80 0.6775
1113.90 0.6774
1114.00 0.6774
1114.10 0.6773
1114.20 0.6772
1114.30 0.6772
1114.40 0.6771
1114.50 0.677
1114.60 0.6769
1114.70 0.6769
1114.80 0.6768
1114.90 0.6767
1115.00 0.6767
1115.10 0.6766
1115.20 0.6765
1115.30 0.6765
1115.40 0.6764
1115.50 0.6763
1115.60 0.6762
1115.70 0.6762
1115.80 0.6761
1115.90 0.676
1116.00 0.676
1116.10 0.6759
1116.20 0.6758
1116.30 0.6757
1116.40 0.6757
1116.50 0.6756
1116.60 0.6755
1116.70 0.6755
1116.80 0.6754
1116.90 0.6753
1117.00 0.6753
1117.10 0.6752
1117.20 0.6751
1117.30 0.675
1117.40 0.675
1117.50 0.6749
1117.60 0.6748
1117.70 0.6748
1117.80 0.6747
1117.90 0.6746
1118.00 0.6746
1118.10 0.6745
1118.20 0.6744
1118.30 0.6744
1118.40 0.6743
1118.50 0.6742
1118.60 0.6742
1118.70 0.6741
1118.80 0.674
1118.90 0.674
1119.00 0.6739
1119.10 0.6738
1119.20 0.6738
1119.30 0.6737
1119.40 0.6736
1119.50 0.6735
1119.60 0.6735
1119.70 0.6734
1119.80 0.6733
1119.90 0.6733
1120.00 0.6732
1120.10 0.6731
1120.20 0.6731
1120.30 0.673
1120.40 0.6729
1120.50 0.6729
1120.60 0.6728
1120.70 0.6727
1120.80 0.6727
1120.90 0.6726
1121.00 0.6725
1121.10 0.6725
1121.20 0.6724
1121.30 0.6723
1121.40 0.6723
1121.50 0.6722
1121.60 0.6721
1121.70 0.672
1121.80 0.672
1121.90 0.6719
1122.00 0.6718
1122.10 0.6718
1122.20 0.6717
1122.30 0.6716
1122.40 0.6716
1122.50 0.6715
1122.60 0.6714
1122.70 0.6714
1122.80 0.6713
1122.90 0.6712
1123.00 0.6712
1123.10 0.6711
1123.20 0.671
1123.30 0.671
1123.40 0.6709
1123.50 0.6708
1123.60 0.6707
1123.70 0.6707
1123.80 0.6706
1123.90 0.6705
1124.00 0.6705
1124.10 0.6704
1124.20 0.6703
1124.30 0.6703
1124.40 0.6702
1124.50 0.6701
1124.60 0.6701
1124.70 0.67
1124.80 0.6699
1124.90 0.6699
1125.00 0.6698
1125.10 0.6697
1125.20 0.6696
1125.30 0.6696
1125.40 0.6695
1125.50 0.6694
1125.60 0.6694
1125.70 0.6693
1125.80 0.6692
1125.90 0.6692
1126.00 0.6691
1126.10 0.669
1126.20 0.669
1126.30 0.6689
1126.40 0.6688
1126.50 0.6688
1126.60 0.6687
1126.70 0.6686
1126.80 0.6686
1126.90 0.6685
1127.00 0.6684
1127.10 0.6683
1127.20 0.6683
1127.30 0.6682
1127.40 0.6682
1127.50 0.6681
1127.60 0.668
1127.70 0.668
1127.80 0.6679
1127.90 0.6678
1128.00 0.6678
1128.10 0.6677
1128.20 0.6676
1128.30 0.6676
1128.40 0.6675
1128.50 0.6674
1128.60 0.6674
1128.70 0.6673
1128.80 0.6672
1128.90 0.6672
1129.00 0.6671
1129.10 0.667
1129.20 0.667
1129.30 0.6669
1129.40 0.6668
1129.50 0.6668
1129.60 0.6667
1129.70 0.6666
1129.80 0.6666
1129.90 0.6665
1130.00 0.6664
1130.10 0.6664
1130.20 0.6663
1130.30 0.6662
1130.40 0.6662
1130.50 0.6661
1130.60 0.666
1130.70 0.666
1130.80 0.6659
1130.90 0.6659
1131.00 0.6658
1131.10 0.6657
1131.20 0.6657
1131.30 0.6656
1131.40 0.6655
1131.50 0.6655
1131.60 0.6654
1131.70 0.6653
1131.80 0.6653
1131.90 0.6652
1132.00 0.6651
1132.10 0.6651
1132.20 0.665
1132.30 0.6649
1132.40 0.6648
1132.50 0.6648
1132.60 0.6647
1132.70 0.6646
1132.80 0.6646
1132.90 0.6645
1133.00 0.6644
1133.10 0.6643
1133.20 0.6643
1133.30 0.6642
1133.40 0.6641
1133.50 0.664
1133.60 0.664
1133.70 0.6639
1133.80 0.6638
1133.90 0.6638
1134.00 0.6637
1134.10 0.6636
1134.20 0.6635
1134.30 0.6635
1134.40 0.6634
1134.50 0.6633
1134.60 0.6633
1134.70 0.6632
1134.80 0.6631
1134.90 0.663
1135.00 0.663
1135.10 0.6629
1135.20 0.6628
1135.30 0.6628
1135.40 0.6627
1135.50 0.6626
1135.60 0.6625
1135.70 0.6625
1135.80 0.6624
1135.90 0.6623
1136.00 0.6623
1136.10 0.6622
1136.20 0.6621
1136.30 0.662
1136.40 0.662
1136.50 0.6619
1136.60 0.6618
1136.70 0.6618
1136.80 0.6617
1136.90 0.6616
1137.00 0.6615
1137.10 0.6615
1137.20 0.6614
1137.30 0.6613
1137.40 0.6612
1137.50 0.6612
1137.60 0.6611
1137.70 0.661
1137.80 0.6609
1137.90 0.6609
1138.00 0.6608
1138.10 0.6607
1138.20 0.6606
1138.30 0.6605
1138.40 0.6605
1138.50 0.6604
1138.60 0.6603
1138.70 0.6602
1138.80 0.6602
1138.90 0.6601
1139.00 0.66
1139.10 0.6599
1139.20 0.6599
1139.30 0.6598
1139.40 0.6597
1139.50 0.6596
1139.60 0.6596
1139.70 0.6595
1139.80 0.6594
1139.90 0.6593
1140.00 0.6593
1140.10 0.6592
1140.20 0.6591
1140.30 0.659
1140.40 0.659
1140.50 0.6589
1140.60 0.6588
1140.70 0.6587
1140.80 0.6587
1140.90 0.6586
1141.00 0.6585
1141.10 0.6584
1141.20 0.6584
1141.30 0.6583
1141.40 0.6582
1141.50 0.6581
1141.60 0.6581
1141.70 0.658
1141.80 0.6579
1141.90 0.6578
1142.00 0.6578
1142.10 0.6577
1142.20 0.6576
1142.30 0.6575
1142.40 0.6574
1142.50 0.6574
1142.60 0.6573
1142.70 0.6572
1142.80 0.6571
1142.90 0.657
1143.00 0.657
1143.10 0.6569
1143.20 0.6568
1143.30 0.6567
1143.40 0.6567
1143.50 0.6566
1143.60 0.6565
1143.70 0.6564
1143.80 0.6563
1143.90 0.6563
1144.00 0.6562
1144.10 0.6561
1144.20 0.656
1144.30 0.6559
1144.40 0.6559
1144.50 0.6558
1144.60 0.6557
1144.70 0.6556
1144.80 0.6556
1144.90 0.6555
1145.00 0.6554
1145.10 0.6553
1145.20 0.6552
1145.30 0.6552
1145.40 0.6551
1145.50 0.655
1145.60 0.6549
1145.70 0.6549
1145.80 0.6548
1145.90 0.6547
1146.00 0.6546
1146.10 0.6545
1146.20 0.6545
1146.30 0.6544
1146.40 0.6543
1146.50 0.6542
1146.60 0.6541
1146.70 0.6541
1146.80 0.654
1146.90 0.6539
1147.00 0.6538
1147.10 0.6538
1147.20 0.6537
1147.30 0.6536
1147.40 0.6535
1147.50 0.6534
1147.60 0.6533
1147.70 0.6532
1147.80 0.6532
1147.90 0.6531
1148.00 0.653
1148.10 0.6529
1148.20 0.6528
1148.30 0.6527
1148.40 0.6526
1148.50 0.6526
1148.60 0.6525
1148.70 0.6524
1148.80 0.6523
1148.90 0.6522
1149.00 0.6521
1149.10 0.652
1149.20 0.652
1149.30 0.6519
1149.40 0.6518
1149.50 0.6517
1149.60 0.6516
1149.70 0.6515
1149.80 0.6514
1149.90 0.6514
1150.00 0.6513
1150.10 0.6512
1150.20 0.6511
1150.30 0.651
1150.40 0.6509
1150.50 0.6508
1150.60 0.6508
1150.70 0.6507
1150.80 0.6506
1150.90 0.6505
1151.00 0.6504
1151.10 0.6503
1151.20 0.6503
1151.30 0.6502
1151.40 0.6501
1151.50 0.65
1151.60 0.6499
1151.70 0.6498
1151.80 0.6497
1151.90 0.6497
1152.00 0.6496
1152.10 0.6495
1152.20 0.6494
1152.30 0.6493
1152.40 0.6492
1152.50 0.6491
1152.60 0.6491
1152.70 0.649
1152.80 0.6489
1152.90 0.6488
1153.00 0.6487
1153.10 0.6486
1153.20 0.6485
1153.30 0.6484
1153.40 0.6484
1153.50 0.6483
1153.60 0.6482
1153.70 0.6481
1153.80 0.648
1153.90 0.6479
1154.00 0.6478
1154.10 0.6478
1154.20 0.6477
1154.30 0.6476
1154.40 0.6475
1154.50 0.6474
1154.60 0.6473
1154.70 0.6472
1154.80 0.6471
1154.90 0.6471
1155.00 0.647
1155.10 0.6469
1155.20 0.6468
1155.30 0.6467
1155.40 0.6466
1155.50 0.6465
1155.60 0.6465
1155.70 0.6464
1155.80 0.6463
1155.90 0.6462
1156.00 0.6461
1156.10 0.646
1156.20 0.6459
1156.30 0.6459
1156.40 0.6458
1156.50 0.6457
1156.60 0.6456
1156.70 0.6455
1156.80 0.6454
1156.90 0.6453
1157.00 0.6452
1157.10 0.6452
1157.20 0.6451
1157.30 0.645
1157.40 0.6449
1157.50 0.6448
1157.60 0.6447
1157.70 0.6446
1157.80 0.6445
1157.90 0.6444
1158.00 0.6443
1158.10 0.6442
1158.20 0.6441
1158.30 0.644
1158.40 0.6439
1158.50 0.6438
1158.60 0.6437
1158.70 0.6436
1158.80 0.6435
1158.90 0.6434
1159.00 0.6433
1159.10 0.6432
1159.20 0.6431
1159.30 0.643
1159.40 0.6429
1159.50 0.6428
1159.60 0.6427
1159.70 0.6426
1159.80 0.6425
1159.90 0.6424
1160.00 0.6423
1160.10 0.6422
1160.20 0.6422
1160.30 0.6421
1160.40 0.642
1160.50 0.6419
1160.60 0.6418
1160.70 0.6417
1160.80 0.6416
1160.90 0.6415
1161.00 0.6414
1161.10 0.6413
1161.20 0.6412
1161.30 0.6411
1161.40 0.641
1161.50 0.6409
1161.60 0.6408
1161.70 0.6407
1161.80 0.6406
1161.90 0.6405
1162.00 0.6404
1162.10 0.6403
1162.20 0.6402
1162.30 0.6401
1162.40 0.64
1162.50 0.6399
1162.60 0.6398
1162.70 0.6397
1162.80 0.6396
1162.90 0.6395
1163.00 0.6394
1163.10 0.6393
1163.20 0.6392
1163.30 0.6391
1163.40 0.639
1163.50 0.6389
1163.60 0.6388
1163.70 0.6387
1163.80 0.6386
1163.90 0.6385
1164.00 0.6384
1164.10 0.6383
1164.20 0.6382
1164.30 0.6381
1164.40 0.638
1164.50 0.6379
1164.60 0.6378
1164.70 0.6377
1164.80 0.6376
1164.90 0.6375
1165.00 0.6374
1165.10 0.6373
1165.20 0.6372
1165.30 0.6371
1165.40 0.637
1165.50 0.6369
1165.60 0.6367
1165.70 0.6366
1165.80 0.6365
1165.90 0.6364
1166.00 0.6363
1166.10 0.6362
1166.20 0.6361
1166.30 0.636
1166.40 0.6359
1166.50 0.6358
1166.60 0.6357
1166.70 0.6356
1166.80 0.6355
1166.90 0.6354
1167.00 0.6353
1167.10 0.6352
1167.20 0.6351
1167.30 0.635
1167.40 0.6349
1167.50 0.6348
1167.60 0.6347
1167.70 0.6346
1167.80 0.6345
1167.90 0.6344
1168.00 0.6342
1168.10 0.6341
1168.20 0.634
1168.30 0.6339
1168.40 0.6338
1168.50 0.6337
1168.60 0.6336
1168.70 0.6335
1168.80 0.6334
1168.90 0.6333
1169.00 0.6332
1169.10 0.633
1169.20 0.6329
1169.30 0.6328
1169.40 0.6327
1169.50 0.6326
1169.60 0.6325
1169.70 0.6324
1169.80 0.6323
1169.90 0.6322
1170.00 0.6321
1170.10 0.632
1170.20 0.6319
1170.30 0.6318
1170.40 0.6316
1170.50 0.6315
1170.60 0.6314
1170.70 0.6313
1170.80 0.6312
1170.90 0.6311
1171.00 0.631
1171.10 0.6309
1171.20 0.6308
1171.30 0.6307
1171.40 0.6306
1171.50 0.6305
1171.60 0.6303
1171.70 0.6302
1171.80 0.6301
1171.90 0.63
1172.00 0.6299
1172.10 0.6298
1172.20 0.6297
1172.30 0.6296
1172.40 0.6295
1172.50 0.6293
1172.60 0.6292
1172.70 0.6291
1172.80 0.629
1172.90 0.6289
1173.00 0.6288
1173.10 0.6287
1173.20 0.6286
1173.30 0.6284
1173.40 0.6283
1173.50 0.6282
1173.60 0.6281
1173.70 0.628
1173.80 0.6279
1173.90 0.6278
1174.00 0.6276
1174.10 0.6275
1174.20 0.6274
1174.30 0.6273
1174.40 0.6272
1174.50 0.6271
1174.60 0.627
1174.70 0.6269
1174.80 0.6267
1174.90 0.6266
1175.00 0.6265
1175.10 0.6264
1175.20 0.6263
1175.30 0.6262
1175.40 0.6261
1175.50 0.6259
1175.60 0.6258
1175.70 0.6257
1175.80 0.6256
1175.90 0.6255
1176.00 0.6254
1176.10 0.6253
1176.20 0.6252
1176.30 0.625
1176.40 0.6249
1176.50 0.6248
1176.60 0.6247
1176.70 0.6246
1176.80 0.6245
1176.90 0.6244
1177.00 0.6243
1177.10 0.6241
1177.20 0.624
1177.30 0.6239
1177.40 0.6238
1177.50 0.6237
1177.60 0.6235
1177.70 0.6234
1177.80 0.6233
1177.90 0.6232
1178.00 0.6231
1178.10 0.623
1178.20 0.6228
1178.30 0.6227
1178.40 0.6226
1178.50 0.6225
1178.60 0.6224
1178.70 0.6222
1178.80 0.6221
1178.90 0.622
1179.00 0.6219
1179.10 0.6218
1179.20 0.6216
1179.30 0.6215
1179.40 0.6214
1179.50 0.6213
1179.60 0.6212
1179.70 0.6211
1179.80 0.6209
1179.90 0.6208
1180.00 0.6207
1180.10 0.6206
1180.20 0.6205
1180.30 0.6203
1180.40 0.6202
1180.50 0.6201
1180.60 0.62
1180.70 0.6199
1180.80 0.6198
1180.90 0.6196
1181.00 0.6195
1181.10 0.6194
1181.20 0.6193
1181.30 0.6192
1181.40 0.6191
1181.50 0.6189
1181.60 0.6188
1181.70 0.6187
1181.80 0.6186
1181.90 0.6185
1182.00 0.6183
1182.10 0.6182
1182.20 0.6181
1182.30 0.618
1182.40 0.6178
1182.50 0.6177
1182.60 0.6176
1182.70 0.6175
1182.80 0.6174
1182.90 0.6172
1183.00 0.6171
1183.10 0.617
1183.20 0.6169
1183.30 0.6167
1183.40 0.6166
1183.50 0.6165
1183.60 0.6164
1183.70 0.6162
1183.80 0.6161
1183.90 0.616
1184.00 0.6159
1184.10 0.6157
1184.20 0.6156
1184.30 0.6155
1184.40 0.6154
1184.50 0.6152
1184.60 0.6151
1184.70 0.615
1184.80 0.6149
1184.90 0.6147
1185.00 0.6146
1185.10 0.6145
1185.20 0.6144
1185.30 0.6142
1185.40 0.6141
1185.50 0.614
1185.60 0.6139
1185.70 0.6138
1185.80 0.6136
1185.90 0.6135
1186.00 0.6134
1186.10 0.6133
1186.20 0.6131
1186.30 0.613
1186.40 0.6129
1186.50 0.6128
1186.60 0.6126
1186.70 0.6125
1186.80 0.6124
1186.90 0.6123
1187.00 0.6121
1187.10 0.612
1187.20 0.6119
1187.30 0.6118
1187.40 0.6116
1187.50 0.6115
1187.60 0.6114
1187.70 0.6113
1187.80 0.6111
1187.90 0.611
1188.00 0.6109
1188.10 0.6108
1188.20 0.6106
1188.30 0.6105
1188.40 0.6104
1188.50 0.6103
1188.60 0.6101
1188.70 0.61
1188.80 0.6099
1188.90 0.6098
1189.00 0.6096
1189.10 0.6095
1189.20 0.6094
1189.30 0.6093
1189.40 0.6092
1189.50 0.609
1189.60 0.6089
1189.70 0.6088
1189.80 0.6087
1189.90 0.6085
1190.00 0.6084
1190.10 0.6083
1190.20 0.6082
1190.30 0.608
1190.40 0.6079
1190.50 0.6078
1190.60 0.6077
1190.70 0.6075
1190.80 0.6074
1190.90 0.6073
1191.00 0.6072
1191.10 0.607
1191.20 0.6069
1191.30 0.6068
1191.40 0.6067
1191.50 0.6065
1191.60 0.6064
1191.70 0.6063
1191.80 0.6062
1191.90 0.606
1192.00 0.6059
1192.10 0.6058
1192.20 0.6057
1192.30 0.6055
1192.40 0.6054
1192.50 0.6053
1192.60 0.6052
1192.70 0.605
1192.80 0.6049
1192.90 0.6048
1193.00 0.6046
1193.10 0.6045
1193.20 0.6044
1193.30 0.6043
1193.40 0.6041
1193.50 0.604
1193.60 0.6039
1193.70 0.6037
1193.80 0.6036
1193.90 0.6035
1194.00 0.6034
1194.10 0.6032
1194.20 0.6031
1194.30 0.603
1194.40 0.6028
1194.50 0.6027
1194.60 0.6026
1194.70 0.6025
1194.80 0.6023
1194.90 0.6022
1195.00 0.6021
1195.10 0.6019
1195.20 0.6018
1195.30 0.6017
1195.40 0.6016
1195.50 0.6014
1195.60 0.6013
1195.70 0.6012
1195.80 0.6011
1195.90 0.6009
1196.00 0.6008
1196.10 0.6007
1196.20 0.6005
1196.30 0.6004
1196.40 0.6003
1196.50 0.6002
1196.60 0.6
1196.70 0.5999
1196.80 0.5998
1196.90 0.5997
1197.00 0.5995
1197.10 0.5994
1197.20 0.5993
1197.30 0.5991
1197.40 0.599
1197.50 0.5989
1197.60 0.5987
1197.70 0.5986
1197.80 0.5985
1197.90 0.5983
1198.00 0.5982
1198.10 0.5981
1198.20 0.5979
1198.30 0.5978
1198.40 0.5977
1198.50 0.5975
1198.60 0.5974
1198.70 0.5973
1198.80 0.5971
1198.90 0.597
1199.00 0.5969
1199.10 0.5968
1199.20 0.5966
1199.30 0.5965
1199.40 0.5964
1199.50 0.5962
1199.60 0.5961
1199.70 0.596
1199.80 0.5958
1199.90 0.5957
1200.00 0
