# Version 2.1 - nm, norm@500 to 1, cut digits, bergeron_15500_65.dat_15500
# Wavelength(nm)  Flambda(ergs/cm^s/s/nm)
300.00 2.213
300.10 2.211
300.20 2.21
300.30 2.208
300.40 2.206
300.50 2.204
300.60 2.203
300.70 2.201
300.80 2.199
300.90 2.198
301.00 2.196
301.10 2.194
301.20 2.193
301.30 2.191
301.40 2.189
301.50 2.187
301.60 2.186
301.70 2.184
301.80 2.182
301.90 2.181
302.00 2.179
302.10 2.177
302.20 2.176
302.30 2.174
302.40 2.172
302.50 2.171
302.60 2.169
302.70 2.167
302.80 2.166
302.90 2.164
303.00 2.162
303.10 2.161
303.20 2.159
303.30 2.157
303.40 2.156
303.50 2.154
303.60 2.152
303.70 2.151
303.80 2.149
303.90 2.147
304.00 2.146
304.10 2.144
304.20 2.142
304.30 2.141
304.40 2.139
304.50 2.137
304.60 2.136
304.70 2.134
304.80 2.132
304.90 2.131
305.00 2.129
305.10 2.128
305.20 2.126
305.30 2.124
305.40 2.123
305.50 2.121
305.60 2.119
305.70 2.118
305.80 2.116
305.90 2.115
306.00 2.113
306.10 2.111
306.20 2.11
306.30 2.108
306.40 2.107
306.50 2.105
306.60 2.103
306.70 2.102
306.80 2.1
306.90 2.099
307.00 2.097
307.10 2.095
307.20 2.094
307.30 2.092
307.40 2.091
307.50 2.089
307.60 2.087
307.70 2.086
307.80 2.084
307.90 2.083
308.00 2.081
308.10 2.079
308.20 2.078
308.30 2.076
308.40 2.075
308.50 2.073
308.60 2.072
308.70 2.07
308.80 2.068
308.90 2.067
309.00 2.065
309.10 2.064
309.20 2.062
309.30 2.061
309.40 2.059
309.50 2.057
309.60 2.056
309.70 2.054
309.80 2.053
309.90 2.051
310.00 2.05
310.10 2.048
310.20 2.047
310.30 2.045
310.40 2.044
310.50 2.042
310.60 2.04
310.70 2.039
310.80 2.037
310.90 2.036
311.00 2.034
311.10 2.033
311.20 2.031
311.30 2.03
311.40 2.028
311.50 2.027
311.60 2.025
311.70 2.024
311.80 2.022
311.90 2.021
312.00 2.019
312.10 2.017
312.20 2.016
312.30 2.014
312.40 2.013
312.50 2.011
312.60 2.01
312.70 2.008
312.80 2.007
312.90 2.005
313.00 2.004
313.10 2.002
313.20 2.001
313.30 1.999
313.40 1.998
313.50 1.996
313.60 1.995
313.70 1.993
313.80 1.992
313.90 1.99
314.00 1.989
314.10 1.987
314.20 1.986
314.30 1.984
314.40 1.983
314.50 1.982
314.60 1.98
314.70 1.979
314.80 1.977
314.90 1.976
315.00 1.974
315.10 1.973
315.20 1.971
315.30 1.97
315.40 1.968
315.50 1.967
315.60 1.965
315.70 1.964
315.80 1.962
315.90 1.961
316.00 1.959
316.10 1.958
316.20 1.957
316.30 1.955
316.40 1.954
316.50 1.952
316.60 1.951
316.70 1.949
316.80 1.948
316.90 1.946
317.00 1.945
317.10 1.944
317.20 1.942
317.30 1.941
317.40 1.939
317.50 1.938
317.60 1.936
317.70 1.935
317.80 1.933
317.90 1.932
318.00 1.931
318.10 1.929
318.20 1.928
318.30 1.926
318.40 1.925
318.50 1.923
318.60 1.922
318.70 1.921
318.80 1.919
318.90 1.918
319.00 1.916
319.10 1.915
319.20 1.914
319.30 1.912
319.40 1.911
319.50 1.909
319.60 1.908
319.70 1.907
319.80 1.905
319.90 1.904
320.00 1.902
320.10 1.901
320.20 1.9
320.30 1.898
320.40 1.897
320.50 1.895
320.60 1.894
320.70 1.893
320.80 1.891
320.90 1.89
321.00 1.888
321.10 1.887
321.20 1.886
321.30 1.884
321.40 1.883
321.50 1.881
321.60 1.88
321.70 1.879
321.80 1.877
321.90 1.876
322.00 1.875
322.10 1.873
322.20 1.872
322.30 1.87
322.40 1.869
322.50 1.868
322.60 1.866
322.70 1.865
322.80 1.864
322.90 1.862
323.00 1.861
323.10 1.86
323.20 1.858
323.30 1.857
323.40 1.855
323.50 1.854
323.60 1.853
323.70 1.851
323.80 1.85
323.90 1.849
324.00 1.847
324.10 1.846
324.20 1.845
324.30 1.843
324.40 1.842
324.50 1.841
324.60 1.839
324.70 1.838
324.80 1.837
324.90 1.835
325.00 1.834
325.10 1.833
325.20 1.831
325.30 1.83
325.40 1.829
325.50 1.827
325.60 1.826
325.70 1.825
325.80 1.823
325.90 1.822
326.00 1.821
326.10 1.819
326.20 1.818
326.30 1.817
326.40 1.815
326.50 1.814
326.60 1.813
326.70 1.811
326.80 1.81
326.90 1.809
327.00 1.807
327.10 1.806
327.20 1.805
327.30 1.804
327.40 1.802
327.50 1.801
327.60 1.8
327.70 1.798
327.80 1.797
327.90 1.796
328.00 1.794
328.10 1.793
328.20 1.792
328.30 1.791
328.40 1.789
328.50 1.788
328.60 1.787
328.70 1.785
328.80 1.784
328.90 1.783
329.00 1.782
329.10 1.78
329.20 1.779
329.30 1.778
329.40 1.776
329.50 1.775
329.60 1.774
329.70 1.773
329.80 1.771
329.90 1.77
330.00 1.769
330.10 1.768
330.20 1.766
330.30 1.765
330.40 1.764
330.50 1.762
330.60 1.761
330.70 1.76
330.80 1.759
330.90 1.757
331.00 1.756
331.10 1.755
331.20 1.754
331.30 1.752
331.40 1.751
331.50 1.75
331.60 1.749
331.70 1.747
331.80 1.746
331.90 1.745
332.00 1.744
332.10 1.742
332.20 1.741
332.30 1.74
332.40 1.739
332.50 1.737
332.60 1.736
332.70 1.735
332.80 1.734
332.90 1.732
333.00 1.731
333.10 1.73
333.20 1.729
333.30 1.728
333.40 1.726
333.50 1.725
333.60 1.724
333.70 1.723
333.80 1.721
333.90 1.72
334.00 1.719
334.10 1.718
334.20 1.716
334.30 1.715
334.40 1.714
334.50 1.713
334.60 1.712
334.70 1.71
334.80 1.709
334.90 1.708
335.00 1.707
335.10 1.706
335.20 1.704
335.30 1.703
335.40 1.702
335.50 1.701
335.60 1.699
335.70 1.698
335.80 1.697
335.90 1.696
336.00 1.695
336.10 1.693
336.20 1.692
336.30 1.691
336.40 1.69
336.50 1.689
336.60 1.687
336.70 1.686
336.80 1.685
336.90 1.684
337.00 1.683
337.10 1.682
337.20 1.68
337.30 1.679
337.40 1.678
337.50 1.677
337.60 1.676
337.70 1.674
337.80 1.673
337.90 1.672
338.00 1.671
338.10 1.67
338.20 1.669
338.30 1.667
338.40 1.666
338.50 1.665
338.60 1.664
338.70 1.663
338.80 1.661
338.90 1.66
339.00 1.659
339.10 1.658
339.20 1.657
339.30 1.656
339.40 1.654
339.50 1.653
339.60 1.652
339.70 1.651
339.80 1.65
339.90 1.649
340.00 1.648
340.10 1.646
340.20 1.645
340.30 1.644
340.40 1.643
340.50 1.642
340.60 1.641
340.70 1.639
340.80 1.638
340.90 1.637
341.00 1.636
341.10 1.635
341.20 1.634
341.30 1.633
341.40 1.631
341.50 1.63
341.60 1.629
341.70 1.628
341.80 1.627
341.90 1.626
342.00 1.625
342.10 1.623
342.20 1.622
342.30 1.621
342.40 1.62
342.50 1.619
342.60 1.618
342.70 1.617
342.80 1.616
342.90 1.614
343.00 1.613
343.10 1.612
343.20 1.611
343.30 1.61
343.40 1.609
343.50 1.608
343.60 1.607
343.70 1.605
343.80 1.604
343.90 1.603
344.00 1.602
344.10 1.601
344.20 1.6
344.30 1.599
344.40 1.598
344.50 1.597
344.60 1.595
344.70 1.594
344.80 1.593
344.90 1.592
345.00 1.591
345.10 1.59
345.20 1.589
345.30 1.588
345.40 1.587
345.50 1.585
345.60 1.584
345.70 1.583
345.80 1.582
345.90 1.581
346.00 1.58
346.10 1.579
346.20 1.578
346.30 1.577
346.40 1.576
346.50 1.575
346.60 1.573
346.70 1.572
346.80 1.571
346.90 1.57
347.00 1.569
347.10 1.568
347.20 1.567
347.30 1.566
347.40 1.565
347.50 1.564
347.60 1.563
347.70 1.562
347.80 1.56
347.90 1.559
348.00 1.558
348.10 1.557
348.20 1.556
348.30 1.555
348.40 1.554
348.50 1.553
348.60 1.552
348.70 1.551
348.80 1.55
348.90 1.549
349.00 1.548
349.10 1.547
349.20 1.545
349.30 1.544
349.40 1.543
349.50 1.542
349.60 1.541
349.70 1.54
349.80 1.539
349.90 1.538
350.00 1.537
350.10 1.536
350.20 1.535
350.30 1.534
350.40 1.533
350.50 1.532
350.60 1.531
350.70 1.53
350.80 1.529
350.90 1.528
351.00 1.526
351.10 1.525
351.20 1.524
351.30 1.523
351.40 1.522
351.50 1.521
351.60 1.52
351.70 1.519
351.80 1.518
351.90 1.517
352.00 1.516
352.10 1.515
352.20 1.514
352.30 1.513
352.40 1.512
352.50 1.511
352.60 1.51
352.70 1.509
352.80 1.508
352.90 1.507
353.00 1.506
353.10 1.505
353.20 1.504
353.30 1.503
353.40 1.502
353.50 1.501
353.60 1.5
353.70 1.499
353.80 1.498
353.90 1.497
354.00 1.496
354.10 1.495
354.20 1.494
354.30 1.492
354.40 1.491
354.50 1.49
354.60 1.489
354.70 1.488
354.80 1.487
354.90 1.486
355.00 1.485
355.10 1.484
355.20 1.483
355.30 1.482
355.40 1.481
355.50 1.48
355.60 1.479
355.70 1.478
355.80 1.477
355.90 1.476
356.00 1.475
356.10 1.474
356.20 1.473
356.30 1.472
356.40 1.471
356.50 1.47
356.60 1.469
356.70 1.468
356.80 1.467
356.90 1.466
357.00 1.465
357.10 1.464
357.20 1.463
357.30 1.462
357.40 1.461
357.50 1.46
357.60 1.459
357.70 1.458
357.80 1.457
357.90 1.457
358.00 1.456
358.10 1.455
358.20 1.454
358.30 1.453
358.40 1.452
358.50 1.451
358.60 1.45
358.70 1.449
358.80 1.448
358.90 1.447
359.00 1.446
359.10 1.445
359.20 1.444
359.30 1.443
359.40 1.442
359.50 1.441
359.60 1.44
359.70 1.439
359.80 1.438
359.90 1.437
360.00 1.436
360.10 1.435
360.20 1.434
360.30 1.433
360.40 1.432
360.50 1.431
360.60 1.43
360.70 1.429
360.80 1.428
360.90 1.427
361.00 1.426
361.10 1.425
361.20 1.425
361.30 1.424
361.40 1.423
361.50 1.422
361.60 1.421
361.70 1.42
361.80 1.419
361.90 1.418
362.00 1.417
362.10 1.416
362.20 1.415
362.30 1.414
362.40 1.413
362.50 1.412
362.60 1.411
362.70 1.41
362.80 1.409
362.90 1.408
363.00 1.407
363.10 1.406
363.20 1.406
363.30 1.405
363.40 1.404
363.50 1.403
363.60 1.402
363.70 1.401
363.80 1.4
363.90 1.399
364.00 1.398
364.10 1.397
364.20 1.396
364.30 1.395
364.40 1.394
364.50 1.393
364.60 1.392
364.70 1.391
364.80 1.391
364.90 1.39
365.00 1.389
365.10 1.388
365.20 1.387
365.30 1.386
365.40 1.385
365.50 1.384
365.60 1.384
365.70 1.383
365.80 1.382
365.90 1.381
366.00 1.38
366.10 1.379
366.20 1.379
366.30 1.378
366.40 1.377
366.50 1.376
366.60 1.375
366.70 1.375
366.80 1.374
366.90 1.373
367.00 1.372
367.10 1.371
367.20 1.371
367.30 1.37
367.40 1.369
367.50 1.368
367.60 1.367
367.70 1.367
367.80 1.366
367.90 1.365
368.00 1.364
368.10 1.365
368.20 1.366
368.30 1.366
368.40 1.367
368.50 1.368
368.60 1.368
368.70 1.369
368.80 1.37
368.90 1.37
369.00 1.371
369.10 1.372
369.20 1.372
369.30 1.373
369.40 1.374
369.50 1.374
369.60 1.375
369.70 1.376
369.80 1.376
369.90 1.377
370.00 1.378
370.10 1.381
370.20 1.385
370.30 1.388
370.40 1.391
370.50 1.395
370.60 1.398
370.70 1.402
370.80 1.405
370.90 1.409
371.00 1.412
371.10 1.415
371.20 1.419
371.30 1.422
371.40 1.426
371.50 1.429
371.60 1.432
371.70 1.436
371.80 1.439
371.90 1.443
372.00 1.446
372.10 1.452
372.20 1.457
372.30 1.463
372.40 1.469
372.50 1.475
372.60 1.48
372.70 1.486
372.80 1.492
372.90 1.497
373.00 1.503
373.10 1.509
373.20 1.514
373.30 1.52
373.40 1.526
373.50 1.531
373.60 1.537
373.70 1.543
373.80 1.548
373.90 1.554
374.00 1.559
374.10 1.565
374.20 1.571
374.30 1.576
374.40 1.582
374.50 1.588
374.60 1.594
374.70 1.599
374.80 1.605
374.90 1.611
375.00 1.616
375.10 1.622
375.20 1.628
375.30 1.633
375.40 1.639
375.50 1.644
375.60 1.65
375.70 1.656
375.80 1.661
375.90 1.667
376.00 1.672
376.10 1.675
376.20 1.678
376.30 1.68
376.40 1.683
376.50 1.685
376.60 1.688
376.70 1.69
376.80 1.693
376.90 1.695
377.00 1.697
377.10 1.692
377.20 1.686
377.30 1.68
377.40 1.674
377.50 1.669
377.60 1.663
377.70 1.657
377.80 1.651
377.90 1.645
378.00 1.64
378.10 1.611
378.20 1.582
378.30 1.553
378.40 1.524
378.50 1.496
378.60 1.467
378.70 1.438
378.80 1.409
378.90 1.381
379.00 1.352
379.10 1.328
379.20 1.304
379.30 1.281
379.40 1.257
379.50 1.233
379.60 1.209
379.70 1.186
379.80 1.162
379.90 1.139
380.00 1.115
380.10 1.152
380.20 1.189
380.30 1.226
380.40 1.263
380.50 1.299
380.60 1.336
380.70 1.373
380.80 1.41
380.90 1.446
381.00 1.483
381.10 1.499
381.20 1.516
381.30 1.532
381.40 1.549
381.50 1.565
381.60 1.568
381.70 1.566
381.80 1.559
381.90 1.548
382.00 1.532
382.10 1.511
382.20 1.486
382.30 1.442
382.40 1.399
382.50 1.356
382.60 1.313
382.70 1.27
382.80 1.227
382.90 1.184
383.00 1.141
383.10 1.098
383.20 1.055
383.30 1.007
383.40 0.9573
383.50 0.9023
383.60 0.9146
383.70 0.9673
383.80 1.016
383.90 1.063
384.00 1.109
384.10 1.156
384.20 1.204
384.30 1.252
384.40 1.3
384.50 1.348
384.60 1.393
384.70 1.436
384.80 1.476
384.90 1.512
385.00 1.545
385.10 1.573
385.20 1.599
385.30 1.622
385.40 1.64
385.50 1.657
385.60 1.671
385.70 1.682
385.80 1.69
385.90 1.697
386.00 1.701
386.10 1.702
386.20 1.703
386.30 1.699
386.40 1.694
386.50 1.688
386.60 1.678
386.70 1.666
386.80 1.653
386.90 1.636
387.00 1.617
387.10 1.596
387.20 1.571
387.30 1.544
387.40 1.514
387.50 1.48
387.60 1.442
387.70 1.403
387.80 1.358
387.90 1.311
388.00 1.262
388.10 1.21
388.20 1.158
388.30 1.106
388.40 1.056
388.50 1.005
388.60 0.9551
388.70 0.9024
388.80 0.8443
388.90 0.781
389.00 0.8399
389.10 0.8955
389.20 0.9477
389.30 0.9969
389.40 1.046
389.50 1.096
389.60 1.146
389.70 1.197
389.80 1.248
389.90 1.297
390.00 1.344
390.10 1.389
390.20 1.43
390.30 1.469
390.40 1.505
390.50 1.538
390.60 1.568
390.70 1.596
390.80 1.621
390.90 1.645
391.00 1.667
391.10 1.687
391.20 1.706
391.30 1.723
391.40 1.739
391.50 1.753
391.60 1.766
391.70 1.778
391.80 1.789
391.90 1.798
392.00 1.807
392.10 1.814
392.20 1.821
392.30 1.826
392.40 1.83
392.50 1.834
392.60 1.836
392.70 1.838
392.80 1.838
392.90 1.838
393.00 1.836
393.10 1.834
393.20 1.831
393.30 1.827
393.40 1.822
393.50 1.815
393.60 1.808
393.70 1.8
393.80 1.791
393.90 1.78
394.00 1.769
394.10 1.756
394.20 1.742
394.30 1.727
394.40 1.711
394.50 1.693
394.60 1.675
394.70 1.654
394.80 1.632
394.90 1.609
395.00 1.584
395.10 1.558
395.20 1.531
395.30 1.501
395.40 1.469
395.50 1.436
395.60 1.399
395.70 1.361
395.80 1.321
395.90 1.278
396.00 1.233
396.10 1.187
396.20 1.139
396.30 1.089
396.40 1.039
396.50 0.9901
396.60 0.9411
396.70 0.8924
396.80 0.8398
396.90 0.7719
397.00 0.6888
397.10 0.7658
397.20 0.8307
397.30 0.8834
397.40 0.9311
397.50 0.979
397.60 1.027
397.70 1.076
397.80 1.124
397.90 1.171
398.00 1.216
398.10 1.259
398.20 1.301
398.30 1.339
398.40 1.376
398.50 1.411
398.60 1.443
398.70 1.474
398.80 1.503
398.90 1.529
399.00 1.555
399.10 1.579
399.20 1.601
399.30 1.622
399.40 1.643
399.50 1.661
399.60 1.679
399.70 1.696
399.80 1.711
399.90 1.726
400.00 1.74
400.10 1.752
400.20 1.764
400.30 1.775
400.40 1.785
400.50 1.795
400.60 1.804
400.70 1.812
400.80 1.82
400.90 1.827
401.00 1.834
401.10 1.84
401.20 1.845
401.30 1.85
401.40 1.855
401.50 1.859
401.60 1.863
401.70 1.867
401.80 1.87
401.90 1.872
402.00 1.875
402.10 1.877
402.20 1.879
402.30 1.88
402.40 1.882
402.50 1.883
402.60 1.884
402.70 1.884
402.80 1.884
402.90 1.884
403.00 1.884
403.10 1.884
403.20 1.883
403.30 1.883
403.40 1.882
403.50 1.881
403.60 1.879
403.70 1.878
403.80 1.876
403.90 1.874
404.00 1.872
404.10 1.869
404.20 1.867
404.30 1.864
404.40 1.861
404.50 1.858
404.60 1.854
404.70 1.851
404.80 1.847
404.90 1.843
405.00 1.838
405.10 1.833
405.20 1.828
405.30 1.823
405.40 1.817
405.50 1.811
405.60 1.805
405.70 1.799
405.80 1.791
405.90 1.784
406.00 1.776
406.10 1.768
406.20 1.759
406.30 1.75
406.40 1.74
406.50 1.73
406.60 1.719
406.70 1.707
406.80 1.695
406.90 1.682
407.00 1.668
407.10 1.654
407.20 1.639
407.30 1.622
407.40 1.605
407.50 1.587
407.60 1.567
407.70 1.547
407.80 1.526
407.90 1.503
408.00 1.48
408.10 1.455
408.20 1.43
408.30 1.403
408.40 1.376
408.50 1.347
408.60 1.317
408.70 1.286
408.80 1.253
408.90 1.219
409.00 1.184
409.10 1.147
409.20 1.109
409.30 1.07
409.40 1.028
409.50 0.9853
409.60 0.9418
409.70 0.8983
409.80 0.8548
409.90 0.8113
410.00 0.7588
410.10 0.6974
410.20 0.6272
410.30 0.7177
410.40 0.7862
410.50 0.8328
410.60 0.8751
410.70 0.9175
410.80 0.9599
410.90 1.002
411.00 1.042
411.10 1.082
411.20 1.118
411.30 1.154
411.40 1.189
411.50 1.221
411.60 1.252
411.70 1.282
411.80 1.31
411.90 1.337
412.00 1.363
412.10 1.388
412.20 1.412
412.30 1.434
412.40 1.456
412.50 1.476
412.60 1.496
412.70 1.514
412.80 1.531
412.90 1.547
413.00 1.562
413.10 1.577
413.20 1.59
413.30 1.602
413.40 1.614
413.50 1.625
413.60 1.635
413.70 1.644
413.80 1.653
413.90 1.661
414.00 1.669
414.10 1.676
414.20 1.683
414.30 1.689
414.40 1.695
414.50 1.7
414.60 1.705
414.70 1.71
414.80 1.714
414.90 1.718
415.00 1.722
415.10 1.726
415.20 1.729
415.30 1.732
415.40 1.735
415.50 1.737
415.60 1.74
415.70 1.742
415.80 1.744
415.90 1.745
416.00 1.747
416.10 1.749
416.20 1.75
416.30 1.751
416.40 1.752
416.50 1.753
416.60 1.754
416.70 1.755
416.80 1.756
416.90 1.756
417.00 1.757
417.10 1.757
417.20 1.757
417.30 1.758
417.40 1.758
417.50 1.758
417.60 1.758
417.70 1.758
417.80 1.758
417.90 1.758
418.00 1.757
418.10 1.757
418.20 1.757
418.30 1.757
418.40 1.756
418.50 1.756
418.60 1.755
418.70 1.755
418.80 1.754
418.90 1.754
419.00 1.753
419.10 1.752
419.20 1.752
419.30 1.751
419.40 1.75
419.50 1.75
419.60 1.749
419.70 1.748
419.80 1.747
419.90 1.746
420.00 1.745
420.10 1.744
420.20 1.743
420.30 1.742
420.40 1.741
420.50 1.74
420.60 1.739
420.70 1.738
420.80 1.737
420.90 1.736
421.00 1.735
421.10 1.734
421.20 1.733
421.30 1.732
421.40 1.731
421.50 1.73
421.60 1.728
421.70 1.727
421.80 1.726
421.90 1.725
422.00 1.723
422.10 1.722
422.20 1.721
422.30 1.719
422.40 1.718
422.50 1.717
422.60 1.715
422.70 1.714
422.80 1.713
422.90 1.711
423.00 1.71
423.10 1.708
423.20 1.707
423.30 1.705
423.40 1.704
423.50 1.702
423.60 1.701
423.70 1.699
423.80 1.698
423.90 1.696
424.00 1.695
424.10 1.693
424.20 1.691
424.30 1.69
424.40 1.688
424.50 1.686
424.60 1.684
424.70 1.683
424.80 1.681
424.90 1.679
425.00 1.677
425.10 1.675
425.20 1.673
425.30 1.671
425.40 1.669
425.50 1.667
425.60 1.665
425.70 1.663
425.80 1.661
425.90 1.659
426.00 1.656
426.10 1.654
426.20 1.651
426.30 1.649
426.40 1.647
426.50 1.644
426.60 1.642
426.70 1.639
426.80 1.636
426.90 1.633
427.00 1.631
427.10 1.628
427.20 1.625
427.30 1.622
427.40 1.619
427.50 1.615
427.60 1.612
427.70 1.609
427.80 1.605
427.90 1.602
428.00 1.598
428.10 1.594
428.20 1.59
428.30 1.586
428.40 1.582
428.50 1.577
428.60 1.573
428.70 1.568
428.80 1.563
428.90 1.558
429.00 1.553
429.10 1.548
429.20 1.542
429.30 1.536
429.40 1.53
429.50 1.524
429.60 1.517
429.70 1.51
429.80 1.503
429.90 1.496
430.00 1.488
430.10 1.48
430.20 1.472
430.30 1.463
430.40 1.454
430.50 1.444
430.60 1.435
430.70 1.424
430.80 1.413
430.90 1.402
431.00 1.39
431.10 1.378
431.20 1.366
431.30 1.352
431.40 1.338
431.50 1.324
431.60 1.308
431.70 1.292
431.80 1.275
431.90 1.256
432.00 1.237
432.10 1.217
432.20 1.195
432.30 1.172
432.40 1.147
432.50 1.121
432.60 1.093
432.70 1.064
432.80 1.034
432.90 1.004
433.00 0.9745
433.10 0.9452
433.20 0.9153
433.30 0.8846
433.40 0.8516
433.50 0.8178
433.60 0.7832
433.70 0.7477
433.80 0.709
433.90 0.6671
434.00 0.559
434.10 0.5602
434.20 0.6703
434.30 0.7108
434.40 0.7483
434.50 0.7828
434.60 0.8164
434.70 0.8491
434.80 0.8809
434.90 0.9102
435.00 0.9388
435.10 0.9668
435.20 0.9952
435.30 1.024
435.40 1.052
435.50 1.079
435.60 1.104
435.70 1.129
435.80 1.151
435.90 1.172
436.00 1.192
436.10 1.21
436.20 1.227
436.30 1.243
436.40 1.258
436.50 1.272
436.60 1.285
436.70 1.297
436.80 1.309
436.90 1.32
437.00 1.33
437.10 1.34
437.20 1.349
437.30 1.358
437.40 1.366
437.50 1.374
437.60 1.381
437.70 1.388
437.80 1.395
437.90 1.401
438.00 1.407
438.10 1.412
438.20 1.417
438.30 1.422
438.40 1.426
438.50 1.431
438.60 1.435
438.70 1.438
438.80 1.442
438.90 1.445
439.00 1.448
439.10 1.451
439.20 1.453
439.30 1.456
439.40 1.458
439.50 1.46
439.60 1.462
439.70 1.464
439.80 1.466
439.90 1.467
440.00 1.469
440.10 1.47
440.20 1.471
440.30 1.472
440.40 1.473
440.50 1.474
440.60 1.475
440.70 1.476
440.80 1.476
440.90 1.477
441.00 1.477
441.10 1.478
441.20 1.478
441.30 1.478
441.40 1.478
441.50 1.479
441.60 1.479
441.70 1.479
441.80 1.479
441.90 1.479
442.00 1.479
442.10 1.478
442.20 1.478
442.30 1.478
442.40 1.478
442.50 1.478
442.60 1.477
442.70 1.477
442.80 1.476
442.90 1.476
443.00 1.476
443.10 1.475
443.20 1.475
443.30 1.474
443.40 1.474
443.50 1.473
443.60 1.473
443.70 1.472
443.80 1.471
443.90 1.471
444.00 1.47
444.10 1.47
444.20 1.469
444.30 1.468
444.40 1.467
444.50 1.467
444.60 1.466
444.70 1.465
444.80 1.465
444.90 1.464
445.00 1.463
445.10 1.462
445.20 1.462
445.30 1.461
445.40 1.46
445.50 1.459
445.60 1.458
445.70 1.457
445.80 1.457
445.90 1.456
446.00 1.455
446.10 1.454
446.20 1.453
446.30 1.452
446.40 1.451
446.50 1.451
446.60 1.45
446.70 1.449
446.80 1.448
446.90 1.447
447.00 1.446
447.10 1.445
447.20 1.444
447.30 1.443
447.40 1.442
447.50 1.442
447.60 1.441
447.70 1.44
447.80 1.439
447.90 1.438
448.00 1.437
448.10 1.436
448.20 1.435
448.30 1.434
448.40 1.433
448.50 1.432
448.60 1.431
448.70 1.43
448.80 1.43
448.90 1.429
449.00 1.428
449.10 1.427
449.20 1.426
449.30 1.425
449.40 1.424
449.50 1.423
449.60 1.422
449.70 1.421
449.80 1.42
449.90 1.419
450.00 1.418
450.10 1.417
450.20 1.416
450.30 1.415
450.40 1.414
450.50 1.413
450.60 1.412
450.70 1.411
450.80 1.41
450.90 1.41
451.00 1.409
451.10 1.408
451.20 1.407
451.30 1.406
451.40 1.405
451.50 1.404
451.60 1.403
451.70 1.402
451.80 1.401
451.90 1.4
452.00 1.399
452.10 1.398
452.20 1.397
452.30 1.396
452.40 1.395
452.50 1.394
452.60 1.393
452.70 1.392
452.80 1.391
452.90 1.39
453.00 1.389
453.10 1.388
453.20 1.387
453.30 1.386
453.40 1.385
453.50 1.384
453.60 1.383
453.70 1.382
453.80 1.382
453.90 1.381
454.00 1.38
454.10 1.379
454.20 1.378
454.30 1.377
454.40 1.376
454.50 1.375
454.60 1.374
454.70 1.373
454.80 1.372
454.90 1.371
455.00 1.37
455.10 1.369
455.20 1.368
455.30 1.367
455.40 1.366
455.50 1.365
455.60 1.364
455.70 1.363
455.80 1.362
455.90 1.361
456.00 1.36
456.10 1.359
456.20 1.358
456.30 1.357
456.40 1.356
456.50 1.355
456.60 1.354
456.70 1.354
456.80 1.353
456.90 1.352
457.00 1.351
457.10 1.35
457.20 1.349
457.30 1.348
457.40 1.347
457.50 1.346
457.60 1.345
457.70 1.344
457.80 1.343
457.90 1.342
458.00 1.341
458.10 1.34
458.20 1.339
458.30 1.338
458.40 1.337
458.50 1.336
458.60 1.335
458.70 1.334
458.80 1.333
458.90 1.332
459.00 1.332
459.10 1.331
459.20 1.33
459.30 1.329
459.40 1.328
459.50 1.327
459.60 1.326
459.70 1.325
459.80 1.324
459.90 1.323
460.00 1.322
460.10 1.321
460.20 1.32
460.30 1.319
460.40 1.318
460.50 1.317
460.60 1.316
460.70 1.315
460.80 1.314
460.90 1.313
461.00 1.312
461.10 1.312
461.20 1.311
461.30 1.31
461.40 1.309
461.50 1.308
461.60 1.307
461.70 1.306
461.80 1.305
461.90 1.304
462.00 1.303
462.10 1.302
462.20 1.301
462.30 1.3
462.40 1.299
462.50 1.298
462.60 1.297
462.70 1.296
462.80 1.296
462.90 1.295
463.00 1.294
463.10 1.293
463.20 1.292
463.30 1.291
463.40 1.29
463.50 1.289
463.60 1.288
463.70 1.287
463.80 1.286
463.90 1.285
464.00 1.284
464.10 1.283
464.20 1.282
464.30 1.281
464.40 1.28
464.50 1.28
464.60 1.279
464.70 1.278
464.80 1.277
464.90 1.276
465.00 1.275
465.10 1.274
465.20 1.273
465.30 1.272
465.40 1.271
465.50 1.27
465.60 1.269
465.70 1.268
465.80 1.267
465.90 1.266
466.00 1.265
466.10 1.265
466.20 1.264
466.30 1.263
466.40 1.262
466.50 1.261
466.60 1.26
466.70 1.259
466.80 1.258
466.90 1.257
467.00 1.256
467.10 1.255
467.20 1.254
467.30 1.253
467.40 1.252
467.50 1.251
467.60 1.251
467.70 1.25
467.80 1.249
467.90 1.248
468.00 1.247
468.10 1.246
468.20 1.245
468.30 1.244
468.40 1.243
468.50 1.242
468.60 1.241
468.70 1.24
468.80 1.239
468.90 1.238
469.00 1.237
469.10 1.236
469.20 1.235
469.30 1.234
469.40 1.234
469.50 1.233
469.60 1.232
469.70 1.231
469.80 1.23
469.90 1.229
470.00 1.228
470.10 1.227
470.20 1.226
470.30 1.225
470.40 1.224
470.50 1.223
470.60 1.222
470.70 1.221
470.80 1.22
470.90 1.219
471.00 1.218
471.10 1.217
471.20 1.216
471.30 1.215
471.40 1.214
471.50 1.213
471.60 1.212
471.70 1.211
471.80 1.21
471.90 1.209
472.00 1.209
472.10 1.208
472.20 1.207
472.30 1.206
472.40 1.204
472.50 1.203
472.60 1.202
472.70 1.201
472.80 1.2
472.90 1.199
473.00 1.198
473.10 1.197
473.20 1.196
473.30 1.195
473.40 1.194
473.50 1.193
473.60 1.192
473.70 1.191
473.80 1.19
473.90 1.189
474.00 1.188
474.10 1.187
474.20 1.186
474.30 1.185
474.40 1.184
474.50 1.182
474.60 1.181
474.70 1.18
474.80 1.179
474.90 1.178
475.00 1.177
475.10 1.176
475.20 1.175
475.30 1.173
475.40 1.172
475.50 1.171
475.60 1.17
475.70 1.169
475.80 1.167
475.90 1.166
476.00 1.165
476.10 1.164
476.20 1.163
476.30 1.161
476.40 1.16
476.50 1.159
476.60 1.157
476.70 1.156
476.80 1.155
476.90 1.153
477.00 1.152
477.10 1.151
477.20 1.149
477.30 1.148
477.40 1.146
477.50 1.145
477.60 1.143
477.70 1.142
477.80 1.14
477.90 1.139
478.00 1.137
478.10 1.135
478.20 1.134
478.30 1.132
478.40 1.13
478.50 1.128
478.60 1.126
478.70 1.125
478.80 1.123
478.90 1.121
479.00 1.119
479.10 1.117
479.20 1.115
479.30 1.113
479.40 1.11
479.50 1.108
479.60 1.106
479.70 1.103
479.80 1.101
479.90 1.099
480.00 1.096
480.10 1.094
480.20 1.091
480.30 1.088
480.40 1.085
480.50 1.082
480.60 1.079
480.70 1.075
480.80 1.072
480.90 1.069
481.00 1.066
481.10 1.063
481.20 1.059
481.30 1.054
481.40 1.05
481.50 1.045
481.60 1.041
481.70 1.036
481.80 1.032
481.90 1.027
482.00 1.023
482.10 1.018
482.20 1.012
482.30 1.005
482.40 0.9984
482.50 0.9916
482.60 0.9848
482.70 0.978
482.80 0.9712
482.90 0.9644
483.00 0.9576
483.10 0.9508
483.20 0.9416
483.30 0.9312
483.40 0.9209
483.50 0.9105
483.60 0.9002
483.70 0.8898
483.80 0.8795
483.90 0.8692
484.00 0.8589
484.10 0.8486
484.20 0.8361
484.30 0.8226
484.40 0.8091
484.50 0.7956
484.60 0.7821
484.70 0.7671
484.80 0.7514
484.90 0.7357
485.00 0.72
485.10 0.7044
485.20 0.6879
485.30 0.6709
485.40 0.653
485.50 0.6346
485.60 0.6151
485.70 0.595
485.80 0.5726
485.90 0.5491
486.00 0.5188
486.10 0.4101
486.20 0.4705
486.30 0.5304
486.40 0.5556
486.50 0.5787
486.60 0.5993
486.70 0.6187
486.80 0.6369
486.90 0.6546
487.00 0.6712
487.10 0.6873
487.20 0.7024
487.30 0.7172
487.40 0.7318
487.50 0.7465
487.60 0.7612
487.70 0.7743
487.80 0.7866
487.90 0.7989
488.00 0.8112
488.10 0.8235
488.20 0.8336
488.30 0.8425
488.40 0.8515
488.50 0.8604
488.60 0.8693
488.70 0.8782
488.80 0.8872
488.90 0.8961
489.00 0.905
489.10 0.9138
489.20 0.9202
489.30 0.9255
489.40 0.9307
489.50 0.9359
489.60 0.9411
489.70 0.9463
489.80 0.9515
489.90 0.9567
490.00 0.9619
490.10 0.9671
490.20 0.9707
490.30 0.9736
490.40 0.9765
490.50 0.9794
490.60 0.9822
490.70 0.9851
490.80 0.988
490.90 0.9909
491.00 0.9938
491.10 0.9966
491.20 0.9986
491.30 1
491.40 1.002
491.50 1.003
491.60 1.005
491.70 1.006
491.80 1.008
491.90 1.009
492.00 1.011
492.10 1.012
492.20 1.013
492.30 1.014
492.40 1.014
492.50 1.015
492.60 1.016
492.70 1.016
492.80 1.017
492.90 1.018
493.00 1.018
493.10 1.019
493.20 1.019
493.30 1.02
493.40 1.02
493.50 1.02
493.60 1.02
493.70 1.021
493.80 1.021
493.90 1.021
494.00 1.021
494.10 1.022
494.20 1.022
494.30 1.021
494.40 1.021
494.50 1.021
494.60 1.021
494.70 1.021
494.80 1.021
494.90 1.021
495.00 1.021
495.10 1.021
495.20 1.021
495.30 1.02
495.40 1.02
495.50 1.02
495.60 1.019
495.70 1.019
495.80 1.019
495.90 1.019
496.00 1.018
496.10 1.018
496.20 1.018
496.30 1.017
496.40 1.017
496.50 1.017
496.60 1.016
496.70 1.016
496.80 1.016
496.90 1.015
497.00 1.015
497.10 1.014
497.20 1.014
497.30 1.014
497.40 1.013
497.50 1.013
497.60 1.012
497.70 1.012
497.80 1.011
497.90 1.011
498.00 1.01
498.10 1.01
498.20 1.009
498.30 1.009
498.40 1.008
498.50 1.008
498.60 1.007
498.70 1.007
498.80 1.006
498.90 1.006
499.00 1.005
499.10 1.005
499.20 1.004
499.30 1.004
499.40 1.003
499.50 1.003
499.60 1.002
499.70 1.002
499.80 1.001
499.90 1.001
500.00 1
500.10 0.9995
500.20 0.9989
500.30 0.9983
500.40 0.9978
500.50 0.9972
500.60 0.9966
500.70 0.9961
500.80 0.9955
500.90 0.995
501.00 0.9944
501.10 0.9938
501.20 0.9933
501.30 0.9927
501.40 0.9921
501.50 0.9915
501.60 0.9909
501.70 0.9903
501.80 0.9897
501.90 0.9892
502.00 0.9886
502.10 0.988
502.20 0.9874
502.30 0.9868
502.40 0.9862
502.50 0.9856
502.60 0.985
502.70 0.9845
502.80 0.9839
502.90 0.9833
503.00 0.9827
503.10 0.9821
503.20 0.9815
503.30 0.9809
503.40 0.9803
503.50 0.9797
503.60 0.9791
503.70 0.9785
503.80 0.9779
503.90 0.9773
504.00 0.9767
504.10 0.9761
504.20 0.9755
504.30 0.9749
504.40 0.9743
504.50 0.9737
504.60 0.9731
504.70 0.9725
504.80 0.9719
504.90 0.9712
505.00 0.9706
505.10 0.97
505.20 0.9694
505.30 0.9688
505.40 0.9682
505.50 0.9676
505.60 0.967
505.70 0.9664
505.80 0.9658
505.90 0.9652
506.00 0.9646
506.10 0.964
506.20 0.9634
506.30 0.9628
506.40 0.9622
506.50 0.9616
506.60 0.961
506.70 0.9604
506.80 0.9598
506.90 0.9592
507.00 0.9586
507.10 0.958
507.20 0.9574
507.30 0.9568
507.40 0.9562
507.50 0.9556
507.60 0.955
507.70 0.9544
507.80 0.9538
507.90 0.9532
508.00 0.9526
508.10 0.952
508.20 0.9513
508.30 0.9507
508.40 0.9501
508.50 0.9495
508.60 0.9489
508.70 0.9483
508.80 0.9477
508.90 0.9471
509.00 0.9465
509.10 0.9459
509.20 0.9453
509.30 0.9447
509.40 0.9441
509.50 0.9435
509.60 0.9429
509.70 0.9423
509.80 0.9417
509.90 0.9411
510.00 0.9405
510.10 0.9399
510.20 0.9393
510.30 0.9387
510.40 0.9381
510.50 0.9375
510.60 0.9369
510.70 0.9363
510.80 0.9357
510.90 0.9351
511.00 0.9345
511.10 0.9339
511.20 0.9333
511.30 0.9327
511.40 0.9321
511.50 0.9315
511.60 0.9309
511.70 0.9303
511.80 0.9297
511.90 0.9291
512.00 0.9286
512.10 0.928
512.20 0.9274
512.30 0.9268
512.40 0.9262
512.50 0.9256
512.60 0.925
512.70 0.9244
512.80 0.9238
512.90 0.9232
513.00 0.9226
513.10 0.922
513.20 0.9214
513.30 0.9208
513.40 0.9202
513.50 0.9196
513.60 0.9191
513.70 0.9185
513.80 0.9179
513.90 0.9173
514.00 0.9167
514.10 0.9161
514.20 0.9155
514.30 0.915
514.40 0.9144
514.50 0.9138
514.60 0.9132
514.70 0.9126
514.80 0.912
514.90 0.9114
515.00 0.9108
515.10 0.9102
515.20 0.9097
515.30 0.9091
515.40 0.9085
515.50 0.9079
515.60 0.9073
515.70 0.9068
515.80 0.9062
515.90 0.9056
516.00 0.905
516.10 0.9045
516.20 0.9039
516.30 0.9033
516.40 0.9027
516.50 0.9021
516.60 0.9016
516.70 0.901
516.80 0.9004
516.90 0.8999
517.00 0.8993
517.10 0.8987
517.20 0.8981
517.30 0.8975
517.40 0.897
517.50 0.8964
517.60 0.8958
517.70 0.8952
517.80 0.8947
517.90 0.8941
518.00 0.8935
518.10 0.8929
518.20 0.8924
518.30 0.8918
518.40 0.8912
518.50 0.8907
518.60 0.8901
518.70 0.8895
518.80 0.889
518.90 0.8884
519.00 0.8878
519.10 0.8873
519.20 0.8867
519.30 0.8861
519.40 0.8856
519.50 0.885
519.60 0.8844
519.70 0.8839
519.80 0.8833
519.90 0.8827
520.00 0.8822
520.10 0.8816
520.20 0.8811
520.30 0.8805
520.40 0.8799
520.50 0.8794
520.60 0.8788
520.70 0.8783
520.80 0.8777
520.90 0.8771
521.00 0.8766
521.10 0.876
521.20 0.8755
521.30 0.8749
521.40 0.8743
521.50 0.8738
521.60 0.8732
521.70 0.8726
521.80 0.8721
521.90 0.8715
522.00 0.871
522.10 0.8704
522.20 0.8698
522.30 0.8693
522.40 0.8687
522.50 0.8682
522.60 0.8676
522.70 0.8671
522.80 0.8665
522.90 0.866
523.00 0.8654
523.10 0.8649
523.20 0.8643
523.30 0.8638
523.40 0.8632
523.50 0.8627
523.60 0.8621
523.70 0.8616
523.80 0.861
523.90 0.8605
524.00 0.8599
524.10 0.8594
524.20 0.8588
524.30 0.8583
524.40 0.8577
524.50 0.8572
524.60 0.8567
524.70 0.8561
524.80 0.8556
524.90 0.855
525.00 0.8545
525.10 0.8539
525.20 0.8534
525.30 0.8529
525.40 0.8523
525.50 0.8518
525.60 0.8513
525.70 0.8507
525.80 0.8502
525.90 0.8497
526.00 0.8491
526.10 0.8486
526.20 0.848
526.30 0.8475
526.40 0.847
526.50 0.8464
526.60 0.8459
526.70 0.8454
526.80 0.8448
526.90 0.8443
527.00 0.8437
527.10 0.8432
527.20 0.8427
527.30 0.8421
527.40 0.8416
527.50 0.8411
527.60 0.8405
527.70 0.84
527.80 0.8395
527.90 0.8389
528.00 0.8384
528.10 0.8379
528.20 0.8373
528.30 0.8368
528.40 0.8363
528.50 0.8358
528.60 0.8352
528.70 0.8347
528.80 0.8342
528.90 0.8337
529.00 0.8331
529.10 0.8326
529.20 0.8321
529.30 0.8316
529.40 0.831
529.50 0.8305
529.60 0.83
529.70 0.8294
529.80 0.8289
529.90 0.8284
530.00 0.8279
530.10 0.8273
530.20 0.8268
530.30 0.8263
530.40 0.8258
530.50 0.8253
530.60 0.8247
530.70 0.8242
530.80 0.8237
530.90 0.8232
531.00 0.8227
531.10 0.8222
531.20 0.8216
531.30 0.8211
531.40 0.8206
531.50 0.8201
531.60 0.8196
531.70 0.819
531.80 0.8185
531.90 0.818
532.00 0.8175
532.10 0.817
532.20 0.8164
532.30 0.8159
532.40 0.8154
532.50 0.8149
532.60 0.8144
532.70 0.8139
532.80 0.8134
532.90 0.8129
533.00 0.8124
533.10 0.8118
533.20 0.8113
533.30 0.8108
533.40 0.8103
533.50 0.8098
533.60 0.8093
533.70 0.8088
533.80 0.8083
533.90 0.8078
534.00 0.8073
534.10 0.8068
534.20 0.8063
534.30 0.8058
534.40 0.8053
534.50 0.8048
534.60 0.8043
534.70 0.8037
534.80 0.8032
534.90 0.8027
535.00 0.8022
535.10 0.8017
535.20 0.8012
535.30 0.8007
535.40 0.8002
535.50 0.7997
535.60 0.7992
535.70 0.7987
535.80 0.7982
535.90 0.7977
536.00 0.7972
536.10 0.7967
536.20 0.7962
536.30 0.7957
536.40 0.7952
536.50 0.7947
536.60 0.7942
536.70 0.7937
536.80 0.7932
536.90 0.7927
537.00 0.7922
537.10 0.7917
537.20 0.7913
537.30 0.7908
537.40 0.7903
537.50 0.7898
537.60 0.7893
537.70 0.7888
537.80 0.7883
537.90 0.7878
538.00 0.7874
538.10 0.7869
538.20 0.7864
538.30 0.7859
538.40 0.7854
538.50 0.7849
538.60 0.7844
538.70 0.7839
538.80 0.7834
538.90 0.7829
539.00 0.7825
539.10 0.782
539.20 0.7815
539.30 0.781
539.40 0.7805
539.50 0.78
539.60 0.7795
539.70 0.7791
539.80 0.7786
539.90 0.7781
540.00 0.7776
540.10 0.7771
540.20 0.7767
540.30 0.7762
540.40 0.7757
540.50 0.7752
540.60 0.7747
540.70 0.7742
540.80 0.7737
540.90 0.7733
541.00 0.7728
541.10 0.7723
541.20 0.7718
541.30 0.7713
541.40 0.7709
541.50 0.7704
541.60 0.7699
541.70 0.7694
541.80 0.769
541.90 0.7685
542.00 0.768
542.10 0.7675
542.20 0.7671
542.30 0.7666
542.40 0.7661
542.50 0.7656
542.60 0.7652
542.70 0.7647
542.80 0.7642
542.90 0.7638
543.00 0.7633
543.10 0.7628
543.20 0.7623
543.30 0.7619
543.40 0.7614
543.50 0.7609
543.60 0.7605
543.70 0.76
543.80 0.7595
543.90 0.7591
544.00 0.7586
544.10 0.7581
544.20 0.7577
544.30 0.7572
544.40 0.7567
544.50 0.7563
544.60 0.7558
544.70 0.7553
544.80 0.7549
544.90 0.7544
545.00 0.7539
545.10 0.7535
545.20 0.753
545.30 0.7525
545.40 0.7521
545.50 0.7516
545.60 0.7511
545.70 0.7507
545.80 0.7502
545.90 0.7498
546.00 0.7493
546.10 0.7488
546.20 0.7484
546.30 0.7479
546.40 0.7475
546.50 0.747
546.60 0.7466
546.70 0.7461
546.80 0.7456
546.90 0.7452
547.00 0.7447
547.10 0.7443
547.20 0.7438
547.30 0.7434
547.40 0.7429
547.50 0.7425
547.60 0.742
547.70 0.7415
547.80 0.7411
547.90 0.7406
548.00 0.7402
548.10 0.7397
548.20 0.7393
548.30 0.7388
548.40 0.7383
548.50 0.7379
548.60 0.7374
548.70 0.737
548.80 0.7365
548.90 0.7361
549.00 0.7356
549.10 0.7352
549.20 0.7347
549.30 0.7343
549.40 0.7338
549.50 0.7334
549.60 0.7329
549.70 0.7325
549.80 0.732
549.90 0.7316
550.00 0.7312
550.10 0.7307
550.20 0.7303
550.30 0.7298
550.40 0.7294
550.50 0.7289
550.60 0.7285
550.70 0.728
550.80 0.7276
550.90 0.7271
551.00 0.7267
551.10 0.7262
551.20 0.7258
551.30 0.7253
551.40 0.7249
551.50 0.7245
551.60 0.724
551.70 0.7236
551.80 0.7231
551.90 0.7227
552.00 0.7223
552.10 0.7218
552.20 0.7214
552.30 0.7209
552.40 0.7205
552.50 0.7201
552.60 0.7196
552.70 0.7192
552.80 0.7188
552.90 0.7183
553.00 0.7179
553.10 0.7174
553.20 0.717
553.30 0.7166
553.40 0.7161
553.50 0.7157
553.60 0.7153
553.70 0.7148
553.80 0.7144
553.90 0.714
554.00 0.7135
554.10 0.7131
554.20 0.7127
554.30 0.7122
554.40 0.7118
554.50 0.7114
554.60 0.7109
554.70 0.7105
554.80 0.7101
554.90 0.7096
555.00 0.7092
555.10 0.7088
555.20 0.7084
555.30 0.7079
555.40 0.7075
555.50 0.7071
555.60 0.7066
555.70 0.7062
555.80 0.7058
555.90 0.7054
556.00 0.7049
556.10 0.7045
556.20 0.7041
556.30 0.7036
556.40 0.7032
556.50 0.7028
556.60 0.7024
556.70 0.7019
556.80 0.7015
556.90 0.7011
557.00 0.7007
557.10 0.7002
557.20 0.6998
557.30 0.6994
557.40 0.699
557.50 0.6985
557.60 0.6981
557.70 0.6977
557.80 0.6973
557.90 0.6968
558.00 0.6964
558.10 0.696
558.20 0.6956
558.30 0.6951
558.40 0.6947
558.50 0.6943
558.60 0.6939
558.70 0.6935
558.80 0.693
558.90 0.6926
559.00 0.6922
559.10 0.6918
559.20 0.6914
559.30 0.691
559.40 0.6905
559.50 0.6901
559.60 0.6897
559.70 0.6893
559.80 0.6889
559.90 0.6885
560.00 0.6881
560.10 0.6877
560.20 0.6872
560.30 0.6868
560.40 0.6864
560.50 0.686
560.60 0.6856
560.70 0.6852
560.80 0.6847
560.90 0.6843
561.00 0.6839
561.10 0.6835
561.20 0.6831
561.30 0.6827
561.40 0.6823
561.50 0.6819
561.60 0.6815
561.70 0.681
561.80 0.6806
561.90 0.6802
562.00 0.6798
562.10 0.6794
562.20 0.679
562.30 0.6786
562.40 0.6782
562.50 0.6778
562.60 0.6774
562.70 0.677
562.80 0.6765
562.90 0.6761
563.00 0.6757
563.10 0.6753
563.20 0.6749
563.30 0.6745
563.40 0.6741
563.50 0.6737
563.60 0.6733
563.70 0.6729
563.80 0.6725
563.90 0.6721
564.00 0.6717
564.10 0.6713
564.20 0.6709
564.30 0.6705
564.40 0.6701
564.50 0.6697
564.60 0.6693
564.70 0.6689
564.80 0.6685
564.90 0.6681
565.00 0.6677
565.10 0.6673
565.20 0.6669
565.30 0.6665
565.40 0.6661
565.50 0.6657
565.60 0.6653
565.70 0.6649
565.80 0.6645
565.90 0.6641
566.00 0.6637
566.10 0.6633
566.20 0.6629
566.30 0.6625
566.40 0.6621
566.50 0.6617
566.60 0.6613
566.70 0.6609
566.80 0.6606
566.90 0.6602
567.00 0.6598
567.10 0.6594
567.20 0.659
567.30 0.6586
567.40 0.6582
567.50 0.6578
567.60 0.6574
567.70 0.657
567.80 0.6566
567.90 0.6562
568.00 0.6558
568.10 0.6554
568.20 0.6551
568.30 0.6547
568.40 0.6543
568.50 0.6539
568.60 0.6535
568.70 0.6531
568.80 0.6528
568.90 0.6524
569.00 0.652
569.10 0.6516
569.20 0.6512
569.30 0.6508
569.40 0.6504
569.50 0.6501
569.60 0.6497
569.70 0.6493
569.80 0.6489
569.90 0.6485
570.00 0.6481
570.10 0.6477
570.20 0.6473
570.30 0.647
570.40 0.6466
570.50 0.6462
570.60 0.6458
570.70 0.6454
570.80 0.645
570.90 0.6446
571.00 0.6443
571.10 0.6439
571.20 0.6435
571.30 0.6431
571.40 0.6427
571.50 0.6424
571.60 0.642
571.70 0.6416
571.80 0.6412
571.90 0.6408
572.00 0.6405
572.10 0.6401
572.20 0.6397
572.30 0.6393
572.40 0.639
572.50 0.6386
572.60 0.6382
572.70 0.6378
572.80 0.6375
572.90 0.6371
573.00 0.6367
573.10 0.6364
573.20 0.636
573.30 0.6356
573.40 0.6352
573.50 0.6348
573.60 0.6345
573.70 0.6341
573.80 0.6337
573.90 0.6333
574.00 0.6329
574.10 0.6326
574.20 0.6322
574.30 0.6318
574.40 0.6314
574.50 0.6311
574.60 0.6307
574.70 0.6303
574.80 0.63
574.90 0.6296
575.00 0.6292
575.10 0.6289
575.20 0.6285
575.30 0.6281
575.40 0.6278
575.50 0.6274
575.60 0.627
575.70 0.6266
575.80 0.6263
575.90 0.6259
576.00 0.6255
576.10 0.6252
576.20 0.6248
576.30 0.6244
576.40 0.6241
576.50 0.6237
576.60 0.6233
576.70 0.623
576.80 0.6226
576.90 0.6223
577.00 0.6219
577.10 0.6215
577.20 0.6212
577.30 0.6208
577.40 0.6204
577.50 0.6201
577.60 0.6197
577.70 0.6193
577.80 0.619
577.90 0.6186
578.00 0.6183
578.10 0.6179
578.20 0.6175
578.30 0.6172
578.40 0.6168
578.50 0.6164
578.60 0.6161
578.70 0.6157
578.80 0.6154
578.90 0.615
579.00 0.6146
579.10 0.6143
579.20 0.6139
579.30 0.6136
579.40 0.6132
579.50 0.6128
579.60 0.6125
579.70 0.6121
579.80 0.6118
579.90 0.6114
580.00 0.6111
580.10 0.6107
580.20 0.6103
580.30 0.61
580.40 0.6096
580.50 0.6093
580.60 0.6089
580.70 0.6086
580.80 0.6082
580.90 0.6079
581.00 0.6075
581.10 0.6072
581.20 0.6068
581.30 0.6064
581.40 0.6061
581.50 0.6057
581.60 0.6054
581.70 0.605
581.80 0.6047
581.90 0.6043
582.00 0.604
582.10 0.6036
582.20 0.6033
582.30 0.6029
582.40 0.6026
582.50 0.6022
582.60 0.6019
582.70 0.6015
582.80 0.6012
582.90 0.6008
583.00 0.6005
583.10 0.6001
583.20 0.5998
583.30 0.5994
583.40 0.5991
583.50 0.5987
583.60 0.5984
583.70 0.598
583.80 0.5977
583.90 0.5973
584.00 0.597
584.10 0.5966
584.20 0.5963
584.30 0.596
584.40 0.5956
584.50 0.5953
584.60 0.5949
584.70 0.5946
584.80 0.5942
584.90 0.5939
585.00 0.5935
585.10 0.5932
585.20 0.5929
585.30 0.5925
585.40 0.5922
585.50 0.5918
585.60 0.5915
585.70 0.5911
585.80 0.5908
585.90 0.5905
586.00 0.5901
586.10 0.5898
586.20 0.5894
586.30 0.5891
586.40 0.5887
586.50 0.5884
586.60 0.5881
586.70 0.5877
586.80 0.5874
586.90 0.587
587.00 0.5867
587.10 0.5864
587.20 0.586
587.30 0.5857
587.40 0.5854
587.50 0.585
587.60 0.5847
587.70 0.5843
587.80 0.584
587.90 0.5837
588.00 0.5833
588.10 0.583
588.20 0.5827
588.30 0.5823
588.40 0.582
588.50 0.5817
588.60 0.5813
588.70 0.581
588.80 0.5806
588.90 0.5803
589.00 0.58
589.10 0.5796
589.20 0.5793
589.30 0.579
589.40 0.5786
589.50 0.5783
589.60 0.578
589.70 0.5776
589.80 0.5773
589.90 0.577
590.00 0.5766
590.10 0.5763
590.20 0.576
590.30 0.5757
590.40 0.5753
590.50 0.575
590.60 0.5747
590.70 0.5743
590.80 0.574
590.90 0.5737
591.00 0.5733
591.10 0.573
591.20 0.5727
591.30 0.5724
591.40 0.572
591.50 0.5717
591.60 0.5714
591.70 0.571
591.80 0.5707
591.90 0.5704
592.00 0.5701
592.10 0.5697
592.20 0.5694
592.30 0.5691
592.40 0.5688
592.50 0.5684
592.60 0.5681
592.70 0.5678
592.80 0.5675
592.90 0.5671
593.00 0.5668
593.10 0.5665
593.20 0.5662
593.30 0.5658
593.40 0.5655
593.50 0.5652
593.60 0.5649
593.70 0.5645
593.80 0.5642
593.90 0.5639
594.00 0.5636
594.10 0.5632
594.20 0.5629
594.30 0.5626
594.40 0.5623
594.50 0.562
594.60 0.5616
594.70 0.5613
594.80 0.561
594.90 0.5607
595.00 0.5604
595.10 0.56
595.20 0.5597
595.30 0.5594
595.40 0.5591
595.50 0.5588
595.60 0.5584
595.70 0.5581
595.80 0.5578
595.90 0.5575
596.00 0.5572
596.10 0.5569
596.20 0.5565
596.30 0.5562
596.40 0.5559
596.50 0.5555
596.60 0.5552
596.70 0.5549
596.80 0.5545
596.90 0.5542
597.00 0.5539
597.10 0.5536
597.20 0.5532
597.30 0.5529
597.40 0.5526
597.50 0.5523
597.60 0.552
597.70 0.5517
597.80 0.5513
597.90 0.551
598.00 0.5507
598.10 0.5504
598.20 0.5501
598.30 0.5498
598.40 0.5495
598.50 0.5492
598.60 0.5488
598.70 0.5485
598.80 0.5482
598.90 0.5479
599.00 0.5476
599.10 0.5473
599.20 0.547
599.30 0.5467
599.40 0.5463
599.50 0.546
599.60 0.5457
599.70 0.5454
599.80 0.5451
599.90 0.5448
600.00 0.5445
600.10 0.5442
600.20 0.5439
600.30 0.5436
600.40 0.5433
600.50 0.5429
600.60 0.5426
600.70 0.5423
600.80 0.542
600.90 0.5417
601.00 0.5414
601.10 0.5411
601.20 0.5408
601.30 0.5405
601.40 0.5402
601.50 0.5399
601.60 0.5396
601.70 0.5393
601.80 0.539
601.90 0.5387
602.00 0.5384
602.10 0.538
602.20 0.5377
602.30 0.5374
602.40 0.5371
602.50 0.5368
602.60 0.5365
602.70 0.5362
602.80 0.5359
602.90 0.5356
603.00 0.5353
603.10 0.535
603.20 0.5347
603.30 0.5344
603.40 0.5341
603.50 0.5338
603.60 0.5335
603.70 0.5332
603.80 0.5329
603.90 0.5326
604.00 0.5323
604.10 0.532
604.20 0.5317
604.30 0.5314
604.40 0.5311
604.50 0.5308
604.60 0.5305
604.70 0.5302
604.80 0.5299
604.90 0.5296
605.00 0.5293
605.10 0.529
605.20 0.5287
605.30 0.5284
605.40 0.5281
605.50 0.5278
605.60 0.5275
605.70 0.5272
605.80 0.5269
605.90 0.5266
606.00 0.5263
606.10 0.526
606.20 0.5257
606.30 0.5254
606.40 0.5251
606.50 0.5249
606.60 0.5246
606.70 0.5243
606.80 0.524
606.90 0.5237
607.00 0.5234
607.10 0.5231
607.20 0.5228
607.30 0.5225
607.40 0.5222
607.50 0.5219
607.60 0.5216
607.70 0.5213
607.80 0.521
607.90 0.5207
608.00 0.5204
608.10 0.5202
608.20 0.5199
608.30 0.5196
608.40 0.5193
608.50 0.519
608.60 0.5187
608.70 0.5184
608.80 0.5181
608.90 0.5178
609.00 0.5175
609.10 0.5172
609.20 0.5169
609.30 0.5167
609.40 0.5164
609.50 0.5161
609.60 0.5158
609.70 0.5155
609.80 0.5152
609.90 0.5149
610.00 0.5146
610.10 0.5144
610.20 0.5141
610.30 0.5138
610.40 0.5135
610.50 0.5132
610.60 0.5129
610.70 0.5126
610.80 0.5123
610.90 0.512
611.00 0.5118
611.10 0.5115
611.20 0.5112
611.30 0.5109
611.40 0.5106
611.50 0.5103
611.60 0.51
611.70 0.5098
611.80 0.5095
611.90 0.5092
612.00 0.5089
612.10 0.5086
612.20 0.5083
612.30 0.5081
612.40 0.5078
612.50 0.5075
612.60 0.5072
612.70 0.5069
612.80 0.5066
612.90 0.5064
613.00 0.5061
613.10 0.5058
613.20 0.5055
613.30 0.5052
613.40 0.5049
613.50 0.5047
613.60 0.5044
613.70 0.5041
613.80 0.5038
613.90 0.5035
614.00 0.5033
614.10 0.503
614.20 0.5027
614.30 0.5024
614.40 0.5021
614.50 0.5019
614.60 0.5016
614.70 0.5013
614.80 0.501
614.90 0.5007
615.00 0.5005
615.10 0.5002
615.20 0.4999
615.30 0.4996
615.40 0.4993
615.50 0.4991
615.60 0.4988
615.70 0.4985
615.80 0.4982
615.90 0.498
616.00 0.4977
616.10 0.4974
616.20 0.4971
616.30 0.4968
616.40 0.4966
616.50 0.4963
616.60 0.496
616.70 0.4957
616.80 0.4955
616.90 0.4952
617.00 0.4949
617.10 0.4946
617.20 0.4944
617.30 0.4941
617.40 0.4938
617.50 0.4935
617.60 0.4933
617.70 0.493
617.80 0.4927
617.90 0.4924
618.00 0.4922
618.10 0.4919
618.20 0.4916
618.30 0.4914
618.40 0.4911
618.50 0.4908
618.60 0.4905
618.70 0.4903
618.80 0.49
618.90 0.4897
619.00 0.4895
619.10 0.4892
619.20 0.4889
619.30 0.4886
619.40 0.4884
619.50 0.4881
619.60 0.4878
619.70 0.4876
619.80 0.4873
619.90 0.487
620.00 0.4867
620.10 0.4865
620.20 0.4862
620.30 0.4859
620.40 0.4857
620.50 0.4854
620.60 0.4851
620.70 0.4849
620.80 0.4846
620.90 0.4843
621.00 0.484
621.10 0.4838
621.20 0.4835
621.30 0.4832
621.40 0.483
621.50 0.4827
621.60 0.4824
621.70 0.4822
621.80 0.4819
621.90 0.4816
622.00 0.4814
622.10 0.4811
622.20 0.4808
622.30 0.4806
622.40 0.4803
622.50 0.48
622.60 0.4798
622.70 0.4795
622.80 0.4792
622.90 0.479
623.00 0.4787
623.10 0.4784
623.20 0.4782
623.30 0.4779
623.40 0.4777
623.50 0.4774
623.60 0.4771
623.70 0.4769
623.80 0.4766
623.90 0.4763
624.00 0.4761
624.10 0.4758
624.20 0.4755
624.30 0.4753
624.40 0.475
624.50 0.4748
624.60 0.4745
624.70 0.4742
624.80 0.474
624.90 0.4737
625.00 0.4734
625.10 0.4732
625.20 0.4729
625.30 0.4727
625.40 0.4724
625.50 0.4721
625.60 0.4719
625.70 0.4716
625.80 0.4713
625.90 0.4711
626.00 0.4708
626.10 0.4706
626.20 0.4703
626.30 0.47
626.40 0.4698
626.50 0.4695
626.60 0.4693
626.70 0.469
626.80 0.4687
626.90 0.4685
627.00 0.4682
627.10 0.468
627.20 0.4677
627.30 0.4675
627.40 0.4672
627.50 0.4669
627.60 0.4667
627.70 0.4664
627.80 0.4662
627.90 0.4659
628.00 0.4656
628.10 0.4654
628.20 0.4651
628.30 0.4649
628.40 0.4646
628.50 0.4644
628.60 0.4641
628.70 0.4638
628.80 0.4636
628.90 0.4633
629.00 0.4631
629.10 0.4628
629.20 0.4626
629.30 0.4623
629.40 0.462
629.50 0.4618
629.60 0.4615
629.70 0.4613
629.80 0.461
629.90 0.4608
630.00 0.4605
630.10 0.4603
630.20 0.46
630.30 0.4597
630.40 0.4595
630.50 0.4592
630.60 0.459
630.70 0.4587
630.80 0.4585
630.90 0.4582
631.00 0.458
631.10 0.4577
631.20 0.4574
631.30 0.4572
631.40 0.4569
631.50 0.4567
631.60 0.4564
631.70 0.4562
631.80 0.4559
631.90 0.4557
632.00 0.4554
632.10 0.4552
632.20 0.4549
632.30 0.4546
632.40 0.4544
632.50 0.4541
632.60 0.4539
632.70 0.4536
632.80 0.4534
632.90 0.4531
633.00 0.4529
633.10 0.4526
633.20 0.4524
633.30 0.4521
633.40 0.4519
633.50 0.4516
633.60 0.4514
633.70 0.4511
633.80 0.4509
633.90 0.4506
634.00 0.4503
634.10 0.4501
634.20 0.4498
634.30 0.4496
634.40 0.4493
634.50 0.4491
634.60 0.4488
634.70 0.4486
634.80 0.4483
634.90 0.4481
635.00 0.4478
635.10 0.4476
635.20 0.4473
635.30 0.4471
635.40 0.4468
635.50 0.4466
635.60 0.4463
635.70 0.446
635.80 0.4458
635.90 0.4455
636.00 0.4453
636.10 0.445
636.20 0.4448
636.30 0.4445
636.40 0.4443
636.50 0.444
636.60 0.4438
636.70 0.4435
636.80 0.4433
636.90 0.443
637.00 0.4428
637.10 0.4425
637.20 0.4422
637.30 0.442
637.40 0.4417
637.50 0.4415
637.60 0.4412
637.70 0.441
637.80 0.4407
637.90 0.4405
638.00 0.4402
638.10 0.44
638.20 0.4397
638.30 0.4394
638.40 0.4392
638.50 0.4389
638.60 0.4387
638.70 0.4384
638.80 0.4382
638.90 0.4379
639.00 0.4376
639.10 0.4374
639.20 0.4371
639.30 0.4369
639.40 0.4366
639.50 0.4364
639.60 0.4361
639.70 0.4358
639.80 0.4356
639.90 0.4353
640.00 0.4351
640.10 0.4348
640.20 0.4345
640.30 0.4343
640.40 0.434
640.50 0.4338
640.60 0.4335
640.70 0.4332
640.80 0.433
640.90 0.4327
641.00 0.4324
641.10 0.4322
641.20 0.4319
641.30 0.4316
641.40 0.4314
641.50 0.4311
641.60 0.4308
641.70 0.4306
641.80 0.4303
641.90 0.43
642.00 0.4298
642.10 0.4295
642.20 0.4292
642.30 0.4289
642.40 0.4287
642.50 0.4284
642.60 0.4281
642.70 0.4278
642.80 0.4276
642.90 0.4273
643.00 0.427
643.10 0.4267
643.20 0.4264
643.30 0.4262
643.40 0.4259
643.50 0.4256
643.60 0.4253
643.70 0.425
643.80 0.4247
643.90 0.4244
644.00 0.4241
644.10 0.4239
644.20 0.4236
644.30 0.4233
644.40 0.423
644.50 0.4227
644.60 0.4224
644.70 0.422
644.80 0.4217
644.90 0.4214
645.00 0.4211
645.10 0.4208
645.20 0.4205
645.30 0.4202
645.40 0.4199
645.50 0.4195
645.60 0.4192
645.70 0.4189
645.80 0.4185
645.90 0.4182
646.00 0.4179
646.10 0.4176
646.20 0.4172
646.30 0.4169
646.40 0.4165
646.50 0.4162
646.60 0.4158
646.70 0.4154
646.80 0.4151
646.90 0.4147
647.00 0.4143
647.10 0.414
647.20 0.4136
647.30 0.4132
647.40 0.4128
647.50 0.4124
647.60 0.412
647.70 0.4116
647.80 0.4111
647.90 0.4107
648.00 0.4103
648.10 0.4099
648.20 0.4095
648.30 0.409
648.40 0.4085
648.50 0.408
648.60 0.4075
648.70 0.407
648.80 0.4065
648.90 0.406
649.00 0.4055
649.10 0.405
649.20 0.4045
649.30 0.404
649.40 0.4034
649.50 0.4028
649.60 0.4021
649.70 0.4015
649.80 0.4009
649.90 0.4003
650.00 0.3997
650.10 0.399
650.20 0.3984
650.30 0.3977
650.40 0.3969
650.50 0.3961
650.60 0.3952
650.70 0.3944
650.80 0.3936
650.90 0.3928
651.00 0.3919
651.10 0.3911
651.20 0.3903
651.30 0.3894
651.40 0.3882
651.50 0.387
651.60 0.3859
651.70 0.3847
651.80 0.3835
651.90 0.3824
652.00 0.3812
652.10 0.38
652.20 0.3789
652.30 0.3776
652.40 0.3759
652.50 0.3742
652.60 0.3725
652.70 0.3708
652.80 0.3691
652.90 0.3673
653.00 0.3656
653.10 0.3639
653.20 0.3622
653.30 0.3604
653.40 0.3579
653.50 0.3554
653.60 0.3529
653.70 0.3504
653.80 0.3478
653.90 0.3453
654.00 0.3428
654.10 0.3403
654.20 0.3378
654.30 0.3352
654.40 0.3319
654.50 0.3286
654.60 0.3254
654.70 0.3221
654.80 0.3187
654.90 0.3147
655.00 0.3107
655.10 0.3067
655.20 0.3027
655.30 0.2986
655.40 0.2941
655.50 0.2896
655.60 0.2846
655.70 0.2796
655.80 0.274
655.90 0.268
656.00 0.2603
656.10 0.252
656.20 0.2189
656.30 0.1855
656.40 0.2412
656.50 0.2551
656.60 0.2625
656.70 0.2696
656.80 0.2749
656.90 0.2801
657.00 0.2848
657.10 0.2894
657.20 0.2935
657.30 0.2976
657.40 0.3013
657.50 0.305
657.60 0.3087
657.70 0.3124
657.80 0.3159
657.90 0.3188
658.00 0.3217
658.10 0.3246
658.20 0.3276
658.30 0.3303
658.40 0.3324
658.50 0.3345
658.60 0.3367
658.70 0.3388
658.80 0.3409
658.90 0.343
659.00 0.3451
659.10 0.3472
659.20 0.3493
659.30 0.3512
659.40 0.3525
659.50 0.3538
659.60 0.3551
659.70 0.3563
659.80 0.3576
659.90 0.3589
660.00 0.3602
660.10 0.3614
660.20 0.3627
660.30 0.3639
660.40 0.3646
660.50 0.3653
660.60 0.366
660.70 0.3668
660.80 0.3675
660.90 0.3682
661.00 0.3689
661.10 0.3697
661.20 0.3704
661.30 0.371
661.40 0.3714
661.50 0.3718
661.60 0.3722
661.70 0.3726
661.80 0.373
661.90 0.3733
662.00 0.3737
662.10 0.3741
662.20 0.3745
662.30 0.3748
662.40 0.375
662.50 0.3752
662.60 0.3754
662.70 0.3755
662.80 0.3757
662.90 0.3759
663.00 0.3761
663.10 0.3762
663.20 0.3764
663.30 0.3766
663.40 0.3766
663.50 0.3767
663.60 0.3768
663.70 0.3768
663.80 0.3769
663.90 0.3769
664.00 0.377
664.10 0.377
664.20 0.3771
664.30 0.3771
664.40 0.3771
664.50 0.3771
664.60 0.3771
664.70 0.3771
664.80 0.377
664.90 0.377
665.00 0.377
665.10 0.377
665.20 0.377
665.30 0.3769
665.40 0.3769
665.50 0.3768
665.60 0.3767
665.70 0.3766
665.80 0.3766
665.90 0.3765
666.00 0.3764
666.10 0.3764
666.20 0.3763
666.30 0.3762
666.40 0.3761
666.50 0.376
666.60 0.3759
666.70 0.3758
666.80 0.3757
666.90 0.3756
667.00 0.3755
667.10 0.3754
667.20 0.3753
667.30 0.3752
667.40 0.375
667.50 0.3749
667.60 0.3748
667.70 0.3747
667.80 0.3745
667.90 0.3744
668.00 0.3743
668.10 0.3742
668.20 0.374
668.30 0.3739
668.40 0.3738
668.50 0.3736
668.60 0.3735
668.70 0.3733
668.80 0.3732
668.90 0.3731
669.00 0.3729
669.10 0.3728
669.20 0.3726
669.30 0.3725
669.40 0.3723
669.50 0.3722
669.60 0.372
669.70 0.3719
669.80 0.3717
669.90 0.3716
670.00 0.3714
670.10 0.3713
670.20 0.3711
670.30 0.371
670.40 0.3708
670.50 0.3706
670.60 0.3705
670.70 0.3703
670.80 0.3702
670.90 0.37
671.00 0.3699
671.10 0.3697
671.20 0.3695
671.30 0.3694
671.40 0.3692
671.50 0.369
671.60 0.3689
671.70 0.3687
671.80 0.3686
671.90 0.3684
672.00 0.3682
672.10 0.3681
672.20 0.3679
672.30 0.3677
672.40 0.3676
672.50 0.3674
672.60 0.3672
672.70 0.3671
672.80 0.3669
672.90 0.3667
673.00 0.3666
673.10 0.3664
673.20 0.3662
673.30 0.366
673.40 0.3659
673.50 0.3657
673.60 0.3655
673.70 0.3654
673.80 0.3652
673.90 0.365
674.00 0.3649
674.10 0.3647
674.20 0.3645
674.30 0.3643
674.40 0.3642
674.50 0.364
674.60 0.3638
674.70 0.3637
674.80 0.3635
674.90 0.3633
675.00 0.3631
675.10 0.363
675.20 0.3628
675.30 0.3626
675.40 0.3624
675.50 0.3623
675.60 0.3621
675.70 0.3619
675.80 0.3617
675.90 0.3616
676.00 0.3614
676.10 0.3612
676.20 0.3611
676.30 0.3609
676.40 0.3607
676.50 0.3605
676.60 0.3604
676.70 0.3602
676.80 0.36
676.90 0.3598
677.00 0.3597
677.10 0.3595
677.20 0.3593
677.30 0.3591
677.40 0.359
677.50 0.3588
677.60 0.3586
677.70 0.3584
677.80 0.3583
677.90 0.3581
678.00 0.3579
678.10 0.3577
678.20 0.3576
678.30 0.3574
678.40 0.3572
678.50 0.357
678.60 0.3569
678.70 0.3567
678.80 0.3565
678.90 0.3563
679.00 0.3562
679.10 0.356
679.20 0.3558
679.30 0.3557
679.40 0.3555
679.50 0.3553
679.60 0.3551
679.70 0.355
679.80 0.3548
679.90 0.3546
680.00 0.3544
680.10 0.3543
680.20 0.3541
680.30 0.3539
680.40 0.3537
680.50 0.3536
680.60 0.3534
680.70 0.3532
680.80 0.353
680.90 0.3529
681.00 0.3527
681.10 0.3525
681.20 0.3523
681.30 0.3522
681.40 0.352
681.50 0.3518
681.60 0.3516
681.70 0.3515
681.80 0.3513
681.90 0.3511
682.00 0.351
682.10 0.3508
682.20 0.3506
682.30 0.3504
682.40 0.3503
682.50 0.3501
682.60 0.3499
682.70 0.3497
682.80 0.3496
682.90 0.3494
683.00 0.3492
683.10 0.3491
683.20 0.3489
683.30 0.3487
683.40 0.3485
683.50 0.3484
683.60 0.3482
683.70 0.348
683.80 0.3478
683.90 0.3477
684.00 0.3475
684.10 0.3473
684.20 0.3472
684.30 0.347
684.40 0.3468
684.50 0.3466
684.60 0.3465
684.70 0.3463
684.80 0.3461
684.90 0.346
685.00 0.3458
685.10 0.3456
685.20 0.3454
685.30 0.3453
685.40 0.3451
685.50 0.3449
685.60 0.3448
685.70 0.3446
685.80 0.3444
685.90 0.3442
686.00 0.3441
686.10 0.3439
686.20 0.3437
686.30 0.3436
686.40 0.3434
686.50 0.3432
686.60 0.343
686.70 0.3429
686.80 0.3427
686.90 0.3425
687.00 0.3424
687.10 0.3422
687.20 0.342
687.30 0.3419
687.40 0.3417
687.50 0.3415
687.60 0.3414
687.70 0.3412
687.80 0.341
687.90 0.3408
688.00 0.3407
688.10 0.3405
688.20 0.3403
688.30 0.3402
688.40 0.34
688.50 0.3398
688.60 0.3397
688.70 0.3395
688.80 0.3393
688.90 0.3392
689.00 0.339
689.10 0.3388
689.20 0.3387
689.30 0.3385
689.40 0.3383
689.50 0.3382
689.60 0.338
689.70 0.3378
689.80 0.3377
689.90 0.3375
690.00 0.3373
690.10 0.3372
690.20 0.337
690.30 0.3368
690.40 0.3367
690.50 0.3365
690.60 0.3363
690.70 0.3362
690.80 0.336
690.90 0.3358
691.00 0.3357
691.10 0.3355
691.20 0.3353
691.30 0.3352
691.40 0.335
691.50 0.3348
691.60 0.3347
691.70 0.3345
691.80 0.3343
691.90 0.3342
692.00 0.334
692.10 0.3338
692.20 0.3337
692.30 0.3335
692.40 0.3333
692.50 0.3332
692.60 0.333
692.70 0.3329
692.80 0.3327
692.90 0.3325
693.00 0.3324
693.10 0.3322
693.20 0.332
693.30 0.3319
693.40 0.3317
693.50 0.3315
693.60 0.3314
693.70 0.3312
693.80 0.3311
693.90 0.3309
694.00 0.3307
694.10 0.3306
694.20 0.3304
694.30 0.3302
694.40 0.3301
694.50 0.3299
694.60 0.3297
694.70 0.3296
694.80 0.3294
694.90 0.3293
695.00 0.3291
695.10 0.3289
695.20 0.3288
695.30 0.3286
695.40 0.3284
695.50 0.3283
695.60 0.3281
695.70 0.328
695.80 0.3278
695.90 0.3276
696.00 0.3275
696.10 0.3273
696.20 0.3271
696.30 0.327
696.40 0.3268
696.50 0.3267
696.60 0.3265
696.70 0.3263
696.80 0.3262
696.90 0.326
697.00 0.3259
697.10 0.3257
697.20 0.3255
697.30 0.3254
697.40 0.3252
697.50 0.3251
697.60 0.3249
697.70 0.3247
697.80 0.3246
697.90 0.3244
698.00 0.3243
698.10 0.3241
698.20 0.3239
698.30 0.3238
698.40 0.3236
698.50 0.3235
698.60 0.3233
698.70 0.3231
698.80 0.323
698.90 0.3228
699.00 0.3227
699.10 0.3225
699.20 0.3223
699.30 0.3222
699.40 0.322
699.50 0.3219
699.60 0.3217
699.70 0.3215
699.80 0.3214
699.90 0.3212
700.00 0.3211
700.10 0.3209
700.20 0.3207
700.30 0.3206
700.40 0.3204
700.50 0.3202
700.60 0.32
700.70 0.3199
700.80 0.3197
700.90 0.3195
701.00 0.3193
701.10 0.3192
701.20 0.319
701.30 0.3188
701.40 0.3187
701.50 0.3185
701.60 0.3183
701.70 0.3182
701.80 0.318
701.90 0.3178
702.00 0.3176
702.10 0.3175
702.20 0.3173
702.30 0.3171
702.40 0.317
702.50 0.3168
702.60 0.3166
702.70 0.3164
702.80 0.3163
702.90 0.3161
703.00 0.3159
703.10 0.3158
703.20 0.3156
703.30 0.3154
703.40 0.3153
703.50 0.3151
703.60 0.3149
703.70 0.3148
703.80 0.3146
703.90 0.3144
704.00 0.3142
704.10 0.3141
704.20 0.3139
704.30 0.3137
704.40 0.3136
704.50 0.3134
704.60 0.3132
704.70 0.3131
704.80 0.3129
704.90 0.3127
705.00 0.3126
705.10 0.3124
705.20 0.3123
705.30 0.3121
705.40 0.312
705.50 0.3118
705.60 0.3116
705.70 0.3115
705.80 0.3113
705.90 0.3112
706.00 0.311
706.10 0.3109
706.20 0.3107
706.30 0.3106
706.40 0.3104
706.50 0.3103
706.60 0.3101
706.70 0.31
706.80 0.3098
706.90 0.3097
707.00 0.3095
707.10 0.3094
707.20 0.3092
707.30 0.3091
707.40 0.3089
707.50 0.3088
707.60 0.3086
707.70 0.3085
707.80 0.3083
707.90 0.3082
708.00 0.308
708.10 0.3079
708.20 0.3077
708.30 0.3076
708.40 0.3074
708.50 0.3073
708.60 0.3071
708.70 0.307
708.80 0.3068
708.90 0.3067
709.00 0.3065
709.10 0.3064
709.20 0.3062
709.30 0.3061
709.40 0.3059
709.50 0.3058
709.60 0.3056
709.70 0.3055
709.80 0.3053
709.90 0.3052
710.00 0.305
710.10 0.3049
710.20 0.3047
710.30 0.3046
710.40 0.3044
710.50 0.3043
710.60 0.3041
710.70 0.304
710.80 0.3038
710.90 0.3037
711.00 0.3035
711.10 0.3034
711.20 0.3032
711.30 0.3031
711.40 0.303
711.50 0.3028
711.60 0.3027
711.70 0.3025
711.80 0.3024
711.90 0.3022
712.00 0.3021
712.10 0.3019
712.20 0.3018
712.30 0.3016
712.40 0.3015
712.50 0.3013
712.60 0.3012
712.70 0.301
712.80 0.3009
712.90 0.3008
713.00 0.3006
713.10 0.3005
713.20 0.3003
713.30 0.3002
713.40 0.3
713.50 0.2999
713.60 0.2997
713.70 0.2996
713.80 0.2994
713.90 0.2993
714.00 0.2992
714.10 0.299
714.20 0.2989
714.30 0.2987
714.40 0.2986
714.50 0.2984
714.60 0.2983
714.70 0.2981
714.80 0.298
714.90 0.2978
715.00 0.2977
715.10 0.2976
715.20 0.2974
715.30 0.2973
715.40 0.2971
715.50 0.297
715.60 0.2968
715.70 0.2967
715.80 0.2966
715.90 0.2964
716.00 0.2963
716.10 0.2961
716.20 0.296
716.30 0.2958
716.40 0.2957
716.50 0.2956
716.60 0.2954
716.70 0.2953
716.80 0.2951
716.90 0.295
717.00 0.2949
717.10 0.2947
717.20 0.2946
717.30 0.2944
717.40 0.2943
717.50 0.2941
717.60 0.294
717.70 0.2939
717.80 0.2937
717.90 0.2936
718.00 0.2934
718.10 0.2933
718.20 0.2932
718.30 0.293
718.40 0.2929
718.50 0.2927
718.60 0.2926
718.70 0.2925
718.80 0.2923
718.90 0.2922
719.00 0.292
719.10 0.2919
719.20 0.2918
719.30 0.2916
719.40 0.2915
719.50 0.2913
719.60 0.2912
719.70 0.2911
719.80 0.2909
719.90 0.2908
720.00 0.2906
720.10 0.2905
720.20 0.2904
720.30 0.2902
720.40 0.2901
720.50 0.2899
720.60 0.2898
720.70 0.2897
720.80 0.2895
720.90 0.2894
721.00 0.2892
721.10 0.2891
721.20 0.289
721.30 0.2888
721.40 0.2887
721.50 0.2885
721.60 0.2884
721.70 0.2883
721.80 0.2881
721.90 0.288
722.00 0.2879
722.10 0.2877
722.20 0.2876
722.30 0.2874
722.40 0.2873
722.50 0.2872
722.60 0.287
722.70 0.2869
722.80 0.2867
722.90 0.2866
723.00 0.2865
723.10 0.2863
723.20 0.2862
723.30 0.2861
723.40 0.2859
723.50 0.2858
723.60 0.2856
723.70 0.2855
723.80 0.2854
723.90 0.2852
724.00 0.2851
724.10 0.285
724.20 0.2848
724.30 0.2847
724.40 0.2846
724.50 0.2844
724.60 0.2843
724.70 0.2841
724.80 0.284
724.90 0.2839
725.00 0.2837
725.10 0.2836
725.20 0.2835
725.30 0.2833
725.40 0.2832
725.50 0.2831
725.60 0.2829
725.70 0.2828
725.80 0.2827
725.90 0.2825
726.00 0.2824
726.10 0.2823
726.20 0.2821
726.30 0.282
726.40 0.2818
726.50 0.2817
726.60 0.2816
726.70 0.2814
726.80 0.2813
726.90 0.2812
727.00 0.281
727.10 0.2809
727.20 0.2808
727.30 0.2806
727.40 0.2805
727.50 0.2804
727.60 0.2802
727.70 0.2801
727.80 0.28
727.90 0.2798
728.00 0.2797
728.10 0.2796
728.20 0.2794
728.30 0.2793
728.40 0.2792
728.50 0.279
728.60 0.2789
728.70 0.2788
728.80 0.2786
728.90 0.2785
729.00 0.2784
729.10 0.2782
729.20 0.2781
729.30 0.278
729.40 0.2778
729.50 0.2777
729.60 0.2776
729.70 0.2774
729.80 0.2773
729.90 0.2772
730.00 0.277
730.10 0.2769
730.20 0.2768
730.30 0.2767
730.40 0.2765
730.50 0.2764
730.60 0.2763
730.70 0.2761
730.80 0.276
730.90 0.2759
731.00 0.2757
731.10 0.2756
731.20 0.2755
731.30 0.2754
731.40 0.2752
731.50 0.2751
731.60 0.275
731.70 0.2748
731.80 0.2747
731.90 0.2746
732.00 0.2744
732.10 0.2743
732.20 0.2742
732.30 0.2741
732.40 0.2739
732.50 0.2738
732.60 0.2737
732.70 0.2735
732.80 0.2734
732.90 0.2733
733.00 0.2731
733.10 0.273
733.20 0.2729
733.30 0.2728
733.40 0.2726
733.50 0.2725
733.60 0.2724
733.70 0.2722
733.80 0.2721
733.90 0.272
734.00 0.2719
734.10 0.2717
734.20 0.2716
734.30 0.2715
734.40 0.2713
734.50 0.2712
734.60 0.2711
734.70 0.271
734.80 0.2708
734.90 0.2707
735.00 0.2706
735.10 0.2705
735.20 0.2703
735.30 0.2702
735.40 0.2701
735.50 0.2699
735.60 0.2698
735.70 0.2697
735.80 0.2696
735.90 0.2694
736.00 0.2693
736.10 0.2692
736.20 0.269
736.30 0.2689
736.40 0.2688
736.50 0.2687
736.60 0.2685
736.70 0.2684
736.80 0.2683
736.90 0.2682
737.00 0.268
737.10 0.2679
737.20 0.2678
737.30 0.2677
737.40 0.2675
737.50 0.2674
737.60 0.2673
737.70 0.2671
737.80 0.267
737.90 0.2669
738.00 0.2668
738.10 0.2666
738.20 0.2665
738.30 0.2664
738.40 0.2663
738.50 0.2661
738.60 0.266
738.70 0.2659
738.80 0.2658
738.90 0.2656
739.00 0.2655
739.10 0.2654
739.20 0.2653
739.30 0.2651
739.40 0.265
739.50 0.2649
739.60 0.2648
739.70 0.2646
739.80 0.2645
739.90 0.2644
740.00 0.2643
740.10 0.2641
740.20 0.264
740.30 0.2639
740.40 0.2638
740.50 0.2636
740.60 0.2635
740.70 0.2634
740.80 0.2633
740.90 0.2632
741.00 0.263
741.10 0.2629
741.20 0.2628
741.30 0.2627
741.40 0.2625
741.50 0.2624
741.60 0.2623
741.70 0.2622
741.80 0.262
741.90 0.2619
742.00 0.2618
742.10 0.2617
742.20 0.2616
742.30 0.2614
742.40 0.2613
742.50 0.2612
742.60 0.2611
742.70 0.2609
742.80 0.2608
742.90 0.2607
743.00 0.2606
743.10 0.2605
743.20 0.2603
743.30 0.2602
743.40 0.2601
743.50 0.26
743.60 0.2599
743.70 0.2597
743.80 0.2596
743.90 0.2595
744.00 0.2594
744.10 0.2592
744.20 0.2591
744.30 0.259
744.40 0.2589
744.50 0.2588
744.60 0.2586
744.70 0.2585
744.80 0.2584
744.90 0.2583
745.00 0.2582
745.10 0.258
745.20 0.2579
745.30 0.2578
745.40 0.2577
745.50 0.2576
745.60 0.2574
745.70 0.2573
745.80 0.2572
745.90 0.2571
746.00 0.257
746.10 0.2568
746.20 0.2567
746.30 0.2566
746.40 0.2565
746.50 0.2564
746.60 0.2562
746.70 0.2561
746.80 0.256
746.90 0.2559
747.00 0.2558
747.10 0.2556
747.20 0.2555
747.30 0.2554
747.40 0.2553
747.50 0.2552
747.60 0.255
747.70 0.2549
747.80 0.2548
747.90 0.2547
748.00 0.2546
748.10 0.2545
748.20 0.2543
748.30 0.2542
748.40 0.2541
748.50 0.254
748.60 0.2539
748.70 0.2537
748.80 0.2536
748.90 0.2535
749.00 0.2534
749.10 0.2533
749.20 0.2531
749.30 0.253
749.40 0.2529
749.50 0.2528
749.60 0.2527
749.70 0.2526
749.80 0.2524
749.90 0.2523
750.00 0.2522
750.10 0.2521
750.20 0.252
750.30 0.2519
750.40 0.2517
750.50 0.2516
750.60 0.2515
750.70 0.2514
750.80 0.2513
750.90 0.2512
751.00 0.251
751.10 0.2509
751.20 0.2508
751.30 0.2507
751.40 0.2506
751.50 0.2505
751.60 0.2503
751.70 0.2502
751.80 0.2501
751.90 0.25
752.00 0.2499
752.10 0.2498
752.20 0.2497
752.30 0.2495
752.40 0.2494
752.50 0.2493
752.60 0.2492
752.70 0.2491
752.80 0.249
752.90 0.2489
753.00 0.2487
753.10 0.2486
753.20 0.2485
753.30 0.2484
753.40 0.2483
753.50 0.2482
753.60 0.2481
753.70 0.2479
753.80 0.2478
753.90 0.2477
754.00 0.2476
754.10 0.2475
754.20 0.2474
754.30 0.2473
754.40 0.2471
754.50 0.247
754.60 0.2469
754.70 0.2468
754.80 0.2467
754.90 0.2466
755.00 0.2465
755.10 0.2463
755.20 0.2462
755.30 0.2461
755.40 0.246
755.50 0.2459
755.60 0.2458
755.70 0.2457
755.80 0.2455
755.90 0.2454
756.00 0.2453
756.10 0.2452
756.20 0.2451
756.30 0.245
756.40 0.2449
756.50 0.2448
756.60 0.2446
756.70 0.2445
756.80 0.2444
756.90 0.2443
757.00 0.2442
757.10 0.2441
757.20 0.244
757.30 0.2439
757.40 0.2437
757.50 0.2436
757.60 0.2435
757.70 0.2434
757.80 0.2433
757.90 0.2432
758.00 0.2431
758.10 0.243
758.20 0.2428
758.30 0.2427
758.40 0.2426
758.50 0.2425
758.60 0.2424
758.70 0.2423
758.80 0.2422
758.90 0.2421
759.00 0.2419
759.10 0.2418
759.20 0.2417
759.30 0.2416
759.40 0.2415
759.50 0.2414
759.60 0.2413
759.70 0.2412
759.80 0.2411
759.90 0.2409
760.00 0.2408
760.10 0.2407
760.20 0.2406
760.30 0.2405
760.40 0.2404
760.50 0.2403
760.60 0.2402
760.70 0.2401
760.80 0.24
760.90 0.2398
761.00 0.2397
761.10 0.2396
761.20 0.2395
761.30 0.2394
761.40 0.2393
761.50 0.2392
761.60 0.2391
761.70 0.239
761.80 0.2389
761.90 0.2388
762.00 0.2386
762.10 0.2385
762.20 0.2384
762.30 0.2383
762.40 0.2382
762.50 0.2381
762.60 0.238
762.70 0.2379
762.80 0.2378
762.90 0.2377
763.00 0.2376
763.10 0.2375
763.20 0.2373
763.30 0.2372
763.40 0.2371
763.50 0.237
763.60 0.2369
763.70 0.2368
763.80 0.2367
763.90 0.2366
764.00 0.2365
764.10 0.2364
764.20 0.2363
764.30 0.2362
764.40 0.2361
764.50 0.2359
764.60 0.2358
764.70 0.2357
764.80 0.2356
764.90 0.2355
765.00 0.2354
765.10 0.2353
765.20 0.2352
765.30 0.2351
765.40 0.235
765.50 0.2349
765.60 0.2348
765.70 0.2347
765.80 0.2346
765.90 0.2344
766.00 0.2343
766.10 0.2342
766.20 0.2341
766.30 0.234
766.40 0.2339
766.50 0.2338
766.60 0.2337
766.70 0.2336
766.80 0.2335
766.90 0.2334
767.00 0.2333
767.10 0.2332
767.20 0.2331
767.30 0.233
767.40 0.2328
767.50 0.2327
767.60 0.2326
767.70 0.2325
767.80 0.2324
767.90 0.2323
768.00 0.2322
768.10 0.2321
768.20 0.232
768.30 0.2319
768.40 0.2318
768.50 0.2317
768.60 0.2316
768.70 0.2315
768.80 0.2314
768.90 0.2313
769.00 0.2312
769.10 0.231
769.20 0.2309
769.30 0.2308
769.40 0.2307
769.50 0.2306
769.60 0.2305
769.70 0.2304
769.80 0.2303
769.90 0.2302
770.00 0.2301
770.10 0.23
770.20 0.2299
770.30 0.2298
770.40 0.2297
770.50 0.2296
770.60 0.2295
770.70 0.2294
770.80 0.2293
770.90 0.2292
771.00 0.2291
771.10 0.229
771.20 0.2289
771.30 0.2288
771.40 0.2287
771.50 0.2286
771.60 0.2285
771.70 0.2283
771.80 0.2282
771.90 0.2281
772.00 0.228
772.10 0.2279
772.20 0.2278
772.30 0.2277
772.40 0.2276
772.50 0.2275
772.60 0.2274
772.70 0.2273
772.80 0.2272
772.90 0.2271
773.00 0.227
773.10 0.2269
773.20 0.2268
773.30 0.2267
773.40 0.2266
773.50 0.2265
773.60 0.2264
773.70 0.2263
773.80 0.2262
773.90 0.2261
774.00 0.226
774.10 0.2259
774.20 0.2258
774.30 0.2257
774.40 0.2256
774.50 0.2255
774.60 0.2254
774.70 0.2253
774.80 0.2252
774.90 0.2251
775.00 0.225
775.10 0.2249
775.20 0.2248
775.30 0.2247
775.40 0.2246
775.50 0.2245
775.60 0.2244
775.70 0.2243
775.80 0.2242
775.90 0.2241
776.00 0.224
776.10 0.2239
776.20 0.2238
776.30 0.2237
776.40 0.2236
776.50 0.2235
776.60 0.2234
776.70 0.2233
776.80 0.2232
776.90 0.2231
777.00 0.223
777.10 0.2229
777.20 0.2228
777.30 0.2227
777.40 0.2226
777.50 0.2225
777.60 0.2224
777.70 0.2223
777.80 0.2222
777.90 0.2221
778.00 0.222
778.10 0.2219
778.20 0.2218
778.30 0.2217
778.40 0.2216
778.50 0.2215
778.60 0.2214
778.70 0.2213
778.80 0.2212
778.90 0.2211
779.00 0.221
779.10 0.2209
779.20 0.2208
779.30 0.2207
779.40 0.2206
779.50 0.2205
779.60 0.2204
779.70 0.2203
779.80 0.2202
779.90 0.2201
780.00 0.22
780.10 0.2199
780.20 0.2198
780.30 0.2197
780.40 0.2196
780.50 0.2195
780.60 0.2194
780.70 0.2193
780.80 0.2192
780.90 0.2191
781.00 0.219
781.10 0.2189
781.20 0.2188
781.30 0.2187
781.40 0.2186
781.50 0.2185
781.60 0.2184
781.70 0.2183
781.80 0.2182
781.90 0.2181
782.00 0.218
782.10 0.2179
782.20 0.2178
782.30 0.2177
782.40 0.2176
782.50 0.2175
782.60 0.2174
782.70 0.2173
782.80 0.2172
782.90 0.2171
783.00 0.2171
783.10 0.217
783.20 0.2169
783.30 0.2168
783.40 0.2167
783.50 0.2166
783.60 0.2165
783.70 0.2164
783.80 0.2163
783.90 0.2162
784.00 0.2161
784.10 0.216
784.20 0.2159
784.30 0.2158
784.40 0.2157
784.50 0.2156
784.60 0.2155
784.70 0.2154
784.80 0.2153
784.90 0.2152
785.00 0.2151
785.10 0.215
785.20 0.2149
785.30 0.2148
785.40 0.2147
785.50 0.2146
785.60 0.2146
785.70 0.2145
785.80 0.2144
785.90 0.2143
786.00 0.2142
786.10 0.2141
786.20 0.214
786.30 0.2139
786.40 0.2138
786.50 0.2137
786.60 0.2136
786.70 0.2135
786.80 0.2134
786.90 0.2133
787.00 0.2132
787.10 0.2131
787.20 0.213
787.30 0.2129
787.40 0.2128
787.50 0.2127
787.60 0.2127
787.70 0.2126
787.80 0.2125
787.90 0.2124
788.00 0.2123
788.10 0.2122
788.20 0.2121
788.30 0.212
788.40 0.2119
788.50 0.2118
788.60 0.2117
788.70 0.2116
788.80 0.2115
788.90 0.2114
789.00 0.2113
789.10 0.2112
789.20 0.2111
789.30 0.211
789.40 0.211
789.50 0.2109
789.60 0.2108
789.70 0.2107
789.80 0.2106
789.90 0.2105
790.00 0.2104
790.10 0.2103
790.20 0.2102
790.30 0.2101
790.40 0.21
790.50 0.2099
790.60 0.2098
790.70 0.2097
790.80 0.2097
790.90 0.2096
791.00 0.2095
791.10 0.2094
791.20 0.2093
791.30 0.2092
791.40 0.2091
791.50 0.209
791.60 0.2089
791.70 0.2088
791.80 0.2087
791.90 0.2086
792.00 0.2085
792.10 0.2085
792.20 0.2084
792.30 0.2083
792.40 0.2082
792.50 0.2081
792.60 0.208
792.70 0.2079
792.80 0.2078
792.90 0.2077
793.00 0.2076
793.10 0.2075
793.20 0.2075
793.30 0.2074
793.40 0.2073
793.50 0.2072
793.60 0.2071
793.70 0.207
793.80 0.2069
793.90 0.2068
794.00 0.2067
794.10 0.2066
794.20 0.2065
794.30 0.2064
794.40 0.2064
794.50 0.2063
794.60 0.2062
794.70 0.2061
794.80 0.206
794.90 0.2059
795.00 0.2058
795.10 0.2057
795.20 0.2056
795.30 0.2055
795.40 0.2055
795.50 0.2054
795.60 0.2053
795.70 0.2052
795.80 0.2051
795.90 0.205
796.00 0.2049
796.10 0.2048
796.20 0.2047
796.30 0.2046
796.40 0.2045
796.50 0.2045
796.60 0.2044
796.70 0.2043
796.80 0.2042
796.90 0.2041
797.00 0.204
797.10 0.2039
797.20 0.2038
797.30 0.2037
797.40 0.2037
797.50 0.2036
797.60 0.2035
797.70 0.2034
797.80 0.2033
797.90 0.2032
798.00 0.2031
798.10 0.203
798.20 0.2029
798.30 0.2028
798.40 0.2028
798.50 0.2027
798.60 0.2026
798.70 0.2025
798.80 0.2024
798.90 0.2023
799.00 0.2022
799.10 0.2021
799.20 0.202
799.30 0.202
799.40 0.2019
799.50 0.2018
799.60 0.2017
799.70 0.2016
799.80 0.2015
799.90 0.2014
800.00 0.2013
800.10 0.2012
800.20 0.2012
800.30 0.2011
800.40 0.201
800.50 0.2009
800.60 0.2008
800.70 0.2007
800.80 0.2006
800.90 0.2005
801.00 0.2005
801.10 0.2004
801.20 0.2003
801.30 0.2002
801.40 0.2001
801.50 0.2
801.60 0.1999
801.70 0.1999
801.80 0.1998
801.90 0.1997
802.00 0.1996
802.10 0.1995
802.20 0.1994
802.30 0.1993
802.40 0.1992
802.50 0.1992
802.60 0.1991
802.70 0.199
802.80 0.1989
802.90 0.1988
803.00 0.1987
803.10 0.1986
803.20 0.1986
803.30 0.1985
803.40 0.1984
803.50 0.1983
803.60 0.1982
803.70 0.1981
803.80 0.198
803.90 0.1979
804.00 0.1979
804.10 0.1978
804.20 0.1977
804.30 0.1976
804.40 0.1975
804.50 0.1974
804.60 0.1973
804.70 0.1973
804.80 0.1972
804.90 0.1971
805.00 0.197
805.10 0.1969
805.20 0.1968
805.30 0.1967
805.40 0.1967
805.50 0.1966
805.60 0.1965
805.70 0.1964
805.80 0.1963
805.90 0.1962
806.00 0.1961
806.10 0.1961
806.20 0.196
806.30 0.1959
806.40 0.1958
806.50 0.1957
806.60 0.1956
806.70 0.1955
806.80 0.1955
806.90 0.1954
807.00 0.1953
807.10 0.1952
807.20 0.1951
807.30 0.195
807.40 0.195
807.50 0.1949
807.60 0.1948
807.70 0.1947
807.80 0.1946
807.90 0.1945
808.00 0.1944
808.10 0.1944
808.20 0.1943
808.30 0.1942
808.40 0.1941
808.50 0.194
808.60 0.1939
808.70 0.1939
808.80 0.1938
808.90 0.1937
809.00 0.1936
809.10 0.1935
809.20 0.1934
809.30 0.1933
809.40 0.1933
809.50 0.1932
809.60 0.1931
809.70 0.193
809.80 0.1929
809.90 0.1928
810.00 0.1928
810.10 0.1927
810.20 0.1926
810.30 0.1925
810.40 0.1924
810.50 0.1923
810.60 0.1923
810.70 0.1922
810.80 0.1921
810.90 0.192
811.00 0.1919
811.10 0.1919
811.20 0.1918
811.30 0.1917
811.40 0.1916
811.50 0.1915
811.60 0.1914
811.70 0.1914
811.80 0.1913
811.90 0.1912
812.00 0.1911
812.10 0.191
812.20 0.1909
812.30 0.1909
812.40 0.1908
812.50 0.1907
812.60 0.1906
812.70 0.1905
812.80 0.1905
812.90 0.1904
813.00 0.1903
813.10 0.1902
813.20 0.1901
813.30 0.19
813.40 0.19
813.50 0.1899
813.60 0.1898
813.70 0.1897
813.80 0.1896
813.90 0.1896
814.00 0.1895
814.10 0.1894
814.20 0.1893
814.30 0.1892
814.40 0.1891
814.50 0.1891
814.60 0.189
814.70 0.1889
814.80 0.1888
814.90 0.1887
815.00 0.1887
815.10 0.1886
815.20 0.1885
815.30 0.1884
815.40 0.1883
815.50 0.1883
815.60 0.1882
815.70 0.1881
815.80 0.188
815.90 0.1879
816.00 0.1878
816.10 0.1878
816.20 0.1877
816.30 0.1876
816.40 0.1875
816.50 0.1874
816.60 0.1874
816.70 0.1873
816.80 0.1872
816.90 0.1871
817.00 0.187
817.10 0.187
817.20 0.1869
817.30 0.1868
817.40 0.1867
817.50 0.1866
817.60 0.1866
817.70 0.1865
817.80 0.1864
817.90 0.1863
818.00 0.1862
818.10 0.1862
818.20 0.1861
818.30 0.186
818.40 0.1859
818.50 0.1858
818.60 0.1858
818.70 0.1857
818.80 0.1856
818.90 0.1855
819.00 0.1854
819.10 0.1854
819.20 0.1853
819.30 0.1852
819.40 0.1851
819.50 0.185
819.60 0.185
819.70 0.1849
819.80 0.1848
819.90 0.1847
820.00 0.1846
820.10 0.1846
820.20 0.1845
820.30 0.1844
820.40 0.1843
820.50 0.1842
820.60 0.1842
820.70 0.1841
820.80 0.184
820.90 0.1839
821.00 0.1839
821.10 0.1838
821.20 0.1837
821.30 0.1836
821.40 0.1835
821.50 0.1835
821.60 0.1834
821.70 0.1833
821.80 0.1832
821.90 0.1832
822.00 0.1831
822.10 0.183
822.20 0.1829
822.30 0.1828
822.40 0.1828
822.50 0.1827
822.60 0.1826
822.70 0.1825
822.80 0.1825
822.90 0.1824
823.00 0.1823
823.10 0.1822
823.20 0.1821
823.30 0.1821
823.40 0.182
823.50 0.1819
823.60 0.1818
823.70 0.1818
823.80 0.1817
823.90 0.1816
824.00 0.1815
824.10 0.1814
824.20 0.1814
824.30 0.1813
824.40 0.1812
824.50 0.1811
824.60 0.1811
824.70 0.181
824.80 0.1809
824.90 0.1808
825.00 0.1807
825.10 0.1807
825.20 0.1806
825.30 0.1805
825.40 0.1804
825.50 0.1804
825.60 0.1803
825.70 0.1802
825.80 0.1801
825.90 0.1801
826.00 0.18
826.10 0.1799
826.20 0.1798
826.30 0.1798
826.40 0.1797
826.50 0.1796
826.60 0.1795
826.70 0.1794
826.80 0.1794
826.90 0.1793
827.00 0.1792
827.10 0.1791
827.20 0.1791
827.30 0.179
827.40 0.1789
827.50 0.1788
827.60 0.1788
827.70 0.1787
827.80 0.1786
827.90 0.1785
828.00 0.1785
828.10 0.1784
828.20 0.1783
828.30 0.1782
828.40 0.1782
828.50 0.1781
828.60 0.178
828.70 0.1779
828.80 0.1779
828.90 0.1778
829.00 0.1777
829.10 0.1776
829.20 0.1776
829.30 0.1775
829.40 0.1774
829.50 0.1773
829.60 0.1773
829.70 0.1772
829.80 0.1771
829.90 0.177
830.00 0.177
830.10 0.1769
830.20 0.1768
830.30 0.1767
830.40 0.1767
830.50 0.1766
830.60 0.1765
830.70 0.1764
830.80 0.1764
830.90 0.1763
831.00 0.1762
831.10 0.1761
831.20 0.1761
831.30 0.176
831.40 0.1759
831.50 0.1758
831.60 0.1758
831.70 0.1757
831.80 0.1756
831.90 0.1755
832.00 0.1755
832.10 0.1754
832.20 0.1753
832.30 0.1752
832.40 0.1752
832.50 0.1751
832.60 0.175
832.70 0.1749
832.80 0.1749
832.90 0.1748
833.00 0.1747
833.10 0.1747
833.20 0.1746
833.30 0.1745
833.40 0.1744
833.50 0.1744
833.60 0.1743
833.70 0.1742
833.80 0.1741
833.90 0.1741
834.00 0.174
834.10 0.1739
834.20 0.1738
834.30 0.1738
834.40 0.1737
834.50 0.1736
834.60 0.1736
834.70 0.1735
834.80 0.1734
834.90 0.1733
835.00 0.1733
835.10 0.1732
835.20 0.1731
835.30 0.173
835.40 0.173
835.50 0.1729
835.60 0.1728
835.70 0.1727
835.80 0.1727
835.90 0.1726
836.00 0.1725
836.10 0.1725
836.20 0.1724
836.30 0.1723
836.40 0.1722
836.50 0.1722
836.60 0.1721
836.70 0.172
836.80 0.172
836.90 0.1719
837.00 0.1718
837.10 0.1717
837.20 0.1717
837.30 0.1716
837.40 0.1715
837.50 0.1714
837.60 0.1714
837.70 0.1713
837.80 0.1712
837.90 0.1712
838.00 0.1711
838.10 0.171
838.20 0.1709
838.30 0.1709
838.40 0.1708
838.50 0.1707
838.60 0.1707
838.70 0.1706
838.80 0.1705
838.90 0.1704
839.00 0.1704
839.10 0.1703
839.20 0.1702
839.30 0.1702
839.40 0.1701
839.50 0.17
839.60 0.1699
839.70 0.1699
839.80 0.1698
839.90 0.1697
840.00 0.1697
840.10 0.1696
840.20 0.1695
840.30 0.1694
840.40 0.1694
840.50 0.1693
840.60 0.1692
840.70 0.1692
840.80 0.1691
840.90 0.169
841.00 0.1689
841.10 0.1689
841.20 0.1688
841.30 0.1687
841.40 0.1687
841.50 0.1686
841.60 0.1685
841.70 0.1685
841.80 0.1684
841.90 0.1683
842.00 0.1682
842.10 0.1682
842.20 0.1681
842.30 0.168
842.40 0.168
842.50 0.1679
842.60 0.1678
842.70 0.1677
842.80 0.1677
842.90 0.1676
843.00 0.1675
843.10 0.1675
843.20 0.1674
843.30 0.1673
843.40 0.1672
843.50 0.1672
843.60 0.1671
843.70 0.167
843.80 0.167
843.90 0.1669
844.00 0.1668
844.10 0.1667
844.20 0.1667
844.30 0.1666
844.40 0.1665
844.50 0.1665
844.60 0.1664
844.70 0.1663
844.80 0.1662
844.90 0.1662
845.00 0.1661
845.10 0.166
845.20 0.166
845.30 0.1659
845.40 0.1658
845.50 0.1657
845.60 0.1657
845.70 0.1656
845.80 0.1655
845.90 0.1655
846.00 0.1654
846.10 0.1653
846.20 0.1653
846.30 0.1652
846.40 0.1651
846.50 0.165
846.60 0.165
846.70 0.1649
846.80 0.1648
846.90 0.1648
847.00 0.1647
847.10 0.1647
847.20 0.1646
847.30 0.1646
847.40 0.1646
847.50 0.1646
847.60 0.1645
847.70 0.1645
847.80 0.1645
847.90 0.1645
848.00 0.1644
848.10 0.1644
848.20 0.1644
848.30 0.1644
848.40 0.1643
848.50 0.1643
848.60 0.1643
848.70 0.1643
848.80 0.1642
848.90 0.1642
849.00 0.1642
849.10 0.1642
849.20 0.1641
849.30 0.1641
849.40 0.1641
849.50 0.164
849.60 0.164
849.70 0.164
849.80 0.164
849.90 0.1639
850.00 0.1639
850.10 0.1639
850.20 0.1639
850.30 0.1638
850.40 0.1638
850.50 0.1638
850.60 0.1638
850.70 0.1637
850.80 0.1637
850.90 0.1637
851.00 0.1637
851.10 0.1636
851.20 0.1636
851.30 0.1636
851.40 0.1636
851.50 0.1635
851.60 0.1635
851.70 0.1635
851.80 0.1635
851.90 0.1634
852.00 0.1634
852.10 0.1634
852.20 0.1633
852.30 0.1633
852.40 0.1633
852.50 0.1632
852.60 0.1632
852.70 0.1631
852.80 0.1631
852.90 0.1631
853.00 0.163
853.10 0.163
853.20 0.1629
853.30 0.1629
853.40 0.1629
853.50 0.1628
853.60 0.1628
853.70 0.1628
853.80 0.1627
853.90 0.1627
854.00 0.1626
854.10 0.1626
854.20 0.1626
854.30 0.1625
854.40 0.1625
854.50 0.1624
854.60 0.1624
854.70 0.1624
854.80 0.1623
854.90 0.1623
855.00 0.1623
855.10 0.1622
855.20 0.1622
855.30 0.1621
855.40 0.1621
855.50 0.1621
855.60 0.162
855.70 0.162
855.80 0.1619
855.90 0.1619
856.00 0.1619
856.10 0.1618
856.20 0.1618
856.30 0.1618
856.40 0.1617
856.50 0.1617
856.60 0.1616
856.70 0.1616
856.80 0.1616
856.90 0.1615
857.00 0.1615
857.10 0.1614
857.20 0.1614
857.30 0.1614
857.40 0.1613
857.50 0.1613
857.60 0.1613
857.70 0.1612
857.80 0.1612
857.90 0.1611
858.00 0.1611
858.10 0.1611
858.20 0.161
858.30 0.161
858.40 0.1609
858.50 0.1609
858.60 0.1609
858.70 0.1608
858.80 0.1608
858.90 0.1608
859.00 0.1607
859.10 0.1607
859.20 0.1606
859.30 0.1606
859.40 0.1606
859.50 0.1605
859.60 0.1605
859.70 0.1605
859.80 0.1604
859.90 0.1604
860.00 0.1603
860.10 0.1603
860.20 0.1603
860.30 0.1602
860.40 0.1602
860.50 0.1601
860.60 0.1601
860.70 0.1601
860.80 0.16
860.90 0.16
861.00 0.16
861.10 0.1599
861.20 0.1599
861.30 0.1598
861.40 0.1598
861.50 0.1598
861.60 0.1597
861.70 0.1597
861.80 0.1597
861.90 0.1596
862.00 0.1596
862.10 0.1595
862.20 0.1594
862.30 0.1593
862.40 0.1592
862.50 0.1591
862.60 0.1589
862.70 0.1588
862.80 0.1587
862.90 0.1586
863.00 0.1585
863.10 0.1584
863.20 0.1583
863.30 0.1582
863.40 0.1581
863.50 0.158
863.60 0.1579
863.70 0.1578
863.80 0.1577
863.90 0.1576
864.00 0.1575
864.10 0.1574
864.20 0.1573
864.30 0.1572
864.40 0.1571
864.50 0.157
864.60 0.1569
864.70 0.1568
864.80 0.1567
864.90 0.1566
865.00 0.1565
865.10 0.1564
865.20 0.1562
865.30 0.1561
865.40 0.156
865.50 0.1559
865.60 0.1558
865.70 0.1557
865.80 0.1556
865.90 0.1555
866.00 0.1554
866.10 0.1553
866.20 0.1552
866.30 0.1551
866.40 0.155
866.50 0.1549
866.60 0.1548
866.70 0.1547
866.80 0.1546
866.90 0.1545
867.00 0.1544
867.10 0.1544
867.20 0.1545
867.30 0.1545
867.40 0.1545
867.50 0.1545
867.60 0.1546
867.70 0.1546
867.80 0.1546
867.90 0.1547
868.00 0.1547
868.10 0.1547
868.20 0.1548
868.30 0.1548
868.40 0.1548
868.50 0.1548
868.60 0.1549
868.70 0.1549
868.80 0.1549
868.90 0.155
869.00 0.155
869.10 0.155
869.20 0.1551
869.30 0.1551
869.40 0.1551
869.50 0.1551
869.60 0.1552
869.70 0.1552
869.80 0.1552
869.90 0.1553
870.00 0.1553
870.10 0.1553
870.20 0.1554
870.30 0.1554
870.40 0.1554
870.50 0.1554
870.60 0.1555
870.70 0.1555
870.80 0.1555
870.90 0.1556
871.00 0.1556
871.10 0.1556
871.20 0.1557
871.30 0.1557
871.40 0.1557
871.50 0.1557
871.60 0.1558
871.70 0.1558
871.80 0.1558
871.90 0.1559
872.00 0.1559
872.10 0.1558
872.20 0.1556
872.30 0.1555
872.40 0.1554
872.50 0.1552
872.60 0.1551
872.70 0.155
872.80 0.1548
872.90 0.1547
873.00 0.1546
873.10 0.1544
873.20 0.1543
873.30 0.1542
873.40 0.154
873.50 0.1539
873.60 0.1538
873.70 0.1536
873.80 0.1535
873.90 0.1534
874.00 0.1533
874.10 0.1531
874.20 0.153
874.30 0.1529
874.40 0.1527
874.50 0.1526
874.60 0.1525
874.70 0.1523
874.80 0.1522
874.90 0.1521
875.00 0.1519
875.10 0.1518
875.20 0.1517
875.30 0.1516
875.40 0.1514
875.50 0.1513
875.60 0.1512
875.70 0.151
875.80 0.1509
875.90 0.1508
876.00 0.1506
876.10 0.1505
876.20 0.1504
876.30 0.1503
876.40 0.1501
876.50 0.15
876.60 0.1499
876.70 0.1497
876.80 0.1496
876.90 0.1495
877.00 0.1493
877.10 0.1494
877.20 0.1494
877.30 0.1494
877.40 0.1494
877.50 0.1495
877.60 0.1495
877.70 0.1495
877.80 0.1496
877.90 0.1496
878.00 0.1496
878.10 0.1496
878.20 0.1497
878.30 0.1497
878.40 0.1497
878.50 0.1497
878.60 0.1498
878.70 0.1498
878.80 0.1498
878.90 0.1498
879.00 0.1499
879.10 0.1499
879.20 0.1499
879.30 0.1499
879.40 0.15
879.50 0.15
879.60 0.15
879.70 0.15
879.80 0.1501
879.90 0.1501
880.00 0.1501
880.10 0.1501
880.20 0.1502
880.30 0.1502
880.40 0.1502
880.50 0.1503
880.60 0.1503
880.70 0.1503
880.80 0.1503
880.90 0.1504
881.00 0.1504
881.10 0.1504
881.20 0.1504
881.30 0.1505
881.40 0.1505
881.50 0.1505
881.60 0.1505
881.70 0.1506
881.80 0.1506
881.90 0.1506
882.00 0.1506
882.10 0.1502
882.20 0.1498
882.30 0.1494
882.40 0.1489
882.50 0.1485
882.60 0.1481
882.70 0.1477
882.80 0.1472
882.90 0.1468
883.00 0.1464
883.10 0.146
883.20 0.1455
883.30 0.1451
883.40 0.1447
883.50 0.1443
883.60 0.1438
883.70 0.1434
883.80 0.143
883.90 0.1426
884.00 0.1421
884.10 0.1417
884.20 0.1413
884.30 0.1409
884.40 0.1405
884.50 0.14
884.60 0.1396
884.70 0.1392
884.80 0.1388
884.90 0.1383
885.00 0.1379
885.10 0.1375
885.20 0.1371
885.30 0.1367
885.40 0.1362
885.50 0.1358
885.60 0.1354
885.70 0.135
885.80 0.1346
885.90 0.1341
886.00 0.1337
886.10 0.1333
886.20 0.1329
886.30 0.1325
886.40 0.132
886.50 0.1316
886.60 0.1312
886.70 0.1308
886.80 0.1304
886.90 0.13
887.00 0.1295
887.10 0.1298
887.20 0.1301
887.30 0.1304
887.40 0.1307
887.50 0.131
887.60 0.1313
887.70 0.1316
887.80 0.1319
887.90 0.1322
888.00 0.1325
888.10 0.1328
888.20 0.1331
888.30 0.1334
888.40 0.1337
888.50 0.134
888.60 0.1343
888.70 0.1346
888.80 0.1349
888.90 0.1352
889.00 0.1355
889.10 0.1358
889.20 0.1361
889.30 0.1364
889.40 0.1367
889.50 0.137
889.60 0.1373
889.70 0.1376
889.80 0.1379
889.90 0.1382
890.00 0.1385
890.10 0.1388
890.20 0.1391
890.30 0.1394
890.40 0.1397
890.50 0.14
890.60 0.1402
890.70 0.1405
890.80 0.1408
890.90 0.1411
891.00 0.1414
891.10 0.1417
891.20 0.142
891.30 0.1423
891.40 0.1426
891.50 0.1429
891.60 0.1432
891.70 0.1435
891.80 0.1438
891.90 0.1441
892.00 0.1444
892.10 0.1442
892.20 0.1441
892.30 0.144
892.40 0.1438
892.50 0.1437
892.60 0.1435
892.70 0.1434
892.80 0.1433
892.90 0.1431
893.00 0.143
893.10 0.1429
893.20 0.1427
893.30 0.1426
893.40 0.1424
893.50 0.1423
893.60 0.1422
893.70 0.142
893.80 0.1419
893.90 0.1418
894.00 0.1416
894.10 0.1415
894.20 0.1413
894.30 0.1412
894.40 0.1411
894.50 0.1409
894.60 0.1408
894.70 0.1407
894.80 0.1405
894.90 0.1404
895.00 0.1403
895.10 0.1401
895.20 0.14
895.30 0.1398
895.40 0.1397
895.50 0.1396
895.60 0.1394
895.70 0.1393
895.80 0.1392
895.90 0.139
896.00 0.1389
896.10 0.1388
896.20 0.1386
896.30 0.1385
896.40 0.1384
896.50 0.1382
896.60 0.1381
896.70 0.138
896.80 0.1378
896.90 0.1377
897.00 0.1375
897.10 0.1371
897.20 0.1366
897.30 0.1362
897.40 0.1357
897.50 0.1353
897.60 0.1348
897.70 0.1344
897.80 0.1339
897.90 0.1335
898.00 0.133
898.10 0.1325
898.20 0.1321
898.30 0.1316
898.40 0.1312
898.50 0.1307
898.60 0.1303
898.70 0.1298
898.80 0.1294
898.90 0.1289
899.00 0.1285
899.10 0.128
899.20 0.1276
899.30 0.1271
899.40 0.1267
899.50 0.1262
899.60 0.1258
899.70 0.1253
899.80 0.1249
899.90 0.1244
900.00 0.124
900.10 0.1235
900.20 0.1231
900.30 0.1226
900.40 0.1222
900.50 0.1217
900.60 0.1213
900.70 0.1208
900.80 0.1204
900.90 0.1199
901.00 0.1195
901.10 0.119
901.20 0.1186
901.30 0.1181
901.40 0.1177
901.50 0.1172
901.60 0.1168
901.70 0.1163
901.80 0.1159
901.90 0.1155
902.00 0.115
902.10 0.1154
902.20 0.1157
902.30 0.1161
902.40 0.1164
902.50 0.1168
902.60 0.1171
902.70 0.1175
902.80 0.1178
902.90 0.1182
903.00 0.1185
903.10 0.1189
903.20 0.1192
903.30 0.1196
903.40 0.1199
903.50 0.1203
903.60 0.1206
903.70 0.121
903.80 0.1213
903.90 0.1217
904.00 0.122
904.10 0.1224
904.20 0.1227
904.30 0.1231
904.40 0.1234
904.50 0.1238
904.60 0.1241
904.70 0.1245
904.80 0.1248
904.90 0.1252
905.00 0.1255
905.10 0.1259
905.20 0.1262
905.30 0.1266
905.40 0.1269
905.50 0.1273
905.60 0.1276
905.70 0.128
905.80 0.1283
905.90 0.1287
906.00 0.129
906.10 0.1294
906.20 0.1297
906.30 0.1301
906.40 0.1304
906.50 0.1308
906.60 0.1311
906.70 0.1315
906.80 0.1318
906.90 0.1321
907.00 0.1325
907.10 0.1325
907.20 0.1326
907.30 0.1326
907.40 0.1327
907.50 0.1327
907.60 0.1328
907.70 0.1328
907.80 0.1328
907.90 0.1329
908.00 0.1329
908.10 0.133
908.20 0.133
908.30 0.1331
908.40 0.1331
908.50 0.1331
908.60 0.1332
908.70 0.1332
908.80 0.1333
908.90 0.1333
909.00 0.1334
909.10 0.1334
909.20 0.1334
909.30 0.1335
909.40 0.1335
909.50 0.1336
909.60 0.1336
909.70 0.1336
909.80 0.1337
909.90 0.1337
910.00 0.1338
910.10 0.1338
910.20 0.1339
910.30 0.1339
910.40 0.1339
910.50 0.134
910.60 0.134
910.70 0.1341
910.80 0.1341
910.90 0.1342
911.00 0.1342
911.10 0.1342
911.20 0.1343
911.30 0.1343
911.40 0.1344
911.50 0.1344
911.60 0.1344
911.70 0.1345
911.80 0.1345
911.90 0.1346
912.00 0.1346
912.10 0.1344
912.20 0.1343
912.30 0.1341
912.40 0.1339
912.50 0.1338
912.60 0.1336
912.70 0.1334
912.80 0.1332
912.90 0.1331
913.00 0.1329
913.10 0.1327
913.20 0.1325
913.30 0.1324
913.40 0.1322
913.50 0.132
913.60 0.1319
913.70 0.1317
913.80 0.1315
913.90 0.1313
914.00 0.1312
914.10 0.131
914.20 0.1308
914.30 0.1307
914.40 0.1305
914.50 0.1303
914.60 0.1301
914.70 0.13
914.80 0.1298
914.90 0.1296
915.00 0.1295
915.10 0.1293
915.20 0.1291
915.30 0.1289
915.40 0.1288
915.50 0.1286
915.60 0.1284
915.70 0.1283
915.80 0.1281
915.90 0.1279
916.00 0.1277
916.10 0.1276
916.20 0.1274
916.30 0.1272
916.40 0.1271
916.50 0.1269
916.60 0.1267
916.70 0.1266
916.80 0.1264
916.90 0.1262
917.00 0.126
917.10 0.1256
917.20 0.1251
917.30 0.1246
917.40 0.1241
917.50 0.1236
917.60 0.1231
917.70 0.1226
917.80 0.1221
917.90 0.1216
918.00 0.1211
918.10 0.1206
918.20 0.1201
918.30 0.1196
918.40 0.1192
918.50 0.1187
918.60 0.1182
918.70 0.1177
918.80 0.1172
918.90 0.1167
919.00 0.1162
919.10 0.1157
919.20 0.1152
919.30 0.1147
919.40 0.1143
919.50 0.1138
919.60 0.1133
919.70 0.1128
919.80 0.1123
919.90 0.1118
920.00 0.1113
920.10 0.1108
920.20 0.1103
920.30 0.1099
920.40 0.1094
920.50 0.1089
920.60 0.1084
920.70 0.1079
920.80 0.1074
920.90 0.1069
921.00 0.1065
921.10 0.106
921.20 0.1055
921.30 0.105
921.40 0.1045
921.50 0.104
921.60 0.1035
921.70 0.1031
921.80 0.1026
921.90 0.1021
922.00 0.1016
922.10 0.1019
922.20 0.1023
922.30 0.1026
922.40 0.1029
922.50 0.1033
922.60 0.1036
922.70 0.1039
922.80 0.1042
922.90 0.1046
923.00 0.1049
923.10 0.1052
923.20 0.1055
923.30 0.1059
923.40 0.1062
923.50 0.1065
923.60 0.1068
923.70 0.1072
923.80 0.1075
923.90 0.1078
924.00 0.1082
924.10 0.1085
924.20 0.1088
924.30 0.1091
924.40 0.1095
924.50 0.1098
924.60 0.1101
924.70 0.1104
924.80 0.1108
924.90 0.1111
925.00 0.1114
925.10 0.1117
925.20 0.112
925.30 0.1124
925.40 0.1127
925.50 0.113
925.60 0.1133
925.70 0.1137
925.80 0.114
925.90 0.1143
926.00 0.1146
926.10 0.115
926.20 0.1153
926.30 0.1156
926.40 0.1159
926.50 0.1162
926.60 0.1166
926.70 0.1169
926.80 0.1172
926.90 0.1175
927.00 0.1179
927.10 0.118
927.20 0.1182
927.30 0.1183
927.40 0.1185
927.50 0.1186
927.60 0.1188
927.70 0.1189
927.80 0.1191
927.90 0.1192
928.00 0.1194
928.10 0.1195
928.20 0.1197
928.30 0.1199
928.40 0.12
928.50 0.1202
928.60 0.1203
928.70 0.1205
928.80 0.1206
928.90 0.1208
929.00 0.1209
929.10 0.1211
929.20 0.1212
929.30 0.1214
929.40 0.1215
929.50 0.1217
929.60 0.1218
929.70 0.122
929.80 0.1221
929.90 0.1223
930.00 0.1225
930.10 0.1226
930.20 0.1228
930.30 0.1229
930.40 0.1231
930.50 0.1232
930.60 0.1234
930.70 0.1235
930.80 0.1237
930.90 0.1238
931.00 0.124
931.10 0.1241
931.20 0.1243
931.30 0.1244
931.40 0.1246
931.50 0.1247
931.60 0.1249
931.70 0.125
931.80 0.1252
931.90 0.1253
932.00 0.1255
932.10 0.1255
932.20 0.1255
932.30 0.1255
932.40 0.1256
932.50 0.1256
932.60 0.1256
932.70 0.1256
932.80 0.1256
932.90 0.1257
933.00 0.1257
933.10 0.1257
933.20 0.1257
933.30 0.1257
933.40 0.1258
933.50 0.1258
933.60 0.1258
933.70 0.1258
933.80 0.1258
933.90 0.1258
934.00 0.1259
934.10 0.1259
934.20 0.1259
934.30 0.1259
934.40 0.1259
934.50 0.1259
934.60 0.1259
934.70 0.1258
934.80 0.1258
934.90 0.1258
935.00 0.1258
935.10 0.1258
935.20 0.1257
935.30 0.1257
935.40 0.1257
935.50 0.1257
935.60 0.1257
935.70 0.1257
935.80 0.1256
935.90 0.1256
936.00 0.1256
936.10 0.1256
936.20 0.1256
936.30 0.1255
936.40 0.1255
936.50 0.1255
936.60 0.1255
936.70 0.1255
936.80 0.1254
936.90 0.1254
937.00 0.1254
937.10 0.1254
937.20 0.1253
937.30 0.1253
937.40 0.1252
937.50 0.1252
937.60 0.1252
937.70 0.1251
937.80 0.1251
937.90 0.125
938.00 0.125
938.10 0.125
938.20 0.1249
938.30 0.1249
938.40 0.1248
938.50 0.1248
938.60 0.1247
938.70 0.1247
938.80 0.1246
938.90 0.1246
939.00 0.1245
939.10 0.1245
939.20 0.1244
939.30 0.1244
939.40 0.1243
939.50 0.1243
939.60 0.1242
939.70 0.1241
939.80 0.1241
939.90 0.124
940.00 0.124
940.10 0.1239
940.20 0.1239
940.30 0.1238
940.40 0.1238
940.50 0.1237
940.60 0.1236
940.70 0.1235
940.80 0.1235
940.90 0.1234
941.00 0.1233
941.10 0.1233
941.20 0.1232
941.30 0.1231
941.40 0.1231
941.50 0.123
941.60 0.1229
941.70 0.1228
941.80 0.1228
941.90 0.1227
942.00 0.1226
942.10 0.1225
942.20 0.1225
942.30 0.1224
942.40 0.1223
942.50 0.1222
942.60 0.1221
942.70 0.122
942.80 0.1219
942.90 0.1218
943.00 0.1217
943.10 0.1216
943.20 0.1215
943.30 0.1214
943.40 0.1213
943.50 0.1212
943.60 0.1211
943.70 0.121
943.80 0.1209
943.90 0.1208
944.00 0.1207
944.10 0.1206
944.20 0.1205
944.30 0.1204
944.40 0.1202
944.50 0.1201
944.60 0.12
944.70 0.1198
944.80 0.1197
944.90 0.1196
945.00 0.1195
945.10 0.1193
945.20 0.1192
945.30 0.1191
945.40 0.1189
945.50 0.1187
945.60 0.1185
945.70 0.1184
945.80 0.1182
945.90 0.118
946.00 0.1179
946.10 0.1177
946.20 0.1175
946.30 0.1173
946.40 0.1172
946.50 0.117
946.60 0.1168
946.70 0.1167
946.80 0.1165
946.90 0.1163
947.00 0.1162
947.10 0.1159
947.20 0.1157
947.30 0.1155
947.40 0.1153
947.50 0.115
947.60 0.1147
947.70 0.1144
947.80 0.1142
947.90 0.1139
948.00 0.1136
948.10 0.1134
948.20 0.1131
948.30 0.1128
948.40 0.1126
948.50 0.1123
948.60 0.112
948.70 0.1118
948.80 0.1115
948.90 0.1112
949.00 0.1109
949.10 0.1107
949.20 0.1104
949.30 0.1101
949.40 0.1097
949.50 0.1093
949.60 0.1089
949.70 0.1085
949.80 0.1081
949.90 0.1077
950.00 0.1073
950.10 0.1069
950.20 0.1065
950.30 0.1061
950.40 0.1057
950.50 0.1053
950.60 0.1049
950.70 0.1045
950.80 0.1041
950.90 0.1037
951.00 0.1033
951.10 0.1029
951.20 0.1025
951.30 0.1021
951.40 0.1016
951.50 0.1011
951.60 0.1006
951.70 0.1001
951.80 0.0996
951.90 0.0991
952.00 0.0986
952.10 0.09804
952.20 0.09749
952.30 0.09693
952.40 0.09638
952.50 0.09582
952.60 0.09527
952.70 0.09471
952.80 0.09416
952.90 0.09356
953.00 0.09296
953.10 0.09236
953.20 0.09176
953.30 0.09116
953.40 0.09056
953.50 0.08997
953.60 0.08934
953.70 0.08872
953.80 0.0881
953.90 0.08748
954.00 0.08691
954.10 0.08635
954.20 0.08608
954.30 0.08711
954.40 0.08602
954.50 0.08624
954.60 0.08675
954.70 0.08725
954.80 0.08781
954.90 0.08837
955.00 0.08893
955.10 0.08949
955.20 0.09002
955.30 0.09055
955.40 0.09109
955.50 0.09162
955.60 0.09215
955.70 0.09268
955.80 0.0932
955.90 0.09367
956.00 0.09413
956.10 0.0946
956.20 0.09506
956.30 0.09553
956.40 0.09599
956.50 0.09645
956.60 0.09692
956.70 0.09738
956.80 0.09784
956.90 0.0983
957.00 0.09877
957.10 0.09917
957.20 0.09958
957.30 0.09998
957.40 0.1003
957.50 0.1006
957.60 0.1009
957.70 0.1012
957.80 0.1016
957.90 0.1019
958.00 0.1022
958.10 0.1025
958.20 0.1028
958.30 0.1031
958.40 0.1034
958.50 0.1037
958.60 0.1041
958.70 0.1044
958.80 0.1047
958.90 0.105
959.00 0.1053
959.10 0.1056
959.20 0.1059
959.30 0.1062
959.40 0.1064
959.50 0.1066
959.60 0.1068
959.70 0.107
959.80 0.1071
959.90 0.1073
960.00 0.1075
960.10 0.1077
960.20 0.1078
960.30 0.108
960.40 0.1082
960.50 0.1084
960.60 0.1086
960.70 0.1087
960.80 0.1089
960.90 0.1091
961.00 0.1093
961.10 0.1094
961.20 0.1096
961.30 0.1098
961.40 0.1099
961.50 0.11
961.60 0.1101
961.70 0.1102
961.80 0.1103
961.90 0.1105
962.00 0.1106
962.10 0.1106
962.20 0.1107
962.30 0.1108
962.40 0.1109
962.50 0.1109
962.60 0.111
962.70 0.1111
962.80 0.1112
962.90 0.1112
963.00 0.1113
963.10 0.1114
963.20 0.1114
963.30 0.1115
963.40 0.1116
963.50 0.1116
963.60 0.1116
963.70 0.1117
963.80 0.1117
963.90 0.1118
964.00 0.1118
964.10 0.1119
964.20 0.1119
964.30 0.1119
964.40 0.112
964.50 0.112
964.60 0.112
964.70 0.112
964.80 0.112
964.90 0.112
965.00 0.112
965.10 0.1121
965.20 0.1121
965.30 0.1121
965.40 0.1121
965.50 0.1121
965.60 0.1121
965.70 0.1121
965.80 0.1122
965.90 0.1122
966.00 0.1122
966.10 0.1122
966.20 0.1122
966.30 0.1122
966.40 0.1122
966.50 0.1122
966.60 0.1122
966.70 0.1122
966.80 0.1122
966.90 0.1122
967.00 0.1122
967.10 0.1122
967.20 0.1122
967.30 0.1122
967.40 0.1122
967.50 0.1121
967.60 0.1121
967.70 0.1121
967.80 0.1121
967.90 0.1121
968.00 0.1121
968.10 0.1121
968.20 0.1121
968.30 0.1121
968.40 0.112
968.50 0.112
968.60 0.112
968.70 0.112
968.80 0.1119
968.90 0.1119
969.00 0.1119
969.10 0.1119
969.20 0.1119
969.30 0.1118
969.40 0.1118
969.50 0.1118
969.60 0.1118
969.70 0.1117
969.80 0.1117
969.90 0.1117
970.00 0.1117
970.10 0.1117
970.20 0.1116
970.30 0.1116
970.40 0.1116
970.50 0.1116
970.60 0.1115
970.70 0.1115
970.80 0.1115
970.90 0.1114
971.00 0.1114
971.10 0.1114
971.20 0.1114
971.30 0.1113
971.40 0.1113
971.50 0.1113
971.60 0.1112
971.70 0.1112
971.80 0.1112
971.90 0.1112
972.00 0.1111
972.10 0.1111
972.20 0.1111
972.30 0.111
972.40 0.111
972.50 0.111
972.60 0.1109
972.70 0.1109
972.80 0.1109
972.90 0.1108
973.00 0.1108
973.10 0.1108
973.20 0.1107
973.30 0.1107
973.40 0.1107
973.50 0.1106
973.60 0.1106
973.70 0.1105
973.80 0.1105
973.90 0.1105
974.00 0.1104
974.10 0.1104
974.20 0.1104
974.30 0.1103
974.40 0.1103
974.50 0.1103
974.60 0.1102
974.70 0.1102
974.80 0.1102
974.90 0.1101
975.00 0.1101
975.10 0.11
975.20 0.11
975.30 0.11
975.40 0.1099
975.50 0.1099
975.60 0.1099
975.70 0.1098
975.80 0.1098
975.90 0.1097
976.00 0.1097
976.10 0.1097
976.20 0.1096
976.30 0.1096
976.40 0.1096
976.50 0.1095
976.60 0.1095
976.70 0.1094
976.80 0.1094
976.90 0.1094
977.00 0.1093
977.10 0.1093
977.20 0.1093
977.30 0.1092
977.40 0.1092
977.50 0.1091
977.60 0.1091
977.70 0.109
977.80 0.109
977.90 0.109
978.00 0.1089
978.10 0.1089
978.20 0.1088
978.30 0.1088
978.40 0.1088
978.50 0.1087
978.60 0.1087
978.70 0.1086
978.80 0.1086
978.90 0.1086
979.00 0.1085
979.10 0.1085
979.20 0.1084
979.30 0.1084
979.40 0.1084
979.50 0.1083
979.60 0.1083
979.70 0.1082
979.80 0.1082
979.90 0.1082
980.00 0.1081
980.10 0.1081
980.20 0.108
980.30 0.108
980.40 0.1079
980.50 0.1079
980.60 0.1079
980.70 0.1078
980.80 0.1078
980.90 0.1077
981.00 0.1077
981.10 0.1077
981.20 0.1076
981.30 0.1076
981.40 0.1075
981.50 0.1075
981.60 0.1075
981.70 0.1074
981.80 0.1074
981.90 0.1073
982.00 0.1073
982.10 0.1073
982.20 0.1072
982.30 0.1072
982.40 0.1071
982.50 0.1071
982.60 0.107
982.70 0.107
982.80 0.107
982.90 0.1069
983.00 0.1069
983.10 0.1068
983.20 0.1068
983.30 0.1067
983.40 0.1067
983.50 0.1066
983.60 0.1066
983.70 0.1066
983.80 0.1065
983.90 0.1065
984.00 0.1064
984.10 0.1064
984.20 0.1063
984.30 0.1063
984.40 0.1062
984.50 0.1062
984.60 0.1062
984.70 0.1061
984.80 0.1061
984.90 0.106
985.00 0.106
985.10 0.1059
985.20 0.1059
985.30 0.1058
985.40 0.1058
985.50 0.1057
985.60 0.1057
985.70 0.1056
985.80 0.1056
985.90 0.1055
986.00 0.1055
986.10 0.1055
986.20 0.1054
986.30 0.1054
986.40 0.1053
986.50 0.1053
986.60 0.1052
986.70 0.1052
986.80 0.1051
986.90 0.1051
987.00 0.105
987.10 0.105
987.20 0.1049
987.30 0.1049
987.40 0.1048
987.50 0.1048
987.60 0.1047
987.70 0.1047
987.80 0.1046
987.90 0.1046
988.00 0.1045
988.10 0.1045
988.20 0.1044
988.30 0.1044
988.40 0.1043
988.50 0.1043
988.60 0.1042
988.70 0.1042
988.80 0.1041
988.90 0.104
989.00 0.104
989.10 0.1039
989.20 0.1039
989.30 0.1038
989.40 0.1037
989.50 0.1037
989.60 0.1036
989.70 0.1036
989.80 0.1035
989.90 0.1035
990.00 0.1034
990.10 0.1033
990.20 0.1033
990.30 0.1032
990.40 0.1032
990.50 0.1031
990.60 0.1031
990.70 0.103
990.80 0.1029
990.90 0.1029
991.00 0.1028
991.10 0.1027
991.20 0.1026
991.30 0.1026
991.40 0.1025
991.50 0.1024
991.60 0.1024
991.70 0.1023
991.80 0.1022
991.90 0.1022
992.00 0.1021
992.10 0.102
992.20 0.102
992.30 0.1019
992.40 0.1018
992.50 0.1017
992.60 0.1016
992.70 0.1016
992.80 0.1015
992.90 0.1014
993.00 0.1013
993.10 0.1012
993.20 0.1011
993.30 0.101
993.40 0.1009
993.50 0.1008
993.60 0.1007
993.70 0.1007
993.80 0.1006
993.90 0.1005
994.00 0.1004
994.10 0.1003
994.20 0.1002
994.30 0.1001
994.40 0.1
994.50 0.09994
994.60 0.09985
994.70 0.09974
994.80 0.09963
994.90 0.09951
995.00 0.0994
995.10 0.09928
995.20 0.09917
995.30 0.09905
995.40 0.09894
995.50 0.09882
995.60 0.09871
995.70 0.09857
995.80 0.09843
995.90 0.09829
996.00 0.09815
996.10 0.09801
996.20 0.09787
996.30 0.09773
996.40 0.09759
996.50 0.09745
996.60 0.09731
996.70 0.09717
996.80 0.09703
996.90 0.09689
997.00 0.09675
997.10 0.09657
997.20 0.0964
997.30 0.09623
997.40 0.09606
997.50 0.09588
997.60 0.09571
997.70 0.0955
997.80 0.09528
997.90 0.09505
998.00 0.09483
998.10 0.0946
998.20 0.09438
998.30 0.09416
998.40 0.09393
998.50 0.09371
998.60 0.09349
998.70 0.09327
998.80 0.09304
998.90 0.09282
999.00 0.0926
999.10 0.09237
999.20 0.09215
999.30 0.09193
999.40 0.09171
999.50 0.09149
999.60 0.09126
999.70 0.09096
999.80 0.09064
999.90 0.09031
1000.00 0.08999
1000.10 0.08966
1000.20 0.08934
1000.30 0.08901
1000.40 0.08869
1000.50 0.08836
1000.60 0.08804
1000.70 0.08772
1000.80 0.08739
1000.90 0.08707
1001.00 0.08675
1001.10 0.08642
1001.20 0.0861
1001.30 0.08577
1001.40 0.08545
1001.50 0.08513
1001.60 0.08481
1001.70 0.08443
1001.80 0.08404
1001.90 0.08365
1002.00 0.08325
1002.10 0.08281
1002.20 0.08237
1002.30 0.08193
1002.40 0.0815
1002.50 0.08106
1002.60 0.08062
1002.70 0.08018
1002.80 0.07974
1002.90 0.0793
1003.00 0.07886
1003.10 0.07842
1003.20 0.07793
1003.30 0.07742
1003.40 0.0769
1003.50 0.07639
1003.60 0.07588
1003.70 0.07536
1003.80 0.07485
1003.90 0.07424
1004.00 0.0736
1004.10 0.07296
1004.20 0.07231
1004.30 0.07149
1004.40 0.07061
1004.50 0.0697
1004.60 0.06947
1004.70 0.06931
1004.80 0.07011
1004.90 0.07095
1005.00 0.07178
1005.10 0.07243
1005.20 0.07302
1005.30 0.07361
1005.40 0.0742
1005.50 0.07469
1005.60 0.07515
1005.70 0.07561
1005.80 0.07607
1005.90 0.07653
1006.00 0.07698
1006.10 0.07744
1006.20 0.07785
1006.30 0.07823
1006.40 0.07862
1006.50 0.07901
1006.60 0.07939
1006.70 0.07978
1006.80 0.08017
1006.90 0.08055
1007.00 0.08094
1007.10 0.08127
1007.20 0.08161
1007.30 0.08194
1007.40 0.08228
1007.50 0.08261
1007.60 0.08295
1007.70 0.08322
1007.80 0.08348
1007.90 0.08373
1008.00 0.08399
1008.10 0.08424
1008.20 0.0845
1008.30 0.08475
1008.40 0.08501
1008.50 0.08526
1008.60 0.08551
1008.70 0.08577
1008.80 0.08602
1008.90 0.08628
1009.00 0.08653
1009.10 0.08678
1009.20 0.08704
1009.30 0.08729
1009.40 0.08754
1009.50 0.0878
1009.60 0.08805
1009.70 0.08822
1009.80 0.08837
1009.90 0.08852
1010.00 0.08867
1010.10 0.08882
1010.20 0.08897
1010.30 0.08912
1010.40 0.08926
1010.50 0.08941
1010.60 0.08956
1010.70 0.08971
1010.80 0.08986
1010.90 0.09001
1011.00 0.09016
1011.10 0.0903
1011.20 0.09045
1011.30 0.0906
1011.40 0.09075
1011.50 0.0909
1011.60 0.09104
1011.70 0.09115
1011.80 0.09125
1011.90 0.09135
1012.00 0.09144
1012.10 0.09151
1012.20 0.09158
1012.30 0.09166
1012.40 0.09173
1012.50 0.0918
1012.60 0.09187
1012.70 0.09194
1012.80 0.09201
1012.90 0.09208
1013.00 0.09215
1013.10 0.09222
1013.20 0.09229
1013.30 0.09236
1013.40 0.09243
1013.50 0.0925
1013.60 0.09257
1013.70 0.09262
1013.80 0.09266
1013.90 0.0927
1014.00 0.09274
1014.10 0.09278
1014.20 0.09281
1014.30 0.09285
1014.40 0.09289
1014.50 0.09293
1014.60 0.09297
1014.70 0.09299
1014.80 0.09301
1014.90 0.09302
1015.00 0.09304
1015.10 0.09305
1015.20 0.09307
1015.30 0.09308
1015.40 0.0931
1015.50 0.09311
1015.60 0.09313
1015.70 0.09314
1015.80 0.09316
1015.90 0.09318
1016.00 0.09319
1016.10 0.09321
1016.20 0.09322
1016.30 0.09324
1016.40 0.09325
1016.50 0.09327
1016.60 0.09328
1016.70 0.09329
1016.80 0.0933
1016.90 0.0933
1017.00 0.09331
1017.10 0.09331
1017.20 0.0933
1017.30 0.09329
1017.40 0.09329
1017.50 0.09328
1017.60 0.09328
1017.70 0.09327
1017.80 0.09327
1017.90 0.09326
1018.00 0.09326
1018.10 0.09325
1018.20 0.09324
1018.30 0.09324
1018.40 0.09323
1018.50 0.09323
1018.60 0.09322
1018.70 0.09321
1018.80 0.09319
1018.90 0.09318
1019.00 0.09316
1019.10 0.09315
1019.20 0.09313
1019.30 0.09312
1019.40 0.0931
1019.50 0.09308
1019.60 0.09307
1019.70 0.09305
1019.80 0.09304
1019.90 0.09302
1020.00 0.09301
1020.10 0.09299
1020.20 0.09298
1020.30 0.09296
1020.40 0.09295
1020.50 0.09293
1020.60 0.09291
1020.70 0.09289
1020.80 0.09287
1020.90 0.09285
1021.00 0.09283
1021.10 0.09281
1021.20 0.09279
1021.30 0.09277
1021.40 0.09275
1021.50 0.09272
1021.60 0.0927
1021.70 0.09268
1021.80 0.09266
1021.90 0.09264
1022.00 0.09262
1022.10 0.09259
1022.20 0.09257
1022.30 0.09254
1022.40 0.09252
1022.50 0.09249
1022.60 0.09247
1022.70 0.09244
1022.80 0.09242
1022.90 0.09239
1023.00 0.09237
1023.10 0.09234
1023.20 0.09232
1023.30 0.09229
1023.40 0.09227
1023.50 0.09225
1023.60 0.09222
1023.70 0.0922
1023.80 0.09217
1023.90 0.09215
1024.00 0.09212
1024.10 0.0921
1024.20 0.09207
1024.30 0.09205
1024.40 0.09202
1024.50 0.092
1024.60 0.09197
1024.70 0.09195
1024.80 0.09192
1024.90 0.09189
1025.00 0.09186
1025.10 0.09184
1025.20 0.09181
1025.30 0.09178
1025.40 0.09175
1025.50 0.09173
1025.60 0.0917
1025.70 0.09167
1025.80 0.09164
1025.90 0.09162
1026.00 0.09159
1026.10 0.09156
1026.20 0.09153
1026.30 0.09151
1026.40 0.09148
1026.50 0.09145
1026.60 0.09142
1026.70 0.0914
1026.80 0.09137
1026.90 0.09134
1027.00 0.09131
1027.10 0.09128
1027.20 0.09125
1027.30 0.09122
1027.40 0.09119
1027.50 0.09116
1027.60 0.09114
1027.70 0.09111
1027.80 0.09108
1027.90 0.09105
1028.00 0.09102
1028.10 0.09099
1028.20 0.09096
1028.30 0.09093
1028.40 0.0909
1028.50 0.09087
1028.60 0.09084
1028.70 0.09081
1028.80 0.09078
1028.90 0.09075
1029.00 0.09072
1029.10 0.09069
1029.20 0.09066
1029.30 0.09063
1029.40 0.0906
1029.50 0.09058
1029.60 0.09055
1029.70 0.09052
1029.80 0.09049
1029.90 0.09046
1030.00 0.09043
1030.10 0.0904
1030.20 0.09037
1030.30 0.09034
1030.40 0.09031
1030.50 0.09028
1030.60 0.09025
1030.70 0.09022
1030.80 0.09019
1030.90 0.09016
1031.00 0.09014
1031.10 0.09011
1031.20 0.09008
1031.30 0.09005
1031.40 0.09002
1031.50 0.08999
1031.60 0.08996
1031.70 0.08993
1031.80 0.0899
1031.90 0.08987
1032.00 0.08984
1032.10 0.08981
1032.20 0.08978
1032.30 0.08975
1032.40 0.08972
1032.50 0.08969
1032.60 0.08966
1032.70 0.08963
1032.80 0.0896
1032.90 0.08957
1033.00 0.08954
1033.10 0.08951
1033.20 0.08948
1033.30 0.08945
1033.40 0.08942
1033.50 0.08939
1033.60 0.08936
1033.70 0.08933
1033.80 0.0893
1033.90 0.08927
1034.00 0.08924
1034.10 0.08921
1034.20 0.08918
1034.30 0.08915
1034.40 0.08912
1034.50 0.08909
1034.60 0.08906
1034.70 0.08903
1034.80 0.08899
1034.90 0.08896
1035.00 0.08893
1035.10 0.0889
1035.20 0.08887
1035.30 0.08884
1035.40 0.08881
1035.50 0.08878
1035.60 0.08875
1035.70 0.08872
1035.80 0.08869
1035.90 0.08866
1036.00 0.08863
1036.10 0.0886
1036.20 0.08857
1036.30 0.08854
1036.40 0.08851
1036.50 0.08848
1036.60 0.08845
1036.70 0.08842
1036.80 0.08839
1036.90 0.08836
1037.00 0.08833
1037.10 0.0883
1037.20 0.08827
1037.30 0.08824
1037.40 0.08821
1037.50 0.08818
1037.60 0.08815
1037.70 0.08812
1037.80 0.08809
1037.90 0.08806
1038.00 0.08803
1038.10 0.088
1038.20 0.08797
1038.30 0.08794
1038.40 0.08791
1038.50 0.08788
1038.60 0.08785
1038.70 0.08782
1038.80 0.08779
1038.90 0.08776
1039.00 0.08772
1039.10 0.08769
1039.20 0.08766
1039.30 0.08763
1039.40 0.0876
1039.50 0.08757
1039.60 0.08754
1039.70 0.08751
1039.80 0.08748
1039.90 0.08745
1040.00 0.08742
1040.10 0.08739
1040.20 0.08736
1040.30 0.08733
1040.40 0.0873
1040.50 0.08727
1040.60 0.08724
1040.70 0.08721
1040.80 0.08718
1040.90 0.08715
1041.00 0.08712
1041.10 0.08709
1041.20 0.08706
1041.30 0.08703
1041.40 0.087
1041.50 0.08697
1041.60 0.08694
1041.70 0.08691
1041.80 0.08688
1041.90 0.08685
1042.00 0.08682
1042.10 0.08679
1042.20 0.08676
1042.30 0.08673
1042.40 0.0867
1042.50 0.08667
1042.60 0.08664
1042.70 0.08661
1042.80 0.08658
1042.90 0.08655
1043.00 0.08652
1043.10 0.08649
1043.20 0.08646
1043.30 0.08643
1043.40 0.0864
1043.50 0.08637
1043.60 0.08634
1043.70 0.08631
1043.80 0.08628
1043.90 0.08625
1044.00 0.08622
1044.10 0.08618
1044.20 0.08615
1044.30 0.08612
1044.40 0.08609
1044.50 0.08606
1044.60 0.08603
1044.70 0.086
1044.80 0.08597
1044.90 0.08594
1045.00 0.08591
1045.10 0.08588
1045.20 0.08585
1045.30 0.08582
1045.40 0.08579
1045.50 0.08576
1045.60 0.08573
1045.70 0.0857
1045.80 0.08567
1045.90 0.08564
1046.00 0.08561
1046.10 0.08559
1046.20 0.08556
1046.30 0.08553
1046.40 0.0855
1046.50 0.08547
1046.60 0.08544
1046.70 0.08541
1046.80 0.08538
1046.90 0.08535
1047.00 0.08532
1047.10 0.08529
1047.20 0.08526
1047.30 0.08523
1047.40 0.0852
1047.50 0.08517
1047.60 0.08514
1047.70 0.08511
1047.80 0.08508
1047.90 0.08505
1048.00 0.08502
1048.10 0.08499
1048.20 0.08496
1048.30 0.08493
1048.40 0.0849
1048.50 0.08487
1048.60 0.08484
1048.70 0.08481
1048.80 0.08478
1048.90 0.08475
1049.00 0.08472
1049.10 0.08469
1049.20 0.08466
1049.30 0.08463
1049.40 0.0846
1049.50 0.08457
1049.60 0.08454
1049.70 0.08451
1049.80 0.08448
1049.90 0.08445
1050.00 0.08442
1050.10 0.08439
1050.20 0.08436
1050.30 0.08433
1050.40 0.0843
1050.50 0.08427
1050.60 0.08424
1050.70 0.08421
1050.80 0.08419
1050.90 0.08416
1051.00 0.08413
1051.10 0.0841
1051.20 0.08407
1051.30 0.08404
1051.40 0.08401
1051.50 0.08398
1051.60 0.08395
1051.70 0.08392
1051.80 0.08389
1051.90 0.08386
1052.00 0.08383
1052.10 0.0838
1052.20 0.08377
1052.30 0.08374
1052.40 0.08371
1052.50 0.08368
1052.60 0.08365
1052.70 0.08362
1052.80 0.08359
1052.90 0.08356
1053.00 0.08354
1053.10 0.08351
1053.20 0.08348
1053.30 0.08345
1053.40 0.08342
1053.50 0.08339
1053.60 0.08336
1053.70 0.08333
1053.80 0.0833
1053.90 0.08327
1054.00 0.08324
1054.10 0.08321
1054.20 0.08318
1054.30 0.08315
1054.40 0.08312
1054.50 0.08309
1054.60 0.08306
1054.70 0.08303
1054.80 0.08301
1054.90 0.08298
1055.00 0.08295
1055.10 0.08292
1055.20 0.08289
1055.30 0.08286
1055.40 0.08283
1055.50 0.0828
1055.60 0.08277
1055.70 0.08274
1055.80 0.08271
1055.90 0.08268
1056.00 0.08265
1056.10 0.08262
1056.20 0.0826
1056.30 0.08257
1056.40 0.08254
1056.50 0.08251
1056.60 0.08248
1056.70 0.08245
1056.80 0.08242
1056.90 0.08239
1057.00 0.08236
1057.10 0.08233
1057.20 0.0823
1057.30 0.08227
1057.40 0.08224
1057.50 0.08221
1057.60 0.08219
1057.70 0.08216
1057.80 0.08213
1057.90 0.0821
1058.00 0.08207
1058.10 0.08204
1058.20 0.08201
1058.30 0.08198
1058.40 0.08195
1058.50 0.08192
1058.60 0.08189
1058.70 0.08186
1058.80 0.08183
1058.90 0.0818
1059.00 0.08178
1059.10 0.08175
1059.20 0.08172
1059.30 0.08169
1059.40 0.08166
1059.50 0.08163
1059.60 0.0816
1059.70 0.08157
1059.80 0.08154
1059.90 0.08151
1060.00 0.08148
1060.10 0.08145
1060.20 0.08143
1060.30 0.0814
1060.40 0.08137
1060.50 0.08134
1060.60 0.08131
1060.70 0.08128
1060.80 0.08125
1060.90 0.08122
1061.00 0.08119
1061.10 0.08116
1061.20 0.08113
1061.30 0.08111
1061.40 0.08108
1061.50 0.08105
1061.60 0.08102
1061.70 0.08099
1061.80 0.08096
1061.90 0.08093
1062.00 0.0809
1062.10 0.08087
1062.20 0.08084
1062.30 0.08081
1062.40 0.08078
1062.50 0.08075
1062.60 0.08073
1062.70 0.0807
1062.80 0.08067
1062.90 0.08064
1063.00 0.08061
1063.10 0.08058
1063.20 0.08055
1063.30 0.08052
1063.40 0.08049
1063.50 0.08046
1063.60 0.08043
1063.70 0.0804
1063.80 0.08037
1063.90 0.08034
1064.00 0.08031
1064.10 0.08028
1064.20 0.08025
1064.30 0.08023
1064.40 0.0802
1064.50 0.08017
1064.60 0.08014
1064.70 0.08011
1064.80 0.08008
1064.90 0.08005
1065.00 0.08002
1065.10 0.07999
1065.20 0.07996
1065.30 0.07993
1065.40 0.0799
1065.50 0.07987
1065.60 0.07984
1065.70 0.07982
1065.80 0.07979
1065.90 0.07976
1066.00 0.07973
1066.10 0.0797
1066.20 0.07967
1066.30 0.07964
1066.40 0.07961
1066.50 0.07958
1066.60 0.07955
1066.70 0.07952
1066.80 0.0795
1066.90 0.07947
1067.00 0.07944
1067.10 0.07941
1067.20 0.07938
1067.30 0.07935
1067.40 0.07932
1067.50 0.07929
1067.60 0.07925
1067.70 0.07922
1067.80 0.07919
1067.90 0.07916
1068.00 0.07913
1068.10 0.0791
1068.20 0.07907
1068.30 0.07904
1068.40 0.07901
1068.50 0.07898
1068.60 0.07895
1068.70 0.07892
1068.80 0.07889
1068.90 0.07886
1069.00 0.07883
1069.10 0.0788
1069.20 0.07877
1069.30 0.07874
1069.40 0.07871
1069.50 0.07868
1069.60 0.07865
1069.70 0.07862
1069.80 0.07859
1069.90 0.07856
1070.00 0.07853
1070.10 0.0785
1070.20 0.07847
1070.30 0.07844
1070.40 0.07841
1070.50 0.07838
1070.60 0.07835
1070.70 0.07832
1070.80 0.07829
1070.90 0.07826
1071.00 0.07823
1071.10 0.0782
1071.20 0.07817
1071.30 0.07814
1071.40 0.07811
1071.50 0.07808
1071.60 0.07805
1071.70 0.07802
1071.80 0.07799
1071.90 0.07796
1072.00 0.07793
1072.10 0.0779
1072.20 0.07787
1072.30 0.07783
1072.40 0.0778
1072.50 0.07777
1072.60 0.07774
1072.70 0.07771
1072.80 0.07768
1072.90 0.07764
1073.00 0.07761
1073.10 0.07758
1073.20 0.07755
1073.30 0.07752
1073.40 0.07749
1073.50 0.07745
1073.60 0.07742
1073.70 0.07739
1073.80 0.07735
1073.90 0.07732
1074.00 0.07728
1074.10 0.07725
1074.20 0.07722
1074.30 0.07718
1074.40 0.07715
1074.50 0.07711
1074.60 0.07708
1074.70 0.07705
1074.80 0.07701
1074.90 0.07698
1075.00 0.07695
1075.10 0.07691
1075.20 0.07688
1075.30 0.07684
1075.40 0.07681
1075.50 0.07678
1075.60 0.07674
1075.70 0.07671
1075.80 0.07667
1075.90 0.07664
1076.00 0.07661
1076.10 0.07657
1076.20 0.07654
1076.30 0.07651
1076.40 0.07647
1076.50 0.07644
1076.60 0.0764
1076.70 0.07637
1076.80 0.07634
1076.90 0.0763
1077.00 0.07627
1077.10 0.07623
1077.20 0.0762
1077.30 0.07616
1077.40 0.07612
1077.50 0.07609
1077.60 0.07605
1077.70 0.07601
1077.80 0.07597
1077.90 0.07593
1078.00 0.07589
1078.10 0.07585
1078.20 0.07581
1078.30 0.07577
1078.40 0.07573
1078.50 0.07569
1078.60 0.07565
1078.70 0.07561
1078.80 0.07557
1078.90 0.07553
1079.00 0.07549
1079.10 0.07545
1079.20 0.07541
1079.30 0.07537
1079.40 0.07533
1079.50 0.07529
1079.60 0.07524
1079.70 0.0752
1079.80 0.07515
1079.90 0.0751
1080.00 0.07505
1080.10 0.07501
1080.20 0.07496
1080.30 0.07491
1080.40 0.07487
1080.50 0.07482
1080.60 0.07477
1080.70 0.07473
1080.80 0.07468
1080.90 0.07463
1081.00 0.07459
1081.10 0.07454
1081.20 0.07449
1081.30 0.07445
1081.40 0.0744
1081.50 0.07435
1081.60 0.0743
1081.70 0.07425
1081.80 0.07419
1081.90 0.07414
1082.00 0.07409
1082.10 0.07403
1082.20 0.07396
1082.30 0.0739
1082.40 0.07384
1082.50 0.07378
1082.60 0.07372
1082.70 0.07366
1082.80 0.0736
1082.90 0.07353
1083.00 0.07347
1083.10 0.07341
1083.20 0.07335
1083.30 0.07329
1083.40 0.07323
1083.50 0.07316
1083.60 0.07309
1083.70 0.07301
1083.80 0.07294
1083.90 0.07286
1084.00 0.07278
1084.10 0.07271
1084.20 0.07263
1084.30 0.07256
1084.40 0.07248
1084.50 0.0724
1084.60 0.0723
1084.70 0.0722
1084.80 0.0721
1084.90 0.072
1085.00 0.07191
1085.10 0.07181
1085.20 0.07171
1085.30 0.07161
1085.40 0.07151
1085.50 0.07141
1085.60 0.07131
1085.70 0.07121
1085.80 0.07111
1085.90 0.07102
1086.00 0.07092
1086.10 0.07082
1086.20 0.07072
1086.30 0.07062
1086.40 0.07052
1086.50 0.07041
1086.60 0.07029
1086.70 0.07016
1086.80 0.07003
1086.90 0.0699
1087.00 0.06977
1087.10 0.06962
1087.20 0.06946
1087.30 0.06931
1087.40 0.06915
1087.50 0.069
1087.60 0.06884
1087.70 0.06869
1087.80 0.06853
1087.90 0.06838
1088.00 0.06822
1088.10 0.06807
1088.20 0.06791
1088.30 0.06776
1088.40 0.06761
1088.50 0.06743
1088.60 0.06721
1088.70 0.06699
1088.80 0.06678
1088.90 0.06656
1089.00 0.06634
1089.10 0.06612
1089.20 0.0659
1089.30 0.06569
1089.40 0.06547
1089.50 0.06525
1089.60 0.06503
1089.70 0.06482
1089.80 0.0646
1089.90 0.06438
1090.00 0.06416
1090.10 0.06395
1090.20 0.06373
1090.30 0.06351
1090.40 0.0633
1090.50 0.06306
1090.60 0.06276
1090.70 0.06247
1090.80 0.06218
1090.90 0.06188
1091.00 0.06159
1091.10 0.0613
1091.20 0.06101
1091.30 0.06071
1091.40 0.06042
1091.50 0.06013
1091.60 0.05984
1091.70 0.05954
1091.80 0.05925
1091.90 0.05896
1092.00 0.05865
1092.10 0.05829
1092.20 0.05792
1092.30 0.05755
1092.40 0.05718
1092.50 0.05681
1092.60 0.05645
1092.70 0.05603
1092.80 0.05552
1092.90 0.055
1093.00 0.05449
1093.10 0.05385
1093.20 0.05294
1093.30 0.05199
1093.40 0.05068
1093.50 0.05043
1093.60 0.05148
1093.70 0.05254
1093.80 0.05341
1093.90 0.05416
1094.00 0.05464
1094.10 0.05512
1094.20 0.0556
1094.30 0.05603
1094.40 0.05636
1094.50 0.05669
1094.60 0.05702
1094.70 0.05734
1094.80 0.05767
1094.90 0.058
1095.00 0.0583
1095.10 0.05855
1095.20 0.0588
1095.30 0.05905
1095.40 0.0593
1095.50 0.05955
1095.60 0.0598
1095.70 0.06005
1095.80 0.0603
1095.90 0.06055
1096.00 0.0608
1096.10 0.06105
1096.20 0.0613
1096.30 0.06155
1096.40 0.0618
1096.50 0.06203
1096.60 0.06223
1096.70 0.06243
1096.80 0.06264
1096.90 0.06284
1097.00 0.06304
1097.10 0.0632
1097.20 0.06336
1097.30 0.06351
1097.40 0.06367
1097.50 0.06383
1097.60 0.06399
1097.70 0.06415
1097.80 0.0643
1097.90 0.06446
1098.00 0.06462
1098.10 0.06478
1098.20 0.06494
1098.30 0.06509
1098.40 0.06525
1098.50 0.06539
1098.60 0.06549
1098.70 0.06558
1098.80 0.06568
1098.90 0.06578
1099.00 0.06588
1099.10 0.06597
1099.20 0.06607
1099.30 0.06617
1099.40 0.06626
1099.50 0.06636
1099.60 0.06646
1099.70 0.06655
1099.80 0.06665
1099.90 0.06675
1100.00 0.06685
1100.10 0.06694
1100.20 0.06704
1100.30 0.06714
1100.40 0.06723
1100.50 0.06731
1100.60 0.06737
1100.70 0.06742
1100.80 0.06747
1100.90 0.06752
1101.00 0.06757
1101.10 0.06762
1101.20 0.06767
1101.30 0.06772
1101.40 0.06777
1101.50 0.06782
1101.60 0.06787
1101.70 0.06792
1101.80 0.06797
1101.90 0.06802
1102.00 0.06807
1102.10 0.06811
1102.20 0.06815
1102.30 0.06819
1102.40 0.06822
1102.50 0.06826
1102.60 0.06828
1102.70 0.0683
1102.80 0.06833
1102.90 0.06835
1103.00 0.06838
1103.10 0.0684
1103.20 0.06842
1103.30 0.06845
1103.40 0.06847
1103.50 0.06849
1103.60 0.0685
1103.70 0.06851
1103.80 0.06851
1103.90 0.06852
1104.00 0.06853
1104.10 0.06854
1104.20 0.06855
1104.30 0.06855
1104.40 0.06856
1104.50 0.06857
1104.60 0.06858
1104.70 0.06859
1104.80 0.06859
1104.90 0.0686
1105.00 0.06861
1105.10 0.06862
1105.20 0.06863
1105.30 0.06863
1105.40 0.06864
1105.50 0.06865
1105.60 0.06864
1105.70 0.06864
1105.80 0.06864
1105.90 0.06864
1106.00 0.06863
1106.10 0.06863
1106.20 0.06863
1106.30 0.06863
1106.40 0.06862
1106.50 0.06862
1106.60 0.06862
1106.70 0.06861
1106.80 0.06861
1106.90 0.06861
1107.00 0.06861
1107.10 0.0686
1107.20 0.06859
1107.30 0.06858
1107.40 0.06858
1107.50 0.06857
1107.60 0.06856
1107.70 0.06855
1107.80 0.06854
1107.90 0.06852
1108.00 0.06851
1108.10 0.0685
1108.20 0.06849
1108.30 0.06848
1108.40 0.06847
1108.50 0.06846
1108.60 0.06845
1108.70 0.06844
1108.80 0.06843
1108.90 0.06842
1109.00 0.06841
1109.10 0.0684
1109.20 0.06839
1109.30 0.06837
1109.40 0.06836
1109.50 0.06835
1109.60 0.06834
1109.70 0.06832
1109.80 0.06831
1109.90 0.06829
1110.00 0.06828
1110.10 0.06826
1110.20 0.06825
1110.30 0.06823
1110.40 0.06822
1110.50 0.0682
1110.60 0.06819
1110.70 0.06817
1110.80 0.06816
1110.90 0.06814
1111.00 0.06813
1111.10 0.06811
1111.20 0.0681
1111.30 0.06808
1111.40 0.06807
1111.50 0.06805
1111.60 0.06804
1111.70 0.06802
1111.80 0.06801
1111.90 0.06799
1112.00 0.06798
1112.10 0.06796
1112.20 0.06794
1112.30 0.06792
1112.40 0.06791
1112.50 0.06789
1112.60 0.06787
1112.70 0.06786
1112.80 0.06784
1112.90 0.06782
1113.00 0.0678
1113.10 0.06779
1113.20 0.06777
1113.30 0.06775
1113.40 0.06773
1113.50 0.06772
1113.60 0.0677
1113.70 0.06768
1113.80 0.06766
1113.90 0.06764
1114.00 0.06762
1114.10 0.0676
1114.20 0.06758
1114.30 0.06756
1114.40 0.06755
1114.50 0.06753
1114.60 0.06751
1114.70 0.06749
1114.80 0.06747
1114.90 0.06745
1115.00 0.06743
1115.10 0.06741
1115.20 0.0674
1115.30 0.06738
1115.40 0.06736
1115.50 0.06734
1115.60 0.06732
1115.70 0.0673
1115.80 0.06728
1115.90 0.06726
1116.00 0.06724
1116.10 0.06723
1116.20 0.06721
1116.30 0.06719
1116.40 0.06717
1116.50 0.06715
1116.60 0.06713
1116.70 0.06711
1116.80 0.06709
1116.90 0.06708
1117.00 0.06706
1117.10 0.06704
1117.20 0.06702
1117.30 0.067
1117.40 0.06698
1117.50 0.06696
1117.60 0.06694
1117.70 0.06692
1117.80 0.0669
1117.90 0.06687
1118.00 0.06685
1118.10 0.06683
1118.20 0.06681
1118.30 0.06679
1118.40 0.06677
1118.50 0.06675
1118.60 0.06673
1118.70 0.06671
1118.80 0.06669
1118.90 0.06667
1119.00 0.06665
1119.10 0.06663
1119.20 0.06661
1119.30 0.06659
1119.40 0.06657
1119.50 0.06655
1119.60 0.06653
1119.70 0.06651
1119.80 0.06649
1119.90 0.06647
1120.00 0.06645
1120.10 0.06643
1120.20 0.06641
1120.30 0.06639
1120.40 0.06637
1120.50 0.06635
1120.60 0.06633
1120.70 0.06631
1120.80 0.06629
1120.90 0.06627
1121.00 0.06625
1121.10 0.06623
1121.20 0.06621
1121.30 0.06619
1121.40 0.06617
1121.50 0.06615
1121.60 0.06613
1121.70 0.06611
1121.80 0.06609
1121.90 0.06607
1122.00 0.06605
1122.10 0.06603
1122.20 0.06601
1122.30 0.06599
1122.40 0.06597
1122.50 0.06595
1122.60 0.06593
1122.70 0.06591
1122.80 0.06589
1122.90 0.06587
1123.00 0.06585
1123.10 0.06582
1123.20 0.0658
1123.30 0.06578
1123.40 0.06576
1123.50 0.06574
1123.60 0.06572
1123.70 0.0657
1123.80 0.06568
1123.90 0.06566
1124.00 0.06564
1124.10 0.06562
1124.20 0.0656
1124.30 0.06558
1124.40 0.06556
1124.50 0.06554
1124.60 0.06552
1124.70 0.0655
1124.80 0.06547
1124.90 0.06545
1125.00 0.06543
1125.10 0.06541
1125.20 0.06539
1125.30 0.06537
1125.40 0.06535
1125.50 0.06533
1125.60 0.06531
1125.70 0.06529
1125.80 0.06527
1125.90 0.06525
1126.00 0.06523
1126.10 0.06521
1126.20 0.06519
1126.30 0.06517
1126.40 0.06515
1126.50 0.06513
1126.60 0.06511
1126.70 0.06509
1126.80 0.06507
1126.90 0.06505
1127.00 0.06502
1127.10 0.065
1127.20 0.06498
1127.30 0.06496
1127.40 0.06494
1127.50 0.06492
1127.60 0.0649
1127.70 0.06488
1127.80 0.06486
1127.90 0.06484
1128.00 0.06482
1128.10 0.0648
1128.20 0.06478
1128.30 0.06476
1128.40 0.06474
1128.50 0.06471
1128.60 0.06469
1128.70 0.06467
1128.80 0.06465
1128.90 0.06463
1129.00 0.06461
1129.10 0.06459
1129.20 0.06457
1129.30 0.06455
1129.40 0.06453
1129.50 0.06451
1129.60 0.06449
1129.70 0.06447
1129.80 0.06445
1129.90 0.06443
1130.00 0.06441
1130.10 0.06439
1130.20 0.06437
1130.30 0.06434
1130.40 0.06432
1130.50 0.0643
1130.60 0.06428
1130.70 0.06426
1130.80 0.06424
1130.90 0.06422
1131.00 0.0642
1131.10 0.06418
1131.20 0.06416
1131.30 0.06414
1131.40 0.06412
1131.50 0.0641
1131.60 0.06408
1131.70 0.06406
1131.80 0.06404
1131.90 0.06402
1132.00 0.064
1132.10 0.06398
1132.20 0.06396
1132.30 0.06394
1132.40 0.06391
1132.50 0.06389
1132.60 0.06387
1132.70 0.06385
1132.80 0.06383
1132.90 0.06381
1133.00 0.06379
1133.10 0.06377
1133.20 0.06375
1133.30 0.06373
1133.40 0.06371
1133.50 0.06369
1133.60 0.06367
1133.70 0.06365
1133.80 0.06363
1133.90 0.06361
1134.00 0.06359
1134.10 0.06357
1134.20 0.06355
1134.30 0.06353
1134.40 0.06351
1134.50 0.06349
1134.60 0.06346
1134.70 0.06344
1134.80 0.06342
1134.90 0.0634
1135.00 0.06338
1135.10 0.06336
1135.20 0.06334
1135.30 0.06332
1135.40 0.0633
1135.50 0.06328
1135.60 0.06326
1135.70 0.06324
1135.80 0.06322
1135.90 0.0632
1136.00 0.06318
1136.10 0.06316
1136.20 0.06314
1136.30 0.06312
1136.40 0.0631
1136.50 0.06308
1136.60 0.06306
1136.70 0.06304
1136.80 0.06302
1136.90 0.063
1137.00 0.06298
1137.10 0.06296
1137.20 0.06294
1137.30 0.06292
1137.40 0.0629
1137.50 0.06288
1137.60 0.06286
1137.70 0.06284
1137.80 0.06282
1137.90 0.0628
1138.00 0.06278
1138.10 0.06276
1138.20 0.06274
1138.30 0.06272
1138.40 0.0627
1138.50 0.06268
1138.60 0.06266
1138.70 0.06263
1138.80 0.06261
1138.90 0.06259
1139.00 0.06257
1139.10 0.06255
1139.20 0.06253
1139.30 0.06251
1139.40 0.06249
1139.50 0.06247
1139.60 0.06245
1139.70 0.06243
1139.80 0.06241
1139.90 0.06239
1140.00 0.06237
1140.10 0.06235
1140.20 0.06233
1140.30 0.06231
1140.40 0.06229
1140.50 0.06227
1140.60 0.06225
1140.70 0.06223
1140.80 0.06221
1140.90 0.06219
1141.00 0.06217
1141.10 0.06215
1141.20 0.06213
1141.30 0.06211
1141.40 0.06209
1141.50 0.06207
1141.60 0.06205
1141.70 0.06203
1141.80 0.06201
1141.90 0.06199
1142.00 0.06197
1142.10 0.06195
1142.20 0.06193
1142.30 0.06191
1142.40 0.06189
1142.50 0.06187
1142.60 0.06186
1142.70 0.06184
1142.80 0.06182
1142.90 0.0618
1143.00 0.06178
1143.10 0.06176
1143.20 0.06174
1143.30 0.06172
1143.40 0.0617
1143.50 0.06168
1143.60 0.06166
1143.70 0.06164
1143.80 0.06162
1143.90 0.0616
1144.00 0.06158
1144.10 0.06156
1144.20 0.06154
1144.30 0.06152
1144.40 0.0615
1144.50 0.06148
1144.60 0.06146
1144.70 0.06144
1144.80 0.06142
1144.90 0.0614
1145.00 0.06138
1145.10 0.06136
1145.20 0.06134
1145.30 0.06132
1145.40 0.0613
1145.50 0.06128
1145.60 0.06126
1145.70 0.06124
1145.80 0.06122
1145.90 0.0612
1146.00 0.06118
1146.10 0.06116
1146.20 0.06114
1146.30 0.06112
1146.40 0.06111
1146.50 0.06109
1146.60 0.06107
1146.70 0.06105
1146.80 0.06103
1146.90 0.06101
1147.00 0.06099
1147.10 0.06097
1147.20 0.06095
1147.30 0.06093
1147.40 0.06091
1147.50 0.06089
1147.60 0.06087
1147.70 0.06085
1147.80 0.06083
1147.90 0.06081
1148.00 0.06079
1148.10 0.06077
1148.20 0.06075
1148.30 0.06073
1148.40 0.06071
1148.50 0.0607
1148.60 0.06068
1148.70 0.06066
1148.80 0.06064
1148.90 0.06062
1149.00 0.0606
1149.10 0.06058
1149.20 0.06056
1149.30 0.06054
1149.40 0.06052
1149.50 0.0605
1149.60 0.06048
1149.70 0.06046
1149.80 0.06044
1149.90 0.06042
1150.00 0.0604
1150.10 0.06038
1150.20 0.06037
1150.30 0.06035
1150.40 0.06033
1150.50 0.06031
1150.60 0.06029
1150.70 0.06027
1150.80 0.06025
1150.90 0.06023
1151.00 0.06021
1151.10 0.06019
1151.20 0.06017
1151.30 0.06015
1151.40 0.06013
1151.50 0.06011
1151.60 0.0601
1151.70 0.06008
1151.80 0.06006
1151.90 0.06004
1152.00 0.06002
1152.10 0.06
1152.20 0.05998
1152.30 0.05996
1152.40 0.05994
1152.50 0.05992
1152.60 0.0599
1152.70 0.05988
1152.80 0.05987
1152.90 0.05985
1153.00 0.05983
1153.10 0.05981
1153.20 0.05979
1153.30 0.05977
1153.40 0.05975
1153.50 0.05973
1153.60 0.05971
1153.70 0.05969
1153.80 0.05967
1153.90 0.05965
1154.00 0.05964
1154.10 0.05962
1154.20 0.0596
1154.30 0.05958
1154.40 0.05956
1154.50 0.05954
1154.60 0.05952
1154.70 0.0595
1154.80 0.05948
1154.90 0.05946
1155.00 0.05944
1155.10 0.05943
1155.20 0.05941
1155.30 0.05939
1155.40 0.05937
1155.50 0.05935
1155.60 0.05933
1155.70 0.05931
1155.80 0.05929
1155.90 0.05927
1156.00 0.05925
1156.10 0.05924
1156.20 0.05922
1156.30 0.0592
1156.40 0.05918
1156.50 0.05916
1156.60 0.05914
1156.70 0.05912
1156.80 0.0591
1156.90 0.05908
1157.00 0.05907
1157.10 0.05905
1157.20 0.05903
1157.30 0.05901
1157.40 0.05899
1157.50 0.05897
1157.60 0.05895
1157.70 0.05893
1157.80 0.05892
1157.90 0.0589
1158.00 0.05888
1158.10 0.05886
1158.20 0.05884
1158.30 0.05882
1158.40 0.0588
1158.50 0.05878
1158.60 0.05876
1158.70 0.05875
1158.80 0.05873
1158.90 0.05871
1159.00 0.05869
1159.10 0.05867
1159.20 0.05865
1159.30 0.05863
1159.40 0.05862
1159.50 0.0586
1159.60 0.05858
1159.70 0.05856
1159.80 0.05854
1159.90 0.05852
1160.00 0.0585
1160.10 0.05848
1160.20 0.05847
1160.30 0.05845
1160.40 0.05843
1160.50 0.05841
1160.60 0.05839
1160.70 0.05837
1160.80 0.05835
1160.90 0.05834
1161.00 0.05832
1161.10 0.0583
1161.20 0.05828
1161.30 0.05826
1161.40 0.05824
1161.50 0.05822
1161.60 0.05821
1161.70 0.05819
1161.80 0.05817
1161.90 0.05815
1162.00 0.05813
1162.10 0.05811
1162.20 0.05809
1162.30 0.05808
1162.40 0.05806
1162.50 0.05804
1162.60 0.05802
1162.70 0.058
1162.80 0.05798
1162.90 0.05797
1163.00 0.05795
1163.10 0.05793
1163.20 0.05791
1163.30 0.05789
1163.40 0.05787
1163.50 0.05786
1163.60 0.05784
1163.70 0.05782
1163.80 0.0578
1163.90 0.05778
1164.00 0.05776
1164.10 0.05774
1164.20 0.05773
1164.30 0.05771
1164.40 0.05769
1164.50 0.05767
1164.60 0.05765
1164.70 0.05763
1164.80 0.05762
1164.90 0.0576
1165.00 0.05758
1165.10 0.05756
1165.20 0.05754
1165.30 0.05753
1165.40 0.05751
1165.50 0.05749
1165.60 0.05747
1165.70 0.05745
1165.80 0.05743
1165.90 0.05742
1166.00 0.0574
1166.10 0.05738
1166.20 0.05736
1166.30 0.05734
1166.40 0.05732
1166.50 0.05731
1166.60 0.05729
1166.70 0.05727
1166.80 0.05725
1166.90 0.05723
1167.00 0.05722
1167.10 0.0572
1167.20 0.05718
1167.30 0.05716
1167.40 0.05714
1167.50 0.05712
1167.60 0.05711
1167.70 0.05709
1167.80 0.05707
1167.90 0.05705
1168.00 0.05703
1168.10 0.05702
1168.20 0.057
1168.30 0.05698
1168.40 0.05696
1168.50 0.05694
1168.60 0.05693
1168.70 0.05691
1168.80 0.05689
1168.90 0.05687
1169.00 0.05685
1169.10 0.05684
1169.20 0.05682
1169.30 0.0568
1169.40 0.05678
1169.50 0.05676
1169.60 0.05675
1169.70 0.05673
1169.80 0.05671
1169.90 0.05669
1170.00 0.05667
1170.10 0.05666
1170.20 0.05664
1170.30 0.05662
1170.40 0.0566
1170.50 0.05658
1170.60 0.05657
1170.70 0.05655
1170.80 0.05653
1170.90 0.05651
1171.00 0.05649
1171.10 0.05648
1171.20 0.05646
1171.30 0.05644
1171.40 0.05642
1171.50 0.05641
1171.60 0.05639
1171.70 0.05637
1171.80 0.05635
1171.90 0.05633
1172.00 0.05632
1172.10 0.0563
1172.20 0.05628
1172.30 0.05626
1172.40 0.05624
1172.50 0.05623
1172.60 0.05621
1172.70 0.05619
1172.80 0.05617
1172.90 0.05616
1173.00 0.05614
1173.10 0.05612
1173.20 0.0561
1173.30 0.05609
1173.40 0.05607
1173.50 0.05605
1173.60 0.05603
1173.70 0.05601
1173.80 0.056
1173.90 0.05598
1174.00 0.05596
1174.10 0.05594
1174.20 0.05593
1174.30 0.05591
1174.40 0.05589
1174.50 0.05587
1174.60 0.05586
1174.70 0.05584
1174.80 0.05582
1174.90 0.0558
1175.00 0.05579
1175.10 0.05577
1175.20 0.05575
1175.30 0.05573
1175.40 0.05571
1175.50 0.0557
1175.60 0.05568
1175.70 0.05566
1175.80 0.05564
1175.90 0.05563
1176.00 0.05561
1176.10 0.05559
1176.20 0.05557
1176.30 0.05556
1176.40 0.05554
1176.50 0.05552
1176.60 0.0555
1176.70 0.05549
1176.80 0.05547
1176.90 0.05545
1177.00 0.05543
1177.10 0.05542
1177.20 0.0554
1177.30 0.05538
1177.40 0.05536
1177.50 0.05535
1177.60 0.05533
1177.70 0.05531
1177.80 0.05529
1177.90 0.05528
1178.00 0.05526
1178.10 0.05524
1178.20 0.05523
1178.30 0.05521
1178.40 0.05519
1178.50 0.05517
1178.60 0.05516
1178.70 0.05514
1178.80 0.05512
1178.90 0.0551
1179.00 0.05509
1179.10 0.05507
1179.20 0.05505
1179.30 0.05503
1179.40 0.05502
1179.50 0.055
1179.60 0.05498
1179.70 0.05497
1179.80 0.05495
1179.90 0.05493
1180.00 0.05491
1180.10 0.0549
1180.20 0.05488
1180.30 0.05486
1180.40 0.05484
1180.50 0.05483
1180.60 0.05481
1180.70 0.05479
1180.80 0.05478
1180.90 0.05476
1181.00 0.05474
1181.10 0.05472
1181.20 0.05471
1181.30 0.05469
1181.40 0.05467
1181.50 0.05465
1181.60 0.05464
1181.70 0.05462
1181.80 0.0546
1181.90 0.05459
1182.00 0.05457
1182.10 0.05455
1182.20 0.05453
1182.30 0.05452
1182.40 0.0545
1182.50 0.05448
1182.60 0.05447
1182.70 0.05445
1182.80 0.05443
1182.90 0.05441
1183.00 0.0544
1183.10 0.05438
1183.20 0.05436
1183.30 0.05435
1183.40 0.05433
1183.50 0.05431
1183.60 0.0543
1183.70 0.05428
1183.80 0.05426
1183.90 0.05424
1184.00 0.05423
1184.10 0.05421
1184.20 0.05419
1184.30 0.05418
1184.40 0.05416
1184.50 0.05414
1184.60 0.05413
1184.70 0.05411
1184.80 0.05409
1184.90 0.05407
1185.00 0.05406
1185.10 0.05404
1185.20 0.05402
1185.30 0.05401
1185.40 0.05399
1185.50 0.05397
1185.60 0.05396
1185.70 0.05394
1185.80 0.05392
1185.90 0.05391
1186.00 0.05389
1186.10 0.05387
1186.20 0.05385
1186.30 0.05384
1186.40 0.05382
1186.50 0.0538
1186.60 0.05379
1186.70 0.05377
1186.80 0.05375
1186.90 0.05374
1187.00 0.05372
1187.10 0.0537
1187.20 0.05369
1187.30 0.05367
1187.40 0.05365
1187.50 0.05364
1187.60 0.05362
1187.70 0.0536
1187.80 0.05359
1187.90 0.05357
1188.00 0.05355
1188.10 0.05354
1188.20 0.05352
1188.30 0.0535
1188.40 0.05349
1188.50 0.05347
1188.60 0.05345
1188.70 0.05344
1188.80 0.05342
1188.90 0.0534
1189.00 0.05339
1189.10 0.05337
1189.20 0.05335
1189.30 0.05334
1189.40 0.05332
1189.50 0.0533
1189.60 0.05329
1189.70 0.05327
1189.80 0.05325
1189.90 0.05324
1190.00 0.05322
1190.10 0.0532
1190.20 0.05319
1190.30 0.05317
1190.40 0.05315
1190.50 0.05314
1190.60 0.05312
1190.70 0.0531
1190.80 0.05309
1190.90 0.05307
1191.00 0.05305
1191.10 0.05304
1191.20 0.05302
1191.30 0.053
1191.40 0.05299
1191.50 0.05297
1191.60 0.05295
1191.70 0.05294
1191.80 0.05292
1191.90 0.0529
1192.00 0.05289
1192.10 0.05287
1192.20 0.05285
1192.30 0.05284
1192.40 0.05282
1192.50 0.05281
1192.60 0.05279
1192.70 0.05277
1192.80 0.05276
1192.90 0.05274
1193.00 0.05272
1193.10 0.05271
1193.20 0.05269
1193.30 0.05267
1193.40 0.05266
1193.50 0.05264
1193.60 0.05263
1193.70 0.05261
1193.80 0.05259
1193.90 0.05258
1194.00 0.05256
1194.10 0.05254
1194.20 0.05253
1194.30 0.05251
1194.40 0.05249
1194.50 0.05248
1194.60 0.05246
1194.70 0.05245
1194.80 0.05243
1194.90 0.05241
1195.00 0.0524
1195.10 0.05238
1195.20 0.05236
1195.30 0.05235
1195.40 0.05233
1195.50 0.05232
1195.60 0.0523
1195.70 0.05228
1195.80 0.05227
1195.90 0.05225
1196.00 0.05223
1196.10 0.05222
1196.20 0.0522
1196.30 0.05219
1196.40 0.05217
1196.50 0.05215
1196.60 0.05214
1196.70 0.05212
1196.80 0.0521
1196.90 0.05209
1197.00 0.05207
1197.10 0.05206
1197.20 0.05204
1197.30 0.05202
1197.40 0.05201
1197.50 0.05199
1197.60 0.05197
1197.70 0.05196
1197.80 0.05194
1197.90 0.05193
1198.00 0.05191
1198.10 0.05189
1198.20 0.05188
1198.30 0.05186
1198.40 0.05185
1198.50 0.05183
1198.60 0.05181
1198.70 0.0518
1198.80 0.05178
1198.90 0.05177
1199.00 0.05175
1199.10 0.05173
1199.20 0.05172
1199.30 0.0517
1199.40 0.05168
1199.50 0.05167
1199.60 0.05165
1199.70 0.05164
1199.80 0.05162
1199.90 0.0516
1200.00 0
