# Version 2.1 - nm, norm@500 to 1, cut digits, bergeron_12000_75.dat_12000
# Wavelength(nm)  Flambda(ergs/cm^s/s/nm)
300.00 1.675
300.10 1.674
300.20 1.673
300.30 1.672
300.40 1.671
300.50 1.67
300.60 1.669
300.70 1.668
300.80 1.667
300.90 1.666
301.00 1.665
301.10 1.664
301.20 1.663
301.30 1.662
301.40 1.661
301.50 1.66
301.60 1.659
301.70 1.658
301.80 1.657
301.90 1.655
302.00 1.654
302.10 1.653
302.20 1.652
302.30 1.651
302.40 1.65
302.50 1.649
302.60 1.648
302.70 1.647
302.80 1.646
302.90 1.645
303.00 1.644
303.10 1.643
303.20 1.642
303.30 1.641
303.40 1.64
303.50 1.639
303.60 1.638
303.70 1.637
303.80 1.636
303.90 1.635
304.00 1.634
304.10 1.633
304.20 1.632
304.30 1.631
304.40 1.63
304.50 1.629
304.60 1.628
304.70 1.627
304.80 1.626
304.90 1.625
305.00 1.624
305.10 1.623
305.20 1.622
305.30 1.621
305.40 1.62
305.50 1.619
305.60 1.618
305.70 1.617
305.80 1.616
305.90 1.615
306.00 1.614
306.10 1.613
306.20 1.612
306.30 1.611
306.40 1.61
306.50 1.609
306.60 1.608
306.70 1.607
306.80 1.606
306.90 1.605
307.00 1.604
307.10 1.603
307.20 1.602
307.30 1.601
307.40 1.6
307.50 1.599
307.60 1.598
307.70 1.597
307.80 1.597
307.90 1.596
308.00 1.595
308.10 1.594
308.20 1.593
308.30 1.592
308.40 1.591
308.50 1.59
308.60 1.589
308.70 1.588
308.80 1.587
308.90 1.586
309.00 1.585
309.10 1.584
309.20 1.583
309.30 1.582
309.40 1.581
309.50 1.58
309.60 1.579
309.70 1.578
309.80 1.577
309.90 1.576
310.00 1.575
310.10 1.574
310.20 1.573
310.30 1.572
310.40 1.571
310.50 1.57
310.60 1.569
310.70 1.569
310.80 1.568
310.90 1.567
311.00 1.566
311.10 1.565
311.20 1.564
311.30 1.563
311.40 1.562
311.50 1.561
311.60 1.56
311.70 1.559
311.80 1.558
311.90 1.557
312.00 1.556
312.10 1.555
312.20 1.554
312.30 1.553
312.40 1.552
312.50 1.551
312.60 1.551
312.70 1.55
312.80 1.549
312.90 1.548
313.00 1.547
313.10 1.546
313.20 1.545
313.30 1.544
313.40 1.543
313.50 1.542
313.60 1.541
313.70 1.54
313.80 1.539
313.90 1.538
314.00 1.537
314.10 1.537
314.20 1.536
314.30 1.535
314.40 1.534
314.50 1.533
314.60 1.532
314.70 1.531
314.80 1.53
314.90 1.529
315.00 1.528
315.10 1.527
315.20 1.526
315.30 1.525
315.40 1.524
315.50 1.524
315.60 1.523
315.70 1.522
315.80 1.521
315.90 1.52
316.00 1.519
316.10 1.518
316.20 1.517
316.30 1.516
316.40 1.515
316.50 1.514
316.60 1.513
316.70 1.513
316.80 1.512
316.90 1.511
317.00 1.51
317.10 1.509
317.20 1.508
317.30 1.507
317.40 1.506
317.50 1.505
317.60 1.504
317.70 1.504
317.80 1.503
317.90 1.502
318.00 1.501
318.10 1.5
318.20 1.499
318.30 1.498
318.40 1.497
318.50 1.496
318.60 1.495
318.70 1.495
318.80 1.494
318.90 1.493
319.00 1.492
319.10 1.491
319.20 1.49
319.30 1.489
319.40 1.488
319.50 1.487
319.60 1.486
319.70 1.486
319.80 1.485
319.90 1.484
320.00 1.483
320.10 1.482
320.20 1.481
320.30 1.48
320.40 1.479
320.50 1.478
320.60 1.478
320.70 1.477
320.80 1.476
320.90 1.475
321.00 1.474
321.10 1.473
321.20 1.472
321.30 1.471
321.40 1.471
321.50 1.47
321.60 1.469
321.70 1.468
321.80 1.467
321.90 1.466
322.00 1.465
322.10 1.464
322.20 1.464
322.30 1.463
322.40 1.462
322.50 1.461
322.60 1.46
322.70 1.459
322.80 1.458
322.90 1.457
323.00 1.457
323.10 1.456
323.20 1.455
323.30 1.454
323.40 1.453
323.50 1.452
323.60 1.451
323.70 1.451
323.80 1.45
323.90 1.449
324.00 1.448
324.10 1.447
324.20 1.446
324.30 1.445
324.40 1.445
324.50 1.444
324.60 1.443
324.70 1.442
324.80 1.441
324.90 1.44
325.00 1.439
325.10 1.439
325.20 1.438
325.30 1.437
325.40 1.436
325.50 1.435
325.60 1.434
325.70 1.433
325.80 1.433
325.90 1.432
326.00 1.431
326.10 1.43
326.20 1.429
326.30 1.428
326.40 1.427
326.50 1.427
326.60 1.426
326.70 1.425
326.80 1.424
326.90 1.423
327.00 1.422
327.10 1.422
327.20 1.421
327.30 1.42
327.40 1.419
327.50 1.418
327.60 1.417
327.70 1.417
327.80 1.416
327.90 1.415
328.00 1.414
328.10 1.413
328.20 1.412
328.30 1.412
328.40 1.411
328.50 1.41
328.60 1.409
328.70 1.408
328.80 1.407
328.90 1.407
329.00 1.406
329.10 1.405
329.20 1.404
329.30 1.403
329.40 1.402
329.50 1.402
329.60 1.401
329.70 1.4
329.80 1.399
329.90 1.398
330.00 1.397
330.10 1.397
330.20 1.396
330.30 1.395
330.40 1.394
330.50 1.393
330.60 1.393
330.70 1.392
330.80 1.391
330.90 1.39
331.00 1.389
331.10 1.388
331.20 1.388
331.30 1.387
331.40 1.386
331.50 1.385
331.60 1.384
331.70 1.384
331.80 1.383
331.90 1.382
332.00 1.381
332.10 1.38
332.20 1.379
332.30 1.379
332.40 1.378
332.50 1.377
332.60 1.376
332.70 1.375
332.80 1.375
332.90 1.374
333.00 1.373
333.10 1.372
333.20 1.371
333.30 1.371
333.40 1.37
333.50 1.369
333.60 1.368
333.70 1.367
333.80 1.367
333.90 1.366
334.00 1.365
334.10 1.364
334.20 1.363
334.30 1.363
334.40 1.362
334.50 1.361
334.60 1.36
334.70 1.359
334.80 1.359
334.90 1.358
335.00 1.357
335.10 1.356
335.20 1.355
335.30 1.355
335.40 1.354
335.50 1.353
335.60 1.352
335.70 1.352
335.80 1.351
335.90 1.35
336.00 1.349
336.10 1.348
336.20 1.348
336.30 1.347
336.40 1.346
336.50 1.345
336.60 1.344
336.70 1.344
336.80 1.343
336.90 1.342
337.00 1.341
337.10 1.341
337.20 1.34
337.30 1.339
337.40 1.338
337.50 1.337
337.60 1.337
337.70 1.336
337.80 1.335
337.90 1.334
338.00 1.334
338.10 1.333
338.20 1.332
338.30 1.331
338.40 1.33
338.50 1.33
338.60 1.329
338.70 1.328
338.80 1.327
338.90 1.327
339.00 1.326
339.10 1.325
339.20 1.324
339.30 1.324
339.40 1.323
339.50 1.322
339.60 1.321
339.70 1.32
339.80 1.32
339.90 1.319
340.00 1.318
340.10 1.317
340.20 1.317
340.30 1.316
340.40 1.315
340.50 1.314
340.60 1.314
340.70 1.313
340.80 1.312
340.90 1.311
341.00 1.311
341.10 1.31
341.20 1.309
341.30 1.308
341.40 1.308
341.50 1.307
341.60 1.306
341.70 1.305
341.80 1.305
341.90 1.304
342.00 1.303
342.10 1.302
342.20 1.302
342.30 1.301
342.40 1.3
342.50 1.299
342.60 1.299
342.70 1.298
342.80 1.297
342.90 1.296
343.00 1.296
343.10 1.295
343.20 1.294
343.30 1.293
343.40 1.293
343.50 1.292
343.60 1.291
343.70 1.29
343.80 1.29
343.90 1.289
344.00 1.288
344.10 1.287
344.20 1.287
344.30 1.286
344.40 1.285
344.50 1.284
344.60 1.284
344.70 1.283
344.80 1.282
344.90 1.281
345.00 1.281
345.10 1.28
345.20 1.279
345.30 1.279
345.40 1.278
345.50 1.277
345.60 1.276
345.70 1.276
345.80 1.275
345.90 1.274
346.00 1.273
346.10 1.273
346.20 1.272
346.30 1.271
346.40 1.27
346.50 1.27
346.60 1.269
346.70 1.268
346.80 1.268
346.90 1.267
347.00 1.266
347.10 1.265
347.20 1.265
347.30 1.264
347.40 1.263
347.50 1.263
347.60 1.262
347.70 1.261
347.80 1.26
347.90 1.26
348.00 1.259
348.10 1.258
348.20 1.257
348.30 1.257
348.40 1.256
348.50 1.255
348.60 1.255
348.70 1.254
348.80 1.253
348.90 1.252
349.00 1.252
349.10 1.251
349.20 1.25
349.30 1.25
349.40 1.249
349.50 1.248
349.60 1.247
349.70 1.247
349.80 1.246
349.90 1.245
350.00 1.245
350.10 1.244
350.20 1.243
350.30 1.242
350.40 1.242
350.50 1.241
350.60 1.24
350.70 1.24
350.80 1.239
350.90 1.238
351.00 1.238
351.10 1.237
351.20 1.236
351.30 1.235
351.40 1.235
351.50 1.234
351.60 1.233
351.70 1.233
351.80 1.232
351.90 1.231
352.00 1.231
352.10 1.23
352.20 1.229
352.30 1.228
352.40 1.228
352.50 1.227
352.60 1.226
352.70 1.226
352.80 1.225
352.90 1.224
353.00 1.224
353.10 1.223
353.20 1.222
353.30 1.222
353.40 1.221
353.50 1.22
353.60 1.219
353.70 1.219
353.80 1.218
353.90 1.217
354.00 1.217
354.10 1.216
354.20 1.215
354.30 1.215
354.40 1.214
354.50 1.213
354.60 1.213
354.70 1.212
354.80 1.211
354.90 1.21
355.00 1.21
355.10 1.209
355.20 1.208
355.30 1.208
355.40 1.207
355.50 1.206
355.60 1.206
355.70 1.205
355.80 1.204
355.90 1.204
356.00 1.203
356.10 1.202
356.20 1.202
356.30 1.201
356.40 1.2
356.50 1.2
356.60 1.199
356.70 1.198
356.80 1.198
356.90 1.197
357.00 1.196
357.10 1.196
357.20 1.195
357.30 1.194
357.40 1.194
357.50 1.193
357.60 1.192
357.70 1.192
357.80 1.191
357.90 1.19
358.00 1.19
358.10 1.189
358.20 1.188
358.30 1.188
358.40 1.187
358.50 1.186
358.60 1.186
358.70 1.185
358.80 1.184
358.90 1.184
359.00 1.183
359.10 1.182
359.20 1.182
359.30 1.181
359.40 1.18
359.50 1.18
359.60 1.179
359.70 1.178
359.80 1.178
359.90 1.177
360.00 1.176
360.10 1.176
360.20 1.175
360.30 1.174
360.40 1.174
360.50 1.173
360.60 1.172
360.70 1.172
360.80 1.171
360.90 1.17
361.00 1.17
361.10 1.169
361.20 1.168
361.30 1.168
361.40 1.167
361.50 1.166
361.60 1.166
361.70 1.165
361.80 1.164
361.90 1.164
362.00 1.163
362.10 1.162
362.20 1.162
362.30 1.161
362.40 1.161
362.50 1.16
362.60 1.159
362.70 1.159
362.80 1.158
362.90 1.157
363.00 1.157
363.10 1.156
363.20 1.155
363.30 1.155
363.40 1.154
363.50 1.153
363.60 1.152
363.70 1.152
363.80 1.151
363.90 1.15
364.00 1.15
364.10 1.149
364.20 1.148
364.30 1.148
364.40 1.147
364.50 1.146
364.60 1.145
364.70 1.145
364.80 1.144
364.90 1.143
365.00 1.143
365.10 1.142
365.20 1.141
365.30 1.141
365.40 1.14
365.50 1.139
365.60 1.139
365.70 1.138
365.80 1.137
365.90 1.136
366.00 1.136
366.10 1.135
366.20 1.135
366.30 1.134
366.40 1.133
366.50 1.133
366.60 1.132
366.70 1.131
366.80 1.131
366.90 1.13
367.00 1.13
367.10 1.129
367.20 1.128
367.30 1.128
367.40 1.127
367.50 1.126
367.60 1.126
367.70 1.125
367.80 1.125
367.90 1.124
368.00 1.123
368.10 1.123
368.20 1.123
368.30 1.123
368.40 1.123
368.50 1.122
368.60 1.122
368.70 1.122
368.80 1.122
368.90 1.122
369.00 1.121
369.10 1.121
369.20 1.121
369.30 1.121
369.40 1.121
369.50 1.12
369.60 1.12
369.70 1.12
369.80 1.12
369.90 1.12
370.00 1.119
370.10 1.12
370.20 1.121
370.30 1.122
370.40 1.123
370.50 1.124
370.60 1.125
370.70 1.126
370.80 1.126
370.90 1.127
371.00 1.128
371.10 1.129
371.20 1.13
371.30 1.131
371.40 1.132
371.50 1.133
371.60 1.133
371.70 1.134
371.80 1.135
371.90 1.136
372.00 1.137
372.10 1.139
372.20 1.141
372.30 1.143
372.40 1.145
372.50 1.147
372.60 1.149
372.70 1.151
372.80 1.153
372.90 1.155
373.00 1.157
373.10 1.159
373.20 1.162
373.30 1.164
373.40 1.166
373.50 1.168
373.60 1.17
373.70 1.172
373.80 1.174
373.90 1.176
374.00 1.178
374.10 1.18
374.20 1.183
374.30 1.185
374.40 1.187
374.50 1.19
374.60 1.192
374.70 1.195
374.80 1.197
374.90 1.199
375.00 1.202
375.10 1.204
375.20 1.206
375.30 1.209
375.40 1.211
375.50 1.214
375.60 1.216
375.70 1.218
375.80 1.221
375.90 1.223
376.00 1.225
376.10 1.227
376.20 1.228
376.30 1.229
376.40 1.23
376.50 1.232
376.60 1.233
376.70 1.234
376.80 1.235
376.90 1.236
377.00 1.238
377.10 1.236
377.20 1.234
377.30 1.232
377.40 1.231
377.50 1.229
377.60 1.227
377.70 1.225
377.80 1.224
377.90 1.222
378.00 1.22
378.10 1.209
378.20 1.198
378.30 1.186
378.40 1.175
378.50 1.164
378.60 1.153
378.70 1.142
378.80 1.131
378.90 1.12
379.00 1.108
379.10 1.099
379.20 1.09
379.30 1.081
379.40 1.072
379.50 1.062
379.60 1.053
379.70 1.044
379.80 1.035
379.90 1.026
380.00 1.017
380.10 1.031
380.20 1.046
380.30 1.06
380.40 1.075
380.50 1.09
380.60 1.104
380.70 1.119
380.80 1.133
380.90 1.148
381.00 1.162
381.10 1.167
381.20 1.173
381.30 1.178
381.40 1.183
381.50 1.188
381.60 1.188
381.70 1.186
381.80 1.182
381.90 1.177
382.00 1.169
382.10 1.159
382.20 1.147
382.30 1.124
382.40 1.101
382.50 1.078
382.60 1.054
382.70 1.031
382.80 1.008
382.90 0.9848
383.00 0.9616
383.10 0.9385
383.20 0.9154
383.30 0.8934
383.40 0.8682
383.50 0.8419
383.60 0.8473
383.70 0.874
383.80 0.8993
383.90 0.9214
384.00 0.9462
384.10 0.9748
384.20 1.004
384.30 1.033
384.40 1.062
384.50 1.089
384.60 1.114
384.70 1.136
384.80 1.155
384.90 1.172
385.00 1.187
385.10 1.2
385.20 1.211
385.30 1.221
385.40 1.228
385.50 1.235
385.60 1.24
385.70 1.244
385.80 1.247
385.90 1.249
386.00 1.249
386.10 1.248
386.20 1.247
386.30 1.244
386.40 1.24
386.50 1.235
386.60 1.229
386.70 1.221
386.80 1.213
386.90 1.203
387.00 1.192
387.10 1.181
387.20 1.167
387.30 1.152
387.40 1.136
387.50 1.117
387.60 1.097
387.70 1.075
387.80 1.049
387.90 1.021
388.00 0.9914
388.10 0.9577
388.20 0.9226
388.30 0.8863
388.40 0.849
388.50 0.814
388.60 0.7814
388.70 0.7501
388.80 0.7195
388.90 0.6894
389.00 0.717
389.10 0.7464
389.20 0.7775
389.30 0.8096
389.40 0.8443
389.50 0.8814
389.60 0.9182
389.70 0.9538
389.80 0.9883
389.90 1.02
390.00 1.049
390.10 1.076
390.20 1.1
390.30 1.122
390.40 1.144
390.50 1.162
390.60 1.18
390.70 1.197
390.80 1.213
390.90 1.228
391.00 1.242
391.10 1.255
391.20 1.267
391.30 1.279
391.40 1.29
391.50 1.3
391.60 1.309
391.70 1.317
391.80 1.325
391.90 1.332
392.00 1.338
392.10 1.344
392.20 1.349
392.30 1.352
392.40 1.356
392.50 1.358
392.60 1.36
392.70 1.361
392.80 1.361
392.90 1.36
393.00 1.358
393.10 1.356
393.20 1.353
393.30 1.349
393.40 1.344
393.50 1.339
393.60 1.332
393.70 1.325
393.80 1.317
393.90 1.308
394.00 1.299
394.10 1.288
394.20 1.277
394.30 1.265
394.40 1.252
394.50 1.239
394.60 1.224
394.70 1.209
394.80 1.193
394.90 1.177
395.00 1.159
395.10 1.141
395.20 1.123
395.30 1.103
395.40 1.082
395.50 1.061
395.60 1.038
395.70 1.015
395.80 0.9902
395.90 0.9635
396.00 0.9356
396.10 0.9064
396.20 0.8743
396.30 0.8407
396.40 0.8054
396.50 0.7681
396.60 0.7317
396.70 0.6964
396.80 0.6614
396.90 0.6201
397.00 0.5725
397.10 0.6163
397.20 0.6556
397.30 0.6906
397.40 0.7252
397.50 0.7608
397.60 0.7976
397.70 0.8325
397.80 0.8659
397.90 0.8976
398.00 0.9264
398.10 0.9541
398.20 0.9804
398.30 1.005
398.40 1.028
398.50 1.051
398.60 1.072
398.70 1.092
398.80 1.112
398.90 1.131
399.00 1.15
399.10 1.168
399.20 1.185
399.30 1.202
399.40 1.218
399.50 1.234
399.60 1.249
399.70 1.264
399.80 1.278
399.90 1.292
400.00 1.305
400.10 1.318
400.20 1.33
400.30 1.342
400.40 1.353
400.50 1.364
400.60 1.374
400.70 1.384
400.80 1.393
400.90 1.402
401.00 1.41
401.10 1.418
401.20 1.426
401.30 1.433
401.40 1.44
401.50 1.446
401.60 1.452
401.70 1.458
401.80 1.463
401.90 1.468
402.00 1.472
402.10 1.476
402.20 1.48
402.30 1.484
402.40 1.487
402.50 1.489
402.60 1.492
402.70 1.494
402.80 1.496
402.90 1.497
403.00 1.498
403.10 1.499
403.20 1.499
403.30 1.499
403.40 1.499
403.50 1.498
403.60 1.497
403.70 1.496
403.80 1.495
403.90 1.493
404.00 1.49
404.10 1.488
404.20 1.485
404.30 1.482
404.40 1.478
404.50 1.474
404.60 1.47
404.70 1.466
404.80 1.461
404.90 1.455
405.00 1.45
405.10 1.444
405.20 1.438
405.30 1.431
405.40 1.424
405.50 1.416
405.60 1.409
405.70 1.401
405.80 1.392
405.90 1.383
406.00 1.374
406.10 1.364
406.20 1.354
406.30 1.343
406.40 1.332
406.50 1.321
406.60 1.309
406.70 1.297
406.80 1.284
406.90 1.271
407.00 1.257
407.10 1.243
407.20 1.228
407.30 1.213
407.40 1.197
407.50 1.181
407.60 1.164
407.70 1.147
407.80 1.13
407.90 1.112
408.00 1.093
408.10 1.074
408.20 1.055
408.30 1.035
408.40 1.015
408.50 0.9945
408.60 0.9736
408.70 0.9525
408.80 0.9306
408.90 0.9083
409.00 0.8856
409.10 0.8619
409.20 0.8374
409.30 0.8123
409.40 0.7849
409.50 0.7562
409.60 0.7262
409.70 0.6941
409.80 0.6618
409.90 0.6293
410.00 0.5906
410.10 0.5493
410.20 0.5056
410.30 0.5648
410.40 0.6115
410.50 0.6457
410.60 0.6777
410.70 0.7091
410.80 0.74
410.90 0.7684
411.00 0.7954
411.10 0.8211
411.20 0.8449
411.30 0.868
411.40 0.8905
411.50 0.9119
411.60 0.933
411.70 0.9536
411.80 0.9735
411.90 0.9932
412.00 1.012
412.10 1.031
412.20 1.05
412.30 1.068
412.40 1.085
412.50 1.102
412.60 1.119
412.70 1.135
412.80 1.151
412.90 1.167
413.00 1.181
413.10 1.196
413.20 1.21
413.30 1.223
413.40 1.236
413.50 1.249
413.60 1.261
413.70 1.273
413.80 1.284
413.90 1.295
414.00 1.306
414.10 1.316
414.20 1.326
414.30 1.335
414.40 1.345
414.50 1.354
414.60 1.362
414.70 1.371
414.80 1.379
414.90 1.387
415.00 1.394
415.10 1.402
415.20 1.409
415.30 1.415
415.40 1.422
415.50 1.428
415.60 1.434
415.70 1.44
415.80 1.446
415.90 1.451
416.00 1.457
416.10 1.462
416.20 1.467
416.30 1.471
416.40 1.476
416.50 1.48
416.60 1.484
416.70 1.488
416.80 1.492
416.90 1.496
417.00 1.499
417.10 1.503
417.20 1.506
417.30 1.509
417.40 1.512
417.50 1.515
417.60 1.518
417.70 1.52
417.80 1.523
417.90 1.525
418.00 1.527
418.10 1.529
418.20 1.531
418.30 1.533
418.40 1.535
418.50 1.537
418.60 1.538
418.70 1.54
418.80 1.541
418.90 1.543
419.00 1.544
419.10 1.545
419.20 1.546
419.30 1.547
419.40 1.548
419.50 1.549
419.60 1.549
419.70 1.55
419.80 1.55
419.90 1.551
420.00 1.551
420.10 1.552
420.20 1.552
420.30 1.552
420.40 1.552
420.50 1.552
420.60 1.552
420.70 1.552
420.80 1.552
420.90 1.552
421.00 1.551
421.10 1.551
421.20 1.55
421.30 1.55
421.40 1.549
421.50 1.549
421.60 1.548
421.70 1.547
421.80 1.547
421.90 1.546
422.00 1.545
422.10 1.544
422.20 1.543
422.30 1.542
422.40 1.54
422.50 1.539
422.60 1.538
422.70 1.537
422.80 1.535
422.90 1.534
423.00 1.532
423.10 1.531
423.20 1.529
423.30 1.527
423.40 1.525
423.50 1.523
423.60 1.522
423.70 1.52
423.80 1.518
423.90 1.515
424.00 1.513
424.10 1.511
424.20 1.509
424.30 1.506
424.40 1.504
424.50 1.501
424.60 1.499
424.70 1.496
424.80 1.494
424.90 1.491
425.00 1.488
425.10 1.485
425.20 1.482
425.30 1.479
425.40 1.476
425.50 1.472
425.60 1.469
425.70 1.465
425.80 1.462
425.90 1.458
426.00 1.455
426.10 1.451
426.20 1.446
426.30 1.442
426.40 1.438
426.50 1.433
426.60 1.429
426.70 1.425
426.80 1.42
426.90 1.415
427.00 1.411
427.10 1.406
427.20 1.401
427.30 1.396
427.40 1.39
427.50 1.385
427.60 1.379
427.70 1.374
427.80 1.368
427.90 1.362
428.00 1.356
428.10 1.35
428.20 1.343
428.30 1.337
428.40 1.33
428.50 1.323
428.60 1.316
428.70 1.309
428.80 1.302
428.90 1.294
429.00 1.286
429.10 1.278
429.20 1.27
429.30 1.262
429.40 1.253
429.50 1.244
429.60 1.235
429.70 1.226
429.80 1.216
429.90 1.207
430.00 1.197
430.10 1.187
430.20 1.176
430.30 1.165
430.40 1.154
430.50 1.143
430.60 1.132
430.70 1.12
430.80 1.108
430.90 1.096
431.00 1.083
431.10 1.071
431.20 1.058
431.30 1.044
431.40 1.031
431.50 1.017
431.60 1.003
431.70 0.9887
431.80 0.9739
431.90 0.9584
432.00 0.9426
432.10 0.9264
432.20 0.9092
432.30 0.8915
432.40 0.8733
432.50 0.8537
432.60 0.8335
432.70 0.8127
432.80 0.7915
432.90 0.7705
433.00 0.7499
433.10 0.7304
433.20 0.7107
433.30 0.691
433.40 0.6691
433.50 0.6458
433.60 0.621
433.70 0.5934
433.80 0.5626
433.90 0.5288
434.00 0.4523
434.10 0.4533
434.20 0.5318
434.30 0.5645
434.40 0.5943
434.50 0.6213
434.60 0.6454
434.70 0.668
434.80 0.6891
434.90 0.7082
435.00 0.7271
435.10 0.7459
435.20 0.7658
435.30 0.786
435.40 0.8063
435.50 0.8261
435.60 0.8452
435.70 0.8636
435.80 0.8808
435.90 0.8973
436.00 0.9132
436.10 0.9283
436.20 0.9429
436.30 0.9571
436.40 0.9706
436.50 0.9838
436.60 0.9966
436.70 1.009
436.80 1.021
436.90 1.033
437.00 1.044
437.10 1.055
437.20 1.067
437.30 1.077
437.40 1.088
437.50 1.098
437.60 1.108
437.70 1.117
437.80 1.127
437.90 1.136
438.00 1.145
438.10 1.153
438.20 1.162
438.30 1.17
438.40 1.177
438.50 1.185
438.60 1.192
438.70 1.199
438.80 1.206
438.90 1.213
439.00 1.219
439.10 1.226
439.20 1.232
439.30 1.238
439.40 1.243
439.50 1.249
439.60 1.254
439.70 1.259
439.80 1.264
439.90 1.269
440.00 1.273
440.10 1.278
440.20 1.282
440.30 1.287
440.40 1.291
440.50 1.295
440.60 1.298
440.70 1.302
440.80 1.306
440.90 1.309
441.00 1.312
441.10 1.316
441.20 1.319
441.30 1.322
441.40 1.325
441.50 1.327
441.60 1.33
441.70 1.333
441.80 1.335
441.90 1.337
442.00 1.34
442.10 1.342
442.20 1.344
442.30 1.346
442.40 1.348
442.50 1.35
442.60 1.352
442.70 1.354
442.80 1.355
442.90 1.357
443.00 1.358
443.10 1.36
443.20 1.361
443.30 1.363
443.40 1.364
443.50 1.365
443.60 1.367
443.70 1.368
443.80 1.369
443.90 1.37
444.00 1.371
444.10 1.372
444.20 1.373
444.30 1.374
444.40 1.374
444.50 1.375
444.60 1.376
444.70 1.377
444.80 1.377
444.90 1.378
445.00 1.378
445.10 1.379
445.20 1.379
445.30 1.38
445.40 1.38
445.50 1.381
445.60 1.381
445.70 1.381
445.80 1.382
445.90 1.382
446.00 1.382
446.10 1.383
446.20 1.383
446.30 1.383
446.40 1.383
446.50 1.383
446.60 1.383
446.70 1.383
446.80 1.383
446.90 1.383
447.00 1.383
447.10 1.383
447.20 1.383
447.30 1.383
447.40 1.383
447.50 1.383
447.60 1.383
447.70 1.383
447.80 1.383
447.90 1.383
448.00 1.382
448.10 1.382
448.20 1.382
448.30 1.382
448.40 1.381
448.50 1.381
448.60 1.381
448.70 1.381
448.80 1.38
448.90 1.38
449.00 1.38
449.10 1.38
449.20 1.379
449.30 1.379
449.40 1.379
449.50 1.378
449.60 1.378
449.70 1.377
449.80 1.377
449.90 1.376
450.00 1.376
450.10 1.376
450.20 1.375
450.30 1.375
450.40 1.374
450.50 1.374
450.60 1.373
450.70 1.373
450.80 1.372
450.90 1.372
451.00 1.371
451.10 1.371
451.20 1.37
451.30 1.369
451.40 1.369
451.50 1.368
451.60 1.368
451.70 1.367
451.80 1.367
451.90 1.366
452.00 1.365
452.10 1.365
452.20 1.364
452.30 1.363
452.40 1.363
452.50 1.362
452.60 1.361
452.70 1.361
452.80 1.36
452.90 1.36
453.00 1.359
453.10 1.358
453.20 1.358
453.30 1.357
453.40 1.356
453.50 1.356
453.60 1.355
453.70 1.354
453.80 1.353
453.90 1.353
454.00 1.352
454.10 1.351
454.20 1.351
454.30 1.35
454.40 1.349
454.50 1.348
454.60 1.348
454.70 1.347
454.80 1.346
454.90 1.345
455.00 1.345
455.10 1.344
455.20 1.343
455.30 1.342
455.40 1.342
455.50 1.341
455.60 1.34
455.70 1.339
455.80 1.339
455.90 1.338
456.00 1.337
456.10 1.336
456.20 1.336
456.30 1.335
456.40 1.334
456.50 1.333
456.60 1.332
456.70 1.332
456.80 1.331
456.90 1.33
457.00 1.329
457.10 1.329
457.20 1.328
457.30 1.327
457.40 1.326
457.50 1.326
457.60 1.325
457.70 1.324
457.80 1.323
457.90 1.322
458.00 1.321
458.10 1.321
458.20 1.32
458.30 1.319
458.40 1.318
458.50 1.317
458.60 1.316
458.70 1.316
458.80 1.315
458.90 1.314
459.00 1.313
459.10 1.312
459.20 1.311
459.30 1.311
459.40 1.31
459.50 1.309
459.60 1.308
459.70 1.307
459.80 1.306
459.90 1.305
460.00 1.305
460.10 1.304
460.20 1.303
460.30 1.302
460.40 1.301
460.50 1.3
460.60 1.299
460.70 1.298
460.80 1.298
460.90 1.297
461.00 1.296
461.10 1.295
461.20 1.294
461.30 1.293
461.40 1.292
461.50 1.291
461.60 1.29
461.70 1.289
461.80 1.289
461.90 1.288
462.00 1.287
462.10 1.286
462.20 1.285
462.30 1.284
462.40 1.283
462.50 1.282
462.60 1.281
462.70 1.28
462.80 1.279
462.90 1.278
463.00 1.278
463.10 1.277
463.20 1.276
463.30 1.275
463.40 1.274
463.50 1.273
463.60 1.272
463.70 1.271
463.80 1.27
463.90 1.269
464.00 1.268
464.10 1.267
464.20 1.266
464.30 1.265
464.40 1.264
464.50 1.263
464.60 1.262
464.70 1.261
464.80 1.26
464.90 1.259
465.00 1.258
465.10 1.257
465.20 1.256
465.30 1.255
465.40 1.254
465.50 1.253
465.60 1.252
465.70 1.251
465.80 1.25
465.90 1.249
466.00 1.248
466.10 1.247
466.20 1.246
466.30 1.245
466.40 1.244
466.50 1.243
466.60 1.242
466.70 1.241
466.80 1.24
466.90 1.239
467.00 1.238
467.10 1.237
467.20 1.236
467.30 1.235
467.40 1.234
467.50 1.233
467.60 1.231
467.70 1.23
467.80 1.229
467.90 1.228
468.00 1.227
468.10 1.226
468.20 1.225
468.30 1.224
468.40 1.223
468.50 1.221
468.60 1.22
468.70 1.219
468.80 1.218
468.90 1.217
469.00 1.216
469.10 1.215
469.20 1.213
469.30 1.212
469.40 1.211
469.50 1.21
469.60 1.209
469.70 1.207
469.80 1.206
469.90 1.205
470.00 1.204
470.10 1.203
470.20 1.201
470.30 1.2
470.40 1.199
470.50 1.198
470.60 1.196
470.70 1.195
470.80 1.194
470.90 1.193
471.00 1.191
471.10 1.19
471.20 1.189
471.30 1.187
471.40 1.186
471.50 1.185
471.60 1.183
471.70 1.182
471.80 1.18
471.90 1.179
472.00 1.178
472.10 1.176
472.20 1.175
472.30 1.173
472.40 1.172
472.50 1.17
472.60 1.169
472.70 1.167
472.80 1.166
472.90 1.164
473.00 1.163
473.10 1.161
473.20 1.159
473.30 1.158
473.40 1.156
473.50 1.154
473.60 1.153
473.70 1.151
473.80 1.149
473.90 1.148
474.00 1.146
474.10 1.144
474.20 1.143
474.30 1.141
474.40 1.139
474.50 1.137
474.60 1.135
474.70 1.133
474.80 1.131
474.90 1.129
475.00 1.127
475.10 1.126
475.20 1.124
475.30 1.121
475.40 1.119
475.50 1.117
475.60 1.115
475.70 1.113
475.80 1.111
475.90 1.109
476.00 1.106
476.10 1.104
476.20 1.102
476.30 1.1
476.40 1.097
476.50 1.095
476.60 1.092
476.70 1.09
476.80 1.087
476.90 1.085
477.00 1.082
477.10 1.08
477.20 1.077
477.30 1.074
477.40 1.071
477.50 1.069
477.60 1.066
477.70 1.063
477.80 1.06
477.90 1.057
478.00 1.054
478.10 1.051
478.20 1.048
478.30 1.045
478.40 1.041
478.50 1.038
478.60 1.035
478.70 1.031
478.80 1.028
478.90 1.024
479.00 1.021
479.10 1.017
479.20 1.014
479.30 1.01
479.40 1.005
479.50 1.001
479.60 0.9972
479.70 0.9931
479.80 0.989
479.90 0.985
480.00 0.9809
480.10 0.9768
480.20 0.9721
480.30 0.9671
480.40 0.9621
480.50 0.9571
480.60 0.9521
480.70 0.9471
480.80 0.9421
480.90 0.9372
481.00 0.9322
481.10 0.9272
481.20 0.9214
481.30 0.9152
481.40 0.909
481.50 0.9028
481.60 0.8966
481.70 0.8905
481.80 0.8843
481.90 0.8781
482.00 0.8719
482.10 0.8658
482.20 0.8585
482.30 0.8508
482.40 0.8431
482.50 0.8354
482.60 0.8277
482.70 0.82
482.80 0.8123
482.90 0.8046
483.00 0.7969
483.10 0.7893
483.20 0.7803
483.30 0.7706
483.40 0.761
483.50 0.7513
483.60 0.7417
483.70 0.7321
483.80 0.7225
483.90 0.7128
484.00 0.7032
484.10 0.6937
484.20 0.6831
484.30 0.6721
484.40 0.661
484.50 0.65
484.60 0.639
484.70 0.6275
484.80 0.6157
484.90 0.604
485.00 0.5922
485.10 0.5804
485.20 0.5684
485.30 0.5562
485.40 0.5433
485.50 0.5301
485.60 0.5156
485.70 0.5006
485.80 0.4821
485.90 0.462
486.00 0.4338
486.10 0.3502
486.20 0.3916
486.30 0.4453
486.40 0.4678
486.50 0.4877
486.60 0.5041
486.70 0.5187
486.80 0.532
486.90 0.5448
487.00 0.5568
487.10 0.5685
487.20 0.5798
487.30 0.591
487.40 0.6021
487.50 0.6133
487.60 0.6244
487.70 0.635
487.80 0.6453
487.90 0.6555
488.00 0.6658
488.10 0.676
488.20 0.6853
488.30 0.694
488.40 0.7027
488.50 0.7114
488.60 0.7201
488.70 0.7288
488.80 0.7375
488.90 0.7462
489.00 0.7549
489.10 0.7636
489.20 0.7708
489.30 0.7774
489.40 0.784
489.50 0.7907
489.60 0.7972
489.70 0.8038
489.80 0.8104
489.90 0.817
490.00 0.8236
490.10 0.8302
490.20 0.8356
490.30 0.8406
490.40 0.8455
490.50 0.8505
490.60 0.8554
490.70 0.8604
490.80 0.8653
490.90 0.8702
491.00 0.8752
491.10 0.8801
491.20 0.8842
491.30 0.8878
491.40 0.8915
491.50 0.8951
491.60 0.8988
491.70 0.9024
491.80 0.9061
491.90 0.9097
492.00 0.9133
492.10 0.917
492.20 0.92
492.30 0.9226
492.40 0.9253
492.50 0.928
492.60 0.9307
492.70 0.9334
492.80 0.9361
492.90 0.9388
493.00 0.9414
493.10 0.9441
493.20 0.9463
493.30 0.9483
493.40 0.9503
493.50 0.9523
493.60 0.9542
493.70 0.9562
493.80 0.9582
493.90 0.9601
494.00 0.9621
494.10 0.9641
494.20 0.9657
494.30 0.967
494.40 0.9684
494.50 0.9698
494.60 0.9712
494.70 0.9726
494.80 0.974
494.90 0.9754
495.00 0.9767
495.10 0.9781
495.20 0.9792
495.30 0.9802
495.40 0.9811
495.50 0.9821
495.60 0.983
495.70 0.984
495.80 0.9849
495.90 0.9859
496.00 0.9868
496.10 0.9878
496.20 0.9885
496.30 0.9891
496.40 0.9898
496.50 0.9904
496.60 0.991
496.70 0.9916
496.80 0.9923
496.90 0.9929
497.00 0.9935
497.10 0.9941
497.20 0.9946
497.30 0.995
497.40 0.9953
497.50 0.9957
497.60 0.9961
497.70 0.9965
497.80 0.9968
497.90 0.9972
498.00 0.9976
498.10 0.998
498.20 0.9982
498.30 0.9984
498.40 0.9985
498.50 0.9987
498.60 0.9989
498.70 0.9991
498.80 0.9992
498.90 0.9994
499.00 0.9996
499.10 0.9998
499.20 0.9998
499.30 0.9999
499.40 0.9999
499.50 0.9999
499.60 0.9999
499.70 0.9999
499.80 1
499.90 1
500.00 1
500.10 1
500.20 1
500.30 0.9999
500.40 0.9998
500.50 0.9997
500.60 0.9996
500.70 0.9995
500.80 0.9994
500.90 0.9993
501.00 0.9992
501.10 0.9991
501.20 0.9989
501.30 0.9987
501.40 0.9985
501.50 0.9984
501.60 0.9982
501.70 0.998
501.80 0.9978
501.90 0.9976
502.00 0.9974
502.10 0.9972
502.20 0.997
502.30 0.9967
502.40 0.9965
502.50 0.9962
502.60 0.996
502.70 0.9957
502.80 0.9955
502.90 0.9952
503.00 0.9949
503.10 0.9947
503.20 0.9944
503.30 0.9941
503.40 0.9938
503.50 0.9935
503.60 0.9931
503.70 0.9928
503.80 0.9925
503.90 0.9922
504.00 0.9919
504.10 0.9916
504.20 0.9912
504.30 0.9909
504.40 0.9905
504.50 0.9901
504.60 0.9898
504.70 0.9894
504.80 0.9891
504.90 0.9887
505.00 0.9884
505.10 0.988
505.20 0.9876
505.30 0.9872
505.40 0.9868
505.50 0.9864
505.60 0.986
505.70 0.9856
505.80 0.9853
505.90 0.9849
506.00 0.9845
506.10 0.9841
506.20 0.9837
506.30 0.9832
506.40 0.9828
506.50 0.9824
506.60 0.982
506.70 0.9815
506.80 0.9811
506.90 0.9807
507.00 0.9803
507.10 0.9799
507.20 0.9794
507.30 0.979
507.40 0.9785
507.50 0.9781
507.60 0.9776
507.70 0.9772
507.80 0.9768
507.90 0.9763
508.00 0.9759
508.10 0.9754
508.20 0.975
508.30 0.9745
508.40 0.974
508.50 0.9736
508.60 0.9731
508.70 0.9727
508.80 0.9722
508.90 0.9717
509.00 0.9713
509.10 0.9708
509.20 0.9703
509.30 0.9699
509.40 0.9694
509.50 0.9689
509.60 0.9684
509.70 0.968
509.80 0.9675
509.90 0.967
510.00 0.9665
510.10 0.966
510.20 0.9656
510.30 0.9651
510.40 0.9646
510.50 0.9641
510.60 0.9636
510.70 0.9631
510.80 0.9626
510.90 0.9622
511.00 0.9617
511.10 0.9612
511.20 0.9607
511.30 0.9602
511.40 0.9597
511.50 0.9592
511.60 0.9587
511.70 0.9582
511.80 0.9577
511.90 0.9572
512.00 0.9567
512.10 0.9562
512.20 0.9557
512.30 0.9552
512.40 0.9547
512.50 0.9542
512.60 0.9537
512.70 0.9532
512.80 0.9527
512.90 0.9522
513.00 0.9517
513.10 0.9512
513.20 0.9507
513.30 0.9502
513.40 0.9497
513.50 0.9492
513.60 0.9487
513.70 0.9482
513.80 0.9477
513.90 0.9472
514.00 0.9467
514.10 0.9462
514.20 0.9457
514.30 0.9451
514.40 0.9446
514.50 0.9441
514.60 0.9436
514.70 0.9431
514.80 0.9426
514.90 0.9421
515.00 0.9416
515.10 0.9411
515.20 0.9406
515.30 0.9401
515.40 0.9395
515.50 0.939
515.60 0.9385
515.70 0.938
515.80 0.9375
515.90 0.937
516.00 0.9365
516.10 0.936
516.20 0.9355
516.30 0.9349
516.40 0.9344
516.50 0.9339
516.60 0.9334
516.70 0.9329
516.80 0.9324
516.90 0.9319
517.00 0.9314
517.10 0.9308
517.20 0.9303
517.30 0.9298
517.40 0.9293
517.50 0.9288
517.60 0.9283
517.70 0.9278
517.80 0.9273
517.90 0.9267
518.00 0.9262
518.10 0.9257
518.20 0.9252
518.30 0.9247
518.40 0.9242
518.50 0.9237
518.60 0.9231
518.70 0.9226
518.80 0.9221
518.90 0.9216
519.00 0.9211
519.10 0.9206
519.20 0.9201
519.30 0.9196
519.40 0.919
519.50 0.9185
519.60 0.918
519.70 0.9175
519.80 0.917
519.90 0.9165
520.00 0.916
520.10 0.9155
520.20 0.915
520.30 0.9144
520.40 0.9139
520.50 0.9134
520.60 0.9129
520.70 0.9124
520.80 0.9119
520.90 0.9114
521.00 0.9109
521.10 0.9103
521.20 0.9098
521.30 0.9093
521.40 0.9088
521.50 0.9083
521.60 0.9078
521.70 0.9073
521.80 0.9068
521.90 0.9063
522.00 0.9057
522.10 0.9052
522.20 0.9047
522.30 0.9042
522.40 0.9037
522.50 0.9032
522.60 0.9027
522.70 0.9022
522.80 0.9017
522.90 0.9012
523.00 0.9007
523.10 0.9001
523.20 0.8996
523.30 0.8991
523.40 0.8986
523.50 0.8981
523.60 0.8976
523.70 0.8971
523.80 0.8966
523.90 0.8961
524.00 0.8956
524.10 0.8951
524.20 0.8946
524.30 0.8941
524.40 0.8935
524.50 0.893
524.60 0.8925
524.70 0.892
524.80 0.8915
524.90 0.891
525.00 0.8905
525.10 0.89
525.20 0.8895
525.30 0.889
525.40 0.8885
525.50 0.888
525.60 0.8875
525.70 0.887
525.80 0.8865
525.90 0.886
526.00 0.8855
526.10 0.885
526.20 0.8845
526.30 0.884
526.40 0.8835
526.50 0.883
526.60 0.8825
526.70 0.882
526.80 0.8815
526.90 0.881
527.00 0.8805
527.10 0.88
527.20 0.8795
527.30 0.879
527.40 0.8785
527.50 0.878
527.60 0.8775
527.70 0.877
527.80 0.8765
527.90 0.876
528.00 0.8755
528.10 0.875
528.20 0.8745
528.30 0.874
528.40 0.8735
528.50 0.873
528.60 0.8725
528.70 0.872
528.80 0.8715
528.90 0.871
529.00 0.8705
529.10 0.87
529.20 0.8695
529.30 0.869
529.40 0.8685
529.50 0.868
529.60 0.8675
529.70 0.867
529.80 0.8665
529.90 0.866
530.00 0.8655
530.10 0.8651
530.20 0.8646
530.30 0.8641
530.40 0.8636
530.50 0.8631
530.60 0.8626
530.70 0.8621
530.80 0.8616
530.90 0.8611
531.00 0.8606
531.10 0.8601
531.20 0.8597
531.30 0.8592
531.40 0.8587
531.50 0.8582
531.60 0.8577
531.70 0.8572
531.80 0.8567
531.90 0.8562
532.00 0.8557
532.10 0.8553
532.20 0.8548
532.30 0.8543
532.40 0.8538
532.50 0.8533
532.60 0.8528
532.70 0.8523
532.80 0.8518
532.90 0.8514
533.00 0.8509
533.10 0.8504
533.20 0.8499
533.30 0.8494
533.40 0.8489
533.50 0.8485
533.60 0.848
533.70 0.8475
533.80 0.847
533.90 0.8465
534.00 0.846
534.10 0.8456
534.20 0.8451
534.30 0.8446
534.40 0.8441
534.50 0.8436
534.60 0.8432
534.70 0.8427
534.80 0.8422
534.90 0.8417
535.00 0.8412
535.10 0.8408
535.20 0.8403
535.30 0.8398
535.40 0.8393
535.50 0.8389
535.60 0.8384
535.70 0.8379
535.80 0.8374
535.90 0.8369
536.00 0.8365
536.10 0.836
536.20 0.8355
536.30 0.835
536.40 0.8346
536.50 0.8341
536.60 0.8336
536.70 0.8331
536.80 0.8327
536.90 0.8322
537.00 0.8317
537.10 0.8313
537.20 0.8308
537.30 0.8303
537.40 0.8298
537.50 0.8294
537.60 0.8289
537.70 0.8284
537.80 0.828
537.90 0.8275
538.00 0.827
538.10 0.8265
538.20 0.8261
538.30 0.8256
538.40 0.8251
538.50 0.8247
538.60 0.8242
538.70 0.8237
538.80 0.8233
538.90 0.8228
539.00 0.8223
539.10 0.8219
539.20 0.8214
539.30 0.8209
539.40 0.8205
539.50 0.82
539.60 0.8195
539.70 0.8191
539.80 0.8186
539.90 0.8181
540.00 0.8177
540.10 0.8172
540.20 0.8167
540.30 0.8163
540.40 0.8158
540.50 0.8154
540.60 0.8149
540.70 0.8144
540.80 0.814
540.90 0.8135
541.00 0.8131
541.10 0.8126
541.20 0.8121
541.30 0.8117
541.40 0.8112
541.50 0.8108
541.60 0.8103
541.70 0.8098
541.80 0.8094
541.90 0.8089
542.00 0.8085
542.10 0.808
542.20 0.8075
542.30 0.8071
542.40 0.8066
542.50 0.8062
542.60 0.8057
542.70 0.8053
542.80 0.8048
542.90 0.8043
543.00 0.8039
543.10 0.8034
543.20 0.803
543.30 0.8025
543.40 0.8021
543.50 0.8016
543.60 0.8012
543.70 0.8007
543.80 0.8003
543.90 0.7998
544.00 0.7994
544.10 0.7989
544.20 0.7985
544.30 0.798
544.40 0.7976
544.50 0.7971
544.60 0.7967
544.70 0.7962
544.80 0.7958
544.90 0.7953
545.00 0.7949
545.10 0.7944
545.20 0.794
545.30 0.7935
545.40 0.7931
545.50 0.7926
545.60 0.7922
545.70 0.7917
545.80 0.7913
545.90 0.7908
546.00 0.7904
546.10 0.7899
546.20 0.7895
546.30 0.7891
546.40 0.7887
546.50 0.7883
546.60 0.7879
546.70 0.7875
546.80 0.7872
546.90 0.7868
547.00 0.7864
547.10 0.786
547.20 0.7855
547.30 0.7851
547.40 0.7847
547.50 0.7842
547.60 0.7838
547.70 0.7833
547.80 0.7829
547.90 0.7824
548.00 0.782
548.10 0.7816
548.20 0.7811
548.30 0.7807
548.40 0.7802
548.50 0.7798
548.60 0.7793
548.70 0.7789
548.80 0.7785
548.90 0.778
549.00 0.7776
549.10 0.7772
549.20 0.7767
549.30 0.7763
549.40 0.7758
549.50 0.7754
549.60 0.775
549.70 0.7745
549.80 0.7741
549.90 0.7736
550.00 0.7732
550.10 0.7728
550.20 0.7723
550.30 0.7719
550.40 0.7715
550.50 0.771
550.60 0.7706
550.70 0.7702
550.80 0.7697
550.90 0.7693
551.00 0.7689
551.10 0.7684
551.20 0.768
551.30 0.7676
551.40 0.7671
551.50 0.7667
551.60 0.7663
551.70 0.7658
551.80 0.7654
551.90 0.765
552.00 0.7645
552.10 0.7641
552.20 0.7637
552.30 0.7632
552.40 0.7628
552.50 0.7624
552.60 0.762
552.70 0.7615
552.80 0.7611
552.90 0.7607
553.00 0.7603
553.10 0.7598
553.20 0.7594
553.30 0.759
553.40 0.7585
553.50 0.7581
553.60 0.7577
553.70 0.7573
553.80 0.7568
553.90 0.7564
554.00 0.756
554.10 0.7556
554.20 0.7551
554.30 0.7547
554.40 0.7543
554.50 0.7539
554.60 0.7535
554.70 0.753
554.80 0.7526
554.90 0.7522
555.00 0.7518
555.10 0.7513
555.20 0.7509
555.30 0.7505
555.40 0.7501
555.50 0.7497
555.60 0.7492
555.70 0.7488
555.80 0.7484
555.90 0.748
556.00 0.7476
556.10 0.7471
556.20 0.7467
556.30 0.7463
556.40 0.7459
556.50 0.7455
556.60 0.7451
556.70 0.7446
556.80 0.7442
556.90 0.7438
557.00 0.7434
557.10 0.743
557.20 0.7426
557.30 0.7422
557.40 0.7417
557.50 0.7413
557.60 0.7409
557.70 0.7405
557.80 0.7401
557.90 0.7397
558.00 0.7392
558.10 0.7388
558.20 0.7384
558.30 0.738
558.40 0.7376
558.50 0.7372
558.60 0.7368
558.70 0.7364
558.80 0.736
558.90 0.7356
559.00 0.7351
559.10 0.7347
559.20 0.7343
559.30 0.7339
559.40 0.7335
559.50 0.7331
559.60 0.7327
559.70 0.7323
559.80 0.7319
559.90 0.7315
560.00 0.7311
560.10 0.7306
560.20 0.7302
560.30 0.7298
560.40 0.7294
560.50 0.729
560.60 0.7286
560.70 0.7282
560.80 0.7278
560.90 0.7274
561.00 0.727
561.10 0.7266
561.20 0.7262
561.30 0.7258
561.40 0.7254
561.50 0.725
561.60 0.7246
561.70 0.7242
561.80 0.7238
561.90 0.7234
562.00 0.723
562.10 0.7226
562.20 0.7222
562.30 0.7218
562.40 0.7214
562.50 0.721
562.60 0.7206
562.70 0.7202
562.80 0.7198
562.90 0.7194
563.00 0.719
563.10 0.7186
563.20 0.7182
563.30 0.7178
563.40 0.7174
563.50 0.717
563.60 0.7166
563.70 0.7162
563.80 0.7158
563.90 0.7154
564.00 0.715
564.10 0.7146
564.20 0.7142
564.30 0.7138
564.40 0.7134
564.50 0.713
564.60 0.7126
564.70 0.7122
564.80 0.7118
564.90 0.7114
565.00 0.7111
565.10 0.7107
565.20 0.7103
565.30 0.7099
565.40 0.7095
565.50 0.7091
565.60 0.7087
565.70 0.7083
565.80 0.7079
565.90 0.7075
566.00 0.7071
566.10 0.7068
566.20 0.7064
566.30 0.706
566.40 0.7056
566.50 0.7052
566.60 0.7048
566.70 0.7044
566.80 0.704
566.90 0.7036
567.00 0.7032
567.10 0.7029
567.20 0.7025
567.30 0.7021
567.40 0.7017
567.50 0.7013
567.60 0.7009
567.70 0.7005
567.80 0.7002
567.90 0.6998
568.00 0.6994
568.10 0.699
568.20 0.6986
568.30 0.6982
568.40 0.6978
568.50 0.6975
568.60 0.6971
568.70 0.6967
568.80 0.6963
568.90 0.6959
569.00 0.6955
569.10 0.6952
569.20 0.6948
569.30 0.6944
569.40 0.694
569.50 0.6936
569.60 0.6933
569.70 0.6929
569.80 0.6925
569.90 0.6921
570.00 0.6917
570.10 0.6914
570.20 0.691
570.30 0.6906
570.40 0.6902
570.50 0.6898
570.60 0.6895
570.70 0.6891
570.80 0.6887
570.90 0.6883
571.00 0.6879
571.10 0.6876
571.20 0.6872
571.30 0.6868
571.40 0.6864
571.50 0.6861
571.60 0.6857
571.70 0.6853
571.80 0.6849
571.90 0.6846
572.00 0.6842
572.10 0.6838
572.20 0.6834
572.30 0.6831
572.40 0.6827
572.50 0.6823
572.60 0.6819
572.70 0.6816
572.80 0.6812
572.90 0.6808
573.00 0.6805
573.10 0.6801
573.20 0.6797
573.30 0.6793
573.40 0.679
573.50 0.6786
573.60 0.6782
573.70 0.6779
573.80 0.6775
573.90 0.6771
574.00 0.6767
574.10 0.6764
574.20 0.676
574.30 0.6756
574.40 0.6753
574.50 0.6749
574.60 0.6745
574.70 0.6742
574.80 0.6738
574.90 0.6734
575.00 0.6731
575.10 0.6727
575.20 0.6723
575.30 0.672
575.40 0.6716
575.50 0.6712
575.60 0.6709
575.70 0.6705
575.80 0.6701
575.90 0.6698
576.00 0.6694
576.10 0.669
576.20 0.6687
576.30 0.6683
576.40 0.6679
576.50 0.6676
576.60 0.6672
576.70 0.6669
576.80 0.6665
576.90 0.6661
577.00 0.6658
577.10 0.6654
577.20 0.665
577.30 0.6647
577.40 0.6643
577.50 0.664
577.60 0.6636
577.70 0.6632
577.80 0.6629
577.90 0.6625
578.00 0.6622
578.10 0.6618
578.20 0.6614
578.30 0.6611
578.40 0.6607
578.50 0.6604
578.60 0.66
578.70 0.6596
578.80 0.6593
578.90 0.6589
579.00 0.6586
579.10 0.6582
579.20 0.6579
579.30 0.6575
579.40 0.6571
579.50 0.6568
579.60 0.6564
579.70 0.6561
579.80 0.6557
579.90 0.6554
580.00 0.655
580.10 0.6547
580.20 0.6543
580.30 0.6539
580.40 0.6536
580.50 0.6532
580.60 0.6529
580.70 0.6525
580.80 0.6522
580.90 0.6518
581.00 0.6515
581.10 0.6511
581.20 0.6508
581.30 0.6504
581.40 0.6501
581.50 0.6497
581.60 0.6494
581.70 0.649
581.80 0.6487
581.90 0.6483
582.00 0.648
582.10 0.6476
582.20 0.6473
582.30 0.6469
582.40 0.6466
582.50 0.6462
582.60 0.6459
582.70 0.6455
582.80 0.6452
582.90 0.6448
583.00 0.6445
583.10 0.6441
583.20 0.6438
583.30 0.6434
583.40 0.6431
583.50 0.6427
583.60 0.6424
583.70 0.642
583.80 0.6417
583.90 0.6414
584.00 0.641
584.10 0.6407
584.20 0.6403
584.30 0.64
584.40 0.6396
584.50 0.6393
584.60 0.6389
584.70 0.6386
584.80 0.6383
584.90 0.6379
585.00 0.6376
585.10 0.6372
585.20 0.6369
585.30 0.6365
585.40 0.6362
585.50 0.6359
585.60 0.6355
585.70 0.6352
585.80 0.6348
585.90 0.6345
586.00 0.6341
586.10 0.6338
586.20 0.6335
586.30 0.6331
586.40 0.6328
586.50 0.6324
586.60 0.6321
586.70 0.6318
586.80 0.6314
586.90 0.6311
587.00 0.6308
587.10 0.6304
587.20 0.6301
587.30 0.6297
587.40 0.6294
587.50 0.6291
587.60 0.6287
587.70 0.6284
587.80 0.628
587.90 0.6277
588.00 0.6274
588.10 0.627
588.20 0.6267
588.30 0.6264
588.40 0.626
588.50 0.6257
588.60 0.6254
588.70 0.625
588.80 0.6247
588.90 0.6244
589.00 0.624
589.10 0.6237
589.20 0.6234
589.30 0.623
589.40 0.6227
589.50 0.6224
589.60 0.622
589.70 0.6217
589.80 0.6214
589.90 0.621
590.00 0.6207
590.10 0.6204
590.20 0.62
590.30 0.6197
590.40 0.6194
590.50 0.619
590.60 0.6187
590.70 0.6184
590.80 0.618
590.90 0.6177
591.00 0.6174
591.10 0.6171
591.20 0.6167
591.30 0.6164
591.40 0.6161
591.50 0.6157
591.60 0.6154
591.70 0.6151
591.80 0.6148
591.90 0.6144
592.00 0.6141
592.10 0.6138
592.20 0.6135
592.30 0.6131
592.40 0.6128
592.50 0.6125
592.60 0.6121
592.70 0.6118
592.80 0.6115
592.90 0.6112
593.00 0.6108
593.10 0.6105
593.20 0.6102
593.30 0.6099
593.40 0.6095
593.50 0.6092
593.60 0.6089
593.70 0.6086
593.80 0.6082
593.90 0.6079
594.00 0.6076
594.10 0.6073
594.20 0.607
594.30 0.6066
594.40 0.6063
594.50 0.606
594.60 0.6057
594.70 0.6053
594.80 0.605
594.90 0.6047
595.00 0.6044
595.10 0.6041
595.20 0.6037
595.30 0.6034
595.40 0.6031
595.50 0.6028
595.60 0.6025
595.70 0.6021
595.80 0.6018
595.90 0.6015
596.00 0.6012
596.10 0.6009
596.20 0.6005
596.30 0.6001
596.40 0.5996
596.50 0.5992
596.60 0.5988
596.70 0.5984
596.80 0.598
596.90 0.5976
597.00 0.5972
597.10 0.5968
597.20 0.5964
597.30 0.5961
597.40 0.5958
597.50 0.5954
597.60 0.5951
597.70 0.5948
597.80 0.5945
597.90 0.5942
598.00 0.5939
598.10 0.5935
598.20 0.5932
598.30 0.5929
598.40 0.5926
598.50 0.5923
598.60 0.592
598.70 0.5916
598.80 0.5913
598.90 0.591
599.00 0.5907
599.10 0.5904
599.20 0.5901
599.30 0.5897
599.40 0.5894
599.50 0.5891
599.60 0.5888
599.70 0.5885
599.80 0.5882
599.90 0.5879
600.00 0.5875
600.10 0.5872
600.20 0.5869
600.30 0.5866
600.40 0.5863
600.50 0.586
600.60 0.5857
600.70 0.5854
600.80 0.585
600.90 0.5847
601.00 0.5844
601.10 0.5841
601.20 0.5838
601.30 0.5835
601.40 0.5832
601.50 0.5829
601.60 0.5825
601.70 0.5822
601.80 0.5819
601.90 0.5816
602.00 0.5813
602.10 0.581
602.20 0.5807
602.30 0.5804
602.40 0.5801
602.50 0.5798
602.60 0.5794
602.70 0.5791
602.80 0.5788
602.90 0.5785
603.00 0.5782
603.10 0.5779
603.20 0.5776
603.30 0.5773
603.40 0.577
603.50 0.5767
603.60 0.5764
603.70 0.5761
603.80 0.5757
603.90 0.5754
604.00 0.5751
604.10 0.5748
604.20 0.5745
604.30 0.5742
604.40 0.5739
604.50 0.5736
604.60 0.5733
604.70 0.573
604.80 0.5727
604.90 0.5724
605.00 0.5721
605.10 0.5718
605.20 0.5715
605.30 0.5712
605.40 0.5709
605.50 0.5706
605.60 0.5703
605.70 0.57
605.80 0.5697
605.90 0.5693
606.00 0.569
606.10 0.5687
606.20 0.5684
606.30 0.5681
606.40 0.5678
606.50 0.5675
606.60 0.5672
606.70 0.5669
606.80 0.5666
606.90 0.5663
607.00 0.566
607.10 0.5657
607.20 0.5654
607.30 0.5651
607.40 0.5648
607.50 0.5645
607.60 0.5642
607.70 0.5639
607.80 0.5636
607.90 0.5633
608.00 0.563
608.10 0.5627
608.20 0.5624
608.30 0.5621
608.40 0.5618
608.50 0.5615
608.60 0.5612
608.70 0.5609
608.80 0.5606
608.90 0.5603
609.00 0.56
609.10 0.5597
609.20 0.5594
609.30 0.5591
609.40 0.5588
609.50 0.5585
609.60 0.5582
609.70 0.5579
609.80 0.5576
609.90 0.5574
610.00 0.5571
610.10 0.5568
610.20 0.5565
610.30 0.5562
610.40 0.5559
610.50 0.5556
610.60 0.5553
610.70 0.555
610.80 0.5547
610.90 0.5544
611.00 0.5541
611.10 0.5538
611.20 0.5535
611.30 0.5532
611.40 0.5529
611.50 0.5526
611.60 0.5523
611.70 0.552
611.80 0.5517
611.90 0.5514
612.00 0.5511
612.10 0.5509
612.20 0.5506
612.30 0.5503
612.40 0.55
612.50 0.5497
612.60 0.5494
612.70 0.5491
612.80 0.5488
612.90 0.5485
613.00 0.5482
613.10 0.5479
613.20 0.5476
613.30 0.5473
613.40 0.547
613.50 0.5468
613.60 0.5465
613.70 0.5462
613.80 0.5459
613.90 0.5456
614.00 0.5453
614.10 0.545
614.20 0.5447
614.30 0.5444
614.40 0.5441
614.50 0.5438
614.60 0.5435
614.70 0.5433
614.80 0.543
614.90 0.5427
615.00 0.5424
615.10 0.5421
615.20 0.5418
615.30 0.5415
615.40 0.5412
615.50 0.5409
615.60 0.5406
615.70 0.5404
615.80 0.5401
615.90 0.5398
616.00 0.5395
616.10 0.5392
616.20 0.5389
616.30 0.5386
616.40 0.5383
616.50 0.538
616.60 0.5378
616.70 0.5375
616.80 0.5372
616.90 0.5369
617.00 0.5366
617.10 0.5363
617.20 0.536
617.30 0.5357
617.40 0.5354
617.50 0.5352
617.60 0.5349
617.70 0.5346
617.80 0.5343
617.90 0.534
618.00 0.5337
618.10 0.5334
618.20 0.5331
618.30 0.5329
618.40 0.5326
618.50 0.5323
618.60 0.532
618.70 0.5317
618.80 0.5314
618.90 0.5311
619.00 0.5308
619.10 0.5306
619.20 0.5303
619.30 0.53
619.40 0.5297
619.50 0.5294
619.60 0.5291
619.70 0.5288
619.80 0.5286
619.90 0.5283
620.00 0.528
620.10 0.5277
620.20 0.5274
620.30 0.5271
620.40 0.5268
620.50 0.5266
620.60 0.5263
620.70 0.526
620.80 0.5257
620.90 0.5254
621.00 0.5251
621.10 0.5248
621.20 0.5246
621.30 0.5243
621.40 0.524
621.50 0.5237
621.60 0.5234
621.70 0.5231
621.80 0.5228
621.90 0.5226
622.00 0.5223
622.10 0.522
622.20 0.5217
622.30 0.5214
622.40 0.5211
622.50 0.5209
622.60 0.5206
622.70 0.5203
622.80 0.52
622.90 0.5197
623.00 0.5194
623.10 0.5191
623.20 0.5189
623.30 0.5186
623.40 0.5183
623.50 0.518
623.60 0.5177
623.70 0.5174
623.80 0.5171
623.90 0.5169
624.00 0.5166
624.10 0.5163
624.20 0.516
624.30 0.5157
624.40 0.5154
624.50 0.5151
624.60 0.5149
624.70 0.5146
624.80 0.5143
624.90 0.514
625.00 0.5137
625.10 0.5134
625.20 0.5132
625.30 0.5129
625.40 0.5126
625.50 0.5123
625.60 0.512
625.70 0.5117
625.80 0.5114
625.90 0.5112
626.00 0.5109
626.10 0.5106
626.20 0.5103
626.30 0.51
626.40 0.5097
626.50 0.5094
626.60 0.5092
626.70 0.5089
626.80 0.5086
626.90 0.5083
627.00 0.508
627.10 0.5077
627.20 0.5074
627.30 0.5072
627.40 0.5069
627.50 0.5066
627.60 0.5063
627.70 0.506
627.80 0.5057
627.90 0.5054
628.00 0.5052
628.10 0.5049
628.20 0.5046
628.30 0.5043
628.40 0.504
628.50 0.5037
628.60 0.5034
628.70 0.5031
628.80 0.5029
628.90 0.5026
629.00 0.5023
629.10 0.502
629.20 0.5017
629.30 0.5014
629.40 0.5011
629.50 0.5008
629.60 0.5005
629.70 0.5002
629.80 0.5
629.90 0.4997
630.00 0.4994
630.10 0.4991
630.20 0.4988
630.30 0.4985
630.40 0.4982
630.50 0.4979
630.60 0.4976
630.70 0.4973
630.80 0.497
630.90 0.4968
631.00 0.4965
631.10 0.4962
631.20 0.4959
631.30 0.4956
631.40 0.4953
631.50 0.495
631.60 0.4947
631.70 0.4944
631.80 0.4941
631.90 0.4938
632.00 0.4935
632.10 0.4932
632.20 0.4929
632.30 0.4926
632.40 0.4923
632.50 0.492
632.60 0.4917
632.70 0.4914
632.80 0.4911
632.90 0.4908
633.00 0.4905
633.10 0.4902
633.20 0.4899
633.30 0.4896
633.40 0.4893
633.50 0.489
633.60 0.4887
633.70 0.4884
633.80 0.4881
633.90 0.4878
634.00 0.4875
634.10 0.4872
634.20 0.4869
634.30 0.4866
634.40 0.4862
634.50 0.4859
634.60 0.4856
634.70 0.4853
634.80 0.485
634.90 0.4847
635.00 0.4844
635.10 0.4841
635.20 0.4837
635.30 0.4834
635.40 0.4831
635.50 0.4828
635.60 0.4825
635.70 0.4821
635.80 0.4818
635.90 0.4815
636.00 0.4812
636.10 0.4809
636.20 0.4805
636.30 0.4802
636.40 0.4799
636.50 0.4796
636.60 0.4792
636.70 0.4789
636.80 0.4786
636.90 0.4782
637.00 0.4779
637.10 0.4776
637.20 0.4772
637.30 0.4769
637.40 0.4766
637.50 0.4762
637.60 0.4759
637.70 0.4755
637.80 0.4752
637.90 0.4748
638.00 0.4745
638.10 0.4742
638.20 0.4738
638.30 0.4735
638.40 0.4731
638.50 0.4728
638.60 0.4724
638.70 0.472
638.80 0.4717
638.90 0.4713
639.00 0.471
639.10 0.4706
639.20 0.4702
639.30 0.4699
639.40 0.4695
639.50 0.4691
639.60 0.4687
639.70 0.4684
639.80 0.468
639.90 0.4676
640.00 0.4672
640.10 0.4669
640.20 0.4665
640.30 0.4661
640.40 0.4657
640.50 0.4653
640.60 0.4649
640.70 0.4645
640.80 0.4641
640.90 0.4637
641.00 0.4633
641.10 0.4629
641.20 0.4625
641.30 0.4621
641.40 0.4617
641.50 0.4612
641.60 0.4608
641.70 0.4604
641.80 0.46
641.90 0.4595
642.00 0.4591
642.10 0.4587
642.20 0.4582
642.30 0.4578
642.40 0.4573
642.50 0.4569
642.60 0.4564
642.70 0.4559
642.80 0.4555
642.90 0.455
643.00 0.4545
643.10 0.4541
643.20 0.4536
643.30 0.4531
643.40 0.4526
643.50 0.4521
643.60 0.4516
643.70 0.4511
643.80 0.4506
643.90 0.4501
644.00 0.4496
644.10 0.4491
644.20 0.4486
644.30 0.448
644.40 0.4475
644.50 0.4469
644.60 0.4463
644.70 0.4458
644.80 0.4452
644.90 0.4446
645.00 0.444
645.10 0.4435
645.20 0.4429
645.30 0.4423
645.40 0.4417
645.50 0.441
645.60 0.4404
645.70 0.4398
645.80 0.4391
645.90 0.4385
646.00 0.4378
646.10 0.4372
646.20 0.4366
646.30 0.4359
646.40 0.4352
646.50 0.4344
646.60 0.4337
646.70 0.433
646.80 0.4322
646.90 0.4315
647.00 0.4308
647.10 0.4301
647.20 0.4293
647.30 0.4286
647.40 0.4277
647.50 0.4269
647.60 0.426
647.70 0.4251
647.80 0.4243
647.90 0.4234
648.00 0.4226
648.10 0.4217
648.20 0.4209
648.30 0.42
648.40 0.419
648.50 0.418
648.60 0.417
648.70 0.4159
648.80 0.4149
648.90 0.4139
649.00 0.4129
649.10 0.4119
649.20 0.4109
649.30 0.4098
649.40 0.4086
649.50 0.4074
649.60 0.4062
649.70 0.405
649.80 0.4038
649.90 0.4026
650.00 0.4014
650.10 0.4001
650.20 0.3989
650.30 0.3977
650.40 0.3962
650.50 0.3947
650.60 0.3933
650.70 0.3918
650.80 0.3904
650.90 0.3889
651.00 0.3874
651.10 0.386
651.20 0.3845
651.30 0.383
651.40 0.3812
651.50 0.3794
651.60 0.3776
651.70 0.3758
651.80 0.374
651.90 0.3723
652.00 0.3705
652.10 0.3687
652.20 0.3669
652.30 0.365
652.40 0.3629
652.50 0.3607
652.60 0.3585
652.70 0.3563
652.80 0.3541
652.90 0.352
653.00 0.3498
653.10 0.3476
653.20 0.3454
653.30 0.3432
653.40 0.3405
653.50 0.3379
653.60 0.3352
653.70 0.3326
653.80 0.3299
653.90 0.3273
654.00 0.3247
654.10 0.322
654.20 0.3194
654.30 0.3167
654.40 0.3137
654.50 0.3106
654.60 0.3076
654.70 0.3046
654.80 0.3015
654.90 0.298
655.00 0.2946
655.10 0.2911
655.20 0.2876
655.30 0.2841
655.40 0.2803
655.50 0.2763
655.60 0.272
655.70 0.2676
655.80 0.2624
655.90 0.2566
656.00 0.2487
656.10 0.2399
656.20 0.2124
656.30 0.1887
656.40 0.2286
656.50 0.2433
656.60 0.2511
656.70 0.2584
656.80 0.2634
656.90 0.2682
657.00 0.2723
657.10 0.2762
657.20 0.2798
657.30 0.2834
657.40 0.2866
657.50 0.2898
657.60 0.293
657.70 0.2962
657.80 0.2993
657.90 0.302
658.00 0.3048
658.10 0.3075
658.20 0.3102
658.30 0.3129
658.40 0.3152
658.50 0.3175
658.60 0.3199
658.70 0.3222
658.80 0.3245
658.90 0.3268
659.00 0.3291
659.10 0.3314
659.20 0.3337
659.30 0.336
659.40 0.3378
659.50 0.3396
659.60 0.3414
659.70 0.3432
659.80 0.345
659.90 0.3468
660.00 0.3486
660.10 0.3504
660.20 0.3523
660.30 0.354
660.40 0.3554
660.50 0.3568
660.60 0.3581
660.70 0.3595
660.80 0.3609
660.90 0.3623
661.00 0.3637
661.10 0.3651
661.20 0.3665
661.30 0.3678
661.40 0.3688
661.50 0.3699
661.60 0.3709
661.70 0.3719
661.80 0.373
661.90 0.374
662.00 0.3751
662.10 0.3761
662.20 0.3771
662.30 0.3781
662.40 0.3789
662.50 0.3797
662.60 0.3804
662.70 0.3812
662.80 0.382
662.90 0.3827
663.00 0.3835
663.10 0.3843
663.20 0.385
663.30 0.3858
663.40 0.3863
663.50 0.3869
663.60 0.3875
663.70 0.388
663.80 0.3886
663.90 0.3891
664.00 0.3897
664.10 0.3903
664.20 0.3908
664.30 0.3914
664.40 0.3918
664.50 0.3922
664.60 0.3925
664.70 0.3929
664.80 0.3933
664.90 0.3937
665.00 0.3941
665.10 0.3945
665.20 0.3949
665.30 0.3953
665.40 0.3956
665.50 0.3958
665.60 0.3961
665.70 0.3964
665.80 0.3966
665.90 0.3969
666.00 0.3972
666.10 0.3975
666.20 0.3977
666.30 0.398
666.40 0.3982
666.50 0.3983
666.60 0.3985
666.70 0.3987
666.80 0.3989
666.90 0.399
667.00 0.3992
667.10 0.3994
667.20 0.3996
667.30 0.3997
667.40 0.3998
667.50 0.4
667.60 0.4001
667.70 0.4002
667.80 0.4003
667.90 0.4004
668.00 0.4005
668.10 0.4006
668.20 0.4007
668.30 0.4008
668.40 0.4008
668.50 0.4009
668.60 0.4009
668.70 0.401
668.80 0.401
668.90 0.4011
669.00 0.4011
669.10 0.4012
669.20 0.4012
669.30 0.4012
669.40 0.4012
669.50 0.4012
669.60 0.4012
669.70 0.4012
669.80 0.4012
669.90 0.4012
670.00 0.4013
670.10 0.4013
670.20 0.4013
670.30 0.4013
670.40 0.4012
670.50 0.4012
670.60 0.4012
670.70 0.4011
670.80 0.4011
670.90 0.4011
671.00 0.401
671.10 0.401
671.20 0.401
671.30 0.4009
671.40 0.4009
671.50 0.4008
671.60 0.4007
671.70 0.4007
671.80 0.4006
671.90 0.4005
672.00 0.4005
672.10 0.4004
672.20 0.4004
672.30 0.4003
672.40 0.4002
672.50 0.4001
672.60 0.4001
672.70 0.4
672.80 0.3999
672.90 0.3998
673.00 0.3997
673.10 0.3996
673.20 0.3996
673.30 0.3995
673.40 0.3994
673.50 0.3993
673.60 0.3992
673.70 0.3991
673.80 0.399
673.90 0.3989
674.00 0.3988
674.10 0.3987
674.20 0.3986
674.30 0.3985
674.40 0.3984
674.50 0.3983
674.60 0.3981
674.70 0.398
674.80 0.3979
674.90 0.3978
675.00 0.3977
675.10 0.3976
675.20 0.3975
675.30 0.3973
675.40 0.3972
675.50 0.3971
675.60 0.397
675.70 0.3968
675.80 0.3967
675.90 0.3966
676.00 0.3965
676.10 0.3963
676.20 0.3962
676.30 0.3961
676.40 0.396
676.50 0.3958
676.60 0.3957
676.70 0.3956
676.80 0.3954
676.90 0.3953
677.00 0.3952
677.10 0.395
677.20 0.3949
677.30 0.3948
677.40 0.3946
677.50 0.3945
677.60 0.3943
677.70 0.3942
677.80 0.394
677.90 0.3939
678.00 0.3938
678.10 0.3936
678.20 0.3935
678.30 0.3933
678.40 0.3932
678.50 0.393
678.60 0.3929
678.70 0.3927
678.80 0.3926
678.90 0.3924
679.00 0.3923
679.10 0.3922
679.20 0.392
679.30 0.3919
679.40 0.3917
679.50 0.3916
679.60 0.3914
679.70 0.3912
679.80 0.3911
679.90 0.3909
680.00 0.3908
680.10 0.3906
680.20 0.3905
680.30 0.3903
680.40 0.3902
680.50 0.39
680.60 0.3899
680.70 0.3897
680.80 0.3896
680.90 0.3894
681.00 0.3892
681.10 0.3891
681.20 0.3889
681.30 0.3888
681.40 0.3886
681.50 0.3885
681.60 0.3883
681.70 0.3881
681.80 0.388
681.90 0.3878
682.00 0.3877
682.10 0.3875
682.20 0.3873
682.30 0.3872
682.40 0.387
682.50 0.3869
682.60 0.3867
682.70 0.3865
682.80 0.3864
682.90 0.3862
683.00 0.3861
683.10 0.3859
683.20 0.3857
683.30 0.3856
683.40 0.3854
683.50 0.3853
683.60 0.3851
683.70 0.3849
683.80 0.3848
683.90 0.3846
684.00 0.3844
684.10 0.3843
684.20 0.3841
684.30 0.384
684.40 0.3838
684.50 0.3836
684.60 0.3835
684.70 0.3833
684.80 0.3831
684.90 0.383
685.00 0.3828
685.10 0.3826
685.20 0.3825
685.30 0.3823
685.40 0.3821
685.50 0.382
685.60 0.3818
685.70 0.3816
685.80 0.3815
685.90 0.3813
686.00 0.3812
686.10 0.381
686.20 0.3808
686.30 0.3807
686.40 0.3805
686.50 0.3803
686.60 0.3802
686.70 0.38
686.80 0.3798
686.90 0.3797
687.00 0.3795
687.10 0.3793
687.20 0.3792
687.30 0.379
687.40 0.3788
687.50 0.3787
687.60 0.3785
687.70 0.3783
687.80 0.3782
687.90 0.378
688.00 0.3778
688.10 0.3777
688.20 0.3775
688.30 0.3773
688.40 0.3772
688.50 0.377
688.60 0.3768
688.70 0.3767
688.80 0.3765
688.90 0.3763
689.00 0.3762
689.10 0.376
689.20 0.3758
689.30 0.3757
689.40 0.3755
689.50 0.3753
689.60 0.3752
689.70 0.375
689.80 0.3748
689.90 0.3746
690.00 0.3745
690.10 0.3743
690.20 0.3741
690.30 0.374
690.40 0.3738
690.50 0.3736
690.60 0.3735
690.70 0.3733
690.80 0.3731
690.90 0.373
691.00 0.3728
691.10 0.3726
691.20 0.3725
691.30 0.3723
691.40 0.3721
691.50 0.3719
691.60 0.3718
691.70 0.3716
691.80 0.3714
691.90 0.3713
692.00 0.3711
692.10 0.3709
692.20 0.3708
692.30 0.3706
692.40 0.3704
692.50 0.3703
692.60 0.3701
692.70 0.3699
692.80 0.3698
692.90 0.3696
693.00 0.3694
693.10 0.3693
693.20 0.3691
693.30 0.3689
693.40 0.3688
693.50 0.3686
693.60 0.3684
693.70 0.3683
693.80 0.3681
693.90 0.3679
694.00 0.3678
694.10 0.3676
694.20 0.3674
694.30 0.3673
694.40 0.3671
694.50 0.3669
694.60 0.3668
694.70 0.3666
694.80 0.3664
694.90 0.3663
695.00 0.3661
695.10 0.3659
695.20 0.3658
695.30 0.3656
695.40 0.3654
695.50 0.3653
695.60 0.3651
695.70 0.365
695.80 0.3648
695.90 0.3646
696.00 0.3645
696.10 0.3643
696.20 0.3641
696.30 0.364
696.40 0.3638
696.50 0.3636
696.60 0.3635
696.70 0.3633
696.80 0.3631
696.90 0.363
697.00 0.3628
697.10 0.3627
697.20 0.3625
697.30 0.3623
697.40 0.3622
697.50 0.362
697.60 0.3618
697.70 0.3617
697.80 0.3615
697.90 0.3613
698.00 0.3612
698.10 0.361
698.20 0.3609
698.30 0.3607
698.40 0.3605
698.50 0.3604
698.60 0.3602
698.70 0.36
698.80 0.3599
698.90 0.3597
699.00 0.3596
699.10 0.3594
699.20 0.3592
699.30 0.3591
699.40 0.3589
699.50 0.3587
699.60 0.3586
699.70 0.3584
699.80 0.3583
699.90 0.3581
700.00 0.3579
700.10 0.3578
700.20 0.3577
700.30 0.3575
700.40 0.3574
700.50 0.3572
700.60 0.3571
700.70 0.357
700.80 0.3568
700.90 0.3567
701.00 0.3565
701.10 0.3564
701.20 0.3563
701.30 0.3561
701.40 0.356
701.50 0.3558
701.60 0.3557
701.70 0.3556
701.80 0.3554
701.90 0.3553
702.00 0.3551
702.10 0.355
702.20 0.3549
702.30 0.3547
702.40 0.3546
702.50 0.3545
702.60 0.3543
702.70 0.3542
702.80 0.354
702.90 0.3539
703.00 0.3538
703.10 0.3536
703.20 0.3535
703.30 0.3533
703.40 0.3532
703.50 0.3531
703.60 0.3529
703.70 0.3528
703.80 0.3527
703.90 0.3525
704.00 0.3524
704.10 0.3522
704.20 0.3521
704.30 0.352
704.40 0.3518
704.50 0.3517
704.60 0.3516
704.70 0.3514
704.80 0.3513
704.90 0.3511
705.00 0.351
705.10 0.3508
705.20 0.3507
705.30 0.3505
705.40 0.3504
705.50 0.3502
705.60 0.35
705.70 0.3499
705.80 0.3497
705.90 0.3496
706.00 0.3494
706.10 0.3492
706.20 0.3491
706.30 0.3489
706.40 0.3488
706.50 0.3486
706.60 0.3484
706.70 0.3483
706.80 0.3481
706.90 0.348
707.00 0.3478
707.10 0.3477
707.20 0.3475
707.30 0.3473
707.40 0.3472
707.50 0.347
707.60 0.3469
707.70 0.3467
707.80 0.3465
707.90 0.3464
708.00 0.3462
708.10 0.3461
708.20 0.3459
708.30 0.3457
708.40 0.3456
708.50 0.3454
708.60 0.3453
708.70 0.3451
708.80 0.345
708.90 0.3448
709.00 0.3446
709.10 0.3445
709.20 0.3443
709.30 0.3442
709.40 0.344
709.50 0.3439
709.60 0.3437
709.70 0.3435
709.80 0.3434
709.90 0.3432
710.00 0.3431
710.10 0.3429
710.20 0.3428
710.30 0.3426
710.40 0.3424
710.50 0.3423
710.60 0.3421
710.70 0.342
710.80 0.3418
710.90 0.3417
711.00 0.3415
711.10 0.3414
711.20 0.3412
711.30 0.341
711.40 0.3409
711.50 0.3407
711.60 0.3406
711.70 0.3404
711.80 0.3403
711.90 0.3401
712.00 0.34
712.10 0.3398
712.20 0.3396
712.30 0.3395
712.40 0.3393
712.50 0.3392
712.60 0.339
712.70 0.3389
712.80 0.3387
712.90 0.3386
713.00 0.3384
713.10 0.3383
713.20 0.3381
713.30 0.3379
713.40 0.3378
713.50 0.3376
713.60 0.3375
713.70 0.3373
713.80 0.3372
713.90 0.337
714.00 0.3369
714.10 0.3367
714.20 0.3366
714.30 0.3364
714.40 0.3363
714.50 0.3361
714.60 0.3359
714.70 0.3358
714.80 0.3356
714.90 0.3355
715.00 0.3353
715.10 0.3352
715.20 0.335
715.30 0.3349
715.40 0.3347
715.50 0.3346
715.60 0.3344
715.70 0.3343
715.80 0.3341
715.90 0.334
716.00 0.3339
716.10 0.3337
716.20 0.3336
716.30 0.3334
716.40 0.3333
716.50 0.3331
716.60 0.333
716.70 0.3328
716.80 0.3327
716.90 0.3325
717.00 0.3324
717.10 0.3322
717.20 0.3321
717.30 0.3319
717.40 0.3318
717.50 0.3316
717.60 0.3315
717.70 0.3313
717.80 0.3312
717.90 0.331
718.00 0.3309
718.10 0.3308
718.20 0.3306
718.30 0.3305
718.40 0.3303
718.50 0.3302
718.60 0.33
718.70 0.3299
718.80 0.3297
718.90 0.3296
719.00 0.3294
719.10 0.3293
719.20 0.3291
719.30 0.329
719.40 0.3289
719.50 0.3287
719.60 0.3286
719.70 0.3284
719.80 0.3283
719.90 0.3281
720.00 0.328
720.10 0.3278
720.20 0.3277
720.30 0.3275
720.40 0.3274
720.50 0.3272
720.60 0.3271
720.70 0.3269
720.80 0.3268
720.90 0.3266
721.00 0.3265
721.10 0.3263
721.20 0.3262
721.30 0.326
721.40 0.3259
721.50 0.3257
721.60 0.3256
721.70 0.3255
721.80 0.3253
721.90 0.3252
722.00 0.325
722.10 0.3249
722.20 0.3247
722.30 0.3246
722.40 0.3244
722.50 0.3243
722.60 0.3241
722.70 0.324
722.80 0.3238
722.90 0.3237
723.00 0.3235
723.10 0.3234
723.20 0.3232
723.30 0.3231
723.40 0.3229
723.50 0.3228
723.60 0.3226
723.70 0.3225
723.80 0.3224
723.90 0.3222
724.00 0.3221
724.10 0.3219
724.20 0.3218
724.30 0.3216
724.40 0.3215
724.50 0.3213
724.60 0.3212
724.70 0.321
724.80 0.3209
724.90 0.3207
725.00 0.3206
725.10 0.3205
725.20 0.3203
725.30 0.3202
725.40 0.32
725.50 0.3199
725.60 0.3197
725.70 0.3196
725.80 0.3194
725.90 0.3193
726.00 0.3192
726.10 0.319
726.20 0.3189
726.30 0.3187
726.40 0.3186
726.50 0.3184
726.60 0.3183
726.70 0.3181
726.80 0.318
726.90 0.3179
727.00 0.3177
727.10 0.3176
727.20 0.3174
727.30 0.3173
727.40 0.3171
727.50 0.317
727.60 0.3168
727.70 0.3167
727.80 0.3166
727.90 0.3164
728.00 0.3163
728.10 0.3161
728.20 0.316
728.30 0.3158
728.40 0.3157
728.50 0.3156
728.60 0.3154
728.70 0.3153
728.80 0.3151
728.90 0.315
729.00 0.3148
729.10 0.3147
729.20 0.3146
729.30 0.3144
729.40 0.3143
729.50 0.3141
729.60 0.314
729.70 0.3139
729.80 0.3137
729.90 0.3136
730.00 0.3134
730.10 0.3133
730.20 0.3131
730.30 0.313
730.40 0.3129
730.50 0.3127
730.60 0.3126
730.70 0.3124
730.80 0.3123
730.90 0.3122
731.00 0.312
731.10 0.3119
731.20 0.3117
731.30 0.3116
731.40 0.3115
731.50 0.3113
731.60 0.3112
731.70 0.311
731.80 0.3109
731.90 0.3108
732.00 0.3106
732.10 0.3105
732.20 0.3103
732.30 0.3102
732.40 0.3101
732.50 0.3099
732.60 0.3098
732.70 0.3096
732.80 0.3095
732.90 0.3094
733.00 0.3092
733.10 0.3091
733.20 0.309
733.30 0.3088
733.40 0.3087
733.50 0.3085
733.60 0.3084
733.70 0.3083
733.80 0.3081
733.90 0.308
734.00 0.3078
734.10 0.3077
734.20 0.3076
734.30 0.3074
734.40 0.3073
734.50 0.3072
734.60 0.307
734.70 0.3069
734.80 0.3067
734.90 0.3066
735.00 0.3065
735.10 0.3063
735.20 0.3062
735.30 0.3061
735.40 0.3059
735.50 0.3058
735.60 0.3056
735.70 0.3055
735.80 0.3054
735.90 0.3052
736.00 0.3051
736.10 0.305
736.20 0.3048
736.30 0.3047
736.40 0.3046
736.50 0.3044
736.60 0.3043
736.70 0.3041
736.80 0.304
736.90 0.3039
737.00 0.3037
737.10 0.3036
737.20 0.3035
737.30 0.3033
737.40 0.3032
737.50 0.3031
737.60 0.3029
737.70 0.3028
737.80 0.3026
737.90 0.3025
738.00 0.3024
738.10 0.3022
738.20 0.3021
738.30 0.302
738.40 0.3018
738.50 0.3017
738.60 0.3016
738.70 0.3014
738.80 0.3013
738.90 0.3012
739.00 0.301
739.10 0.3009
739.20 0.3007
739.30 0.3006
739.40 0.3005
739.50 0.3003
739.60 0.3002
739.70 0.3001
739.80 0.2999
739.90 0.2998
740.00 0.2997
740.10 0.2995
740.20 0.2994
740.30 0.2993
740.40 0.2991
740.50 0.299
740.60 0.2989
740.70 0.2987
740.80 0.2986
740.90 0.2985
741.00 0.2983
741.10 0.2982
741.20 0.2981
741.30 0.2979
741.40 0.2978
741.50 0.2977
741.60 0.2975
741.70 0.2974
741.80 0.2973
741.90 0.2972
742.00 0.297
742.10 0.2969
742.20 0.2968
742.30 0.2966
742.40 0.2965
742.50 0.2964
742.60 0.2962
742.70 0.2961
742.80 0.296
742.90 0.2958
743.00 0.2957
743.10 0.2956
743.20 0.2954
743.30 0.2953
743.40 0.2952
743.50 0.2951
743.60 0.2949
743.70 0.2948
743.80 0.2947
743.90 0.2945
744.00 0.2944
744.10 0.2943
744.20 0.2941
744.30 0.294
744.40 0.2939
744.50 0.2937
744.60 0.2936
744.70 0.2935
744.80 0.2934
744.90 0.2932
745.00 0.2931
745.10 0.293
745.20 0.2928
745.30 0.2927
745.40 0.2926
745.50 0.2924
745.60 0.2923
745.70 0.2922
745.80 0.2921
745.90 0.2919
746.00 0.2918
746.10 0.2917
746.20 0.2915
746.30 0.2914
746.40 0.2913
746.50 0.2911
746.60 0.291
746.70 0.2909
746.80 0.2908
746.90 0.2906
747.00 0.2905
747.10 0.2904
747.20 0.2902
747.30 0.2901
747.40 0.29
747.50 0.2899
747.60 0.2897
747.70 0.2896
747.80 0.2895
747.90 0.2893
748.00 0.2892
748.10 0.2891
748.20 0.289
748.30 0.2888
748.40 0.2887
748.50 0.2886
748.60 0.2884
748.70 0.2883
748.80 0.2882
748.90 0.2881
749.00 0.2879
749.10 0.2878
749.20 0.2877
749.30 0.2876
749.40 0.2874
749.50 0.2873
749.60 0.2872
749.70 0.287
749.80 0.2869
749.90 0.2868
750.00 0.2867
750.10 0.2865
750.20 0.2864
750.30 0.2863
750.40 0.2862
750.50 0.286
750.60 0.2859
750.70 0.2858
750.80 0.2857
750.90 0.2855
751.00 0.2854
751.10 0.2853
751.20 0.2852
751.30 0.285
751.40 0.2849
751.50 0.2848
751.60 0.2847
751.70 0.2845
751.80 0.2844
751.90 0.2843
752.00 0.2842
752.10 0.284
752.20 0.2839
752.30 0.2838
752.40 0.2837
752.50 0.2835
752.60 0.2834
752.70 0.2833
752.80 0.2832
752.90 0.283
753.00 0.2829
753.10 0.2828
753.20 0.2827
753.30 0.2825
753.40 0.2824
753.50 0.2823
753.60 0.2822
753.70 0.282
753.80 0.2819
753.90 0.2818
754.00 0.2817
754.10 0.2815
754.20 0.2814
754.30 0.2813
754.40 0.2812
754.50 0.281
754.60 0.2809
754.70 0.2808
754.80 0.2807
754.90 0.2806
755.00 0.2804
755.10 0.2803
755.20 0.2802
755.30 0.2801
755.40 0.2799
755.50 0.2798
755.60 0.2797
755.70 0.2796
755.80 0.2794
755.90 0.2793
756.00 0.2792
756.10 0.2791
756.20 0.279
756.30 0.2788
756.40 0.2787
756.50 0.2786
756.60 0.2785
756.70 0.2783
756.80 0.2782
756.90 0.2781
757.00 0.278
757.10 0.2779
757.20 0.2777
757.30 0.2776
757.40 0.2775
757.50 0.2774
757.60 0.2772
757.70 0.2771
757.80 0.277
757.90 0.2769
758.00 0.2768
758.10 0.2766
758.20 0.2765
758.30 0.2764
758.40 0.2763
758.50 0.2762
758.60 0.276
758.70 0.2759
758.80 0.2758
758.90 0.2757
759.00 0.2756
759.10 0.2754
759.20 0.2753
759.30 0.2752
759.40 0.2751
759.50 0.2749
759.60 0.2748
759.70 0.2747
759.80 0.2746
759.90 0.2745
760.00 0.2743
760.10 0.2742
760.20 0.2741
760.30 0.274
760.40 0.2739
760.50 0.2737
760.60 0.2736
760.70 0.2735
760.80 0.2734
760.90 0.2733
761.00 0.2732
761.10 0.273
761.20 0.2729
761.30 0.2728
761.40 0.2727
761.50 0.2726
761.60 0.2724
761.70 0.2723
761.80 0.2722
761.90 0.2721
762.00 0.272
762.10 0.2719
762.20 0.2717
762.30 0.2716
762.40 0.2715
762.50 0.2714
762.60 0.2713
762.70 0.2711
762.80 0.271
762.90 0.2709
763.00 0.2708
763.10 0.2707
763.20 0.2706
763.30 0.2704
763.40 0.2703
763.50 0.2702
763.60 0.2701
763.70 0.27
763.80 0.2699
763.90 0.2697
764.00 0.2696
764.10 0.2695
764.20 0.2694
764.30 0.2693
764.40 0.2692
764.50 0.269
764.60 0.2689
764.70 0.2688
764.80 0.2687
764.90 0.2686
765.00 0.2684
765.10 0.2683
765.20 0.2682
765.30 0.2681
765.40 0.268
765.50 0.2679
765.60 0.2678
765.70 0.2676
765.80 0.2675
765.90 0.2674
766.00 0.2673
766.10 0.2672
766.20 0.2671
766.30 0.2669
766.40 0.2668
766.50 0.2667
766.60 0.2666
766.70 0.2665
766.80 0.2664
766.90 0.2662
767.00 0.2661
767.10 0.266
767.20 0.2659
767.30 0.2658
767.40 0.2657
767.50 0.2656
767.60 0.2654
767.70 0.2653
767.80 0.2652
767.90 0.2651
768.00 0.265
768.10 0.2649
768.20 0.2647
768.30 0.2646
768.40 0.2645
768.50 0.2644
768.60 0.2643
768.70 0.2642
768.80 0.2641
768.90 0.2639
769.00 0.2638
769.10 0.2637
769.20 0.2636
769.30 0.2635
769.40 0.2634
769.50 0.2633
769.60 0.2631
769.70 0.263
769.80 0.2629
769.90 0.2628
770.00 0.2627
770.10 0.2626
770.20 0.2625
770.30 0.2623
770.40 0.2622
770.50 0.2621
770.60 0.262
770.70 0.2619
770.80 0.2618
770.90 0.2617
771.00 0.2616
771.10 0.2614
771.20 0.2613
771.30 0.2612
771.40 0.2611
771.50 0.261
771.60 0.2609
771.70 0.2608
771.80 0.2607
771.90 0.2605
772.00 0.2604
772.10 0.2603
772.20 0.2602
772.30 0.2601
772.40 0.26
772.50 0.2599
772.60 0.2598
772.70 0.2597
772.80 0.2595
772.90 0.2594
773.00 0.2593
773.10 0.2592
773.20 0.2591
773.30 0.259
773.40 0.2589
773.50 0.2588
773.60 0.2587
773.70 0.2585
773.80 0.2584
773.90 0.2583
774.00 0.2582
774.10 0.2581
774.20 0.258
774.30 0.2579
774.40 0.2578
774.50 0.2577
774.60 0.2575
774.70 0.2574
774.80 0.2573
774.90 0.2572
775.00 0.2571
775.10 0.257
775.20 0.2569
775.30 0.2568
775.40 0.2567
775.50 0.2565
775.60 0.2564
775.70 0.2563
775.80 0.2562
775.90 0.2561
776.00 0.256
776.10 0.2559
776.20 0.2558
776.30 0.2557
776.40 0.2556
776.50 0.2554
776.60 0.2553
776.70 0.2552
776.80 0.2551
776.90 0.255
777.00 0.2549
777.10 0.2548
777.20 0.2547
777.30 0.2546
777.40 0.2545
777.50 0.2544
777.60 0.2542
777.70 0.2541
777.80 0.254
777.90 0.2539
778.00 0.2538
778.10 0.2537
778.20 0.2536
778.30 0.2535
778.40 0.2534
778.50 0.2533
778.60 0.2532
778.70 0.253
778.80 0.2529
778.90 0.2528
779.00 0.2527
779.10 0.2526
779.20 0.2525
779.30 0.2524
779.40 0.2523
779.50 0.2522
779.60 0.2521
779.70 0.252
779.80 0.2519
779.90 0.2517
780.00 0.2516
780.10 0.2515
780.20 0.2514
780.30 0.2513
780.40 0.2512
780.50 0.2511
780.60 0.251
780.70 0.2509
780.80 0.2508
780.90 0.2507
781.00 0.2506
781.10 0.2505
781.20 0.2504
781.30 0.2502
781.40 0.2501
781.50 0.25
781.60 0.2499
781.70 0.2498
781.80 0.2497
781.90 0.2496
782.00 0.2495
782.10 0.2494
782.20 0.2493
782.30 0.2492
782.40 0.2491
782.50 0.249
782.60 0.2489
782.70 0.2488
782.80 0.2487
782.90 0.2486
783.00 0.2484
783.10 0.2483
783.20 0.2482
783.30 0.2481
783.40 0.248
783.50 0.2479
783.60 0.2478
783.70 0.2477
783.80 0.2476
783.90 0.2475
784.00 0.2474
784.10 0.2473
784.20 0.2472
784.30 0.2471
784.40 0.247
784.50 0.2469
784.60 0.2468
784.70 0.2467
784.80 0.2466
784.90 0.2464
785.00 0.2463
785.10 0.2462
785.20 0.2461
785.30 0.246
785.40 0.2459
785.50 0.2458
785.60 0.2457
785.70 0.2456
785.80 0.2455
785.90 0.2454
786.00 0.2453
786.10 0.2452
786.20 0.2451
786.30 0.245
786.40 0.2449
786.50 0.2448
786.60 0.2447
786.70 0.2446
786.80 0.2445
786.90 0.2444
787.00 0.2443
787.10 0.2442
787.20 0.244
787.30 0.2439
787.40 0.2438
787.50 0.2437
787.60 0.2436
787.70 0.2435
787.80 0.2434
787.90 0.2433
788.00 0.2432
788.10 0.2431
788.20 0.243
788.30 0.2429
788.40 0.2428
788.50 0.2427
788.60 0.2426
788.70 0.2425
788.80 0.2424
788.90 0.2423
789.00 0.2422
789.10 0.2421
789.20 0.242
789.30 0.2419
789.40 0.2418
789.50 0.2417
789.60 0.2416
789.70 0.2415
789.80 0.2414
789.90 0.2413
790.00 0.2412
790.10 0.2411
790.20 0.241
790.30 0.2409
790.40 0.2408
790.50 0.2407
790.60 0.2406
790.70 0.2405
790.80 0.2403
790.90 0.2402
791.00 0.2401
791.10 0.24
791.20 0.2399
791.30 0.2398
791.40 0.2397
791.50 0.2396
791.60 0.2395
791.70 0.2394
791.80 0.2393
791.90 0.2392
792.00 0.2391
792.10 0.239
792.20 0.2389
792.30 0.2388
792.40 0.2387
792.50 0.2386
792.60 0.2385
792.70 0.2384
792.80 0.2383
792.90 0.2382
793.00 0.2381
793.10 0.238
793.20 0.2379
793.30 0.2378
793.40 0.2377
793.50 0.2376
793.60 0.2375
793.70 0.2374
793.80 0.2373
793.90 0.2372
794.00 0.2371
794.10 0.237
794.20 0.2369
794.30 0.2368
794.40 0.2367
794.50 0.2366
794.60 0.2365
794.70 0.2364
794.80 0.2363
794.90 0.2362
795.00 0.2361
795.10 0.236
795.20 0.2359
795.30 0.2358
795.40 0.2357
795.50 0.2356
795.60 0.2355
795.70 0.2354
795.80 0.2353
795.90 0.2352
796.00 0.2351
796.10 0.235
796.20 0.2349
796.30 0.2349
796.40 0.2348
796.50 0.2347
796.60 0.2346
796.70 0.2345
796.80 0.2344
796.90 0.2343
797.00 0.2342
797.10 0.2341
797.20 0.234
797.30 0.2339
797.40 0.2338
797.50 0.2337
797.60 0.2336
797.70 0.2335
797.80 0.2334
797.90 0.2333
798.00 0.2332
798.10 0.2331
798.20 0.233
798.30 0.2329
798.40 0.2328
798.50 0.2327
798.60 0.2326
798.70 0.2325
798.80 0.2324
798.90 0.2323
799.00 0.2322
799.10 0.2321
799.20 0.232
799.30 0.2319
799.40 0.2318
799.50 0.2317
799.60 0.2316
799.70 0.2315
799.80 0.2314
799.90 0.2313
800.00 0.2312
800.10 0.2311
800.20 0.231
800.30 0.2309
800.40 0.2308
800.50 0.2307
800.60 0.2306
800.70 0.2305
800.80 0.2305
800.90 0.2304
801.00 0.2303
801.10 0.2302
801.20 0.2301
801.30 0.23
801.40 0.2299
801.50 0.2298
801.60 0.2297
801.70 0.2296
801.80 0.2295
801.90 0.2294
802.00 0.2293
802.10 0.2292
802.20 0.2291
802.30 0.229
802.40 0.2289
802.50 0.2288
802.60 0.2287
802.70 0.2286
802.80 0.2285
802.90 0.2284
803.00 0.2284
803.10 0.2283
803.20 0.2282
803.30 0.2281
803.40 0.228
803.50 0.2279
803.60 0.2278
803.70 0.2277
803.80 0.2276
803.90 0.2275
804.00 0.2274
804.10 0.2273
804.20 0.2272
804.30 0.2271
804.40 0.227
804.50 0.2269
804.60 0.2268
804.70 0.2267
804.80 0.2266
804.90 0.2266
805.00 0.2265
805.10 0.2264
805.20 0.2263
805.30 0.2262
805.40 0.2261
805.50 0.226
805.60 0.2259
805.70 0.2258
805.80 0.2257
805.90 0.2256
806.00 0.2255
806.10 0.2254
806.20 0.2253
806.30 0.2252
806.40 0.2251
806.50 0.225
806.60 0.225
806.70 0.2249
806.80 0.2248
806.90 0.2247
807.00 0.2246
807.10 0.2245
807.20 0.2244
807.30 0.2243
807.40 0.2242
807.50 0.2241
807.60 0.224
807.70 0.2239
807.80 0.2238
807.90 0.2237
808.00 0.2236
808.10 0.2236
808.20 0.2235
808.30 0.2234
808.40 0.2233
808.50 0.2232
808.60 0.2231
808.70 0.223
808.80 0.2229
808.90 0.2228
809.00 0.2227
809.10 0.2226
809.20 0.2225
809.30 0.2224
809.40 0.2223
809.50 0.2223
809.60 0.2222
809.70 0.2221
809.80 0.222
809.90 0.2219
810.00 0.2218
810.10 0.2217
810.20 0.2216
810.30 0.2215
810.40 0.2214
810.50 0.2213
810.60 0.2212
810.70 0.2212
810.80 0.2211
810.90 0.221
811.00 0.2209
811.10 0.2208
811.20 0.2207
811.30 0.2206
811.40 0.2205
811.50 0.2204
811.60 0.2203
811.70 0.2202
811.80 0.2202
811.90 0.2201
812.00 0.22
812.10 0.2199
812.20 0.2198
812.30 0.2197
812.40 0.2196
812.50 0.2195
812.60 0.2194
812.70 0.2193
812.80 0.2192
812.90 0.2192
813.00 0.2191
813.10 0.219
813.20 0.2189
813.30 0.2188
813.40 0.2187
813.50 0.2186
813.60 0.2185
813.70 0.2184
813.80 0.2183
813.90 0.2183
814.00 0.2182
814.10 0.2181
814.20 0.218
814.30 0.2179
814.40 0.2178
814.50 0.2177
814.60 0.2176
814.70 0.2175
814.80 0.2174
814.90 0.2174
815.00 0.2173
815.10 0.2172
815.20 0.2171
815.30 0.217
815.40 0.2169
815.50 0.2168
815.60 0.2167
815.70 0.2166
815.80 0.2166
815.90 0.2165
816.00 0.2164
816.10 0.2163
816.20 0.2162
816.30 0.2161
816.40 0.216
816.50 0.2159
816.60 0.2158
816.70 0.2158
816.80 0.2157
816.90 0.2156
817.00 0.2155
817.10 0.2154
817.20 0.2153
817.30 0.2152
817.40 0.2151
817.50 0.215
817.60 0.215
817.70 0.2149
817.80 0.2148
817.90 0.2147
818.00 0.2146
818.10 0.2145
818.20 0.2144
818.30 0.2143
818.40 0.2142
818.50 0.2142
818.60 0.2141
818.70 0.214
818.80 0.2139
818.90 0.2138
819.00 0.2137
819.10 0.2136
819.20 0.2135
819.30 0.2135
819.40 0.2134
819.50 0.2133
819.60 0.2132
819.70 0.2131
819.80 0.213
819.90 0.2129
820.00 0.2128
820.10 0.2128
820.20 0.2127
820.30 0.2126
820.40 0.2125
820.50 0.2124
820.60 0.2123
820.70 0.2122
820.80 0.2121
820.90 0.2121
821.00 0.212
821.10 0.2119
821.20 0.2118
821.30 0.2117
821.40 0.2116
821.50 0.2115
821.60 0.2115
821.70 0.2114
821.80 0.2113
821.90 0.2112
822.00 0.2111
822.10 0.211
822.20 0.2109
822.30 0.2108
822.40 0.2108
822.50 0.2107
822.60 0.2106
822.70 0.2105
822.80 0.2104
822.90 0.2103
823.00 0.2102
823.10 0.2102
823.20 0.2101
823.30 0.21
823.40 0.2099
823.50 0.2098
823.60 0.2097
823.70 0.2096
823.80 0.2096
823.90 0.2095
824.00 0.2094
824.10 0.2093
824.20 0.2092
824.30 0.2091
824.40 0.2091
824.50 0.209
824.60 0.2089
824.70 0.2088
824.80 0.2087
824.90 0.2086
825.00 0.2085
825.10 0.2085
825.20 0.2084
825.30 0.2083
825.40 0.2082
825.50 0.2081
825.60 0.208
825.70 0.2079
825.80 0.2079
825.90 0.2078
826.00 0.2077
826.10 0.2076
826.20 0.2075
826.30 0.2074
826.40 0.2074
826.50 0.2073
826.60 0.2072
826.70 0.2071
826.80 0.207
826.90 0.2069
827.00 0.2068
827.10 0.2068
827.20 0.2067
827.30 0.2066
827.40 0.2065
827.50 0.2064
827.60 0.2063
827.70 0.2063
827.80 0.2062
827.90 0.2061
828.00 0.206
828.10 0.2059
828.20 0.2058
828.30 0.2058
828.40 0.2057
828.50 0.2056
828.60 0.2055
828.70 0.2054
828.80 0.2053
828.90 0.2053
829.00 0.2052
829.10 0.2051
829.20 0.205
829.30 0.2049
829.40 0.2048
829.50 0.2048
829.60 0.2047
829.70 0.2046
829.80 0.2045
829.90 0.2044
830.00 0.2043
830.10 0.2043
830.20 0.2042
830.30 0.2041
830.40 0.204
830.50 0.2039
830.60 0.2038
830.70 0.2038
830.80 0.2037
830.90 0.2036
831.00 0.2035
831.10 0.2034
831.20 0.2033
831.30 0.2033
831.40 0.2032
831.50 0.2031
831.60 0.203
831.70 0.2029
831.80 0.2029
831.90 0.2028
832.00 0.2027
832.10 0.2026
832.20 0.2025
832.30 0.2024
832.40 0.2024
832.50 0.2023
832.60 0.2022
832.70 0.2021
832.80 0.202
832.90 0.202
833.00 0.2019
833.10 0.2018
833.20 0.2017
833.30 0.2016
833.40 0.2015
833.50 0.2015
833.60 0.2014
833.70 0.2013
833.80 0.2012
833.90 0.2011
834.00 0.2011
834.10 0.201
834.20 0.2009
834.30 0.2008
834.40 0.2007
834.50 0.2007
834.60 0.2006
834.70 0.2005
834.80 0.2004
834.90 0.2003
835.00 0.2002
835.10 0.2002
835.20 0.2001
835.30 0.2
835.40 0.1999
835.50 0.1998
835.60 0.1998
835.70 0.1997
835.80 0.1996
835.90 0.1995
836.00 0.1994
836.10 0.1994
836.20 0.1993
836.30 0.1992
836.40 0.1991
836.50 0.199
836.60 0.199
836.70 0.1989
836.80 0.1988
836.90 0.1987
837.00 0.1986
837.10 0.1986
837.20 0.1985
837.30 0.1984
837.40 0.1983
837.50 0.1982
837.60 0.1982
837.70 0.1981
837.80 0.198
837.90 0.1979
838.00 0.1978
838.10 0.1978
838.20 0.1977
838.30 0.1976
838.40 0.1975
838.50 0.1974
838.60 0.1974
838.70 0.1973
838.80 0.1972
838.90 0.1971
839.00 0.197
839.10 0.197
839.20 0.1969
839.30 0.1968
839.40 0.1967
839.50 0.1966
839.60 0.1966
839.70 0.1965
839.80 0.1964
839.90 0.1963
840.00 0.1963
840.10 0.1962
840.20 0.1961
840.30 0.196
840.40 0.1959
840.50 0.1959
840.60 0.1958
840.70 0.1957
840.80 0.1956
840.90 0.1955
841.00 0.1955
841.10 0.1954
841.20 0.1953
841.30 0.1952
841.40 0.1952
841.50 0.1951
841.60 0.195
841.70 0.1949
841.80 0.1948
841.90 0.1948
842.00 0.1947
842.10 0.1946
842.20 0.1945
842.30 0.1944
842.40 0.1944
842.50 0.1943
842.60 0.1942
842.70 0.1941
842.80 0.1941
842.90 0.194
843.00 0.1939
843.10 0.1938
843.20 0.1937
843.30 0.1937
843.40 0.1936
843.50 0.1935
843.60 0.1934
843.70 0.1934
843.80 0.1933
843.90 0.1932
844.00 0.1931
844.10 0.193
844.20 0.193
844.30 0.1929
844.40 0.1928
844.50 0.1927
844.60 0.1927
844.70 0.1926
844.80 0.1925
844.90 0.1924
845.00 0.1923
845.10 0.1923
845.20 0.1922
845.30 0.1921
845.40 0.192
845.50 0.192
845.60 0.1919
845.70 0.1918
845.80 0.1917
845.90 0.1916
846.00 0.1916
846.10 0.1915
846.20 0.1914
846.30 0.1913
846.40 0.1913
846.50 0.1912
846.60 0.1911
846.70 0.191
846.80 0.191
846.90 0.1909
847.00 0.1908
847.10 0.1907
847.20 0.1907
847.30 0.1906
847.40 0.1906
847.50 0.1905
847.60 0.1904
847.70 0.1904
847.80 0.1903
847.90 0.1902
848.00 0.1902
848.10 0.1901
848.20 0.1901
848.30 0.19
848.40 0.1899
848.50 0.1899
848.60 0.1898
848.70 0.1898
848.80 0.1897
848.90 0.1896
849.00 0.1896
849.10 0.1895
849.20 0.1894
849.30 0.1894
849.40 0.1893
849.50 0.1893
849.60 0.1892
849.70 0.1891
849.80 0.1891
849.90 0.189
850.00 0.189
850.10 0.1889
850.20 0.1888
850.30 0.1888
850.40 0.1887
850.50 0.1887
850.60 0.1886
850.70 0.1885
850.80 0.1885
850.90 0.1884
851.00 0.1883
851.10 0.1883
851.20 0.1882
851.30 0.1882
851.40 0.1881
851.50 0.188
851.60 0.188
851.70 0.1879
851.80 0.1879
851.90 0.1878
852.00 0.1877
852.10 0.1877
852.20 0.1876
852.30 0.1876
852.40 0.1875
852.50 0.1874
852.60 0.1874
852.70 0.1873
852.80 0.1872
852.90 0.1872
853.00 0.1871
853.10 0.1871
853.20 0.187
853.30 0.1869
853.40 0.1869
853.50 0.1868
853.60 0.1868
853.70 0.1867
853.80 0.1866
853.90 0.1866
854.00 0.1865
854.10 0.1864
854.20 0.1864
854.30 0.1863
854.40 0.1863
854.50 0.1862
854.60 0.1861
854.70 0.1861
854.80 0.186
854.90 0.186
855.00 0.1859
855.10 0.1858
855.20 0.1858
855.30 0.1857
855.40 0.1857
855.50 0.1856
855.60 0.1855
855.70 0.1855
855.80 0.1854
855.90 0.1853
856.00 0.1853
856.10 0.1852
856.20 0.1852
856.30 0.1851
856.40 0.185
856.50 0.185
856.60 0.1849
856.70 0.1849
856.80 0.1848
856.90 0.1847
857.00 0.1847
857.10 0.1846
857.20 0.1846
857.30 0.1845
857.40 0.1845
857.50 0.1844
857.60 0.1843
857.70 0.1843
857.80 0.1842
857.90 0.1842
858.00 0.1841
858.10 0.1841
858.20 0.184
858.30 0.1839
858.40 0.1839
858.50 0.1838
858.60 0.1838
858.70 0.1837
858.80 0.1837
858.90 0.1836
859.00 0.1836
859.10 0.1835
859.20 0.1834
859.30 0.1834
859.40 0.1833
859.50 0.1833
859.60 0.1832
859.70 0.1832
859.80 0.1831
859.90 0.1831
860.00 0.183
860.10 0.1829
860.20 0.1829
860.30 0.1828
860.40 0.1828
860.50 0.1827
860.60 0.1827
860.70 0.1826
860.80 0.1826
860.90 0.1825
861.00 0.1824
861.10 0.1824
861.20 0.1823
861.30 0.1823
861.40 0.1822
861.50 0.1822
861.60 0.1821
861.70 0.1821
861.80 0.182
861.90 0.1819
862.00 0.1819
862.10 0.1818
862.20 0.1818
862.30 0.1817
862.40 0.1816
862.50 0.1816
862.60 0.1815
862.70 0.1814
862.80 0.1814
862.90 0.1813
863.00 0.1812
863.10 0.1812
863.20 0.1811
863.30 0.181
863.40 0.181
863.50 0.1809
863.60 0.1808
863.70 0.1808
863.80 0.1807
863.90 0.1806
864.00 0.1806
864.10 0.1805
864.20 0.1805
864.30 0.1804
864.40 0.1803
864.50 0.1803
864.60 0.1802
864.70 0.1801
864.80 0.1801
864.90 0.18
865.00 0.1799
865.10 0.1799
865.20 0.1798
865.30 0.1797
865.40 0.1797
865.50 0.1796
865.60 0.1795
865.70 0.1795
865.80 0.1794
865.90 0.1793
866.00 0.1793
866.10 0.1792
866.20 0.1791
866.30 0.1791
866.40 0.179
866.50 0.179
866.60 0.1789
866.70 0.1788
866.80 0.1788
866.90 0.1787
867.00 0.1786
867.10 0.1786
867.20 0.1786
867.30 0.1785
867.40 0.1785
867.50 0.1785
867.60 0.1784
867.70 0.1784
867.80 0.1784
867.90 0.1783
868.00 0.1783
868.10 0.1783
868.20 0.1782
868.30 0.1782
868.40 0.1782
868.50 0.1781
868.60 0.1781
868.70 0.1781
868.80 0.178
868.90 0.178
869.00 0.178
869.10 0.1779
869.20 0.1779
869.30 0.1779
869.40 0.1779
869.50 0.1778
869.60 0.1778
869.70 0.1778
869.80 0.1777
869.90 0.1777
870.00 0.1777
870.10 0.1776
870.20 0.1776
870.30 0.1776
870.40 0.1775
870.50 0.1775
870.60 0.1775
870.70 0.1774
870.80 0.1774
870.90 0.1774
871.00 0.1773
871.10 0.1773
871.20 0.1773
871.30 0.1772
871.40 0.1772
871.50 0.1772
871.60 0.1771
871.70 0.1771
871.80 0.1771
871.90 0.177
872.00 0.177
872.10 0.1769
872.20 0.1769
872.30 0.1768
872.40 0.1767
872.50 0.1766
872.60 0.1766
872.70 0.1765
872.80 0.1764
872.90 0.1764
873.00 0.1763
873.10 0.1762
873.20 0.1761
873.30 0.1761
873.40 0.176
873.50 0.1759
873.60 0.1758
873.70 0.1758
873.80 0.1757
873.90 0.1756
874.00 0.1755
874.10 0.1755
874.20 0.1754
874.30 0.1753
874.40 0.1753
874.50 0.1752
874.60 0.1751
874.70 0.175
874.80 0.175
874.90 0.1749
875.00 0.1748
875.10 0.1747
875.20 0.1747
875.30 0.1746
875.40 0.1745
875.50 0.1744
875.60 0.1744
875.70 0.1743
875.80 0.1742
875.90 0.1742
876.00 0.1741
876.10 0.174
876.20 0.1739
876.30 0.1739
876.40 0.1738
876.50 0.1737
876.60 0.1737
876.70 0.1736
876.80 0.1735
876.90 0.1734
877.00 0.1734
877.10 0.1733
877.20 0.1733
877.30 0.1733
877.40 0.1733
877.50 0.1732
877.60 0.1732
877.70 0.1732
877.80 0.1732
877.90 0.1731
878.00 0.1731
878.10 0.1731
878.20 0.1731
878.30 0.1731
878.40 0.173
878.50 0.173
878.60 0.173
878.70 0.173
878.80 0.1729
878.90 0.1729
879.00 0.1729
879.10 0.1729
879.20 0.1728
879.30 0.1728
879.40 0.1728
879.50 0.1728
879.60 0.1727
879.70 0.1727
879.80 0.1727
879.90 0.1727
880.00 0.1727
880.10 0.1726
880.20 0.1726
880.30 0.1726
880.40 0.1726
880.50 0.1725
880.60 0.1725
880.70 0.1725
880.80 0.1725
880.90 0.1724
881.00 0.1724
881.10 0.1724
881.20 0.1724
881.30 0.1723
881.40 0.1723
881.50 0.1723
881.60 0.1723
881.70 0.1723
881.80 0.1722
881.90 0.1722
882.00 0.1722
882.10 0.172
882.20 0.1718
882.30 0.1716
882.40 0.1714
882.50 0.1713
882.60 0.1711
882.70 0.1709
882.80 0.1707
882.90 0.1705
883.00 0.1703
883.10 0.1701
883.20 0.17
883.30 0.1698
883.40 0.1696
883.50 0.1694
883.60 0.1692
883.70 0.169
883.80 0.1689
883.90 0.1687
884.00 0.1685
884.10 0.1683
884.20 0.1681
884.30 0.1679
884.40 0.1678
884.50 0.1676
884.60 0.1674
884.70 0.1672
884.80 0.167
884.90 0.1668
885.00 0.1666
885.10 0.1665
885.20 0.1663
885.30 0.1661
885.40 0.1659
885.50 0.1657
885.60 0.1656
885.70 0.1654
885.80 0.1652
885.90 0.165
886.00 0.1648
886.10 0.1646
886.20 0.1645
886.30 0.1643
886.40 0.1641
886.50 0.1639
886.60 0.1637
886.70 0.1635
886.80 0.1634
886.90 0.1632
887.00 0.163
887.10 0.1631
887.20 0.1632
887.30 0.1633
887.40 0.1634
887.50 0.1634
887.60 0.1635
887.70 0.1636
887.80 0.1637
887.90 0.1638
888.00 0.1639
888.10 0.164
888.20 0.1641
888.30 0.1642
888.40 0.1643
888.50 0.1643
888.60 0.1644
888.70 0.1645
888.80 0.1646
888.90 0.1647
889.00 0.1648
889.10 0.1649
889.20 0.165
889.30 0.1651
889.40 0.1652
889.50 0.1652
889.60 0.1653
889.70 0.1654
889.80 0.1655
889.90 0.1656
890.00 0.1657
890.10 0.1658
890.20 0.1659
890.30 0.166
890.40 0.166
890.50 0.1661
890.60 0.1662
890.70 0.1663
890.80 0.1664
890.90 0.1665
891.00 0.1666
891.10 0.1667
891.20 0.1668
891.30 0.1668
891.40 0.1669
891.50 0.167
891.60 0.1671
891.70 0.1672
891.80 0.1673
891.90 0.1674
892.00 0.1675
892.10 0.1674
892.20 0.1673
892.30 0.1672
892.40 0.1672
892.50 0.1671
892.60 0.167
892.70 0.1669
892.80 0.1668
892.90 0.1668
893.00 0.1667
893.10 0.1666
893.20 0.1665
893.30 0.1665
893.40 0.1664
893.50 0.1663
893.60 0.1662
893.70 0.1662
893.80 0.1661
893.90 0.166
894.00 0.1659
894.10 0.1659
894.20 0.1658
894.30 0.1657
894.40 0.1656
894.50 0.1655
894.60 0.1655
894.70 0.1654
894.80 0.1653
894.90 0.1652
895.00 0.1652
895.10 0.1651
895.20 0.165
895.30 0.1649
895.40 0.1649
895.50 0.1648
895.60 0.1647
895.70 0.1646
895.80 0.1646
895.90 0.1645
896.00 0.1644
896.10 0.1643
896.20 0.1643
896.30 0.1642
896.40 0.1641
896.50 0.164
896.60 0.164
896.70 0.1639
896.80 0.1638
896.90 0.1637
897.00 0.1637
897.10 0.1633
897.20 0.163
897.30 0.1626
897.40 0.1623
897.50 0.162
897.60 0.1616
897.70 0.1613
897.80 0.161
897.90 0.1606
898.00 0.1603
898.10 0.16
898.20 0.1596
898.30 0.1593
898.40 0.1589
898.50 0.1586
898.60 0.1583
898.70 0.1579
898.80 0.1576
898.90 0.1573
899.00 0.1569
899.10 0.1566
899.20 0.1563
899.30 0.1559
899.40 0.1556
899.50 0.1553
899.60 0.1549
899.70 0.1546
899.80 0.1543
899.90 0.1539
900.00 0.1536
900.10 0.1533
900.20 0.1529
900.30 0.1526
900.40 0.1523
900.50 0.1519
900.60 0.1516
900.70 0.1513
900.80 0.1509
900.90 0.1506
901.00 0.1503
901.10 0.15
901.20 0.1496
901.30 0.1493
901.40 0.149
901.50 0.1486
901.60 0.1483
901.70 0.148
901.80 0.1476
901.90 0.1473
902.00 0.147
902.10 0.1472
902.20 0.1474
902.30 0.1476
902.40 0.1478
902.50 0.148
902.60 0.1482
902.70 0.1484
902.80 0.1486
902.90 0.1488
903.00 0.149
903.10 0.1492
903.20 0.1494
903.30 0.1496
903.40 0.1498
903.50 0.15
903.60 0.1502
903.70 0.1504
903.80 0.1506
903.90 0.1508
904.00 0.151
904.10 0.1512
904.20 0.1514
904.30 0.1516
904.40 0.1518
904.50 0.152
904.60 0.1522
904.70 0.1524
904.80 0.1526
904.90 0.1528
905.00 0.153
905.10 0.1532
905.20 0.1534
905.30 0.1536
905.40 0.1538
905.50 0.154
905.60 0.1542
905.70 0.1544
905.80 0.1546
905.90 0.1548
906.00 0.155
906.10 0.1552
906.20 0.1554
906.30 0.1556
906.40 0.1558
906.50 0.156
906.60 0.1562
906.70 0.1564
906.80 0.1566
906.90 0.1568
907.00 0.157
907.10 0.157
907.20 0.157
907.30 0.157
907.40 0.157
907.50 0.1571
907.60 0.1571
907.70 0.1571
907.80 0.1571
907.90 0.1571
908.00 0.1571
908.10 0.1572
908.20 0.1572
908.30 0.1572
908.40 0.1572
908.50 0.1572
908.60 0.1572
908.70 0.1573
908.80 0.1573
908.90 0.1573
909.00 0.1573
909.10 0.1573
909.20 0.1573
909.30 0.1574
909.40 0.1574
909.50 0.1574
909.60 0.1574
909.70 0.1574
909.80 0.1574
909.90 0.1575
910.00 0.1575
910.10 0.1575
910.20 0.1575
910.30 0.1575
910.40 0.1575
910.50 0.1576
910.60 0.1576
910.70 0.1576
910.80 0.1576
910.90 0.1576
911.00 0.1576
911.10 0.1577
911.20 0.1577
911.30 0.1577
911.40 0.1577
911.50 0.1577
911.60 0.1577
911.70 0.1578
911.80 0.1578
911.90 0.1578
912.00 0.1578
912.10 0.1576
912.20 0.1575
912.30 0.1573
912.40 0.1572
912.50 0.157
912.60 0.1569
912.70 0.1567
912.80 0.1566
912.90 0.1564
913.00 0.1563
913.10 0.1561
913.20 0.156
913.30 0.1558
913.40 0.1557
913.50 0.1556
913.60 0.1554
913.70 0.1553
913.80 0.1551
913.90 0.155
914.00 0.1548
914.10 0.1547
914.20 0.1545
914.30 0.1544
914.40 0.1542
914.50 0.1541
914.60 0.1539
914.70 0.1538
914.80 0.1536
914.90 0.1535
915.00 0.1533
915.10 0.1532
915.20 0.153
915.30 0.1529
915.40 0.1527
915.50 0.1526
915.60 0.1524
915.70 0.1523
915.80 0.1521
915.90 0.152
916.00 0.1518
916.10 0.1517
916.20 0.1515
916.30 0.1514
916.40 0.1512
916.50 0.1511
916.60 0.1509
916.70 0.1508
916.80 0.1507
916.90 0.1505
917.00 0.1504
917.10 0.1499
917.20 0.1495
917.30 0.149
917.40 0.1486
917.50 0.1482
917.60 0.1477
917.70 0.1473
917.80 0.1469
917.90 0.1464
918.00 0.146
918.10 0.1455
918.20 0.1451
918.30 0.1447
918.40 0.1442
918.50 0.1438
918.60 0.1434
918.70 0.1429
918.80 0.1425
918.90 0.1421
919.00 0.1416
919.10 0.1412
919.20 0.1408
919.30 0.1403
919.40 0.1399
919.50 0.1394
919.60 0.139
919.70 0.1386
919.80 0.1381
919.90 0.1377
920.00 0.1373
920.10 0.1368
920.20 0.1364
920.30 0.136
920.40 0.1355
920.50 0.1351
920.60 0.1347
920.70 0.1343
920.80 0.1338
920.90 0.1334
921.00 0.133
921.10 0.1325
921.20 0.1321
921.30 0.1317
921.40 0.1312
921.50 0.1308
921.60 0.1304
921.70 0.1299
921.80 0.1295
921.90 0.1291
922.00 0.1287
922.10 0.1288
922.20 0.1289
922.30 0.129
922.40 0.1291
922.50 0.1292
922.60 0.1293
922.70 0.1294
922.80 0.1295
922.90 0.1296
923.00 0.1297
923.10 0.1298
923.20 0.1299
923.30 0.13
923.40 0.1301
923.50 0.1302
923.60 0.1303
923.70 0.1304
923.80 0.1305
923.90 0.1306
924.00 0.1307
924.10 0.1308
924.20 0.1309
924.30 0.131
924.40 0.1311
924.50 0.1313
924.60 0.1314
924.70 0.1315
924.80 0.1316
924.90 0.1317
925.00 0.1318
925.10 0.1319
925.20 0.132
925.30 0.1321
925.40 0.1322
925.50 0.1323
925.60 0.1324
925.70 0.1325
925.80 0.1326
925.90 0.1327
926.00 0.1328
926.10 0.1329
926.20 0.133
926.30 0.1331
926.40 0.1332
926.50 0.1333
926.60 0.1334
926.70 0.1335
926.80 0.1336
926.90 0.1337
927.00 0.1338
927.10 0.134
927.20 0.1342
927.30 0.1344
927.40 0.1345
927.50 0.1347
927.60 0.1349
927.70 0.1351
927.80 0.1353
927.90 0.1355
928.00 0.1356
928.10 0.1358
928.20 0.136
928.30 0.1362
928.40 0.1364
928.50 0.1365
928.60 0.1367
928.70 0.1369
928.80 0.1371
928.90 0.1373
929.00 0.1374
929.10 0.1376
929.20 0.1378
929.30 0.138
929.40 0.1382
929.50 0.1383
929.60 0.1385
929.70 0.1387
929.80 0.1389
929.90 0.1391
930.00 0.1392
930.10 0.1394
930.20 0.1396
930.30 0.1398
930.40 0.14
930.50 0.1401
930.60 0.1403
930.70 0.1405
930.80 0.1407
930.90 0.1409
931.00 0.141
931.10 0.1412
931.20 0.1414
931.30 0.1416
931.40 0.1417
931.50 0.1419
931.60 0.1421
931.70 0.1423
931.80 0.1425
931.90 0.1426
932.00 0.1428
932.10 0.1429
932.20 0.1429
932.30 0.143
932.40 0.143
932.50 0.1431
932.60 0.1431
932.70 0.1432
932.80 0.1433
932.90 0.1433
933.00 0.1434
933.10 0.1434
933.20 0.1435
933.30 0.1435
933.40 0.1436
933.50 0.1436
933.60 0.1437
933.70 0.1437
933.80 0.1438
933.90 0.1439
934.00 0.1439
934.10 0.144
934.20 0.144
934.30 0.1441
934.40 0.1441
934.50 0.1441
934.60 0.1441
934.70 0.1441
934.80 0.1441
934.90 0.1441
935.00 0.1441
935.10 0.1441
935.20 0.1441
935.30 0.1441
935.40 0.1441
935.50 0.1441
935.60 0.144
935.70 0.144
935.80 0.144
935.90 0.144
936.00 0.144
936.10 0.144
936.20 0.144
936.30 0.144
936.40 0.144
936.50 0.144
936.60 0.144
936.70 0.144
936.80 0.144
936.90 0.144
937.00 0.144
937.10 0.144
937.20 0.144
937.30 0.1439
937.40 0.1439
937.50 0.1438
937.60 0.1438
937.70 0.1438
937.80 0.1437
937.90 0.1437
938.00 0.1436
938.10 0.1436
938.20 0.1436
938.30 0.1435
938.40 0.1435
938.50 0.1434
938.60 0.1433
938.70 0.1433
938.80 0.1432
938.90 0.1431
939.00 0.1431
939.10 0.143
939.20 0.1429
939.30 0.1429
939.40 0.1428
939.50 0.1427
939.60 0.1427
939.70 0.1426
939.80 0.1425
939.90 0.1425
940.00 0.1424
940.10 0.1423
940.20 0.1423
940.30 0.1422
940.40 0.1421
940.50 0.142
940.60 0.1419
940.70 0.1418
940.80 0.1417
940.90 0.1416
941.00 0.1415
941.10 0.1414
941.20 0.1413
941.30 0.1412
941.40 0.1411
941.50 0.141
941.60 0.1409
941.70 0.1408
941.80 0.1407
941.90 0.1405
942.00 0.1404
942.10 0.1403
942.20 0.1402
942.30 0.1401
942.40 0.1399
942.50 0.1397
942.60 0.1396
942.70 0.1394
942.80 0.1393
942.90 0.1391
943.00 0.1389
943.10 0.1388
943.20 0.1386
943.30 0.1385
943.40 0.1383
943.50 0.1381
943.60 0.138
943.70 0.1378
943.80 0.1377
943.90 0.1375
944.00 0.1373
944.10 0.1372
944.20 0.137
944.30 0.1369
944.40 0.1367
944.50 0.1365
944.60 0.1362
944.70 0.136
944.80 0.1358
944.90 0.1356
945.00 0.1354
945.10 0.1352
945.20 0.135
945.30 0.1348
945.40 0.1345
945.50 0.1342
945.60 0.134
945.70 0.1337
945.80 0.1335
945.90 0.1332
946.00 0.1329
946.10 0.1327
946.20 0.1324
946.30 0.1321
946.40 0.1319
946.50 0.1316
946.60 0.1314
946.70 0.1311
946.80 0.1308
946.90 0.1306
947.00 0.1303
947.10 0.13
947.20 0.1297
947.30 0.1294
947.40 0.129
947.50 0.1287
947.60 0.1283
947.70 0.128
947.80 0.1276
947.90 0.1273
948.00 0.1269
948.10 0.1266
948.20 0.1262
948.30 0.1258
948.40 0.1255
948.50 0.1251
948.60 0.1248
948.70 0.1244
948.80 0.1241
948.90 0.1237
949.00 0.1234
949.10 0.123
949.20 0.1227
949.30 0.1223
949.40 0.1219
949.50 0.1214
949.60 0.121
949.70 0.1206
949.80 0.1202
949.90 0.1197
950.00 0.1193
950.10 0.1189
950.20 0.1184
950.30 0.118
950.40 0.1176
950.50 0.1171
950.60 0.1167
950.70 0.1163
950.80 0.1159
950.90 0.1154
951.00 0.115
951.10 0.1146
951.20 0.1141
951.30 0.1137
951.40 0.1133
951.50 0.1128
951.60 0.1123
951.70 0.1119
951.80 0.1114
951.90 0.1109
952.00 0.1105
952.10 0.11
952.20 0.1096
952.30 0.1091
952.40 0.1087
952.50 0.1082
952.60 0.1078
952.70 0.1073
952.80 0.1069
952.90 0.1065
953.00 0.1061
953.10 0.1057
953.20 0.1054
953.30 0.105
953.40 0.1046
953.50 0.1042
953.60 0.1042
953.70 0.1041
953.80 0.104
953.90 0.104
954.00 0.1045
954.10 0.1051
954.20 0.1064
954.30 0.1076
954.40 0.1056
954.50 0.1043
954.60 0.1038
954.70 0.1032
954.80 0.1033
954.90 0.1033
955.00 0.1033
955.10 0.1034
955.20 0.1037
955.30 0.104
955.40 0.1043
955.50 0.1045
955.60 0.1048
955.70 0.1051
955.80 0.1054
955.90 0.1058
956.00 0.1061
956.10 0.1065
956.20 0.1069
956.30 0.1072
956.40 0.1076
956.50 0.108
956.60 0.1083
956.70 0.1087
956.80 0.109
956.90 0.1094
957.00 0.1098
957.10 0.1101
957.20 0.1105
957.30 0.1108
957.40 0.1111
957.50 0.1114
957.60 0.1117
957.70 0.112
957.80 0.1124
957.90 0.1127
958.00 0.113
958.10 0.1133
958.20 0.1136
958.30 0.1139
958.40 0.1142
958.50 0.1145
958.60 0.1148
958.70 0.1151
958.80 0.1154
958.90 0.1157
959.00 0.116
959.10 0.1163
959.20 0.1167
959.30 0.117
959.40 0.1172
959.50 0.1174
959.60 0.1176
959.70 0.1179
959.80 0.1181
959.90 0.1183
960.00 0.1185
960.10 0.1187
960.20 0.119
960.30 0.1192
960.40 0.1194
960.50 0.1196
960.60 0.1199
960.70 0.1201
960.80 0.1203
960.90 0.1205
961.00 0.1208
961.10 0.121
961.20 0.1212
961.30 0.1214
961.40 0.1216
961.50 0.1218
961.60 0.1219
961.70 0.1221
961.80 0.1223
961.90 0.1225
962.00 0.1226
962.10 0.1228
962.20 0.1229
962.30 0.1231
962.40 0.1232
962.50 0.1233
962.60 0.1235
962.70 0.1236
962.80 0.1238
962.90 0.1239
963.00 0.124
963.10 0.1242
963.20 0.1243
963.30 0.1245
963.40 0.1246
963.50 0.1247
963.60 0.1248
963.70 0.1249
963.80 0.125
963.90 0.1251
964.00 0.1252
964.10 0.1254
964.20 0.1255
964.30 0.1256
964.40 0.1256
964.50 0.1257
964.60 0.1258
964.70 0.1259
964.80 0.126
964.90 0.126
965.00 0.1261
965.10 0.1262
965.20 0.1263
965.30 0.1263
965.40 0.1264
965.50 0.1265
965.60 0.1266
965.70 0.1266
965.80 0.1267
965.90 0.1268
966.00 0.1269
966.10 0.1269
966.20 0.127
966.30 0.1271
966.40 0.1272
966.50 0.1272
966.60 0.1273
966.70 0.1273
966.80 0.1274
966.90 0.1274
967.00 0.1275
967.10 0.1275
967.20 0.1275
967.30 0.1276
967.40 0.1276
967.50 0.1277
967.60 0.1277
967.70 0.1277
967.80 0.1278
967.90 0.1278
968.00 0.1278
968.10 0.1279
968.20 0.1279
968.30 0.1279
968.40 0.128
968.50 0.128
968.60 0.128
968.70 0.128
968.80 0.128
968.90 0.1281
969.00 0.1281
969.10 0.1281
969.20 0.1281
969.30 0.1281
969.40 0.1281
969.50 0.1282
969.60 0.1282
969.70 0.1282
969.80 0.1282
969.90 0.1282
970.00 0.1282
970.10 0.1283
970.20 0.1283
970.30 0.1283
970.40 0.1283
970.50 0.1283
970.60 0.1283
970.70 0.1283
970.80 0.1283
970.90 0.1283
971.00 0.1283
971.10 0.1283
971.20 0.1283
971.30 0.1283
971.40 0.1283
971.50 0.1283
971.60 0.1283
971.70 0.1283
971.80 0.1283
971.90 0.1283
972.00 0.1283
972.10 0.1283
972.20 0.1283
972.30 0.1283
972.40 0.1282
972.50 0.1282
972.60 0.1282
972.70 0.1282
972.80 0.1282
972.90 0.1282
973.00 0.1282
973.10 0.1281
973.20 0.1281
973.30 0.1281
973.40 0.1281
973.50 0.1281
973.60 0.1281
973.70 0.128
973.80 0.128
973.90 0.128
974.00 0.128
974.10 0.128
974.20 0.128
974.30 0.128
974.40 0.1279
974.50 0.1279
974.60 0.1279
974.70 0.1278
974.80 0.1278
974.90 0.1278
975.00 0.1278
975.10 0.1277
975.20 0.1277
975.30 0.1277
975.40 0.1276
975.50 0.1276
975.60 0.1276
975.70 0.1275
975.80 0.1275
975.90 0.1275
976.00 0.1275
976.10 0.1274
976.20 0.1274
976.30 0.1274
976.40 0.1273
976.50 0.1273
976.60 0.1273
976.70 0.1273
976.80 0.1272
976.90 0.1272
977.00 0.1272
977.10 0.1271
977.20 0.1271
977.30 0.127
977.40 0.127
977.50 0.1269
977.60 0.1269
977.70 0.1268
977.80 0.1268
977.90 0.1267
978.00 0.1267
978.10 0.1266
978.20 0.1266
978.30 0.1266
978.40 0.1265
978.50 0.1265
978.60 0.1264
978.70 0.1264
978.80 0.1263
978.90 0.1263
979.00 0.1262
979.10 0.1262
979.20 0.1261
979.30 0.1261
979.40 0.126
979.50 0.126
979.60 0.1259
979.70 0.1259
979.80 0.1258
979.90 0.1258
980.00 0.1258
980.10 0.1257
980.20 0.1257
980.30 0.1256
980.40 0.1256
980.50 0.1255
980.60 0.1255
980.70 0.1254
980.80 0.1254
980.90 0.1253
981.00 0.1253
981.10 0.1252
981.20 0.1252
981.30 0.1251
981.40 0.1251
981.50 0.1251
981.60 0.125
981.70 0.125
981.80 0.1249
981.90 0.1249
982.00 0.1248
982.10 0.1248
982.20 0.1247
982.30 0.1246
982.40 0.1246
982.50 0.1245
982.60 0.1244
982.70 0.1244
982.80 0.1243
982.90 0.1242
983.00 0.1242
983.10 0.1241
983.20 0.124
983.30 0.124
983.40 0.1239
983.50 0.1239
983.60 0.1238
983.70 0.1237
983.80 0.1237
983.90 0.1236
984.00 0.1235
984.10 0.1235
984.20 0.1234
984.30 0.1233
984.40 0.1233
984.50 0.1232
984.60 0.1231
984.70 0.1231
984.80 0.123
984.90 0.1229
985.00 0.1228
985.10 0.1227
985.20 0.1227
985.30 0.1226
985.40 0.1225
985.50 0.1224
985.60 0.1223
985.70 0.1223
985.80 0.1222
985.90 0.1221
986.00 0.122
986.10 0.1219
986.20 0.1219
986.30 0.1218
986.40 0.1217
986.50 0.1216
986.60 0.1215
986.70 0.1215
986.80 0.1214
986.90 0.1213
987.00 0.1212
987.10 0.1211
987.20 0.121
987.30 0.1209
987.40 0.1209
987.50 0.1208
987.60 0.1207
987.70 0.1206
987.80 0.1205
987.90 0.1204
988.00 0.1203
988.10 0.1202
988.20 0.1201
988.30 0.12
988.40 0.1199
988.50 0.1198
988.60 0.1197
988.70 0.1196
988.80 0.1195
988.90 0.1194
989.00 0.1193
989.10 0.1192
989.20 0.1191
989.30 0.119
989.40 0.1188
989.50 0.1187
989.60 0.1186
989.70 0.1185
989.80 0.1184
989.90 0.1183
990.00 0.1182
990.10 0.1181
990.20 0.118
990.30 0.1178
990.40 0.1177
990.50 0.1176
990.60 0.1175
990.70 0.1174
990.80 0.1172
990.90 0.1171
991.00 0.117
991.10 0.1169
991.20 0.1167
991.30 0.1166
991.40 0.1165
991.50 0.1163
991.60 0.1162
991.70 0.1161
991.80 0.1159
991.90 0.1158
992.00 0.1157
992.10 0.1155
992.20 0.1154
992.30 0.1152
992.40 0.1151
992.50 0.115
992.60 0.1148
992.70 0.1147
992.80 0.1145
992.90 0.1143
993.00 0.1142
993.10 0.114
993.20 0.1138
993.30 0.1137
993.40 0.1135
993.50 0.1133
993.60 0.1132
993.70 0.113
993.80 0.1128
993.90 0.1127
994.00 0.1125
994.10 0.1123
994.20 0.1122
994.30 0.112
994.40 0.1118
994.50 0.1117
994.60 0.1115
994.70 0.1113
994.80 0.1111
994.90 0.1109
995.00 0.1107
995.10 0.1106
995.20 0.1104
995.30 0.1102
995.40 0.11
995.50 0.1098
995.60 0.1096
995.70 0.1094
995.80 0.1091
995.90 0.1089
996.00 0.1087
996.10 0.1085
996.20 0.1083
996.30 0.108
996.40 0.1078
996.50 0.1076
996.60 0.1074
996.70 0.1072
996.80 0.1069
996.90 0.1067
997.00 0.1065
997.10 0.1062
997.20 0.106
997.30 0.1058
997.40 0.1055
997.50 0.1053
997.60 0.105
997.70 0.1047
997.80 0.1045
997.90 0.1042
998.00 0.1039
998.10 0.1036
998.20 0.1033
998.30 0.103
998.40 0.1028
998.50 0.1025
998.60 0.1022
998.70 0.1019
998.80 0.1016
998.90 0.1013
999.00 0.1011
999.10 0.1008
999.20 0.1005
999.30 0.1002
999.40 0.09993
999.50 0.09965
999.60 0.09936
999.70 0.09903
999.80 0.09869
999.90 0.09834
1000.00 0.098
1000.10 0.09765
1000.20 0.09731
1000.30 0.09696
1000.40 0.09662
1000.50 0.09627
1000.60 0.09593
1000.70 0.09558
1000.80 0.09524
1000.90 0.09489
1001.00 0.09455
1001.10 0.09421
1001.20 0.09386
1001.30 0.09352
1001.40 0.09317
1001.50 0.09283
1001.60 0.09249
1001.70 0.09211
1001.80 0.09173
1001.90 0.09135
1002.00 0.09097
1002.10 0.09056
1002.20 0.09015
1002.30 0.08974
1002.40 0.08933
1002.50 0.08892
1002.60 0.08852
1002.70 0.08811
1002.80 0.0877
1002.90 0.08729
1003.00 0.08689
1003.10 0.08648
1003.20 0.08605
1003.30 0.08562
1003.40 0.08519
1003.50 0.08476
1003.60 0.08432
1003.70 0.08389
1003.80 0.08346
1003.90 0.08305
1004.00 0.08264
1004.10 0.08223
1004.20 0.08183
1004.30 0.08157
1004.40 0.08135
1004.50 0.08139
1004.60 0.08238
1004.70 0.08166
1004.80 0.08118
1004.90 0.08133
1005.00 0.0815
1005.10 0.08181
1005.20 0.08216
1005.30 0.08252
1005.40 0.08287
1005.50 0.08324
1005.60 0.08362
1005.70 0.08399
1005.80 0.08437
1005.90 0.08475
1006.00 0.08512
1006.10 0.0855
1006.20 0.08586
1006.30 0.08621
1006.40 0.08656
1006.50 0.08691
1006.60 0.08726
1006.70 0.08761
1006.80 0.08796
1006.90 0.08831
1007.00 0.08867
1007.10 0.08899
1007.20 0.08931
1007.30 0.08963
1007.40 0.08995
1007.50 0.09027
1007.60 0.0906
1007.70 0.09088
1007.80 0.09116
1007.90 0.09143
1008.00 0.0917
1008.10 0.09198
1008.20 0.09225
1008.30 0.09253
1008.40 0.0928
1008.50 0.09307
1008.60 0.09335
1008.70 0.09362
1008.80 0.09389
1008.90 0.09417
1009.00 0.09444
1009.10 0.09471
1009.20 0.09499
1009.30 0.09526
1009.40 0.09553
1009.50 0.0958
1009.60 0.09608
1009.70 0.0963
1009.80 0.09651
1009.90 0.09671
1010.00 0.09692
1010.10 0.09712
1010.20 0.09733
1010.30 0.09754
1010.40 0.09774
1010.50 0.09795
1010.60 0.09815
1010.70 0.09836
1010.80 0.09857
1010.90 0.09877
1011.00 0.09898
1011.10 0.09918
1011.20 0.09939
1011.30 0.09959
1011.40 0.0998
1011.50 0.1
1011.60 0.1002
1011.70 0.1004
1011.80 0.1006
1011.90 0.1007
1012.00 0.1009
1012.10 0.101
1012.20 0.1012
1012.30 0.1013
1012.40 0.1015
1012.50 0.1016
1012.60 0.1018
1012.70 0.1019
1012.80 0.102
1012.90 0.1022
1013.00 0.1023
1013.10 0.1025
1013.20 0.1026
1013.30 0.1028
1013.40 0.1029
1013.50 0.103
1013.60 0.1032
1013.70 0.1033
1013.80 0.1034
1013.90 0.1035
1014.00 0.1036
1014.10 0.1038
1014.20 0.1039
1014.30 0.104
1014.40 0.1041
1014.50 0.1042
1014.60 0.1043
1014.70 0.1044
1014.80 0.1045
1014.90 0.1046
1015.00 0.1047
1015.10 0.1047
1015.20 0.1048
1015.30 0.1049
1015.40 0.105
1015.50 0.1051
1015.60 0.1052
1015.70 0.1052
1015.80 0.1053
1015.90 0.1054
1016.00 0.1055
1016.10 0.1056
1016.20 0.1057
1016.30 0.1057
1016.40 0.1058
1016.50 0.1059
1016.60 0.106
1016.70 0.1061
1016.80 0.1061
1016.90 0.1062
1017.00 0.1063
1017.10 0.1063
1017.20 0.1064
1017.30 0.1064
1017.40 0.1065
1017.50 0.1065
1017.60 0.1066
1017.70 0.1066
1017.80 0.1067
1017.90 0.1067
1018.00 0.1068
1018.10 0.1068
1018.20 0.1069
1018.30 0.1069
1018.40 0.107
1018.50 0.107
1018.60 0.1071
1018.70 0.1071
1018.80 0.1071
1018.90 0.1072
1019.00 0.1072
1019.10 0.1072
1019.20 0.1073
1019.30 0.1073
1019.40 0.1073
1019.50 0.1074
1019.60 0.1074
1019.70 0.1074
1019.80 0.1074
1019.90 0.1075
1020.00 0.1075
1020.10 0.1075
1020.20 0.1076
1020.30 0.1076
1020.40 0.1076
1020.50 0.1077
1020.60 0.1077
1020.70 0.1077
1020.80 0.1077
1020.90 0.1077
1021.00 0.1078
1021.10 0.1078
1021.20 0.1078
1021.30 0.1078
1021.40 0.1078
1021.50 0.1078
1021.60 0.1079
1021.70 0.1079
1021.80 0.1079
1021.90 0.1079
1022.00 0.1079
1022.10 0.1079
1022.20 0.1079
1022.30 0.1079
1022.40 0.1079
1022.50 0.1079
1022.60 0.108
1022.70 0.108
1022.80 0.108
1022.90 0.108
1023.00 0.108
1023.10 0.108
1023.20 0.108
1023.30 0.108
1023.40 0.108
1023.50 0.108
1023.60 0.108
1023.70 0.108
1023.80 0.108
1023.90 0.108
1024.00 0.108
1024.10 0.108
1024.20 0.108
1024.30 0.108
1024.40 0.108
1024.50 0.108
1024.60 0.108
1024.70 0.108
1024.80 0.108
1024.90 0.108
1025.00 0.108
1025.10 0.108
1025.20 0.108
1025.30 0.108
1025.40 0.108
1025.50 0.108
1025.60 0.108
1025.70 0.1079
1025.80 0.1079
1025.90 0.1079
1026.00 0.1079
1026.10 0.1079
1026.20 0.1079
1026.30 0.1079
1026.40 0.1079
1026.50 0.1079
1026.60 0.1079
1026.70 0.1079
1026.80 0.1079
1026.90 0.1078
1027.00 0.1078
1027.10 0.1078
1027.20 0.1078
1027.30 0.1078
1027.40 0.1078
1027.50 0.1077
1027.60 0.1077
1027.70 0.1077
1027.80 0.1077
1027.90 0.1077
1028.00 0.1077
1028.10 0.1076
1028.20 0.1076
1028.30 0.1076
1028.40 0.1076
1028.50 0.1076
1028.60 0.1075
1028.70 0.1075
1028.80 0.1075
1028.90 0.1075
1029.00 0.1075
1029.10 0.1075
1029.20 0.1074
1029.30 0.1074
1029.40 0.1074
1029.50 0.1074
1029.60 0.1074
1029.70 0.1073
1029.80 0.1073
1029.90 0.1073
1030.00 0.1073
1030.10 0.1073
1030.20 0.1072
1030.30 0.1072
1030.40 0.1072
1030.50 0.1072
1030.60 0.1072
1030.70 0.1072
1030.80 0.1071
1030.90 0.1071
1031.00 0.1071
1031.10 0.1071
1031.20 0.1071
1031.30 0.107
1031.40 0.107
1031.50 0.107
1031.60 0.107
1031.70 0.107
1031.80 0.107
1031.90 0.1069
1032.00 0.1069
1032.10 0.1069
1032.20 0.1069
1032.30 0.1068
1032.40 0.1068
1032.50 0.1068
1032.60 0.1068
1032.70 0.1067
1032.80 0.1067
1032.90 0.1067
1033.00 0.1067
1033.10 0.1066
1033.20 0.1066
1033.30 0.1066
1033.40 0.1065
1033.50 0.1065
1033.60 0.1065
1033.70 0.1065
1033.80 0.1064
1033.90 0.1064
1034.00 0.1064
1034.10 0.1064
1034.20 0.1063
1034.30 0.1063
1034.40 0.1063
1034.50 0.1063
1034.60 0.1062
1034.70 0.1062
1034.80 0.1062
1034.90 0.1062
1035.00 0.1061
1035.10 0.1061
1035.20 0.1061
1035.30 0.106
1035.40 0.106
1035.50 0.106
1035.60 0.106
1035.70 0.1059
1035.80 0.1059
1035.90 0.1059
1036.00 0.1059
1036.10 0.1058
1036.20 0.1058
1036.30 0.1058
1036.40 0.1058
1036.50 0.1057
1036.60 0.1057
1036.70 0.1057
1036.80 0.1057
1036.90 0.1056
1037.00 0.1056
1037.10 0.1056
1037.20 0.1055
1037.30 0.1055
1037.40 0.1055
1037.50 0.1054
1037.60 0.1054
1037.70 0.1054
1037.80 0.1054
1037.90 0.1053
1038.00 0.1053
1038.10 0.1053
1038.20 0.1052
1038.30 0.1052
1038.40 0.1052
1038.50 0.1051
1038.60 0.1051
1038.70 0.1051
1038.80 0.105
1038.90 0.105
1039.00 0.105
1039.10 0.105
1039.20 0.1049
1039.30 0.1049
1039.40 0.1049
1039.50 0.1048
1039.60 0.1048
1039.70 0.1048
1039.80 0.1047
1039.90 0.1047
1040.00 0.1047
1040.10 0.1046
1040.20 0.1046
1040.30 0.1046
1040.40 0.1046
1040.50 0.1045
1040.60 0.1045
1040.70 0.1045
1040.80 0.1044
1040.90 0.1044
1041.00 0.1044
1041.10 0.1043
1041.20 0.1043
1041.30 0.1043
1041.40 0.1042
1041.50 0.1042
1041.60 0.1042
1041.70 0.1042
1041.80 0.1041
1041.90 0.1041
1042.00 0.1041
1042.10 0.104
1042.20 0.104
1042.30 0.104
1042.40 0.1039
1042.50 0.1039
1042.60 0.1039
1042.70 0.1038
1042.80 0.1038
1042.90 0.1038
1043.00 0.1037
1043.10 0.1037
1043.20 0.1037
1043.30 0.1036
1043.40 0.1036
1043.50 0.1036
1043.60 0.1035
1043.70 0.1035
1043.80 0.1035
1043.90 0.1034
1044.00 0.1034
1044.10 0.1034
1044.20 0.1033
1044.30 0.1033
1044.40 0.1033
1044.50 0.1032
1044.60 0.1032
1044.70 0.1032
1044.80 0.1031
1044.90 0.1031
1045.00 0.1031
1045.10 0.1031
1045.20 0.103
1045.30 0.103
1045.40 0.103
1045.50 0.1029
1045.60 0.1029
1045.70 0.1029
1045.80 0.1028
1045.90 0.1028
1046.00 0.1028
1046.10 0.1027
1046.20 0.1027
1046.30 0.1027
1046.40 0.1026
1046.50 0.1026
1046.60 0.1026
1046.70 0.1025
1046.80 0.1025
1046.90 0.1025
1047.00 0.1024
1047.10 0.1024
1047.20 0.1024
1047.30 0.1023
1047.40 0.1023
1047.50 0.1023
1047.60 0.1022
1047.70 0.1022
1047.80 0.1022
1047.90 0.1021
1048.00 0.1021
1048.10 0.1021
1048.20 0.102
1048.30 0.102
1048.40 0.1019
1048.50 0.1019
1048.60 0.1019
1048.70 0.1018
1048.80 0.1018
1048.90 0.1018
1049.00 0.1017
1049.10 0.1017
1049.20 0.1017
1049.30 0.1016
1049.40 0.1016
1049.50 0.1016
1049.60 0.1015
1049.70 0.1015
1049.80 0.1015
1049.90 0.1014
1050.00 0.1014
1050.10 0.1014
1050.20 0.1013
1050.30 0.1013
1050.40 0.1013
1050.50 0.1012
1050.60 0.1012
1050.70 0.1012
1050.80 0.1011
1050.90 0.1011
1051.00 0.1011
1051.10 0.101
1051.20 0.101
1051.30 0.101
1051.40 0.1009
1051.50 0.1009
1051.60 0.1009
1051.70 0.1008
1051.80 0.1008
1051.90 0.1007
1052.00 0.1007
1052.10 0.1007
1052.20 0.1006
1052.30 0.1006
1052.40 0.1006
1052.50 0.1005
1052.60 0.1005
1052.70 0.1005
1052.80 0.1004
1052.90 0.1004
1053.00 0.1004
1053.10 0.1003
1053.20 0.1003
1053.30 0.1002
1053.40 0.1002
1053.50 0.1002
1053.60 0.1001
1053.70 0.1001
1053.80 0.1001
1053.90 0.1
1054.00 0.1
1054.10 0.09996
1054.20 0.09992
1054.30 0.09989
1054.40 0.09985
1054.50 0.09982
1054.60 0.09978
1054.70 0.09974
1054.80 0.09971
1054.90 0.09967
1055.00 0.09964
1055.10 0.0996
1055.20 0.09957
1055.30 0.09953
1055.40 0.09949
1055.50 0.09946
1055.60 0.09942
1055.70 0.09939
1055.80 0.09935
1055.90 0.09932
1056.00 0.09928
1056.10 0.09924
1056.20 0.09921
1056.30 0.09917
1056.40 0.09914
1056.50 0.0991
1056.60 0.09907
1056.70 0.09903
1056.80 0.099
1056.90 0.09896
1057.00 0.09892
1057.10 0.09889
1057.20 0.09885
1057.30 0.09881
1057.40 0.09877
1057.50 0.09873
1057.60 0.0987
1057.70 0.09866
1057.80 0.09862
1057.90 0.09858
1058.00 0.09854
1058.10 0.09851
1058.20 0.09847
1058.30 0.09843
1058.40 0.09839
1058.50 0.09836
1058.60 0.09832
1058.70 0.09828
1058.80 0.09824
1058.90 0.0982
1059.00 0.09817
1059.10 0.09813
1059.20 0.09809
1059.30 0.09805
1059.40 0.09802
1059.50 0.09798
1059.60 0.09794
1059.70 0.0979
1059.80 0.09786
1059.90 0.09783
1060.00 0.09779
1060.10 0.09775
1060.20 0.09771
1060.30 0.09768
1060.40 0.09764
1060.50 0.0976
1060.60 0.09756
1060.70 0.09753
1060.80 0.09749
1060.90 0.09745
1061.00 0.09741
1061.10 0.09738
1061.20 0.09734
1061.30 0.0973
1061.40 0.09726
1061.50 0.09723
1061.60 0.09719
1061.70 0.09715
1061.80 0.09711
1061.90 0.09708
1062.00 0.09704
1062.10 0.097
1062.20 0.09695
1062.30 0.09691
1062.40 0.09687
1062.50 0.09683
1062.60 0.09679
1062.70 0.09674
1062.80 0.0967
1062.90 0.09666
1063.00 0.09662
1063.10 0.09657
1063.20 0.09653
1063.30 0.09649
1063.40 0.09645
1063.50 0.09641
1063.60 0.09636
1063.70 0.09632
1063.80 0.09628
1063.90 0.09624
1064.00 0.0962
1064.10 0.09615
1064.20 0.09611
1064.30 0.09607
1064.40 0.09603
1064.50 0.09599
1064.60 0.09595
1064.70 0.0959
1064.80 0.09586
1064.90 0.09582
1065.00 0.09578
1065.10 0.09574
1065.20 0.09569
1065.30 0.09565
1065.40 0.09561
1065.50 0.09557
1065.60 0.09553
1065.70 0.09549
1065.80 0.09544
1065.90 0.0954
1066.00 0.09536
1066.10 0.09532
1066.20 0.09528
1066.30 0.09524
1066.40 0.09519
1066.50 0.09515
1066.60 0.09511
1066.70 0.09507
1066.80 0.09503
1066.90 0.09499
1067.00 0.09495
1067.10 0.0949
1067.20 0.09485
1067.30 0.0948
1067.40 0.09475
1067.50 0.0947
1067.60 0.09465
1067.70 0.0946
1067.80 0.09455
1067.90 0.0945
1068.00 0.09445
1068.10 0.0944
1068.20 0.09435
1068.30 0.09431
1068.40 0.09426
1068.50 0.09421
1068.60 0.09416
1068.70 0.09411
1068.80 0.09406
1068.90 0.09401
1069.00 0.09396
1069.10 0.09391
1069.20 0.09386
1069.30 0.09381
1069.40 0.09377
1069.50 0.09372
1069.60 0.09367
1069.70 0.09362
1069.80 0.09357
1069.90 0.09352
1070.00 0.09347
1070.10 0.09342
1070.20 0.09337
1070.30 0.09333
1070.40 0.09328
1070.50 0.09323
1070.60 0.09318
1070.70 0.09313
1070.80 0.09308
1070.90 0.09303
1071.00 0.09298
1071.10 0.09294
1071.20 0.09289
1071.30 0.09284
1071.40 0.09279
1071.50 0.09274
1071.60 0.09269
1071.70 0.09264
1071.80 0.0926
1071.90 0.09255
1072.00 0.0925
1072.10 0.09244
1072.20 0.09239
1072.30 0.09233
1072.40 0.09228
1072.50 0.09222
1072.60 0.09216
1072.70 0.09211
1072.80 0.09205
1072.90 0.092
1073.00 0.09194
1073.10 0.09188
1073.20 0.09183
1073.30 0.09177
1073.40 0.09172
1073.50 0.09166
1073.60 0.09159
1073.70 0.09153
1073.80 0.09146
1073.90 0.09139
1074.00 0.09133
1074.10 0.09126
1074.20 0.09119
1074.30 0.09113
1074.40 0.09106
1074.50 0.091
1074.60 0.09093
1074.70 0.09086
1074.80 0.0908
1074.90 0.09073
1075.00 0.09066
1075.10 0.0906
1075.20 0.09053
1075.30 0.09047
1075.40 0.0904
1075.50 0.09033
1075.60 0.09027
1075.70 0.0902
1075.80 0.09014
1075.90 0.09007
1076.00 0.09001
1076.10 0.08994
1076.20 0.08987
1076.30 0.08981
1076.40 0.08974
1076.50 0.08968
1076.60 0.08961
1076.70 0.08954
1076.80 0.08948
1076.90 0.08941
1077.00 0.08935
1077.10 0.08927
1077.20 0.0892
1077.30 0.08913
1077.40 0.08905
1077.50 0.08898
1077.60 0.08889
1077.70 0.08881
1077.80 0.08872
1077.90 0.08864
1078.00 0.08855
1078.10 0.08847
1078.20 0.08839
1078.30 0.0883
1078.40 0.08822
1078.50 0.08813
1078.60 0.08805
1078.70 0.08797
1078.80 0.08788
1078.90 0.0878
1079.00 0.08772
1079.10 0.08763
1079.20 0.08755
1079.30 0.08746
1079.40 0.08738
1079.50 0.08729
1079.60 0.08719
1079.70 0.08709
1079.80 0.08699
1079.90 0.08689
1080.00 0.08679
1080.10 0.0867
1080.20 0.0866
1080.30 0.0865
1080.40 0.0864
1080.50 0.0863
1080.60 0.0862
1080.70 0.0861
1080.80 0.086
1080.90 0.0859
1081.00 0.0858
1081.10 0.0857
1081.20 0.0856
1081.30 0.08551
1081.40 0.08541
1081.50 0.0853
1081.60 0.08519
1081.70 0.08508
1081.80 0.08497
1081.90 0.08486
1082.00 0.08475
1082.10 0.08463
1082.20 0.08451
1082.30 0.08438
1082.40 0.08426
1082.50 0.08414
1082.60 0.08401
1082.70 0.08389
1082.80 0.08377
1082.90 0.08364
1083.00 0.08352
1083.10 0.0834
1083.20 0.08327
1083.30 0.08315
1083.40 0.08303
1083.50 0.0829
1083.60 0.08276
1083.70 0.08262
1083.80 0.08248
1083.90 0.08234
1084.00 0.0822
1084.10 0.08206
1084.20 0.08192
1084.30 0.08178
1084.40 0.08164
1084.50 0.08149
1084.60 0.08133
1084.70 0.08117
1084.80 0.081
1084.90 0.08084
1085.00 0.08068
1085.10 0.08052
1085.20 0.08035
1085.30 0.08019
1085.40 0.08003
1085.50 0.07987
1085.60 0.0797
1085.70 0.07954
1085.80 0.07938
1085.90 0.07922
1086.00 0.07906
1086.10 0.0789
1086.20 0.07873
1086.30 0.07857
1086.40 0.07841
1086.50 0.07824
1086.60 0.07805
1086.70 0.07787
1086.80 0.07768
1086.90 0.07749
1087.00 0.0773
1087.10 0.0771
1087.20 0.07689
1087.30 0.07669
1087.40 0.07648
1087.50 0.07628
1087.60 0.07607
1087.70 0.07587
1087.80 0.07566
1087.90 0.07546
1088.00 0.07525
1088.10 0.07505
1088.20 0.07484
1088.30 0.07464
1088.40 0.07443
1088.50 0.07421
1088.60 0.07397
1088.70 0.07373
1088.80 0.07348
1088.90 0.07324
1089.00 0.073
1089.10 0.07275
1089.20 0.07251
1089.30 0.07227
1089.40 0.07202
1089.50 0.07178
1089.60 0.07154
1089.70 0.0713
1089.80 0.07105
1089.90 0.07081
1090.00 0.07057
1090.10 0.07033
1090.20 0.07009
1090.30 0.06984
1090.40 0.0696
1090.50 0.06934
1090.60 0.06905
1090.70 0.06875
1090.80 0.06846
1090.90 0.06817
1091.00 0.06787
1091.10 0.06758
1091.20 0.06728
1091.30 0.06699
1091.40 0.0667
1091.50 0.0664
1091.60 0.06611
1091.70 0.06582
1091.80 0.06552
1091.90 0.06523
1092.00 0.06493
1092.10 0.06456
1092.20 0.0642
1092.30 0.06383
1092.40 0.06347
1092.50 0.0631
1092.60 0.06274
1092.70 0.06234
1092.80 0.06188
1092.90 0.06142
1093.00 0.06096
1093.10 0.06047
1093.20 0.05992
1093.30 0.05937
1093.40 0.05902
1093.50 0.05916
1093.60 0.05915
1093.70 0.05964
1093.80 0.06016
1093.90 0.06065
1094.00 0.06107
1094.10 0.0615
1094.20 0.06192
1094.30 0.06231
1094.40 0.06263
1094.50 0.06296
1094.60 0.06328
1094.70 0.0636
1094.80 0.06392
1094.90 0.06425
1095.00 0.06455
1095.10 0.0648
1095.20 0.06505
1095.30 0.0653
1095.40 0.06555
1095.50 0.0658
1095.60 0.06605
1095.70 0.0663
1095.80 0.06654
1095.90 0.06679
1096.00 0.06704
1096.10 0.06729
1096.20 0.06754
1096.30 0.06779
1096.40 0.06804
1096.50 0.06828
1096.60 0.06849
1096.70 0.0687
1096.80 0.06891
1096.90 0.06913
1097.00 0.06934
1097.10 0.06953
1097.20 0.06971
1097.30 0.0699
1097.40 0.07008
1097.50 0.07027
1097.60 0.07046
1097.70 0.07064
1097.80 0.07083
1097.90 0.07101
1098.00 0.0712
1098.10 0.07139
1098.20 0.07157
1098.30 0.07176
1098.40 0.07194
1098.50 0.07212
1098.60 0.07226
1098.70 0.07241
1098.80 0.07256
1098.90 0.0727
1099.00 0.07285
1099.10 0.07299
1099.20 0.07314
1099.30 0.07329
1099.40 0.07343
1099.50 0.07358
1099.60 0.07372
1099.70 0.07387
1099.80 0.07402
1099.90 0.07416
1100.00 0.07431
1100.10 0.07445
1100.20 0.0746
1100.30 0.07474
1100.40 0.07489
1100.50 0.07502
1100.60 0.07513
1100.70 0.07524
1100.80 0.07535
1100.90 0.07546
1101.00 0.07557
1101.10 0.07568
1101.20 0.07579
1101.30 0.0759
1101.40 0.07601
1101.50 0.07612
1101.60 0.07623
1101.70 0.07634
1101.80 0.07645
1101.90 0.07656
1102.00 0.07667
1102.10 0.07676
1102.20 0.07685
1102.30 0.07694
1102.40 0.07703
1102.50 0.07712
1102.60 0.0772
1102.70 0.07728
1102.80 0.07736
1102.90 0.07744
1103.00 0.07753
1103.10 0.07761
1103.20 0.07769
1103.30 0.07777
1103.40 0.07785
1103.50 0.07793
1103.60 0.07799
1103.70 0.07805
1103.80 0.07811
1103.90 0.07817
1104.00 0.07823
1104.10 0.07829
1104.20 0.07835
1104.30 0.07841
1104.40 0.07847
1104.50 0.07853
1104.60 0.0786
1104.70 0.07866
1104.80 0.07872
1104.90 0.07878
1105.00 0.07884
1105.10 0.0789
1105.20 0.07896
1105.30 0.07902
1105.40 0.07908
1105.50 0.07913
1105.60 0.07918
1105.70 0.07922
1105.80 0.07926
1105.90 0.0793
1106.00 0.07934
1106.10 0.07939
1106.20 0.07943
1106.30 0.07947
1106.40 0.07951
1106.50 0.07956
1106.60 0.0796
1106.70 0.07964
1106.80 0.07968
1106.90 0.07972
1107.00 0.07976
1107.10 0.0798
1107.20 0.07983
1107.30 0.07986
1107.40 0.07989
1107.50 0.07992
1107.60 0.07994
1107.70 0.07997
1107.80 0.07999
1107.90 0.08001
1108.00 0.08004
1108.10 0.08006
1108.20 0.08009
1108.30 0.08011
1108.40 0.08013
1108.50 0.08016
1108.60 0.08018
1108.70 0.08021
1108.80 0.08023
1108.90 0.08025
1109.00 0.08028
1109.10 0.0803
1109.20 0.08033
1109.30 0.08035
1109.40 0.08037
1109.50 0.08039
1109.60 0.0804
1109.70 0.08041
1109.80 0.08042
1109.90 0.08043
1110.00 0.08044
1110.10 0.08045
1110.20 0.08046
1110.30 0.08047
1110.40 0.08048
1110.50 0.08049
1110.60 0.0805
1110.70 0.08051
1110.80 0.08052
1110.90 0.08053
1111.00 0.08054
1111.10 0.08055
1111.20 0.08056
1111.30 0.08056
1111.40 0.08057
1111.50 0.08058
1111.60 0.08059
1111.70 0.0806
1111.80 0.08061
1111.90 0.08062
1112.00 0.08063
1112.10 0.08063
1112.20 0.08064
1112.30 0.08064
1112.40 0.08064
1112.50 0.08065
1112.60 0.08065
1112.70 0.08065
1112.80 0.08066
1112.90 0.08066
1113.00 0.08066
1113.10 0.08066
1113.20 0.08067
1113.30 0.08067
1113.40 0.08067
1113.50 0.08067
1113.60 0.08067
1113.70 0.08066
1113.80 0.08066
1113.90 0.08065
1114.00 0.08064
1114.10 0.08064
1114.20 0.08063
1114.30 0.08062
1114.40 0.08062
1114.50 0.08061
1114.60 0.08061
1114.70 0.0806
1114.80 0.08059
1114.90 0.08059
1115.00 0.08058
1115.10 0.08057
1115.20 0.08057
1115.30 0.08056
1115.40 0.08056
1115.50 0.08055
1115.60 0.08054
1115.70 0.08054
1115.80 0.08053
1115.90 0.08053
1116.00 0.08052
1116.10 0.08051
1116.20 0.08051
1116.30 0.0805
1116.40 0.08049
1116.50 0.08049
1116.60 0.08048
1116.70 0.08048
1116.80 0.08047
1116.90 0.08046
1117.00 0.08046
1117.10 0.08044
1117.20 0.08043
1117.30 0.08042
1117.40 0.0804
1117.50 0.08039
1117.60 0.08038
1117.70 0.08036
1117.80 0.08035
1117.90 0.08034
1118.00 0.08032
1118.10 0.08031
1118.20 0.08029
1118.30 0.08028
1118.40 0.08027
1118.50 0.08025
1118.60 0.08024
1118.70 0.08023
1118.80 0.08021
1118.90 0.0802
1119.00 0.08019
1119.10 0.08017
1119.20 0.08016
1119.30 0.08015
1119.40 0.08013
1119.50 0.08012
1119.60 0.08011
1119.70 0.08009
1119.80 0.08008
1119.90 0.08007
1120.00 0.08005
1120.10 0.08004
1120.20 0.08002
1120.30 0.08001
1120.40 0.08
1120.50 0.07998
1120.60 0.07997
1120.70 0.07996
1120.80 0.07994
1120.90 0.07993
1121.00 0.07992
1121.10 0.0799
1121.20 0.07989
1121.30 0.07988
1121.40 0.07986
1121.50 0.07985
1121.60 0.07984
1121.70 0.07982
1121.80 0.07981
1121.90 0.0798
1122.00 0.07978
1122.10 0.07976
1122.20 0.07975
1122.30 0.07973
1122.40 0.07971
1122.50 0.07969
1122.60 0.07967
1122.70 0.07965
1122.80 0.07963
1122.90 0.07962
1123.00 0.0796
1123.10 0.07958
1123.20 0.07956
1123.30 0.07954
1123.40 0.07952
1123.50 0.07951
1123.60 0.07949
1123.70 0.07947
1123.80 0.07945
1123.90 0.07943
1124.00 0.07941
1124.10 0.0794
1124.20 0.07938
1124.30 0.07936
1124.40 0.07934
1124.50 0.07932
1124.60 0.0793
1124.70 0.07929
1124.80 0.07927
1124.90 0.07925
1125.00 0.07923
1125.10 0.07921
1125.20 0.07919
1125.30 0.07917
1125.40 0.07916
1125.50 0.07914
1125.60 0.07912
1125.70 0.0791
1125.80 0.07908
1125.90 0.07907
1126.00 0.07905
1126.10 0.07903
1126.20 0.07901
1126.30 0.07899
1126.40 0.07897
1126.50 0.07896
1126.60 0.07894
1126.70 0.07892
1126.80 0.0789
1126.90 0.07888
1127.00 0.07886
1127.10 0.07884
1127.20 0.07882
1127.30 0.0788
1127.40 0.07878
1127.50 0.07876
1127.60 0.07874
1127.70 0.07872
1127.80 0.0787
1127.90 0.07867
1128.00 0.07865
1128.10 0.07863
1128.20 0.07861
1128.30 0.07859
1128.40 0.07857
1128.50 0.07855
1128.60 0.07853
1128.70 0.07851
1128.80 0.07848
1128.90 0.07846
1129.00 0.07844
1129.10 0.07842
1129.20 0.0784
1129.30 0.07838
1129.40 0.07836
1129.50 0.07834
1129.60 0.07832
1129.70 0.0783
1129.80 0.07827
1129.90 0.07825
1130.00 0.07823
1130.10 0.07821
1130.20 0.07819
1130.30 0.07817
1130.40 0.07815
1130.50 0.07813
1130.60 0.07811
1130.70 0.07809
1130.80 0.07807
1130.90 0.07804
1131.00 0.07802
1131.10 0.078
1131.20 0.07798
1131.30 0.07796
1131.40 0.07794
1131.50 0.07792
1131.60 0.0779
1131.70 0.07788
1131.80 0.07786
1131.90 0.07784
1132.00 0.07782
1132.10 0.07779
1132.20 0.07777
1132.30 0.07775
1132.40 0.07773
1132.50 0.07771
1132.60 0.07768
1132.70 0.07766
1132.80 0.07764
1132.90 0.07762
1133.00 0.07759
1133.10 0.07757
1133.20 0.07755
1133.30 0.07753
1133.40 0.07751
1133.50 0.07748
1133.60 0.07746
1133.70 0.07744
1133.80 0.07742
1133.90 0.0774
1134.00 0.07738
1134.10 0.07735
1134.20 0.07733
1134.30 0.07731
1134.40 0.07729
1134.50 0.07727
1134.60 0.07724
1134.70 0.07722
1134.80 0.0772
1134.90 0.07718
1135.00 0.07716
1135.10 0.07713
1135.20 0.07711
1135.30 0.07709
1135.40 0.07707
1135.50 0.07705
1135.60 0.07702
1135.70 0.077
1135.80 0.07698
1135.90 0.07696
1136.00 0.07694
1136.10 0.07692
1136.20 0.07689
1136.30 0.07687
1136.40 0.07685
1136.50 0.07683
1136.60 0.07681
1136.70 0.07679
1136.80 0.07676
1136.90 0.07674
1137.00 0.07672
1137.10 0.0767
1137.20 0.07667
1137.30 0.07665
1137.40 0.07663
1137.50 0.07661
1137.60 0.07658
1137.70 0.07656
1137.80 0.07654
1137.90 0.07652
1138.00 0.07649
1138.10 0.07647
1138.20 0.07645
1138.30 0.07643
1138.40 0.0764
1138.50 0.07638
1138.60 0.07636
1138.70 0.07634
1138.80 0.07631
1138.90 0.07629
1139.00 0.07627
1139.10 0.07625
1139.20 0.07622
1139.30 0.0762
1139.40 0.07618
1139.50 0.07616
1139.60 0.07613
1139.70 0.07611
1139.80 0.07609
1139.90 0.07607
1140.00 0.07605
1140.10 0.07602
1140.20 0.076
1140.30 0.07598
1140.40 0.07596
1140.50 0.07593
1140.60 0.07591
1140.70 0.07589
1140.80 0.07587
1140.90 0.07584
1141.00 0.07582
1141.10 0.0758
1141.20 0.07578
1141.30 0.07575
1141.40 0.07573
1141.50 0.07571
1141.60 0.07569
1141.70 0.07567
1141.80 0.07564
1141.90 0.07562
1142.00 0.0756
1142.10 0.07558
1142.20 0.07555
1142.30 0.07553
1142.40 0.07551
1142.50 0.07549
1142.60 0.07546
1142.70 0.07544
1142.80 0.07542
1142.90 0.0754
1143.00 0.07537
1143.10 0.07535
1143.20 0.07533
1143.30 0.07531
1143.40 0.07528
1143.50 0.07526
1143.60 0.07524
1143.70 0.07522
1143.80 0.07519
1143.90 0.07517
1144.00 0.07515
1144.10 0.07513
1144.20 0.0751
1144.30 0.07508
1144.40 0.07506
1144.50 0.07504
1144.60 0.07501
1144.70 0.07499
1144.80 0.07497
1144.90 0.07495
1145.00 0.07492
1145.10 0.0749
1145.20 0.07488
1145.30 0.07486
1145.40 0.07483
1145.50 0.07481
1145.60 0.07479
1145.70 0.07477
1145.80 0.07474
1145.90 0.07472
1146.00 0.0747
1146.10 0.07468
1146.20 0.07466
1146.30 0.07463
1146.40 0.07461
1146.50 0.07459
1146.60 0.07457
1146.70 0.07454
1146.80 0.07452
1146.90 0.0745
1147.00 0.07448
1147.10 0.07445
1147.20 0.07443
1147.30 0.07441
1147.40 0.07439
1147.50 0.07436
1147.60 0.07434
1147.70 0.07432
1147.80 0.0743
1147.90 0.07427
1148.00 0.07425
1148.10 0.07423
1148.20 0.07421
1148.30 0.07418
1148.40 0.07416
1148.50 0.07414
1148.60 0.07412
1148.70 0.07409
1148.80 0.07407
1148.90 0.07405
1149.00 0.07403
1149.10 0.074
1149.20 0.07398
1149.30 0.07396
1149.40 0.07394
1149.50 0.07392
1149.60 0.07389
1149.70 0.07387
1149.80 0.07385
1149.90 0.07383
1150.00 0.0738
1150.10 0.07378
1150.20 0.07376
1150.30 0.07374
1150.40 0.07371
1150.50 0.07369
1150.60 0.07367
1150.70 0.07365
1150.80 0.07362
1150.90 0.0736
1151.00 0.07358
1151.10 0.07356
1151.20 0.07354
1151.30 0.07351
1151.40 0.07349
1151.50 0.07347
1151.60 0.07345
1151.70 0.07342
1151.80 0.0734
1151.90 0.07338
1152.00 0.07336
1152.10 0.07333
1152.20 0.07331
1152.30 0.07329
1152.40 0.07327
1152.50 0.07325
1152.60 0.07322
1152.70 0.0732
1152.80 0.07318
1152.90 0.07316
1153.00 0.07313
1153.10 0.07311
1153.20 0.07309
1153.30 0.07307
1153.40 0.07305
1153.50 0.07302
1153.60 0.073
1153.70 0.07298
1153.80 0.07296
1153.90 0.07293
1154.00 0.07291
1154.10 0.07289
1154.20 0.07287
1154.30 0.07285
1154.40 0.07282
1154.50 0.0728
1154.60 0.07278
1154.70 0.07276
1154.80 0.07273
1154.90 0.07271
1155.00 0.07269
1155.10 0.07267
1155.20 0.07265
1155.30 0.07262
1155.40 0.0726
1155.50 0.07258
1155.60 0.07256
1155.70 0.07254
1155.80 0.07251
1155.90 0.07249
1156.00 0.07247
1156.10 0.07245
1156.20 0.07243
1156.30 0.0724
1156.40 0.07238
1156.50 0.07236
1156.60 0.07234
1156.70 0.07232
1156.80 0.07229
1156.90 0.07227
1157.00 0.07225
1157.10 0.07223
1157.20 0.07221
1157.30 0.07218
1157.40 0.07216
1157.50 0.07214
1157.60 0.07212
1157.70 0.0721
1157.80 0.07207
1157.90 0.07205
1158.00 0.07203
1158.10 0.07201
1158.20 0.07199
1158.30 0.07196
1158.40 0.07194
1158.50 0.07192
1158.60 0.0719
1158.70 0.07188
1158.80 0.07185
1158.90 0.07183
1159.00 0.07181
1159.10 0.07179
1159.20 0.07177
1159.30 0.07174
1159.40 0.07172
1159.50 0.0717
1159.60 0.07168
1159.70 0.07166
1159.80 0.07163
1159.90 0.07161
1160.00 0.07159
1160.10 0.07157
1160.20 0.07155
1160.30 0.07153
1160.40 0.0715
1160.50 0.07148
1160.60 0.07146
1160.70 0.07144
1160.80 0.07142
1160.90 0.07139
1161.00 0.07137
1161.10 0.07135
1161.20 0.07133
1161.30 0.07131
1161.40 0.07129
1161.50 0.07126
1161.60 0.07124
1161.70 0.07122
1161.80 0.0712
1161.90 0.07118
1162.00 0.07116
1162.10 0.07113
1162.20 0.07111
1162.30 0.07109
1162.40 0.07107
1162.50 0.07105
1162.60 0.07102
1162.70 0.071
1162.80 0.07098
1162.90 0.07096
1163.00 0.07094
1163.10 0.07092
1163.20 0.07089
1163.30 0.07087
1163.40 0.07085
1163.50 0.07083
1163.60 0.07081
1163.70 0.07079
1163.80 0.07076
1163.90 0.07074
1164.00 0.07072
1164.10 0.0707
1164.20 0.07068
1164.30 0.07066
1164.40 0.07063
1164.50 0.07061
1164.60 0.07059
1164.70 0.07057
1164.80 0.07055
1164.90 0.07053
1165.00 0.07051
1165.10 0.07048
1165.20 0.07046
1165.30 0.07044
1165.40 0.07042
1165.50 0.0704
1165.60 0.07038
1165.70 0.07035
1165.80 0.07033
1165.90 0.07031
1166.00 0.07029
1166.10 0.07027
1166.20 0.07025
1166.30 0.07023
1166.40 0.0702
1166.50 0.07018
1166.60 0.07016
1166.70 0.07014
1166.80 0.07012
1166.90 0.0701
1167.00 0.07008
1167.10 0.07005
1167.20 0.07003
1167.30 0.07001
1167.40 0.06999
1167.50 0.06997
1167.60 0.06995
1167.70 0.06993
1167.80 0.0699
1167.90 0.06988
1168.00 0.06986
1168.10 0.06984
1168.20 0.06982
1168.30 0.0698
1168.40 0.06978
1168.50 0.06975
1168.60 0.06973
1168.70 0.06971
1168.80 0.06969
1168.90 0.06967
1169.00 0.06965
1169.10 0.06963
1169.20 0.06961
1169.30 0.06958
1169.40 0.06956
1169.50 0.06954
1169.60 0.06952
1169.70 0.0695
1169.80 0.06948
1169.90 0.06946
1170.00 0.06944
1170.10 0.06941
1170.20 0.06939
1170.30 0.06937
1170.40 0.06935
1170.50 0.06933
1170.60 0.06931
1170.70 0.06929
1170.80 0.06927
1170.90 0.06925
1171.00 0.06922
1171.10 0.0692
1171.20 0.06918
1171.30 0.06916
1171.40 0.06914
1171.50 0.06912
1171.60 0.0691
1171.70 0.06908
1171.80 0.06906
1171.90 0.06903
1172.00 0.06901
1172.10 0.06899
1172.20 0.06897
1172.30 0.06895
1172.40 0.06893
1172.50 0.06891
1172.60 0.06889
1172.70 0.06887
1172.80 0.06884
1172.90 0.06882
1173.00 0.0688
1173.10 0.06878
1173.20 0.06876
1173.30 0.06874
1173.40 0.06872
1173.50 0.0687
1173.60 0.06868
1173.70 0.06866
1173.80 0.06863
1173.90 0.06861
1174.00 0.06859
1174.10 0.06857
1174.20 0.06855
1174.30 0.06853
1174.40 0.06851
1174.50 0.06849
1174.60 0.06847
1174.70 0.06845
1174.80 0.06842
1174.90 0.0684
1175.00 0.06838
1175.10 0.06836
1175.20 0.06834
1175.30 0.06832
1175.40 0.0683
1175.50 0.06828
1175.60 0.06826
1175.70 0.06824
1175.80 0.06822
1175.90 0.0682
1176.00 0.06817
1176.10 0.06815
1176.20 0.06813
1176.30 0.06811
1176.40 0.06809
1176.50 0.06807
1176.60 0.06805
1176.70 0.06803
1176.80 0.06801
1176.90 0.06799
1177.00 0.06797
1177.10 0.06795
1177.20 0.06792
1177.30 0.0679
1177.40 0.06788
1177.50 0.06786
1177.60 0.06784
1177.70 0.06782
1177.80 0.0678
1177.90 0.06778
1178.00 0.06776
1178.10 0.06774
1178.20 0.06772
1178.30 0.0677
1178.40 0.06768
1178.50 0.06766
1178.60 0.06764
1178.70 0.06761
1178.80 0.06759
1178.90 0.06757
1179.00 0.06755
1179.10 0.06753
1179.20 0.06751
1179.30 0.06749
1179.40 0.06747
1179.50 0.06745
1179.60 0.06743
1179.70 0.06741
1179.80 0.06739
1179.90 0.06737
1180.00 0.06735
1180.10 0.06733
1180.20 0.06731
1180.30 0.06729
1180.40 0.06726
1180.50 0.06724
1180.60 0.06722
1180.70 0.0672
1180.80 0.06718
1180.90 0.06716
1181.00 0.06714
1181.10 0.06712
1181.20 0.0671
1181.30 0.06708
1181.40 0.06706
1181.50 0.06704
1181.60 0.06702
1181.70 0.067
1181.80 0.06698
1181.90 0.06696
1182.00 0.06694
1182.10 0.06692
1182.20 0.0669
1182.30 0.06688
1182.40 0.06686
1182.50 0.06684
1182.60 0.06681
1182.70 0.06679
1182.80 0.06677
1182.90 0.06675
1183.00 0.06673
1183.10 0.06671
1183.20 0.06669
1183.30 0.06667
1183.40 0.06665
1183.50 0.06663
1183.60 0.06661
1183.70 0.06659
1183.80 0.06657
1183.90 0.06655
1184.00 0.06653
1184.10 0.06651
1184.20 0.06649
1184.30 0.06647
1184.40 0.06645
1184.50 0.06643
1184.60 0.06641
1184.70 0.06639
1184.80 0.06637
1184.90 0.06635
1185.00 0.06633
1185.10 0.06631
1185.20 0.06629
1185.30 0.06627
1185.40 0.06625
1185.50 0.06623
1185.60 0.06621
1185.70 0.06619
1185.80 0.06616
1185.90 0.06614
1186.00 0.06612
1186.10 0.0661
1186.20 0.06608
1186.30 0.06606
1186.40 0.06604
1186.50 0.06602
1186.60 0.066
1186.70 0.06598
1186.80 0.06596
1186.90 0.06594
1187.00 0.06592
1187.10 0.0659
1187.20 0.06588
1187.30 0.06586
1187.40 0.06584
1187.50 0.06582
1187.60 0.0658
1187.70 0.06578
1187.80 0.06576
1187.90 0.06574
1188.00 0.06572
1188.10 0.0657
1188.20 0.06568
1188.30 0.06566
1188.40 0.06564
1188.50 0.06562
1188.60 0.0656
1188.70 0.06558
1188.80 0.06556
1188.90 0.06554
1189.00 0.06552
1189.10 0.0655
1189.20 0.06548
1189.30 0.06546
1189.40 0.06544
1189.50 0.06542
1189.60 0.0654
1189.70 0.06538
1189.80 0.06536
1189.90 0.06534
1190.00 0.06532
1190.10 0.0653
1190.20 0.06528
1190.30 0.06526
1190.40 0.06524
1190.50 0.06522
1190.60 0.0652
1190.70 0.06518
1190.80 0.06516
1190.90 0.06514
1191.00 0.06512
1191.10 0.0651
1191.20 0.06508
1191.30 0.06506
1191.40 0.06504
1191.50 0.06502
1191.60 0.065
1191.70 0.06498
1191.80 0.06497
1191.90 0.06495
1192.00 0.06493
1192.10 0.06491
1192.20 0.06489
1192.30 0.06487
1192.40 0.06485
1192.50 0.06483
1192.60 0.06481
1192.70 0.06479
1192.80 0.06477
1192.90 0.06475
1193.00 0.06473
1193.10 0.06471
1193.20 0.06469
1193.30 0.06467
1193.40 0.06465
1193.50 0.06463
1193.60 0.06461
1193.70 0.06459
1193.80 0.06457
1193.90 0.06455
1194.00 0.06453
1194.10 0.06451
1194.20 0.06449
1194.30 0.06447
1194.40 0.06445
1194.50 0.06443
1194.60 0.06441
1194.70 0.06439
1194.80 0.06437
1194.90 0.06435
1195.00 0.06434
1195.10 0.06432
1195.20 0.0643
1195.30 0.06428
1195.40 0.06426
1195.50 0.06424
1195.60 0.06422
1195.70 0.0642
1195.80 0.06418
1195.90 0.06416
1196.00 0.06414
1196.10 0.06412
1196.20 0.0641
1196.30 0.06408
1196.40 0.06406
1196.50 0.06404
1196.60 0.06402
1196.70 0.064
1196.80 0.06398
1196.90 0.06396
1197.00 0.06394
1197.10 0.06393
1197.20 0.06391
1197.30 0.06389
1197.40 0.06387
1197.50 0.06385
1197.60 0.06383
1197.70 0.06381
1197.80 0.06379
1197.90 0.06377
1198.00 0.06375
1198.10 0.06373
1198.20 0.06371
1198.30 0.06369
1198.40 0.06367
1198.50 0.06365
1198.60 0.06363
1198.70 0.06361
1198.80 0.0636
1198.90 0.06358
1199.00 0.06356
1199.10 0.06354
1199.20 0.06352
1199.30 0.0635
1199.40 0.06348
1199.50 0.06346
1199.60 0.06344
1199.70 0.06342
1199.80 0.0634
1199.90 0.06338
1200.00 0
