# Version 2.1 - nm, norm@500 to 1, cut digits, bergeron_65000_75.dat_65000
# Wavelength(nm)  Flambda(ergs/cm^s/s/nm)
300.00 6.476
300.10 6.468
300.20 6.46
300.30 6.452
300.40 6.444
300.50 6.436
300.60 6.428
300.70 6.421
300.80 6.413
300.90 6.405
301.00 6.397
301.10 6.389
301.20 6.381
301.30 6.374
301.40 6.366
301.50 6.358
301.60 6.35
301.70 6.343
301.80 6.335
301.90 6.327
302.00 6.319
302.10 6.312
302.20 6.304
302.30 6.296
302.40 6.289
302.50 6.281
302.60 6.273
302.70 6.266
302.80 6.258
302.90 6.25
303.00 6.243
303.10 6.235
303.20 6.228
303.30 6.22
303.40 6.213
303.50 6.205
303.60 6.197
303.70 6.19
303.80 6.182
303.90 6.175
304.00 6.167
304.10 6.16
304.20 6.153
304.30 6.145
304.40 6.138
304.50 6.13
304.60 6.123
304.70 6.115
304.80 6.108
304.90 6.101
305.00 6.093
305.10 6.086
305.20 6.079
305.30 6.071
305.40 6.064
305.50 6.057
305.60 6.049
305.70 6.042
305.80 6.035
305.90 6.027
306.00 6.02
306.10 6.013
306.20 6.006
306.30 5.998
306.40 5.991
306.50 5.984
306.60 5.977
306.70 5.97
306.80 5.963
306.90 5.955
307.00 5.948
307.10 5.941
307.20 5.934
307.30 5.927
307.40 5.92
307.50 5.913
307.60 5.906
307.70 5.898
307.80 5.891
307.90 5.884
308.00 5.877
308.10 5.87
308.20 5.863
308.30 5.856
308.40 5.849
308.50 5.842
308.60 5.835
308.70 5.828
308.80 5.821
308.90 5.814
309.00 5.807
309.10 5.8
309.20 5.794
309.30 5.787
309.40 5.78
309.50 5.773
309.60 5.766
309.70 5.759
309.80 5.752
309.90 5.745
310.00 5.739
310.10 5.732
310.20 5.725
310.30 5.718
310.40 5.711
310.50 5.705
310.60 5.698
310.70 5.691
310.80 5.684
310.90 5.677
311.00 5.671
311.10 5.664
311.20 5.657
311.30 5.651
311.40 5.644
311.50 5.637
311.60 5.631
311.70 5.624
311.80 5.617
311.90 5.611
312.00 5.604
312.10 5.597
312.20 5.591
312.30 5.584
312.40 5.577
312.50 5.571
312.60 5.564
312.70 5.558
312.80 5.551
312.90 5.545
313.00 5.538
313.10 5.532
313.20 5.525
313.30 5.519
313.40 5.512
313.50 5.506
313.60 5.499
313.70 5.493
313.80 5.486
313.90 5.48
314.00 5.473
314.10 5.467
314.20 5.46
314.30 5.454
314.40 5.448
314.50 5.441
314.60 5.435
314.70 5.428
314.80 5.422
314.90 5.416
315.00 5.409
315.10 5.403
315.20 5.397
315.30 5.39
315.40 5.384
315.50 5.378
315.60 5.371
315.70 5.365
315.80 5.359
315.90 5.353
316.00 5.346
316.10 5.34
316.20 5.334
316.30 5.328
316.40 5.321
316.50 5.315
316.60 5.309
316.70 5.303
316.80 5.297
316.90 5.29
317.00 5.284
317.10 5.278
317.20 5.272
317.30 5.266
317.40 5.26
317.50 5.254
317.60 5.248
317.70 5.241
317.80 5.235
317.90 5.229
318.00 5.223
318.10 5.217
318.20 5.211
318.30 5.205
318.40 5.199
318.50 5.193
318.60 5.187
318.70 5.181
318.80 5.175
318.90 5.169
319.00 5.163
319.10 5.157
319.20 5.151
319.30 5.145
319.40 5.139
319.50 5.133
319.60 5.127
319.70 5.121
319.80 5.115
319.90 5.109
320.00 5.103
320.10 5.098
320.20 5.092
320.30 5.086
320.40 5.08
320.50 5.074
320.60 5.068
320.70 5.062
320.80 5.057
320.90 5.051
321.00 5.045
321.10 5.039
321.20 5.033
321.30 5.028
321.40 5.022
321.50 5.016
321.60 5.01
321.70 5.004
321.80 4.999
321.90 4.993
322.00 4.987
322.10 4.982
322.20 4.976
322.30 4.97
322.40 4.964
322.50 4.959
322.60 4.953
322.70 4.947
322.80 4.942
322.90 4.936
323.00 4.93
323.10 4.925
323.20 4.919
323.30 4.913
323.40 4.908
323.50 4.902
323.60 4.897
323.70 4.891
323.80 4.885
323.90 4.88
324.00 4.874
324.10 4.869
324.20 4.863
324.30 4.858
324.40 4.852
324.50 4.847
324.60 4.841
324.70 4.836
324.80 4.83
324.90 4.825
325.00 4.819
325.10 4.814
325.20 4.808
325.30 4.803
325.40 4.797
325.50 4.792
325.60 4.786
325.70 4.781
325.80 4.775
325.90 4.77
326.00 4.765
326.10 4.759
326.20 4.754
326.30 4.748
326.40 4.743
326.50 4.738
326.60 4.732
326.70 4.727
326.80 4.721
326.90 4.716
327.00 4.711
327.10 4.705
327.20 4.7
327.30 4.695
327.40 4.69
327.50 4.684
327.60 4.679
327.70 4.674
327.80 4.668
327.90 4.663
328.00 4.658
328.10 4.653
328.20 4.647
328.30 4.642
328.40 4.637
328.50 4.632
328.60 4.626
328.70 4.621
328.80 4.616
328.90 4.611
329.00 4.606
329.10 4.6
329.20 4.595
329.30 4.59
329.40 4.585
329.50 4.58
329.60 4.575
329.70 4.57
329.80 4.564
329.90 4.559
330.00 4.554
330.10 4.549
330.20 4.544
330.30 4.539
330.40 4.534
330.50 4.529
330.60 4.524
330.70 4.519
330.80 4.514
330.90 4.509
331.00 4.503
331.10 4.498
331.20 4.493
331.30 4.488
331.40 4.483
331.50 4.478
331.60 4.473
331.70 4.468
331.80 4.463
331.90 4.458
332.00 4.453
332.10 4.448
332.20 4.443
332.30 4.438
332.40 4.434
332.50 4.429
332.60 4.424
332.70 4.419
332.80 4.414
332.90 4.409
333.00 4.404
333.10 4.399
333.20 4.394
333.30 4.389
333.40 4.384
333.50 4.38
333.60 4.375
333.70 4.37
333.80 4.365
333.90 4.36
334.00 4.355
334.10 4.35
334.20 4.346
334.30 4.341
334.40 4.336
334.50 4.331
334.60 4.326
334.70 4.322
334.80 4.317
334.90 4.312
335.00 4.307
335.10 4.303
335.20 4.298
335.30 4.293
335.40 4.288
335.50 4.284
335.60 4.279
335.70 4.274
335.80 4.269
335.90 4.265
336.00 4.26
336.10 4.255
336.20 4.251
336.30 4.246
336.40 4.241
336.50 4.237
336.60 4.232
336.70 4.227
336.80 4.223
336.90 4.218
337.00 4.213
337.10 4.209
337.20 4.204
337.30 4.199
337.40 4.195
337.50 4.19
337.60 4.186
337.70 4.181
337.80 4.176
337.90 4.172
338.00 4.167
338.10 4.163
338.20 4.158
338.30 4.154
338.40 4.149
338.50 4.144
338.60 4.14
338.70 4.135
338.80 4.131
338.90 4.126
339.00 4.122
339.10 4.117
339.20 4.113
339.30 4.108
339.40 4.104
339.50 4.099
339.60 4.095
339.70 4.09
339.80 4.086
339.90 4.081
340.00 4.077
340.10 4.073
340.20 4.068
340.30 4.064
340.40 4.059
340.50 4.055
340.60 4.05
340.70 4.046
340.80 4.042
340.90 4.037
341.00 4.033
341.10 4.028
341.20 4.024
341.30 4.02
341.40 4.015
341.50 4.011
341.60 4.007
341.70 4.002
341.80 3.998
341.90 3.994
342.00 3.989
342.10 3.985
342.20 3.981
342.30 3.976
342.40 3.972
342.50 3.968
342.60 3.963
342.70 3.959
342.80 3.955
342.90 3.951
343.00 3.946
343.10 3.942
343.20 3.938
343.30 3.933
343.40 3.929
343.50 3.925
343.60 3.921
343.70 3.916
343.80 3.912
343.90 3.908
344.00 3.904
344.10 3.9
344.20 3.895
344.30 3.891
344.40 3.887
344.50 3.883
344.60 3.879
344.70 3.874
344.80 3.87
344.90 3.866
345.00 3.862
345.10 3.858
345.20 3.854
345.30 3.85
345.40 3.845
345.50 3.841
345.60 3.837
345.70 3.833
345.80 3.829
345.90 3.825
346.00 3.821
346.10 3.817
346.20 3.812
346.30 3.808
346.40 3.804
346.50 3.8
346.60 3.796
346.70 3.792
346.80 3.788
346.90 3.784
347.00 3.78
347.10 3.776
347.20 3.772
347.30 3.768
347.40 3.764
347.50 3.76
347.60 3.756
347.70 3.752
347.80 3.748
347.90 3.744
348.00 3.74
348.10 3.736
348.20 3.732
348.30 3.728
348.40 3.724
348.50 3.72
348.60 3.716
348.70 3.712
348.80 3.708
348.90 3.704
349.00 3.7
349.10 3.696
349.20 3.692
349.30 3.688
349.40 3.684
349.50 3.68
349.60 3.677
349.70 3.673
349.80 3.669
349.90 3.665
350.00 3.661
350.10 3.657
350.20 3.653
350.30 3.649
350.40 3.645
350.50 3.642
350.60 3.638
350.70 3.634
350.80 3.63
350.90 3.626
351.00 3.622
351.10 3.618
351.20 3.615
351.30 3.611
351.40 3.607
351.50 3.603
351.60 3.599
351.70 3.596
351.80 3.592
351.90 3.588
352.00 3.584
352.10 3.58
352.20 3.577
352.30 3.573
352.40 3.569
352.50 3.565
352.60 3.562
352.70 3.558
352.80 3.554
352.90 3.55
353.00 3.547
353.10 3.543
353.20 3.539
353.30 3.535
353.40 3.532
353.50 3.528
353.60 3.524
353.70 3.521
353.80 3.517
353.90 3.513
354.00 3.509
354.10 3.506
354.20 3.502
354.30 3.498
354.40 3.495
354.50 3.491
354.60 3.487
354.70 3.484
354.80 3.48
354.90 3.476
355.00 3.473
355.10 3.469
355.20 3.466
355.30 3.462
355.40 3.458
355.50 3.455
355.60 3.451
355.70 3.447
355.80 3.444
355.90 3.44
356.00 3.437
356.10 3.433
356.20 3.429
356.30 3.426
356.40 3.422
356.50 3.419
356.60 3.415
356.70 3.412
356.80 3.408
356.90 3.405
357.00 3.401
357.10 3.397
357.20 3.394
357.30 3.39
357.40 3.387
357.50 3.383
357.60 3.38
357.70 3.376
357.80 3.373
357.90 3.369
358.00 3.366
358.10 3.362
358.20 3.359
358.30 3.355
358.40 3.352
358.50 3.348
358.60 3.345
358.70 3.341
358.80 3.338
358.90 3.334
359.00 3.331
359.10 3.328
359.20 3.324
359.30 3.321
359.40 3.317
359.50 3.314
359.60 3.31
359.70 3.307
359.80 3.304
359.90 3.3
360.00 3.297
360.10 3.293
360.20 3.29
360.30 3.286
360.40 3.283
360.50 3.28
360.60 3.276
360.70 3.273
360.80 3.27
360.90 3.266
361.00 3.263
361.10 3.259
361.20 3.256
361.30 3.253
361.40 3.249
361.50 3.246
361.60 3.243
361.70 3.239
361.80 3.236
361.90 3.233
362.00 3.229
362.10 3.226
362.20 3.223
362.30 3.219
362.40 3.216
362.50 3.213
362.60 3.21
362.70 3.206
362.80 3.203
362.90 3.2
363.00 3.196
363.10 3.193
363.20 3.19
363.30 3.187
363.40 3.183
363.50 3.18
363.60 3.177
363.70 3.174
363.80 3.17
363.90 3.167
364.00 3.164
364.10 3.161
364.20 3.157
364.30 3.154
364.40 3.151
364.50 3.148
364.60 3.144
364.70 3.141
364.80 3.138
364.90 3.135
365.00 3.132
365.10 3.128
365.20 3.125
365.30 3.122
365.40 3.119
365.50 3.116
365.60 3.113
365.70 3.109
365.80 3.106
365.90 3.103
366.00 3.1
366.10 3.097
366.20 3.093
366.30 3.09
366.40 3.087
366.50 3.084
366.60 3.081
366.70 3.077
366.80 3.074
366.90 3.071
367.00 3.068
367.10 3.064
367.20 3.061
367.30 3.058
367.40 3.055
367.50 3.052
367.60 3.049
367.70 3.045
367.80 3.042
367.90 3.039
368.00 3.036
368.10 3.033
368.20 3.03
368.30 3.026
368.40 3.023
368.50 3.02
368.60 3.017
368.70 3.014
368.80 3.011
368.90 3.008
369.00 3.004
369.10 3.001
369.20 2.998
369.30 2.995
369.40 2.992
369.50 2.989
369.60 2.986
369.70 2.983
369.80 2.98
369.90 2.976
370.00 2.973
370.10 2.97
370.20 2.967
370.30 2.964
370.40 2.961
370.50 2.958
370.60 2.955
370.70 2.952
370.80 2.949
370.90 2.946
371.00 2.943
371.10 2.94
371.20 2.937
371.30 2.934
371.40 2.931
371.50 2.928
371.60 2.925
371.70 2.922
371.80 2.919
371.90 2.916
372.00 2.913
372.10 2.91
372.20 2.907
372.30 2.904
372.40 2.901
372.50 2.898
372.60 2.895
372.70 2.892
372.80 2.889
372.90 2.886
373.00 2.883
373.10 2.88
373.20 2.877
373.30 2.874
373.40 2.872
373.50 2.869
373.60 2.866
373.70 2.863
373.80 2.86
373.90 2.857
374.00 2.854
374.10 2.851
374.20 2.848
374.30 2.846
374.40 2.843
374.50 2.84
374.60 2.837
374.70 2.834
374.80 2.831
374.90 2.829
375.00 2.826
375.10 2.823
375.20 2.82
375.30 2.817
375.40 2.815
375.50 2.812
375.60 2.809
375.70 2.806
375.80 2.803
375.90 2.801
376.00 2.798
376.10 2.795
376.20 2.792
376.30 2.79
376.40 2.787
376.50 2.784
376.60 2.782
376.70 2.779
376.80 2.776
376.90 2.773
377.00 2.771
377.10 2.768
377.20 2.766
377.30 2.763
377.40 2.76
377.50 2.758
377.60 2.755
377.70 2.753
377.80 2.75
377.90 2.748
378.00 2.745
378.10 2.742
378.20 2.74
378.30 2.737
378.40 2.735
378.50 2.732
378.60 2.729
378.70 2.727
378.80 2.724
378.90 2.722
379.00 2.719
379.10 2.716
379.20 2.714
379.30 2.711
379.40 2.709
379.50 2.706
379.60 2.704
379.70 2.701
379.80 2.698
379.90 2.696
380.00 2.693
380.10 2.691
380.20 2.689
380.30 2.687
380.40 2.685
380.50 2.682
380.60 2.68
380.70 2.678
380.80 2.676
380.90 2.673
381.00 2.671
381.10 2.669
381.20 2.666
381.30 2.664
381.40 2.661
381.50 2.659
381.60 2.656
381.70 2.654
381.80 2.651
381.90 2.648
382.00 2.646
382.10 2.643
382.20 2.64
382.30 2.637
382.40 2.634
382.50 2.631
382.60 2.628
382.70 2.625
382.80 2.622
382.90 2.618
383.00 2.615
383.10 2.612
383.20 2.609
383.30 2.606
383.40 2.604
383.50 2.601
383.60 2.599
383.70 2.597
383.80 2.596
383.90 2.594
384.00 2.593
384.10 2.592
384.20 2.591
384.30 2.589
384.40 2.588
384.50 2.587
384.60 2.585
384.70 2.584
384.80 2.582
384.90 2.581
385.00 2.579
385.10 2.577
385.20 2.575
385.30 2.574
385.40 2.572
385.50 2.569
385.60 2.567
385.70 2.565
385.80 2.563
385.90 2.56
386.00 2.557
386.10 2.555
386.20 2.552
386.30 2.549
386.40 2.546
386.50 2.543
386.60 2.54
386.70 2.536
386.80 2.533
386.90 2.529
387.00 2.525
387.10 2.522
387.20 2.518
387.30 2.514
387.40 2.509
387.50 2.505
387.60 2.501
387.70 2.496
387.80 2.492
387.90 2.487
388.00 2.483
388.10 2.478
388.20 2.473
388.30 2.469
388.40 2.464
388.50 2.46
388.60 2.455
388.70 2.452
388.80 2.449
388.90 2.447
389.00 2.445
389.10 2.444
389.20 2.443
389.30 2.443
389.40 2.444
389.50 2.444
389.60 2.445
389.70 2.446
389.80 2.446
389.90 2.447
390.00 2.448
390.10 2.448
390.20 2.449
390.30 2.449
390.40 2.449
390.50 2.45
390.60 2.45
390.70 2.45
390.80 2.45
390.90 2.449
391.00 2.449
391.10 2.448
391.20 2.448
391.30 2.447
391.40 2.446
391.50 2.445
391.60 2.444
391.70 2.443
391.80 2.442
391.90 2.441
392.00 2.439
392.10 2.438
392.20 2.436
392.30 2.434
392.40 2.432
392.50 2.43
392.60 2.428
392.70 2.425
392.80 2.423
392.90 2.42
393.00 2.418
393.10 2.415
393.20 2.412
393.30 2.409
393.40 2.406
393.50 2.402
393.60 2.399
393.70 2.395
393.80 2.392
393.90 2.388
394.00 2.384
394.10 2.38
394.20 2.375
394.30 2.371
394.40 2.366
394.50 2.361
394.60 2.356
394.70 2.351
394.80 2.345
394.90 2.34
395.00 2.334
395.10 2.328
395.20 2.322
395.30 2.316
395.40 2.309
395.50 2.302
395.60 2.295
395.70 2.288
395.80 2.281
395.90 2.274
396.00 2.266
396.10 2.258
396.20 2.251
396.30 2.243
396.40 2.235
396.50 2.227
396.60 2.219
396.70 2.211
396.80 2.203
396.90 2.196
397.00 2.19
397.10 2.192
397.20 2.195
397.30 2.199
397.40 2.203
397.50 2.207
397.60 2.211
397.70 2.215
397.80 2.219
397.90 2.223
398.00 2.227
398.10 2.23
398.20 2.234
398.30 2.237
398.40 2.24
398.50 2.243
398.60 2.246
398.70 2.249
398.80 2.251
398.90 2.253
399.00 2.256
399.10 2.258
399.20 2.259
399.30 2.261
399.40 2.262
399.50 2.263
399.60 2.264
399.70 2.265
399.80 2.266
399.90 2.267
400.00 2.267
400.10 2.267
400.20 2.268
400.30 2.268
400.40 2.268
400.50 2.268
400.60 2.267
400.70 2.267
400.80 2.267
400.90 2.266
401.00 2.266
401.10 2.265
401.20 2.264
401.30 2.263
401.40 2.262
401.50 2.261
401.60 2.26
401.70 2.259
401.80 2.258
401.90 2.257
402.00 2.255
402.10 2.254
402.20 2.252
402.30 2.251
402.40 2.249
402.50 2.248
402.60 2.246
402.70 2.244
402.80 2.243
402.90 2.241
403.00 2.239
403.10 2.237
403.20 2.235
403.30 2.233
403.40 2.231
403.50 2.229
403.60 2.227
403.70 2.225
403.80 2.223
403.90 2.22
404.00 2.218
404.10 2.216
404.20 2.213
404.30 2.211
404.40 2.208
404.50 2.206
404.60 2.203
404.70 2.201
404.80 2.198
404.90 2.195
405.00 2.192
405.10 2.189
405.20 2.186
405.30 2.183
405.40 2.18
405.50 2.177
405.60 2.174
405.70 2.17
405.80 2.167
405.90 2.164
406.00 2.16
406.10 2.156
406.20 2.152
406.30 2.148
406.40 2.144
406.50 2.14
406.60 2.136
406.70 2.132
406.80 2.127
406.90 2.122
407.00 2.117
407.10 2.112
407.20 2.107
407.30 2.102
407.40 2.096
407.50 2.09
407.60 2.084
407.70 2.078
407.80 2.072
407.90 2.065
408.00 2.058
408.10 2.051
408.20 2.043
408.30 2.036
408.40 2.028
408.50 2.019
408.60 2.011
408.70 2.002
408.80 1.993
408.90 1.983
409.00 1.974
409.10 1.963
409.20 1.953
409.30 1.943
409.40 1.932
409.50 1.921
409.60 1.909
409.70 1.898
409.80 1.888
409.90 1.877
410.00 1.871
410.10 1.868
410.20 1.87
410.30 1.866
410.40 1.867
410.50 1.872
410.60 1.879
410.70 1.887
410.80 1.895
410.90 1.902
411.00 1.91
411.10 1.917
411.20 1.924
411.30 1.931
411.40 1.937
411.50 1.943
411.60 1.949
411.70 1.954
411.80 1.959
411.90 1.964
412.00 1.968
412.10 1.972
412.20 1.976
412.30 1.98
412.40 1.983
412.50 1.986
412.60 1.989
412.70 1.991
412.80 1.993
412.90 1.996
413.00 1.997
413.10 1.999
413.20 2.001
413.30 2.002
413.40 2.003
413.50 2.004
413.60 2.005
413.70 2.006
413.80 2.006
413.90 2.007
414.00 2.007
414.10 2.007
414.20 2.007
414.30 2.007
414.40 2.007
414.50 2.007
414.60 2.007
414.70 2.006
414.80 2.006
414.90 2.005
415.00 2.005
415.10 2.004
415.20 2.003
415.30 2.003
415.40 2.002
415.50 2.001
415.60 2
415.70 1.999
415.80 1.998
415.90 1.997
416.00 1.996
416.10 1.995
416.20 1.994
416.30 1.993
416.40 1.991
416.50 1.99
416.60 1.989
416.70 1.988
416.80 1.986
416.90 1.985
417.00 1.984
417.10 1.982
417.20 1.981
417.30 1.98
417.40 1.978
417.50 1.977
417.60 1.975
417.70 1.974
417.80 1.972
417.90 1.971
418.00 1.969
418.10 1.968
418.20 1.966
418.30 1.965
418.40 1.963
418.50 1.962
418.60 1.96
418.70 1.959
418.80 1.957
418.90 1.955
419.00 1.954
419.10 1.952
419.20 1.951
419.30 1.949
419.40 1.947
419.50 1.946
419.60 1.944
419.70 1.943
419.80 1.941
419.90 1.939
420.00 1.938
420.10 1.936
420.20 1.934
420.30 1.933
420.40 1.931
420.50 1.929
420.60 1.928
420.70 1.926
420.80 1.924
420.90 1.923
421.00 1.921
421.10 1.919
421.20 1.918
421.30 1.916
421.40 1.914
421.50 1.913
421.60 1.911
421.70 1.909
421.80 1.907
421.90 1.906
422.00 1.904
422.10 1.902
422.20 1.901
422.30 1.899
422.40 1.897
422.50 1.895
422.60 1.894
422.70 1.892
422.80 1.89
422.90 1.889
423.00 1.887
423.10 1.885
423.20 1.883
423.30 1.882
423.40 1.88
423.50 1.878
423.60 1.876
423.70 1.875
423.80 1.873
423.90 1.871
424.00 1.869
424.10 1.868
424.20 1.866
424.30 1.864
424.40 1.862
424.50 1.861
424.60 1.859
424.70 1.857
424.80 1.855
424.90 1.853
425.00 1.852
425.10 1.85
425.20 1.848
425.30 1.846
425.40 1.844
425.50 1.842
425.60 1.841
425.70 1.839
425.80 1.837
425.90 1.835
426.00 1.833
426.10 1.831
426.20 1.829
426.30 1.827
426.40 1.826
426.50 1.824
426.60 1.822
426.70 1.82
426.80 1.818
426.90 1.816
427.00 1.814
427.10 1.812
427.20 1.81
427.30 1.808
427.40 1.806
427.50 1.804
427.60 1.802
427.70 1.799
427.80 1.797
427.90 1.795
428.00 1.793
428.10 1.791
428.20 1.789
428.30 1.786
428.40 1.784
428.50 1.782
428.60 1.779
428.70 1.777
428.80 1.774
428.90 1.772
429.00 1.769
429.10 1.767
429.20 1.764
429.30 1.761
429.40 1.759
429.50 1.756
429.60 1.753
429.70 1.75
429.80 1.747
429.90 1.744
430.00 1.74
430.10 1.737
430.20 1.734
430.30 1.73
430.40 1.727
430.50 1.723
430.60 1.719
430.70 1.715
430.80 1.711
430.90 1.707
431.00 1.702
431.10 1.697
431.20 1.693
431.30 1.688
431.40 1.682
431.50 1.677
431.60 1.671
431.70 1.665
431.80 1.659
431.90 1.653
432.00 1.646
432.10 1.639
432.20 1.632
432.30 1.624
432.40 1.617
432.50 1.608
432.60 1.6
432.70 1.591
432.80 1.582
432.90 1.572
433.00 1.562
433.10 1.552
433.20 1.542
433.30 1.531
433.40 1.52
433.50 1.51
433.60 1.499
433.70 1.488
433.80 1.478
433.90 1.468
434.00 1.46
434.10 1.459
434.20 1.465
434.30 1.473
434.40 1.48
434.50 1.488
434.60 1.497
434.70 1.505
434.80 1.513
434.90 1.521
435.00 1.529
435.10 1.536
435.20 1.543
435.30 1.55
435.40 1.556
435.50 1.562
435.60 1.568
435.70 1.573
435.80 1.578
435.90 1.583
436.00 1.587
436.10 1.591
436.20 1.595
436.30 1.598
436.40 1.601
436.50 1.604
436.60 1.607
436.70 1.609
436.80 1.611
436.90 1.613
437.00 1.615
437.10 1.617
437.20 1.618
437.30 1.619
437.40 1.621
437.50 1.621
437.60 1.622
437.70 1.623
437.80 1.623
437.90 1.624
438.00 1.624
438.10 1.624
438.20 1.625
438.30 1.625
438.40 1.625
438.50 1.625
438.60 1.624
438.70 1.624
438.80 1.624
438.90 1.623
439.00 1.623
439.10 1.623
439.20 1.622
439.30 1.621
439.40 1.621
439.50 1.62
439.60 1.62
439.70 1.619
439.80 1.618
439.90 1.617
440.00 1.616
440.10 1.616
440.20 1.615
440.30 1.614
440.40 1.613
440.50 1.612
440.60 1.611
440.70 1.61
440.80 1.609
440.90 1.608
441.00 1.607
441.10 1.606
441.20 1.605
441.30 1.604
441.40 1.603
441.50 1.602
441.60 1.601
441.70 1.599
441.80 1.598
441.90 1.597
442.00 1.596
442.10 1.595
442.20 1.594
442.30 1.593
442.40 1.591
442.50 1.59
442.60 1.589
442.70 1.588
442.80 1.587
442.90 1.585
443.00 1.584
443.10 1.583
443.20 1.582
443.30 1.581
443.40 1.579
443.50 1.578
443.60 1.577
443.70 1.576
443.80 1.574
443.90 1.573
444.00 1.572
444.10 1.571
444.20 1.569
444.30 1.568
444.40 1.567
444.50 1.566
444.60 1.564
444.70 1.563
444.80 1.562
444.90 1.561
445.00 1.559
445.10 1.558
445.20 1.557
445.30 1.556
445.40 1.554
445.50 1.553
445.60 1.552
445.70 1.551
445.80 1.549
445.90 1.548
446.00 1.547
446.10 1.545
446.20 1.544
446.30 1.543
446.40 1.542
446.50 1.54
446.60 1.539
446.70 1.538
446.80 1.537
446.90 1.535
447.00 1.534
447.10 1.533
447.20 1.531
447.30 1.53
447.40 1.529
447.50 1.528
447.60 1.526
447.70 1.525
447.80 1.524
447.90 1.523
448.00 1.521
448.10 1.52
448.20 1.519
448.30 1.518
448.40 1.516
448.50 1.515
448.60 1.514
448.70 1.513
448.80 1.511
448.90 1.51
449.00 1.509
449.10 1.507
449.20 1.506
449.30 1.505
449.40 1.504
449.50 1.502
449.60 1.501
449.70 1.5
449.80 1.499
449.90 1.497
450.00 1.496
450.10 1.495
450.20 1.494
450.30 1.492
450.40 1.491
450.50 1.49
450.60 1.489
450.70 1.487
450.80 1.486
450.90 1.485
451.00 1.484
451.10 1.482
451.20 1.481
451.30 1.48
451.40 1.479
451.50 1.478
451.60 1.476
451.70 1.475
451.80 1.474
451.90 1.473
452.00 1.471
452.10 1.47
452.20 1.469
452.30 1.468
452.40 1.466
452.50 1.465
452.60 1.464
452.70 1.463
452.80 1.462
452.90 1.46
453.00 1.459
453.10 1.458
453.20 1.457
453.30 1.455
453.40 1.454
453.50 1.453
453.60 1.452
453.70 1.451
453.80 1.449
453.90 1.448
454.00 1.447
454.10 1.446
454.20 1.445
454.30 1.443
454.40 1.442
454.50 1.441
454.60 1.44
454.70 1.439
454.80 1.437
454.90 1.436
455.00 1.435
455.10 1.434
455.20 1.433
455.30 1.431
455.40 1.43
455.50 1.429
455.60 1.428
455.70 1.427
455.80 1.425
455.90 1.424
456.00 1.423
456.10 1.422
456.20 1.421
456.30 1.419
456.40 1.418
456.50 1.417
456.60 1.416
456.70 1.415
456.80 1.414
456.90 1.412
457.00 1.411
457.10 1.41
457.20 1.409
457.30 1.408
457.40 1.406
457.50 1.405
457.60 1.404
457.70 1.403
457.80 1.402
457.90 1.401
458.00 1.399
458.10 1.398
458.20 1.397
458.30 1.396
458.40 1.395
458.50 1.394
458.60 1.392
458.70 1.391
458.80 1.39
458.90 1.389
459.00 1.388
459.10 1.387
459.20 1.386
459.30 1.384
459.40 1.383
459.50 1.382
459.60 1.381
459.70 1.38
459.80 1.379
459.90 1.378
460.00 1.376
460.10 1.375
460.20 1.374
460.30 1.373
460.40 1.372
460.50 1.371
460.60 1.37
460.70 1.368
460.80 1.367
460.90 1.366
461.00 1.365
461.10 1.364
461.20 1.363
461.30 1.362
461.40 1.36
461.50 1.359
461.60 1.358
461.70 1.357
461.80 1.356
461.90 1.355
462.00 1.354
462.10 1.353
462.20 1.351
462.30 1.35
462.40 1.349
462.50 1.348
462.60 1.347
462.70 1.346
462.80 1.345
462.90 1.344
463.00 1.343
463.10 1.341
463.20 1.34
463.30 1.339
463.40 1.338
463.50 1.337
463.60 1.336
463.70 1.335
463.80 1.334
463.90 1.333
464.00 1.331
464.10 1.33
464.20 1.329
464.30 1.328
464.40 1.327
464.50 1.326
464.60 1.325
464.70 1.324
464.80 1.323
464.90 1.322
465.00 1.32
465.10 1.319
465.20 1.318
465.30 1.317
465.40 1.316
465.50 1.315
465.60 1.314
465.70 1.313
465.80 1.312
465.90 1.311
466.00 1.31
466.10 1.309
466.20 1.307
466.30 1.306
466.40 1.305
466.50 1.304
466.60 1.303
466.70 1.302
466.80 1.301
466.90 1.3
467.00 1.299
467.10 1.298
467.20 1.297
467.30 1.296
467.40 1.295
467.50 1.293
467.60 1.292
467.70 1.291
467.80 1.29
467.90 1.289
468.00 1.288
468.10 1.287
468.20 1.286
468.30 1.285
468.40 1.284
468.50 1.283
468.60 1.282
468.70 1.281
468.80 1.28
468.90 1.279
469.00 1.278
469.10 1.277
469.20 1.275
469.30 1.274
469.40 1.273
469.50 1.272
469.60 1.271
469.70 1.27
469.80 1.269
469.90 1.268
470.00 1.267
470.10 1.266
470.20 1.265
470.30 1.264
470.40 1.263
470.50 1.262
470.60 1.261
470.70 1.26
470.80 1.259
470.90 1.258
471.00 1.257
471.10 1.256
471.20 1.254
471.30 1.253
471.40 1.252
471.50 1.251
471.60 1.25
471.70 1.249
471.80 1.248
471.90 1.247
472.00 1.246
472.10 1.245
472.20 1.244
472.30 1.243
472.40 1.242
472.50 1.241
472.60 1.24
472.70 1.239
472.80 1.238
472.90 1.237
473.00 1.236
473.10 1.235
473.20 1.234
473.30 1.233
473.40 1.232
473.50 1.231
473.60 1.23
473.70 1.229
473.80 1.227
473.90 1.226
474.00 1.225
474.10 1.224
474.20 1.223
474.30 1.222
474.40 1.221
474.50 1.22
474.60 1.219
474.70 1.218
474.80 1.217
474.90 1.216
475.00 1.215
475.10 1.214
475.20 1.213
475.30 1.212
475.40 1.211
475.50 1.21
475.60 1.209
475.70 1.208
475.80 1.207
475.90 1.206
476.00 1.205
476.10 1.203
476.20 1.202
476.30 1.201
476.40 1.2
476.50 1.199
476.60 1.198
476.70 1.197
476.80 1.196
476.90 1.195
477.00 1.194
477.10 1.193
477.20 1.192
477.30 1.191
477.40 1.19
477.50 1.188
477.60 1.187
477.70 1.186
477.80 1.185
477.90 1.184
478.00 1.183
478.10 1.182
478.20 1.181
478.30 1.18
478.40 1.178
478.50 1.177
478.60 1.176
478.70 1.175
478.80 1.174
478.90 1.173
479.00 1.171
479.10 1.17
479.20 1.169
479.30 1.168
479.40 1.167
479.50 1.165
479.60 1.164
479.70 1.163
479.80 1.161
479.90 1.16
480.00 1.159
480.10 1.158
480.20 1.156
480.30 1.155
480.40 1.153
480.50 1.152
480.60 1.151
480.70 1.149
480.80 1.148
480.90 1.146
481.00 1.145
481.10 1.143
481.20 1.142
481.30 1.14
481.40 1.138
481.50 1.137
481.60 1.135
481.70 1.133
481.80 1.131
481.90 1.13
482.00 1.128
482.10 1.126
482.20 1.124
482.30 1.121
482.40 1.119
482.50 1.117
482.60 1.114
482.70 1.112
482.80 1.11
482.90 1.107
483.00 1.105
483.10 1.103
483.20 1.1
483.30 1.096
483.40 1.093
483.50 1.089
483.60 1.086
483.70 1.082
483.80 1.079
483.90 1.075
484.00 1.072
484.10 1.069
484.20 1.064
484.30 1.06
484.40 1.055
484.50 1.05
484.60 1.045
484.70 1.04
484.80 1.034
484.90 1.028
485.00 1.023
485.10 1.017
485.20 1.011
485.30 1.004
485.40 0.9976
485.50 0.9908
485.60 0.9838
485.70 0.9767
485.80 0.9693
485.90 0.9616
486.00 0.9543
486.10 0.9606
486.20 0.954
486.30 0.9541
486.40 0.9604
486.50 0.9666
486.60 0.9724
486.70 0.978
486.80 0.9833
486.90 0.9886
487.00 0.9936
487.10 0.9985
487.20 1.003
487.30 1.007
487.40 1.011
487.50 1.015
487.60 1.019
487.70 1.023
487.80 1.026
487.90 1.029
488.00 1.032
488.10 1.035
488.20 1.037
488.30 1.039
488.40 1.04
488.50 1.042
488.60 1.044
488.70 1.045
488.80 1.047
488.90 1.049
489.00 1.05
489.10 1.052
489.20 1.053
489.30 1.054
489.40 1.054
489.50 1.055
489.60 1.055
489.70 1.056
489.80 1.056
489.90 1.057
490.00 1.057
490.10 1.058
490.20 1.058
490.30 1.058
490.40 1.058
490.50 1.058
490.60 1.058
490.70 1.058
490.80 1.058
490.90 1.058
491.00 1.058
491.10 1.058
491.20 1.058
491.30 1.057
491.40 1.057
491.50 1.056
491.60 1.056
491.70 1.056
491.80 1.055
491.90 1.055
492.00 1.055
492.10 1.054
492.20 1.054
492.30 1.053
492.40 1.053
492.50 1.052
492.60 1.052
492.70 1.051
492.80 1.051
492.90 1.05
493.00 1.05
493.10 1.049
493.20 1.048
493.30 1.048
493.40 1.047
493.50 1.046
493.60 1.046
493.70 1.045
493.80 1.045
493.90 1.044
494.00 1.043
494.10 1.043
494.20 1.042
494.30 1.041
494.40 1.041
494.50 1.04
494.60 1.039
494.70 1.039
494.80 1.038
494.90 1.037
495.00 1.037
495.10 1.036
495.20 1.035
495.30 1.034
495.40 1.034
495.50 1.033
495.60 1.032
495.70 1.032
495.80 1.031
495.90 1.03
496.00 1.03
496.10 1.029
496.20 1.028
496.30 1.027
496.40 1.027
496.50 1.026
496.60 1.025
496.70 1.024
496.80 1.024
496.90 1.023
497.00 1.022
497.10 1.022
497.20 1.021
497.30 1.02
497.40 1.019
497.50 1.019
497.60 1.018
497.70 1.017
497.80 1.016
497.90 1.016
498.00 1.015
498.10 1.014
498.20 1.013
498.30 1.013
498.40 1.012
498.50 1.011
498.60 1.01
498.70 1.01
498.80 1.009
498.90 1.008
499.00 1.007
499.10 1.007
499.20 1.006
499.30 1.005
499.40 1.004
499.50 1.004
499.60 1.003
499.70 1.002
499.80 1.001
499.90 1.001
500.00 1
500.10 0.9993
500.20 0.9985
500.30 0.9978
500.40 0.997
500.50 0.9963
500.60 0.9955
500.70 0.9948
500.80 0.9941
500.90 0.9933
501.00 0.9926
501.10 0.9918
501.20 0.9911
501.30 0.9904
501.40 0.9896
501.50 0.9889
501.60 0.9881
501.70 0.9874
501.80 0.9867
501.90 0.9859
502.00 0.9852
502.10 0.9845
502.20 0.9837
502.30 0.983
502.40 0.9822
502.50 0.9815
502.60 0.9808
502.70 0.98
502.80 0.9793
502.90 0.9786
503.00 0.9778
503.10 0.9771
503.20 0.9764
503.30 0.9756
503.40 0.9749
503.50 0.9742
503.60 0.9734
503.70 0.9727
503.80 0.972
503.90 0.9713
504.00 0.9705
504.10 0.9698
504.20 0.9691
504.30 0.9683
504.40 0.9676
504.50 0.9669
504.60 0.9662
504.70 0.9654
504.80 0.9647
504.90 0.964
505.00 0.9633
505.10 0.9625
505.20 0.9618
505.30 0.9611
505.40 0.9604
505.50 0.9597
505.60 0.9589
505.70 0.9582
505.80 0.9575
505.90 0.9568
506.00 0.9561
506.10 0.9553
506.20 0.9546
506.30 0.9539
506.40 0.9532
506.50 0.9525
506.60 0.9518
506.70 0.9511
506.80 0.9503
506.90 0.9496
507.00 0.9489
507.10 0.9482
507.20 0.9475
507.30 0.9468
507.40 0.9461
507.50 0.9454
507.60 0.9447
507.70 0.944
507.80 0.9432
507.90 0.9425
508.00 0.9418
508.10 0.9411
508.20 0.9404
508.30 0.9397
508.40 0.939
508.50 0.9383
508.60 0.9376
508.70 0.9369
508.80 0.9362
508.90 0.9355
509.00 0.9348
509.10 0.9341
509.20 0.9334
509.30 0.9327
509.40 0.932
509.50 0.9313
509.60 0.9306
509.70 0.9299
509.80 0.9292
509.90 0.9285
510.00 0.9278
510.10 0.9271
510.20 0.9265
510.30 0.9258
510.40 0.9251
510.50 0.9244
510.60 0.9237
510.70 0.923
510.80 0.9223
510.90 0.9216
511.00 0.9209
511.10 0.9202
511.20 0.9196
511.30 0.9189
511.40 0.9182
511.50 0.9175
511.60 0.9168
511.70 0.9161
511.80 0.9154
511.90 0.9148
512.00 0.9141
512.10 0.9134
512.20 0.9127
512.30 0.912
512.40 0.9114
512.50 0.9107
512.60 0.91
512.70 0.9093
512.80 0.9086
512.90 0.908
513.00 0.9073
513.10 0.9066
513.20 0.9059
513.30 0.9053
513.40 0.9046
513.50 0.9039
513.60 0.9033
513.70 0.9026
513.80 0.9019
513.90 0.9012
514.00 0.9006
514.10 0.8999
514.20 0.8992
514.30 0.8986
514.40 0.8979
514.50 0.8972
514.60 0.8966
514.70 0.8959
514.80 0.8952
514.90 0.8946
515.00 0.8939
515.10 0.8932
515.20 0.8926
515.30 0.8919
515.40 0.8912
515.50 0.8906
515.60 0.8899
515.70 0.8893
515.80 0.8886
515.90 0.8879
516.00 0.8873
516.10 0.8866
516.20 0.886
516.30 0.8853
516.40 0.8847
516.50 0.884
516.60 0.8834
516.70 0.8827
516.80 0.8821
516.90 0.8814
517.00 0.8807
517.10 0.8801
517.20 0.8794
517.30 0.8788
517.40 0.8781
517.50 0.8775
517.60 0.8768
517.70 0.8762
517.80 0.8756
517.90 0.8749
518.00 0.8743
518.10 0.8736
518.20 0.873
518.30 0.8723
518.40 0.8717
518.50 0.871
518.60 0.8704
518.70 0.8698
518.80 0.8691
518.90 0.8685
519.00 0.8678
519.10 0.8672
519.20 0.8665
519.30 0.8659
519.40 0.8653
519.50 0.8646
519.60 0.864
519.70 0.8634
519.80 0.8627
519.90 0.8621
520.00 0.8615
520.10 0.8608
520.20 0.8602
520.30 0.8596
520.40 0.8589
520.50 0.8583
520.60 0.8577
520.70 0.857
520.80 0.8564
520.90 0.8558
521.00 0.8551
521.10 0.8545
521.20 0.8539
521.30 0.8533
521.40 0.8526
521.50 0.852
521.60 0.8514
521.70 0.8508
521.80 0.8501
521.90 0.8495
522.00 0.8489
522.10 0.8483
522.20 0.8476
522.30 0.847
522.40 0.8464
522.50 0.8458
522.60 0.8452
522.70 0.8445
522.80 0.8439
522.90 0.8433
523.00 0.8427
523.10 0.8421
523.20 0.8415
523.30 0.8408
523.40 0.8402
523.50 0.8396
523.60 0.839
523.70 0.8384
523.80 0.8378
523.90 0.8372
524.00 0.8365
524.10 0.8359
524.20 0.8353
524.30 0.8347
524.40 0.8341
524.50 0.8335
524.60 0.8329
524.70 0.8323
524.80 0.8317
524.90 0.8311
525.00 0.8305
525.10 0.8298
525.20 0.8292
525.30 0.8286
525.40 0.828
525.50 0.8274
525.60 0.8268
525.70 0.8262
525.80 0.8256
525.90 0.825
526.00 0.8244
526.10 0.8238
526.20 0.8232
526.30 0.8226
526.40 0.822
526.50 0.8214
526.60 0.8208
526.70 0.8202
526.80 0.8196
526.90 0.819
527.00 0.8184
527.10 0.8178
527.20 0.8173
527.30 0.8167
527.40 0.8161
527.50 0.8155
527.60 0.8149
527.70 0.8143
527.80 0.8137
527.90 0.8131
528.00 0.8125
528.10 0.8119
528.20 0.8113
528.30 0.8107
528.40 0.8102
528.50 0.8096
528.60 0.809
528.70 0.8084
528.80 0.8078
528.90 0.8072
529.00 0.8066
529.10 0.8061
529.20 0.8055
529.30 0.8049
529.40 0.8043
529.50 0.8037
529.60 0.8031
529.70 0.8026
529.80 0.802
529.90 0.8014
530.00 0.8008
530.10 0.8002
530.20 0.7997
530.30 0.7991
530.40 0.7985
530.50 0.7979
530.60 0.7974
530.70 0.7968
530.80 0.7962
530.90 0.7956
531.00 0.7951
531.10 0.7945
531.20 0.7939
531.30 0.7933
531.40 0.7928
531.50 0.7922
531.60 0.7916
531.70 0.7911
531.80 0.7905
531.90 0.7899
532.00 0.7893
532.10 0.7888
532.20 0.7882
532.30 0.7876
532.40 0.7871
532.50 0.7865
532.60 0.7859
532.70 0.7854
532.80 0.7848
532.90 0.7842
533.00 0.7837
533.10 0.7831
533.20 0.7826
533.30 0.782
533.40 0.7814
533.50 0.7809
533.60 0.7803
533.70 0.7797
533.80 0.7792
533.90 0.7786
534.00 0.7781
534.10 0.7775
534.20 0.777
534.30 0.7764
534.40 0.7758
534.50 0.7753
534.60 0.7747
534.70 0.7742
534.80 0.7736
534.90 0.7731
535.00 0.7725
535.10 0.772
535.20 0.7714
535.30 0.7708
535.40 0.7703
535.50 0.7697
535.60 0.7692
535.70 0.7686
535.80 0.7681
535.90 0.7675
536.00 0.767
536.10 0.7664
536.20 0.7659
536.30 0.7653
536.40 0.7648
536.50 0.7643
536.60 0.7637
536.70 0.7632
536.80 0.7626
536.90 0.7621
537.00 0.7615
537.10 0.761
537.20 0.7604
537.30 0.7599
537.40 0.7594
537.50 0.7588
537.60 0.7583
537.70 0.7577
537.80 0.7572
537.90 0.7567
538.00 0.7561
538.10 0.7556
538.20 0.755
538.30 0.7545
538.40 0.754
538.50 0.7534
538.60 0.7529
538.70 0.7524
538.80 0.7518
538.90 0.7513
539.00 0.7507
539.10 0.7502
539.20 0.7497
539.30 0.7491
539.40 0.7486
539.50 0.7481
539.60 0.7475
539.70 0.747
539.80 0.7465
539.90 0.746
540.00 0.7454
540.10 0.7449
540.20 0.7444
540.30 0.7438
540.40 0.7433
540.50 0.7428
540.60 0.7423
540.70 0.7417
540.80 0.7412
540.90 0.7407
541.00 0.7402
541.10 0.7396
541.20 0.7391
541.30 0.7386
541.40 0.7381
541.50 0.7375
541.60 0.737
541.70 0.7365
541.80 0.736
541.90 0.7354
542.00 0.7349
542.10 0.7344
542.20 0.7339
542.30 0.7334
542.40 0.7328
542.50 0.7323
542.60 0.7318
542.70 0.7313
542.80 0.7308
542.90 0.7303
543.00 0.7297
543.10 0.7292
543.20 0.7287
543.30 0.7282
543.40 0.7277
543.50 0.7272
543.60 0.7267
543.70 0.7261
543.80 0.7256
543.90 0.7251
544.00 0.7246
544.10 0.7241
544.20 0.7236
544.30 0.7231
544.40 0.7226
544.50 0.7221
544.60 0.7216
544.70 0.721
544.80 0.7205
544.90 0.72
545.00 0.7195
545.10 0.719
545.20 0.7185
545.30 0.718
545.40 0.7175
545.50 0.717
545.60 0.7165
545.70 0.716
545.80 0.7155
545.90 0.715
546.00 0.7145
546.10 0.714
546.20 0.7135
546.30 0.713
546.40 0.7125
546.50 0.712
546.60 0.7115
546.70 0.711
546.80 0.7105
546.90 0.71
547.00 0.7095
547.10 0.709
547.20 0.7085
547.30 0.708
547.40 0.7075
547.50 0.707
547.60 0.7065
547.70 0.706
547.80 0.7055
547.90 0.705
548.00 0.7045
548.10 0.704
548.20 0.7035
548.30 0.703
548.40 0.7025
548.50 0.7021
548.60 0.7016
548.70 0.7011
548.80 0.7006
548.90 0.7001
549.00 0.6996
549.10 0.6991
549.20 0.6986
549.30 0.6981
549.40 0.6977
549.50 0.6972
549.60 0.6967
549.70 0.6962
549.80 0.6957
549.90 0.6952
550.00 0.6947
550.10 0.6942
550.20 0.6938
550.30 0.6933
550.40 0.6928
550.50 0.6923
550.60 0.6918
550.70 0.6914
550.80 0.6909
550.90 0.6904
551.00 0.6899
551.10 0.6894
551.20 0.6889
551.30 0.6885
551.40 0.688
551.50 0.6875
551.60 0.687
551.70 0.6866
551.80 0.6861
551.90 0.6856
552.00 0.6851
552.10 0.6846
552.20 0.6842
552.30 0.6837
552.40 0.6832
552.50 0.6827
552.60 0.6823
552.70 0.6818
552.80 0.6813
552.90 0.6808
553.00 0.6804
553.10 0.6799
553.20 0.6794
553.30 0.679
553.40 0.6785
553.50 0.678
553.60 0.6775
553.70 0.6771
553.80 0.6766
553.90 0.6761
554.00 0.6757
554.10 0.6752
554.20 0.6747
554.30 0.6743
554.40 0.6738
554.50 0.6733
554.60 0.6729
554.70 0.6724
554.80 0.6719
554.90 0.6715
555.00 0.671
555.10 0.6705
555.20 0.6701
555.30 0.6696
555.40 0.6692
555.50 0.6687
555.60 0.6682
555.70 0.6678
555.80 0.6673
555.90 0.6668
556.00 0.6664
556.10 0.6659
556.20 0.6655
556.30 0.665
556.40 0.6645
556.50 0.6641
556.60 0.6636
556.70 0.6632
556.80 0.6627
556.90 0.6623
557.00 0.6618
557.10 0.6613
557.20 0.6609
557.30 0.6604
557.40 0.66
557.50 0.6595
557.60 0.6591
557.70 0.6586
557.80 0.6582
557.90 0.6577
558.00 0.6573
558.10 0.6568
558.20 0.6564
558.30 0.6559
558.40 0.6554
558.50 0.655
558.60 0.6545
558.70 0.6541
558.80 0.6536
558.90 0.6532
559.00 0.6528
559.10 0.6523
559.20 0.6519
559.30 0.6514
559.40 0.651
559.50 0.6505
559.60 0.6501
559.70 0.6496
559.80 0.6492
559.90 0.6487
560.00 0.6483
560.10 0.6478
560.20 0.6474
560.30 0.647
560.40 0.6465
560.50 0.6461
560.60 0.6456
560.70 0.6452
560.80 0.6447
560.90 0.6443
561.00 0.6439
561.10 0.6434
561.20 0.643
561.30 0.6425
561.40 0.6421
561.50 0.6417
561.60 0.6412
561.70 0.6408
561.80 0.6403
561.90 0.6399
562.00 0.6395
562.10 0.639
562.20 0.6386
562.30 0.6382
562.40 0.6377
562.50 0.6373
562.60 0.6369
562.70 0.6364
562.80 0.636
562.90 0.6355
563.00 0.6351
563.10 0.6347
563.20 0.6342
563.30 0.6338
563.40 0.6334
563.50 0.633
563.60 0.6325
563.70 0.6321
563.80 0.6317
563.90 0.6312
564.00 0.6308
564.10 0.6304
564.20 0.6299
564.30 0.6295
564.40 0.6291
564.50 0.6287
564.60 0.6282
564.70 0.6278
564.80 0.6274
564.90 0.6269
565.00 0.6265
565.10 0.6261
565.20 0.6257
565.30 0.6252
565.40 0.6248
565.50 0.6244
565.60 0.624
565.70 0.6235
565.80 0.6231
565.90 0.6227
566.00 0.6223
566.10 0.6219
566.20 0.6214
566.30 0.621
566.40 0.6206
566.50 0.6202
566.60 0.6197
566.70 0.6193
566.80 0.6189
566.90 0.6185
567.00 0.6181
567.10 0.6176
567.20 0.6172
567.30 0.6168
567.40 0.6164
567.50 0.616
567.60 0.6156
567.70 0.6151
567.80 0.6147
567.90 0.6143
568.00 0.6139
568.10 0.6135
568.20 0.6131
568.30 0.6127
568.40 0.6122
568.50 0.6118
568.60 0.6114
568.70 0.611
568.80 0.6106
568.90 0.6102
569.00 0.6098
569.10 0.6093
569.20 0.6089
569.30 0.6085
569.40 0.6081
569.50 0.6077
569.60 0.6073
569.70 0.6069
569.80 0.6065
569.90 0.6061
570.00 0.6057
570.10 0.6052
570.20 0.6048
570.30 0.6044
570.40 0.604
570.50 0.6036
570.60 0.6032
570.70 0.6028
570.80 0.6024
570.90 0.602
571.00 0.6016
571.10 0.6012
571.20 0.6008
571.30 0.6004
571.40 0.6
571.50 0.5996
571.60 0.5992
571.70 0.5988
571.80 0.5984
571.90 0.598
572.00 0.5976
572.10 0.5972
572.20 0.5968
572.30 0.5964
572.40 0.596
572.50 0.5956
572.60 0.5952
572.70 0.5948
572.80 0.5944
572.90 0.594
573.00 0.5936
573.10 0.5932
573.20 0.5928
573.30 0.5924
573.40 0.592
573.50 0.5916
573.60 0.5912
573.70 0.5908
573.80 0.5904
573.90 0.59
574.00 0.5896
574.10 0.5892
574.20 0.5888
574.30 0.5884
574.40 0.588
574.50 0.5876
574.60 0.5872
574.70 0.5868
574.80 0.5864
574.90 0.5861
575.00 0.5857
575.10 0.5853
575.20 0.5849
575.30 0.5845
575.40 0.5841
575.50 0.5837
575.60 0.5833
575.70 0.5829
575.80 0.5825
575.90 0.5822
576.00 0.5818
576.10 0.5814
576.20 0.581
576.30 0.5806
576.40 0.5802
576.50 0.5798
576.60 0.5794
576.70 0.5791
576.80 0.5787
576.90 0.5783
577.00 0.5779
577.10 0.5775
577.20 0.5771
577.30 0.5767
577.40 0.5764
577.50 0.576
577.60 0.5756
577.70 0.5752
577.80 0.5748
577.90 0.5744
578.00 0.5741
578.10 0.5737
578.20 0.5733
578.30 0.5729
578.40 0.5725
578.50 0.5722
578.60 0.5718
578.70 0.5714
578.80 0.571
578.90 0.5706
579.00 0.5703
579.10 0.5699
579.20 0.5695
579.30 0.5691
579.40 0.5687
579.50 0.5684
579.60 0.568
579.70 0.5676
579.80 0.5672
579.90 0.5669
580.00 0.5665
580.10 0.5661
580.20 0.5657
580.30 0.5654
580.40 0.565
580.50 0.5646
580.60 0.5642
580.70 0.5639
580.80 0.5635
580.90 0.5631
581.00 0.5627
581.10 0.5624
581.20 0.562
581.30 0.5616
581.40 0.5613
581.50 0.5609
581.60 0.5605
581.70 0.5601
581.80 0.5598
581.90 0.5594
582.00 0.559
582.10 0.5587
582.20 0.5583
582.30 0.5579
582.40 0.5576
582.50 0.5572
582.60 0.5568
582.70 0.5565
582.80 0.5561
582.90 0.5557
583.00 0.5554
583.10 0.555
583.20 0.5546
583.30 0.5543
583.40 0.5539
583.50 0.5535
583.60 0.5532
583.70 0.5528
583.80 0.5524
583.90 0.5521
584.00 0.5517
584.10 0.5513
584.20 0.551
584.30 0.5506
584.40 0.5503
584.50 0.5499
584.60 0.5495
584.70 0.5492
584.80 0.5488
584.90 0.5484
585.00 0.5481
585.10 0.5477
585.20 0.5474
585.30 0.547
585.40 0.5466
585.50 0.5463
585.60 0.5459
585.70 0.5456
585.80 0.5452
585.90 0.5449
586.00 0.5445
586.10 0.5441
586.20 0.5438
586.30 0.5434
586.40 0.5431
586.50 0.5427
586.60 0.5424
586.70 0.542
586.80 0.5416
586.90 0.5413
587.00 0.5409
587.10 0.5406
587.20 0.5402
587.30 0.5399
587.40 0.5395
587.50 0.5392
587.60 0.5388
587.70 0.5385
587.80 0.5381
587.90 0.5378
588.00 0.5374
588.10 0.5371
588.20 0.5367
588.30 0.5364
588.40 0.536
588.50 0.5357
588.60 0.5353
588.70 0.535
588.80 0.5346
588.90 0.5343
589.00 0.5339
589.10 0.5336
589.20 0.5332
589.30 0.5329
589.40 0.5325
589.50 0.5322
589.60 0.5318
589.70 0.5315
589.80 0.5311
589.90 0.5308
590.00 0.5304
590.10 0.5301
590.20 0.5297
590.30 0.5294
590.40 0.5291
590.50 0.5287
590.60 0.5284
590.70 0.528
590.80 0.5277
590.90 0.5273
591.00 0.527
591.10 0.5266
591.20 0.5263
591.30 0.526
591.40 0.5256
591.50 0.5253
591.60 0.5249
591.70 0.5246
591.80 0.5243
591.90 0.5239
592.00 0.5236
592.10 0.5232
592.20 0.5229
592.30 0.5226
592.40 0.5222
592.50 0.5219
592.60 0.5215
592.70 0.5212
592.80 0.5209
592.90 0.5205
593.00 0.5202
593.10 0.5198
593.20 0.5195
593.30 0.5192
593.40 0.5188
593.50 0.5185
593.60 0.5182
593.70 0.5178
593.80 0.5175
593.90 0.5172
594.00 0.5168
594.10 0.5165
594.20 0.5161
594.30 0.5158
594.40 0.5155
594.50 0.5151
594.60 0.5148
594.70 0.5145
594.80 0.5141
594.90 0.5138
595.00 0.5135
595.10 0.5131
595.20 0.5128
595.30 0.5125
595.40 0.5122
595.50 0.5118
595.60 0.5115
595.70 0.5112
595.80 0.5108
595.90 0.5105
596.00 0.5102
596.10 0.5098
596.20 0.5095
596.30 0.5092
596.40 0.5089
596.50 0.5085
596.60 0.5082
596.70 0.5079
596.80 0.5075
596.90 0.5072
597.00 0.5069
597.10 0.5066
597.20 0.5062
597.30 0.5059
597.40 0.5056
597.50 0.5053
597.60 0.5049
597.70 0.5046
597.80 0.5043
597.90 0.504
598.00 0.5036
598.10 0.5033
598.20 0.503
598.30 0.5027
598.40 0.5023
598.50 0.502
598.60 0.5017
598.70 0.5014
598.80 0.5011
598.90 0.5007
599.00 0.5004
599.10 0.5001
599.20 0.4998
599.30 0.4994
599.40 0.4991
599.50 0.4988
599.60 0.4985
599.70 0.4982
599.80 0.4978
599.90 0.4975
600.00 0.4972
600.10 0.4969
600.20 0.4966
600.30 0.4962
600.40 0.4959
600.50 0.4956
600.60 0.4953
600.70 0.495
600.80 0.4947
600.90 0.4943
601.00 0.494
601.10 0.4937
601.20 0.4934
601.30 0.4931
601.40 0.4928
601.50 0.4924
601.60 0.4921
601.70 0.4918
601.80 0.4915
601.90 0.4912
602.00 0.4909
602.10 0.4906
602.20 0.4902
602.30 0.4899
602.40 0.4896
602.50 0.4893
602.60 0.489
602.70 0.4887
602.80 0.4884
602.90 0.4881
603.00 0.4877
603.10 0.4874
603.20 0.4871
603.30 0.4868
603.40 0.4865
603.50 0.4862
603.60 0.4859
603.70 0.4856
603.80 0.4853
603.90 0.485
604.00 0.4846
604.10 0.4843
604.20 0.484
604.30 0.4837
604.40 0.4834
604.50 0.4831
604.60 0.4828
604.70 0.4825
604.80 0.4822
604.90 0.4819
605.00 0.4816
605.10 0.4813
605.20 0.481
605.30 0.4806
605.40 0.4803
605.50 0.48
605.60 0.4797
605.70 0.4794
605.80 0.4791
605.90 0.4788
606.00 0.4785
606.10 0.4782
606.20 0.4779
606.30 0.4776
606.40 0.4773
606.50 0.477
606.60 0.4767
606.70 0.4764
606.80 0.4761
606.90 0.4758
607.00 0.4755
607.10 0.4752
607.20 0.4749
607.30 0.4746
607.40 0.4743
607.50 0.474
607.60 0.4737
607.70 0.4734
607.80 0.4731
607.90 0.4728
608.00 0.4725
608.10 0.4722
608.20 0.4719
608.30 0.4716
608.40 0.4713
608.50 0.471
608.60 0.4707
608.70 0.4704
608.80 0.4701
608.90 0.4698
609.00 0.4695
609.10 0.4692
609.20 0.4689
609.30 0.4686
609.40 0.4683
609.50 0.468
609.60 0.4677
609.70 0.4674
609.80 0.4671
609.90 0.4668
610.00 0.4665
610.10 0.4662
610.20 0.4659
610.30 0.4657
610.40 0.4654
610.50 0.4651
610.60 0.4648
610.70 0.4645
610.80 0.4642
610.90 0.4639
611.00 0.4636
611.10 0.4633
611.20 0.463
611.30 0.4627
611.40 0.4624
611.50 0.4621
611.60 0.4619
611.70 0.4616
611.80 0.4613
611.90 0.461
612.00 0.4607
612.10 0.4604
612.20 0.4601
612.30 0.4598
612.40 0.4595
612.50 0.4592
612.60 0.459
612.70 0.4587
612.80 0.4584
612.90 0.4581
613.00 0.4578
613.10 0.4575
613.20 0.4572
613.30 0.4569
613.40 0.4567
613.50 0.4564
613.60 0.4561
613.70 0.4558
613.80 0.4555
613.90 0.4552
614.00 0.4549
614.10 0.4546
614.20 0.4544
614.30 0.4541
614.40 0.4538
614.50 0.4535
614.60 0.4532
614.70 0.4529
614.80 0.4527
614.90 0.4524
615.00 0.4521
615.10 0.4518
615.20 0.4515
615.30 0.4512
615.40 0.451
615.50 0.4507
615.60 0.4504
615.70 0.4501
615.80 0.4498
615.90 0.4495
616.00 0.4493
616.10 0.449
616.20 0.4487
616.30 0.4484
616.40 0.4481
616.50 0.4479
616.60 0.4476
616.70 0.4473
616.80 0.447
616.90 0.4467
617.00 0.4465
617.10 0.4462
617.20 0.4459
617.30 0.4456
617.40 0.4454
617.50 0.4451
617.60 0.4448
617.70 0.4445
617.80 0.4442
617.90 0.444
618.00 0.4437
618.10 0.4434
618.20 0.4431
618.30 0.4429
618.40 0.4426
618.50 0.4423
618.60 0.442
618.70 0.4418
618.80 0.4415
618.90 0.4412
619.00 0.4409
619.10 0.4407
619.20 0.4404
619.30 0.4401
619.40 0.4398
619.50 0.4396
619.60 0.4393
619.70 0.439
619.80 0.4387
619.90 0.4385
620.00 0.4382
620.10 0.4379
620.20 0.4376
620.30 0.4374
620.40 0.4371
620.50 0.4368
620.60 0.4366
620.70 0.4363
620.80 0.436
620.90 0.4357
621.00 0.4355
621.10 0.4352
621.20 0.4349
621.30 0.4347
621.40 0.4344
621.50 0.4341
621.60 0.4339
621.70 0.4336
621.80 0.4333
621.90 0.433
622.00 0.4328
622.10 0.4325
622.20 0.4322
622.30 0.432
622.40 0.4317
622.50 0.4314
622.60 0.4312
622.70 0.4309
622.80 0.4306
622.90 0.4304
623.00 0.4301
623.10 0.4298
623.20 0.4296
623.30 0.4293
623.40 0.429
623.50 0.4288
623.60 0.4285
623.70 0.4282
623.80 0.428
623.90 0.4277
624.00 0.4275
624.10 0.4272
624.20 0.4269
624.30 0.4267
624.40 0.4264
624.50 0.4261
624.60 0.4259
624.70 0.4256
624.80 0.4253
624.90 0.4251
625.00 0.4248
625.10 0.4246
625.20 0.4243
625.30 0.424
625.40 0.4238
625.50 0.4235
625.60 0.4232
625.70 0.423
625.80 0.4227
625.90 0.4225
626.00 0.4222
626.10 0.4219
626.20 0.4217
626.30 0.4214
626.40 0.4212
626.50 0.4209
626.60 0.4206
626.70 0.4204
626.80 0.4201
626.90 0.4199
627.00 0.4196
627.10 0.4193
627.20 0.4191
627.30 0.4188
627.40 0.4186
627.50 0.4183
627.60 0.4181
627.70 0.4178
627.80 0.4175
627.90 0.4173
628.00 0.417
628.10 0.4168
628.20 0.4165
628.30 0.4163
628.40 0.416
628.50 0.4157
628.60 0.4155
628.70 0.4152
628.80 0.415
628.90 0.4147
629.00 0.4145
629.10 0.4142
629.20 0.414
629.30 0.4137
629.40 0.4135
629.50 0.4132
629.60 0.4129
629.70 0.4127
629.80 0.4124
629.90 0.4122
630.00 0.4119
630.10 0.4117
630.20 0.4114
630.30 0.4112
630.40 0.4109
630.50 0.4107
630.60 0.4104
630.70 0.4102
630.80 0.4099
630.90 0.4097
631.00 0.4094
631.10 0.4092
631.20 0.4089
631.30 0.4087
631.40 0.4084
631.50 0.4082
631.60 0.4079
631.70 0.4077
631.80 0.4074
631.90 0.4072
632.00 0.4069
632.10 0.4067
632.20 0.4064
632.30 0.4062
632.40 0.4059
632.50 0.4057
632.60 0.4054
632.70 0.4052
632.80 0.4049
632.90 0.4047
633.00 0.4044
633.10 0.4042
633.20 0.4039
633.30 0.4037
633.40 0.4034
633.50 0.4032
633.60 0.4029
633.70 0.4027
633.80 0.4024
633.90 0.4022
634.00 0.402
634.10 0.4017
634.20 0.4015
634.30 0.4012
634.40 0.401
634.50 0.4007
634.60 0.4005
634.70 0.4002
634.80 0.4
634.90 0.3997
635.00 0.3995
635.10 0.3993
635.20 0.399
635.30 0.3988
635.40 0.3985
635.50 0.3983
635.60 0.398
635.70 0.3978
635.80 0.3976
635.90 0.3973
636.00 0.3971
636.10 0.3968
636.20 0.3966
636.30 0.3963
636.40 0.3961
636.50 0.3959
636.60 0.3956
636.70 0.3954
636.80 0.3951
636.90 0.3949
637.00 0.3946
637.10 0.3944
637.20 0.3942
637.30 0.3939
637.40 0.3937
637.50 0.3934
637.60 0.3932
637.70 0.393
637.80 0.3927
637.90 0.3925
638.00 0.3922
638.10 0.392
638.20 0.3918
638.30 0.3915
638.40 0.3913
638.50 0.391
638.60 0.3908
638.70 0.3906
638.80 0.3903
638.90 0.3901
639.00 0.3898
639.10 0.3896
639.20 0.3894
639.30 0.3891
639.40 0.3889
639.50 0.3887
639.60 0.3884
639.70 0.3882
639.80 0.3879
639.90 0.3877
640.00 0.3875
640.10 0.3872
640.20 0.387
640.30 0.3867
640.40 0.3865
640.50 0.3863
640.60 0.386
640.70 0.3858
640.80 0.3856
640.90 0.3853
641.00 0.3851
641.10 0.3849
641.20 0.3846
641.30 0.3844
641.40 0.3841
641.50 0.3839
641.60 0.3837
641.70 0.3834
641.80 0.3832
641.90 0.383
642.00 0.3827
642.10 0.3825
642.20 0.3822
642.30 0.382
642.40 0.3818
642.50 0.3815
642.60 0.3813
642.70 0.3811
642.80 0.3808
642.90 0.3806
643.00 0.3804
643.10 0.3801
643.20 0.3799
643.30 0.3796
643.40 0.3794
643.50 0.3792
643.60 0.3789
643.70 0.3787
643.80 0.3785
643.90 0.3782
644.00 0.378
644.10 0.3778
644.20 0.3775
644.30 0.3773
644.40 0.377
644.50 0.3768
644.60 0.3766
644.70 0.3763
644.80 0.3761
644.90 0.3758
645.00 0.3756
645.10 0.3754
645.20 0.3751
645.30 0.3749
645.40 0.3747
645.50 0.3744
645.60 0.3742
645.70 0.3739
645.80 0.3737
645.90 0.3735
646.00 0.3732
646.10 0.373
646.20 0.3727
646.30 0.3725
646.40 0.3722
646.50 0.372
646.60 0.3718
646.70 0.3715
646.80 0.3713
646.90 0.371
647.00 0.3708
647.10 0.3705
647.20 0.3703
647.30 0.37
647.40 0.3698
647.50 0.3695
647.60 0.3693
647.70 0.369
647.80 0.3688
647.90 0.3685
648.00 0.3683
648.10 0.368
648.20 0.3678
648.30 0.3675
648.40 0.3672
648.50 0.367
648.60 0.3667
648.70 0.3665
648.80 0.3662
648.90 0.3659
649.00 0.3657
649.10 0.3654
649.20 0.3651
649.30 0.3649
649.40 0.3646
649.50 0.3643
649.60 0.364
649.70 0.3637
649.80 0.3634
649.90 0.3631
650.00 0.3628
650.10 0.3626
650.20 0.3623
650.30 0.362
650.40 0.3616
650.50 0.3613
650.60 0.361
650.70 0.3607
650.80 0.3603
650.90 0.36
651.00 0.3597
651.10 0.3594
651.20 0.359
651.30 0.3587
651.40 0.3583
651.50 0.3579
651.60 0.3575
651.70 0.3571
651.80 0.3567
651.90 0.3563
652.00 0.3559
652.10 0.3555
652.20 0.3551
652.30 0.3547
652.40 0.3541
652.50 0.3536
652.60 0.3531
652.70 0.3525
652.80 0.352
652.90 0.3515
653.00 0.3509
653.10 0.3504
653.20 0.3499
653.30 0.3493
653.40 0.3485
653.50 0.3477
653.60 0.3469
653.70 0.3461
653.80 0.3453
653.90 0.3445
654.00 0.3437
654.10 0.3429
654.20 0.3421
654.30 0.3413
654.40 0.3402
654.50 0.3391
654.60 0.338
654.70 0.3369
654.80 0.3357
654.90 0.3343
655.00 0.3329
655.10 0.3316
655.20 0.3302
655.30 0.3288
655.40 0.3271
655.50 0.3255
655.60 0.3237
655.70 0.3218
655.80 0.3197
655.90 0.3173
656.00 0.314
656.10 0.3105
656.20 0.311
656.30 0.3241
656.40 0.3083
656.50 0.3111
656.60 0.3141
656.70 0.3168
656.80 0.3186
656.90 0.3203
657.00 0.3217
657.10 0.3231
657.20 0.3243
657.30 0.3255
657.40 0.3265
657.50 0.3275
657.60 0.3285
657.70 0.3295
657.80 0.3304
657.90 0.3311
658.00 0.3318
658.10 0.3325
658.20 0.3332
658.30 0.3339
658.40 0.3342
658.50 0.3346
658.60 0.335
658.70 0.3354
658.80 0.3358
658.90 0.3361
659.00 0.3365
659.10 0.3369
659.20 0.3373
659.30 0.3376
659.40 0.3377
659.50 0.3378
659.60 0.3379
659.70 0.3381
659.80 0.3382
659.90 0.3383
660.00 0.3384
660.10 0.3385
660.20 0.3386
660.30 0.3387
660.40 0.3387
660.50 0.3387
660.60 0.3387
660.70 0.3386
660.80 0.3386
660.90 0.3386
661.00 0.3386
661.10 0.3385
661.20 0.3385
661.30 0.3385
661.40 0.3384
661.50 0.3383
661.60 0.3382
661.70 0.3381
661.80 0.338
661.90 0.3379
662.00 0.3378
662.10 0.3377
662.20 0.3376
662.30 0.3375
662.40 0.3374
662.50 0.3373
662.60 0.3371
662.70 0.337
662.80 0.3369
662.90 0.3367
663.00 0.3366
663.10 0.3365
663.20 0.3363
663.30 0.3362
663.40 0.3361
663.50 0.3359
663.60 0.3358
663.70 0.3356
663.80 0.3354
663.90 0.3353
664.00 0.3351
664.10 0.335
664.20 0.3348
664.30 0.3347
664.40 0.3345
664.50 0.3343
664.60 0.3342
664.70 0.334
664.80 0.3338
664.90 0.3337
665.00 0.3335
665.10 0.3333
665.20 0.3332
665.30 0.333
665.40 0.3328
665.50 0.3327
665.60 0.3325
665.70 0.3323
665.80 0.3321
665.90 0.332
666.00 0.3318
666.10 0.3316
666.20 0.3315
666.30 0.3313
666.40 0.3311
666.50 0.3309
666.60 0.3308
666.70 0.3306
666.80 0.3304
666.90 0.3302
667.00 0.33
667.10 0.3299
667.20 0.3297
667.30 0.3295
667.40 0.3293
667.50 0.3292
667.60 0.329
667.70 0.3288
667.80 0.3286
667.90 0.3284
668.00 0.3283
668.10 0.3281
668.20 0.3279
668.30 0.3277
668.40 0.3275
668.50 0.3274
668.60 0.3272
668.70 0.327
668.80 0.3268
668.90 0.3266
669.00 0.3265
669.10 0.3263
669.20 0.3261
669.30 0.3259
669.40 0.3257
669.50 0.3255
669.60 0.3254
669.70 0.3252
669.80 0.325
669.90 0.3248
670.00 0.3246
670.10 0.3245
670.20 0.3243
670.30 0.3241
670.40 0.3239
670.50 0.3237
670.60 0.3236
670.70 0.3234
670.80 0.3232
670.90 0.323
671.00 0.3228
671.10 0.3226
671.20 0.3225
671.30 0.3223
671.40 0.3221
671.50 0.3219
671.60 0.3217
671.70 0.3216
671.80 0.3214
671.90 0.3212
672.00 0.321
672.10 0.3208
672.20 0.3207
672.30 0.3205
672.40 0.3203
672.50 0.3201
672.60 0.3199
672.70 0.3198
672.80 0.3196
672.90 0.3194
673.00 0.3192
673.10 0.319
673.20 0.3189
673.30 0.3187
673.40 0.3185
673.50 0.3183
673.60 0.3181
673.70 0.318
673.80 0.3178
673.90 0.3176
674.00 0.3174
674.10 0.3172
674.20 0.3171
674.30 0.3169
674.40 0.3167
674.50 0.3165
674.60 0.3163
674.70 0.3162
674.80 0.316
674.90 0.3158
675.00 0.3156
675.10 0.3154
675.20 0.3153
675.30 0.3151
675.40 0.3149
675.50 0.3147
675.60 0.3146
675.70 0.3144
675.80 0.3142
675.90 0.314
676.00 0.3138
676.10 0.3137
676.20 0.3135
676.30 0.3133
676.40 0.3131
676.50 0.313
676.60 0.3128
676.70 0.3126
676.80 0.3124
676.90 0.3123
677.00 0.3121
677.10 0.3119
677.20 0.3117
677.30 0.3115
677.40 0.3114
677.50 0.3112
677.60 0.311
677.70 0.3108
677.80 0.3107
677.90 0.3105
678.00 0.3103
678.10 0.3101
678.20 0.31
678.30 0.3098
678.40 0.3096
678.50 0.3094
678.60 0.3093
678.70 0.3091
678.80 0.3089
678.90 0.3087
679.00 0.3086
679.10 0.3084
679.20 0.3082
679.30 0.308
679.40 0.3079
679.50 0.3077
679.60 0.3075
679.70 0.3073
679.80 0.3072
679.90 0.307
680.00 0.3068
680.10 0.3067
680.20 0.3065
680.30 0.3063
680.40 0.3061
680.50 0.306
680.60 0.3058
680.70 0.3056
680.80 0.3054
680.90 0.3053
681.00 0.3051
681.10 0.3049
681.20 0.3048
681.30 0.3046
681.40 0.3044
681.50 0.3042
681.60 0.3041
681.70 0.3039
681.80 0.3037
681.90 0.3036
682.00 0.3034
682.10 0.3032
682.20 0.303
682.30 0.3029
682.40 0.3027
682.50 0.3025
682.60 0.3024
682.70 0.3022
682.80 0.302
682.90 0.3018
683.00 0.3017
683.10 0.3015
683.20 0.3013
683.30 0.3012
683.40 0.301
683.50 0.3008
683.60 0.3007
683.70 0.3005
683.80 0.3003
683.90 0.3001
684.00 0.3
684.10 0.2998
684.20 0.2996
684.30 0.2995
684.40 0.2993
684.50 0.2991
684.60 0.299
684.70 0.2988
684.80 0.2986
684.90 0.2985
685.00 0.2983
685.10 0.2981
685.20 0.298
685.30 0.2978
685.40 0.2976
685.50 0.2975
685.60 0.2973
685.70 0.2971
685.80 0.297
685.90 0.2968
686.00 0.2966
686.10 0.2965
686.20 0.2963
686.30 0.2961
686.40 0.296
686.50 0.2958
686.60 0.2956
686.70 0.2955
686.80 0.2953
686.90 0.2951
687.00 0.295
687.10 0.2948
687.20 0.2946
687.30 0.2945
687.40 0.2943
687.50 0.2941
687.60 0.294
687.70 0.2938
687.80 0.2936
687.90 0.2935
688.00 0.2933
688.10 0.2931
688.20 0.293
688.30 0.2928
688.40 0.2927
688.50 0.2925
688.60 0.2923
688.70 0.2922
688.80 0.292
688.90 0.2918
689.00 0.2917
689.10 0.2915
689.20 0.2913
689.30 0.2912
689.40 0.291
689.50 0.2909
689.60 0.2907
689.70 0.2905
689.80 0.2904
689.90 0.2902
690.00 0.2901
690.10 0.2899
690.20 0.2897
690.30 0.2896
690.40 0.2894
690.50 0.2892
690.60 0.2891
690.70 0.2889
690.80 0.2888
690.90 0.2886
691.00 0.2884
691.10 0.2883
691.20 0.2881
691.30 0.288
691.40 0.2878
691.50 0.2876
691.60 0.2875
691.70 0.2873
691.80 0.2872
691.90 0.287
692.00 0.2868
692.10 0.2867
692.20 0.2865
692.30 0.2864
692.40 0.2862
692.50 0.286
692.60 0.2859
692.70 0.2857
692.80 0.2856
692.90 0.2854
693.00 0.2852
693.10 0.2851
693.20 0.2849
693.30 0.2848
693.40 0.2846
693.50 0.2844
693.60 0.2843
693.70 0.2841
693.80 0.284
693.90 0.2838
694.00 0.2837
694.10 0.2835
694.20 0.2833
694.30 0.2832
694.40 0.283
694.50 0.2829
694.60 0.2827
694.70 0.2826
694.80 0.2824
694.90 0.2822
695.00 0.2821
695.10 0.2819
695.20 0.2818
695.30 0.2816
695.40 0.2815
695.50 0.2813
695.60 0.2811
695.70 0.281
695.80 0.2808
695.90 0.2807
696.00 0.2805
696.10 0.2804
696.20 0.2802
696.30 0.2801
696.40 0.2799
696.50 0.2797
696.60 0.2796
696.70 0.2794
696.80 0.2793
696.90 0.2791
697.00 0.279
697.10 0.2788
697.20 0.2787
697.30 0.2785
697.40 0.2784
697.50 0.2782
697.60 0.2781
697.70 0.2779
697.80 0.2777
697.90 0.2776
698.00 0.2774
698.10 0.2773
698.20 0.2771
698.30 0.277
698.40 0.2768
698.50 0.2767
698.60 0.2765
698.70 0.2764
698.80 0.2762
698.90 0.2761
699.00 0.2759
699.10 0.2758
699.20 0.2756
699.30 0.2754
699.40 0.2753
699.50 0.2751
699.60 0.275
699.70 0.2748
699.80 0.2747
699.90 0.2745
700.00 0.2744
700.10 0.2742
700.20 0.2741
700.30 0.2739
700.40 0.2738
700.50 0.2736
700.60 0.2735
700.70 0.2733
700.80 0.2732
700.90 0.273
701.00 0.2729
701.10 0.2727
701.20 0.2726
701.30 0.2724
701.40 0.2723
701.50 0.2721
701.60 0.272
701.70 0.2718
701.80 0.2717
701.90 0.2715
702.00 0.2714
702.10 0.2712
702.20 0.2711
702.30 0.2709
702.40 0.2708
702.50 0.2706
702.60 0.2705
702.70 0.2703
702.80 0.2702
702.90 0.27
703.00 0.2699
703.10 0.2697
703.20 0.2696
703.30 0.2694
703.40 0.2693
703.50 0.2692
703.60 0.269
703.70 0.2689
703.80 0.2687
703.90 0.2686
704.00 0.2684
704.10 0.2683
704.20 0.2681
704.30 0.268
704.40 0.2678
704.50 0.2677
704.60 0.2675
704.70 0.2674
704.80 0.2672
704.90 0.2671
705.00 0.2669
705.10 0.2668
705.20 0.2666
705.30 0.2665
705.40 0.2664
705.50 0.2662
705.60 0.2661
705.70 0.2659
705.80 0.2658
705.90 0.2656
706.00 0.2655
706.10 0.2653
706.20 0.2652
706.30 0.2651
706.40 0.2649
706.50 0.2648
706.60 0.2646
706.70 0.2645
706.80 0.2643
706.90 0.2642
707.00 0.264
707.10 0.2639
707.20 0.2638
707.30 0.2636
707.40 0.2635
707.50 0.2633
707.60 0.2632
707.70 0.263
707.80 0.2629
707.90 0.2627
708.00 0.2626
708.10 0.2625
708.20 0.2623
708.30 0.2622
708.40 0.262
708.50 0.2619
708.60 0.2617
708.70 0.2616
708.80 0.2615
708.90 0.2613
709.00 0.2612
709.10 0.261
709.20 0.2609
709.30 0.2607
709.40 0.2606
709.50 0.2605
709.60 0.2603
709.70 0.2602
709.80 0.26
709.90 0.2599
710.00 0.2597
710.10 0.2596
710.20 0.2595
710.30 0.2593
710.40 0.2592
710.50 0.259
710.60 0.2589
710.70 0.2588
710.80 0.2586
710.90 0.2585
711.00 0.2583
711.10 0.2582
711.20 0.2581
711.30 0.2579
711.40 0.2578
711.50 0.2576
711.60 0.2575
711.70 0.2574
711.80 0.2572
711.90 0.2571
712.00 0.2569
712.10 0.2568
712.20 0.2567
712.30 0.2565
712.40 0.2564
712.50 0.2563
712.60 0.2561
712.70 0.256
712.80 0.2558
712.90 0.2557
713.00 0.2556
713.10 0.2554
713.20 0.2553
713.30 0.2551
713.40 0.255
713.50 0.2549
713.60 0.2547
713.70 0.2546
713.80 0.2545
713.90 0.2543
714.00 0.2542
714.10 0.254
714.20 0.2539
714.30 0.2538
714.40 0.2536
714.50 0.2535
714.60 0.2533
714.70 0.2532
714.80 0.2531
714.90 0.2529
715.00 0.2528
715.10 0.2527
715.20 0.2525
715.30 0.2524
715.40 0.2523
715.50 0.2521
715.60 0.252
715.70 0.2518
715.80 0.2517
715.90 0.2516
716.00 0.2514
716.10 0.2513
716.20 0.2512
716.30 0.251
716.40 0.2509
716.50 0.2508
716.60 0.2506
716.70 0.2505
716.80 0.2504
716.90 0.2502
717.00 0.2501
717.10 0.25
717.20 0.2498
717.30 0.2497
717.40 0.2496
717.50 0.2494
717.60 0.2493
717.70 0.2492
717.80 0.249
717.90 0.2489
718.00 0.2487
718.10 0.2486
718.20 0.2485
718.30 0.2483
718.40 0.2482
718.50 0.2481
718.60 0.2479
718.70 0.2478
718.80 0.2477
718.90 0.2475
719.00 0.2474
719.10 0.2473
719.20 0.2471
719.30 0.247
719.40 0.2469
719.50 0.2467
719.60 0.2466
719.70 0.2465
719.80 0.2463
719.90 0.2462
720.00 0.2461
720.10 0.2459
720.20 0.2458
720.30 0.2457
720.40 0.2456
720.50 0.2454
720.60 0.2453
720.70 0.2452
720.80 0.245
720.90 0.2449
721.00 0.2448
721.10 0.2446
721.20 0.2445
721.30 0.2444
721.40 0.2442
721.50 0.2441
721.60 0.244
721.70 0.2439
721.80 0.2437
721.90 0.2436
722.00 0.2435
722.10 0.2433
722.20 0.2432
722.30 0.2431
722.40 0.2429
722.50 0.2428
722.60 0.2427
722.70 0.2426
722.80 0.2424
722.90 0.2423
723.00 0.2422
723.10 0.242
723.20 0.2419
723.30 0.2418
723.40 0.2416
723.50 0.2415
723.60 0.2414
723.70 0.2413
723.80 0.2411
723.90 0.241
724.00 0.2409
724.10 0.2407
724.20 0.2406
724.30 0.2405
724.40 0.2404
724.50 0.2402
724.60 0.2401
724.70 0.24
724.80 0.2398
724.90 0.2397
725.00 0.2396
725.10 0.2395
725.20 0.2393
725.30 0.2392
725.40 0.2391
725.50 0.2389
725.60 0.2388
725.70 0.2387
725.80 0.2386
725.90 0.2384
726.00 0.2383
726.10 0.2382
726.20 0.2381
726.30 0.2379
726.40 0.2378
726.50 0.2377
726.60 0.2376
726.70 0.2374
726.80 0.2373
726.90 0.2372
727.00 0.2371
727.10 0.2369
727.20 0.2368
727.30 0.2367
727.40 0.2365
727.50 0.2364
727.60 0.2363
727.70 0.2362
727.80 0.236
727.90 0.2359
728.00 0.2358
728.10 0.2357
728.20 0.2355
728.30 0.2354
728.40 0.2353
728.50 0.2352
728.60 0.235
728.70 0.2349
728.80 0.2348
728.90 0.2347
729.00 0.2345
729.10 0.2344
729.20 0.2343
729.30 0.2342
729.40 0.234
729.50 0.2339
729.60 0.2338
729.70 0.2337
729.80 0.2335
729.90 0.2334
730.00 0.2333
730.10 0.2332
730.20 0.2331
730.30 0.2329
730.40 0.2328
730.50 0.2327
730.60 0.2326
730.70 0.2324
730.80 0.2323
730.90 0.2322
731.00 0.2321
731.10 0.232
731.20 0.2318
731.30 0.2317
731.40 0.2316
731.50 0.2315
731.60 0.2313
731.70 0.2312
731.80 0.2311
731.90 0.231
732.00 0.2309
732.10 0.2307
732.20 0.2306
732.30 0.2305
732.40 0.2304
732.50 0.2303
732.60 0.2301
732.70 0.23
732.80 0.2299
732.90 0.2298
733.00 0.2297
733.10 0.2295
733.20 0.2294
733.30 0.2293
733.40 0.2292
733.50 0.229
733.60 0.2289
733.70 0.2288
733.80 0.2287
733.90 0.2286
734.00 0.2284
734.10 0.2283
734.20 0.2282
734.30 0.2281
734.40 0.228
734.50 0.2278
734.60 0.2277
734.70 0.2276
734.80 0.2275
734.90 0.2274
735.00 0.2272
735.10 0.2271
735.20 0.227
735.30 0.2269
735.40 0.2268
735.50 0.2267
735.60 0.2265
735.70 0.2264
735.80 0.2263
735.90 0.2262
736.00 0.2261
736.10 0.2259
736.20 0.2258
736.30 0.2257
736.40 0.2256
736.50 0.2255
736.60 0.2253
736.70 0.2252
736.80 0.2251
736.90 0.225
737.00 0.2249
737.10 0.2247
737.20 0.2246
737.30 0.2245
737.40 0.2244
737.50 0.2243
737.60 0.2242
737.70 0.224
737.80 0.2239
737.90 0.2238
738.00 0.2237
738.10 0.2236
738.20 0.2235
738.30 0.2233
738.40 0.2232
738.50 0.2231
738.60 0.223
738.70 0.2229
738.80 0.2227
738.90 0.2226
739.00 0.2225
739.10 0.2224
739.20 0.2223
739.30 0.2222
739.40 0.222
739.50 0.2219
739.60 0.2218
739.70 0.2217
739.80 0.2216
739.90 0.2215
740.00 0.2213
740.10 0.2212
740.20 0.2211
740.30 0.221
740.40 0.2209
740.50 0.2208
740.60 0.2207
740.70 0.2205
740.80 0.2204
740.90 0.2203
741.00 0.2202
741.10 0.2201
741.20 0.22
741.30 0.2199
741.40 0.2197
741.50 0.2196
741.60 0.2195
741.70 0.2194
741.80 0.2193
741.90 0.2192
742.00 0.2191
742.10 0.2189
742.20 0.2188
742.30 0.2187
742.40 0.2186
742.50 0.2185
742.60 0.2184
742.70 0.2183
742.80 0.2181
742.90 0.218
743.00 0.2179
743.10 0.2178
743.20 0.2177
743.30 0.2176
743.40 0.2175
743.50 0.2174
743.60 0.2172
743.70 0.2171
743.80 0.217
743.90 0.2169
744.00 0.2168
744.10 0.2167
744.20 0.2166
744.30 0.2165
744.40 0.2163
744.50 0.2162
744.60 0.2161
744.70 0.216
744.80 0.2159
744.90 0.2158
745.00 0.2157
745.10 0.2156
745.20 0.2154
745.30 0.2153
745.40 0.2152
745.50 0.2151
745.60 0.215
745.70 0.2149
745.80 0.2148
745.90 0.2147
746.00 0.2146
746.10 0.2144
746.20 0.2143
746.30 0.2142
746.40 0.2141
746.50 0.214
746.60 0.2139
746.70 0.2138
746.80 0.2137
746.90 0.2136
747.00 0.2134
747.10 0.2133
747.20 0.2132
747.30 0.2131
747.40 0.213
747.50 0.2129
747.60 0.2128
747.70 0.2127
747.80 0.2126
747.90 0.2124
748.00 0.2123
748.10 0.2122
748.20 0.2121
748.30 0.212
748.40 0.2119
748.50 0.2118
748.60 0.2117
748.70 0.2116
748.80 0.2115
748.90 0.2113
749.00 0.2112
749.10 0.2111
749.20 0.211
749.30 0.2109
749.40 0.2108
749.50 0.2107
749.60 0.2106
749.70 0.2105
749.80 0.2104
749.90 0.2102
750.00 0.2101
750.10 0.21
750.20 0.2099
750.30 0.2098
750.40 0.2097
750.50 0.2096
750.60 0.2095
750.70 0.2094
750.80 0.2093
750.90 0.2092
751.00 0.2091
751.10 0.209
751.20 0.2089
751.30 0.2087
751.40 0.2086
751.50 0.2085
751.60 0.2084
751.70 0.2083
751.80 0.2082
751.90 0.2081
752.00 0.208
752.10 0.2079
752.20 0.2078
752.30 0.2077
752.40 0.2076
752.50 0.2075
752.60 0.2074
752.70 0.2073
752.80 0.2071
752.90 0.207
753.00 0.2069
753.10 0.2068
753.20 0.2067
753.30 0.2066
753.40 0.2065
753.50 0.2064
753.60 0.2063
753.70 0.2062
753.80 0.2061
753.90 0.206
754.00 0.2059
754.10 0.2058
754.20 0.2057
754.30 0.2056
754.40 0.2055
754.50 0.2054
754.60 0.2052
754.70 0.2051
754.80 0.205
754.90 0.2049
755.00 0.2048
755.10 0.2047
755.20 0.2046
755.30 0.2045
755.40 0.2044
755.50 0.2043
755.60 0.2042
755.70 0.2041
755.80 0.204
755.90 0.2039
756.00 0.2038
756.10 0.2037
756.20 0.2036
756.30 0.2035
756.40 0.2034
756.50 0.2033
756.60 0.2032
756.70 0.203
756.80 0.2029
756.90 0.2028
757.00 0.2027
757.10 0.2026
757.20 0.2025
757.30 0.2024
757.40 0.2023
757.50 0.2022
757.60 0.2021
757.70 0.202
757.80 0.2019
757.90 0.2018
758.00 0.2017
758.10 0.2016
758.20 0.2015
758.30 0.2014
758.40 0.2013
758.50 0.2012
758.60 0.2011
758.70 0.201
758.80 0.2009
758.90 0.2008
759.00 0.2007
759.10 0.2006
759.20 0.2005
759.30 0.2004
759.40 0.2003
759.50 0.2001
759.60 0.2
759.70 0.1999
759.80 0.1998
759.90 0.1997
760.00 0.1996
760.10 0.1995
760.20 0.1994
760.30 0.1993
760.40 0.1992
760.50 0.1991
760.60 0.199
760.70 0.1989
760.80 0.1988
760.90 0.1987
761.00 0.1986
761.10 0.1985
761.20 0.1984
761.30 0.1983
761.40 0.1982
761.50 0.1981
761.60 0.198
761.70 0.1979
761.80 0.1978
761.90 0.1977
762.00 0.1976
762.10 0.1975
762.20 0.1974
762.30 0.1973
762.40 0.1972
762.50 0.1971
762.60 0.197
762.70 0.1969
762.80 0.1968
762.90 0.1967
763.00 0.1966
763.10 0.1965
763.20 0.1964
763.30 0.1963
763.40 0.1962
763.50 0.1961
763.60 0.196
763.70 0.1959
763.80 0.1958
763.90 0.1957
764.00 0.1956
764.10 0.1955
764.20 0.1954
764.30 0.1953
764.40 0.1952
764.50 0.1951
764.60 0.195
764.70 0.1949
764.80 0.1948
764.90 0.1948
765.00 0.1947
765.10 0.1946
765.20 0.1945
765.30 0.1944
765.40 0.1943
765.50 0.1942
765.60 0.1941
765.70 0.194
765.80 0.1939
765.90 0.1938
766.00 0.1937
766.10 0.1936
766.20 0.1935
766.30 0.1934
766.40 0.1933
766.50 0.1932
766.60 0.1931
766.70 0.193
766.80 0.1929
766.90 0.1928
767.00 0.1927
767.10 0.1926
767.20 0.1925
767.30 0.1924
767.40 0.1923
767.50 0.1922
767.60 0.1921
767.70 0.192
767.80 0.1919
767.90 0.1918
768.00 0.1917
768.10 0.1916
768.20 0.1915
768.30 0.1914
768.40 0.1913
768.50 0.1912
768.60 0.1911
768.70 0.191
768.80 0.1909
768.90 0.1908
769.00 0.1907
769.10 0.1907
769.20 0.1906
769.30 0.1905
769.40 0.1904
769.50 0.1903
769.60 0.1902
769.70 0.1901
769.80 0.19
769.90 0.1899
770.00 0.1898
770.10 0.1897
770.20 0.1896
770.30 0.1895
770.40 0.1894
770.50 0.1893
770.60 0.1892
770.70 0.1891
770.80 0.189
770.90 0.1889
771.00 0.1888
771.10 0.1887
771.20 0.1887
771.30 0.1886
771.40 0.1885
771.50 0.1884
771.60 0.1883
771.70 0.1882
771.80 0.1881
771.90 0.188
772.00 0.1879
772.10 0.1878
772.20 0.1877
772.30 0.1876
772.40 0.1875
772.50 0.1874
772.60 0.1873
772.70 0.1872
772.80 0.1872
772.90 0.1871
773.00 0.187
773.10 0.1869
773.20 0.1868
773.30 0.1867
773.40 0.1866
773.50 0.1865
773.60 0.1864
773.70 0.1863
773.80 0.1862
773.90 0.1861
774.00 0.186
774.10 0.1859
774.20 0.1858
774.30 0.1858
774.40 0.1857
774.50 0.1856
774.60 0.1855
774.70 0.1854
774.80 0.1853
774.90 0.1852
775.00 0.1851
775.10 0.185
775.20 0.1849
775.30 0.1848
775.40 0.1847
775.50 0.1846
775.60 0.1846
775.70 0.1845
775.80 0.1844
775.90 0.1843
776.00 0.1842
776.10 0.1841
776.20 0.184
776.30 0.1839
776.40 0.1838
776.50 0.1837
776.60 0.1836
776.70 0.1835
776.80 0.1834
776.90 0.1834
777.00 0.1833
777.10 0.1832
777.20 0.1831
777.30 0.183
777.40 0.1829
777.50 0.1828
777.60 0.1827
777.70 0.1826
777.80 0.1825
777.90 0.1824
778.00 0.1823
778.10 0.1823
778.20 0.1822
778.30 0.1821
778.40 0.182
778.50 0.1819
778.60 0.1818
778.70 0.1817
778.80 0.1816
778.90 0.1815
779.00 0.1814
779.10 0.1813
779.20 0.1813
779.30 0.1812
779.40 0.1811
779.50 0.181
779.60 0.1809
779.70 0.1808
779.80 0.1807
779.90 0.1806
780.00 0.1805
780.10 0.1804
780.20 0.1804
780.30 0.1803
780.40 0.1802
780.50 0.1801
780.60 0.18
780.70 0.1799
780.80 0.1798
780.90 0.1797
781.00 0.1796
781.10 0.1796
781.20 0.1795
781.30 0.1794
781.40 0.1793
781.50 0.1792
781.60 0.1791
781.70 0.179
781.80 0.1789
781.90 0.1789
782.00 0.1788
782.10 0.1787
782.20 0.1786
782.30 0.1785
782.40 0.1784
782.50 0.1783
782.60 0.1782
782.70 0.1781
782.80 0.1781
782.90 0.178
783.00 0.1779
783.10 0.1778
783.20 0.1777
783.30 0.1776
783.40 0.1775
783.50 0.1774
783.60 0.1774
783.70 0.1773
783.80 0.1772
783.90 0.1771
784.00 0.177
784.10 0.1769
784.20 0.1768
784.30 0.1767
784.40 0.1767
784.50 0.1766
784.60 0.1765
784.70 0.1764
784.80 0.1763
784.90 0.1762
785.00 0.1761
785.10 0.1761
785.20 0.176
785.30 0.1759
785.40 0.1758
785.50 0.1757
785.60 0.1756
785.70 0.1755
785.80 0.1754
785.90 0.1754
786.00 0.1753
786.10 0.1752
786.20 0.1751
786.30 0.175
786.40 0.1749
786.50 0.1748
786.60 0.1748
786.70 0.1747
786.80 0.1746
786.90 0.1745
787.00 0.1744
787.10 0.1743
787.20 0.1742
787.30 0.1741
787.40 0.1741
787.50 0.174
787.60 0.1739
787.70 0.1738
787.80 0.1737
787.90 0.1736
788.00 0.1735
788.10 0.1735
788.20 0.1734
788.30 0.1733
788.40 0.1732
788.50 0.1731
788.60 0.173
788.70 0.1729
788.80 0.1729
788.90 0.1728
789.00 0.1727
789.10 0.1726
789.20 0.1725
789.30 0.1724
789.40 0.1723
789.50 0.1723
789.60 0.1722
789.70 0.1721
789.80 0.172
789.90 0.1719
790.00 0.1718
790.10 0.1718
790.20 0.1717
790.30 0.1716
790.40 0.1715
790.50 0.1714
790.60 0.1713
790.70 0.1713
790.80 0.1712
790.90 0.1711
791.00 0.171
791.10 0.1709
791.20 0.1708
791.30 0.1708
791.40 0.1707
791.50 0.1706
791.60 0.1705
791.70 0.1704
791.80 0.1703
791.90 0.1703
792.00 0.1702
792.10 0.1701
792.20 0.17
792.30 0.1699
792.40 0.1698
792.50 0.1698
792.60 0.1697
792.70 0.1696
792.80 0.1695
792.90 0.1694
793.00 0.1693
793.10 0.1693
793.20 0.1692
793.30 0.1691
793.40 0.169
793.50 0.1689
793.60 0.1689
793.70 0.1688
793.80 0.1687
793.90 0.1686
794.00 0.1685
794.10 0.1684
794.20 0.1684
794.30 0.1683
794.40 0.1682
794.50 0.1681
794.60 0.168
794.70 0.168
794.80 0.1679
794.90 0.1678
795.00 0.1677
795.10 0.1676
795.20 0.1675
795.30 0.1675
795.40 0.1674
795.50 0.1673
795.60 0.1672
795.70 0.1671
795.80 0.1671
795.90 0.167
796.00 0.1669
796.10 0.1668
796.20 0.1667
796.30 0.1666
796.40 0.1666
796.50 0.1665
796.60 0.1664
796.70 0.1663
796.80 0.1662
796.90 0.1662
797.00 0.1661
797.10 0.166
797.20 0.1659
797.30 0.1658
797.40 0.1658
797.50 0.1657
797.60 0.1656
797.70 0.1655
797.80 0.1654
797.90 0.1654
798.00 0.1653
798.10 0.1652
798.20 0.1651
798.30 0.165
798.40 0.1649
798.50 0.1649
798.60 0.1648
798.70 0.1647
798.80 0.1646
798.90 0.1645
799.00 0.1645
799.10 0.1644
799.20 0.1643
799.30 0.1642
799.40 0.1641
799.50 0.1641
799.60 0.164
799.70 0.1639
799.80 0.1638
799.90 0.1637
800.00 0.1637
800.10 0.1636
800.20 0.1635
800.30 0.1634
800.40 0.1633
800.50 0.1633
800.60 0.1632
800.70 0.1631
800.80 0.163
800.90 0.163
801.00 0.1629
801.10 0.1628
801.20 0.1627
801.30 0.1626
801.40 0.1626
801.50 0.1625
801.60 0.1624
801.70 0.1623
801.80 0.1623
801.90 0.1622
802.00 0.1621
802.10 0.162
802.20 0.1619
802.30 0.1619
802.40 0.1618
802.50 0.1617
802.60 0.1616
802.70 0.1616
802.80 0.1615
802.90 0.1614
803.00 0.1613
803.10 0.1612
803.20 0.1612
803.30 0.1611
803.40 0.161
803.50 0.1609
803.60 0.1609
803.70 0.1608
803.80 0.1607
803.90 0.1606
804.00 0.1605
804.10 0.1605
804.20 0.1604
804.30 0.1603
804.40 0.1602
804.50 0.1602
804.60 0.1601
804.70 0.16
804.80 0.1599
804.90 0.1599
805.00 0.1598
805.10 0.1597
805.20 0.1596
805.30 0.1595
805.40 0.1595
805.50 0.1594
805.60 0.1593
805.70 0.1592
805.80 0.1592
805.90 0.1591
806.00 0.159
806.10 0.1589
806.20 0.1589
806.30 0.1588
806.40 0.1587
806.50 0.1586
806.60 0.1585
806.70 0.1585
806.80 0.1584
806.90 0.1583
807.00 0.1582
807.10 0.1582
807.20 0.1581
807.30 0.158
807.40 0.1579
807.50 0.1579
807.60 0.1578
807.70 0.1577
807.80 0.1576
807.90 0.1576
808.00 0.1575
808.10 0.1574
808.20 0.1573
808.30 0.1573
808.40 0.1572
808.50 0.1571
808.60 0.157
808.70 0.157
808.80 0.1569
808.90 0.1568
809.00 0.1567
809.10 0.1566
809.20 0.1566
809.30 0.1565
809.40 0.1564
809.50 0.1563
809.60 0.1563
809.70 0.1562
809.80 0.1561
809.90 0.156
810.00 0.156
810.10 0.1559
810.20 0.1558
810.30 0.1557
810.40 0.1557
810.50 0.1556
810.60 0.1555
810.70 0.1555
810.80 0.1554
810.90 0.1553
811.00 0.1552
811.10 0.1552
811.20 0.1551
811.30 0.155
811.40 0.1549
811.50 0.1549
811.60 0.1548
811.70 0.1547
811.80 0.1546
811.90 0.1546
812.00 0.1545
812.10 0.1544
812.20 0.1543
812.30 0.1543
812.40 0.1542
812.50 0.1541
812.60 0.1541
812.70 0.154
812.80 0.1539
812.90 0.1538
813.00 0.1538
813.10 0.1537
813.20 0.1536
813.30 0.1535
813.40 0.1535
813.50 0.1534
813.60 0.1533
813.70 0.1533
813.80 0.1532
813.90 0.1531
814.00 0.153
814.10 0.153
814.20 0.1529
814.30 0.1528
814.40 0.1527
814.50 0.1527
814.60 0.1526
814.70 0.1525
814.80 0.1525
814.90 0.1524
815.00 0.1523
815.10 0.1522
815.20 0.1522
815.30 0.1521
815.40 0.152
815.50 0.1519
815.60 0.1519
815.70 0.1518
815.80 0.1517
815.90 0.1517
816.00 0.1516
816.10 0.1515
816.20 0.1514
816.30 0.1514
816.40 0.1513
816.50 0.1512
816.60 0.1512
816.70 0.1511
816.80 0.151
816.90 0.1509
817.00 0.1509
817.10 0.1508
817.20 0.1507
817.30 0.1507
817.40 0.1506
817.50 0.1505
817.60 0.1504
817.70 0.1504
817.80 0.1503
817.90 0.1502
818.00 0.1501
818.10 0.1501
818.20 0.15
818.30 0.1499
818.40 0.1499
818.50 0.1498
818.60 0.1497
818.70 0.1496
818.80 0.1496
818.90 0.1495
819.00 0.1494
819.10 0.1494
819.20 0.1493
819.30 0.1492
819.40 0.1492
819.50 0.1491
819.60 0.149
819.70 0.1489
819.80 0.1489
819.90 0.1488
820.00 0.1487
820.10 0.1487
820.20 0.1486
820.30 0.1485
820.40 0.1484
820.50 0.1484
820.60 0.1483
820.70 0.1482
820.80 0.1482
820.90 0.1481
821.00 0.148
821.10 0.148
821.20 0.1479
821.30 0.1478
821.40 0.1477
821.50 0.1477
821.60 0.1476
821.70 0.1475
821.80 0.1475
821.90 0.1474
822.00 0.1473
822.10 0.1473
822.20 0.1472
822.30 0.1471
822.40 0.147
822.50 0.147
822.60 0.1469
822.70 0.1468
822.80 0.1468
822.90 0.1467
823.00 0.1466
823.10 0.1466
823.20 0.1465
823.30 0.1464
823.40 0.1464
823.50 0.1463
823.60 0.1462
823.70 0.1462
823.80 0.1461
823.90 0.146
824.00 0.1459
824.10 0.1459
824.20 0.1458
824.30 0.1457
824.40 0.1457
824.50 0.1456
824.60 0.1455
824.70 0.1455
824.80 0.1454
824.90 0.1453
825.00 0.1453
825.10 0.1452
825.20 0.1451
825.30 0.1451
825.40 0.145
825.50 0.1449
825.60 0.1449
825.70 0.1448
825.80 0.1447
825.90 0.1446
826.00 0.1446
826.10 0.1445
826.20 0.1444
826.30 0.1444
826.40 0.1443
826.50 0.1442
826.60 0.1442
826.70 0.1441
826.80 0.144
826.90 0.144
827.00 0.1439
827.10 0.1438
827.20 0.1438
827.30 0.1437
827.40 0.1436
827.50 0.1436
827.60 0.1435
827.70 0.1434
827.80 0.1434
827.90 0.1433
828.00 0.1432
828.10 0.1432
828.20 0.1431
828.30 0.143
828.40 0.143
828.50 0.1429
828.60 0.1428
828.70 0.1428
828.80 0.1427
828.90 0.1426
829.00 0.1426
829.10 0.1425
829.20 0.1424
829.30 0.1424
829.40 0.1423
829.50 0.1422
829.60 0.1422
829.70 0.1421
829.80 0.142
829.90 0.142
830.00 0.1419
830.10 0.1418
830.20 0.1418
830.30 0.1417
830.40 0.1416
830.50 0.1416
830.60 0.1415
830.70 0.1414
830.80 0.1414
830.90 0.1413
831.00 0.1412
831.10 0.1412
831.20 0.1411
831.30 0.141
831.40 0.141
831.50 0.1409
831.60 0.1408
831.70 0.1408
831.80 0.1407
831.90 0.1406
832.00 0.1406
832.10 0.1405
832.20 0.1404
832.30 0.1404
832.40 0.1403
832.50 0.1402
832.60 0.1402
832.70 0.1401
832.80 0.1401
832.90 0.14
833.00 0.1399
833.10 0.1399
833.20 0.1398
833.30 0.1397
833.40 0.1397
833.50 0.1396
833.60 0.1395
833.70 0.1395
833.80 0.1394
833.90 0.1393
834.00 0.1393
834.10 0.1392
834.20 0.1391
834.30 0.1391
834.40 0.139
834.50 0.1389
834.60 0.1389
834.70 0.1388
834.80 0.1388
834.90 0.1387
835.00 0.1386
835.10 0.1386
835.20 0.1385
835.30 0.1384
835.40 0.1384
835.50 0.1383
835.60 0.1382
835.70 0.1382
835.80 0.1381
835.90 0.138
836.00 0.138
836.10 0.1379
836.20 0.1378
836.30 0.1378
836.40 0.1377
836.50 0.1377
836.60 0.1376
836.70 0.1375
836.80 0.1375
836.90 0.1374
837.00 0.1373
837.10 0.1373
837.20 0.1372
837.30 0.1371
837.40 0.1371
837.50 0.137
837.60 0.137
837.70 0.1369
837.80 0.1368
837.90 0.1368
838.00 0.1367
838.10 0.1366
838.20 0.1366
838.30 0.1365
838.40 0.1364
838.50 0.1364
838.60 0.1363
838.70 0.1363
838.80 0.1362
838.90 0.1361
839.00 0.1361
839.10 0.136
839.20 0.1359
839.30 0.1359
839.40 0.1358
839.50 0.1358
839.60 0.1357
839.70 0.1356
839.80 0.1356
839.90 0.1355
840.00 0.1354
840.10 0.1354
840.20 0.1353
840.30 0.1353
840.40 0.1352
840.50 0.1351
840.60 0.1351
840.70 0.135
840.80 0.1349
840.90 0.1349
841.00 0.1348
841.10 0.1348
841.20 0.1347
841.30 0.1346
841.40 0.1346
841.50 0.1345
841.60 0.1344
841.70 0.1344
841.80 0.1343
841.90 0.1343
842.00 0.1342
842.10 0.1341
842.20 0.1341
842.30 0.134
842.40 0.1339
842.50 0.1339
842.60 0.1338
842.70 0.1338
842.80 0.1337
842.90 0.1336
843.00 0.1336
843.10 0.1335
843.20 0.1335
843.30 0.1334
843.40 0.1333
843.50 0.1333
843.60 0.1332
843.70 0.1331
843.80 0.1331
843.90 0.133
844.00 0.133
844.10 0.1329
844.20 0.1328
844.30 0.1328
844.40 0.1327
844.50 0.1327
844.60 0.1326
844.70 0.1325
844.80 0.1325
844.90 0.1324
845.00 0.1323
845.10 0.1323
845.20 0.1322
845.30 0.1322
845.40 0.1321
845.50 0.132
845.60 0.132
845.70 0.1319
845.80 0.1319
845.90 0.1318
846.00 0.1317
846.10 0.1317
846.20 0.1316
846.30 0.1316
846.40 0.1315
846.50 0.1314
846.60 0.1314
846.70 0.1313
846.80 0.1313
846.90 0.1312
847.00 0.1311
847.10 0.1311
847.20 0.131
847.30 0.131
847.40 0.1309
847.50 0.1308
847.60 0.1308
847.70 0.1307
847.80 0.1307
847.90 0.1306
848.00 0.1305
848.10 0.1305
848.20 0.1304
848.30 0.1304
848.40 0.1303
848.50 0.1302
848.60 0.1302
848.70 0.1301
848.80 0.1301
848.90 0.13
849.00 0.1299
849.10 0.1299
849.20 0.1298
849.30 0.1298
849.40 0.1297
849.50 0.1296
849.60 0.1296
849.70 0.1295
849.80 0.1295
849.90 0.1294
850.00 0.1293
850.10 0.1293
850.20 0.1292
850.30 0.1292
850.40 0.1291
850.50 0.129
850.60 0.129
850.70 0.1289
850.80 0.1289
850.90 0.1288
851.00 0.1288
851.10 0.1287
851.20 0.1286
851.30 0.1286
851.40 0.1285
851.50 0.1285
851.60 0.1284
851.70 0.1283
851.80 0.1283
851.90 0.1282
852.00 0.1282
852.10 0.1281
852.20 0.128
852.30 0.128
852.40 0.1279
852.50 0.1279
852.60 0.1278
852.70 0.1278
852.80 0.1277
852.90 0.1276
853.00 0.1276
853.10 0.1275
853.20 0.1275
853.30 0.1274
853.40 0.1274
853.50 0.1273
853.60 0.1272
853.70 0.1272
853.80 0.1271
853.90 0.1271
854.00 0.127
854.10 0.1269
854.20 0.1269
854.30 0.1268
854.40 0.1268
854.50 0.1267
854.60 0.1267
854.70 0.1266
854.80 0.1265
854.90 0.1265
855.00 0.1264
855.10 0.1264
855.20 0.1263
855.30 0.1263
855.40 0.1262
855.50 0.1261
855.60 0.1261
855.70 0.126
855.80 0.126
855.90 0.1259
856.00 0.1259
856.10 0.1258
856.20 0.1257
856.30 0.1257
856.40 0.1256
856.50 0.1256
856.60 0.1255
856.70 0.1255
856.80 0.1254
856.90 0.1253
857.00 0.1253
857.10 0.1252
857.20 0.1252
857.30 0.1251
857.40 0.1251
857.50 0.125
857.60 0.1249
857.70 0.1249
857.80 0.1248
857.90 0.1248
858.00 0.1247
858.10 0.1247
858.20 0.1246
858.30 0.1245
858.40 0.1245
858.50 0.1244
858.60 0.1244
858.70 0.1243
858.80 0.1243
858.90 0.1242
859.00 0.1242
859.10 0.1241
859.20 0.124
859.30 0.124
859.40 0.1239
859.50 0.1239
859.60 0.1238
859.70 0.1238
859.80 0.1237
859.90 0.1237
860.00 0.1236
860.10 0.1235
860.20 0.1235
860.30 0.1234
860.40 0.1234
860.50 0.1233
860.60 0.1233
860.70 0.1232
860.80 0.1231
860.90 0.1231
861.00 0.123
861.10 0.123
861.20 0.1229
861.30 0.1229
861.40 0.1228
861.50 0.1228
861.60 0.1227
861.70 0.1226
861.80 0.1226
861.90 0.1225
862.00 0.1225
862.10 0.1224
862.20 0.1224
862.30 0.1223
862.40 0.1223
862.50 0.1222
862.60 0.1222
862.70 0.1221
862.80 0.122
862.90 0.122
863.00 0.1219
863.10 0.1219
863.20 0.1218
863.30 0.1218
863.40 0.1217
863.50 0.1217
863.60 0.1216
863.70 0.1216
863.80 0.1215
863.90 0.1214
864.00 0.1214
864.10 0.1213
864.20 0.1213
864.30 0.1212
864.40 0.1212
864.50 0.1211
864.60 0.1211
864.70 0.121
864.80 0.121
864.90 0.1209
865.00 0.1208
865.10 0.1208
865.20 0.1207
865.30 0.1207
865.40 0.1206
865.50 0.1206
865.60 0.1205
865.70 0.1205
865.80 0.1204
865.90 0.1204
866.00 0.1203
866.10 0.1202
866.20 0.1202
866.30 0.1201
866.40 0.1201
866.50 0.12
866.60 0.12
866.70 0.1199
866.80 0.1199
866.90 0.1198
867.00 0.1198
867.10 0.1197
867.20 0.1197
867.30 0.1196
867.40 0.1195
867.50 0.1195
867.60 0.1194
867.70 0.1194
867.80 0.1193
867.90 0.1193
868.00 0.1192
868.10 0.1192
868.20 0.1191
868.30 0.1191
868.40 0.119
868.50 0.119
868.60 0.1189
868.70 0.1189
868.80 0.1188
868.90 0.1188
869.00 0.1187
869.10 0.1186
869.20 0.1186
869.30 0.1185
869.40 0.1185
869.50 0.1184
869.60 0.1184
869.70 0.1183
869.80 0.1183
869.90 0.1182
870.00 0.1182
870.10 0.1181
870.20 0.1181
870.30 0.118
870.40 0.118
870.50 0.1179
870.60 0.1179
870.70 0.1178
870.80 0.1177
870.90 0.1177
871.00 0.1176
871.10 0.1176
871.20 0.1175
871.30 0.1175
871.40 0.1174
871.50 0.1174
871.60 0.1173
871.70 0.1173
871.80 0.1172
871.90 0.1172
872.00 0.1171
872.10 0.1171
872.20 0.117
872.30 0.117
872.40 0.1169
872.50 0.1169
872.60 0.1168
872.70 0.1168
872.80 0.1167
872.90 0.1167
873.00 0.1166
873.10 0.1165
873.20 0.1165
873.30 0.1164
873.40 0.1164
873.50 0.1163
873.60 0.1163
873.70 0.1162
873.80 0.1162
873.90 0.1161
874.00 0.1161
874.10 0.116
874.20 0.116
874.30 0.1159
874.40 0.1159
874.50 0.1158
874.60 0.1158
874.70 0.1157
874.80 0.1157
874.90 0.1156
875.00 0.1156
875.10 0.1155
875.20 0.1155
875.30 0.1154
875.40 0.1154
875.50 0.1153
875.60 0.1153
875.70 0.1152
875.80 0.1152
875.90 0.1151
876.00 0.1151
876.10 0.115
876.20 0.115
876.30 0.1149
876.40 0.1149
876.50 0.1148
876.60 0.1148
876.70 0.1147
876.80 0.1147
876.90 0.1146
877.00 0.1146
877.10 0.1145
877.20 0.1145
877.30 0.1144
877.40 0.1144
877.50 0.1143
877.60 0.1142
877.70 0.1142
877.80 0.1141
877.90 0.1141
878.00 0.114
878.10 0.114
878.20 0.1139
878.30 0.1139
878.40 0.1138
878.50 0.1138
878.60 0.1137
878.70 0.1137
878.80 0.1136
878.90 0.1136
879.00 0.1135
879.10 0.1135
879.20 0.1134
879.30 0.1134
879.40 0.1133
879.50 0.1133
879.60 0.1132
879.70 0.1132
879.80 0.1131
879.90 0.1131
880.00 0.113
880.10 0.113
880.20 0.1129
880.30 0.1129
880.40 0.1129
880.50 0.1128
880.60 0.1128
880.70 0.1127
880.80 0.1127
880.90 0.1126
881.00 0.1126
881.10 0.1125
881.20 0.1125
881.30 0.1124
881.40 0.1124
881.50 0.1123
881.60 0.1123
881.70 0.1122
881.80 0.1122
881.90 0.1121
882.00 0.1121
882.10 0.112
882.20 0.112
882.30 0.1119
882.40 0.1119
882.50 0.1118
882.60 0.1118
882.70 0.1117
882.80 0.1117
882.90 0.1116
883.00 0.1116
883.10 0.1115
883.20 0.1115
883.30 0.1114
883.40 0.1114
883.50 0.1113
883.60 0.1113
883.70 0.1112
883.80 0.1112
883.90 0.1111
884.00 0.1111
884.10 0.111
884.20 0.111
884.30 0.1109
884.40 0.1109
884.50 0.1108
884.60 0.1108
884.70 0.1107
884.80 0.1107
884.90 0.1107
885.00 0.1106
885.10 0.1106
885.20 0.1105
885.30 0.1105
885.40 0.1104
885.50 0.1104
885.60 0.1103
885.70 0.1103
885.80 0.1102
885.90 0.1102
886.00 0.1101
886.10 0.1101
886.20 0.11
886.30 0.11
886.40 0.1099
886.50 0.1099
886.60 0.1098
886.70 0.1098
886.80 0.1097
886.90 0.1097
887.00 0.1096
887.10 0.1096
887.20 0.1095
887.30 0.1095
887.40 0.1095
887.50 0.1094
887.60 0.1094
887.70 0.1093
887.80 0.1093
887.90 0.1092
888.00 0.1092
888.10 0.1091
888.20 0.1091
888.30 0.109
888.40 0.109
888.50 0.1089
888.60 0.1089
888.70 0.1088
888.80 0.1088
888.90 0.1087
889.00 0.1087
889.10 0.1086
889.20 0.1086
889.30 0.1085
889.40 0.1085
889.50 0.1085
889.60 0.1084
889.70 0.1084
889.80 0.1083
889.90 0.1083
890.00 0.1082
890.10 0.1082
890.20 0.1081
890.30 0.1081
890.40 0.108
890.50 0.108
890.60 0.1079
890.70 0.1079
890.80 0.1078
890.90 0.1078
891.00 0.1077
891.10 0.1077
891.20 0.1077
891.30 0.1076
891.40 0.1076
891.50 0.1075
891.60 0.1075
891.70 0.1074
891.80 0.1074
891.90 0.1073
892.00 0.1073
892.10 0.1072
892.20 0.1072
892.30 0.1071
892.40 0.1071
892.50 0.107
892.60 0.107
892.70 0.107
892.80 0.1069
892.90 0.1069
893.00 0.1068
893.10 0.1068
893.20 0.1067
893.30 0.1067
893.40 0.1066
893.50 0.1066
893.60 0.1065
893.70 0.1065
893.80 0.1064
893.90 0.1064
894.00 0.1064
894.10 0.1063
894.20 0.1063
894.30 0.1062
894.40 0.1062
894.50 0.1061
894.60 0.1061
894.70 0.106
894.80 0.106
894.90 0.1059
895.00 0.1059
895.10 0.1058
895.20 0.1058
895.30 0.1058
895.40 0.1057
895.50 0.1057
895.60 0.1056
895.70 0.1056
895.80 0.1055
895.90 0.1055
896.00 0.1054
896.10 0.1054
896.20 0.1053
896.30 0.1053
896.40 0.1052
896.50 0.1052
896.60 0.1052
896.70 0.1051
896.80 0.1051
896.90 0.105
897.00 0.105
897.10 0.1049
897.20 0.1049
897.30 0.1048
897.40 0.1048
897.50 0.1048
897.60 0.1047
897.70 0.1047
897.80 0.1046
897.90 0.1046
898.00 0.1045
898.10 0.1045
898.20 0.1044
898.30 0.1044
898.40 0.1043
898.50 0.1043
898.60 0.1043
898.70 0.1042
898.80 0.1042
898.90 0.1041
899.00 0.1041
899.10 0.104
899.20 0.104
899.30 0.1039
899.40 0.1039
899.50 0.1039
899.60 0.1038
899.70 0.1038
899.80 0.1037
899.90 0.1037
900.00 0.1036
900.10 0.1036
900.20 0.1036
900.30 0.1035
900.40 0.1035
900.50 0.1034
900.60 0.1034
900.70 0.1033
900.80 0.1033
900.90 0.1032
901.00 0.1032
901.10 0.1032
901.20 0.1031
901.30 0.1031
901.40 0.103
901.50 0.103
901.60 0.1029
901.70 0.1029
901.80 0.1028
901.90 0.1028
902.00 0.1028
902.10 0.1027
902.20 0.1027
902.30 0.1026
902.40 0.1026
902.50 0.1025
902.60 0.1025
902.70 0.1025
902.80 0.1024
902.90 0.1024
903.00 0.1023
903.10 0.1023
903.20 0.1022
903.30 0.1022
903.40 0.1021
903.50 0.1021
903.60 0.1021
903.70 0.102
903.80 0.102
903.90 0.1019
904.00 0.1019
904.10 0.1018
904.20 0.1018
904.30 0.1018
904.40 0.1017
904.50 0.1017
904.60 0.1016
904.70 0.1016
904.80 0.1015
904.90 0.1015
905.00 0.1015
905.10 0.1014
905.20 0.1014
905.30 0.1013
905.40 0.1013
905.50 0.1012
905.60 0.1012
905.70 0.1011
905.80 0.1011
905.90 0.1011
906.00 0.101
906.10 0.101
906.20 0.1009
906.30 0.1009
906.40 0.1008
906.50 0.1008
906.60 0.1008
906.70 0.1007
906.80 0.1007
906.90 0.1006
907.00 0.1006
907.10 0.1005
907.20 0.1005
907.30 0.1005
907.40 0.1004
907.50 0.1004
907.60 0.1003
907.70 0.1003
907.80 0.1002
907.90 0.1002
908.00 0.1002
908.10 0.1001
908.20 0.1001
908.30 0.1
908.40 0.09999
908.50 0.09995
908.60 0.09991
908.70 0.09986
908.80 0.09982
908.90 0.09978
909.00 0.09974
909.10 0.09969
909.20 0.09965
909.30 0.09961
909.40 0.09957
909.50 0.09952
909.60 0.09948
909.70 0.09944
909.80 0.0994
909.90 0.09935
910.00 0.09931
910.10 0.09927
910.20 0.09923
910.30 0.09918
910.40 0.09914
910.50 0.0991
910.60 0.09906
910.70 0.09902
910.80 0.09897
910.90 0.09893
911.00 0.09889
911.10 0.09885
911.20 0.09881
911.30 0.09876
911.40 0.09872
911.50 0.09868
911.60 0.09864
911.70 0.0986
911.80 0.09855
911.90 0.09851
912.00 0.09847
912.10 0.09843
912.20 0.09838
912.30 0.09834
912.40 0.0983
912.50 0.09826
912.60 0.09821
912.70 0.09817
912.80 0.09813
912.90 0.09809
913.00 0.09804
913.10 0.098
913.20 0.09796
913.30 0.09792
913.40 0.09787
913.50 0.09783
913.60 0.09779
913.70 0.09775
913.80 0.0977
913.90 0.09766
914.00 0.09762
914.10 0.09758
914.20 0.09753
914.30 0.09749
914.40 0.09745
914.50 0.09741
914.60 0.09736
914.70 0.09732
914.80 0.09728
914.90 0.09724
915.00 0.0972
915.10 0.09715
915.20 0.09711
915.30 0.09707
915.40 0.09703
915.50 0.09698
915.60 0.09694
915.70 0.0969
915.80 0.09686
915.90 0.09682
916.00 0.09677
916.10 0.09673
916.20 0.09669
916.30 0.09665
916.40 0.09661
916.50 0.09656
916.60 0.09652
916.70 0.09648
916.80 0.09644
916.90 0.0964
917.00 0.09635
917.10 0.09631
917.20 0.09627
917.30 0.09623
917.40 0.09619
917.50 0.09615
917.60 0.09611
917.70 0.09607
917.80 0.09603
917.90 0.09598
918.00 0.09594
918.10 0.0959
918.20 0.09586
918.30 0.09582
918.40 0.09578
918.50 0.09574
918.60 0.0957
918.70 0.09566
918.80 0.09562
918.90 0.09557
919.00 0.09553
919.10 0.09549
919.20 0.09545
919.30 0.09541
919.40 0.09537
919.50 0.09533
919.60 0.09529
919.70 0.09525
919.80 0.09521
919.90 0.09517
920.00 0.09512
920.10 0.09508
920.20 0.09504
920.30 0.095
920.40 0.09496
920.50 0.09492
920.60 0.09488
920.70 0.09484
920.80 0.0948
920.90 0.09476
921.00 0.09472
921.10 0.09468
921.20 0.09464
921.30 0.0946
921.40 0.09456
921.50 0.09452
921.60 0.09447
921.70 0.09443
921.80 0.09439
921.90 0.09435
922.00 0.09431
922.10 0.09427
922.20 0.09424
922.30 0.0942
922.40 0.09416
922.50 0.09412
922.60 0.09408
922.70 0.09404
922.80 0.094
922.90 0.09396
923.00 0.09393
923.10 0.09389
923.20 0.09385
923.30 0.09381
923.40 0.09377
923.50 0.09373
923.60 0.09369
923.70 0.09366
923.80 0.09362
923.90 0.09358
924.00 0.09354
924.10 0.0935
924.20 0.09346
924.30 0.09343
924.40 0.09339
924.50 0.09335
924.60 0.09331
924.70 0.09327
924.80 0.09323
924.90 0.0932
925.00 0.09316
925.10 0.09312
925.20 0.09308
925.30 0.09304
925.40 0.093
925.50 0.09297
925.60 0.09293
925.70 0.09289
925.80 0.09285
925.90 0.09281
926.00 0.09278
926.10 0.09274
926.20 0.0927
926.30 0.09266
926.40 0.09262
926.50 0.09258
926.60 0.09255
926.70 0.09251
926.80 0.09247
926.90 0.09243
927.00 0.09239
927.10 0.09236
927.20 0.09232
927.30 0.09228
927.40 0.09225
927.50 0.09221
927.60 0.09218
927.70 0.09214
927.80 0.0921
927.90 0.09207
928.00 0.09203
928.10 0.09199
928.20 0.09196
928.30 0.09192
928.40 0.09188
928.50 0.09185
928.60 0.09181
928.70 0.09177
928.80 0.09174
928.90 0.0917
929.00 0.09166
929.10 0.09163
929.20 0.09159
929.30 0.09156
929.40 0.09152
929.50 0.09148
929.60 0.09145
929.70 0.09141
929.80 0.09137
929.90 0.09134
930.00 0.0913
930.10 0.09127
930.20 0.09123
930.30 0.09119
930.40 0.09116
930.50 0.09112
930.60 0.09108
930.70 0.09105
930.80 0.09101
930.90 0.09098
931.00 0.09094
931.10 0.0909
931.20 0.09087
931.30 0.09083
931.40 0.0908
931.50 0.09076
931.60 0.09072
931.70 0.09069
931.80 0.09065
931.90 0.09062
932.00 0.09058
932.10 0.09054
932.20 0.09051
932.30 0.09047
932.40 0.09043
932.50 0.0904
932.60 0.09036
932.70 0.09032
932.80 0.09029
932.90 0.09025
933.00 0.09021
933.10 0.09018
933.20 0.09014
933.30 0.09011
933.40 0.09007
933.50 0.09003
933.60 0.09
933.70 0.08996
933.80 0.08992
933.90 0.08989
934.00 0.08985
934.10 0.08981
934.20 0.08978
934.30 0.08974
934.40 0.0897
934.50 0.08967
934.60 0.08963
934.70 0.08959
934.80 0.08956
934.90 0.08952
935.00 0.08948
935.10 0.08945
935.20 0.08941
935.30 0.08937
935.40 0.08934
935.50 0.0893
935.60 0.08926
935.70 0.08923
935.80 0.08919
935.90 0.08915
936.00 0.08912
936.10 0.08908
936.20 0.08904
936.30 0.08901
936.40 0.08897
936.50 0.08893
936.60 0.0889
936.70 0.08886
936.80 0.08882
936.90 0.08879
937.00 0.08875
937.10 0.08871
937.20 0.08868
937.30 0.08864
937.40 0.0886
937.50 0.08857
937.60 0.08853
937.70 0.08849
937.80 0.08846
937.90 0.08842
938.00 0.08838
938.10 0.08834
938.20 0.08831
938.30 0.08827
938.40 0.08823
938.50 0.0882
938.60 0.08816
938.70 0.08812
938.80 0.08808
938.90 0.08805
939.00 0.08801
939.10 0.08797
939.20 0.08794
939.30 0.0879
939.40 0.08786
939.50 0.08782
939.60 0.08779
939.70 0.08775
939.80 0.08771
939.90 0.08768
940.00 0.08764
940.10 0.0876
940.20 0.08756
940.30 0.08753
940.40 0.08749
940.50 0.08745
940.60 0.08742
940.70 0.08738
940.80 0.08734
940.90 0.0873
941.00 0.08727
941.10 0.08723
941.20 0.08719
941.30 0.08715
941.40 0.08712
941.50 0.08708
941.60 0.08704
941.70 0.087
941.80 0.08697
941.90 0.08693
942.00 0.08689
942.10 0.08685
942.20 0.08682
942.30 0.08678
942.40 0.08674
942.50 0.0867
942.60 0.08666
942.70 0.08663
942.80 0.08659
942.90 0.08655
943.00 0.08651
943.10 0.08647
943.20 0.08644
943.30 0.0864
943.40 0.08636
943.50 0.08632
943.60 0.08629
943.70 0.08625
943.80 0.08621
943.90 0.08617
944.00 0.08613
944.10 0.0861
944.20 0.08606
944.30 0.08602
944.40 0.08598
944.50 0.08594
944.60 0.08591
944.70 0.08587
944.80 0.08583
944.90 0.08579
945.00 0.08575
945.10 0.08572
945.20 0.08568
945.30 0.08564
945.40 0.0856
945.50 0.08556
945.60 0.08552
945.70 0.08548
945.80 0.08545
945.90 0.08541
946.00 0.08537
946.10 0.08533
946.20 0.08529
946.30 0.08525
946.40 0.08522
946.50 0.08518
946.60 0.08514
946.70 0.0851
946.80 0.08506
946.90 0.08502
947.00 0.08498
947.10 0.08495
947.20 0.08491
947.30 0.08487
947.40 0.08483
947.50 0.08479
947.60 0.08475
947.70 0.08471
947.80 0.08467
947.90 0.08464
948.00 0.0846
948.10 0.08456
948.20 0.08452
948.30 0.08448
948.40 0.08444
948.50 0.0844
948.60 0.08436
948.70 0.08432
948.80 0.08429
948.90 0.08425
949.00 0.08421
949.10 0.08417
949.20 0.08413
949.30 0.08409
949.40 0.08405
949.50 0.08401
949.60 0.08398
949.70 0.08394
949.80 0.0839
949.90 0.08386
950.00 0.08382
950.10 0.08378
950.20 0.08374
950.30 0.08371
950.40 0.08367
950.50 0.08363
950.60 0.08359
950.70 0.08355
950.80 0.08351
950.90 0.08347
951.00 0.08344
951.10 0.0834
951.20 0.08336
951.30 0.08332
951.40 0.08328
951.50 0.08324
951.60 0.08321
951.70 0.08317
951.80 0.08313
951.90 0.08309
952.00 0.08306
952.10 0.08302
952.20 0.08298
952.30 0.08295
952.40 0.08291
952.50 0.08287
952.60 0.08284
952.70 0.0828
952.80 0.08276
952.90 0.08273
953.00 0.08269
953.10 0.08266
953.20 0.08262
953.30 0.08259
953.40 0.08256
953.50 0.08252
953.60 0.08249
953.70 0.08246
953.80 0.08242
953.90 0.08239
954.00 0.08236
954.10 0.08233
954.20 0.0823
954.30 0.08227
954.40 0.08225
954.50 0.08222
954.60 0.08219
954.70 0.08215
954.80 0.08212
954.90 0.08208
955.00 0.08204
955.10 0.082
955.20 0.08197
955.30 0.08193
955.40 0.0819
955.50 0.08186
955.60 0.08183
955.70 0.08179
955.80 0.08176
955.90 0.08173
956.00 0.0817
956.10 0.08167
956.20 0.08164
956.30 0.08161
956.40 0.08158
956.50 0.08155
956.60 0.08152
956.70 0.08148
956.80 0.08145
956.90 0.08142
957.00 0.08139
957.10 0.08136
957.20 0.08134
957.30 0.08131
957.40 0.08128
957.50 0.08125
957.60 0.08122
957.70 0.08119
957.80 0.08116
957.90 0.08114
958.00 0.08111
958.10 0.08108
958.20 0.08105
958.30 0.08102
958.40 0.081
958.50 0.08097
958.60 0.08094
958.70 0.08091
958.80 0.08088
958.90 0.08086
959.00 0.08083
959.10 0.0808
959.20 0.08077
959.30 0.08074
959.40 0.08072
959.50 0.08069
959.60 0.08066
959.70 0.08063
959.80 0.0806
959.90 0.08058
960.00 0.08055
960.10 0.08052
960.20 0.08049
960.30 0.08046
960.40 0.08044
960.50 0.08041
960.60 0.08038
960.70 0.08035
960.80 0.08033
960.90 0.0803
961.00 0.08027
961.10 0.08024
961.20 0.08021
961.30 0.08019
961.40 0.08016
961.50 0.08013
961.60 0.0801
961.70 0.08007
961.80 0.08005
961.90 0.08002
962.00 0.07999
962.10 0.07996
962.20 0.07993
962.30 0.07991
962.40 0.07988
962.50 0.07985
962.60 0.07982
962.70 0.07979
962.80 0.07976
962.90 0.07974
963.00 0.07971
963.10 0.07968
963.20 0.07965
963.30 0.07962
963.40 0.07959
963.50 0.07957
963.60 0.07954
963.70 0.07951
963.80 0.07948
963.90 0.07945
964.00 0.07942
964.10 0.07939
964.20 0.07937
964.30 0.07934
964.40 0.07931
964.50 0.07928
964.60 0.07925
964.70 0.07922
964.80 0.07919
964.90 0.07916
965.00 0.07913
965.10 0.0791
965.20 0.07908
965.30 0.07905
965.40 0.07902
965.50 0.07899
965.60 0.07896
965.70 0.07893
965.80 0.0789
965.90 0.07887
966.00 0.07884
966.10 0.07882
966.20 0.07879
966.30 0.07876
966.40 0.07873
966.50 0.0787
966.60 0.07867
966.70 0.07864
966.80 0.07861
966.90 0.07858
967.00 0.07855
967.10 0.07852
967.20 0.07849
967.30 0.07847
967.40 0.07844
967.50 0.07841
967.60 0.07838
967.70 0.07835
967.80 0.07832
967.90 0.07829
968.00 0.07826
968.10 0.07823
968.20 0.0782
968.30 0.07817
968.40 0.07814
968.50 0.07811
968.60 0.07808
968.70 0.07805
968.80 0.07802
968.90 0.07799
969.00 0.07796
969.10 0.07794
969.20 0.07791
969.30 0.07788
969.40 0.07785
969.50 0.07782
969.60 0.07779
969.70 0.07776
969.80 0.07773
969.90 0.0777
970.00 0.07767
970.10 0.07764
970.20 0.07761
970.30 0.07758
970.40 0.07755
970.50 0.07752
970.60 0.07749
970.70 0.07746
970.80 0.07743
970.90 0.0774
971.00 0.07737
971.10 0.07734
971.20 0.07731
971.30 0.07728
971.40 0.07725
971.50 0.07722
971.60 0.07719
971.70 0.07716
971.80 0.07713
971.90 0.0771
972.00 0.07708
972.10 0.07705
972.20 0.07702
972.30 0.07699
972.40 0.07696
972.50 0.07693
972.60 0.0769
972.70 0.07687
972.80 0.07684
972.90 0.07681
973.00 0.07678
973.10 0.07675
973.20 0.07672
973.30 0.07669
973.40 0.07666
973.50 0.07663
973.60 0.0766
973.70 0.07657
973.80 0.07654
973.90 0.07651
974.00 0.07648
974.10 0.07645
974.20 0.07642
974.30 0.07639
974.40 0.07636
974.50 0.07633
974.60 0.0763
974.70 0.07627
974.80 0.07624
974.90 0.07621
975.00 0.07618
975.10 0.07615
975.20 0.07612
975.30 0.07609
975.40 0.07606
975.50 0.07603
975.60 0.076
975.70 0.07597
975.80 0.07594
975.90 0.07591
976.00 0.07588
976.10 0.07585
976.20 0.07582
976.30 0.07579
976.40 0.07576
976.50 0.07573
976.60 0.0757
976.70 0.07567
976.80 0.07564
976.90 0.07561
977.00 0.07558
977.10 0.07555
977.20 0.07552
977.30 0.07549
977.40 0.07546
977.50 0.07543
977.60 0.0754
977.70 0.07537
977.80 0.07534
977.90 0.07531
978.00 0.07528
978.10 0.07525
978.20 0.07522
978.30 0.07519
978.40 0.07516
978.50 0.07513
978.60 0.0751
978.70 0.07507
978.80 0.07504
978.90 0.07501
979.00 0.07498
979.10 0.07495
979.20 0.07492
979.30 0.07489
979.40 0.07486
979.50 0.07483
979.60 0.0748
979.70 0.07477
979.80 0.07474
979.90 0.07471
980.00 0.07468
980.10 0.07466
980.20 0.07463
980.30 0.0746
980.40 0.07457
980.50 0.07454
980.60 0.07451
980.70 0.07448
980.80 0.07445
980.90 0.07442
981.00 0.07439
981.10 0.07436
981.20 0.07433
981.30 0.0743
981.40 0.07427
981.50 0.07424
981.60 0.07421
981.70 0.07418
981.80 0.07415
981.90 0.07412
982.00 0.07409
982.10 0.07406
982.20 0.07403
982.30 0.074
982.40 0.07397
982.50 0.07394
982.60 0.07391
982.70 0.07388
982.80 0.07385
982.90 0.07382
983.00 0.07379
983.10 0.07376
983.20 0.07373
983.30 0.0737
983.40 0.07367
983.50 0.07364
983.60 0.07361
983.70 0.07358
983.80 0.07355
983.90 0.07352
984.00 0.07349
984.10 0.07346
984.20 0.07343
984.30 0.0734
984.40 0.07337
984.50 0.07334
984.60 0.07331
984.70 0.07328
984.80 0.07325
984.90 0.07322
985.00 0.07319
985.10 0.07316
985.20 0.07313
985.30 0.0731
985.40 0.07307
985.50 0.07304
985.60 0.07301
985.70 0.07298
985.80 0.07295
985.90 0.07292
986.00 0.07289
986.10 0.07286
986.20 0.07283
986.30 0.0728
986.40 0.07277
986.50 0.07274
986.60 0.07272
986.70 0.07269
986.80 0.07266
986.90 0.07263
987.00 0.0726
987.10 0.07257
987.20 0.07254
987.30 0.0725
987.40 0.07247
987.50 0.07244
987.60 0.07241
987.70 0.07238
987.80 0.07235
987.90 0.07232
988.00 0.07229
988.10 0.07226
988.20 0.07223
988.30 0.0722
988.40 0.07217
988.50 0.07214
988.60 0.07211
988.70 0.07208
988.80 0.07205
988.90 0.07202
989.00 0.07199
989.10 0.07196
989.20 0.07193
989.30 0.0719
989.40 0.07187
989.50 0.07184
989.60 0.07181
989.70 0.07178
989.80 0.07175
989.90 0.07172
990.00 0.07169
990.10 0.07165
990.20 0.07162
990.30 0.07159
990.40 0.07156
990.50 0.07153
990.60 0.0715
990.70 0.07147
990.80 0.07144
990.90 0.07141
991.00 0.07138
991.10 0.07135
991.20 0.07132
991.30 0.07129
991.40 0.07126
991.50 0.07122
991.60 0.07119
991.70 0.07116
991.80 0.07113
991.90 0.0711
992.00 0.07107
992.10 0.07104
992.20 0.07101
992.30 0.07098
992.40 0.07094
992.50 0.07091
992.60 0.07088
992.70 0.07085
992.80 0.07082
992.90 0.07079
993.00 0.07075
993.10 0.07072
993.20 0.07069
993.30 0.07066
993.40 0.07063
993.50 0.0706
993.60 0.07056
993.70 0.07053
993.80 0.0705
993.90 0.07047
994.00 0.07044
994.10 0.0704
994.20 0.07037
994.30 0.07034
994.40 0.07031
994.50 0.07028
994.60 0.07025
994.70 0.07021
994.80 0.07018
994.90 0.07015
995.00 0.07011
995.10 0.07008
995.20 0.07005
995.30 0.07002
995.40 0.06998
995.50 0.06995
995.60 0.06992
995.70 0.06989
995.80 0.06985
995.90 0.06982
996.00 0.06979
996.10 0.06975
996.20 0.06972
996.30 0.06968
996.40 0.06965
996.50 0.06962
996.60 0.06958
996.70 0.06955
996.80 0.06952
996.90 0.06948
997.00 0.06945
997.10 0.06942
997.20 0.06938
997.30 0.06935
997.40 0.06931
997.50 0.06928
997.60 0.06925
997.70 0.06921
997.80 0.06918
997.90 0.06914
998.00 0.0691
998.10 0.06907
998.20 0.06903
998.30 0.069
998.40 0.06896
998.50 0.06893
998.60 0.06889
998.70 0.06886
998.80 0.06882
998.90 0.06879
999.00 0.06875
999.10 0.06872
999.20 0.06868
999.30 0.06865
999.40 0.06861
999.50 0.06858
999.60 0.06854
999.70 0.06851
999.80 0.06847
999.90 0.06843
1000.00 0.06839
1000.10 0.06836
1000.20 0.06832
1000.30 0.06828
1000.40 0.06824
1000.50 0.06821
1000.60 0.06817
1000.70 0.06813
1000.80 0.0681
1000.90 0.06806
1001.00 0.06802
1001.10 0.06798
1001.20 0.06795
1001.30 0.06791
1001.40 0.06787
1001.50 0.06784
1001.60 0.0678
1001.70 0.06776
1001.80 0.06773
1001.90 0.06769
1002.00 0.06765
1002.10 0.06762
1002.20 0.06759
1002.30 0.06755
1002.40 0.06752
1002.50 0.06749
1002.60 0.06745
1002.70 0.06742
1002.80 0.06738
1002.90 0.06735
1003.00 0.06732
1003.10 0.06728
1003.20 0.06725
1003.30 0.06723
1003.40 0.0672
1003.50 0.06717
1003.60 0.06715
1003.70 0.06712
1003.80 0.06709
1003.90 0.06708
1004.00 0.06706
1004.10 0.06704
1004.20 0.06703
1004.30 0.06702
1004.40 0.06701
1004.50 0.06701
1004.60 0.06701
1004.70 0.06701
1004.80 0.067
1004.90 0.06698
1005.00 0.06695
1005.10 0.06691
1005.20 0.06686
1005.30 0.06682
1005.40 0.06677
1005.50 0.06673
1005.60 0.06669
1005.70 0.06665
1005.80 0.06662
1005.90 0.06658
1006.00 0.06654
1006.10 0.06651
1006.20 0.06648
1006.30 0.06646
1006.40 0.06643
1006.50 0.06641
1006.60 0.06639
1006.70 0.06637
1006.80 0.06634
1006.90 0.06632
1007.00 0.0663
1007.10 0.06628
1007.20 0.06626
1007.30 0.06625
1007.40 0.06623
1007.50 0.06621
1007.60 0.06619
1007.70 0.06618
1007.80 0.06616
1007.90 0.06615
1008.00 0.06613
1008.10 0.06612
1008.20 0.0661
1008.30 0.06608
1008.40 0.06607
1008.50 0.06605
1008.60 0.06604
1008.70 0.06602
1008.80 0.06601
1008.90 0.06599
1009.00 0.06597
1009.10 0.06596
1009.20 0.06594
1009.30 0.06593
1009.40 0.06591
1009.50 0.0659
1009.60 0.06588
1009.70 0.06586
1009.80 0.06585
1009.90 0.06583
1010.00 0.06581
1010.10 0.0658
1010.20 0.06578
1010.30 0.06576
1010.40 0.06575
1010.50 0.06573
1010.60 0.06571
1010.70 0.0657
1010.80 0.06568
1010.90 0.06566
1011.00 0.06565
1011.10 0.06563
1011.20 0.06561
1011.30 0.0656
1011.40 0.06558
1011.50 0.06556
1011.60 0.06555
1011.70 0.06553
1011.80 0.06551
1011.90 0.06549
1012.00 0.06548
1012.10 0.06546
1012.20 0.06544
1012.30 0.06542
1012.40 0.0654
1012.50 0.06538
1012.60 0.06536
1012.70 0.06534
1012.80 0.06533
1012.90 0.06531
1013.00 0.06529
1013.10 0.06527
1013.20 0.06525
1013.30 0.06523
1013.40 0.06521
1013.50 0.0652
1013.60 0.06518
1013.70 0.06516
1013.80 0.06514
1013.90 0.06512
1014.00 0.0651
1014.10 0.06508
1014.20 0.06506
1014.30 0.06504
1014.40 0.06502
1014.50 0.065
1014.60 0.06498
1014.70 0.06496
1014.80 0.06494
1014.90 0.06492
1015.00 0.0649
1015.10 0.06488
1015.20 0.06486
1015.30 0.06484
1015.40 0.06481
1015.50 0.06479
1015.60 0.06477
1015.70 0.06475
1015.80 0.06473
1015.90 0.06471
1016.00 0.06469
1016.10 0.06467
1016.20 0.06465
1016.30 0.06463
1016.40 0.06461
1016.50 0.06459
1016.60 0.06457
1016.70 0.06455
1016.80 0.06453
1016.90 0.0645
1017.00 0.06448
1017.10 0.06446
1017.20 0.06444
1017.30 0.06442
1017.40 0.0644
1017.50 0.06437
1017.60 0.06435
1017.70 0.06433
1017.80 0.06431
1017.90 0.06429
1018.00 0.06427
1018.10 0.06424
1018.20 0.06422
1018.30 0.0642
1018.40 0.06418
1018.50 0.06416
1018.60 0.06414
1018.70 0.06411
1018.80 0.06409
1018.90 0.06407
1019.00 0.06405
1019.10 0.06402
1019.20 0.064
1019.30 0.06398
1019.40 0.06396
1019.50 0.06394
1019.60 0.06391
1019.70 0.06389
1019.80 0.06387
1019.90 0.06385
1020.00 0.06383
1020.10 0.0638
1020.20 0.06378
1020.30 0.06376
1020.40 0.06374
1020.50 0.06371
1020.60 0.06369
1020.70 0.06367
1020.80 0.06365
1020.90 0.06362
1021.00 0.0636
1021.10 0.06358
1021.20 0.06356
1021.30 0.06353
1021.40 0.06351
1021.50 0.06349
1021.60 0.06347
1021.70 0.06344
1021.80 0.06342
1021.90 0.0634
1022.00 0.06338
1022.10 0.06335
1022.20 0.06333
1022.30 0.06331
1022.40 0.06329
1022.50 0.06326
1022.60 0.06324
1022.70 0.06322
1022.80 0.06319
1022.90 0.06317
1023.00 0.06315
1023.10 0.06313
1023.20 0.0631
1023.30 0.06308
1023.40 0.06306
1023.50 0.06303
1023.60 0.06301
1023.70 0.06299
1023.80 0.06297
1023.90 0.06294
1024.00 0.06292
1024.10 0.0629
1024.20 0.06288
1024.30 0.06285
1024.40 0.06283
1024.50 0.06281
1024.60 0.06278
1024.70 0.06276
1024.80 0.06274
1024.90 0.06272
1025.00 0.06269
1025.10 0.06267
1025.20 0.06265
1025.30 0.06262
1025.40 0.0626
1025.50 0.06258
1025.60 0.06256
1025.70 0.06253
1025.80 0.06251
1025.90 0.06249
1026.00 0.06246
1026.10 0.06244
1026.20 0.06242
1026.30 0.0624
1026.40 0.06237
1026.50 0.06235
1026.60 0.06233
1026.70 0.0623
1026.80 0.06228
1026.90 0.06226
1027.00 0.06224
1027.10 0.06221
1027.20 0.06219
1027.30 0.06217
1027.40 0.06214
1027.50 0.06212
1027.60 0.0621
1027.70 0.06207
1027.80 0.06205
1027.90 0.06203
1028.00 0.06201
1028.10 0.06198
1028.20 0.06196
1028.30 0.06194
1028.40 0.06191
1028.50 0.06189
1028.60 0.06187
1028.70 0.06185
1028.80 0.06182
1028.90 0.0618
1029.00 0.06178
1029.10 0.06175
1029.20 0.06173
1029.30 0.06171
1029.40 0.06169
1029.50 0.06166
1029.60 0.06164
1029.70 0.06162
1029.80 0.06159
1029.90 0.06157
1030.00 0.06155
1030.10 0.06153
1030.20 0.0615
1030.30 0.06148
1030.40 0.06146
1030.50 0.06143
1030.60 0.06141
1030.70 0.06139
1030.80 0.06137
1030.90 0.06134
1031.00 0.06132
1031.10 0.0613
1031.20 0.06128
1031.30 0.06125
1031.40 0.06123
1031.50 0.06121
1031.60 0.06118
1031.70 0.06116
1031.80 0.06114
1031.90 0.06112
1032.00 0.06109
1032.10 0.06107
1032.20 0.06105
1032.30 0.06103
1032.40 0.061
1032.50 0.06098
1032.60 0.06096
1032.70 0.06093
1032.80 0.06091
1032.90 0.06089
1033.00 0.06087
1033.10 0.06084
1033.20 0.06082
1033.30 0.0608
1033.40 0.06078
1033.50 0.06075
1033.60 0.06073
1033.70 0.06071
1033.80 0.06069
1033.90 0.06066
1034.00 0.06064
1034.10 0.06062
1034.20 0.0606
1034.30 0.06057
1034.40 0.06055
1034.50 0.06053
1034.60 0.06051
1034.70 0.06048
1034.80 0.06046
1034.90 0.06044
1035.00 0.06042
1035.10 0.06039
1035.20 0.06037
1035.30 0.06035
1035.40 0.06033
1035.50 0.0603
1035.60 0.06028
1035.70 0.06026
1035.80 0.06024
1035.90 0.06021
1036.00 0.06019
1036.10 0.06017
1036.20 0.06015
1036.30 0.06012
1036.40 0.0601
1036.50 0.06008
1036.60 0.06006
1036.70 0.06003
1036.80 0.06001
1036.90 0.05999
1037.00 0.05997
1037.10 0.05994
1037.20 0.05992
1037.30 0.0599
1037.40 0.05988
1037.50 0.05985
1037.60 0.05983
1037.70 0.05981
1037.80 0.05979
1037.90 0.05977
1038.00 0.05974
1038.10 0.05972
1038.20 0.0597
1038.30 0.05968
1038.40 0.05965
1038.50 0.05963
1038.60 0.05961
1038.70 0.05959
1038.80 0.05957
1038.90 0.05954
1039.00 0.05952
1039.10 0.0595
1039.20 0.05948
1039.30 0.05945
1039.40 0.05943
1039.50 0.05941
1039.60 0.05939
1039.70 0.05937
1039.80 0.05934
1039.90 0.05932
1040.00 0.0593
1040.10 0.05928
1040.20 0.05926
1040.30 0.05923
1040.40 0.05921
1040.50 0.05919
1040.60 0.05917
1040.70 0.05915
1040.80 0.05912
1040.90 0.0591
1041.00 0.05908
1041.10 0.05906
1041.20 0.05903
1041.30 0.05901
1041.40 0.05899
1041.50 0.05897
1041.60 0.05895
1041.70 0.05892
1041.80 0.0589
1041.90 0.05888
1042.00 0.05886
1042.10 0.05884
1042.20 0.05882
1042.30 0.05879
1042.40 0.05877
1042.50 0.05875
1042.60 0.05873
1042.70 0.05871
1042.80 0.05868
1042.90 0.05866
1043.00 0.05864
1043.10 0.05862
1043.20 0.0586
1043.30 0.05857
1043.40 0.05855
1043.50 0.05853
1043.60 0.05851
1043.70 0.05849
1043.80 0.05847
1043.90 0.05844
1044.00 0.05842
1044.10 0.0584
1044.20 0.05838
1044.30 0.05836
1044.40 0.05834
1044.50 0.05831
1044.60 0.05829
1044.70 0.05827
1044.80 0.05825
1044.90 0.05823
1045.00 0.05821
1045.10 0.05818
1045.20 0.05816
1045.30 0.05814
1045.40 0.05812
1045.50 0.0581
1045.60 0.05808
1045.70 0.05805
1045.80 0.05803
1045.90 0.05801
1046.00 0.05799
1046.10 0.05797
1046.20 0.05795
1046.30 0.05792
1046.40 0.0579
1046.50 0.05788
1046.60 0.05786
1046.70 0.05784
1046.80 0.05782
1046.90 0.05779
1047.00 0.05777
1047.10 0.05775
1047.20 0.05773
1047.30 0.05771
1047.40 0.05769
1047.50 0.05767
1047.60 0.05764
1047.70 0.05762
1047.80 0.0576
1047.90 0.05758
1048.00 0.05756
1048.10 0.05754
1048.20 0.05752
1048.30 0.05749
1048.40 0.05747
1048.50 0.05745
1048.60 0.05743
1048.70 0.05741
1048.80 0.05739
1048.90 0.05737
1049.00 0.05735
1049.10 0.05732
1049.20 0.0573
1049.30 0.05728
1049.40 0.05726
1049.50 0.05724
1049.60 0.05722
1049.70 0.0572
1049.80 0.05717
1049.90 0.05715
1050.00 0.05713
1050.10 0.05711
1050.20 0.05709
1050.30 0.05707
1050.40 0.05705
1050.50 0.05703
1050.60 0.05701
1050.70 0.05698
1050.80 0.05696
1050.90 0.05694
1051.00 0.05692
1051.10 0.0569
1051.20 0.05688
1051.30 0.05686
1051.40 0.05684
1051.50 0.05681
1051.60 0.05679
1051.70 0.05677
1051.80 0.05675
1051.90 0.05673
1052.00 0.05671
1052.10 0.05669
1052.20 0.05667
1052.30 0.05665
1052.40 0.05662
1052.50 0.0566
1052.60 0.05658
1052.70 0.05656
1052.80 0.05654
1052.90 0.05652
1053.00 0.0565
1053.10 0.05648
1053.20 0.05646
1053.30 0.05644
1053.40 0.05642
1053.50 0.05639
1053.60 0.05637
1053.70 0.05635
1053.80 0.05633
1053.90 0.05631
1054.00 0.05629
1054.10 0.05627
1054.20 0.05625
1054.30 0.05623
1054.40 0.05621
1054.50 0.05619
1054.60 0.05616
1054.70 0.05614
1054.80 0.05612
1054.90 0.0561
1055.00 0.05608
1055.10 0.05606
1055.20 0.05604
1055.30 0.05602
1055.40 0.056
1055.50 0.05598
1055.60 0.05596
1055.70 0.05594
1055.80 0.05591
1055.90 0.05589
1056.00 0.05587
1056.10 0.05585
1056.20 0.05583
1056.30 0.05581
1056.40 0.05579
1056.50 0.05577
1056.60 0.05575
1056.70 0.05573
1056.80 0.05571
1056.90 0.05569
1057.00 0.05567
1057.10 0.05565
1057.20 0.05562
1057.30 0.0556
1057.40 0.05558
1057.50 0.05556
1057.60 0.05554
1057.70 0.05552
1057.80 0.0555
1057.90 0.05548
1058.00 0.05546
1058.10 0.05544
1058.20 0.05542
1058.30 0.0554
1058.40 0.05538
1058.50 0.05536
1058.60 0.05534
1058.70 0.05532
1058.80 0.0553
1058.90 0.05528
1059.00 0.05526
1059.10 0.05523
1059.20 0.05521
1059.30 0.05519
1059.40 0.05517
1059.50 0.05515
1059.60 0.05513
1059.70 0.05511
1059.80 0.05509
1059.90 0.05507
1060.00 0.05505
1060.10 0.05503
1060.20 0.05501
1060.30 0.05499
1060.40 0.05497
1060.50 0.05495
1060.60 0.05493
1060.70 0.05491
1060.80 0.05489
1060.90 0.05487
1061.00 0.05485
1061.10 0.05483
1061.20 0.05481
1061.30 0.05479
1061.40 0.05477
1061.50 0.05474
1061.60 0.05472
1061.70 0.0547
1061.80 0.05468
1061.90 0.05466
1062.00 0.05464
1062.10 0.05462
1062.20 0.0546
1062.30 0.05458
1062.40 0.05456
1062.50 0.05454
1062.60 0.05452
1062.70 0.0545
1062.80 0.05448
1062.90 0.05446
1063.00 0.05444
1063.10 0.05442
1063.20 0.0544
1063.30 0.05438
1063.40 0.05436
1063.50 0.05434
1063.60 0.05432
1063.70 0.0543
1063.80 0.05428
1063.90 0.05426
1064.00 0.05424
1064.10 0.05422
1064.20 0.0542
1064.30 0.05418
1064.40 0.05416
1064.50 0.05414
1064.60 0.05412
1064.70 0.0541
1064.80 0.05408
1064.90 0.05406
1065.00 0.05404
1065.10 0.05402
1065.20 0.054
1065.30 0.05398
1065.40 0.05396
1065.50 0.05394
1065.60 0.05392
1065.70 0.0539
1065.80 0.05388
1065.90 0.05386
1066.00 0.05384
1066.10 0.05382
1066.20 0.0538
1066.30 0.05378
1066.40 0.05376
1066.50 0.05374
1066.60 0.05372
1066.70 0.0537
1066.80 0.05368
1066.90 0.05366
1067.00 0.05364
1067.10 0.05362
1067.20 0.0536
1067.30 0.05358
1067.40 0.05356
1067.50 0.05354
1067.60 0.05352
1067.70 0.0535
1067.80 0.05348
1067.90 0.05346
1068.00 0.05344
1068.10 0.05342
1068.20 0.0534
1068.30 0.05338
1068.40 0.05336
1068.50 0.05334
1068.60 0.05332
1068.70 0.0533
1068.80 0.05328
1068.90 0.05326
1069.00 0.05324
1069.10 0.05322
1069.20 0.0532
1069.30 0.05318
1069.40 0.05316
1069.50 0.05314
1069.60 0.05312
1069.70 0.0531
1069.80 0.05308
1069.90 0.05306
1070.00 0.05304
1070.10 0.05302
1070.20 0.053
1070.30 0.05298
1070.40 0.05296
1070.50 0.05294
1070.60 0.05292
1070.70 0.0529
1070.80 0.05288
1070.90 0.05286
1071.00 0.05284
1071.10 0.05282
1071.20 0.0528
1071.30 0.05278
1071.40 0.05276
1071.50 0.05274
1071.60 0.05272
1071.70 0.0527
1071.80 0.05268
1071.90 0.05266
1072.00 0.05264
1072.10 0.05262
1072.20 0.0526
1072.30 0.05258
1072.40 0.05256
1072.50 0.05254
1072.60 0.05252
1072.70 0.0525
1072.80 0.05248
1072.90 0.05246
1073.00 0.05244
1073.10 0.05242
1073.20 0.0524
1073.30 0.05238
1073.40 0.05236
1073.50 0.05234
1073.60 0.05232
1073.70 0.0523
1073.80 0.05228
1073.90 0.05226
1074.00 0.05224
1074.10 0.05222
1074.20 0.0522
1074.30 0.05218
1074.40 0.05216
1074.50 0.05214
1074.60 0.05212
1074.70 0.0521
1074.80 0.05208
1074.90 0.05206
1075.00 0.05204
1075.10 0.05202
1075.20 0.052
1075.30 0.05198
1075.40 0.05196
1075.50 0.05194
1075.60 0.05192
1075.70 0.0519
1075.80 0.05188
1075.90 0.05186
1076.00 0.05184
1076.10 0.05182
1076.20 0.0518
1076.30 0.05178
1076.40 0.05176
1076.50 0.05174
1076.60 0.05172
1076.70 0.0517
1076.80 0.05168
1076.90 0.05166
1077.00 0.05164
1077.10 0.05162
1077.20 0.0516
1077.30 0.05158
1077.40 0.05156
1077.50 0.05154
1077.60 0.05152
1077.70 0.0515
1077.80 0.05147
1077.90 0.05145
1078.00 0.05143
1078.10 0.05141
1078.20 0.05139
1078.30 0.05137
1078.40 0.05135
1078.50 0.05133
1078.60 0.05131
1078.70 0.05129
1078.80 0.05127
1078.90 0.05125
1079.00 0.05123
1079.10 0.05121
1079.20 0.05119
1079.30 0.05117
1079.40 0.05115
1079.50 0.05112
1079.60 0.0511
1079.70 0.05108
1079.80 0.05106
1079.90 0.05104
1080.00 0.05102
1080.10 0.051
1080.20 0.05098
1080.30 0.05095
1080.40 0.05093
1080.50 0.05091
1080.60 0.05089
1080.70 0.05087
1080.80 0.05085
1080.90 0.05083
1081.00 0.05081
1081.10 0.05078
1081.20 0.05076
1081.30 0.05074
1081.40 0.05072
1081.50 0.0507
1081.60 0.05068
1081.70 0.05066
1081.80 0.05063
1081.90 0.05061
1082.00 0.05059
1082.10 0.05057
1082.20 0.05055
1082.30 0.05052
1082.40 0.0505
1082.50 0.05048
1082.60 0.05046
1082.70 0.05043
1082.80 0.05041
1082.90 0.05039
1083.00 0.05037
1083.10 0.05034
1083.20 0.05032
1083.30 0.0503
1083.40 0.05028
1083.50 0.05025
1083.60 0.05023
1083.70 0.05021
1083.80 0.05018
1083.90 0.05016
1084.00 0.05014
1084.10 0.05011
1084.20 0.05009
1084.30 0.05007
1084.40 0.05004
1084.50 0.05002
1084.60 0.05
1084.70 0.04997
1084.80 0.04995
1084.90 0.04992
1085.00 0.0499
1085.10 0.04987
1085.20 0.04985
1085.30 0.04982
1085.40 0.0498
1085.50 0.04977
1085.60 0.04975
1085.70 0.04972
1085.80 0.0497
1085.90 0.04967
1086.00 0.04965
1086.10 0.04962
1086.20 0.0496
1086.30 0.04957
1086.40 0.04955
1086.50 0.04953
1086.60 0.0495
1086.70 0.04947
1086.80 0.04945
1086.90 0.04942
1087.00 0.04939
1087.10 0.04937
1087.20 0.04934
1087.30 0.04931
1087.40 0.04928
1087.50 0.04926
1087.60 0.04923
1087.70 0.0492
1087.80 0.04918
1087.90 0.04915
1088.00 0.04912
1088.10 0.04909
1088.20 0.04907
1088.30 0.04904
1088.40 0.04901
1088.50 0.04898
1088.60 0.04895
1088.70 0.04893
1088.80 0.0489
1088.90 0.04887
1089.00 0.04884
1089.10 0.04881
1089.20 0.04878
1089.30 0.04875
1089.40 0.04872
1089.50 0.0487
1089.60 0.04867
1089.70 0.04864
1089.80 0.04861
1089.90 0.04858
1090.00 0.04855
1090.10 0.04852
1090.20 0.0485
1090.30 0.04847
1090.40 0.04844
1090.50 0.04841
1090.60 0.04838
1090.70 0.04836
1090.80 0.04833
1090.90 0.0483
1091.00 0.04828
1091.10 0.04825
1091.20 0.04822
1091.30 0.0482
1091.40 0.04817
1091.50 0.04815
1091.60 0.04812
1091.70 0.04809
1091.80 0.04807
1091.90 0.04804
1092.00 0.04802
1092.10 0.048
1092.20 0.04798
1092.30 0.04796
1092.40 0.04794
1092.50 0.04792
1092.60 0.0479
1092.70 0.04789
1092.80 0.04787
1092.90 0.04786
1093.00 0.04785
1093.10 0.04784
1093.20 0.04784
1093.30 0.04783
1093.40 0.04783
1093.50 0.04784
1093.60 0.04787
1093.70 0.0479
1093.80 0.04791
1093.90 0.0479
1094.00 0.04784
1094.10 0.04778
1094.20 0.04772
1094.30 0.04767
1094.40 0.04764
1094.50 0.04762
1094.60 0.04759
1094.70 0.04757
1094.80 0.04754
1094.90 0.04752
1095.00 0.0475
1095.10 0.04749
1095.20 0.04748
1095.30 0.04747
1095.40 0.04746
1095.50 0.04744
1095.60 0.04743
1095.70 0.04742
1095.80 0.04741
1095.90 0.0474
1096.00 0.04739
1096.10 0.04738
1096.20 0.04737
1096.30 0.04735
1096.40 0.04734
1096.50 0.04733
1096.60 0.04733
1096.70 0.04732
1096.80 0.04732
1096.90 0.04731
1097.00 0.0473
1097.10 0.0473
1097.20 0.04729
1097.30 0.04729
1097.40 0.04728
1097.50 0.04728
1097.60 0.04727
1097.70 0.04727
1097.80 0.04726
1097.90 0.04726
1098.00 0.04725
1098.10 0.04724
1098.20 0.04724
1098.30 0.04723
1098.40 0.04723
1098.50 0.04722
1098.60 0.04722
1098.70 0.04721
1098.80 0.0472
1098.90 0.0472
1099.00 0.04719
1099.10 0.04718
1099.20 0.04717
1099.30 0.04717
1099.40 0.04716
1099.50 0.04715
1099.60 0.04715
1099.70 0.04714
1099.80 0.04713
1099.90 0.04713
1100.00 0.04712
1100.10 0.04711
1100.20 0.04711
1100.30 0.0471
1100.40 0.04709
1100.50 0.04709
1100.60 0.04708
1100.70 0.04707
1100.80 0.04706
1100.90 0.04705
1101.00 0.04704
1101.10 0.04703
1101.20 0.04702
1101.30 0.04701
1101.40 0.047
1101.50 0.047
1101.60 0.04699
1101.70 0.04698
1101.80 0.04697
1101.90 0.04696
1102.00 0.04695
1102.10 0.04694
1102.20 0.04693
1102.30 0.04692
1102.40 0.04691
1102.50 0.0469
1102.60 0.04689
1102.70 0.04688
1102.80 0.04687
1102.90 0.04685
1103.00 0.04684
1103.10 0.04683
1103.20 0.04682
1103.30 0.04681
1103.40 0.0468
1103.50 0.04679
1103.60 0.04678
1103.70 0.04676
1103.80 0.04675
1103.90 0.04674
1104.00 0.04673
1104.10 0.04671
1104.20 0.0467
1104.30 0.04669
1104.40 0.04668
1104.50 0.04666
1104.60 0.04665
1104.70 0.04664
1104.80 0.04663
1104.90 0.04662
1105.00 0.0466
1105.10 0.04659
1105.20 0.04658
1105.30 0.04657
1105.40 0.04655
1105.50 0.04654
1105.60 0.04653
1105.70 0.04651
1105.80 0.0465
1105.90 0.04649
1106.00 0.04647
1106.10 0.04646
1106.20 0.04645
1106.30 0.04643
1106.40 0.04642
1106.50 0.04641
1106.60 0.04639
1106.70 0.04638
1106.80 0.04637
1106.90 0.04635
1107.00 0.04634
1107.10 0.04633
1107.20 0.04631
1107.30 0.0463
1107.40 0.04628
1107.50 0.04627
1107.60 0.04626
1107.70 0.04624
1107.80 0.04623
1107.90 0.04621
1108.00 0.0462
1108.10 0.04619
1108.20 0.04617
1108.30 0.04616
1108.40 0.04614
1108.50 0.04613
1108.60 0.04611
1108.70 0.0461
1108.80 0.04609
1108.90 0.04607
1109.00 0.04606
1109.10 0.04604
1109.20 0.04603
1109.30 0.04601
1109.40 0.046
1109.50 0.04599
1109.60 0.04597
1109.70 0.04596
1109.80 0.04594
1109.90 0.04593
1110.00 0.04591
1110.10 0.0459
1110.20 0.04588
1110.30 0.04587
1110.40 0.04585
1110.50 0.04584
1110.60 0.04582
1110.70 0.04581
1110.80 0.04579
1110.90 0.04578
1111.00 0.04576
1111.10 0.04575
1111.20 0.04573
1111.30 0.04572
1111.40 0.0457
1111.50 0.04569
1111.60 0.04568
1111.70 0.04566
1111.80 0.04565
1111.90 0.04563
1112.00 0.04562
1112.10 0.0456
1112.20 0.04559
1112.30 0.04557
1112.40 0.04556
1112.50 0.04554
1112.60 0.04553
1112.70 0.04551
1112.80 0.0455
1112.90 0.04548
1113.00 0.04547
1113.10 0.04545
1113.20 0.04544
1113.30 0.04542
1113.40 0.04541
1113.50 0.04539
1113.60 0.04538
1113.70 0.04536
1113.80 0.04535
1113.90 0.04533
1114.00 0.04531
1114.10 0.0453
1114.20 0.04528
1114.30 0.04527
1114.40 0.04525
1114.50 0.04524
1114.60 0.04522
1114.70 0.04521
1114.80 0.04519
1114.90 0.04518
1115.00 0.04516
1115.10 0.04515
1115.20 0.04513
1115.30 0.04512
1115.40 0.0451
1115.50 0.04509
1115.60 0.04507
1115.70 0.04506
1115.80 0.04504
1115.90 0.04503
1116.00 0.04501
1116.10 0.045
1116.20 0.04498
1116.30 0.04497
1116.40 0.04495
1116.50 0.04494
1116.60 0.04492
1116.70 0.04491
1116.80 0.04489
1116.90 0.04488
1117.00 0.04486
1117.10 0.04485
1117.20 0.04483
1117.30 0.04481
1117.40 0.0448
1117.50 0.04478
1117.60 0.04477
1117.70 0.04475
1117.80 0.04474
1117.90 0.04472
1118.00 0.04471
1118.10 0.04469
1118.20 0.04468
1118.30 0.04466
1118.40 0.04465
1118.50 0.04463
1118.60 0.04462
1118.70 0.0446
1118.80 0.04459
1118.90 0.04457
1119.00 0.04456
1119.10 0.04454
1119.20 0.04453
1119.30 0.04451
1119.40 0.0445
1119.50 0.04448
1119.60 0.04447
1119.70 0.04445
1119.80 0.04443
1119.90 0.04442
1120.00 0.0444
1120.10 0.04439
1120.20 0.04437
1120.30 0.04436
1120.40 0.04434
1120.50 0.04433
1120.60 0.04431
1120.70 0.0443
1120.80 0.04428
1120.90 0.04427
1121.00 0.04425
1121.10 0.04424
1121.20 0.04422
1121.30 0.04421
1121.40 0.04419
1121.50 0.04418
1121.60 0.04416
1121.70 0.04415
1121.80 0.04413
1121.90 0.04412
1122.00 0.0441
1122.10 0.04409
1122.20 0.04407
1122.30 0.04406
1122.40 0.04404
1122.50 0.04403
1122.60 0.04401
1122.70 0.044
1122.80 0.04398
1122.90 0.04397
1123.00 0.04395
1123.10 0.04394
1123.20 0.04392
1123.30 0.04391
1123.40 0.04389
1123.50 0.04388
1123.60 0.04386
1123.70 0.04385
1123.80 0.04383
1123.90 0.04382
1124.00 0.0438
1124.10 0.04379
1124.20 0.04377
1124.30 0.04376
1124.40 0.04374
1124.50 0.04373
1124.60 0.04371
1124.70 0.0437
1124.80 0.04368
1124.90 0.04367
1125.00 0.04365
1125.10 0.04364
1125.20 0.04362
1125.30 0.04361
1125.40 0.04359
1125.50 0.04358
1125.60 0.04356
1125.70 0.04355
1125.80 0.04353
1125.90 0.04352
1126.00 0.0435
1126.10 0.04349
1126.20 0.04347
1126.30 0.04346
1126.40 0.04344
1126.50 0.04343
1126.60 0.04341
1126.70 0.0434
1126.80 0.04338
1126.90 0.04337
1127.00 0.04335
1127.10 0.04334
1127.20 0.04332
1127.30 0.04331
1127.40 0.04329
1127.50 0.04328
1127.60 0.04326
1127.70 0.04325
1127.80 0.04323
1127.90 0.04322
1128.00 0.0432
1128.10 0.04319
1128.20 0.04318
1128.30 0.04316
1128.40 0.04315
1128.50 0.04313
1128.60 0.04312
1128.70 0.0431
1128.80 0.04309
1128.90 0.04307
1129.00 0.04306
1129.10 0.04304
1129.20 0.04303
1129.30 0.04301
1129.40 0.043
1129.50 0.04298
1129.60 0.04297
1129.70 0.04295
1129.80 0.04294
1129.90 0.04292
1130.00 0.04291
1130.10 0.04289
1130.20 0.04288
1130.30 0.04287
1130.40 0.04285
1130.50 0.04284
1130.60 0.04282
1130.70 0.04281
1130.80 0.04279
1130.90 0.04278
1131.00 0.04276
1131.10 0.04275
1131.20 0.04273
1131.30 0.04272
1131.40 0.0427
1131.50 0.04269
1131.60 0.04267
1131.70 0.04266
1131.80 0.04265
1131.90 0.04263
1132.00 0.04262
1132.10 0.0426
1132.20 0.04259
1132.30 0.04257
1132.40 0.04256
1132.50 0.04254
1132.60 0.04253
1132.70 0.04251
1132.80 0.0425
1132.90 0.04248
1133.00 0.04247
1133.10 0.04246
1133.20 0.04244
1133.30 0.04243
1133.40 0.04241
1133.50 0.0424
1133.60 0.04238
1133.70 0.04237
1133.80 0.04235
1133.90 0.04234
1134.00 0.04232
1134.10 0.04231
1134.20 0.0423
1134.30 0.04228
1134.40 0.04227
1134.50 0.04225
1134.60 0.04224
1134.70 0.04222
1134.80 0.04221
1134.90 0.04219
1135.00 0.04218
1135.10 0.04217
1135.20 0.04215
1135.30 0.04214
1135.40 0.04212
1135.50 0.04211
1135.60 0.04209
1135.70 0.04208
1135.80 0.04206
1135.90 0.04205
1136.00 0.04204
1136.10 0.04202
1136.20 0.04201
1136.30 0.04199
1136.40 0.04198
1136.50 0.04196
1136.60 0.04195
1136.70 0.04194
1136.80 0.04192
1136.90 0.04191
1137.00 0.04189
1137.10 0.04188
1137.20 0.04186
1137.30 0.04185
1137.40 0.04183
1137.50 0.04182
1137.60 0.04181
1137.70 0.04179
1137.80 0.04178
1137.90 0.04176
1138.00 0.04175
1138.10 0.04173
1138.20 0.04172
1138.30 0.04171
1138.40 0.04169
1138.50 0.04168
1138.60 0.04166
1138.70 0.04165
1138.80 0.04164
1138.90 0.04162
1139.00 0.04161
1139.10 0.04159
1139.20 0.04158
1139.30 0.04156
1139.40 0.04155
1139.50 0.04154
1139.60 0.04152
1139.70 0.04151
1139.80 0.04149
1139.90 0.04148
1140.00 0.04146
1140.10 0.04145
1140.20 0.04144
1140.30 0.04142
1140.40 0.04141
1140.50 0.04139
1140.60 0.04138
1140.70 0.04137
1140.80 0.04135
1140.90 0.04134
1141.00 0.04132
1141.10 0.04131
1141.20 0.0413
1141.30 0.04128
1141.40 0.04127
1141.50 0.04125
1141.60 0.04124
1141.70 0.04122
1141.80 0.04121
1141.90 0.0412
1142.00 0.04118
1142.10 0.04117
1142.20 0.04115
1142.30 0.04114
1142.40 0.04113
1142.50 0.04111
1142.60 0.0411
1142.70 0.04108
1142.80 0.04107
1142.90 0.04106
1143.00 0.04104
1143.10 0.04103
1143.20 0.04101
1143.30 0.041
1143.40 0.04099
1143.50 0.04097
1143.60 0.04096
1143.70 0.04094
1143.80 0.04093
1143.90 0.04092
1144.00 0.0409
1144.10 0.04089
1144.20 0.04088
1144.30 0.04086
1144.40 0.04085
1144.50 0.04083
1144.60 0.04082
1144.70 0.04081
1144.80 0.04079
1144.90 0.04078
1145.00 0.04076
1145.10 0.04075
1145.20 0.04074
1145.30 0.04072
1145.40 0.04071
1145.50 0.04069
1145.60 0.04068
1145.70 0.04067
1145.80 0.04065
1145.90 0.04064
1146.00 0.04063
1146.10 0.04061
1146.20 0.0406
1146.30 0.04058
1146.40 0.04057
1146.50 0.04056
1146.60 0.04054
1146.70 0.04053
1146.80 0.04051
1146.90 0.0405
1147.00 0.04049
1147.10 0.04047
1147.20 0.04046
1147.30 0.04045
1147.40 0.04043
1147.50 0.04042
1147.60 0.04041
1147.70 0.04039
1147.80 0.04038
1147.90 0.04036
1148.00 0.04035
1148.10 0.04034
1148.20 0.04032
1148.30 0.04031
1148.40 0.0403
1148.50 0.04028
1148.60 0.04027
1148.70 0.04025
1148.80 0.04024
1148.90 0.04023
1149.00 0.04021
1149.10 0.0402
1149.20 0.04019
1149.30 0.04017
1149.40 0.04016
1149.50 0.04015
1149.60 0.04013
1149.70 0.04012
1149.80 0.0401
1149.90 0.04009
1150.00 0.04008
1150.10 0.04006
1150.20 0.04005
1150.30 0.04004
1150.40 0.04002
1150.50 0.04001
1150.60 0.04
1150.70 0.03998
1150.80 0.03997
1150.90 0.03996
1151.00 0.03994
1151.10 0.03993
1151.20 0.03991
1151.30 0.0399
1151.40 0.03989
1151.50 0.03987
1151.60 0.03986
1151.70 0.03985
1151.80 0.03983
1151.90 0.03982
1152.00 0.03981
1152.10 0.03979
1152.20 0.03978
1152.30 0.03977
1152.40 0.03975
1152.50 0.03974
1152.60 0.03973
1152.70 0.03971
1152.80 0.0397
1152.90 0.03969
1153.00 0.03967
1153.10 0.03966
1153.20 0.03965
1153.30 0.03963
1153.40 0.03962
1153.50 0.03961
1153.60 0.03959
1153.70 0.03958
1153.80 0.03957
1153.90 0.03955
1154.00 0.03954
1154.10 0.03952
1154.20 0.03951
1154.30 0.0395
1154.40 0.03948
1154.50 0.03947
1154.60 0.03946
1154.70 0.03944
1154.80 0.03943
1154.90 0.03942
1155.00 0.0394
1155.10 0.03939
1155.20 0.03938
1155.30 0.03936
1155.40 0.03935
1155.50 0.03934
1155.60 0.03933
1155.70 0.03931
1155.80 0.0393
1155.90 0.03929
1156.00 0.03927
1156.10 0.03926
1156.20 0.03925
1156.30 0.03923
1156.40 0.03922
1156.50 0.03921
1156.60 0.03919
1156.70 0.03918
1156.80 0.03917
1156.90 0.03915
1157.00 0.03914
1157.10 0.03913
1157.20 0.03911
1157.30 0.0391
1157.40 0.03909
1157.50 0.03907
1157.60 0.03906
1157.70 0.03905
1157.80 0.03903
1157.90 0.03902
1158.00 0.03901
1158.10 0.03899
1158.20 0.03898
1158.30 0.03897
1158.40 0.03896
1158.50 0.03894
1158.60 0.03893
1158.70 0.03892
1158.80 0.0389
1158.90 0.03889
1159.00 0.03888
1159.10 0.03886
1159.20 0.03885
1159.30 0.03884
1159.40 0.03882
1159.50 0.03881
1159.60 0.0388
1159.70 0.03879
1159.80 0.03877
1159.90 0.03876
1160.00 0.03875
1160.10 0.03873
1160.20 0.03872
1160.30 0.03871
1160.40 0.03869
1160.50 0.03868
1160.60 0.03867
1160.70 0.03866
1160.80 0.03864
1160.90 0.03863
1161.00 0.03862
1161.10 0.0386
1161.20 0.03859
1161.30 0.03858
1161.40 0.03856
1161.50 0.03855
1161.60 0.03854
1161.70 0.03853
1161.80 0.03851
1161.90 0.0385
1162.00 0.03849
1162.10 0.03847
1162.20 0.03846
1162.30 0.03845
1162.40 0.03843
1162.50 0.03842
1162.60 0.03841
1162.70 0.0384
1162.80 0.03838
1162.90 0.03837
1163.00 0.03836
1163.10 0.03834
1163.20 0.03833
1163.30 0.03832
1163.40 0.03831
1163.50 0.03829
1163.60 0.03828
1163.70 0.03827
1163.80 0.03825
1163.90 0.03824
1164.00 0.03823
1164.10 0.03822
1164.20 0.0382
1164.30 0.03819
1164.40 0.03818
1164.50 0.03817
1164.60 0.03815
1164.70 0.03814
1164.80 0.03813
1164.90 0.03811
1165.00 0.0381
1165.10 0.03809
1165.20 0.03808
1165.30 0.03806
1165.40 0.03805
1165.50 0.03804
1165.60 0.03802
1165.70 0.03801
1165.80 0.038
1165.90 0.03799
1166.00 0.03797
1166.10 0.03796
1166.20 0.03795
1166.30 0.03794
1166.40 0.03792
1166.50 0.03791
1166.60 0.0379
1166.70 0.03788
1166.80 0.03787
1166.90 0.03786
1167.00 0.03785
1167.10 0.03783
1167.20 0.03782
1167.30 0.03781
1167.40 0.0378
1167.50 0.03778
1167.60 0.03777
1167.70 0.03776
1167.80 0.03775
1167.90 0.03773
1168.00 0.03772
1168.10 0.03771
1168.20 0.0377
1168.30 0.03768
1168.40 0.03767
1168.50 0.03766
1168.60 0.03764
1168.70 0.03763
1168.80 0.03762
1168.90 0.03761
1169.00 0.03759
1169.10 0.03758
1169.20 0.03757
1169.30 0.03756
1169.40 0.03754
1169.50 0.03753
1169.60 0.03752
1169.70 0.03751
1169.80 0.03749
1169.90 0.03748
1170.00 0.03747
1170.10 0.03746
1170.20 0.03744
1170.30 0.03743
1170.40 0.03742
1170.50 0.03741
1170.60 0.03739
1170.70 0.03738
1170.80 0.03737
1170.90 0.03736
1171.00 0.03734
1171.10 0.03733
1171.20 0.03732
1171.30 0.03731
1171.40 0.03729
1171.50 0.03728
1171.60 0.03727
1171.70 0.03726
1171.80 0.03724
1171.90 0.03723
1172.00 0.03722
1172.10 0.03721
1172.20 0.0372
1172.30 0.03718
1172.40 0.03717
1172.50 0.03716
1172.60 0.03715
1172.70 0.03713
1172.80 0.03712
1172.90 0.03711
1173.00 0.0371
1173.10 0.03708
1173.20 0.03707
1173.30 0.03706
1173.40 0.03705
1173.50 0.03703
1173.60 0.03702
1173.70 0.03701
1173.80 0.037
1173.90 0.03699
1174.00 0.03697
1174.10 0.03696
1174.20 0.03695
1174.30 0.03694
1174.40 0.03692
1174.50 0.03691
1174.60 0.0369
1174.70 0.03689
1174.80 0.03688
1174.90 0.03686
1175.00 0.03685
1175.10 0.03684
1175.20 0.03683
1175.30 0.03681
1175.40 0.0368
1175.50 0.03679
1175.60 0.03678
1175.70 0.03676
1175.80 0.03675
1175.90 0.03674
1176.00 0.03673
1176.10 0.03672
1176.20 0.0367
1176.30 0.03669
1176.40 0.03668
1176.50 0.03667
1176.60 0.03665
1176.70 0.03664
1176.80 0.03663
1176.90 0.03662
1177.00 0.03661
1177.10 0.03659
1177.20 0.03658
1177.30 0.03657
1177.40 0.03656
1177.50 0.03655
1177.60 0.03653
1177.70 0.03652
1177.80 0.03651
1177.90 0.0365
1178.00 0.03649
1178.10 0.03647
1178.20 0.03646
1178.30 0.03645
1178.40 0.03644
1178.50 0.03642
1178.60 0.03641
1178.70 0.0364
1178.80 0.03639
1178.90 0.03638
1179.00 0.03636
1179.10 0.03635
1179.20 0.03634
1179.30 0.03633
1179.40 0.03632
1179.50 0.0363
1179.60 0.03629
1179.70 0.03628
1179.80 0.03627
1179.90 0.03626
1180.00 0.03624
1180.10 0.03623
1180.20 0.03622
1180.30 0.03621
1180.40 0.0362
1180.50 0.03618
1180.60 0.03617
1180.70 0.03616
1180.80 0.03615
1180.90 0.03614
1181.00 0.03612
1181.10 0.03611
1181.20 0.0361
1181.30 0.03609
1181.40 0.03608
1181.50 0.03606
1181.60 0.03605
1181.70 0.03604
1181.80 0.03603
1181.90 0.03602
1182.00 0.03601
1182.10 0.03599
1182.20 0.03598
1182.30 0.03597
1182.40 0.03596
1182.50 0.03595
1182.60 0.03593
1182.70 0.03592
1182.80 0.03591
1182.90 0.0359
1183.00 0.03589
1183.10 0.03587
1183.20 0.03586
1183.30 0.03585
1183.40 0.03584
1183.50 0.03583
1183.60 0.03582
1183.70 0.0358
1183.80 0.03579
1183.90 0.03578
1184.00 0.03577
1184.10 0.03576
1184.20 0.03574
1184.30 0.03573
1184.40 0.03572
1184.50 0.03571
1184.60 0.0357
1184.70 0.03569
1184.80 0.03567
1184.90 0.03566
1185.00 0.03565
1185.10 0.03564
1185.20 0.03563
1185.30 0.03562
1185.40 0.0356
1185.50 0.03559
1185.60 0.03558
1185.70 0.03557
1185.80 0.03556
1185.90 0.03554
1186.00 0.03553
1186.10 0.03552
1186.20 0.03551
1186.30 0.0355
1186.40 0.03549
1186.50 0.03547
1186.60 0.03546
1186.70 0.03545
1186.80 0.03544
1186.90 0.03543
1187.00 0.03542
1187.10 0.0354
1187.20 0.03539
1187.30 0.03538
1187.40 0.03537
1187.50 0.03536
1187.60 0.03535
1187.70 0.03533
1187.80 0.03532
1187.90 0.03531
1188.00 0.0353
1188.10 0.03529
1188.20 0.03528
1188.30 0.03527
1188.40 0.03525
1188.50 0.03524
1188.60 0.03523
1188.70 0.03522
1188.80 0.03521
1188.90 0.0352
1189.00 0.03518
1189.10 0.03517
1189.20 0.03516
1189.30 0.03515
1189.40 0.03514
1189.50 0.03513
1189.60 0.03512
1189.70 0.0351
1189.80 0.03509
1189.90 0.03508
1190.00 0.03507
1190.10 0.03506
1190.20 0.03505
1190.30 0.03503
1190.40 0.03502
1190.50 0.03501
1190.60 0.035
1190.70 0.03499
1190.80 0.03498
1190.90 0.03497
1191.00 0.03495
1191.10 0.03494
1191.20 0.03493
1191.30 0.03492
1191.40 0.03491
1191.50 0.0349
1191.60 0.03489
1191.70 0.03487
1191.80 0.03486
1191.90 0.03485
1192.00 0.03484
1192.10 0.03483
1192.20 0.03482
1192.30 0.03481
1192.40 0.03479
1192.50 0.03478
1192.60 0.03477
1192.70 0.03476
1192.80 0.03475
1192.90 0.03474
1193.00 0.03473
1193.10 0.03471
1193.20 0.0347
1193.30 0.03469
1193.40 0.03468
1193.50 0.03467
1193.60 0.03466
1193.70 0.03465
1193.80 0.03463
1193.90 0.03462
1194.00 0.03461
1194.10 0.0346
1194.20 0.03459
1194.30 0.03458
1194.40 0.03457
1194.50 0.03456
1194.60 0.03454
1194.70 0.03453
1194.80 0.03452
1194.90 0.03451
1195.00 0.0345
1195.10 0.03449
1195.20 0.03448
1195.30 0.03447
1195.40 0.03445
1195.50 0.03444
1195.60 0.03443
1195.70 0.03442
1195.80 0.03441
1195.90 0.0344
1196.00 0.03439
1196.10 0.03438
1196.20 0.03436
1196.30 0.03435
1196.40 0.03434
1196.50 0.03433
1196.60 0.03432
1196.70 0.03431
1196.80 0.0343
1196.90 0.03429
1197.00 0.03427
1197.10 0.03426
1197.20 0.03425
1197.30 0.03424
1197.40 0.03423
1197.50 0.03422
1197.60 0.03421
1197.70 0.0342
1197.80 0.03418
1197.90 0.03417
1198.00 0.03416
1198.10 0.03415
1198.20 0.03414
1198.30 0.03413
1198.40 0.03412
1198.50 0.03411
1198.60 0.0341
1198.70 0.03408
1198.80 0.03407
1198.90 0.03406
1199.00 0.03405
1199.10 0.03404
1199.20 0.03403
1199.30 0.03402
1199.40 0.03401
1199.50 0.034
1199.60 0.03399
1199.70 0.03397
1199.80 0.03396
1199.90 0.03395
1200.00 0
