# Version 2.1 - nm, norm@500 to 1, cut digits, bergeron_3500_70.dat_3500
# Wavelength(nm)  Flambda(ergs/cm^s/s/nm)
300.00 0.106
300.10 0.1063
300.20 0.1065
300.30 0.1068
300.40 0.107
300.50 0.1073
300.60 0.1075
300.70 0.1078
300.80 0.1081
300.90 0.1083
301.00 0.1086
301.10 0.1088
301.20 0.1091
301.30 0.1093
301.40 0.1096
301.50 0.1098
301.60 0.1101
301.70 0.1104
301.80 0.1106
301.90 0.1109
302.00 0.1111
302.10 0.1114
302.20 0.1116
302.30 0.1119
302.40 0.1122
302.50 0.1124
302.60 0.1127
302.70 0.113
302.80 0.1132
302.90 0.1135
303.00 0.1138
303.10 0.114
303.20 0.1143
303.30 0.1145
303.40 0.1148
303.50 0.1151
303.60 0.1153
303.70 0.1156
303.80 0.1158
303.90 0.1161
304.00 0.1164
304.10 0.1166
304.20 0.1169
304.30 0.1172
304.40 0.1175
304.50 0.1177
304.60 0.118
304.70 0.1183
304.80 0.1185
304.90 0.1188
305.00 0.1191
305.10 0.1193
305.20 0.1196
305.30 0.1199
305.40 0.1202
305.50 0.1204
305.60 0.1207
305.70 0.121
305.80 0.1212
305.90 0.1215
306.00 0.1218
306.10 0.122
306.20 0.1223
306.30 0.1226
306.40 0.1229
306.50 0.1232
306.60 0.1234
306.70 0.1237
306.80 0.124
306.90 0.1243
307.00 0.1245
307.10 0.1248
307.20 0.1251
307.30 0.1254
307.40 0.1256
307.50 0.1259
307.60 0.1262
307.70 0.1265
307.80 0.1267
307.90 0.127
308.00 0.1273
308.10 0.1276
308.20 0.1279
308.30 0.1281
308.40 0.1284
308.50 0.1287
308.60 0.129
308.70 0.1293
308.80 0.1296
308.90 0.1299
309.00 0.1301
309.10 0.1304
309.20 0.1307
309.30 0.131
309.40 0.1313
309.50 0.1316
309.60 0.1318
309.70 0.1321
309.80 0.1324
309.90 0.1327
310.00 0.133
310.10 0.1333
310.20 0.1336
310.30 0.1338
310.40 0.1341
310.50 0.1344
310.60 0.1347
310.70 0.135
310.80 0.1353
310.90 0.1356
311.00 0.1359
311.10 0.1362
311.20 0.1365
311.30 0.1368
311.40 0.1371
311.50 0.1373
311.60 0.1376
311.70 0.1379
311.80 0.1382
311.90 0.1385
312.00 0.1388
312.10 0.1391
312.20 0.1394
312.30 0.1397
312.40 0.14
312.50 0.1403
312.60 0.1406
312.70 0.1409
312.80 0.1412
312.90 0.1415
313.00 0.1418
313.10 0.1421
313.20 0.1424
313.30 0.1427
313.40 0.143
313.50 0.1433
313.60 0.1435
313.70 0.1438
313.80 0.1441
313.90 0.1444
314.00 0.1447
314.10 0.145
314.20 0.1453
314.30 0.1457
314.40 0.146
314.50 0.1463
314.60 0.1466
314.70 0.1469
314.80 0.1472
314.90 0.1475
315.00 0.1478
315.10 0.1481
315.20 0.1484
315.30 0.1487
315.40 0.149
315.50 0.1493
315.60 0.1496
315.70 0.1499
315.80 0.1502
315.90 0.1505
316.00 0.1508
316.10 0.1511
316.20 0.1515
316.30 0.1518
316.40 0.1521
316.50 0.1524
316.60 0.1527
316.70 0.153
316.80 0.1533
316.90 0.1536
317.00 0.154
317.10 0.1543
317.20 0.1546
317.30 0.1549
317.40 0.1552
317.50 0.1555
317.60 0.1558
317.70 0.1561
317.80 0.1564
317.90 0.1567
318.00 0.1571
318.10 0.1574
318.20 0.1577
318.30 0.158
318.40 0.1583
318.50 0.1587
318.60 0.159
318.70 0.1593
318.80 0.1596
318.90 0.1599
319.00 0.1603
319.10 0.1606
319.20 0.1609
319.30 0.1612
319.40 0.1615
319.50 0.1618
319.60 0.1622
319.70 0.1625
319.80 0.1628
319.90 0.1631
320.00 0.1634
320.10 0.1637
320.20 0.1641
320.30 0.1644
320.40 0.1647
320.50 0.1651
320.60 0.1654
320.70 0.1657
320.80 0.166
320.90 0.1664
321.00 0.1667
321.10 0.167
321.20 0.1673
321.30 0.1677
321.40 0.168
321.50 0.1683
321.60 0.1686
321.70 0.1689
321.80 0.1693
321.90 0.1696
322.00 0.1699
322.10 0.1703
322.20 0.1706
322.30 0.1709
322.40 0.1713
322.50 0.1716
322.60 0.1719
322.70 0.1723
322.80 0.1726
322.90 0.1729
323.00 0.1732
323.10 0.1736
323.20 0.1739
323.30 0.1742
323.40 0.1746
323.50 0.1749
323.60 0.1752
323.70 0.1756
323.80 0.1759
323.90 0.1762
324.00 0.1765
324.10 0.1769
324.20 0.1772
324.30 0.1776
324.40 0.1779
324.50 0.1783
324.60 0.1786
324.70 0.1789
324.80 0.1793
324.90 0.1796
325.00 0.1799
325.10 0.1803
325.20 0.1806
325.30 0.181
325.40 0.1813
325.50 0.1816
325.60 0.182
325.70 0.1823
325.80 0.1826
325.90 0.183
326.00 0.1833
326.10 0.1837
326.20 0.184
326.30 0.1844
326.40 0.1847
326.50 0.185
326.60 0.1854
326.70 0.1857
326.80 0.1861
326.90 0.1864
327.00 0.1868
327.10 0.1871
327.20 0.1875
327.30 0.1878
327.40 0.1882
327.50 0.1885
327.60 0.1888
327.70 0.1892
327.80 0.1895
327.90 0.1899
328.00 0.1902
328.10 0.1906
328.20 0.1909
328.30 0.1913
328.40 0.1916
328.50 0.192
328.60 0.1923
328.70 0.1927
328.80 0.193
328.90 0.1934
329.00 0.1937
329.10 0.1941
329.20 0.1944
329.30 0.1948
329.40 0.1951
329.50 0.1955
329.60 0.1958
329.70 0.1962
329.80 0.1965
329.90 0.1969
330.00 0.1972
330.10 0.1976
330.20 0.1979
330.30 0.1983
330.40 0.1987
330.50 0.199
330.60 0.1994
330.70 0.1997
330.80 0.2001
330.90 0.2005
331.00 0.2008
331.10 0.2012
331.20 0.2015
331.30 0.2019
331.40 0.2023
331.50 0.2026
331.60 0.203
331.70 0.2033
331.80 0.2037
331.90 0.204
332.00 0.2044
332.10 0.2047
332.20 0.2051
332.30 0.2055
332.40 0.2058
332.50 0.2062
332.60 0.2066
332.70 0.2069
332.80 0.2073
332.90 0.2077
333.00 0.208
333.10 0.2084
333.20 0.2088
333.30 0.2091
333.40 0.2095
333.50 0.2098
333.60 0.2102
333.70 0.2106
333.80 0.2109
333.90 0.2113
334.00 0.2116
334.10 0.212
334.20 0.2124
334.30 0.2128
334.40 0.2131
334.50 0.2135
334.60 0.2139
334.70 0.2143
334.80 0.2146
334.90 0.215
335.00 0.2154
335.10 0.2157
335.20 0.2161
335.30 0.2165
335.40 0.2169
335.50 0.2172
335.60 0.2176
335.70 0.218
335.80 0.2183
335.90 0.2187
336.00 0.2191
336.10 0.2194
336.20 0.2198
336.30 0.2202
336.40 0.2206
336.50 0.2209
336.60 0.2213
336.70 0.2217
336.80 0.2221
336.90 0.2225
337.00 0.2228
337.10 0.2232
337.20 0.2236
337.30 0.224
337.40 0.2243
337.50 0.2247
337.60 0.2251
337.70 0.2255
337.80 0.2258
337.90 0.2262
338.00 0.2266
338.10 0.227
338.20 0.2273
338.30 0.2277
338.40 0.2281
338.50 0.2285
338.60 0.2289
338.70 0.2293
338.80 0.2297
338.90 0.23
339.00 0.2304
339.10 0.2308
339.20 0.2312
339.30 0.2316
339.40 0.2319
339.50 0.2323
339.60 0.2327
339.70 0.2331
339.80 0.2335
339.90 0.2338
340.00 0.2342
340.10 0.2346
340.20 0.235
340.30 0.2354
340.40 0.2358
340.50 0.2362
340.60 0.2366
340.70 0.2369
340.80 0.2373
340.90 0.2377
341.00 0.2381
341.10 0.2385
341.20 0.2389
341.30 0.2393
341.40 0.2397
341.50 0.24
341.60 0.2404
341.70 0.2408
341.80 0.2412
341.90 0.2416
342.00 0.242
342.10 0.2424
342.20 0.2428
342.30 0.2432
342.40 0.2436
342.50 0.244
342.60 0.2443
342.70 0.2447
342.80 0.2451
342.90 0.2455
343.00 0.2459
343.10 0.2463
343.20 0.2467
343.30 0.2471
343.40 0.2475
343.50 0.2479
343.60 0.2483
343.70 0.2487
343.80 0.2491
343.90 0.2494
344.00 0.2498
344.10 0.2502
344.20 0.2506
344.30 0.251
344.40 0.2515
344.50 0.2519
344.60 0.2523
344.70 0.2527
344.80 0.2531
344.90 0.2535
345.00 0.2539
345.10 0.2543
345.20 0.2547
345.30 0.2551
345.40 0.2554
345.50 0.2558
345.60 0.2562
345.70 0.2566
345.80 0.257
345.90 0.2574
346.00 0.2578
346.10 0.2582
346.20 0.2586
346.30 0.2591
346.40 0.2595
346.50 0.2599
346.60 0.2603
346.70 0.2607
346.80 0.2611
346.90 0.2615
347.00 0.2619
347.10 0.2623
347.20 0.2627
347.30 0.2631
347.40 0.2635
347.50 0.2639
347.60 0.2643
347.70 0.2647
347.80 0.2651
347.90 0.2655
348.00 0.2659
348.10 0.2663
348.20 0.2667
348.30 0.2672
348.40 0.2676
348.50 0.268
348.60 0.2684
348.70 0.2688
348.80 0.2692
348.90 0.2696
349.00 0.27
349.10 0.2705
349.20 0.2709
349.30 0.2713
349.40 0.2717
349.50 0.2721
349.60 0.2725
349.70 0.2729
349.80 0.2733
349.90 0.2737
350.00 0.2741
350.10 0.2745
350.20 0.275
350.30 0.2754
350.40 0.2758
350.50 0.2762
350.60 0.2766
350.70 0.2771
350.80 0.2775
350.90 0.2779
351.00 0.2783
351.10 0.2787
351.20 0.2791
351.30 0.2795
351.40 0.28
351.50 0.2804
351.60 0.2808
351.70 0.2812
351.80 0.2816
351.90 0.282
352.00 0.2824
352.10 0.2829
352.20 0.2833
352.30 0.2837
352.40 0.2841
352.50 0.2845
352.60 0.285
352.70 0.2854
352.80 0.2858
352.90 0.2862
353.00 0.2867
353.10 0.2871
353.20 0.2875
353.30 0.2879
353.40 0.2883
353.50 0.2888
353.60 0.2892
353.70 0.2896
353.80 0.29
353.90 0.2904
354.00 0.2908
354.10 0.2913
354.20 0.2917
354.30 0.2921
354.40 0.2926
354.50 0.293
354.60 0.2934
354.70 0.2938
354.80 0.2943
354.90 0.2947
355.00 0.2951
355.10 0.2955
355.20 0.296
355.30 0.2964
355.40 0.2968
355.50 0.2972
355.60 0.2977
355.70 0.2981
355.80 0.2985
355.90 0.2989
356.00 0.2994
356.10 0.2998
356.20 0.3002
356.30 0.3007
356.40 0.3011
356.50 0.3015
356.60 0.302
356.70 0.3024
356.80 0.3028
356.90 0.3033
357.00 0.3037
357.10 0.3041
357.20 0.3045
357.30 0.305
357.40 0.3054
357.50 0.3058
357.60 0.3063
357.70 0.3067
357.80 0.3071
357.90 0.3075
358.00 0.308
358.10 0.3084
358.20 0.3088
358.30 0.3093
358.40 0.3097
358.50 0.3102
358.60 0.3106
358.70 0.311
358.80 0.3115
358.90 0.3119
359.00 0.3123
359.10 0.3128
359.20 0.3132
359.30 0.3136
359.40 0.3141
359.50 0.3145
359.60 0.3149
359.70 0.3154
359.80 0.3158
359.90 0.3162
360.00 0.3167
360.10 0.3171
360.20 0.3176
360.30 0.318
360.40 0.3184
360.50 0.3189
360.60 0.3193
360.70 0.3198
360.80 0.3202
360.90 0.3206
361.00 0.3211
361.10 0.3215
361.20 0.322
361.30 0.3224
361.40 0.3228
361.50 0.3233
361.60 0.3237
361.70 0.3242
361.80 0.3246
361.90 0.325
362.00 0.3255
362.10 0.3259
362.20 0.3264
362.30 0.3268
362.40 0.3272
362.50 0.3277
362.60 0.3281
362.70 0.3286
362.80 0.329
362.90 0.3295
363.00 0.3299
363.10 0.3303
363.20 0.3308
363.30 0.3312
363.40 0.3317
363.50 0.3321
363.60 0.3326
363.70 0.333
363.80 0.3335
363.90 0.3339
364.00 0.3344
364.10 0.3348
364.20 0.3353
364.30 0.3357
364.40 0.3361
364.50 0.3366
364.60 0.337
364.70 0.3375
364.80 0.3379
364.90 0.3384
365.00 0.3388
365.10 0.3393
365.20 0.3397
365.30 0.3402
365.40 0.3406
365.50 0.3411
365.60 0.3415
365.70 0.342
365.80 0.3424
365.90 0.3429
366.00 0.3433
366.10 0.3438
366.20 0.3442
366.30 0.3447
366.40 0.3452
366.50 0.3456
366.60 0.3461
366.70 0.3465
366.80 0.347
366.90 0.3474
367.00 0.3479
367.10 0.3483
367.20 0.3488
367.30 0.3492
367.40 0.3497
367.50 0.3501
367.60 0.3506
367.70 0.351
367.80 0.3515
367.90 0.3519
368.00 0.3524
368.10 0.3528
368.20 0.3533
368.30 0.3538
368.40 0.3542
368.50 0.3547
368.60 0.3551
368.70 0.3556
368.80 0.3561
368.90 0.3565
369.00 0.357
369.10 0.3574
369.20 0.3579
369.30 0.3583
369.40 0.3588
369.50 0.3593
369.60 0.3597
369.70 0.3602
369.80 0.3606
369.90 0.3611
370.00 0.3615
370.10 0.362
370.20 0.3625
370.30 0.3629
370.40 0.3634
370.50 0.3639
370.60 0.3643
370.70 0.3648
370.80 0.3652
370.90 0.3657
371.00 0.3662
371.10 0.3666
371.20 0.3671
371.30 0.3675
371.40 0.368
371.50 0.3685
371.60 0.3689
371.70 0.3694
371.80 0.3698
371.90 0.3703
372.00 0.3707
372.10 0.3712
372.20 0.3717
372.30 0.3722
372.40 0.3726
372.50 0.3731
372.60 0.3736
372.70 0.374
372.80 0.3745
372.90 0.375
373.00 0.3754
373.10 0.3759
373.20 0.3764
373.30 0.3768
373.40 0.3773
373.50 0.3777
373.60 0.3782
373.70 0.3787
373.80 0.3791
373.90 0.3796
374.00 0.38
374.10 0.3805
374.20 0.381
374.30 0.3815
374.40 0.3819
374.50 0.3824
374.60 0.3829
374.70 0.3833
374.80 0.3838
374.90 0.3843
375.00 0.3848
375.10 0.3852
375.20 0.3857
375.30 0.3862
375.40 0.3866
375.50 0.3871
375.60 0.3876
375.70 0.388
375.80 0.3885
375.90 0.389
376.00 0.3894
376.10 0.3899
376.20 0.3904
376.30 0.3908
376.40 0.3913
376.50 0.3918
376.60 0.3922
376.70 0.3927
376.80 0.3932
376.90 0.3937
377.00 0.3941
377.10 0.3946
377.20 0.3951
377.30 0.3955
377.40 0.396
377.50 0.3965
377.60 0.397
377.70 0.3974
377.80 0.3979
377.90 0.3984
378.00 0.3989
378.10 0.3993
378.20 0.3998
378.30 0.4003
378.40 0.4008
378.50 0.4012
378.60 0.4017
378.70 0.4022
378.80 0.4027
378.90 0.4031
379.00 0.4036
379.10 0.4041
379.20 0.4046
379.30 0.405
379.40 0.4055
379.50 0.406
379.60 0.4065
379.70 0.4069
379.80 0.4074
379.90 0.4079
380.00 0.4084
380.10 0.4089
380.20 0.4093
380.30 0.4098
380.40 0.4103
380.50 0.4108
380.60 0.4112
380.70 0.4117
380.80 0.4122
380.90 0.4127
381.00 0.4131
381.10 0.4136
381.20 0.4141
381.30 0.4146
381.40 0.415
381.50 0.4155
381.60 0.416
381.70 0.4165
381.80 0.417
381.90 0.4174
382.00 0.4179
382.10 0.4184
382.20 0.4189
382.30 0.4194
382.40 0.4199
382.50 0.4203
382.60 0.4208
382.70 0.4213
382.80 0.4218
382.90 0.4223
383.00 0.4227
383.10 0.4232
383.20 0.4237
383.30 0.4242
383.40 0.4247
383.50 0.4252
383.60 0.4256
383.70 0.4261
383.80 0.4266
383.90 0.4271
384.00 0.4276
384.10 0.428
384.20 0.4285
384.30 0.429
384.40 0.4295
384.50 0.43
384.60 0.4304
384.70 0.4309
384.80 0.4314
384.90 0.4319
385.00 0.4324
385.10 0.4329
385.20 0.4334
385.30 0.4338
385.40 0.4343
385.50 0.4348
385.60 0.4353
385.70 0.4358
385.80 0.4363
385.90 0.4368
386.00 0.4372
386.10 0.4377
386.20 0.4382
386.30 0.4387
386.40 0.4392
386.50 0.4397
386.60 0.4402
386.70 0.4407
386.80 0.4411
386.90 0.4416
387.00 0.4421
387.10 0.4426
387.20 0.4431
387.30 0.4436
387.40 0.4441
387.50 0.4445
387.60 0.445
387.70 0.4455
387.80 0.446
387.90 0.4465
388.00 0.447
388.10 0.4475
388.20 0.448
388.30 0.4485
388.40 0.4489
388.50 0.4494
388.60 0.4499
388.70 0.4504
388.80 0.4509
388.90 0.4514
389.00 0.4519
389.10 0.4524
389.20 0.4528
389.30 0.4533
389.40 0.4538
389.50 0.4543
389.60 0.4548
389.70 0.4553
389.80 0.4558
389.90 0.4563
390.00 0.4568
390.10 0.4573
390.20 0.4578
390.30 0.4583
390.40 0.4587
390.50 0.4592
390.60 0.4597
390.70 0.4602
390.80 0.4607
390.90 0.4612
391.00 0.4617
391.10 0.4622
391.20 0.4627
391.30 0.4632
391.40 0.4637
391.50 0.4642
391.60 0.4647
391.70 0.4652
391.80 0.4656
391.90 0.4661
392.00 0.4666
392.10 0.4671
392.20 0.4676
392.30 0.4681
392.40 0.4686
392.50 0.4691
392.60 0.4696
392.70 0.4701
392.80 0.4706
392.90 0.4711
393.00 0.4716
393.10 0.4721
393.20 0.4726
393.30 0.4731
393.40 0.4736
393.50 0.4741
393.60 0.4746
393.70 0.475
393.80 0.4755
393.90 0.476
394.00 0.4765
394.10 0.477
394.20 0.4775
394.30 0.478
394.40 0.4785
394.50 0.479
394.60 0.4795
394.70 0.48
394.80 0.4805
394.90 0.481
395.00 0.4815
395.10 0.482
395.20 0.4825
395.30 0.483
395.40 0.4835
395.50 0.484
395.60 0.4845
395.70 0.485
395.80 0.4855
395.90 0.486
396.00 0.4865
396.10 0.487
396.20 0.4875
396.30 0.488
396.40 0.4885
396.50 0.489
396.60 0.4895
396.70 0.4899
396.80 0.4905
396.90 0.491
397.00 0.4915
397.10 0.492
397.20 0.4925
397.30 0.493
397.40 0.4934
397.50 0.4939
397.60 0.4944
397.70 0.4949
397.80 0.4954
397.90 0.4959
398.00 0.4965
398.10 0.497
398.20 0.4975
398.30 0.498
398.40 0.4984
398.50 0.4989
398.60 0.4994
398.70 0.4999
398.80 0.5005
398.90 0.5009
399.00 0.5015
399.10 0.502
399.20 0.5025
399.30 0.5029
399.40 0.5034
399.50 0.504
399.60 0.5045
399.70 0.505
399.80 0.5055
399.90 0.506
400.00 0.5065
400.10 0.507
400.20 0.5075
400.30 0.508
400.40 0.5085
400.50 0.509
400.60 0.5095
400.70 0.51
400.80 0.5105
400.90 0.511
401.00 0.5115
401.10 0.512
401.20 0.5125
401.30 0.513
401.40 0.5135
401.50 0.514
401.60 0.5145
401.70 0.515
401.80 0.5155
401.90 0.516
402.00 0.5165
402.10 0.517
402.20 0.5175
402.30 0.518
402.40 0.5185
402.50 0.519
402.60 0.5195
402.70 0.52
402.80 0.5205
402.90 0.521
403.00 0.5215
403.10 0.5221
403.20 0.5226
403.30 0.5231
403.40 0.5236
403.50 0.5241
403.60 0.5246
403.70 0.5251
403.80 0.5256
403.90 0.5261
404.00 0.5266
404.10 0.5271
404.20 0.5276
404.30 0.5281
404.40 0.5286
404.50 0.5291
404.60 0.5296
404.70 0.5301
404.80 0.5306
404.90 0.5312
405.00 0.5317
405.10 0.5322
405.20 0.5327
405.30 0.5332
405.40 0.5337
405.50 0.5342
405.60 0.5347
405.70 0.5352
405.80 0.5357
405.90 0.5362
406.00 0.5367
406.10 0.5372
406.20 0.5377
406.30 0.5382
406.40 0.5387
406.50 0.5393
406.60 0.5398
406.70 0.5403
406.80 0.5408
406.90 0.5413
407.00 0.5418
407.10 0.5423
407.20 0.5428
407.30 0.5433
407.40 0.5438
407.50 0.5443
407.60 0.5448
407.70 0.5453
407.80 0.5458
407.90 0.5464
408.00 0.5469
408.10 0.5474
408.20 0.5479
408.30 0.5484
408.40 0.5489
408.50 0.5494
408.60 0.5499
408.70 0.5504
408.80 0.5509
408.90 0.5514
409.00 0.5519
409.10 0.5524
409.20 0.5529
409.30 0.5535
409.40 0.554
409.50 0.5545
409.60 0.555
409.70 0.5555
409.80 0.556
409.90 0.5565
410.00 0.557
410.10 0.5575
410.20 0.558
410.30 0.5585
410.40 0.559
410.50 0.5596
410.60 0.5601
410.70 0.5606
410.80 0.5611
410.90 0.5616
411.00 0.5621
411.10 0.5626
411.20 0.5631
411.30 0.5636
411.40 0.5641
411.50 0.5646
411.60 0.5652
411.70 0.5657
411.80 0.5662
411.90 0.5667
412.00 0.5672
412.10 0.5677
412.20 0.5682
412.30 0.5687
412.40 0.5692
412.50 0.5697
412.60 0.5703
412.70 0.5708
412.80 0.5713
412.90 0.5718
413.00 0.5723
413.10 0.5728
413.20 0.5733
413.30 0.5738
413.40 0.5744
413.50 0.5749
413.60 0.5754
413.70 0.5759
413.80 0.5764
413.90 0.5769
414.00 0.5774
414.10 0.5779
414.20 0.5784
414.30 0.5789
414.40 0.5795
414.50 0.58
414.60 0.5805
414.70 0.581
414.80 0.5815
414.90 0.582
415.00 0.5825
415.10 0.583
415.20 0.5835
415.30 0.5841
415.40 0.5846
415.50 0.5851
415.60 0.5856
415.70 0.5861
415.80 0.5866
415.90 0.5871
416.00 0.5876
416.10 0.5881
416.20 0.5886
416.30 0.5892
416.40 0.5897
416.50 0.5902
416.60 0.5907
416.70 0.5912
416.80 0.5917
416.90 0.5922
417.00 0.5927
417.10 0.5932
417.20 0.5938
417.30 0.5943
417.40 0.5948
417.50 0.5953
417.60 0.5958
417.70 0.5963
417.80 0.5968
417.90 0.5973
418.00 0.5979
418.10 0.5984
418.20 0.5989
418.30 0.5994
418.40 0.5999
418.50 0.6004
418.60 0.6009
418.70 0.6014
418.80 0.602
418.90 0.6025
419.00 0.603
419.10 0.6035
419.20 0.604
419.30 0.6045
419.40 0.605
419.50 0.6055
419.60 0.606
419.70 0.6066
419.80 0.6071
419.90 0.6076
420.00 0.6081
420.10 0.6086
420.20 0.6091
420.30 0.6096
420.40 0.6102
420.50 0.6107
420.60 0.6112
420.70 0.6117
420.80 0.6122
420.90 0.6127
421.00 0.6132
421.10 0.6137
421.20 0.6143
421.30 0.6148
421.40 0.6153
421.50 0.6158
421.60 0.6163
421.70 0.6168
421.80 0.6173
421.90 0.6179
422.00 0.6184
422.10 0.6189
422.20 0.6194
422.30 0.6199
422.40 0.6204
422.50 0.6209
422.60 0.6214
422.70 0.6219
422.80 0.6225
422.90 0.623
423.00 0.6235
423.10 0.624
423.20 0.6245
423.30 0.625
423.40 0.6255
423.50 0.6261
423.60 0.6266
423.70 0.6271
423.80 0.6276
423.90 0.6281
424.00 0.6286
424.10 0.6291
424.20 0.6296
424.30 0.6302
424.40 0.6307
424.50 0.6312
424.60 0.6317
424.70 0.6322
424.80 0.6327
424.90 0.6332
425.00 0.6338
425.10 0.6343
425.20 0.6348
425.30 0.6353
425.40 0.6358
425.50 0.6363
425.60 0.6368
425.70 0.6373
425.80 0.6379
425.90 0.6384
426.00 0.6389
426.10 0.6394
426.20 0.6399
426.30 0.6404
426.40 0.6409
426.50 0.6414
426.60 0.642
426.70 0.6425
426.80 0.643
426.90 0.6435
427.00 0.644
427.10 0.6445
427.20 0.645
427.30 0.6456
427.40 0.6461
427.50 0.6466
427.60 0.6471
427.70 0.6476
427.80 0.6481
427.90 0.6486
428.00 0.6491
428.10 0.6496
428.20 0.6501
428.30 0.6507
428.40 0.6512
428.50 0.6517
428.60 0.6522
428.70 0.6527
428.80 0.6532
428.90 0.6538
429.00 0.6543
429.10 0.6548
429.20 0.6553
429.30 0.6558
429.40 0.6563
429.50 0.6568
429.60 0.6573
429.70 0.6578
429.80 0.6584
429.90 0.6589
430.00 0.6594
430.10 0.6599
430.20 0.6604
430.30 0.6609
430.40 0.6614
430.50 0.662
430.60 0.6625
430.70 0.663
430.80 0.6635
430.90 0.664
431.00 0.6645
431.10 0.665
431.20 0.6655
431.30 0.6661
431.40 0.6666
431.50 0.6671
431.60 0.6676
431.70 0.6681
431.80 0.6686
431.90 0.6691
432.00 0.6696
432.10 0.6701
432.20 0.6707
432.30 0.6712
432.40 0.6717
432.50 0.6722
432.60 0.6727
432.70 0.6732
432.80 0.6737
432.90 0.6743
433.00 0.6748
433.10 0.6753
433.20 0.6758
433.30 0.6763
433.40 0.6768
433.50 0.6773
433.60 0.6778
433.70 0.6784
433.80 0.6789
433.90 0.6794
434.00 0.6799
434.10 0.6804
434.20 0.6809
434.30 0.6814
434.40 0.6819
434.50 0.6824
434.60 0.6829
434.70 0.6835
434.80 0.684
434.90 0.6845
435.00 0.685
435.10 0.6855
435.20 0.686
435.30 0.6865
435.40 0.6871
435.50 0.6876
435.60 0.6881
435.70 0.6886
435.80 0.6891
435.90 0.6896
436.00 0.6901
436.10 0.6906
436.20 0.6911
436.30 0.6917
436.40 0.6922
436.50 0.6927
436.60 0.6932
436.70 0.6937
436.80 0.6942
436.90 0.6947
437.00 0.6952
437.10 0.6957
437.20 0.6962
437.30 0.6968
437.40 0.6973
437.50 0.6978
437.60 0.6983
437.70 0.6988
437.80 0.6993
437.90 0.6998
438.00 0.7003
438.10 0.7008
438.20 0.7014
438.30 0.7019
438.40 0.7024
438.50 0.7029
438.60 0.7034
438.70 0.7039
438.80 0.7044
438.90 0.7049
439.00 0.7054
439.10 0.706
439.20 0.7065
439.30 0.707
439.40 0.7075
439.50 0.708
439.60 0.7085
439.70 0.709
439.80 0.7095
439.90 0.71
440.00 0.7105
440.10 0.7111
440.20 0.7116
440.30 0.7121
440.40 0.7126
440.50 0.7131
440.60 0.7136
440.70 0.7141
440.80 0.7146
440.90 0.7151
441.00 0.7156
441.10 0.7162
441.20 0.7167
441.30 0.7172
441.40 0.7177
441.50 0.7182
441.60 0.7187
441.70 0.7192
441.80 0.7197
441.90 0.7202
442.00 0.7207
442.10 0.7212
442.20 0.7218
442.30 0.7223
442.40 0.7228
442.50 0.7233
442.60 0.7238
442.70 0.7243
442.80 0.7248
442.90 0.7253
443.00 0.7258
443.10 0.7263
443.20 0.7268
443.30 0.7273
443.40 0.7278
443.50 0.7284
443.60 0.7289
443.70 0.7294
443.80 0.7299
443.90 0.7304
444.00 0.7309
444.10 0.7314
444.20 0.7319
444.30 0.7324
444.40 0.7329
444.50 0.7334
444.60 0.7339
444.70 0.7345
444.80 0.735
444.90 0.7355
445.00 0.736
445.10 0.7365
445.20 0.737
445.30 0.7375
445.40 0.738
445.50 0.7385
445.60 0.739
445.70 0.7395
445.80 0.74
445.90 0.7406
446.00 0.7411
446.10 0.7416
446.20 0.7421
446.30 0.7426
446.40 0.7431
446.50 0.7436
446.60 0.7441
446.70 0.7446
446.80 0.7451
446.90 0.7456
447.00 0.7461
447.10 0.7466
447.20 0.7471
447.30 0.7476
447.40 0.7481
447.50 0.7487
447.60 0.7492
447.70 0.7497
447.80 0.7502
447.90 0.7507
448.00 0.7512
448.10 0.7517
448.20 0.7522
448.30 0.7527
448.40 0.7532
448.50 0.7537
448.60 0.7542
448.70 0.7547
448.80 0.7552
448.90 0.7557
449.00 0.7562
449.10 0.7567
449.20 0.7572
449.30 0.7577
449.40 0.7583
449.50 0.7588
449.60 0.7593
449.70 0.7598
449.80 0.7603
449.90 0.7608
450.00 0.7613
450.10 0.7618
450.20 0.7623
450.30 0.7628
450.40 0.7633
450.50 0.7638
450.60 0.7643
450.70 0.7648
450.80 0.7653
450.90 0.7658
451.00 0.7663
451.10 0.7668
451.20 0.7673
451.30 0.7678
451.40 0.7683
451.50 0.7688
451.60 0.7693
451.70 0.7698
451.80 0.7703
451.90 0.7708
452.00 0.7713
452.10 0.7718
452.20 0.7723
452.30 0.7728
452.40 0.7734
452.50 0.7739
452.60 0.7744
452.70 0.7749
452.80 0.7754
452.90 0.7759
453.00 0.7764
453.10 0.7769
453.20 0.7774
453.30 0.7779
453.40 0.7784
453.50 0.7789
453.60 0.7794
453.70 0.7799
453.80 0.7804
453.90 0.7809
454.00 0.7814
454.10 0.7819
454.20 0.7824
454.30 0.7829
454.40 0.7834
454.50 0.7839
454.60 0.7844
454.70 0.7849
454.80 0.7854
454.90 0.7859
455.00 0.7864
455.10 0.7869
455.20 0.7874
455.30 0.7879
455.40 0.7884
455.50 0.7889
455.60 0.7894
455.70 0.7899
455.80 0.7904
455.90 0.7909
456.00 0.7914
456.10 0.7919
456.20 0.7924
456.30 0.7929
456.40 0.7934
456.50 0.7939
456.60 0.7944
456.70 0.7949
456.80 0.7954
456.90 0.7959
457.00 0.7964
457.10 0.7969
457.20 0.7974
457.30 0.7979
457.40 0.7984
457.50 0.7989
457.60 0.7994
457.70 0.7999
457.80 0.8004
457.90 0.8009
458.00 0.8014
458.10 0.8019
458.20 0.8024
458.30 0.8029
458.40 0.8034
458.50 0.8039
458.60 0.8044
458.70 0.8049
458.80 0.8054
458.90 0.8059
459.00 0.8064
459.10 0.8069
459.20 0.8074
459.30 0.8078
459.40 0.8083
459.50 0.8088
459.60 0.8093
459.70 0.8098
459.80 0.8103
459.90 0.8108
460.00 0.8113
460.10 0.8118
460.20 0.8123
460.30 0.8128
460.40 0.8133
460.50 0.8138
460.60 0.8143
460.70 0.8148
460.80 0.8153
460.90 0.8158
461.00 0.8163
461.10 0.8168
461.20 0.8173
461.30 0.8178
461.40 0.8183
461.50 0.8188
461.60 0.8192
461.70 0.8197
461.80 0.8202
461.90 0.8207
462.00 0.8212
462.10 0.8217
462.20 0.8222
462.30 0.8227
462.40 0.8232
462.50 0.8237
462.60 0.8242
462.70 0.8247
462.80 0.8252
462.90 0.8257
463.00 0.8262
463.10 0.8266
463.20 0.8271
463.30 0.8276
463.40 0.8281
463.50 0.8286
463.60 0.8291
463.70 0.8296
463.80 0.8301
463.90 0.8306
464.00 0.8311
464.10 0.8316
464.20 0.8321
464.30 0.8326
464.40 0.8331
464.50 0.8336
464.60 0.834
464.70 0.8345
464.80 0.835
464.90 0.8355
465.00 0.836
465.10 0.8365
465.20 0.837
465.30 0.8375
465.40 0.838
465.50 0.8385
465.60 0.839
465.70 0.8395
465.80 0.8399
465.90 0.8404
466.00 0.8409
466.10 0.8414
466.20 0.8419
466.30 0.8424
466.40 0.8429
466.50 0.8434
466.60 0.8439
466.70 0.8443
466.80 0.8448
466.90 0.8453
467.00 0.8458
467.10 0.8463
467.20 0.8468
467.30 0.8473
467.40 0.8478
467.50 0.8482
467.60 0.8487
467.70 0.8492
467.80 0.8497
467.90 0.8502
468.00 0.8507
468.10 0.8512
468.20 0.8517
468.30 0.8521
468.40 0.8526
468.50 0.8531
468.60 0.8536
468.70 0.8541
468.80 0.8546
468.90 0.8551
469.00 0.8556
469.10 0.856
469.20 0.8565
469.30 0.857
469.40 0.8575
469.50 0.858
469.60 0.8585
469.70 0.859
469.80 0.8595
469.90 0.8599
470.00 0.8604
470.10 0.8609
470.20 0.8614
470.30 0.8619
470.40 0.8624
470.50 0.8629
470.60 0.8633
470.70 0.8638
470.80 0.8643
470.90 0.8648
471.00 0.8653
471.10 0.8658
471.20 0.8662
471.30 0.8667
471.40 0.8672
471.50 0.8677
471.60 0.8682
471.70 0.8687
471.80 0.8691
471.90 0.8696
472.00 0.8701
472.10 0.8706
472.20 0.8711
472.30 0.8716
472.40 0.872
472.50 0.8725
472.60 0.873
472.70 0.8735
472.80 0.874
472.90 0.8745
473.00 0.8749
473.10 0.8754
473.20 0.8759
473.30 0.8764
473.40 0.8769
473.50 0.8773
473.60 0.8778
473.70 0.8783
473.80 0.8788
473.90 0.8793
474.00 0.8798
474.10 0.8802
474.20 0.8807
474.30 0.8812
474.40 0.8817
474.50 0.8822
474.60 0.8826
474.70 0.8831
474.80 0.8836
474.90 0.8841
475.00 0.8846
475.10 0.885
475.20 0.8855
475.30 0.886
475.40 0.8865
475.50 0.887
475.60 0.8874
475.70 0.8879
475.80 0.8884
475.90 0.8889
476.00 0.8893
476.10 0.8898
476.20 0.8903
476.30 0.8908
476.40 0.8913
476.50 0.8917
476.60 0.8922
476.70 0.8927
476.80 0.8932
476.90 0.8936
477.00 0.8941
477.10 0.8946
477.20 0.8951
477.30 0.8956
477.40 0.896
477.50 0.8965
477.60 0.897
477.70 0.8975
477.80 0.8979
477.90 0.8984
478.00 0.8989
478.10 0.8994
478.20 0.8998
478.30 0.9003
478.40 0.9008
478.50 0.9013
478.60 0.9017
478.70 0.9022
478.80 0.9027
478.90 0.9032
479.00 0.9036
479.10 0.9041
479.20 0.9046
479.30 0.9051
479.40 0.9055
479.50 0.906
479.60 0.9065
479.70 0.9069
479.80 0.9074
479.90 0.9079
480.00 0.9084
480.10 0.9088
480.20 0.9093
480.30 0.9098
480.40 0.9103
480.50 0.9107
480.60 0.9112
480.70 0.9117
480.80 0.9121
480.90 0.9126
481.00 0.9131
481.10 0.9136
481.20 0.914
481.30 0.9145
481.40 0.915
481.50 0.9155
481.60 0.9159
481.70 0.9164
481.80 0.9169
481.90 0.9173
482.00 0.9178
482.10 0.9183
482.20 0.9187
482.30 0.9192
482.40 0.9197
482.50 0.9201
482.60 0.9206
482.70 0.9211
482.80 0.9216
482.90 0.922
483.00 0.9225
483.10 0.923
483.20 0.9234
483.30 0.9239
483.40 0.9244
483.50 0.9248
483.60 0.9253
483.70 0.9258
483.80 0.9262
483.90 0.9267
484.00 0.9272
484.10 0.9276
484.20 0.9281
484.30 0.9286
484.40 0.929
484.50 0.9295
484.60 0.93
484.70 0.9304
484.80 0.9309
484.90 0.9314
485.00 0.9318
485.10 0.9323
485.20 0.9328
485.30 0.9332
485.40 0.9337
485.50 0.9342
485.60 0.9346
485.70 0.9351
485.80 0.9355
485.90 0.936
486.00 0.9364
486.10 0.9369
486.20 0.9374
486.30 0.9379
486.40 0.9383
486.50 0.9388
486.60 0.9393
486.70 0.9397
486.80 0.9402
486.90 0.9406
487.00 0.9411
487.10 0.9416
487.20 0.942
487.30 0.9425
487.40 0.943
487.50 0.9434
487.60 0.9439
487.70 0.9444
487.80 0.9448
487.90 0.9453
488.00 0.9457
488.10 0.9462
488.20 0.9467
488.30 0.9471
488.40 0.9476
488.50 0.9481
488.60 0.9485
488.70 0.949
488.80 0.9494
488.90 0.9499
489.00 0.9504
489.10 0.9508
489.20 0.9513
489.30 0.9517
489.40 0.9522
489.50 0.9527
489.60 0.9531
489.70 0.9536
489.80 0.954
489.90 0.9545
490.00 0.9549
490.10 0.9554
490.20 0.9559
490.30 0.9563
490.40 0.9568
490.50 0.9572
490.60 0.9577
490.70 0.9581
490.80 0.9586
490.90 0.9591
491.00 0.9595
491.10 0.96
491.20 0.9604
491.30 0.9609
491.40 0.9613
491.50 0.9618
491.60 0.9623
491.70 0.9627
491.80 0.9632
491.90 0.9636
492.00 0.9641
492.10 0.9645
492.20 0.965
492.30 0.9654
492.40 0.9659
492.50 0.9663
492.60 0.9668
492.70 0.9673
492.80 0.9677
492.90 0.9682
493.00 0.9686
493.10 0.9691
493.20 0.9695
493.30 0.97
493.40 0.9704
493.50 0.9709
493.60 0.9713
493.70 0.9718
493.80 0.9723
493.90 0.9727
494.00 0.9732
494.10 0.9736
494.20 0.9741
494.30 0.9745
494.40 0.975
494.50 0.9754
494.60 0.9759
494.70 0.9763
494.80 0.9768
494.90 0.9772
495.00 0.9777
495.10 0.9781
495.20 0.9786
495.30 0.979
495.40 0.9795
495.50 0.9799
495.60 0.9804
495.70 0.9808
495.80 0.9813
495.90 0.9817
496.00 0.9822
496.10 0.9826
496.20 0.9831
496.30 0.9835
496.40 0.984
496.50 0.9844
496.60 0.9849
496.70 0.9853
496.80 0.9858
496.90 0.9862
497.00 0.9866
497.10 0.9871
497.20 0.9875
497.30 0.988
497.40 0.9884
497.50 0.9889
497.60 0.9893
497.70 0.9898
497.80 0.9902
497.90 0.9907
498.00 0.9911
498.10 0.9916
498.20 0.992
498.30 0.9925
498.40 0.9929
498.50 0.9933
498.60 0.9938
498.70 0.9942
498.80 0.9947
498.90 0.9951
499.00 0.9956
499.10 0.996
499.20 0.9964
499.30 0.9969
499.40 0.9973
499.50 0.9978
499.60 0.9982
499.70 0.9987
499.80 0.9991
499.90 0.9996
500.00 1
500.10 1
500.20 1.001
500.30 1.001
500.40 1.002
500.50 1.002
500.60 1.003
500.70 1.003
500.80 1.004
500.90 1.004
501.00 1.004
501.10 1.005
501.20 1.005
501.30 1.006
501.40 1.006
501.50 1.007
501.60 1.007
501.70 1.007
501.80 1.008
501.90 1.008
502.00 1.009
502.10 1.009
502.20 1.01
502.30 1.01
502.40 1.011
502.50 1.011
502.60 1.011
502.70 1.012
502.80 1.012
502.90 1.013
503.00 1.013
503.10 1.014
503.20 1.014
503.30 1.014
503.40 1.015
503.50 1.015
503.60 1.016
503.70 1.016
503.80 1.017
503.90 1.017
504.00 1.018
504.10 1.018
504.20 1.018
504.30 1.019
504.40 1.019
504.50 1.02
504.60 1.02
504.70 1.021
504.80 1.021
504.90 1.021
505.00 1.022
505.10 1.022
505.20 1.023
505.30 1.023
505.40 1.024
505.50 1.024
505.60 1.024
505.70 1.025
505.80 1.025
505.90 1.026
506.00 1.026
506.10 1.027
506.20 1.027
506.30 1.028
506.40 1.028
506.50 1.028
506.60 1.029
506.70 1.029
506.80 1.03
506.90 1.03
507.00 1.031
507.10 1.031
507.20 1.031
507.30 1.032
507.40 1.032
507.50 1.033
507.60 1.033
507.70 1.034
507.80 1.034
507.90 1.034
508.00 1.035
508.10 1.035
508.20 1.036
508.30 1.036
508.40 1.037
508.50 1.037
508.60 1.037
508.70 1.038
508.80 1.038
508.90 1.039
509.00 1.039
509.10 1.04
509.20 1.04
509.30 1.04
509.40 1.041
509.50 1.041
509.60 1.042
509.70 1.042
509.80 1.043
509.90 1.043
510.00 1.043
510.10 1.044
510.20 1.044
510.30 1.045
510.40 1.045
510.50 1.045
510.60 1.046
510.70 1.046
510.80 1.047
510.90 1.047
511.00 1.048
511.10 1.048
511.20 1.048
511.30 1.049
511.40 1.049
511.50 1.05
511.60 1.05
511.70 1.051
511.80 1.051
511.90 1.051
512.00 1.052
512.10 1.052
512.20 1.053
512.30 1.053
512.40 1.054
512.50 1.054
512.60 1.054
512.70 1.055
512.80 1.055
512.90 1.056
513.00 1.056
513.10 1.056
513.20 1.057
513.30 1.057
513.40 1.058
513.50 1.058
513.60 1.059
513.70 1.059
513.80 1.059
513.90 1.06
514.00 1.06
514.10 1.061
514.20 1.061
514.30 1.061
514.40 1.062
514.50 1.062
514.60 1.063
514.70 1.063
514.80 1.064
514.90 1.064
515.00 1.064
515.10 1.065
515.20 1.065
515.30 1.066
515.40 1.066
515.50 1.066
515.60 1.067
515.70 1.067
515.80 1.068
515.90 1.068
516.00 1.069
516.10 1.069
516.20 1.069
516.30 1.07
516.40 1.07
516.50 1.071
516.60 1.071
516.70 1.071
516.80 1.072
516.90 1.072
517.00 1.073
517.10 1.073
517.20 1.073
517.30 1.074
517.40 1.074
517.50 1.075
517.60 1.075
517.70 1.076
517.80 1.076
517.90 1.076
518.00 1.077
518.10 1.077
518.20 1.078
518.30 1.078
518.40 1.078
518.50 1.079
518.60 1.079
518.70 1.08
518.80 1.08
518.90 1.08
519.00 1.081
519.10 1.081
519.20 1.082
519.30 1.082
519.40 1.082
519.50 1.083
519.60 1.083
519.70 1.084
519.80 1.084
519.90 1.085
520.00 1.085
520.10 1.085
520.20 1.086
520.30 1.086
520.40 1.087
520.50 1.087
520.60 1.087
520.70 1.088
520.80 1.088
520.90 1.089
521.00 1.089
521.10 1.089
521.20 1.09
521.30 1.09
521.40 1.091
521.50 1.091
521.60 1.091
521.70 1.092
521.80 1.092
521.90 1.093
522.00 1.093
522.10 1.093
522.20 1.094
522.30 1.094
522.40 1.095
522.50 1.095
522.60 1.095
522.70 1.096
522.80 1.096
522.90 1.097
523.00 1.097
523.10 1.097
523.20 1.098
523.30 1.098
523.40 1.099
523.50 1.099
523.60 1.099
523.70 1.1
523.80 1.1
523.90 1.101
524.00 1.101
524.10 1.101
524.20 1.102
524.30 1.102
524.40 1.103
524.50 1.103
524.60 1.103
524.70 1.104
524.80 1.104
524.90 1.105
525.00 1.105
525.10 1.105
525.20 1.106
525.30 1.106
525.40 1.107
525.50 1.107
525.60 1.107
525.70 1.108
525.80 1.108
525.90 1.109
526.00 1.109
526.10 1.109
526.20 1.11
526.30 1.11
526.40 1.111
526.50 1.111
526.60 1.111
526.70 1.112
526.80 1.112
526.90 1.113
527.00 1.113
527.10 1.113
527.20 1.114
527.30 1.114
527.40 1.114
527.50 1.115
527.60 1.115
527.70 1.116
527.80 1.116
527.90 1.116
528.00 1.117
528.10 1.117
528.20 1.118
528.30 1.118
528.40 1.118
528.50 1.119
528.60 1.119
528.70 1.12
528.80 1.12
528.90 1.12
529.00 1.121
529.10 1.121
529.20 1.122
529.30 1.122
529.40 1.122
529.50 1.123
529.60 1.123
529.70 1.123
529.80 1.124
529.90 1.124
530.00 1.125
530.10 1.125
530.20 1.125
530.30 1.126
530.40 1.126
530.50 1.127
530.60 1.127
530.70 1.127
530.80 1.128
530.90 1.128
531.00 1.128
531.10 1.129
531.20 1.129
531.30 1.13
531.40 1.13
531.50 1.13
531.60 1.131
531.70 1.131
531.80 1.132
531.90 1.132
532.00 1.132
532.10 1.133
532.20 1.133
532.30 1.133
532.40 1.134
532.50 1.134
532.60 1.135
532.70 1.135
532.80 1.135
532.90 1.136
533.00 1.136
533.10 1.137
533.20 1.137
533.30 1.137
533.40 1.138
533.50 1.138
533.60 1.138
533.70 1.139
533.80 1.139
533.90 1.14
534.00 1.14
534.10 1.14
534.20 1.141
534.30 1.141
534.40 1.141
534.50 1.142
534.60 1.142
534.70 1.143
534.80 1.143
534.90 1.143
535.00 1.144
535.10 1.144
535.20 1.144
535.30 1.145
535.40 1.145
535.50 1.146
535.60 1.146
535.70 1.146
535.80 1.147
535.90 1.147
536.00 1.147
536.10 1.148
536.20 1.148
536.30 1.149
536.40 1.149
536.50 1.149
536.60 1.15
536.70 1.15
536.80 1.15
536.90 1.151
537.00 1.151
537.10 1.152
537.20 1.152
537.30 1.152
537.40 1.153
537.50 1.153
537.60 1.153
537.70 1.154
537.80 1.154
537.90 1.155
538.00 1.155
538.10 1.155
538.20 1.156
538.30 1.156
538.40 1.156
538.50 1.157
538.60 1.157
538.70 1.158
538.80 1.158
538.90 1.158
539.00 1.159
539.10 1.159
539.20 1.159
539.30 1.16
539.40 1.16
539.50 1.16
539.60 1.161
539.70 1.161
539.80 1.162
539.90 1.162
540.00 1.162
540.10 1.163
540.20 1.163
540.30 1.163
540.40 1.164
540.50 1.164
540.60 1.164
540.70 1.165
540.80 1.165
540.90 1.166
541.00 1.166
541.10 1.166
541.20 1.167
541.30 1.167
541.40 1.167
541.50 1.168
541.60 1.168
541.70 1.168
541.80 1.169
541.90 1.169
542.00 1.17
542.10 1.17
542.20 1.17
542.30 1.171
542.40 1.171
542.50 1.171
542.60 1.172
542.70 1.172
542.80 1.172
542.90 1.173
543.00 1.173
543.10 1.174
543.20 1.174
543.30 1.174
543.40 1.175
543.50 1.175
543.60 1.175
543.70 1.176
543.80 1.176
543.90 1.176
544.00 1.177
544.10 1.177
544.20 1.178
544.30 1.178
544.40 1.178
544.50 1.179
544.60 1.179
544.70 1.179
544.80 1.18
544.90 1.18
545.00 1.18
545.10 1.181
545.20 1.181
545.30 1.181
545.40 1.182
545.50 1.182
545.60 1.183
545.70 1.183
545.80 1.183
545.90 1.184
546.00 1.184
546.10 1.184
546.20 1.185
546.30 1.185
546.40 1.185
546.50 1.186
546.60 1.186
546.70 1.186
546.80 1.187
546.90 1.187
547.00 1.187
547.10 1.188
547.20 1.188
547.30 1.189
547.40 1.189
547.50 1.189
547.60 1.19
547.70 1.19
547.80 1.19
547.90 1.191
548.00 1.191
548.10 1.191
548.20 1.192
548.30 1.192
548.40 1.192
548.50 1.193
548.60 1.193
548.70 1.193
548.80 1.194
548.90 1.194
549.00 1.194
549.10 1.195
549.20 1.195
549.30 1.196
549.40 1.196
549.50 1.196
549.60 1.197
549.70 1.197
549.80 1.197
549.90 1.198
550.00 1.198
550.10 1.198
550.20 1.199
550.30 1.199
550.40 1.199
550.50 1.2
550.60 1.2
550.70 1.2
550.80 1.201
550.90 1.201
551.00 1.201
551.10 1.202
551.20 1.202
551.30 1.202
551.40 1.203
551.50 1.203
551.60 1.203
551.70 1.204
551.80 1.204
551.90 1.204
552.00 1.205
552.10 1.205
552.20 1.205
552.30 1.206
552.40 1.206
552.50 1.207
552.60 1.207
552.70 1.207
552.80 1.208
552.90 1.208
553.00 1.208
553.10 1.209
553.20 1.209
553.30 1.209
553.40 1.21
553.50 1.21
553.60 1.21
553.70 1.211
553.80 1.211
553.90 1.211
554.00 1.212
554.10 1.212
554.20 1.212
554.30 1.213
554.40 1.213
554.50 1.213
554.60 1.214
554.70 1.214
554.80 1.214
554.90 1.215
555.00 1.215
555.10 1.215
555.20 1.216
555.30 1.216
555.40 1.216
555.50 1.217
555.60 1.217
555.70 1.217
555.80 1.218
555.90 1.218
556.00 1.218
556.10 1.219
556.20 1.219
556.30 1.219
556.40 1.22
556.50 1.22
556.60 1.22
556.70 1.221
556.80 1.221
556.90 1.221
557.00 1.222
557.10 1.222
557.20 1.222
557.30 1.223
557.40 1.223
557.50 1.223
557.60 1.224
557.70 1.224
557.80 1.224
557.90 1.225
558.00 1.225
558.10 1.225
558.20 1.226
558.30 1.226
558.40 1.226
558.50 1.227
558.60 1.227
558.70 1.227
558.80 1.228
558.90 1.228
559.00 1.228
559.10 1.229
559.20 1.229
559.30 1.229
559.40 1.23
559.50 1.23
559.60 1.23
559.70 1.231
559.80 1.231
559.90 1.231
560.00 1.231
560.10 1.232
560.20 1.232
560.30 1.232
560.40 1.233
560.50 1.233
560.60 1.233
560.70 1.234
560.80 1.234
560.90 1.234
561.00 1.235
561.10 1.235
561.20 1.235
561.30 1.236
561.40 1.236
561.50 1.236
561.60 1.237
561.70 1.237
561.80 1.237
561.90 1.238
562.00 1.238
562.10 1.238
562.20 1.239
562.30 1.239
562.40 1.239
562.50 1.24
562.60 1.24
562.70 1.24
562.80 1.241
562.90 1.241
563.00 1.241
563.10 1.241
563.20 1.242
563.30 1.242
563.40 1.242
563.50 1.243
563.60 1.243
563.70 1.243
563.80 1.244
563.90 1.244
564.00 1.244
564.10 1.245
564.20 1.245
564.30 1.245
564.40 1.246
564.50 1.246
564.60 1.246
564.70 1.247
564.80 1.247
564.90 1.247
565.00 1.247
565.10 1.248
565.20 1.248
565.30 1.248
565.40 1.249
565.50 1.249
565.60 1.249
565.70 1.25
565.80 1.25
565.90 1.25
566.00 1.251
566.10 1.251
566.20 1.251
566.30 1.252
566.40 1.252
566.50 1.252
566.60 1.252
566.70 1.253
566.80 1.253
566.90 1.253
567.00 1.254
567.10 1.254
567.20 1.254
567.30 1.255
567.40 1.255
567.50 1.255
567.60 1.256
567.70 1.256
567.80 1.256
567.90 1.257
568.00 1.257
568.10 1.257
568.20 1.257
568.30 1.258
568.40 1.258
568.50 1.258
568.60 1.259
568.70 1.259
568.80 1.259
568.90 1.26
569.00 1.26
569.10 1.26
569.20 1.261
569.30 1.261
569.40 1.261
569.50 1.261
569.60 1.262
569.70 1.262
569.80 1.262
569.90 1.263
570.00 1.263
570.10 1.263
570.20 1.264
570.30 1.264
570.40 1.264
570.50 1.264
570.60 1.265
570.70 1.265
570.80 1.265
570.90 1.266
571.00 1.266
571.10 1.266
571.20 1.267
571.30 1.267
571.40 1.267
571.50 1.267
571.60 1.268
571.70 1.268
571.80 1.268
571.90 1.269
572.00 1.269
572.10 1.269
572.20 1.27
572.30 1.27
572.40 1.27
572.50 1.27
572.60 1.271
572.70 1.271
572.80 1.271
572.90 1.272
573.00 1.272
573.10 1.272
573.20 1.273
573.30 1.273
573.40 1.273
573.50 1.273
573.60 1.274
573.70 1.274
573.80 1.274
573.90 1.275
574.00 1.275
574.10 1.275
574.20 1.275
574.30 1.276
574.40 1.276
574.50 1.276
574.60 1.277
574.70 1.277
574.80 1.277
574.90 1.278
575.00 1.278
575.10 1.278
575.20 1.278
575.30 1.279
575.40 1.279
575.50 1.279
575.60 1.28
575.70 1.28
575.80 1.28
575.90 1.28
576.00 1.281
576.10 1.281
576.20 1.281
576.30 1.282
576.40 1.282
576.50 1.282
576.60 1.283
576.70 1.283
576.80 1.283
576.90 1.283
577.00 1.284
577.10 1.284
577.20 1.284
577.30 1.285
577.40 1.285
577.50 1.285
577.60 1.285
577.70 1.286
577.80 1.286
577.90 1.286
578.00 1.287
578.10 1.287
578.20 1.287
578.30 1.287
578.40 1.288
578.50 1.288
578.60 1.288
578.70 1.289
578.80 1.289
578.90 1.289
579.00 1.289
579.10 1.29
579.20 1.29
579.30 1.29
579.40 1.291
579.50 1.291
579.60 1.291
579.70 1.291
579.80 1.292
579.90 1.292
580.00 1.292
580.10 1.293
580.20 1.293
580.30 1.293
580.40 1.293
580.50 1.294
580.60 1.294
580.70 1.294
580.80 1.294
580.90 1.295
581.00 1.295
581.10 1.295
581.20 1.296
581.30 1.296
581.40 1.296
581.50 1.296
581.60 1.297
581.70 1.297
581.80 1.297
581.90 1.298
582.00 1.298
582.10 1.298
582.20 1.298
582.30 1.299
582.40 1.299
582.50 1.299
582.60 1.3
582.70 1.3
582.80 1.3
582.90 1.3
583.00 1.301
583.10 1.301
583.20 1.301
583.30 1.301
583.40 1.302
583.50 1.302
583.60 1.302
583.70 1.303
583.80 1.303
583.90 1.303
584.00 1.303
584.10 1.304
584.20 1.304
584.30 1.304
584.40 1.304
584.50 1.305
584.60 1.305
584.70 1.305
584.80 1.306
584.90 1.306
585.00 1.306
585.10 1.306
585.20 1.307
585.30 1.307
585.40 1.307
585.50 1.307
585.60 1.308
585.70 1.308
585.80 1.308
585.90 1.309
586.00 1.309
586.10 1.309
586.20 1.309
586.30 1.31
586.40 1.31
586.50 1.31
586.60 1.31
586.70 1.311
586.80 1.311
586.90 1.311
587.00 1.311
587.10 1.312
587.20 1.312
587.30 1.312
587.40 1.313
587.50 1.313
587.60 1.313
587.70 1.313
587.80 1.314
587.90 1.314
588.00 1.314
588.10 1.314
588.20 1.315
588.30 1.315
588.40 1.315
588.50 1.315
588.60 1.316
588.70 1.316
588.80 1.316
588.90 1.317
589.00 1.317
589.10 1.317
589.20 1.317
589.30 1.318
589.40 1.318
589.50 1.318
589.60 1.318
589.70 1.319
589.80 1.319
589.90 1.319
590.00 1.319
590.10 1.32
590.20 1.32
590.30 1.32
590.40 1.32
590.50 1.321
590.60 1.321
590.70 1.321
590.80 1.321
590.90 1.322
591.00 1.322
591.10 1.322
591.20 1.323
591.30 1.323
591.40 1.323
591.50 1.323
591.60 1.324
591.70 1.324
591.80 1.324
591.90 1.324
592.00 1.325
592.10 1.325
592.20 1.325
592.30 1.325
592.40 1.326
592.50 1.326
592.60 1.326
592.70 1.326
592.80 1.327
592.90 1.327
593.00 1.327
593.10 1.327
593.20 1.328
593.30 1.328
593.40 1.328
593.50 1.328
593.60 1.329
593.70 1.329
593.80 1.329
593.90 1.329
594.00 1.33
594.10 1.33
594.20 1.33
594.30 1.33
594.40 1.331
594.50 1.331
594.60 1.331
594.70 1.331
594.80 1.332
594.90 1.332
595.00 1.332
595.10 1.332
595.20 1.333
595.30 1.333
595.40 1.333
595.50 1.333
595.60 1.334
595.70 1.334
595.80 1.334
595.90 1.334
596.00 1.335
596.10 1.335
596.20 1.335
596.30 1.335
596.40 1.336
596.50 1.336
596.60 1.336
596.70 1.336
596.80 1.337
596.90 1.337
597.00 1.337
597.10 1.337
597.20 1.338
597.30 1.338
597.40 1.338
597.50 1.338
597.60 1.339
597.70 1.339
597.80 1.339
597.90 1.339
598.00 1.34
598.10 1.34
598.20 1.34
598.30 1.34
598.40 1.341
598.50 1.341
598.60 1.341
598.70 1.341
598.80 1.342
598.90 1.342
599.00 1.342
599.10 1.342
599.20 1.343
599.30 1.343
599.40 1.343
599.50 1.343
599.60 1.343
599.70 1.344
599.80 1.344
599.90 1.344
600.00 1.344
600.10 1.345
600.20 1.345
600.30 1.345
600.40 1.345
600.50 1.346
600.60 1.346
600.70 1.346
600.80 1.346
600.90 1.347
601.00 1.347
601.10 1.347
601.20 1.347
601.30 1.348
601.40 1.348
601.50 1.348
601.60 1.348
601.70 1.348
601.80 1.349
601.90 1.349
602.00 1.349
602.10 1.349
602.20 1.35
602.30 1.35
602.40 1.35
602.50 1.35
602.60 1.351
602.70 1.351
602.80 1.351
602.90 1.351
603.00 1.352
603.10 1.352
603.20 1.352
603.30 1.352
603.40 1.352
603.50 1.353
603.60 1.353
603.70 1.353
603.80 1.353
603.90 1.354
604.00 1.354
604.10 1.354
604.20 1.354
604.30 1.355
604.40 1.355
604.50 1.355
604.60 1.355
604.70 1.355
604.80 1.356
604.90 1.356
605.00 1.356
605.10 1.356
605.20 1.357
605.30 1.357
605.40 1.357
605.50 1.357
605.60 1.358
605.70 1.358
605.80 1.358
605.90 1.358
606.00 1.358
606.10 1.359
606.20 1.359
606.30 1.359
606.40 1.359
606.50 1.36
606.60 1.36
606.70 1.36
606.80 1.36
606.90 1.36
607.00 1.361
607.10 1.361
607.20 1.361
607.30 1.361
607.40 1.362
607.50 1.362
607.60 1.362
607.70 1.362
607.80 1.362
607.90 1.363
608.00 1.363
608.10 1.363
608.20 1.363
608.30 1.364
608.40 1.364
608.50 1.364
608.60 1.364
608.70 1.364
608.80 1.365
608.90 1.365
609.00 1.365
609.10 1.365
609.20 1.366
609.30 1.366
609.40 1.366
609.50 1.366
609.60 1.366
609.70 1.367
609.80 1.367
609.90 1.367
610.00 1.367
610.10 1.368
610.20 1.368
610.30 1.368
610.40 1.368
610.50 1.368
610.60 1.369
610.70 1.369
610.80 1.369
610.90 1.369
611.00 1.37
611.10 1.37
611.20 1.37
611.30 1.37
611.40 1.37
611.50 1.371
611.60 1.371
611.70 1.371
611.80 1.371
611.90 1.371
612.00 1.372
612.10 1.372
612.20 1.372
612.30 1.372
612.40 1.373
612.50 1.373
612.60 1.373
612.70 1.373
612.80 1.373
612.90 1.374
613.00 1.374
613.10 1.374
613.20 1.374
613.30 1.374
613.40 1.375
613.50 1.375
613.60 1.375
613.70 1.375
613.80 1.375
613.90 1.376
614.00 1.376
614.10 1.376
614.20 1.376
614.30 1.377
614.40 1.377
614.50 1.377
614.60 1.377
614.70 1.377
614.80 1.378
614.90 1.378
615.00 1.378
615.10 1.378
615.20 1.378
615.30 1.379
615.40 1.379
615.50 1.379
615.60 1.379
615.70 1.379
615.80 1.38
615.90 1.38
616.00 1.38
616.10 1.38
616.20 1.38
616.30 1.381
616.40 1.381
616.50 1.381
616.60 1.381
616.70 1.382
616.80 1.382
616.90 1.382
617.00 1.382
617.10 1.382
617.20 1.383
617.30 1.383
617.40 1.383
617.50 1.383
617.60 1.383
617.70 1.384
617.80 1.384
617.90 1.384
618.00 1.384
618.10 1.384
618.20 1.385
618.30 1.385
618.40 1.385
618.50 1.385
618.60 1.385
618.70 1.386
618.80 1.386
618.90 1.386
619.00 1.386
619.10 1.386
619.20 1.387
619.30 1.387
619.40 1.387
619.50 1.387
619.60 1.387
619.70 1.388
619.80 1.388
619.90 1.388
620.00 1.388
620.10 1.388
620.20 1.389
620.30 1.389
620.40 1.389
620.50 1.389
620.60 1.389
620.70 1.39
620.80 1.39
620.90 1.39
621.00 1.39
621.10 1.39
621.20 1.39
621.30 1.391
621.40 1.391
621.50 1.391
621.60 1.391
621.70 1.391
621.80 1.392
621.90 1.392
622.00 1.392
622.10 1.392
622.20 1.392
622.30 1.393
622.40 1.393
622.50 1.393
622.60 1.393
622.70 1.393
622.80 1.394
622.90 1.394
623.00 1.394
623.10 1.394
623.20 1.394
623.30 1.395
623.40 1.395
623.50 1.395
623.60 1.395
623.70 1.395
623.80 1.396
623.90 1.396
624.00 1.396
624.10 1.396
624.20 1.396
624.30 1.396
624.40 1.397
624.50 1.397
624.60 1.397
624.70 1.397
624.80 1.397
624.90 1.398
625.00 1.398
625.10 1.398
625.20 1.398
625.30 1.398
625.40 1.399
625.50 1.399
625.60 1.399
625.70 1.399
625.80 1.399
625.90 1.399
626.00 1.4
626.10 1.4
626.20 1.4
626.30 1.4
626.40 1.4
626.50 1.401
626.60 1.401
626.70 1.401
626.80 1.401
626.90 1.401
627.00 1.401
627.10 1.402
627.20 1.402
627.30 1.402
627.40 1.402
627.50 1.402
627.60 1.403
627.70 1.403
627.80 1.403
627.90 1.403
628.00 1.403
628.10 1.403
628.20 1.404
628.30 1.404
628.40 1.404
628.50 1.404
628.60 1.404
628.70 1.405
628.80 1.405
628.90 1.405
629.00 1.405
629.10 1.405
629.20 1.405
629.30 1.406
629.40 1.406
629.50 1.406
629.60 1.406
629.70 1.406
629.80 1.407
629.90 1.407
630.00 1.407
630.10 1.407
630.20 1.407
630.30 1.407
630.40 1.408
630.50 1.408
630.60 1.408
630.70 1.408
630.80 1.408
630.90 1.408
631.00 1.409
631.10 1.409
631.20 1.409
631.30 1.409
631.40 1.409
631.50 1.41
631.60 1.41
631.70 1.41
631.80 1.41
631.90 1.41
632.00 1.41
632.10 1.411
632.20 1.411
632.30 1.411
632.40 1.411
632.50 1.411
632.60 1.411
632.70 1.412
632.80 1.412
632.90 1.412
633.00 1.412
633.10 1.412
633.20 1.412
633.30 1.413
633.40 1.413
633.50 1.413
633.60 1.413
633.70 1.413
633.80 1.413
633.90 1.414
634.00 1.414
634.10 1.414
634.20 1.414
634.30 1.414
634.40 1.414
634.50 1.415
634.60 1.415
634.70 1.415
634.80 1.415
634.90 1.415
635.00 1.416
635.10 1.416
635.20 1.416
635.30 1.416
635.40 1.416
635.50 1.416
635.60 1.416
635.70 1.417
635.80 1.417
635.90 1.417
636.00 1.417
636.10 1.417
636.20 1.417
636.30 1.418
636.40 1.418
636.50 1.418
636.60 1.418
636.70 1.418
636.80 1.418
636.90 1.419
637.00 1.419
637.10 1.419
637.20 1.419
637.30 1.419
637.40 1.419
637.50 1.42
637.60 1.42
637.70 1.42
637.80 1.42
637.90 1.42
638.00 1.42
638.10 1.42
638.20 1.421
638.30 1.421
638.40 1.421
638.50 1.421
638.60 1.421
638.70 1.421
638.80 1.422
638.90 1.422
639.00 1.422
639.10 1.422
639.20 1.422
639.30 1.422
639.40 1.423
639.50 1.423
639.60 1.423
639.70 1.423
639.80 1.423
639.90 1.423
640.00 1.424
640.10 1.424
640.20 1.424
640.30 1.424
640.40 1.424
640.50 1.424
640.60 1.424
640.70 1.425
640.80 1.425
640.90 1.425
641.00 1.425
641.10 1.425
641.20 1.425
641.30 1.426
641.40 1.426
641.50 1.426
641.60 1.426
641.70 1.426
641.80 1.426
641.90 1.426
642.00 1.427
642.10 1.427
642.20 1.427
642.30 1.427
642.40 1.427
642.50 1.427
642.60 1.427
642.70 1.428
642.80 1.428
642.90 1.428
643.00 1.428
643.10 1.428
643.20 1.428
643.30 1.429
643.40 1.429
643.50 1.429
643.60 1.429
643.70 1.429
643.80 1.429
643.90 1.429
644.00 1.43
644.10 1.43
644.20 1.43
644.30 1.43
644.40 1.43
644.50 1.43
644.60 1.431
644.70 1.431
644.80 1.431
644.90 1.431
645.00 1.431
645.10 1.431
645.20 1.431
645.30 1.431
645.40 1.432
645.50 1.432
645.60 1.432
645.70 1.432
645.80 1.432
645.90 1.432
646.00 1.433
646.10 1.433
646.20 1.433
646.30 1.433
646.40 1.433
646.50 1.433
646.60 1.433
646.70 1.434
646.80 1.434
646.90 1.434
647.00 1.434
647.10 1.434
647.20 1.434
647.30 1.434
647.40 1.434
647.50 1.435
647.60 1.435
647.70 1.435
647.80 1.435
647.90 1.435
648.00 1.435
648.10 1.436
648.20 1.436
648.30 1.436
648.40 1.436
648.50 1.436
648.60 1.436
648.70 1.436
648.80 1.436
648.90 1.437
649.00 1.437
649.10 1.437
649.20 1.437
649.30 1.437
649.40 1.437
649.50 1.437
649.60 1.438
649.70 1.438
649.80 1.438
649.90 1.438
650.00 1.438
650.10 1.438
650.20 1.438
650.30 1.439
650.40 1.439
650.50 1.439
650.60 1.439
650.70 1.439
650.80 1.439
650.90 1.439
651.00 1.439
651.10 1.44
651.20 1.44
651.30 1.44
651.40 1.44
651.50 1.44
651.60 1.44
651.70 1.44
651.80 1.44
651.90 1.441
652.00 1.441
652.10 1.441
652.20 1.441
652.30 1.441
652.40 1.441
652.50 1.441
652.60 1.442
652.70 1.442
652.80 1.442
652.90 1.442
653.00 1.442
653.10 1.442
653.20 1.442
653.30 1.443
653.40 1.443
653.50 1.443
653.60 1.443
653.70 1.443
653.80 1.443
653.90 1.443
654.00 1.443
654.10 1.443
654.20 1.444
654.30 1.444
654.40 1.444
654.50 1.444
654.60 1.444
654.70 1.444
654.80 1.444
654.90 1.444
655.00 1.445
655.10 1.445
655.20 1.445
655.30 1.445
655.40 1.445
655.50 1.445
655.60 1.445
655.70 1.445
655.80 1.446
655.90 1.446
656.00 1.446
656.10 1.446
656.20 1.446
656.30 1.446
656.40 1.446
656.50 1.446
656.60 1.446
656.70 1.447
656.80 1.447
656.90 1.447
657.00 1.447
657.10 1.447
657.20 1.447
657.30 1.447
657.40 1.448
657.50 1.448
657.60 1.448
657.70 1.448
657.80 1.448
657.90 1.448
658.00 1.448
658.10 1.448
658.20 1.448
658.30 1.449
658.40 1.449
658.50 1.449
658.60 1.449
658.70 1.449
658.80 1.449
658.90 1.449
659.00 1.449
659.10 1.45
659.20 1.45
659.30 1.45
659.40 1.45
659.50 1.45
659.60 1.45
659.70 1.45
659.80 1.45
659.90 1.45
660.00 1.451
660.10 1.451
660.20 1.451
660.30 1.451
660.40 1.451
660.50 1.451
660.60 1.451
660.70 1.451
660.80 1.452
660.90 1.452
661.00 1.452
661.10 1.452
661.20 1.452
661.30 1.452
661.40 1.452
661.50 1.452
661.60 1.452
661.70 1.453
661.80 1.453
661.90 1.453
662.00 1.453
662.10 1.453
662.20 1.453
662.30 1.453
662.40 1.453
662.50 1.453
662.60 1.454
662.70 1.454
662.80 1.454
662.90 1.454
663.00 1.454
663.10 1.454
663.20 1.454
663.30 1.454
663.40 1.454
663.50 1.455
663.60 1.455
663.70 1.455
663.80 1.455
663.90 1.455
664.00 1.455
664.10 1.455
664.20 1.455
664.30 1.455
664.40 1.455
664.50 1.456
664.60 1.456
664.70 1.456
664.80 1.456
664.90 1.456
665.00 1.456
665.10 1.456
665.20 1.456
665.30 1.456
665.40 1.457
665.50 1.457
665.60 1.457
665.70 1.457
665.80 1.457
665.90 1.457
666.00 1.457
666.10 1.457
666.20 1.457
666.30 1.457
666.40 1.457
666.50 1.458
666.60 1.458
666.70 1.458
666.80 1.458
666.90 1.458
667.00 1.458
667.10 1.458
667.20 1.458
667.30 1.458
667.40 1.459
667.50 1.459
667.60 1.459
667.70 1.459
667.80 1.459
667.90 1.459
668.00 1.459
668.10 1.459
668.20 1.459
668.30 1.459
668.40 1.459
668.50 1.46
668.60 1.46
668.70 1.46
668.80 1.46
668.90 1.46
669.00 1.46
669.10 1.46
669.20 1.46
669.30 1.46
669.40 1.461
669.50 1.461
669.60 1.461
669.70 1.461
669.80 1.461
669.90 1.461
670.00 1.461
670.10 1.461
670.20 1.461
670.30 1.461
670.40 1.461
670.50 1.462
670.60 1.462
670.70 1.462
670.80 1.462
670.90 1.462
671.00 1.462
671.10 1.462
671.20 1.462
671.30 1.462
671.40 1.462
671.50 1.462
671.60 1.463
671.70 1.463
671.80 1.463
671.90 1.463
672.00 1.463
672.10 1.463
672.20 1.463
672.30 1.463
672.40 1.463
672.50 1.463
672.60 1.463
672.70 1.463
672.80 1.464
672.90 1.464
673.00 1.464
673.10 1.464
673.20 1.464
673.30 1.464
673.40 1.464
673.50 1.464
673.60 1.464
673.70 1.464
673.80 1.464
673.90 1.465
674.00 1.465
674.10 1.465
674.20 1.465
674.30 1.465
674.40 1.465
674.50 1.465
674.60 1.465
674.70 1.465
674.80 1.465
674.90 1.465
675.00 1.465
675.10 1.466
675.20 1.466
675.30 1.466
675.40 1.466
675.50 1.466
675.60 1.466
675.70 1.466
675.80 1.466
675.90 1.466
676.00 1.466
676.10 1.466
676.20 1.466
676.30 1.466
676.40 1.467
676.50 1.467
676.60 1.467
676.70 1.467
676.80 1.467
676.90 1.467
677.00 1.467
677.10 1.467
677.20 1.467
677.30 1.467
677.40 1.467
677.50 1.467
677.60 1.467
677.70 1.468
677.80 1.468
677.90 1.468
678.00 1.468
678.10 1.468
678.20 1.468
678.30 1.468
678.40 1.468
678.50 1.468
678.60 1.468
678.70 1.468
678.80 1.468
678.90 1.468
679.00 1.469
679.10 1.469
679.20 1.469
679.30 1.469
679.40 1.469
679.50 1.469
679.60 1.469
679.70 1.469
679.80 1.469
679.90 1.469
680.00 1.469
680.10 1.469
680.20 1.469
680.30 1.469
680.40 1.47
680.50 1.47
680.60 1.47
680.70 1.47
680.80 1.47
680.90 1.47
681.00 1.47
681.10 1.47
681.20 1.47
681.30 1.47
681.40 1.47
681.50 1.47
681.60 1.47
681.70 1.47
681.80 1.47
681.90 1.471
682.00 1.471
682.10 1.471
682.20 1.471
682.30 1.471
682.40 1.471
682.50 1.471
682.60 1.471
682.70 1.471
682.80 1.471
682.90 1.471
683.00 1.471
683.10 1.471
683.20 1.471
683.30 1.471
683.40 1.472
683.50 1.472
683.60 1.472
683.70 1.472
683.80 1.472
683.90 1.472
684.00 1.472
684.10 1.472
684.20 1.472
684.30 1.472
684.40 1.472
684.50 1.472
684.60 1.472
684.70 1.472
684.80 1.472
684.90 1.472
685.00 1.473
685.10 1.473
685.20 1.473
685.30 1.473
685.40 1.473
685.50 1.473
685.60 1.473
685.70 1.473
685.80 1.473
685.90 1.473
686.00 1.473
686.10 1.473
686.20 1.473
686.30 1.473
686.40 1.473
686.50 1.473
686.60 1.474
686.70 1.474
686.80 1.474
686.90 1.474
687.00 1.474
687.10 1.474
687.20 1.474
687.30 1.474
687.40 1.474
687.50 1.474
687.60 1.474
687.70 1.474
687.80 1.474
687.90 1.474
688.00 1.474
688.10 1.474
688.20 1.474
688.30 1.474
688.40 1.474
688.50 1.474
688.60 1.475
688.70 1.475
688.80 1.475
688.90 1.475
689.00 1.475
689.10 1.475
689.20 1.475
689.30 1.475
689.40 1.475
689.50 1.475
689.60 1.475
689.70 1.475
689.80 1.475
689.90 1.475
690.00 1.475
690.10 1.475
690.20 1.475
690.30 1.475
690.40 1.475
690.50 1.475
690.60 1.475
690.70 1.476
690.80 1.476
690.90 1.476
691.00 1.476
691.10 1.476
691.20 1.476
691.30 1.476
691.40 1.476
691.50 1.476
691.60 1.476
691.70 1.476
691.80 1.476
691.90 1.476
692.00 1.476
692.10 1.476
692.20 1.476
692.30 1.476
692.40 1.476
692.50 1.476
692.60 1.476
692.70 1.476
692.80 1.476
692.90 1.476
693.00 1.476
693.10 1.477
693.20 1.477
693.30 1.477
693.40 1.477
693.50 1.477
693.60 1.477
693.70 1.477
693.80 1.477
693.90 1.477
694.00 1.477
694.10 1.477
694.20 1.477
694.30 1.477
694.40 1.477
694.50 1.477
694.60 1.477
694.70 1.477
694.80 1.477
694.90 1.477
695.00 1.477
695.10 1.477
695.20 1.477
695.30 1.477
695.40 1.477
695.50 1.477
695.60 1.477
695.70 1.477
695.80 1.477
695.90 1.478
696.00 1.478
696.10 1.478
696.20 1.478
696.30 1.478
696.40 1.478
696.50 1.478
696.60 1.478
696.70 1.478
696.80 1.478
696.90 1.478
697.00 1.478
697.10 1.478
697.20 1.478
697.30 1.478
697.40 1.478
697.50 1.478
697.60 1.478
697.70 1.478
697.80 1.478
697.90 1.478
698.00 1.478
698.10 1.478
698.20 1.478
698.30 1.478
698.40 1.478
698.50 1.478
698.60 1.478
698.70 1.478
698.80 1.478
698.90 1.478
699.00 1.478
699.10 1.478
699.20 1.478
699.30 1.479
699.40 1.479
699.50 1.479
699.60 1.479
699.70 1.479
699.80 1.479
699.90 1.479
700.00 1.479
700.10 1.479
700.20 1.479
700.30 1.479
700.40 1.479
700.50 1.479
700.60 1.479
700.70 1.479
700.80 1.479
700.90 1.479
701.00 1.479
701.10 1.479
701.20 1.479
701.30 1.479
701.40 1.479
701.50 1.479
701.60 1.479
701.70 1.479
701.80 1.479
701.90 1.479
702.00 1.479
702.10 1.479
702.20 1.479
702.30 1.479
702.40 1.479
702.50 1.479
702.60 1.479
702.70 1.479
702.80 1.479
702.90 1.479
703.00 1.479
703.10 1.479
703.20 1.479
703.30 1.479
703.40 1.479
703.50 1.479
703.60 1.479
703.70 1.479
703.80 1.479
703.90 1.479
704.00 1.479
704.10 1.479
704.20 1.479
704.30 1.479
704.40 1.479
704.50 1.479
704.60 1.479
704.70 1.479
704.80 1.479
704.90 1.479
705.00 1.479
705.10 1.479
705.20 1.479
705.30 1.479
705.40 1.479
705.50 1.479
705.60 1.479
705.70 1.479
705.80 1.479
705.90 1.479
706.00 1.479
706.10 1.479
706.20 1.48
706.30 1.48
706.40 1.48
706.50 1.48
706.60 1.48
706.70 1.48
706.80 1.48
706.90 1.48
707.00 1.48
707.10 1.48
707.20 1.48
707.30 1.48
707.40 1.48
707.50 1.48
707.60 1.48
707.70 1.48
707.80 1.48
707.90 1.48
708.00 1.48
708.10 1.48
708.20 1.48
708.30 1.48
708.40 1.48
708.50 1.48
708.60 1.48
708.70 1.48
708.80 1.48
708.90 1.48
709.00 1.48
709.10 1.48
709.20 1.48
709.30 1.48
709.40 1.48
709.50 1.48
709.60 1.48
709.70 1.48
709.80 1.48
709.90 1.48
710.00 1.48
710.10 1.48
710.20 1.48
710.30 1.48
710.40 1.48
710.50 1.48
710.60 1.48
710.70 1.48
710.80 1.48
710.90 1.48
711.00 1.48
711.10 1.48
711.20 1.48
711.30 1.48
711.40 1.479
711.50 1.479
711.60 1.479
711.70 1.479
711.80 1.479
711.90 1.479
712.00 1.479
712.10 1.479
712.20 1.479
712.30 1.479
712.40 1.479
712.50 1.479
712.60 1.479
712.70 1.479
712.80 1.479
712.90 1.479
713.00 1.479
713.10 1.479
713.20 1.479
713.30 1.479
713.40 1.479
713.50 1.479
713.60 1.479
713.70 1.479
713.80 1.479
713.90 1.479
714.00 1.479
714.10 1.479
714.20 1.479
714.30 1.479
714.40 1.479
714.50 1.479
714.60 1.479
714.70 1.479
714.80 1.479
714.90 1.479
715.00 1.479
715.10 1.479
715.20 1.479
715.30 1.479
715.40 1.479
715.50 1.479
715.60 1.479
715.70 1.479
715.80 1.479
715.90 1.479
716.00 1.479
716.10 1.479
716.20 1.479
716.30 1.479
716.40 1.479
716.50 1.479
716.60 1.479
716.70 1.479
716.80 1.479
716.90 1.479
717.00 1.479
717.10 1.479
717.20 1.479
717.30 1.479
717.40 1.479
717.50 1.479
717.60 1.479
717.70 1.479
717.80 1.479
717.90 1.479
718.00 1.479
718.10 1.479
718.20 1.479
718.30 1.478
718.40 1.478
718.50 1.478
718.60 1.478
718.70 1.478
718.80 1.478
718.90 1.478
719.00 1.478
719.10 1.478
719.20 1.478
719.30 1.478
719.40 1.478
719.50 1.478
719.60 1.478
719.70 1.478
719.80 1.478
719.90 1.478
720.00 1.478
720.10 1.478
720.20 1.478
720.30 1.478
720.40 1.478
720.50 1.478
720.60 1.478
720.70 1.478
720.80 1.478
720.90 1.478
721.00 1.478
721.10 1.478
721.20 1.478
721.30 1.478
721.40 1.478
721.50 1.478
721.60 1.478
721.70 1.478
721.80 1.478
721.90 1.478
722.00 1.478
722.10 1.477
722.20 1.477
722.30 1.477
722.40 1.477
722.50 1.477
722.60 1.477
722.70 1.477
722.80 1.477
722.90 1.477
723.00 1.477
723.10 1.477
723.20 1.477
723.30 1.477
723.40 1.477
723.50 1.477
723.60 1.477
723.70 1.477
723.80 1.477
723.90 1.477
724.00 1.477
724.10 1.477
724.20 1.477
724.30 1.477
724.40 1.477
724.50 1.477
724.60 1.477
724.70 1.477
724.80 1.477
724.90 1.477
725.00 1.477
725.10 1.477
725.20 1.477
725.30 1.476
725.40 1.476
725.50 1.476
725.60 1.476
725.70 1.476
725.80 1.476
725.90 1.476
726.00 1.476
726.10 1.476
726.20 1.476
726.30 1.476
726.40 1.476
726.50 1.476
726.60 1.476
726.70 1.476
726.80 1.476
726.90 1.476
727.00 1.476
727.10 1.476
727.20 1.476
727.30 1.476
727.40 1.476
727.50 1.476
727.60 1.476
727.70 1.476
727.80 1.476
727.90 1.476
728.00 1.475
728.10 1.475
728.20 1.475
728.30 1.475
728.40 1.475
728.50 1.475
728.60 1.475
728.70 1.475
728.80 1.475
728.90 1.475
729.00 1.475
729.10 1.475
729.20 1.475
729.30 1.475
729.40 1.475
729.50 1.475
729.60 1.475
729.70 1.475
729.80 1.475
729.90 1.475
730.00 1.475
730.10 1.475
730.20 1.475
730.30 1.475
730.40 1.475
730.50 1.474
730.60 1.474
730.70 1.474
730.80 1.474
730.90 1.474
731.00 1.474
731.10 1.474
731.20 1.474
731.30 1.474
731.40 1.474
731.50 1.474
731.60 1.474
731.70 1.474
731.80 1.474
731.90 1.474
732.00 1.474
732.10 1.474
732.20 1.474
732.30 1.474
732.40 1.474
732.50 1.474
732.60 1.474
732.70 1.474
732.80 1.473
732.90 1.473
733.00 1.473
733.10 1.473
733.20 1.473
733.30 1.473
733.40 1.473
733.50 1.473
733.60 1.473
733.70 1.473
733.80 1.473
733.90 1.473
734.00 1.473
734.10 1.473
734.20 1.473
734.30 1.473
734.40 1.473
734.50 1.473
734.60 1.473
734.70 1.473
734.80 1.473
734.90 1.473
735.00 1.472
735.10 1.472
735.20 1.472
735.30 1.472
735.40 1.472
735.50 1.472
735.60 1.472
735.70 1.472
735.80 1.472
735.90 1.472
736.00 1.472
736.10 1.472
736.20 1.472
736.30 1.472
736.40 1.472
736.50 1.472
736.60 1.472
736.70 1.472
736.80 1.472
736.90 1.472
737.00 1.472
737.10 1.472
737.20 1.471
737.30 1.471
737.40 1.471
737.50 1.471
737.60 1.471
737.70 1.471
737.80 1.471
737.90 1.471
738.00 1.471
738.10 1.471
738.20 1.471
738.30 1.471
738.40 1.471
738.50 1.471
738.60 1.471
738.70 1.471
738.80 1.471
738.90 1.471
739.00 1.471
739.10 1.471
739.20 1.471
739.30 1.471
739.40 1.47
739.50 1.47
739.60 1.47
739.70 1.47
739.80 1.47
739.90 1.47
740.00 1.47
740.10 1.47
740.20 1.47
740.30 1.47
740.40 1.47
740.50 1.47
740.60 1.47
740.70 1.47
740.80 1.47
740.90 1.47
741.00 1.47
741.10 1.47
741.20 1.47
741.30 1.47
741.40 1.47
741.50 1.469
741.60 1.469
741.70 1.469
741.80 1.469
741.90 1.469
742.00 1.469
742.10 1.469
742.20 1.469
742.30 1.469
742.40 1.469
742.50 1.469
742.60 1.469
742.70 1.469
742.80 1.469
742.90 1.469
743.00 1.469
743.10 1.469
743.20 1.469
743.30 1.469
743.40 1.469
743.50 1.468
743.60 1.468
743.70 1.468
743.80 1.468
743.90 1.468
744.00 1.468
744.10 1.468
744.20 1.468
744.30 1.468
744.40 1.468
744.50 1.468
744.60 1.468
744.70 1.468
744.80 1.468
744.90 1.468
745.00 1.468
745.10 1.468
745.20 1.468
745.30 1.468
745.40 1.468
745.50 1.467
745.60 1.467
745.70 1.467
745.80 1.467
745.90 1.467
746.00 1.467
746.10 1.467
746.20 1.467
746.30 1.467
746.40 1.467
746.50 1.467
746.60 1.467
746.70 1.467
746.80 1.467
746.90 1.467
747.00 1.467
747.10 1.467
747.20 1.467
747.30 1.467
747.40 1.467
747.50 1.466
747.60 1.466
747.70 1.466
747.80 1.466
747.90 1.466
748.00 1.466
748.10 1.466
748.20 1.466
748.30 1.466
748.40 1.466
748.50 1.466
748.60 1.466
748.70 1.466
748.80 1.466
748.90 1.466
749.00 1.466
749.10 1.466
749.20 1.466
749.30 1.466
749.40 1.465
749.50 1.465
749.60 1.465
749.70 1.465
749.80 1.465
749.90 1.465
750.00 1.465
750.10 1.465
750.20 1.465
750.30 1.465
750.40 1.465
750.50 1.465
750.60 1.465
750.70 1.465
750.80 1.465
750.90 1.465
751.00 1.465
751.10 1.465
751.20 1.465
751.30 1.465
751.40 1.464
751.50 1.464
751.60 1.464
751.70 1.464
751.80 1.464
751.90 1.464
752.00 1.464
752.10 1.464
752.20 1.464
752.30 1.464
752.40 1.464
752.50 1.464
752.60 1.464
752.70 1.464
752.80 1.464
752.90 1.464
753.00 1.464
753.10 1.464
753.20 1.464
753.30 1.463
753.40 1.463
753.50 1.463
753.60 1.463
753.70 1.463
753.80 1.463
753.90 1.463
754.00 1.463
754.10 1.463
754.20 1.463
754.30 1.463
754.40 1.463
754.50 1.463
754.60 1.463
754.70 1.463
754.80 1.463
754.90 1.463
755.00 1.463
755.10 1.462
755.20 1.462
755.30 1.462
755.40 1.462
755.50 1.462
755.60 1.462
755.70 1.462
755.80 1.462
755.90 1.462
756.00 1.462
756.10 1.462
756.20 1.462
756.30 1.462
756.40 1.462
756.50 1.462
756.60 1.462
756.70 1.462
756.80 1.462
756.90 1.462
757.00 1.461
757.10 1.461
757.20 1.461
757.30 1.461
757.40 1.461
757.50 1.461
757.60 1.461
757.70 1.461
757.80 1.461
757.90 1.461
758.00 1.461
758.10 1.461
758.20 1.461
758.30 1.461
758.40 1.461
758.50 1.461
758.60 1.461
758.70 1.461
758.80 1.46
758.90 1.46
759.00 1.46
759.10 1.46
759.20 1.46
759.30 1.46
759.40 1.46
759.50 1.46
759.60 1.46
759.70 1.46
759.80 1.46
759.90 1.46
760.00 1.46
760.10 1.46
760.20 1.46
760.30 1.46
760.40 1.46
760.50 1.46
760.60 1.459
760.70 1.459
760.80 1.459
760.90 1.459
761.00 1.459
761.10 1.459
761.20 1.459
761.30 1.459
761.40 1.459
761.50 1.459
761.60 1.459
761.70 1.459
761.80 1.459
761.90 1.459
762.00 1.459
762.10 1.459
762.20 1.459
762.30 1.458
762.40 1.458
762.50 1.458
762.60 1.458
762.70 1.458
762.80 1.458
762.90 1.458
763.00 1.458
763.10 1.458
763.20 1.458
763.30 1.458
763.40 1.458
763.50 1.458
763.60 1.458
763.70 1.458
763.80 1.458
763.90 1.458
764.00 1.457
764.10 1.457
764.20 1.457
764.30 1.457
764.40 1.457
764.50 1.457
764.60 1.457
764.70 1.457
764.80 1.457
764.90 1.457
765.00 1.457
765.10 1.457
765.20 1.457
765.30 1.457
765.40 1.457
765.50 1.457
765.60 1.457
765.70 1.456
765.80 1.456
765.90 1.456
766.00 1.456
766.10 1.456
766.20 1.456
766.30 1.456
766.40 1.456
766.50 1.456
766.60 1.456
766.70 1.456
766.80 1.456
766.90 1.456
767.00 1.456
767.10 1.456
767.20 1.456
767.30 1.456
767.40 1.455
767.50 1.455
767.60 1.455
767.70 1.455
767.80 1.455
767.90 1.455
768.00 1.455
768.10 1.455
768.20 1.455
768.30 1.455
768.40 1.455
768.50 1.455
768.60 1.455
768.70 1.455
768.80 1.455
768.90 1.455
769.00 1.455
769.10 1.454
769.20 1.454
769.30 1.454
769.40 1.454
769.50 1.454
769.60 1.454
769.70 1.454
769.80 1.454
769.90 1.454
770.00 1.454
770.10 1.454
770.20 1.454
770.30 1.454
770.40 1.454
770.50 1.454
770.60 1.454
770.70 1.453
770.80 1.453
770.90 1.453
771.00 1.453
771.10 1.453
771.20 1.453
771.30 1.453
771.40 1.453
771.50 1.453
771.60 1.453
771.70 1.453
771.80 1.453
771.90 1.453
772.00 1.453
772.10 1.453
772.20 1.453
772.30 1.453
772.40 1.452
772.50 1.452
772.60 1.452
772.70 1.452
772.80 1.452
772.90 1.452
773.00 1.452
773.10 1.452
773.20 1.452
773.30 1.452
773.40 1.452
773.50 1.452
773.60 1.452
773.70 1.452
773.80 1.452
773.90 1.452
774.00 1.451
774.10 1.451
774.20 1.451
774.30 1.451
774.40 1.451
774.50 1.451
774.60 1.451
774.70 1.451
774.80 1.451
774.90 1.451
775.00 1.451
775.10 1.451
775.20 1.451
775.30 1.451
775.40 1.451
775.50 1.451
775.60 1.45
775.70 1.45
775.80 1.45
775.90 1.45
776.00 1.45
776.10 1.45
776.20 1.45
776.30 1.45
776.40 1.45
776.50 1.45
776.60 1.45
776.70 1.45
776.80 1.45
776.90 1.45
777.00 1.45
777.10 1.45
777.20 1.449
777.30 1.449
777.40 1.449
777.50 1.449
777.60 1.449
777.70 1.449
777.80 1.449
777.90 1.449
778.00 1.449
778.10 1.449
778.20 1.449
778.30 1.449
778.40 1.449
778.50 1.449
778.60 1.449
778.70 1.449
778.80 1.448
778.90 1.448
779.00 1.448
779.10 1.448
779.20 1.448
779.30 1.448
779.40 1.448
779.50 1.448
779.60 1.448
779.70 1.448
779.80 1.448
779.90 1.448
780.00 1.448
780.10 1.448
780.20 1.448
780.30 1.448
780.40 1.447
780.50 1.447
780.60 1.447
780.70 1.447
780.80 1.447
780.90 1.447
781.00 1.447
781.10 1.447
781.20 1.447
781.30 1.447
781.40 1.447
781.50 1.447
781.60 1.447
781.70 1.447
781.80 1.447
781.90 1.447
782.00 1.446
782.10 1.446
782.20 1.446
782.30 1.446
782.40 1.446
782.50 1.446
782.60 1.446
782.70 1.446
782.80 1.446
782.90 1.446
783.00 1.446
783.10 1.446
783.20 1.446
783.30 1.446
783.40 1.446
783.50 1.446
783.60 1.445
783.70 1.445
783.80 1.445
783.90 1.445
784.00 1.445
784.10 1.445
784.20 1.445
784.30 1.445
784.40 1.445
784.50 1.445
784.60 1.445
784.70 1.445
784.80 1.445
784.90 1.445
785.00 1.445
785.10 1.445
785.20 1.444
785.30 1.444
785.40 1.444
785.50 1.444
785.60 1.444
785.70 1.444
785.80 1.444
785.90 1.444
786.00 1.444
786.10 1.444
786.20 1.444
786.30 1.444
786.40 1.444
786.50 1.444
786.60 1.444
786.70 1.444
786.80 1.443
786.90 1.443
787.00 1.443
787.10 1.443
787.20 1.443
787.30 1.443
787.40 1.443
787.50 1.443
787.60 1.443
787.70 1.443
787.80 1.443
787.90 1.443
788.00 1.443
788.10 1.443
788.20 1.443
788.30 1.443
788.40 1.442
788.50 1.442
788.60 1.442
788.70 1.442
788.80 1.442
788.90 1.442
789.00 1.442
789.10 1.442
789.20 1.442
789.30 1.442
789.40 1.442
789.50 1.442
789.60 1.442
789.70 1.442
789.80 1.442
789.90 1.442
790.00 1.441
790.10 1.441
790.20 1.441
790.30 1.441
790.40 1.441
790.50 1.441
790.60 1.441
790.70 1.441
790.80 1.441
790.90 1.441
791.00 1.441
791.10 1.441
791.20 1.441
791.30 1.441
791.40 1.441
791.50 1.44
791.60 1.44
791.70 1.44
791.80 1.44
791.90 1.44
792.00 1.44
792.10 1.44
792.20 1.44
792.30 1.44
792.40 1.44
792.50 1.44
792.60 1.44
792.70 1.44
792.80 1.44
792.90 1.439
793.00 1.439
793.10 1.439
793.20 1.439
793.30 1.439
793.40 1.439
793.50 1.439
793.60 1.439
793.70 1.439
793.80 1.439
793.90 1.439
794.00 1.439
794.10 1.439
794.20 1.439
794.30 1.439
794.40 1.438
794.50 1.438
794.60 1.438
794.70 1.438
794.80 1.438
794.90 1.438
795.00 1.438
795.10 1.438
795.20 1.438
795.30 1.438
795.40 1.438
795.50 1.438
795.60 1.438
795.70 1.438
795.80 1.437
795.90 1.437
796.00 1.437
796.10 1.437
796.20 1.437
796.30 1.437
796.40 1.437
796.50 1.437
796.60 1.437
796.70 1.437
796.80 1.437
796.90 1.437
797.00 1.437
797.10 1.437
797.20 1.437
797.30 1.436
797.40 1.436
797.50 1.436
797.60 1.436
797.70 1.436
797.80 1.436
797.90 1.436
798.00 1.436
798.10 1.436
798.20 1.436
798.30 1.436
798.40 1.436
798.50 1.436
798.60 1.436
798.70 1.435
798.80 1.435
798.90 1.435
799.00 1.435
799.10 1.435
799.20 1.435
799.30 1.435
799.40 1.435
799.50 1.435
799.60 1.435
799.70 1.435
799.80 1.435
799.90 1.435
800.00 1.435
800.10 1.434
800.20 1.434
800.30 1.434
800.40 1.434
800.50 1.434
800.60 1.434
800.70 1.434
800.80 1.434
800.90 1.434
801.00 1.434
801.10 1.434
801.20 1.434
801.30 1.433
801.40 1.433
801.50 1.433
801.60 1.433
801.70 1.433
801.80 1.433
801.90 1.433
802.00 1.433
802.10 1.433
802.20 1.433
802.30 1.433
802.40 1.433
802.50 1.432
802.60 1.432
802.70 1.432
802.80 1.432
802.90 1.432
803.00 1.432
803.10 1.432
803.20 1.432
803.30 1.432
803.40 1.432
803.50 1.432
803.60 1.432
803.70 1.431
803.80 1.431
803.90 1.431
804.00 1.431
804.10 1.431
804.20 1.431
804.30 1.431
804.40 1.431
804.50 1.431
804.60 1.431
804.70 1.431
804.80 1.43
804.90 1.43
805.00 1.43
805.10 1.43
805.20 1.43
805.30 1.43
805.40 1.43
805.50 1.43
805.60 1.43
805.70 1.43
805.80 1.43
805.90 1.43
806.00 1.429
806.10 1.429
806.20 1.429
806.30 1.429
806.40 1.429
806.50 1.429
806.60 1.429
806.70 1.429
806.80 1.429
806.90 1.429
807.00 1.429
807.10 1.429
807.20 1.428
807.30 1.428
807.40 1.428
807.50 1.428
807.60 1.428
807.70 1.428
807.80 1.428
807.90 1.428
808.00 1.428
808.10 1.428
808.20 1.428
808.30 1.428
808.40 1.427
808.50 1.427
808.60 1.427
808.70 1.427
808.80 1.427
808.90 1.427
809.00 1.427
809.10 1.427
809.20 1.427
809.30 1.427
809.40 1.427
809.50 1.427
809.60 1.426
809.70 1.426
809.80 1.426
809.90 1.426
810.00 1.426
810.10 1.426
810.20 1.426
810.30 1.426
810.40 1.426
810.50 1.426
810.60 1.425
810.70 1.425
810.80 1.425
810.90 1.425
811.00 1.425
811.10 1.425
811.20 1.425
811.30 1.425
811.40 1.425
811.50 1.425
811.60 1.424
811.70 1.424
811.80 1.424
811.90 1.424
812.00 1.424
812.10 1.424
812.20 1.424
812.30 1.424
812.40 1.424
812.50 1.424
812.60 1.423
812.70 1.423
812.80 1.423
812.90 1.423
813.00 1.423
813.10 1.423
813.20 1.423
813.30 1.423
813.40 1.423
813.50 1.422
813.60 1.422
813.70 1.422
813.80 1.422
813.90 1.422
814.00 1.422
814.10 1.422
814.20 1.422
814.30 1.422
814.40 1.422
814.50 1.421
814.60 1.421
814.70 1.421
814.80 1.421
814.90 1.421
815.00 1.421
815.10 1.421
815.20 1.421
815.30 1.421
815.40 1.421
815.50 1.42
815.60 1.42
815.70 1.42
815.80 1.42
815.90 1.42
816.00 1.42
816.10 1.42
816.20 1.42
816.30 1.42
816.40 1.42
816.50 1.419
816.60 1.419
816.70 1.419
816.80 1.419
816.90 1.419
817.00 1.419
817.10 1.419
817.20 1.419
817.30 1.419
817.40 1.418
817.50 1.418
817.60 1.418
817.70 1.418
817.80 1.418
817.90 1.418
818.00 1.418
818.10 1.418
818.20 1.418
818.30 1.418
818.40 1.417
818.50 1.417
818.60 1.417
818.70 1.417
818.80 1.417
818.90 1.417
819.00 1.417
819.10 1.417
819.20 1.417
819.30 1.417
819.40 1.416
819.50 1.416
819.60 1.416
819.70 1.416
819.80 1.416
819.90 1.416
820.00 1.416
820.10 1.416
820.20 1.416
820.30 1.416
820.40 1.415
820.50 1.415
820.60 1.415
820.70 1.415
820.80 1.415
820.90 1.415
821.00 1.415
821.10 1.415
821.20 1.415
821.30 1.414
821.40 1.414
821.50 1.414
821.60 1.414
821.70 1.414
821.80 1.414
821.90 1.414
822.00 1.414
822.10 1.414
822.20 1.413
822.30 1.413
822.40 1.413
822.50 1.413
822.60 1.413
822.70 1.413
822.80 1.413
822.90 1.413
823.00 1.412
823.10 1.412
823.20 1.412
823.30 1.412
823.40 1.412
823.50 1.412
823.60 1.412
823.70 1.412
823.80 1.412
823.90 1.411
824.00 1.411
824.10 1.411
824.20 1.411
824.30 1.411
824.40 1.411
824.50 1.411
824.60 1.411
824.70 1.41
824.80 1.41
824.90 1.41
825.00 1.41
825.10 1.41
825.20 1.41
825.30 1.41
825.40 1.41
825.50 1.41
825.60 1.409
825.70 1.409
825.80 1.409
825.90 1.409
826.00 1.409
826.10 1.409
826.20 1.409
826.30 1.409
826.40 1.408
826.50 1.408
826.60 1.408
826.70 1.408
826.80 1.408
826.90 1.408
827.00 1.408
827.10 1.408
827.20 1.408
827.30 1.407
827.40 1.407
827.50 1.407
827.60 1.407
827.70 1.407
827.80 1.407
827.90 1.407
828.00 1.407
828.10 1.406
828.20 1.406
828.30 1.406
828.40 1.406
828.50 1.406
828.60 1.406
828.70 1.406
828.80 1.406
828.90 1.405
829.00 1.405
829.10 1.405
829.20 1.405
829.30 1.405
829.40 1.405
829.50 1.405
829.60 1.405
829.70 1.404
829.80 1.404
829.90 1.404
830.00 1.404
830.10 1.404
830.20 1.404
830.30 1.404
830.40 1.404
830.50 1.403
830.60 1.403
830.70 1.403
830.80 1.403
830.90 1.403
831.00 1.403
831.10 1.403
831.20 1.403
831.30 1.402
831.40 1.402
831.50 1.402
831.60 1.402
831.70 1.402
831.80 1.402
831.90 1.402
832.00 1.402
832.10 1.401
832.20 1.401
832.30 1.401
832.40 1.401
832.50 1.401
832.60 1.401
832.70 1.401
832.80 1.401
832.90 1.4
833.00 1.4
833.10 1.4
833.20 1.4
833.30 1.4
833.40 1.4
833.50 1.4
833.60 1.4
833.70 1.399
833.80 1.399
833.90 1.399
834.00 1.399
834.10 1.399
834.20 1.399
834.30 1.399
834.40 1.398
834.50 1.398
834.60 1.398
834.70 1.398
834.80 1.398
834.90 1.398
835.00 1.398
835.10 1.398
835.20 1.397
835.30 1.397
835.40 1.397
835.50 1.397
835.60 1.397
835.70 1.397
835.80 1.397
835.90 1.396
836.00 1.396
836.10 1.396
836.20 1.396
836.30 1.396
836.40 1.396
836.50 1.396
836.60 1.396
836.70 1.395
836.80 1.395
836.90 1.395
837.00 1.395
837.10 1.395
837.20 1.395
837.30 1.395
837.40 1.395
837.50 1.394
837.60 1.394
837.70 1.394
837.80 1.394
837.90 1.394
838.00 1.394
838.10 1.394
838.20 1.393
838.30 1.393
838.40 1.393
838.50 1.393
838.60 1.393
838.70 1.393
838.80 1.393
838.90 1.392
839.00 1.392
839.10 1.392
839.20 1.392
839.30 1.392
839.40 1.392
839.50 1.392
839.60 1.392
839.70 1.391
839.80 1.391
839.90 1.391
840.00 1.391
840.10 1.391
840.20 1.391
840.30 1.391
840.40 1.39
840.50 1.39
840.60 1.39
840.70 1.39
840.80 1.39
840.90 1.39
841.00 1.39
841.10 1.389
841.20 1.389
841.30 1.389
841.40 1.389
841.50 1.389
841.60 1.389
841.70 1.389
841.80 1.389
841.90 1.388
842.00 1.388
842.10 1.388
842.20 1.388
842.30 1.388
842.40 1.388
842.50 1.388
842.60 1.387
842.70 1.387
842.80 1.387
842.90 1.387
843.00 1.387
843.10 1.387
843.20 1.387
843.30 1.386
843.40 1.386
843.50 1.386
843.60 1.386
843.70 1.386
843.80 1.386
843.90 1.386
844.00 1.385
844.10 1.385
844.20 1.385
844.30 1.385
844.40 1.385
844.50 1.385
844.60 1.384
844.70 1.384
844.80 1.384
844.90 1.384
845.00 1.384
845.10 1.384
845.20 1.384
845.30 1.383
845.40 1.383
845.50 1.383
845.60 1.383
845.70 1.383
845.80 1.383
845.90 1.383
846.00 1.382
846.10 1.382
846.20 1.382
846.30 1.382
846.40 1.382
846.50 1.382
846.60 1.382
846.70 1.381
846.80 1.381
846.90 1.381
847.00 1.381
847.10 1.381
847.20 1.381
847.30 1.381
847.40 1.38
847.50 1.38
847.60 1.38
847.70 1.38
847.80 1.38
847.90 1.38
848.00 1.38
848.10 1.379
848.20 1.379
848.30 1.379
848.40 1.379
848.50 1.379
848.60 1.379
848.70 1.379
848.80 1.378
848.90 1.378
849.00 1.378
849.10 1.378
849.20 1.378
849.30 1.378
849.40 1.377
849.50 1.377
849.60 1.377
849.70 1.377
849.80 1.377
849.90 1.377
850.00 1.377
850.10 1.376
850.20 1.376
850.30 1.376
850.40 1.376
850.50 1.376
850.60 1.376
850.70 1.376
850.80 1.375
850.90 1.375
851.00 1.375
851.10 1.375
851.20 1.375
851.30 1.375
851.40 1.375
851.50 1.374
851.60 1.374
851.70 1.374
851.80 1.374
851.90 1.374
852.00 1.374
852.10 1.373
852.20 1.373
852.30 1.373
852.40 1.373
852.50 1.373
852.60 1.373
852.70 1.373
852.80 1.372
852.90 1.372
853.00 1.372
853.10 1.372
853.20 1.372
853.30 1.372
853.40 1.371
853.50 1.371
853.60 1.371
853.70 1.371
853.80 1.371
853.90 1.371
854.00 1.371
854.10 1.37
854.20 1.37
854.30 1.37
854.40 1.37
854.50 1.37
854.60 1.37
854.70 1.369
854.80 1.369
854.90 1.369
855.00 1.369
855.10 1.369
855.20 1.369
855.30 1.369
855.40 1.368
855.50 1.368
855.60 1.368
855.70 1.368
855.80 1.368
855.90 1.368
856.00 1.367
856.10 1.367
856.20 1.367
856.30 1.367
856.40 1.367
856.50 1.367
856.60 1.367
856.70 1.366
856.80 1.366
856.90 1.366
857.00 1.366
857.10 1.366
857.20 1.366
857.30 1.365
857.40 1.365
857.50 1.365
857.60 1.365
857.70 1.365
857.80 1.365
857.90 1.364
858.00 1.364
858.10 1.364
858.20 1.364
858.30 1.364
858.40 1.364
858.50 1.363
858.60 1.363
858.70 1.363
858.80 1.363
858.90 1.363
859.00 1.363
859.10 1.363
859.20 1.362
859.30 1.362
859.40 1.362
859.50 1.362
859.60 1.362
859.70 1.362
859.80 1.361
859.90 1.361
860.00 1.361
860.10 1.361
860.20 1.361
860.30 1.361
860.40 1.36
860.50 1.36
860.60 1.36
860.70 1.36
860.80 1.36
860.90 1.36
861.00 1.359
861.10 1.359
861.20 1.359
861.30 1.359
861.40 1.359
861.50 1.359
861.60 1.359
861.70 1.358
861.80 1.358
861.90 1.358
862.00 1.358
862.10 1.358
862.20 1.358
862.30 1.357
862.40 1.357
862.50 1.357
862.60 1.357
862.70 1.357
862.80 1.357
862.90 1.356
863.00 1.356
863.10 1.356
863.20 1.356
863.30 1.356
863.40 1.356
863.50 1.355
863.60 1.355
863.70 1.355
863.80 1.355
863.90 1.355
864.00 1.354
864.10 1.354
864.20 1.354
864.30 1.354
864.40 1.354
864.50 1.354
864.60 1.353
864.70 1.353
864.80 1.353
864.90 1.353
865.00 1.353
865.10 1.353
865.20 1.352
865.30 1.352
865.40 1.352
865.50 1.352
865.60 1.352
865.70 1.352
865.80 1.351
865.90 1.351
866.00 1.351
866.10 1.351
866.20 1.351
866.30 1.351
866.40 1.35
866.50 1.35
866.60 1.35
866.70 1.35
866.80 1.35
866.90 1.35
867.00 1.349
867.10 1.349
867.20 1.349
867.30 1.349
867.40 1.349
867.50 1.349
867.60 1.348
867.70 1.348
867.80 1.348
867.90 1.348
868.00 1.348
868.10 1.348
868.20 1.347
868.30 1.347
868.40 1.347
868.50 1.347
868.60 1.347
868.70 1.346
868.80 1.346
868.90 1.346
869.00 1.346
869.10 1.346
869.20 1.346
869.30 1.345
869.40 1.345
869.50 1.345
869.60 1.345
869.70 1.345
869.80 1.345
869.90 1.344
870.00 1.344
870.10 1.344
870.20 1.344
870.30 1.344
870.40 1.343
870.50 1.343
870.60 1.343
870.70 1.343
870.80 1.343
870.90 1.343
871.00 1.342
871.10 1.342
871.20 1.342
871.30 1.342
871.40 1.342
871.50 1.342
871.60 1.341
871.70 1.341
871.80 1.341
871.90 1.341
872.00 1.341
872.10 1.34
872.20 1.34
872.30 1.34
872.40 1.34
872.50 1.34
872.60 1.34
872.70 1.339
872.80 1.339
872.90 1.339
873.00 1.339
873.10 1.339
873.20 1.338
873.30 1.338
873.40 1.338
873.50 1.338
873.60 1.338
873.70 1.337
873.80 1.337
873.90 1.337
874.00 1.337
874.10 1.337
874.20 1.337
874.30 1.336
874.40 1.336
874.50 1.336
874.60 1.336
874.70 1.336
874.80 1.335
874.90 1.335
875.00 1.335
875.10 1.335
875.20 1.335
875.30 1.335
875.40 1.334
875.50 1.334
875.60 1.334
875.70 1.334
875.80 1.334
875.90 1.333
876.00 1.333
876.10 1.333
876.20 1.333
876.30 1.333
876.40 1.333
876.50 1.332
876.60 1.332
876.70 1.332
876.80 1.332
876.90 1.332
877.00 1.331
877.10 1.331
877.20 1.331
877.30 1.331
877.40 1.331
877.50 1.33
877.60 1.33
877.70 1.33
877.80 1.33
877.90 1.33
878.00 1.329
878.10 1.329
878.20 1.329
878.30 1.329
878.40 1.329
878.50 1.329
878.60 1.328
878.70 1.328
878.80 1.328
878.90 1.328
879.00 1.328
879.10 1.327
879.20 1.327
879.30 1.327
879.40 1.327
879.50 1.327
879.60 1.326
879.70 1.326
879.80 1.326
879.90 1.326
880.00 1.326
880.10 1.325
880.20 1.325
880.30 1.325
880.40 1.325
880.50 1.325
880.60 1.324
880.70 1.324
880.80 1.324
880.90 1.324
881.00 1.324
881.10 1.323
881.20 1.323
881.30 1.323
881.40 1.323
881.50 1.323
881.60 1.322
881.70 1.322
881.80 1.322
881.90 1.322
882.00 1.322
882.10 1.321
882.20 1.321
882.30 1.321
882.40 1.321
882.50 1.321
882.60 1.32
882.70 1.32
882.80 1.32
882.90 1.32
883.00 1.32
883.10 1.319
883.20 1.319
883.30 1.319
883.40 1.319
883.50 1.319
883.60 1.318
883.70 1.318
883.80 1.318
883.90 1.318
884.00 1.318
884.10 1.317
884.20 1.317
884.30 1.317
884.40 1.317
884.50 1.317
884.60 1.316
884.70 1.316
884.80 1.316
884.90 1.316
885.00 1.315
885.10 1.315
885.20 1.315
885.30 1.315
885.40 1.315
885.50 1.314
885.60 1.314
885.70 1.314
885.80 1.314
885.90 1.314
886.00 1.313
886.10 1.313
886.20 1.313
886.30 1.313
886.40 1.313
886.50 1.312
886.60 1.312
886.70 1.312
886.80 1.312
886.90 1.312
887.00 1.311
887.10 1.311
887.20 1.311
887.30 1.311
887.40 1.31
887.50 1.31
887.60 1.31
887.70 1.31
887.80 1.31
887.90 1.309
888.00 1.309
888.10 1.309
888.20 1.309
888.30 1.309
888.40 1.308
888.50 1.308
888.60 1.308
888.70 1.308
888.80 1.307
888.90 1.307
889.00 1.307
889.10 1.307
889.20 1.307
889.30 1.306
889.40 1.306
889.50 1.306
889.60 1.306
889.70 1.305
889.80 1.305
889.90 1.305
890.00 1.305
890.10 1.305
890.20 1.304
890.30 1.304
890.40 1.304
890.50 1.304
890.60 1.303
890.70 1.303
890.80 1.303
890.90 1.303
891.00 1.303
891.10 1.302
891.20 1.302
891.30 1.302
891.40 1.302
891.50 1.301
891.60 1.301
891.70 1.301
891.80 1.301
891.90 1.301
892.00 1.3
892.10 1.3
892.20 1.3
892.30 1.3
892.40 1.3
892.50 1.299
892.60 1.299
892.70 1.299
892.80 1.299
892.90 1.298
893.00 1.298
893.10 1.298
893.20 1.298
893.30 1.298
893.40 1.297
893.50 1.297
893.60 1.297
893.70 1.297
893.80 1.297
893.90 1.296
894.00 1.296
894.10 1.296
894.20 1.296
894.30 1.295
894.40 1.295
894.50 1.295
894.60 1.295
894.70 1.295
894.80 1.294
894.90 1.294
895.00 1.294
895.10 1.294
895.20 1.294
895.30 1.293
895.40 1.293
895.50 1.293
895.60 1.293
895.70 1.292
895.80 1.292
895.90 1.292
896.00 1.292
896.10 1.292
896.20 1.291
896.30 1.291
896.40 1.291
896.50 1.291
896.60 1.291
896.70 1.29
896.80 1.29
896.90 1.29
897.00 1.29
897.10 1.289
897.20 1.289
897.30 1.289
897.40 1.289
897.50 1.288
897.60 1.288
897.70 1.288
897.80 1.288
897.90 1.287
898.00 1.287
898.10 1.287
898.20 1.287
898.30 1.286
898.40 1.286
898.50 1.286
898.60 1.286
898.70 1.285
898.80 1.285
898.90 1.285
899.00 1.285
899.10 1.284
899.20 1.284
899.30 1.284
899.40 1.284
899.50 1.283
899.60 1.283
899.70 1.283
899.80 1.283
899.90 1.282
900.00 1.282
900.10 1.282
900.20 1.282
900.30 1.281
900.40 1.281
900.50 1.281
900.60 1.281
900.70 1.28
900.80 1.28
900.90 1.28
901.00 1.28
901.10 1.279
901.20 1.279
901.30 1.279
901.40 1.279
901.50 1.278
901.60 1.278
901.70 1.278
901.80 1.278
901.90 1.278
902.00 1.277
902.10 1.277
902.20 1.277
902.30 1.276
902.40 1.276
902.50 1.276
902.60 1.275
902.70 1.275
902.80 1.275
902.90 1.274
903.00 1.274
903.10 1.274
903.20 1.274
903.30 1.273
903.40 1.273
903.50 1.273
903.60 1.272
903.70 1.272
903.80 1.272
903.90 1.271
904.00 1.271
904.10 1.271
904.20 1.27
904.30 1.27
904.40 1.27
904.50 1.27
904.60 1.269
904.70 1.269
904.80 1.269
904.90 1.268
905.00 1.268
905.10 1.268
905.20 1.267
905.30 1.267
905.40 1.267
905.50 1.266
905.60 1.266
905.70 1.266
905.80 1.266
905.90 1.265
906.00 1.265
906.10 1.265
906.20 1.264
906.30 1.264
906.40 1.264
906.50 1.263
906.60 1.263
906.70 1.263
906.80 1.262
906.90 1.262
907.00 1.262
907.10 1.262
907.20 1.261
907.30 1.261
907.40 1.261
907.50 1.26
907.60 1.26
907.70 1.26
907.80 1.26
907.90 1.259
908.00 1.259
908.10 1.259
908.20 1.258
908.30 1.258
908.40 1.258
908.50 1.257
908.60 1.257
908.70 1.257
908.80 1.257
908.90 1.256
909.00 1.256
909.10 1.256
909.20 1.255
909.30 1.255
909.40 1.255
909.50 1.255
909.60 1.254
909.70 1.254
909.80 1.254
909.90 1.253
910.00 1.253
910.10 1.253
910.20 1.253
910.30 1.252
910.40 1.252
910.50 1.252
910.60 1.251
910.70 1.251
910.80 1.251
910.90 1.251
911.00 1.25
911.10 1.25
911.20 1.25
911.30 1.249
911.40 1.249
911.50 1.249
911.60 1.249
911.70 1.248
911.80 1.248
911.90 1.248
912.00 1.247
912.10 1.247
912.20 1.247
912.30 1.247
912.40 1.246
912.50 1.246
912.60 1.246
912.70 1.245
912.80 1.245
912.90 1.245
913.00 1.245
913.10 1.244
913.20 1.244
913.30 1.244
913.40 1.244
913.50 1.243
913.60 1.243
913.70 1.243
913.80 1.242
913.90 1.242
914.00 1.242
914.10 1.242
914.20 1.241
914.30 1.241
914.40 1.241
914.50 1.241
914.60 1.24
914.70 1.24
914.80 1.24
914.90 1.239
915.00 1.239
915.10 1.239
915.20 1.239
915.30 1.238
915.40 1.238
915.50 1.238
915.60 1.238
915.70 1.237
915.80 1.237
915.90 1.237
916.00 1.237
916.10 1.236
916.20 1.236
916.30 1.236
916.40 1.235
916.50 1.235
916.60 1.235
916.70 1.235
916.80 1.234
916.90 1.234
917.00 1.234
917.10 1.234
917.20 1.233
917.30 1.233
917.40 1.233
917.50 1.232
917.60 1.232
917.70 1.232
917.80 1.231
917.90 1.231
918.00 1.231
918.10 1.231
918.20 1.23
918.30 1.23
918.40 1.23
918.50 1.229
918.60 1.229
918.70 1.229
918.80 1.228
918.90 1.228
919.00 1.228
919.10 1.228
919.20 1.227
919.30 1.227
919.40 1.227
919.50 1.226
919.60 1.226
919.70 1.226
919.80 1.225
919.90 1.225
920.00 1.225
920.10 1.225
920.20 1.224
920.30 1.224
920.40 1.224
920.50 1.223
920.60 1.223
920.70 1.223
920.80 1.222
920.90 1.222
921.00 1.222
921.10 1.222
921.20 1.221
921.30 1.221
921.40 1.221
921.50 1.22
921.60 1.22
921.70 1.22
921.80 1.219
921.90 1.219
922.00 1.219
922.10 1.219
922.20 1.218
922.30 1.218
922.40 1.218
922.50 1.217
922.60 1.217
922.70 1.217
922.80 1.216
922.90 1.216
923.00 1.216
923.10 1.215
923.20 1.215
923.30 1.215
923.40 1.215
923.50 1.214
923.60 1.214
923.70 1.214
923.80 1.213
923.90 1.213
924.00 1.213
924.10 1.212
924.20 1.212
924.30 1.212
924.40 1.211
924.50 1.211
924.60 1.211
924.70 1.21
924.80 1.21
924.90 1.21
925.00 1.21
925.10 1.209
925.20 1.209
925.30 1.209
925.40 1.208
925.50 1.208
925.60 1.208
925.70 1.207
925.80 1.207
925.90 1.207
926.00 1.206
926.10 1.206
926.20 1.206
926.30 1.206
926.40 1.205
926.50 1.205
926.60 1.205
926.70 1.204
926.80 1.204
926.90 1.204
927.00 1.203
927.10 1.203
927.20 1.203
927.30 1.202
927.40 1.202
927.50 1.202
927.60 1.201
927.70 1.201
927.80 1.201
927.90 1.2
928.00 1.2
928.10 1.2
928.20 1.199
928.30 1.199
928.40 1.199
928.50 1.198
928.60 1.198
928.70 1.198
928.80 1.197
928.90 1.197
929.00 1.197
929.10 1.196
929.20 1.196
929.30 1.196
929.40 1.196
929.50 1.195
929.60 1.195
929.70 1.195
929.80 1.194
929.90 1.194
930.00 1.194
930.10 1.193
930.20 1.193
930.30 1.193
930.40 1.192
930.50 1.192
930.60 1.192
930.70 1.191
930.80 1.191
930.90 1.191
931.00 1.19
931.10 1.19
931.20 1.19
931.30 1.189
931.40 1.189
931.50 1.189
931.60 1.188
931.70 1.188
931.80 1.188
931.90 1.187
932.00 1.187
932.10 1.187
932.20 1.186
932.30 1.186
932.40 1.186
932.50 1.185
932.60 1.185
932.70 1.185
932.80 1.184
932.90 1.184
933.00 1.184
933.10 1.183
933.20 1.183
933.30 1.183
933.40 1.182
933.50 1.182
933.60 1.182
933.70 1.181
933.80 1.181
933.90 1.181
934.00 1.18
934.10 1.18
934.20 1.18
934.30 1.179
934.40 1.179
934.50 1.179
934.60 1.178
934.70 1.178
934.80 1.178
934.90 1.177
935.00 1.177
935.10 1.177
935.20 1.176
935.30 1.176
935.40 1.176
935.50 1.175
935.60 1.175
935.70 1.175
935.80 1.174
935.90 1.174
936.00 1.174
936.10 1.173
936.20 1.173
936.30 1.173
936.40 1.172
936.50 1.172
936.60 1.172
936.70 1.171
936.80 1.171
936.90 1.171
937.00 1.17
937.10 1.17
937.20 1.17
937.30 1.169
937.40 1.169
937.50 1.169
937.60 1.168
937.70 1.168
937.80 1.168
937.90 1.167
938.00 1.167
938.10 1.167
938.20 1.166
938.30 1.166
938.40 1.166
938.50 1.165
938.60 1.165
938.70 1.164
938.80 1.164
938.90 1.164
939.00 1.163
939.10 1.163
939.20 1.163
939.30 1.162
939.40 1.162
939.50 1.162
939.60 1.161
939.70 1.161
939.80 1.161
939.90 1.16
940.00 1.16
940.10 1.159
940.20 1.159
940.30 1.159
940.40 1.158
940.50 1.158
940.60 1.158
940.70 1.157
940.80 1.157
940.90 1.157
941.00 1.156
941.10 1.156
941.20 1.156
941.30 1.155
941.40 1.155
941.50 1.155
941.60 1.154
941.70 1.154
941.80 1.153
941.90 1.153
942.00 1.153
942.10 1.152
942.20 1.152
942.30 1.152
942.40 1.151
942.50 1.151
942.60 1.151
942.70 1.15
942.80 1.15
942.90 1.15
943.00 1.149
943.10 1.149
943.20 1.149
943.30 1.148
943.40 1.148
943.50 1.147
943.60 1.147
943.70 1.147
943.80 1.146
943.90 1.146
944.00 1.146
944.10 1.145
944.20 1.145
944.30 1.145
944.40 1.144
944.50 1.144
944.60 1.143
944.70 1.143
944.80 1.143
944.90 1.142
945.00 1.142
945.10 1.142
945.20 1.141
945.30 1.141
945.40 1.141
945.50 1.14
945.60 1.14
945.70 1.139
945.80 1.139
945.90 1.139
946.00 1.138
946.10 1.138
946.20 1.138
946.30 1.137
946.40 1.137
946.50 1.137
946.60 1.136
946.70 1.136
946.80 1.135
946.90 1.135
947.00 1.135
947.10 1.134
947.20 1.134
947.30 1.134
947.40 1.133
947.50 1.133
947.60 1.133
947.70 1.132
947.80 1.132
947.90 1.131
948.00 1.131
948.10 1.131
948.20 1.13
948.30 1.13
948.40 1.13
948.50 1.129
948.60 1.129
948.70 1.129
948.80 1.128
948.90 1.128
949.00 1.127
949.10 1.127
949.20 1.127
949.30 1.126
949.40 1.126
949.50 1.126
949.60 1.125
949.70 1.125
949.80 1.124
949.90 1.124
950.00 1.124
950.10 1.123
950.20 1.123
950.30 1.123
950.40 1.122
950.50 1.122
950.60 1.121
950.70 1.121
950.80 1.121
950.90 1.12
951.00 1.12
951.10 1.12
951.20 1.119
951.30 1.119
951.40 1.119
951.50 1.118
951.60 1.118
951.70 1.117
951.80 1.117
951.90 1.117
952.00 1.116
952.10 1.116
952.20 1.115
952.30 1.115
952.40 1.115
952.50 1.114
952.60 1.114
952.70 1.114
952.80 1.113
952.90 1.113
953.00 1.112
953.10 1.112
953.20 1.112
953.30 1.111
953.40 1.111
953.50 1.111
953.60 1.11
953.70 1.11
953.80 1.11
953.90 1.109
954.00 1.109
954.10 1.108
954.20 1.108
954.30 1.108
954.40 1.107
954.50 1.107
954.60 1.106
954.70 1.106
954.80 1.106
954.90 1.105
955.00 1.105
955.10 1.105
955.20 1.104
955.30 1.104
955.40 1.103
955.50 1.103
955.60 1.103
955.70 1.102
955.80 1.102
955.90 1.102
956.00 1.101
956.10 1.101
956.20 1.1
956.30 1.1
956.40 1.1
956.50 1.099
956.60 1.099
956.70 1.098
956.80 1.098
956.90 1.098
957.00 1.097
957.10 1.097
957.20 1.097
957.30 1.096
957.40 1.096
957.50 1.095
957.60 1.095
957.70 1.095
957.80 1.094
957.90 1.094
958.00 1.093
958.10 1.093
958.20 1.093
958.30 1.092
958.40 1.092
958.50 1.092
958.60 1.091
958.70 1.091
958.80 1.09
958.90 1.09
959.00 1.09
959.10 1.089
959.20 1.089
959.30 1.088
959.40 1.088
959.50 1.088
959.60 1.087
959.70 1.087
959.80 1.087
959.90 1.086
960.00 1.086
960.10 1.085
960.20 1.085
960.30 1.085
960.40 1.084
960.50 1.084
960.60 1.084
960.70 1.083
960.80 1.083
960.90 1.082
961.00 1.082
961.10 1.082
961.20 1.081
961.30 1.081
961.40 1.08
961.50 1.08
961.60 1.08
961.70 1.079
961.80 1.079
961.90 1.079
962.00 1.078
962.10 1.078
962.20 1.077
962.30 1.077
962.40 1.077
962.50 1.076
962.60 1.076
962.70 1.075
962.80 1.075
962.90 1.075
963.00 1.074
963.10 1.074
963.20 1.074
963.30 1.073
963.40 1.073
963.50 1.072
963.60 1.072
963.70 1.072
963.80 1.071
963.90 1.071
964.00 1.07
964.10 1.07
964.20 1.07
964.30 1.069
964.40 1.069
964.50 1.068
964.60 1.068
964.70 1.068
964.80 1.067
964.90 1.067
965.00 1.067
965.10 1.066
965.20 1.066
965.30 1.065
965.40 1.065
965.50 1.065
965.60 1.064
965.70 1.064
965.80 1.063
965.90 1.063
966.00 1.063
966.10 1.062
966.20 1.062
966.30 1.061
966.40 1.061
966.50 1.061
966.60 1.06
966.70 1.06
966.80 1.06
966.90 1.059
967.00 1.059
967.10 1.058
967.20 1.058
967.30 1.058
967.40 1.057
967.50 1.057
967.60 1.056
967.70 1.056
967.80 1.056
967.90 1.055
968.00 1.055
968.10 1.054
968.20 1.054
968.30 1.054
968.40 1.053
968.50 1.053
968.60 1.053
968.70 1.052
968.80 1.052
968.90 1.051
969.00 1.051
969.10 1.051
969.20 1.05
969.30 1.05
969.40 1.049
969.50 1.049
969.60 1.049
969.70 1.048
969.80 1.048
969.90 1.047
970.00 1.047
970.10 1.047
970.20 1.046
970.30 1.046
970.40 1.046
970.50 1.045
970.60 1.045
970.70 1.044
970.80 1.044
970.90 1.044
971.00 1.043
971.10 1.043
971.20 1.042
971.30 1.042
971.40 1.042
971.50 1.041
971.60 1.041
971.70 1.041
971.80 1.04
971.90 1.04
972.00 1.039
972.10 1.039
972.20 1.039
972.30 1.038
972.40 1.038
972.50 1.037
972.60 1.037
972.70 1.037
972.80 1.036
972.90 1.036
973.00 1.035
973.10 1.035
973.20 1.035
973.30 1.034
973.40 1.034
973.50 1.034
973.60 1.033
973.70 1.033
973.80 1.032
973.90 1.032
974.00 1.032
974.10 1.031
974.20 1.031
974.30 1.03
974.40 1.03
974.50 1.03
974.60 1.029
974.70 1.029
974.80 1.029
974.90 1.028
975.00 1.028
975.10 1.027
975.20 1.027
975.30 1.027
975.40 1.026
975.50 1.026
975.60 1.025
975.70 1.025
975.80 1.025
975.90 1.024
976.00 1.024
976.10 1.023
976.20 1.023
976.30 1.023
976.40 1.022
976.50 1.022
976.60 1.022
976.70 1.021
976.80 1.021
976.90 1.02
977.00 1.02
977.10 1.02
977.20 1.019
977.30 1.019
977.40 1.018
977.50 1.018
977.60 1.018
977.70 1.017
977.80 1.017
977.90 1.017
978.00 1.016
978.10 1.016
978.20 1.015
978.30 1.015
978.40 1.015
978.50 1.014
978.60 1.014
978.70 1.013
978.80 1.013
978.90 1.013
979.00 1.012
979.10 1.012
979.20 1.012
979.30 1.011
979.40 1.011
979.50 1.01
979.60 1.01
979.70 1.01
979.80 1.009
979.90 1.009
980.00 1.009
980.10 1.008
980.20 1.008
980.30 1.007
980.40 1.007
980.50 1.007
980.60 1.006
980.70 1.006
980.80 1.005
980.90 1.005
981.00 1.005
981.10 1.004
981.20 1.004
981.30 1.004
981.40 1.003
981.50 1.003
981.60 1.002
981.70 1.002
981.80 1.002
981.90 1.001
982.00 1.001
982.10 1.001
982.20 1
982.30 0.9998
982.40 0.9994
982.50 0.999
982.60 0.9987
982.70 0.9983
982.80 0.9979
982.90 0.9975
983.00 0.9971
983.10 0.9968
983.20 0.9964
983.30 0.996
983.40 0.9956
983.50 0.9953
983.60 0.9949
983.70 0.9945
983.80 0.9941
983.90 0.9937
984.00 0.9934
984.10 0.993
984.20 0.9926
984.30 0.9922
984.40 0.9919
984.50 0.9915
984.60 0.9911
984.70 0.9907
984.80 0.9904
984.90 0.99
985.00 0.9896
985.10 0.9893
985.20 0.9889
985.30 0.9885
985.40 0.9882
985.50 0.9878
985.60 0.9874
985.70 0.9871
985.80 0.9867
985.90 0.9863
986.00 0.986
986.10 0.9856
986.20 0.9852
986.30 0.9849
986.40 0.9845
986.50 0.9841
986.60 0.9838
986.70 0.9834
986.80 0.9831
986.90 0.9827
987.00 0.9823
987.10 0.9819
987.20 0.9816
987.30 0.9812
987.40 0.9808
987.50 0.9804
987.60 0.9801
987.70 0.9797
987.80 0.9793
987.90 0.9789
988.00 0.9785
988.10 0.9782
988.20 0.9778
988.30 0.9774
988.40 0.977
988.50 0.9767
988.60 0.9763
988.70 0.9759
988.80 0.9755
988.90 0.9751
989.00 0.9748
989.10 0.9744
989.20 0.974
989.30 0.9736
989.40 0.9733
989.50 0.9729
989.60 0.9725
989.70 0.9721
989.80 0.9718
989.90 0.9714
990.00 0.971
990.10 0.9706
990.20 0.9703
990.30 0.9699
990.40 0.9695
990.50 0.9691
990.60 0.9688
990.70 0.9684
990.80 0.968
990.90 0.9676
991.00 0.9673
991.10 0.9669
991.20 0.9665
991.30 0.9661
991.40 0.9657
991.50 0.9654
991.60 0.965
991.70 0.9646
991.80 0.9642
991.90 0.9639
992.00 0.9635
992.10 0.9631
992.20 0.9627
992.30 0.9623
992.40 0.962
992.50 0.9616
992.60 0.9612
992.70 0.9608
992.80 0.9605
992.90 0.9601
993.00 0.9597
993.10 0.9593
993.20 0.9589
993.30 0.9586
993.40 0.9582
993.50 0.9578
993.60 0.9574
993.70 0.9571
993.80 0.9567
993.90 0.9563
994.00 0.9559
994.10 0.9555
994.20 0.9552
994.30 0.9548
994.40 0.9544
994.50 0.954
994.60 0.9537
994.70 0.9532
994.80 0.9528
994.90 0.9524
995.00 0.952
995.10 0.9516
995.20 0.9512
995.30 0.9507
995.40 0.9503
995.50 0.9499
995.60 0.9495
995.70 0.9491
995.80 0.9487
995.90 0.9483
996.00 0.948
996.10 0.9476
996.20 0.9472
996.30 0.9468
996.40 0.9465
996.50 0.9461
996.60 0.9457
996.70 0.9453
996.80 0.945
996.90 0.9446
997.00 0.9442
997.10 0.9438
997.20 0.9435
997.30 0.9431
997.40 0.9427
997.50 0.9424
997.60 0.942
997.70 0.9416
997.80 0.9413
997.90 0.9409
998.00 0.9405
998.10 0.9402
998.20 0.9398
998.30 0.9394
998.40 0.9391
998.50 0.9387
998.60 0.9383
998.70 0.938
998.80 0.9376
998.90 0.9372
999.00 0.9369
999.10 0.9365
999.20 0.9361
999.30 0.9358
999.40 0.9354
999.50 0.935
999.60 0.9347
999.70 0.9343
999.80 0.9339
999.90 0.9336
1000.00 0.9332
1000.10 0.9329
1000.20 0.9325
1000.30 0.9321
1000.40 0.9318
1000.50 0.9314
1000.60 0.9311
1000.70 0.9307
1000.80 0.9303
1000.90 0.93
1001.00 0.9296
1001.10 0.9293
1001.20 0.9289
1001.30 0.9285
1001.40 0.9282
1001.50 0.9278
1001.60 0.9275
1001.70 0.9271
1001.80 0.9267
1001.90 0.9264
1002.00 0.926
1002.10 0.9257
1002.20 0.9253
1002.30 0.925
1002.40 0.9246
1002.50 0.9242
1002.60 0.9239
1002.70 0.9235
1002.80 0.9232
1002.90 0.9228
1003.00 0.9225
1003.10 0.9221
1003.20 0.9218
1003.30 0.9214
1003.40 0.9211
1003.50 0.9207
1003.60 0.9204
1003.70 0.92
1003.80 0.9197
1003.90 0.9193
1004.00 0.919
1004.10 0.9186
1004.20 0.9183
1004.30 0.9179
1004.40 0.9176
1004.50 0.9172
1004.60 0.9169
1004.70 0.9165
1004.80 0.9162
1004.90 0.9158
1005.00 0.9154
1005.10 0.9151
1005.20 0.9148
1005.30 0.9144
1005.40 0.9141
1005.50 0.9137
1005.60 0.9134
1005.70 0.913
1005.80 0.9127
1005.90 0.9123
1006.00 0.912
1006.10 0.9116
1006.20 0.9113
1006.30 0.911
1006.40 0.9106
1006.50 0.9103
1006.60 0.9099
1006.70 0.9096
1006.80 0.9093
1006.90 0.9089
1007.00 0.9086
1007.10 0.9082
1007.20 0.9079
1007.30 0.9076
1007.40 0.9073
1007.50 0.9069
1007.60 0.9066
1007.70 0.9063
1007.80 0.9059
1007.90 0.9056
1008.00 0.9053
1008.10 0.9049
1008.20 0.9046
1008.30 0.9043
1008.40 0.9039
1008.50 0.9036
1008.60 0.9033
1008.70 0.903
1008.80 0.9026
1008.90 0.9023
1009.00 0.902
1009.10 0.9016
1009.20 0.9013
1009.30 0.901
1009.40 0.9006
1009.50 0.9003
1009.60 0.9
1009.70 0.8997
1009.80 0.8993
1009.90 0.899
1010.00 0.8987
1010.10 0.8984
1010.20 0.898
1010.30 0.8977
1010.40 0.8974
1010.50 0.8971
1010.60 0.8968
1010.70 0.8964
1010.80 0.8961
1010.90 0.8958
1011.00 0.8955
1011.10 0.8951
1011.20 0.8948
1011.30 0.8945
1011.40 0.8942
1011.50 0.8939
1011.60 0.8935
1011.70 0.8932
1011.80 0.8929
1011.90 0.8926
1012.00 0.8923
1012.10 0.892
1012.20 0.8917
1012.30 0.8913
1012.40 0.891
1012.50 0.8907
1012.60 0.8904
1012.70 0.8901
1012.80 0.8898
1012.90 0.8895
1013.00 0.8892
1013.10 0.8888
1013.20 0.8885
1013.30 0.8882
1013.40 0.8879
1013.50 0.8876
1013.60 0.8873
1013.70 0.887
1013.80 0.8867
1013.90 0.8864
1014.00 0.8861
1014.10 0.8858
1014.20 0.8855
1014.30 0.8852
1014.40 0.8848
1014.50 0.8845
1014.60 0.8842
1014.70 0.8839
1014.80 0.8837
1014.90 0.8834
1015.00 0.8831
1015.10 0.8828
1015.20 0.8825
1015.30 0.8822
1015.40 0.8819
1015.50 0.8816
1015.60 0.8813
1015.70 0.8811
1015.80 0.8808
1015.90 0.8805
1016.00 0.8802
1016.10 0.8799
1016.20 0.8796
1016.30 0.8793
1016.40 0.879
1016.50 0.8788
1016.60 0.8785
1016.70 0.8782
1016.80 0.8779
1016.90 0.8776
1017.00 0.8773
1017.10 0.877
1017.20 0.8767
1017.30 0.8764
1017.40 0.8761
1017.50 0.8758
1017.60 0.8755
1017.70 0.8752
1017.80 0.8749
1017.90 0.8746
1018.00 0.8743
1018.10 0.8741
1018.20 0.8738
1018.30 0.8735
1018.40 0.8732
1018.50 0.8729
1018.60 0.8726
1018.70 0.8723
1018.80 0.872
1018.90 0.8717
1019.00 0.8714
1019.10 0.8711
1019.20 0.8708
1019.30 0.8706
1019.40 0.8703
1019.50 0.87
1019.60 0.8697
1019.70 0.8694
1019.80 0.8691
1019.90 0.8688
1020.00 0.8685
1020.10 0.8682
1020.20 0.868
1020.30 0.8677
1020.40 0.8674
1020.50 0.8671
1020.60 0.8668
1020.70 0.8665
1020.80 0.8662
1020.90 0.8659
1021.00 0.8657
1021.10 0.8654
1021.20 0.8651
1021.30 0.8648
1021.40 0.8645
1021.50 0.8642
1021.60 0.8639
1021.70 0.8637
1021.80 0.8634
1021.90 0.8631
1022.00 0.8628
1022.10 0.8625
1022.20 0.8622
1022.30 0.862
1022.40 0.8617
1022.50 0.8614
1022.60 0.8611
1022.70 0.8608
1022.80 0.8605
1022.90 0.8603
1023.00 0.86
1023.10 0.8597
1023.20 0.8594
1023.30 0.8591
1023.40 0.8589
1023.50 0.8586
1023.60 0.8583
1023.70 0.858
1023.80 0.8577
1023.90 0.8574
1024.00 0.8572
1024.10 0.8569
1024.20 0.8566
1024.30 0.8563
1024.40 0.856
1024.50 0.8558
1024.60 0.8555
1024.70 0.8552
1024.80 0.8549
1024.90 0.8547
1025.00 0.8544
1025.10 0.8541
1025.20 0.8538
1025.30 0.8535
1025.40 0.8533
1025.50 0.853
1025.60 0.8527
1025.70 0.8524
1025.80 0.8522
1025.90 0.8519
1026.00 0.8516
1026.10 0.8513
1026.20 0.8511
1026.30 0.8508
1026.40 0.8505
1026.50 0.8502
1026.60 0.85
1026.70 0.8497
1026.80 0.8494
1026.90 0.8491
1027.00 0.8489
1027.10 0.8486
1027.20 0.8483
1027.30 0.8481
1027.40 0.8478
1027.50 0.8475
1027.60 0.8473
1027.70 0.847
1027.80 0.8467
1027.90 0.8465
1028.00 0.8462
1028.10 0.8459
1028.20 0.8457
1028.30 0.8454
1028.40 0.8451
1028.50 0.8449
1028.60 0.8446
1028.70 0.8443
1028.80 0.8441
1028.90 0.8438
1029.00 0.8436
1029.10 0.8433
1029.20 0.843
1029.30 0.8428
1029.40 0.8425
1029.50 0.8422
1029.60 0.842
1029.70 0.8417
1029.80 0.8414
1029.90 0.8412
1030.00 0.8409
1030.10 0.8406
1030.20 0.8404
1030.30 0.8401
1030.40 0.8399
1030.50 0.8396
1030.60 0.8393
1030.70 0.8391
1030.80 0.8388
1030.90 0.8385
1031.00 0.8383
1031.10 0.838
1031.20 0.8378
1031.30 0.8375
1031.40 0.8372
1031.50 0.837
1031.60 0.8367
1031.70 0.8364
1031.80 0.8362
1031.90 0.8359
1032.00 0.8357
1032.10 0.8354
1032.20 0.8352
1032.30 0.8349
1032.40 0.8347
1032.50 0.8344
1032.60 0.8342
1032.70 0.8339
1032.80 0.8337
1032.90 0.8334
1033.00 0.8332
1033.10 0.8329
1033.20 0.8327
1033.30 0.8324
1033.40 0.8322
1033.50 0.8319
1033.60 0.8317
1033.70 0.8314
1033.80 0.8312
1033.90 0.8309
1034.00 0.8307
1034.10 0.8304
1034.20 0.8302
1034.30 0.8299
1034.40 0.8297
1034.50 0.8294
1034.60 0.8292
1034.70 0.8289
1034.80 0.8287
1034.90 0.8284
1035.00 0.8282
1035.10 0.8279
1035.20 0.8277
1035.30 0.8274
1035.40 0.8272
1035.50 0.8269
1035.60 0.8267
1035.70 0.8264
1035.80 0.8262
1035.90 0.8259
1036.00 0.8257
1036.10 0.8254
1036.20 0.8252
1036.30 0.8249
1036.40 0.8247
1036.50 0.8245
1036.60 0.8242
1036.70 0.824
1036.80 0.8237
1036.90 0.8235
1037.00 0.8232
1037.10 0.823
1037.20 0.8227
1037.30 0.8225
1037.40 0.8223
1037.50 0.822
1037.60 0.8218
1037.70 0.8216
1037.80 0.8213
1037.90 0.8211
1038.00 0.8209
1038.10 0.8206
1038.20 0.8204
1038.30 0.8202
1038.40 0.8199
1038.50 0.8197
1038.60 0.8195
1038.70 0.8192
1038.80 0.819
1038.90 0.8188
1039.00 0.8185
1039.10 0.8183
1039.20 0.818
1039.30 0.8178
1039.40 0.8176
1039.50 0.8173
1039.60 0.8171
1039.70 0.8169
1039.80 0.8166
1039.90 0.8164
1040.00 0.8162
1040.10 0.8159
1040.20 0.8157
1040.30 0.8155
1040.40 0.8152
1040.50 0.815
1040.60 0.8148
1040.70 0.8145
1040.80 0.8143
1040.90 0.8141
1041.00 0.8138
1041.10 0.8136
1041.20 0.8134
1041.30 0.8131
1041.40 0.8129
1041.50 0.8127
1041.60 0.8125
1041.70 0.8122
1041.80 0.812
1041.90 0.8118
1042.00 0.8115
1042.10 0.8113
1042.20 0.8111
1042.30 0.8109
1042.40 0.8106
1042.50 0.8104
1042.60 0.8102
1042.70 0.81
1042.80 0.8098
1042.90 0.8095
1043.00 0.8093
1043.10 0.8091
1043.20 0.8089
1043.30 0.8087
1043.40 0.8084
1043.50 0.8082
1043.60 0.808
1043.70 0.8078
1043.80 0.8076
1043.90 0.8074
1044.00 0.8071
1044.10 0.8069
1044.20 0.8067
1044.30 0.8065
1044.40 0.8063
1044.50 0.806
1044.60 0.8058
1044.70 0.8056
1044.80 0.8054
1044.90 0.8052
1045.00 0.8049
1045.10 0.8047
1045.20 0.8045
1045.30 0.8043
1045.40 0.8041
1045.50 0.8039
1045.60 0.8036
1045.70 0.8034
1045.80 0.8032
1045.90 0.803
1046.00 0.8028
1046.10 0.8026
1046.20 0.8023
1046.30 0.8021
1046.40 0.8019
1046.50 0.8017
1046.60 0.8015
1046.70 0.8013
1046.80 0.801
1046.90 0.8008
1047.00 0.8006
1047.10 0.8004
1047.20 0.8002
1047.30 0.8
1047.40 0.7998
1047.50 0.7996
1047.60 0.7994
1047.70 0.7992
1047.80 0.799
1047.90 0.7987
1048.00 0.7985
1048.10 0.7983
1048.20 0.7981
1048.30 0.7979
1048.40 0.7977
1048.50 0.7975
1048.60 0.7973
1048.70 0.7971
1048.80 0.7969
1048.90 0.7967
1049.00 0.7965
1049.10 0.7963
1049.20 0.7961
1049.30 0.7959
1049.40 0.7957
1049.50 0.7955
1049.60 0.7953
1049.70 0.7951
1049.80 0.7949
1049.90 0.7947
1050.00 0.7945
1050.10 0.7942
1050.20 0.794
1050.30 0.7938
1050.40 0.7936
1050.50 0.7934
1050.60 0.7932
1050.70 0.793
1050.80 0.7928
1050.90 0.7926
1051.00 0.7924
1051.10 0.7922
1051.20 0.792
1051.30 0.7918
1051.40 0.7916
1051.50 0.7914
1051.60 0.7912
1051.70 0.791
1051.80 0.7908
1051.90 0.7906
1052.00 0.7904
1052.10 0.7902
1052.20 0.79
1052.30 0.7898
1052.40 0.7896
1052.50 0.7894
1052.60 0.7892
1052.70 0.789
1052.80 0.7889
1052.90 0.7887
1053.00 0.7885
1053.10 0.7883
1053.20 0.7881
1053.30 0.7879
1053.40 0.7877
1053.50 0.7875
1053.60 0.7873
1053.70 0.7871
1053.80 0.787
1053.90 0.7868
1054.00 0.7866
1054.10 0.7864
1054.20 0.7862
1054.30 0.786
1054.40 0.7858
1054.50 0.7856
1054.60 0.7854
1054.70 0.7852
1054.80 0.7851
1054.90 0.7849
1055.00 0.7847
1055.10 0.7845
1055.20 0.7843
1055.30 0.7841
1055.40 0.7839
1055.50 0.7837
1055.60 0.7835
1055.70 0.7834
1055.80 0.7832
1055.90 0.783
1056.00 0.7828
1056.10 0.7826
1056.20 0.7824
1056.30 0.7822
1056.40 0.782
1056.50 0.7818
1056.60 0.7817
1056.70 0.7815
1056.80 0.7813
1056.90 0.7811
1057.00 0.7809
1057.10 0.7807
1057.20 0.7805
1057.30 0.7804
1057.40 0.7802
1057.50 0.78
1057.60 0.7798
1057.70 0.7797
1057.80 0.7795
1057.90 0.7793
1058.00 0.7791
1058.10 0.779
1058.20 0.7788
1058.30 0.7786
1058.40 0.7784
1058.50 0.7783
1058.60 0.7781
1058.70 0.7779
1058.80 0.7777
1058.90 0.7776
1059.00 0.7774
1059.10 0.7772
1059.20 0.777
1059.30 0.7769
1059.40 0.7767
1059.50 0.7765
1059.60 0.7763
1059.70 0.7762
1059.80 0.776
1059.90 0.7758
1060.00 0.7756
1060.10 0.7755
1060.20 0.7753
1060.30 0.7751
1060.40 0.7749
1060.50 0.7748
1060.60 0.7746
1060.70 0.7744
1060.80 0.7742
1060.90 0.7741
1061.00 0.7739
1061.10 0.7737
1061.20 0.7735
1061.30 0.7734
1061.40 0.7732
1061.50 0.773
1061.60 0.7728
1061.70 0.7727
1061.80 0.7725
1061.90 0.7723
1062.00 0.7721
1062.10 0.772
1062.20 0.7718
1062.30 0.7716
1062.40 0.7715
1062.50 0.7713
1062.60 0.7711
1062.70 0.771
1062.80 0.7708
1062.90 0.7707
1063.00 0.7705
1063.10 0.7703
1063.20 0.7702
1063.30 0.77
1063.40 0.7698
1063.50 0.7697
1063.60 0.7695
1063.70 0.7693
1063.80 0.7692
1063.90 0.769
1064.00 0.7689
1064.10 0.7687
1064.20 0.7685
1064.30 0.7684
1064.40 0.7682
1064.50 0.768
1064.60 0.7679
1064.70 0.7677
1064.80 0.7675
1064.90 0.7674
1065.00 0.7672
1065.10 0.7671
1065.20 0.7669
1065.30 0.7667
1065.40 0.7666
1065.50 0.7664
1065.60 0.7662
1065.70 0.7661
1065.80 0.7659
1065.90 0.7658
1066.00 0.7656
1066.10 0.7654
1066.20 0.7653
1066.30 0.7651
1066.40 0.7649
1066.50 0.7648
1066.60 0.7646
1066.70 0.7645
1066.80 0.7643
1066.90 0.7641
1067.00 0.764
1067.10 0.7638
1067.20 0.7637
1067.30 0.7635
1067.40 0.7634
1067.50 0.7632
1067.60 0.7631
1067.70 0.7629
1067.80 0.7628
1067.90 0.7626
1068.00 0.7625
1068.10 0.7623
1068.20 0.7622
1068.30 0.762
1068.40 0.7619
1068.50 0.7617
1068.60 0.7616
1068.70 0.7614
1068.80 0.7613
1068.90 0.7612
1069.00 0.761
1069.10 0.7609
1069.20 0.7607
1069.30 0.7606
1069.40 0.7604
1069.50 0.7603
1069.60 0.7601
1069.70 0.76
1069.80 0.7598
1069.90 0.7597
1070.00 0.7595
1070.10 0.7594
1070.20 0.7592
1070.30 0.7591
1070.40 0.7589
1070.50 0.7588
1070.60 0.7586
1070.70 0.7585
1070.80 0.7583
1070.90 0.7582
1071.00 0.7581
1071.10 0.7579
1071.20 0.7578
1071.30 0.7576
1071.40 0.7575
1071.50 0.7573
1071.60 0.7572
1071.70 0.757
1071.80 0.7569
1071.90 0.7567
1072.00 0.7566
1072.10 0.7564
1072.20 0.7563
1072.30 0.7561
1072.40 0.756
1072.50 0.7559
1072.60 0.7557
1072.70 0.7556
1072.80 0.7554
1072.90 0.7553
1073.00 0.7551
1073.10 0.755
1073.20 0.7549
1073.30 0.7547
1073.40 0.7546
1073.50 0.7544
1073.60 0.7543
1073.70 0.7541
1073.80 0.754
1073.90 0.7539
1074.00 0.7537
1074.10 0.7536
1074.20 0.7534
1074.30 0.7533
1074.40 0.7532
1074.50 0.753
1074.60 0.7529
1074.70 0.7528
1074.80 0.7526
1074.90 0.7525
1075.00 0.7523
1075.10 0.7522
1075.20 0.7521
1075.30 0.7519
1075.40 0.7518
1075.50 0.7516
1075.60 0.7515
1075.70 0.7514
1075.80 0.7512
1075.90 0.7511
1076.00 0.751
1076.10 0.7508
1076.20 0.7507
1076.30 0.7505
1076.40 0.7504
1076.50 0.7503
1076.60 0.7501
1076.70 0.75
1076.80 0.7498
1076.90 0.7497
1077.00 0.7496
1077.10 0.7494
1077.20 0.7493
1077.30 0.7492
1077.40 0.749
1077.50 0.7489
1077.60 0.7487
1077.70 0.7486
1077.80 0.7485
1077.90 0.7483
1078.00 0.7482
1078.10 0.7481
1078.20 0.7479
1078.30 0.7478
1078.40 0.7477
1078.50 0.7475
1078.60 0.7474
1078.70 0.7473
1078.80 0.7471
1078.90 0.747
1079.00 0.7469
1079.10 0.7467
1079.20 0.7466
1079.30 0.7465
1079.40 0.7463
1079.50 0.7462
1079.60 0.7461
1079.70 0.7459
1079.80 0.7458
1079.90 0.7457
1080.00 0.7456
1080.10 0.7454
1080.20 0.7453
1080.30 0.7452
1080.40 0.7451
1080.50 0.7449
1080.60 0.7448
1080.70 0.7447
1080.80 0.7446
1080.90 0.7444
1081.00 0.7443
1081.10 0.7442
1081.20 0.7441
1081.30 0.7439
1081.40 0.7438
1081.50 0.7437
1081.60 0.7435
1081.70 0.7434
1081.80 0.7433
1081.90 0.7432
1082.00 0.743
1082.10 0.7429
1082.20 0.7428
1082.30 0.7426
1082.40 0.7425
1082.50 0.7424
1082.60 0.7423
1082.70 0.7421
1082.80 0.742
1082.90 0.7419
1083.00 0.7418
1083.10 0.7416
1083.20 0.7415
1083.30 0.7414
1083.40 0.7412
1083.50 0.7411
1083.60 0.741
1083.70 0.7409
1083.80 0.7407
1083.90 0.7406
1084.00 0.7405
1084.10 0.7404
1084.20 0.7403
1084.30 0.7401
1084.40 0.74
1084.50 0.7399
1084.60 0.7398
1084.70 0.7396
1084.80 0.7395
1084.90 0.7394
1085.00 0.7393
1085.10 0.7391
1085.20 0.739
1085.30 0.7389
1085.40 0.7388
1085.50 0.7387
1085.60 0.7385
1085.70 0.7384
1085.80 0.7383
1085.90 0.7382
1086.00 0.738
1086.10 0.7379
1086.20 0.7378
1086.30 0.7377
1086.40 0.7376
1086.50 0.7374
1086.60 0.7373
1086.70 0.7372
1086.80 0.7371
1086.90 0.737
1087.00 0.7368
1087.10 0.7367
1087.20 0.7366
1087.30 0.7365
1087.40 0.7364
1087.50 0.7362
1087.60 0.7361
1087.70 0.736
1087.80 0.7359
1087.90 0.7358
1088.00 0.7356
1088.10 0.7355
1088.20 0.7354
1088.30 0.7353
1088.40 0.7352
1088.50 0.735
1088.60 0.7349
1088.70 0.7348
1088.80 0.7347
1088.90 0.7346
1089.00 0.7345
1089.10 0.7343
1089.20 0.7342
1089.30 0.7341
1089.40 0.734
1089.50 0.7339
1089.60 0.7338
1089.70 0.7336
1089.80 0.7335
1089.90 0.7334
1090.00 0.7333
1090.10 0.7332
1090.20 0.7331
1090.30 0.7329
1090.40 0.7328
1090.50 0.7327
1090.60 0.7326
1090.70 0.7325
1090.80 0.7324
1090.90 0.7323
1091.00 0.7321
1091.10 0.732
1091.20 0.7319
1091.30 0.7318
1091.40 0.7317
1091.50 0.7316
1091.60 0.7314
1091.70 0.7313
1091.80 0.7312
1091.90 0.7311
1092.00 0.731
1092.10 0.7309
1092.20 0.7307
1092.30 0.7306
1092.40 0.7305
1092.50 0.7304
1092.60 0.7303
1092.70 0.7302
1092.80 0.7301
1092.90 0.73
1093.00 0.7299
1093.10 0.7298
1093.20 0.7297
1093.30 0.7296
1093.40 0.7295
1093.50 0.7294
1093.60 0.7293
1093.70 0.7292
1093.80 0.729
1093.90 0.7289
1094.00 0.7288
1094.10 0.7287
1094.20 0.7286
1094.30 0.7285
1094.40 0.7284
1094.50 0.7283
1094.60 0.7282
1094.70 0.7281
1094.80 0.728
1094.90 0.7278
1095.00 0.7277
1095.10 0.7276
1095.20 0.7275
1095.30 0.7274
1095.40 0.7273
1095.50 0.7272
1095.60 0.7271
1095.70 0.727
1095.80 0.7268
1095.90 0.7267
1096.00 0.7266
1096.10 0.7265
1096.20 0.7264
1096.30 0.7263
1096.40 0.7262
1096.50 0.7261
1096.60 0.726
1096.70 0.7258
1096.80 0.7257
1096.90 0.7256
1097.00 0.7255
1097.10 0.7254
1097.20 0.7253
1097.30 0.7252
1097.40 0.7251
1097.50 0.725
1097.60 0.7249
1097.70 0.7248
1097.80 0.7246
1097.90 0.7245
1098.00 0.7244
1098.10 0.7243
1098.20 0.7242
1098.30 0.7241
1098.40 0.724
1098.50 0.7239
1098.60 0.7238
1098.70 0.7237
1098.80 0.7235
1098.90 0.7234
1099.00 0.7233
1099.10 0.7232
1099.20 0.7231
1099.30 0.723
1099.40 0.7229
1099.50 0.7228
1099.60 0.7227
1099.70 0.7226
1099.80 0.7225
1099.90 0.7224
1100.00 0.7223
1100.10 0.7222
1100.20 0.722
1100.30 0.7219
1100.40 0.7218
1100.50 0.7217
1100.60 0.7216
1100.70 0.7215
1100.80 0.7214
1100.90 0.7213
1101.00 0.7212
1101.10 0.7211
1101.20 0.721
1101.30 0.7209
1101.40 0.7208
1101.50 0.7207
1101.60 0.7206
1101.70 0.7205
1101.80 0.7204
1101.90 0.7203
1102.00 0.7202
1102.10 0.72
1102.20 0.7199
1102.30 0.7198
1102.40 0.7197
1102.50 0.7196
1102.60 0.7195
1102.70 0.7194
1102.80 0.7193
1102.90 0.7192
1103.00 0.7191
1103.10 0.719
1103.20 0.7189
1103.30 0.7188
1103.40 0.7187
1103.50 0.7186
1103.60 0.7185
1103.70 0.7184
1103.80 0.7182
1103.90 0.7181
1104.00 0.718
1104.10 0.7179
1104.20 0.7178
1104.30 0.7177
1104.40 0.7176
1104.50 0.7175
1104.60 0.7174
1104.70 0.7173
1104.80 0.7172
1104.90 0.7171
1105.00 0.717
1105.10 0.7169
1105.20 0.7168
1105.30 0.7167
1105.40 0.7166
1105.50 0.7165
1105.60 0.7164
1105.70 0.7163
1105.80 0.7162
1105.90 0.7161
1106.00 0.716
1106.10 0.7159
1106.20 0.7158
1106.30 0.7157
1106.40 0.7156
1106.50 0.7155
1106.60 0.7154
1106.70 0.7153
1106.80 0.7152
1106.90 0.7151
1107.00 0.715
1107.10 0.7149
1107.20 0.7148
1107.30 0.7147
1107.40 0.7145
1107.50 0.7144
1107.60 0.7143
1107.70 0.7142
1107.80 0.7141
1107.90 0.714
1108.00 0.7139
1108.10 0.7138
1108.20 0.7137
1108.30 0.7136
1108.40 0.7135
1108.50 0.7134
1108.60 0.7133
1108.70 0.7132
1108.80 0.7131
1108.90 0.713
1109.00 0.7129
1109.10 0.7128
1109.20 0.7127
1109.30 0.7126
1109.40 0.7125
1109.50 0.7124
1109.60 0.7123
1109.70 0.7122
1109.80 0.7121
1109.90 0.712
1110.00 0.7119
1110.10 0.7118
1110.20 0.7117
1110.30 0.7116
1110.40 0.7115
1110.50 0.7114
1110.60 0.7113
1110.70 0.7112
1110.80 0.7111
1110.90 0.711
1111.00 0.7109
1111.10 0.7108
1111.20 0.7107
1111.30 0.7106
1111.40 0.7105
1111.50 0.7104
1111.60 0.7103
1111.70 0.7102
1111.80 0.7101
1111.90 0.71
1112.00 0.7099
1112.10 0.7098
1112.20 0.7097
1112.30 0.7096
1112.40 0.7095
1112.50 0.7094
1112.60 0.7093
1112.70 0.7092
1112.80 0.7091
1112.90 0.709
1113.00 0.7089
1113.10 0.7088
1113.20 0.7087
1113.30 0.7086
1113.40 0.7085
1113.50 0.7084
1113.60 0.7083
1113.70 0.7082
1113.80 0.7081
1113.90 0.708
1114.00 0.7079
1114.10 0.7078
1114.20 0.7077
1114.30 0.7076
1114.40 0.7075
1114.50 0.7074
1114.60 0.7073
1114.70 0.7072
1114.80 0.7071
1114.90 0.707
1115.00 0.7069
1115.10 0.7068
1115.20 0.7067
1115.30 0.7066
1115.40 0.7065
1115.50 0.7064
1115.60 0.7063
1115.70 0.7062
1115.80 0.7061
1115.90 0.706
1116.00 0.7059
1116.10 0.7058
1116.20 0.7057
1116.30 0.7056
1116.40 0.7055
1116.50 0.7054
1116.60 0.7053
1116.70 0.7052
1116.80 0.7051
1116.90 0.7051
1117.00 0.705
1117.10 0.7049
1117.20 0.7048
1117.30 0.7047
1117.40 0.7046
1117.50 0.7045
1117.60 0.7044
1117.70 0.7043
1117.80 0.7042
1117.90 0.7041
1118.00 0.704
1118.10 0.7039
1118.20 0.7038
1118.30 0.7037
1118.40 0.7036
1118.50 0.7035
1118.60 0.7034
1118.70 0.7033
1118.80 0.7032
1118.90 0.7031
1119.00 0.703
1119.10 0.7029
1119.20 0.7028
1119.30 0.7027
1119.40 0.7026
1119.50 0.7025
1119.60 0.7024
1119.70 0.7023
1119.80 0.7022
1119.90 0.7022
1120.00 0.7021
1120.10 0.702
1120.20 0.7019
1120.30 0.7018
1120.40 0.7017
1120.50 0.7016
1120.60 0.7015
1120.70 0.7014
1120.80 0.7013
1120.90 0.7012
1121.00 0.7011
1121.10 0.701
1121.20 0.7009
1121.30 0.7008
1121.40 0.7007
1121.50 0.7006
1121.60 0.7005
1121.70 0.7004
1121.80 0.7003
1121.90 0.7002
1122.00 0.7001
1122.10 0.7
1122.20 0.6999
1122.30 0.6998
1122.40 0.6997
1122.50 0.6996
1122.60 0.6996
1122.70 0.6995
1122.80 0.6994
1122.90 0.6993
1123.00 0.6992
1123.10 0.6991
1123.20 0.699
1123.30 0.6989
1123.40 0.6988
1123.50 0.6987
1123.60 0.6986
1123.70 0.6985
1123.80 0.6984
1123.90 0.6983
1124.00 0.6982
1124.10 0.6981
1124.20 0.698
1124.30 0.6979
1124.40 0.6978
1124.50 0.6977
1124.60 0.6976
1124.70 0.6975
1124.80 0.6974
1124.90 0.6973
1125.00 0.6972
1125.10 0.6971
1125.20 0.697
1125.30 0.6969
1125.40 0.6968
1125.50 0.6967
1125.60 0.6966
1125.70 0.6965
1125.80 0.6964
1125.90 0.6964
1126.00 0.6963
1126.10 0.6962
1126.20 0.6961
1126.30 0.696
1126.40 0.6959
1126.50 0.6958
1126.60 0.6957
1126.70 0.6956
1126.80 0.6955
1126.90 0.6954
1127.00 0.6953
1127.10 0.6952
1127.20 0.6951
1127.30 0.695
1127.40 0.6949
1127.50 0.6948
1127.60 0.6947
1127.70 0.6946
1127.80 0.6945
1127.90 0.6944
1128.00 0.6943
1128.10 0.6942
1128.20 0.6941
1128.30 0.6941
1128.40 0.694
1128.50 0.6939
1128.60 0.6938
1128.70 0.6937
1128.80 0.6936
1128.90 0.6935
1129.00 0.6934
1129.10 0.6933
1129.20 0.6932
1129.30 0.6931
1129.40 0.693
1129.50 0.6929
1129.60 0.6928
1129.70 0.6927
1129.80 0.6926
1129.90 0.6925
1130.00 0.6924
1130.10 0.6923
1130.20 0.6922
1130.30 0.6922
1130.40 0.6921
1130.50 0.692
1130.60 0.6919
1130.70 0.6918
1130.80 0.6917
1130.90 0.6916
1131.00 0.6915
1131.10 0.6914
1131.20 0.6913
1131.30 0.6912
1131.40 0.6911
1131.50 0.691
1131.60 0.6909
1131.70 0.6908
1131.80 0.6907
1131.90 0.6906
1132.00 0.6905
1132.10 0.6904
1132.20 0.6903
1132.30 0.6903
1132.40 0.6902
1132.50 0.6901
1132.60 0.69
1132.70 0.6899
1132.80 0.6898
1132.90 0.6897
1133.00 0.6896
1133.10 0.6895
1133.20 0.6894
1133.30 0.6893
1133.40 0.6892
1133.50 0.6891
1133.60 0.689
1133.70 0.6889
1133.80 0.6888
1133.90 0.6887
1134.00 0.6886
1134.10 0.6885
1134.20 0.6884
1134.30 0.6883
1134.40 0.6882
1134.50 0.6881
1134.60 0.688
1134.70 0.6879
1134.80 0.6878
1134.90 0.6877
1135.00 0.6876
1135.10 0.6875
1135.20 0.6874
1135.30 0.6873
1135.40 0.6872
1135.50 0.6871
1135.60 0.687
1135.70 0.6869
1135.80 0.6868
1135.90 0.6867
1136.00 0.6866
1136.10 0.6865
1136.20 0.6864
1136.30 0.6863
1136.40 0.6862
1136.50 0.6861
1136.60 0.686
1136.70 0.6859
1136.80 0.6858
1136.90 0.6857
1137.00 0.6856
1137.10 0.6855
1137.20 0.6854
1137.30 0.6853
1137.40 0.6852
1137.50 0.6851
1137.60 0.685
1137.70 0.6849
1137.80 0.6848
1137.90 0.6847
1138.00 0.6846
1138.10 0.6845
1138.20 0.6844
1138.30 0.6843
1138.40 0.6842
1138.50 0.6841
1138.60 0.684
1138.70 0.6839
1138.80 0.6838
1138.90 0.6837
1139.00 0.6836
1139.10 0.6835
1139.20 0.6834
1139.30 0.6833
1139.40 0.6832
1139.50 0.6831
1139.60 0.683
1139.70 0.6829
1139.80 0.6828
1139.90 0.6827
1140.00 0.6826
1140.10 0.6825
1140.20 0.6824
1140.30 0.6823
1140.40 0.6822
1140.50 0.6821
1140.60 0.682
1140.70 0.6819
1140.80 0.6818
1140.90 0.6817
1141.00 0.6816
1141.10 0.6815
1141.20 0.6814
1141.30 0.6813
1141.40 0.6812
1141.50 0.6811
1141.60 0.681
1141.70 0.6809
1141.80 0.6808
1141.90 0.6807
1142.00 0.6806
1142.10 0.6805
1142.20 0.6804
1142.30 0.6803
1142.40 0.6802
1142.50 0.6801
1142.60 0.68
1142.70 0.6799
1142.80 0.6798
1142.90 0.6797
1143.00 0.6796
1143.10 0.6795
1143.20 0.6794
1143.30 0.6793
1143.40 0.6792
1143.50 0.6791
1143.60 0.679
1143.70 0.6789
1143.80 0.6788
1143.90 0.6787
1144.00 0.6786
1144.10 0.6785
1144.20 0.6784
1144.30 0.6783
1144.40 0.6782
1144.50 0.6781
1144.60 0.6779
1144.70 0.6778
1144.80 0.6777
1144.90 0.6776
1145.00 0.6775
1145.10 0.6774
1145.20 0.6773
1145.30 0.6772
1145.40 0.6771
1145.50 0.677
1145.60 0.6769
1145.70 0.6768
1145.80 0.6767
1145.90 0.6766
1146.00 0.6765
1146.10 0.6764
1146.20 0.6763
1146.30 0.6762
1146.40 0.6761
1146.50 0.676
1146.60 0.6759
1146.70 0.6758
1146.80 0.6757
1146.90 0.6756
1147.00 0.6755
1147.10 0.6754
1147.20 0.6753
1147.30 0.6752
1147.40 0.6751
1147.50 0.675
1147.60 0.6749
1147.70 0.6748
1147.80 0.6747
1147.90 0.6745
1148.00 0.6744
1148.10 0.6743
1148.20 0.6742
1148.30 0.6741
1148.40 0.674
1148.50 0.6739
1148.60 0.6738
1148.70 0.6737
1148.80 0.6736
1148.90 0.6735
1149.00 0.6734
1149.10 0.6733
1149.20 0.6732
1149.30 0.673
1149.40 0.6729
1149.50 0.6728
1149.60 0.6727
1149.70 0.6726
1149.80 0.6725
1149.90 0.6724
1150.00 0.6723
1150.10 0.6722
1150.20 0.6721
1150.30 0.672
1150.40 0.6719
1150.50 0.6718
1150.60 0.6717
1150.70 0.6716
1150.80 0.6715
1150.90 0.6713
1151.00 0.6712
1151.10 0.6711
1151.20 0.671
1151.30 0.6709
1151.40 0.6708
1151.50 0.6707
1151.60 0.6706
1151.70 0.6705
1151.80 0.6704
1151.90 0.6703
1152.00 0.6702
1152.10 0.6701
1152.20 0.67
1152.30 0.6699
1152.40 0.6698
1152.50 0.6696
1152.60 0.6695
1152.70 0.6694
1152.80 0.6693
1152.90 0.6692
1153.00 0.6691
1153.10 0.669
1153.20 0.6689
1153.30 0.6688
1153.40 0.6687
1153.50 0.6686
1153.60 0.6685
1153.70 0.6683
1153.80 0.6682
1153.90 0.6681
1154.00 0.668
1154.10 0.6679
1154.20 0.6678
1154.30 0.6677
1154.40 0.6676
1154.50 0.6675
1154.60 0.6674
1154.70 0.6673
1154.80 0.6672
1154.90 0.6671
1155.00 0.6669
1155.10 0.6668
1155.20 0.6667
1155.30 0.6666
1155.40 0.6665
1155.50 0.6664
1155.60 0.6663
1155.70 0.6662
1155.80 0.6661
1155.90 0.666
1156.00 0.6659
1156.10 0.6658
1156.20 0.6657
1156.30 0.6656
1156.40 0.6654
1156.50 0.6653
1156.60 0.6652
1156.70 0.6651
1156.80 0.665
1156.90 0.6649
1157.00 0.6648
1157.10 0.6647
1157.20 0.6646
1157.30 0.6645
1157.40 0.6643
1157.50 0.6642
1157.60 0.6641
1157.70 0.664
1157.80 0.6639
1157.90 0.6638
1158.00 0.6637
1158.10 0.6636
1158.20 0.6634
1158.30 0.6633
1158.40 0.6632
1158.50 0.6631
1158.60 0.663
1158.70 0.6629
1158.80 0.6628
1158.90 0.6626
1159.00 0.6625
1159.10 0.6624
1159.20 0.6623
1159.30 0.6622
1159.40 0.6621
1159.50 0.662
1159.60 0.6618
1159.70 0.6617
1159.80 0.6616
1159.90 0.6615
1160.00 0.6614
1160.10 0.6613
1160.20 0.6612
1160.30 0.6611
1160.40 0.6609
1160.50 0.6608
1160.60 0.6607
1160.70 0.6606
1160.80 0.6605
1160.90 0.6604
1161.00 0.6603
1161.10 0.6602
1161.20 0.66
1161.30 0.6599
1161.40 0.6598
1161.50 0.6597
1161.60 0.6596
1161.70 0.6595
1161.80 0.6594
1161.90 0.6592
1162.00 0.6591
1162.10 0.659
1162.20 0.6589
1162.30 0.6588
1162.40 0.6587
1162.50 0.6585
1162.60 0.6584
1162.70 0.6583
1162.80 0.6582
1162.90 0.6581
1163.00 0.658
1163.10 0.6578
1163.20 0.6577
1163.30 0.6576
1163.40 0.6575
1163.50 0.6574
1163.60 0.6573
1163.70 0.6571
1163.80 0.657
1163.90 0.6569
1164.00 0.6568
1164.10 0.6567
1164.20 0.6566
1164.30 0.6564
1164.40 0.6563
1164.50 0.6562
1164.60 0.6561
1164.70 0.656
1164.80 0.6559
1164.90 0.6557
1165.00 0.6556
1165.10 0.6555
1165.20 0.6554
1165.30 0.6553
1165.40 0.6552
1165.50 0.655
1165.60 0.6549
1165.70 0.6548
1165.80 0.6547
1165.90 0.6546
1166.00 0.6545
1166.10 0.6543
1166.20 0.6542
1166.30 0.6541
1166.40 0.654
1166.50 0.6539
1166.60 0.6538
1166.70 0.6537
1166.80 0.6535
1166.90 0.6534
1167.00 0.6533
1167.10 0.6532
1167.20 0.6531
1167.30 0.6529
1167.40 0.6528
1167.50 0.6527
1167.60 0.6526
1167.70 0.6525
1167.80 0.6523
1167.90 0.6522
1168.00 0.6521
1168.10 0.652
1168.20 0.6518
1168.30 0.6517
1168.40 0.6516
1168.50 0.6515
1168.60 0.6514
1168.70 0.6512
1168.80 0.6511
1168.90 0.651
1169.00 0.6509
1169.10 0.6508
1169.20 0.6506
1169.30 0.6505
1169.40 0.6504
1169.50 0.6503
1169.60 0.6502
1169.70 0.65
1169.80 0.6499
1169.90 0.6498
1170.00 0.6497
1170.10 0.6496
1170.20 0.6494
1170.30 0.6493
1170.40 0.6492
1170.50 0.6491
1170.60 0.649
1170.70 0.6488
1170.80 0.6487
1170.90 0.6486
1171.00 0.6485
1171.10 0.6484
1171.20 0.6482
1171.30 0.6481
1171.40 0.648
1171.50 0.6479
1171.60 0.6477
1171.70 0.6476
1171.80 0.6475
1171.90 0.6474
1172.00 0.6473
1172.10 0.6471
1172.20 0.647
1172.30 0.6469
1172.40 0.6468
1172.50 0.6466
1172.60 0.6465
1172.70 0.6464
1172.80 0.6463
1172.90 0.6461
1173.00 0.646
1173.10 0.6459
1173.20 0.6458
1173.30 0.6456
1173.40 0.6455
1173.50 0.6454
1173.60 0.6453
1173.70 0.6451
1173.80 0.645
1173.90 0.6449
1174.00 0.6448
1174.10 0.6446
1174.20 0.6445
1174.30 0.6444
1174.40 0.6443
1174.50 0.6441
1174.60 0.644
1174.70 0.6439
1174.80 0.6438
1174.90 0.6436
1175.00 0.6435
1175.10 0.6434
1175.20 0.6433
1175.30 0.6432
1175.40 0.643
1175.50 0.6429
1175.60 0.6428
1175.70 0.6427
1175.80 0.6425
1175.90 0.6424
1176.00 0.6423
1176.10 0.6422
1176.20 0.642
1176.30 0.6419
1176.40 0.6418
1176.50 0.6417
1176.60 0.6415
1176.70 0.6414
1176.80 0.6413
1176.90 0.6412
1177.00 0.641
1177.10 0.6409
1177.20 0.6408
1177.30 0.6407
1177.40 0.6405
1177.50 0.6404
1177.60 0.6403
1177.70 0.6401
1177.80 0.64
1177.90 0.6399
1178.00 0.6398
1178.10 0.6396
1178.20 0.6395
1178.30 0.6394
1178.40 0.6393
1178.50 0.6391
1178.60 0.639
1178.70 0.6389
1178.80 0.6387
1178.90 0.6386
1179.00 0.6385
1179.10 0.6384
1179.20 0.6382
1179.30 0.6381
1179.40 0.638
1179.50 0.6378
1179.60 0.6377
1179.70 0.6376
1179.80 0.6375
1179.90 0.6373
1180.00 0.6372
1180.10 0.6371
1180.20 0.637
1180.30 0.6368
1180.40 0.6367
1180.50 0.6366
1180.60 0.6364
1180.70 0.6363
1180.80 0.6362
1180.90 0.6361
1181.00 0.6359
1181.10 0.6358
1181.20 0.6357
1181.30 0.6356
1181.40 0.6354
1181.50 0.6353
1181.60 0.6352
1181.70 0.6351
1181.80 0.6349
1181.90 0.6348
1182.00 0.6347
1182.10 0.6345
1182.20 0.6344
1182.30 0.6343
1182.40 0.6341
1182.50 0.634
1182.60 0.6339
1182.70 0.6337
1182.80 0.6336
1182.90 0.6335
1183.00 0.6334
1183.10 0.6332
1183.20 0.6331
1183.30 0.633
1183.40 0.6328
1183.50 0.6327
1183.60 0.6326
1183.70 0.6324
1183.80 0.6323
1183.90 0.6322
1184.00 0.632
1184.10 0.6319
1184.20 0.6318
1184.30 0.6316
1184.40 0.6315
1184.50 0.6314
1184.60 0.6313
1184.70 0.6311
1184.80 0.631
1184.90 0.6309
1185.00 0.6307
1185.10 0.6306
1185.20 0.6305
1185.30 0.6303
1185.40 0.6302
1185.50 0.6301
1185.60 0.6299
1185.70 0.6298
1185.80 0.6297
1185.90 0.6295
1186.00 0.6294
1186.10 0.6293
1186.20 0.6292
1186.30 0.629
1186.40 0.6289
1186.50 0.6288
1186.60 0.6286
1186.70 0.6285
1186.80 0.6284
1186.90 0.6282
1187.00 0.6281
1187.10 0.628
1187.20 0.6278
1187.30 0.6277
1187.40 0.6276
1187.50 0.6275
1187.60 0.6273
1187.70 0.6272
1187.80 0.6271
1187.90 0.6269
1188.00 0.6268
1188.10 0.6267
1188.20 0.6265
1188.30 0.6264
1188.40 0.6263
1188.50 0.6261
1188.60 0.626
1188.70 0.6259
1188.80 0.6257
1188.90 0.6256
1189.00 0.6255
1189.10 0.6253
1189.20 0.6252
1189.30 0.6251
1189.40 0.6249
1189.50 0.6248
1189.60 0.6247
1189.70 0.6245
1189.80 0.6244
1189.90 0.6243
1190.00 0.6242
1190.10 0.624
1190.20 0.6239
1190.30 0.6238
1190.40 0.6236
1190.50 0.6235
1190.60 0.6234
1190.70 0.6232
1190.80 0.6231
1190.90 0.623
1191.00 0.6228
1191.10 0.6227
1191.20 0.6226
1191.30 0.6224
1191.40 0.6223
1191.50 0.6222
1191.60 0.6221
1191.70 0.6219
1191.80 0.6218
1191.90 0.6217
1192.00 0.6215
1192.10 0.6214
1192.20 0.6213
1192.30 0.6211
1192.40 0.621
1192.50 0.6209
1192.60 0.6207
1192.70 0.6206
1192.80 0.6205
1192.90 0.6203
1193.00 0.6202
1193.10 0.6201
1193.20 0.6199
1193.30 0.6198
1193.40 0.6197
1193.50 0.6195
1193.60 0.6194
1193.70 0.6193
1193.80 0.6191
1193.90 0.619
1194.00 0.6189
1194.10 0.6187
1194.20 0.6186
1194.30 0.6185
1194.40 0.6183
1194.50 0.6182
1194.60 0.6181
1194.70 0.6179
1194.80 0.6178
1194.90 0.6177
1195.00 0.6175
1195.10 0.6174
1195.20 0.6173
1195.30 0.6171
1195.40 0.617
1195.50 0.6169
1195.60 0.6167
1195.70 0.6166
1195.80 0.6165
1195.90 0.6163
1196.00 0.6162
1196.10 0.6161
1196.20 0.6159
1196.30 0.6158
1196.40 0.6157
1196.50 0.6155
1196.60 0.6154
1196.70 0.6153
1196.80 0.6151
1196.90 0.615
1197.00 0.6149
1197.10 0.6147
1197.20 0.6146
1197.30 0.6145
1197.40 0.6143
1197.50 0.6142
1197.60 0.6141
1197.70 0.6139
1197.80 0.6138
1197.90 0.6137
1198.00 0.6135
1198.10 0.6134
1198.20 0.6132
1198.30 0.6131
1198.40 0.613
1198.50 0.6128
1198.60 0.6127
1198.70 0.6126
1198.80 0.6124
1198.90 0.6123
1199.00 0.6122
1199.10 0.612
1199.20 0.6119
1199.30 0.6118
1199.40 0.6116
1199.50 0.6115
1199.60 0.6113
1199.70 0.6112
1199.80 0.6111
1199.90 0.6109
1200.00 0
