# Version 2.1 - nm, norm@500 to 1, cut digits, bergeron_12500_65.dat_12500
# Wavelength(nm)  Flambda(ergs/cm^s/s/nm)
300.00 1.568
300.10 1.567
300.20 1.566
300.30 1.565
300.40 1.564
300.50 1.563
300.60 1.562
300.70 1.561
300.80 1.56
300.90 1.559
301.00 1.558
301.10 1.557
301.20 1.556
301.30 1.555
301.40 1.554
301.50 1.553
301.60 1.552
301.70 1.551
301.80 1.55
301.90 1.549
302.00 1.548
302.10 1.547
302.20 1.546
302.30 1.545
302.40 1.544
302.50 1.543
302.60 1.543
302.70 1.542
302.80 1.541
302.90 1.54
303.00 1.539
303.10 1.538
303.20 1.537
303.30 1.536
303.40 1.535
303.50 1.534
303.60 1.533
303.70 1.532
303.80 1.531
303.90 1.53
304.00 1.529
304.10 1.528
304.20 1.527
304.30 1.526
304.40 1.526
304.50 1.525
304.60 1.524
304.70 1.523
304.80 1.522
304.90 1.521
305.00 1.52
305.10 1.519
305.20 1.518
305.30 1.517
305.40 1.516
305.50 1.515
305.60 1.514
305.70 1.513
305.80 1.512
305.90 1.512
306.00 1.511
306.10 1.51
306.20 1.509
306.30 1.508
306.40 1.507
306.50 1.506
306.60 1.505
306.70 1.504
306.80 1.503
306.90 1.502
307.00 1.501
307.10 1.501
307.20 1.5
307.30 1.499
307.40 1.498
307.50 1.497
307.60 1.496
307.70 1.495
307.80 1.494
307.90 1.493
308.00 1.492
308.10 1.491
308.20 1.49
308.30 1.49
308.40 1.489
308.50 1.488
308.60 1.487
308.70 1.486
308.80 1.485
308.90 1.484
309.00 1.483
309.10 1.482
309.20 1.481
309.30 1.481
309.40 1.48
309.50 1.479
309.60 1.478
309.70 1.477
309.80 1.476
309.90 1.475
310.00 1.474
310.10 1.473
310.20 1.473
310.30 1.472
310.40 1.471
310.50 1.47
310.60 1.469
310.70 1.468
310.80 1.467
310.90 1.466
311.00 1.465
311.10 1.465
311.20 1.464
311.30 1.463
311.40 1.462
311.50 1.461
311.60 1.46
311.70 1.459
311.80 1.458
311.90 1.457
312.00 1.457
312.10 1.456
312.20 1.455
312.30 1.454
312.40 1.453
312.50 1.452
312.60 1.451
312.70 1.45
312.80 1.45
312.90 1.449
313.00 1.448
313.10 1.447
313.20 1.446
313.30 1.445
313.40 1.444
313.50 1.444
313.60 1.443
313.70 1.442
313.80 1.441
313.90 1.44
314.00 1.439
314.10 1.438
314.20 1.437
314.30 1.437
314.40 1.436
314.50 1.435
314.60 1.434
314.70 1.433
314.80 1.432
314.90 1.431
315.00 1.431
315.10 1.43
315.20 1.429
315.30 1.428
315.40 1.427
315.50 1.426
315.60 1.425
315.70 1.425
315.80 1.424
315.90 1.423
316.00 1.422
316.10 1.421
316.20 1.42
316.30 1.42
316.40 1.419
316.50 1.418
316.60 1.417
316.70 1.416
316.80 1.415
316.90 1.414
317.00 1.414
317.10 1.413
317.20 1.412
317.30 1.411
317.40 1.41
317.50 1.409
317.60 1.409
317.70 1.408
317.80 1.407
317.90 1.406
318.00 1.405
318.10 1.404
318.20 1.404
318.30 1.403
318.40 1.402
318.50 1.401
318.60 1.4
318.70 1.399
318.80 1.399
318.90 1.398
319.00 1.397
319.10 1.396
319.20 1.395
319.30 1.394
319.40 1.394
319.50 1.393
319.60 1.392
319.70 1.391
319.80 1.39
319.90 1.39
320.00 1.389
320.10 1.388
320.20 1.387
320.30 1.386
320.40 1.385
320.50 1.385
320.60 1.384
320.70 1.383
320.80 1.382
320.90 1.381
321.00 1.381
321.10 1.38
321.20 1.379
321.30 1.378
321.40 1.377
321.50 1.376
321.60 1.376
321.70 1.375
321.80 1.374
321.90 1.373
322.00 1.372
322.10 1.372
322.20 1.371
322.30 1.37
322.40 1.369
322.50 1.368
322.60 1.368
322.70 1.367
322.80 1.366
322.90 1.365
323.00 1.364
323.10 1.364
323.20 1.363
323.30 1.362
323.40 1.361
323.50 1.36
323.60 1.36
323.70 1.359
323.80 1.358
323.90 1.357
324.00 1.356
324.10 1.356
324.20 1.355
324.30 1.354
324.40 1.353
324.50 1.352
324.60 1.352
324.70 1.351
324.80 1.35
324.90 1.349
325.00 1.348
325.10 1.348
325.20 1.347
325.30 1.346
325.40 1.345
325.50 1.345
325.60 1.344
325.70 1.343
325.80 1.342
325.90 1.341
326.00 1.341
326.10 1.34
326.20 1.339
326.30 1.338
326.40 1.338
326.50 1.337
326.60 1.336
326.70 1.335
326.80 1.334
326.90 1.334
327.00 1.333
327.10 1.332
327.20 1.331
327.30 1.331
327.40 1.33
327.50 1.329
327.60 1.328
327.70 1.327
327.80 1.327
327.90 1.326
328.00 1.325
328.10 1.324
328.20 1.324
328.30 1.323
328.40 1.322
328.50 1.321
328.60 1.32
328.70 1.32
328.80 1.319
328.90 1.318
329.00 1.317
329.10 1.317
329.20 1.316
329.30 1.315
329.40 1.314
329.50 1.314
329.60 1.313
329.70 1.312
329.80 1.311
329.90 1.311
330.00 1.31
330.10 1.309
330.20 1.308
330.30 1.308
330.40 1.307
330.50 1.306
330.60 1.305
330.70 1.305
330.80 1.304
330.90 1.303
331.00 1.302
331.10 1.302
331.20 1.301
331.30 1.3
331.40 1.299
331.50 1.299
331.60 1.298
331.70 1.297
331.80 1.296
331.90 1.296
332.00 1.295
332.10 1.294
332.20 1.293
332.30 1.293
332.40 1.292
332.50 1.291
332.60 1.29
332.70 1.29
332.80 1.289
332.90 1.288
333.00 1.287
333.10 1.287
333.20 1.286
333.30 1.285
333.40 1.284
333.50 1.284
333.60 1.283
333.70 1.282
333.80 1.281
333.90 1.281
334.00 1.28
334.10 1.279
334.20 1.279
334.30 1.278
334.40 1.277
334.50 1.276
334.60 1.276
334.70 1.275
334.80 1.274
334.90 1.273
335.00 1.273
335.10 1.272
335.20 1.271
335.30 1.27
335.40 1.27
335.50 1.269
335.60 1.268
335.70 1.268
335.80 1.267
335.90 1.266
336.00 1.265
336.10 1.265
336.20 1.264
336.30 1.263
336.40 1.263
336.50 1.262
336.60 1.261
336.70 1.26
336.80 1.26
336.90 1.259
337.00 1.258
337.10 1.258
337.20 1.257
337.30 1.256
337.40 1.255
337.50 1.255
337.60 1.254
337.70 1.253
337.80 1.253
337.90 1.252
338.00 1.251
338.10 1.25
338.20 1.25
338.30 1.249
338.40 1.248
338.50 1.248
338.60 1.247
338.70 1.246
338.80 1.245
338.90 1.245
339.00 1.244
339.10 1.243
339.20 1.243
339.30 1.242
339.40 1.241
339.50 1.24
339.60 1.24
339.70 1.239
339.80 1.238
339.90 1.238
340.00 1.237
340.10 1.236
340.20 1.236
340.30 1.235
340.40 1.234
340.50 1.233
340.60 1.233
340.70 1.232
340.80 1.231
340.90 1.231
341.00 1.23
341.10 1.229
341.20 1.229
341.30 1.228
341.40 1.227
341.50 1.226
341.60 1.226
341.70 1.225
341.80 1.224
341.90 1.224
342.00 1.223
342.10 1.222
342.20 1.222
342.30 1.221
342.40 1.22
342.50 1.22
342.60 1.219
342.70 1.218
342.80 1.218
342.90 1.217
343.00 1.216
343.10 1.215
343.20 1.215
343.30 1.214
343.40 1.213
343.50 1.213
343.60 1.212
343.70 1.211
343.80 1.211
343.90 1.21
344.00 1.209
344.10 1.209
344.20 1.208
344.30 1.207
344.40 1.207
344.50 1.206
344.60 1.205
344.70 1.205
344.80 1.204
344.90 1.203
345.00 1.203
345.10 1.202
345.20 1.201
345.30 1.201
345.40 1.2
345.50 1.199
345.60 1.198
345.70 1.198
345.80 1.197
345.90 1.196
346.00 1.196
346.10 1.195
346.20 1.194
346.30 1.194
346.40 1.193
346.50 1.192
346.60 1.192
346.70 1.191
346.80 1.19
346.90 1.19
347.00 1.189
347.10 1.188
347.20 1.188
347.30 1.187
347.40 1.186
347.50 1.186
347.60 1.185
347.70 1.184
347.80 1.184
347.90 1.183
348.00 1.183
348.10 1.182
348.20 1.181
348.30 1.181
348.40 1.18
348.50 1.179
348.60 1.179
348.70 1.178
348.80 1.177
348.90 1.177
349.00 1.176
349.10 1.175
349.20 1.175
349.30 1.174
349.40 1.173
349.50 1.173
349.60 1.172
349.70 1.171
349.80 1.171
349.90 1.17
350.00 1.169
350.10 1.169
350.20 1.168
350.30 1.167
350.40 1.167
350.50 1.166
350.60 1.165
350.70 1.165
350.80 1.164
350.90 1.164
351.00 1.163
351.10 1.162
351.20 1.162
351.30 1.161
351.40 1.16
351.50 1.16
351.60 1.159
351.70 1.158
351.80 1.158
351.90 1.157
352.00 1.156
352.10 1.156
352.20 1.155
352.30 1.155
352.40 1.154
352.50 1.153
352.60 1.153
352.70 1.152
352.80 1.151
352.90 1.151
353.00 1.15
353.10 1.149
353.20 1.149
353.30 1.148
353.40 1.148
353.50 1.147
353.60 1.146
353.70 1.146
353.80 1.145
353.90 1.144
354.00 1.144
354.10 1.143
354.20 1.142
354.30 1.142
354.40 1.141
354.50 1.141
354.60 1.14
354.70 1.139
354.80 1.139
354.90 1.138
355.00 1.137
355.10 1.137
355.20 1.136
355.30 1.136
355.40 1.135
355.50 1.134
355.60 1.134
355.70 1.133
355.80 1.132
355.90 1.132
356.00 1.131
356.10 1.131
356.20 1.13
356.30 1.129
356.40 1.129
356.50 1.128
356.60 1.127
356.70 1.127
356.80 1.126
356.90 1.126
357.00 1.125
357.10 1.124
357.20 1.124
357.30 1.123
357.40 1.122
357.50 1.122
357.60 1.121
357.70 1.121
357.80 1.12
357.90 1.119
358.00 1.119
358.10 1.118
358.20 1.118
358.30 1.117
358.40 1.116
358.50 1.116
358.60 1.115
358.70 1.115
358.80 1.114
358.90 1.113
359.00 1.113
359.10 1.112
359.20 1.111
359.30 1.111
359.40 1.11
359.50 1.11
359.60 1.109
359.70 1.108
359.80 1.108
359.90 1.107
360.00 1.107
360.10 1.106
360.20 1.105
360.30 1.105
360.40 1.104
360.50 1.104
360.60 1.103
360.70 1.102
360.80 1.102
360.90 1.101
361.00 1.101
361.10 1.1
361.20 1.099
361.30 1.099
361.40 1.098
361.50 1.098
361.60 1.097
361.70 1.096
361.80 1.096
361.90 1.095
362.00 1.095
362.10 1.094
362.20 1.093
362.30 1.093
362.40 1.092
362.50 1.092
362.60 1.091
362.70 1.09
362.80 1.09
362.90 1.089
363.00 1.089
363.10 1.088
363.20 1.087
363.30 1.087
363.40 1.086
363.50 1.086
363.60 1.085
363.70 1.084
363.80 1.084
363.90 1.083
364.00 1.083
364.10 1.082
364.20 1.081
364.30 1.081
364.40 1.08
364.50 1.08
364.60 1.079
364.70 1.079
364.80 1.078
364.90 1.078
365.00 1.077
365.10 1.076
365.20 1.076
365.30 1.075
365.40 1.075
365.50 1.074
365.60 1.074
365.70 1.073
365.80 1.073
365.90 1.072
366.00 1.072
366.10 1.072
366.20 1.071
366.30 1.071
366.40 1.07
366.50 1.07
366.60 1.069
366.70 1.069
366.80 1.068
366.90 1.068
367.00 1.068
367.10 1.067
367.20 1.067
367.30 1.066
367.40 1.066
367.50 1.065
367.60 1.065
367.70 1.065
367.80 1.064
367.90 1.064
368.00 1.063
368.10 1.064
368.20 1.066
368.30 1.067
368.40 1.068
368.50 1.069
368.60 1.07
368.70 1.071
368.80 1.072
368.90 1.073
369.00 1.075
369.10 1.076
369.20 1.077
369.30 1.078
369.40 1.079
369.50 1.08
369.60 1.081
369.70 1.082
369.80 1.084
369.90 1.085
370.00 1.086
370.10 1.089
370.20 1.093
370.30 1.097
370.40 1.1
370.50 1.104
370.60 1.108
370.70 1.111
370.80 1.115
370.90 1.118
371.00 1.122
371.10 1.126
371.20 1.129
371.30 1.133
371.40 1.136
371.50 1.14
371.60 1.144
371.70 1.147
371.80 1.151
371.90 1.154
372.00 1.158
372.10 1.163
372.20 1.169
372.30 1.174
372.40 1.179
372.50 1.185
372.60 1.19
372.70 1.196
372.80 1.201
372.90 1.206
373.00 1.212
373.10 1.217
373.20 1.223
373.30 1.228
373.40 1.233
373.50 1.239
373.60 1.244
373.70 1.249
373.80 1.255
373.90 1.26
374.00 1.265
374.10 1.271
374.20 1.276
374.30 1.281
374.40 1.287
374.50 1.292
374.60 1.298
374.70 1.303
374.80 1.308
374.90 1.314
375.00 1.319
375.10 1.324
375.20 1.33
375.30 1.335
375.40 1.34
375.50 1.346
375.60 1.351
375.70 1.356
375.80 1.362
375.90 1.367
376.00 1.372
376.10 1.375
376.20 1.377
376.30 1.38
376.40 1.382
376.50 1.385
376.60 1.387
376.70 1.39
376.80 1.392
376.90 1.395
377.00 1.397
377.10 1.392
377.20 1.387
377.30 1.382
377.40 1.377
377.50 1.372
377.60 1.367
377.70 1.362
377.80 1.357
377.90 1.352
378.00 1.347
378.10 1.321
378.20 1.295
378.30 1.268
378.40 1.242
378.50 1.216
378.60 1.19
378.70 1.165
378.80 1.139
378.90 1.113
379.00 1.087
379.10 1.064
379.20 1.041
379.30 1.018
379.40 0.9951
379.50 0.9722
379.60 0.9494
379.70 0.9266
379.80 0.9038
379.90 0.881
380.00 0.8582
380.10 0.8938
380.20 0.9292
380.30 0.9647
380.40 1
380.50 1.035
380.60 1.071
380.70 1.106
380.80 1.141
380.90 1.177
381.00 1.212
381.10 1.227
381.20 1.242
381.30 1.257
381.40 1.272
381.50 1.286
381.60 1.289
381.70 1.287
381.80 1.281
381.90 1.271
382.00 1.257
382.10 1.239
382.20 1.216
382.30 1.177
382.40 1.137
382.50 1.098
382.60 1.059
382.70 1.02
382.80 0.9815
382.90 0.9426
383.00 0.9038
383.10 0.865
383.20 0.8262
383.30 0.7808
383.40 0.7325
383.50 0.6775
383.60 0.6906
383.70 0.7427
383.80 0.7901
383.90 0.8348
384.00 0.8785
384.10 0.9223
384.20 0.9659
384.30 1.009
384.40 1.053
384.50 1.096
384.60 1.138
384.70 1.177
384.80 1.214
384.90 1.247
385.00 1.278
385.10 1.304
385.20 1.328
385.30 1.35
385.40 1.368
385.50 1.384
385.60 1.397
385.70 1.408
385.80 1.416
385.90 1.423
386.00 1.427
386.10 1.429
386.20 1.429
386.30 1.426
386.40 1.421
386.50 1.415
386.60 1.406
386.70 1.395
386.80 1.382
386.90 1.366
387.00 1.348
387.10 1.328
387.20 1.305
387.30 1.28
387.40 1.252
387.50 1.221
387.60 1.187
387.70 1.151
387.80 1.111
387.90 1.069
388.00 1.025
388.10 0.9798
388.20 0.9343
388.30 0.8888
388.40 0.8437
388.50 0.7986
388.60 0.7533
388.70 0.7047
388.80 0.6483
388.90 0.5841
389.00 0.6445
389.10 0.6989
389.20 0.7474
389.30 0.7923
389.40 0.8369
389.50 0.8813
389.60 0.9263
389.70 0.9713
389.80 1.017
389.90 1.061
390.00 1.103
390.10 1.144
390.20 1.182
390.30 1.218
390.40 1.252
390.50 1.282
390.60 1.311
390.70 1.339
390.80 1.364
390.90 1.388
391.00 1.41
391.10 1.431
391.20 1.45
391.30 1.469
391.40 1.485
391.50 1.501
391.60 1.516
391.70 1.529
391.80 1.541
391.90 1.552
392.00 1.562
392.10 1.571
392.20 1.579
392.30 1.585
392.40 1.59
392.50 1.595
392.60 1.598
392.70 1.6
392.80 1.602
392.90 1.601
393.00 1.6
393.10 1.598
393.20 1.595
393.30 1.59
393.40 1.585
393.50 1.578
393.60 1.57
393.70 1.561
393.80 1.551
393.90 1.54
394.00 1.528
394.10 1.514
394.20 1.499
394.30 1.483
394.40 1.466
394.50 1.447
394.60 1.428
394.70 1.407
394.80 1.385
394.90 1.362
395.00 1.338
395.10 1.312
395.20 1.285
395.30 1.257
395.40 1.227
395.50 1.196
395.60 1.162
395.70 1.128
395.80 1.092
395.90 1.053
396.00 1.013
396.10 0.9724
396.20 0.9298
396.30 0.8868
396.40 0.8433
396.50 0.8001
396.60 0.7569
396.70 0.7138
396.80 0.6662
396.90 0.6012
397.00 0.5189
397.10 0.5959
397.20 0.6584
397.30 0.7065
397.40 0.7491
397.50 0.7916
397.60 0.834
397.70 0.8767
397.80 0.9189
397.90 0.9606
398.00 1.001
398.10 1.04
398.20 1.078
398.30 1.113
398.40 1.147
398.50 1.18
398.60 1.21
398.70 1.24
398.80 1.268
398.90 1.295
399.00 1.32
399.10 1.345
399.20 1.368
399.30 1.391
399.40 1.412
399.50 1.433
399.60 1.453
399.70 1.472
399.80 1.49
399.90 1.507
400.00 1.523
400.10 1.538
400.20 1.553
400.30 1.567
400.40 1.58
400.50 1.593
400.60 1.605
400.70 1.616
400.80 1.626
400.90 1.636
401.00 1.645
401.10 1.654
401.20 1.662
401.30 1.669
401.40 1.676
401.50 1.683
401.60 1.688
401.70 1.694
401.80 1.699
401.90 1.703
402.00 1.708
402.10 1.712
402.20 1.715
402.30 1.718
402.40 1.721
402.50 1.723
402.60 1.725
402.70 1.726
402.80 1.728
402.90 1.729
403.00 1.729
403.10 1.73
403.20 1.73
403.30 1.729
403.40 1.729
403.50 1.728
403.60 1.727
403.70 1.725
403.80 1.724
403.90 1.722
404.00 1.72
404.10 1.717
404.20 1.714
404.30 1.711
404.40 1.708
404.50 1.704
404.60 1.7
404.70 1.695
404.80 1.691
404.90 1.685
405.00 1.68
405.10 1.674
405.20 1.668
405.30 1.661
405.40 1.654
405.50 1.647
405.60 1.639
405.70 1.631
405.80 1.622
405.90 1.612
406.00 1.603
406.10 1.592
406.20 1.581
406.30 1.57
406.40 1.558
406.50 1.546
406.60 1.533
406.70 1.519
406.80 1.504
406.90 1.489
407.00 1.473
407.10 1.456
407.20 1.439
407.30 1.42
407.40 1.401
407.50 1.381
407.60 1.36
407.70 1.338
407.80 1.316
407.90 1.293
408.00 1.269
408.10 1.244
408.20 1.219
408.30 1.193
408.40 1.166
408.50 1.139
408.60 1.111
408.70 1.082
408.80 1.052
408.90 1.021
409.00 0.9893
409.10 0.956
409.20 0.9218
409.30 0.8869
409.40 0.8502
409.50 0.8128
409.60 0.7748
409.70 0.7365
409.80 0.698
409.90 0.6592
410.00 0.6117
410.10 0.5535
410.20 0.4847
410.30 0.5721
410.40 0.637
410.50 0.6793
410.60 0.7169
410.70 0.7545
410.80 0.7921
410.90 0.8289
411.00 0.8648
411.10 0.8999
411.20 0.9331
411.30 0.9655
411.40 0.997
411.50 1.027
411.60 1.056
411.70 1.084
411.80 1.111
411.90 1.137
412.00 1.162
412.10 1.187
412.20 1.211
412.30 1.234
412.40 1.257
412.50 1.278
412.60 1.3
412.70 1.32
412.80 1.339
412.90 1.358
413.00 1.376
413.10 1.393
413.20 1.409
413.30 1.424
413.40 1.439
413.50 1.453
413.60 1.466
413.70 1.478
413.80 1.49
413.90 1.502
414.00 1.512
414.10 1.523
414.20 1.532
414.30 1.541
414.40 1.55
414.50 1.558
414.60 1.566
414.70 1.573
414.80 1.58
414.90 1.587
415.00 1.593
415.10 1.599
415.20 1.604
415.30 1.609
415.40 1.614
415.50 1.619
415.60 1.623
415.70 1.627
415.80 1.631
415.90 1.635
416.00 1.638
416.10 1.641
416.20 1.644
416.30 1.647
416.40 1.65
416.50 1.652
416.60 1.654
416.70 1.656
416.80 1.658
416.90 1.66
417.00 1.662
417.10 1.664
417.20 1.665
417.30 1.666
417.40 1.668
417.50 1.669
417.60 1.67
417.70 1.671
417.80 1.671
417.90 1.672
418.00 1.673
418.10 1.673
418.20 1.674
418.30 1.674
418.40 1.675
418.50 1.675
418.60 1.675
418.70 1.675
418.80 1.675
418.90 1.676
419.00 1.675
419.10 1.675
419.20 1.675
419.30 1.675
419.40 1.675
419.50 1.675
419.60 1.674
419.70 1.674
419.80 1.674
419.90 1.673
420.00 1.673
420.10 1.672
420.20 1.672
420.30 1.671
420.40 1.67
420.50 1.67
420.60 1.669
420.70 1.668
420.80 1.668
420.90 1.667
421.00 1.666
421.10 1.665
421.20 1.664
421.30 1.663
421.40 1.662
421.50 1.661
421.60 1.66
421.70 1.659
421.80 1.658
421.90 1.657
422.00 1.656
422.10 1.655
422.20 1.654
422.30 1.653
422.40 1.652
422.50 1.65
422.60 1.649
422.70 1.648
422.80 1.646
422.90 1.645
423.00 1.644
423.10 1.642
423.20 1.641
423.30 1.639
423.40 1.638
423.50 1.636
423.60 1.635
423.70 1.633
423.80 1.631
423.90 1.63
424.00 1.628
424.10 1.626
424.20 1.624
424.30 1.623
424.40 1.621
424.50 1.619
424.60 1.617
424.70 1.615
424.80 1.613
424.90 1.611
425.00 1.609
425.10 1.606
425.20 1.604
425.30 1.602
425.40 1.6
425.50 1.597
425.60 1.595
425.70 1.592
425.80 1.59
425.90 1.587
426.00 1.584
426.10 1.581
426.20 1.578
426.30 1.575
426.40 1.572
426.50 1.569
426.60 1.565
426.70 1.562
426.80 1.559
426.90 1.555
427.00 1.552
427.10 1.548
427.20 1.544
427.30 1.54
427.40 1.536
427.50 1.532
427.60 1.527
427.70 1.523
427.80 1.518
427.90 1.514
428.00 1.509
428.10 1.503
428.20 1.498
428.30 1.493
428.40 1.487
428.50 1.481
428.60 1.475
428.70 1.469
428.80 1.463
428.90 1.456
429.00 1.449
429.10 1.442
429.20 1.434
429.30 1.427
429.40 1.419
429.50 1.41
429.60 1.402
429.70 1.393
429.80 1.384
429.90 1.374
430.00 1.365
430.10 1.354
430.20 1.344
430.30 1.333
430.40 1.322
430.50 1.31
430.60 1.298
430.70 1.285
430.80 1.273
430.90 1.26
431.00 1.246
431.10 1.232
431.20 1.218
431.30 1.203
431.40 1.188
431.50 1.173
431.60 1.156
431.70 1.139
431.80 1.121
431.90 1.102
432.00 1.082
432.10 1.062
432.20 1.04
432.30 1.017
432.40 0.9931
432.50 0.9672
432.60 0.9405
432.70 0.9131
432.80 0.8851
432.90 0.8575
433.00 0.8302
433.10 0.8038
433.20 0.7768
433.30 0.7494
433.40 0.7197
433.50 0.6893
433.60 0.6581
433.70 0.6263
433.80 0.5911
433.90 0.5524
434.00 0.4471
434.10 0.4482
434.20 0.5557
434.30 0.5931
434.40 0.6274
434.50 0.6586
434.60 0.6891
434.70 0.7187
434.80 0.7475
434.90 0.774
435.00 0.8
435.10 0.8255
435.20 0.8517
435.30 0.8782
435.40 0.905
435.50 0.9311
435.60 0.9563
435.70 0.9806
435.80 1.003
435.90 1.024
436.00 1.045
436.10 1.063
436.20 1.081
436.30 1.099
436.40 1.114
436.50 1.13
436.60 1.144
436.70 1.158
436.80 1.171
436.90 1.184
437.00 1.196
437.10 1.208
437.20 1.219
437.30 1.23
437.40 1.241
437.50 1.251
437.60 1.261
437.70 1.271
437.80 1.28
437.90 1.288
438.00 1.296
438.10 1.304
438.20 1.312
438.30 1.319
438.40 1.326
438.50 1.332
438.60 1.339
438.70 1.345
438.80 1.35
438.90 1.356
439.00 1.361
439.10 1.365
439.20 1.37
439.30 1.374
439.40 1.378
439.50 1.382
439.60 1.386
439.70 1.389
439.80 1.393
439.90 1.396
440.00 1.399
440.10 1.401
440.20 1.404
440.30 1.406
440.40 1.409
440.50 1.411
440.60 1.413
440.70 1.415
440.80 1.417
440.90 1.418
441.00 1.42
441.10 1.421
441.20 1.422
441.30 1.424
441.40 1.425
441.50 1.426
441.60 1.427
441.70 1.428
441.80 1.429
441.90 1.429
442.00 1.43
442.10 1.431
442.20 1.431
442.30 1.432
442.40 1.432
442.50 1.432
442.60 1.433
442.70 1.433
442.80 1.433
442.90 1.433
443.00 1.434
443.10 1.434
443.20 1.434
443.30 1.434
443.40 1.434
443.50 1.434
443.60 1.434
443.70 1.433
443.80 1.433
443.90 1.433
444.00 1.433
444.10 1.433
444.20 1.432
444.30 1.432
444.40 1.432
444.50 1.431
444.60 1.431
444.70 1.431
444.80 1.43
444.90 1.43
445.00 1.429
445.10 1.429
445.20 1.428
445.30 1.428
445.40 1.427
445.50 1.427
445.60 1.426
445.70 1.426
445.80 1.425
445.90 1.425
446.00 1.424
446.10 1.423
446.20 1.423
446.30 1.422
446.40 1.422
446.50 1.421
446.60 1.42
446.70 1.42
446.80 1.419
446.90 1.418
447.00 1.418
447.10 1.417
447.20 1.416
447.30 1.415
447.40 1.415
447.50 1.414
447.60 1.413
447.70 1.413
447.80 1.412
447.90 1.411
448.00 1.41
448.10 1.41
448.20 1.409
448.30 1.408
448.40 1.407
448.50 1.406
448.60 1.406
448.70 1.405
448.80 1.404
448.90 1.403
449.00 1.403
449.10 1.402
449.20 1.401
449.30 1.4
449.40 1.399
449.50 1.399
449.60 1.398
449.70 1.397
449.80 1.396
449.90 1.395
450.00 1.395
450.10 1.394
450.20 1.393
450.30 1.392
450.40 1.391
450.50 1.39
450.60 1.39
450.70 1.389
450.80 1.388
450.90 1.387
451.00 1.386
451.10 1.385
451.20 1.385
451.30 1.384
451.40 1.383
451.50 1.382
451.60 1.381
451.70 1.38
451.80 1.379
451.90 1.379
452.00 1.378
452.10 1.377
452.20 1.376
452.30 1.375
452.40 1.374
452.50 1.373
452.60 1.373
452.70 1.372
452.80 1.371
452.90 1.37
453.00 1.369
453.10 1.368
453.20 1.367
453.30 1.366
453.40 1.366
453.50 1.365
453.60 1.364
453.70 1.363
453.80 1.362
453.90 1.361
454.00 1.36
454.10 1.359
454.20 1.359
454.30 1.358
454.40 1.357
454.50 1.356
454.60 1.355
454.70 1.354
454.80 1.353
454.90 1.352
455.00 1.351
455.10 1.351
455.20 1.35
455.30 1.349
455.40 1.348
455.50 1.347
455.60 1.346
455.70 1.345
455.80 1.344
455.90 1.343
456.00 1.343
456.10 1.342
456.20 1.341
456.30 1.34
456.40 1.339
456.50 1.338
456.60 1.337
456.70 1.336
456.80 1.336
456.90 1.335
457.00 1.334
457.10 1.333
457.20 1.332
457.30 1.331
457.40 1.33
457.50 1.329
457.60 1.329
457.70 1.328
457.80 1.327
457.90 1.326
458.00 1.325
458.10 1.324
458.20 1.323
458.30 1.322
458.40 1.321
458.50 1.321
458.60 1.32
458.70 1.319
458.80 1.318
458.90 1.317
459.00 1.316
459.10 1.315
459.20 1.314
459.30 1.313
459.40 1.312
459.50 1.312
459.60 1.311
459.70 1.31
459.80 1.309
459.90 1.308
460.00 1.307
460.10 1.306
460.20 1.305
460.30 1.304
460.40 1.304
460.50 1.303
460.60 1.302
460.70 1.301
460.80 1.3
460.90 1.299
461.00 1.298
461.10 1.297
461.20 1.296
461.30 1.295
461.40 1.295
461.50 1.294
461.60 1.293
461.70 1.292
461.80 1.291
461.90 1.29
462.00 1.289
462.10 1.288
462.20 1.287
462.30 1.286
462.40 1.286
462.50 1.285
462.60 1.284
462.70 1.283
462.80 1.282
462.90 1.281
463.00 1.28
463.10 1.279
463.20 1.278
463.30 1.277
463.40 1.277
463.50 1.276
463.60 1.275
463.70 1.274
463.80 1.273
463.90 1.272
464.00 1.271
464.10 1.27
464.20 1.269
464.30 1.268
464.40 1.268
464.50 1.267
464.60 1.266
464.70 1.265
464.80 1.264
464.90 1.263
465.00 1.262
465.10 1.261
465.20 1.26
465.30 1.259
465.40 1.258
465.50 1.258
465.60 1.257
465.70 1.256
465.80 1.255
465.90 1.254
466.00 1.253
466.10 1.252
466.20 1.251
466.30 1.25
466.40 1.249
466.50 1.248
466.60 1.248
466.70 1.247
466.80 1.246
466.90 1.245
467.00 1.244
467.10 1.243
467.20 1.242
467.30 1.241
467.40 1.24
467.50 1.239
467.60 1.238
467.70 1.237
467.80 1.236
467.90 1.235
468.00 1.235
468.10 1.234
468.20 1.233
468.30 1.232
468.40 1.231
468.50 1.23
468.60 1.229
468.70 1.228
468.80 1.227
468.90 1.226
469.00 1.225
469.10 1.224
469.20 1.223
469.30 1.222
469.40 1.221
469.50 1.22
469.60 1.219
469.70 1.218
469.80 1.217
469.90 1.216
470.00 1.215
470.10 1.214
470.20 1.213
470.30 1.212
470.40 1.211
470.50 1.211
470.60 1.21
470.70 1.209
470.80 1.208
470.90 1.207
471.00 1.206
471.10 1.205
471.20 1.204
471.30 1.203
471.40 1.202
471.50 1.2
471.60 1.199
471.70 1.198
471.80 1.197
471.90 1.196
472.00 1.195
472.10 1.194
472.20 1.193
472.30 1.192
472.40 1.191
472.50 1.19
472.60 1.189
472.70 1.188
472.80 1.187
472.90 1.186
473.00 1.184
473.10 1.183
473.20 1.182
473.30 1.181
473.40 1.18
473.50 1.179
473.60 1.178
473.70 1.176
473.80 1.175
473.90 1.174
474.00 1.173
474.10 1.172
474.20 1.17
474.30 1.169
474.40 1.168
474.50 1.167
474.60 1.165
474.70 1.164
474.80 1.163
474.90 1.161
475.00 1.16
475.10 1.159
475.20 1.158
475.30 1.156
475.40 1.155
475.50 1.153
475.60 1.152
475.70 1.15
475.80 1.149
475.90 1.148
476.00 1.146
476.10 1.145
476.20 1.143
476.30 1.141
476.40 1.14
476.50 1.138
476.60 1.137
476.70 1.135
476.80 1.133
476.90 1.132
477.00 1.13
477.10 1.128
477.20 1.127
477.30 1.125
477.40 1.123
477.50 1.121
477.60 1.119
477.70 1.117
477.80 1.115
477.90 1.113
478.00 1.111
478.10 1.109
478.20 1.107
478.30 1.104
478.40 1.102
478.50 1.099
478.60 1.097
478.70 1.094
478.80 1.092
478.90 1.089
479.00 1.087
479.10 1.085
479.20 1.082
479.30 1.078
479.40 1.075
479.50 1.072
479.60 1.069
479.70 1.066
479.80 1.063
479.90 1.06
480.00 1.056
480.10 1.053
480.20 1.049
480.30 1.045
480.40 1.041
480.50 1.037
480.60 1.032
480.70 1.028
480.80 1.024
480.90 1.02
481.00 1.015
481.10 1.011
481.20 1.006
481.30 1
481.40 0.9941
481.50 0.9882
481.60 0.9824
481.70 0.9765
481.80 0.9707
481.90 0.9648
482.00 0.959
482.10 0.9532
482.20 0.9458
482.30 0.9377
482.40 0.9296
482.50 0.9216
482.60 0.9135
482.70 0.9054
482.80 0.8974
482.90 0.8893
483.00 0.8813
483.10 0.8732
483.20 0.8632
483.30 0.8523
483.40 0.8413
483.50 0.8304
483.60 0.8194
483.70 0.8085
483.80 0.7976
483.90 0.7867
484.00 0.7758
484.10 0.7649
484.20 0.7525
484.30 0.7393
484.40 0.7261
484.50 0.7129
484.60 0.6998
484.70 0.6855
484.80 0.6706
484.90 0.6558
485.00 0.641
485.10 0.6262
485.20 0.6106
485.30 0.5947
485.40 0.5778
485.50 0.5604
485.60 0.542
485.70 0.5231
485.80 0.5018
485.90 0.4795
486.00 0.4505
486.10 0.3438
486.20 0.4052
486.30 0.4618
486.40 0.486
486.50 0.5081
486.60 0.5277
486.70 0.5462
486.80 0.5635
486.90 0.5802
487.00 0.596
487.10 0.6114
487.20 0.6258
487.30 0.6399
487.40 0.654
487.50 0.668
487.60 0.6821
487.70 0.6949
487.80 0.7071
487.90 0.7194
488.00 0.7316
488.10 0.7438
488.20 0.7544
488.30 0.7642
488.40 0.7739
488.50 0.7837
488.60 0.7935
488.70 0.8032
488.80 0.8129
488.90 0.8227
489.00 0.8324
489.10 0.8421
489.20 0.8498
489.30 0.8564
489.40 0.8631
489.50 0.8698
489.60 0.8764
489.70 0.8831
489.80 0.8897
489.90 0.8964
490.00 0.903
490.10 0.9097
490.20 0.9147
490.30 0.9191
490.40 0.9234
490.50 0.9277
490.60 0.932
490.70 0.9363
490.80 0.9406
490.90 0.945
491.00 0.9493
491.10 0.9536
491.20 0.9567
491.30 0.9594
491.40 0.962
491.50 0.9647
491.60 0.9673
491.70 0.97
491.80 0.9726
491.90 0.9753
492.00 0.9779
492.10 0.9805
492.20 0.9824
492.30 0.984
492.40 0.9856
492.50 0.9871
492.60 0.9887
492.70 0.9902
492.80 0.9918
492.90 0.9934
493.00 0.9949
493.10 0.9965
493.20 0.9975
493.30 0.9984
493.40 0.9993
493.50 1
493.60 1.001
493.70 1.002
493.80 1.003
493.90 1.004
494.00 1.004
494.10 1.005
494.20 1.006
494.30 1.006
494.40 1.007
494.50 1.007
494.60 1.007
494.70 1.008
494.80 1.008
494.90 1.009
495.00 1.009
495.10 1.009
495.20 1.01
495.30 1.01
495.40 1.01
495.50 1.01
495.60 1.01
495.70 1.01
495.80 1.01
495.90 1.01
496.00 1.01
496.10 1.01
496.20 1.01
496.30 1.01
496.40 1.01
496.50 1.01
496.60 1.01
496.70 1.01
496.80 1.01
496.90 1.01
497.00 1.01
497.10 1.009
497.20 1.009
497.30 1.009
497.40 1.009
497.50 1.008
497.60 1.008
497.70 1.008
497.80 1.008
497.90 1.007
498.00 1.007
498.10 1.007
498.20 1.007
498.30 1.006
498.40 1.006
498.50 1.006
498.60 1.005
498.70 1.005
498.80 1.005
498.90 1.004
499.00 1.004
499.10 1.004
499.20 1.003
499.30 1.003
499.40 1.002
499.50 1.002
499.60 1.002
499.70 1.001
499.80 1.001
499.90 1
500.00 1
500.10 0.9996
500.20 0.9992
500.30 0.9987
500.40 0.9982
500.50 0.9978
500.60 0.9973
500.70 0.9969
500.80 0.9964
500.90 0.996
501.00 0.9955
501.10 0.9951
501.20 0.9946
501.30 0.9941
501.40 0.9936
501.50 0.9931
501.60 0.9927
501.70 0.9922
501.80 0.9917
501.90 0.9912
502.00 0.9907
502.10 0.9902
502.20 0.9897
502.30 0.9892
502.40 0.9887
502.50 0.9882
502.60 0.9877
502.70 0.9872
502.80 0.9867
502.90 0.9862
503.00 0.9856
503.10 0.9851
503.20 0.9846
503.30 0.9841
503.40 0.9836
503.50 0.983
503.60 0.9825
503.70 0.982
503.80 0.9814
503.90 0.9809
504.00 0.9804
504.10 0.9799
504.20 0.9793
504.30 0.9788
504.40 0.9782
504.50 0.9777
504.60 0.9772
504.70 0.9766
504.80 0.9761
504.90 0.9756
505.00 0.975
505.10 0.9745
505.20 0.9739
505.30 0.9734
505.40 0.9728
505.50 0.9723
505.60 0.9717
505.70 0.9712
505.80 0.9706
505.90 0.9701
506.00 0.9695
506.10 0.969
506.20 0.9684
506.30 0.9679
506.40 0.9673
506.50 0.9668
506.60 0.9662
506.70 0.9657
506.80 0.9651
506.90 0.9646
507.00 0.964
507.10 0.9635
507.20 0.9629
507.30 0.9623
507.40 0.9618
507.50 0.9612
507.60 0.9607
507.70 0.9601
507.80 0.9595
507.90 0.959
508.00 0.9584
508.10 0.9579
508.20 0.9573
508.30 0.9568
508.40 0.9562
508.50 0.9556
508.60 0.9551
508.70 0.9545
508.80 0.9539
508.90 0.9534
509.00 0.9528
509.10 0.9523
509.20 0.9517
509.30 0.9511
509.40 0.9506
509.50 0.95
509.60 0.9495
509.70 0.9489
509.80 0.9483
509.90 0.9478
510.00 0.9472
510.10 0.9467
510.20 0.9461
510.30 0.9455
510.40 0.945
510.50 0.9444
510.60 0.9438
510.70 0.9433
510.80 0.9427
510.90 0.9422
511.00 0.9416
511.10 0.941
511.20 0.9405
511.30 0.9399
511.40 0.9394
511.50 0.9388
511.60 0.9382
511.70 0.9377
511.80 0.9371
511.90 0.9365
512.00 0.936
512.10 0.9354
512.20 0.9349
512.30 0.9343
512.40 0.9337
512.50 0.9332
512.60 0.9326
512.70 0.9321
512.80 0.9315
512.90 0.9309
513.00 0.9304
513.10 0.9298
513.20 0.9293
513.30 0.9287
513.40 0.9282
513.50 0.9276
513.60 0.927
513.70 0.9265
513.80 0.9259
513.90 0.9254
514.00 0.9248
514.10 0.9243
514.20 0.9237
514.30 0.9231
514.40 0.9226
514.50 0.922
514.60 0.9215
514.70 0.9209
514.80 0.9204
514.90 0.9198
515.00 0.9193
515.10 0.9187
515.20 0.9182
515.30 0.9176
515.40 0.917
515.50 0.9165
515.60 0.9159
515.70 0.9154
515.80 0.9148
515.90 0.9143
516.00 0.9137
516.10 0.9132
516.20 0.9126
516.30 0.9121
516.40 0.9115
516.50 0.911
516.60 0.9104
516.70 0.9099
516.80 0.9093
516.90 0.9088
517.00 0.9082
517.10 0.9077
517.20 0.9071
517.30 0.9066
517.40 0.906
517.50 0.9055
517.60 0.9049
517.70 0.9044
517.80 0.9039
517.90 0.9033
518.00 0.9028
518.10 0.9022
518.20 0.9017
518.30 0.9011
518.40 0.9006
518.50 0.9
518.60 0.8995
518.70 0.899
518.80 0.8984
518.90 0.8979
519.00 0.8973
519.10 0.8968
519.20 0.8962
519.30 0.8957
519.40 0.8952
519.50 0.8946
519.60 0.8941
519.70 0.8935
519.80 0.893
519.90 0.8925
520.00 0.8919
520.10 0.8914
520.20 0.8908
520.30 0.8903
520.40 0.8898
520.50 0.8892
520.60 0.8887
520.70 0.8882
520.80 0.8876
520.90 0.8871
521.00 0.8865
521.10 0.886
521.20 0.8855
521.30 0.8849
521.40 0.8844
521.50 0.8839
521.60 0.8833
521.70 0.8828
521.80 0.8823
521.90 0.8817
522.00 0.8812
522.10 0.8807
522.20 0.8801
522.30 0.8796
522.40 0.8791
522.50 0.8785
522.60 0.878
522.70 0.8775
522.80 0.877
522.90 0.8764
523.00 0.8759
523.10 0.8754
523.20 0.8748
523.30 0.8743
523.40 0.8738
523.50 0.8733
523.60 0.8727
523.70 0.8722
523.80 0.8717
523.90 0.8712
524.00 0.8706
524.10 0.8701
524.20 0.8696
524.30 0.8691
524.40 0.8685
524.50 0.868
524.60 0.8675
524.70 0.867
524.80 0.8664
524.90 0.8659
525.00 0.8654
525.10 0.8649
525.20 0.8644
525.30 0.8638
525.40 0.8633
525.50 0.8628
525.60 0.8623
525.70 0.8618
525.80 0.8612
525.90 0.8607
526.00 0.8602
526.10 0.8597
526.20 0.8592
526.30 0.8586
526.40 0.8581
526.50 0.8576
526.60 0.8571
526.70 0.8566
526.80 0.8561
526.90 0.8556
527.00 0.855
527.10 0.8545
527.20 0.854
527.30 0.8535
527.40 0.853
527.50 0.8525
527.60 0.852
527.70 0.8514
527.80 0.8509
527.90 0.8504
528.00 0.8499
528.10 0.8494
528.20 0.8489
528.30 0.8484
528.40 0.8479
528.50 0.8474
528.60 0.8468
528.70 0.8463
528.80 0.8458
528.90 0.8453
529.00 0.8448
529.10 0.8443
529.20 0.8438
529.30 0.8433
529.40 0.8428
529.50 0.8423
529.60 0.8418
529.70 0.8413
529.80 0.8408
529.90 0.8403
530.00 0.8398
530.10 0.8393
530.20 0.8388
530.30 0.8382
530.40 0.8377
530.50 0.8372
530.60 0.8367
530.70 0.8362
530.80 0.8357
530.90 0.8352
531.00 0.8347
531.10 0.8342
531.20 0.8337
531.30 0.8332
531.40 0.8327
531.50 0.8322
531.60 0.8317
531.70 0.8312
531.80 0.8307
531.90 0.8302
532.00 0.8298
532.10 0.8293
532.20 0.8288
532.30 0.8283
532.40 0.8278
532.50 0.8273
532.60 0.8268
532.70 0.8263
532.80 0.8258
532.90 0.8253
533.00 0.8248
533.10 0.8243
533.20 0.8238
533.30 0.8233
533.40 0.8228
533.50 0.8223
533.60 0.8218
533.70 0.8214
533.80 0.8209
533.90 0.8204
534.00 0.8199
534.10 0.8194
534.20 0.8189
534.30 0.8184
534.40 0.8179
534.50 0.8174
534.60 0.817
534.70 0.8165
534.80 0.816
534.90 0.8155
535.00 0.815
535.10 0.8145
535.20 0.814
535.30 0.8136
535.40 0.8131
535.50 0.8126
535.60 0.8121
535.70 0.8116
535.80 0.8111
535.90 0.8107
536.00 0.8102
536.10 0.8097
536.20 0.8092
536.30 0.8087
536.40 0.8082
536.50 0.8078
536.60 0.8073
536.70 0.8068
536.80 0.8063
536.90 0.8058
537.00 0.8054
537.10 0.8049
537.20 0.8044
537.30 0.8039
537.40 0.8035
537.50 0.803
537.60 0.8025
537.70 0.802
537.80 0.8015
537.90 0.8011
538.00 0.8006
538.10 0.8001
538.20 0.7996
538.30 0.7992
538.40 0.7987
538.50 0.7982
538.60 0.7977
538.70 0.7973
538.80 0.7968
538.90 0.7963
539.00 0.7959
539.10 0.7954
539.20 0.7949
539.30 0.7944
539.40 0.794
539.50 0.7935
539.60 0.793
539.70 0.7926
539.80 0.7921
539.90 0.7916
540.00 0.7912
540.10 0.7907
540.20 0.7902
540.30 0.7897
540.40 0.7893
540.50 0.7888
540.60 0.7883
540.70 0.7879
540.80 0.7874
540.90 0.7869
541.00 0.7865
541.10 0.786
541.20 0.7856
541.30 0.7851
541.40 0.7846
541.50 0.7842
541.60 0.7837
541.70 0.7832
541.80 0.7828
541.90 0.7823
542.00 0.7819
542.10 0.7814
542.20 0.7809
542.30 0.7805
542.40 0.78
542.50 0.7796
542.60 0.7791
542.70 0.7786
542.80 0.7782
542.90 0.7777
543.00 0.7773
543.10 0.7768
543.20 0.7763
543.30 0.7759
543.40 0.7754
543.50 0.775
543.60 0.7745
543.70 0.7741
543.80 0.7736
543.90 0.7731
544.00 0.7727
544.10 0.7722
544.20 0.7718
544.30 0.7713
544.40 0.7709
544.50 0.7704
544.60 0.77
544.70 0.7695
544.80 0.7691
544.90 0.7686
545.00 0.7682
545.10 0.7677
545.20 0.7673
545.30 0.7668
545.40 0.7664
545.50 0.7659
545.60 0.7655
545.70 0.765
545.80 0.7646
545.90 0.7641
546.00 0.7637
546.10 0.7632
546.20 0.7628
546.30 0.7623
546.40 0.7619
546.50 0.7615
546.60 0.761
546.70 0.7606
546.80 0.7602
546.90 0.7597
547.00 0.7593
547.10 0.7589
547.20 0.7584
547.30 0.758
547.40 0.7575
547.50 0.7571
547.60 0.7567
547.70 0.7562
547.80 0.7558
547.90 0.7553
548.00 0.7549
548.10 0.7544
548.20 0.754
548.30 0.7536
548.40 0.7531
548.50 0.7527
548.60 0.7522
548.70 0.7518
548.80 0.7514
548.90 0.7509
549.00 0.7505
549.10 0.75
549.20 0.7496
549.30 0.7492
549.40 0.7487
549.50 0.7483
549.60 0.7478
549.70 0.7474
549.80 0.747
549.90 0.7465
550.00 0.7461
550.10 0.7457
550.20 0.7452
550.30 0.7448
550.40 0.7444
550.50 0.7439
550.60 0.7435
550.70 0.743
550.80 0.7426
550.90 0.7422
551.00 0.7417
551.10 0.7413
551.20 0.7409
551.30 0.7405
551.40 0.74
551.50 0.7396
551.60 0.7392
551.70 0.7387
551.80 0.7383
551.90 0.7379
552.00 0.7374
552.10 0.737
552.20 0.7366
552.30 0.7362
552.40 0.7357
552.50 0.7353
552.60 0.7349
552.70 0.7344
552.80 0.734
552.90 0.7336
553.00 0.7332
553.10 0.7327
553.20 0.7323
553.30 0.7319
553.40 0.7315
553.50 0.731
553.60 0.7306
553.70 0.7302
553.80 0.7298
553.90 0.7293
554.00 0.7289
554.10 0.7285
554.20 0.7281
554.30 0.7276
554.40 0.7272
554.50 0.7268
554.60 0.7264
554.70 0.726
554.80 0.7255
554.90 0.7251
555.00 0.7247
555.10 0.7243
555.20 0.7238
555.30 0.7234
555.40 0.723
555.50 0.7226
555.60 0.7222
555.70 0.7218
555.80 0.7213
555.90 0.7209
556.00 0.7205
556.10 0.7201
556.20 0.7197
556.30 0.7193
556.40 0.7188
556.50 0.7184
556.60 0.718
556.70 0.7176
556.80 0.7172
556.90 0.7168
557.00 0.7163
557.10 0.7159
557.20 0.7155
557.30 0.7151
557.40 0.7147
557.50 0.7143
557.60 0.7139
557.70 0.7135
557.80 0.713
557.90 0.7126
558.00 0.7122
558.10 0.7118
558.20 0.7114
558.30 0.711
558.40 0.7106
558.50 0.7102
558.60 0.7098
558.70 0.7094
558.80 0.7089
558.90 0.7085
559.00 0.7081
559.10 0.7077
559.20 0.7073
559.30 0.7069
559.40 0.7065
559.50 0.7061
559.60 0.7057
559.70 0.7053
559.80 0.7049
559.90 0.7045
560.00 0.7041
560.10 0.7037
560.20 0.7032
560.30 0.7028
560.40 0.7024
560.50 0.702
560.60 0.7016
560.70 0.7012
560.80 0.7008
560.90 0.7004
561.00 0.7
561.10 0.6996
561.20 0.6992
561.30 0.6988
561.40 0.6984
561.50 0.698
561.60 0.6976
561.70 0.6972
561.80 0.6968
561.90 0.6964
562.00 0.696
562.10 0.6956
562.20 0.6952
562.30 0.6948
562.40 0.6944
562.50 0.694
562.60 0.6936
562.70 0.6932
562.80 0.6928
562.90 0.6924
563.00 0.692
563.10 0.6916
563.20 0.6912
563.30 0.6909
563.40 0.6905
563.50 0.6901
563.60 0.6897
563.70 0.6893
563.80 0.6889
563.90 0.6885
564.00 0.6881
564.10 0.6877
564.20 0.6873
564.30 0.6869
564.40 0.6865
564.50 0.6861
564.60 0.6857
564.70 0.6853
564.80 0.6849
564.90 0.6846
565.00 0.6842
565.10 0.6838
565.20 0.6834
565.30 0.683
565.40 0.6826
565.50 0.6822
565.60 0.6818
565.70 0.6814
565.80 0.681
565.90 0.6807
566.00 0.6803
566.10 0.6799
566.20 0.6795
566.30 0.6791
566.40 0.6787
566.50 0.6783
566.60 0.6779
566.70 0.6776
566.80 0.6772
566.90 0.6768
567.00 0.6764
567.10 0.676
567.20 0.6756
567.30 0.6752
567.40 0.6749
567.50 0.6745
567.60 0.6741
567.70 0.6737
567.80 0.6733
567.90 0.6729
568.00 0.6726
568.10 0.6722
568.20 0.6718
568.30 0.6714
568.40 0.671
568.50 0.6707
568.60 0.6703
568.70 0.6699
568.80 0.6695
568.90 0.6691
569.00 0.6688
569.10 0.6684
569.20 0.668
569.30 0.6676
569.40 0.6672
569.50 0.6669
569.60 0.6665
569.70 0.6661
569.80 0.6657
569.90 0.6654
570.00 0.665
570.10 0.6646
570.20 0.6642
570.30 0.6638
570.40 0.6635
570.50 0.6631
570.60 0.6627
570.70 0.6623
570.80 0.662
570.90 0.6616
571.00 0.6612
571.10 0.6608
571.20 0.6605
571.30 0.6601
571.40 0.6597
571.50 0.6593
571.60 0.659
571.70 0.6586
571.80 0.6582
571.90 0.6579
572.00 0.6575
572.10 0.6571
572.20 0.6567
572.30 0.6564
572.40 0.656
572.50 0.6556
572.60 0.6553
572.70 0.6549
572.80 0.6545
572.90 0.6542
573.00 0.6538
573.10 0.6534
573.20 0.6531
573.30 0.6527
573.40 0.6523
573.50 0.6519
573.60 0.6516
573.70 0.6512
573.80 0.6508
573.90 0.6505
574.00 0.6501
574.10 0.6497
574.20 0.6494
574.30 0.649
574.40 0.6486
574.50 0.6483
574.60 0.6479
574.70 0.6476
574.80 0.6472
574.90 0.6468
575.00 0.6465
575.10 0.6461
575.20 0.6457
575.30 0.6454
575.40 0.645
575.50 0.6446
575.60 0.6443
575.70 0.6439
575.80 0.6436
575.90 0.6432
576.00 0.6428
576.10 0.6425
576.20 0.6421
576.30 0.6418
576.40 0.6414
576.50 0.641
576.60 0.6407
576.70 0.6403
576.80 0.64
576.90 0.6396
577.00 0.6392
577.10 0.6389
577.20 0.6385
577.30 0.6382
577.40 0.6378
577.50 0.6374
577.60 0.6371
577.70 0.6367
577.80 0.6364
577.90 0.636
578.00 0.6357
578.10 0.6353
578.20 0.635
578.30 0.6346
578.40 0.6342
578.50 0.6339
578.60 0.6335
578.70 0.6332
578.80 0.6328
578.90 0.6325
579.00 0.6321
579.10 0.6318
579.20 0.6314
579.30 0.6311
579.40 0.6307
579.50 0.6304
579.60 0.63
579.70 0.6297
579.80 0.6293
579.90 0.6289
580.00 0.6286
580.10 0.6282
580.20 0.6279
580.30 0.6275
580.40 0.6272
580.50 0.6268
580.60 0.6265
580.70 0.6261
580.80 0.6258
580.90 0.6255
581.00 0.6251
581.10 0.6248
581.20 0.6244
581.30 0.6241
581.40 0.6237
581.50 0.6234
581.60 0.623
581.70 0.6227
581.80 0.6223
581.90 0.622
582.00 0.6216
582.10 0.6213
582.20 0.6209
582.30 0.6206
582.40 0.6202
582.50 0.6199
582.60 0.6196
582.70 0.6192
582.80 0.6189
582.90 0.6185
583.00 0.6182
583.10 0.6178
583.20 0.6175
583.30 0.6171
583.40 0.6168
583.50 0.6165
583.60 0.6161
583.70 0.6158
583.80 0.6154
583.90 0.6151
584.00 0.6148
584.10 0.6144
584.20 0.6141
584.30 0.6137
584.40 0.6134
584.50 0.6131
584.60 0.6127
584.70 0.6124
584.80 0.612
584.90 0.6117
585.00 0.6114
585.10 0.611
585.20 0.6107
585.30 0.6103
585.40 0.61
585.50 0.6097
585.60 0.6093
585.70 0.609
585.80 0.6087
585.90 0.6083
586.00 0.608
586.10 0.6076
586.20 0.6073
586.30 0.607
586.40 0.6066
586.50 0.6063
586.60 0.606
586.70 0.6056
586.80 0.6053
586.90 0.605
587.00 0.6046
587.10 0.6043
587.20 0.604
587.30 0.6036
587.40 0.6033
587.50 0.603
587.60 0.6026
587.70 0.6023
587.80 0.602
587.90 0.6016
588.00 0.6013
588.10 0.601
588.20 0.6006
588.30 0.6003
588.40 0.6
588.50 0.5996
588.60 0.5993
588.70 0.599
588.80 0.5986
588.90 0.5983
589.00 0.598
589.10 0.5977
589.20 0.5973
589.30 0.597
589.40 0.5967
589.50 0.5963
589.60 0.596
589.70 0.5957
589.80 0.5954
589.90 0.595
590.00 0.5947
590.10 0.5944
590.20 0.594
590.30 0.5937
590.40 0.5934
590.50 0.5931
590.60 0.5927
590.70 0.5924
590.80 0.5921
590.90 0.5918
591.00 0.5914
591.10 0.5911
591.20 0.5908
591.30 0.5905
591.40 0.5901
591.50 0.5898
591.60 0.5895
591.70 0.5892
591.80 0.5889
591.90 0.5885
592.00 0.5882
592.10 0.5879
592.20 0.5876
592.30 0.5872
592.40 0.5869
592.50 0.5866
592.60 0.5863
592.70 0.586
592.80 0.5856
592.90 0.5853
593.00 0.585
593.10 0.5847
593.20 0.5844
593.30 0.584
593.40 0.5837
593.50 0.5834
593.60 0.5831
593.70 0.5828
593.80 0.5824
593.90 0.5821
594.00 0.5818
594.10 0.5815
594.20 0.5812
594.30 0.5808
594.40 0.5805
594.50 0.5802
594.60 0.5799
594.70 0.5796
594.80 0.5793
594.90 0.5789
595.00 0.5786
595.10 0.5783
595.20 0.578
595.30 0.5777
595.40 0.5774
595.50 0.577
595.60 0.5767
595.70 0.5764
595.80 0.5761
595.90 0.5758
596.00 0.5755
596.10 0.5752
596.20 0.5748
596.30 0.5745
596.40 0.5741
596.50 0.5738
596.60 0.5735
596.70 0.5731
596.80 0.5728
596.90 0.5724
597.00 0.5721
597.10 0.5718
597.20 0.5714
597.30 0.5711
597.40 0.5708
597.50 0.5705
597.60 0.5702
597.70 0.5699
597.80 0.5696
597.90 0.5693
598.00 0.569
598.10 0.5686
598.20 0.5683
598.30 0.568
598.40 0.5677
598.50 0.5674
598.60 0.5671
598.70 0.5668
598.80 0.5665
598.90 0.5662
599.00 0.5659
599.10 0.5656
599.20 0.5652
599.30 0.5649
599.40 0.5646
599.50 0.5643
599.60 0.564
599.70 0.5637
599.80 0.5634
599.90 0.5631
600.00 0.5628
600.10 0.5625
600.20 0.5622
600.30 0.5619
600.40 0.5616
600.50 0.5613
600.60 0.561
600.70 0.5607
600.80 0.5603
600.90 0.56
601.00 0.5597
601.10 0.5594
601.20 0.5591
601.30 0.5588
601.40 0.5585
601.50 0.5582
601.60 0.5579
601.70 0.5576
601.80 0.5573
601.90 0.557
602.00 0.5567
602.10 0.5564
602.20 0.5561
602.30 0.5558
602.40 0.5555
602.50 0.5552
602.60 0.5549
602.70 0.5546
602.80 0.5543
602.90 0.554
603.00 0.5537
603.10 0.5534
603.20 0.5531
603.30 0.5528
603.40 0.5525
603.50 0.5522
603.60 0.5519
603.70 0.5516
603.80 0.5513
603.90 0.551
604.00 0.5507
604.10 0.5504
604.20 0.5501
604.30 0.5498
604.40 0.5495
604.50 0.5492
604.60 0.5489
604.70 0.5486
604.80 0.5483
604.90 0.548
605.00 0.5477
605.10 0.5474
605.20 0.5471
605.30 0.5468
605.40 0.5465
605.50 0.5462
605.60 0.546
605.70 0.5457
605.80 0.5454
605.90 0.5451
606.00 0.5448
606.10 0.5445
606.20 0.5442
606.30 0.5439
606.40 0.5436
606.50 0.5433
606.60 0.543
606.70 0.5427
606.80 0.5424
606.90 0.5421
607.00 0.5418
607.10 0.5415
607.20 0.5413
607.30 0.541
607.40 0.5407
607.50 0.5404
607.60 0.5401
607.70 0.5398
607.80 0.5395
607.90 0.5392
608.00 0.5389
608.10 0.5386
608.20 0.5383
608.30 0.5381
608.40 0.5378
608.50 0.5375
608.60 0.5372
608.70 0.5369
608.80 0.5366
608.90 0.5363
609.00 0.536
609.10 0.5357
609.20 0.5355
609.30 0.5352
609.40 0.5349
609.50 0.5346
609.60 0.5343
609.70 0.534
609.80 0.5337
609.90 0.5334
610.00 0.5332
610.10 0.5329
610.20 0.5326
610.30 0.5323
610.40 0.532
610.50 0.5317
610.60 0.5314
610.70 0.5311
610.80 0.5309
610.90 0.5306
611.00 0.5303
611.10 0.53
611.20 0.5297
611.30 0.5294
611.40 0.5292
611.50 0.5289
611.60 0.5286
611.70 0.5283
611.80 0.528
611.90 0.5277
612.00 0.5274
612.10 0.5272
612.20 0.5269
612.30 0.5266
612.40 0.5263
612.50 0.526
612.60 0.5257
612.70 0.5255
612.80 0.5252
612.90 0.5249
613.00 0.5246
613.10 0.5243
613.20 0.5241
613.30 0.5238
613.40 0.5235
613.50 0.5232
613.60 0.5229
613.70 0.5227
613.80 0.5224
613.90 0.5221
614.00 0.5218
614.10 0.5215
614.20 0.5213
614.30 0.521
614.40 0.5207
614.50 0.5204
614.60 0.5201
614.70 0.5199
614.80 0.5196
614.90 0.5193
615.00 0.519
615.10 0.5187
615.20 0.5185
615.30 0.5182
615.40 0.5179
615.50 0.5176
615.60 0.5174
615.70 0.5171
615.80 0.5168
615.90 0.5165
616.00 0.5162
616.10 0.516
616.20 0.5157
616.30 0.5154
616.40 0.5151
616.50 0.5149
616.60 0.5146
616.70 0.5143
616.80 0.514
616.90 0.5138
617.00 0.5135
617.10 0.5132
617.20 0.5129
617.30 0.5127
617.40 0.5124
617.50 0.5121
617.60 0.5118
617.70 0.5116
617.80 0.5113
617.90 0.511
618.00 0.5107
618.10 0.5105
618.20 0.5102
618.30 0.5099
618.40 0.5096
618.50 0.5094
618.60 0.5091
618.70 0.5088
618.80 0.5086
618.90 0.5083
619.00 0.508
619.10 0.5077
619.20 0.5075
619.30 0.5072
619.40 0.5069
619.50 0.5067
619.60 0.5064
619.70 0.5061
619.80 0.5058
619.90 0.5056
620.00 0.5053
620.10 0.505
620.20 0.5048
620.30 0.5045
620.40 0.5042
620.50 0.5039
620.60 0.5037
620.70 0.5034
620.80 0.5031
620.90 0.5029
621.00 0.5026
621.10 0.5023
621.20 0.5021
621.30 0.5018
621.40 0.5015
621.50 0.5013
621.60 0.501
621.70 0.5007
621.80 0.5005
621.90 0.5002
622.00 0.4999
622.10 0.4996
622.20 0.4994
622.30 0.4991
622.40 0.4988
622.50 0.4986
622.60 0.4983
622.70 0.498
622.80 0.4978
622.90 0.4975
623.00 0.4972
623.10 0.497
623.20 0.4967
623.30 0.4964
623.40 0.4962
623.50 0.4959
623.60 0.4956
623.70 0.4954
623.80 0.4951
623.90 0.4948
624.00 0.4946
624.10 0.4943
624.20 0.494
624.30 0.4938
624.40 0.4935
624.50 0.4933
624.60 0.493
624.70 0.4927
624.80 0.4925
624.90 0.4922
625.00 0.4919
625.10 0.4917
625.20 0.4914
625.30 0.4911
625.40 0.4909
625.50 0.4906
625.60 0.4903
625.70 0.4901
625.80 0.4898
625.90 0.4896
626.00 0.4893
626.10 0.489
626.20 0.4888
626.30 0.4885
626.40 0.4882
626.50 0.488
626.60 0.4877
626.70 0.4875
626.80 0.4872
626.90 0.4869
627.00 0.4867
627.10 0.4864
627.20 0.4861
627.30 0.4859
627.40 0.4856
627.50 0.4854
627.60 0.4851
627.70 0.4848
627.80 0.4846
627.90 0.4843
628.00 0.4841
628.10 0.4838
628.20 0.4835
628.30 0.4833
628.40 0.483
628.50 0.4827
628.60 0.4825
628.70 0.4822
628.80 0.482
628.90 0.4817
629.00 0.4814
629.10 0.4812
629.20 0.4809
629.30 0.4807
629.40 0.4804
629.50 0.4801
629.60 0.4799
629.70 0.4796
629.80 0.4794
629.90 0.4791
630.00 0.4788
630.10 0.4786
630.20 0.4783
630.30 0.4781
630.40 0.4778
630.50 0.4775
630.60 0.4773
630.70 0.477
630.80 0.4768
630.90 0.4765
631.00 0.4762
631.10 0.476
631.20 0.4757
631.30 0.4755
631.40 0.4752
631.50 0.4749
631.60 0.4747
631.70 0.4744
631.80 0.4741
631.90 0.4739
632.00 0.4736
632.10 0.4734
632.20 0.4731
632.30 0.4728
632.40 0.4726
632.50 0.4723
632.60 0.4721
632.70 0.4718
632.80 0.4715
632.90 0.4713
633.00 0.471
633.10 0.4708
633.20 0.4705
633.30 0.4702
633.40 0.47
633.50 0.4697
633.60 0.4695
633.70 0.4692
633.80 0.4689
633.90 0.4687
634.00 0.4684
634.10 0.4682
634.20 0.4679
634.30 0.4676
634.40 0.4674
634.50 0.4671
634.60 0.4668
634.70 0.4666
634.80 0.4663
634.90 0.4661
635.00 0.4658
635.10 0.4655
635.20 0.4653
635.30 0.465
635.40 0.4647
635.50 0.4645
635.60 0.4642
635.70 0.4639
635.80 0.4637
635.90 0.4634
636.00 0.4632
636.10 0.4629
636.20 0.4626
636.30 0.4624
636.40 0.4621
636.50 0.4618
636.60 0.4616
636.70 0.4613
636.80 0.461
636.90 0.4608
637.00 0.4605
637.10 0.4602
637.20 0.4599
637.30 0.4597
637.40 0.4594
637.50 0.4591
637.60 0.4589
637.70 0.4586
637.80 0.4583
637.90 0.4581
638.00 0.4578
638.10 0.4575
638.20 0.4572
638.30 0.457
638.40 0.4567
638.50 0.4564
638.60 0.4561
638.70 0.4559
638.80 0.4556
638.90 0.4553
639.00 0.455
639.10 0.4548
639.20 0.4545
639.30 0.4542
639.40 0.4539
639.50 0.4536
639.60 0.4534
639.70 0.4531
639.80 0.4528
639.90 0.4525
640.00 0.4522
640.10 0.4519
640.20 0.4517
640.30 0.4514
640.40 0.4511
640.50 0.4508
640.60 0.4505
640.70 0.4502
640.80 0.4499
640.90 0.4496
641.00 0.4493
641.10 0.449
641.20 0.4488
641.30 0.4485
641.40 0.4482
641.50 0.4479
641.60 0.4475
641.70 0.4472
641.80 0.4469
641.90 0.4466
642.00 0.4463
642.10 0.446
642.20 0.4457
642.30 0.4454
642.40 0.4451
642.50 0.4448
642.60 0.4445
642.70 0.4441
642.80 0.4438
642.90 0.4435
643.00 0.4432
643.10 0.4429
643.20 0.4425
643.30 0.4422
643.40 0.4419
643.50 0.4415
643.60 0.4412
643.70 0.4408
643.80 0.4405
643.90 0.4402
644.00 0.4398
644.10 0.4395
644.20 0.4391
644.30 0.4388
644.40 0.4384
644.50 0.438
644.60 0.4377
644.70 0.4373
644.80 0.4369
644.90 0.4365
645.00 0.4362
645.10 0.4358
645.20 0.4354
645.30 0.435
645.40 0.4346
645.50 0.4342
645.60 0.4338
645.70 0.4334
645.80 0.4329
645.90 0.4325
646.00 0.4321
646.10 0.4317
646.20 0.4313
646.30 0.4309
646.40 0.4304
646.50 0.4299
646.60 0.4294
646.70 0.4289
646.80 0.4285
646.90 0.428
647.00 0.4275
647.10 0.427
647.20 0.4266
647.30 0.4261
647.40 0.4255
647.50 0.425
647.60 0.4244
647.70 0.4238
647.80 0.4233
647.90 0.4227
648.00 0.4221
648.10 0.4216
648.20 0.421
648.30 0.4204
648.40 0.4197
648.50 0.4191
648.60 0.4184
648.70 0.4177
648.80 0.417
648.90 0.4163
649.00 0.4156
649.10 0.4149
649.20 0.4142
649.30 0.4135
649.40 0.4126
649.50 0.4118
649.60 0.4109
649.70 0.41
649.80 0.4092
649.90 0.4083
650.00 0.4075
650.10 0.4066
650.20 0.4057
650.30 0.4048
650.40 0.4037
650.50 0.4025
650.60 0.4014
650.70 0.4003
650.80 0.3992
650.90 0.398
651.00 0.3969
651.10 0.3958
651.20 0.3946
651.30 0.3934
651.40 0.3919
651.50 0.3904
651.60 0.3889
651.70 0.3873
651.80 0.3858
651.90 0.3843
652.00 0.3828
652.10 0.3812
652.20 0.3797
652.30 0.3781
652.40 0.376
652.50 0.3739
652.60 0.3719
652.70 0.3698
652.80 0.3677
652.90 0.3657
653.00 0.3636
653.10 0.3615
653.20 0.3595
653.30 0.3573
653.40 0.3545
653.50 0.3517
653.60 0.3489
653.70 0.3461
653.80 0.3433
653.90 0.3405
654.00 0.3377
654.10 0.335
654.20 0.3322
654.30 0.3293
654.40 0.3258
654.50 0.3223
654.60 0.3189
654.70 0.3154
654.80 0.3118
654.90 0.3077
655.00 0.3035
655.10 0.2994
655.20 0.2952
655.30 0.291
655.40 0.2864
655.50 0.2818
655.60 0.2767
655.70 0.2715
655.80 0.2657
655.90 0.2594
656.00 0.2514
656.10 0.2427
656.20 0.2103
656.30 0.1793
656.40 0.2319
656.50 0.246
656.60 0.2539
656.70 0.2613
656.80 0.2669
656.90 0.2723
657.00 0.2771
657.10 0.2819
657.20 0.2862
657.30 0.2904
657.40 0.2942
657.50 0.2981
657.60 0.302
657.70 0.3058
657.80 0.3095
657.90 0.3127
658.00 0.3158
658.10 0.319
658.20 0.3221
658.30 0.3251
658.40 0.3276
658.50 0.33
658.60 0.3324
658.70 0.3348
658.80 0.3373
658.90 0.3397
659.00 0.3421
659.10 0.3445
659.20 0.3469
659.30 0.3492
659.40 0.3509
659.50 0.3525
659.60 0.3542
659.70 0.3558
659.80 0.3575
659.90 0.3592
660.00 0.3608
660.10 0.3625
660.20 0.3641
660.30 0.3657
660.40 0.3668
660.50 0.3679
660.60 0.3689
660.70 0.37
660.80 0.3711
660.90 0.3722
661.00 0.3733
661.10 0.3744
661.20 0.3755
661.30 0.3765
661.40 0.3771
661.50 0.3778
661.60 0.3785
661.70 0.3792
661.80 0.3799
661.90 0.3806
662.00 0.3812
662.10 0.3819
662.20 0.3826
662.30 0.3832
662.40 0.3836
662.50 0.3841
662.60 0.3845
662.70 0.3849
662.80 0.3853
662.90 0.3857
663.00 0.3861
663.10 0.3865
663.20 0.3869
663.30 0.3873
663.40 0.3876
663.50 0.3878
663.60 0.388
663.70 0.3883
663.80 0.3885
663.90 0.3887
664.00 0.389
664.10 0.3892
664.20 0.3894
664.30 0.3897
664.40 0.3898
664.50 0.3899
664.60 0.39
664.70 0.3901
664.80 0.3902
664.90 0.3903
665.00 0.3904
665.10 0.3905
665.20 0.3907
665.30 0.3907
665.40 0.3908
665.50 0.3908
665.60 0.3908
665.70 0.3909
665.80 0.3909
665.90 0.3909
666.00 0.3909
666.10 0.391
666.20 0.391
666.30 0.391
666.40 0.391
666.50 0.391
666.60 0.3909
666.70 0.3909
666.80 0.3909
666.90 0.3909
667.00 0.3908
667.10 0.3908
667.20 0.3908
667.30 0.3907
667.40 0.3907
667.50 0.3906
667.60 0.3905
667.70 0.3905
667.80 0.3904
667.90 0.3903
668.00 0.3902
668.10 0.3902
668.20 0.3901
668.30 0.39
668.40 0.3899
668.50 0.3898
668.60 0.3897
668.70 0.3896
668.80 0.3896
668.90 0.3895
669.00 0.3894
669.10 0.3893
669.20 0.3892
669.30 0.3891
669.40 0.3889
669.50 0.3888
669.60 0.3887
669.70 0.3886
669.80 0.3885
669.90 0.3884
670.00 0.3882
670.10 0.3881
670.20 0.388
670.30 0.3879
670.40 0.3878
670.50 0.3876
670.60 0.3875
670.70 0.3874
670.80 0.3872
670.90 0.3871
671.00 0.387
671.10 0.3868
671.20 0.3867
671.30 0.3866
671.40 0.3864
671.50 0.3863
671.60 0.3861
671.70 0.386
671.80 0.3858
671.90 0.3857
672.00 0.3856
672.10 0.3854
672.20 0.3853
672.30 0.3851
672.40 0.385
672.50 0.3848
672.60 0.3847
672.70 0.3845
672.80 0.3844
672.90 0.3842
673.00 0.3841
673.10 0.3839
673.20 0.3838
673.30 0.3836
673.40 0.3835
673.50 0.3833
673.60 0.3831
673.70 0.383
673.80 0.3828
673.90 0.3827
674.00 0.3825
674.10 0.3824
674.20 0.3822
674.30 0.382
674.40 0.3819
674.50 0.3817
674.60 0.3816
674.70 0.3814
674.80 0.3812
674.90 0.3811
675.00 0.3809
675.10 0.3807
675.20 0.3806
675.30 0.3804
675.40 0.3803
675.50 0.3801
675.60 0.3799
675.70 0.3798
675.80 0.3796
675.90 0.3794
676.00 0.3793
676.10 0.3791
676.20 0.3789
676.30 0.3788
676.40 0.3786
676.50 0.3784
676.60 0.3783
676.70 0.3781
676.80 0.3779
676.90 0.3778
677.00 0.3776
677.10 0.3774
677.20 0.3773
677.30 0.3771
677.40 0.3769
677.50 0.3768
677.60 0.3766
677.70 0.3764
677.80 0.3763
677.90 0.3761
678.00 0.3759
678.10 0.3757
678.20 0.3756
678.30 0.3754
678.40 0.3752
678.50 0.3751
678.60 0.3749
678.70 0.3747
678.80 0.3746
678.90 0.3744
679.00 0.3742
679.10 0.3741
679.20 0.3739
679.30 0.3737
679.40 0.3735
679.50 0.3734
679.60 0.3732
679.70 0.373
679.80 0.3729
679.90 0.3727
680.00 0.3725
680.10 0.3723
680.20 0.3722
680.30 0.372
680.40 0.3718
680.50 0.3717
680.60 0.3715
680.70 0.3713
680.80 0.3711
680.90 0.371
681.00 0.3708
681.10 0.3706
681.20 0.3705
681.30 0.3703
681.40 0.3701
681.50 0.3699
681.60 0.3698
681.70 0.3696
681.80 0.3694
681.90 0.3693
682.00 0.3691
682.10 0.3689
682.20 0.3687
682.30 0.3686
682.40 0.3684
682.50 0.3682
682.60 0.3681
682.70 0.3679
682.80 0.3677
682.90 0.3675
683.00 0.3674
683.10 0.3672
683.20 0.367
683.30 0.3669
683.40 0.3667
683.50 0.3665
683.60 0.3663
683.70 0.3662
683.80 0.366
683.90 0.3658
684.00 0.3657
684.10 0.3655
684.20 0.3653
684.30 0.3651
684.40 0.365
684.50 0.3648
684.60 0.3646
684.70 0.3645
684.80 0.3643
684.90 0.3641
685.00 0.364
685.10 0.3638
685.20 0.3636
685.30 0.3634
685.40 0.3633
685.50 0.3631
685.60 0.3629
685.70 0.3628
685.80 0.3626
685.90 0.3624
686.00 0.3622
686.10 0.3621
686.20 0.3619
686.30 0.3617
686.40 0.3616
686.50 0.3614
686.60 0.3612
686.70 0.3611
686.80 0.3609
686.90 0.3607
687.00 0.3605
687.10 0.3604
687.20 0.3602
687.30 0.36
687.40 0.3599
687.50 0.3597
687.60 0.3595
687.70 0.3594
687.80 0.3592
687.90 0.359
688.00 0.3588
688.10 0.3587
688.20 0.3585
688.30 0.3583
688.40 0.3582
688.50 0.358
688.60 0.3578
688.70 0.3577
688.80 0.3575
688.90 0.3573
689.00 0.3572
689.10 0.357
689.20 0.3568
689.30 0.3567
689.40 0.3565
689.50 0.3563
689.60 0.3561
689.70 0.356
689.80 0.3558
689.90 0.3556
690.00 0.3555
690.10 0.3553
690.20 0.3551
690.30 0.355
690.40 0.3548
690.50 0.3546
690.60 0.3545
690.70 0.3543
690.80 0.3541
690.90 0.354
691.00 0.3538
691.10 0.3536
691.20 0.3535
691.30 0.3533
691.40 0.3531
691.50 0.353
691.60 0.3528
691.70 0.3526
691.80 0.3525
691.90 0.3523
692.00 0.3521
692.10 0.352
692.20 0.3518
692.30 0.3516
692.40 0.3515
692.50 0.3513
692.60 0.3511
692.70 0.351
692.80 0.3508
692.90 0.3506
693.00 0.3505
693.10 0.3503
693.20 0.3501
693.30 0.35
693.40 0.3498
693.50 0.3496
693.60 0.3495
693.70 0.3493
693.80 0.3491
693.90 0.349
694.00 0.3488
694.10 0.3487
694.20 0.3485
694.30 0.3483
694.40 0.3482
694.50 0.348
694.60 0.3478
694.70 0.3477
694.80 0.3475
694.90 0.3473
695.00 0.3472
695.10 0.347
695.20 0.3468
695.30 0.3467
695.40 0.3465
695.50 0.3464
695.60 0.3462
695.70 0.346
695.80 0.3459
695.90 0.3457
696.00 0.3455
696.10 0.3454
696.20 0.3452
696.30 0.3451
696.40 0.3449
696.50 0.3447
696.60 0.3446
696.70 0.3444
696.80 0.3442
696.90 0.3441
697.00 0.3439
697.10 0.3438
697.20 0.3436
697.30 0.3434
697.40 0.3433
697.50 0.3431
697.60 0.3429
697.70 0.3428
697.80 0.3426
697.90 0.3425
698.00 0.3423
698.10 0.3421
698.20 0.342
698.30 0.3418
698.40 0.3416
698.50 0.3415
698.60 0.3413
698.70 0.3412
698.80 0.341
698.90 0.3408
699.00 0.3407
699.10 0.3405
699.20 0.3404
699.30 0.3402
699.40 0.34
699.50 0.3399
699.60 0.3397
699.70 0.3396
699.80 0.3394
699.90 0.3392
700.00 0.3391
700.10 0.3389
700.20 0.3387
700.30 0.3386
700.40 0.3384
700.50 0.3382
700.60 0.3381
700.70 0.3379
700.80 0.3377
700.90 0.3376
701.00 0.3374
701.10 0.3372
701.20 0.337
701.30 0.3369
701.40 0.3367
701.50 0.3365
701.60 0.3364
701.70 0.3362
701.80 0.336
701.90 0.3359
702.00 0.3357
702.10 0.3355
702.20 0.3354
702.30 0.3352
702.40 0.335
702.50 0.3349
702.60 0.3347
702.70 0.3345
702.80 0.3343
702.90 0.3342
703.00 0.334
703.10 0.3338
703.20 0.3337
703.30 0.3335
703.40 0.3333
703.50 0.3332
703.60 0.333
703.70 0.3328
703.80 0.3327
703.90 0.3325
704.00 0.3323
704.10 0.3322
704.20 0.332
704.30 0.3318
704.40 0.3317
704.50 0.3315
704.60 0.3313
704.70 0.3312
704.80 0.331
704.90 0.3308
705.00 0.3307
705.10 0.3305
705.20 0.3304
705.30 0.3302
705.40 0.3301
705.50 0.3299
705.60 0.3297
705.70 0.3296
705.80 0.3294
705.90 0.3293
706.00 0.3291
706.10 0.329
706.20 0.3288
706.30 0.3287
706.40 0.3285
706.50 0.3284
706.60 0.3282
706.70 0.328
706.80 0.3279
706.90 0.3277
707.00 0.3276
707.10 0.3274
707.20 0.3273
707.30 0.3271
707.40 0.327
707.50 0.3268
707.60 0.3267
707.70 0.3265
707.80 0.3264
707.90 0.3262
708.00 0.3261
708.10 0.3259
708.20 0.3257
708.30 0.3256
708.40 0.3254
708.50 0.3253
708.60 0.3251
708.70 0.325
708.80 0.3248
708.90 0.3247
709.00 0.3245
709.10 0.3244
709.20 0.3242
709.30 0.3241
709.40 0.3239
709.50 0.3238
709.60 0.3236
709.70 0.3235
709.80 0.3233
709.90 0.3232
710.00 0.323
710.10 0.3229
710.20 0.3227
710.30 0.3226
710.40 0.3224
710.50 0.3223
710.60 0.3221
710.70 0.322
710.80 0.3218
710.90 0.3217
711.00 0.3215
711.10 0.3214
711.20 0.3212
711.30 0.3211
711.40 0.3209
711.50 0.3208
711.60 0.3206
711.70 0.3205
711.80 0.3203
711.90 0.3202
712.00 0.32
712.10 0.3199
712.20 0.3197
712.30 0.3196
712.40 0.3194
712.50 0.3193
712.60 0.3191
712.70 0.319
712.80 0.3188
712.90 0.3187
713.00 0.3185
713.10 0.3184
713.20 0.3182
713.30 0.3181
713.40 0.3179
713.50 0.3178
713.60 0.3176
713.70 0.3175
713.80 0.3173
713.90 0.3172
714.00 0.317
714.10 0.3169
714.20 0.3167
714.30 0.3166
714.40 0.3164
714.50 0.3163
714.60 0.3161
714.70 0.316
714.80 0.3159
714.90 0.3157
715.00 0.3156
715.10 0.3154
715.20 0.3153
715.30 0.3151
715.40 0.315
715.50 0.3148
715.60 0.3147
715.70 0.3145
715.80 0.3144
715.90 0.3143
716.00 0.3141
716.10 0.314
716.20 0.3138
716.30 0.3137
716.40 0.3135
716.50 0.3134
716.60 0.3132
716.70 0.3131
716.80 0.313
716.90 0.3128
717.00 0.3127
717.10 0.3125
717.20 0.3124
717.30 0.3122
717.40 0.3121
717.50 0.3119
717.60 0.3118
717.70 0.3117
717.80 0.3115
717.90 0.3114
718.00 0.3112
718.10 0.3111
718.20 0.3109
718.30 0.3108
718.40 0.3107
718.50 0.3105
718.60 0.3104
718.70 0.3102
718.80 0.3101
718.90 0.3099
719.00 0.3098
719.10 0.3097
719.20 0.3095
719.30 0.3094
719.40 0.3092
719.50 0.3091
719.60 0.3089
719.70 0.3088
719.80 0.3087
719.90 0.3085
720.00 0.3084
720.10 0.3082
720.20 0.3081
720.30 0.3079
720.40 0.3078
720.50 0.3077
720.60 0.3075
720.70 0.3074
720.80 0.3072
720.90 0.3071
721.00 0.3069
721.10 0.3068
721.20 0.3067
721.30 0.3065
721.40 0.3064
721.50 0.3062
721.60 0.3061
721.70 0.306
721.80 0.3058
721.90 0.3057
722.00 0.3055
722.10 0.3054
722.20 0.3052
722.30 0.3051
722.40 0.305
722.50 0.3048
722.60 0.3047
722.70 0.3045
722.80 0.3044
722.90 0.3043
723.00 0.3041
723.10 0.304
723.20 0.3038
723.30 0.3037
723.40 0.3036
723.50 0.3034
723.60 0.3033
723.70 0.3031
723.80 0.303
723.90 0.3029
724.00 0.3027
724.10 0.3026
724.20 0.3024
724.30 0.3023
724.40 0.3022
724.50 0.302
724.60 0.3019
724.70 0.3017
724.80 0.3016
724.90 0.3015
725.00 0.3013
725.10 0.3012
725.20 0.301
725.30 0.3009
725.40 0.3008
725.50 0.3006
725.60 0.3005
725.70 0.3004
725.80 0.3002
725.90 0.3001
726.00 0.2999
726.10 0.2998
726.20 0.2997
726.30 0.2995
726.40 0.2994
726.50 0.2993
726.60 0.2991
726.70 0.299
726.80 0.2988
726.90 0.2987
727.00 0.2986
727.10 0.2984
727.20 0.2983
727.30 0.2982
727.40 0.298
727.50 0.2979
727.60 0.2977
727.70 0.2976
727.80 0.2975
727.90 0.2973
728.00 0.2972
728.10 0.2971
728.20 0.2969
728.30 0.2968
728.40 0.2966
728.50 0.2965
728.60 0.2964
728.70 0.2962
728.80 0.2961
728.90 0.296
729.00 0.2958
729.10 0.2957
729.20 0.2956
729.30 0.2954
729.40 0.2953
729.50 0.2952
729.60 0.295
729.70 0.2949
729.80 0.2947
729.90 0.2946
730.00 0.2945
730.10 0.2943
730.20 0.2942
730.30 0.2941
730.40 0.2939
730.50 0.2938
730.60 0.2937
730.70 0.2935
730.80 0.2934
730.90 0.2933
731.00 0.2931
731.10 0.293
731.20 0.2929
731.30 0.2927
731.40 0.2926
731.50 0.2925
731.60 0.2923
731.70 0.2922
731.80 0.2921
731.90 0.2919
732.00 0.2918
732.10 0.2917
732.20 0.2915
732.30 0.2914
732.40 0.2913
732.50 0.2911
732.60 0.291
732.70 0.2909
732.80 0.2907
732.90 0.2906
733.00 0.2905
733.10 0.2903
733.20 0.2902
733.30 0.2901
733.40 0.2899
733.50 0.2898
733.60 0.2897
733.70 0.2896
733.80 0.2894
733.90 0.2893
734.00 0.2892
734.10 0.289
734.20 0.2889
734.30 0.2888
734.40 0.2886
734.50 0.2885
734.60 0.2884
734.70 0.2882
734.80 0.2881
734.90 0.288
735.00 0.2878
735.10 0.2877
735.20 0.2876
735.30 0.2874
735.40 0.2873
735.50 0.2872
735.60 0.2871
735.70 0.2869
735.80 0.2868
735.90 0.2867
736.00 0.2865
736.10 0.2864
736.20 0.2863
736.30 0.2861
736.40 0.286
736.50 0.2859
736.60 0.2858
736.70 0.2856
736.80 0.2855
736.90 0.2854
737.00 0.2852
737.10 0.2851
737.20 0.285
737.30 0.2848
737.40 0.2847
737.50 0.2846
737.60 0.2845
737.70 0.2843
737.80 0.2842
737.90 0.2841
738.00 0.2839
738.10 0.2838
738.20 0.2837
738.30 0.2835
738.40 0.2834
738.50 0.2833
738.60 0.2832
738.70 0.283
738.80 0.2829
738.90 0.2828
739.00 0.2826
739.10 0.2825
739.20 0.2824
739.30 0.2823
739.40 0.2821
739.50 0.282
739.60 0.2819
739.70 0.2817
739.80 0.2816
739.90 0.2815
740.00 0.2814
740.10 0.2812
740.20 0.2811
740.30 0.281
740.40 0.2809
740.50 0.2807
740.60 0.2806
740.70 0.2805
740.80 0.2803
740.90 0.2802
741.00 0.2801
741.10 0.28
741.20 0.2798
741.30 0.2797
741.40 0.2796
741.50 0.2795
741.60 0.2793
741.70 0.2792
741.80 0.2791
741.90 0.279
742.00 0.2788
742.10 0.2787
742.20 0.2786
742.30 0.2785
742.40 0.2783
742.50 0.2782
742.60 0.2781
742.70 0.278
742.80 0.2778
742.90 0.2777
743.00 0.2776
743.10 0.2775
743.20 0.2773
743.30 0.2772
743.40 0.2771
743.50 0.277
743.60 0.2768
743.70 0.2767
743.80 0.2766
743.90 0.2765
744.00 0.2763
744.10 0.2762
744.20 0.2761
744.30 0.276
744.40 0.2758
744.50 0.2757
744.60 0.2756
744.70 0.2755
744.80 0.2753
744.90 0.2752
745.00 0.2751
745.10 0.275
745.20 0.2749
745.30 0.2747
745.40 0.2746
745.50 0.2745
745.60 0.2744
745.70 0.2742
745.80 0.2741
745.90 0.274
746.00 0.2739
746.10 0.2737
746.20 0.2736
746.30 0.2735
746.40 0.2734
746.50 0.2732
746.60 0.2731
746.70 0.273
746.80 0.2729
746.90 0.2728
747.00 0.2726
747.10 0.2725
747.20 0.2724
747.30 0.2723
747.40 0.2721
747.50 0.272
747.60 0.2719
747.70 0.2718
747.80 0.2717
747.90 0.2715
748.00 0.2714
748.10 0.2713
748.20 0.2712
748.30 0.271
748.40 0.2709
748.50 0.2708
748.60 0.2707
748.70 0.2706
748.80 0.2704
748.90 0.2703
749.00 0.2702
749.10 0.2701
749.20 0.2699
749.30 0.2698
749.40 0.2697
749.50 0.2696
749.60 0.2695
749.70 0.2693
749.80 0.2692
749.90 0.2691
750.00 0.269
750.10 0.2689
750.20 0.2687
750.30 0.2686
750.40 0.2685
750.50 0.2684
750.60 0.2683
750.70 0.2681
750.80 0.268
750.90 0.2679
751.00 0.2678
751.10 0.2677
751.20 0.2675
751.30 0.2674
751.40 0.2673
751.50 0.2672
751.60 0.2671
751.70 0.267
751.80 0.2668
751.90 0.2667
752.00 0.2666
752.10 0.2665
752.20 0.2664
752.30 0.2662
752.40 0.2661
752.50 0.266
752.60 0.2659
752.70 0.2658
752.80 0.2656
752.90 0.2655
753.00 0.2654
753.10 0.2653
753.20 0.2652
753.30 0.2651
753.40 0.2649
753.50 0.2648
753.60 0.2647
753.70 0.2646
753.80 0.2645
753.90 0.2644
754.00 0.2642
754.10 0.2641
754.20 0.264
754.30 0.2639
754.40 0.2638
754.50 0.2636
754.60 0.2635
754.70 0.2634
754.80 0.2633
754.90 0.2632
755.00 0.2631
755.10 0.2629
755.20 0.2628
755.30 0.2627
755.40 0.2626
755.50 0.2625
755.60 0.2624
755.70 0.2622
755.80 0.2621
755.90 0.262
756.00 0.2619
756.10 0.2618
756.20 0.2617
756.30 0.2615
756.40 0.2614
756.50 0.2613
756.60 0.2612
756.70 0.2611
756.80 0.261
756.90 0.2608
757.00 0.2607
757.10 0.2606
757.20 0.2605
757.30 0.2604
757.40 0.2603
757.50 0.2602
757.60 0.26
757.70 0.2599
757.80 0.2598
757.90 0.2597
758.00 0.2596
758.10 0.2595
758.20 0.2593
758.30 0.2592
758.40 0.2591
758.50 0.259
758.60 0.2589
758.70 0.2588
758.80 0.2587
758.90 0.2585
759.00 0.2584
759.10 0.2583
759.20 0.2582
759.30 0.2581
759.40 0.258
759.50 0.2578
759.60 0.2577
759.70 0.2576
759.80 0.2575
759.90 0.2574
760.00 0.2573
760.10 0.2572
760.20 0.257
760.30 0.2569
760.40 0.2568
760.50 0.2567
760.60 0.2566
760.70 0.2565
760.80 0.2564
760.90 0.2563
761.00 0.2561
761.10 0.256
761.20 0.2559
761.30 0.2558
761.40 0.2557
761.50 0.2556
761.60 0.2555
761.70 0.2554
761.80 0.2552
761.90 0.2551
762.00 0.255
762.10 0.2549
762.20 0.2548
762.30 0.2547
762.40 0.2546
762.50 0.2545
762.60 0.2543
762.70 0.2542
762.80 0.2541
762.90 0.254
763.00 0.2539
763.10 0.2538
763.20 0.2537
763.30 0.2536
763.40 0.2535
763.50 0.2533
763.60 0.2532
763.70 0.2531
763.80 0.253
763.90 0.2529
764.00 0.2528
764.10 0.2527
764.20 0.2526
764.30 0.2525
764.40 0.2523
764.50 0.2522
764.60 0.2521
764.70 0.252
764.80 0.2519
764.90 0.2518
765.00 0.2517
765.10 0.2516
765.20 0.2515
765.30 0.2513
765.40 0.2512
765.50 0.2511
765.60 0.251
765.70 0.2509
765.80 0.2508
765.90 0.2507
766.00 0.2506
766.10 0.2505
766.20 0.2504
766.30 0.2502
766.40 0.2501
766.50 0.25
766.60 0.2499
766.70 0.2498
766.80 0.2497
766.90 0.2496
767.00 0.2495
767.10 0.2494
767.20 0.2493
767.30 0.2491
767.40 0.249
767.50 0.2489
767.60 0.2488
767.70 0.2487
767.80 0.2486
767.90 0.2485
768.00 0.2484
768.10 0.2483
768.20 0.2482
768.30 0.2481
768.40 0.2479
768.50 0.2478
768.60 0.2477
768.70 0.2476
768.80 0.2475
768.90 0.2474
769.00 0.2473
769.10 0.2472
769.20 0.2471
769.30 0.247
769.40 0.2469
769.50 0.2467
769.60 0.2466
769.70 0.2465
769.80 0.2464
769.90 0.2463
770.00 0.2462
770.10 0.2461
770.20 0.246
770.30 0.2459
770.40 0.2458
770.50 0.2457
770.60 0.2456
770.70 0.2455
770.80 0.2453
770.90 0.2452
771.00 0.2451
771.10 0.245
771.20 0.2449
771.30 0.2448
771.40 0.2447
771.50 0.2446
771.60 0.2445
771.70 0.2444
771.80 0.2443
771.90 0.2442
772.00 0.2441
772.10 0.244
772.20 0.2439
772.30 0.2438
772.40 0.2436
772.50 0.2435
772.60 0.2434
772.70 0.2433
772.80 0.2432
772.90 0.2431
773.00 0.243
773.10 0.2429
773.20 0.2428
773.30 0.2427
773.40 0.2426
773.50 0.2425
773.60 0.2424
773.70 0.2423
773.80 0.2422
773.90 0.2421
774.00 0.242
774.10 0.2419
774.20 0.2417
774.30 0.2416
774.40 0.2415
774.50 0.2414
774.60 0.2413
774.70 0.2412
774.80 0.2411
774.90 0.241
775.00 0.2409
775.10 0.2408
775.20 0.2407
775.30 0.2406
775.40 0.2405
775.50 0.2404
775.60 0.2403
775.70 0.2402
775.80 0.2401
775.90 0.24
776.00 0.2399
776.10 0.2398
776.20 0.2397
776.30 0.2395
776.40 0.2394
776.50 0.2393
776.60 0.2392
776.70 0.2391
776.80 0.239
776.90 0.2389
777.00 0.2388
777.10 0.2387
777.20 0.2386
777.30 0.2385
777.40 0.2384
777.50 0.2383
777.60 0.2382
777.70 0.2381
777.80 0.238
777.90 0.2379
778.00 0.2378
778.10 0.2377
778.20 0.2376
778.30 0.2375
778.40 0.2374
778.50 0.2373
778.60 0.2372
778.70 0.2371
778.80 0.237
778.90 0.2369
779.00 0.2368
779.10 0.2366
779.20 0.2365
779.30 0.2364
779.40 0.2363
779.50 0.2362
779.60 0.2361
779.70 0.236
779.80 0.2359
779.90 0.2358
780.00 0.2357
780.10 0.2356
780.20 0.2355
780.30 0.2354
780.40 0.2353
780.50 0.2352
780.60 0.2351
780.70 0.235
780.80 0.2349
780.90 0.2348
781.00 0.2347
781.10 0.2346
781.20 0.2345
781.30 0.2344
781.40 0.2343
781.50 0.2342
781.60 0.2341
781.70 0.234
781.80 0.2339
781.90 0.2338
782.00 0.2337
782.10 0.2336
782.20 0.2335
782.30 0.2334
782.40 0.2333
782.50 0.2332
782.60 0.2331
782.70 0.233
782.80 0.2329
782.90 0.2328
783.00 0.2327
783.10 0.2326
783.20 0.2325
783.30 0.2324
783.40 0.2323
783.50 0.2322
783.60 0.2321
783.70 0.232
783.80 0.2319
783.90 0.2318
784.00 0.2317
784.10 0.2316
784.20 0.2315
784.30 0.2314
784.40 0.2313
784.50 0.2312
784.60 0.2311
784.70 0.231
784.80 0.2309
784.90 0.2308
785.00 0.2307
785.10 0.2306
785.20 0.2305
785.30 0.2304
785.40 0.2303
785.50 0.2302
785.60 0.2301
785.70 0.23
785.80 0.2299
785.90 0.2298
786.00 0.2297
786.10 0.2296
786.20 0.2295
786.30 0.2294
786.40 0.2293
786.50 0.2292
786.60 0.2291
786.70 0.229
786.80 0.2289
786.90 0.2288
787.00 0.2287
787.10 0.2286
787.20 0.2285
787.30 0.2284
787.40 0.2283
787.50 0.2282
787.60 0.2281
787.70 0.228
787.80 0.2279
787.90 0.2279
788.00 0.2278
788.10 0.2277
788.20 0.2276
788.30 0.2275
788.40 0.2274
788.50 0.2273
788.60 0.2272
788.70 0.2271
788.80 0.227
788.90 0.2269
789.00 0.2268
789.10 0.2267
789.20 0.2266
789.30 0.2265
789.40 0.2264
789.50 0.2263
789.60 0.2262
789.70 0.2261
789.80 0.226
789.90 0.2259
790.00 0.2258
790.10 0.2257
790.20 0.2256
790.30 0.2255
790.40 0.2254
790.50 0.2253
790.60 0.2252
790.70 0.2251
790.80 0.225
790.90 0.2249
791.00 0.2248
791.10 0.2247
791.20 0.2247
791.30 0.2246
791.40 0.2245
791.50 0.2244
791.60 0.2243
791.70 0.2242
791.80 0.2241
791.90 0.224
792.00 0.2239
792.10 0.2238
792.20 0.2237
792.30 0.2236
792.40 0.2235
792.50 0.2234
792.60 0.2233
792.70 0.2232
792.80 0.2231
792.90 0.223
793.00 0.2229
793.10 0.2228
793.20 0.2228
793.30 0.2227
793.40 0.2226
793.50 0.2225
793.60 0.2224
793.70 0.2223
793.80 0.2222
793.90 0.2221
794.00 0.222
794.10 0.2219
794.20 0.2218
794.30 0.2217
794.40 0.2216
794.50 0.2215
794.60 0.2214
794.70 0.2213
794.80 0.2212
794.90 0.2211
795.00 0.2211
795.10 0.221
795.20 0.2209
795.30 0.2208
795.40 0.2207
795.50 0.2206
795.60 0.2205
795.70 0.2204
795.80 0.2203
795.90 0.2202
796.00 0.2201
796.10 0.22
796.20 0.2199
796.30 0.2198
796.40 0.2197
796.50 0.2196
796.60 0.2196
796.70 0.2195
796.80 0.2194
796.90 0.2193
797.00 0.2192
797.10 0.2191
797.20 0.219
797.30 0.2189
797.40 0.2188
797.50 0.2187
797.60 0.2186
797.70 0.2185
797.80 0.2184
797.90 0.2183
798.00 0.2183
798.10 0.2182
798.20 0.2181
798.30 0.218
798.40 0.2179
798.50 0.2178
798.60 0.2177
798.70 0.2176
798.80 0.2175
798.90 0.2174
799.00 0.2173
799.10 0.2172
799.20 0.2171
799.30 0.217
799.40 0.217
799.50 0.2169
799.60 0.2168
799.70 0.2167
799.80 0.2166
799.90 0.2165
800.00 0.2164
800.10 0.2163
800.20 0.2162
800.30 0.2161
800.40 0.216
800.50 0.2159
800.60 0.2159
800.70 0.2158
800.80 0.2157
800.90 0.2156
801.00 0.2155
801.10 0.2154
801.20 0.2153
801.30 0.2152
801.40 0.2151
801.50 0.215
801.60 0.215
801.70 0.2149
801.80 0.2148
801.90 0.2147
802.00 0.2146
802.10 0.2145
802.20 0.2144
802.30 0.2143
802.40 0.2142
802.50 0.2141
802.60 0.2141
802.70 0.214
802.80 0.2139
802.90 0.2138
803.00 0.2137
803.10 0.2136
803.20 0.2135
803.30 0.2134
803.40 0.2133
803.50 0.2132
803.60 0.2132
803.70 0.2131
803.80 0.213
803.90 0.2129
804.00 0.2128
804.10 0.2127
804.20 0.2126
804.30 0.2125
804.40 0.2124
804.50 0.2123
804.60 0.2123
804.70 0.2122
804.80 0.2121
804.90 0.212
805.00 0.2119
805.10 0.2118
805.20 0.2117
805.30 0.2116
805.40 0.2115
805.50 0.2115
805.60 0.2114
805.70 0.2113
805.80 0.2112
805.90 0.2111
806.00 0.211
806.10 0.2109
806.20 0.2108
806.30 0.2107
806.40 0.2107
806.50 0.2106
806.60 0.2105
806.70 0.2104
806.80 0.2103
806.90 0.2102
807.00 0.2101
807.10 0.21
807.20 0.2099
807.30 0.2099
807.40 0.2098
807.50 0.2097
807.60 0.2096
807.70 0.2095
807.80 0.2094
807.90 0.2093
808.00 0.2092
808.10 0.2092
808.20 0.2091
808.30 0.209
808.40 0.2089
808.50 0.2088
808.60 0.2087
808.70 0.2086
808.80 0.2085
808.90 0.2085
809.00 0.2084
809.10 0.2083
809.20 0.2082
809.30 0.2081
809.40 0.208
809.50 0.2079
809.60 0.2078
809.70 0.2078
809.80 0.2077
809.90 0.2076
810.00 0.2075
810.10 0.2074
810.20 0.2073
810.30 0.2072
810.40 0.2071
810.50 0.2071
810.60 0.207
810.70 0.2069
810.80 0.2068
810.90 0.2067
811.00 0.2066
811.10 0.2065
811.20 0.2065
811.30 0.2064
811.40 0.2063
811.50 0.2062
811.60 0.2061
811.70 0.206
811.80 0.2059
811.90 0.2059
812.00 0.2058
812.10 0.2057
812.20 0.2056
812.30 0.2055
812.40 0.2054
812.50 0.2053
812.60 0.2053
812.70 0.2052
812.80 0.2051
812.90 0.205
813.00 0.2049
813.10 0.2048
813.20 0.2047
813.30 0.2047
813.40 0.2046
813.50 0.2045
813.60 0.2044
813.70 0.2043
813.80 0.2042
813.90 0.2042
814.00 0.2041
814.10 0.204
814.20 0.2039
814.30 0.2038
814.40 0.2037
814.50 0.2036
814.60 0.2036
814.70 0.2035
814.80 0.2034
814.90 0.2033
815.00 0.2032
815.10 0.2031
815.20 0.2031
815.30 0.203
815.40 0.2029
815.50 0.2028
815.60 0.2027
815.70 0.2026
815.80 0.2025
815.90 0.2025
816.00 0.2024
816.10 0.2023
816.20 0.2022
816.30 0.2021
816.40 0.202
816.50 0.202
816.60 0.2019
816.70 0.2018
816.80 0.2017
816.90 0.2016
817.00 0.2015
817.10 0.2015
817.20 0.2014
817.30 0.2013
817.40 0.2012
817.50 0.2011
817.60 0.201
817.70 0.201
817.80 0.2009
817.90 0.2008
818.00 0.2007
818.10 0.2006
818.20 0.2005
818.30 0.2005
818.40 0.2004
818.50 0.2003
818.60 0.2002
818.70 0.2001
818.80 0.2
818.90 0.2
819.00 0.1999
819.10 0.1998
819.20 0.1997
819.30 0.1996
819.40 0.1995
819.50 0.1995
819.60 0.1994
819.70 0.1993
819.80 0.1992
819.90 0.1991
820.00 0.199
820.10 0.199
820.20 0.1989
820.30 0.1988
820.40 0.1987
820.50 0.1986
820.60 0.1985
820.70 0.1985
820.80 0.1984
820.90 0.1983
821.00 0.1982
821.10 0.1981
821.20 0.1981
821.30 0.198
821.40 0.1979
821.50 0.1978
821.60 0.1977
821.70 0.1976
821.80 0.1976
821.90 0.1975
822.00 0.1974
822.10 0.1973
822.20 0.1972
822.30 0.1972
822.40 0.1971
822.50 0.197
822.60 0.1969
822.70 0.1968
822.80 0.1968
822.90 0.1967
823.00 0.1966
823.10 0.1965
823.20 0.1964
823.30 0.1963
823.40 0.1963
823.50 0.1962
823.60 0.1961
823.70 0.196
823.80 0.1959
823.90 0.1959
824.00 0.1958
824.10 0.1957
824.20 0.1956
824.30 0.1955
824.40 0.1955
824.50 0.1954
824.60 0.1953
824.70 0.1952
824.80 0.1951
824.90 0.1951
825.00 0.195
825.10 0.1949
825.20 0.1948
825.30 0.1947
825.40 0.1947
825.50 0.1946
825.60 0.1945
825.70 0.1944
825.80 0.1943
825.90 0.1943
826.00 0.1942
826.10 0.1941
826.20 0.194
826.30 0.1939
826.40 0.1939
826.50 0.1938
826.60 0.1937
826.70 0.1936
826.80 0.1935
826.90 0.1935
827.00 0.1934
827.10 0.1933
827.20 0.1932
827.30 0.1931
827.40 0.1931
827.50 0.193
827.60 0.1929
827.70 0.1928
827.80 0.1927
827.90 0.1927
828.00 0.1926
828.10 0.1925
828.20 0.1924
828.30 0.1924
828.40 0.1923
828.50 0.1922
828.60 0.1921
828.70 0.192
828.80 0.192
828.90 0.1919
829.00 0.1918
829.10 0.1917
829.20 0.1916
829.30 0.1916
829.40 0.1915
829.50 0.1914
829.60 0.1913
829.70 0.1913
829.80 0.1912
829.90 0.1911
830.00 0.191
830.10 0.1909
830.20 0.1909
830.30 0.1908
830.40 0.1907
830.50 0.1906
830.60 0.1905
830.70 0.1905
830.80 0.1904
830.90 0.1903
831.00 0.1902
831.10 0.1902
831.20 0.1901
831.30 0.19
831.40 0.1899
831.50 0.1898
831.60 0.1898
831.70 0.1897
831.80 0.1896
831.90 0.1895
832.00 0.1895
832.10 0.1894
832.20 0.1893
832.30 0.1892
832.40 0.1892
832.50 0.1891
832.60 0.189
832.70 0.1889
832.80 0.1888
832.90 0.1888
833.00 0.1887
833.10 0.1886
833.20 0.1885
833.30 0.1885
833.40 0.1884
833.50 0.1883
833.60 0.1882
833.70 0.1882
833.80 0.1881
833.90 0.188
834.00 0.1879
834.10 0.1878
834.20 0.1878
834.30 0.1877
834.40 0.1876
834.50 0.1875
834.60 0.1875
834.70 0.1874
834.80 0.1873
834.90 0.1872
835.00 0.1872
835.10 0.1871
835.20 0.187
835.30 0.1869
835.40 0.1869
835.50 0.1868
835.60 0.1867
835.70 0.1866
835.80 0.1865
835.90 0.1865
836.00 0.1864
836.10 0.1863
836.20 0.1862
836.30 0.1862
836.40 0.1861
836.50 0.186
836.60 0.1859
836.70 0.1859
836.80 0.1858
836.90 0.1857
837.00 0.1856
837.10 0.1856
837.20 0.1855
837.30 0.1854
837.40 0.1853
837.50 0.1853
837.60 0.1852
837.70 0.1851
837.80 0.185
837.90 0.185
838.00 0.1849
838.10 0.1848
838.20 0.1847
838.30 0.1847
838.40 0.1846
838.50 0.1845
838.60 0.1844
838.70 0.1844
838.80 0.1843
838.90 0.1842
839.00 0.1841
839.10 0.1841
839.20 0.184
839.30 0.1839
839.40 0.1838
839.50 0.1838
839.60 0.1837
839.70 0.1836
839.80 0.1835
839.90 0.1835
840.00 0.1834
840.10 0.1833
840.20 0.1832
840.30 0.1832
840.40 0.1831
840.50 0.183
840.60 0.1829
840.70 0.1829
840.80 0.1828
840.90 0.1827
841.00 0.1826
841.10 0.1826
841.20 0.1825
841.30 0.1824
841.40 0.1823
841.50 0.1823
841.60 0.1822
841.70 0.1821
841.80 0.1821
841.90 0.182
842.00 0.1819
842.10 0.1818
842.20 0.1818
842.30 0.1817
842.40 0.1816
842.50 0.1815
842.60 0.1815
842.70 0.1814
842.80 0.1813
842.90 0.1812
843.00 0.1811
843.10 0.1811
843.20 0.181
843.30 0.1809
843.40 0.1808
843.50 0.1808
843.60 0.1807
843.70 0.1806
843.80 0.1805
843.90 0.1805
844.00 0.1804
844.10 0.1803
844.20 0.1802
844.30 0.1802
844.40 0.1801
844.50 0.18
844.60 0.1799
844.70 0.1799
844.80 0.1798
844.90 0.1797
845.00 0.1796
845.10 0.1796
845.20 0.1795
845.30 0.1794
845.40 0.1793
845.50 0.1793
845.60 0.1792
845.70 0.1791
845.80 0.179
845.90 0.179
846.00 0.1789
846.10 0.1788
846.20 0.1787
846.30 0.1787
846.40 0.1786
846.50 0.1785
846.60 0.1784
846.70 0.1784
846.80 0.1783
846.90 0.1782
847.00 0.1781
847.10 0.1781
847.20 0.1781
847.30 0.1781
847.40 0.1781
847.50 0.1781
847.60 0.178
847.70 0.178
847.80 0.178
847.90 0.178
848.00 0.178
848.10 0.178
848.20 0.178
848.30 0.1779
848.40 0.1779
848.50 0.1779
848.60 0.1779
848.70 0.1779
848.80 0.1779
848.90 0.1778
849.00 0.1778
849.10 0.1778
849.20 0.1778
849.30 0.1778
849.40 0.1778
849.50 0.1777
849.60 0.1777
849.70 0.1777
849.80 0.1777
849.90 0.1777
850.00 0.1777
850.10 0.1776
850.20 0.1776
850.30 0.1776
850.40 0.1776
850.50 0.1776
850.60 0.1776
850.70 0.1775
850.80 0.1775
850.90 0.1775
851.00 0.1775
851.10 0.1775
851.20 0.1775
851.30 0.1775
851.40 0.1774
851.50 0.1774
851.60 0.1774
851.70 0.1774
851.80 0.1774
851.90 0.1774
852.00 0.1773
852.10 0.1773
852.20 0.1773
852.30 0.1772
852.40 0.1772
852.50 0.1772
852.60 0.1771
852.70 0.1771
852.80 0.1771
852.90 0.177
853.00 0.177
853.10 0.1769
853.20 0.1769
853.30 0.1769
853.40 0.1768
853.50 0.1768
853.60 0.1768
853.70 0.1767
853.80 0.1767
853.90 0.1767
854.00 0.1766
854.10 0.1766
854.20 0.1765
854.30 0.1765
854.40 0.1765
854.50 0.1764
854.60 0.1764
854.70 0.1764
854.80 0.1763
854.90 0.1763
855.00 0.1763
855.10 0.1762
855.20 0.1762
855.30 0.1762
855.40 0.1761
855.50 0.1761
855.60 0.176
855.70 0.176
855.80 0.176
855.90 0.1759
856.00 0.1759
856.10 0.1759
856.20 0.1758
856.30 0.1758
856.40 0.1758
856.50 0.1757
856.60 0.1757
856.70 0.1757
856.80 0.1756
856.90 0.1756
857.00 0.1755
857.10 0.1755
857.20 0.1755
857.30 0.1754
857.40 0.1754
857.50 0.1754
857.60 0.1753
857.70 0.1753
857.80 0.1752
857.90 0.1752
858.00 0.1752
858.10 0.1751
858.20 0.1751
858.30 0.175
858.40 0.175
858.50 0.175
858.60 0.1749
858.70 0.1749
858.80 0.1749
858.90 0.1748
859.00 0.1748
859.10 0.1747
859.20 0.1747
859.30 0.1747
859.40 0.1746
859.50 0.1746
859.60 0.1746
859.70 0.1745
859.80 0.1745
859.90 0.1744
860.00 0.1744
860.10 0.1744
860.20 0.1743
860.30 0.1743
860.40 0.1743
860.50 0.1742
860.60 0.1742
860.70 0.1741
860.80 0.1741
860.90 0.1741
861.00 0.174
861.10 0.174
861.20 0.1739
861.30 0.1739
861.40 0.1739
861.50 0.1738
861.60 0.1738
861.70 0.1738
861.80 0.1737
861.90 0.1737
862.00 0.1736
862.10 0.1735
862.20 0.1734
862.30 0.1732
862.40 0.1731
862.50 0.173
862.60 0.1728
862.70 0.1727
862.80 0.1725
862.90 0.1724
863.00 0.1723
863.10 0.1721
863.20 0.172
863.30 0.1719
863.40 0.1717
863.50 0.1716
863.60 0.1715
863.70 0.1713
863.80 0.1712
863.90 0.171
864.00 0.1709
864.10 0.1708
864.20 0.1706
864.30 0.1705
864.40 0.1704
864.50 0.1702
864.60 0.1701
864.70 0.17
864.80 0.1698
864.90 0.1697
865.00 0.1695
865.10 0.1694
865.20 0.1693
865.30 0.1691
865.40 0.169
865.50 0.1689
865.60 0.1687
865.70 0.1686
865.80 0.1685
865.90 0.1683
866.00 0.1682
866.10 0.1681
866.20 0.1679
866.30 0.1678
866.40 0.1677
866.50 0.1675
866.60 0.1674
866.70 0.1672
866.80 0.1671
866.90 0.167
867.00 0.1668
867.10 0.1669
867.20 0.167
867.30 0.167
867.40 0.1671
867.50 0.1672
867.60 0.1672
867.70 0.1673
867.80 0.1673
867.90 0.1674
868.00 0.1675
868.10 0.1675
868.20 0.1676
868.30 0.1676
868.40 0.1677
868.50 0.1678
868.60 0.1678
868.70 0.1679
868.80 0.1679
868.90 0.168
869.00 0.1681
869.10 0.1681
869.20 0.1682
869.30 0.1682
869.40 0.1683
869.50 0.1684
869.60 0.1684
869.70 0.1685
869.80 0.1686
869.90 0.1686
870.00 0.1687
870.10 0.1687
870.20 0.1688
870.30 0.1689
870.40 0.1689
870.50 0.169
870.60 0.169
870.70 0.1691
870.80 0.1692
870.90 0.1692
871.00 0.1693
871.10 0.1693
871.20 0.1694
871.30 0.1695
871.40 0.1695
871.50 0.1696
871.60 0.1696
871.70 0.1697
871.80 0.1698
871.90 0.1698
872.00 0.1699
872.10 0.1697
872.20 0.1696
872.30 0.1694
872.40 0.1693
872.50 0.1691
872.60 0.169
872.70 0.1688
872.80 0.1687
872.90 0.1685
873.00 0.1684
873.10 0.1682
873.20 0.1681
873.30 0.1679
873.40 0.1678
873.50 0.1676
873.60 0.1675
873.70 0.1673
873.80 0.1672
873.90 0.1671
874.00 0.1669
874.10 0.1668
874.20 0.1666
874.30 0.1665
874.40 0.1663
874.50 0.1662
874.60 0.166
874.70 0.1659
874.80 0.1657
874.90 0.1656
875.00 0.1654
875.10 0.1653
875.20 0.1651
875.30 0.165
875.40 0.1648
875.50 0.1647
875.60 0.1645
875.70 0.1644
875.80 0.1643
875.90 0.1641
876.00 0.164
876.10 0.1638
876.20 0.1637
876.30 0.1635
876.40 0.1634
876.50 0.1632
876.60 0.1631
876.70 0.1629
876.80 0.1628
876.90 0.1626
877.00 0.1625
877.10 0.1626
877.20 0.1626
877.30 0.1627
877.40 0.1627
877.50 0.1628
877.60 0.1628
877.70 0.1629
877.80 0.1629
877.90 0.163
878.00 0.163
878.10 0.1631
878.20 0.1631
878.30 0.1632
878.40 0.1632
878.50 0.1633
878.60 0.1633
878.70 0.1634
878.80 0.1634
878.90 0.1635
879.00 0.1635
879.10 0.1636
879.20 0.1636
879.30 0.1637
879.40 0.1637
879.50 0.1638
879.60 0.1638
879.70 0.1639
879.80 0.1639
879.90 0.164
880.00 0.164
880.10 0.1641
880.20 0.1641
880.30 0.1642
880.40 0.1642
880.50 0.1643
880.60 0.1643
880.70 0.1644
880.80 0.1644
880.90 0.1645
881.00 0.1645
881.10 0.1646
881.20 0.1646
881.30 0.1647
881.40 0.1647
881.50 0.1648
881.60 0.1648
881.70 0.1649
881.80 0.1649
881.90 0.165
882.00 0.165
882.10 0.1645
882.20 0.164
882.30 0.1634
882.40 0.1629
882.50 0.1624
882.60 0.1619
882.70 0.1614
882.80 0.1609
882.90 0.1603
883.00 0.1598
883.10 0.1593
883.20 0.1588
883.30 0.1583
883.40 0.1577
883.50 0.1572
883.60 0.1567
883.70 0.1562
883.80 0.1557
883.90 0.1552
884.00 0.1546
884.10 0.1541
884.20 0.1536
884.30 0.1531
884.40 0.1526
884.50 0.1521
884.60 0.1515
884.70 0.151
884.80 0.1505
884.90 0.15
885.00 0.1495
885.10 0.149
885.20 0.1485
885.30 0.1479
885.40 0.1474
885.50 0.1469
885.60 0.1464
885.70 0.1459
885.80 0.1454
885.90 0.1449
886.00 0.1444
886.10 0.1438
886.20 0.1433
886.30 0.1428
886.40 0.1423
886.50 0.1418
886.60 0.1413
886.70 0.1408
886.80 0.1403
886.90 0.1398
887.00 0.1392
887.10 0.1396
887.20 0.14
887.30 0.1404
887.40 0.1408
887.50 0.1412
887.60 0.1416
887.70 0.142
887.80 0.1424
887.90 0.1428
888.00 0.1432
888.10 0.1436
888.20 0.1439
888.30 0.1443
888.40 0.1447
888.50 0.1451
888.60 0.1455
888.70 0.1459
888.80 0.1463
888.90 0.1467
889.00 0.1471
889.10 0.1475
889.20 0.1478
889.30 0.1482
889.40 0.1486
889.50 0.149
889.60 0.1494
889.70 0.1498
889.80 0.1502
889.90 0.1506
890.00 0.1509
890.10 0.1513
890.20 0.1517
890.30 0.1521
890.40 0.1525
890.50 0.1529
890.60 0.1533
890.70 0.1536
890.80 0.154
890.90 0.1544
891.00 0.1548
891.10 0.1552
891.20 0.1556
891.30 0.156
891.40 0.1563
891.50 0.1567
891.60 0.1571
891.70 0.1575
891.80 0.1579
891.90 0.1583
892.00 0.1586
892.10 0.1585
892.20 0.1583
892.30 0.1582
892.40 0.158
892.50 0.1578
892.60 0.1577
892.70 0.1575
892.80 0.1574
892.90 0.1572
893.00 0.1571
893.10 0.1569
893.20 0.1567
893.30 0.1566
893.40 0.1564
893.50 0.1563
893.60 0.1561
893.70 0.1559
893.80 0.1558
893.90 0.1556
894.00 0.1555
894.10 0.1553
894.20 0.1551
894.30 0.155
894.40 0.1548
894.50 0.1547
894.60 0.1545
894.70 0.1544
894.80 0.1542
894.90 0.154
895.00 0.1539
895.10 0.1537
895.20 0.1536
895.30 0.1534
895.40 0.1533
895.50 0.1531
895.60 0.1529
895.70 0.1528
895.80 0.1526
895.90 0.1525
896.00 0.1523
896.10 0.1522
896.20 0.152
896.30 0.1518
896.40 0.1517
896.50 0.1515
896.60 0.1514
896.70 0.1512
896.80 0.1511
896.90 0.1509
897.00 0.1507
897.10 0.1502
897.20 0.1496
897.30 0.149
897.40 0.1485
897.50 0.1479
897.60 0.1473
897.70 0.1468
897.80 0.1462
897.90 0.1456
898.00 0.1451
898.10 0.1445
898.20 0.144
898.30 0.1434
898.40 0.1428
898.50 0.1423
898.60 0.1417
898.70 0.1411
898.80 0.1406
898.90 0.14
899.00 0.1394
899.10 0.1389
899.20 0.1383
899.30 0.1378
899.40 0.1372
899.50 0.1366
899.60 0.1361
899.70 0.1355
899.80 0.135
899.90 0.1344
900.00 0.1338
900.10 0.1333
900.20 0.1327
900.30 0.1322
900.40 0.1316
900.50 0.131
900.60 0.1305
900.70 0.1299
900.80 0.1294
900.90 0.1288
901.00 0.1282
901.10 0.1277
901.20 0.1271
901.30 0.1266
901.40 0.126
901.50 0.1255
901.60 0.1249
901.70 0.1243
901.80 0.1238
901.90 0.1232
902.00 0.1227
902.10 0.1232
902.20 0.1236
902.30 0.1241
902.40 0.1246
902.50 0.125
902.60 0.1255
902.70 0.126
902.80 0.1265
902.90 0.1269
903.00 0.1274
903.10 0.1279
903.20 0.1283
903.30 0.1288
903.40 0.1293
903.50 0.1297
903.60 0.1302
903.70 0.1307
903.80 0.1311
903.90 0.1316
904.00 0.1321
904.10 0.1326
904.20 0.133
904.30 0.1335
904.40 0.134
904.50 0.1344
904.60 0.1349
904.70 0.1354
904.80 0.1358
904.90 0.1363
905.00 0.1368
905.10 0.1372
905.20 0.1377
905.30 0.1382
905.40 0.1386
905.50 0.1391
905.60 0.1395
905.70 0.14
905.80 0.1405
905.90 0.1409
906.00 0.1414
906.10 0.1419
906.20 0.1423
906.30 0.1428
906.40 0.1433
906.50 0.1437
906.60 0.1442
906.70 0.1446
906.80 0.1451
906.90 0.1456
907.00 0.146
907.10 0.1461
907.20 0.1462
907.30 0.1462
907.40 0.1463
907.50 0.1464
907.60 0.1465
907.70 0.1465
907.80 0.1466
907.90 0.1467
908.00 0.1467
908.10 0.1468
908.20 0.1469
908.30 0.147
908.40 0.147
908.50 0.1471
908.60 0.1472
908.70 0.1472
908.80 0.1473
908.90 0.1474
909.00 0.1474
909.10 0.1475
909.20 0.1476
909.30 0.1477
909.40 0.1477
909.50 0.1478
909.60 0.1479
909.70 0.1479
909.80 0.148
909.90 0.1481
910.00 0.1481
910.10 0.1482
910.20 0.1483
910.30 0.1484
910.40 0.1484
910.50 0.1485
910.60 0.1486
910.70 0.1486
910.80 0.1487
910.90 0.1488
911.00 0.1488
911.10 0.1489
911.20 0.149
911.30 0.1491
911.40 0.1491
911.50 0.1492
911.60 0.1493
911.70 0.1493
911.80 0.1494
911.90 0.1495
912.00 0.1495
912.10 0.1493
912.20 0.1491
912.30 0.1489
912.40 0.1487
912.50 0.1484
912.60 0.1482
912.70 0.148
912.80 0.1478
912.90 0.1475
913.00 0.1473
913.10 0.1471
913.20 0.1469
913.30 0.1467
913.40 0.1464
913.50 0.1462
913.60 0.146
913.70 0.1458
913.80 0.1456
913.90 0.1453
914.00 0.1451
914.10 0.1449
914.20 0.1447
914.30 0.1445
914.40 0.1442
914.50 0.144
914.60 0.1438
914.70 0.1436
914.80 0.1434
914.90 0.1431
915.00 0.1429
915.10 0.1427
915.20 0.1425
915.30 0.1423
915.40 0.1421
915.50 0.1418
915.60 0.1416
915.70 0.1414
915.80 0.1412
915.90 0.141
916.00 0.1407
916.10 0.1405
916.20 0.1403
916.30 0.1401
916.40 0.1399
916.50 0.1397
916.60 0.1394
916.70 0.1392
916.80 0.139
916.90 0.1388
917.00 0.1386
917.10 0.1379
917.20 0.1373
917.30 0.1367
917.40 0.1361
917.50 0.1354
917.60 0.1348
917.70 0.1342
917.80 0.1336
917.90 0.1329
918.00 0.1323
918.10 0.1317
918.20 0.1311
918.30 0.1304
918.40 0.1298
918.50 0.1292
918.60 0.1286
918.70 0.1279
918.80 0.1273
918.90 0.1267
919.00 0.1261
919.10 0.1254
919.20 0.1248
919.30 0.1242
919.40 0.1236
919.50 0.123
919.60 0.1223
919.70 0.1217
919.80 0.1211
919.90 0.1205
920.00 0.1199
920.10 0.1192
920.20 0.1186
920.30 0.118
920.40 0.1174
920.50 0.1168
920.60 0.1161
920.70 0.1155
920.80 0.1149
920.90 0.1143
921.00 0.1137
921.10 0.1131
921.20 0.1124
921.30 0.1118
921.40 0.1112
921.50 0.1106
921.60 0.11
921.70 0.1094
921.80 0.1088
921.90 0.1081
922.00 0.1075
922.10 0.1079
922.20 0.1083
922.30 0.1088
922.40 0.1092
922.50 0.1096
922.60 0.11
922.70 0.1104
922.80 0.1108
922.90 0.1112
923.00 0.1116
923.10 0.112
923.20 0.1125
923.30 0.1129
923.40 0.1133
923.50 0.1137
923.60 0.1141
923.70 0.1145
923.80 0.1149
923.90 0.1153
924.00 0.1157
924.10 0.1161
924.20 0.1166
924.30 0.117
924.40 0.1174
924.50 0.1178
924.60 0.1182
924.70 0.1186
924.80 0.119
924.90 0.1194
925.00 0.1198
925.10 0.1202
925.20 0.1206
925.30 0.121
925.40 0.1214
925.50 0.1218
925.60 0.1222
925.70 0.1227
925.80 0.1231
925.90 0.1235
926.00 0.1239
926.10 0.1243
926.20 0.1247
926.30 0.1251
926.40 0.1255
926.50 0.1259
926.60 0.1263
926.70 0.1267
926.80 0.1271
926.90 0.1275
927.00 0.1279
927.10 0.1281
927.20 0.1283
927.30 0.1285
927.40 0.1288
927.50 0.129
927.60 0.1292
927.70 0.1294
927.80 0.1296
927.90 0.1298
928.00 0.13
928.10 0.1302
928.20 0.1304
928.30 0.1306
928.40 0.1309
928.50 0.1311
928.60 0.1313
928.70 0.1315
928.80 0.1317
928.90 0.1319
929.00 0.1321
929.10 0.1323
929.20 0.1325
929.30 0.1327
929.40 0.133
929.50 0.1332
929.60 0.1334
929.70 0.1336
929.80 0.1338
929.90 0.134
930.00 0.1342
930.10 0.1344
930.20 0.1346
930.30 0.1348
930.40 0.135
930.50 0.1352
930.60 0.1355
930.70 0.1357
930.80 0.1359
930.90 0.1361
931.00 0.1363
931.10 0.1365
931.20 0.1367
931.30 0.1369
931.40 0.1371
931.50 0.1373
931.60 0.1375
931.70 0.1377
931.80 0.1379
931.90 0.1381
932.00 0.1383
932.10 0.1384
932.20 0.1384
932.30 0.1385
932.40 0.1385
932.50 0.1386
932.60 0.1386
932.70 0.1387
932.80 0.1387
932.90 0.1388
933.00 0.1388
933.10 0.1389
933.20 0.1389
933.30 0.139
933.40 0.139
933.50 0.1391
933.60 0.1391
933.70 0.1391
933.80 0.1392
933.90 0.1392
934.00 0.1393
934.10 0.1393
934.20 0.1394
934.30 0.1394
934.40 0.1394
934.50 0.1394
934.60 0.1394
934.70 0.1394
934.80 0.1394
934.90 0.1394
935.00 0.1394
935.10 0.1394
935.20 0.1394
935.30 0.1394
935.40 0.1393
935.50 0.1393
935.60 0.1393
935.70 0.1393
935.80 0.1393
935.90 0.1393
936.00 0.1393
936.10 0.1393
936.20 0.1393
936.30 0.1393
936.40 0.1393
936.50 0.1393
936.60 0.1393
936.70 0.1393
936.80 0.1392
936.90 0.1392
937.00 0.1392
937.10 0.1392
937.20 0.1392
937.30 0.1391
937.40 0.1391
937.50 0.139
937.60 0.139
937.70 0.139
937.80 0.1389
937.90 0.1389
938.00 0.1389
938.10 0.1388
938.20 0.1388
938.30 0.1388
938.40 0.1387
938.50 0.1386
938.60 0.1386
938.70 0.1385
938.80 0.1384
938.90 0.1384
939.00 0.1383
939.10 0.1383
939.20 0.1382
939.30 0.1381
939.40 0.1381
939.50 0.138
939.60 0.138
939.70 0.1379
939.80 0.1378
939.90 0.1378
940.00 0.1377
940.10 0.1376
940.20 0.1376
940.30 0.1375
940.40 0.1374
940.50 0.1373
940.60 0.1373
940.70 0.1372
940.80 0.1371
940.90 0.137
941.00 0.1369
941.10 0.1368
941.20 0.1367
941.30 0.1367
941.40 0.1366
941.50 0.1365
941.60 0.1364
941.70 0.1363
941.80 0.1362
941.90 0.1361
942.00 0.136
942.10 0.1359
942.20 0.1358
942.30 0.1357
942.40 0.1356
942.50 0.1354
942.60 0.1353
942.70 0.1352
942.80 0.135
942.90 0.1349
943.00 0.1348
943.10 0.1346
943.20 0.1345
943.30 0.1344
943.40 0.1342
943.50 0.1341
943.60 0.134
943.70 0.1338
943.80 0.1337
943.90 0.1336
944.00 0.1334
944.10 0.1333
944.20 0.1332
944.30 0.1331
944.40 0.1329
944.50 0.1327
944.60 0.1325
944.70 0.1324
944.80 0.1322
944.90 0.132
945.00 0.1319
945.10 0.1317
945.20 0.1315
945.30 0.1313
945.40 0.1311
945.50 0.1309
945.60 0.1307
945.70 0.1304
945.80 0.1302
945.90 0.13
946.00 0.1298
946.10 0.1295
946.20 0.1293
946.30 0.1291
946.40 0.1289
946.50 0.1286
946.60 0.1284
946.70 0.1282
946.80 0.128
946.90 0.1278
947.00 0.1275
947.10 0.1273
947.20 0.127
947.30 0.1267
947.40 0.1264
947.50 0.126
947.60 0.1257
947.70 0.1254
947.80 0.125
947.90 0.1247
948.00 0.1244
948.10 0.124
948.20 0.1237
948.30 0.1233
948.40 0.123
948.50 0.1227
948.60 0.1223
948.70 0.122
948.80 0.1217
948.90 0.1213
949.00 0.121
949.10 0.1207
949.20 0.1203
949.30 0.12
949.40 0.1195
949.50 0.119
949.60 0.1185
949.70 0.118
949.80 0.1176
949.90 0.1171
950.00 0.1166
950.10 0.1161
950.20 0.1156
950.30 0.1151
950.40 0.1147
950.50 0.1142
950.60 0.1137
950.70 0.1132
950.80 0.1127
950.90 0.1122
951.00 0.1118
951.10 0.1113
951.20 0.1108
951.30 0.1103
951.40 0.1097
951.50 0.1091
951.60 0.1085
951.70 0.1079
951.80 0.1073
951.90 0.1067
952.00 0.1061
952.10 0.1054
952.20 0.1047
952.30 0.1041
952.40 0.1034
952.50 0.1027
952.60 0.1021
952.70 0.1014
952.80 0.1007
952.90 0.1
953.00 0.09927
953.10 0.09854
953.20 0.09781
953.30 0.09708
953.40 0.09634
953.50 0.09561
953.60 0.09485
953.70 0.09409
953.80 0.09332
953.90 0.09256
954.00 0.09186
954.10 0.09117
954.20 0.09079
954.30 0.09185
954.40 0.09073
954.50 0.09106
954.60 0.0917
954.70 0.09234
954.80 0.09304
954.90 0.09374
955.00 0.09444
955.10 0.09514
955.20 0.0958
955.30 0.09646
955.40 0.09712
955.50 0.09778
955.60 0.09844
955.70 0.0991
955.80 0.09976
955.90 0.1003
956.00 0.1009
956.10 0.1015
956.20 0.102
956.30 0.1026
956.40 0.1032
956.50 0.1038
956.60 0.1043
956.70 0.1049
956.80 0.1055
956.90 0.106
957.00 0.1066
957.10 0.1071
957.20 0.1076
957.30 0.1081
957.40 0.1085
957.50 0.1089
957.60 0.1093
957.70 0.1097
957.80 0.1101
957.90 0.1105
958.00 0.1108
958.10 0.1112
958.20 0.1116
958.30 0.112
958.40 0.1124
958.50 0.1128
958.60 0.1132
958.70 0.1136
958.80 0.114
958.90 0.1144
959.00 0.1147
959.10 0.1151
959.20 0.1155
959.30 0.1159
959.40 0.1162
959.50 0.1164
959.60 0.1166
959.70 0.1169
959.80 0.1171
959.90 0.1174
960.00 0.1176
960.10 0.1178
960.20 0.1181
960.30 0.1183
960.40 0.1186
960.50 0.1188
960.60 0.119
960.70 0.1193
960.80 0.1195
960.90 0.1197
961.00 0.12
961.10 0.1202
961.20 0.1205
961.30 0.1207
961.40 0.1209
961.50 0.121
961.60 0.1212
961.70 0.1214
961.80 0.1215
961.90 0.1217
962.00 0.1218
962.10 0.122
962.20 0.1221
962.30 0.1222
962.40 0.1223
962.50 0.1224
962.60 0.1226
962.70 0.1227
962.80 0.1228
962.90 0.1229
963.00 0.123
963.10 0.1232
963.20 0.1233
963.30 0.1234
963.40 0.1235
963.50 0.1236
963.60 0.1236
963.70 0.1237
963.80 0.1238
963.90 0.1239
964.00 0.1239
964.10 0.124
964.20 0.1241
964.30 0.1242
964.40 0.1242
964.50 0.1243
964.60 0.1243
964.70 0.1243
964.80 0.1244
964.90 0.1244
965.00 0.1245
965.10 0.1245
965.20 0.1246
965.30 0.1246
965.40 0.1247
965.50 0.1247
965.60 0.1247
965.70 0.1248
965.80 0.1248
965.90 0.1249
966.00 0.1249
966.10 0.125
966.20 0.125
966.30 0.125
966.40 0.1251
966.50 0.1251
966.60 0.1251
966.70 0.1251
966.80 0.1251
966.90 0.1252
967.00 0.1252
967.10 0.1252
967.20 0.1252
967.30 0.1252
967.40 0.1252
967.50 0.1252
967.60 0.1252
967.70 0.1252
967.80 0.1252
967.90 0.1252
968.00 0.1252
968.10 0.1252
968.20 0.1252
968.30 0.1252
968.40 0.1252
968.50 0.1252
968.60 0.1252
968.70 0.1252
968.80 0.1252
968.90 0.1252
969.00 0.1252
969.10 0.1252
969.20 0.1252
969.30 0.1251
969.40 0.1251
969.50 0.1251
969.60 0.1251
969.70 0.1251
969.80 0.1251
969.90 0.1251
970.00 0.1251
970.10 0.1251
970.20 0.1251
970.30 0.125
970.40 0.125
970.50 0.125
970.60 0.125
970.70 0.125
970.80 0.1249
970.90 0.1249
971.00 0.1249
971.10 0.1249
971.20 0.1248
971.30 0.1248
971.40 0.1248
971.50 0.1248
971.60 0.1247
971.70 0.1247
971.80 0.1247
971.90 0.1247
972.00 0.1247
972.10 0.1246
972.20 0.1246
972.30 0.1246
972.40 0.1245
972.50 0.1245
972.60 0.1245
972.70 0.1244
972.80 0.1244
972.90 0.1244
973.00 0.1244
973.10 0.1243
973.20 0.1243
973.30 0.1243
973.40 0.1242
973.50 0.1242
973.60 0.1242
973.70 0.1241
973.80 0.1241
973.90 0.1241
974.00 0.124
974.10 0.124
974.20 0.124
974.30 0.124
974.40 0.1239
974.50 0.1239
974.60 0.1238
974.70 0.1238
974.80 0.1238
974.90 0.1237
975.00 0.1237
975.10 0.1237
975.20 0.1236
975.30 0.1236
975.40 0.1235
975.50 0.1235
975.60 0.1235
975.70 0.1234
975.80 0.1234
975.90 0.1233
976.00 0.1233
976.10 0.1233
976.20 0.1232
976.30 0.1232
976.40 0.1232
976.50 0.1231
976.60 0.1231
976.70 0.123
976.80 0.123
976.90 0.123
977.00 0.1229
977.10 0.1229
977.20 0.1228
977.30 0.1228
977.40 0.1228
977.50 0.1227
977.60 0.1227
977.70 0.1226
977.80 0.1226
977.90 0.1225
978.00 0.1225
978.10 0.1224
978.20 0.1224
978.30 0.1224
978.40 0.1223
978.50 0.1223
978.60 0.1222
978.70 0.1222
978.80 0.1221
978.90 0.1221
979.00 0.122
979.10 0.122
979.20 0.122
979.30 0.1219
979.40 0.1219
979.50 0.1218
979.60 0.1218
979.70 0.1217
979.80 0.1217
979.90 0.1216
980.00 0.1216
980.10 0.1216
980.20 0.1215
980.30 0.1215
980.40 0.1214
980.50 0.1214
980.60 0.1213
980.70 0.1213
980.80 0.1212
980.90 0.1212
981.00 0.1212
981.10 0.1211
981.20 0.1211
981.30 0.121
981.40 0.121
981.50 0.1209
981.60 0.1209
981.70 0.1208
981.80 0.1208
981.90 0.1208
982.00 0.1207
982.10 0.1207
982.20 0.1206
982.30 0.1206
982.40 0.1205
982.50 0.1205
982.60 0.1204
982.70 0.1204
982.80 0.1203
982.90 0.1203
983.00 0.1202
983.10 0.1201
983.20 0.1201
983.30 0.12
983.40 0.12
983.50 0.1199
983.60 0.1199
983.70 0.1198
983.80 0.1198
983.90 0.1197
984.00 0.1197
984.10 0.1196
984.20 0.1196
984.30 0.1195
984.40 0.1195
984.50 0.1194
984.60 0.1194
984.70 0.1193
984.80 0.1193
984.90 0.1192
985.00 0.1191
985.10 0.1191
985.20 0.119
985.30 0.119
985.40 0.1189
985.50 0.1189
985.60 0.1188
985.70 0.1187
985.80 0.1187
985.90 0.1186
986.00 0.1186
986.10 0.1185
986.20 0.1184
986.30 0.1184
986.40 0.1183
986.50 0.1183
986.60 0.1182
986.70 0.1182
986.80 0.1181
986.90 0.118
987.00 0.118
987.10 0.1179
987.20 0.1178
987.30 0.1178
987.40 0.1177
987.50 0.1177
987.60 0.1176
987.70 0.1175
987.80 0.1175
987.90 0.1174
988.00 0.1173
988.10 0.1173
988.20 0.1172
988.30 0.1171
988.40 0.1171
988.50 0.117
988.60 0.1169
988.70 0.1169
988.80 0.1168
988.90 0.1167
989.00 0.1166
989.10 0.1165
989.20 0.1165
989.30 0.1164
989.40 0.1163
989.50 0.1162
989.60 0.1162
989.70 0.1161
989.80 0.116
989.90 0.1159
990.00 0.1158
990.10 0.1158
990.20 0.1157
990.30 0.1156
990.40 0.1155
990.50 0.1155
990.60 0.1154
990.70 0.1153
990.80 0.1152
990.90 0.1151
991.00 0.115
991.10 0.1149
991.20 0.1148
991.30 0.1148
991.40 0.1147
991.50 0.1146
991.60 0.1145
991.70 0.1144
991.80 0.1143
991.90 0.1142
992.00 0.1141
992.10 0.114
992.20 0.1139
992.30 0.1138
992.40 0.1137
992.50 0.1136
992.60 0.1135
992.70 0.1134
992.80 0.1133
992.90 0.1132
993.00 0.113
993.10 0.1129
993.20 0.1128
993.30 0.1127
993.40 0.1125
993.50 0.1124
993.60 0.1123
993.70 0.1122
993.80 0.112
993.90 0.1119
994.00 0.1118
994.10 0.1117
994.20 0.1115
994.30 0.1114
994.40 0.1113
994.50 0.1112
994.60 0.111
994.70 0.1109
994.80 0.1107
994.90 0.1106
995.00 0.1104
995.10 0.1102
995.20 0.1101
995.30 0.1099
995.40 0.1098
995.50 0.1096
995.60 0.1095
995.70 0.1093
995.80 0.1091
995.90 0.1089
996.00 0.1087
996.10 0.1085
996.20 0.1083
996.30 0.1081
996.40 0.108
996.50 0.1078
996.60 0.1076
996.70 0.1074
996.80 0.1072
996.90 0.107
997.00 0.1068
997.10 0.1066
997.20 0.1064
997.30 0.1062
997.40 0.1059
997.50 0.1057
997.60 0.1055
997.70 0.1052
997.80 0.1049
997.90 0.1047
998.00 0.1044
998.10 0.1041
998.20 0.1038
998.30 0.1035
998.40 0.1033
998.50 0.103
998.60 0.1027
998.70 0.1024
998.80 0.1021
998.90 0.1019
999.00 0.1016
999.10 0.1013
999.20 0.101
999.30 0.1008
999.40 0.1005
999.50 0.1002
999.60 0.09992
999.70 0.09955
999.80 0.09916
999.90 0.09877
1000.00 0.09837
1000.10 0.09798
1000.20 0.09759
1000.30 0.0972
1000.40 0.0968
1000.50 0.09641
1000.60 0.09602
1000.70 0.09563
1000.80 0.09524
1000.90 0.09484
1001.00 0.09445
1001.10 0.09406
1001.20 0.09367
1001.30 0.09328
1001.40 0.09289
1001.50 0.0925
1001.60 0.09211
1001.70 0.09165
1001.80 0.09118
1001.90 0.09071
1002.00 0.09024
1002.10 0.08971
1002.20 0.08918
1002.30 0.08866
1002.40 0.08813
1002.50 0.0876
1002.60 0.08707
1002.70 0.08655
1002.80 0.08602
1002.90 0.08549
1003.00 0.08497
1003.10 0.08444
1003.20 0.08384
1003.30 0.08322
1003.40 0.0826
1003.50 0.08199
1003.60 0.08137
1003.70 0.08075
1003.80 0.08013
1003.90 0.0794
1004.00 0.07864
1004.10 0.07787
1004.20 0.07711
1004.30 0.07613
1004.40 0.07509
1004.50 0.07396
1004.60 0.07342
1004.70 0.07342
1004.80 0.07451
1004.90 0.07551
1005.00 0.0765
1005.10 0.07728
1005.20 0.078
1005.30 0.07871
1005.40 0.07942
1005.50 0.08002
1005.60 0.08058
1005.70 0.08114
1005.80 0.08171
1005.90 0.08227
1006.00 0.08283
1006.10 0.08339
1006.20 0.08388
1006.30 0.08436
1006.40 0.08483
1006.50 0.0853
1006.60 0.08578
1006.70 0.08625
1006.80 0.08672
1006.90 0.0872
1007.00 0.08767
1007.10 0.08808
1007.20 0.0885
1007.30 0.08891
1007.40 0.08932
1007.50 0.08973
1007.60 0.09014
1007.70 0.09048
1007.80 0.0908
1007.90 0.09112
1008.00 0.09144
1008.10 0.09176
1008.20 0.09207
1008.30 0.09239
1008.40 0.09271
1008.50 0.09303
1008.60 0.09334
1008.70 0.09366
1008.80 0.09398
1008.90 0.09429
1009.00 0.09461
1009.10 0.09493
1009.20 0.09524
1009.30 0.09556
1009.40 0.09588
1009.50 0.09619
1009.60 0.09651
1009.70 0.09674
1009.80 0.09694
1009.90 0.09714
1010.00 0.09733
1010.10 0.09753
1010.20 0.09773
1010.30 0.09793
1010.40 0.09813
1010.50 0.09833
1010.60 0.09853
1010.70 0.09872
1010.80 0.09892
1010.90 0.09912
1011.00 0.09932
1011.10 0.09952
1011.20 0.09972
1011.30 0.09991
1011.40 0.1001
1011.50 0.1003
1011.60 0.1005
1011.70 0.1007
1011.80 0.1008
1011.90 0.101
1012.00 0.1011
1012.10 0.1012
1012.20 0.1013
1012.30 0.1015
1012.40 0.1016
1012.50 0.1017
1012.60 0.1018
1012.70 0.1019
1012.80 0.102
1012.90 0.1021
1013.00 0.1022
1013.10 0.1023
1013.20 0.1024
1013.30 0.1025
1013.40 0.1027
1013.50 0.1028
1013.60 0.1029
1013.70 0.103
1013.80 0.103
1013.90 0.1031
1014.00 0.1032
1014.10 0.1032
1014.20 0.1033
1014.30 0.1034
1014.40 0.1034
1014.50 0.1035
1014.60 0.1036
1014.70 0.1036
1014.80 0.1037
1014.90 0.1037
1015.00 0.1038
1015.10 0.1038
1015.20 0.1038
1015.30 0.1039
1015.40 0.1039
1015.50 0.104
1015.60 0.104
1015.70 0.104
1015.80 0.1041
1015.90 0.1041
1016.00 0.1042
1016.10 0.1042
1016.20 0.1043
1016.30 0.1043
1016.40 0.1043
1016.50 0.1044
1016.60 0.1044
1016.70 0.1045
1016.80 0.1045
1016.90 0.1045
1017.00 0.1046
1017.10 0.1046
1017.20 0.1046
1017.30 0.1046
1017.40 0.1046
1017.50 0.1046
1017.60 0.1046
1017.70 0.1046
1017.80 0.1046
1017.90 0.1047
1018.00 0.1047
1018.10 0.1047
1018.20 0.1047
1018.30 0.1047
1018.40 0.1047
1018.50 0.1047
1018.60 0.1047
1018.70 0.1047
1018.80 0.1047
1018.90 0.1047
1019.00 0.1047
1019.10 0.1047
1019.20 0.1047
1019.30 0.1047
1019.40 0.1047
1019.50 0.1047
1019.60 0.1047
1019.70 0.1047
1019.80 0.1047
1019.90 0.1047
1020.00 0.1047
1020.10 0.1047
1020.20 0.1047
1020.30 0.1047
1020.40 0.1047
1020.50 0.1047
1020.60 0.1047
1020.70 0.1047
1020.80 0.1046
1020.90 0.1046
1021.00 0.1046
1021.10 0.1046
1021.20 0.1046
1021.30 0.1046
1021.40 0.1046
1021.50 0.1045
1021.60 0.1045
1021.70 0.1045
1021.80 0.1045
1021.90 0.1045
1022.00 0.1045
1022.10 0.1045
1022.20 0.1044
1022.30 0.1044
1022.40 0.1044
1022.50 0.1044
1022.60 0.1043
1022.70 0.1043
1022.80 0.1043
1022.90 0.1043
1023.00 0.1043
1023.10 0.1042
1023.20 0.1042
1023.30 0.1042
1023.40 0.1042
1023.50 0.1042
1023.60 0.1041
1023.70 0.1041
1023.80 0.1041
1023.90 0.1041
1024.00 0.1041
1024.10 0.104
1024.20 0.104
1024.30 0.104
1024.40 0.104
1024.50 0.104
1024.60 0.1039
1024.70 0.1039
1024.80 0.1039
1024.90 0.1039
1025.00 0.1038
1025.10 0.1038
1025.20 0.1038
1025.30 0.1038
1025.40 0.1037
1025.50 0.1037
1025.60 0.1037
1025.70 0.1037
1025.80 0.1036
1025.90 0.1036
1026.00 0.1036
1026.10 0.1035
1026.20 0.1035
1026.30 0.1035
1026.40 0.1035
1026.50 0.1034
1026.60 0.1034
1026.70 0.1034
1026.80 0.1034
1026.90 0.1033
1027.00 0.1033
1027.10 0.1033
1027.20 0.1032
1027.30 0.1032
1027.40 0.1032
1027.50 0.1032
1027.60 0.1031
1027.70 0.1031
1027.80 0.1031
1027.90 0.103
1028.00 0.103
1028.10 0.103
1028.20 0.1029
1028.30 0.1029
1028.40 0.1029
1028.50 0.1029
1028.60 0.1028
1028.70 0.1028
1028.80 0.1028
1028.90 0.1027
1029.00 0.1027
1029.10 0.1027
1029.20 0.1026
1029.30 0.1026
1029.40 0.1026
1029.50 0.1026
1029.60 0.1025
1029.70 0.1025
1029.80 0.1025
1029.90 0.1024
1030.00 0.1024
1030.10 0.1024
1030.20 0.1023
1030.30 0.1023
1030.40 0.1023
1030.50 0.1023
1030.60 0.1022
1030.70 0.1022
1030.80 0.1022
1030.90 0.1021
1031.00 0.1021
1031.10 0.1021
1031.20 0.102
1031.30 0.102
1031.40 0.102
1031.50 0.102
1031.60 0.1019
1031.70 0.1019
1031.80 0.1019
1031.90 0.1018
1032.00 0.1018
1032.10 0.1018
1032.20 0.1017
1032.30 0.1017
1032.40 0.1017
1032.50 0.1016
1032.60 0.1016
1032.70 0.1016
1032.80 0.1015
1032.90 0.1015
1033.00 0.1015
1033.10 0.1014
1033.20 0.1014
1033.30 0.1014
1033.40 0.1013
1033.50 0.1013
1033.60 0.1013
1033.70 0.1013
1033.80 0.1012
1033.90 0.1012
1034.00 0.1012
1034.10 0.1011
1034.20 0.1011
1034.30 0.1011
1034.40 0.101
1034.50 0.101
1034.60 0.101
1034.70 0.1009
1034.80 0.1009
1034.90 0.1009
1035.00 0.1008
1035.10 0.1008
1035.20 0.1008
1035.30 0.1007
1035.40 0.1007
1035.50 0.1007
1035.60 0.1006
1035.70 0.1006
1035.80 0.1006
1035.90 0.1005
1036.00 0.1005
1036.10 0.1005
1036.20 0.1004
1036.30 0.1004
1036.40 0.1004
1036.50 0.1003
1036.60 0.1003
1036.70 0.1003
1036.80 0.1002
1036.90 0.1002
1037.00 0.1002
1037.10 0.1002
1037.20 0.1001
1037.30 0.1001
1037.40 0.1001
1037.50 0.1
1037.60 0.09999
1037.70 0.09995
1037.80 0.09992
1037.90 0.09989
1038.00 0.09985
1038.10 0.09982
1038.20 0.09979
1038.30 0.09975
1038.40 0.09972
1038.50 0.09969
1038.60 0.09965
1038.70 0.09962
1038.80 0.09959
1038.90 0.09955
1039.00 0.09952
1039.10 0.09949
1039.20 0.09946
1039.30 0.09942
1039.40 0.09939
1039.50 0.09936
1039.60 0.09932
1039.70 0.09929
1039.80 0.09926
1039.90 0.09922
1040.00 0.09919
1040.10 0.09916
1040.20 0.09913
1040.30 0.09909
1040.40 0.09906
1040.50 0.09903
1040.60 0.09899
1040.70 0.09896
1040.80 0.09893
1040.90 0.0989
1041.00 0.09886
1041.10 0.09883
1041.20 0.0988
1041.30 0.09876
1041.40 0.09873
1041.50 0.0987
1041.60 0.09867
1041.70 0.09863
1041.80 0.0986
1041.90 0.09857
1042.00 0.09853
1042.10 0.0985
1042.20 0.09847
1042.30 0.09843
1042.40 0.0984
1042.50 0.09837
1042.60 0.09833
1042.70 0.0983
1042.80 0.09827
1042.90 0.09823
1043.00 0.0982
1043.10 0.09817
1043.20 0.09813
1043.30 0.0981
1043.40 0.09807
1043.50 0.09803
1043.60 0.098
1043.70 0.09797
1043.80 0.09793
1043.90 0.0979
1044.00 0.09787
1044.10 0.09784
1044.20 0.0978
1044.30 0.09777
1044.40 0.09774
1044.50 0.0977
1044.60 0.09767
1044.70 0.09764
1044.80 0.0976
1044.90 0.09757
1045.00 0.09754
1045.10 0.0975
1045.20 0.09747
1045.30 0.09744
1045.40 0.0974
1045.50 0.09737
1045.60 0.09734
1045.70 0.09731
1045.80 0.09727
1045.90 0.09724
1046.00 0.09721
1046.10 0.09717
1046.20 0.09714
1046.30 0.09711
1046.40 0.09707
1046.50 0.09704
1046.60 0.09701
1046.70 0.09698
1046.80 0.09694
1046.90 0.09691
1047.00 0.09688
1047.10 0.09684
1047.20 0.09681
1047.30 0.09678
1047.40 0.09674
1047.50 0.09671
1047.60 0.09668
1047.70 0.09664
1047.80 0.09661
1047.90 0.09658
1048.00 0.09654
1048.10 0.09651
1048.20 0.09648
1048.30 0.09644
1048.40 0.09641
1048.50 0.09638
1048.60 0.09635
1048.70 0.09631
1048.80 0.09628
1048.90 0.09625
1049.00 0.09621
1049.10 0.09618
1049.20 0.09615
1049.30 0.09611
1049.40 0.09608
1049.50 0.09605
1049.60 0.09602
1049.70 0.09598
1049.80 0.09595
1049.90 0.09592
1050.00 0.09588
1050.10 0.09585
1050.20 0.09582
1050.30 0.09578
1050.40 0.09575
1050.50 0.09572
1050.60 0.09569
1050.70 0.09565
1050.80 0.09562
1050.90 0.09559
1051.00 0.09555
1051.10 0.09552
1051.20 0.09549
1051.30 0.09546
1051.40 0.09542
1051.50 0.09539
1051.60 0.09536
1051.70 0.09532
1051.80 0.09529
1051.90 0.09526
1052.00 0.09523
1052.10 0.09519
1052.20 0.09516
1052.30 0.09513
1052.40 0.09509
1052.50 0.09506
1052.60 0.09503
1052.70 0.09499
1052.80 0.09496
1052.90 0.09493
1053.00 0.09489
1053.10 0.09486
1053.20 0.09483
1053.30 0.0948
1053.40 0.09476
1053.50 0.09473
1053.60 0.0947
1053.70 0.09466
1053.80 0.09463
1053.90 0.0946
1054.00 0.09456
1054.10 0.09453
1054.20 0.0945
1054.30 0.09447
1054.40 0.09443
1054.50 0.0944
1054.60 0.09437
1054.70 0.09433
1054.80 0.0943
1054.90 0.09427
1055.00 0.09424
1055.10 0.0942
1055.20 0.09417
1055.30 0.09414
1055.40 0.0941
1055.50 0.09407
1055.60 0.09404
1055.70 0.09401
1055.80 0.09397
1055.90 0.09394
1056.00 0.09391
1056.10 0.09387
1056.20 0.09384
1056.30 0.09381
1056.40 0.09378
1056.50 0.09374
1056.60 0.09371
1056.70 0.09368
1056.80 0.09364
1056.90 0.09361
1057.00 0.09358
1057.10 0.09355
1057.20 0.09351
1057.30 0.09348
1057.40 0.09345
1057.50 0.09341
1057.60 0.09338
1057.70 0.09335
1057.80 0.09331
1057.90 0.09328
1058.00 0.09325
1058.10 0.09321
1058.20 0.09318
1058.30 0.09315
1058.40 0.09311
1058.50 0.09308
1058.60 0.09305
1058.70 0.09301
1058.80 0.09298
1058.90 0.09295
1059.00 0.09291
1059.10 0.09288
1059.20 0.09285
1059.30 0.09281
1059.40 0.09278
1059.50 0.09275
1059.60 0.09272
1059.70 0.09268
1059.80 0.09265
1059.90 0.09262
1060.00 0.09258
1060.10 0.09255
1060.20 0.09252
1060.30 0.09248
1060.40 0.09245
1060.50 0.09242
1060.60 0.09239
1060.70 0.09235
1060.80 0.09232
1060.90 0.09229
1061.00 0.09225
1061.10 0.09222
1061.20 0.09219
1061.30 0.09215
1061.40 0.09212
1061.50 0.09209
1061.60 0.09206
1061.70 0.09202
1061.80 0.09199
1061.90 0.09196
1062.00 0.09192
1062.10 0.09189
1062.20 0.09186
1062.30 0.09182
1062.40 0.09179
1062.50 0.09175
1062.60 0.09172
1062.70 0.09169
1062.80 0.09165
1062.90 0.09162
1063.00 0.09158
1063.10 0.09155
1063.20 0.09152
1063.30 0.09148
1063.40 0.09145
1063.50 0.09142
1063.60 0.09138
1063.70 0.09135
1063.80 0.09131
1063.90 0.09128
1064.00 0.09125
1064.10 0.09121
1064.20 0.09118
1064.30 0.09114
1064.40 0.09111
1064.50 0.09108
1064.60 0.09104
1064.70 0.09101
1064.80 0.09098
1064.90 0.09094
1065.00 0.09091
1065.10 0.09087
1065.20 0.09084
1065.30 0.09081
1065.40 0.09077
1065.50 0.09074
1065.60 0.09071
1065.70 0.09067
1065.80 0.09064
1065.90 0.09061
1066.00 0.09057
1066.10 0.09054
1066.20 0.0905
1066.30 0.09047
1066.40 0.09044
1066.50 0.0904
1066.60 0.09037
1066.70 0.09034
1066.80 0.0903
1066.90 0.09027
1067.00 0.09024
1067.10 0.0902
1067.20 0.09016
1067.30 0.09013
1067.40 0.09009
1067.50 0.09006
1067.60 0.09002
1067.70 0.08998
1067.80 0.08995
1067.90 0.08991
1068.00 0.08988
1068.10 0.08984
1068.20 0.0898
1068.30 0.08977
1068.40 0.08973
1068.50 0.0897
1068.60 0.08966
1068.70 0.08962
1068.80 0.08959
1068.90 0.08955
1069.00 0.08952
1069.10 0.08948
1069.20 0.08945
1069.30 0.08941
1069.40 0.08937
1069.50 0.08934
1069.60 0.0893
1069.70 0.08927
1069.80 0.08923
1069.90 0.08919
1070.00 0.08916
1070.10 0.08912
1070.20 0.08909
1070.30 0.08905
1070.40 0.08902
1070.50 0.08898
1070.60 0.08894
1070.70 0.08891
1070.80 0.08887
1070.90 0.08884
1071.00 0.0888
1071.10 0.08877
1071.20 0.08873
1071.30 0.0887
1071.40 0.08866
1071.50 0.08862
1071.60 0.08859
1071.70 0.08855
1071.80 0.08852
1071.90 0.08848
1072.00 0.08845
1072.10 0.08841
1072.20 0.08837
1072.30 0.08833
1072.40 0.08829
1072.50 0.08825
1072.60 0.08821
1072.70 0.08818
1072.80 0.08814
1072.90 0.0881
1073.00 0.08806
1073.10 0.08802
1073.20 0.08798
1073.30 0.08794
1073.40 0.08791
1073.50 0.08787
1073.60 0.08782
1073.70 0.08778
1073.80 0.08774
1073.90 0.08769
1074.00 0.08765
1074.10 0.08761
1074.20 0.08756
1074.30 0.08752
1074.40 0.08748
1074.50 0.08743
1074.60 0.08739
1074.70 0.08735
1074.80 0.08731
1074.90 0.08726
1075.00 0.08722
1075.10 0.08718
1075.20 0.08713
1075.30 0.08709
1075.40 0.08705
1075.50 0.087
1075.60 0.08696
1075.70 0.08692
1075.80 0.08688
1075.90 0.08683
1076.00 0.08679
1076.10 0.08675
1076.20 0.0867
1076.30 0.08666
1076.40 0.08662
1076.50 0.08658
1076.60 0.08653
1076.70 0.08649
1076.80 0.08645
1076.90 0.08641
1077.00 0.08636
1077.10 0.08632
1077.20 0.08627
1077.30 0.08622
1077.40 0.08617
1077.50 0.08612
1077.60 0.08607
1077.70 0.08602
1077.80 0.08596
1077.90 0.08591
1078.00 0.08585
1078.10 0.0858
1078.20 0.08575
1078.30 0.08569
1078.40 0.08564
1078.50 0.08558
1078.60 0.08553
1078.70 0.08548
1078.80 0.08542
1078.90 0.08537
1079.00 0.08532
1079.10 0.08526
1079.20 0.08521
1079.30 0.08515
1079.40 0.0851
1079.50 0.08504
1079.60 0.08498
1079.70 0.08492
1079.80 0.08485
1079.90 0.08479
1080.00 0.08473
1080.10 0.08466
1080.20 0.0846
1080.30 0.08454
1080.40 0.08447
1080.50 0.08441
1080.60 0.08434
1080.70 0.08428
1080.80 0.08422
1080.90 0.08415
1081.00 0.08409
1081.10 0.08403
1081.20 0.08396
1081.30 0.0839
1081.40 0.08384
1081.50 0.08377
1081.60 0.08369
1081.70 0.0836
1081.80 0.08352
1081.90 0.08344
1082.00 0.08335
1082.10 0.08327
1082.20 0.08318
1082.30 0.0831
1082.40 0.08302
1082.50 0.08293
1082.60 0.08285
1082.70 0.08276
1082.80 0.08268
1082.90 0.08259
1083.00 0.08251
1083.10 0.08243
1083.20 0.08234
1083.30 0.08226
1083.40 0.08217
1083.50 0.08208
1083.60 0.08198
1083.70 0.08187
1083.80 0.08176
1083.90 0.08165
1084.00 0.08155
1084.10 0.08144
1084.20 0.08133
1084.30 0.08122
1084.40 0.08112
1084.50 0.081
1084.60 0.08087
1084.70 0.08074
1084.80 0.0806
1084.90 0.08047
1085.00 0.08034
1085.10 0.08021
1085.20 0.08008
1085.30 0.07994
1085.40 0.07981
1085.50 0.07968
1085.60 0.07955
1085.70 0.07942
1085.80 0.07929
1085.90 0.07915
1086.00 0.07902
1086.10 0.07889
1086.20 0.07876
1086.30 0.07863
1086.40 0.0785
1086.50 0.07835
1086.60 0.07818
1086.70 0.07801
1086.80 0.07784
1086.90 0.07767
1087.00 0.0775
1087.10 0.07731
1087.20 0.07712
1087.30 0.07692
1087.40 0.07673
1087.50 0.07653
1087.60 0.07634
1087.70 0.07614
1087.80 0.07595
1087.90 0.07575
1088.00 0.07556
1088.10 0.07537
1088.20 0.07517
1088.30 0.07498
1088.40 0.07479
1088.50 0.07457
1088.60 0.0743
1088.70 0.07403
1088.80 0.07377
1088.90 0.0735
1089.00 0.07323
1089.10 0.07296
1089.20 0.0727
1089.30 0.07243
1089.40 0.07216
1089.50 0.0719
1089.60 0.07163
1089.70 0.07136
1089.80 0.0711
1089.90 0.07083
1090.00 0.07056
1090.10 0.0703
1090.20 0.07003
1090.30 0.06976
1090.40 0.0695
1090.50 0.0692
1090.60 0.06885
1090.70 0.0685
1090.80 0.06814
1090.90 0.06779
1091.00 0.06743
1091.10 0.06708
1091.20 0.06672
1091.30 0.06637
1091.40 0.06602
1091.50 0.06566
1091.60 0.06531
1091.70 0.06496
1091.80 0.0646
1091.90 0.06425
1092.00 0.06388
1092.10 0.06343
1092.20 0.06299
1092.30 0.06254
1092.40 0.0621
1092.50 0.06165
1092.60 0.06121
1092.70 0.06071
1092.80 0.06011
1092.90 0.0595
1093.00 0.05889
1093.10 0.05814
1093.20 0.05709
1093.30 0.05597
1093.40 0.0543
1093.50 0.05385
1093.60 0.05536
1093.70 0.05663
1093.80 0.05765
1093.90 0.05853
1094.00 0.0591
1094.10 0.05967
1094.20 0.06024
1094.30 0.06075
1094.40 0.06116
1094.50 0.06156
1094.60 0.06196
1094.70 0.06237
1094.80 0.06277
1094.90 0.06317
1095.00 0.06354
1095.10 0.06385
1095.20 0.06416
1095.30 0.06447
1095.40 0.06478
1095.50 0.06509
1095.60 0.06539
1095.70 0.0657
1095.80 0.06601
1095.90 0.06632
1096.00 0.06663
1096.10 0.06693
1096.20 0.06724
1096.30 0.06755
1096.40 0.06785
1096.50 0.06814
1096.60 0.06839
1096.70 0.06864
1096.80 0.06889
1096.90 0.06914
1097.00 0.06939
1097.10 0.06959
1097.20 0.0698
1097.30 0.07
1097.40 0.0702
1097.50 0.0704
1097.60 0.07061
1097.70 0.07081
1097.80 0.07101
1097.90 0.07121
1098.00 0.07142
1098.10 0.07162
1098.20 0.07182
1098.30 0.07202
1098.40 0.07223
1098.50 0.07241
1098.60 0.07254
1098.70 0.07267
1098.80 0.0728
1098.90 0.07294
1099.00 0.07307
1099.10 0.0732
1099.20 0.07333
1099.30 0.07346
1099.40 0.0736
1099.50 0.07373
1099.60 0.07386
1099.70 0.07399
1099.80 0.07412
1099.90 0.07426
1100.00 0.07439
1100.10 0.07452
1100.20 0.07465
1100.30 0.07478
1100.40 0.07492
1100.50 0.07503
1100.60 0.07511
1100.70 0.07519
1100.80 0.07527
1100.90 0.07535
1101.00 0.07543
1101.10 0.07551
1101.20 0.07559
1101.30 0.07568
1101.40 0.07576
1101.50 0.07584
1101.60 0.07592
1101.70 0.076
1101.80 0.07608
1101.90 0.07616
1102.00 0.07624
1102.10 0.07629
1102.20 0.07635
1102.30 0.0764
1102.40 0.07646
1102.50 0.07651
1102.60 0.07656
1102.70 0.07661
1102.80 0.07666
1102.90 0.07671
1103.00 0.07676
1103.10 0.07681
1103.20 0.07686
1103.30 0.07691
1103.40 0.07696
1103.50 0.077
1103.60 0.07703
1103.70 0.07706
1103.80 0.07708
1103.90 0.07711
1104.00 0.07714
1104.10 0.07716
1104.20 0.07719
1104.30 0.07722
1104.40 0.07724
1104.50 0.07727
1104.60 0.07729
1104.70 0.07732
1104.80 0.07735
1104.90 0.07737
1105.00 0.0774
1105.10 0.07743
1105.20 0.07745
1105.30 0.07748
1105.40 0.07751
1105.50 0.07753
1105.60 0.07753
1105.70 0.07754
1105.80 0.07755
1105.90 0.07756
1106.00 0.07756
1106.10 0.07757
1106.20 0.07758
1106.30 0.07759
1106.40 0.07759
1106.50 0.0776
1106.60 0.07761
1106.70 0.07762
1106.80 0.07762
1106.90 0.07763
1107.00 0.07764
1107.10 0.07764
1107.20 0.07764
1107.30 0.07764
1107.40 0.07764
1107.50 0.07764
1107.60 0.07764
1107.70 0.07764
1107.80 0.07764
1107.90 0.07763
1108.00 0.07763
1108.10 0.07763
1108.20 0.07762
1108.30 0.07762
1108.40 0.07762
1108.50 0.07762
1108.60 0.07761
1108.70 0.07761
1108.80 0.07761
1108.90 0.0776
1109.00 0.0776
1109.10 0.0776
1109.20 0.07759
1109.30 0.07759
1109.40 0.07759
1109.50 0.07758
1109.60 0.07757
1109.70 0.07756
1109.80 0.07755
1109.90 0.07754
1110.00 0.07753
1110.10 0.07751
1110.20 0.0775
1110.30 0.07749
1110.40 0.07748
1110.50 0.07747
1110.60 0.07746
1110.70 0.07745
1110.80 0.07744
1110.90 0.07742
1111.00 0.07741
1111.10 0.0774
1111.20 0.07739
1111.30 0.07738
1111.40 0.07737
1111.50 0.07736
1111.60 0.07735
1111.70 0.07733
1111.80 0.07732
1111.90 0.07731
1112.00 0.0773
1112.10 0.07729
1112.20 0.07727
1112.30 0.07725
1112.40 0.07724
1112.50 0.07722
1112.60 0.07721
1112.70 0.07719
1112.80 0.07718
1112.90 0.07716
1113.00 0.07715
1113.10 0.07713
1113.20 0.07711
1113.30 0.0771
1113.40 0.07708
1113.50 0.07707
1113.60 0.07705
1113.70 0.07703
1113.80 0.07701
1113.90 0.07699
1114.00 0.07697
1114.10 0.07696
1114.20 0.07694
1114.30 0.07692
1114.40 0.0769
1114.50 0.07688
1114.60 0.07686
1114.70 0.07685
1114.80 0.07683
1114.90 0.07681
1115.00 0.07679
1115.10 0.07677
1115.20 0.07675
1115.30 0.07673
1115.40 0.07672
1115.50 0.0767
1115.60 0.07668
1115.70 0.07666
1115.80 0.07664
1115.90 0.07662
1116.00 0.07661
1116.10 0.07659
1116.20 0.07657
1116.30 0.07655
1116.40 0.07653
1116.50 0.07651
1116.60 0.0765
1116.70 0.07648
1116.80 0.07646
1116.90 0.07644
1117.00 0.07642
1117.10 0.0764
1117.20 0.07638
1117.30 0.07636
1117.40 0.07634
1117.50 0.07632
1117.60 0.07629
1117.70 0.07627
1117.80 0.07625
1117.90 0.07623
1118.00 0.07621
1118.10 0.07619
1118.20 0.07617
1118.30 0.07615
1118.40 0.07613
1118.50 0.0761
1118.60 0.07608
1118.70 0.07606
1118.80 0.07604
1118.90 0.07602
1119.00 0.076
1119.10 0.07598
1119.20 0.07596
1119.30 0.07594
1119.40 0.07592
1119.50 0.07589
1119.60 0.07587
1119.70 0.07585
1119.80 0.07583
1119.90 0.07581
1120.00 0.07579
1120.10 0.07577
1120.20 0.07575
1120.30 0.07573
1120.40 0.07571
1120.50 0.07568
1120.60 0.07566
1120.70 0.07564
1120.80 0.07562
1120.90 0.0756
1121.00 0.07558
1121.10 0.07556
1121.20 0.07554
1121.30 0.07552
1121.40 0.0755
1121.50 0.07548
1121.60 0.07545
1121.70 0.07543
1121.80 0.07541
1121.90 0.07539
1122.00 0.07537
1122.10 0.07535
1122.20 0.07533
1122.30 0.0753
1122.40 0.07528
1122.50 0.07526
1122.60 0.07524
1122.70 0.07521
1122.80 0.07519
1122.90 0.07517
1123.00 0.07515
1123.10 0.07513
1123.20 0.0751
1123.30 0.07508
1123.40 0.07506
1123.50 0.07504
1123.60 0.07501
1123.70 0.07499
1123.80 0.07497
1123.90 0.07495
1124.00 0.07492
1124.10 0.0749
1124.20 0.07488
1124.30 0.07486
1124.40 0.07484
1124.50 0.07481
1124.60 0.07479
1124.70 0.07477
1124.80 0.07475
1124.90 0.07473
1125.00 0.0747
1125.10 0.07468
1125.20 0.07466
1125.30 0.07464
1125.40 0.07461
1125.50 0.07459
1125.60 0.07457
1125.70 0.07455
1125.80 0.07453
1125.90 0.0745
1126.00 0.07448
1126.10 0.07446
1126.20 0.07444
1126.30 0.07442
1126.40 0.07439
1126.50 0.07437
1126.60 0.07435
1126.70 0.07433
1126.80 0.07431
1126.90 0.07428
1127.00 0.07426
1127.10 0.07424
1127.20 0.07422
1127.30 0.07419
1127.40 0.07417
1127.50 0.07415
1127.60 0.07412
1127.70 0.0741
1127.80 0.07408
1127.90 0.07406
1128.00 0.07403
1128.10 0.07401
1128.20 0.07399
1128.30 0.07397
1128.40 0.07394
1128.50 0.07392
1128.60 0.0739
1128.70 0.07388
1128.80 0.07385
1128.90 0.07383
1129.00 0.07381
1129.10 0.07378
1129.20 0.07376
1129.30 0.07374
1129.40 0.07372
1129.50 0.07369
1129.60 0.07367
1129.70 0.07365
1129.80 0.07363
1129.90 0.0736
1130.00 0.07358
1130.10 0.07356
1130.20 0.07354
1130.30 0.07351
1130.40 0.07349
1130.50 0.07347
1130.60 0.07345
1130.70 0.07342
1130.80 0.0734
1130.90 0.07338
1131.00 0.07336
1131.10 0.07333
1131.20 0.07331
1131.30 0.07329
1131.40 0.07327
1131.50 0.07324
1131.60 0.07322
1131.70 0.0732
1131.80 0.07318
1131.90 0.07316
1132.00 0.07313
1132.10 0.07311
1132.20 0.07309
1132.30 0.07306
1132.40 0.07304
1132.50 0.07302
1132.60 0.073
1132.70 0.07297
1132.80 0.07295
1132.90 0.07293
1133.00 0.07291
1133.10 0.07288
1133.20 0.07286
1133.30 0.07284
1133.40 0.07282
1133.50 0.07279
1133.60 0.07277
1133.70 0.07275
1133.80 0.07272
1133.90 0.0727
1134.00 0.07268
1134.10 0.07266
1134.20 0.07263
1134.30 0.07261
1134.40 0.07259
1134.50 0.07257
1134.60 0.07254
1134.70 0.07252
1134.80 0.0725
1134.90 0.07248
1135.00 0.07245
1135.10 0.07243
1135.20 0.07241
1135.30 0.07239
1135.40 0.07236
1135.50 0.07234
1135.60 0.07232
1135.70 0.0723
1135.80 0.07227
1135.90 0.07225
1136.00 0.07223
1136.10 0.07221
1136.20 0.07218
1136.30 0.07216
1136.40 0.07214
1136.50 0.07212
1136.60 0.07209
1136.70 0.07207
1136.80 0.07205
1136.90 0.07203
1137.00 0.07201
1137.10 0.07198
1137.20 0.07196
1137.30 0.07194
1137.40 0.07192
1137.50 0.07189
1137.60 0.07187
1137.70 0.07185
1137.80 0.07183
1137.90 0.0718
1138.00 0.07178
1138.10 0.07176
1138.20 0.07174
1138.30 0.07171
1138.40 0.07169
1138.50 0.07167
1138.60 0.07165
1138.70 0.07162
1138.80 0.0716
1138.90 0.07158
1139.00 0.07156
1139.10 0.07153
1139.20 0.07151
1139.30 0.07149
1139.40 0.07147
1139.50 0.07145
1139.60 0.07142
1139.70 0.0714
1139.80 0.07138
1139.90 0.07136
1140.00 0.07133
1140.10 0.07131
1140.20 0.07129
1140.30 0.07127
1140.40 0.07125
1140.50 0.07122
1140.60 0.0712
1140.70 0.07118
1140.80 0.07116
1140.90 0.07113
1141.00 0.07111
1141.10 0.07109
1141.20 0.07107
1141.30 0.07105
1141.40 0.07102
1141.50 0.071
1141.60 0.07098
1141.70 0.07096
1141.80 0.07093
1141.90 0.07091
1142.00 0.07089
1142.10 0.07087
1142.20 0.07085
1142.30 0.07082
1142.40 0.0708
1142.50 0.07078
1142.60 0.07076
1142.70 0.07073
1142.80 0.07071
1142.90 0.07069
1143.00 0.07067
1143.10 0.07065
1143.20 0.07062
1143.30 0.0706
1143.40 0.07058
1143.50 0.07056
1143.60 0.07054
1143.70 0.07051
1143.80 0.07049
1143.90 0.07047
1144.00 0.07045
1144.10 0.07042
1144.20 0.0704
1144.30 0.07038
1144.40 0.07036
1144.50 0.07034
1144.60 0.07031
1144.70 0.07029
1144.80 0.07027
1144.90 0.07025
1145.00 0.07023
1145.10 0.0702
1145.20 0.07018
1145.30 0.07016
1145.40 0.07014
1145.50 0.07012
1145.60 0.07009
1145.70 0.07007
1145.80 0.07005
1145.90 0.07003
1146.00 0.07001
1146.10 0.06998
1146.20 0.06996
1146.30 0.06994
1146.40 0.06992
1146.50 0.0699
1146.60 0.06987
1146.70 0.06985
1146.80 0.06983
1146.90 0.06981
1147.00 0.06979
1147.10 0.06977
1147.20 0.06974
1147.30 0.06972
1147.40 0.0697
1147.50 0.06968
1147.60 0.06966
1147.70 0.06963
1147.80 0.06961
1147.90 0.06959
1148.00 0.06957
1148.10 0.06955
1148.20 0.06953
1148.30 0.0695
1148.40 0.06948
1148.50 0.06946
1148.60 0.06944
1148.70 0.06942
1148.80 0.06939
1148.90 0.06937
1149.00 0.06935
1149.10 0.06933
1149.20 0.06931
1149.30 0.06929
1149.40 0.06926
1149.50 0.06924
1149.60 0.06922
1149.70 0.0692
1149.80 0.06918
1149.90 0.06916
1150.00 0.06913
1150.10 0.06911
1150.20 0.06909
1150.30 0.06907
1150.40 0.06905
1150.50 0.06903
1150.60 0.069
1150.70 0.06898
1150.80 0.06896
1150.90 0.06894
1151.00 0.06892
1151.10 0.0689
1151.20 0.06888
1151.30 0.06885
1151.40 0.06883
1151.50 0.06881
1151.60 0.06879
1151.70 0.06877
1151.80 0.06875
1151.90 0.06872
1152.00 0.0687
1152.10 0.06868
1152.20 0.06866
1152.30 0.06864
1152.40 0.06862
1152.50 0.0686
1152.60 0.06857
1152.70 0.06855
1152.80 0.06853
1152.90 0.06851
1153.00 0.06849
1153.10 0.06847
1153.20 0.06845
1153.30 0.06842
1153.40 0.0684
1153.50 0.06838
1153.60 0.06836
1153.70 0.06834
1153.80 0.06832
1153.90 0.0683
1154.00 0.06827
1154.10 0.06825
1154.20 0.06823
1154.30 0.06821
1154.40 0.06819
1154.50 0.06817
1154.60 0.06815
1154.70 0.06813
1154.80 0.0681
1154.90 0.06808
1155.00 0.06806
1155.10 0.06804
1155.20 0.06802
1155.30 0.068
1155.40 0.06798
1155.50 0.06795
1155.60 0.06793
1155.70 0.06791
1155.80 0.06789
1155.90 0.06787
1156.00 0.06785
1156.10 0.06783
1156.20 0.06781
1156.30 0.06779
1156.40 0.06776
1156.50 0.06774
1156.60 0.06772
1156.70 0.0677
1156.80 0.06768
1156.90 0.06766
1157.00 0.06764
1157.10 0.06762
1157.20 0.06759
1157.30 0.06757
1157.40 0.06755
1157.50 0.06753
1157.60 0.06751
1157.70 0.06749
1157.80 0.06747
1157.90 0.06745
1158.00 0.06743
1158.10 0.0674
1158.20 0.06738
1158.30 0.06736
1158.40 0.06734
1158.50 0.06732
1158.60 0.0673
1158.70 0.06728
1158.80 0.06726
1158.90 0.06724
1159.00 0.06722
1159.10 0.06719
1159.20 0.06717
1159.30 0.06715
1159.40 0.06713
1159.50 0.06711
1159.60 0.06709
1159.70 0.06707
1159.80 0.06705
1159.90 0.06703
1160.00 0.06701
1160.10 0.06699
1160.20 0.06696
1160.30 0.06694
1160.40 0.06692
1160.50 0.0669
1160.60 0.06688
1160.70 0.06686
1160.80 0.06684
1160.90 0.06682
1161.00 0.0668
1161.10 0.06678
1161.20 0.06676
1161.30 0.06673
1161.40 0.06671
1161.50 0.06669
1161.60 0.06667
1161.70 0.06665
1161.80 0.06663
1161.90 0.06661
1162.00 0.06659
1162.10 0.06657
1162.20 0.06655
1162.30 0.06653
1162.40 0.06651
1162.50 0.06649
1162.60 0.06646
1162.70 0.06644
1162.80 0.06642
1162.90 0.0664
1163.00 0.06638
1163.10 0.06636
1163.20 0.06634
1163.30 0.06632
1163.40 0.0663
1163.50 0.06628
1163.60 0.06626
1163.70 0.06624
1163.80 0.06622
1163.90 0.0662
1164.00 0.06618
1164.10 0.06615
1164.20 0.06613
1164.30 0.06611
1164.40 0.06609
1164.50 0.06607
1164.60 0.06605
1164.70 0.06603
1164.80 0.06601
1164.90 0.06599
1165.00 0.06597
1165.10 0.06595
1165.20 0.06593
1165.30 0.06591
1165.40 0.06589
1165.50 0.06587
1165.60 0.06585
1165.70 0.06583
1165.80 0.06581
1165.90 0.06579
1166.00 0.06576
1166.10 0.06574
1166.20 0.06572
1166.30 0.0657
1166.40 0.06568
1166.50 0.06566
1166.60 0.06564
1166.70 0.06562
1166.80 0.0656
1166.90 0.06558
1167.00 0.06556
1167.10 0.06554
1167.20 0.06552
1167.30 0.0655
1167.40 0.06548
1167.50 0.06546
1167.60 0.06544
1167.70 0.06542
1167.80 0.0654
1167.90 0.06538
1168.00 0.06536
1168.10 0.06534
1168.20 0.06532
1168.30 0.0653
1168.40 0.06528
1168.50 0.06526
1168.60 0.06524
1168.70 0.06522
1168.80 0.06519
1168.90 0.06517
1169.00 0.06515
1169.10 0.06513
1169.20 0.06511
1169.30 0.06509
1169.40 0.06507
1169.50 0.06505
1169.60 0.06503
1169.70 0.06501
1169.80 0.06499
1169.90 0.06497
1170.00 0.06495
1170.10 0.06493
1170.20 0.06491
1170.30 0.06489
1170.40 0.06487
1170.50 0.06485
1170.60 0.06483
1170.70 0.06481
1170.80 0.06479
1170.90 0.06477
1171.00 0.06475
1171.10 0.06473
1171.20 0.06471
1171.30 0.06469
1171.40 0.06467
1171.50 0.06465
1171.60 0.06463
1171.70 0.06461
1171.80 0.06459
1171.90 0.06457
1172.00 0.06455
1172.10 0.06453
1172.20 0.06451
1172.30 0.06449
1172.40 0.06447
1172.50 0.06445
1172.60 0.06443
1172.70 0.06441
1172.80 0.06439
1172.90 0.06437
1173.00 0.06435
1173.10 0.06433
1173.20 0.06431
1173.30 0.06429
1173.40 0.06427
1173.50 0.06425
1173.60 0.06423
1173.70 0.06421
1173.80 0.06419
1173.90 0.06417
1174.00 0.06415
1174.10 0.06413
1174.20 0.06411
1174.30 0.06409
1174.40 0.06407
1174.50 0.06405
1174.60 0.06403
1174.70 0.06401
1174.80 0.06399
1174.90 0.06397
1175.00 0.06395
1175.10 0.06393
1175.20 0.06391
1175.30 0.06389
1175.40 0.06387
1175.50 0.06385
1175.60 0.06383
1175.70 0.06381
1175.80 0.06379
1175.90 0.06377
1176.00 0.06375
1176.10 0.06374
1176.20 0.06372
1176.30 0.0637
1176.40 0.06368
1176.50 0.06366
1176.60 0.06364
1176.70 0.06362
1176.80 0.0636
1176.90 0.06358
1177.00 0.06356
1177.10 0.06354
1177.20 0.06352
1177.30 0.0635
1177.40 0.06348
1177.50 0.06346
1177.60 0.06344
1177.70 0.06342
1177.80 0.0634
1177.90 0.06338
1178.00 0.06336
1178.10 0.06334
1178.20 0.06332
1178.30 0.0633
1178.40 0.06328
1178.50 0.06326
1178.60 0.06324
1178.70 0.06323
1178.80 0.06321
1178.90 0.06319
1179.00 0.06317
1179.10 0.06315
1179.20 0.06313
1179.30 0.06311
1179.40 0.06309
1179.50 0.06307
1179.60 0.06305
1179.70 0.06303
1179.80 0.06301
1179.90 0.06299
1180.00 0.06297
1180.10 0.06295
1180.20 0.06293
1180.30 0.06291
1180.40 0.06289
1180.50 0.06287
1180.60 0.06286
1180.70 0.06284
1180.80 0.06282
1180.90 0.0628
1181.00 0.06278
1181.10 0.06276
1181.20 0.06274
1181.30 0.06272
1181.40 0.0627
1181.50 0.06268
1181.60 0.06266
1181.70 0.06264
1181.80 0.06262
1181.90 0.0626
1182.00 0.06258
1182.10 0.06257
1182.20 0.06255
1182.30 0.06253
1182.40 0.06251
1182.50 0.06249
1182.60 0.06247
1182.70 0.06245
1182.80 0.06243
1182.90 0.06241
1183.00 0.06239
1183.10 0.06237
1183.20 0.06235
1183.30 0.06233
1183.40 0.06232
1183.50 0.0623
1183.60 0.06228
1183.70 0.06226
1183.80 0.06224
1183.90 0.06222
1184.00 0.0622
1184.10 0.06218
1184.20 0.06216
1184.30 0.06214
1184.40 0.06212
1184.50 0.0621
1184.60 0.06209
1184.70 0.06207
1184.80 0.06205
1184.90 0.06203
1185.00 0.06201
1185.10 0.06199
1185.20 0.06197
1185.30 0.06195
1185.40 0.06193
1185.50 0.06191
1185.60 0.06189
1185.70 0.06187
1185.80 0.06186
1185.90 0.06184
1186.00 0.06182
1186.10 0.0618
1186.20 0.06178
1186.30 0.06176
1186.40 0.06174
1186.50 0.06172
1186.60 0.0617
1186.70 0.06168
1186.80 0.06167
1186.90 0.06165
1187.00 0.06163
1187.10 0.06161
1187.20 0.06159
1187.30 0.06157
1187.40 0.06155
1187.50 0.06153
1187.60 0.06151
1187.70 0.0615
1187.80 0.06148
1187.90 0.06146
1188.00 0.06144
1188.10 0.06142
1188.20 0.0614
1188.30 0.06138
1188.40 0.06136
1188.50 0.06134
1188.60 0.06133
1188.70 0.06131
1188.80 0.06129
1188.90 0.06127
1189.00 0.06125
1189.10 0.06123
1189.20 0.06121
1189.30 0.06119
1189.40 0.06118
1189.50 0.06116
1189.60 0.06114
1189.70 0.06112
1189.80 0.0611
1189.90 0.06108
1190.00 0.06106
1190.10 0.06104
1190.20 0.06102
1190.30 0.06101
1190.40 0.06099
1190.50 0.06097
1190.60 0.06095
1190.70 0.06093
1190.80 0.06091
1190.90 0.06089
1191.00 0.06088
1191.10 0.06086
1191.20 0.06084
1191.30 0.06082
1191.40 0.0608
1191.50 0.06078
1191.60 0.06076
1191.70 0.06074
1191.80 0.06073
1191.90 0.06071
1192.00 0.06069
1192.10 0.06067
1192.20 0.06065
1192.30 0.06063
1192.40 0.06061
1192.50 0.0606
1192.60 0.06058
1192.70 0.06056
1192.80 0.06054
1192.90 0.06052
1193.00 0.0605
1193.10 0.06048
1193.20 0.06047
1193.30 0.06045
1193.40 0.06043
1193.50 0.06041
1193.60 0.06039
1193.70 0.06037
1193.80 0.06036
1193.90 0.06034
1194.00 0.06032
1194.10 0.0603
1194.20 0.06028
1194.30 0.06026
1194.40 0.06024
1194.50 0.06023
1194.60 0.06021
1194.70 0.06019
1194.80 0.06017
1194.90 0.06015
1195.00 0.06013
1195.10 0.06012
1195.20 0.0601
1195.30 0.06008
1195.40 0.06006
1195.50 0.06004
1195.60 0.06002
1195.70 0.06001
1195.80 0.05999
1195.90 0.05997
1196.00 0.05995
1196.10 0.05993
1196.20 0.05991
1196.30 0.0599
1196.40 0.05988
1196.50 0.05986
1196.60 0.05984
1196.70 0.05982
1196.80 0.0598
1196.90 0.05979
1197.00 0.05977
1197.10 0.05975
1197.20 0.05973
1197.30 0.05971
1197.40 0.05969
1197.50 0.05968
1197.60 0.05966
1197.70 0.05964
1197.80 0.05962
1197.90 0.0596
1198.00 0.05959
1198.10 0.05957
1198.20 0.05955
1198.30 0.05953
1198.40 0.05951
1198.50 0.05949
1198.60 0.05948
1198.70 0.05946
1198.80 0.05944
1198.90 0.05942
1199.00 0.0594
1199.10 0.05939
1199.20 0.05937
1199.30 0.05935
1199.40 0.05933
1199.50 0.05931
1199.60 0.0593
1199.70 0.05928
1199.80 0.05926
1199.90 0.05924
1200.00 0
