# Version 2.1 - nm, norm@500 to 1, cut digits, bergeron_70000_95.dat_70000
# Wavelength(nm)  Flambda(ergs/cm^s/s/nm)
300.00 6.616
300.10 6.608
300.20 6.6
300.30 6.591
300.40 6.583
300.50 6.575
300.60 6.567
300.70 6.559
300.80 6.551
300.90 6.543
301.00 6.535
301.10 6.527
301.20 6.519
301.30 6.511
301.40 6.503
301.50 6.495
301.60 6.487
301.70 6.479
301.80 6.471
301.90 6.463
302.00 6.455
302.10 6.447
302.20 6.439
302.30 6.431
302.40 6.423
302.50 6.415
302.60 6.407
302.70 6.4
302.80 6.392
302.90 6.384
303.00 6.376
303.10 6.368
303.20 6.36
303.30 6.353
303.40 6.345
303.50 6.337
303.60 6.329
303.70 6.322
303.80 6.314
303.90 6.306
304.00 6.298
304.10 6.291
304.20 6.283
304.30 6.275
304.40 6.268
304.50 6.26
304.60 6.253
304.70 6.245
304.80 6.237
304.90 6.23
305.00 6.222
305.10 6.215
305.20 6.207
305.30 6.199
305.40 6.192
305.50 6.184
305.60 6.177
305.70 6.169
305.80 6.162
305.90 6.154
306.00 6.147
306.10 6.14
306.20 6.132
306.30 6.125
306.40 6.117
306.50 6.11
306.60 6.102
306.70 6.095
306.80 6.088
306.90 6.08
307.00 6.073
307.10 6.066
307.20 6.058
307.30 6.051
307.40 6.044
307.50 6.036
307.60 6.029
307.70 6.022
307.80 6.014
307.90 6.007
308.00 6
308.10 5.993
308.20 5.986
308.30 5.978
308.40 5.971
308.50 5.964
308.60 5.957
308.70 5.95
308.80 5.942
308.90 5.935
309.00 5.928
309.10 5.921
309.20 5.914
309.30 5.907
309.40 5.9
309.50 5.893
309.60 5.886
309.70 5.878
309.80 5.871
309.90 5.864
310.00 5.857
310.10 5.85
310.20 5.843
310.30 5.836
310.40 5.829
310.50 5.822
310.60 5.815
310.70 5.808
310.80 5.802
310.90 5.795
311.00 5.788
311.10 5.781
311.20 5.774
311.30 5.767
311.40 5.76
311.50 5.753
311.60 5.746
311.70 5.739
311.80 5.733
311.90 5.726
312.00 5.719
312.10 5.712
312.20 5.705
312.30 5.699
312.40 5.692
312.50 5.685
312.60 5.678
312.70 5.671
312.80 5.665
312.90 5.658
313.00 5.651
313.10 5.645
313.20 5.638
313.30 5.631
313.40 5.625
313.50 5.618
313.60 5.611
313.70 5.605
313.80 5.598
313.90 5.591
314.00 5.585
314.10 5.578
314.20 5.571
314.30 5.565
314.40 5.558
314.50 5.552
314.60 5.545
314.70 5.539
314.80 5.532
314.90 5.525
315.00 5.519
315.10 5.512
315.20 5.506
315.30 5.499
315.40 5.493
315.50 5.487
315.60 5.48
315.70 5.474
315.80 5.467
315.90 5.461
316.00 5.454
316.10 5.448
316.20 5.441
316.30 5.435
316.40 5.429
316.50 5.422
316.60 5.416
316.70 5.41
316.80 5.403
316.90 5.397
317.00 5.39
317.10 5.384
317.20 5.378
317.30 5.372
317.40 5.365
317.50 5.359
317.60 5.353
317.70 5.346
317.80 5.34
317.90 5.334
318.00 5.328
318.10 5.321
318.20 5.315
318.30 5.309
318.40 5.303
318.50 5.297
318.60 5.29
318.70 5.284
318.80 5.278
318.90 5.272
319.00 5.266
319.10 5.26
319.20 5.253
319.30 5.247
319.40 5.241
319.50 5.235
319.60 5.229
319.70 5.223
319.80 5.217
319.90 5.211
320.00 5.205
320.10 5.199
320.20 5.193
320.30 5.187
320.40 5.181
320.50 5.175
320.60 5.169
320.70 5.163
320.80 5.157
320.90 5.151
321.00 5.145
321.10 5.139
321.20 5.133
321.30 5.127
321.40 5.121
321.50 5.115
321.60 5.109
321.70 5.103
321.80 5.097
321.90 5.091
322.00 5.085
322.10 5.079
322.20 5.074
322.30 5.068
322.40 5.062
322.50 5.056
322.60 5.05
322.70 5.044
322.80 5.039
322.90 5.033
323.00 5.027
323.10 5.021
323.20 5.015
323.30 5.01
323.40 5.004
323.50 4.998
323.60 4.992
323.70 4.987
323.80 4.981
323.90 4.975
324.00 4.969
324.10 4.964
324.20 4.958
324.30 4.952
324.40 4.947
324.50 4.941
324.60 4.935
324.70 4.93
324.80 4.924
324.90 4.918
325.00 4.913
325.10 4.907
325.20 4.901
325.30 4.896
325.40 4.89
325.50 4.885
325.60 4.879
325.70 4.873
325.80 4.868
325.90 4.862
326.00 4.857
326.10 4.851
326.20 4.846
326.30 4.84
326.40 4.835
326.50 4.829
326.60 4.824
326.70 4.818
326.80 4.813
326.90 4.807
327.00 4.802
327.10 4.796
327.20 4.791
327.30 4.785
327.40 4.78
327.50 4.774
327.60 4.769
327.70 4.763
327.80 4.758
327.90 4.753
328.00 4.747
328.10 4.742
328.20 4.736
328.30 4.731
328.40 4.726
328.50 4.72
328.60 4.715
328.70 4.71
328.80 4.704
328.90 4.699
329.00 4.694
329.10 4.688
329.20 4.683
329.30 4.678
329.40 4.672
329.50 4.667
329.60 4.662
329.70 4.657
329.80 4.651
329.90 4.646
330.00 4.641
330.10 4.636
330.20 4.63
330.30 4.625
330.40 4.62
330.50 4.615
330.60 4.61
330.70 4.604
330.80 4.599
330.90 4.594
331.00 4.589
331.10 4.584
331.20 4.578
331.30 4.573
331.40 4.568
331.50 4.563
331.60 4.558
331.70 4.553
331.80 4.548
331.90 4.542
332.00 4.537
332.10 4.532
332.20 4.527
332.30 4.522
332.40 4.517
332.50 4.512
332.60 4.507
332.70 4.502
332.80 4.497
332.90 4.492
333.00 4.487
333.10 4.482
333.20 4.477
333.30 4.472
333.40 4.467
333.50 4.462
333.60 4.457
333.70 4.452
333.80 4.447
333.90 4.442
334.00 4.437
334.10 4.432
334.20 4.427
334.30 4.422
334.40 4.417
334.50 4.412
334.60 4.407
334.70 4.402
334.80 4.397
334.90 4.393
335.00 4.388
335.10 4.383
335.20 4.378
335.30 4.373
335.40 4.368
335.50 4.363
335.60 4.358
335.70 4.354
335.80 4.349
335.90 4.344
336.00 4.339
336.10 4.334
336.20 4.329
336.30 4.325
336.40 4.32
336.50 4.315
336.60 4.31
336.70 4.306
336.80 4.301
336.90 4.296
337.00 4.291
337.10 4.286
337.20 4.282
337.30 4.277
337.40 4.272
337.50 4.268
337.60 4.263
337.70 4.258
337.80 4.253
337.90 4.249
338.00 4.244
338.10 4.239
338.20 4.235
338.30 4.23
338.40 4.225
338.50 4.221
338.60 4.216
338.70 4.211
338.80 4.207
338.90 4.202
339.00 4.197
339.10 4.193
339.20 4.188
339.30 4.184
339.40 4.179
339.50 4.174
339.60 4.17
339.70 4.165
339.80 4.161
339.90 4.156
340.00 4.151
340.10 4.147
340.20 4.142
340.30 4.138
340.40 4.133
340.50 4.129
340.60 4.124
340.70 4.12
340.80 4.115
340.90 4.111
341.00 4.106
341.10 4.102
341.20 4.097
341.30 4.093
341.40 4.088
341.50 4.084
341.60 4.079
341.70 4.075
341.80 4.07
341.90 4.066
342.00 4.061
342.10 4.057
342.20 4.053
342.30 4.048
342.40 4.044
342.50 4.039
342.60 4.035
342.70 4.031
342.80 4.026
342.90 4.022
343.00 4.017
343.10 4.013
343.20 4.009
343.30 4.004
343.40 4
343.50 3.996
343.60 3.991
343.70 3.987
343.80 3.983
343.90 3.978
344.00 3.974
344.10 3.97
344.20 3.965
344.30 3.961
344.40 3.957
344.50 3.952
344.60 3.948
344.70 3.944
344.80 3.94
344.90 3.935
345.00 3.931
345.10 3.927
345.20 3.923
345.30 3.918
345.40 3.914
345.50 3.91
345.60 3.906
345.70 3.901
345.80 3.897
345.90 3.893
346.00 3.889
346.10 3.884
346.20 3.88
346.30 3.876
346.40 3.872
346.50 3.868
346.60 3.864
346.70 3.859
346.80 3.855
346.90 3.851
347.00 3.847
347.10 3.843
347.20 3.839
347.30 3.835
347.40 3.83
347.50 3.826
347.60 3.822
347.70 3.818
347.80 3.814
347.90 3.81
348.00 3.806
348.10 3.802
348.20 3.798
348.30 3.794
348.40 3.789
348.50 3.785
348.60 3.781
348.70 3.777
348.80 3.773
348.90 3.769
349.00 3.765
349.10 3.761
349.20 3.757
349.30 3.753
349.40 3.749
349.50 3.745
349.60 3.741
349.70 3.737
349.80 3.733
349.90 3.729
350.00 3.725
350.10 3.721
350.20 3.717
350.30 3.713
350.40 3.709
350.50 3.705
350.60 3.701
350.70 3.697
350.80 3.693
350.90 3.689
351.00 3.686
351.10 3.682
351.20 3.678
351.30 3.674
351.40 3.67
351.50 3.666
351.60 3.662
351.70 3.658
351.80 3.654
351.90 3.65
352.00 3.646
352.10 3.643
352.20 3.639
352.30 3.635
352.40 3.631
352.50 3.627
352.60 3.623
352.70 3.62
352.80 3.616
352.90 3.612
353.00 3.608
353.10 3.604
353.20 3.6
353.30 3.597
353.40 3.593
353.50 3.589
353.60 3.585
353.70 3.581
353.80 3.578
353.90 3.574
354.00 3.57
354.10 3.566
354.20 3.562
354.30 3.559
354.40 3.555
354.50 3.551
354.60 3.547
354.70 3.544
354.80 3.54
354.90 3.536
355.00 3.533
355.10 3.529
355.20 3.525
355.30 3.521
355.40 3.518
355.50 3.514
355.60 3.51
355.70 3.507
355.80 3.503
355.90 3.499
356.00 3.495
356.10 3.492
356.20 3.488
356.30 3.484
356.40 3.481
356.50 3.477
356.60 3.474
356.70 3.47
356.80 3.466
356.90 3.463
357.00 3.459
357.10 3.455
357.20 3.452
357.30 3.448
357.40 3.444
357.50 3.441
357.60 3.437
357.70 3.434
357.80 3.43
357.90 3.426
358.00 3.423
358.10 3.419
358.20 3.416
358.30 3.412
358.40 3.409
358.50 3.405
358.60 3.402
358.70 3.398
358.80 3.394
358.90 3.391
359.00 3.387
359.10 3.384
359.20 3.38
359.30 3.377
359.40 3.373
359.50 3.37
359.60 3.366
359.70 3.363
359.80 3.359
359.90 3.356
360.00 3.352
360.10 3.349
360.20 3.345
360.30 3.342
360.40 3.338
360.50 3.335
360.60 3.331
360.70 3.328
360.80 3.324
360.90 3.321
361.00 3.318
361.10 3.314
361.20 3.311
361.30 3.307
361.40 3.304
361.50 3.3
361.60 3.297
361.70 3.294
361.80 3.29
361.90 3.287
362.00 3.283
362.10 3.28
362.20 3.277
362.30 3.273
362.40 3.27
362.50 3.266
362.60 3.263
362.70 3.26
362.80 3.256
362.90 3.253
363.00 3.25
363.10 3.246
363.20 3.243
363.30 3.24
363.40 3.236
363.50 3.233
363.60 3.23
363.70 3.226
363.80 3.223
363.90 3.22
364.00 3.216
364.10 3.213
364.20 3.21
364.30 3.206
364.40 3.203
364.50 3.2
364.60 3.196
364.70 3.193
364.80 3.19
364.90 3.187
365.00 3.183
365.10 3.18
365.20 3.177
365.30 3.174
365.40 3.17
365.50 3.167
365.60 3.164
365.70 3.161
365.80 3.157
365.90 3.154
366.00 3.151
366.10 3.148
366.20 3.144
366.30 3.141
366.40 3.138
366.50 3.135
366.60 3.131
366.70 3.128
366.80 3.125
366.90 3.122
367.00 3.119
367.10 3.115
367.20 3.112
367.30 3.109
367.40 3.106
367.50 3.103
367.60 3.099
367.70 3.096
367.80 3.093
367.90 3.09
368.00 3.087
368.10 3.084
368.20 3.08
368.30 3.077
368.40 3.074
368.50 3.071
368.60 3.067
368.70 3.064
368.80 3.061
368.90 3.058
369.00 3.055
369.10 3.051
369.20 3.048
369.30 3.045
369.40 3.042
369.50 3.039
369.60 3.035
369.70 3.032
369.80 3.029
369.90 3.026
370.00 3.023
370.10 3.02
370.20 3.016
370.30 3.013
370.40 3.01
370.50 3.007
370.60 3.004
370.70 3.001
370.80 2.997
370.90 2.994
371.00 2.991
371.10 2.988
371.20 2.985
371.30 2.982
371.40 2.979
371.50 2.975
371.60 2.972
371.70 2.969
371.80 2.966
371.90 2.963
372.00 2.96
372.10 2.957
372.20 2.954
372.30 2.951
372.40 2.948
372.50 2.945
372.60 2.942
372.70 2.94
372.80 2.937
372.90 2.934
373.00 2.931
373.10 2.928
373.20 2.925
373.30 2.922
373.40 2.919
373.50 2.917
373.60 2.914
373.70 2.911
373.80 2.908
373.90 2.905
374.00 2.902
374.10 2.899
374.20 2.896
374.30 2.893
374.40 2.89
374.50 2.887
374.60 2.884
374.70 2.881
374.80 2.878
374.90 2.875
375.00 2.872
375.10 2.869
375.20 2.866
375.30 2.863
375.40 2.86
375.50 2.857
375.60 2.854
375.70 2.851
375.80 2.848
375.90 2.845
376.00 2.843
376.10 2.84
376.20 2.837
376.30 2.834
376.40 2.831
376.50 2.828
376.60 2.825
376.70 2.822
376.80 2.819
376.90 2.816
377.00 2.813
377.10 2.81
377.20 2.808
377.30 2.805
377.40 2.802
377.50 2.799
377.60 2.796
377.70 2.793
377.80 2.791
377.90 2.788
378.00 2.785
378.10 2.782
378.20 2.779
378.30 2.777
378.40 2.774
378.50 2.771
378.60 2.768
378.70 2.765
378.80 2.763
378.90 2.76
379.00 2.757
379.10 2.754
379.20 2.752
379.30 2.749
379.40 2.746
379.50 2.743
379.60 2.74
379.70 2.738
379.80 2.735
379.90 2.732
380.00 2.729
380.10 2.727
380.20 2.724
380.30 2.721
380.40 2.719
380.50 2.716
380.60 2.713
380.70 2.71
380.80 2.708
380.90 2.705
381.00 2.702
381.10 2.7
381.20 2.697
381.30 2.694
381.40 2.692
381.50 2.689
381.60 2.686
381.70 2.684
381.80 2.681
381.90 2.678
382.00 2.676
382.10 2.673
382.20 2.67
382.30 2.668
382.40 2.665
382.50 2.663
382.60 2.66
382.70 2.657
382.80 2.655
382.90 2.652
383.00 2.649
383.10 2.647
383.20 2.644
383.30 2.642
383.40 2.639
383.50 2.636
383.60 2.634
383.70 2.631
383.80 2.629
383.90 2.626
384.00 2.624
384.10 2.621
384.20 2.619
384.30 2.616
384.40 2.613
384.50 2.611
384.60 2.608
384.70 2.606
384.80 2.603
384.90 2.601
385.00 2.598
385.10 2.596
385.20 2.593
385.30 2.591
385.40 2.588
385.50 2.586
385.60 2.583
385.70 2.581
385.80 2.578
385.90 2.576
386.00 2.573
386.10 2.571
386.20 2.569
386.30 2.566
386.40 2.564
386.50 2.561
386.60 2.559
386.70 2.556
386.80 2.554
386.90 2.551
387.00 2.549
387.10 2.546
387.20 2.544
387.30 2.542
387.40 2.539
387.50 2.537
387.60 2.534
387.70 2.532
387.80 2.529
387.90 2.527
388.00 2.525
388.10 2.522
388.20 2.52
388.30 2.518
388.40 2.515
388.50 2.513
388.60 2.51
388.70 2.508
388.80 2.506
388.90 2.503
389.00 2.501
389.10 2.499
389.20 2.496
389.30 2.494
389.40 2.492
389.50 2.489
389.60 2.487
389.70 2.485
389.80 2.483
389.90 2.48
390.00 2.478
390.10 2.476
390.20 2.474
390.30 2.471
390.40 2.469
390.50 2.467
390.60 2.465
390.70 2.462
390.80 2.46
390.90 2.458
391.00 2.455
391.10 2.453
391.20 2.451
391.30 2.449
391.40 2.446
391.50 2.444
391.60 2.442
391.70 2.44
391.80 2.437
391.90 2.435
392.00 2.433
392.10 2.431
392.20 2.428
392.30 2.426
392.40 2.424
392.50 2.422
392.60 2.419
392.70 2.417
392.80 2.415
392.90 2.413
393.00 2.41
393.10 2.408
393.20 2.406
393.30 2.403
393.40 2.401
393.50 2.399
393.60 2.397
393.70 2.394
393.80 2.392
393.90 2.39
394.00 2.387
394.10 2.385
394.20 2.383
394.30 2.381
394.40 2.378
394.50 2.376
394.60 2.374
394.70 2.371
394.80 2.369
394.90 2.367
395.00 2.364
395.10 2.362
395.20 2.36
395.30 2.358
395.40 2.355
395.50 2.353
395.60 2.351
395.70 2.348
395.80 2.346
395.90 2.344
396.00 2.342
396.10 2.339
396.20 2.337
396.30 2.335
396.40 2.332
396.50 2.33
396.60 2.328
396.70 2.326
396.80 2.324
396.90 2.322
397.00 2.319
397.10 2.317
397.20 2.316
397.30 2.314
397.40 2.312
397.50 2.31
397.60 2.308
397.70 2.306
397.80 2.304
397.90 2.303
398.00 2.301
398.10 2.299
398.20 2.297
398.30 2.295
398.40 2.294
398.50 2.292
398.60 2.29
398.70 2.288
398.80 2.287
398.90 2.285
399.00 2.283
399.10 2.281
399.20 2.279
399.30 2.278
399.40 2.276
399.50 2.274
399.60 2.272
399.70 2.27
399.80 2.268
399.90 2.267
400.00 2.265
400.10 2.263
400.20 2.261
400.30 2.259
400.40 2.257
400.50 2.255
400.60 2.253
400.70 2.252
400.80 2.25
400.90 2.248
401.00 2.246
401.10 2.244
401.20 2.242
401.30 2.24
401.40 2.238
401.50 2.236
401.60 2.234
401.70 2.232
401.80 2.23
401.90 2.228
402.00 2.226
402.10 2.224
402.20 2.222
402.30 2.22
402.40 2.218
402.50 2.216
402.60 2.214
402.70 2.212
402.80 2.209
402.90 2.207
403.00 2.205
403.10 2.203
403.20 2.201
403.30 2.199
403.40 2.196
403.50 2.194
403.60 2.192
403.70 2.19
403.80 2.188
403.90 2.185
404.00 2.183
404.10 2.181
404.20 2.179
404.30 2.176
404.40 2.174
404.50 2.172
404.60 2.169
404.70 2.167
404.80 2.165
404.90 2.162
405.00 2.16
405.10 2.158
405.20 2.155
405.30 2.153
405.40 2.15
405.50 2.148
405.60 2.145
405.70 2.143
405.80 2.141
405.90 2.138
406.00 2.136
406.10 2.133
406.20 2.131
406.30 2.128
406.40 2.125
406.50 2.123
406.60 2.12
406.70 2.118
406.80 2.115
406.90 2.113
407.00 2.11
407.10 2.107
407.20 2.105
407.30 2.102
407.40 2.099
407.50 2.097
407.60 2.094
407.70 2.092
407.80 2.089
407.90 2.086
408.00 2.084
408.10 2.081
408.20 2.078
408.30 2.076
408.40 2.073
408.50 2.07
408.60 2.068
408.70 2.065
408.80 2.063
408.90 2.06
409.00 2.058
409.10 2.055
409.20 2.053
409.30 2.051
409.40 2.049
409.50 2.046
409.60 2.044
409.70 2.043
409.80 2.041
409.90 2.039
410.00 2.038
410.10 2.036
410.20 2.035
410.30 2.033
410.40 2.031
410.50 2.029
410.60 2.027
410.70 2.026
410.80 2.024
410.90 2.023
411.00 2.022
411.10 2.02
411.20 2.019
411.30 2.018
411.40 2.017
411.50 2.016
411.60 2.015
411.70 2.014
411.80 2.014
411.90 2.013
412.00 2.012
412.10 2.011
412.20 2.01
412.30 2.009
412.40 2.009
412.50 2.008
412.60 2.007
412.70 2.006
412.80 2.005
412.90 2.005
413.00 2.004
413.10 2.003
413.20 2.002
413.30 2.001
413.40 2
413.50 1.999
413.60 1.999
413.70 1.998
413.80 1.997
413.90 1.996
414.00 1.995
414.10 1.994
414.20 1.993
414.30 1.992
414.40 1.991
414.50 1.99
414.60 1.989
414.70 1.988
414.80 1.987
414.90 1.986
415.00 1.985
415.10 1.984
415.20 1.983
415.30 1.982
415.40 1.981
415.50 1.979
415.60 1.978
415.70 1.977
415.80 1.976
415.90 1.975
416.00 1.974
416.10 1.972
416.20 1.971
416.30 1.97
416.40 1.969
416.50 1.968
416.60 1.966
416.70 1.965
416.80 1.964
416.90 1.962
417.00 1.961
417.10 1.96
417.20 1.959
417.30 1.957
417.40 1.956
417.50 1.955
417.60 1.953
417.70 1.952
417.80 1.95
417.90 1.949
418.00 1.948
418.10 1.946
418.20 1.945
418.30 1.943
418.40 1.942
418.50 1.94
418.60 1.939
418.70 1.937
418.80 1.936
418.90 1.934
419.00 1.933
419.10 1.931
419.20 1.93
419.30 1.928
419.40 1.927
419.50 1.925
419.60 1.924
419.70 1.922
419.80 1.921
419.90 1.919
420.00 1.917
420.10 1.916
420.20 1.914
420.30 1.912
420.40 1.911
420.50 1.909
420.60 1.908
420.70 1.906
420.80 1.904
420.90 1.903
421.00 1.901
421.10 1.899
421.20 1.897
421.30 1.896
421.40 1.894
421.50 1.892
421.60 1.89
421.70 1.889
421.80 1.887
421.90 1.885
422.00 1.883
422.10 1.882
422.20 1.88
422.30 1.878
422.40 1.876
422.50 1.874
422.60 1.872
422.70 1.871
422.80 1.869
422.90 1.867
423.00 1.865
423.10 1.863
423.20 1.861
423.30 1.859
423.40 1.857
423.50 1.855
423.60 1.853
423.70 1.851
423.80 1.849
423.90 1.847
424.00 1.845
424.10 1.843
424.20 1.841
424.30 1.839
424.40 1.837
424.50 1.835
424.60 1.833
424.70 1.831
424.80 1.829
424.90 1.827
425.00 1.825
425.10 1.823
425.20 1.82
425.30 1.818
425.40 1.816
425.50 1.814
425.60 1.812
425.70 1.809
425.80 1.807
425.90 1.805
426.00 1.803
426.10 1.8
426.20 1.798
426.30 1.796
426.40 1.794
426.50 1.791
426.60 1.789
426.70 1.786
426.80 1.784
426.90 1.782
427.00 1.779
427.10 1.777
427.20 1.774
427.30 1.772
427.40 1.769
427.50 1.767
427.60 1.764
427.70 1.762
427.80 1.759
427.90 1.756
428.00 1.754
428.10 1.751
428.20 1.748
428.30 1.746
428.40 1.743
428.50 1.74
428.60 1.738
428.70 1.735
428.80 1.732
428.90 1.729
429.00 1.726
429.10 1.723
429.20 1.721
429.30 1.718
429.40 1.715
429.50 1.712
429.60 1.709
429.70 1.706
429.80 1.703
429.90 1.7
430.00 1.697
430.10 1.693
430.20 1.69
430.30 1.687
430.40 1.684
430.50 1.681
430.60 1.678
430.70 1.674
430.80 1.671
430.90 1.668
431.00 1.665
431.10 1.661
431.20 1.658
431.30 1.655
431.40 1.651
431.50 1.648
431.60 1.645
431.70 1.641
431.80 1.638
431.90 1.634
432.00 1.631
432.10 1.627
432.20 1.624
432.30 1.62
432.40 1.617
432.50 1.613
432.60 1.609
432.70 1.606
432.80 1.602
432.90 1.598
433.00 1.595
433.10 1.591
433.20 1.587
433.30 1.583
433.40 1.579
433.50 1.574
433.60 1.57
433.70 1.565
433.80 1.56
433.90 1.555
434.00 1.551
434.10 1.551
434.20 1.552
434.30 1.555
434.40 1.557
434.50 1.56
434.60 1.562
434.70 1.563
434.80 1.565
434.90 1.566
435.00 1.568
435.10 1.569
435.20 1.57
435.30 1.571
435.40 1.572
435.50 1.573
435.60 1.574
435.70 1.575
435.80 1.576
435.90 1.576
436.00 1.577
436.10 1.578
436.20 1.579
436.30 1.58
436.40 1.58
436.50 1.581
436.60 1.582
436.70 1.582
436.80 1.583
436.90 1.583
437.00 1.584
437.10 1.585
437.20 1.585
437.30 1.586
437.40 1.586
437.50 1.586
437.60 1.587
437.70 1.587
437.80 1.588
437.90 1.588
438.00 1.588
438.10 1.588
438.20 1.589
438.30 1.589
438.40 1.589
438.50 1.589
438.60 1.589
438.70 1.589
438.80 1.59
438.90 1.59
439.00 1.59
439.10 1.59
439.20 1.59
439.30 1.59
439.40 1.589
439.50 1.589
439.60 1.589
439.70 1.589
439.80 1.589
439.90 1.589
440.00 1.588
440.10 1.588
440.20 1.588
440.30 1.588
440.40 1.587
440.50 1.587
440.60 1.587
440.70 1.586
440.80 1.586
440.90 1.586
441.00 1.585
441.10 1.585
441.20 1.584
441.30 1.584
441.40 1.583
441.50 1.583
441.60 1.582
441.70 1.582
441.80 1.581
441.90 1.581
442.00 1.58
442.10 1.579
442.20 1.579
442.30 1.578
442.40 1.577
442.50 1.577
442.60 1.576
442.70 1.575
442.80 1.575
442.90 1.574
443.00 1.573
443.10 1.572
443.20 1.572
443.30 1.571
443.40 1.57
443.50 1.569
443.60 1.568
443.70 1.568
443.80 1.567
443.90 1.566
444.00 1.565
444.10 1.564
444.20 1.563
444.30 1.563
444.40 1.562
444.50 1.561
444.60 1.56
444.70 1.559
444.80 1.558
444.90 1.557
445.00 1.556
445.10 1.555
445.20 1.554
445.30 1.553
445.40 1.552
445.50 1.551
445.60 1.55
445.70 1.549
445.80 1.548
445.90 1.547
446.00 1.546
446.10 1.545
446.20 1.544
446.30 1.543
446.40 1.542
446.50 1.541
446.60 1.54
446.70 1.539
446.80 1.538
446.90 1.537
447.00 1.536
447.10 1.535
447.20 1.534
447.30 1.533
447.40 1.532
447.50 1.531
447.60 1.53
447.70 1.529
447.80 1.528
447.90 1.526
448.00 1.525
448.10 1.524
448.20 1.523
448.30 1.522
448.40 1.521
448.50 1.52
448.60 1.519
448.70 1.518
448.80 1.516
448.90 1.515
449.00 1.514
449.10 1.513
449.20 1.512
449.30 1.511
449.40 1.51
449.50 1.509
449.60 1.507
449.70 1.506
449.80 1.505
449.90 1.504
450.00 1.503
450.10 1.502
450.20 1.501
450.30 1.499
450.40 1.498
450.50 1.497
450.60 1.496
450.70 1.495
450.80 1.494
450.90 1.492
451.00 1.491
451.10 1.49
451.20 1.489
451.30 1.488
451.40 1.487
451.50 1.486
451.60 1.484
451.70 1.483
451.80 1.482
451.90 1.481
452.00 1.48
452.10 1.479
452.20 1.477
452.30 1.476
452.40 1.475
452.50 1.474
452.60 1.473
452.70 1.471
452.80 1.47
452.90 1.469
453.00 1.468
453.10 1.467
453.20 1.466
453.30 1.464
453.40 1.463
453.50 1.462
453.60 1.461
453.70 1.46
453.80 1.459
453.90 1.457
454.00 1.456
454.10 1.455
454.20 1.454
454.30 1.453
454.40 1.451
454.50 1.45
454.60 1.449
454.70 1.448
454.80 1.447
454.90 1.446
455.00 1.444
455.10 1.443
455.20 1.442
455.30 1.441
455.40 1.44
455.50 1.438
455.60 1.437
455.70 1.436
455.80 1.435
455.90 1.434
456.00 1.433
456.10 1.431
456.20 1.43
456.30 1.429
456.40 1.428
456.50 1.427
456.60 1.425
456.70 1.424
456.80 1.423
456.90 1.422
457.00 1.421
457.10 1.42
457.20 1.418
457.30 1.417
457.40 1.416
457.50 1.415
457.60 1.414
457.70 1.413
457.80 1.411
457.90 1.41
458.00 1.409
458.10 1.408
458.20 1.407
458.30 1.405
458.40 1.404
458.50 1.403
458.60 1.402
458.70 1.401
458.80 1.4
458.90 1.398
459.00 1.397
459.10 1.396
459.20 1.395
459.30 1.394
459.40 1.393
459.50 1.391
459.60 1.39
459.70 1.389
459.80 1.388
459.90 1.387
460.00 1.386
460.10 1.384
460.20 1.383
460.30 1.382
460.40 1.381
460.50 1.38
460.60 1.379
460.70 1.377
460.80 1.376
460.90 1.375
461.00 1.374
461.10 1.373
461.20 1.371
461.30 1.37
461.40 1.369
461.50 1.368
461.60 1.367
461.70 1.366
461.80 1.364
461.90 1.363
462.00 1.362
462.10 1.361
462.20 1.36
462.30 1.359
462.40 1.358
462.50 1.356
462.60 1.355
462.70 1.354
462.80 1.353
462.90 1.352
463.00 1.351
463.10 1.349
463.20 1.348
463.30 1.347
463.40 1.346
463.50 1.345
463.60 1.344
463.70 1.342
463.80 1.341
463.90 1.34
464.00 1.339
464.10 1.338
464.20 1.337
464.30 1.335
464.40 1.334
464.50 1.333
464.60 1.332
464.70 1.331
464.80 1.33
464.90 1.328
465.00 1.327
465.10 1.326
465.20 1.325
465.30 1.324
465.40 1.323
465.50 1.322
465.60 1.32
465.70 1.319
465.80 1.318
465.90 1.317
466.00 1.316
466.10 1.315
466.20 1.313
466.30 1.312
466.40 1.311
466.50 1.31
466.60 1.309
466.70 1.308
466.80 1.306
466.90 1.305
467.00 1.304
467.10 1.303
467.20 1.302
467.30 1.301
467.40 1.299
467.50 1.298
467.60 1.297
467.70 1.296
467.80 1.295
467.90 1.294
468.00 1.292
468.10 1.291
468.20 1.29
468.30 1.289
468.40 1.288
468.50 1.287
468.60 1.285
468.70 1.284
468.80 1.283
468.90 1.282
469.00 1.281
469.10 1.279
469.20 1.278
469.30 1.277
469.40 1.276
469.50 1.275
469.60 1.274
469.70 1.272
469.80 1.271
469.90 1.27
470.00 1.269
470.10 1.268
470.20 1.266
470.30 1.265
470.40 1.264
470.50 1.263
470.60 1.262
470.70 1.26
470.80 1.259
470.90 1.258
471.00 1.257
471.10 1.256
471.20 1.254
471.30 1.253
471.40 1.252
471.50 1.251
471.60 1.249
471.70 1.248
471.80 1.247
471.90 1.246
472.00 1.245
472.10 1.243
472.20 1.242
472.30 1.241
472.40 1.24
472.50 1.238
472.60 1.237
472.70 1.236
472.80 1.235
472.90 1.233
473.00 1.232
473.10 1.231
473.20 1.229
473.30 1.228
473.40 1.227
473.50 1.226
473.60 1.224
473.70 1.223
473.80 1.222
473.90 1.22
474.00 1.219
474.10 1.218
474.20 1.217
474.30 1.215
474.40 1.214
474.50 1.212
474.60 1.211
474.70 1.21
474.80 1.208
474.90 1.207
475.00 1.206
475.10 1.204
475.20 1.203
475.30 1.202
475.40 1.2
475.50 1.199
475.60 1.197
475.70 1.196
475.80 1.195
475.90 1.193
476.00 1.192
476.10 1.19
476.20 1.189
476.30 1.187
476.40 1.186
476.50 1.184
476.60 1.183
476.70 1.181
476.80 1.18
476.90 1.179
477.00 1.177
477.10 1.176
477.20 1.174
477.30 1.172
477.40 1.171
477.50 1.169
477.60 1.168
477.70 1.166
477.80 1.164
477.90 1.163
478.00 1.161
478.10 1.16
478.20 1.158
478.30 1.156
478.40 1.155
478.50 1.153
478.60 1.151
478.70 1.149
478.80 1.148
478.90 1.146
479.00 1.144
479.10 1.142
479.20 1.141
479.30 1.139
479.40 1.137
479.50 1.135
479.60 1.133
479.70 1.131
479.80 1.129
479.90 1.127
480.00 1.126
480.10 1.124
480.20 1.122
480.30 1.12
480.40 1.118
480.50 1.115
480.60 1.113
480.70 1.111
480.80 1.109
480.90 1.107
481.00 1.105
481.10 1.103
481.20 1.101
481.30 1.098
481.40 1.096
481.50 1.094
481.60 1.091
481.70 1.089
481.80 1.087
481.90 1.085
482.00 1.082
482.10 1.08
482.20 1.077
482.30 1.075
482.40 1.072
482.50 1.07
482.60 1.067
482.70 1.064
482.80 1.062
482.90 1.059
483.00 1.057
483.10 1.054
483.20 1.051
483.30 1.049
483.40 1.046
483.50 1.043
483.60 1.04
483.70 1.037
483.80 1.034
483.90 1.031
484.00 1.029
484.10 1.026
484.20 1.023
484.30 1.02
484.40 1.017
484.50 1.014
484.60 1.011
484.70 1.008
484.80 1.005
484.90 1.002
485.00 0.9987
485.10 0.9958
485.20 0.9929
485.30 0.9902
485.40 0.9877
485.50 0.9854
485.60 0.9839
485.70 0.9827
485.80 0.9838
485.90 0.9859
486.00 0.9913
486.10 0.9985
486.20 0.9958
486.30 0.9863
486.40 0.9814
486.50 0.9777
486.60 0.9763
486.70 0.976
486.80 0.9765
486.90 0.9773
487.00 0.9784
487.10 0.9797
487.20 0.9811
487.30 0.9825
487.40 0.984
487.50 0.9855
487.60 0.9869
487.70 0.9884
487.80 0.9898
487.90 0.9913
488.00 0.9927
488.10 0.9942
488.20 0.9955
488.30 0.9967
488.40 0.998
488.50 0.9992
488.60 1
488.70 1.002
488.80 1.003
488.90 1.004
489.00 1.005
489.10 1.007
489.20 1.008
489.30 1.009
489.40 1.009
489.50 1.01
489.60 1.011
489.70 1.012
489.80 1.013
489.90 1.014
490.00 1.015
490.10 1.016
490.20 1.016
490.30 1.017
490.40 1.018
490.50 1.018
490.60 1.019
490.70 1.019
490.80 1.02
490.90 1.021
491.00 1.021
491.10 1.022
491.20 1.022
491.30 1.023
491.40 1.023
491.50 1.023
491.60 1.024
491.70 1.024
491.80 1.024
491.90 1.024
492.00 1.025
492.10 1.025
492.20 1.025
492.30 1.025
492.40 1.025
492.50 1.026
492.60 1.026
492.70 1.026
492.80 1.026
492.90 1.026
493.00 1.026
493.10 1.026
493.20 1.026
493.30 1.026
493.40 1.026
493.50 1.026
493.60 1.026
493.70 1.026
493.80 1.026
493.90 1.026
494.00 1.025
494.10 1.025
494.20 1.025
494.30 1.025
494.40 1.025
494.50 1.024
494.60 1.024
494.70 1.024
494.80 1.024
494.90 1.024
495.00 1.023
495.10 1.023
495.20 1.023
495.30 1.022
495.40 1.022
495.50 1.022
495.60 1.021
495.70 1.021
495.80 1.021
495.90 1.02
496.00 1.02
496.10 1.02
496.20 1.019
496.30 1.019
496.40 1.019
496.50 1.018
496.60 1.018
496.70 1.017
496.80 1.017
496.90 1.016
497.00 1.016
497.10 1.016
497.20 1.015
497.30 1.015
497.40 1.014
497.50 1.014
497.60 1.013
497.70 1.013
497.80 1.012
497.90 1.012
498.00 1.011
498.10 1.011
498.20 1.01
498.30 1.01
498.40 1.009
498.50 1.008
498.60 1.008
498.70 1.007
498.80 1.007
498.90 1.006
499.00 1.006
499.10 1.005
499.20 1.005
499.30 1.004
499.40 1.003
499.50 1.003
499.60 1.002
499.70 1.002
499.80 1.001
499.90 1.001
500.00 1
500.10 0.9994
500.20 0.9988
500.30 0.9982
500.40 0.9976
500.50 0.997
500.60 0.9964
500.70 0.9958
500.80 0.9952
500.90 0.9945
501.00 0.9939
501.10 0.9933
501.20 0.9927
501.30 0.9921
501.40 0.9914
501.50 0.9908
501.60 0.9902
501.70 0.9895
501.80 0.9889
501.90 0.9883
502.00 0.9876
502.10 0.987
502.20 0.9864
502.30 0.9857
502.40 0.9851
502.50 0.9844
502.60 0.9838
502.70 0.9831
502.80 0.9825
502.90 0.9818
503.00 0.9812
503.10 0.9805
503.20 0.9799
503.30 0.9792
503.40 0.9786
503.50 0.9779
503.60 0.9772
503.70 0.9766
503.80 0.9759
503.90 0.9753
504.00 0.9746
504.10 0.9739
504.20 0.9733
504.30 0.9726
504.40 0.9719
504.50 0.9713
504.60 0.9706
504.70 0.9699
504.80 0.9693
504.90 0.9686
505.00 0.9679
505.10 0.9673
505.20 0.9666
505.30 0.9659
505.40 0.9653
505.50 0.9646
505.60 0.9639
505.70 0.9632
505.80 0.9626
505.90 0.9619
506.00 0.9612
506.10 0.9605
506.20 0.9599
506.30 0.9592
506.40 0.9585
506.50 0.9578
506.60 0.9572
506.70 0.9565
506.80 0.9558
506.90 0.9551
507.00 0.9545
507.10 0.9538
507.20 0.9531
507.30 0.9524
507.40 0.9518
507.50 0.9511
507.60 0.9504
507.70 0.9497
507.80 0.949
507.90 0.9484
508.00 0.9477
508.10 0.947
508.20 0.9463
508.30 0.9457
508.40 0.945
508.50 0.9443
508.60 0.9436
508.70 0.943
508.80 0.9423
508.90 0.9416
509.00 0.9409
509.10 0.9403
509.20 0.9396
509.30 0.9389
509.40 0.9382
509.50 0.9375
509.60 0.9369
509.70 0.9362
509.80 0.9355
509.90 0.9348
510.00 0.9342
510.10 0.9335
510.20 0.9328
510.30 0.9321
510.40 0.9315
510.50 0.9308
510.60 0.9301
510.70 0.9294
510.80 0.9288
510.90 0.9281
511.00 0.9274
511.10 0.9268
511.20 0.9261
511.30 0.9254
511.40 0.9247
511.50 0.9241
511.60 0.9234
511.70 0.9227
511.80 0.9221
511.90 0.9214
512.00 0.9207
512.10 0.9201
512.20 0.9194
512.30 0.9187
512.40 0.918
512.50 0.9174
512.60 0.9167
512.70 0.916
512.80 0.9154
512.90 0.9147
513.00 0.914
513.10 0.9134
513.20 0.9127
513.30 0.912
513.40 0.9114
513.50 0.9107
513.60 0.91
513.70 0.9094
513.80 0.9087
513.90 0.9081
514.00 0.9074
514.10 0.9067
514.20 0.9061
514.30 0.9054
514.40 0.9047
514.50 0.9041
514.60 0.9034
514.70 0.9028
514.80 0.9021
514.90 0.9014
515.00 0.9008
515.10 0.9001
515.20 0.8995
515.30 0.8988
515.40 0.8981
515.50 0.8975
515.60 0.8968
515.70 0.8962
515.80 0.8955
515.90 0.8949
516.00 0.8942
516.10 0.8936
516.20 0.8929
516.30 0.8923
516.40 0.8916
516.50 0.8909
516.60 0.8903
516.70 0.8896
516.80 0.889
516.90 0.8883
517.00 0.8877
517.10 0.887
517.20 0.8864
517.30 0.8857
517.40 0.8851
517.50 0.8844
517.60 0.8838
517.70 0.8832
517.80 0.8825
517.90 0.8819
518.00 0.8812
518.10 0.8806
518.20 0.8799
518.30 0.8793
518.40 0.8786
518.50 0.878
518.60 0.8774
518.70 0.8767
518.80 0.8761
518.90 0.8754
519.00 0.8748
519.10 0.8741
519.20 0.8735
519.30 0.8729
519.40 0.8722
519.50 0.8716
519.60 0.871
519.70 0.8703
519.80 0.8697
519.90 0.869
520.00 0.8684
520.10 0.8678
520.20 0.8671
520.30 0.8665
520.40 0.8659
520.50 0.8652
520.60 0.8646
520.70 0.864
520.80 0.8633
520.90 0.8627
521.00 0.8621
521.10 0.8614
521.20 0.8608
521.30 0.8602
521.40 0.8596
521.50 0.8589
521.60 0.8583
521.70 0.8577
521.80 0.8571
521.90 0.8564
522.00 0.8558
522.10 0.8552
522.20 0.8545
522.30 0.8539
522.40 0.8533
522.50 0.8527
522.60 0.8521
522.70 0.8514
522.80 0.8508
522.90 0.8502
523.00 0.8496
523.10 0.8489
523.20 0.8483
523.30 0.8477
523.40 0.8471
523.50 0.8465
523.60 0.8459
523.70 0.8452
523.80 0.8446
523.90 0.844
524.00 0.8434
524.10 0.8428
524.20 0.8422
524.30 0.8415
524.40 0.8409
524.50 0.8403
524.60 0.8397
524.70 0.8391
524.80 0.8385
524.90 0.8379
525.00 0.8373
525.10 0.8367
525.20 0.836
525.30 0.8354
525.40 0.8348
525.50 0.8342
525.60 0.8336
525.70 0.833
525.80 0.8324
525.90 0.8318
526.00 0.8312
526.10 0.8306
526.20 0.83
526.30 0.8294
526.40 0.8288
526.50 0.8282
526.60 0.8276
526.70 0.827
526.80 0.8264
526.90 0.8258
527.00 0.8252
527.10 0.8246
527.20 0.824
527.30 0.8234
527.40 0.8228
527.50 0.8222
527.60 0.8216
527.70 0.821
527.80 0.8204
527.90 0.8198
528.00 0.8192
528.10 0.8186
528.20 0.818
528.30 0.8174
528.40 0.8168
528.50 0.8162
528.60 0.8156
528.70 0.815
528.80 0.8144
528.90 0.8139
529.00 0.8133
529.10 0.8127
529.20 0.8121
529.30 0.8115
529.40 0.8109
529.50 0.8103
529.60 0.8097
529.70 0.8092
529.80 0.8086
529.90 0.808
530.00 0.8074
530.10 0.8068
530.20 0.8062
530.30 0.8056
530.40 0.8051
530.50 0.8045
530.60 0.8039
530.70 0.8033
530.80 0.8027
530.90 0.8022
531.00 0.8016
531.10 0.801
531.20 0.8004
531.30 0.7998
531.40 0.7993
531.50 0.7987
531.60 0.7981
531.70 0.7975
531.80 0.797
531.90 0.7964
532.00 0.7958
532.10 0.7952
532.20 0.7947
532.30 0.7941
532.40 0.7935
532.50 0.7929
532.60 0.7924
532.70 0.7918
532.80 0.7912
532.90 0.7907
533.00 0.7901
533.10 0.7895
533.20 0.7889
533.30 0.7884
533.40 0.7878
533.50 0.7872
533.60 0.7867
533.70 0.7861
533.80 0.7855
533.90 0.785
534.00 0.7844
534.10 0.7838
534.20 0.7833
534.30 0.7827
534.40 0.7822
534.50 0.7816
534.60 0.781
534.70 0.7805
534.80 0.7799
534.90 0.7793
535.00 0.7788
535.10 0.7782
535.20 0.7777
535.30 0.7771
535.40 0.7766
535.50 0.776
535.60 0.7754
535.70 0.7749
535.80 0.7743
535.90 0.7738
536.00 0.7732
536.10 0.7727
536.20 0.7721
536.30 0.7716
536.40 0.771
536.50 0.7704
536.60 0.7699
536.70 0.7693
536.80 0.7688
536.90 0.7682
537.00 0.7677
537.10 0.7671
537.20 0.7666
537.30 0.766
537.40 0.7655
537.50 0.7649
537.60 0.7644
537.70 0.7639
537.80 0.7633
537.90 0.7628
538.00 0.7622
538.10 0.7617
538.20 0.7611
538.30 0.7606
538.40 0.76
538.50 0.7595
538.60 0.7589
538.70 0.7584
538.80 0.7579
538.90 0.7573
539.00 0.7568
539.10 0.7562
539.20 0.7557
539.30 0.7552
539.40 0.7546
539.50 0.7541
539.60 0.7535
539.70 0.753
539.80 0.7525
539.90 0.7519
540.00 0.7514
540.10 0.7509
540.20 0.7503
540.30 0.7498
540.40 0.7493
540.50 0.7487
540.60 0.7482
540.70 0.7477
540.80 0.7471
540.90 0.7466
541.00 0.7461
541.10 0.7455
541.20 0.745
541.30 0.7445
541.40 0.7439
541.50 0.7434
541.60 0.7429
541.70 0.7424
541.80 0.7418
541.90 0.7413
542.00 0.7408
542.10 0.7403
542.20 0.7397
542.30 0.7392
542.40 0.7387
542.50 0.7382
542.60 0.7376
542.70 0.7371
542.80 0.7366
542.90 0.7361
543.00 0.7355
543.10 0.735
543.20 0.7345
543.30 0.734
543.40 0.7335
543.50 0.7329
543.60 0.7324
543.70 0.7319
543.80 0.7314
543.90 0.7309
544.00 0.7303
544.10 0.7298
544.20 0.7293
544.30 0.7288
544.40 0.7283
544.50 0.7278
544.60 0.7272
544.70 0.7267
544.80 0.7262
544.90 0.7257
545.00 0.7252
545.10 0.7247
545.20 0.7242
545.30 0.7237
545.40 0.7231
545.50 0.7226
545.60 0.7221
545.70 0.7216
545.80 0.7211
545.90 0.7206
546.00 0.7201
546.10 0.7196
546.20 0.7191
546.30 0.7186
546.40 0.7181
546.50 0.7175
546.60 0.717
546.70 0.7165
546.80 0.716
546.90 0.7155
547.00 0.715
547.10 0.7145
547.20 0.714
547.30 0.7135
547.40 0.713
547.50 0.7125
547.60 0.712
547.70 0.7115
547.80 0.711
547.90 0.7105
548.00 0.71
548.10 0.7095
548.20 0.709
548.30 0.7085
548.40 0.708
548.50 0.7075
548.60 0.707
548.70 0.7065
548.80 0.706
548.90 0.7055
549.00 0.705
549.10 0.7045
549.20 0.704
549.30 0.7035
549.40 0.703
549.50 0.7026
549.60 0.7021
549.70 0.7016
549.80 0.7011
549.90 0.7006
550.00 0.7001
550.10 0.6996
550.20 0.6991
550.30 0.6986
550.40 0.6981
550.50 0.6976
550.60 0.6972
550.70 0.6967
550.80 0.6962
550.90 0.6957
551.00 0.6952
551.10 0.6947
551.20 0.6942
551.30 0.6937
551.40 0.6933
551.50 0.6928
551.60 0.6923
551.70 0.6918
551.80 0.6913
551.90 0.6908
552.00 0.6904
552.10 0.6899
552.20 0.6894
552.30 0.6889
552.40 0.6884
552.50 0.688
552.60 0.6875
552.70 0.687
552.80 0.6865
552.90 0.686
553.00 0.6856
553.10 0.6851
553.20 0.6846
553.30 0.6841
553.40 0.6836
553.50 0.6832
553.60 0.6827
553.70 0.6822
553.80 0.6817
553.90 0.6813
554.00 0.6808
554.10 0.6803
554.20 0.6798
554.30 0.6794
554.40 0.6789
554.50 0.6784
554.60 0.678
554.70 0.6775
554.80 0.677
554.90 0.6765
555.00 0.6761
555.10 0.6756
555.20 0.6751
555.30 0.6747
555.40 0.6742
555.50 0.6737
555.60 0.6733
555.70 0.6728
555.80 0.6723
555.90 0.6719
556.00 0.6714
556.10 0.6709
556.20 0.6705
556.30 0.67
556.40 0.6695
556.50 0.6691
556.60 0.6686
556.70 0.6681
556.80 0.6677
556.90 0.6672
557.00 0.6667
557.10 0.6663
557.20 0.6658
557.30 0.6654
557.40 0.6649
557.50 0.6644
557.60 0.664
557.70 0.6635
557.80 0.6631
557.90 0.6626
558.00 0.6621
558.10 0.6617
558.20 0.6612
558.30 0.6608
558.40 0.6603
558.50 0.6599
558.60 0.6594
558.70 0.6589
558.80 0.6585
558.90 0.658
559.00 0.6576
559.10 0.6571
559.20 0.6567
559.30 0.6562
559.40 0.6558
559.50 0.6553
559.60 0.6549
559.70 0.6544
559.80 0.654
559.90 0.6535
560.00 0.6531
560.10 0.6526
560.20 0.6522
560.30 0.6517
560.40 0.6513
560.50 0.6508
560.60 0.6504
560.70 0.6499
560.80 0.6495
560.90 0.649
561.00 0.6486
561.10 0.6481
561.20 0.6477
561.30 0.6472
561.40 0.6468
561.50 0.6463
561.60 0.6459
561.70 0.6455
561.80 0.645
561.90 0.6446
562.00 0.6441
562.10 0.6437
562.20 0.6432
562.30 0.6428
562.40 0.6424
562.50 0.6419
562.60 0.6415
562.70 0.641
562.80 0.6406
562.90 0.6402
563.00 0.6397
563.10 0.6393
563.20 0.6388
563.30 0.6384
563.40 0.638
563.50 0.6375
563.60 0.6371
563.70 0.6367
563.80 0.6362
563.90 0.6358
564.00 0.6353
564.10 0.6349
564.20 0.6345
564.30 0.634
564.40 0.6336
564.50 0.6332
564.60 0.6327
564.70 0.6323
564.80 0.6319
564.90 0.6314
565.00 0.631
565.10 0.6306
565.20 0.6302
565.30 0.6297
565.40 0.6293
565.50 0.6289
565.60 0.6284
565.70 0.628
565.80 0.6276
565.90 0.6271
566.00 0.6267
566.10 0.6263
566.20 0.6259
566.30 0.6254
566.40 0.625
566.50 0.6246
566.60 0.6242
566.70 0.6237
566.80 0.6233
566.90 0.6229
567.00 0.6225
567.10 0.622
567.20 0.6216
567.30 0.6212
567.40 0.6208
567.50 0.6203
567.60 0.6199
567.70 0.6195
567.80 0.6191
567.90 0.6187
568.00 0.6182
568.10 0.6178
568.20 0.6174
568.30 0.617
568.40 0.6166
568.50 0.6161
568.60 0.6157
568.70 0.6153
568.80 0.6149
568.90 0.6145
569.00 0.614
569.10 0.6136
569.20 0.6132
569.30 0.6128
569.40 0.6124
569.50 0.612
569.60 0.6115
569.70 0.6111
569.80 0.6107
569.90 0.6103
570.00 0.6099
570.10 0.6095
570.20 0.6091
570.30 0.6086
570.40 0.6082
570.50 0.6078
570.60 0.6074
570.70 0.607
570.80 0.6066
570.90 0.6062
571.00 0.6058
571.10 0.6054
571.20 0.6049
571.30 0.6045
571.40 0.6041
571.50 0.6037
571.60 0.6033
571.70 0.6029
571.80 0.6025
571.90 0.6021
572.00 0.6017
572.10 0.6013
572.20 0.6009
572.30 0.6005
572.40 0.6001
572.50 0.5997
572.60 0.5993
572.70 0.5988
572.80 0.5984
572.90 0.598
573.00 0.5976
573.10 0.5972
573.20 0.5968
573.30 0.5964
573.40 0.596
573.50 0.5956
573.60 0.5952
573.70 0.5948
573.80 0.5944
573.90 0.594
574.00 0.5936
574.10 0.5932
574.20 0.5928
574.30 0.5924
574.40 0.592
574.50 0.5916
574.60 0.5912
574.70 0.5908
574.80 0.5904
574.90 0.59
575.00 0.5896
575.10 0.5892
575.20 0.5888
575.30 0.5884
575.40 0.5881
575.50 0.5877
575.60 0.5873
575.70 0.5869
575.80 0.5865
575.90 0.5861
576.00 0.5857
576.10 0.5853
576.20 0.5849
576.30 0.5845
576.40 0.5841
576.50 0.5837
576.60 0.5833
576.70 0.5829
576.80 0.5825
576.90 0.5822
577.00 0.5818
577.10 0.5814
577.20 0.581
577.30 0.5806
577.40 0.5802
577.50 0.5798
577.60 0.5794
577.70 0.579
577.80 0.5787
577.90 0.5783
578.00 0.5779
578.10 0.5775
578.20 0.5771
578.30 0.5767
578.40 0.5763
578.50 0.576
578.60 0.5756
578.70 0.5752
578.80 0.5748
578.90 0.5744
579.00 0.574
579.10 0.5736
579.20 0.5733
579.30 0.5729
579.40 0.5725
579.50 0.5721
579.60 0.5717
579.70 0.5714
579.80 0.571
579.90 0.5706
580.00 0.5702
580.10 0.5698
580.20 0.5695
580.30 0.5691
580.40 0.5687
580.50 0.5683
580.60 0.5679
580.70 0.5676
580.80 0.5672
580.90 0.5668
581.00 0.5664
581.10 0.566
581.20 0.5657
581.30 0.5653
581.40 0.5649
581.50 0.5645
581.60 0.5642
581.70 0.5638
581.80 0.5634
581.90 0.563
582.00 0.5627
582.10 0.5623
582.20 0.5619
582.30 0.5615
582.40 0.5612
582.50 0.5608
582.60 0.5604
582.70 0.5601
582.80 0.5597
582.90 0.5593
583.00 0.5589
583.10 0.5586
583.20 0.5582
583.30 0.5578
583.40 0.5575
583.50 0.5571
583.60 0.5567
583.70 0.5564
583.80 0.556
583.90 0.5556
584.00 0.5552
584.10 0.5549
584.20 0.5545
584.30 0.5541
584.40 0.5538
584.50 0.5534
584.60 0.553
584.70 0.5527
584.80 0.5523
584.90 0.5519
585.00 0.5516
585.10 0.5512
585.20 0.5508
585.30 0.5505
585.40 0.5501
585.50 0.5498
585.60 0.5494
585.70 0.549
585.80 0.5487
585.90 0.5483
586.00 0.5479
586.10 0.5476
586.20 0.5472
586.30 0.5469
586.40 0.5465
586.50 0.5461
586.60 0.5458
586.70 0.5454
586.80 0.5451
586.90 0.5447
587.00 0.5443
587.10 0.544
587.20 0.5436
587.30 0.5433
587.40 0.5429
587.50 0.5425
587.60 0.5422
587.70 0.5418
587.80 0.5415
587.90 0.5411
588.00 0.5408
588.10 0.5404
588.20 0.54
588.30 0.5397
588.40 0.5393
588.50 0.539
588.60 0.5386
588.70 0.5383
588.80 0.5379
588.90 0.5376
589.00 0.5372
589.10 0.5369
589.20 0.5365
589.30 0.5362
589.40 0.5358
589.50 0.5355
589.60 0.5351
589.70 0.5347
589.80 0.5344
589.90 0.534
590.00 0.5337
590.10 0.5333
590.20 0.533
590.30 0.5326
590.40 0.5323
590.50 0.5319
590.60 0.5316
590.70 0.5312
590.80 0.5309
590.90 0.5306
591.00 0.5302
591.10 0.5299
591.20 0.5295
591.30 0.5292
591.40 0.5288
591.50 0.5285
591.60 0.5281
591.70 0.5278
591.80 0.5274
591.90 0.5271
592.00 0.5267
592.10 0.5264
592.20 0.5261
592.30 0.5257
592.40 0.5254
592.50 0.525
592.60 0.5247
592.70 0.5243
592.80 0.524
592.90 0.5237
593.00 0.5233
593.10 0.523
593.20 0.5226
593.30 0.5223
593.40 0.5219
593.50 0.5216
593.60 0.5213
593.70 0.5209
593.80 0.5206
593.90 0.5202
594.00 0.5199
594.10 0.5196
594.20 0.5192
594.30 0.5189
594.40 0.5185
594.50 0.5182
594.60 0.5179
594.70 0.5175
594.80 0.5172
594.90 0.5169
595.00 0.5165
595.10 0.5162
595.20 0.5158
595.30 0.5155
595.40 0.5152
595.50 0.5148
595.60 0.5145
595.70 0.5142
595.80 0.5138
595.90 0.5135
596.00 0.5132
596.10 0.5128
596.20 0.5125
596.30 0.5122
596.40 0.5118
596.50 0.5115
596.60 0.5112
596.70 0.5108
596.80 0.5105
596.90 0.5102
597.00 0.5098
597.10 0.5095
597.20 0.5092
597.30 0.5089
597.40 0.5085
597.50 0.5082
597.60 0.5079
597.70 0.5075
597.80 0.5072
597.90 0.5069
598.00 0.5065
598.10 0.5062
598.20 0.5059
598.30 0.5056
598.40 0.5052
598.50 0.5049
598.60 0.5046
598.70 0.5043
598.80 0.5039
598.90 0.5036
599.00 0.5033
599.10 0.5029
599.20 0.5026
599.30 0.5023
599.40 0.502
599.50 0.5016
599.60 0.5013
599.70 0.501
599.80 0.5007
599.90 0.5003
600.00 0.5
600.10 0.4997
600.20 0.4994
600.30 0.4991
600.40 0.4987
600.50 0.4984
600.60 0.4981
600.70 0.4978
600.80 0.4974
600.90 0.4971
601.00 0.4968
601.10 0.4965
601.20 0.4962
601.30 0.4958
601.40 0.4955
601.50 0.4952
601.60 0.4949
601.70 0.4946
601.80 0.4942
601.90 0.4939
602.00 0.4936
602.10 0.4933
602.20 0.493
602.30 0.4927
602.40 0.4923
602.50 0.492
602.60 0.4917
602.70 0.4914
602.80 0.4911
602.90 0.4908
603.00 0.4904
603.10 0.4901
603.20 0.4898
603.30 0.4895
603.40 0.4892
603.50 0.4889
603.60 0.4885
603.70 0.4882
603.80 0.4879
603.90 0.4876
604.00 0.4873
604.10 0.487
604.20 0.4867
604.30 0.4864
604.40 0.486
604.50 0.4857
604.60 0.4854
604.70 0.4851
604.80 0.4848
604.90 0.4845
605.00 0.4842
605.10 0.4839
605.20 0.4835
605.30 0.4832
605.40 0.4829
605.50 0.4826
605.60 0.4823
605.70 0.482
605.80 0.4817
605.90 0.4814
606.00 0.4811
606.10 0.4808
606.20 0.4805
606.30 0.4801
606.40 0.4798
606.50 0.4795
606.60 0.4792
606.70 0.4789
606.80 0.4786
606.90 0.4783
607.00 0.478
607.10 0.4777
607.20 0.4774
607.30 0.4771
607.40 0.4768
607.50 0.4765
607.60 0.4762
607.70 0.4759
607.80 0.4756
607.90 0.4753
608.00 0.4749
608.10 0.4746
608.20 0.4743
608.30 0.474
608.40 0.4737
608.50 0.4734
608.60 0.4731
608.70 0.4728
608.80 0.4725
608.90 0.4722
609.00 0.4719
609.10 0.4716
609.20 0.4713
609.30 0.471
609.40 0.4707
609.50 0.4704
609.60 0.4701
609.70 0.4698
609.80 0.4695
609.90 0.4692
610.00 0.4689
610.10 0.4686
610.20 0.4683
610.30 0.468
610.40 0.4677
610.50 0.4674
610.60 0.4671
610.70 0.4668
610.80 0.4665
610.90 0.4662
611.00 0.4659
611.10 0.4656
611.20 0.4653
611.30 0.465
611.40 0.4647
611.50 0.4645
611.60 0.4642
611.70 0.4639
611.80 0.4636
611.90 0.4633
612.00 0.463
612.10 0.4627
612.20 0.4624
612.30 0.4621
612.40 0.4618
612.50 0.4615
612.60 0.4612
612.70 0.4609
612.80 0.4606
612.90 0.4603
613.00 0.46
613.10 0.4597
613.20 0.4595
613.30 0.4592
613.40 0.4589
613.50 0.4586
613.60 0.4583
613.70 0.458
613.80 0.4577
613.90 0.4574
614.00 0.4571
614.10 0.4568
614.20 0.4565
614.30 0.4563
614.40 0.456
614.50 0.4557
614.60 0.4554
614.70 0.4551
614.80 0.4548
614.90 0.4545
615.00 0.4542
615.10 0.4539
615.20 0.4537
615.30 0.4534
615.40 0.4531
615.50 0.4528
615.60 0.4525
615.70 0.4522
615.80 0.4519
615.90 0.4516
616.00 0.4514
616.10 0.4511
616.20 0.4508
616.30 0.4505
616.40 0.4502
616.50 0.4499
616.60 0.4496
616.70 0.4494
616.80 0.4491
616.90 0.4488
617.00 0.4485
617.10 0.4482
617.20 0.4479
617.30 0.4477
617.40 0.4474
617.50 0.4471
617.60 0.4468
617.70 0.4465
617.80 0.4462
617.90 0.446
618.00 0.4457
618.10 0.4454
618.20 0.4451
618.30 0.4448
618.40 0.4445
618.50 0.4443
618.60 0.444
618.70 0.4437
618.80 0.4434
618.90 0.4431
619.00 0.4429
619.10 0.4426
619.20 0.4423
619.30 0.442
619.40 0.4417
619.50 0.4415
619.60 0.4412
619.70 0.4409
619.80 0.4406
619.90 0.4403
620.00 0.4401
620.10 0.4398
620.20 0.4395
620.30 0.4392
620.40 0.439
620.50 0.4387
620.60 0.4384
620.70 0.4381
620.80 0.4378
620.90 0.4376
621.00 0.4373
621.10 0.437
621.20 0.4367
621.30 0.4365
621.40 0.4362
621.50 0.4359
621.60 0.4356
621.70 0.4354
621.80 0.4351
621.90 0.4348
622.00 0.4345
622.10 0.4343
622.20 0.434
622.30 0.4337
622.40 0.4334
622.50 0.4332
622.60 0.4329
622.70 0.4326
622.80 0.4324
622.90 0.4321
623.00 0.4318
623.10 0.4315
623.20 0.4313
623.30 0.431
623.40 0.4307
623.50 0.4304
623.60 0.4302
623.70 0.4299
623.80 0.4296
623.90 0.4294
624.00 0.4291
624.10 0.4288
624.20 0.4285
624.30 0.4283
624.40 0.428
624.50 0.4277
624.60 0.4275
624.70 0.4272
624.80 0.4269
624.90 0.4267
625.00 0.4264
625.10 0.4261
625.20 0.4258
625.30 0.4256
625.40 0.4253
625.50 0.425
625.60 0.4248
625.70 0.4245
625.80 0.4242
625.90 0.424
626.00 0.4237
626.10 0.4234
626.20 0.4232
626.30 0.4229
626.40 0.4226
626.50 0.4224
626.60 0.4221
626.70 0.4218
626.80 0.4216
626.90 0.4213
627.00 0.421
627.10 0.4208
627.20 0.4205
627.30 0.4202
627.40 0.42
627.50 0.4197
627.60 0.4194
627.70 0.4192
627.80 0.4189
627.90 0.4186
628.00 0.4184
628.10 0.4181
628.20 0.4178
628.30 0.4176
628.40 0.4173
628.50 0.417
628.60 0.4168
628.70 0.4165
628.80 0.4162
628.90 0.416
629.00 0.4157
629.10 0.4155
629.20 0.4152
629.30 0.4149
629.40 0.4147
629.50 0.4144
629.60 0.4141
629.70 0.4139
629.80 0.4136
629.90 0.4134
630.00 0.4131
630.10 0.4128
630.20 0.4126
630.30 0.4123
630.40 0.412
630.50 0.4118
630.60 0.4115
630.70 0.4113
630.80 0.411
630.90 0.4107
631.00 0.4105
631.10 0.4102
631.20 0.4099
631.30 0.4097
631.40 0.4094
631.50 0.4092
631.60 0.4089
631.70 0.4086
631.80 0.4084
631.90 0.4081
632.00 0.4079
632.10 0.4076
632.20 0.4073
632.30 0.4071
632.40 0.4068
632.50 0.4065
632.60 0.4063
632.70 0.406
632.80 0.4058
632.90 0.4055
633.00 0.4052
633.10 0.405
633.20 0.4047
633.30 0.4045
633.40 0.4042
633.50 0.4039
633.60 0.4037
633.70 0.4034
633.80 0.4032
633.90 0.4029
634.00 0.4026
634.10 0.4024
634.20 0.4021
634.30 0.4019
634.40 0.4016
634.50 0.4013
634.60 0.4011
634.70 0.4008
634.80 0.4006
634.90 0.4003
635.00 0.4
635.10 0.3998
635.20 0.3995
635.30 0.3993
635.40 0.399
635.50 0.3987
635.60 0.3985
635.70 0.3982
635.80 0.398
635.90 0.3977
636.00 0.3974
636.10 0.3972
636.20 0.3969
636.30 0.3967
636.40 0.3964
636.50 0.3961
636.60 0.3959
636.70 0.3956
636.80 0.3953
636.90 0.3951
637.00 0.3948
637.10 0.3946
637.20 0.3943
637.30 0.394
637.40 0.3938
637.50 0.3935
637.60 0.3933
637.70 0.393
637.80 0.3927
637.90 0.3925
638.00 0.3922
638.10 0.3919
638.20 0.3917
638.30 0.3914
638.40 0.3912
638.50 0.3909
638.60 0.3906
638.70 0.3904
638.80 0.3901
638.90 0.3898
639.00 0.3896
639.10 0.3893
639.20 0.389
639.30 0.3888
639.40 0.3885
639.50 0.3882
639.60 0.388
639.70 0.3877
639.80 0.3874
639.90 0.3872
640.00 0.3869
640.10 0.3866
640.20 0.3864
640.30 0.3861
640.40 0.3858
640.50 0.3856
640.60 0.3853
640.70 0.385
640.80 0.3848
640.90 0.3845
641.00 0.3842
641.10 0.3839
641.20 0.3837
641.30 0.3834
641.40 0.3831
641.50 0.3828
641.60 0.3826
641.70 0.3823
641.80 0.382
641.90 0.3817
642.00 0.3815
642.10 0.3812
642.20 0.3809
642.30 0.3806
642.40 0.3804
642.50 0.3801
642.60 0.3798
642.70 0.3795
642.80 0.3792
642.90 0.3789
643.00 0.3787
643.10 0.3784
643.20 0.3781
643.30 0.3778
643.40 0.3775
643.50 0.3772
643.60 0.3769
643.70 0.3766
643.80 0.3763
643.90 0.3761
644.00 0.3758
644.10 0.3755
644.20 0.3752
644.30 0.3749
644.40 0.3746
644.50 0.3743
644.60 0.374
644.70 0.3737
644.80 0.3734
644.90 0.3731
645.00 0.3728
645.10 0.3725
645.20 0.3721
645.30 0.3718
645.40 0.3715
645.50 0.3712
645.60 0.3709
645.70 0.3706
645.80 0.3702
645.90 0.3699
646.00 0.3696
646.10 0.3693
646.20 0.369
646.30 0.3686
646.40 0.3683
646.50 0.368
646.60 0.3676
646.70 0.3673
646.80 0.367
646.90 0.3666
647.00 0.3663
647.10 0.3659
647.20 0.3656
647.30 0.3653
647.40 0.3649
647.50 0.3645
647.60 0.3642
647.70 0.3638
647.80 0.3634
647.90 0.3631
648.00 0.3627
648.10 0.3623
648.20 0.362
648.30 0.3616
648.40 0.3612
648.50 0.3608
648.60 0.3604
648.70 0.36
648.80 0.3596
648.90 0.3592
649.00 0.3588
649.10 0.3584
649.20 0.358
649.30 0.3576
649.40 0.3572
649.50 0.3567
649.60 0.3563
649.70 0.3559
649.80 0.3554
649.90 0.355
650.00 0.3545
650.10 0.3541
650.20 0.3537
650.30 0.3532
650.40 0.3527
650.50 0.3522
650.60 0.3517
650.70 0.3512
650.80 0.3507
650.90 0.3503
651.00 0.3498
651.10 0.3493
651.20 0.3488
651.30 0.3483
651.40 0.3477
651.50 0.3472
651.60 0.3466
651.70 0.3461
651.80 0.3455
651.90 0.345
652.00 0.3444
652.10 0.3438
652.20 0.3433
652.30 0.3427
652.40 0.3421
652.50 0.3415
652.60 0.3408
652.70 0.3402
652.80 0.3396
652.90 0.339
653.00 0.3383
653.10 0.3377
653.20 0.3371
653.30 0.3365
653.40 0.3358
653.50 0.3351
653.60 0.3344
653.70 0.3337
653.80 0.333
653.90 0.3323
654.00 0.3316
654.10 0.3309
654.20 0.3302
654.30 0.3295
654.40 0.3287
654.50 0.328
654.60 0.3272
654.70 0.3265
654.80 0.3258
654.90 0.325
655.00 0.3243
655.10 0.3235
655.20 0.3228
655.30 0.3221
655.40 0.3214
655.50 0.3207
655.60 0.3201
655.70 0.3195
655.80 0.3192
655.90 0.3191
656.00 0.32
656.10 0.3212
656.20 0.3287
656.30 0.3388
656.40 0.3241
656.50 0.3197
656.60 0.3185
656.70 0.3175
656.80 0.3175
656.90 0.3175
657.00 0.3177
657.10 0.318
657.20 0.3183
657.30 0.3186
657.40 0.319
657.50 0.3194
657.60 0.3197
657.70 0.3201
657.80 0.3205
657.90 0.3208
658.00 0.3212
658.10 0.3216
658.20 0.3219
658.30 0.3223
658.40 0.3226
658.50 0.3229
658.60 0.3232
658.70 0.3235
658.80 0.3238
658.90 0.3241
659.00 0.3244
659.10 0.3247
659.20 0.325
659.30 0.3253
659.40 0.3256
659.50 0.3258
659.60 0.326
659.70 0.3262
659.80 0.3265
659.90 0.3267
660.00 0.3269
660.10 0.3271
660.20 0.3274
660.30 0.3276
660.40 0.3277
660.50 0.3279
660.60 0.328
660.70 0.3282
660.80 0.3283
660.90 0.3284
661.00 0.3286
661.10 0.3287
661.20 0.3289
661.30 0.329
661.40 0.3291
661.50 0.3292
661.60 0.3292
661.70 0.3293
661.80 0.3294
661.90 0.3295
662.00 0.3296
662.10 0.3296
662.20 0.3297
662.30 0.3298
662.40 0.3298
662.50 0.3298
662.60 0.3298
662.70 0.3298
662.80 0.3299
662.90 0.3299
663.00 0.3299
663.10 0.3299
663.20 0.3299
663.30 0.33
663.40 0.3299
663.50 0.3299
663.60 0.3299
663.70 0.3299
663.80 0.3298
663.90 0.3298
664.00 0.3298
664.10 0.3298
664.20 0.3297
664.30 0.3297
664.40 0.3296
664.50 0.3296
664.60 0.3295
664.70 0.3295
664.80 0.3294
664.90 0.3293
665.00 0.3293
665.10 0.3292
665.20 0.3292
665.30 0.3291
665.40 0.329
665.50 0.3289
665.60 0.3288
665.70 0.3287
665.80 0.3287
665.90 0.3286
666.00 0.3285
666.10 0.3284
666.20 0.3283
666.30 0.3282
666.40 0.3281
666.50 0.328
666.60 0.3279
666.70 0.3278
666.80 0.3277
666.90 0.3276
667.00 0.3275
667.10 0.3274
667.20 0.3273
667.30 0.3271
667.40 0.327
667.50 0.3269
667.60 0.3268
667.70 0.3267
667.80 0.3265
667.90 0.3264
668.00 0.3263
668.10 0.3262
668.20 0.326
668.30 0.3259
668.40 0.3258
668.50 0.3256
668.60 0.3255
668.70 0.3254
668.80 0.3252
668.90 0.3251
669.00 0.325
669.10 0.3248
669.20 0.3247
669.30 0.3246
669.40 0.3244
669.50 0.3243
669.60 0.3241
669.70 0.324
669.80 0.3238
669.90 0.3237
670.00 0.3235
670.10 0.3234
670.20 0.3233
670.30 0.3231
670.40 0.323
670.50 0.3228
670.60 0.3227
670.70 0.3225
670.80 0.3224
670.90 0.3222
671.00 0.3221
671.10 0.3219
671.20 0.3218
671.30 0.3216
671.40 0.3214
671.50 0.3213
671.60 0.3211
671.70 0.321
671.80 0.3208
671.90 0.3207
672.00 0.3205
672.10 0.3203
672.20 0.3202
672.30 0.32
672.40 0.3199
672.50 0.3197
672.60 0.3196
672.70 0.3194
672.80 0.3192
672.90 0.3191
673.00 0.3189
673.10 0.3188
673.20 0.3186
673.30 0.3184
673.40 0.3183
673.50 0.3181
673.60 0.3179
673.70 0.3178
673.80 0.3176
673.90 0.3175
674.00 0.3173
674.10 0.3171
674.20 0.317
674.30 0.3168
674.40 0.3166
674.50 0.3165
674.60 0.3163
674.70 0.3161
674.80 0.316
674.90 0.3158
675.00 0.3157
675.10 0.3155
675.20 0.3153
675.30 0.3152
675.40 0.315
675.50 0.3148
675.60 0.3147
675.70 0.3145
675.80 0.3143
675.90 0.3142
676.00 0.314
676.10 0.3138
676.20 0.3137
676.30 0.3135
676.40 0.3133
676.50 0.3132
676.60 0.313
676.70 0.3128
676.80 0.3127
676.90 0.3125
677.00 0.3123
677.10 0.3122
677.20 0.312
677.30 0.3118
677.40 0.3117
677.50 0.3115
677.60 0.3113
677.70 0.3111
677.80 0.311
677.90 0.3108
678.00 0.3106
678.10 0.3105
678.20 0.3103
678.30 0.3101
678.40 0.31
678.50 0.3098
678.60 0.3096
678.70 0.3095
678.80 0.3093
678.90 0.3091
679.00 0.309
679.10 0.3088
679.20 0.3086
679.30 0.3085
679.40 0.3083
679.50 0.3081
679.60 0.308
679.70 0.3078
679.80 0.3076
679.90 0.3075
680.00 0.3073
680.10 0.3071
680.20 0.307
680.30 0.3068
680.40 0.3066
680.50 0.3064
680.60 0.3063
680.70 0.3061
680.80 0.3059
680.90 0.3058
681.00 0.3056
681.10 0.3054
681.20 0.3053
681.30 0.3051
681.40 0.3049
681.50 0.3048
681.60 0.3046
681.70 0.3044
681.80 0.3043
681.90 0.3041
682.00 0.3039
682.10 0.3038
682.20 0.3036
682.30 0.3034
682.40 0.3033
682.50 0.3031
682.60 0.3029
682.70 0.3028
682.80 0.3026
682.90 0.3024
683.00 0.3023
683.10 0.3021
683.20 0.3019
683.30 0.3018
683.40 0.3016
683.50 0.3014
683.60 0.3013
683.70 0.3011
683.80 0.3009
683.90 0.3008
684.00 0.3006
684.10 0.3004
684.20 0.3003
684.30 0.3001
684.40 0.2999
684.50 0.2998
684.60 0.2996
684.70 0.2994
684.80 0.2993
684.90 0.2991
685.00 0.2989
685.10 0.2988
685.20 0.2986
685.30 0.2984
685.40 0.2983
685.50 0.2981
685.60 0.2979
685.70 0.2978
685.80 0.2976
685.90 0.2974
686.00 0.2973
686.10 0.2971
686.20 0.297
686.30 0.2968
686.40 0.2966
686.50 0.2965
686.60 0.2963
686.70 0.2961
686.80 0.296
686.90 0.2958
687.00 0.2956
687.10 0.2955
687.20 0.2953
687.30 0.2951
687.40 0.295
687.50 0.2948
687.60 0.2947
687.70 0.2945
687.80 0.2943
687.90 0.2942
688.00 0.294
688.10 0.2938
688.20 0.2937
688.30 0.2935
688.40 0.2933
688.50 0.2932
688.60 0.293
688.70 0.2929
688.80 0.2927
688.90 0.2925
689.00 0.2924
689.10 0.2922
689.20 0.292
689.30 0.2919
689.40 0.2917
689.50 0.2916
689.60 0.2914
689.70 0.2912
689.80 0.2911
689.90 0.2909
690.00 0.2908
690.10 0.2906
690.20 0.2904
690.30 0.2903
690.40 0.2901
690.50 0.29
690.60 0.2898
690.70 0.2896
690.80 0.2895
690.90 0.2893
691.00 0.2891
691.10 0.289
691.20 0.2888
691.30 0.2887
691.40 0.2885
691.50 0.2883
691.60 0.2882
691.70 0.288
691.80 0.2879
691.90 0.2877
692.00 0.2875
692.10 0.2874
692.20 0.2872
692.30 0.2871
692.40 0.2869
692.50 0.2868
692.60 0.2866
692.70 0.2864
692.80 0.2863
692.90 0.2861
693.00 0.286
693.10 0.2858
693.20 0.2856
693.30 0.2855
693.40 0.2853
693.50 0.2852
693.60 0.285
693.70 0.2848
693.80 0.2847
693.90 0.2845
694.00 0.2844
694.10 0.2842
694.20 0.2841
694.30 0.2839
694.40 0.2837
694.50 0.2836
694.60 0.2834
694.70 0.2833
694.80 0.2831
694.90 0.283
695.00 0.2828
695.10 0.2826
695.20 0.2825
695.30 0.2823
695.40 0.2822
695.50 0.282
695.60 0.2819
695.70 0.2817
695.80 0.2815
695.90 0.2814
696.00 0.2812
696.10 0.2811
696.20 0.2809
696.30 0.2808
696.40 0.2806
696.50 0.2805
696.60 0.2803
696.70 0.2802
696.80 0.28
696.90 0.2798
697.00 0.2797
697.10 0.2795
697.20 0.2794
697.30 0.2792
697.40 0.2791
697.50 0.2789
697.60 0.2788
697.70 0.2786
697.80 0.2785
697.90 0.2783
698.00 0.2781
698.10 0.278
698.20 0.2778
698.30 0.2777
698.40 0.2775
698.50 0.2774
698.60 0.2772
698.70 0.2771
698.80 0.2769
698.90 0.2768
699.00 0.2766
699.10 0.2765
699.20 0.2763
699.30 0.2761
699.40 0.276
699.50 0.2758
699.60 0.2757
699.70 0.2755
699.80 0.2754
699.90 0.2752
700.00 0.2751
700.10 0.2749
700.20 0.2748
700.30 0.2746
700.40 0.2745
700.50 0.2743
700.60 0.2742
700.70 0.274
700.80 0.2739
700.90 0.2737
701.00 0.2736
701.10 0.2734
701.20 0.2733
701.30 0.2731
701.40 0.273
701.50 0.2728
701.60 0.2727
701.70 0.2725
701.80 0.2724
701.90 0.2722
702.00 0.2721
702.10 0.2719
702.20 0.2718
702.30 0.2716
702.40 0.2715
702.50 0.2713
702.60 0.2712
702.70 0.271
702.80 0.2709
702.90 0.2707
703.00 0.2706
703.10 0.2704
703.20 0.2703
703.30 0.2701
703.40 0.27
703.50 0.2698
703.60 0.2697
703.70 0.2695
703.80 0.2694
703.90 0.2692
704.00 0.2691
704.10 0.2689
704.20 0.2688
704.30 0.2686
704.40 0.2685
704.50 0.2683
704.60 0.2682
704.70 0.2681
704.80 0.2679
704.90 0.2678
705.00 0.2676
705.10 0.2675
705.20 0.2673
705.30 0.2672
705.40 0.267
705.50 0.2669
705.60 0.2667
705.70 0.2666
705.80 0.2664
705.90 0.2663
706.00 0.2662
706.10 0.266
706.20 0.2659
706.30 0.2657
706.40 0.2656
706.50 0.2654
706.60 0.2653
706.70 0.2651
706.80 0.265
706.90 0.2648
707.00 0.2647
707.10 0.2646
707.20 0.2644
707.30 0.2643
707.40 0.2641
707.50 0.264
707.60 0.2638
707.70 0.2637
707.80 0.2635
707.90 0.2634
708.00 0.2633
708.10 0.2631
708.20 0.263
708.30 0.2628
708.40 0.2627
708.50 0.2625
708.60 0.2624
708.70 0.2622
708.80 0.2621
708.90 0.262
709.00 0.2618
709.10 0.2617
709.20 0.2615
709.30 0.2614
709.40 0.2612
709.50 0.2611
709.60 0.261
709.70 0.2608
709.80 0.2607
709.90 0.2605
710.00 0.2604
710.10 0.2602
710.20 0.2601
710.30 0.26
710.40 0.2598
710.50 0.2597
710.60 0.2595
710.70 0.2594
710.80 0.2593
710.90 0.2591
711.00 0.259
711.10 0.2588
711.20 0.2587
711.30 0.2586
711.40 0.2584
711.50 0.2583
711.60 0.2581
711.70 0.258
711.80 0.2578
711.90 0.2577
712.00 0.2576
712.10 0.2574
712.20 0.2573
712.30 0.2571
712.40 0.257
712.50 0.2569
712.60 0.2567
712.70 0.2566
712.80 0.2564
712.90 0.2563
713.00 0.2562
713.10 0.256
713.20 0.2559
713.30 0.2558
713.40 0.2556
713.50 0.2555
713.60 0.2553
713.70 0.2552
713.80 0.2551
713.90 0.2549
714.00 0.2548
714.10 0.2546
714.20 0.2545
714.30 0.2544
714.40 0.2542
714.50 0.2541
714.60 0.2539
714.70 0.2538
714.80 0.2537
714.90 0.2535
715.00 0.2534
715.10 0.2533
715.20 0.2531
715.30 0.253
715.40 0.2528
715.50 0.2527
715.60 0.2526
715.70 0.2524
715.80 0.2523
715.90 0.2522
716.00 0.252
716.10 0.2519
716.20 0.2518
716.30 0.2516
716.40 0.2515
716.50 0.2514
716.60 0.2512
716.70 0.2511
716.80 0.2509
716.90 0.2508
717.00 0.2507
717.10 0.2505
717.20 0.2504
717.30 0.2503
717.40 0.2501
717.50 0.25
717.60 0.2499
717.70 0.2497
717.80 0.2496
717.90 0.2495
718.00 0.2493
718.10 0.2492
718.20 0.249
718.30 0.2489
718.40 0.2488
718.50 0.2486
718.60 0.2485
718.70 0.2484
718.80 0.2482
718.90 0.2481
719.00 0.248
719.10 0.2478
719.20 0.2477
719.30 0.2476
719.40 0.2474
719.50 0.2473
719.60 0.2472
719.70 0.247
719.80 0.2469
719.90 0.2468
720.00 0.2466
720.10 0.2465
720.20 0.2464
720.30 0.2462
720.40 0.2461
720.50 0.246
720.60 0.2458
720.70 0.2457
720.80 0.2456
720.90 0.2454
721.00 0.2453
721.10 0.2452
721.20 0.2451
721.30 0.2449
721.40 0.2448
721.50 0.2447
721.60 0.2445
721.70 0.2444
721.80 0.2443
721.90 0.2441
722.00 0.244
722.10 0.2439
722.20 0.2437
722.30 0.2436
722.40 0.2435
722.50 0.2433
722.60 0.2432
722.70 0.2431
722.80 0.243
722.90 0.2428
723.00 0.2427
723.10 0.2426
723.20 0.2424
723.30 0.2423
723.40 0.2422
723.50 0.242
723.60 0.2419
723.70 0.2418
723.80 0.2417
723.90 0.2415
724.00 0.2414
724.10 0.2413
724.20 0.2411
724.30 0.241
724.40 0.2409
724.50 0.2407
724.60 0.2406
724.70 0.2405
724.80 0.2404
724.90 0.2402
725.00 0.2401
725.10 0.24
725.20 0.2398
725.30 0.2397
725.40 0.2396
725.50 0.2395
725.60 0.2393
725.70 0.2392
725.80 0.2391
725.90 0.2389
726.00 0.2388
726.10 0.2387
726.20 0.2386
726.30 0.2384
726.40 0.2383
726.50 0.2382
726.60 0.2381
726.70 0.2379
726.80 0.2378
726.90 0.2377
727.00 0.2375
727.10 0.2374
727.20 0.2373
727.30 0.2372
727.40 0.237
727.50 0.2369
727.60 0.2368
727.70 0.2367
727.80 0.2365
727.90 0.2364
728.00 0.2363
728.10 0.2362
728.20 0.236
728.30 0.2359
728.40 0.2358
728.50 0.2357
728.60 0.2355
728.70 0.2354
728.80 0.2353
728.90 0.2352
729.00 0.235
729.10 0.2349
729.20 0.2348
729.30 0.2346
729.40 0.2345
729.50 0.2344
729.60 0.2343
729.70 0.2341
729.80 0.234
729.90 0.2339
730.00 0.2338
730.10 0.2336
730.20 0.2335
730.30 0.2334
730.40 0.2333
730.50 0.2332
730.60 0.233
730.70 0.2329
730.80 0.2328
730.90 0.2327
731.00 0.2325
731.10 0.2324
731.20 0.2323
731.30 0.2322
731.40 0.2321
731.50 0.2319
731.60 0.2318
731.70 0.2317
731.80 0.2316
731.90 0.2314
732.00 0.2313
732.10 0.2312
732.20 0.2311
732.30 0.231
732.40 0.2308
732.50 0.2307
732.60 0.2306
732.70 0.2305
732.80 0.2303
732.90 0.2302
733.00 0.2301
733.10 0.23
733.20 0.2299
733.30 0.2297
733.40 0.2296
733.50 0.2295
733.60 0.2294
733.70 0.2293
733.80 0.2291
733.90 0.229
734.00 0.2289
734.10 0.2288
734.20 0.2286
734.30 0.2285
734.40 0.2284
734.50 0.2283
734.60 0.2282
734.70 0.228
734.80 0.2279
734.90 0.2278
735.00 0.2277
735.10 0.2276
735.20 0.2274
735.30 0.2273
735.40 0.2272
735.50 0.2271
735.60 0.227
735.70 0.2268
735.80 0.2267
735.90 0.2266
736.00 0.2265
736.10 0.2264
736.20 0.2262
736.30 0.2261
736.40 0.226
736.50 0.2259
736.60 0.2258
736.70 0.2256
736.80 0.2255
736.90 0.2254
737.00 0.2253
737.10 0.2252
737.20 0.225
737.30 0.2249
737.40 0.2248
737.50 0.2247
737.60 0.2246
737.70 0.2245
737.80 0.2243
737.90 0.2242
738.00 0.2241
738.10 0.224
738.20 0.2239
738.30 0.2237
738.40 0.2236
738.50 0.2235
738.60 0.2234
738.70 0.2233
738.80 0.2231
738.90 0.223
739.00 0.2229
739.10 0.2228
739.20 0.2227
739.30 0.2226
739.40 0.2224
739.50 0.2223
739.60 0.2222
739.70 0.2221
739.80 0.222
739.90 0.2218
740.00 0.2217
740.10 0.2216
740.20 0.2215
740.30 0.2214
740.40 0.2213
740.50 0.2212
740.60 0.221
740.70 0.2209
740.80 0.2208
740.90 0.2207
741.00 0.2206
741.10 0.2205
741.20 0.2204
741.30 0.2202
741.40 0.2201
741.50 0.22
741.60 0.2199
741.70 0.2198
741.80 0.2197
741.90 0.2195
742.00 0.2194
742.10 0.2193
742.20 0.2192
742.30 0.2191
742.40 0.219
742.50 0.2189
742.60 0.2187
742.70 0.2186
742.80 0.2185
742.90 0.2184
743.00 0.2183
743.10 0.2182
743.20 0.2181
743.30 0.218
743.40 0.2178
743.50 0.2177
743.60 0.2176
743.70 0.2175
743.80 0.2174
743.90 0.2173
744.00 0.2172
744.10 0.217
744.20 0.2169
744.30 0.2168
744.40 0.2167
744.50 0.2166
744.60 0.2165
744.70 0.2164
744.80 0.2163
744.90 0.2161
745.00 0.216
745.10 0.2159
745.20 0.2158
745.30 0.2157
745.40 0.2156
745.50 0.2155
745.60 0.2154
745.70 0.2152
745.80 0.2151
745.90 0.215
746.00 0.2149
746.10 0.2148
746.20 0.2147
746.30 0.2146
746.40 0.2145
746.50 0.2143
746.60 0.2142
746.70 0.2141
746.80 0.214
746.90 0.2139
747.00 0.2138
747.10 0.2137
747.20 0.2136
747.30 0.2134
747.40 0.2133
747.50 0.2132
747.60 0.2131
747.70 0.213
747.80 0.2129
747.90 0.2128
748.00 0.2127
748.10 0.2126
748.20 0.2124
748.30 0.2123
748.40 0.2122
748.50 0.2121
748.60 0.212
748.70 0.2119
748.80 0.2118
748.90 0.2117
749.00 0.2116
749.10 0.2115
749.20 0.2113
749.30 0.2112
749.40 0.2111
749.50 0.211
749.60 0.2109
749.70 0.2108
749.80 0.2107
749.90 0.2106
750.00 0.2105
750.10 0.2103
750.20 0.2102
750.30 0.2101
750.40 0.21
750.50 0.2099
750.60 0.2098
750.70 0.2097
750.80 0.2096
750.90 0.2095
751.00 0.2094
751.10 0.2093
751.20 0.2092
751.30 0.2091
751.40 0.2089
751.50 0.2088
751.60 0.2087
751.70 0.2086
751.80 0.2085
751.90 0.2084
752.00 0.2083
752.10 0.2082
752.20 0.2081
752.30 0.208
752.40 0.2079
752.50 0.2078
752.60 0.2077
752.70 0.2076
752.80 0.2074
752.90 0.2073
753.00 0.2072
753.10 0.2071
753.20 0.207
753.30 0.2069
753.40 0.2068
753.50 0.2067
753.60 0.2066
753.70 0.2065
753.80 0.2064
753.90 0.2063
754.00 0.2062
754.10 0.2061
754.20 0.206
754.30 0.2059
754.40 0.2057
754.50 0.2056
754.60 0.2055
754.70 0.2054
754.80 0.2053
754.90 0.2052
755.00 0.2051
755.10 0.205
755.20 0.2049
755.30 0.2048
755.40 0.2047
755.50 0.2046
755.60 0.2045
755.70 0.2044
755.80 0.2043
755.90 0.2042
756.00 0.2041
756.10 0.204
756.20 0.2038
756.30 0.2037
756.40 0.2036
756.50 0.2035
756.60 0.2034
756.70 0.2033
756.80 0.2032
756.90 0.2031
757.00 0.203
757.10 0.2029
757.20 0.2028
757.30 0.2027
757.40 0.2026
757.50 0.2025
757.60 0.2024
757.70 0.2023
757.80 0.2022
757.90 0.2021
758.00 0.202
758.10 0.2019
758.20 0.2018
758.30 0.2017
758.40 0.2015
758.50 0.2014
758.60 0.2013
758.70 0.2012
758.80 0.2011
758.90 0.201
759.00 0.2009
759.10 0.2008
759.20 0.2007
759.30 0.2006
759.40 0.2005
759.50 0.2004
759.60 0.2003
759.70 0.2002
759.80 0.2001
759.90 0.2
760.00 0.1999
760.10 0.1998
760.20 0.1997
760.30 0.1996
760.40 0.1995
760.50 0.1994
760.60 0.1993
760.70 0.1992
760.80 0.1991
760.90 0.199
761.00 0.1989
761.10 0.1988
761.20 0.1987
761.30 0.1986
761.40 0.1985
761.50 0.1984
761.60 0.1983
761.70 0.1982
761.80 0.1981
761.90 0.198
762.00 0.1979
762.10 0.1978
762.20 0.1977
762.30 0.1976
762.40 0.1975
762.50 0.1974
762.60 0.1973
762.70 0.1972
762.80 0.1971
762.90 0.197
763.00 0.1969
763.10 0.1968
763.20 0.1967
763.30 0.1966
763.40 0.1965
763.50 0.1964
763.60 0.1963
763.70 0.1962
763.80 0.1961
763.90 0.196
764.00 0.1959
764.10 0.1958
764.20 0.1957
764.30 0.1956
764.40 0.1955
764.50 0.1954
764.60 0.1953
764.70 0.1952
764.80 0.1951
764.90 0.195
765.00 0.1949
765.10 0.1948
765.20 0.1947
765.30 0.1946
765.40 0.1945
765.50 0.1944
765.60 0.1943
765.70 0.1942
765.80 0.1941
765.90 0.194
766.00 0.1939
766.10 0.1938
766.20 0.1937
766.30 0.1936
766.40 0.1935
766.50 0.1934
766.60 0.1933
766.70 0.1932
766.80 0.1931
766.90 0.193
767.00 0.1929
767.10 0.1928
767.20 0.1927
767.30 0.1926
767.40 0.1925
767.50 0.1924
767.60 0.1923
767.70 0.1922
767.80 0.1921
767.90 0.192
768.00 0.1919
768.10 0.1918
768.20 0.1917
768.30 0.1916
768.40 0.1915
768.50 0.1914
768.60 0.1913
768.70 0.1912
768.80 0.1911
768.90 0.191
769.00 0.1909
769.10 0.1908
769.20 0.1908
769.30 0.1907
769.40 0.1906
769.50 0.1905
769.60 0.1904
769.70 0.1903
769.80 0.1902
769.90 0.1901
770.00 0.19
770.10 0.1899
770.20 0.1898
770.30 0.1897
770.40 0.1896
770.50 0.1895
770.60 0.1894
770.70 0.1893
770.80 0.1892
770.90 0.1891
771.00 0.189
771.10 0.1889
771.20 0.1888
771.30 0.1887
771.40 0.1886
771.50 0.1886
771.60 0.1885
771.70 0.1884
771.80 0.1883
771.90 0.1882
772.00 0.1881
772.10 0.188
772.20 0.1879
772.30 0.1878
772.40 0.1877
772.50 0.1876
772.60 0.1875
772.70 0.1874
772.80 0.1873
772.90 0.1872
773.00 0.1871
773.10 0.187
773.20 0.187
773.30 0.1869
773.40 0.1868
773.50 0.1867
773.60 0.1866
773.70 0.1865
773.80 0.1864
773.90 0.1863
774.00 0.1862
774.10 0.1861
774.20 0.186
774.30 0.1859
774.40 0.1858
774.50 0.1857
774.60 0.1856
774.70 0.1855
774.80 0.1855
774.90 0.1854
775.00 0.1853
775.10 0.1852
775.20 0.1851
775.30 0.185
775.40 0.1849
775.50 0.1848
775.60 0.1847
775.70 0.1846
775.80 0.1845
775.90 0.1844
776.00 0.1843
776.10 0.1842
776.20 0.1842
776.30 0.1841
776.40 0.184
776.50 0.1839
776.60 0.1838
776.70 0.1837
776.80 0.1836
776.90 0.1835
777.00 0.1834
777.10 0.1833
777.20 0.1832
777.30 0.1831
777.40 0.183
777.50 0.183
777.60 0.1829
777.70 0.1828
777.80 0.1827
777.90 0.1826
778.00 0.1825
778.10 0.1824
778.20 0.1823
778.30 0.1822
778.40 0.1821
778.50 0.182
778.60 0.1819
778.70 0.1819
778.80 0.1818
778.90 0.1817
779.00 0.1816
779.10 0.1815
779.20 0.1814
779.30 0.1813
779.40 0.1812
779.50 0.1811
779.60 0.181
779.70 0.1809
779.80 0.1808
779.90 0.1808
780.00 0.1807
780.10 0.1806
780.20 0.1805
780.30 0.1804
780.40 0.1803
780.50 0.1802
780.60 0.1801
780.70 0.18
780.80 0.18
780.90 0.1799
781.00 0.1798
781.10 0.1797
781.20 0.1796
781.30 0.1795
781.40 0.1794
781.50 0.1793
781.60 0.1792
781.70 0.1792
781.80 0.1791
781.90 0.179
782.00 0.1789
782.10 0.1788
782.20 0.1787
782.30 0.1786
782.40 0.1785
782.50 0.1784
782.60 0.1784
782.70 0.1783
782.80 0.1782
782.90 0.1781
783.00 0.178
783.10 0.1779
783.20 0.1778
783.30 0.1777
783.40 0.1777
783.50 0.1776
783.60 0.1775
783.70 0.1774
783.80 0.1773
783.90 0.1772
784.00 0.1771
784.10 0.177
784.20 0.1769
784.30 0.1769
784.40 0.1768
784.50 0.1767
784.60 0.1766
784.70 0.1765
784.80 0.1764
784.90 0.1763
785.00 0.1762
785.10 0.1762
785.20 0.1761
785.30 0.176
785.40 0.1759
785.50 0.1758
785.60 0.1757
785.70 0.1756
785.80 0.1755
785.90 0.1755
786.00 0.1754
786.10 0.1753
786.20 0.1752
786.30 0.1751
786.40 0.175
786.50 0.1749
786.60 0.1749
786.70 0.1748
786.80 0.1747
786.90 0.1746
787.00 0.1745
787.10 0.1744
787.20 0.1743
787.30 0.1742
787.40 0.1742
787.50 0.1741
787.60 0.174
787.70 0.1739
787.80 0.1738
787.90 0.1737
788.00 0.1736
788.10 0.1736
788.20 0.1735
788.30 0.1734
788.40 0.1733
788.50 0.1732
788.60 0.1731
788.70 0.173
788.80 0.173
788.90 0.1729
789.00 0.1728
789.10 0.1727
789.20 0.1726
789.30 0.1725
789.40 0.1724
789.50 0.1724
789.60 0.1723
789.70 0.1722
789.80 0.1721
789.90 0.172
790.00 0.1719
790.10 0.1718
790.20 0.1718
790.30 0.1717
790.40 0.1716
790.50 0.1715
790.60 0.1714
790.70 0.1713
790.80 0.1713
790.90 0.1712
791.00 0.1711
791.10 0.171
791.20 0.1709
791.30 0.1708
791.40 0.1708
791.50 0.1707
791.60 0.1706
791.70 0.1705
791.80 0.1704
791.90 0.1703
792.00 0.1703
792.10 0.1702
792.20 0.1701
792.30 0.17
792.40 0.1699
792.50 0.1698
792.60 0.1698
792.70 0.1697
792.80 0.1696
792.90 0.1695
793.00 0.1694
793.10 0.1693
793.20 0.1693
793.30 0.1692
793.40 0.1691
793.50 0.169
793.60 0.1689
793.70 0.1688
793.80 0.1688
793.90 0.1687
794.00 0.1686
794.10 0.1685
794.20 0.1684
794.30 0.1683
794.40 0.1683
794.50 0.1682
794.60 0.1681
794.70 0.168
794.80 0.1679
794.90 0.1679
795.00 0.1678
795.10 0.1677
795.20 0.1676
795.30 0.1675
795.40 0.1674
795.50 0.1674
795.60 0.1673
795.70 0.1672
795.80 0.1671
795.90 0.167
796.00 0.1669
796.10 0.1669
796.20 0.1668
796.30 0.1667
796.40 0.1666
796.50 0.1665
796.60 0.1665
796.70 0.1664
796.80 0.1663
796.90 0.1662
797.00 0.1661
797.10 0.1661
797.20 0.166
797.30 0.1659
797.40 0.1658
797.50 0.1657
797.60 0.1656
797.70 0.1656
797.80 0.1655
797.90 0.1654
798.00 0.1653
798.10 0.1652
798.20 0.1652
798.30 0.1651
798.40 0.165
798.50 0.1649
798.60 0.1648
798.70 0.1648
798.80 0.1647
798.90 0.1646
799.00 0.1645
799.10 0.1644
799.20 0.1643
799.30 0.1643
799.40 0.1642
799.50 0.1641
799.60 0.164
799.70 0.1639
799.80 0.1639
799.90 0.1638
800.00 0.1637
800.10 0.1636
800.20 0.1635
800.30 0.1635
800.40 0.1634
800.50 0.1633
800.60 0.1632
800.70 0.1632
800.80 0.1631
800.90 0.163
801.00 0.1629
801.10 0.1628
801.20 0.1628
801.30 0.1627
801.40 0.1626
801.50 0.1625
801.60 0.1624
801.70 0.1624
801.80 0.1623
801.90 0.1622
802.00 0.1621
802.10 0.1621
802.20 0.162
802.30 0.1619
802.40 0.1618
802.50 0.1617
802.60 0.1617
802.70 0.1616
802.80 0.1615
802.90 0.1614
803.00 0.1613
803.10 0.1613
803.20 0.1612
803.30 0.1611
803.40 0.161
803.50 0.161
803.60 0.1609
803.70 0.1608
803.80 0.1607
803.90 0.1606
804.00 0.1606
804.10 0.1605
804.20 0.1604
804.30 0.1603
804.40 0.1603
804.50 0.1602
804.60 0.1601
804.70 0.16
804.80 0.16
804.90 0.1599
805.00 0.1598
805.10 0.1597
805.20 0.1596
805.30 0.1596
805.40 0.1595
805.50 0.1594
805.60 0.1593
805.70 0.1593
805.80 0.1592
805.90 0.1591
806.00 0.159
806.10 0.1589
806.20 0.1589
806.30 0.1588
806.40 0.1587
806.50 0.1586
806.60 0.1586
806.70 0.1585
806.80 0.1584
806.90 0.1583
807.00 0.1583
807.10 0.1582
807.20 0.1581
807.30 0.158
807.40 0.1579
807.50 0.1579
807.60 0.1578
807.70 0.1577
807.80 0.1576
807.90 0.1576
808.00 0.1575
808.10 0.1574
808.20 0.1573
808.30 0.1573
808.40 0.1572
808.50 0.1571
808.60 0.157
808.70 0.157
808.80 0.1569
808.90 0.1568
809.00 0.1567
809.10 0.1567
809.20 0.1566
809.30 0.1565
809.40 0.1564
809.50 0.1563
809.60 0.1563
809.70 0.1562
809.80 0.1561
809.90 0.156
810.00 0.156
810.10 0.1559
810.20 0.1558
810.30 0.1557
810.40 0.1557
810.50 0.1556
810.60 0.1555
810.70 0.1555
810.80 0.1554
810.90 0.1553
811.00 0.1552
811.10 0.1552
811.20 0.1551
811.30 0.155
811.40 0.1549
811.50 0.1549
811.60 0.1548
811.70 0.1547
811.80 0.1546
811.90 0.1546
812.00 0.1545
812.10 0.1544
812.20 0.1543
812.30 0.1543
812.40 0.1542
812.50 0.1541
812.60 0.154
812.70 0.154
812.80 0.1539
812.90 0.1538
813.00 0.1538
813.10 0.1537
813.20 0.1536
813.30 0.1535
813.40 0.1535
813.50 0.1534
813.60 0.1533
813.70 0.1532
813.80 0.1532
813.90 0.1531
814.00 0.153
814.10 0.1529
814.20 0.1529
814.30 0.1528
814.40 0.1527
814.50 0.1527
814.60 0.1526
814.70 0.1525
814.80 0.1524
814.90 0.1524
815.00 0.1523
815.10 0.1522
815.20 0.1521
815.30 0.1521
815.40 0.152
815.50 0.1519
815.60 0.1519
815.70 0.1518
815.80 0.1517
815.90 0.1516
816.00 0.1516
816.10 0.1515
816.20 0.1514
816.30 0.1513
816.40 0.1513
816.50 0.1512
816.60 0.1511
816.70 0.1511
816.80 0.151
816.90 0.1509
817.00 0.1508
817.10 0.1508
817.20 0.1507
817.30 0.1506
817.40 0.1506
817.50 0.1505
817.60 0.1504
817.70 0.1503
817.80 0.1503
817.90 0.1502
818.00 0.1501
818.10 0.15
818.20 0.15
818.30 0.1499
818.40 0.1498
818.50 0.1498
818.60 0.1497
818.70 0.1496
818.80 0.1495
818.90 0.1495
819.00 0.1494
819.10 0.1493
819.20 0.1493
819.30 0.1492
819.40 0.1491
819.50 0.149
819.60 0.149
819.70 0.1489
819.80 0.1488
819.90 0.1488
820.00 0.1487
820.10 0.1486
820.20 0.1485
820.30 0.1485
820.40 0.1484
820.50 0.1483
820.60 0.1483
820.70 0.1482
820.80 0.1481
820.90 0.1481
821.00 0.148
821.10 0.1479
821.20 0.1478
821.30 0.1478
821.40 0.1477
821.50 0.1476
821.60 0.1476
821.70 0.1475
821.80 0.1474
821.90 0.1474
822.00 0.1473
822.10 0.1472
822.20 0.1471
822.30 0.1471
822.40 0.147
822.50 0.1469
822.60 0.1469
822.70 0.1468
822.80 0.1467
822.90 0.1467
823.00 0.1466
823.10 0.1465
823.20 0.1465
823.30 0.1464
823.40 0.1463
823.50 0.1462
823.60 0.1462
823.70 0.1461
823.80 0.146
823.90 0.146
824.00 0.1459
824.10 0.1458
824.20 0.1458
824.30 0.1457
824.40 0.1456
824.50 0.1456
824.60 0.1455
824.70 0.1454
824.80 0.1453
824.90 0.1453
825.00 0.1452
825.10 0.1451
825.20 0.1451
825.30 0.145
825.40 0.1449
825.50 0.1449
825.60 0.1448
825.70 0.1447
825.80 0.1447
825.90 0.1446
826.00 0.1445
826.10 0.1445
826.20 0.1444
826.30 0.1443
826.40 0.1443
826.50 0.1442
826.60 0.1441
826.70 0.144
826.80 0.144
826.90 0.1439
827.00 0.1438
827.10 0.1438
827.20 0.1437
827.30 0.1436
827.40 0.1436
827.50 0.1435
827.60 0.1434
827.70 0.1434
827.80 0.1433
827.90 0.1432
828.00 0.1432
828.10 0.1431
828.20 0.143
828.30 0.143
828.40 0.1429
828.50 0.1428
828.60 0.1428
828.70 0.1427
828.80 0.1426
828.90 0.1426
829.00 0.1425
829.10 0.1424
829.20 0.1424
829.30 0.1423
829.40 0.1422
829.50 0.1422
829.60 0.1421
829.70 0.142
829.80 0.142
829.90 0.1419
830.00 0.1418
830.10 0.1418
830.20 0.1417
830.30 0.1416
830.40 0.1416
830.50 0.1415
830.60 0.1414
830.70 0.1414
830.80 0.1413
830.90 0.1412
831.00 0.1412
831.10 0.1411
831.20 0.141
831.30 0.141
831.40 0.1409
831.50 0.1408
831.60 0.1408
831.70 0.1407
831.80 0.1406
831.90 0.1406
832.00 0.1405
832.10 0.1404
832.20 0.1404
832.30 0.1403
832.40 0.1402
832.50 0.1402
832.60 0.1401
832.70 0.14
832.80 0.14
832.90 0.1399
833.00 0.1398
833.10 0.1398
833.20 0.1397
833.30 0.1397
833.40 0.1396
833.50 0.1395
833.60 0.1395
833.70 0.1394
833.80 0.1393
833.90 0.1393
834.00 0.1392
834.10 0.1391
834.20 0.1391
834.30 0.139
834.40 0.1389
834.50 0.1389
834.60 0.1388
834.70 0.1387
834.80 0.1387
834.90 0.1386
835.00 0.1385
835.10 0.1385
835.20 0.1384
835.30 0.1384
835.40 0.1383
835.50 0.1382
835.60 0.1382
835.70 0.1381
835.80 0.138
835.90 0.138
836.00 0.1379
836.10 0.1378
836.20 0.1378
836.30 0.1377
836.40 0.1376
836.50 0.1376
836.60 0.1375
836.70 0.1374
836.80 0.1374
836.90 0.1373
837.00 0.1373
837.10 0.1372
837.20 0.1371
837.30 0.1371
837.40 0.137
837.50 0.1369
837.60 0.1369
837.70 0.1368
837.80 0.1367
837.90 0.1367
838.00 0.1366
838.10 0.1366
838.20 0.1365
838.30 0.1364
838.40 0.1364
838.50 0.1363
838.60 0.1362
838.70 0.1362
838.80 0.1361
838.90 0.136
839.00 0.136
839.10 0.1359
839.20 0.1359
839.30 0.1358
839.40 0.1357
839.50 0.1357
839.60 0.1356
839.70 0.1355
839.80 0.1355
839.90 0.1354
840.00 0.1354
840.10 0.1353
840.20 0.1352
840.30 0.1352
840.40 0.1351
840.50 0.135
840.60 0.135
840.70 0.1349
840.80 0.1349
840.90 0.1348
841.00 0.1347
841.10 0.1347
841.20 0.1346
841.30 0.1345
841.40 0.1345
841.50 0.1344
841.60 0.1344
841.70 0.1343
841.80 0.1342
841.90 0.1342
842.00 0.1341
842.10 0.134
842.20 0.134
842.30 0.1339
842.40 0.1339
842.50 0.1338
842.60 0.1337
842.70 0.1337
842.80 0.1336
842.90 0.1335
843.00 0.1335
843.10 0.1334
843.20 0.1334
843.30 0.1333
843.40 0.1332
843.50 0.1332
843.60 0.1331
843.70 0.133
843.80 0.133
843.90 0.1329
844.00 0.1329
844.10 0.1328
844.20 0.1327
844.30 0.1327
844.40 0.1326
844.50 0.1326
844.60 0.1325
844.70 0.1324
844.80 0.1324
844.90 0.1323
845.00 0.1323
845.10 0.1322
845.20 0.1321
845.30 0.1321
845.40 0.132
845.50 0.1319
845.60 0.1319
845.70 0.1318
845.80 0.1318
845.90 0.1317
846.00 0.1316
846.10 0.1316
846.20 0.1315
846.30 0.1315
846.40 0.1314
846.50 0.1313
846.60 0.1313
846.70 0.1312
846.80 0.1312
846.90 0.1311
847.00 0.131
847.10 0.131
847.20 0.1309
847.30 0.1308
847.40 0.1308
847.50 0.1307
847.60 0.1307
847.70 0.1306
847.80 0.1305
847.90 0.1305
848.00 0.1304
848.10 0.1304
848.20 0.1303
848.30 0.1302
848.40 0.1302
848.50 0.1301
848.60 0.1301
848.70 0.13
848.80 0.1299
848.90 0.1299
849.00 0.1298
849.10 0.1298
849.20 0.1297
849.30 0.1296
849.40 0.1296
849.50 0.1295
849.60 0.1295
849.70 0.1294
849.80 0.1293
849.90 0.1293
850.00 0.1292
850.10 0.1292
850.20 0.1291
850.30 0.1291
850.40 0.129
850.50 0.1289
850.60 0.1289
850.70 0.1288
850.80 0.1288
850.90 0.1287
851.00 0.1286
851.10 0.1286
851.20 0.1285
851.30 0.1285
851.40 0.1284
851.50 0.1283
851.60 0.1283
851.70 0.1282
851.80 0.1282
851.90 0.1281
852.00 0.128
852.10 0.128
852.20 0.1279
852.30 0.1279
852.40 0.1278
852.50 0.1277
852.60 0.1277
852.70 0.1276
852.80 0.1276
852.90 0.1275
853.00 0.1275
853.10 0.1274
853.20 0.1273
853.30 0.1273
853.40 0.1272
853.50 0.1272
853.60 0.1271
853.70 0.127
853.80 0.127
853.90 0.1269
854.00 0.1269
854.10 0.1268
854.20 0.1268
854.30 0.1267
854.40 0.1266
854.50 0.1266
854.60 0.1265
854.70 0.1265
854.80 0.1264
854.90 0.1264
855.00 0.1263
855.10 0.1262
855.20 0.1262
855.30 0.1261
855.40 0.1261
855.50 0.126
855.60 0.1259
855.70 0.1259
855.80 0.1258
855.90 0.1258
856.00 0.1257
856.10 0.1257
856.20 0.1256
856.30 0.1255
856.40 0.1255
856.50 0.1254
856.60 0.1254
856.70 0.1253
856.80 0.1253
856.90 0.1252
857.00 0.1251
857.10 0.1251
857.20 0.125
857.30 0.125
857.40 0.1249
857.50 0.1249
857.60 0.1248
857.70 0.1247
857.80 0.1247
857.90 0.1246
858.00 0.1246
858.10 0.1245
858.20 0.1245
858.30 0.1244
858.40 0.1244
858.50 0.1243
858.60 0.1242
858.70 0.1242
858.80 0.1241
858.90 0.1241
859.00 0.124
859.10 0.124
859.20 0.1239
859.30 0.1239
859.40 0.1238
859.50 0.1237
859.60 0.1237
859.70 0.1236
859.80 0.1236
859.90 0.1235
860.00 0.1235
860.10 0.1234
860.20 0.1233
860.30 0.1233
860.40 0.1232
860.50 0.1232
860.60 0.1231
860.70 0.1231
860.80 0.123
860.90 0.123
861.00 0.1229
861.10 0.1228
861.20 0.1228
861.30 0.1227
861.40 0.1227
861.50 0.1226
861.60 0.1226
861.70 0.1225
861.80 0.1225
861.90 0.1224
862.00 0.1224
862.10 0.1223
862.20 0.1222
862.30 0.1222
862.40 0.1221
862.50 0.1221
862.60 0.122
862.70 0.122
862.80 0.1219
862.90 0.1219
863.00 0.1218
863.10 0.1217
863.20 0.1217
863.30 0.1216
863.40 0.1216
863.50 0.1215
863.60 0.1215
863.70 0.1214
863.80 0.1214
863.90 0.1213
864.00 0.1212
864.10 0.1212
864.20 0.1211
864.30 0.1211
864.40 0.121
864.50 0.121
864.60 0.1209
864.70 0.1209
864.80 0.1208
864.90 0.1208
865.00 0.1207
865.10 0.1206
865.20 0.1206
865.30 0.1205
865.40 0.1205
865.50 0.1204
865.60 0.1204
865.70 0.1203
865.80 0.1203
865.90 0.1202
866.00 0.1202
866.10 0.1201
866.20 0.12
866.30 0.12
866.40 0.1199
866.50 0.1199
866.60 0.1198
866.70 0.1198
866.80 0.1197
866.90 0.1197
867.00 0.1196
867.10 0.1196
867.20 0.1195
867.30 0.1194
867.40 0.1194
867.50 0.1193
867.60 0.1193
867.70 0.1192
867.80 0.1192
867.90 0.1191
868.00 0.1191
868.10 0.119
868.20 0.119
868.30 0.1189
868.40 0.1189
868.50 0.1188
868.60 0.1188
868.70 0.1187
868.80 0.1186
868.90 0.1186
869.00 0.1185
869.10 0.1185
869.20 0.1184
869.30 0.1184
869.40 0.1183
869.50 0.1183
869.60 0.1182
869.70 0.1182
869.80 0.1181
869.90 0.1181
870.00 0.118
870.10 0.118
870.20 0.1179
870.30 0.1178
870.40 0.1178
870.50 0.1177
870.60 0.1177
870.70 0.1176
870.80 0.1176
870.90 0.1175
871.00 0.1175
871.10 0.1174
871.20 0.1174
871.30 0.1173
871.40 0.1173
871.50 0.1172
871.60 0.1172
871.70 0.1171
871.80 0.1171
871.90 0.117
872.00 0.1169
872.10 0.1169
872.20 0.1168
872.30 0.1168
872.40 0.1167
872.50 0.1167
872.60 0.1166
872.70 0.1166
872.80 0.1165
872.90 0.1165
873.00 0.1164
873.10 0.1164
873.20 0.1163
873.30 0.1163
873.40 0.1162
873.50 0.1162
873.60 0.1161
873.70 0.1161
873.80 0.116
873.90 0.116
874.00 0.1159
874.10 0.1159
874.20 0.1158
874.30 0.1157
874.40 0.1157
874.50 0.1156
874.60 0.1156
874.70 0.1155
874.80 0.1155
874.90 0.1154
875.00 0.1154
875.10 0.1153
875.20 0.1153
875.30 0.1152
875.40 0.1152
875.50 0.1151
875.60 0.1151
875.70 0.115
875.80 0.115
875.90 0.1149
876.00 0.1149
876.10 0.1148
876.20 0.1148
876.30 0.1147
876.40 0.1147
876.50 0.1146
876.60 0.1146
876.70 0.1145
876.80 0.1145
876.90 0.1144
877.00 0.1144
877.10 0.1143
877.20 0.1143
877.30 0.1142
877.40 0.1142
877.50 0.1141
877.60 0.1141
877.70 0.114
877.80 0.114
877.90 0.1139
878.00 0.1138
878.10 0.1138
878.20 0.1137
878.30 0.1137
878.40 0.1136
878.50 0.1136
878.60 0.1135
878.70 0.1135
878.80 0.1134
878.90 0.1134
879.00 0.1133
879.10 0.1133
879.20 0.1132
879.30 0.1132
879.40 0.1131
879.50 0.1131
879.60 0.113
879.70 0.113
879.80 0.1129
879.90 0.1129
880.00 0.1128
880.10 0.1128
880.20 0.1127
880.30 0.1127
880.40 0.1126
880.50 0.1126
880.60 0.1125
880.70 0.1125
880.80 0.1124
880.90 0.1124
881.00 0.1123
881.10 0.1123
881.20 0.1122
881.30 0.1122
881.40 0.1121
881.50 0.1121
881.60 0.112
881.70 0.112
881.80 0.1119
881.90 0.1119
882.00 0.1118
882.10 0.1118
882.20 0.1117
882.30 0.1117
882.40 0.1116
882.50 0.1116
882.60 0.1115
882.70 0.1115
882.80 0.1114
882.90 0.1114
883.00 0.1113
883.10 0.1113
883.20 0.1113
883.30 0.1112
883.40 0.1112
883.50 0.1111
883.60 0.1111
883.70 0.111
883.80 0.111
883.90 0.1109
884.00 0.1109
884.10 0.1108
884.20 0.1108
884.30 0.1107
884.40 0.1107
884.50 0.1106
884.60 0.1106
884.70 0.1105
884.80 0.1105
884.90 0.1104
885.00 0.1104
885.10 0.1103
885.20 0.1103
885.30 0.1102
885.40 0.1102
885.50 0.1101
885.60 0.1101
885.70 0.11
885.80 0.11
885.90 0.1099
886.00 0.1099
886.10 0.1098
886.20 0.1098
886.30 0.1097
886.40 0.1097
886.50 0.1096
886.60 0.1096
886.70 0.1095
886.80 0.1095
886.90 0.1094
887.00 0.1094
887.10 0.1093
887.20 0.1093
887.30 0.1092
887.40 0.1092
887.50 0.1092
887.60 0.1091
887.70 0.1091
887.80 0.109
887.90 0.109
888.00 0.1089
888.10 0.1089
888.20 0.1088
888.30 0.1088
888.40 0.1087
888.50 0.1087
888.60 0.1086
888.70 0.1086
888.80 0.1085
888.90 0.1085
889.00 0.1084
889.10 0.1084
889.20 0.1083
889.30 0.1083
889.40 0.1082
889.50 0.1082
889.60 0.1082
889.70 0.1081
889.80 0.1081
889.90 0.108
890.00 0.108
890.10 0.1079
890.20 0.1079
890.30 0.1078
890.40 0.1078
890.50 0.1077
890.60 0.1077
890.70 0.1076
890.80 0.1076
890.90 0.1075
891.00 0.1075
891.10 0.1074
891.20 0.1074
891.30 0.1073
891.40 0.1073
891.50 0.1073
891.60 0.1072
891.70 0.1072
891.80 0.1071
891.90 0.1071
892.00 0.107
892.10 0.107
892.20 0.1069
892.30 0.1069
892.40 0.1068
892.50 0.1068
892.60 0.1067
892.70 0.1067
892.80 0.1066
892.90 0.1066
893.00 0.1066
893.10 0.1065
893.20 0.1065
893.30 0.1064
893.40 0.1064
893.50 0.1063
893.60 0.1063
893.70 0.1062
893.80 0.1062
893.90 0.1061
894.00 0.1061
894.10 0.106
894.20 0.106
894.30 0.1059
894.40 0.1059
894.50 0.1059
894.60 0.1058
894.70 0.1058
894.80 0.1057
894.90 0.1057
895.00 0.1056
895.10 0.1056
895.20 0.1055
895.30 0.1055
895.40 0.1054
895.50 0.1054
895.60 0.1053
895.70 0.1053
895.80 0.1053
895.90 0.1052
896.00 0.1052
896.10 0.1051
896.20 0.1051
896.30 0.105
896.40 0.105
896.50 0.1049
896.60 0.1049
896.70 0.1048
896.80 0.1048
896.90 0.1048
897.00 0.1047
897.10 0.1047
897.20 0.1046
897.30 0.1046
897.40 0.1045
897.50 0.1045
897.60 0.1044
897.70 0.1044
897.80 0.1043
897.90 0.1043
898.00 0.1043
898.10 0.1042
898.20 0.1042
898.30 0.1041
898.40 0.1041
898.50 0.104
898.60 0.104
898.70 0.1039
898.80 0.1039
898.90 0.1038
899.00 0.1038
899.10 0.1038
899.20 0.1037
899.30 0.1037
899.40 0.1036
899.50 0.1036
899.60 0.1035
899.70 0.1035
899.80 0.1034
899.90 0.1034
900.00 0.1033
900.10 0.1033
900.20 0.1033
900.30 0.1032
900.40 0.1032
900.50 0.1031
900.60 0.1031
900.70 0.103
900.80 0.103
900.90 0.1029
901.00 0.1029
901.10 0.1029
901.20 0.1028
901.30 0.1028
901.40 0.1027
901.50 0.1027
901.60 0.1026
901.70 0.1026
901.80 0.1025
901.90 0.1025
902.00 0.1025
902.10 0.1024
902.20 0.1024
902.30 0.1023
902.40 0.1023
902.50 0.1022
902.60 0.1022
902.70 0.1021
902.80 0.1021
902.90 0.1021
903.00 0.102
903.10 0.102
903.20 0.1019
903.30 0.1019
903.40 0.1018
903.50 0.1018
903.60 0.1017
903.70 0.1017
903.80 0.1017
903.90 0.1016
904.00 0.1016
904.10 0.1015
904.20 0.1015
904.30 0.1014
904.40 0.1014
904.50 0.1014
904.60 0.1013
904.70 0.1013
904.80 0.1012
904.90 0.1012
905.00 0.1011
905.10 0.1011
905.20 0.101
905.30 0.101
905.40 0.101
905.50 0.1009
905.60 0.1009
905.70 0.1008
905.80 0.1008
905.90 0.1007
906.00 0.1007
906.10 0.1007
906.20 0.1006
906.30 0.1006
906.40 0.1005
906.50 0.1005
906.60 0.1004
906.70 0.1004
906.80 0.1004
906.90 0.1003
907.00 0.1003
907.10 0.1002
907.20 0.1002
907.30 0.1001
907.40 0.1001
907.50 0.1001
907.60 0.1
907.70 0.09996
907.80 0.09992
907.90 0.09988
908.00 0.09984
908.10 0.09979
908.20 0.09975
908.30 0.09971
908.40 0.09966
908.50 0.09962
908.60 0.09958
908.70 0.09954
908.80 0.09949
908.90 0.09945
909.00 0.09941
909.10 0.09937
909.20 0.09932
909.30 0.09928
909.40 0.09924
909.50 0.0992
909.60 0.09915
909.70 0.09911
909.80 0.09907
909.90 0.09902
910.00 0.09898
910.10 0.09894
910.20 0.0989
910.30 0.09885
910.40 0.09881
910.50 0.09877
910.60 0.09873
910.70 0.09869
910.80 0.09864
910.90 0.0986
911.00 0.09856
911.10 0.09852
911.20 0.09847
911.30 0.09843
911.40 0.09839
911.50 0.09835
911.60 0.0983
911.70 0.09826
911.80 0.09822
911.90 0.09818
912.00 0.09814
912.10 0.09809
912.20 0.09805
912.30 0.09801
912.40 0.09797
912.50 0.09793
912.60 0.09788
912.70 0.09784
912.80 0.0978
912.90 0.09776
913.00 0.09772
913.10 0.09768
913.20 0.09763
913.30 0.09759
913.40 0.09755
913.50 0.09751
913.60 0.09747
913.70 0.09743
913.80 0.09739
913.90 0.09734
914.00 0.0973
914.10 0.09726
914.20 0.09722
914.30 0.09718
914.40 0.09714
914.50 0.0971
914.60 0.09705
914.70 0.09701
914.80 0.09697
914.90 0.09693
915.00 0.09689
915.10 0.09685
915.20 0.09681
915.30 0.09676
915.40 0.09672
915.50 0.09668
915.60 0.09664
915.70 0.0966
915.80 0.09656
915.90 0.09652
916.00 0.09648
916.10 0.09643
916.20 0.09639
916.30 0.09635
916.40 0.09631
916.50 0.09627
916.60 0.09623
916.70 0.09619
916.80 0.09615
916.90 0.09611
917.00 0.09606
917.10 0.09602
917.20 0.09598
917.30 0.09594
917.40 0.0959
917.50 0.09586
917.60 0.09582
917.70 0.09578
917.80 0.09574
917.90 0.0957
918.00 0.09566
918.10 0.09562
918.20 0.09558
918.30 0.09554
918.40 0.0955
918.50 0.09546
918.60 0.09542
918.70 0.09538
918.80 0.09533
918.90 0.09529
919.00 0.09525
919.10 0.09521
919.20 0.09517
919.30 0.09513
919.40 0.09509
919.50 0.09505
919.60 0.09501
919.70 0.09497
919.80 0.09493
919.90 0.09489
920.00 0.09485
920.10 0.09481
920.20 0.09477
920.30 0.09473
920.40 0.09469
920.50 0.09465
920.60 0.09461
920.70 0.09457
920.80 0.09453
920.90 0.09449
921.00 0.09445
921.10 0.09441
921.20 0.09437
921.30 0.09433
921.40 0.09429
921.50 0.09425
921.60 0.09421
921.70 0.09417
921.80 0.09413
921.90 0.09409
922.00 0.09405
922.10 0.09401
922.20 0.09397
922.30 0.09393
922.40 0.09389
922.50 0.09385
922.60 0.09381
922.70 0.09377
922.80 0.09373
922.90 0.09369
923.00 0.09365
923.10 0.09361
923.20 0.09358
923.30 0.09354
923.40 0.0935
923.50 0.09346
923.60 0.09342
923.70 0.09338
923.80 0.09334
923.90 0.0933
924.00 0.09326
924.10 0.09322
924.20 0.09318
924.30 0.09314
924.40 0.0931
924.50 0.09306
924.60 0.09302
924.70 0.09298
924.80 0.09295
924.90 0.09291
925.00 0.09287
925.10 0.09283
925.20 0.09279
925.30 0.09275
925.40 0.09271
925.50 0.09267
925.60 0.09263
925.70 0.09259
925.80 0.09255
925.90 0.09251
926.00 0.09248
926.10 0.09244
926.20 0.0924
926.30 0.09236
926.40 0.09232
926.50 0.09228
926.60 0.09224
926.70 0.0922
926.80 0.09216
926.90 0.09212
927.00 0.09209
927.10 0.09205
927.20 0.09201
927.30 0.09197
927.40 0.09193
927.50 0.09189
927.60 0.09185
927.70 0.09182
927.80 0.09178
927.90 0.09174
928.00 0.0917
928.10 0.09166
928.20 0.09162
928.30 0.09159
928.40 0.09155
928.50 0.09151
928.60 0.09147
928.70 0.09143
928.80 0.09139
928.90 0.09136
929.00 0.09132
929.10 0.09128
929.20 0.09124
929.30 0.0912
929.40 0.09116
929.50 0.09113
929.60 0.09109
929.70 0.09105
929.80 0.09101
929.90 0.09097
930.00 0.09093
930.10 0.0909
930.20 0.09086
930.30 0.09082
930.40 0.09078
930.50 0.09074
930.60 0.09071
930.70 0.09067
930.80 0.09063
930.90 0.09059
931.00 0.09055
931.10 0.09052
931.20 0.09048
931.30 0.09044
931.40 0.0904
931.50 0.09036
931.60 0.09033
931.70 0.09029
931.80 0.09025
931.90 0.09021
932.00 0.09017
932.10 0.09014
932.20 0.0901
932.30 0.09006
932.40 0.09002
932.50 0.08999
932.60 0.08995
932.70 0.08991
932.80 0.08987
932.90 0.08984
933.00 0.0898
933.10 0.08976
933.20 0.08972
933.30 0.08969
933.40 0.08965
933.50 0.08961
933.60 0.08957
933.70 0.08954
933.80 0.0895
933.90 0.08946
934.00 0.08942
934.10 0.08939
934.20 0.08935
934.30 0.08931
934.40 0.08927
934.50 0.08924
934.60 0.0892
934.70 0.08916
934.80 0.08913
934.90 0.08909
935.00 0.08905
935.10 0.08901
935.20 0.08898
935.30 0.08894
935.40 0.0889
935.50 0.08887
935.60 0.08883
935.70 0.08879
935.80 0.08876
935.90 0.08872
936.00 0.08868
936.10 0.08864
936.20 0.08861
936.30 0.08857
936.40 0.08853
936.50 0.0885
936.60 0.08846
936.70 0.08842
936.80 0.08839
936.90 0.08835
937.00 0.08831
937.10 0.08828
937.20 0.08824
937.30 0.0882
937.40 0.08817
937.50 0.08813
937.60 0.08809
937.70 0.08806
937.80 0.08802
937.90 0.08798
938.00 0.08795
938.10 0.08791
938.20 0.08787
938.30 0.08784
938.40 0.0878
938.50 0.08776
938.60 0.08773
938.70 0.08769
938.80 0.08765
938.90 0.08762
939.00 0.08758
939.10 0.08754
939.20 0.08751
939.30 0.08747
939.40 0.08744
939.50 0.0874
939.60 0.08736
939.70 0.08733
939.80 0.08729
939.90 0.08725
940.00 0.08722
940.10 0.08718
940.20 0.08715
940.30 0.08711
940.40 0.08707
940.50 0.08704
940.60 0.087
940.70 0.08697
940.80 0.08693
940.90 0.08689
941.00 0.08686
941.10 0.08682
941.20 0.08679
941.30 0.08675
941.40 0.08671
941.50 0.08668
941.60 0.08664
941.70 0.08661
941.80 0.08657
941.90 0.08653
942.00 0.0865
942.10 0.08646
942.20 0.08643
942.30 0.08639
942.40 0.08635
942.50 0.08632
942.60 0.08628
942.70 0.08625
942.80 0.08621
942.90 0.08618
943.00 0.08614
943.10 0.08611
943.20 0.08607
943.30 0.08603
943.40 0.086
943.50 0.08596
943.60 0.08593
943.70 0.08589
943.80 0.08586
943.90 0.08582
944.00 0.08579
944.10 0.08575
944.20 0.08571
944.30 0.08568
944.40 0.08564
944.50 0.08561
944.60 0.08557
944.70 0.08554
944.80 0.0855
944.90 0.08547
945.00 0.08543
945.10 0.0854
945.20 0.08536
945.30 0.08533
945.40 0.08529
945.50 0.08526
945.60 0.08522
945.70 0.08519
945.80 0.08515
945.90 0.08512
946.00 0.08508
946.10 0.08504
946.20 0.08501
946.30 0.08497
946.40 0.08494
946.50 0.0849
946.60 0.08487
946.70 0.08483
946.80 0.0848
946.90 0.08476
947.00 0.08473
947.10 0.08469
947.20 0.08466
947.30 0.08463
947.40 0.08459
947.50 0.08456
947.60 0.08452
947.70 0.08449
947.80 0.08445
947.90 0.08442
948.00 0.08438
948.10 0.08435
948.20 0.08431
948.30 0.08428
948.40 0.08424
948.50 0.08421
948.60 0.08417
948.70 0.08414
948.80 0.08411
948.90 0.08407
949.00 0.08404
949.10 0.084
949.20 0.08397
949.30 0.08393
949.40 0.0839
949.50 0.08386
949.60 0.08383
949.70 0.0838
949.80 0.08376
949.90 0.08373
950.00 0.08369
950.10 0.08366
950.20 0.08362
950.30 0.08359
950.40 0.08356
950.50 0.08352
950.60 0.08349
950.70 0.08345
950.80 0.08342
950.90 0.08338
951.00 0.08335
951.10 0.08332
951.20 0.08328
951.30 0.08325
951.40 0.08321
951.50 0.08318
951.60 0.08315
951.70 0.08311
951.80 0.08308
951.90 0.08304
952.00 0.08301
952.10 0.08298
952.20 0.08294
952.30 0.08291
952.40 0.08287
952.50 0.08284
952.60 0.08281
952.70 0.08277
952.80 0.08274
952.90 0.08271
953.00 0.08267
953.10 0.08264
953.20 0.08261
953.30 0.08257
953.40 0.08254
953.50 0.0825
953.60 0.08247
953.70 0.08244
953.80 0.0824
953.90 0.08237
954.00 0.08234
954.10 0.0823
954.20 0.08227
954.30 0.08224
954.40 0.0822
954.50 0.08217
954.60 0.08214
954.70 0.0821
954.80 0.08207
954.90 0.08204
955.00 0.082
955.10 0.08197
955.20 0.08194
955.30 0.0819
955.40 0.08187
955.50 0.08183
955.60 0.0818
955.70 0.08177
955.80 0.08173
955.90 0.0817
956.00 0.08167
956.10 0.08163
956.20 0.0816
956.30 0.08157
956.40 0.08153
956.50 0.0815
956.60 0.08147
956.70 0.08144
956.80 0.0814
956.90 0.08137
957.00 0.08134
957.10 0.0813
957.20 0.08127
957.30 0.08124
957.40 0.0812
957.50 0.08117
957.60 0.08114
957.70 0.0811
957.80 0.08107
957.90 0.08104
958.00 0.08101
958.10 0.08097
958.20 0.08094
958.30 0.08091
958.40 0.08087
958.50 0.08084
958.60 0.08081
958.70 0.08078
958.80 0.08074
958.90 0.08071
959.00 0.08068
959.10 0.08064
959.20 0.08061
959.30 0.08058
959.40 0.08055
959.50 0.08051
959.60 0.08048
959.70 0.08045
959.80 0.08042
959.90 0.08038
960.00 0.08035
960.10 0.08032
960.20 0.08029
960.30 0.08025
960.40 0.08022
960.50 0.08019
960.60 0.08016
960.70 0.08012
960.80 0.08009
960.90 0.08006
961.00 0.08003
961.10 0.07999
961.20 0.07996
961.30 0.07993
961.40 0.0799
961.50 0.07987
961.60 0.07983
961.70 0.0798
961.80 0.07977
961.90 0.07974
962.00 0.0797
962.10 0.07967
962.20 0.07964
962.30 0.07961
962.40 0.07958
962.50 0.07954
962.60 0.07951
962.70 0.07948
962.80 0.07945
962.90 0.07942
963.00 0.07938
963.10 0.07935
963.20 0.07932
963.30 0.07929
963.40 0.07926
963.50 0.07922
963.60 0.07919
963.70 0.07916
963.80 0.07913
963.90 0.0791
964.00 0.07906
964.10 0.07903
964.20 0.079
964.30 0.07897
964.40 0.07894
964.50 0.0789
964.60 0.07887
964.70 0.07884
964.80 0.07881
964.90 0.07878
965.00 0.07875
965.10 0.07871
965.20 0.07868
965.30 0.07865
965.40 0.07862
965.50 0.07859
965.60 0.07856
965.70 0.07852
965.80 0.07849
965.90 0.07846
966.00 0.07843
966.10 0.0784
966.20 0.07837
966.30 0.07833
966.40 0.0783
966.50 0.07827
966.60 0.07824
966.70 0.07821
966.80 0.07818
966.90 0.07815
967.00 0.07811
967.10 0.07808
967.20 0.07805
967.30 0.07802
967.40 0.07799
967.50 0.07796
967.60 0.07793
967.70 0.07789
967.80 0.07786
967.90 0.07783
968.00 0.0778
968.10 0.07777
968.20 0.07774
968.30 0.07771
968.40 0.07768
968.50 0.07764
968.60 0.07761
968.70 0.07758
968.80 0.07755
968.90 0.07752
969.00 0.07749
969.10 0.07746
969.20 0.07743
969.30 0.0774
969.40 0.07736
969.50 0.07733
969.60 0.0773
969.70 0.07727
969.80 0.07724
969.90 0.07721
970.00 0.07718
970.10 0.07715
970.20 0.07712
970.30 0.07708
970.40 0.07705
970.50 0.07702
970.60 0.07699
970.70 0.07696
970.80 0.07693
970.90 0.0769
971.00 0.07687
971.10 0.07684
971.20 0.07681
971.30 0.07678
971.40 0.07675
971.50 0.07671
971.60 0.07668
971.70 0.07665
971.80 0.07662
971.90 0.07659
972.00 0.07656
972.10 0.07653
972.20 0.0765
972.30 0.07647
972.40 0.07644
972.50 0.07641
972.60 0.07638
972.70 0.07635
972.80 0.07632
972.90 0.07628
973.00 0.07625
973.10 0.07622
973.20 0.07619
973.30 0.07616
973.40 0.07613
973.50 0.0761
973.60 0.07607
973.70 0.07604
973.80 0.07601
973.90 0.07598
974.00 0.07595
974.10 0.07592
974.20 0.07589
974.30 0.07586
974.40 0.07583
974.50 0.0758
974.60 0.07577
974.70 0.07574
974.80 0.07571
974.90 0.07568
975.00 0.07564
975.10 0.07561
975.20 0.07558
975.30 0.07555
975.40 0.07552
975.50 0.07549
975.60 0.07546
975.70 0.07543
975.80 0.0754
975.90 0.07537
976.00 0.07534
976.10 0.07531
976.20 0.07528
976.30 0.07525
976.40 0.07522
976.50 0.07519
976.60 0.07516
976.70 0.07513
976.80 0.0751
976.90 0.07507
977.00 0.07504
977.10 0.07501
977.20 0.07498
977.30 0.07495
977.40 0.07492
977.50 0.07489
977.60 0.07486
977.70 0.07483
977.80 0.0748
977.90 0.07477
978.00 0.07474
978.10 0.07471
978.20 0.07468
978.30 0.07465
978.40 0.07462
978.50 0.07459
978.60 0.07456
978.70 0.07453
978.80 0.0745
978.90 0.07447
979.00 0.07444
979.10 0.07441
979.20 0.07438
979.30 0.07435
979.40 0.07432
979.50 0.07429
979.60 0.07426
979.70 0.07423
979.80 0.0742
979.90 0.07417
980.00 0.07414
980.10 0.07411
980.20 0.07408
980.30 0.07405
980.40 0.07402
980.50 0.074
980.60 0.07397
980.70 0.07394
980.80 0.07391
980.90 0.07388
981.00 0.07385
981.10 0.07382
981.20 0.07379
981.30 0.07376
981.40 0.07373
981.50 0.0737
981.60 0.07367
981.70 0.07364
981.80 0.07361
981.90 0.07358
982.00 0.07355
982.10 0.07352
982.20 0.07349
982.30 0.07346
982.40 0.07343
982.50 0.0734
982.60 0.07337
982.70 0.07335
982.80 0.07332
982.90 0.07329
983.00 0.07326
983.10 0.07323
983.20 0.0732
983.30 0.07317
983.40 0.07314
983.50 0.07311
983.60 0.07308
983.70 0.07305
983.80 0.07302
983.90 0.07299
984.00 0.07296
984.10 0.07294
984.20 0.07291
984.30 0.07288
984.40 0.07285
984.50 0.07282
984.60 0.07279
984.70 0.07276
984.80 0.07273
984.90 0.0727
985.00 0.07267
985.10 0.07264
985.20 0.07261
985.30 0.07259
985.40 0.07256
985.50 0.07253
985.60 0.0725
985.70 0.07247
985.80 0.07244
985.90 0.07241
986.00 0.07238
986.10 0.07235
986.20 0.07232
986.30 0.0723
986.40 0.07227
986.50 0.07224
986.60 0.07221
986.70 0.07218
986.80 0.07215
986.90 0.07212
987.00 0.07209
987.10 0.07206
987.20 0.07203
987.30 0.07201
987.40 0.07198
987.50 0.07195
987.60 0.07192
987.70 0.07189
987.80 0.07186
987.90 0.07183
988.00 0.0718
988.10 0.07178
988.20 0.07175
988.30 0.07172
988.40 0.07169
988.50 0.07166
988.60 0.07163
988.70 0.0716
988.80 0.07157
988.90 0.07155
989.00 0.07152
989.10 0.07149
989.20 0.07146
989.30 0.07143
989.40 0.0714
989.50 0.07137
989.60 0.07135
989.70 0.07132
989.80 0.07129
989.90 0.07126
990.00 0.07123
990.10 0.0712
990.20 0.07118
990.30 0.07115
990.40 0.07112
990.50 0.07109
990.60 0.07106
990.70 0.07103
990.80 0.071
990.90 0.07098
991.00 0.07095
991.10 0.07092
991.20 0.07089
991.30 0.07086
991.40 0.07083
991.50 0.07081
991.60 0.07078
991.70 0.07075
991.80 0.07072
991.90 0.07069
992.00 0.07066
992.10 0.07064
992.20 0.07061
992.30 0.07058
992.40 0.07055
992.50 0.07052
992.60 0.0705
992.70 0.07047
992.80 0.07044
992.90 0.07041
993.00 0.07038
993.10 0.07035
993.20 0.07033
993.30 0.0703
993.40 0.07027
993.50 0.07024
993.60 0.07021
993.70 0.07019
993.80 0.07016
993.90 0.07013
994.00 0.0701
994.10 0.07007
994.20 0.07005
994.30 0.07002
994.40 0.06999
994.50 0.06996
994.60 0.06993
994.70 0.06991
994.80 0.06988
994.90 0.06985
995.00 0.06982
995.10 0.0698
995.20 0.06977
995.30 0.06974
995.40 0.06971
995.50 0.06968
995.60 0.06966
995.70 0.06963
995.80 0.0696
995.90 0.06957
996.00 0.06955
996.10 0.06952
996.20 0.06949
996.30 0.06946
996.40 0.06944
996.50 0.06941
996.60 0.06938
996.70 0.06935
996.80 0.06932
996.90 0.0693
997.00 0.06927
997.10 0.06924
997.20 0.06921
997.30 0.06919
997.40 0.06916
997.50 0.06913
997.60 0.06911
997.70 0.06908
997.80 0.06905
997.90 0.06902
998.00 0.069
998.10 0.06897
998.20 0.06894
998.30 0.06891
998.40 0.06889
998.50 0.06886
998.60 0.06883
998.70 0.06881
998.80 0.06878
998.90 0.06875
999.00 0.06872
999.10 0.0687
999.20 0.06867
999.30 0.06864
999.40 0.06862
999.50 0.06859
999.60 0.06856
999.70 0.06853
999.80 0.0685
999.90 0.06848
1000.00 0.06845
1000.10 0.06842
1000.20 0.06839
1000.30 0.06836
1000.40 0.06833
1000.50 0.0683
1000.60 0.06828
1000.70 0.06825
1000.80 0.06822
1000.90 0.06819
1001.00 0.06816
1001.10 0.06813
1001.20 0.0681
1001.30 0.06807
1001.40 0.06805
1001.50 0.06802
1001.60 0.06799
1001.70 0.06796
1001.80 0.06794
1001.90 0.06791
1002.00 0.06788
1002.10 0.06786
1002.20 0.06783
1002.30 0.06781
1002.40 0.06778
1002.50 0.06775
1002.60 0.06773
1002.70 0.0677
1002.80 0.06768
1002.90 0.06765
1003.00 0.06762
1003.10 0.0676
1003.20 0.06757
1003.30 0.06755
1003.40 0.06752
1003.50 0.0675
1003.60 0.06747
1003.70 0.06745
1003.80 0.06742
1003.90 0.06739
1004.00 0.06737
1004.10 0.06734
1004.20 0.06732
1004.30 0.06729
1004.40 0.06727
1004.50 0.06724
1004.60 0.06722
1004.70 0.06719
1004.80 0.06716
1004.90 0.06714
1005.00 0.06711
1005.10 0.06709
1005.20 0.06706
1005.30 0.06703
1005.40 0.06701
1005.50 0.06698
1005.60 0.06696
1005.70 0.06693
1005.80 0.0669
1005.90 0.06688
1006.00 0.06685
1006.10 0.06682
1006.20 0.0668
1006.30 0.06677
1006.40 0.06675
1006.50 0.06672
1006.60 0.06669
1006.70 0.06667
1006.80 0.06664
1006.90 0.06661
1007.00 0.06659
1007.10 0.06656
1007.20 0.06654
1007.30 0.06651
1007.40 0.06648
1007.50 0.06646
1007.60 0.06643
1007.70 0.06641
1007.80 0.06638
1007.90 0.06636
1008.00 0.06633
1008.10 0.06631
1008.20 0.06628
1008.30 0.06625
1008.40 0.06623
1008.50 0.0662
1008.60 0.06618
1008.70 0.06615
1008.80 0.06613
1008.90 0.0661
1009.00 0.06608
1009.10 0.06605
1009.20 0.06603
1009.30 0.066
1009.40 0.06598
1009.50 0.06595
1009.60 0.06592
1009.70 0.0659
1009.80 0.06587
1009.90 0.06585
1010.00 0.06582
1010.10 0.0658
1010.20 0.06577
1010.30 0.06575
1010.40 0.06573
1010.50 0.0657
1010.60 0.06568
1010.70 0.06565
1010.80 0.06563
1010.90 0.0656
1011.00 0.06558
1011.10 0.06555
1011.20 0.06553
1011.30 0.0655
1011.40 0.06548
1011.50 0.06545
1011.60 0.06543
1011.70 0.0654
1011.80 0.06538
1011.90 0.06535
1012.00 0.06533
1012.10 0.0653
1012.20 0.06528
1012.30 0.06525
1012.40 0.06523
1012.50 0.06521
1012.60 0.06518
1012.70 0.06516
1012.80 0.06513
1012.90 0.06511
1013.00 0.06508
1013.10 0.06506
1013.20 0.06503
1013.30 0.06501
1013.40 0.06499
1013.50 0.06496
1013.60 0.06494
1013.70 0.06491
1013.80 0.06489
1013.90 0.06486
1014.00 0.06484
1014.10 0.06482
1014.20 0.06479
1014.30 0.06477
1014.40 0.06474
1014.50 0.06472
1014.60 0.06469
1014.70 0.06467
1014.80 0.06465
1014.90 0.06462
1015.00 0.0646
1015.10 0.06457
1015.20 0.06455
1015.30 0.06452
1015.40 0.0645
1015.50 0.06448
1015.60 0.06445
1015.70 0.06443
1015.80 0.0644
1015.90 0.06438
1016.00 0.06436
1016.10 0.06433
1016.20 0.06431
1016.30 0.06428
1016.40 0.06426
1016.50 0.06424
1016.60 0.06421
1016.70 0.06419
1016.80 0.06416
1016.90 0.06414
1017.00 0.06412
1017.10 0.06409
1017.20 0.06407
1017.30 0.06404
1017.40 0.06402
1017.50 0.064
1017.60 0.06397
1017.70 0.06395
1017.80 0.06392
1017.90 0.0639
1018.00 0.06388
1018.10 0.06385
1018.20 0.06383
1018.30 0.06381
1018.40 0.06378
1018.50 0.06376
1018.60 0.06373
1018.70 0.06371
1018.80 0.06369
1018.90 0.06366
1019.00 0.06364
1019.10 0.06361
1019.20 0.06359
1019.30 0.06357
1019.40 0.06354
1019.50 0.06352
1019.60 0.0635
1019.70 0.06347
1019.80 0.06345
1019.90 0.06343
1020.00 0.0634
1020.10 0.06338
1020.20 0.06335
1020.30 0.06333
1020.40 0.06331
1020.50 0.06328
1020.60 0.06326
1020.70 0.06324
1020.80 0.06321
1020.90 0.06319
1021.00 0.06317
1021.10 0.06314
1021.20 0.06312
1021.30 0.06309
1021.40 0.06307
1021.50 0.06305
1021.60 0.06302
1021.70 0.063
1021.80 0.06298
1021.90 0.06295
1022.00 0.06293
1022.10 0.06291
1022.20 0.06288
1022.30 0.06286
1022.40 0.06284
1022.50 0.06281
1022.60 0.06279
1022.70 0.06277
1022.80 0.06274
1022.90 0.06272
1023.00 0.0627
1023.10 0.06267
1023.20 0.06265
1023.30 0.06263
1023.40 0.0626
1023.50 0.06258
1023.60 0.06256
1023.70 0.06253
1023.80 0.06251
1023.90 0.06249
1024.00 0.06246
1024.10 0.06244
1024.20 0.06242
1024.30 0.06239
1024.40 0.06237
1024.50 0.06235
1024.60 0.06232
1024.70 0.0623
1024.80 0.06228
1024.90 0.06225
1025.00 0.06223
1025.10 0.06221
1025.20 0.06218
1025.30 0.06216
1025.40 0.06214
1025.50 0.06211
1025.60 0.06209
1025.70 0.06207
1025.80 0.06204
1025.90 0.06202
1026.00 0.062
1026.10 0.06197
1026.20 0.06195
1026.30 0.06193
1026.40 0.0619
1026.50 0.06188
1026.60 0.06186
1026.70 0.06184
1026.80 0.06181
1026.90 0.06179
1027.00 0.06177
1027.10 0.06174
1027.20 0.06172
1027.30 0.0617
1027.40 0.06167
1027.50 0.06165
1027.60 0.06163
1027.70 0.0616
1027.80 0.06158
1027.90 0.06156
1028.00 0.06154
1028.10 0.06151
1028.20 0.06149
1028.30 0.06147
1028.40 0.06144
1028.50 0.06142
1028.60 0.0614
1028.70 0.06137
1028.80 0.06135
1028.90 0.06133
1029.00 0.06131
1029.10 0.06128
1029.20 0.06126
1029.30 0.06124
1029.40 0.06121
1029.50 0.06119
1029.60 0.06117
1029.70 0.06115
1029.80 0.06112
1029.90 0.0611
1030.00 0.06108
1030.10 0.06105
1030.20 0.06103
1030.30 0.06101
1030.40 0.06099
1030.50 0.06096
1030.60 0.06094
1030.70 0.06092
1030.80 0.06089
1030.90 0.06087
1031.00 0.06085
1031.10 0.06083
1031.20 0.0608
1031.30 0.06078
1031.40 0.06076
1031.50 0.06074
1031.60 0.06071
1031.70 0.06069
1031.80 0.06067
1031.90 0.06064
1032.00 0.06062
1032.10 0.0606
1032.20 0.06058
1032.30 0.06055
1032.40 0.06053
1032.50 0.06051
1032.60 0.06049
1032.70 0.06046
1032.80 0.06044
1032.90 0.06042
1033.00 0.0604
1033.10 0.06037
1033.20 0.06035
1033.30 0.06033
1033.40 0.06031
1033.50 0.06028
1033.60 0.06026
1033.70 0.06024
1033.80 0.06022
1033.90 0.06019
1034.00 0.06017
1034.10 0.06015
1034.20 0.06013
1034.30 0.0601
1034.40 0.06008
1034.50 0.06006
1034.60 0.06004
1034.70 0.06001
1034.80 0.05999
1034.90 0.05997
1035.00 0.05995
1035.10 0.05992
1035.20 0.0599
1035.30 0.05988
1035.40 0.05986
1035.50 0.05983
1035.60 0.05981
1035.70 0.05979
1035.80 0.05977
1035.90 0.05974
1036.00 0.05972
1036.10 0.0597
1036.20 0.05968
1036.30 0.05965
1036.40 0.05963
1036.50 0.05961
1036.60 0.05959
1036.70 0.05957
1036.80 0.05954
1036.90 0.05952
1037.00 0.0595
1037.10 0.05948
1037.20 0.05945
1037.30 0.05943
1037.40 0.05941
1037.50 0.05939
1037.60 0.05936
1037.70 0.05934
1037.80 0.05932
1037.90 0.0593
1038.00 0.05928
1038.10 0.05925
1038.20 0.05923
1038.30 0.05921
1038.40 0.05919
1038.50 0.05916
1038.60 0.05914
1038.70 0.05912
1038.80 0.0591
1038.90 0.05908
1039.00 0.05905
1039.10 0.05903
1039.20 0.05901
1039.30 0.05899
1039.40 0.05897
1039.50 0.05894
1039.60 0.05892
1039.70 0.0589
1039.80 0.05888
1039.90 0.05886
1040.00 0.05883
1040.10 0.05881
1040.20 0.05879
1040.30 0.05877
1040.40 0.05875
1040.50 0.05872
1040.60 0.0587
1040.70 0.05868
1040.80 0.05866
1040.90 0.05864
1041.00 0.05861
1041.10 0.05859
1041.20 0.05857
1041.30 0.05855
1041.40 0.05853
1041.50 0.0585
1041.60 0.05848
1041.70 0.05846
1041.80 0.05844
1041.90 0.05842
1042.00 0.05839
1042.10 0.05837
1042.20 0.05835
1042.30 0.05833
1042.40 0.05831
1042.50 0.05828
1042.60 0.05826
1042.70 0.05824
1042.80 0.05822
1042.90 0.0582
1043.00 0.05818
1043.10 0.05815
1043.20 0.05813
1043.30 0.05811
1043.40 0.05809
1043.50 0.05807
1043.60 0.05804
1043.70 0.05802
1043.80 0.058
1043.90 0.05798
1044.00 0.05796
1044.10 0.05794
1044.20 0.05791
1044.30 0.05789
1044.40 0.05787
1044.50 0.05785
1044.60 0.05783
1044.70 0.05781
1044.80 0.05778
1044.90 0.05776
1045.00 0.05774
1045.10 0.05772
1045.20 0.0577
1045.30 0.05768
1045.40 0.05765
1045.50 0.05763
1045.60 0.05761
1045.70 0.05759
1045.80 0.05757
1045.90 0.05755
1046.00 0.05752
1046.10 0.0575
1046.20 0.05748
1046.30 0.05746
1046.40 0.05744
1046.50 0.05742
1046.60 0.05739
1046.70 0.05737
1046.80 0.05735
1046.90 0.05733
1047.00 0.05731
1047.10 0.05729
1047.20 0.05727
1047.30 0.05724
1047.40 0.05722
1047.50 0.0572
1047.60 0.05718
1047.70 0.05716
1047.80 0.05714
1047.90 0.05711
1048.00 0.05709
1048.10 0.05707
1048.20 0.05705
1048.30 0.05703
1048.40 0.05701
1048.50 0.05699
1048.60 0.05696
1048.70 0.05694
1048.80 0.05692
1048.90 0.0569
1049.00 0.05688
1049.10 0.05686
1049.20 0.05684
1049.30 0.05681
1049.40 0.05679
1049.50 0.05677
1049.60 0.05675
1049.70 0.05673
1049.80 0.05671
1049.90 0.05669
1050.00 0.05667
1050.10 0.05664
1050.20 0.05662
1050.30 0.0566
1050.40 0.05658
1050.50 0.05656
1050.60 0.05654
1050.70 0.05652
1050.80 0.0565
1050.90 0.05647
1051.00 0.05645
1051.10 0.05643
1051.20 0.05641
1051.30 0.05639
1051.40 0.05637
1051.50 0.05635
1051.60 0.05633
1051.70 0.0563
1051.80 0.05628
1051.90 0.05626
1052.00 0.05624
1052.10 0.05622
1052.20 0.0562
1052.30 0.05618
1052.40 0.05616
1052.50 0.05613
1052.60 0.05611
1052.70 0.05609
1052.80 0.05607
1052.90 0.05605
1053.00 0.05603
1053.10 0.05601
1053.20 0.05599
1053.30 0.05597
1053.40 0.05594
1053.50 0.05592
1053.60 0.0559
1053.70 0.05588
1053.80 0.05586
1053.90 0.05584
1054.00 0.05582
1054.10 0.0558
1054.20 0.05578
1054.30 0.05576
1054.40 0.05573
1054.50 0.05571
1054.60 0.05569
1054.70 0.05567
1054.80 0.05565
1054.90 0.05563
1055.00 0.05561
1055.10 0.05559
1055.20 0.05557
1055.30 0.05555
1055.40 0.05552
1055.50 0.0555
1055.60 0.05548
1055.70 0.05546
1055.80 0.05544
1055.90 0.05542
1056.00 0.0554
1056.10 0.05538
1056.20 0.05536
1056.30 0.05534
1056.40 0.05532
1056.50 0.05529
1056.60 0.05527
1056.70 0.05525
1056.80 0.05523
1056.90 0.05521
1057.00 0.05519
1057.10 0.05517
1057.20 0.05515
1057.30 0.05513
1057.40 0.05511
1057.50 0.05509
1057.60 0.05507
1057.70 0.05504
1057.80 0.05502
1057.90 0.055
1058.00 0.05498
1058.10 0.05496
1058.20 0.05494
1058.30 0.05492
1058.40 0.0549
1058.50 0.05488
1058.60 0.05486
1058.70 0.05484
1058.80 0.05482
1058.90 0.0548
1059.00 0.05477
1059.10 0.05475
1059.20 0.05473
1059.30 0.05471
1059.40 0.05469
1059.50 0.05467
1059.60 0.05465
1059.70 0.05463
1059.80 0.05461
1059.90 0.05459
1060.00 0.05457
1060.10 0.05455
1060.20 0.05453
1060.30 0.05451
1060.40 0.05449
1060.50 0.05446
1060.60 0.05444
1060.70 0.05442
1060.80 0.0544
1060.90 0.05438
1061.00 0.05436
1061.10 0.05434
1061.20 0.05432
1061.30 0.0543
1061.40 0.05428
1061.50 0.05426
1061.60 0.05424
1061.70 0.05422
1061.80 0.0542
1061.90 0.05418
1062.00 0.05416
1062.10 0.05414
1062.20 0.05411
1062.30 0.05409
1062.40 0.05407
1062.50 0.05405
1062.60 0.05403
1062.70 0.05401
1062.80 0.05399
1062.90 0.05397
1063.00 0.05395
1063.10 0.05393
1063.20 0.05391
1063.30 0.05389
1063.40 0.05387
1063.50 0.05385
1063.60 0.05383
1063.70 0.05381
1063.80 0.05379
1063.90 0.05377
1064.00 0.05375
1064.10 0.05373
1064.20 0.0537
1064.30 0.05368
1064.40 0.05366
1064.50 0.05364
1064.60 0.05362
1064.70 0.0536
1064.80 0.05358
1064.90 0.05356
1065.00 0.05354
1065.10 0.05352
1065.20 0.0535
1065.30 0.05348
1065.40 0.05346
1065.50 0.05344
1065.60 0.05342
1065.70 0.0534
1065.80 0.05338
1065.90 0.05336
1066.00 0.05334
1066.10 0.05332
1066.20 0.0533
1066.30 0.05328
1066.40 0.05326
1066.50 0.05324
1066.60 0.05322
1066.70 0.0532
1066.80 0.05318
1066.90 0.05316
1067.00 0.05314
1067.10 0.05312
1067.20 0.05309
1067.30 0.05307
1067.40 0.05305
1067.50 0.05303
1067.60 0.05301
1067.70 0.05299
1067.80 0.05297
1067.90 0.05295
1068.00 0.05293
1068.10 0.05291
1068.20 0.05289
1068.30 0.05287
1068.40 0.05285
1068.50 0.05283
1068.60 0.05281
1068.70 0.05279
1068.80 0.05277
1068.90 0.05275
1069.00 0.05273
1069.10 0.05271
1069.20 0.05269
1069.30 0.05267
1069.40 0.05265
1069.50 0.05263
1069.60 0.05261
1069.70 0.05259
1069.80 0.05257
1069.90 0.05255
1070.00 0.05253
1070.10 0.05251
1070.20 0.05249
1070.30 0.05247
1070.40 0.05245
1070.50 0.05243
1070.60 0.05241
1070.70 0.05239
1070.80 0.05237
1070.90 0.05235
1071.00 0.05233
1071.10 0.05231
1071.20 0.05229
1071.30 0.05227
1071.40 0.05225
1071.50 0.05223
1071.60 0.05221
1071.70 0.05219
1071.80 0.05217
1071.90 0.05215
1072.00 0.05213
1072.10 0.05211
1072.20 0.05209
1072.30 0.05207
1072.40 0.05205
1072.50 0.05203
1072.60 0.05201
1072.70 0.05199
1072.80 0.05197
1072.90 0.05195
1073.00 0.05193
1073.10 0.05191
1073.20 0.05189
1073.30 0.05187
1073.40 0.05185
1073.50 0.05183
1073.60 0.05181
1073.70 0.05179
1073.80 0.05177
1073.90 0.05175
1074.00 0.05173
1074.10 0.05171
1074.20 0.05169
1074.30 0.05167
1074.40 0.05165
1074.50 0.05163
1074.60 0.05161
1074.70 0.05159
1074.80 0.05157
1074.90 0.05155
1075.00 0.05153
1075.10 0.05151
1075.20 0.05149
1075.30 0.05147
1075.40 0.05145
1075.50 0.05143
1075.60 0.05141
1075.70 0.05139
1075.80 0.05137
1075.90 0.05135
1076.00 0.05133
1076.10 0.05131
1076.20 0.05129
1076.30 0.05127
1076.40 0.05125
1076.50 0.05123
1076.60 0.05121
1076.70 0.05119
1076.80 0.05117
1076.90 0.05115
1077.00 0.05113
1077.10 0.05111
1077.20 0.05109
1077.30 0.05107
1077.40 0.05105
1077.50 0.05103
1077.60 0.05101
1077.70 0.05099
1077.80 0.05097
1077.90 0.05095
1078.00 0.05093
1078.10 0.05091
1078.20 0.05089
1078.30 0.05087
1078.40 0.05085
1078.50 0.05083
1078.60 0.05081
1078.70 0.05079
1078.80 0.05077
1078.90 0.05076
1079.00 0.05074
1079.10 0.05072
1079.20 0.0507
1079.30 0.05068
1079.40 0.05066
1079.50 0.05064
1079.60 0.05062
1079.70 0.0506
1079.80 0.05058
1079.90 0.05056
1080.00 0.05054
1080.10 0.05052
1080.20 0.0505
1080.30 0.05048
1080.40 0.05046
1080.50 0.05044
1080.60 0.05042
1080.70 0.0504
1080.80 0.05038
1080.90 0.05036
1081.00 0.05034
1081.10 0.05032
1081.20 0.0503
1081.30 0.05028
1081.40 0.05026
1081.50 0.05024
1081.60 0.05022
1081.70 0.0502
1081.80 0.05018
1081.90 0.05017
1082.00 0.05015
1082.10 0.05013
1082.20 0.05011
1082.30 0.05009
1082.40 0.05007
1082.50 0.05005
1082.60 0.05003
1082.70 0.05001
1082.80 0.04999
1082.90 0.04997
1083.00 0.04995
1083.10 0.04993
1083.20 0.04991
1083.30 0.04989
1083.40 0.04987
1083.50 0.04985
1083.60 0.04983
1083.70 0.04981
1083.80 0.04979
1083.90 0.04977
1084.00 0.04976
1084.10 0.04974
1084.20 0.04972
1084.30 0.0497
1084.40 0.04968
1084.50 0.04966
1084.60 0.04964
1084.70 0.04962
1084.80 0.0496
1084.90 0.04958
1085.00 0.04956
1085.10 0.04954
1085.20 0.04952
1085.30 0.0495
1085.40 0.04948
1085.50 0.04946
1085.60 0.04944
1085.70 0.04942
1085.80 0.04941
1085.90 0.04939
1086.00 0.04937
1086.10 0.04935
1086.20 0.04933
1086.30 0.04931
1086.40 0.04929
1086.50 0.04927
1086.60 0.04925
1086.70 0.04923
1086.80 0.04921
1086.90 0.04919
1087.00 0.04917
1087.10 0.04915
1087.20 0.04914
1087.30 0.04912
1087.40 0.0491
1087.50 0.04908
1087.60 0.04906
1087.70 0.04904
1087.80 0.04902
1087.90 0.049
1088.00 0.04898
1088.10 0.04896
1088.20 0.04894
1088.30 0.04892
1088.40 0.0489
1088.50 0.04889
1088.60 0.04887
1088.70 0.04885
1088.80 0.04883
1088.90 0.04881
1089.00 0.04879
1089.10 0.04877
1089.20 0.04875
1089.30 0.04873
1089.40 0.04871
1089.50 0.04869
1089.60 0.04867
1089.70 0.04865
1089.80 0.04864
1089.90 0.04862
1090.00 0.0486
1090.10 0.04858
1090.20 0.04856
1090.30 0.04854
1090.40 0.04852
1090.50 0.0485
1090.60 0.04848
1090.70 0.04846
1090.80 0.04844
1090.90 0.04843
1091.00 0.04841
1091.10 0.04839
1091.20 0.04837
1091.30 0.04835
1091.40 0.04833
1091.50 0.04831
1091.60 0.04829
1091.70 0.04827
1091.80 0.04825
1091.90 0.04823
1092.00 0.04822
1092.10 0.0482
1092.20 0.04818
1092.30 0.04816
1092.40 0.04814
1092.50 0.04812
1092.60 0.0481
1092.70 0.04808
1092.80 0.04807
1092.90 0.04805
1093.00 0.04803
1093.10 0.04801
1093.20 0.04799
1093.30 0.04798
1093.40 0.04796
1093.50 0.04794
1093.60 0.04793
1093.70 0.04791
1093.80 0.0479
1093.90 0.04788
1094.00 0.04787
1094.10 0.04786
1094.20 0.04784
1094.30 0.04783
1094.40 0.04781
1094.50 0.0478
1094.60 0.04778
1094.70 0.04776
1094.80 0.04775
1094.90 0.04773
1095.00 0.04772
1095.10 0.0477
1095.20 0.04769
1095.30 0.04767
1095.40 0.04766
1095.50 0.04764
1095.60 0.04763
1095.70 0.04761
1095.80 0.0476
1095.90 0.04758
1096.00 0.04757
1096.10 0.04755
1096.20 0.04754
1096.30 0.04752
1096.40 0.04751
1096.50 0.04749
1096.60 0.04748
1096.70 0.04746
1096.80 0.04745
1096.90 0.04743
1097.00 0.04742
1097.10 0.0474
1097.20 0.04739
1097.30 0.04737
1097.40 0.04736
1097.50 0.04734
1097.60 0.04733
1097.70 0.04731
1097.80 0.0473
1097.90 0.04728
1098.00 0.04727
1098.10 0.04725
1098.20 0.04724
1098.30 0.04722
1098.40 0.04721
1098.50 0.04719
1098.60 0.04718
1098.70 0.04716
1098.80 0.04715
1098.90 0.04713
1099.00 0.04712
1099.10 0.0471
1099.20 0.04709
1099.30 0.04707
1099.40 0.04706
1099.50 0.04704
1099.60 0.04703
1099.70 0.04701
1099.80 0.047
1099.90 0.04698
1100.00 0.04697
1100.10 0.04695
1100.20 0.04694
1100.30 0.04692
1100.40 0.04691
1100.50 0.04689
1100.60 0.04688
1100.70 0.04686
1100.80 0.04685
1100.90 0.04683
1101.00 0.04682
1101.10 0.0468
1101.20 0.04679
1101.30 0.04677
1101.40 0.04676
1101.50 0.04674
1101.60 0.04673
1101.70 0.04671
1101.80 0.0467
1101.90 0.04668
1102.00 0.04667
1102.10 0.04665
1102.20 0.04664
1102.30 0.04663
1102.40 0.04661
1102.50 0.0466
1102.60 0.04658
1102.70 0.04657
1102.80 0.04655
1102.90 0.04654
1103.00 0.04652
1103.10 0.04651
1103.20 0.04649
1103.30 0.04648
1103.40 0.04646
1103.50 0.04645
1103.60 0.04643
1103.70 0.04642
1103.80 0.0464
1103.90 0.04639
1104.00 0.04637
1104.10 0.04636
1104.20 0.04634
1104.30 0.04633
1104.40 0.04631
1104.50 0.0463
1104.60 0.04628
1104.70 0.04627
1104.80 0.04625
1104.90 0.04624
1105.00 0.04622
1105.10 0.04621
1105.20 0.04619
1105.30 0.04618
1105.40 0.04616
1105.50 0.04615
1105.60 0.04613
1105.70 0.04612
1105.80 0.0461
1105.90 0.04609
1106.00 0.04607
1106.10 0.04606
1106.20 0.04605
1106.30 0.04603
1106.40 0.04602
1106.50 0.046
1106.60 0.04599
1106.70 0.04597
1106.80 0.04596
1106.90 0.04594
1107.00 0.04593
1107.10 0.04591
1107.20 0.0459
1107.30 0.04588
1107.40 0.04587
1107.50 0.04585
1107.60 0.04584
1107.70 0.04582
1107.80 0.04581
1107.90 0.04579
1108.00 0.04578
1108.10 0.04576
1108.20 0.04575
1108.30 0.04573
1108.40 0.04572
1108.50 0.0457
1108.60 0.04569
1108.70 0.04567
1108.80 0.04566
1108.90 0.04565
1109.00 0.04563
1109.10 0.04562
1109.20 0.0456
1109.30 0.04559
1109.40 0.04557
1109.50 0.04556
1109.60 0.04554
1109.70 0.04553
1109.80 0.04551
1109.90 0.0455
1110.00 0.04548
1110.10 0.04547
1110.20 0.04545
1110.30 0.04544
1110.40 0.04542
1110.50 0.04541
1110.60 0.04539
1110.70 0.04538
1110.80 0.04536
1110.90 0.04535
1111.00 0.04533
1111.10 0.04532
1111.20 0.04531
1111.30 0.04529
1111.40 0.04528
1111.50 0.04526
1111.60 0.04525
1111.70 0.04523
1111.80 0.04522
1111.90 0.0452
1112.00 0.04519
1112.10 0.04517
1112.20 0.04516
1112.30 0.04514
1112.40 0.04513
1112.50 0.04511
1112.60 0.0451
1112.70 0.04508
1112.80 0.04507
1112.90 0.04505
1113.00 0.04504
1113.10 0.04502
1113.20 0.04501
1113.30 0.045
1113.40 0.04498
1113.50 0.04497
1113.60 0.04495
1113.70 0.04494
1113.80 0.04492
1113.90 0.04491
1114.00 0.04489
1114.10 0.04488
1114.20 0.04486
1114.30 0.04485
1114.40 0.04483
1114.50 0.04482
1114.60 0.0448
1114.70 0.04479
1114.80 0.04477
1114.90 0.04476
1115.00 0.04474
1115.10 0.04473
1115.20 0.04471
1115.30 0.0447
1115.40 0.04469
1115.50 0.04467
1115.60 0.04466
1115.70 0.04464
1115.80 0.04463
1115.90 0.04461
1116.00 0.0446
1116.10 0.04458
1116.20 0.04457
1116.30 0.04455
1116.40 0.04454
1116.50 0.04452
1116.60 0.04451
1116.70 0.04449
1116.80 0.04448
1116.90 0.04447
1117.00 0.04445
1117.10 0.04444
1117.20 0.04442
1117.30 0.04441
1117.40 0.04439
1117.50 0.04438
1117.60 0.04436
1117.70 0.04435
1117.80 0.04433
1117.90 0.04432
1118.00 0.0443
1118.10 0.04429
1118.20 0.04427
1118.30 0.04426
1118.40 0.04424
1118.50 0.04423
1118.60 0.04421
1118.70 0.0442
1118.80 0.04419
1118.90 0.04417
1119.00 0.04416
1119.10 0.04414
1119.20 0.04413
1119.30 0.04411
1119.40 0.0441
1119.50 0.04408
1119.60 0.04407
1119.70 0.04405
1119.80 0.04404
1119.90 0.04402
1120.00 0.04401
1120.10 0.044
1120.20 0.04398
1120.30 0.04397
1120.40 0.04395
1120.50 0.04394
1120.60 0.04392
1120.70 0.04391
1120.80 0.04389
1120.90 0.04388
1121.00 0.04386
1121.10 0.04385
1121.20 0.04383
1121.30 0.04382
1121.40 0.04381
1121.50 0.04379
1121.60 0.04378
1121.70 0.04376
1121.80 0.04375
1121.90 0.04373
1122.00 0.04372
1122.10 0.0437
1122.20 0.04369
1122.30 0.04367
1122.40 0.04366
1122.50 0.04365
1122.60 0.04363
1122.70 0.04362
1122.80 0.0436
1122.90 0.04359
1123.00 0.04357
1123.10 0.04356
1123.20 0.04354
1123.30 0.04353
1123.40 0.04351
1123.50 0.0435
1123.60 0.04348
1123.70 0.04347
1123.80 0.04346
1123.90 0.04344
1124.00 0.04343
1124.10 0.04341
1124.20 0.0434
1124.30 0.04338
1124.40 0.04337
1124.50 0.04335
1124.60 0.04334
1124.70 0.04332
1124.80 0.04331
1124.90 0.0433
1125.00 0.04328
1125.10 0.04327
1125.20 0.04325
1125.30 0.04324
1125.40 0.04322
1125.50 0.04321
1125.60 0.04319
1125.70 0.04318
1125.80 0.04317
1125.90 0.04315
1126.00 0.04314
1126.10 0.04312
1126.20 0.04311
1126.30 0.04309
1126.40 0.04308
1126.50 0.04306
1126.60 0.04305
1126.70 0.04304
1126.80 0.04302
1126.90 0.04301
1127.00 0.04299
1127.10 0.04298
1127.20 0.04296
1127.30 0.04295
1127.40 0.04293
1127.50 0.04292
1127.60 0.04291
1127.70 0.04289
1127.80 0.04288
1127.90 0.04286
1128.00 0.04285
1128.10 0.04283
1128.20 0.04282
1128.30 0.0428
1128.40 0.04279
1128.50 0.04278
1128.60 0.04276
1128.70 0.04275
1128.80 0.04273
1128.90 0.04272
1129.00 0.0427
1129.10 0.04269
1129.20 0.04267
1129.30 0.04266
1129.40 0.04265
1129.50 0.04263
1129.60 0.04262
1129.70 0.0426
1129.80 0.04259
1129.90 0.04257
1130.00 0.04256
1130.10 0.04255
1130.20 0.04253
1130.30 0.04252
1130.40 0.0425
1130.50 0.04249
1130.60 0.04247
1130.70 0.04246
1130.80 0.04245
1130.90 0.04243
1131.00 0.04242
1131.10 0.0424
1131.20 0.04239
1131.30 0.04237
1131.40 0.04236
1131.50 0.04235
1131.60 0.04233
1131.70 0.04232
1131.80 0.0423
1131.90 0.04229
1132.00 0.04227
1132.10 0.04226
1132.20 0.04225
1132.30 0.04223
1132.40 0.04222
1132.50 0.0422
1132.60 0.04219
1132.70 0.04217
1132.80 0.04216
1132.90 0.04215
1133.00 0.04213
1133.10 0.04212
1133.20 0.0421
1133.30 0.04209
1133.40 0.04207
1133.50 0.04206
1133.60 0.04205
1133.70 0.04203
1133.80 0.04202
1133.90 0.042
1134.00 0.04199
1134.10 0.04198
1134.20 0.04196
1134.30 0.04195
1134.40 0.04193
1134.50 0.04192
1134.60 0.0419
1134.70 0.04189
1134.80 0.04188
1134.90 0.04186
1135.00 0.04185
1135.10 0.04183
1135.20 0.04182
1135.30 0.04181
1135.40 0.04179
1135.50 0.04178
1135.60 0.04176
1135.70 0.04175
1135.80 0.04173
1135.90 0.04172
1136.00 0.04171
1136.10 0.04169
1136.20 0.04168
1136.30 0.04166
1136.40 0.04165
1136.50 0.04164
1136.60 0.04162
1136.70 0.04161
1136.80 0.04159
1136.90 0.04158
1137.00 0.04157
1137.10 0.04155
1137.20 0.04154
1137.30 0.04152
1137.40 0.04151
1137.50 0.0415
1137.60 0.04148
1137.70 0.04147
1137.80 0.04145
1137.90 0.04144
1138.00 0.04143
1138.10 0.04141
1138.20 0.0414
1138.30 0.04138
1138.40 0.04137
1138.50 0.04136
1138.60 0.04134
1138.70 0.04133
1138.80 0.04131
1138.90 0.0413
1139.00 0.04129
1139.10 0.04127
1139.20 0.04126
1139.30 0.04124
1139.40 0.04123
1139.50 0.04122
1139.60 0.0412
1139.70 0.04119
1139.80 0.04117
1139.90 0.04116
1140.00 0.04115
1140.10 0.04113
1140.20 0.04112
1140.30 0.0411
1140.40 0.04109
1140.50 0.04108
1140.60 0.04106
1140.70 0.04105
1140.80 0.04103
1140.90 0.04102
1141.00 0.04101
1141.10 0.04099
1141.20 0.04098
1141.30 0.04097
1141.40 0.04095
1141.50 0.04094
1141.60 0.04092
1141.70 0.04091
1141.80 0.0409
1141.90 0.04088
1142.00 0.04087
1142.10 0.04085
1142.20 0.04084
1142.30 0.04083
1142.40 0.04081
1142.50 0.0408
1142.60 0.04079
1142.70 0.04077
1142.80 0.04076
1142.90 0.04074
1143.00 0.04073
1143.10 0.04072
1143.20 0.0407
1143.30 0.04069
1143.40 0.04068
1143.50 0.04066
1143.60 0.04065
1143.70 0.04063
1143.80 0.04062
1143.90 0.04061
1144.00 0.04059
1144.10 0.04058
1144.20 0.04057
1144.30 0.04055
1144.40 0.04054
1144.50 0.04052
1144.60 0.04051
1144.70 0.0405
1144.80 0.04048
1144.90 0.04047
1145.00 0.04046
1145.10 0.04044
1145.20 0.04043
1145.30 0.04041
1145.40 0.0404
1145.50 0.04039
1145.60 0.04037
1145.70 0.04036
1145.80 0.04035
1145.90 0.04033
1146.00 0.04032
1146.10 0.04031
1146.20 0.04029
1146.30 0.04028
1146.40 0.04026
1146.50 0.04025
1146.60 0.04024
1146.70 0.04022
1146.80 0.04021
1146.90 0.0402
1147.00 0.04018
1147.10 0.04017
1147.20 0.04016
1147.30 0.04014
1147.40 0.04013
1147.50 0.04012
1147.60 0.0401
1147.70 0.04009
1147.80 0.04007
1147.90 0.04006
1148.00 0.04005
1148.10 0.04003
1148.20 0.04002
1148.30 0.04001
1148.40 0.03999
1148.50 0.03998
1148.60 0.03997
1148.70 0.03995
1148.80 0.03994
1148.90 0.03993
1149.00 0.03991
1149.10 0.0399
1149.20 0.03989
1149.30 0.03987
1149.40 0.03986
1149.50 0.03984
1149.60 0.03983
1149.70 0.03982
1149.80 0.0398
1149.90 0.03979
1150.00 0.03978
1150.10 0.03976
1150.20 0.03975
1150.30 0.03974
1150.40 0.03972
1150.50 0.03971
1150.60 0.0397
1150.70 0.03968
1150.80 0.03967
1150.90 0.03966
1151.00 0.03964
1151.10 0.03963
1151.20 0.03962
1151.30 0.0396
1151.40 0.03959
1151.50 0.03958
1151.60 0.03956
1151.70 0.03955
1151.80 0.03954
1151.90 0.03952
1152.00 0.03951
1152.10 0.0395
1152.20 0.03948
1152.30 0.03947
1152.40 0.03946
1152.50 0.03944
1152.60 0.03943
1152.70 0.03942
1152.80 0.0394
1152.90 0.03939
1153.00 0.03938
1153.10 0.03936
1153.20 0.03935
1153.30 0.03934
1153.40 0.03932
1153.50 0.03931
1153.60 0.0393
1153.70 0.03928
1153.80 0.03927
1153.90 0.03926
1154.00 0.03924
1154.10 0.03923
1154.20 0.03922
1154.30 0.0392
1154.40 0.03919
1154.50 0.03918
1154.60 0.03916
1154.70 0.03915
1154.80 0.03914
1154.90 0.03912
1155.00 0.03911
1155.10 0.0391
1155.20 0.03909
1155.30 0.03907
1155.40 0.03906
1155.50 0.03905
1155.60 0.03903
1155.70 0.03902
1155.80 0.03901
1155.90 0.03899
1156.00 0.03898
1156.10 0.03897
1156.20 0.03895
1156.30 0.03894
1156.40 0.03893
1156.50 0.03891
1156.60 0.0389
1156.70 0.03889
1156.80 0.03887
1156.90 0.03886
1157.00 0.03885
1157.10 0.03884
1157.20 0.03882
1157.30 0.03881
1157.40 0.0388
1157.50 0.03878
1157.60 0.03877
1157.70 0.03876
1157.80 0.03874
1157.90 0.03873
1158.00 0.03872
1158.10 0.0387
1158.20 0.03869
1158.30 0.03868
1158.40 0.03867
1158.50 0.03865
1158.60 0.03864
1158.70 0.03863
1158.80 0.03861
1158.90 0.0386
1159.00 0.03859
1159.10 0.03857
1159.20 0.03856
1159.30 0.03855
1159.40 0.03854
1159.50 0.03852
1159.60 0.03851
1159.70 0.0385
1159.80 0.03848
1159.90 0.03847
1160.00 0.03846
1160.10 0.03844
1160.20 0.03843
1160.30 0.03842
1160.40 0.03841
1160.50 0.03839
1160.60 0.03838
1160.70 0.03837
1160.80 0.03835
1160.90 0.03834
1161.00 0.03833
1161.10 0.03832
1161.20 0.0383
1161.30 0.03829
1161.40 0.03828
1161.50 0.03826
1161.60 0.03825
1161.70 0.03824
1161.80 0.03823
1161.90 0.03821
1162.00 0.0382
1162.10 0.03819
1162.20 0.03817
1162.30 0.03816
1162.40 0.03815
1162.50 0.03814
1162.60 0.03812
1162.70 0.03811
1162.80 0.0381
1162.90 0.03808
1163.00 0.03807
1163.10 0.03806
1163.20 0.03805
1163.30 0.03803
1163.40 0.03802
1163.50 0.03801
1163.60 0.03799
1163.70 0.03798
1163.80 0.03797
1163.90 0.03796
1164.00 0.03794
1164.10 0.03793
1164.20 0.03792
1164.30 0.03791
1164.40 0.03789
1164.50 0.03788
1164.60 0.03787
1164.70 0.03785
1164.80 0.03784
1164.90 0.03783
1165.00 0.03782
1165.10 0.0378
1165.20 0.03779
1165.30 0.03778
1165.40 0.03777
1165.50 0.03775
1165.60 0.03774
1165.70 0.03773
1165.80 0.03771
1165.90 0.0377
1166.00 0.03769
1166.10 0.03768
1166.20 0.03766
1166.30 0.03765
1166.40 0.03764
1166.50 0.03763
1166.60 0.03761
1166.70 0.0376
1166.80 0.03759
1166.90 0.03758
1167.00 0.03756
1167.10 0.03755
1167.20 0.03754
1167.30 0.03753
1167.40 0.03751
1167.50 0.0375
1167.60 0.03749
1167.70 0.03748
1167.80 0.03746
1167.90 0.03745
1168.00 0.03744
1168.10 0.03742
1168.20 0.03741
1168.30 0.0374
1168.40 0.03739
1168.50 0.03737
1168.60 0.03736
1168.70 0.03735
1168.80 0.03734
1168.90 0.03732
1169.00 0.03731
1169.10 0.0373
1169.20 0.03729
1169.30 0.03727
1169.40 0.03726
1169.50 0.03725
1169.60 0.03724
1169.70 0.03722
1169.80 0.03721
1169.90 0.0372
1170.00 0.03719
1170.10 0.03718
1170.20 0.03716
1170.30 0.03715
1170.40 0.03714
1170.50 0.03713
1170.60 0.03711
1170.70 0.0371
1170.80 0.03709
1170.90 0.03708
1171.00 0.03706
1171.10 0.03705
1171.20 0.03704
1171.30 0.03703
1171.40 0.03701
1171.50 0.037
1171.60 0.03699
1171.70 0.03698
1171.80 0.03696
1171.90 0.03695
1172.00 0.03694
1172.10 0.03693
1172.20 0.03691
1172.30 0.0369
1172.40 0.03689
1172.50 0.03688
1172.60 0.03687
1172.70 0.03685
1172.80 0.03684
1172.90 0.03683
1173.00 0.03682
1173.10 0.0368
1173.20 0.03679
1173.30 0.03678
1173.40 0.03677
1173.50 0.03675
1173.60 0.03674
1173.70 0.03673
1173.80 0.03672
1173.90 0.03671
1174.00 0.03669
1174.10 0.03668
1174.20 0.03667
1174.30 0.03666
1174.40 0.03664
1174.50 0.03663
1174.60 0.03662
1174.70 0.03661
1174.80 0.0366
1174.90 0.03658
1175.00 0.03657
1175.10 0.03656
1175.20 0.03655
1175.30 0.03653
1175.40 0.03652
1175.50 0.03651
1175.60 0.0365
1175.70 0.03649
1175.80 0.03647
1175.90 0.03646
1176.00 0.03645
1176.10 0.03644
1176.20 0.03642
1176.30 0.03641
1176.40 0.0364
1176.50 0.03639
1176.60 0.03638
1176.70 0.03636
1176.80 0.03635
1176.90 0.03634
1177.00 0.03633
1177.10 0.03632
1177.20 0.0363
1177.30 0.03629
1177.40 0.03628
1177.50 0.03627
1177.60 0.03625
1177.70 0.03624
1177.80 0.03623
1177.90 0.03622
1178.00 0.03621
1178.10 0.03619
1178.20 0.03618
1178.30 0.03617
1178.40 0.03616
1178.50 0.03615
1178.60 0.03613
1178.70 0.03612
1178.80 0.03611
1178.90 0.0361
1179.00 0.03609
1179.10 0.03607
1179.20 0.03606
1179.30 0.03605
1179.40 0.03604
1179.50 0.03603
1179.60 0.03601
1179.70 0.036
1179.80 0.03599
1179.90 0.03598
1180.00 0.03597
1180.10 0.03595
1180.20 0.03594
1180.30 0.03593
1180.40 0.03592
1180.50 0.03591
1180.60 0.03589
1180.70 0.03588
1180.80 0.03587
1180.90 0.03586
1181.00 0.03585
1181.10 0.03583
1181.20 0.03582
1181.30 0.03581
1181.40 0.0358
1181.50 0.03579
1181.60 0.03578
1181.70 0.03576
1181.80 0.03575
1181.90 0.03574
1182.00 0.03573
1182.10 0.03572
1182.20 0.0357
1182.30 0.03569
1182.40 0.03568
1182.50 0.03567
1182.60 0.03566
1182.70 0.03564
1182.80 0.03563
1182.90 0.03562
1183.00 0.03561
1183.10 0.0356
1183.20 0.03559
1183.30 0.03557
1183.40 0.03556
1183.50 0.03555
1183.60 0.03554
1183.70 0.03553
1183.80 0.03551
1183.90 0.0355
1184.00 0.03549
1184.10 0.03548
1184.20 0.03547
1184.30 0.03546
1184.40 0.03544
1184.50 0.03543
1184.60 0.03542
1184.70 0.03541
1184.80 0.0354
1184.90 0.03539
1185.00 0.03537
1185.10 0.03536
1185.20 0.03535
1185.30 0.03534
1185.40 0.03533
1185.50 0.03532
1185.60 0.0353
1185.70 0.03529
1185.80 0.03528
1185.90 0.03527
1186.00 0.03526
1186.10 0.03524
1186.20 0.03523
1186.30 0.03522
1186.40 0.03521
1186.50 0.0352
1186.60 0.03519
1186.70 0.03517
1186.80 0.03516
1186.90 0.03515
1187.00 0.03514
1187.10 0.03513
1187.20 0.03512
1187.30 0.0351
1187.40 0.03509
1187.50 0.03508
1187.60 0.03507
1187.70 0.03506
1187.80 0.03505
1187.90 0.03504
1188.00 0.03502
1188.10 0.03501
1188.20 0.035
1188.30 0.03499
1188.40 0.03498
1188.50 0.03497
1188.60 0.03495
1188.70 0.03494
1188.80 0.03493
1188.90 0.03492
1189.00 0.03491
1189.10 0.0349
1189.20 0.03488
1189.30 0.03487
1189.40 0.03486
1189.50 0.03485
1189.60 0.03484
1189.70 0.03483
1189.80 0.03482
1189.90 0.0348
1190.00 0.03479
1190.10 0.03478
1190.20 0.03477
1190.30 0.03476
1190.40 0.03475
1190.50 0.03474
1190.60 0.03472
1190.70 0.03471
1190.80 0.0347
1190.90 0.03469
1191.00 0.03468
1191.10 0.03467
1191.20 0.03465
1191.30 0.03464
1191.40 0.03463
1191.50 0.03462
1191.60 0.03461
1191.70 0.0346
1191.80 0.03459
1191.90 0.03457
1192.00 0.03456
1192.10 0.03455
1192.20 0.03454
1192.30 0.03453
1192.40 0.03452
1192.50 0.03451
1192.60 0.03449
1192.70 0.03448
1192.80 0.03447
1192.90 0.03446
1193.00 0.03445
1193.10 0.03444
1193.20 0.03443
1193.30 0.03442
1193.40 0.0344
1193.50 0.03439
1193.60 0.03438
1193.70 0.03437
1193.80 0.03436
1193.90 0.03435
1194.00 0.03434
1194.10 0.03432
1194.20 0.03431
1194.30 0.0343
1194.40 0.03429
1194.50 0.03428
1194.60 0.03427
1194.70 0.03426
1194.80 0.03425
1194.90 0.03423
1195.00 0.03422
1195.10 0.03421
1195.20 0.0342
1195.30 0.03419
1195.40 0.03418
1195.50 0.03417
1195.60 0.03415
1195.70 0.03414
1195.80 0.03413
1195.90 0.03412
1196.00 0.03411
1196.10 0.0341
1196.20 0.03409
1196.30 0.03408
1196.40 0.03406
1196.50 0.03405
1196.60 0.03404
1196.70 0.03403
1196.80 0.03402
1196.90 0.03401
1197.00 0.034
1197.10 0.03399
1197.20 0.03397
1197.30 0.03396
1197.40 0.03395
1197.50 0.03394
1197.60 0.03393
1197.70 0.03392
1197.80 0.03391
1197.90 0.0339
1198.00 0.03389
1198.10 0.03387
1198.20 0.03386
1198.30 0.03385
1198.40 0.03384
1198.50 0.03383
1198.60 0.03382
1198.70 0.03381
1198.80 0.0338
1198.90 0.03379
1199.00 0.03377
1199.10 0.03376
1199.20 0.03375
1199.30 0.03374
1199.40 0.03373
1199.50 0.03372
1199.60 0.03371
1199.70 0.0337
1199.80 0.03369
1199.90 0.03367
1200.00 0
