# Version 2.1 - nm, norm@500 to 1, cut digits, bergeron_45000_70.dat_45000
# Wavelength(nm)  Flambda(ergs/cm^s/s/nm)
300.00 6.025
300.10 6.017
300.20 6.01
300.30 6.003
300.40 5.996
300.50 5.989
300.60 5.982
300.70 5.975
300.80 5.967
300.90 5.96
301.00 5.953
301.10 5.946
301.20 5.939
301.30 5.932
301.40 5.925
301.50 5.918
301.60 5.911
301.70 5.904
301.80 5.897
301.90 5.89
302.00 5.883
302.10 5.876
302.20 5.869
302.30 5.862
302.40 5.855
302.50 5.848
302.60 5.841
302.70 5.834
302.80 5.827
302.90 5.82
303.00 5.813
303.10 5.807
303.20 5.8
303.30 5.793
303.40 5.786
303.50 5.779
303.60 5.772
303.70 5.765
303.80 5.759
303.90 5.752
304.00 5.745
304.10 5.738
304.20 5.732
304.30 5.725
304.40 5.718
304.50 5.711
304.60 5.705
304.70 5.698
304.80 5.691
304.90 5.684
305.00 5.678
305.10 5.671
305.20 5.664
305.30 5.658
305.40 5.651
305.50 5.644
305.60 5.638
305.70 5.631
305.80 5.625
305.90 5.618
306.00 5.611
306.10 5.605
306.20 5.598
306.30 5.592
306.40 5.585
306.50 5.579
306.60 5.572
306.70 5.566
306.80 5.559
306.90 5.553
307.00 5.546
307.10 5.54
307.20 5.533
307.30 5.527
307.40 5.52
307.50 5.514
307.60 5.507
307.70 5.501
307.80 5.494
307.90 5.488
308.00 5.482
308.10 5.475
308.20 5.469
308.30 5.463
308.40 5.456
308.50 5.45
308.60 5.443
308.70 5.437
308.80 5.431
308.90 5.424
309.00 5.418
309.10 5.412
309.20 5.406
309.30 5.399
309.40 5.393
309.50 5.387
309.60 5.381
309.70 5.374
309.80 5.368
309.90 5.362
310.00 5.356
310.10 5.349
310.20 5.343
310.30 5.337
310.40 5.331
310.50 5.325
310.60 5.319
310.70 5.312
310.80 5.306
310.90 5.3
311.00 5.294
311.10 5.288
311.20 5.282
311.30 5.276
311.40 5.27
311.50 5.263
311.60 5.257
311.70 5.251
311.80 5.245
311.90 5.239
312.00 5.233
312.10 5.227
312.20 5.221
312.30 5.215
312.40 5.209
312.50 5.203
312.60 5.197
312.70 5.191
312.80 5.185
312.90 5.179
313.00 5.173
313.10 5.167
313.20 5.161
313.30 5.155
313.40 5.15
313.50 5.144
313.60 5.138
313.70 5.132
313.80 5.126
313.90 5.12
314.00 5.114
314.10 5.108
314.20 5.103
314.30 5.097
314.40 5.091
314.50 5.085
314.60 5.079
314.70 5.073
314.80 5.068
314.90 5.062
315.00 5.056
315.10 5.05
315.20 5.044
315.30 5.039
315.40 5.033
315.50 5.027
315.60 5.022
315.70 5.016
315.80 5.01
315.90 5.004
316.00 4.999
316.10 4.993
316.20 4.987
316.30 4.982
316.40 4.976
316.50 4.97
316.60 4.965
316.70 4.959
316.80 4.953
316.90 4.948
317.00 4.942
317.10 4.937
317.20 4.931
317.30 4.925
317.40 4.92
317.50 4.914
317.60 4.909
317.70 4.903
317.80 4.897
317.90 4.892
318.00 4.886
318.10 4.881
318.20 4.875
318.30 4.87
318.40 4.864
318.50 4.859
318.60 4.853
318.70 4.848
318.80 4.842
318.90 4.837
319.00 4.831
319.10 4.826
319.20 4.821
319.30 4.815
319.40 4.81
319.50 4.804
319.60 4.799
319.70 4.793
319.80 4.788
319.90 4.783
320.00 4.777
320.10 4.772
320.20 4.766
320.30 4.761
320.40 4.756
320.50 4.75
320.60 4.745
320.70 4.74
320.80 4.734
320.90 4.729
321.00 4.724
321.10 4.718
321.20 4.713
321.30 4.708
321.40 4.703
321.50 4.697
321.60 4.692
321.70 4.687
321.80 4.682
321.90 4.676
322.00 4.671
322.10 4.666
322.20 4.661
322.30 4.655
322.40 4.65
322.50 4.645
322.60 4.64
322.70 4.635
322.80 4.629
322.90 4.624
323.00 4.619
323.10 4.614
323.20 4.609
323.30 4.604
323.40 4.599
323.50 4.593
323.60 4.588
323.70 4.583
323.80 4.578
323.90 4.573
324.00 4.568
324.10 4.563
324.20 4.558
324.30 4.553
324.40 4.548
324.50 4.543
324.60 4.538
324.70 4.532
324.80 4.527
324.90 4.522
325.00 4.517
325.10 4.512
325.20 4.507
325.30 4.502
325.40 4.497
325.50 4.492
325.60 4.487
325.70 4.482
325.80 4.478
325.90 4.473
326.00 4.468
326.10 4.463
326.20 4.458
326.30 4.453
326.40 4.448
326.50 4.443
326.60 4.438
326.70 4.433
326.80 4.428
326.90 4.423
327.00 4.418
327.10 4.414
327.20 4.409
327.30 4.404
327.40 4.399
327.50 4.394
327.60 4.389
327.70 4.384
327.80 4.38
327.90 4.375
328.00 4.37
328.10 4.365
328.20 4.36
328.30 4.356
328.40 4.351
328.50 4.346
328.60 4.341
328.70 4.337
328.80 4.332
328.90 4.327
329.00 4.322
329.10 4.317
329.20 4.313
329.30 4.308
329.40 4.303
329.50 4.299
329.60 4.294
329.70 4.289
329.80 4.284
329.90 4.28
330.00 4.275
330.10 4.27
330.20 4.266
330.30 4.261
330.40 4.256
330.50 4.252
330.60 4.247
330.70 4.243
330.80 4.238
330.90 4.233
331.00 4.229
331.10 4.224
331.20 4.219
331.30 4.215
331.40 4.21
331.50 4.206
331.60 4.201
331.70 4.196
331.80 4.192
331.90 4.187
332.00 4.183
332.10 4.178
332.20 4.174
332.30 4.169
332.40 4.165
332.50 4.16
332.60 4.156
332.70 4.151
332.80 4.147
332.90 4.142
333.00 4.138
333.10 4.133
333.20 4.129
333.30 4.124
333.40 4.12
333.50 4.115
333.60 4.111
333.70 4.106
333.80 4.102
333.90 4.097
334.00 4.093
334.10 4.088
334.20 4.084
334.30 4.08
334.40 4.075
334.50 4.071
334.60 4.066
334.70 4.062
334.80 4.058
334.90 4.053
335.00 4.049
335.10 4.045
335.20 4.04
335.30 4.036
335.40 4.031
335.50 4.027
335.60 4.023
335.70 4.018
335.80 4.014
335.90 4.01
336.00 4.005
336.10 4.001
336.20 3.997
336.30 3.993
336.40 3.988
336.50 3.984
336.60 3.98
336.70 3.975
336.80 3.971
336.90 3.967
337.00 3.963
337.10 3.958
337.20 3.954
337.30 3.95
337.40 3.946
337.50 3.941
337.60 3.937
337.70 3.933
337.80 3.929
337.90 3.924
338.00 3.92
338.10 3.916
338.20 3.912
338.30 3.908
338.40 3.904
338.50 3.899
338.60 3.895
338.70 3.891
338.80 3.887
338.90 3.883
339.00 3.879
339.10 3.875
339.20 3.87
339.30 3.866
339.40 3.862
339.50 3.858
339.60 3.854
339.70 3.85
339.80 3.846
339.90 3.842
340.00 3.837
340.10 3.833
340.20 3.829
340.30 3.825
340.40 3.821
340.50 3.817
340.60 3.813
340.70 3.809
340.80 3.805
340.90 3.801
341.00 3.797
341.10 3.793
341.20 3.789
341.30 3.785
341.40 3.781
341.50 3.777
341.60 3.773
341.70 3.769
341.80 3.765
341.90 3.761
342.00 3.757
342.10 3.753
342.20 3.749
342.30 3.745
342.40 3.741
342.50 3.737
342.60 3.733
342.70 3.729
342.80 3.725
342.90 3.721
343.00 3.717
343.10 3.713
343.20 3.709
343.30 3.706
343.40 3.702
343.50 3.698
343.60 3.694
343.70 3.69
343.80 3.686
343.90 3.682
344.00 3.678
344.10 3.674
344.20 3.67
344.30 3.667
344.40 3.663
344.50 3.659
344.60 3.655
344.70 3.651
344.80 3.647
344.90 3.644
345.00 3.64
345.10 3.636
345.20 3.632
345.30 3.628
345.40 3.624
345.50 3.621
345.60 3.617
345.70 3.613
345.80 3.609
345.90 3.605
346.00 3.602
346.10 3.598
346.20 3.594
346.30 3.59
346.40 3.587
346.50 3.583
346.60 3.579
346.70 3.575
346.80 3.572
346.90 3.568
347.00 3.564
347.10 3.56
347.20 3.557
347.30 3.553
347.40 3.549
347.50 3.546
347.60 3.542
347.70 3.538
347.80 3.535
347.90 3.531
348.00 3.527
348.10 3.523
348.20 3.52
348.30 3.516
348.40 3.512
348.50 3.509
348.60 3.505
348.70 3.502
348.80 3.498
348.90 3.494
349.00 3.491
349.10 3.487
349.20 3.483
349.30 3.48
349.40 3.476
349.50 3.473
349.60 3.469
349.70 3.465
349.80 3.462
349.90 3.458
350.00 3.455
350.10 3.451
350.20 3.447
350.30 3.444
350.40 3.44
350.50 3.437
350.60 3.433
350.70 3.43
350.80 3.426
350.90 3.423
351.00 3.419
351.10 3.415
351.20 3.412
351.30 3.408
351.40 3.405
351.50 3.401
351.60 3.398
351.70 3.394
351.80 3.391
351.90 3.387
352.00 3.384
352.10 3.38
352.20 3.377
352.30 3.373
352.40 3.37
352.50 3.366
352.60 3.363
352.70 3.36
352.80 3.356
352.90 3.353
353.00 3.349
353.10 3.346
353.20 3.342
353.30 3.339
353.40 3.335
353.50 3.332
353.60 3.329
353.70 3.325
353.80 3.322
353.90 3.318
354.00 3.315
354.10 3.311
354.20 3.308
354.30 3.305
354.40 3.301
354.50 3.298
354.60 3.295
354.70 3.291
354.80 3.288
354.90 3.284
355.00 3.281
355.10 3.278
355.20 3.274
355.30 3.271
355.40 3.268
355.50 3.264
355.60 3.261
355.70 3.258
355.80 3.254
355.90 3.251
356.00 3.248
356.10 3.244
356.20 3.241
356.30 3.238
356.40 3.234
356.50 3.231
356.60 3.228
356.70 3.225
356.80 3.221
356.90 3.218
357.00 3.215
357.10 3.212
357.20 3.208
357.30 3.205
357.40 3.202
357.50 3.198
357.60 3.195
357.70 3.192
357.80 3.189
357.90 3.185
358.00 3.182
358.10 3.179
358.20 3.176
358.30 3.173
358.40 3.169
358.50 3.166
358.60 3.163
358.70 3.16
358.80 3.157
358.90 3.153
359.00 3.15
359.10 3.147
359.20 3.144
359.30 3.141
359.40 3.137
359.50 3.134
359.60 3.131
359.70 3.128
359.80 3.125
359.90 3.122
360.00 3.118
360.10 3.115
360.20 3.112
360.30 3.109
360.40 3.106
360.50 3.103
360.60 3.1
360.70 3.096
360.80 3.093
360.90 3.09
361.00 3.087
361.10 3.084
361.20 3.081
361.30 3.078
361.40 3.075
361.50 3.072
361.60 3.068
361.70 3.065
361.80 3.062
361.90 3.059
362.00 3.056
362.10 3.053
362.20 3.05
362.30 3.047
362.40 3.044
362.50 3.041
362.60 3.038
362.70 3.035
362.80 3.032
362.90 3.029
363.00 3.026
363.10 3.023
363.20 3.02
363.30 3.017
363.40 3.014
363.50 3.01
363.60 3.007
363.70 3.004
363.80 3.001
363.90 2.998
364.00 2.995
364.10 2.992
364.20 2.989
364.30 2.986
364.40 2.983
364.50 2.981
364.60 2.978
364.70 2.975
364.80 2.972
364.90 2.969
365.00 2.966
365.10 2.963
365.20 2.96
365.30 2.957
365.40 2.954
365.50 2.951
365.60 2.948
365.70 2.945
365.80 2.942
365.90 2.939
366.00 2.936
366.10 2.933
366.20 2.93
366.30 2.927
366.40 2.924
366.50 2.921
366.60 2.918
366.70 2.915
366.80 2.912
366.90 2.909
367.00 2.906
367.10 2.903
367.20 2.9
367.30 2.897
367.40 2.893
367.50 2.89
367.60 2.887
367.70 2.884
367.80 2.881
367.90 2.878
368.00 2.875
368.10 2.872
368.20 2.869
368.30 2.866
368.40 2.863
368.50 2.86
368.60 2.858
368.70 2.855
368.80 2.852
368.90 2.849
369.00 2.846
369.10 2.843
369.20 2.84
369.30 2.837
369.40 2.834
369.50 2.831
369.60 2.828
369.70 2.825
369.80 2.822
369.90 2.819
370.00 2.816
370.10 2.813
370.20 2.811
370.30 2.808
370.40 2.805
370.50 2.802
370.60 2.799
370.70 2.796
370.80 2.793
370.90 2.79
371.00 2.788
371.10 2.785
371.20 2.782
371.30 2.779
371.40 2.776
371.50 2.773
371.60 2.771
371.70 2.768
371.80 2.765
371.90 2.762
372.00 2.759
372.10 2.757
372.20 2.754
372.30 2.751
372.40 2.749
372.50 2.746
372.60 2.743
372.70 2.741
372.80 2.738
372.90 2.735
373.00 2.733
373.10 2.73
373.20 2.728
373.30 2.725
373.40 2.722
373.50 2.72
373.60 2.717
373.70 2.715
373.80 2.712
373.90 2.709
374.00 2.707
374.10 2.704
374.20 2.702
374.30 2.699
374.40 2.697
374.50 2.695
374.60 2.692
374.70 2.69
374.80 2.687
374.90 2.685
375.00 2.683
375.10 2.68
375.20 2.678
375.30 2.676
375.40 2.673
375.50 2.671
375.60 2.668
375.70 2.666
375.80 2.664
375.90 2.661
376.00 2.659
376.10 2.656
376.20 2.654
376.30 2.651
376.40 2.648
376.50 2.646
376.60 2.643
376.70 2.64
376.80 2.638
376.90 2.635
377.00 2.632
377.10 2.631
377.20 2.629
377.30 2.627
377.40 2.626
377.50 2.624
377.60 2.623
377.70 2.621
377.80 2.619
377.90 2.618
378.00 2.616
378.10 2.613
378.20 2.61
378.30 2.608
378.40 2.605
378.50 2.602
378.60 2.599
378.70 2.597
378.80 2.594
378.90 2.591
379.00 2.588
379.10 2.585
379.20 2.583
379.30 2.58
379.40 2.577
379.50 2.574
379.60 2.571
379.70 2.568
379.80 2.565
379.90 2.562
380.00 2.559
380.10 2.559
380.20 2.559
380.30 2.559
380.40 2.558
380.50 2.558
380.60 2.558
380.70 2.558
380.80 2.557
380.90 2.557
381.00 2.557
381.10 2.555
381.20 2.553
381.30 2.551
381.40 2.549
381.50 2.547
381.60 2.545
381.70 2.541
381.80 2.538
381.90 2.534
382.00 2.53
382.10 2.526
382.20 2.521
382.30 2.514
382.40 2.508
382.50 2.501
382.60 2.495
382.70 2.489
382.80 2.482
382.90 2.476
383.00 2.469
383.10 2.463
383.20 2.457
383.30 2.45
383.40 2.443
383.50 2.438
383.60 2.437
383.70 2.439
383.80 2.443
383.90 2.447
384.00 2.451
384.10 2.455
384.20 2.459
384.30 2.462
384.40 2.466
384.50 2.469
384.60 2.472
384.70 2.474
384.80 2.477
384.90 2.479
385.00 2.48
385.10 2.481
385.20 2.482
385.30 2.483
385.40 2.483
385.50 2.483
385.60 2.482
385.70 2.481
385.80 2.48
385.90 2.478
386.00 2.476
386.10 2.473
386.20 2.471
386.30 2.467
386.40 2.463
386.50 2.459
386.60 2.455
386.70 2.45
386.80 2.444
386.90 2.438
387.00 2.432
387.10 2.425
387.20 2.417
387.30 2.409
387.40 2.401
387.50 2.391
387.60 2.382
387.70 2.372
387.80 2.361
387.90 2.35
388.00 2.338
388.10 2.326
388.20 2.313
388.30 2.3
388.40 2.287
388.50 2.274
388.60 2.261
388.70 2.249
388.80 2.241
388.90 2.235
389.00 2.237
389.10 2.241
389.20 2.249
389.30 2.259
389.40 2.269
389.50 2.278
389.60 2.288
389.70 2.297
389.80 2.306
389.90 2.314
390.00 2.322
390.10 2.33
390.20 2.337
390.30 2.343
390.40 2.349
390.50 2.355
390.60 2.36
390.70 2.364
390.80 2.368
390.90 2.372
391.00 2.376
391.10 2.379
391.20 2.381
391.30 2.383
391.40 2.385
391.50 2.387
391.60 2.388
391.70 2.389
391.80 2.39
391.90 2.39
392.00 2.39
392.10 2.39
392.20 2.39
392.30 2.389
392.40 2.388
392.50 2.387
392.60 2.385
392.70 2.383
392.80 2.382
392.90 2.379
393.00 2.377
393.10 2.374
393.20 2.371
393.30 2.368
393.40 2.365
393.50 2.361
393.60 2.357
393.70 2.353
393.80 2.348
393.90 2.343
394.00 2.338
394.10 2.332
394.20 2.326
394.30 2.32
394.40 2.313
394.50 2.306
394.60 2.298
394.70 2.29
394.80 2.282
394.90 2.273
395.00 2.263
395.10 2.253
395.20 2.242
395.30 2.231
395.40 2.219
395.50 2.206
395.60 2.193
395.70 2.179
395.80 2.164
395.90 2.148
396.00 2.132
396.10 2.115
396.20 2.097
396.30 2.078
396.40 2.059
396.50 2.039
396.60 2.019
396.70 1.999
396.80 1.978
396.90 1.958
397.00 1.939
397.10 1.953
397.20 1.969
397.30 1.986
397.40 2.003
397.50 2.02
397.60 2.036
397.70 2.051
397.80 2.066
397.90 2.081
398.00 2.094
398.10 2.107
398.20 2.119
398.30 2.13
398.40 2.14
398.50 2.15
398.60 2.159
398.70 2.167
398.80 2.175
398.90 2.182
399.00 2.188
399.10 2.195
399.20 2.2
399.30 2.205
399.40 2.209
399.50 2.213
399.60 2.217
399.70 2.22
399.80 2.223
399.90 2.226
400.00 2.228
400.10 2.23
400.20 2.232
400.30 2.233
400.40 2.234
400.50 2.235
400.60 2.236
400.70 2.237
400.80 2.237
400.90 2.238
401.00 2.238
401.10 2.238
401.20 2.238
401.30 2.237
401.40 2.237
401.50 2.236
401.60 2.236
401.70 2.235
401.80 2.234
401.90 2.233
402.00 2.232
402.10 2.231
402.20 2.23
402.30 2.229
402.40 2.227
402.50 2.226
402.60 2.224
402.70 2.223
402.80 2.221
402.90 2.22
403.00 2.218
403.10 2.216
403.20 2.214
403.30 2.213
403.40 2.211
403.50 2.209
403.60 2.207
403.70 2.205
403.80 2.202
403.90 2.2
404.00 2.198
404.10 2.196
404.20 2.193
404.30 2.191
404.40 2.189
404.50 2.186
404.60 2.183
404.70 2.181
404.80 2.178
404.90 2.175
405.00 2.172
405.10 2.17
405.20 2.166
405.30 2.163
405.40 2.16
405.50 2.157
405.60 2.154
405.70 2.15
405.80 2.146
405.90 2.143
406.00 2.139
406.10 2.135
406.20 2.131
406.30 2.127
406.40 2.122
406.50 2.117
406.60 2.113
406.70 2.107
406.80 2.102
406.90 2.097
407.00 2.091
407.10 2.085
407.20 2.079
407.30 2.072
407.40 2.065
407.50 2.058
407.60 2.05
407.70 2.042
407.80 2.033
407.90 2.024
408.00 2.014
408.10 2.005
408.20 1.994
408.30 1.982
408.40 1.971
408.50 1.958
408.60 1.944
408.70 1.93
408.80 1.915
408.90 1.899
409.00 1.883
409.10 1.865
409.20 1.846
409.30 1.827
409.40 1.806
409.50 1.785
409.60 1.762
409.70 1.739
409.80 1.715
409.90 1.69
410.00 1.665
410.10 1.65
410.20 1.644
410.30 1.655
410.40 1.672
410.50 1.694
410.60 1.716
410.70 1.736
410.80 1.756
410.90 1.775
411.00 1.792
411.10 1.809
411.20 1.825
411.30 1.839
411.40 1.853
411.50 1.866
411.60 1.878
411.70 1.889
411.80 1.899
411.90 1.908
412.00 1.917
412.10 1.924
412.20 1.932
412.30 1.938
412.40 1.944
412.50 1.95
412.60 1.955
412.70 1.959
412.80 1.963
412.90 1.967
413.00 1.971
413.10 1.974
413.20 1.976
413.30 1.979
413.40 1.981
413.50 1.983
413.60 1.984
413.70 1.985
413.80 1.987
413.90 1.988
414.00 1.988
414.10 1.989
414.20 1.989
414.30 1.99
414.40 1.99
414.50 1.99
414.60 1.99
414.70 1.99
414.80 1.99
414.90 1.989
415.00 1.989
415.10 1.988
415.20 1.988
415.30 1.987
415.40 1.986
415.50 1.986
415.60 1.985
415.70 1.984
415.80 1.983
415.90 1.982
416.00 1.981
416.10 1.98
416.20 1.979
416.30 1.978
416.40 1.977
416.50 1.975
416.60 1.974
416.70 1.973
416.80 1.972
416.90 1.97
417.00 1.969
417.10 1.968
417.20 1.966
417.30 1.965
417.40 1.963
417.50 1.962
417.60 1.961
417.70 1.959
417.80 1.958
417.90 1.956
418.00 1.955
418.10 1.953
418.20 1.952
418.30 1.95
418.40 1.949
418.50 1.947
418.60 1.946
418.70 1.944
418.80 1.943
418.90 1.941
419.00 1.939
419.10 1.938
419.20 1.936
419.30 1.935
419.40 1.933
419.50 1.932
419.60 1.93
419.70 1.928
419.80 1.927
419.90 1.925
420.00 1.923
420.10 1.922
420.20 1.92
420.30 1.919
420.40 1.917
420.50 1.915
420.60 1.914
420.70 1.912
420.80 1.91
420.90 1.909
421.00 1.907
421.10 1.905
421.20 1.904
421.30 1.902
421.40 1.9
421.50 1.899
421.60 1.897
421.70 1.895
421.80 1.894
421.90 1.892
422.00 1.89
422.10 1.889
422.20 1.887
422.30 1.885
422.40 1.884
422.50 1.882
422.60 1.88
422.70 1.879
422.80 1.877
422.90 1.875
423.00 1.874
423.10 1.872
423.20 1.87
423.30 1.868
423.40 1.867
423.50 1.865
423.60 1.863
423.70 1.862
423.80 1.86
423.90 1.858
424.00 1.856
424.10 1.855
424.20 1.853
424.30 1.851
424.40 1.85
424.50 1.848
424.60 1.846
424.70 1.844
424.80 1.843
424.90 1.841
425.00 1.839
425.10 1.837
425.20 1.836
425.30 1.834
425.40 1.832
425.50 1.83
425.60 1.828
425.70 1.827
425.80 1.825
425.90 1.823
426.00 1.821
426.10 1.819
426.20 1.817
426.30 1.816
426.40 1.814
426.50 1.812
426.60 1.81
426.70 1.808
426.80 1.806
426.90 1.804
427.00 1.802
427.10 1.8
427.20 1.798
427.30 1.796
427.40 1.794
427.50 1.792
427.60 1.79
427.70 1.788
427.80 1.786
427.90 1.784
428.00 1.782
428.10 1.78
428.20 1.777
428.30 1.775
428.40 1.773
428.50 1.771
428.60 1.768
428.70 1.766
428.80 1.763
428.90 1.761
429.00 1.758
429.10 1.756
429.20 1.753
429.30 1.751
429.40 1.748
429.50 1.745
429.60 1.742
429.70 1.739
429.80 1.736
429.90 1.733
430.00 1.729
430.10 1.726
430.20 1.722
430.30 1.719
430.40 1.715
430.50 1.711
430.60 1.707
430.70 1.702
430.80 1.698
430.90 1.693
431.00 1.688
431.10 1.683
431.20 1.678
431.30 1.672
431.40 1.666
431.50 1.659
431.60 1.653
431.70 1.645
431.80 1.638
431.90 1.63
432.00 1.621
432.10 1.612
432.20 1.603
432.30 1.592
432.40 1.582
432.50 1.57
432.60 1.558
432.70 1.545
432.80 1.531
432.90 1.516
433.00 1.501
433.10 1.484
433.20 1.467
433.30 1.449
433.40 1.429
433.50 1.409
433.60 1.388
433.70 1.366
433.80 1.343
433.90 1.319
434.00 1.296
434.10 1.296
434.20 1.318
434.30 1.339
434.40 1.36
434.50 1.38
434.60 1.398
434.70 1.416
434.80 1.433
434.90 1.448
435.00 1.463
435.10 1.477
435.20 1.49
435.30 1.502
435.40 1.513
435.50 1.523
435.60 1.532
435.70 1.541
435.80 1.549
435.90 1.556
436.00 1.563
436.10 1.568
436.20 1.574
436.30 1.579
436.40 1.584
436.50 1.588
436.60 1.592
436.70 1.595
436.80 1.598
436.90 1.601
437.00 1.603
437.10 1.605
437.20 1.607
437.30 1.609
437.40 1.61
437.50 1.611
437.60 1.612
437.70 1.613
437.80 1.614
437.90 1.615
438.00 1.615
438.10 1.616
438.20 1.616
438.30 1.616
438.40 1.616
438.50 1.616
438.60 1.616
438.70 1.616
438.80 1.615
438.90 1.615
439.00 1.615
439.10 1.614
439.20 1.614
439.30 1.613
439.40 1.613
439.50 1.612
439.60 1.611
439.70 1.611
439.80 1.61
439.90 1.609
440.00 1.608
440.10 1.607
440.20 1.607
440.30 1.606
440.40 1.605
440.50 1.604
440.60 1.603
440.70 1.602
440.80 1.601
440.90 1.6
441.00 1.599
441.10 1.598
441.20 1.597
441.30 1.596
441.40 1.595
441.50 1.594
441.60 1.593
441.70 1.591
441.80 1.59
441.90 1.589
442.00 1.588
442.10 1.587
442.20 1.586
442.30 1.585
442.40 1.583
442.50 1.582
442.60 1.581
442.70 1.58
442.80 1.579
442.90 1.578
443.00 1.576
443.10 1.575
443.20 1.574
443.30 1.573
443.40 1.572
443.50 1.57
443.60 1.569
443.70 1.568
443.80 1.567
443.90 1.565
444.00 1.564
444.10 1.563
444.20 1.562
444.30 1.561
444.40 1.559
444.50 1.558
444.60 1.557
444.70 1.556
444.80 1.554
444.90 1.553
445.00 1.552
445.10 1.551
445.20 1.549
445.30 1.548
445.40 1.547
445.50 1.546
445.60 1.544
445.70 1.543
445.80 1.542
445.90 1.541
446.00 1.539
446.10 1.538
446.20 1.537
446.30 1.536
446.40 1.534
446.50 1.533
446.60 1.532
446.70 1.531
446.80 1.529
446.90 1.528
447.00 1.527
447.10 1.526
447.20 1.524
447.30 1.523
447.40 1.522
447.50 1.521
447.60 1.519
447.70 1.518
447.80 1.517
447.90 1.516
448.00 1.514
448.10 1.513
448.20 1.512
448.30 1.511
448.40 1.509
448.50 1.508
448.60 1.507
448.70 1.506
448.80 1.504
448.90 1.503
449.00 1.502
449.10 1.501
449.20 1.499
449.30 1.498
449.40 1.497
449.50 1.496
449.60 1.494
449.70 1.493
449.80 1.492
449.90 1.491
450.00 1.49
450.10 1.488
450.20 1.487
450.30 1.486
450.40 1.485
450.50 1.483
450.60 1.482
450.70 1.481
450.80 1.48
450.90 1.478
451.00 1.477
451.10 1.476
451.20 1.475
451.30 1.474
451.40 1.472
451.50 1.471
451.60 1.47
451.70 1.469
451.80 1.468
451.90 1.466
452.00 1.465
452.10 1.464
452.20 1.463
452.30 1.461
452.40 1.46
452.50 1.459
452.60 1.458
452.70 1.457
452.80 1.455
452.90 1.454
453.00 1.453
453.10 1.452
453.20 1.451
453.30 1.449
453.40 1.448
453.50 1.447
453.60 1.446
453.70 1.445
453.80 1.443
453.90 1.442
454.00 1.441
454.10 1.44
454.20 1.439
454.30 1.437
454.40 1.436
454.50 1.435
454.60 1.434
454.70 1.433
454.80 1.432
454.90 1.43
455.00 1.429
455.10 1.428
455.20 1.427
455.30 1.426
455.40 1.424
455.50 1.423
455.60 1.422
455.70 1.421
455.80 1.42
455.90 1.419
456.00 1.417
456.10 1.416
456.20 1.415
456.30 1.414
456.40 1.413
456.50 1.412
456.60 1.41
456.70 1.409
456.80 1.408
456.90 1.407
457.00 1.406
457.10 1.405
457.20 1.403
457.30 1.402
457.40 1.401
457.50 1.4
457.60 1.399
457.70 1.398
457.80 1.397
457.90 1.395
458.00 1.394
458.10 1.393
458.20 1.392
458.30 1.391
458.40 1.39
458.50 1.389
458.60 1.387
458.70 1.386
458.80 1.385
458.90 1.384
459.00 1.383
459.10 1.382
459.20 1.381
459.30 1.379
459.40 1.378
459.50 1.377
459.60 1.376
459.70 1.375
459.80 1.374
459.90 1.373
460.00 1.372
460.10 1.37
460.20 1.369
460.30 1.368
460.40 1.367
460.50 1.366
460.60 1.365
460.70 1.364
460.80 1.363
460.90 1.361
461.00 1.36
461.10 1.359
461.20 1.358
461.30 1.357
461.40 1.356
461.50 1.355
461.60 1.354
461.70 1.353
461.80 1.351
461.90 1.35
462.00 1.349
462.10 1.348
462.20 1.347
462.30 1.346
462.40 1.345
462.50 1.344
462.60 1.343
462.70 1.341
462.80 1.34
462.90 1.339
463.00 1.338
463.10 1.337
463.20 1.336
463.30 1.335
463.40 1.334
463.50 1.333
463.60 1.332
463.70 1.331
463.80 1.329
463.90 1.328
464.00 1.327
464.10 1.326
464.20 1.325
464.30 1.324
464.40 1.323
464.50 1.322
464.60 1.321
464.70 1.32
464.80 1.319
464.90 1.318
465.00 1.316
465.10 1.315
465.20 1.314
465.30 1.313
465.40 1.312
465.50 1.311
465.60 1.31
465.70 1.309
465.80 1.308
465.90 1.307
466.00 1.306
466.10 1.305
466.20 1.304
466.30 1.303
466.40 1.302
466.50 1.3
466.60 1.299
466.70 1.298
466.80 1.297
466.90 1.296
467.00 1.295
467.10 1.294
467.20 1.293
467.30 1.292
467.40 1.291
467.50 1.29
467.60 1.289
467.70 1.288
467.80 1.287
467.90 1.286
468.00 1.285
468.10 1.284
468.20 1.283
468.30 1.281
468.40 1.28
468.50 1.279
468.60 1.278
468.70 1.277
468.80 1.276
468.90 1.275
469.00 1.274
469.10 1.273
469.20 1.272
469.30 1.271
469.40 1.27
469.50 1.269
469.60 1.268
469.70 1.267
469.80 1.266
469.90 1.265
470.00 1.264
470.10 1.263
470.20 1.262
470.30 1.261
470.40 1.26
470.50 1.259
470.60 1.258
470.70 1.257
470.80 1.256
470.90 1.255
471.00 1.254
471.10 1.252
471.20 1.251
471.30 1.25
471.40 1.249
471.50 1.248
471.60 1.247
471.70 1.246
471.80 1.245
471.90 1.244
472.00 1.243
472.10 1.242
472.20 1.241
472.30 1.24
472.40 1.239
472.50 1.238
472.60 1.237
472.70 1.236
472.80 1.235
472.90 1.234
473.00 1.233
473.10 1.232
473.20 1.231
473.30 1.23
473.40 1.229
473.50 1.228
473.60 1.227
473.70 1.226
473.80 1.225
473.90 1.224
474.00 1.223
474.10 1.222
474.20 1.221
474.30 1.22
474.40 1.219
474.50 1.218
474.60 1.217
474.70 1.216
474.80 1.215
474.90 1.214
475.00 1.213
475.10 1.212
475.20 1.211
475.30 1.209
475.40 1.208
475.50 1.207
475.60 1.206
475.70 1.205
475.80 1.204
475.90 1.203
476.00 1.202
476.10 1.201
476.20 1.2
476.30 1.199
476.40 1.198
476.50 1.197
476.60 1.196
476.70 1.195
476.80 1.194
476.90 1.193
477.00 1.192
477.10 1.191
477.20 1.19
477.30 1.189
477.40 1.187
477.50 1.186
477.60 1.185
477.70 1.184
477.80 1.183
477.90 1.182
478.00 1.181
478.10 1.18
478.20 1.179
478.30 1.178
478.40 1.176
478.50 1.175
478.60 1.174
478.70 1.173
478.80 1.172
478.90 1.171
479.00 1.17
479.10 1.168
479.20 1.167
479.30 1.166
479.40 1.165
479.50 1.164
479.60 1.162
479.70 1.161
479.80 1.16
479.90 1.159
480.00 1.157
480.10 1.156
480.20 1.155
480.30 1.153
480.40 1.152
480.50 1.15
480.60 1.149
480.70 1.147
480.80 1.146
480.90 1.145
481.00 1.143
481.10 1.142
481.20 1.14
481.30 1.138
481.40 1.136
481.50 1.135
481.60 1.133
481.70 1.131
481.80 1.129
481.90 1.127
482.00 1.126
482.10 1.124
482.20 1.121
482.30 1.119
482.40 1.116
482.50 1.114
482.60 1.111
482.70 1.109
482.80 1.106
482.90 1.104
483.00 1.101
483.10 1.099
483.20 1.095
483.30 1.091
483.40 1.087
483.50 1.082
483.60 1.078
483.70 1.074
483.80 1.07
483.90 1.066
484.00 1.062
484.10 1.058
484.20 1.052
484.30 1.046
484.40 1.04
484.50 1.033
484.60 1.027
484.70 1.019
484.80 1.011
484.90 1.003
485.00 0.9942
485.10 0.9858
485.20 0.9761
485.30 0.9658
485.40 0.9548
485.50 0.9433
485.60 0.931
485.70 0.9184
485.80 0.9042
485.90 0.8893
486.00 0.8704
486.10 0.8475
486.20 0.8521
486.30 0.876
486.40 0.8908
486.50 0.9045
486.60 0.9165
486.70 0.9279
486.80 0.9383
486.90 0.9482
487.00 0.9573
487.10 0.9661
487.20 0.9735
487.30 0.9803
487.40 0.9871
487.50 0.9939
487.60 1.001
487.70 1.006
487.80 1.011
487.90 1.015
488.00 1.02
488.10 1.024
488.20 1.027
488.30 1.03
488.40 1.032
488.50 1.034
488.60 1.037
488.70 1.039
488.80 1.041
488.90 1.044
489.00 1.046
489.10 1.049
489.20 1.05
489.30 1.051
489.40 1.051
489.50 1.052
489.60 1.053
489.70 1.054
489.80 1.054
489.90 1.055
490.00 1.056
490.10 1.057
490.20 1.057
490.30 1.057
490.40 1.057
490.50 1.057
490.60 1.057
490.70 1.057
490.80 1.057
490.90 1.057
491.00 1.057
491.10 1.057
491.20 1.057
491.30 1.057
491.40 1.056
491.50 1.056
491.60 1.055
491.70 1.055
491.80 1.055
491.90 1.054
492.00 1.054
492.10 1.054
492.20 1.053
492.30 1.053
492.40 1.052
492.50 1.052
492.60 1.051
492.70 1.051
492.80 1.05
492.90 1.05
493.00 1.049
493.10 1.049
493.20 1.048
493.30 1.047
493.40 1.047
493.50 1.046
493.60 1.045
493.70 1.045
493.80 1.044
493.90 1.044
494.00 1.043
494.10 1.042
494.20 1.042
494.30 1.041
494.40 1.04
494.50 1.04
494.60 1.039
494.70 1.038
494.80 1.038
494.90 1.037
495.00 1.036
495.10 1.036
495.20 1.035
495.30 1.034
495.40 1.034
495.50 1.033
495.60 1.032
495.70 1.031
495.80 1.031
495.90 1.03
496.00 1.029
496.10 1.029
496.20 1.028
496.30 1.027
496.40 1.026
496.50 1.026
496.60 1.025
496.70 1.024
496.80 1.023
496.90 1.023
497.00 1.022
497.10 1.021
497.20 1.021
497.30 1.02
497.40 1.019
497.50 1.018
497.60 1.018
497.70 1.017
497.80 1.016
497.90 1.015
498.00 1.015
498.10 1.014
498.20 1.013
498.30 1.013
498.40 1.012
498.50 1.011
498.60 1.01
498.70 1.01
498.80 1.009
498.90 1.008
499.00 1.007
499.10 1.007
499.20 1.006
499.30 1.005
499.40 1.004
499.50 1.004
499.60 1.003
499.70 1.002
499.80 1.001
499.90 1.001
500.00 1
500.10 0.9993
500.20 0.9985
500.30 0.9978
500.40 0.9971
500.50 0.9963
500.60 0.9956
500.70 0.9948
500.80 0.9941
500.90 0.9934
501.00 0.9926
501.10 0.9919
501.20 0.9912
501.30 0.9904
501.40 0.9897
501.50 0.989
501.60 0.9882
501.70 0.9875
501.80 0.9868
501.90 0.9861
502.00 0.9853
502.10 0.9846
502.20 0.9839
502.30 0.9831
502.40 0.9824
502.50 0.9817
502.60 0.9809
502.70 0.9802
502.80 0.9795
502.90 0.9788
503.00 0.978
503.10 0.9773
503.20 0.9766
503.30 0.9759
503.40 0.9751
503.50 0.9744
503.60 0.9737
503.70 0.973
503.80 0.9722
503.90 0.9715
504.00 0.9708
504.10 0.9701
504.20 0.9694
504.30 0.9686
504.40 0.9679
504.50 0.9672
504.60 0.9665
504.70 0.9658
504.80 0.965
504.90 0.9643
505.00 0.9636
505.10 0.9629
505.20 0.9622
505.30 0.9615
505.40 0.9607
505.50 0.96
505.60 0.9593
505.70 0.9586
505.80 0.9579
505.90 0.9572
506.00 0.9565
506.10 0.9558
506.20 0.9551
506.30 0.9543
506.40 0.9536
506.50 0.9529
506.60 0.9522
506.70 0.9515
506.80 0.9508
506.90 0.9501
507.00 0.9494
507.10 0.9487
507.20 0.948
507.30 0.9473
507.40 0.9466
507.50 0.9459
507.60 0.9452
507.70 0.9445
507.80 0.9438
507.90 0.9431
508.00 0.9424
508.10 0.9417
508.20 0.941
508.30 0.9403
508.40 0.9396
508.50 0.9389
508.60 0.9382
508.70 0.9375
508.80 0.9368
508.90 0.9361
509.00 0.9354
509.10 0.9347
509.20 0.934
509.30 0.9333
509.40 0.9326
509.50 0.9319
509.60 0.9313
509.70 0.9306
509.80 0.9299
509.90 0.9292
510.00 0.9285
510.10 0.9278
510.20 0.9271
510.30 0.9264
510.40 0.9258
510.50 0.9251
510.60 0.9244
510.70 0.9237
510.80 0.923
510.90 0.9223
511.00 0.9217
511.10 0.921
511.20 0.9203
511.30 0.9196
511.40 0.9189
511.50 0.9183
511.60 0.9176
511.70 0.9169
511.80 0.9162
511.90 0.9155
512.00 0.9149
512.10 0.9142
512.20 0.9135
512.30 0.9128
512.40 0.9122
512.50 0.9115
512.60 0.9108
512.70 0.9102
512.80 0.9095
512.90 0.9088
513.00 0.9081
513.10 0.9075
513.20 0.9068
513.30 0.9061
513.40 0.9055
513.50 0.9048
513.60 0.9041
513.70 0.9035
513.80 0.9028
513.90 0.9021
514.00 0.9015
514.10 0.9008
514.20 0.9001
514.30 0.8995
514.40 0.8988
514.50 0.8982
514.60 0.8975
514.70 0.8968
514.80 0.8962
514.90 0.8955
515.00 0.8949
515.10 0.8942
515.20 0.8936
515.30 0.8929
515.40 0.8922
515.50 0.8916
515.60 0.8909
515.70 0.8903
515.80 0.8896
515.90 0.889
516.00 0.8883
516.10 0.8877
516.20 0.887
516.30 0.8864
516.40 0.8857
516.50 0.8851
516.60 0.8844
516.70 0.8838
516.80 0.8831
516.90 0.8825
517.00 0.8818
517.10 0.8812
517.20 0.8805
517.30 0.8799
517.40 0.8792
517.50 0.8786
517.60 0.878
517.70 0.8773
517.80 0.8767
517.90 0.876
518.00 0.8754
518.10 0.8748
518.20 0.8741
518.30 0.8735
518.40 0.8728
518.50 0.8722
518.60 0.8716
518.70 0.8709
518.80 0.8703
518.90 0.8697
519.00 0.869
519.10 0.8684
519.20 0.8678
519.30 0.8671
519.40 0.8665
519.50 0.8659
519.60 0.8652
519.70 0.8646
519.80 0.864
519.90 0.8633
520.00 0.8627
520.10 0.8621
520.20 0.8614
520.30 0.8608
520.40 0.8602
520.50 0.8596
520.60 0.8589
520.70 0.8583
520.80 0.8577
520.90 0.8571
521.00 0.8564
521.10 0.8558
521.20 0.8552
521.30 0.8546
521.40 0.854
521.50 0.8533
521.60 0.8527
521.70 0.8521
521.80 0.8515
521.90 0.8509
522.00 0.8502
522.10 0.8496
522.20 0.849
522.30 0.8484
522.40 0.8478
522.50 0.8472
522.60 0.8465
522.70 0.8459
522.80 0.8453
522.90 0.8447
523.00 0.8441
523.10 0.8435
523.20 0.8429
523.30 0.8423
523.40 0.8416
523.50 0.841
523.60 0.8404
523.70 0.8398
523.80 0.8392
523.90 0.8386
524.00 0.838
524.10 0.8374
524.20 0.8368
524.30 0.8362
524.40 0.8356
524.50 0.835
524.60 0.8344
524.70 0.8338
524.80 0.8332
524.90 0.8326
525.00 0.832
525.10 0.8314
525.20 0.8308
525.30 0.8302
525.40 0.8296
525.50 0.829
525.60 0.8284
525.70 0.8278
525.80 0.8272
525.90 0.8266
526.00 0.826
526.10 0.8254
526.20 0.8248
526.30 0.8242
526.40 0.8236
526.50 0.823
526.60 0.8224
526.70 0.8218
526.80 0.8212
526.90 0.8206
527.00 0.82
527.10 0.8194
527.20 0.8189
527.30 0.8183
527.40 0.8177
527.50 0.8171
527.60 0.8165
527.70 0.8159
527.80 0.8153
527.90 0.8147
528.00 0.8142
528.10 0.8136
528.20 0.813
528.30 0.8124
528.40 0.8118
528.50 0.8112
528.60 0.8107
528.70 0.8101
528.80 0.8095
528.90 0.8089
529.00 0.8083
529.10 0.8077
529.20 0.8072
529.30 0.8066
529.40 0.806
529.50 0.8054
529.60 0.8049
529.70 0.8043
529.80 0.8037
529.90 0.8031
530.00 0.8026
530.10 0.802
530.20 0.8014
530.30 0.8008
530.40 0.8003
530.50 0.7997
530.60 0.7991
530.70 0.7985
530.80 0.798
530.90 0.7974
531.00 0.7968
531.10 0.7963
531.20 0.7957
531.30 0.7951
531.40 0.7946
531.50 0.794
531.60 0.7934
531.70 0.7929
531.80 0.7923
531.90 0.7917
532.00 0.7912
532.10 0.7906
532.20 0.79
532.30 0.7895
532.40 0.7889
532.50 0.7883
532.60 0.7878
532.70 0.7872
532.80 0.7867
532.90 0.7861
533.00 0.7855
533.10 0.785
533.20 0.7844
533.30 0.7839
533.40 0.7833
533.50 0.7827
533.60 0.7822
533.70 0.7816
533.80 0.7811
533.90 0.7805
534.00 0.78
534.10 0.7794
534.20 0.7789
534.30 0.7783
534.40 0.7777
534.50 0.7772
534.60 0.7766
534.70 0.7761
534.80 0.7755
534.90 0.775
535.00 0.7744
535.10 0.7739
535.20 0.7733
535.30 0.7728
535.40 0.7722
535.50 0.7717
535.60 0.7711
535.70 0.7706
535.80 0.7701
535.90 0.7695
536.00 0.769
536.10 0.7684
536.20 0.7679
536.30 0.7673
536.40 0.7668
536.50 0.7662
536.60 0.7657
536.70 0.7652
536.80 0.7646
536.90 0.7641
537.00 0.7635
537.10 0.763
537.20 0.7625
537.30 0.7619
537.40 0.7614
537.50 0.7608
537.60 0.7603
537.70 0.7598
537.80 0.7592
537.90 0.7587
538.00 0.7582
538.10 0.7576
538.20 0.7571
538.30 0.7565
538.40 0.756
538.50 0.7555
538.60 0.7549
538.70 0.7544
538.80 0.7539
538.90 0.7534
539.00 0.7528
539.10 0.7523
539.20 0.7518
539.30 0.7512
539.40 0.7507
539.50 0.7502
539.60 0.7496
539.70 0.7491
539.80 0.7486
539.90 0.7481
540.00 0.7475
540.10 0.747
540.20 0.7465
540.30 0.746
540.40 0.7454
540.50 0.7449
540.60 0.7444
540.70 0.7439
540.80 0.7433
540.90 0.7428
541.00 0.7423
541.10 0.7418
541.20 0.7413
541.30 0.7407
541.40 0.7402
541.50 0.7397
541.60 0.7392
541.70 0.7387
541.80 0.7381
541.90 0.7376
542.00 0.7371
542.10 0.7366
542.20 0.7361
542.30 0.7356
542.40 0.735
542.50 0.7345
542.60 0.734
542.70 0.7335
542.80 0.733
542.90 0.7325
543.00 0.732
543.10 0.7314
543.20 0.7309
543.30 0.7304
543.40 0.7299
543.50 0.7294
543.60 0.7289
543.70 0.7284
543.80 0.7279
543.90 0.7274
544.00 0.7269
544.10 0.7263
544.20 0.7258
544.30 0.7253
544.40 0.7248
544.50 0.7243
544.60 0.7238
544.70 0.7233
544.80 0.7228
544.90 0.7223
545.00 0.7218
545.10 0.7213
545.20 0.7208
545.30 0.7203
545.40 0.7198
545.50 0.7193
545.60 0.7188
545.70 0.7183
545.80 0.7178
545.90 0.7173
546.00 0.7168
546.10 0.7163
546.20 0.7158
546.30 0.7153
546.40 0.7148
546.50 0.7143
546.60 0.7138
546.70 0.7133
546.80 0.7128
546.90 0.7123
547.00 0.7118
547.10 0.7113
547.20 0.7108
547.30 0.7103
547.40 0.7098
547.50 0.7093
547.60 0.7089
547.70 0.7084
547.80 0.7079
547.90 0.7074
548.00 0.7069
548.10 0.7064
548.20 0.7059
548.30 0.7054
548.40 0.7049
548.50 0.7044
548.60 0.7039
548.70 0.7035
548.80 0.703
548.90 0.7025
549.00 0.702
549.10 0.7015
549.20 0.701
549.30 0.7005
549.40 0.7001
549.50 0.6996
549.60 0.6991
549.70 0.6986
549.80 0.6981
549.90 0.6976
550.00 0.6972
550.10 0.6967
550.20 0.6962
550.30 0.6957
550.40 0.6952
550.50 0.6948
550.60 0.6943
550.70 0.6938
550.80 0.6933
550.90 0.6928
551.00 0.6924
551.10 0.6919
551.20 0.6914
551.30 0.6909
551.40 0.6904
551.50 0.69
551.60 0.6895
551.70 0.689
551.80 0.6885
551.90 0.6881
552.00 0.6876
552.10 0.6871
552.20 0.6866
552.30 0.6862
552.40 0.6857
552.50 0.6852
552.60 0.6848
552.70 0.6843
552.80 0.6838
552.90 0.6833
553.00 0.6829
553.10 0.6824
553.20 0.6819
553.30 0.6815
553.40 0.681
553.50 0.6805
553.60 0.6801
553.70 0.6796
553.80 0.6791
553.90 0.6787
554.00 0.6782
554.10 0.6777
554.20 0.6773
554.30 0.6768
554.40 0.6763
554.50 0.6759
554.60 0.6754
554.70 0.6749
554.80 0.6745
554.90 0.674
555.00 0.6736
555.10 0.6731
555.20 0.6726
555.30 0.6722
555.40 0.6717
555.50 0.6713
555.60 0.6708
555.70 0.6703
555.80 0.6699
555.90 0.6694
556.00 0.669
556.10 0.6685
556.20 0.668
556.30 0.6676
556.40 0.6671
556.50 0.6667
556.60 0.6662
556.70 0.6658
556.80 0.6653
556.90 0.6649
557.00 0.6644
557.10 0.6639
557.20 0.6635
557.30 0.663
557.40 0.6626
557.50 0.6621
557.60 0.6617
557.70 0.6612
557.80 0.6608
557.90 0.6603
558.00 0.6599
558.10 0.6594
558.20 0.659
558.30 0.6585
558.40 0.6581
558.50 0.6576
558.60 0.6572
558.70 0.6567
558.80 0.6563
558.90 0.6558
559.00 0.6554
559.10 0.6549
559.20 0.6545
559.30 0.6541
559.40 0.6536
559.50 0.6532
559.60 0.6527
559.70 0.6523
559.80 0.6518
559.90 0.6514
560.00 0.651
560.10 0.6505
560.20 0.6501
560.30 0.6496
560.40 0.6492
560.50 0.6487
560.60 0.6483
560.70 0.6479
560.80 0.6474
560.90 0.647
561.00 0.6465
561.10 0.6461
561.20 0.6457
561.30 0.6452
561.40 0.6448
561.50 0.6444
561.60 0.6439
561.70 0.6435
561.80 0.643
561.90 0.6426
562.00 0.6422
562.10 0.6417
562.20 0.6413
562.30 0.6409
562.40 0.6404
562.50 0.64
562.60 0.6396
562.70 0.6391
562.80 0.6387
562.90 0.6383
563.00 0.6378
563.10 0.6374
563.20 0.637
563.30 0.6365
563.40 0.6361
563.50 0.6357
563.60 0.6353
563.70 0.6348
563.80 0.6344
563.90 0.634
564.00 0.6335
564.10 0.6331
564.20 0.6327
564.30 0.6323
564.40 0.6318
564.50 0.6314
564.60 0.631
564.70 0.6306
564.80 0.6301
564.90 0.6297
565.00 0.6293
565.10 0.6289
565.20 0.6284
565.30 0.628
565.40 0.6276
565.50 0.6272
565.60 0.6267
565.70 0.6263
565.80 0.6259
565.90 0.6255
566.00 0.6251
566.10 0.6246
566.20 0.6242
566.30 0.6238
566.40 0.6234
566.50 0.623
566.60 0.6225
566.70 0.6221
566.80 0.6217
566.90 0.6213
567.00 0.6209
567.10 0.6205
567.20 0.62
567.30 0.6196
567.40 0.6192
567.50 0.6188
567.60 0.6184
567.70 0.618
567.80 0.6175
567.90 0.6171
568.00 0.6167
568.10 0.6163
568.20 0.6159
568.30 0.6155
568.40 0.6151
568.50 0.6147
568.60 0.6142
568.70 0.6138
568.80 0.6134
568.90 0.613
569.00 0.6126
569.10 0.6122
569.20 0.6118
569.30 0.6114
569.40 0.611
569.50 0.6106
569.60 0.6101
569.70 0.6097
569.80 0.6093
569.90 0.6089
570.00 0.6085
570.10 0.6081
570.20 0.6077
570.30 0.6073
570.40 0.6069
570.50 0.6065
570.60 0.6061
570.70 0.6057
570.80 0.6053
570.90 0.6049
571.00 0.6045
571.10 0.6041
571.20 0.6037
571.30 0.6033
571.40 0.6029
571.50 0.6025
571.60 0.602
571.70 0.6016
571.80 0.6012
571.90 0.6008
572.00 0.6004
572.10 0.6
572.20 0.5996
572.30 0.5992
572.40 0.5988
572.50 0.5985
572.60 0.5981
572.70 0.5977
572.80 0.5973
572.90 0.5969
573.00 0.5965
573.10 0.5961
573.20 0.5957
573.30 0.5953
573.40 0.5949
573.50 0.5945
573.60 0.5941
573.70 0.5937
573.80 0.5933
573.90 0.5929
574.00 0.5925
574.10 0.5921
574.20 0.5917
574.30 0.5913
574.40 0.5909
574.50 0.5905
574.60 0.5902
574.70 0.5898
574.80 0.5894
574.90 0.589
575.00 0.5886
575.10 0.5882
575.20 0.5878
575.30 0.5874
575.40 0.587
575.50 0.5866
575.60 0.5863
575.70 0.5859
575.80 0.5855
575.90 0.5851
576.00 0.5847
576.10 0.5843
576.20 0.5839
576.30 0.5835
576.40 0.5832
576.50 0.5828
576.60 0.5824
576.70 0.582
576.80 0.5816
576.90 0.5812
577.00 0.5809
577.10 0.5805
577.20 0.5801
577.30 0.5797
577.40 0.5793
577.50 0.5789
577.60 0.5786
577.70 0.5782
577.80 0.5778
577.90 0.5774
578.00 0.577
578.10 0.5767
578.20 0.5763
578.30 0.5759
578.40 0.5755
578.50 0.5751
578.60 0.5748
578.70 0.5744
578.80 0.574
578.90 0.5736
579.00 0.5732
579.10 0.5729
579.20 0.5725
579.30 0.5721
579.40 0.5717
579.50 0.5714
579.60 0.571
579.70 0.5706
579.80 0.5702
579.90 0.5699
580.00 0.5695
580.10 0.5691
580.20 0.5687
580.30 0.5684
580.40 0.568
580.50 0.5676
580.60 0.5672
580.70 0.5669
580.80 0.5665
580.90 0.5661
581.00 0.5658
581.10 0.5654
581.20 0.565
581.30 0.5646
581.40 0.5643
581.50 0.5639
581.60 0.5635
581.70 0.5632
581.80 0.5628
581.90 0.5624
582.00 0.5621
582.10 0.5617
582.20 0.5613
582.30 0.561
582.40 0.5606
582.50 0.5602
582.60 0.5599
582.70 0.5595
582.80 0.5591
582.90 0.5588
583.00 0.5584
583.10 0.558
583.20 0.5577
583.30 0.5573
583.40 0.5569
583.50 0.5566
583.60 0.5562
583.70 0.5558
583.80 0.5555
583.90 0.5551
584.00 0.5547
584.10 0.5544
584.20 0.554
584.30 0.5537
584.40 0.5533
584.50 0.5529
584.60 0.5526
584.70 0.5522
584.80 0.5519
584.90 0.5515
585.00 0.5511
585.10 0.5508
585.20 0.5504
585.30 0.5501
585.40 0.5497
585.50 0.5493
585.60 0.549
585.70 0.5486
585.80 0.5483
585.90 0.5479
586.00 0.5476
586.10 0.5472
586.20 0.5469
586.30 0.5465
586.40 0.5461
586.50 0.5458
586.60 0.5454
586.70 0.5451
586.80 0.5447
586.90 0.5444
587.00 0.544
587.10 0.5437
587.20 0.5433
587.30 0.543
587.40 0.5426
587.50 0.5422
587.60 0.5419
587.70 0.5415
587.80 0.5412
587.90 0.5408
588.00 0.5405
588.10 0.5401
588.20 0.5398
588.30 0.5394
588.40 0.5391
588.50 0.5387
588.60 0.5384
588.70 0.538
588.80 0.5377
588.90 0.5373
589.00 0.537
589.10 0.5367
589.20 0.5363
589.30 0.536
589.40 0.5356
589.50 0.5353
589.60 0.5349
589.70 0.5346
589.80 0.5342
589.90 0.5339
590.00 0.5335
590.10 0.5332
590.20 0.5328
590.30 0.5325
590.40 0.5322
590.50 0.5318
590.60 0.5315
590.70 0.5311
590.80 0.5308
590.90 0.5304
591.00 0.5301
591.10 0.5298
591.20 0.5294
591.30 0.5291
591.40 0.5287
591.50 0.5284
591.60 0.528
591.70 0.5277
591.80 0.5274
591.90 0.527
592.00 0.5267
592.10 0.5263
592.20 0.526
592.30 0.5257
592.40 0.5253
592.50 0.525
592.60 0.5247
592.70 0.5243
592.80 0.524
592.90 0.5236
593.00 0.5233
593.10 0.523
593.20 0.5226
593.30 0.5223
593.40 0.522
593.50 0.5216
593.60 0.5213
593.70 0.521
593.80 0.5206
593.90 0.5203
594.00 0.52
594.10 0.5196
594.20 0.5193
594.30 0.519
594.40 0.5186
594.50 0.5183
594.60 0.518
594.70 0.5176
594.80 0.5173
594.90 0.517
595.00 0.5166
595.10 0.5163
595.20 0.516
595.30 0.5156
595.40 0.5153
595.50 0.515
595.60 0.5146
595.70 0.5143
595.80 0.514
595.90 0.5137
596.00 0.5133
596.10 0.513
596.20 0.5127
596.30 0.5123
596.40 0.512
596.50 0.5117
596.60 0.5114
596.70 0.511
596.80 0.5107
596.90 0.5104
597.00 0.51
597.10 0.5097
597.20 0.5094
597.30 0.5091
597.40 0.5087
597.50 0.5084
597.60 0.5081
597.70 0.5078
597.80 0.5074
597.90 0.5071
598.00 0.5068
598.10 0.5065
598.20 0.5062
598.30 0.5058
598.40 0.5055
598.50 0.5052
598.60 0.5049
598.70 0.5045
598.80 0.5042
598.90 0.5039
599.00 0.5036
599.10 0.5033
599.20 0.5029
599.30 0.5026
599.40 0.5023
599.50 0.502
599.60 0.5017
599.70 0.5013
599.80 0.501
599.90 0.5007
600.00 0.5004
600.10 0.5001
600.20 0.4997
600.30 0.4994
600.40 0.4991
600.50 0.4988
600.60 0.4985
600.70 0.4982
600.80 0.4978
600.90 0.4975
601.00 0.4972
601.10 0.4969
601.20 0.4966
601.30 0.4963
601.40 0.4959
601.50 0.4956
601.60 0.4953
601.70 0.495
601.80 0.4947
601.90 0.4944
602.00 0.4941
602.10 0.4937
602.20 0.4934
602.30 0.4931
602.40 0.4928
602.50 0.4925
602.60 0.4922
602.70 0.4919
602.80 0.4916
602.90 0.4912
603.00 0.4909
603.10 0.4906
603.20 0.4903
603.30 0.49
603.40 0.4897
603.50 0.4894
603.60 0.4891
603.70 0.4888
603.80 0.4885
603.90 0.4881
604.00 0.4878
604.10 0.4875
604.20 0.4872
604.30 0.4869
604.40 0.4866
604.50 0.4863
604.60 0.486
604.70 0.4857
604.80 0.4854
604.90 0.4851
605.00 0.4848
605.10 0.4845
605.20 0.4842
605.30 0.4838
605.40 0.4835
605.50 0.4832
605.60 0.4829
605.70 0.4826
605.80 0.4823
605.90 0.482
606.00 0.4817
606.10 0.4814
606.20 0.4811
606.30 0.4808
606.40 0.4805
606.50 0.4802
606.60 0.4799
606.70 0.4796
606.80 0.4793
606.90 0.479
607.00 0.4787
607.10 0.4784
607.20 0.4781
607.30 0.4778
607.40 0.4775
607.50 0.4772
607.60 0.4769
607.70 0.4766
607.80 0.4763
607.90 0.476
608.00 0.4757
608.10 0.4754
608.20 0.4751
608.30 0.4748
608.40 0.4745
608.50 0.4742
608.60 0.4739
608.70 0.4736
608.80 0.4733
608.90 0.473
609.00 0.4727
609.10 0.4724
609.20 0.4721
609.30 0.4718
609.40 0.4715
609.50 0.4712
609.60 0.4709
609.70 0.4706
609.80 0.4703
609.90 0.4701
610.00 0.4698
610.10 0.4695
610.20 0.4692
610.30 0.4689
610.40 0.4686
610.50 0.4683
610.60 0.468
610.70 0.4677
610.80 0.4674
610.90 0.4671
611.00 0.4668
611.10 0.4665
611.20 0.4662
611.30 0.4659
611.40 0.4657
611.50 0.4654
611.60 0.4651
611.70 0.4648
611.80 0.4645
611.90 0.4642
612.00 0.4639
612.10 0.4636
612.20 0.4633
612.30 0.463
612.40 0.4628
612.50 0.4625
612.60 0.4622
612.70 0.4619
612.80 0.4616
612.90 0.4613
613.00 0.461
613.10 0.4607
613.20 0.4605
613.30 0.4602
613.40 0.4599
613.50 0.4596
613.60 0.4593
613.70 0.459
613.80 0.4587
613.90 0.4584
614.00 0.4582
614.10 0.4579
614.20 0.4576
614.30 0.4573
614.40 0.457
614.50 0.4567
614.60 0.4565
614.70 0.4562
614.80 0.4559
614.90 0.4556
615.00 0.4553
615.10 0.455
615.20 0.4548
615.30 0.4545
615.40 0.4542
615.50 0.4539
615.60 0.4536
615.70 0.4533
615.80 0.4531
615.90 0.4528
616.00 0.4525
616.10 0.4522
616.20 0.4519
616.30 0.4517
616.40 0.4514
616.50 0.4511
616.60 0.4508
616.70 0.4505
616.80 0.4503
616.90 0.45
617.00 0.4497
617.10 0.4494
617.20 0.4491
617.30 0.4489
617.40 0.4486
617.50 0.4483
617.60 0.448
617.70 0.4478
617.80 0.4475
617.90 0.4472
618.00 0.4469
618.10 0.4466
618.20 0.4464
618.30 0.4461
618.40 0.4458
618.50 0.4455
618.60 0.4453
618.70 0.445
618.80 0.4447
618.90 0.4444
619.00 0.4442
619.10 0.4439
619.20 0.4436
619.30 0.4433
619.40 0.4431
619.50 0.4428
619.60 0.4425
619.70 0.4423
619.80 0.442
619.90 0.4417
620.00 0.4414
620.10 0.4412
620.20 0.4409
620.30 0.4406
620.40 0.4403
620.50 0.4401
620.60 0.4398
620.70 0.4395
620.80 0.4393
620.90 0.439
621.00 0.4387
621.10 0.4384
621.20 0.4382
621.30 0.4379
621.40 0.4376
621.50 0.4374
621.60 0.4371
621.70 0.4368
621.80 0.4366
621.90 0.4363
622.00 0.436
622.10 0.4358
622.20 0.4355
622.30 0.4352
622.40 0.435
622.50 0.4347
622.60 0.4344
622.70 0.4341
622.80 0.4339
622.90 0.4336
623.00 0.4333
623.10 0.4331
623.20 0.4328
623.30 0.4325
623.40 0.4323
623.50 0.432
623.60 0.4318
623.70 0.4315
623.80 0.4312
623.90 0.431
624.00 0.4307
624.10 0.4304
624.20 0.4302
624.30 0.4299
624.40 0.4296
624.50 0.4294
624.60 0.4291
624.70 0.4288
624.80 0.4286
624.90 0.4283
625.00 0.4281
625.10 0.4278
625.20 0.4275
625.30 0.4273
625.40 0.427
625.50 0.4268
625.60 0.4265
625.70 0.4262
625.80 0.426
625.90 0.4257
626.00 0.4254
626.10 0.4252
626.20 0.4249
626.30 0.4247
626.40 0.4244
626.50 0.4241
626.60 0.4239
626.70 0.4236
626.80 0.4234
626.90 0.4231
627.00 0.4228
627.10 0.4226
627.20 0.4223
627.30 0.4221
627.40 0.4218
627.50 0.4216
627.60 0.4213
627.70 0.421
627.80 0.4208
627.90 0.4205
628.00 0.4203
628.10 0.42
628.20 0.4198
628.30 0.4195
628.40 0.4192
628.50 0.419
628.60 0.4187
628.70 0.4185
628.80 0.4182
628.90 0.418
629.00 0.4177
629.10 0.4175
629.20 0.4172
629.30 0.417
629.40 0.4167
629.50 0.4164
629.60 0.4162
629.70 0.4159
629.80 0.4157
629.90 0.4154
630.00 0.4152
630.10 0.4149
630.20 0.4147
630.30 0.4144
630.40 0.4142
630.50 0.4139
630.60 0.4137
630.70 0.4134
630.80 0.4132
630.90 0.4129
631.00 0.4127
631.10 0.4124
631.20 0.4122
631.30 0.4119
631.40 0.4117
631.50 0.4114
631.60 0.4112
631.70 0.4109
631.80 0.4107
631.90 0.4104
632.00 0.4102
632.10 0.4099
632.20 0.4097
632.30 0.4094
632.40 0.4092
632.50 0.4089
632.60 0.4087
632.70 0.4084
632.80 0.4082
632.90 0.4079
633.00 0.4077
633.10 0.4074
633.20 0.4072
633.30 0.4069
633.40 0.4067
633.50 0.4064
633.60 0.4062
633.70 0.4059
633.80 0.4057
633.90 0.4054
634.00 0.4052
634.10 0.4049
634.20 0.4047
634.30 0.4045
634.40 0.4042
634.50 0.404
634.60 0.4037
634.70 0.4035
634.80 0.4032
634.90 0.403
635.00 0.4027
635.10 0.4025
635.20 0.4023
635.30 0.402
635.40 0.4018
635.50 0.4015
635.60 0.4013
635.70 0.401
635.80 0.4008
635.90 0.4005
636.00 0.4003
636.10 0.4001
636.20 0.3998
636.30 0.3996
636.40 0.3993
636.50 0.3991
636.60 0.3988
636.70 0.3986
636.80 0.3984
636.90 0.3981
637.00 0.3979
637.10 0.3976
637.20 0.3974
637.30 0.3972
637.40 0.3969
637.50 0.3967
637.60 0.3964
637.70 0.3962
637.80 0.396
637.90 0.3957
638.00 0.3955
638.10 0.3952
638.20 0.395
638.30 0.3947
638.40 0.3945
638.50 0.3943
638.60 0.394
638.70 0.3938
638.80 0.3936
638.90 0.3933
639.00 0.3931
639.10 0.3928
639.20 0.3926
639.30 0.3924
639.40 0.3921
639.50 0.3919
639.60 0.3916
639.70 0.3914
639.80 0.3912
639.90 0.3909
640.00 0.3907
640.10 0.3905
640.20 0.3902
640.30 0.39
640.40 0.3897
640.50 0.3895
640.60 0.3893
640.70 0.389
640.80 0.3888
640.90 0.3885
641.00 0.3883
641.10 0.3881
641.20 0.3878
641.30 0.3876
641.40 0.3874
641.50 0.3871
641.60 0.3869
641.70 0.3867
641.80 0.3864
641.90 0.3862
642.00 0.3859
642.10 0.3857
642.20 0.3855
642.30 0.3852
642.40 0.385
642.50 0.3848
642.60 0.3845
642.70 0.3843
642.80 0.384
642.90 0.3838
643.00 0.3836
643.10 0.3833
643.20 0.3831
643.30 0.3829
643.40 0.3826
643.50 0.3824
643.60 0.3822
643.70 0.3819
643.80 0.3817
643.90 0.3814
644.00 0.3812
644.10 0.381
644.20 0.3807
644.30 0.3805
644.40 0.3803
644.50 0.38
644.60 0.3798
644.70 0.3795
644.80 0.3793
644.90 0.3791
645.00 0.3788
645.10 0.3786
645.20 0.3783
645.30 0.3781
645.40 0.3779
645.50 0.3776
645.60 0.3774
645.70 0.3771
645.80 0.3769
645.90 0.3767
646.00 0.3764
646.10 0.3762
646.20 0.3759
646.30 0.3757
646.40 0.3754
646.50 0.3752
646.60 0.375
646.70 0.3747
646.80 0.3745
646.90 0.3742
647.00 0.374
647.10 0.3737
647.20 0.3735
647.30 0.3732
647.40 0.373
647.50 0.3727
647.60 0.3725
647.70 0.3722
647.80 0.372
647.90 0.3717
648.00 0.3715
648.10 0.3712
648.20 0.3709
648.30 0.3707
648.40 0.3704
648.50 0.3702
648.60 0.3699
648.70 0.3696
648.80 0.3693
648.90 0.3691
649.00 0.3688
649.10 0.3685
649.20 0.3683
649.30 0.368
649.40 0.3677
649.50 0.3674
649.60 0.3671
649.70 0.3668
649.80 0.3665
649.90 0.3662
650.00 0.366
650.10 0.3657
650.20 0.3654
650.30 0.3651
650.40 0.3647
650.50 0.3644
650.60 0.3641
650.70 0.3637
650.80 0.3634
650.90 0.363
651.00 0.3627
651.10 0.3624
651.20 0.362
651.30 0.3617
651.40 0.3613
651.50 0.3608
651.60 0.3604
651.70 0.36
651.80 0.3596
651.90 0.3591
652.00 0.3587
652.10 0.3583
652.20 0.3579
652.30 0.3574
652.40 0.3568
652.50 0.3562
652.60 0.3556
652.70 0.355
652.80 0.3544
652.90 0.3538
653.00 0.3532
653.10 0.3526
653.20 0.352
653.30 0.3513
653.40 0.3504
653.50 0.3494
653.60 0.3484
653.70 0.3474
653.80 0.3465
653.90 0.3455
654.00 0.3445
654.10 0.3436
654.20 0.3426
654.30 0.3415
654.40 0.34
654.50 0.3385
654.60 0.337
654.70 0.3356
654.80 0.334
654.90 0.3319
655.00 0.3299
655.10 0.3279
655.20 0.3259
655.30 0.3237
655.40 0.3212
655.50 0.3186
655.60 0.3158
655.70 0.3128
655.80 0.3094
655.90 0.3056
656.00 0.3002
656.10 0.2942
656.20 0.2786
656.30 0.2787
656.40 0.2851
656.50 0.296
656.60 0.3011
656.70 0.3058
656.80 0.3089
656.90 0.3118
657.00 0.3143
657.10 0.3168
657.20 0.3189
657.30 0.3209
657.40 0.3226
657.50 0.3242
657.60 0.3258
657.70 0.3275
657.80 0.329
657.90 0.3301
658.00 0.3312
658.10 0.3322
658.20 0.3333
658.30 0.3343
658.40 0.3348
658.50 0.3354
658.60 0.336
658.70 0.3365
658.80 0.3371
658.90 0.3376
659.00 0.3382
659.10 0.3387
659.20 0.3393
659.30 0.3398
659.40 0.3399
659.50 0.3401
659.60 0.3403
659.70 0.3405
659.80 0.3406
659.90 0.3408
660.00 0.341
660.10 0.3412
660.20 0.3413
660.30 0.3415
660.40 0.3415
660.50 0.3415
660.60 0.3415
660.70 0.3415
660.80 0.3415
660.90 0.3415
661.00 0.3415
661.10 0.3415
661.20 0.3415
661.30 0.3415
661.40 0.3414
661.50 0.3413
661.60 0.3412
661.70 0.3411
661.80 0.341
661.90 0.3409
662.00 0.3409
662.10 0.3408
662.20 0.3407
662.30 0.3406
662.40 0.3405
662.50 0.3403
662.60 0.3402
662.70 0.3401
662.80 0.34
662.90 0.3398
663.00 0.3397
663.10 0.3396
663.20 0.3394
663.30 0.3393
663.40 0.3392
663.50 0.339
663.60 0.3389
663.70 0.3387
663.80 0.3386
663.90 0.3384
664.00 0.3382
664.10 0.3381
664.20 0.3379
664.30 0.3378
664.40 0.3376
664.50 0.3375
664.60 0.3373
664.70 0.3371
664.80 0.337
664.90 0.3368
665.00 0.3366
665.10 0.3365
665.20 0.3363
665.30 0.3361
665.40 0.336
665.50 0.3358
665.60 0.3356
665.70 0.3354
665.80 0.3353
665.90 0.3351
666.00 0.3349
666.10 0.3348
666.20 0.3346
666.30 0.3344
666.40 0.3342
666.50 0.3341
666.60 0.3339
666.70 0.3337
666.80 0.3335
666.90 0.3333
667.00 0.3332
667.10 0.333
667.20 0.3328
667.30 0.3326
667.40 0.3325
667.50 0.3323
667.60 0.3321
667.70 0.3319
667.80 0.3317
667.90 0.3316
668.00 0.3314
668.10 0.3312
668.20 0.331
668.30 0.3308
668.40 0.3307
668.50 0.3305
668.60 0.3303
668.70 0.3301
668.80 0.3299
668.90 0.3298
669.00 0.3296
669.10 0.3294
669.20 0.3292
669.30 0.329
669.40 0.3288
669.50 0.3287
669.60 0.3285
669.70 0.3283
669.80 0.3281
669.90 0.3279
670.00 0.3278
670.10 0.3276
670.20 0.3274
670.30 0.3272
670.40 0.327
670.50 0.3269
670.60 0.3267
670.70 0.3265
670.80 0.3263
670.90 0.3261
671.00 0.3259
671.10 0.3258
671.20 0.3256
671.30 0.3254
671.40 0.3252
671.50 0.325
671.60 0.3249
671.70 0.3247
671.80 0.3245
671.90 0.3243
672.00 0.3241
672.10 0.3239
672.20 0.3238
672.30 0.3236
672.40 0.3234
672.50 0.3232
672.60 0.323
672.70 0.3229
672.80 0.3227
672.90 0.3225
673.00 0.3223
673.10 0.3221
673.20 0.322
673.30 0.3218
673.40 0.3216
673.50 0.3214
673.60 0.3212
673.70 0.3211
673.80 0.3209
673.90 0.3207
674.00 0.3205
674.10 0.3203
674.20 0.3202
674.30 0.32
674.40 0.3198
674.50 0.3196
674.60 0.3194
674.70 0.3193
674.80 0.3191
674.90 0.3189
675.00 0.3187
675.10 0.3185
675.20 0.3184
675.30 0.3182
675.40 0.318
675.50 0.3178
675.60 0.3176
675.70 0.3175
675.80 0.3173
675.90 0.3171
676.00 0.3169
676.10 0.3168
676.20 0.3166
676.30 0.3164
676.40 0.3162
676.50 0.316
676.60 0.3159
676.70 0.3157
676.80 0.3155
676.90 0.3153
677.00 0.3152
677.10 0.315
677.20 0.3148
677.30 0.3146
677.40 0.3145
677.50 0.3143
677.60 0.3141
677.70 0.3139
677.80 0.3137
677.90 0.3136
678.00 0.3134
678.10 0.3132
678.20 0.313
678.30 0.3129
678.40 0.3127
678.50 0.3125
678.60 0.3123
678.70 0.3122
678.80 0.312
678.90 0.3118
679.00 0.3116
679.10 0.3115
679.20 0.3113
679.30 0.3111
679.40 0.3109
679.50 0.3108
679.60 0.3106
679.70 0.3104
679.80 0.3102
679.90 0.3101
680.00 0.3099
680.10 0.3097
680.20 0.3095
680.30 0.3094
680.40 0.3092
680.50 0.309
680.60 0.3089
680.70 0.3087
680.80 0.3085
680.90 0.3083
681.00 0.3082
681.10 0.308
681.20 0.3078
681.30 0.3076
681.40 0.3075
681.50 0.3073
681.60 0.3071
681.70 0.307
681.80 0.3068
681.90 0.3066
682.00 0.3064
682.10 0.3063
682.20 0.3061
682.30 0.3059
682.40 0.3058
682.50 0.3056
682.60 0.3054
682.70 0.3052
682.80 0.3051
682.90 0.3049
683.00 0.3047
683.10 0.3046
683.20 0.3044
683.30 0.3042
683.40 0.304
683.50 0.3039
683.60 0.3037
683.70 0.3035
683.80 0.3034
683.90 0.3032
684.00 0.303
684.10 0.3029
684.20 0.3027
684.30 0.3025
684.40 0.3023
684.50 0.3022
684.60 0.302
684.70 0.3018
684.80 0.3017
684.90 0.3015
685.00 0.3013
685.10 0.3012
685.20 0.301
685.30 0.3008
685.40 0.3007
685.50 0.3005
685.60 0.3003
685.70 0.3002
685.80 0.3
685.90 0.2998
686.00 0.2997
686.10 0.2995
686.20 0.2993
686.30 0.2992
686.40 0.299
686.50 0.2988
686.60 0.2987
686.70 0.2985
686.80 0.2983
686.90 0.2982
687.00 0.298
687.10 0.2978
687.20 0.2977
687.30 0.2975
687.40 0.2973
687.50 0.2972
687.60 0.297
687.70 0.2968
687.80 0.2967
687.90 0.2965
688.00 0.2963
688.10 0.2962
688.20 0.296
688.30 0.2958
688.40 0.2957
688.50 0.2955
688.60 0.2953
688.70 0.2952
688.80 0.295
688.90 0.2949
689.00 0.2947
689.10 0.2945
689.20 0.2944
689.30 0.2942
689.40 0.294
689.50 0.2939
689.60 0.2937
689.70 0.2936
689.80 0.2934
689.90 0.2932
690.00 0.2931
690.10 0.2929
690.20 0.2927
690.30 0.2926
690.40 0.2924
690.50 0.2923
690.60 0.2921
690.70 0.2919
690.80 0.2918
690.90 0.2916
691.00 0.2914
691.10 0.2913
691.20 0.2911
691.30 0.291
691.40 0.2908
691.50 0.2906
691.60 0.2905
691.70 0.2903
691.80 0.2902
691.90 0.29
692.00 0.2898
692.10 0.2897
692.20 0.2895
692.30 0.2894
692.40 0.2892
692.50 0.289
692.60 0.2889
692.70 0.2887
692.80 0.2886
692.90 0.2884
693.00 0.2882
693.10 0.2881
693.20 0.2879
693.30 0.2878
693.40 0.2876
693.50 0.2874
693.60 0.2873
693.70 0.2871
693.80 0.287
693.90 0.2868
694.00 0.2866
694.10 0.2865
694.20 0.2863
694.30 0.2862
694.40 0.286
694.50 0.2859
694.60 0.2857
694.70 0.2855
694.80 0.2854
694.90 0.2852
695.00 0.2851
695.10 0.2849
695.20 0.2847
695.30 0.2846
695.40 0.2844
695.50 0.2843
695.60 0.2841
695.70 0.284
695.80 0.2838
695.90 0.2837
696.00 0.2835
696.10 0.2833
696.20 0.2832
696.30 0.283
696.40 0.2829
696.50 0.2827
696.60 0.2826
696.70 0.2824
696.80 0.2823
696.90 0.2821
697.00 0.2819
697.10 0.2818
697.20 0.2816
697.30 0.2815
697.40 0.2813
697.50 0.2812
697.60 0.281
697.70 0.2809
697.80 0.2807
697.90 0.2806
698.00 0.2804
698.10 0.2802
698.20 0.2801
698.30 0.2799
698.40 0.2798
698.50 0.2796
698.60 0.2795
698.70 0.2793
698.80 0.2792
698.90 0.279
699.00 0.2789
699.10 0.2787
699.20 0.2786
699.30 0.2784
699.40 0.2782
699.50 0.2781
699.60 0.2779
699.70 0.2778
699.80 0.2776
699.90 0.2775
700.00 0.2773
700.10 0.2772
700.20 0.277
700.30 0.2769
700.40 0.2767
700.50 0.2766
700.60 0.2764
700.70 0.2763
700.80 0.2761
700.90 0.276
701.00 0.2758
701.10 0.2757
701.20 0.2755
701.30 0.2754
701.40 0.2752
701.50 0.2751
701.60 0.2749
701.70 0.2748
701.80 0.2746
701.90 0.2745
702.00 0.2743
702.10 0.2742
702.20 0.274
702.30 0.2739
702.40 0.2737
702.50 0.2736
702.60 0.2734
702.70 0.2733
702.80 0.2731
702.90 0.273
703.00 0.2728
703.10 0.2727
703.20 0.2725
703.30 0.2724
703.40 0.2722
703.50 0.2721
703.60 0.2719
703.70 0.2718
703.80 0.2716
703.90 0.2715
704.00 0.2713
704.10 0.2712
704.20 0.271
704.30 0.2709
704.40 0.2707
704.50 0.2706
704.60 0.2704
704.70 0.2703
704.80 0.2702
704.90 0.27
705.00 0.2699
705.10 0.2697
705.20 0.2696
705.30 0.2694
705.40 0.2693
705.50 0.2691
705.60 0.269
705.70 0.2688
705.80 0.2687
705.90 0.2685
706.00 0.2684
706.10 0.2683
706.20 0.2681
706.30 0.268
706.40 0.2678
706.50 0.2677
706.60 0.2675
706.70 0.2674
706.80 0.2672
706.90 0.2671
707.00 0.2669
707.10 0.2668
707.20 0.2667
707.30 0.2665
707.40 0.2664
707.50 0.2662
707.60 0.2661
707.70 0.2659
707.80 0.2658
707.90 0.2656
708.00 0.2655
708.10 0.2654
708.20 0.2652
708.30 0.2651
708.40 0.2649
708.50 0.2648
708.60 0.2646
708.70 0.2645
708.80 0.2644
708.90 0.2642
709.00 0.2641
709.10 0.2639
709.20 0.2638
709.30 0.2636
709.40 0.2635
709.50 0.2633
709.60 0.2632
709.70 0.2631
709.80 0.2629
709.90 0.2628
710.00 0.2626
710.10 0.2625
710.20 0.2624
710.30 0.2622
710.40 0.2621
710.50 0.2619
710.60 0.2618
710.70 0.2616
710.80 0.2615
710.90 0.2614
711.00 0.2612
711.10 0.2611
711.20 0.2609
711.30 0.2608
711.40 0.2607
711.50 0.2605
711.60 0.2604
711.70 0.2602
711.80 0.2601
711.90 0.26
712.00 0.2598
712.10 0.2597
712.20 0.2595
712.30 0.2594
712.40 0.2593
712.50 0.2591
712.60 0.259
712.70 0.2588
712.80 0.2587
712.90 0.2586
713.00 0.2584
713.10 0.2583
713.20 0.2581
713.30 0.258
713.40 0.2579
713.50 0.2577
713.60 0.2576
713.70 0.2575
713.80 0.2573
713.90 0.2572
714.00 0.257
714.10 0.2569
714.20 0.2568
714.30 0.2566
714.40 0.2565
714.50 0.2563
714.60 0.2562
714.70 0.2561
714.80 0.2559
714.90 0.2558
715.00 0.2557
715.10 0.2555
715.20 0.2554
715.30 0.2552
715.40 0.2551
715.50 0.255
715.60 0.2548
715.70 0.2547
715.80 0.2546
715.90 0.2544
716.00 0.2543
716.10 0.2542
716.20 0.254
716.30 0.2539
716.40 0.2537
716.50 0.2536
716.60 0.2535
716.70 0.2533
716.80 0.2532
716.90 0.2531
717.00 0.2529
717.10 0.2528
717.20 0.2527
717.30 0.2525
717.40 0.2524
717.50 0.2523
717.60 0.2521
717.70 0.252
717.80 0.2518
717.90 0.2517
718.00 0.2516
718.10 0.2514
718.20 0.2513
718.30 0.2512
718.40 0.251
718.50 0.2509
718.60 0.2508
718.70 0.2506
718.80 0.2505
718.90 0.2504
719.00 0.2502
719.10 0.2501
719.20 0.25
719.30 0.2498
719.40 0.2497
719.50 0.2496
719.60 0.2494
719.70 0.2493
719.80 0.2492
719.90 0.249
720.00 0.2489
720.10 0.2488
720.20 0.2486
720.30 0.2485
720.40 0.2484
720.50 0.2482
720.60 0.2481
720.70 0.248
720.80 0.2478
720.90 0.2477
721.00 0.2476
721.10 0.2474
721.20 0.2473
721.30 0.2472
721.40 0.2471
721.50 0.2469
721.60 0.2468
721.70 0.2467
721.80 0.2465
721.90 0.2464
722.00 0.2463
722.10 0.2461
722.20 0.246
722.30 0.2459
722.40 0.2457
722.50 0.2456
722.60 0.2455
722.70 0.2454
722.80 0.2452
722.90 0.2451
723.00 0.245
723.10 0.2448
723.20 0.2447
723.30 0.2446
723.40 0.2444
723.50 0.2443
723.60 0.2442
723.70 0.2441
723.80 0.2439
723.90 0.2438
724.00 0.2437
724.10 0.2435
724.20 0.2434
724.30 0.2433
724.40 0.2431
724.50 0.243
724.60 0.2429
724.70 0.2428
724.80 0.2426
724.90 0.2425
725.00 0.2424
725.10 0.2422
725.20 0.2421
725.30 0.242
725.40 0.2419
725.50 0.2417
725.60 0.2416
725.70 0.2415
725.80 0.2413
725.90 0.2412
726.00 0.2411
726.10 0.241
726.20 0.2408
726.30 0.2407
726.40 0.2406
726.50 0.2405
726.60 0.2403
726.70 0.2402
726.80 0.2401
726.90 0.2399
727.00 0.2398
727.10 0.2397
727.20 0.2396
727.30 0.2394
727.40 0.2393
727.50 0.2392
727.60 0.2391
727.70 0.2389
727.80 0.2388
727.90 0.2387
728.00 0.2386
728.10 0.2384
728.20 0.2383
728.30 0.2382
728.40 0.2381
728.50 0.2379
728.60 0.2378
728.70 0.2377
728.80 0.2376
728.90 0.2374
729.00 0.2373
729.10 0.2372
729.20 0.237
729.30 0.2369
729.40 0.2368
729.50 0.2367
729.60 0.2365
729.70 0.2364
729.80 0.2363
729.90 0.2362
730.00 0.236
730.10 0.2359
730.20 0.2358
730.30 0.2357
730.40 0.2356
730.50 0.2354
730.60 0.2353
730.70 0.2352
730.80 0.2351
730.90 0.2349
731.00 0.2348
731.10 0.2347
731.20 0.2346
731.30 0.2345
731.40 0.2343
731.50 0.2342
731.60 0.2341
731.70 0.234
731.80 0.2338
731.90 0.2337
732.00 0.2336
732.10 0.2335
732.20 0.2334
732.30 0.2332
732.40 0.2331
732.50 0.233
732.60 0.2329
732.70 0.2327
732.80 0.2326
732.90 0.2325
733.00 0.2324
733.10 0.2323
733.20 0.2321
733.30 0.232
733.40 0.2319
733.50 0.2318
733.60 0.2317
733.70 0.2315
733.80 0.2314
733.90 0.2313
734.00 0.2312
734.10 0.231
734.20 0.2309
734.30 0.2308
734.40 0.2307
734.50 0.2306
734.60 0.2304
734.70 0.2303
734.80 0.2302
734.90 0.2301
735.00 0.23
735.10 0.2298
735.20 0.2297
735.30 0.2296
735.40 0.2295
735.50 0.2294
735.60 0.2292
735.70 0.2291
735.80 0.229
735.90 0.2289
736.00 0.2288
736.10 0.2286
736.20 0.2285
736.30 0.2284
736.40 0.2283
736.50 0.2282
736.60 0.228
736.70 0.2279
736.80 0.2278
736.90 0.2277
737.00 0.2276
737.10 0.2274
737.20 0.2273
737.30 0.2272
737.40 0.2271
737.50 0.227
737.60 0.2269
737.70 0.2267
737.80 0.2266
737.90 0.2265
738.00 0.2264
738.10 0.2263
738.20 0.2261
738.30 0.226
738.40 0.2259
738.50 0.2258
738.60 0.2257
738.70 0.2256
738.80 0.2254
738.90 0.2253
739.00 0.2252
739.10 0.2251
739.20 0.225
739.30 0.2248
739.40 0.2247
739.50 0.2246
739.60 0.2245
739.70 0.2244
739.80 0.2243
739.90 0.2241
740.00 0.224
740.10 0.2239
740.20 0.2238
740.30 0.2237
740.40 0.2236
740.50 0.2234
740.60 0.2233
740.70 0.2232
740.80 0.2231
740.90 0.223
741.00 0.2229
741.10 0.2228
741.20 0.2226
741.30 0.2225
741.40 0.2224
741.50 0.2223
741.60 0.2222
741.70 0.2221
741.80 0.222
741.90 0.2218
742.00 0.2217
742.10 0.2216
742.20 0.2215
742.30 0.2214
742.40 0.2213
742.50 0.2212
742.60 0.221
742.70 0.2209
742.80 0.2208
742.90 0.2207
743.00 0.2206
743.10 0.2205
743.20 0.2204
743.30 0.2202
743.40 0.2201
743.50 0.22
743.60 0.2199
743.70 0.2198
743.80 0.2197
743.90 0.2196
744.00 0.2194
744.10 0.2193
744.20 0.2192
744.30 0.2191
744.40 0.219
744.50 0.2189
744.60 0.2188
744.70 0.2187
744.80 0.2185
744.90 0.2184
745.00 0.2183
745.10 0.2182
745.20 0.2181
745.30 0.218
745.40 0.2179
745.50 0.2178
745.60 0.2176
745.70 0.2175
745.80 0.2174
745.90 0.2173
746.00 0.2172
746.10 0.2171
746.20 0.217
746.30 0.2169
746.40 0.2167
746.50 0.2166
746.60 0.2165
746.70 0.2164
746.80 0.2163
746.90 0.2162
747.00 0.2161
747.10 0.216
747.20 0.2158
747.30 0.2157
747.40 0.2156
747.50 0.2155
747.60 0.2154
747.70 0.2153
747.80 0.2152
747.90 0.2151
748.00 0.215
748.10 0.2148
748.20 0.2147
748.30 0.2146
748.40 0.2145
748.50 0.2144
748.60 0.2143
748.70 0.2142
748.80 0.2141
748.90 0.214
749.00 0.2139
749.10 0.2137
749.20 0.2136
749.30 0.2135
749.40 0.2134
749.50 0.2133
749.60 0.2132
749.70 0.2131
749.80 0.213
749.90 0.2129
750.00 0.2127
750.10 0.2126
750.20 0.2125
750.30 0.2124
750.40 0.2123
750.50 0.2122
750.60 0.2121
750.70 0.212
750.80 0.2119
750.90 0.2118
751.00 0.2117
751.10 0.2116
751.20 0.2115
751.30 0.2113
751.40 0.2112
751.50 0.2111
751.60 0.211
751.70 0.2109
751.80 0.2108
751.90 0.2107
752.00 0.2106
752.10 0.2105
752.20 0.2104
752.30 0.2103
752.40 0.2102
752.50 0.2101
752.60 0.21
752.70 0.2098
752.80 0.2097
752.90 0.2096
753.00 0.2095
753.10 0.2094
753.20 0.2093
753.30 0.2092
753.40 0.2091
753.50 0.209
753.60 0.2089
753.70 0.2088
753.80 0.2087
753.90 0.2086
754.00 0.2085
754.10 0.2084
754.20 0.2082
754.30 0.2081
754.40 0.208
754.50 0.2079
754.60 0.2078
754.70 0.2077
754.80 0.2076
754.90 0.2075
755.00 0.2074
755.10 0.2073
755.20 0.2072
755.30 0.2071
755.40 0.207
755.50 0.2069
755.60 0.2068
755.70 0.2067
755.80 0.2066
755.90 0.2065
756.00 0.2063
756.10 0.2062
756.20 0.2061
756.30 0.206
756.40 0.2059
756.50 0.2058
756.60 0.2057
756.70 0.2056
756.80 0.2055
756.90 0.2054
757.00 0.2053
757.10 0.2052
757.20 0.2051
757.30 0.205
757.40 0.2049
757.50 0.2048
757.60 0.2047
757.70 0.2046
757.80 0.2045
757.90 0.2044
758.00 0.2043
758.10 0.2041
758.20 0.204
758.30 0.2039
758.40 0.2038
758.50 0.2037
758.60 0.2036
758.70 0.2035
758.80 0.2034
758.90 0.2033
759.00 0.2032
759.10 0.2031
759.20 0.203
759.30 0.2029
759.40 0.2028
759.50 0.2027
759.60 0.2026
759.70 0.2025
759.80 0.2024
759.90 0.2023
760.00 0.2022
760.10 0.2021
760.20 0.202
760.30 0.2019
760.40 0.2018
760.50 0.2017
760.60 0.2016
760.70 0.2015
760.80 0.2014
760.90 0.2013
761.00 0.2012
761.10 0.2011
761.20 0.201
761.30 0.2009
761.40 0.2008
761.50 0.2007
761.60 0.2006
761.70 0.2005
761.80 0.2004
761.90 0.2003
762.00 0.2002
762.10 0.2001
762.20 0.2
762.30 0.1999
762.40 0.1998
762.50 0.1997
762.60 0.1996
762.70 0.1995
762.80 0.1994
762.90 0.1993
763.00 0.1992
763.10 0.1991
763.20 0.199
763.30 0.1989
763.40 0.1988
763.50 0.1987
763.60 0.1986
763.70 0.1985
763.80 0.1984
763.90 0.1983
764.00 0.1982
764.10 0.1981
764.20 0.198
764.30 0.1979
764.40 0.1978
764.50 0.1977
764.60 0.1976
764.70 0.1975
764.80 0.1974
764.90 0.1973
765.00 0.1972
765.10 0.1971
765.20 0.197
765.30 0.1969
765.40 0.1968
765.50 0.1967
765.60 0.1966
765.70 0.1965
765.80 0.1964
765.90 0.1963
766.00 0.1962
766.10 0.1961
766.20 0.196
766.30 0.1959
766.40 0.1958
766.50 0.1957
766.60 0.1956
766.70 0.1955
766.80 0.1954
766.90 0.1953
767.00 0.1952
767.10 0.1951
767.20 0.195
767.30 0.1949
767.40 0.1948
767.50 0.1947
767.60 0.1946
767.70 0.1945
767.80 0.1944
767.90 0.1943
768.00 0.1942
768.10 0.1941
768.20 0.194
768.30 0.1939
768.40 0.1938
768.50 0.1937
768.60 0.1936
768.70 0.1935
768.80 0.1934
768.90 0.1933
769.00 0.1932
769.10 0.1931
769.20 0.193
769.30 0.1929
769.40 0.1928
769.50 0.1927
769.60 0.1926
769.70 0.1925
769.80 0.1924
769.90 0.1924
770.00 0.1923
770.10 0.1922
770.20 0.1921
770.30 0.192
770.40 0.1919
770.50 0.1918
770.60 0.1917
770.70 0.1916
770.80 0.1915
770.90 0.1914
771.00 0.1913
771.10 0.1912
771.20 0.1911
771.30 0.191
771.40 0.1909
771.50 0.1908
771.60 0.1907
771.70 0.1906
771.80 0.1905
771.90 0.1905
772.00 0.1904
772.10 0.1903
772.20 0.1902
772.30 0.1901
772.40 0.19
772.50 0.1899
772.60 0.1898
772.70 0.1897
772.80 0.1896
772.90 0.1895
773.00 0.1894
773.10 0.1893
773.20 0.1892
773.30 0.1891
773.40 0.189
773.50 0.1889
773.60 0.1888
773.70 0.1888
773.80 0.1887
773.90 0.1886
774.00 0.1885
774.10 0.1884
774.20 0.1883
774.30 0.1882
774.40 0.1881
774.50 0.188
774.60 0.1879
774.70 0.1878
774.80 0.1877
774.90 0.1876
775.00 0.1875
775.10 0.1874
775.20 0.1874
775.30 0.1873
775.40 0.1872
775.50 0.1871
775.60 0.187
775.70 0.1869
775.80 0.1868
775.90 0.1867
776.00 0.1866
776.10 0.1865
776.20 0.1864
776.30 0.1863
776.40 0.1862
776.50 0.1861
776.60 0.1861
776.70 0.186
776.80 0.1859
776.90 0.1858
777.00 0.1857
777.10 0.1856
777.20 0.1855
777.30 0.1854
777.40 0.1853
777.50 0.1852
777.60 0.1851
777.70 0.185
777.80 0.1849
777.90 0.1849
778.00 0.1848
778.10 0.1847
778.20 0.1846
778.30 0.1845
778.40 0.1844
778.50 0.1843
778.60 0.1842
778.70 0.1841
778.80 0.184
778.90 0.1839
779.00 0.1838
779.10 0.1838
779.20 0.1837
779.30 0.1836
779.40 0.1835
779.50 0.1834
779.60 0.1833
779.70 0.1832
779.80 0.1831
779.90 0.183
780.00 0.1829
780.10 0.1828
780.20 0.1828
780.30 0.1827
780.40 0.1826
780.50 0.1825
780.60 0.1824
780.70 0.1823
780.80 0.1822
780.90 0.1821
781.00 0.182
781.10 0.1819
781.20 0.1819
781.30 0.1818
781.40 0.1817
781.50 0.1816
781.60 0.1815
781.70 0.1814
781.80 0.1813
781.90 0.1812
782.00 0.1811
782.10 0.1811
782.20 0.181
782.30 0.1809
782.40 0.1808
782.50 0.1807
782.60 0.1806
782.70 0.1805
782.80 0.1804
782.90 0.1804
783.00 0.1803
783.10 0.1802
783.20 0.1801
783.30 0.18
783.40 0.1799
783.50 0.1798
783.60 0.1797
783.70 0.1796
783.80 0.1796
783.90 0.1795
784.00 0.1794
784.10 0.1793
784.20 0.1792
784.30 0.1791
784.40 0.179
784.50 0.1789
784.60 0.1789
784.70 0.1788
784.80 0.1787
784.90 0.1786
785.00 0.1785
785.10 0.1784
785.20 0.1783
785.30 0.1782
785.40 0.1782
785.50 0.1781
785.60 0.178
785.70 0.1779
785.80 0.1778
785.90 0.1777
786.00 0.1776
786.10 0.1775
786.20 0.1775
786.30 0.1774
786.40 0.1773
786.50 0.1772
786.60 0.1771
786.70 0.177
786.80 0.1769
786.90 0.1768
787.00 0.1768
787.10 0.1767
787.20 0.1766
787.30 0.1765
787.40 0.1764
787.50 0.1763
787.60 0.1762
787.70 0.1762
787.80 0.1761
787.90 0.176
788.00 0.1759
788.10 0.1758
788.20 0.1757
788.30 0.1756
788.40 0.1755
788.50 0.1755
788.60 0.1754
788.70 0.1753
788.80 0.1752
788.90 0.1751
789.00 0.175
789.10 0.1749
789.20 0.1749
789.30 0.1748
789.40 0.1747
789.50 0.1746
789.60 0.1745
789.70 0.1744
789.80 0.1743
789.90 0.1743
790.00 0.1742
790.10 0.1741
790.20 0.174
790.30 0.1739
790.40 0.1738
790.50 0.1738
790.60 0.1737
790.70 0.1736
790.80 0.1735
790.90 0.1734
791.00 0.1733
791.10 0.1732
791.20 0.1732
791.30 0.1731
791.40 0.173
791.50 0.1729
791.60 0.1728
791.70 0.1727
791.80 0.1727
791.90 0.1726
792.00 0.1725
792.10 0.1724
792.20 0.1723
792.30 0.1722
792.40 0.1722
792.50 0.1721
792.60 0.172
792.70 0.1719
792.80 0.1718
792.90 0.1717
793.00 0.1717
793.10 0.1716
793.20 0.1715
793.30 0.1714
793.40 0.1713
793.50 0.1712
793.60 0.1712
793.70 0.1711
793.80 0.171
793.90 0.1709
794.00 0.1708
794.10 0.1707
794.20 0.1707
794.30 0.1706
794.40 0.1705
794.50 0.1704
794.60 0.1703
794.70 0.1703
794.80 0.1702
794.90 0.1701
795.00 0.17
795.10 0.1699
795.20 0.1698
795.30 0.1698
795.40 0.1697
795.50 0.1696
795.60 0.1695
795.70 0.1694
795.80 0.1693
795.90 0.1693
796.00 0.1692
796.10 0.1691
796.20 0.169
796.30 0.1689
796.40 0.1689
796.50 0.1688
796.60 0.1687
796.70 0.1686
796.80 0.1685
796.90 0.1684
797.00 0.1684
797.10 0.1683
797.20 0.1682
797.30 0.1681
797.40 0.168
797.50 0.168
797.60 0.1679
797.70 0.1678
797.80 0.1677
797.90 0.1676
798.00 0.1675
798.10 0.1675
798.20 0.1674
798.30 0.1673
798.40 0.1672
798.50 0.1671
798.60 0.1671
798.70 0.167
798.80 0.1669
798.90 0.1668
799.00 0.1667
799.10 0.1667
799.20 0.1666
799.30 0.1665
799.40 0.1664
799.50 0.1663
799.60 0.1663
799.70 0.1662
799.80 0.1661
799.90 0.166
800.00 0.1659
800.10 0.1658
800.20 0.1658
800.30 0.1657
800.40 0.1656
800.50 0.1655
800.60 0.1655
800.70 0.1654
800.80 0.1653
800.90 0.1652
801.00 0.1651
801.10 0.1651
801.20 0.165
801.30 0.1649
801.40 0.1648
801.50 0.1647
801.60 0.1647
801.70 0.1646
801.80 0.1645
801.90 0.1644
802.00 0.1644
802.10 0.1643
802.20 0.1642
802.30 0.1641
802.40 0.164
802.50 0.164
802.60 0.1639
802.70 0.1638
802.80 0.1637
802.90 0.1636
803.00 0.1636
803.10 0.1635
803.20 0.1634
803.30 0.1633
803.40 0.1633
803.50 0.1632
803.60 0.1631
803.70 0.163
803.80 0.1629
803.90 0.1629
804.00 0.1628
804.10 0.1627
804.20 0.1626
804.30 0.1626
804.40 0.1625
804.50 0.1624
804.60 0.1623
804.70 0.1622
804.80 0.1622
804.90 0.1621
805.00 0.162
805.10 0.1619
805.20 0.1619
805.30 0.1618
805.40 0.1617
805.50 0.1616
805.60 0.1615
805.70 0.1615
805.80 0.1614
805.90 0.1613
806.00 0.1612
806.10 0.1612
806.20 0.1611
806.30 0.161
806.40 0.1609
806.50 0.1608
806.60 0.1608
806.70 0.1607
806.80 0.1606
806.90 0.1605
807.00 0.1605
807.10 0.1604
807.20 0.1603
807.30 0.1602
807.40 0.1602
807.50 0.1601
807.60 0.16
807.70 0.1599
807.80 0.1598
807.90 0.1598
808.00 0.1597
808.10 0.1596
808.20 0.1595
808.30 0.1595
808.40 0.1594
808.50 0.1593
808.60 0.1592
808.70 0.1592
808.80 0.1591
808.90 0.159
809.00 0.1589
809.10 0.1589
809.20 0.1588
809.30 0.1587
809.40 0.1586
809.50 0.1585
809.60 0.1585
809.70 0.1584
809.80 0.1583
809.90 0.1582
810.00 0.1582
810.10 0.1581
810.20 0.158
810.30 0.1579
810.40 0.1579
810.50 0.1578
810.60 0.1577
810.70 0.1576
810.80 0.1576
810.90 0.1575
811.00 0.1574
811.10 0.1573
811.20 0.1573
811.30 0.1572
811.40 0.1571
811.50 0.1571
811.60 0.157
811.70 0.1569
811.80 0.1568
811.90 0.1568
812.00 0.1567
812.10 0.1566
812.20 0.1565
812.30 0.1565
812.40 0.1564
812.50 0.1563
812.60 0.1562
812.70 0.1562
812.80 0.1561
812.90 0.156
813.00 0.1559
813.10 0.1559
813.20 0.1558
813.30 0.1557
813.40 0.1556
813.50 0.1556
813.60 0.1555
813.70 0.1554
813.80 0.1554
813.90 0.1553
814.00 0.1552
814.10 0.1551
814.20 0.1551
814.30 0.155
814.40 0.1549
814.50 0.1548
814.60 0.1548
814.70 0.1547
814.80 0.1546
814.90 0.1545
815.00 0.1545
815.10 0.1544
815.20 0.1543
815.30 0.1543
815.40 0.1542
815.50 0.1541
815.60 0.154
815.70 0.154
815.80 0.1539
815.90 0.1538
816.00 0.1537
816.10 0.1537
816.20 0.1536
816.30 0.1535
816.40 0.1535
816.50 0.1534
816.60 0.1533
816.70 0.1532
816.80 0.1532
816.90 0.1531
817.00 0.153
817.10 0.1529
817.20 0.1529
817.30 0.1528
817.40 0.1527
817.50 0.1527
817.60 0.1526
817.70 0.1525
817.80 0.1524
817.90 0.1524
818.00 0.1523
818.10 0.1522
818.20 0.1522
818.30 0.1521
818.40 0.152
818.50 0.1519
818.60 0.1519
818.70 0.1518
818.80 0.1517
818.90 0.1516
819.00 0.1516
819.10 0.1515
819.20 0.1514
819.30 0.1514
819.40 0.1513
819.50 0.1512
819.60 0.1511
819.70 0.1511
819.80 0.151
819.90 0.1509
820.00 0.1509
820.10 0.1508
820.20 0.1507
820.30 0.1506
820.40 0.1506
820.50 0.1505
820.60 0.1504
820.70 0.1504
820.80 0.1503
820.90 0.1502
821.00 0.1502
821.10 0.1501
821.20 0.15
821.30 0.1499
821.40 0.1499
821.50 0.1498
821.60 0.1497
821.70 0.1497
821.80 0.1496
821.90 0.1495
822.00 0.1494
822.10 0.1494
822.20 0.1493
822.30 0.1492
822.40 0.1492
822.50 0.1491
822.60 0.149
822.70 0.149
822.80 0.1489
822.90 0.1488
823.00 0.1488
823.10 0.1487
823.20 0.1486
823.30 0.1485
823.40 0.1485
823.50 0.1484
823.60 0.1483
823.70 0.1483
823.80 0.1482
823.90 0.1481
824.00 0.1481
824.10 0.148
824.20 0.1479
824.30 0.1478
824.40 0.1478
824.50 0.1477
824.60 0.1476
824.70 0.1476
824.80 0.1475
824.90 0.1474
825.00 0.1474
825.10 0.1473
825.20 0.1472
825.30 0.1472
825.40 0.1471
825.50 0.147
825.60 0.147
825.70 0.1469
825.80 0.1468
825.90 0.1467
826.00 0.1467
826.10 0.1466
826.20 0.1465
826.30 0.1465
826.40 0.1464
826.50 0.1463
826.60 0.1463
826.70 0.1462
826.80 0.1461
826.90 0.1461
827.00 0.146
827.10 0.1459
827.20 0.1459
827.30 0.1458
827.40 0.1457
827.50 0.1457
827.60 0.1456
827.70 0.1455
827.80 0.1454
827.90 0.1454
828.00 0.1453
828.10 0.1452
828.20 0.1452
828.30 0.1451
828.40 0.145
828.50 0.145
828.60 0.1449
828.70 0.1448
828.80 0.1448
828.90 0.1447
829.00 0.1446
829.10 0.1446
829.20 0.1445
829.30 0.1444
829.40 0.1444
829.50 0.1443
829.60 0.1442
829.70 0.1442
829.80 0.1441
829.90 0.144
830.00 0.144
830.10 0.1439
830.20 0.1438
830.30 0.1438
830.40 0.1437
830.50 0.1436
830.60 0.1436
830.70 0.1435
830.80 0.1434
830.90 0.1434
831.00 0.1433
831.10 0.1432
831.20 0.1432
831.30 0.1431
831.40 0.143
831.50 0.143
831.60 0.1429
831.70 0.1428
831.80 0.1428
831.90 0.1427
832.00 0.1426
832.10 0.1426
832.20 0.1425
832.30 0.1424
832.40 0.1424
832.50 0.1423
832.60 0.1422
832.70 0.1422
832.80 0.1421
832.90 0.142
833.00 0.142
833.10 0.1419
833.20 0.1418
833.30 0.1418
833.40 0.1417
833.50 0.1416
833.60 0.1416
833.70 0.1415
833.80 0.1414
833.90 0.1414
834.00 0.1413
834.10 0.1412
834.20 0.1412
834.30 0.1411
834.40 0.141
834.50 0.141
834.60 0.1409
834.70 0.1408
834.80 0.1408
834.90 0.1407
835.00 0.1406
835.10 0.1406
835.20 0.1405
835.30 0.1405
835.40 0.1404
835.50 0.1403
835.60 0.1403
835.70 0.1402
835.80 0.1401
835.90 0.1401
836.00 0.14
836.10 0.1399
836.20 0.1399
836.30 0.1398
836.40 0.1397
836.50 0.1397
836.60 0.1396
836.70 0.1395
836.80 0.1395
836.90 0.1394
837.00 0.1393
837.10 0.1393
837.20 0.1392
837.30 0.1391
837.40 0.1391
837.50 0.139
837.60 0.139
837.70 0.1389
837.80 0.1388
837.90 0.1388
838.00 0.1387
838.10 0.1386
838.20 0.1386
838.30 0.1385
838.40 0.1384
838.50 0.1384
838.60 0.1383
838.70 0.1383
838.80 0.1382
838.90 0.1381
839.00 0.1381
839.10 0.138
839.20 0.1379
839.30 0.1379
839.40 0.1378
839.50 0.1377
839.60 0.1377
839.70 0.1376
839.80 0.1375
839.90 0.1375
840.00 0.1374
840.10 0.1374
840.20 0.1373
840.30 0.1372
840.40 0.1372
840.50 0.1371
840.60 0.137
840.70 0.137
840.80 0.1369
840.90 0.1369
841.00 0.1368
841.10 0.1367
841.20 0.1367
841.30 0.1366
841.40 0.1365
841.50 0.1365
841.60 0.1364
841.70 0.1363
841.80 0.1363
841.90 0.1362
842.00 0.1362
842.10 0.1361
842.20 0.136
842.30 0.136
842.40 0.1359
842.50 0.1358
842.60 0.1358
842.70 0.1357
842.80 0.1357
842.90 0.1356
843.00 0.1355
843.10 0.1355
843.20 0.1354
843.30 0.1353
843.40 0.1353
843.50 0.1352
843.60 0.1352
843.70 0.1351
843.80 0.135
843.90 0.135
844.00 0.1349
844.10 0.1349
844.20 0.1348
844.30 0.1347
844.40 0.1347
844.50 0.1346
844.60 0.1345
844.70 0.1345
844.80 0.1344
844.90 0.1344
845.00 0.1343
845.10 0.1342
845.20 0.1342
845.30 0.1341
845.40 0.134
845.50 0.134
845.60 0.1339
845.70 0.1339
845.80 0.1338
845.90 0.1337
846.00 0.1337
846.10 0.1336
846.20 0.1336
846.30 0.1335
846.40 0.1334
846.50 0.1334
846.60 0.1333
846.70 0.1332
846.80 0.1332
846.90 0.1331
847.00 0.1331
847.10 0.133
847.20 0.1329
847.30 0.1329
847.40 0.1328
847.50 0.1328
847.60 0.1327
847.70 0.1326
847.80 0.1326
847.90 0.1325
848.00 0.1325
848.10 0.1324
848.20 0.1323
848.30 0.1323
848.40 0.1322
848.50 0.1322
848.60 0.1321
848.70 0.132
848.80 0.132
848.90 0.1319
849.00 0.1319
849.10 0.1318
849.20 0.1317
849.30 0.1317
849.40 0.1316
849.50 0.1316
849.60 0.1315
849.70 0.1314
849.80 0.1314
849.90 0.1313
850.00 0.1313
850.10 0.1312
850.20 0.1311
850.30 0.1311
850.40 0.131
850.50 0.131
850.60 0.1309
850.70 0.1308
850.80 0.1308
850.90 0.1307
851.00 0.1307
851.10 0.1306
851.20 0.1305
851.30 0.1305
851.40 0.1304
851.50 0.1304
851.60 0.1303
851.70 0.1302
851.80 0.1302
851.90 0.1301
852.00 0.1301
852.10 0.13
852.20 0.1299
852.30 0.1299
852.40 0.1298
852.50 0.1298
852.60 0.1297
852.70 0.1296
852.80 0.1296
852.90 0.1295
853.00 0.1295
853.10 0.1294
853.20 0.1294
853.30 0.1293
853.40 0.1292
853.50 0.1292
853.60 0.1291
853.70 0.1291
853.80 0.129
853.90 0.1289
854.00 0.1289
854.10 0.1288
854.20 0.1288
854.30 0.1287
854.40 0.1287
854.50 0.1286
854.60 0.1285
854.70 0.1285
854.80 0.1284
854.90 0.1284
855.00 0.1283
855.10 0.1282
855.20 0.1282
855.30 0.1281
855.40 0.1281
855.50 0.128
855.60 0.128
855.70 0.1279
855.80 0.1278
855.90 0.1278
856.00 0.1277
856.10 0.1277
856.20 0.1276
856.30 0.1275
856.40 0.1275
856.50 0.1274
856.60 0.1274
856.70 0.1273
856.80 0.1273
856.90 0.1272
857.00 0.1271
857.10 0.1271
857.20 0.127
857.30 0.127
857.40 0.1269
857.50 0.1269
857.60 0.1268
857.70 0.1267
857.80 0.1267
857.90 0.1266
858.00 0.1266
858.10 0.1265
858.20 0.1265
858.30 0.1264
858.40 0.1263
858.50 0.1263
858.60 0.1262
858.70 0.1262
858.80 0.1261
858.90 0.1261
859.00 0.126
859.10 0.126
859.20 0.1259
859.30 0.1258
859.40 0.1258
859.50 0.1257
859.60 0.1257
859.70 0.1256
859.80 0.1256
859.90 0.1255
860.00 0.1254
860.10 0.1254
860.20 0.1253
860.30 0.1253
860.40 0.1252
860.50 0.1252
860.60 0.1251
860.70 0.1251
860.80 0.125
860.90 0.1249
861.00 0.1249
861.10 0.1248
861.20 0.1248
861.30 0.1247
861.40 0.1247
861.50 0.1246
861.60 0.1245
861.70 0.1245
861.80 0.1244
861.90 0.1244
862.00 0.1243
862.10 0.1243
862.20 0.1242
862.30 0.1242
862.40 0.1241
862.50 0.1241
862.60 0.124
862.70 0.1239
862.80 0.1239
862.90 0.1238
863.00 0.1238
863.10 0.1237
863.20 0.1237
863.30 0.1236
863.40 0.1236
863.50 0.1235
863.60 0.1234
863.70 0.1234
863.80 0.1233
863.90 0.1233
864.00 0.1232
864.10 0.1232
864.20 0.1231
864.30 0.1231
864.40 0.123
864.50 0.123
864.60 0.1229
864.70 0.1228
864.80 0.1228
864.90 0.1227
865.00 0.1227
865.10 0.1226
865.20 0.1226
865.30 0.1225
865.40 0.1225
865.50 0.1224
865.60 0.1224
865.70 0.1223
865.80 0.1222
865.90 0.1222
866.00 0.1221
866.10 0.1221
866.20 0.122
866.30 0.122
866.40 0.1219
866.50 0.1219
866.60 0.1218
866.70 0.1218
866.80 0.1217
866.90 0.1216
867.00 0.1216
867.10 0.1215
867.20 0.1215
867.30 0.1214
867.40 0.1214
867.50 0.1213
867.60 0.1213
867.70 0.1212
867.80 0.1212
867.90 0.1211
868.00 0.1211
868.10 0.121
868.20 0.121
868.30 0.1209
868.40 0.1208
868.50 0.1208
868.60 0.1207
868.70 0.1207
868.80 0.1206
868.90 0.1206
869.00 0.1205
869.10 0.1205
869.20 0.1204
869.30 0.1204
869.40 0.1203
869.50 0.1203
869.60 0.1202
869.70 0.1202
869.80 0.1201
869.90 0.12
870.00 0.12
870.10 0.1199
870.20 0.1199
870.30 0.1198
870.40 0.1198
870.50 0.1197
870.60 0.1197
870.70 0.1196
870.80 0.1196
870.90 0.1195
871.00 0.1195
871.10 0.1194
871.20 0.1194
871.30 0.1193
871.40 0.1193
871.50 0.1192
871.60 0.1192
871.70 0.1191
871.80 0.119
871.90 0.119
872.00 0.1189
872.10 0.1189
872.20 0.1188
872.30 0.1188
872.40 0.1187
872.50 0.1187
872.60 0.1186
872.70 0.1186
872.80 0.1185
872.90 0.1185
873.00 0.1184
873.10 0.1184
873.20 0.1183
873.30 0.1183
873.40 0.1182
873.50 0.1182
873.60 0.1181
873.70 0.1181
873.80 0.118
873.90 0.118
874.00 0.1179
874.10 0.1179
874.20 0.1178
874.30 0.1178
874.40 0.1177
874.50 0.1177
874.60 0.1176
874.70 0.1175
874.80 0.1175
874.90 0.1174
875.00 0.1174
875.10 0.1173
875.20 0.1173
875.30 0.1172
875.40 0.1172
875.50 0.1171
875.60 0.1171
875.70 0.117
875.80 0.117
875.90 0.1169
876.00 0.1169
876.10 0.1168
876.20 0.1168
876.30 0.1167
876.40 0.1167
876.50 0.1166
876.60 0.1166
876.70 0.1165
876.80 0.1165
876.90 0.1164
877.00 0.1164
877.10 0.1163
877.20 0.1163
877.30 0.1162
877.40 0.1162
877.50 0.1161
877.60 0.1161
877.70 0.116
877.80 0.116
877.90 0.1159
878.00 0.1159
878.10 0.1158
878.20 0.1158
878.30 0.1157
878.40 0.1157
878.50 0.1156
878.60 0.1156
878.70 0.1155
878.80 0.1155
878.90 0.1154
879.00 0.1154
879.10 0.1153
879.20 0.1153
879.30 0.1152
879.40 0.1152
879.50 0.1151
879.60 0.1151
879.70 0.115
879.80 0.115
879.90 0.1149
880.00 0.1149
880.10 0.1148
880.20 0.1148
880.30 0.1147
880.40 0.1147
880.50 0.1146
880.60 0.1146
880.70 0.1145
880.80 0.1145
880.90 0.1144
881.00 0.1144
881.10 0.1143
881.20 0.1143
881.30 0.1142
881.40 0.1142
881.50 0.1141
881.60 0.1141
881.70 0.114
881.80 0.114
881.90 0.1139
882.00 0.1139
882.10 0.1138
882.20 0.1138
882.30 0.1137
882.40 0.1137
882.50 0.1136
882.60 0.1136
882.70 0.1135
882.80 0.1135
882.90 0.1134
883.00 0.1134
883.10 0.1133
883.20 0.1133
883.30 0.1132
883.40 0.1132
883.50 0.1131
883.60 0.1131
883.70 0.113
883.80 0.113
883.90 0.1129
884.00 0.1129
884.10 0.1128
884.20 0.1128
884.30 0.1127
884.40 0.1127
884.50 0.1126
884.60 0.1126
884.70 0.1125
884.80 0.1125
884.90 0.1124
885.00 0.1124
885.10 0.1123
885.20 0.1123
885.30 0.1122
885.40 0.1122
885.50 0.1122
885.60 0.1121
885.70 0.1121
885.80 0.112
885.90 0.112
886.00 0.1119
886.10 0.1119
886.20 0.1118
886.30 0.1118
886.40 0.1117
886.50 0.1117
886.60 0.1116
886.70 0.1116
886.80 0.1115
886.90 0.1115
887.00 0.1114
887.10 0.1114
887.20 0.1113
887.30 0.1113
887.40 0.1112
887.50 0.1112
887.60 0.1111
887.70 0.1111
887.80 0.111
887.90 0.111
888.00 0.111
888.10 0.1109
888.20 0.1109
888.30 0.1108
888.40 0.1108
888.50 0.1107
888.60 0.1107
888.70 0.1106
888.80 0.1106
888.90 0.1105
889.00 0.1105
889.10 0.1104
889.20 0.1104
889.30 0.1104
889.40 0.1103
889.50 0.1103
889.60 0.1102
889.70 0.1102
889.80 0.1101
889.90 0.1101
890.00 0.11
890.10 0.11
890.20 0.1099
890.30 0.1099
890.40 0.1098
890.50 0.1098
890.60 0.1098
890.70 0.1097
890.80 0.1097
890.90 0.1096
891.00 0.1096
891.10 0.1095
891.20 0.1095
891.30 0.1094
891.40 0.1094
891.50 0.1093
891.60 0.1093
891.70 0.1092
891.80 0.1092
891.90 0.1092
892.00 0.1091
892.10 0.1091
892.20 0.109
892.30 0.109
892.40 0.1089
892.50 0.1089
892.60 0.1088
892.70 0.1088
892.80 0.1087
892.90 0.1087
893.00 0.1086
893.10 0.1086
893.20 0.1085
893.30 0.1085
893.40 0.1084
893.50 0.1084
893.60 0.1083
893.70 0.1083
893.80 0.1082
893.90 0.1082
894.00 0.1081
894.10 0.1081
894.20 0.108
894.30 0.108
894.40 0.1079
894.50 0.1079
894.60 0.1078
894.70 0.1078
894.80 0.1077
894.90 0.1077
895.00 0.1077
895.10 0.1076
895.20 0.1076
895.30 0.1075
895.40 0.1075
895.50 0.1074
895.60 0.1074
895.70 0.1073
895.80 0.1073
895.90 0.1072
896.00 0.1072
896.10 0.1071
896.20 0.1071
896.30 0.107
896.40 0.107
896.50 0.1069
896.60 0.1069
896.70 0.1068
896.80 0.1068
896.90 0.1067
897.00 0.1067
897.10 0.1066
897.20 0.1066
897.30 0.1065
897.40 0.1065
897.50 0.1064
897.60 0.1064
897.70 0.1064
897.80 0.1063
897.90 0.1063
898.00 0.1062
898.10 0.1062
898.20 0.1061
898.30 0.1061
898.40 0.106
898.50 0.106
898.60 0.1059
898.70 0.1059
898.80 0.1058
898.90 0.1058
899.00 0.1057
899.10 0.1057
899.20 0.1056
899.30 0.1056
899.40 0.1055
899.50 0.1055
899.60 0.1054
899.70 0.1054
899.80 0.1053
899.90 0.1053
900.00 0.1052
900.10 0.1052
900.20 0.1051
900.30 0.1051
900.40 0.1051
900.50 0.105
900.60 0.105
900.70 0.1049
900.80 0.1049
900.90 0.1048
901.00 0.1048
901.10 0.1047
901.20 0.1047
901.30 0.1046
901.40 0.1046
901.50 0.1045
901.60 0.1045
901.70 0.1044
901.80 0.1044
901.90 0.1043
902.00 0.1043
902.10 0.1043
902.20 0.1042
902.30 0.1042
902.40 0.1041
902.50 0.1041
902.60 0.1041
902.70 0.104
902.80 0.104
902.90 0.1039
903.00 0.1039
903.10 0.1039
903.20 0.1038
903.30 0.1038
903.40 0.1038
903.50 0.1037
903.60 0.1037
903.70 0.1036
903.80 0.1036
903.90 0.1036
904.00 0.1035
904.10 0.1035
904.20 0.1034
904.30 0.1034
904.40 0.1034
904.50 0.1033
904.60 0.1033
904.70 0.1033
904.80 0.1032
904.90 0.1032
905.00 0.1031
905.10 0.1031
905.20 0.1031
905.30 0.103
905.40 0.103
905.50 0.103
905.60 0.1029
905.70 0.1029
905.80 0.1028
905.90 0.1028
906.00 0.1028
906.10 0.1027
906.20 0.1027
906.30 0.1027
906.40 0.1026
906.50 0.1026
906.60 0.1025
906.70 0.1025
906.80 0.1025
906.90 0.1024
907.00 0.1024
907.10 0.1023
907.20 0.1023
907.30 0.1023
907.40 0.1022
907.50 0.1022
907.60 0.1021
907.70 0.1021
907.80 0.1021
907.90 0.102
908.00 0.102
908.10 0.1019
908.20 0.1019
908.30 0.1018
908.40 0.1018
908.50 0.1018
908.60 0.1017
908.70 0.1017
908.80 0.1016
908.90 0.1016
909.00 0.1016
909.10 0.1015
909.20 0.1015
909.30 0.1014
909.40 0.1014
909.50 0.1014
909.60 0.1013
909.70 0.1013
909.80 0.1012
909.90 0.1012
910.00 0.1011
910.10 0.1011
910.20 0.1011
910.30 0.101
910.40 0.101
910.50 0.1009
910.60 0.1009
910.70 0.1009
910.80 0.1008
910.90 0.1008
911.00 0.1007
911.10 0.1007
911.20 0.1007
911.30 0.1006
911.40 0.1006
911.50 0.1005
911.60 0.1005
911.70 0.1005
911.80 0.1004
911.90 0.1004
912.00 0.1003
912.10 0.1003
912.20 0.1002
912.30 0.1002
912.40 0.1001
912.50 0.1001
912.60 0.1
912.70 0.1
912.80 0.09995
912.90 0.0999
913.00 0.09985
913.10 0.09981
913.20 0.09976
913.30 0.09971
913.40 0.09966
913.50 0.09962
913.60 0.09957
913.70 0.09952
913.80 0.09947
913.90 0.09943
914.00 0.09938
914.10 0.09933
914.20 0.09928
914.30 0.09924
914.40 0.09919
914.50 0.09914
914.60 0.0991
914.70 0.09905
914.80 0.099
914.90 0.09895
915.00 0.09891
915.10 0.09886
915.20 0.09881
915.30 0.09876
915.40 0.09872
915.50 0.09867
915.60 0.09862
915.70 0.09858
915.80 0.09853
915.90 0.09848
916.00 0.09843
916.10 0.09839
916.20 0.09834
916.30 0.09829
916.40 0.09825
916.50 0.0982
916.60 0.09815
916.70 0.0981
916.80 0.09806
916.90 0.09801
917.00 0.09796
917.10 0.09791
917.20 0.09786
917.30 0.09781
917.40 0.09775
917.50 0.0977
917.60 0.09765
917.70 0.09759
917.80 0.09754
917.90 0.09749
918.00 0.09744
918.10 0.09738
918.20 0.09733
918.30 0.09728
918.40 0.09723
918.50 0.09717
918.60 0.09712
918.70 0.09707
918.80 0.09702
918.90 0.09696
919.00 0.09691
919.10 0.09686
919.20 0.09681
919.30 0.09675
919.40 0.0967
919.50 0.09665
919.60 0.0966
919.70 0.09654
919.80 0.09649
919.90 0.09644
920.00 0.09639
920.10 0.09633
920.20 0.09628
920.30 0.09623
920.40 0.09618
920.50 0.09613
920.60 0.09607
920.70 0.09602
920.80 0.09597
920.90 0.09592
921.00 0.09586
921.10 0.09581
921.20 0.09576
921.30 0.09571
921.40 0.09566
921.50 0.0956
921.60 0.09555
921.70 0.0955
921.80 0.09545
921.90 0.0954
922.00 0.09535
922.10 0.09531
922.20 0.09528
922.30 0.09525
922.40 0.09522
922.50 0.09519
922.60 0.09516
922.70 0.09513
922.80 0.0951
922.90 0.09507
923.00 0.09504
923.10 0.09501
923.20 0.09498
923.30 0.09495
923.40 0.09492
923.50 0.09489
923.60 0.09486
923.70 0.09483
923.80 0.0948
923.90 0.09477
924.00 0.09474
924.10 0.09471
924.20 0.09468
924.30 0.09465
924.40 0.09462
924.50 0.09459
924.60 0.09456
924.70 0.09453
924.80 0.0945
924.90 0.09447
925.00 0.09444
925.10 0.09441
925.20 0.09438
925.30 0.09434
925.40 0.09431
925.50 0.09428
925.60 0.09425
925.70 0.09422
925.80 0.09419
925.90 0.09416
926.00 0.09413
926.10 0.0941
926.20 0.09407
926.30 0.09404
926.40 0.09401
926.50 0.09398
926.60 0.09395
926.70 0.09392
926.80 0.09389
926.90 0.09386
927.00 0.09383
927.10 0.09381
927.20 0.09378
927.30 0.09375
927.40 0.09372
927.50 0.09369
927.60 0.09366
927.70 0.09363
927.80 0.0936
927.90 0.09358
928.00 0.09355
928.10 0.09352
928.20 0.09349
928.30 0.09346
928.40 0.09343
928.50 0.0934
928.60 0.09338
928.70 0.09335
928.80 0.09332
928.90 0.09329
929.00 0.09326
929.10 0.09323
929.20 0.09321
929.30 0.09318
929.40 0.09315
929.50 0.09312
929.60 0.09309
929.70 0.09306
929.80 0.09303
929.90 0.09301
930.00 0.09298
930.10 0.09295
930.20 0.09292
930.30 0.09289
930.40 0.09286
930.50 0.09284
930.60 0.09281
930.70 0.09278
930.80 0.09275
930.90 0.09272
931.00 0.09269
931.10 0.09267
931.20 0.09264
931.30 0.09261
931.40 0.09258
931.50 0.09255
931.60 0.09252
931.70 0.0925
931.80 0.09247
931.90 0.09244
932.00 0.09241
932.10 0.09238
932.20 0.09234
932.30 0.09231
932.40 0.09228
932.50 0.09225
932.60 0.09221
932.70 0.09218
932.80 0.09215
932.90 0.09211
933.00 0.09208
933.10 0.09205
933.20 0.09201
933.30 0.09198
933.40 0.09195
933.50 0.09191
933.60 0.09188
933.70 0.09185
933.80 0.09181
933.90 0.09178
934.00 0.09175
934.10 0.09172
934.20 0.09168
934.30 0.09165
934.40 0.09161
934.50 0.09158
934.60 0.09154
934.70 0.09151
934.80 0.09147
934.90 0.09144
935.00 0.0914
935.10 0.09136
935.20 0.09133
935.30 0.09129
935.40 0.09126
935.50 0.09122
935.60 0.09119
935.70 0.09115
935.80 0.09112
935.90 0.09108
936.00 0.09105
936.10 0.09101
936.20 0.09097
936.30 0.09094
936.40 0.0909
936.50 0.09087
936.60 0.09083
936.70 0.0908
936.80 0.09076
936.90 0.09073
937.00 0.09069
937.10 0.09065
937.20 0.09062
937.30 0.09058
937.40 0.09054
937.50 0.09051
937.60 0.09047
937.70 0.09043
937.80 0.0904
937.90 0.09036
938.00 0.09032
938.10 0.09028
938.20 0.09025
938.30 0.09021
938.40 0.09017
938.50 0.09013
938.60 0.09009
938.70 0.09006
938.80 0.09002
938.90 0.08998
939.00 0.08994
939.10 0.0899
939.20 0.08986
939.30 0.08983
939.40 0.08979
939.50 0.08975
939.60 0.08971
939.70 0.08967
939.80 0.08963
939.90 0.0896
940.00 0.08956
940.10 0.08952
940.20 0.08948
940.30 0.08944
940.40 0.0894
940.50 0.08936
940.60 0.08932
940.70 0.08928
940.80 0.08924
940.90 0.0892
941.00 0.08916
941.10 0.08912
941.20 0.08908
941.30 0.08904
941.40 0.089
941.50 0.08896
941.60 0.08892
941.70 0.08888
941.80 0.08884
941.90 0.0888
942.00 0.08876
942.10 0.08872
942.20 0.08868
942.30 0.08864
942.40 0.0886
942.50 0.08855
942.60 0.08851
942.70 0.08847
942.80 0.08843
942.90 0.08838
943.00 0.08834
943.10 0.0883
943.20 0.08826
943.30 0.08821
943.40 0.08817
943.50 0.08813
943.60 0.08809
943.70 0.08804
943.80 0.088
943.90 0.08796
944.00 0.08792
944.10 0.08788
944.20 0.08783
944.30 0.08779
944.40 0.08775
944.50 0.0877
944.60 0.08766
944.70 0.08761
944.80 0.08757
944.90 0.08752
945.00 0.08748
945.10 0.08743
945.20 0.08739
945.30 0.08734
945.40 0.0873
945.50 0.08725
945.60 0.0872
945.70 0.08716
945.80 0.08711
945.90 0.08706
946.00 0.08701
946.10 0.08697
946.20 0.08692
946.30 0.08687
946.40 0.08683
946.50 0.08678
946.60 0.08673
946.70 0.08668
946.80 0.08664
946.90 0.08659
947.00 0.08654
947.10 0.08649
947.20 0.08644
947.30 0.08639
947.40 0.08634
947.50 0.08629
947.60 0.08624
947.70 0.08618
947.80 0.08613
947.90 0.08608
948.00 0.08603
948.10 0.08597
948.20 0.08592
948.30 0.08587
948.40 0.08582
948.50 0.08577
948.60 0.08571
948.70 0.08566
948.80 0.08561
948.90 0.08556
949.00 0.0855
949.10 0.08545
949.20 0.0854
949.30 0.08535
949.40 0.08529
949.50 0.08523
949.60 0.08517
949.70 0.08512
949.80 0.08506
949.90 0.085
950.00 0.08494
950.10 0.08488
950.20 0.08483
950.30 0.08477
950.40 0.08471
950.50 0.08465
950.60 0.08459
950.70 0.08454
950.80 0.08448
950.90 0.08442
951.00 0.08436
951.10 0.08431
951.20 0.08425
951.30 0.08419
951.40 0.08413
951.50 0.08407
951.60 0.08401
951.70 0.08395
951.80 0.08389
951.90 0.08382
952.00 0.08376
952.10 0.0837
952.20 0.08364
952.30 0.08358
952.40 0.08352
952.50 0.08346
952.60 0.0834
952.70 0.08334
952.80 0.08328
952.90 0.08322
953.00 0.08316
953.10 0.0831
953.20 0.08304
953.30 0.08299
953.40 0.08293
953.50 0.08287
953.60 0.08282
953.70 0.08276
953.80 0.08271
953.90 0.08266
954.00 0.08261
954.10 0.08257
954.20 0.08253
954.30 0.08249
954.40 0.08246
954.50 0.08243
954.60 0.0824
954.70 0.08237
954.80 0.08233
954.90 0.0823
955.00 0.08227
955.10 0.08224
955.20 0.08223
955.30 0.08221
955.40 0.0822
955.50 0.08219
955.60 0.08217
955.70 0.08216
955.80 0.08214
955.90 0.08214
956.00 0.08213
956.10 0.08212
956.20 0.08212
956.30 0.08211
956.40 0.0821
956.50 0.0821
956.60 0.08209
956.70 0.08208
956.80 0.08208
956.90 0.08207
957.00 0.08206
957.10 0.08206
957.20 0.08205
957.30 0.08205
957.40 0.08204
957.50 0.08203
957.60 0.08202
957.70 0.08202
957.80 0.08201
957.90 0.082
958.00 0.08199
958.10 0.08199
958.20 0.08198
958.30 0.08197
958.40 0.08196
958.50 0.08195
958.60 0.08195
958.70 0.08194
958.80 0.08193
958.90 0.08192
959.00 0.08191
959.10 0.08191
959.20 0.0819
959.30 0.08189
959.40 0.08188
959.50 0.08186
959.60 0.08185
959.70 0.08183
959.80 0.08182
959.90 0.08181
960.00 0.08179
960.10 0.08178
960.20 0.08176
960.30 0.08175
960.40 0.08174
960.50 0.08172
960.60 0.08171
960.70 0.08169
960.80 0.08168
960.90 0.08167
961.00 0.08165
961.10 0.08164
961.20 0.08162
961.30 0.08161
961.40 0.08159
961.50 0.08157
961.60 0.08156
961.70 0.08154
961.80 0.08152
961.90 0.0815
962.00 0.08148
962.10 0.08146
962.20 0.08144
962.30 0.08142
962.40 0.0814
962.50 0.08138
962.60 0.08136
962.70 0.08134
962.80 0.08132
962.90 0.0813
963.00 0.08128
963.10 0.08126
963.20 0.08124
963.30 0.08122
963.40 0.0812
963.50 0.08118
963.60 0.08115
963.70 0.08113
963.80 0.08111
963.90 0.08108
964.00 0.08106
964.10 0.08104
964.20 0.08102
964.30 0.08099
964.40 0.08097
964.50 0.08094
964.60 0.08092
964.70 0.08089
964.80 0.08087
964.90 0.08084
965.00 0.08082
965.10 0.08079
965.20 0.08077
965.30 0.08074
965.40 0.08072
965.50 0.08069
965.60 0.08067
965.70 0.08065
965.80 0.08062
965.90 0.0806
966.00 0.08057
966.10 0.08055
966.20 0.08052
966.30 0.0805
966.40 0.08047
966.50 0.08044
966.60 0.08042
966.70 0.08039
966.80 0.08036
966.90 0.08034
967.00 0.08031
967.10 0.08028
967.20 0.08026
967.30 0.08023
967.40 0.0802
967.50 0.08017
967.60 0.08015
967.70 0.08012
967.80 0.08009
967.90 0.08006
968.00 0.08004
968.10 0.08001
968.20 0.07998
968.30 0.07995
968.40 0.07993
968.50 0.0799
968.60 0.07987
968.70 0.07984
968.80 0.07981
968.90 0.07978
969.00 0.07976
969.10 0.07973
969.20 0.0797
969.30 0.07967
969.40 0.07964
969.50 0.07961
969.60 0.07958
969.70 0.07956
969.80 0.07953
969.90 0.0795
970.00 0.07947
970.10 0.07944
970.20 0.07941
970.30 0.07939
970.40 0.07936
970.50 0.07933
970.60 0.0793
970.70 0.07927
970.80 0.07924
970.90 0.07921
971.00 0.07918
971.10 0.07915
971.20 0.07912
971.30 0.07909
971.40 0.07906
971.50 0.07904
971.60 0.07901
971.70 0.07898
971.80 0.07895
971.90 0.07892
972.00 0.07889
972.10 0.07886
972.20 0.07883
972.30 0.0788
972.40 0.07877
972.50 0.07874
972.60 0.07871
972.70 0.07868
972.80 0.07865
972.90 0.07862
973.00 0.07859
973.10 0.07856
973.20 0.07853
973.30 0.0785
973.40 0.07847
973.50 0.07844
973.60 0.07841
973.70 0.07838
973.80 0.07835
973.90 0.07832
974.00 0.07829
974.10 0.07826
974.20 0.07823
974.30 0.0782
974.40 0.07817
974.50 0.07814
974.60 0.07811
974.70 0.07808
974.80 0.07805
974.90 0.07802
975.00 0.07799
975.10 0.07796
975.20 0.07793
975.30 0.0779
975.40 0.07787
975.50 0.07784
975.60 0.07781
975.70 0.07778
975.80 0.07775
975.90 0.07772
976.00 0.07769
976.10 0.07766
976.20 0.07763
976.30 0.0776
976.40 0.07757
976.50 0.07754
976.60 0.07751
976.70 0.07748
976.80 0.07745
976.90 0.07742
977.00 0.07739
977.10 0.07736
977.20 0.07733
977.30 0.0773
977.40 0.07727
977.50 0.07724
977.60 0.07721
977.70 0.07718
977.80 0.07715
977.90 0.07712
978.00 0.07709
978.10 0.07705
978.20 0.07702
978.30 0.07699
978.40 0.07696
978.50 0.07693
978.60 0.0769
978.70 0.07687
978.80 0.07684
978.90 0.07681
979.00 0.07678
979.10 0.07675
979.20 0.07672
979.30 0.07669
979.40 0.07666
979.50 0.07663
979.60 0.0766
979.70 0.07657
979.80 0.07654
979.90 0.07651
980.00 0.07648
980.10 0.07645
980.20 0.07642
980.30 0.07639
980.40 0.07635
980.50 0.07632
980.60 0.07629
980.70 0.07626
980.80 0.07623
980.90 0.0762
981.00 0.07617
981.10 0.07614
981.20 0.07611
981.30 0.07608
981.40 0.07605
981.50 0.07602
981.60 0.07599
981.70 0.07596
981.80 0.07593
981.90 0.0759
982.00 0.07587
982.10 0.07584
982.20 0.07581
982.30 0.07578
982.40 0.07575
982.50 0.07572
982.60 0.07569
982.70 0.07566
982.80 0.07563
982.90 0.07559
983.00 0.07556
983.10 0.07553
983.20 0.0755
983.30 0.07547
983.40 0.07544
983.50 0.07541
983.60 0.07538
983.70 0.07535
983.80 0.07532
983.90 0.07529
984.00 0.07526
984.10 0.07523
984.20 0.0752
984.30 0.07517
984.40 0.07514
984.50 0.0751
984.60 0.07507
984.70 0.07504
984.80 0.07501
984.90 0.07498
985.00 0.07495
985.10 0.07492
985.20 0.07489
985.30 0.07486
985.40 0.07483
985.50 0.0748
985.60 0.07476
985.70 0.07473
985.80 0.0747
985.90 0.07467
986.00 0.07464
986.10 0.07461
986.20 0.07458
986.30 0.07455
986.40 0.07452
986.50 0.07449
986.60 0.07445
986.70 0.07442
986.80 0.07439
986.90 0.07436
987.00 0.07433
987.10 0.0743
987.20 0.07427
987.30 0.07424
987.40 0.07421
987.50 0.07417
987.60 0.07414
987.70 0.07411
987.80 0.07408
987.90 0.07405
988.00 0.07402
988.10 0.07398
988.20 0.07395
988.30 0.07392
988.40 0.07389
988.50 0.07386
988.60 0.07383
988.70 0.0738
988.80 0.07376
988.90 0.07373
989.00 0.0737
989.10 0.07367
989.20 0.07363
989.30 0.0736
989.40 0.07357
989.50 0.07354
989.60 0.0735
989.70 0.07347
989.80 0.07344
989.90 0.07341
990.00 0.07338
990.10 0.07334
990.20 0.07331
990.30 0.07328
990.40 0.07325
990.50 0.07321
990.60 0.07318
990.70 0.07315
990.80 0.07312
990.90 0.07308
991.00 0.07305
991.10 0.07302
991.20 0.07298
991.30 0.07295
991.40 0.07292
991.50 0.07288
991.60 0.07285
991.70 0.07282
991.80 0.07278
991.90 0.07275
992.00 0.07272
992.10 0.07268
992.20 0.07265
992.30 0.07261
992.40 0.07258
992.50 0.07254
992.60 0.07251
992.70 0.07247
992.80 0.07244
992.90 0.0724
993.00 0.07237
993.10 0.07233
993.20 0.07229
993.30 0.07226
993.40 0.07222
993.50 0.07219
993.60 0.07215
993.70 0.07211
993.80 0.07208
993.90 0.07204
994.00 0.07201
994.10 0.07197
994.20 0.07193
994.30 0.0719
994.40 0.07186
994.50 0.07183
994.60 0.07179
994.70 0.07175
994.80 0.07171
994.90 0.07167
995.00 0.07164
995.10 0.0716
995.20 0.07156
995.30 0.07152
995.40 0.07148
995.50 0.07144
995.60 0.0714
995.70 0.07136
995.80 0.07132
995.90 0.07128
996.00 0.07124
996.10 0.0712
996.20 0.07115
996.30 0.07111
996.40 0.07107
996.50 0.07103
996.60 0.07099
996.70 0.07095
996.80 0.07091
996.90 0.07086
997.00 0.07082
997.10 0.07078
997.20 0.07073
997.30 0.07069
997.40 0.07064
997.50 0.0706
997.60 0.07055
997.70 0.0705
997.80 0.07045
997.90 0.0704
998.00 0.07035
998.10 0.0703
998.20 0.07025
998.30 0.0702
998.40 0.07015
998.50 0.0701
998.60 0.07005
998.70 0.07
998.80 0.06995
998.90 0.0699
999.00 0.06985
999.10 0.0698
999.20 0.06975
999.30 0.0697
999.40 0.06965
999.50 0.0696
999.60 0.06955
999.70 0.06949
999.80 0.06943
999.90 0.06937
1000.00 0.0693
1000.10 0.06924
1000.20 0.06918
1000.30 0.06912
1000.40 0.06906
1000.50 0.069
1000.60 0.06893
1000.70 0.06887
1000.80 0.06881
1000.90 0.06875
1001.00 0.06869
1001.10 0.06863
1001.20 0.06856
1001.30 0.0685
1001.40 0.06844
1001.50 0.06838
1001.60 0.06832
1001.70 0.06825
1001.80 0.06818
1001.90 0.06812
1002.00 0.06805
1002.10 0.06798
1002.20 0.0679
1002.30 0.06783
1002.40 0.06776
1002.50 0.06769
1002.60 0.06762
1002.70 0.06755
1002.80 0.06748
1002.90 0.0674
1003.00 0.06733
1003.10 0.06726
1003.20 0.06719
1003.30 0.06712
1003.40 0.06705
1003.50 0.06699
1003.60 0.06692
1003.70 0.06685
1003.80 0.06678
1003.90 0.06672
1004.00 0.06667
1004.10 0.06662
1004.20 0.06657
1004.30 0.06654
1004.40 0.06652
1004.50 0.06651
1004.60 0.06653
1004.70 0.06658
1004.80 0.06664
1004.90 0.06663
1005.00 0.06662
1005.10 0.06655
1005.20 0.06646
1005.30 0.06637
1005.40 0.06628
1005.50 0.06626
1005.60 0.06625
1005.70 0.06625
1005.80 0.06624
1005.90 0.06623
1006.00 0.06623
1006.10 0.06622
1006.20 0.06623
1006.30 0.06625
1006.40 0.06627
1006.50 0.06629
1006.60 0.06631
1006.70 0.06633
1006.80 0.06635
1006.90 0.06637
1007.00 0.06639
1007.10 0.06641
1007.20 0.06643
1007.30 0.06645
1007.40 0.06647
1007.50 0.06649
1007.60 0.06651
1007.70 0.06652
1007.80 0.06654
1007.90 0.06655
1008.00 0.06656
1008.10 0.06657
1008.20 0.06658
1008.30 0.0666
1008.40 0.06661
1008.50 0.06662
1008.60 0.06663
1008.70 0.06664
1008.80 0.06666
1008.90 0.06667
1009.00 0.06668
1009.10 0.06669
1009.20 0.0667
1009.30 0.06672
1009.40 0.06673
1009.50 0.06674
1009.60 0.06675
1009.70 0.06675
1009.80 0.06675
1009.90 0.06675
1010.00 0.06675
1010.10 0.06675
1010.20 0.06675
1010.30 0.06675
1010.40 0.06675
1010.50 0.06675
1010.60 0.06675
1010.70 0.06675
1010.80 0.06675
1010.90 0.06675
1011.00 0.06675
1011.10 0.06675
1011.20 0.06675
1011.30 0.06675
1011.40 0.06674
1011.50 0.06674
1011.60 0.06674
1011.70 0.06674
1011.80 0.06673
1011.90 0.06673
1012.00 0.06672
1012.10 0.06671
1012.20 0.0667
1012.30 0.06669
1012.40 0.06668
1012.50 0.06667
1012.60 0.06666
1012.70 0.06665
1012.80 0.06664
1012.90 0.06663
1013.00 0.06662
1013.10 0.0666
1013.20 0.06659
1013.30 0.06658
1013.40 0.06657
1013.50 0.06656
1013.60 0.06655
1013.70 0.06654
1013.80 0.06653
1013.90 0.06651
1014.00 0.0665
1014.10 0.06648
1014.20 0.06647
1014.30 0.06645
1014.40 0.06644
1014.50 0.06643
1014.60 0.06641
1014.70 0.06639
1014.80 0.06638
1014.90 0.06636
1015.00 0.06634
1015.10 0.06633
1015.20 0.06631
1015.30 0.06629
1015.40 0.06627
1015.50 0.06626
1015.60 0.06624
1015.70 0.06622
1015.80 0.0662
1015.90 0.06619
1016.00 0.06617
1016.10 0.06615
1016.20 0.06613
1016.30 0.06612
1016.40 0.0661
1016.50 0.06608
1016.60 0.06606
1016.70 0.06605
1016.80 0.06603
1016.90 0.06601
1017.00 0.06599
1017.10 0.06597
1017.20 0.06595
1017.30 0.06593
1017.40 0.06591
1017.50 0.06589
1017.60 0.06587
1017.70 0.06585
1017.80 0.06583
1017.90 0.06581
1018.00 0.06579
1018.10 0.06577
1018.20 0.06575
1018.30 0.06573
1018.40 0.06571
1018.50 0.06569
1018.60 0.06567
1018.70 0.06564
1018.80 0.06562
1018.90 0.0656
1019.00 0.06558
1019.10 0.06556
1019.20 0.06554
1019.30 0.06551
1019.40 0.06549
1019.50 0.06547
1019.60 0.06545
1019.70 0.06543
1019.80 0.06541
1019.90 0.06538
1020.00 0.06536
1020.10 0.06534
1020.20 0.06532
1020.30 0.0653
1020.40 0.06528
1020.50 0.06526
1020.60 0.06523
1020.70 0.06521
1020.80 0.06519
1020.90 0.06517
1021.00 0.06514
1021.10 0.06512
1021.20 0.0651
1021.30 0.06508
1021.40 0.06506
1021.50 0.06503
1021.60 0.06501
1021.70 0.06499
1021.80 0.06497
1021.90 0.06494
1022.00 0.06492
1022.10 0.0649
1022.20 0.06488
1022.30 0.06485
1022.40 0.06483
1022.50 0.06481
1022.60 0.06478
1022.70 0.06476
1022.80 0.06474
1022.90 0.06471
1023.00 0.06469
1023.10 0.06467
1023.20 0.06465
1023.30 0.06462
1023.40 0.0646
1023.50 0.06458
1023.60 0.06455
1023.70 0.06453
1023.80 0.06451
1023.90 0.06449
1024.00 0.06446
1024.10 0.06444
1024.20 0.06442
1024.30 0.06439
1024.40 0.06437
1024.50 0.06435
1024.60 0.06433
1024.70 0.0643
1024.80 0.06428
1024.90 0.06426
1025.00 0.06423
1025.10 0.06421
1025.20 0.06419
1025.30 0.06416
1025.40 0.06414
1025.50 0.06412
1025.60 0.06409
1025.70 0.06407
1025.80 0.06405
1025.90 0.06402
1026.00 0.064
1026.10 0.06398
1026.20 0.06395
1026.30 0.06393
1026.40 0.06391
1026.50 0.06389
1026.60 0.06386
1026.70 0.06384
1026.80 0.06382
1026.90 0.06379
1027.00 0.06377
1027.10 0.06375
1027.20 0.06372
1027.30 0.0637
1027.40 0.06368
1027.50 0.06365
1027.60 0.06363
1027.70 0.06361
1027.80 0.06358
1027.90 0.06356
1028.00 0.06354
1028.10 0.06351
1028.20 0.06349
1028.30 0.06347
1028.40 0.06344
1028.50 0.06342
1028.60 0.0634
1028.70 0.06337
1028.80 0.06335
1028.90 0.06333
1029.00 0.0633
1029.10 0.06328
1029.20 0.06326
1029.30 0.06323
1029.40 0.06321
1029.50 0.06319
1029.60 0.06316
1029.70 0.06314
1029.80 0.06312
1029.90 0.06309
1030.00 0.06307
1030.10 0.06305
1030.20 0.06302
1030.30 0.063
1030.40 0.06298
1030.50 0.06295
1030.60 0.06293
1030.70 0.06291
1030.80 0.06288
1030.90 0.06286
1031.00 0.06284
1031.10 0.06281
1031.20 0.06279
1031.30 0.06277
1031.40 0.06275
1031.50 0.06272
1031.60 0.0627
1031.70 0.06268
1031.80 0.06265
1031.90 0.06263
1032.00 0.06261
1032.10 0.06258
1032.20 0.06256
1032.30 0.06254
1032.40 0.06251
1032.50 0.06249
1032.60 0.06247
1032.70 0.06244
1032.80 0.06242
1032.90 0.0624
1033.00 0.06238
1033.10 0.06235
1033.20 0.06233
1033.30 0.06231
1033.40 0.06228
1033.50 0.06226
1033.60 0.06224
1033.70 0.06221
1033.80 0.06219
1033.90 0.06217
1034.00 0.06214
1034.10 0.06212
1034.20 0.0621
1034.30 0.06208
1034.40 0.06205
1034.50 0.06203
1034.60 0.06201
1034.70 0.06198
1034.80 0.06196
1034.90 0.06194
1035.00 0.06191
1035.10 0.06189
1035.20 0.06187
1035.30 0.06185
1035.40 0.06182
1035.50 0.0618
1035.60 0.06178
1035.70 0.06175
1035.80 0.06173
1035.90 0.06171
1036.00 0.06168
1036.10 0.06166
1036.20 0.06164
1036.30 0.06162
1036.40 0.06159
1036.50 0.06157
1036.60 0.06155
1036.70 0.06152
1036.80 0.0615
1036.90 0.06148
1037.00 0.06146
1037.10 0.06143
1037.20 0.06141
1037.30 0.06139
1037.40 0.06136
1037.50 0.06134
1037.60 0.06132
1037.70 0.0613
1037.80 0.06127
1037.90 0.06125
1038.00 0.06123
1038.10 0.06121
1038.20 0.06118
1038.30 0.06116
1038.40 0.06114
1038.50 0.06111
1038.60 0.06109
1038.70 0.06107
1038.80 0.06105
1038.90 0.06102
1039.00 0.061
1039.10 0.06098
1039.20 0.06096
1039.30 0.06093
1039.40 0.06091
1039.50 0.06089
1039.60 0.06087
1039.70 0.06084
1039.80 0.06082
1039.90 0.0608
1040.00 0.06077
1040.10 0.06075
1040.20 0.06073
1040.30 0.06071
1040.40 0.06068
1040.50 0.06066
1040.60 0.06064
1040.70 0.06062
1040.80 0.06059
1040.90 0.06057
1041.00 0.06055
1041.10 0.06053
1041.20 0.0605
1041.30 0.06048
1041.40 0.06046
1041.50 0.06044
1041.60 0.06041
1041.70 0.06039
1041.80 0.06037
1041.90 0.06035
1042.00 0.06032
1042.10 0.0603
1042.20 0.06028
1042.30 0.06026
1042.40 0.06023
1042.50 0.06021
1042.60 0.06019
1042.70 0.06017
1042.80 0.06015
1042.90 0.06012
1043.00 0.0601
1043.10 0.06008
1043.20 0.06006
1043.30 0.06003
1043.40 0.06001
1043.50 0.05999
1043.60 0.05997
1043.70 0.05994
1043.80 0.05992
1043.90 0.0599
1044.00 0.05988
1044.10 0.05986
1044.20 0.05983
1044.30 0.05981
1044.40 0.05979
1044.50 0.05977
1044.60 0.05974
1044.70 0.05972
1044.80 0.0597
1044.90 0.05968
1045.00 0.05966
1045.10 0.05963
1045.20 0.05961
1045.30 0.05959
1045.40 0.05957
1045.50 0.05954
1045.60 0.05952
1045.70 0.0595
1045.80 0.05948
1045.90 0.05946
1046.00 0.05943
1046.10 0.05941
1046.20 0.05939
1046.30 0.05937
1046.40 0.05935
1046.50 0.05932
1046.60 0.0593
1046.70 0.05928
1046.80 0.05926
1046.90 0.05924
1047.00 0.05921
1047.10 0.05919
1047.20 0.05917
1047.30 0.05915
1047.40 0.05913
1047.50 0.0591
1047.60 0.05908
1047.70 0.05906
1047.80 0.05904
1047.90 0.05902
1048.00 0.05899
1048.10 0.05897
1048.20 0.05895
1048.30 0.05893
1048.40 0.05891
1048.50 0.05889
1048.60 0.05886
1048.70 0.05884
1048.80 0.05882
1048.90 0.0588
1049.00 0.05878
1049.10 0.05875
1049.20 0.05873
1049.30 0.05871
1049.40 0.05869
1049.50 0.05867
1049.60 0.05865
1049.70 0.05862
1049.80 0.0586
1049.90 0.05858
1050.00 0.05856
1050.10 0.05854
1050.20 0.05852
1050.30 0.05849
1050.40 0.05847
1050.50 0.05845
1050.60 0.05843
1050.70 0.05841
1050.80 0.05838
1050.90 0.05836
1051.00 0.05834
1051.10 0.05832
1051.20 0.0583
1051.30 0.05828
1051.40 0.05826
1051.50 0.05823
1051.60 0.05821
1051.70 0.05819
1051.80 0.05817
1051.90 0.05815
1052.00 0.05813
1052.10 0.0581
1052.20 0.05808
1052.30 0.05806
1052.40 0.05804
1052.50 0.05802
1052.60 0.058
1052.70 0.05798
1052.80 0.05795
1052.90 0.05793
1053.00 0.05791
1053.10 0.05789
1053.20 0.05787
1053.30 0.05785
1053.40 0.05783
1053.50 0.0578
1053.60 0.05778
1053.70 0.05776
1053.80 0.05774
1053.90 0.05772
1054.00 0.0577
1054.10 0.05768
1054.20 0.05765
1054.30 0.05763
1054.40 0.05761
1054.50 0.05759
1054.60 0.05757
1054.70 0.05755
1054.80 0.05753
1054.90 0.0575
1055.00 0.05748
1055.10 0.05746
1055.20 0.05744
1055.30 0.05742
1055.40 0.0574
1055.50 0.05738
1055.60 0.05736
1055.70 0.05733
1055.80 0.05731
1055.90 0.05729
1056.00 0.05727
1056.10 0.05725
1056.20 0.05723
1056.30 0.05721
1056.40 0.05719
1056.50 0.05716
1056.60 0.05714
1056.70 0.05712
1056.80 0.0571
1056.90 0.05708
1057.00 0.05706
1057.10 0.05704
1057.20 0.05702
1057.30 0.057
1057.40 0.05697
1057.50 0.05695
1057.60 0.05693
1057.70 0.05691
1057.80 0.05689
1057.90 0.05687
1058.00 0.05685
1058.10 0.05683
1058.20 0.05681
1058.30 0.05678
1058.40 0.05676
1058.50 0.05674
1058.60 0.05672
1058.70 0.0567
1058.80 0.05668
1058.90 0.05666
1059.00 0.05664
1059.10 0.05662
1059.20 0.0566
1059.30 0.05657
1059.40 0.05655
1059.50 0.05653
1059.60 0.05651
1059.70 0.05649
1059.80 0.05647
1059.90 0.05645
1060.00 0.05643
1060.10 0.05641
1060.20 0.05639
1060.30 0.05637
1060.40 0.05634
1060.50 0.05632
1060.60 0.0563
1060.70 0.05628
1060.80 0.05626
1060.90 0.05624
1061.00 0.05622
1061.10 0.0562
1061.20 0.05618
1061.30 0.05616
1061.40 0.05614
1061.50 0.05612
1061.60 0.05609
1061.70 0.05607
1061.80 0.05605
1061.90 0.05603
1062.00 0.05601
1062.10 0.05599
1062.20 0.05597
1062.30 0.05595
1062.40 0.05593
1062.50 0.05591
1062.60 0.05589
1062.70 0.05587
1062.80 0.05585
1062.90 0.05583
1063.00 0.0558
1063.10 0.05578
1063.20 0.05576
1063.30 0.05574
1063.40 0.05572
1063.50 0.0557
1063.60 0.05568
1063.70 0.05566
1063.80 0.05564
1063.90 0.05562
1064.00 0.0556
1064.10 0.05558
1064.20 0.05556
1064.30 0.05554
1064.40 0.05551
1064.50 0.05549
1064.60 0.05547
1064.70 0.05545
1064.80 0.05543
1064.90 0.05541
1065.00 0.05539
1065.10 0.05537
1065.20 0.05535
1065.30 0.05533
1065.40 0.05531
1065.50 0.05529
1065.60 0.05527
1065.70 0.05525
1065.80 0.05523
1065.90 0.05521
1066.00 0.05519
1066.10 0.05517
1066.20 0.05514
1066.30 0.05512
1066.40 0.0551
1066.50 0.05508
1066.60 0.05506
1066.70 0.05504
1066.80 0.05502
1066.90 0.055
1067.00 0.05498
1067.10 0.05496
1067.20 0.05494
1067.30 0.05492
1067.40 0.0549
1067.50 0.05488
1067.60 0.05486
1067.70 0.05484
1067.80 0.05482
1067.90 0.0548
1068.00 0.05477
1068.10 0.05475
1068.20 0.05473
1068.30 0.05471
1068.40 0.05469
1068.50 0.05467
1068.60 0.05465
1068.70 0.05463
1068.80 0.05461
1068.90 0.05459
1069.00 0.05457
1069.10 0.05455
1069.20 0.05453
1069.30 0.05451
1069.40 0.05449
1069.50 0.05447
1069.60 0.05445
1069.70 0.05443
1069.80 0.05441
1069.90 0.05439
1070.00 0.05437
1070.10 0.05434
1070.20 0.05432
1070.30 0.0543
1070.40 0.05428
1070.50 0.05426
1070.60 0.05424
1070.70 0.05422
1070.80 0.0542
1070.90 0.05418
1071.00 0.05416
1071.10 0.05414
1071.20 0.05412
1071.30 0.0541
1071.40 0.05408
1071.50 0.05406
1071.60 0.05404
1071.70 0.05402
1071.80 0.054
1071.90 0.05398
1072.00 0.05396
1072.10 0.05394
1072.20 0.05392
1072.30 0.0539
1072.40 0.05388
1072.50 0.05386
1072.60 0.05383
1072.70 0.05381
1072.80 0.05379
1072.90 0.05377
1073.00 0.05375
1073.10 0.05373
1073.20 0.05371
1073.30 0.05369
1073.40 0.05367
1073.50 0.05365
1073.60 0.05363
1073.70 0.05361
1073.80 0.05359
1073.90 0.05357
1074.00 0.05355
1074.10 0.05352
1074.20 0.0535
1074.30 0.05348
1074.40 0.05346
1074.50 0.05344
1074.60 0.05342
1074.70 0.0534
1074.80 0.05338
1074.90 0.05336
1075.00 0.05334
1075.10 0.05332
1075.20 0.0533
1075.30 0.05327
1075.40 0.05325
1075.50 0.05323
1075.60 0.05321
1075.70 0.05319
1075.80 0.05317
1075.90 0.05315
1076.00 0.05313
1076.10 0.05311
1076.20 0.05309
1076.30 0.05307
1076.40 0.05305
1076.50 0.05303
1076.60 0.053
1076.70 0.05298
1076.80 0.05296
1076.90 0.05294
1077.00 0.05292
1077.10 0.0529
1077.20 0.05288
1077.30 0.05286
1077.40 0.05284
1077.50 0.05282
1077.60 0.05279
1077.70 0.05277
1077.80 0.05275
1077.90 0.05273
1078.00 0.05271
1078.10 0.05269
1078.20 0.05266
1078.30 0.05264
1078.40 0.05262
1078.50 0.0526
1078.60 0.05258
1078.70 0.05256
1078.80 0.05253
1078.90 0.05251
1079.00 0.05249
1079.10 0.05247
1079.20 0.05245
1079.30 0.05243
1079.40 0.0524
1079.50 0.05238
1079.60 0.05236
1079.70 0.05234
1079.80 0.05231
1079.90 0.05229
1080.00 0.05227
1080.10 0.05224
1080.20 0.05222
1080.30 0.0522
1080.40 0.05218
1080.50 0.05215
1080.60 0.05213
1080.70 0.05211
1080.80 0.05209
1080.90 0.05206
1081.00 0.05204
1081.10 0.05202
1081.20 0.05199
1081.30 0.05197
1081.40 0.05195
1081.50 0.05193
1081.60 0.0519
1081.70 0.05188
1081.80 0.05185
1081.90 0.05183
1082.00 0.05181
1082.10 0.05178
1082.20 0.05176
1082.30 0.05173
1082.40 0.05171
1082.50 0.05168
1082.60 0.05166
1082.70 0.05163
1082.80 0.05161
1082.90 0.05158
1083.00 0.05156
1083.10 0.05153
1083.20 0.05151
1083.30 0.05148
1083.40 0.05145
1083.50 0.05143
1083.60 0.0514
1083.70 0.05137
1083.80 0.05135
1083.90 0.05132
1084.00 0.05129
1084.10 0.05127
1084.20 0.05124
1084.30 0.05121
1084.40 0.05119
1084.50 0.05116
1084.60 0.05113
1084.70 0.0511
1084.80 0.05106
1084.90 0.05103
1085.00 0.051
1085.10 0.05097
1085.20 0.05094
1085.30 0.05091
1085.40 0.05088
1085.50 0.05085
1085.60 0.05082
1085.70 0.05079
1085.80 0.05076
1085.90 0.05073
1086.00 0.05069
1086.10 0.05066
1086.20 0.05063
1086.30 0.0506
1086.40 0.05057
1086.50 0.05054
1086.60 0.0505
1086.70 0.05047
1086.80 0.05043
1086.90 0.0504
1087.00 0.05036
1087.10 0.05032
1087.20 0.05028
1087.30 0.05024
1087.40 0.0502
1087.50 0.05017
1087.60 0.05013
1087.70 0.05009
1087.80 0.05005
1087.90 0.05001
1088.00 0.04997
1088.10 0.04993
1088.20 0.04989
1088.30 0.04985
1088.40 0.04981
1088.50 0.04976
1088.60 0.04971
1088.70 0.04966
1088.80 0.04961
1088.90 0.04956
1089.00 0.04951
1089.10 0.04946
1089.20 0.04941
1089.30 0.04936
1089.40 0.04931
1089.50 0.04926
1089.60 0.04921
1089.70 0.04916
1089.80 0.04911
1089.90 0.04906
1090.00 0.04901
1090.10 0.04896
1090.20 0.04892
1090.30 0.04887
1090.40 0.04882
1090.50 0.04876
1090.60 0.0487
1090.70 0.04864
1090.80 0.04858
1090.90 0.04852
1091.00 0.04847
1091.10 0.04841
1091.20 0.04835
1091.30 0.04829
1091.40 0.04823
1091.50 0.04817
1091.60 0.04811
1091.70 0.04805
1091.80 0.04799
1091.90 0.04793
1092.00 0.04787
1092.10 0.04782
1092.20 0.04776
1092.30 0.04771
1092.40 0.04765
1092.50 0.0476
1092.60 0.04754
1092.70 0.04749
1092.80 0.04745
1092.90 0.04741
1093.00 0.04737
1093.10 0.04733
1093.20 0.04731
1093.30 0.04729
1093.40 0.04729
1093.50 0.04729
1093.60 0.04733
1093.70 0.04737
1093.80 0.0474
1093.90 0.0474
1094.00 0.04733
1094.10 0.04726
1094.20 0.04719
1094.30 0.04714
1094.40 0.04714
1094.50 0.04714
1094.60 0.04714
1094.70 0.04714
1094.80 0.04714
1094.90 0.04714
1095.00 0.04714
1095.10 0.04717
1095.20 0.04719
1095.30 0.04722
1095.40 0.04724
1095.50 0.04727
1095.60 0.04729
1095.70 0.04732
1095.80 0.04734
1095.90 0.04737
1096.00 0.04739
1096.10 0.04741
1096.20 0.04744
1096.30 0.04746
1096.40 0.04749
1096.50 0.04751
1096.60 0.04754
1096.70 0.04756
1096.80 0.04758
1096.90 0.04761
1097.00 0.04763
1097.10 0.04765
1097.20 0.04767
1097.30 0.04769
1097.40 0.0477
1097.50 0.04772
1097.60 0.04774
1097.70 0.04776
1097.80 0.04777
1097.90 0.04779
1098.00 0.04781
1098.10 0.04783
1098.20 0.04784
1098.30 0.04786
1098.40 0.04788
1098.50 0.04789
1098.60 0.0479
1098.70 0.04791
1098.80 0.04791
1098.90 0.04792
1099.00 0.04793
1099.10 0.04793
1099.20 0.04794
1099.30 0.04794
1099.40 0.04795
1099.50 0.04796
1099.60 0.04796
1099.70 0.04797
1099.80 0.04798
1099.90 0.04798
1100.00 0.04799
1100.10 0.04799
1100.20 0.048
1100.30 0.04801
1100.40 0.04801
1100.50 0.04802
1100.60 0.04801
1100.70 0.04801
1100.80 0.04801
1100.90 0.04801
1101.00 0.04801
1101.10 0.048
1101.20 0.048
1101.30 0.048
1101.40 0.048
1101.50 0.04799
1101.60 0.04799
1101.70 0.04799
1101.80 0.04799
1101.90 0.04799
1102.00 0.04798
1102.10 0.04798
1102.20 0.04797
1102.30 0.04797
1102.40 0.04796
1102.50 0.04795
1102.60 0.04795
1102.70 0.04794
1102.80 0.04793
1102.90 0.04792
1103.00 0.04792
1103.10 0.04791
1103.20 0.0479
1103.30 0.04789
1103.40 0.04789
1103.50 0.04788
1103.60 0.04787
1103.70 0.04786
1103.80 0.04785
1103.90 0.04784
1104.00 0.04783
1104.10 0.04782
1104.20 0.04781
1104.30 0.0478
1104.40 0.04779
1104.50 0.04778
1104.60 0.04777
1104.70 0.04775
1104.80 0.04774
1104.90 0.04773
1105.00 0.04772
1105.10 0.04771
1105.20 0.0477
1105.30 0.04769
1105.40 0.04768
1105.50 0.04767
1105.60 0.04766
1105.70 0.04765
1105.80 0.04763
1105.90 0.04762
1106.00 0.04761
1106.10 0.0476
1106.20 0.04758
1106.30 0.04757
1106.40 0.04756
1106.50 0.04755
1106.60 0.04753
1106.70 0.04752
1106.80 0.04751
1106.90 0.0475
1107.00 0.04748
1107.10 0.04747
1107.20 0.04746
1107.30 0.04744
1107.40 0.04743
1107.50 0.04742
1107.60 0.0474
1107.70 0.04739
1107.80 0.04738
1107.90 0.04736
1108.00 0.04735
1108.10 0.04733
1108.20 0.04732
1108.30 0.04731
1108.40 0.04729
1108.50 0.04728
1108.60 0.04726
1108.70 0.04725
1108.80 0.04724
1108.90 0.04722
1109.00 0.04721
1109.10 0.04719
1109.20 0.04718
1109.30 0.04717
1109.40 0.04715
1109.50 0.04714
1109.60 0.04712
1109.70 0.04711
1109.80 0.04709
1109.90 0.04708
1110.00 0.04706
1110.10 0.04705
1110.20 0.04703
1110.30 0.04702
1110.40 0.047
1110.50 0.04699
1110.60 0.04697
1110.70 0.04696
1110.80 0.04694
1110.90 0.04693
1111.00 0.04691
1111.10 0.0469
1111.20 0.04689
1111.30 0.04687
1111.40 0.04686
1111.50 0.04684
1111.60 0.04683
1111.70 0.04681
1111.80 0.0468
1111.90 0.04678
1112.00 0.04677
1112.10 0.04675
1112.20 0.04674
1112.30 0.04672
1112.40 0.04671
1112.50 0.04669
1112.60 0.04668
1112.70 0.04666
1112.80 0.04665
1112.90 0.04663
1113.00 0.04661
1113.10 0.0466
1113.20 0.04658
1113.30 0.04657
1113.40 0.04655
1113.50 0.04654
1113.60 0.04652
1113.70 0.04651
1113.80 0.04649
1113.90 0.04648
1114.00 0.04646
1114.10 0.04645
1114.20 0.04643
1114.30 0.04641
1114.40 0.0464
1114.50 0.04638
1114.60 0.04637
1114.70 0.04635
1114.80 0.04634
1114.90 0.04632
1115.00 0.04631
1115.10 0.04629
1115.20 0.04628
1115.30 0.04626
1115.40 0.04625
1115.50 0.04623
1115.60 0.04621
1115.70 0.0462
1115.80 0.04618
1115.90 0.04617
1116.00 0.04615
1116.10 0.04614
1116.20 0.04612
1116.30 0.04611
1116.40 0.04609
1116.50 0.04608
1116.60 0.04606
1116.70 0.04605
1116.80 0.04603
1116.90 0.04601
1117.00 0.046
1117.10 0.04598
1117.20 0.04597
1117.30 0.04595
1117.40 0.04594
1117.50 0.04592
1117.60 0.04591
1117.70 0.04589
1117.80 0.04587
1117.90 0.04586
1118.00 0.04584
1118.10 0.04583
1118.20 0.04581
1118.30 0.0458
1118.40 0.04578
1118.50 0.04577
1118.60 0.04575
1118.70 0.04574
1118.80 0.04572
1118.90 0.0457
1119.00 0.04569
1119.10 0.04567
1119.20 0.04566
1119.30 0.04564
1119.40 0.04563
1119.50 0.04561
1119.60 0.0456
1119.70 0.04558
1119.80 0.04556
1119.90 0.04555
1120.00 0.04553
1120.10 0.04552
1120.20 0.0455
1120.30 0.04549
1120.40 0.04547
1120.50 0.04546
1120.60 0.04544
1120.70 0.04543
1120.80 0.04541
1120.90 0.04539
1121.00 0.04538
1121.10 0.04536
1121.20 0.04535
1121.30 0.04533
1121.40 0.04532
1121.50 0.0453
1121.60 0.04529
1121.70 0.04527
1121.80 0.04526
1121.90 0.04524
1122.00 0.04523
1122.10 0.04521
1122.20 0.04519
1122.30 0.04518
1122.40 0.04516
1122.50 0.04515
1122.60 0.04513
1122.70 0.04512
1122.80 0.0451
1122.90 0.04509
1123.00 0.04507
1123.10 0.04506
1123.20 0.04504
1123.30 0.04503
1123.40 0.04501
1123.50 0.04499
1123.60 0.04498
1123.70 0.04496
1123.80 0.04495
1123.90 0.04493
1124.00 0.04492
1124.10 0.0449
1124.20 0.04489
1124.30 0.04487
1124.40 0.04486
1124.50 0.04484
1124.60 0.04483
1124.70 0.04481
1124.80 0.04479
1124.90 0.04478
1125.00 0.04476
1125.10 0.04475
1125.20 0.04473
1125.30 0.04472
1125.40 0.0447
1125.50 0.04469
1125.60 0.04467
1125.70 0.04466
1125.80 0.04464
1125.90 0.04463
1126.00 0.04461
1126.10 0.0446
1126.20 0.04458
1126.30 0.04457
1126.40 0.04455
1126.50 0.04454
1126.60 0.04452
1126.70 0.0445
1126.80 0.04449
1126.90 0.04447
1127.00 0.04446
1127.10 0.04444
1127.20 0.04443
1127.30 0.04441
1127.40 0.0444
1127.50 0.04438
1127.60 0.04437
1127.70 0.04435
1127.80 0.04434
1127.90 0.04432
1128.00 0.04431
1128.10 0.04429
1128.20 0.04428
1128.30 0.04426
1128.40 0.04425
1128.50 0.04423
1128.60 0.04422
1128.70 0.0442
1128.80 0.04419
1128.90 0.04417
1129.00 0.04416
1129.10 0.04414
1129.20 0.04413
1129.30 0.04411
1129.40 0.0441
1129.50 0.04408
1129.60 0.04407
1129.70 0.04405
1129.80 0.04404
1129.90 0.04402
1130.00 0.04401
1130.10 0.04399
1130.20 0.04398
1130.30 0.04396
1130.40 0.04394
1130.50 0.04393
1130.60 0.04391
1130.70 0.0439
1130.80 0.04388
1130.90 0.04387
1131.00 0.04385
1131.10 0.04384
1131.20 0.04382
1131.30 0.04381
1131.40 0.04379
1131.50 0.04378
1131.60 0.04376
1131.70 0.04375
1131.80 0.04373
1131.90 0.04372
1132.00 0.0437
1132.10 0.04369
1132.20 0.04367
1132.30 0.04366
1132.40 0.04365
1132.50 0.04363
1132.60 0.04362
1132.70 0.0436
1132.80 0.04359
1132.90 0.04357
1133.00 0.04356
1133.10 0.04354
1133.20 0.04353
1133.30 0.04351
1133.40 0.0435
1133.50 0.04348
1133.60 0.04347
1133.70 0.04345
1133.80 0.04344
1133.90 0.04342
1134.00 0.04341
1134.10 0.04339
1134.20 0.04338
1134.30 0.04336
1134.40 0.04335
1134.50 0.04333
1134.60 0.04332
1134.70 0.0433
1134.80 0.04329
1134.90 0.04327
1135.00 0.04326
1135.10 0.04324
1135.20 0.04323
1135.30 0.04321
1135.40 0.0432
1135.50 0.04319
1135.60 0.04317
1135.70 0.04316
1135.80 0.04314
1135.90 0.04313
1136.00 0.04311
1136.10 0.0431
1136.20 0.04308
1136.30 0.04307
1136.40 0.04305
1136.50 0.04304
1136.60 0.04302
1136.70 0.04301
1136.80 0.04299
1136.90 0.04298
1137.00 0.04296
1137.10 0.04295
1137.20 0.04293
1137.30 0.04292
1137.40 0.04291
1137.50 0.04289
1137.60 0.04288
1137.70 0.04286
1137.80 0.04285
1137.90 0.04283
1138.00 0.04282
1138.10 0.0428
1138.20 0.04279
1138.30 0.04277
1138.40 0.04276
1138.50 0.04274
1138.60 0.04273
1138.70 0.04272
1138.80 0.0427
1138.90 0.04269
1139.00 0.04267
1139.10 0.04266
1139.20 0.04264
1139.30 0.04263
1139.40 0.04261
1139.50 0.0426
1139.60 0.04258
1139.70 0.04257
1139.80 0.04256
1139.90 0.04254
1140.00 0.04253
1140.10 0.04251
1140.20 0.0425
1140.30 0.04248
1140.40 0.04247
1140.50 0.04245
1140.60 0.04244
1140.70 0.04243
1140.80 0.04241
1140.90 0.0424
1141.00 0.04238
1141.10 0.04237
1141.20 0.04235
1141.30 0.04234
1141.40 0.04232
1141.50 0.04231
1141.60 0.0423
1141.70 0.04228
1141.80 0.04227
1141.90 0.04225
1142.00 0.04224
1142.10 0.04222
1142.20 0.04221
1142.30 0.04219
1142.40 0.04218
1142.50 0.04217
1142.60 0.04215
1142.70 0.04214
1142.80 0.04212
1142.90 0.04211
1143.00 0.04209
1143.10 0.04208
1143.20 0.04207
1143.30 0.04205
1143.40 0.04204
1143.50 0.04202
1143.60 0.04201
1143.70 0.04199
1143.80 0.04198
1143.90 0.04197
1144.00 0.04195
1144.10 0.04194
1144.20 0.04192
1144.30 0.04191
1144.40 0.04189
1144.50 0.04188
1144.60 0.04187
1144.70 0.04185
1144.80 0.04184
1144.90 0.04182
1145.00 0.04181
1145.10 0.0418
1145.20 0.04178
1145.30 0.04177
1145.40 0.04175
1145.50 0.04174
1145.60 0.04172
1145.70 0.04171
1145.80 0.0417
1145.90 0.04168
1146.00 0.04167
1146.10 0.04165
1146.20 0.04164
1146.30 0.04163
1146.40 0.04161
1146.50 0.0416
1146.60 0.04158
1146.70 0.04157
1146.80 0.04155
1146.90 0.04154
1147.00 0.04153
1147.10 0.04151
1147.20 0.0415
1147.30 0.04148
1147.40 0.04147
1147.50 0.04146
1147.60 0.04144
1147.70 0.04143
1147.80 0.04141
1147.90 0.0414
1148.00 0.04139
1148.10 0.04137
1148.20 0.04136
1148.30 0.04134
1148.40 0.04133
1148.50 0.04132
1148.60 0.0413
1148.70 0.04129
1148.80 0.04127
1148.90 0.04126
1149.00 0.04125
1149.10 0.04123
1149.20 0.04122
1149.30 0.0412
1149.40 0.04119
1149.50 0.04118
1149.60 0.04116
1149.70 0.04115
1149.80 0.04113
1149.90 0.04112
1150.00 0.04111
1150.10 0.04109
1150.20 0.04108
1150.30 0.04106
1150.40 0.04105
1150.50 0.04104
1150.60 0.04102
1150.70 0.04101
1150.80 0.041
1150.90 0.04098
1151.00 0.04097
1151.10 0.04095
1151.20 0.04094
1151.30 0.04093
1151.40 0.04091
1151.50 0.0409
1151.60 0.04088
1151.70 0.04087
1151.80 0.04086
1151.90 0.04084
1152.00 0.04083
1152.10 0.04082
1152.20 0.0408
1152.30 0.04079
1152.40 0.04077
1152.50 0.04076
1152.60 0.04075
1152.70 0.04073
1152.80 0.04072
1152.90 0.04071
1153.00 0.04069
1153.10 0.04068
1153.20 0.04066
1153.30 0.04065
1153.40 0.04064
1153.50 0.04062
1153.60 0.04061
1153.70 0.0406
1153.80 0.04058
1153.90 0.04057
1154.00 0.04055
1154.10 0.04054
1154.20 0.04053
1154.30 0.04051
1154.40 0.0405
1154.50 0.04049
1154.60 0.04047
1154.70 0.04046
1154.80 0.04045
1154.90 0.04043
1155.00 0.04042
1155.10 0.0404
1155.20 0.04039
1155.30 0.04038
1155.40 0.04036
1155.50 0.04035
1155.60 0.04034
1155.70 0.04032
1155.80 0.04031
1155.90 0.0403
1156.00 0.04028
1156.10 0.04027
1156.20 0.04025
1156.30 0.04024
1156.40 0.04023
1156.50 0.04021
1156.60 0.0402
1156.70 0.04019
1156.80 0.04017
1156.90 0.04016
1157.00 0.04015
1157.10 0.04013
1157.20 0.04012
1157.30 0.04011
1157.40 0.04009
1157.50 0.04008
1157.60 0.04007
1157.70 0.04005
1157.80 0.04004
1157.90 0.04002
1158.00 0.04001
1158.10 0.04
1158.20 0.03998
1158.30 0.03997
1158.40 0.03996
1158.50 0.03994
1158.60 0.03993
1158.70 0.03992
1158.80 0.0399
1158.90 0.03989
1159.00 0.03988
1159.10 0.03986
1159.20 0.03985
1159.30 0.03984
1159.40 0.03982
1159.50 0.03981
1159.60 0.0398
1159.70 0.03978
1159.80 0.03977
1159.90 0.03976
1160.00 0.03974
1160.10 0.03973
1160.20 0.03972
1160.30 0.0397
1160.40 0.03969
1160.50 0.03968
1160.60 0.03966
1160.70 0.03965
1160.80 0.03964
1160.90 0.03962
1161.00 0.03961
1161.10 0.0396
1161.20 0.03958
1161.30 0.03957
1161.40 0.03956
1161.50 0.03954
1161.60 0.03953
1161.70 0.03952
1161.80 0.0395
1161.90 0.03949
1162.00 0.03948
1162.10 0.03946
1162.20 0.03945
1162.30 0.03944
1162.40 0.03942
1162.50 0.03941
1162.60 0.0394
1162.70 0.03938
1162.80 0.03937
1162.90 0.03936
1163.00 0.03935
1163.10 0.03933
1163.20 0.03932
1163.30 0.03931
1163.40 0.03929
1163.50 0.03928
1163.60 0.03927
1163.70 0.03925
1163.80 0.03924
1163.90 0.03923
1164.00 0.03921
1164.10 0.0392
1164.20 0.03919
1164.30 0.03917
1164.40 0.03916
1164.50 0.03915
1164.60 0.03914
1164.70 0.03912
1164.80 0.03911
1164.90 0.0391
1165.00 0.03908
1165.10 0.03907
1165.20 0.03906
1165.30 0.03904
1165.40 0.03903
1165.50 0.03902
1165.60 0.039
1165.70 0.03899
1165.80 0.03898
1165.90 0.03897
1166.00 0.03895
1166.10 0.03894
1166.20 0.03893
1166.30 0.03891
1166.40 0.0389
1166.50 0.03889
1166.60 0.03887
1166.70 0.03886
1166.80 0.03885
1166.90 0.03884
1167.00 0.03882
1167.10 0.03881
1167.20 0.0388
1167.30 0.03878
1167.40 0.03877
1167.50 0.03876
1167.60 0.03874
1167.70 0.03873
1167.80 0.03872
1167.90 0.03871
1168.00 0.03869
1168.10 0.03868
1168.20 0.03867
1168.30 0.03865
1168.40 0.03864
1168.50 0.03863
1168.60 0.03862
1168.70 0.0386
1168.80 0.03859
1168.90 0.03858
1169.00 0.03856
1169.10 0.03855
1169.20 0.03854
1169.30 0.03853
1169.40 0.03851
1169.50 0.0385
1169.60 0.03849
1169.70 0.03847
1169.80 0.03846
1169.90 0.03845
1170.00 0.03844
1170.10 0.03842
1170.20 0.03841
1170.30 0.0384
1170.40 0.03838
1170.50 0.03837
1170.60 0.03836
1170.70 0.03835
1170.80 0.03833
1170.90 0.03832
1171.00 0.03831
1171.10 0.0383
1171.20 0.03828
1171.30 0.03827
1171.40 0.03826
1171.50 0.03824
1171.60 0.03823
1171.70 0.03822
1171.80 0.03821
1171.90 0.03819
1172.00 0.03818
1172.10 0.03817
1172.20 0.03815
1172.30 0.03814
1172.40 0.03813
1172.50 0.03812
1172.60 0.0381
1172.70 0.03809
1172.80 0.03808
1172.90 0.03807
1173.00 0.03805
1173.10 0.03804
1173.20 0.03803
1173.30 0.03802
1173.40 0.038
1173.50 0.03799
1173.60 0.03798
1173.70 0.03797
1173.80 0.03795
1173.90 0.03794
1174.00 0.03793
1174.10 0.03792
1174.20 0.0379
1174.30 0.03789
1174.40 0.03788
1174.50 0.03786
1174.60 0.03785
1174.70 0.03784
1174.80 0.03783
1174.90 0.03781
1175.00 0.0378
1175.10 0.03779
1175.20 0.03778
1175.30 0.03776
1175.40 0.03775
1175.50 0.03774
1175.60 0.03773
1175.70 0.03771
1175.80 0.0377
1175.90 0.03769
1176.00 0.03768
1176.10 0.03766
1176.20 0.03765
1176.30 0.03764
1176.40 0.03763
1176.50 0.03761
1176.60 0.0376
1176.70 0.03759
1176.80 0.03758
1176.90 0.03756
1177.00 0.03755
1177.10 0.03754
1177.20 0.03753
1177.30 0.03751
1177.40 0.0375
1177.50 0.03749
1177.60 0.03748
1177.70 0.03746
1177.80 0.03745
1177.90 0.03744
1178.00 0.03743
1178.10 0.03742
1178.20 0.0374
1178.30 0.03739
1178.40 0.03738
1178.50 0.03737
1178.60 0.03735
1178.70 0.03734
1178.80 0.03733
1178.90 0.03732
1179.00 0.0373
1179.10 0.03729
1179.20 0.03728
1179.30 0.03727
1179.40 0.03726
1179.50 0.03724
1179.60 0.03723
1179.70 0.03722
1179.80 0.03721
1179.90 0.03719
1180.00 0.03718
1180.10 0.03717
1180.20 0.03716
1180.30 0.03714
1180.40 0.03713
1180.50 0.03712
1180.60 0.03711
1180.70 0.0371
1180.80 0.03708
1180.90 0.03707
1181.00 0.03706
1181.10 0.03705
1181.20 0.03703
1181.30 0.03702
1181.40 0.03701
1181.50 0.037
1181.60 0.03698
1181.70 0.03697
1181.80 0.03696
1181.90 0.03695
1182.00 0.03694
1182.10 0.03692
1182.20 0.03691
1182.30 0.0369
1182.40 0.03689
1182.50 0.03688
1182.60 0.03686
1182.70 0.03685
1182.80 0.03684
1182.90 0.03683
1183.00 0.03681
1183.10 0.0368
1183.20 0.03679
1183.30 0.03678
1183.40 0.03677
1183.50 0.03675
1183.60 0.03674
1183.70 0.03673
1183.80 0.03672
1183.90 0.03671
1184.00 0.03669
1184.10 0.03668
1184.20 0.03667
1184.30 0.03666
1184.40 0.03665
1184.50 0.03663
1184.60 0.03662
1184.70 0.03661
1184.80 0.0366
1184.90 0.03659
1185.00 0.03657
1185.10 0.03656
1185.20 0.03655
1185.30 0.03654
1185.40 0.03652
1185.50 0.03651
1185.60 0.0365
1185.70 0.03649
1185.80 0.03648
1185.90 0.03646
1186.00 0.03645
1186.10 0.03644
1186.20 0.03643
1186.30 0.03642
1186.40 0.0364
1186.50 0.03639
1186.60 0.03638
1186.70 0.03637
1186.80 0.03636
1186.90 0.03634
1187.00 0.03633
1187.10 0.03632
1187.20 0.03631
1187.30 0.0363
1187.40 0.03629
1187.50 0.03627
1187.60 0.03626
1187.70 0.03625
1187.80 0.03624
1187.90 0.03623
1188.00 0.03621
1188.10 0.0362
1188.20 0.03619
1188.30 0.03618
1188.40 0.03617
1188.50 0.03615
1188.60 0.03614
1188.70 0.03613
1188.80 0.03612
1188.90 0.03611
1189.00 0.0361
1189.10 0.03608
1189.20 0.03607
1189.30 0.03606
1189.40 0.03605
1189.50 0.03604
1189.60 0.03602
1189.70 0.03601
1189.80 0.036
1189.90 0.03599
1190.00 0.03598
1190.10 0.03597
1190.20 0.03595
1190.30 0.03594
1190.40 0.03593
1190.50 0.03592
1190.60 0.03591
1190.70 0.03589
1190.80 0.03588
1190.90 0.03587
1191.00 0.03586
1191.10 0.03585
1191.20 0.03584
1191.30 0.03582
1191.40 0.03581
1191.50 0.0358
1191.60 0.03579
1191.70 0.03578
1191.80 0.03577
1191.90 0.03575
1192.00 0.03574
1192.10 0.03573
1192.20 0.03572
1192.30 0.03571
1192.40 0.0357
1192.50 0.03568
1192.60 0.03567
1192.70 0.03566
1192.80 0.03565
1192.90 0.03564
1193.00 0.03563
1193.10 0.03561
1193.20 0.0356
1193.30 0.03559
1193.40 0.03558
1193.50 0.03557
1193.60 0.03556
1193.70 0.03554
1193.80 0.03553
1193.90 0.03552
1194.00 0.03551
1194.10 0.0355
1194.20 0.03549
1194.30 0.03547
1194.40 0.03546
1194.50 0.03545
1194.60 0.03544
1194.70 0.03543
1194.80 0.03542
1194.90 0.03541
1195.00 0.03539
1195.10 0.03538
1195.20 0.03537
1195.30 0.03536
1195.40 0.03535
1195.50 0.03534
1195.60 0.03532
1195.70 0.03531
1195.80 0.0353
1195.90 0.03529
1196.00 0.03528
1196.10 0.03527
1196.20 0.03525
1196.30 0.03524
1196.40 0.03523
1196.50 0.03522
1196.60 0.03521
1196.70 0.0352
1196.80 0.03519
1196.90 0.03517
1197.00 0.03516
1197.10 0.03515
1197.20 0.03514
1197.30 0.03513
1197.40 0.03512
1197.50 0.03511
1197.60 0.03509
1197.70 0.03508
1197.80 0.03507
1197.90 0.03506
1198.00 0.03505
1198.10 0.03504
1198.20 0.03503
1198.30 0.03501
1198.40 0.035
1198.50 0.03499
1198.60 0.03498
1198.70 0.03497
1198.80 0.03496
1198.90 0.03495
1199.00 0.03493
1199.10 0.03492
1199.20 0.03491
1199.30 0.0349
1199.40 0.03489
1199.50 0.03488
1199.60 0.03487
1199.70 0.03486
1199.80 0.03484
1199.90 0.03483
1200.00 0
