# Version 2.1 - nm, norm@500 to 1, cut digits, bergeron_7000_85.dat_7000
# Wavelength(nm)  Flambda(ergs/cm^s/s/nm)
300.00 1.077
300.10 1.078
300.20 1.078
300.30 1.078
300.40 1.079
300.50 1.079
300.60 1.079
300.70 1.08
300.80 1.08
300.90 1.08
301.00 1.081
301.10 1.081
301.20 1.081
301.30 1.082
301.40 1.082
301.50 1.082
301.60 1.082
301.70 1.083
301.80 1.083
301.90 1.083
302.00 1.084
302.10 1.084
302.20 1.084
302.30 1.085
302.40 1.085
302.50 1.085
302.60 1.086
302.70 1.086
302.80 1.086
302.90 1.086
303.00 1.087
303.10 1.087
303.20 1.087
303.30 1.088
303.40 1.088
303.50 1.088
303.60 1.089
303.70 1.089
303.80 1.089
303.90 1.089
304.00 1.09
304.10 1.09
304.20 1.09
304.30 1.091
304.40 1.091
304.50 1.091
304.60 1.091
304.70 1.092
304.80 1.092
304.90 1.092
305.00 1.093
305.10 1.093
305.20 1.093
305.30 1.093
305.40 1.094
305.50 1.094
305.60 1.094
305.70 1.095
305.80 1.095
305.90 1.095
306.00 1.095
306.10 1.096
306.20 1.096
306.30 1.096
306.40 1.097
306.50 1.097
306.60 1.097
306.70 1.097
306.80 1.098
306.90 1.098
307.00 1.098
307.10 1.099
307.20 1.099
307.30 1.099
307.40 1.099
307.50 1.1
307.60 1.1
307.70 1.1
307.80 1.1
307.90 1.101
308.00 1.101
308.10 1.101
308.20 1.102
308.30 1.102
308.40 1.102
308.50 1.102
308.60 1.103
308.70 1.103
308.80 1.103
308.90 1.103
309.00 1.104
309.10 1.104
309.20 1.104
309.30 1.104
309.40 1.105
309.50 1.105
309.60 1.105
309.70 1.106
309.80 1.106
309.90 1.106
310.00 1.106
310.10 1.107
310.20 1.107
310.30 1.107
310.40 1.107
310.50 1.108
310.60 1.108
310.70 1.108
310.80 1.108
310.90 1.109
311.00 1.109
311.10 1.109
311.20 1.109
311.30 1.11
311.40 1.11
311.50 1.11
311.60 1.11
311.70 1.111
311.80 1.111
311.90 1.111
312.00 1.111
312.10 1.112
312.20 1.112
312.30 1.112
312.40 1.112
312.50 1.113
312.60 1.113
312.70 1.113
312.80 1.113
312.90 1.114
313.00 1.114
313.10 1.114
313.20 1.114
313.30 1.115
313.40 1.115
313.50 1.115
313.60 1.115
313.70 1.115
313.80 1.116
313.90 1.116
314.00 1.116
314.10 1.116
314.20 1.117
314.30 1.117
314.40 1.117
314.50 1.117
314.60 1.118
314.70 1.118
314.80 1.118
314.90 1.118
315.00 1.119
315.10 1.119
315.20 1.119
315.30 1.119
315.40 1.119
315.50 1.12
315.60 1.12
315.70 1.12
315.80 1.12
315.90 1.121
316.00 1.121
316.10 1.121
316.20 1.121
316.30 1.121
316.40 1.122
316.50 1.122
316.60 1.122
316.70 1.122
316.80 1.123
316.90 1.123
317.00 1.123
317.10 1.123
317.20 1.123
317.30 1.124
317.40 1.124
317.50 1.124
317.60 1.124
317.70 1.125
317.80 1.125
317.90 1.125
318.00 1.125
318.10 1.125
318.20 1.126
318.30 1.126
318.40 1.126
318.50 1.126
318.60 1.126
318.70 1.127
318.80 1.127
318.90 1.127
319.00 1.127
319.10 1.128
319.20 1.128
319.30 1.128
319.40 1.128
319.50 1.128
319.60 1.129
319.70 1.129
319.80 1.129
319.90 1.129
320.00 1.129
320.10 1.13
320.20 1.13
320.30 1.13
320.40 1.13
320.50 1.13
320.60 1.131
320.70 1.131
320.80 1.131
320.90 1.131
321.00 1.131
321.10 1.132
321.20 1.132
321.30 1.132
321.40 1.132
321.50 1.132
321.60 1.133
321.70 1.133
321.80 1.133
321.90 1.133
322.00 1.133
322.10 1.134
322.20 1.134
322.30 1.134
322.40 1.134
322.50 1.134
322.60 1.134
322.70 1.135
322.80 1.135
322.90 1.135
323.00 1.135
323.10 1.135
323.20 1.136
323.30 1.136
323.40 1.136
323.50 1.136
323.60 1.136
323.70 1.137
323.80 1.137
323.90 1.137
324.00 1.137
324.10 1.137
324.20 1.137
324.30 1.138
324.40 1.138
324.50 1.138
324.60 1.138
324.70 1.138
324.80 1.138
324.90 1.139
325.00 1.139
325.10 1.139
325.20 1.139
325.30 1.139
325.40 1.14
325.50 1.14
325.60 1.14
325.70 1.14
325.80 1.14
325.90 1.14
326.00 1.141
326.10 1.141
326.20 1.141
326.30 1.141
326.40 1.141
326.50 1.141
326.60 1.142
326.70 1.142
326.80 1.142
326.90 1.142
327.00 1.142
327.10 1.142
327.20 1.143
327.30 1.143
327.40 1.143
327.50 1.143
327.60 1.143
327.70 1.143
327.80 1.144
327.90 1.144
328.00 1.144
328.10 1.144
328.20 1.144
328.30 1.144
328.40 1.145
328.50 1.145
328.60 1.145
328.70 1.145
328.80 1.145
328.90 1.145
329.00 1.145
329.10 1.146
329.20 1.146
329.30 1.146
329.40 1.146
329.50 1.146
329.60 1.146
329.70 1.147
329.80 1.147
329.90 1.147
330.00 1.147
330.10 1.147
330.20 1.147
330.30 1.147
330.40 1.148
330.50 1.148
330.60 1.148
330.70 1.148
330.80 1.148
330.90 1.148
331.00 1.148
331.10 1.149
331.20 1.149
331.30 1.149
331.40 1.149
331.50 1.149
331.60 1.149
331.70 1.149
331.80 1.15
331.90 1.15
332.00 1.15
332.10 1.15
332.20 1.15
332.30 1.15
332.40 1.15
332.50 1.151
332.60 1.151
332.70 1.151
332.80 1.151
332.90 1.151
333.00 1.151
333.10 1.151
333.20 1.152
333.30 1.152
333.40 1.152
333.50 1.152
333.60 1.152
333.70 1.152
333.80 1.152
333.90 1.152
334.00 1.153
334.10 1.153
334.20 1.153
334.30 1.153
334.40 1.153
334.50 1.153
334.60 1.153
334.70 1.153
334.80 1.154
334.90 1.154
335.00 1.154
335.10 1.154
335.20 1.154
335.30 1.154
335.40 1.154
335.50 1.154
335.60 1.155
335.70 1.155
335.80 1.155
335.90 1.155
336.00 1.155
336.10 1.155
336.20 1.155
336.30 1.155
336.40 1.156
336.50 1.156
336.60 1.156
336.70 1.156
336.80 1.156
336.90 1.156
337.00 1.156
337.10 1.156
337.20 1.156
337.30 1.157
337.40 1.157
337.50 1.157
337.60 1.157
337.70 1.157
337.80 1.157
337.90 1.157
338.00 1.157
338.10 1.158
338.20 1.158
338.30 1.158
338.40 1.158
338.50 1.158
338.60 1.158
338.70 1.158
338.80 1.158
338.90 1.158
339.00 1.158
339.10 1.159
339.20 1.159
339.30 1.159
339.40 1.159
339.50 1.159
339.60 1.159
339.70 1.159
339.80 1.159
339.90 1.159
340.00 1.16
340.10 1.16
340.20 1.16
340.30 1.16
340.40 1.16
340.50 1.16
340.60 1.16
340.70 1.16
340.80 1.16
340.90 1.16
341.00 1.16
341.10 1.161
341.20 1.161
341.30 1.161
341.40 1.161
341.50 1.161
341.60 1.161
341.70 1.161
341.80 1.161
341.90 1.161
342.00 1.161
342.10 1.162
342.20 1.162
342.30 1.162
342.40 1.162
342.50 1.162
342.60 1.162
342.70 1.162
342.80 1.162
342.90 1.162
343.00 1.162
343.10 1.162
343.20 1.163
343.30 1.163
343.40 1.163
343.50 1.163
343.60 1.163
343.70 1.163
343.80 1.163
343.90 1.163
344.00 1.163
344.10 1.163
344.20 1.163
344.30 1.163
344.40 1.164
344.50 1.164
344.60 1.164
344.70 1.164
344.80 1.164
344.90 1.164
345.00 1.164
345.10 1.164
345.20 1.164
345.30 1.164
345.40 1.164
345.50 1.164
345.60 1.164
345.70 1.165
345.80 1.165
345.90 1.165
346.00 1.165
346.10 1.165
346.20 1.165
346.30 1.165
346.40 1.165
346.50 1.165
346.60 1.165
346.70 1.165
346.80 1.165
346.90 1.165
347.00 1.165
347.10 1.166
347.20 1.166
347.30 1.166
347.40 1.166
347.50 1.166
347.60 1.166
347.70 1.166
347.80 1.166
347.90 1.166
348.00 1.166
348.10 1.166
348.20 1.166
348.30 1.166
348.40 1.166
348.50 1.166
348.60 1.167
348.70 1.167
348.80 1.167
348.90 1.167
349.00 1.167
349.10 1.167
349.20 1.167
349.30 1.167
349.40 1.167
349.50 1.167
349.60 1.167
349.70 1.167
349.80 1.167
349.90 1.167
350.00 1.167
350.10 1.167
350.20 1.168
350.30 1.168
350.40 1.168
350.50 1.168
350.60 1.168
350.70 1.168
350.80 1.168
350.90 1.168
351.00 1.168
351.10 1.168
351.20 1.168
351.30 1.168
351.40 1.168
351.50 1.168
351.60 1.168
351.70 1.168
351.80 1.168
351.90 1.168
352.00 1.168
352.10 1.168
352.20 1.169
352.30 1.169
352.40 1.169
352.50 1.169
352.60 1.169
352.70 1.169
352.80 1.169
352.90 1.169
353.00 1.169
353.10 1.169
353.20 1.169
353.30 1.169
353.40 1.169
353.50 1.169
353.60 1.169
353.70 1.169
353.80 1.169
353.90 1.169
354.00 1.169
354.10 1.169
354.20 1.169
354.30 1.169
354.40 1.169
354.50 1.17
354.60 1.17
354.70 1.17
354.80 1.17
354.90 1.17
355.00 1.17
355.10 1.17
355.20 1.17
355.30 1.17
355.40 1.17
355.50 1.17
355.60 1.17
355.70 1.17
355.80 1.17
355.90 1.17
356.00 1.17
356.10 1.17
356.20 1.17
356.30 1.17
356.40 1.17
356.50 1.17
356.60 1.17
356.70 1.17
356.80 1.17
356.90 1.17
357.00 1.17
357.10 1.17
357.20 1.17
357.30 1.17
357.40 1.17
357.50 1.17
357.60 1.171
357.70 1.171
357.80 1.171
357.90 1.171
358.00 1.171
358.10 1.171
358.20 1.171
358.30 1.171
358.40 1.171
358.50 1.171
358.60 1.171
358.70 1.171
358.80 1.171
358.90 1.171
359.00 1.171
359.10 1.171
359.20 1.171
359.30 1.171
359.40 1.171
359.50 1.171
359.60 1.171
359.70 1.171
359.80 1.171
359.90 1.171
360.00 1.171
360.10 1.171
360.20 1.171
360.30 1.171
360.40 1.171
360.50 1.171
360.60 1.171
360.70 1.171
360.80 1.171
360.90 1.171
361.00 1.171
361.10 1.171
361.20 1.171
361.30 1.171
361.40 1.171
361.50 1.171
361.60 1.171
361.70 1.171
361.80 1.171
361.90 1.171
362.00 1.171
362.10 1.171
362.20 1.171
362.30 1.171
362.40 1.171
362.50 1.171
362.60 1.171
362.70 1.171
362.80 1.171
362.90 1.171
363.00 1.171
363.10 1.171
363.20 1.171
363.30 1.171
363.40 1.171
363.50 1.171
363.60 1.171
363.70 1.171
363.80 1.171
363.90 1.171
364.00 1.171
364.10 1.171
364.20 1.171
364.30 1.171
364.40 1.171
364.50 1.171
364.60 1.171
364.70 1.171
364.80 1.171
364.90 1.171
365.00 1.171
365.10 1.171
365.20 1.171
365.30 1.171
365.40 1.171
365.50 1.171
365.60 1.171
365.70 1.171
365.80 1.171
365.90 1.171
366.00 1.171
366.10 1.171
366.20 1.171
366.30 1.171
366.40 1.171
366.50 1.171
366.60 1.171
366.70 1.171
366.80 1.171
366.90 1.171
367.00 1.171
367.10 1.171
367.20 1.171
367.30 1.171
367.40 1.171
367.50 1.171
367.60 1.171
367.70 1.171
367.80 1.171
367.90 1.171
368.00 1.171
368.10 1.171
368.20 1.171
368.30 1.171
368.40 1.171
368.50 1.171
368.60 1.171
368.70 1.171
368.80 1.171
368.90 1.171
369.00 1.171
369.10 1.171
369.20 1.171
369.30 1.171
369.40 1.171
369.50 1.171
369.60 1.171
369.70 1.171
369.80 1.171
369.90 1.171
370.00 1.171
370.10 1.171
370.20 1.171
370.30 1.171
370.40 1.171
370.50 1.171
370.60 1.171
370.70 1.171
370.80 1.171
370.90 1.171
371.00 1.17
371.10 1.17
371.20 1.17
371.30 1.17
371.40 1.17
371.50 1.17
371.60 1.17
371.70 1.17
371.80 1.17
371.90 1.17
372.00 1.17
372.10 1.17
372.20 1.17
372.30 1.17
372.40 1.17
372.50 1.17
372.60 1.17
372.70 1.17
372.80 1.17
372.90 1.17
373.00 1.17
373.10 1.17
373.20 1.17
373.30 1.17
373.40 1.17
373.50 1.17
373.60 1.17
373.70 1.17
373.80 1.17
373.90 1.17
374.00 1.17
374.10 1.17
374.20 1.17
374.30 1.17
374.40 1.17
374.50 1.17
374.60 1.17
374.70 1.17
374.80 1.17
374.90 1.17
375.00 1.17
375.10 1.17
375.20 1.17
375.30 1.169
375.40 1.169
375.50 1.169
375.60 1.169
375.70 1.169
375.80 1.169
375.90 1.169
376.00 1.169
376.10 1.169
376.20 1.169
376.30 1.169
376.40 1.169
376.50 1.169
376.60 1.169
376.70 1.169
376.80 1.169
376.90 1.169
377.00 1.169
377.10 1.169
377.20 1.169
377.30 1.169
377.40 1.169
377.50 1.169
377.60 1.169
377.70 1.169
377.80 1.169
377.90 1.169
378.00 1.169
378.10 1.169
378.20 1.169
378.30 1.169
378.40 1.169
378.50 1.169
378.60 1.168
378.70 1.168
378.80 1.168
378.90 1.168
379.00 1.168
379.10 1.168
379.20 1.167
379.30 1.167
379.40 1.167
379.50 1.167
379.60 1.166
379.70 1.166
379.80 1.166
379.90 1.165
380.00 1.165
380.10 1.166
380.20 1.166
380.30 1.167
380.40 1.167
380.50 1.167
380.60 1.168
380.70 1.168
380.80 1.169
380.90 1.169
381.00 1.17
381.10 1.17
381.20 1.17
381.30 1.17
381.40 1.17
381.50 1.17
381.60 1.17
381.70 1.17
381.80 1.17
381.90 1.17
382.00 1.17
382.10 1.169
382.20 1.169
382.30 1.168
382.40 1.167
382.50 1.166
382.60 1.165
382.70 1.164
382.80 1.163
382.90 1.162
383.00 1.161
383.10 1.16
383.20 1.159
383.30 1.157
383.40 1.152
383.50 1.144
383.60 1.147
383.70 1.154
383.80 1.158
383.90 1.16
384.00 1.162
384.10 1.164
384.20 1.165
384.30 1.167
384.40 1.168
384.50 1.169
384.60 1.169
384.70 1.17
384.80 1.171
384.90 1.171
385.00 1.172
385.10 1.172
385.20 1.172
385.30 1.173
385.40 1.173
385.50 1.173
385.60 1.173
385.70 1.173
385.80 1.173
385.90 1.173
386.00 1.173
386.10 1.173
386.20 1.173
386.30 1.173
386.40 1.173
386.50 1.173
386.60 1.173
386.70 1.173
386.80 1.172
386.90 1.172
387.00 1.172
387.10 1.171
387.20 1.171
387.30 1.17
387.40 1.169
387.50 1.168
387.60 1.167
387.70 1.166
387.80 1.164
387.90 1.162
388.00 1.16
388.10 1.158
388.20 1.154
388.30 1.151
388.40 1.146
388.50 1.141
388.60 1.135
388.70 1.126
388.80 1.112
388.90 1.092
389.00 1.112
389.10 1.126
389.20 1.135
389.30 1.141
389.40 1.146
389.50 1.151
389.60 1.155
389.70 1.158
389.80 1.161
389.90 1.163
390.00 1.165
390.10 1.167
390.20 1.168
390.30 1.169
390.40 1.17
390.50 1.171
390.60 1.172
390.70 1.173
390.80 1.173
390.90 1.174
391.00 1.174
391.10 1.175
391.20 1.175
391.30 1.175
391.40 1.175
391.50 1.176
391.60 1.176
391.70 1.176
391.80 1.176
391.90 1.176
392.00 1.176
392.10 1.176
392.20 1.177
392.30 1.177
392.40 1.177
392.50 1.177
392.60 1.177
392.70 1.177
392.80 1.177
392.90 1.177
393.00 1.176
393.10 1.176
393.20 1.176
393.30 1.176
393.40 1.176
393.50 1.176
393.60 1.176
393.70 1.175
393.80 1.175
393.90 1.175
394.00 1.175
394.10 1.174
394.20 1.174
394.30 1.174
394.40 1.173
394.50 1.173
394.60 1.172
394.70 1.171
394.80 1.171
394.90 1.17
395.00 1.169
395.10 1.168
395.20 1.167
395.30 1.166
395.40 1.164
395.50 1.163
395.60 1.161
395.70 1.158
395.80 1.156
395.90 1.153
396.00 1.149
396.10 1.144
396.20 1.139
396.30 1.132
396.40 1.124
396.50 1.113
396.60 1.101
396.70 1.087
396.80 1.067
396.90 1.035
397.00 0.9923
397.10 1.033
397.20 1.063
397.30 1.084
397.40 1.099
397.50 1.112
397.60 1.123
397.70 1.131
397.80 1.137
397.90 1.143
398.00 1.148
398.10 1.151
398.20 1.155
398.30 1.157
398.40 1.159
398.50 1.161
398.60 1.163
398.70 1.164
398.80 1.166
398.90 1.167
399.00 1.168
399.10 1.168
399.20 1.169
399.30 1.17
399.40 1.17
399.50 1.171
399.60 1.171
399.70 1.172
399.80 1.172
399.90 1.172
400.00 1.173
400.10 1.173
400.20 1.173
400.30 1.173
400.40 1.173
400.50 1.174
400.60 1.174
400.70 1.174
400.80 1.174
400.90 1.174
401.00 1.174
401.10 1.174
401.20 1.174
401.30 1.174
401.40 1.174
401.50 1.174
401.60 1.174
401.70 1.174
401.80 1.174
401.90 1.174
402.00 1.174
402.10 1.174
402.20 1.174
402.30 1.174
402.40 1.174
402.50 1.174
402.60 1.174
402.70 1.174
402.80 1.174
402.90 1.174
403.00 1.174
403.10 1.173
403.20 1.173
403.30 1.173
403.40 1.173
403.50 1.173
403.60 1.173
403.70 1.173
403.80 1.173
403.90 1.173
404.00 1.173
404.10 1.172
404.20 1.172
404.30 1.172
404.40 1.172
404.50 1.172
404.60 1.172
404.70 1.172
404.80 1.171
404.90 1.171
405.00 1.171
405.10 1.171
405.20 1.171
405.30 1.171
405.40 1.17
405.50 1.17
405.60 1.17
405.70 1.17
405.80 1.17
405.90 1.169
406.00 1.169
406.10 1.169
406.20 1.168
406.30 1.168
406.40 1.168
406.50 1.167
406.60 1.167
406.70 1.167
406.80 1.166
406.90 1.166
407.00 1.165
407.10 1.165
407.20 1.164
407.30 1.164
407.40 1.163
407.50 1.162
407.60 1.161
407.70 1.16
407.80 1.159
407.90 1.158
408.00 1.157
408.10 1.156
408.20 1.154
408.30 1.152
408.40 1.15
408.50 1.148
408.60 1.145
408.70 1.143
408.80 1.139
408.90 1.135
409.00 1.131
409.10 1.125
409.20 1.119
409.30 1.111
409.40 1.101
409.50 1.089
409.60 1.074
409.70 1.053
409.80 1.027
409.90 0.9967
410.00 0.9511
410.10 0.8996
410.20 0.8424
410.30 0.9188
410.40 0.9763
410.50 1.015
410.60 1.041
410.70 1.064
410.80 1.082
410.90 1.095
411.00 1.105
411.10 1.114
411.20 1.121
411.30 1.126
411.40 1.131
411.50 1.135
411.60 1.138
411.70 1.141
411.80 1.144
411.90 1.146
412.00 1.148
412.10 1.149
412.20 1.151
412.30 1.152
412.40 1.153
412.50 1.154
412.60 1.155
412.70 1.156
412.80 1.156
412.90 1.157
413.00 1.157
413.10 1.158
413.20 1.158
413.30 1.158
413.40 1.159
413.50 1.159
413.60 1.159
413.70 1.159
413.80 1.16
413.90 1.16
414.00 1.16
414.10 1.16
414.20 1.16
414.30 1.16
414.40 1.16
414.50 1.16
414.60 1.16
414.70 1.16
414.80 1.16
414.90 1.16
415.00 1.16
415.10 1.16
415.20 1.16
415.30 1.16
415.40 1.16
415.50 1.16
415.60 1.16
415.70 1.16
415.80 1.16
415.90 1.16
416.00 1.16
416.10 1.16
416.20 1.16
416.30 1.159
416.40 1.159
416.50 1.159
416.60 1.159
416.70 1.159
416.80 1.159
416.90 1.159
417.00 1.159
417.10 1.159
417.20 1.159
417.30 1.158
417.40 1.158
417.50 1.158
417.60 1.158
417.70 1.158
417.80 1.158
417.90 1.158
418.00 1.158
418.10 1.158
418.20 1.157
418.30 1.157
418.40 1.157
418.50 1.157
418.60 1.157
418.70 1.157
418.80 1.157
418.90 1.157
419.00 1.157
419.10 1.156
419.20 1.156
419.30 1.156
419.40 1.156
419.50 1.156
419.60 1.156
419.70 1.156
419.80 1.155
419.90 1.155
420.00 1.155
420.10 1.155
420.20 1.155
420.30 1.155
420.40 1.155
420.50 1.155
420.60 1.154
420.70 1.154
420.80 1.154
420.90 1.154
421.00 1.154
421.10 1.154
421.20 1.154
421.30 1.153
421.40 1.153
421.50 1.153
421.60 1.153
421.70 1.153
421.80 1.153
421.90 1.153
422.00 1.152
422.10 1.152
422.20 1.152
422.30 1.152
422.40 1.152
422.50 1.152
422.60 1.151
422.70 1.151
422.80 1.151
422.90 1.151
423.00 1.151
423.10 1.151
423.20 1.151
423.30 1.15
423.40 1.15
423.50 1.15
423.60 1.15
423.70 1.15
423.80 1.15
423.90 1.149
424.00 1.149
424.10 1.149
424.20 1.149
424.30 1.149
424.40 1.149
424.50 1.148
424.60 1.148
424.70 1.148
424.80 1.148
424.90 1.148
425.00 1.148
425.10 1.147
425.20 1.147
425.30 1.147
425.40 1.147
425.50 1.147
425.60 1.147
425.70 1.146
425.80 1.146
425.90 1.146
426.00 1.146
426.10 1.146
426.20 1.145
426.30 1.145
426.40 1.145
426.50 1.145
426.60 1.145
426.70 1.145
426.80 1.144
426.90 1.144
427.00 1.144
427.10 1.144
427.20 1.143
427.30 1.143
427.40 1.143
427.50 1.143
427.60 1.143
427.70 1.142
427.80 1.142
427.90 1.142
428.00 1.142
428.10 1.142
428.20 1.141
428.30 1.141
428.40 1.141
428.50 1.141
428.60 1.14
428.70 1.14
428.80 1.14
428.90 1.139
429.00 1.139
429.10 1.139
429.20 1.139
429.30 1.138
429.40 1.138
429.50 1.138
429.60 1.137
429.70 1.137
429.80 1.136
429.90 1.136
430.00 1.136
430.10 1.135
430.20 1.135
430.30 1.134
430.40 1.134
430.50 1.133
430.60 1.133
430.70 1.132
430.80 1.131
430.90 1.131
431.00 1.13
431.10 1.129
431.20 1.128
431.30 1.127
431.40 1.126
431.50 1.125
431.60 1.124
431.70 1.123
431.80 1.121
431.90 1.119
432.00 1.118
432.10 1.115
432.20 1.113
432.30 1.11
432.40 1.107
432.50 1.103
432.60 1.099
432.70 1.094
432.80 1.088
432.90 1.081
433.00 1.073
433.10 1.063
433.20 1.052
433.30 1.038
433.40 1.019
433.50 0.996
433.60 0.9679
433.70 0.9236
433.80 0.8662
433.90 0.7956
434.00 0.6535
434.10 0.656
434.20 0.8029
434.30 0.8713
434.40 0.9271
434.50 0.97
434.60 0.9972
434.70 1.02
434.80 1.038
434.90 1.051
435.00 1.062
435.10 1.071
435.20 1.079
435.30 1.085
435.40 1.091
435.50 1.095
435.60 1.099
435.70 1.103
435.80 1.105
435.90 1.108
436.00 1.11
436.10 1.111
436.20 1.113
436.30 1.114
436.40 1.115
436.50 1.116
436.60 1.117
436.70 1.118
436.80 1.119
436.90 1.119
437.00 1.12
437.10 1.12
437.20 1.121
437.30 1.121
437.40 1.121
437.50 1.122
437.60 1.122
437.70 1.122
437.80 1.122
437.90 1.122
438.00 1.122
438.10 1.122
438.20 1.123
438.30 1.123
438.40 1.123
438.50 1.123
438.60 1.123
438.70 1.123
438.80 1.123
438.90 1.123
439.00 1.123
439.10 1.123
439.20 1.122
439.30 1.122
439.40 1.122
439.50 1.122
439.60 1.122
439.70 1.122
439.80 1.122
439.90 1.122
440.00 1.122
440.10 1.122
440.20 1.122
440.30 1.122
440.40 1.121
440.50 1.121
440.60 1.121
440.70 1.121
440.80 1.121
440.90 1.121
441.00 1.121
441.10 1.121
441.20 1.12
441.30 1.12
441.40 1.12
441.50 1.12
441.60 1.12
441.70 1.12
441.80 1.12
441.90 1.119
442.00 1.119
442.10 1.119
442.20 1.119
442.30 1.119
442.40 1.119
442.50 1.118
442.60 1.118
442.70 1.118
442.80 1.118
442.90 1.118
443.00 1.118
443.10 1.118
443.20 1.117
443.30 1.117
443.40 1.117
443.50 1.117
443.60 1.117
443.70 1.117
443.80 1.116
443.90 1.116
444.00 1.116
444.10 1.116
444.20 1.116
444.30 1.116
444.40 1.115
444.50 1.115
444.60 1.115
444.70 1.115
444.80 1.115
444.90 1.114
445.00 1.114
445.10 1.114
445.20 1.114
445.30 1.114
445.40 1.114
445.50 1.113
445.60 1.113
445.70 1.113
445.80 1.113
445.90 1.113
446.00 1.113
446.10 1.112
446.20 1.112
446.30 1.112
446.40 1.112
446.50 1.112
446.60 1.111
446.70 1.111
446.80 1.111
446.90 1.111
447.00 1.111
447.10 1.111
447.20 1.11
447.30 1.11
447.40 1.11
447.50 1.11
447.60 1.11
447.70 1.11
447.80 1.109
447.90 1.109
448.00 1.109
448.10 1.109
448.20 1.109
448.30 1.108
448.40 1.108
448.50 1.108
448.60 1.108
448.70 1.108
448.80 1.107
448.90 1.107
449.00 1.107
449.10 1.107
449.20 1.107
449.30 1.107
449.40 1.106
449.50 1.106
449.60 1.106
449.70 1.106
449.80 1.106
449.90 1.105
450.00 1.105
450.10 1.105
450.20 1.105
450.30 1.105
450.40 1.104
450.50 1.104
450.60 1.104
450.70 1.104
450.80 1.104
450.90 1.104
451.00 1.103
451.10 1.103
451.20 1.103
451.30 1.103
451.40 1.103
451.50 1.102
451.60 1.102
451.70 1.102
451.80 1.102
451.90 1.102
452.00 1.102
452.10 1.101
452.20 1.101
452.30 1.101
452.40 1.101
452.50 1.101
452.60 1.1
452.70 1.1
452.80 1.1
452.90 1.1
453.00 1.1
453.10 1.099
453.20 1.099
453.30 1.099
453.40 1.099
453.50 1.099
453.60 1.098
453.70 1.098
453.80 1.098
453.90 1.098
454.00 1.098
454.10 1.097
454.20 1.097
454.30 1.097
454.40 1.097
454.50 1.097
454.60 1.096
454.70 1.096
454.80 1.096
454.90 1.096
455.00 1.096
455.10 1.096
455.20 1.095
455.30 1.095
455.40 1.095
455.50 1.095
455.60 1.095
455.70 1.094
455.80 1.094
455.90 1.094
456.00 1.094
456.10 1.094
456.20 1.093
456.30 1.093
456.40 1.093
456.50 1.093
456.60 1.093
456.70 1.092
456.80 1.092
456.90 1.092
457.00 1.092
457.10 1.092
457.20 1.091
457.30 1.091
457.40 1.091
457.50 1.091
457.60 1.091
457.70 1.09
457.80 1.09
457.90 1.09
458.00 1.09
458.10 1.09
458.20 1.089
458.30 1.089
458.40 1.089
458.50 1.089
458.60 1.089
458.70 1.088
458.80 1.088
458.90 1.088
459.00 1.088
459.10 1.088
459.20 1.087
459.30 1.087
459.40 1.087
459.50 1.087
459.60 1.087
459.70 1.086
459.80 1.086
459.90 1.086
460.00 1.086
460.10 1.086
460.20 1.085
460.30 1.085
460.40 1.085
460.50 1.085
460.60 1.085
460.70 1.084
460.80 1.084
460.90 1.084
461.00 1.084
461.10 1.084
461.20 1.083
461.30 1.083
461.40 1.083
461.50 1.083
461.60 1.083
461.70 1.082
461.80 1.082
461.90 1.082
462.00 1.082
462.10 1.082
462.20 1.081
462.30 1.081
462.40 1.081
462.50 1.081
462.60 1.081
462.70 1.08
462.80 1.08
462.90 1.08
463.00 1.08
463.10 1.08
463.20 1.079
463.30 1.079
463.40 1.079
463.50 1.079
463.60 1.078
463.70 1.078
463.80 1.078
463.90 1.078
464.00 1.078
464.10 1.077
464.20 1.077
464.30 1.077
464.40 1.077
464.50 1.077
464.60 1.076
464.70 1.076
464.80 1.076
464.90 1.076
465.00 1.076
465.10 1.075
465.20 1.075
465.30 1.075
465.40 1.075
465.50 1.075
465.60 1.074
465.70 1.074
465.80 1.074
465.90 1.074
466.00 1.073
466.10 1.073
466.20 1.073
466.30 1.073
466.40 1.073
466.50 1.072
466.60 1.072
466.70 1.072
466.80 1.072
466.90 1.072
467.00 1.071
467.10 1.071
467.20 1.071
467.30 1.071
467.40 1.07
467.50 1.07
467.60 1.07
467.70 1.07
467.80 1.07
467.90 1.069
468.00 1.069
468.10 1.069
468.20 1.069
468.30 1.069
468.40 1.068
468.50 1.068
468.60 1.068
468.70 1.068
468.80 1.068
468.90 1.067
469.00 1.067
469.10 1.067
469.20 1.067
469.30 1.066
469.40 1.066
469.50 1.066
469.60 1.066
469.70 1.066
469.80 1.065
469.90 1.065
470.00 1.065
470.10 1.065
470.20 1.065
470.30 1.064
470.40 1.064
470.50 1.064
470.60 1.064
470.70 1.063
470.80 1.063
470.90 1.063
471.00 1.063
471.10 1.063
471.20 1.062
471.30 1.062
471.40 1.062
471.50 1.062
471.60 1.061
471.70 1.061
471.80 1.061
471.90 1.061
472.00 1.061
472.10 1.06
472.20 1.06
472.30 1.06
472.40 1.06
472.50 1.06
472.60 1.059
472.70 1.059
472.80 1.059
472.90 1.059
473.00 1.058
473.10 1.058
473.20 1.058
473.30 1.058
473.40 1.058
473.50 1.057
473.60 1.057
473.70 1.057
473.80 1.057
473.90 1.056
474.00 1.056
474.10 1.056
474.20 1.056
474.30 1.055
474.40 1.055
474.50 1.055
474.60 1.055
474.70 1.055
474.80 1.054
474.90 1.054
475.00 1.054
475.10 1.054
475.20 1.053
475.30 1.053
475.40 1.053
475.50 1.053
475.60 1.053
475.70 1.052
475.80 1.052
475.90 1.052
476.00 1.052
476.10 1.051
476.20 1.051
476.30 1.051
476.40 1.051
476.50 1.05
476.60 1.05
476.70 1.05
476.80 1.05
476.90 1.049
477.00 1.049
477.10 1.049
477.20 1.049
477.30 1.048
477.40 1.048
477.50 1.048
477.60 1.048
477.70 1.047
477.80 1.047
477.90 1.047
478.00 1.047
478.10 1.046
478.20 1.046
478.30 1.046
478.40 1.045
478.50 1.045
478.60 1.045
478.70 1.045
478.80 1.044
478.90 1.044
479.00 1.044
479.10 1.044
479.20 1.043
479.30 1.043
479.40 1.043
479.50 1.042
479.60 1.042
479.70 1.042
479.80 1.041
479.90 1.041
480.00 1.041
480.10 1.04
480.20 1.04
480.30 1.04
480.40 1.039
480.50 1.039
480.60 1.038
480.70 1.038
480.80 1.038
480.90 1.037
481.00 1.037
481.10 1.037
481.20 1.036
481.30 1.036
481.40 1.035
481.50 1.034
481.60 1.034
481.70 1.033
481.80 1.033
481.90 1.032
482.00 1.032
482.10 1.031
482.20 1.031
482.30 1.03
482.40 1.029
482.50 1.028
482.60 1.027
482.70 1.026
482.80 1.025
482.90 1.024
483.00 1.024
483.10 1.023
483.20 1.021
483.30 1.019
483.40 1.017
483.50 1.016
483.60 1.014
483.70 1.012
483.80 1.01
483.90 1.008
484.00 1.006
484.10 1.004
484.20 1.001
484.30 0.9969
484.40 0.9928
484.50 0.9888
484.60 0.9847
484.70 0.9779
484.80 0.9698
484.90 0.9617
485.00 0.9536
485.10 0.9455
485.20 0.9333
485.30 0.9191
485.40 0.9004
485.50 0.8795
485.60 0.85
485.70 0.8165
485.80 0.7643
485.90 0.7033
486.00 0.6145
486.10 0.4533
486.20 0.5205
486.30 0.6514
486.40 0.7228
486.50 0.7845
486.60 0.8268
486.70 0.8601
486.80 0.8848
486.90 0.9054
487.00 0.9213
487.10 0.9351
487.20 0.9447
487.30 0.9524
487.40 0.9601
487.50 0.9678
487.60 0.9755
487.70 0.9804
487.80 0.984
487.90 0.9876
488.00 0.9912
488.10 0.9948
488.20 0.9969
488.30 0.9983
488.40 0.9997
488.50 1.001
488.60 1.003
488.70 1.004
488.80 1.005
488.90 1.007
489.00 1.008
489.10 1.01
489.20 1.01
489.30 1.011
489.40 1.011
489.50 1.012
489.60 1.012
489.70 1.012
489.80 1.013
489.90 1.013
490.00 1.014
490.10 1.014
490.20 1.014
490.30 1.014
490.40 1.014
490.50 1.015
490.60 1.015
490.70 1.015
490.80 1.015
490.90 1.015
491.00 1.015
491.10 1.015
491.20 1.015
491.30 1.015
491.40 1.015
491.50 1.015
491.60 1.015
491.70 1.015
491.80 1.015
491.90 1.015
492.00 1.015
492.10 1.015
492.20 1.014
492.30 1.014
492.40 1.014
492.50 1.014
492.60 1.014
492.70 1.014
492.80 1.014
492.90 1.014
493.00 1.013
493.10 1.013
493.20 1.013
493.30 1.013
493.40 1.013
493.50 1.013
493.60 1.013
493.70 1.012
493.80 1.012
493.90 1.012
494.00 1.012
494.10 1.012
494.20 1.012
494.30 1.011
494.40 1.011
494.50 1.011
494.60 1.011
494.70 1.011
494.80 1.01
494.90 1.01
495.00 1.01
495.10 1.01
495.20 1.01
495.30 1.01
495.40 1.009
495.50 1.009
495.60 1.009
495.70 1.009
495.80 1.009
495.90 1.008
496.00 1.008
496.10 1.008
496.20 1.008
496.30 1.008
496.40 1.007
496.50 1.007
496.60 1.007
496.70 1.007
496.80 1.007
496.90 1.006
497.00 1.006
497.10 1.006
497.20 1.006
497.30 1.006
497.40 1.005
497.50 1.005
497.60 1.005
497.70 1.005
497.80 1.005
497.90 1.004
498.00 1.004
498.10 1.004
498.20 1.004
498.30 1.004
498.40 1.003
498.50 1.003
498.60 1.003
498.70 1.003
498.80 1.003
498.90 1.002
499.00 1.002
499.10 1.002
499.20 1.002
499.30 1.002
499.40 1.001
499.50 1.001
499.60 1.001
499.70 1.001
499.80 1
499.90 1
500.00 1
500.10 0.9998
500.20 0.9996
500.30 0.9994
500.40 0.9991
500.50 0.9989
500.60 0.9987
500.70 0.9985
500.80 0.9983
500.90 0.9981
501.00 0.9978
501.10 0.9976
501.20 0.9974
501.30 0.9972
501.40 0.997
501.50 0.9968
501.60 0.9966
501.70 0.9963
501.80 0.9961
501.90 0.9959
502.00 0.9957
502.10 0.9955
502.20 0.9953
502.30 0.995
502.40 0.9948
502.50 0.9946
502.60 0.9944
502.70 0.9942
502.80 0.9939
502.90 0.9937
503.00 0.9935
503.10 0.9933
503.20 0.9931
503.30 0.9928
503.40 0.9926
503.50 0.9924
503.60 0.9922
503.70 0.992
503.80 0.9918
503.90 0.9916
504.00 0.9914
504.10 0.9911
504.20 0.9909
504.30 0.9907
504.40 0.9905
504.50 0.9903
504.60 0.99
504.70 0.9898
504.80 0.9896
504.90 0.9894
505.00 0.9892
505.10 0.989
505.20 0.9887
505.30 0.9885
505.40 0.9883
505.50 0.988
505.60 0.9878
505.70 0.9876
505.80 0.9874
505.90 0.9871
506.00 0.9869
506.10 0.9867
506.20 0.9865
506.30 0.9863
506.40 0.986
506.50 0.9858
506.60 0.9856
506.70 0.9854
506.80 0.9852
506.90 0.9849
507.00 0.9847
507.10 0.9845
507.20 0.9843
507.30 0.9841
507.40 0.9839
507.50 0.9836
507.60 0.9834
507.70 0.9832
507.80 0.983
507.90 0.9828
508.00 0.9826
508.10 0.9823
508.20 0.9821
508.30 0.9819
508.40 0.9817
508.50 0.9815
508.60 0.9812
508.70 0.981
508.80 0.9808
508.90 0.9806
509.00 0.9803
509.10 0.9801
509.20 0.9799
509.30 0.9797
509.40 0.9794
509.50 0.9792
509.60 0.979
509.70 0.9788
509.80 0.9786
509.90 0.9783
510.00 0.9781
510.10 0.9779
510.20 0.9777
510.30 0.9774
510.40 0.9772
510.50 0.977
510.60 0.9768
510.70 0.9766
510.80 0.9763
510.90 0.9761
511.00 0.9759
511.10 0.9757
511.20 0.9754
511.30 0.9752
511.40 0.975
511.50 0.9748
511.60 0.9745
511.70 0.9743
511.80 0.9741
511.90 0.9739
512.00 0.9736
512.10 0.9734
512.20 0.9732
512.30 0.973
512.40 0.9727
512.50 0.9725
512.60 0.9723
512.70 0.9721
512.80 0.9719
512.90 0.9716
513.00 0.9714
513.10 0.9712
513.20 0.971
513.30 0.9707
513.40 0.9705
513.50 0.9703
513.60 0.9701
513.70 0.9698
513.80 0.9696
513.90 0.9694
514.00 0.9692
514.10 0.9689
514.20 0.9687
514.30 0.9685
514.40 0.9683
514.50 0.968
514.60 0.9678
514.70 0.9676
514.80 0.9674
514.90 0.9671
515.00 0.9669
515.10 0.9667
515.20 0.9665
515.30 0.9662
515.40 0.966
515.50 0.9658
515.60 0.9656
515.70 0.9653
515.80 0.9651
515.90 0.9649
516.00 0.9647
516.10 0.9644
516.20 0.9642
516.30 0.964
516.40 0.9638
516.50 0.9636
516.60 0.9633
516.70 0.9631
516.80 0.9629
516.90 0.9627
517.00 0.9624
517.10 0.9622
517.20 0.962
517.30 0.9618
517.40 0.9615
517.50 0.9613
517.60 0.9611
517.70 0.9609
517.80 0.9607
517.90 0.9604
518.00 0.9602
518.10 0.96
518.20 0.9598
518.30 0.9595
518.40 0.9593
518.50 0.9591
518.60 0.9589
518.70 0.9586
518.80 0.9584
518.90 0.9582
519.00 0.9579
519.10 0.9577
519.20 0.9575
519.30 0.9573
519.40 0.957
519.50 0.9568
519.60 0.9566
519.70 0.9564
519.80 0.9562
519.90 0.9559
520.00 0.9557
520.10 0.9555
520.20 0.9553
520.30 0.9551
520.40 0.9548
520.50 0.9546
520.60 0.9544
520.70 0.9542
520.80 0.9539
520.90 0.9537
521.00 0.9535
521.10 0.9532
521.20 0.953
521.30 0.9528
521.40 0.9526
521.50 0.9523
521.60 0.9521
521.70 0.9519
521.80 0.9517
521.90 0.9514
522.00 0.9512
522.10 0.951
522.20 0.9508
522.30 0.9505
522.40 0.9503
522.50 0.9501
522.60 0.9499
522.70 0.9496
522.80 0.9494
522.90 0.9492
523.00 0.949
523.10 0.9488
523.20 0.9485
523.30 0.9483
523.40 0.9481
523.50 0.9478
523.60 0.9476
523.70 0.9474
523.80 0.9471
523.90 0.9469
524.00 0.9467
524.10 0.9464
524.20 0.9462
524.30 0.946
524.40 0.9458
524.50 0.9456
524.60 0.9453
524.70 0.9451
524.80 0.9449
524.90 0.9447
525.00 0.9444
525.10 0.9442
525.20 0.944
525.30 0.9438
525.40 0.9435
525.50 0.9433
525.60 0.9431
525.70 0.9429
525.80 0.9426
525.90 0.9424
526.00 0.9422
526.10 0.9419
526.20 0.9417
526.30 0.9415
526.40 0.9413
526.50 0.9411
526.60 0.9408
526.70 0.9406
526.80 0.9404
526.90 0.9402
527.00 0.94
527.10 0.9397
527.20 0.9395
527.30 0.9393
527.40 0.9391
527.50 0.9388
527.60 0.9386
527.70 0.9384
527.80 0.9381
527.90 0.9379
528.00 0.9377
528.10 0.9375
528.20 0.9372
528.30 0.937
528.40 0.9368
528.50 0.9366
528.60 0.9363
528.70 0.9361
528.80 0.9359
528.90 0.9357
529.00 0.9354
529.10 0.9352
529.20 0.935
529.30 0.9348
529.40 0.9345
529.50 0.9343
529.60 0.9341
529.70 0.9339
529.80 0.9336
529.90 0.9334
530.00 0.9332
530.10 0.933
530.20 0.9327
530.30 0.9325
530.40 0.9323
530.50 0.9321
530.60 0.9318
530.70 0.9316
530.80 0.9314
530.90 0.9311
531.00 0.9309
531.10 0.9307
531.20 0.9304
531.30 0.9302
531.40 0.93
531.50 0.9298
531.60 0.9296
531.70 0.9293
531.80 0.9291
531.90 0.9289
532.00 0.9287
532.10 0.9284
532.20 0.9282
532.30 0.928
532.40 0.9278
532.50 0.9275
532.60 0.9273
532.70 0.9271
532.80 0.9268
532.90 0.9266
533.00 0.9264
533.10 0.9262
533.20 0.9259
533.30 0.9257
533.40 0.9255
533.50 0.9253
533.60 0.9251
533.70 0.9248
533.80 0.9246
533.90 0.9244
534.00 0.9242
534.10 0.924
534.20 0.9237
534.30 0.9235
534.40 0.9233
534.50 0.9231
534.60 0.9228
534.70 0.9226
534.80 0.9224
534.90 0.9222
535.00 0.9219
535.10 0.9217
535.20 0.9215
535.30 0.9212
535.40 0.921
535.50 0.9208
535.60 0.9206
535.70 0.9203
535.80 0.9201
535.90 0.9199
536.00 0.9197
536.10 0.9194
536.20 0.9192
536.30 0.919
536.40 0.9188
536.50 0.9185
536.60 0.9183
536.70 0.9181
536.80 0.9179
536.90 0.9177
537.00 0.9174
537.10 0.9172
537.20 0.917
537.30 0.9168
537.40 0.9165
537.50 0.9163
537.60 0.9161
537.70 0.9159
537.80 0.9156
537.90 0.9154
538.00 0.9152
538.10 0.915
538.20 0.9147
538.30 0.9145
538.40 0.9143
538.50 0.9141
538.60 0.9138
538.70 0.9136
538.80 0.9134
538.90 0.9131
539.00 0.9129
539.10 0.9127
539.20 0.9125
539.30 0.9122
539.40 0.912
539.50 0.9118
539.60 0.9116
539.70 0.9114
539.80 0.9111
539.90 0.9109
540.00 0.9107
540.10 0.9105
540.20 0.9102
540.30 0.91
540.40 0.9098
540.50 0.9096
540.60 0.9093
540.70 0.9091
540.80 0.9089
540.90 0.9087
541.00 0.9084
541.10 0.9082
541.20 0.908
541.30 0.9078
541.40 0.9075
541.50 0.9073
541.60 0.9071
541.70 0.9069
541.80 0.9066
541.90 0.9064
542.00 0.9062
542.10 0.906
542.20 0.9057
542.30 0.9055
542.40 0.9053
542.50 0.905
542.60 0.9048
542.70 0.9046
542.80 0.9044
542.90 0.9041
543.00 0.9039
543.10 0.9037
543.20 0.9035
543.30 0.9033
543.40 0.903
543.50 0.9028
543.60 0.9026
543.70 0.9024
543.80 0.9021
543.90 0.9019
544.00 0.9017
544.10 0.9015
544.20 0.9012
544.30 0.901
544.40 0.9008
544.50 0.9006
544.60 0.9003
544.70 0.9001
544.80 0.8999
544.90 0.8997
545.00 0.8995
545.10 0.8992
545.20 0.899
545.30 0.8988
545.40 0.8986
545.50 0.8983
545.60 0.8981
545.70 0.8979
545.80 0.8977
545.90 0.8975
546.00 0.8972
546.10 0.897
546.20 0.8968
546.30 0.8966
546.40 0.8964
546.50 0.8961
546.60 0.8959
546.70 0.8957
546.80 0.8955
546.90 0.8953
547.00 0.895
547.10 0.8948
547.20 0.8946
547.30 0.8944
547.40 0.8941
547.50 0.8939
547.60 0.8937
547.70 0.8935
547.80 0.8932
547.90 0.893
548.00 0.8928
548.10 0.8925
548.20 0.8923
548.30 0.8921
548.40 0.8919
548.50 0.8916
548.60 0.8914
548.70 0.8912
548.80 0.891
548.90 0.8907
549.00 0.8905
549.10 0.8903
549.20 0.8901
549.30 0.8898
549.40 0.8896
549.50 0.8894
549.60 0.8892
549.70 0.889
549.80 0.8887
549.90 0.8885
550.00 0.8883
550.10 0.8881
550.20 0.8878
550.30 0.8876
550.40 0.8874
550.50 0.8872
550.60 0.8869
550.70 0.8867
550.80 0.8865
550.90 0.8863
551.00 0.886
551.10 0.8858
551.20 0.8856
551.30 0.8854
551.40 0.8852
551.50 0.8849
551.60 0.8847
551.70 0.8845
551.80 0.8843
551.90 0.884
552.00 0.8838
552.10 0.8836
552.20 0.8834
552.30 0.8832
552.40 0.8829
552.50 0.8827
552.60 0.8825
552.70 0.8823
552.80 0.8821
552.90 0.8818
553.00 0.8816
553.10 0.8814
553.20 0.8812
553.30 0.8809
553.40 0.8807
553.50 0.8805
553.60 0.8803
553.70 0.8801
553.80 0.8798
553.90 0.8796
554.00 0.8794
554.10 0.8792
554.20 0.879
554.30 0.8787
554.40 0.8785
554.50 0.8783
554.60 0.8781
554.70 0.8778
554.80 0.8776
554.90 0.8774
555.00 0.8772
555.10 0.8769
555.20 0.8767
555.30 0.8765
555.40 0.8763
555.50 0.8761
555.60 0.8758
555.70 0.8756
555.80 0.8754
555.90 0.8752
556.00 0.875
556.10 0.8748
556.20 0.8745
556.30 0.8743
556.40 0.8741
556.50 0.8739
556.60 0.8736
556.70 0.8734
556.80 0.8732
556.90 0.873
557.00 0.8727
557.10 0.8725
557.20 0.8723
557.30 0.8721
557.40 0.8718
557.50 0.8716
557.60 0.8714
557.70 0.8712
557.80 0.871
557.90 0.8707
558.00 0.8705
558.10 0.8703
558.20 0.8701
558.30 0.8698
558.40 0.8696
558.50 0.8694
558.60 0.8692
558.70 0.869
558.80 0.8687
558.90 0.8685
559.00 0.8683
559.10 0.8681
559.20 0.8679
559.30 0.8676
559.40 0.8674
559.50 0.8672
559.60 0.867
559.70 0.8668
559.80 0.8665
559.90 0.8663
560.00 0.8661
560.10 0.8659
560.20 0.8657
560.30 0.8654
560.40 0.8652
560.50 0.865
560.60 0.8648
560.70 0.8646
560.80 0.8643
560.90 0.8641
561.00 0.8639
561.10 0.8637
561.20 0.8635
561.30 0.8632
561.40 0.863
561.50 0.8628
561.60 0.8626
561.70 0.8624
561.80 0.8622
561.90 0.8619
562.00 0.8617
562.10 0.8615
562.20 0.8613
562.30 0.8611
562.40 0.8608
562.50 0.8606
562.60 0.8604
562.70 0.8602
562.80 0.8599
562.90 0.8597
563.00 0.8595
563.10 0.8593
563.20 0.859
563.30 0.8588
563.40 0.8586
563.50 0.8584
563.60 0.8582
563.70 0.858
563.80 0.8577
563.90 0.8575
564.00 0.8573
564.10 0.8571
564.20 0.8569
564.30 0.8567
564.40 0.8564
564.50 0.8562
564.60 0.856
564.70 0.8558
564.80 0.8555
564.90 0.8553
565.00 0.8551
565.10 0.8549
565.20 0.8547
565.30 0.8544
565.40 0.8542
565.50 0.854
565.60 0.8538
565.70 0.8536
565.80 0.8533
565.90 0.8531
566.00 0.8529
566.10 0.8527
566.20 0.8525
566.30 0.8522
566.40 0.852
566.50 0.8518
566.60 0.8516
566.70 0.8514
566.80 0.8511
566.90 0.8509
567.00 0.8507
567.10 0.8505
567.20 0.8503
567.30 0.85
567.40 0.8498
567.50 0.8496
567.60 0.8494
567.70 0.8492
567.80 0.8489
567.90 0.8487
568.00 0.8485
568.10 0.8483
568.20 0.8481
568.30 0.8479
568.40 0.8476
568.50 0.8474
568.60 0.8472
568.70 0.847
568.80 0.8468
568.90 0.8466
569.00 0.8463
569.10 0.8461
569.20 0.8459
569.30 0.8457
569.40 0.8455
569.50 0.8452
569.60 0.845
569.70 0.8448
569.80 0.8446
569.90 0.8443
570.00 0.8441
570.10 0.8439
570.20 0.8437
570.30 0.8435
570.40 0.8432
570.50 0.843
570.60 0.8428
570.70 0.8426
570.80 0.8424
570.90 0.8422
571.00 0.842
571.10 0.8417
571.20 0.8415
571.30 0.8413
571.40 0.8411
571.50 0.8409
571.60 0.8406
571.70 0.8404
571.80 0.8402
571.90 0.84
572.00 0.8398
572.10 0.8395
572.20 0.8393
572.30 0.8391
572.40 0.8389
572.50 0.8387
572.60 0.8385
572.70 0.8382
572.80 0.838
572.90 0.8378
573.00 0.8376
573.10 0.8374
573.20 0.8372
573.30 0.837
573.40 0.8367
573.50 0.8365
573.60 0.8363
573.70 0.8361
573.80 0.8359
573.90 0.8356
574.00 0.8354
574.10 0.8352
574.20 0.835
574.30 0.8348
574.40 0.8346
574.50 0.8343
574.60 0.8341
574.70 0.8339
574.80 0.8337
574.90 0.8335
575.00 0.8332
575.10 0.833
575.20 0.8328
575.30 0.8326
575.40 0.8324
575.50 0.8322
575.60 0.8319
575.70 0.8317
575.80 0.8315
575.90 0.8313
576.00 0.8311
576.10 0.8309
576.20 0.8307
576.30 0.8304
576.40 0.8302
576.50 0.83
576.60 0.8298
576.70 0.8296
576.80 0.8294
576.90 0.8291
577.00 0.8289
577.10 0.8287
577.20 0.8285
577.30 0.8283
577.40 0.8281
577.50 0.8279
577.60 0.8276
577.70 0.8274
577.80 0.8272
577.90 0.827
578.00 0.8268
578.10 0.8266
578.20 0.8263
578.30 0.8261
578.40 0.8259
578.50 0.8257
578.60 0.8255
578.70 0.8252
578.80 0.825
578.90 0.8248
579.00 0.8246
579.10 0.8244
579.20 0.8242
579.30 0.8239
579.40 0.8237
579.50 0.8235
579.60 0.8233
579.70 0.8231
579.80 0.8229
579.90 0.8227
580.00 0.8225
580.10 0.8222
580.20 0.822
580.30 0.8218
580.40 0.8216
580.50 0.8214
580.60 0.8212
580.70 0.8209
580.80 0.8207
580.90 0.8205
581.00 0.8203
581.10 0.8201
581.20 0.8199
581.30 0.8196
581.40 0.8194
581.50 0.8192
581.60 0.819
581.70 0.8188
581.80 0.8186
581.90 0.8184
582.00 0.8182
582.10 0.818
582.20 0.8177
582.30 0.8175
582.40 0.8173
582.50 0.8171
582.60 0.8169
582.70 0.8167
582.80 0.8165
582.90 0.8162
583.00 0.816
583.10 0.8158
583.20 0.8156
583.30 0.8154
583.40 0.8152
583.50 0.8149
583.60 0.8147
583.70 0.8145
583.80 0.8143
583.90 0.8141
584.00 0.8139
584.10 0.8137
584.20 0.8134
584.30 0.8132
584.40 0.813
584.50 0.8128
584.60 0.8126
584.70 0.8124
584.80 0.8122
584.90 0.8119
585.00 0.8117
585.10 0.8115
585.20 0.8113
585.30 0.8111
585.40 0.8109
585.50 0.8107
585.60 0.8105
585.70 0.8102
585.80 0.81
585.90 0.8098
586.00 0.8096
586.10 0.8094
586.20 0.8092
586.30 0.809
586.40 0.8087
586.50 0.8085
586.60 0.8083
586.70 0.8081
586.80 0.8079
586.90 0.8077
587.00 0.8074
587.10 0.8072
587.20 0.807
587.30 0.8068
587.40 0.8066
587.50 0.8064
587.60 0.8062
587.70 0.806
587.80 0.8057
587.90 0.8055
588.00 0.8053
588.10 0.8051
588.20 0.8049
588.30 0.8047
588.40 0.8045
588.50 0.8043
588.60 0.804
588.70 0.8038
588.80 0.8036
588.90 0.8034
589.00 0.8032
589.10 0.803
589.20 0.8028
589.30 0.8025
589.40 0.8023
589.50 0.8021
589.60 0.8019
589.70 0.8017
589.80 0.8015
589.90 0.8013
590.00 0.8011
590.10 0.8009
590.20 0.8007
590.30 0.8004
590.40 0.8002
590.50 0.8
590.60 0.7998
590.70 0.7996
590.80 0.7994
590.90 0.7992
591.00 0.799
591.10 0.7987
591.20 0.7985
591.30 0.7983
591.40 0.7981
591.50 0.7979
591.60 0.7977
591.70 0.7975
591.80 0.7973
591.90 0.797
592.00 0.7968
592.10 0.7966
592.20 0.7964
592.30 0.7962
592.40 0.796
592.50 0.7958
592.60 0.7956
592.70 0.7953
592.80 0.7951
592.90 0.7949
593.00 0.7947
593.10 0.7945
593.20 0.7943
593.30 0.7941
593.40 0.7939
593.50 0.7937
593.60 0.7934
593.70 0.7932
593.80 0.793
593.90 0.7928
594.00 0.7926
594.10 0.7924
594.20 0.7922
594.30 0.792
594.40 0.7918
594.50 0.7916
594.60 0.7913
594.70 0.7911
594.80 0.7909
594.90 0.7907
595.00 0.7905
595.10 0.7903
595.20 0.7901
595.30 0.7899
595.40 0.7897
595.50 0.7895
595.60 0.7893
595.70 0.789
595.80 0.7888
595.90 0.7886
596.00 0.7884
596.10 0.7882
596.20 0.788
596.30 0.7878
596.40 0.7876
596.50 0.7874
596.60 0.7872
596.70 0.787
596.80 0.7868
596.90 0.7865
597.00 0.7863
597.10 0.7861
597.20 0.7859
597.30 0.7857
597.40 0.7855
597.50 0.7853
597.60 0.7851
597.70 0.7849
597.80 0.7846
597.90 0.7844
598.00 0.7842
598.10 0.784
598.20 0.7838
598.30 0.7836
598.40 0.7834
598.50 0.7832
598.60 0.783
598.70 0.7828
598.80 0.7826
598.90 0.7824
599.00 0.7822
599.10 0.782
599.20 0.7817
599.30 0.7815
599.40 0.7813
599.50 0.7811
599.60 0.7809
599.70 0.7807
599.80 0.7805
599.90 0.7803
600.00 0.7801
600.10 0.7799
600.20 0.7796
600.30 0.7794
600.40 0.7792
600.50 0.779
600.60 0.7788
600.70 0.7786
600.80 0.7784
600.90 0.7782
601.00 0.778
601.10 0.7778
601.20 0.7775
601.30 0.7773
601.40 0.7771
601.50 0.7769
601.60 0.7767
601.70 0.7765
601.80 0.7763
601.90 0.7761
602.00 0.7759
602.10 0.7757
602.20 0.7755
602.30 0.7753
602.40 0.775
602.50 0.7748
602.60 0.7746
602.70 0.7744
602.80 0.7742
602.90 0.774
603.00 0.7738
603.10 0.7736
603.20 0.7734
603.30 0.7732
603.40 0.773
603.50 0.7728
603.60 0.7726
603.70 0.7724
603.80 0.7721
603.90 0.7719
604.00 0.7717
604.10 0.7715
604.20 0.7713
604.30 0.7711
604.40 0.7709
604.50 0.7707
604.60 0.7705
604.70 0.7703
604.80 0.7701
604.90 0.7699
605.00 0.7697
605.10 0.7695
605.20 0.7693
605.30 0.7691
605.40 0.7689
605.50 0.7687
605.60 0.7685
605.70 0.7682
605.80 0.768
605.90 0.7678
606.00 0.7676
606.10 0.7674
606.20 0.7672
606.30 0.767
606.40 0.7668
606.50 0.7666
606.60 0.7664
606.70 0.7662
606.80 0.766
606.90 0.7658
607.00 0.7655
607.10 0.7653
607.20 0.7651
607.30 0.7649
607.40 0.7647
607.50 0.7645
607.60 0.7643
607.70 0.7641
607.80 0.7639
607.90 0.7637
608.00 0.7635
608.10 0.7633
608.20 0.7631
608.30 0.7629
608.40 0.7627
608.50 0.7625
608.60 0.7623
608.70 0.7621
608.80 0.7619
608.90 0.7617
609.00 0.7614
609.10 0.7612
609.20 0.761
609.30 0.7608
609.40 0.7606
609.50 0.7604
609.60 0.7602
609.70 0.76
609.80 0.7598
609.90 0.7596
610.00 0.7594
610.10 0.7592
610.20 0.759
610.30 0.7588
610.40 0.7586
610.50 0.7584
610.60 0.7582
610.70 0.758
610.80 0.7578
610.90 0.7576
611.00 0.7574
611.10 0.7572
611.20 0.757
611.30 0.7568
611.40 0.7566
611.50 0.7564
611.60 0.7561
611.70 0.7559
611.80 0.7557
611.90 0.7555
612.00 0.7553
612.10 0.7551
612.20 0.7549
612.30 0.7547
612.40 0.7545
612.50 0.7543
612.60 0.7541
612.70 0.7539
612.80 0.7537
612.90 0.7535
613.00 0.7532
613.10 0.753
613.20 0.7528
613.30 0.7526
613.40 0.7524
613.50 0.7522
613.60 0.752
613.70 0.7518
613.80 0.7516
613.90 0.7514
614.00 0.7512
614.10 0.751
614.20 0.7508
614.30 0.7506
614.40 0.7504
614.50 0.7502
614.60 0.75
614.70 0.7498
614.80 0.7496
614.90 0.7494
615.00 0.7492
615.10 0.749
615.20 0.7488
615.30 0.7486
615.40 0.7484
615.50 0.7482
615.60 0.748
615.70 0.7478
615.80 0.7476
615.90 0.7473
616.00 0.7471
616.10 0.7469
616.20 0.7467
616.30 0.7465
616.40 0.7463
616.50 0.7461
616.60 0.7459
616.70 0.7457
616.80 0.7455
616.90 0.7453
617.00 0.7451
617.10 0.7449
617.20 0.7447
617.30 0.7445
617.40 0.7443
617.50 0.7441
617.60 0.7439
617.70 0.7437
617.80 0.7435
617.90 0.7433
618.00 0.7431
618.10 0.7429
618.20 0.7427
618.30 0.7425
618.40 0.7423
618.50 0.7421
618.60 0.7419
618.70 0.7417
618.80 0.7415
618.90 0.7413
619.00 0.7411
619.10 0.7409
619.20 0.7407
619.30 0.7405
619.40 0.7403
619.50 0.7401
619.60 0.7399
619.70 0.7396
619.80 0.7394
619.90 0.7392
620.00 0.739
620.10 0.7388
620.20 0.7386
620.30 0.7384
620.40 0.7382
620.50 0.738
620.60 0.7378
620.70 0.7376
620.80 0.7374
620.90 0.7372
621.00 0.737
621.10 0.7368
621.20 0.7366
621.30 0.7364
621.40 0.7362
621.50 0.736
621.60 0.7358
621.70 0.7356
621.80 0.7354
621.90 0.7352
622.00 0.735
622.10 0.7348
622.20 0.7346
622.30 0.7344
622.40 0.7342
622.50 0.734
622.60 0.7337
622.70 0.7335
622.80 0.7333
622.90 0.7331
623.00 0.7329
623.10 0.7327
623.20 0.7325
623.30 0.7323
623.40 0.7321
623.50 0.7319
623.60 0.7317
623.70 0.7315
623.80 0.7313
623.90 0.7311
624.00 0.7309
624.10 0.7307
624.20 0.7305
624.30 0.7303
624.40 0.7301
624.50 0.7299
624.60 0.7297
624.70 0.7295
624.80 0.7293
624.90 0.7291
625.00 0.7289
625.10 0.7287
625.20 0.7285
625.30 0.7282
625.40 0.728
625.50 0.7278
625.60 0.7276
625.70 0.7274
625.80 0.7272
625.90 0.727
626.00 0.7268
626.10 0.7266
626.20 0.7264
626.30 0.7262
626.40 0.726
626.50 0.7257
626.60 0.7255
626.70 0.7253
626.80 0.7251
626.90 0.7249
627.00 0.7247
627.10 0.7245
627.20 0.7243
627.30 0.7241
627.40 0.7239
627.50 0.7237
627.60 0.7234
627.70 0.7232
627.80 0.723
627.90 0.7228
628.00 0.7226
628.10 0.7224
628.20 0.7222
628.30 0.722
628.40 0.7218
628.50 0.7216
628.60 0.7214
628.70 0.7212
628.80 0.721
628.90 0.7208
629.00 0.7206
629.10 0.7204
629.20 0.7202
629.30 0.72
629.40 0.7198
629.50 0.7196
629.60 0.7194
629.70 0.7192
629.80 0.719
629.90 0.7188
630.00 0.7186
630.10 0.7183
630.20 0.7181
630.30 0.718
630.40 0.7178
630.50 0.7176
630.60 0.7174
630.70 0.7172
630.80 0.717
630.90 0.7168
631.00 0.7166
631.10 0.7164
631.20 0.7162
631.30 0.716
631.40 0.7158
631.50 0.7156
631.60 0.7154
631.70 0.7152
631.80 0.715
631.90 0.7148
632.00 0.7146
632.10 0.7144
632.20 0.7142
632.30 0.714
632.40 0.7138
632.50 0.7136
632.60 0.7134
632.70 0.7132
632.80 0.713
632.90 0.7128
633.00 0.7126
633.10 0.7124
633.20 0.7122
633.30 0.712
633.40 0.7118
633.50 0.7116
633.60 0.7114
633.70 0.7111
633.80 0.7109
633.90 0.7107
634.00 0.7105
634.10 0.7103
634.20 0.7101
634.30 0.7099
634.40 0.7097
634.50 0.7095
634.60 0.7093
634.70 0.7091
634.80 0.7089
634.90 0.7087
635.00 0.7085
635.10 0.7083
635.20 0.7081
635.30 0.7079
635.40 0.7077
635.50 0.7075
635.60 0.7073
635.70 0.7071
635.80 0.7069
635.90 0.7067
636.00 0.7065
636.10 0.7063
636.20 0.7061
636.30 0.7059
636.40 0.7056
636.50 0.7054
636.60 0.7052
636.70 0.705
636.80 0.7048
636.90 0.7046
637.00 0.7044
637.10 0.7042
637.20 0.704
637.30 0.7037
637.40 0.7035
637.50 0.7033
637.60 0.7031
637.70 0.7029
637.80 0.7027
637.90 0.7025
638.00 0.7023
638.10 0.7021
638.20 0.7019
638.30 0.7017
638.40 0.7015
638.50 0.7013
638.60 0.7011
638.70 0.7009
638.80 0.7006
638.90 0.7004
639.00 0.7002
639.10 0.7
639.20 0.6998
639.30 0.6996
639.40 0.6994
639.50 0.6992
639.60 0.699
639.70 0.6988
639.80 0.6986
639.90 0.6983
640.00 0.6981
640.10 0.6979
640.20 0.6977
640.30 0.6975
640.40 0.6973
640.50 0.6971
640.60 0.6969
640.70 0.6966
640.80 0.6964
640.90 0.6962
641.00 0.696
641.10 0.6958
641.20 0.6955
641.30 0.6953
641.40 0.6951
641.50 0.6949
641.60 0.6947
641.70 0.6944
641.80 0.6942
641.90 0.694
642.00 0.6938
642.10 0.6936
642.20 0.6933
642.30 0.6931
642.40 0.6929
642.50 0.6927
642.60 0.6924
642.70 0.6922
642.80 0.692
642.90 0.6917
643.00 0.6915
643.10 0.6913
643.20 0.691
643.30 0.6908
643.40 0.6906
643.50 0.6904
643.60 0.6901
643.70 0.6899
643.80 0.6896
643.90 0.6894
644.00 0.6892
644.10 0.6889
644.20 0.6887
644.30 0.6885
644.40 0.6882
644.50 0.688
644.60 0.6877
644.70 0.6875
644.80 0.6872
644.90 0.687
645.00 0.6868
645.10 0.6865
645.20 0.6863
645.30 0.686
645.40 0.6857
645.50 0.6855
645.60 0.6852
645.70 0.6849
645.80 0.6847
645.90 0.6844
646.00 0.6842
646.10 0.6839
646.20 0.6836
646.30 0.6834
646.40 0.6831
646.50 0.6828
646.60 0.6825
646.70 0.6822
646.80 0.6819
646.90 0.6816
647.00 0.6813
647.10 0.6811
647.20 0.6808
647.30 0.6805
647.40 0.6801
647.50 0.6798
647.60 0.6795
647.70 0.6792
647.80 0.6789
647.90 0.6785
648.00 0.6782
648.10 0.6779
648.20 0.6776
648.30 0.6772
648.40 0.6768
648.50 0.6765
648.60 0.6761
648.70 0.6757
648.80 0.6753
648.90 0.675
649.00 0.6746
649.10 0.6742
649.20 0.6739
649.30 0.6735
649.40 0.673
649.50 0.6725
649.60 0.6721
649.70 0.6716
649.80 0.6711
649.90 0.6707
650.00 0.6702
650.10 0.6697
650.20 0.6693
650.30 0.6688
650.40 0.6681
650.50 0.6675
650.60 0.6669
650.70 0.6663
650.80 0.6657
650.90 0.6651
651.00 0.6645
651.10 0.6639
651.20 0.6633
651.30 0.6626
651.40 0.6617
651.50 0.6608
651.60 0.6599
651.70 0.6591
651.80 0.6582
651.90 0.6573
652.00 0.6564
652.10 0.6555
652.20 0.6546
652.30 0.6536
652.40 0.6522
652.50 0.6508
652.60 0.6493
652.70 0.6479
652.80 0.6465
652.90 0.6451
653.00 0.6436
653.10 0.6422
653.20 0.6408
653.30 0.6391
653.40 0.6364
653.50 0.6338
653.60 0.6311
653.70 0.6284
653.80 0.6257
653.90 0.6231
654.00 0.6204
654.10 0.6177
654.20 0.6151
654.30 0.612
654.40 0.6072
654.50 0.6025
654.60 0.5977
654.70 0.593
654.80 0.5876
654.90 0.5797
655.00 0.5719
655.10 0.564
655.20 0.5562
655.30 0.5476
655.40 0.5358
655.50 0.5232
655.60 0.5073
655.70 0.4902
655.80 0.4679
655.90 0.4437
656.00 0.4118
656.10 0.379
656.20 0.3451
656.30 0.3266
656.40 0.3574
656.50 0.3916
656.60 0.4234
656.70 0.4533
656.80 0.4754
656.90 0.4961
657.00 0.5117
657.10 0.5265
657.20 0.538
657.30 0.5487
657.40 0.5563
657.50 0.5638
657.60 0.5713
657.70 0.5788
657.80 0.5857
657.90 0.5901
658.00 0.5945
658.10 0.5988
658.20 0.6032
658.30 0.6072
658.40 0.6095
658.50 0.6118
658.60 0.6141
658.70 0.6164
658.80 0.6187
658.90 0.621
659.00 0.6233
659.10 0.6256
659.20 0.6279
659.30 0.6299
659.40 0.631
659.50 0.632
659.60 0.6331
659.70 0.6341
659.80 0.6352
659.90 0.6362
660.00 0.6373
660.10 0.6383
660.20 0.6394
660.30 0.6403
660.40 0.6408
660.50 0.6413
660.60 0.6418
660.70 0.6423
660.80 0.6428
660.90 0.6433
661.00 0.6438
661.10 0.6443
661.20 0.6448
661.30 0.6453
661.40 0.6455
661.50 0.6457
661.60 0.646
661.70 0.6462
661.80 0.6464
661.90 0.6467
662.00 0.6469
662.10 0.6471
662.20 0.6474
662.30 0.6476
662.40 0.6477
662.50 0.6477
662.60 0.6478
662.70 0.6479
662.80 0.648
662.90 0.6481
663.00 0.6482
663.10 0.6483
663.20 0.6484
663.30 0.6484
663.40 0.6484
663.50 0.6484
663.60 0.6484
663.70 0.6484
663.80 0.6484
663.90 0.6484
664.00 0.6484
664.10 0.6484
664.20 0.6484
664.30 0.6484
664.40 0.6484
664.50 0.6483
664.60 0.6483
664.70 0.6482
664.80 0.6482
664.90 0.6481
665.00 0.6481
665.10 0.648
665.20 0.648
665.30 0.6479
665.40 0.6478
665.50 0.6477
665.60 0.6476
665.70 0.6476
665.80 0.6475
665.90 0.6474
666.00 0.6473
666.10 0.6472
666.20 0.6471
666.30 0.647
666.40 0.6469
666.50 0.6468
666.60 0.6467
666.70 0.6466
666.80 0.6465
666.90 0.6464
667.00 0.6463
667.10 0.6462
667.20 0.6461
667.30 0.6459
667.40 0.6458
667.50 0.6457
667.60 0.6456
667.70 0.6454
667.80 0.6453
667.90 0.6452
668.00 0.6451
668.10 0.6449
668.20 0.6448
668.30 0.6447
668.40 0.6445
668.50 0.6444
668.60 0.6443
668.70 0.6441
668.80 0.644
668.90 0.6439
669.00 0.6437
669.10 0.6436
669.20 0.6435
669.30 0.6433
669.40 0.6432
669.50 0.643
669.60 0.6429
669.70 0.6427
669.80 0.6426
669.90 0.6425
670.00 0.6423
670.10 0.6422
670.20 0.642
670.30 0.6419
670.40 0.6417
670.50 0.6416
670.60 0.6414
670.70 0.6413
670.80 0.6411
670.90 0.641
671.00 0.6408
671.10 0.6407
671.20 0.6405
671.30 0.6404
671.40 0.6402
671.50 0.6401
671.60 0.6399
671.70 0.6398
671.80 0.6396
671.90 0.6394
672.00 0.6393
672.10 0.6391
672.20 0.639
672.30 0.6388
672.40 0.6386
672.50 0.6385
672.60 0.6383
672.70 0.6382
672.80 0.638
672.90 0.6378
673.00 0.6377
673.10 0.6375
673.20 0.6374
673.30 0.6372
673.40 0.6371
673.50 0.6369
673.60 0.6367
673.70 0.6366
673.80 0.6364
673.90 0.6363
674.00 0.6361
674.10 0.6359
674.20 0.6358
674.30 0.6356
674.40 0.6355
674.50 0.6353
674.60 0.6351
674.70 0.635
674.80 0.6348
674.90 0.6346
675.00 0.6345
675.10 0.6343
675.20 0.6341
675.30 0.634
675.40 0.6338
675.50 0.6336
675.60 0.6335
675.70 0.6333
675.80 0.6332
675.90 0.633
676.00 0.6328
676.10 0.6327
676.20 0.6325
676.30 0.6324
676.40 0.6322
676.50 0.632
676.60 0.6319
676.70 0.6317
676.80 0.6315
676.90 0.6314
677.00 0.6312
677.10 0.631
677.20 0.6309
677.30 0.6307
677.40 0.6305
677.50 0.6304
677.60 0.6302
677.70 0.6301
677.80 0.6299
677.90 0.6297
678.00 0.6296
678.10 0.6294
678.20 0.6292
678.30 0.6291
678.40 0.6289
678.50 0.6287
678.60 0.6286
678.70 0.6284
678.80 0.6282
678.90 0.6281
679.00 0.6279
679.10 0.6277
679.20 0.6276
679.30 0.6274
679.40 0.6272
679.50 0.627
679.60 0.6269
679.70 0.6267
679.80 0.6265
679.90 0.6264
680.00 0.6262
680.10 0.626
680.20 0.6258
680.30 0.6257
680.40 0.6255
680.50 0.6253
680.60 0.6252
680.70 0.625
680.80 0.6248
680.90 0.6247
681.00 0.6245
681.10 0.6243
681.20 0.6242
681.30 0.624
681.40 0.6238
681.50 0.6237
681.60 0.6235
681.70 0.6233
681.80 0.6232
681.90 0.623
682.00 0.6228
682.10 0.6227
682.20 0.6225
682.30 0.6223
682.40 0.6221
682.50 0.622
682.60 0.6218
682.70 0.6216
682.80 0.6215
682.90 0.6213
683.00 0.6211
683.10 0.621
683.20 0.6208
683.30 0.6206
683.40 0.6205
683.50 0.6203
683.60 0.6201
683.70 0.62
683.80 0.6198
683.90 0.6196
684.00 0.6195
684.10 0.6193
684.20 0.6191
684.30 0.619
684.40 0.6188
684.50 0.6187
684.60 0.6185
684.70 0.6183
684.80 0.6182
684.90 0.618
685.00 0.6178
685.10 0.6177
685.20 0.6175
685.30 0.6173
685.40 0.6172
685.50 0.617
685.60 0.6169
685.70 0.6167
685.80 0.6165
685.90 0.6164
686.00 0.6162
686.10 0.616
686.20 0.6159
686.30 0.6157
686.40 0.6156
686.50 0.6154
686.60 0.6152
686.70 0.6151
686.80 0.6149
686.90 0.6147
687.00 0.6146
687.10 0.6144
687.20 0.6142
687.30 0.6141
687.40 0.6139
687.50 0.6137
687.60 0.6136
687.70 0.6134
687.80 0.6132
687.90 0.6131
688.00 0.6129
688.10 0.6127
688.20 0.6126
688.30 0.6124
688.40 0.6122
688.50 0.6121
688.60 0.6119
688.70 0.6117
688.80 0.6116
688.90 0.6114
689.00 0.6112
689.10 0.6111
689.20 0.6109
689.30 0.6107
689.40 0.6106
689.50 0.6104
689.60 0.6102
689.70 0.6101
689.80 0.6099
689.90 0.6097
690.00 0.6096
690.10 0.6094
690.20 0.6092
690.30 0.6091
690.40 0.6089
690.50 0.6087
690.60 0.6086
690.70 0.6084
690.80 0.6082
690.90 0.6081
691.00 0.6079
691.10 0.6077
691.20 0.6076
691.30 0.6074
691.40 0.6072
691.50 0.6071
691.60 0.6069
691.70 0.6067
691.80 0.6066
691.90 0.6064
692.00 0.6062
692.10 0.6061
692.20 0.6059
692.30 0.6057
692.40 0.6056
692.50 0.6054
692.60 0.6052
692.70 0.6051
692.80 0.6049
692.90 0.6047
693.00 0.6046
693.10 0.6044
693.20 0.6042
693.30 0.6041
693.40 0.6039
693.50 0.6037
693.60 0.6036
693.70 0.6034
693.80 0.6032
693.90 0.6031
694.00 0.6029
694.10 0.6027
694.20 0.6026
694.30 0.6024
694.40 0.6023
694.50 0.6021
694.60 0.6019
694.70 0.6018
694.80 0.6016
694.90 0.6014
695.00 0.6013
695.10 0.6011
695.20 0.6009
695.30 0.6008
695.40 0.6006
695.50 0.6004
695.60 0.6003
695.70 0.6001
695.80 0.5999
695.90 0.5998
696.00 0.5996
696.10 0.5994
696.20 0.5993
696.30 0.5991
696.40 0.5989
696.50 0.5988
696.60 0.5986
696.70 0.5984
696.80 0.5983
696.90 0.5981
697.00 0.598
697.10 0.5978
697.20 0.5976
697.30 0.5975
697.40 0.5973
697.50 0.5971
697.60 0.597
697.70 0.5968
697.80 0.5966
697.90 0.5965
698.00 0.5963
698.10 0.5961
698.20 0.596
698.30 0.5958
698.40 0.5957
698.50 0.5955
698.60 0.5953
698.70 0.5952
698.80 0.595
698.90 0.5948
699.00 0.5947
699.10 0.5945
699.20 0.5943
699.30 0.5942
699.40 0.594
699.50 0.5939
699.60 0.5937
699.70 0.5935
699.80 0.5934
699.90 0.5932
700.00 0.593
700.10 0.5929
700.20 0.5927
700.30 0.5925
700.40 0.5924
700.50 0.5922
700.60 0.592
700.70 0.5919
700.80 0.5917
700.90 0.5916
701.00 0.5914
701.10 0.5912
701.20 0.5911
701.30 0.5909
701.40 0.5907
701.50 0.5906
701.60 0.5904
701.70 0.5902
701.80 0.5901
701.90 0.5899
702.00 0.5897
702.10 0.5896
702.20 0.5894
702.30 0.5893
702.40 0.5891
702.50 0.5889
702.60 0.5888
702.70 0.5886
702.80 0.5884
702.90 0.5883
703.00 0.5881
703.10 0.5879
703.20 0.5878
703.30 0.5876
703.40 0.5875
703.50 0.5873
703.60 0.5871
703.70 0.587
703.80 0.5868
703.90 0.5866
704.00 0.5865
704.10 0.5863
704.20 0.5862
704.30 0.586
704.40 0.5858
704.50 0.5857
704.60 0.5855
704.70 0.5853
704.80 0.5852
704.90 0.585
705.00 0.5849
705.10 0.5847
705.20 0.5845
705.30 0.5844
705.40 0.5842
705.50 0.584
705.60 0.5839
705.70 0.5837
705.80 0.5836
705.90 0.5834
706.00 0.5832
706.10 0.5831
706.20 0.5829
706.30 0.5827
706.40 0.5826
706.50 0.5824
706.60 0.5823
706.70 0.5821
706.80 0.5819
706.90 0.5818
707.00 0.5816
707.10 0.5815
707.20 0.5813
707.30 0.5811
707.40 0.581
707.50 0.5808
707.60 0.5806
707.70 0.5805
707.80 0.5803
707.90 0.5802
708.00 0.58
708.10 0.5798
708.20 0.5797
708.30 0.5795
708.40 0.5794
708.50 0.5792
708.60 0.579
708.70 0.5789
708.80 0.5787
708.90 0.5786
709.00 0.5784
709.10 0.5782
709.20 0.5781
709.30 0.5779
709.40 0.5778
709.50 0.5776
709.60 0.5774
709.70 0.5773
709.80 0.5771
709.90 0.577
710.00 0.5768
710.10 0.5766
710.20 0.5765
710.30 0.5763
710.40 0.5762
710.50 0.576
710.60 0.5758
710.70 0.5757
710.80 0.5755
710.90 0.5754
711.00 0.5752
711.10 0.575
711.20 0.5749
711.30 0.5747
711.40 0.5746
711.50 0.5744
711.60 0.5742
711.70 0.5741
711.80 0.5739
711.90 0.5738
712.00 0.5736
712.10 0.5734
712.20 0.5733
712.30 0.5731
712.40 0.573
712.50 0.5728
712.60 0.5726
712.70 0.5725
712.80 0.5723
712.90 0.5722
713.00 0.572
713.10 0.5718
713.20 0.5717
713.30 0.5715
713.40 0.5714
713.50 0.5712
713.60 0.5711
713.70 0.5709
713.80 0.5707
713.90 0.5706
714.00 0.5704
714.10 0.5703
714.20 0.5701
714.30 0.5699
714.40 0.5698
714.50 0.5696
714.60 0.5695
714.70 0.5693
714.80 0.5692
714.90 0.569
715.00 0.5688
715.10 0.5687
715.20 0.5685
715.30 0.5684
715.40 0.5682
715.50 0.5681
715.60 0.5679
715.70 0.5677
715.80 0.5676
715.90 0.5674
716.00 0.5673
716.10 0.5671
716.20 0.5669
716.30 0.5668
716.40 0.5666
716.50 0.5665
716.60 0.5663
716.70 0.5662
716.80 0.566
716.90 0.5658
717.00 0.5657
717.10 0.5655
717.20 0.5654
717.30 0.5652
717.40 0.5651
717.50 0.5649
717.60 0.5647
717.70 0.5646
717.80 0.5644
717.90 0.5643
718.00 0.5641
718.10 0.564
718.20 0.5638
718.30 0.5637
718.40 0.5635
718.50 0.5633
718.60 0.5632
718.70 0.563
718.80 0.5629
718.90 0.5627
719.00 0.5626
719.10 0.5624
719.20 0.5623
719.30 0.5621
719.40 0.5619
719.50 0.5618
719.60 0.5616
719.70 0.5615
719.80 0.5613
719.90 0.5612
720.00 0.561
720.10 0.5609
720.20 0.5607
720.30 0.5605
720.40 0.5604
720.50 0.5602
720.60 0.5601
720.70 0.5599
720.80 0.5598
720.90 0.5596
721.00 0.5595
721.10 0.5593
721.20 0.5591
721.30 0.559
721.40 0.5588
721.50 0.5587
721.60 0.5585
721.70 0.5584
721.80 0.5582
721.90 0.5581
722.00 0.5579
722.10 0.5578
722.20 0.5576
722.30 0.5574
722.40 0.5573
722.50 0.5571
722.60 0.557
722.70 0.5568
722.80 0.5567
722.90 0.5565
723.00 0.5564
723.10 0.5562
723.20 0.5561
723.30 0.5559
723.40 0.5557
723.50 0.5556
723.60 0.5554
723.70 0.5553
723.80 0.5551
723.90 0.555
724.00 0.5548
724.10 0.5547
724.20 0.5545
724.30 0.5544
724.40 0.5542
724.50 0.5541
724.60 0.5539
724.70 0.5538
724.80 0.5536
724.90 0.5535
725.00 0.5533
725.10 0.5531
725.20 0.553
725.30 0.5528
725.40 0.5527
725.50 0.5525
725.60 0.5524
725.70 0.5522
725.80 0.5521
725.90 0.5519
726.00 0.5518
726.10 0.5516
726.20 0.5515
726.30 0.5513
726.40 0.5511
726.50 0.551
726.60 0.5508
726.70 0.5507
726.80 0.5505
726.90 0.5504
727.00 0.5502
727.10 0.5501
727.20 0.5499
727.30 0.5498
727.40 0.5496
727.50 0.5495
727.60 0.5493
727.70 0.5492
727.80 0.549
727.90 0.5489
728.00 0.5487
728.10 0.5485
728.20 0.5484
728.30 0.5482
728.40 0.5481
728.50 0.5479
728.60 0.5478
728.70 0.5476
728.80 0.5475
728.90 0.5473
729.00 0.5472
729.10 0.547
729.20 0.5469
729.30 0.5467
729.40 0.5466
729.50 0.5464
729.60 0.5463
729.70 0.5461
729.80 0.546
729.90 0.5458
730.00 0.5457
730.10 0.5455
730.20 0.5454
730.30 0.5452
730.40 0.5451
730.50 0.5449
730.60 0.5448
730.70 0.5446
730.80 0.5445
730.90 0.5443
731.00 0.5442
731.10 0.544
731.20 0.5438
731.30 0.5437
731.40 0.5435
731.50 0.5434
731.60 0.5432
731.70 0.5431
731.80 0.5429
731.90 0.5428
732.00 0.5426
732.10 0.5425
732.20 0.5423
732.30 0.5422
732.40 0.542
732.50 0.5419
732.60 0.5417
732.70 0.5416
732.80 0.5414
732.90 0.5413
733.00 0.5411
733.10 0.541
733.20 0.5408
733.30 0.5407
733.40 0.5405
733.50 0.5404
733.60 0.5402
733.70 0.5401
733.80 0.5399
733.90 0.5398
734.00 0.5396
734.10 0.5395
734.20 0.5393
734.30 0.5392
734.40 0.539
734.50 0.5389
734.60 0.5387
734.70 0.5386
734.80 0.5384
734.90 0.5383
735.00 0.5381
735.10 0.538
735.20 0.5378
735.30 0.5377
735.40 0.5375
735.50 0.5374
735.60 0.5372
735.70 0.5371
735.80 0.537
735.90 0.5368
736.00 0.5367
736.10 0.5365
736.20 0.5364
736.30 0.5362
736.40 0.5361
736.50 0.5359
736.60 0.5358
736.70 0.5356
736.80 0.5355
736.90 0.5353
737.00 0.5352
737.10 0.535
737.20 0.5349
737.30 0.5347
737.40 0.5346
737.50 0.5344
737.60 0.5343
737.70 0.5341
737.80 0.534
737.90 0.5338
738.00 0.5337
738.10 0.5336
738.20 0.5334
738.30 0.5333
738.40 0.5331
738.50 0.533
738.60 0.5328
738.70 0.5327
738.80 0.5325
738.90 0.5324
739.00 0.5322
739.10 0.5321
739.20 0.5319
739.30 0.5318
739.40 0.5316
739.50 0.5315
739.60 0.5314
739.70 0.5312
739.80 0.5311
739.90 0.5309
740.00 0.5308
740.10 0.5306
740.20 0.5305
740.30 0.5303
740.40 0.5302
740.50 0.53
740.60 0.5299
740.70 0.5297
740.80 0.5296
740.90 0.5294
741.00 0.5293
741.10 0.5291
741.20 0.529
741.30 0.5288
741.40 0.5287
741.50 0.5285
741.60 0.5284
741.70 0.5283
741.80 0.5281
741.90 0.528
742.00 0.5278
742.10 0.5277
742.20 0.5275
742.30 0.5274
742.40 0.5272
742.50 0.5271
742.60 0.5269
742.70 0.5268
742.80 0.5266
742.90 0.5265
743.00 0.5263
743.10 0.5262
743.20 0.5261
743.30 0.5259
743.40 0.5258
743.50 0.5256
743.60 0.5255
743.70 0.5253
743.80 0.5252
743.90 0.525
744.00 0.5249
744.10 0.5247
744.20 0.5246
744.30 0.5244
744.40 0.5243
744.50 0.5242
744.60 0.524
744.70 0.5239
744.80 0.5237
744.90 0.5236
745.00 0.5234
745.10 0.5233
745.20 0.5231
745.30 0.523
745.40 0.5229
745.50 0.5227
745.60 0.5226
745.70 0.5224
745.80 0.5223
745.90 0.5221
746.00 0.522
746.10 0.5218
746.20 0.5217
746.30 0.5215
746.40 0.5214
746.50 0.5213
746.60 0.5211
746.70 0.521
746.80 0.5208
746.90 0.5207
747.00 0.5205
747.10 0.5204
747.20 0.5203
747.30 0.5201
747.40 0.52
747.50 0.5198
747.60 0.5197
747.70 0.5195
747.80 0.5194
747.90 0.5192
748.00 0.5191
748.10 0.519
748.20 0.5188
748.30 0.5187
748.40 0.5185
748.50 0.5184
748.60 0.5182
748.70 0.5181
748.80 0.518
748.90 0.5178
749.00 0.5177
749.10 0.5175
749.20 0.5174
749.30 0.5172
749.40 0.5171
749.50 0.517
749.60 0.5168
749.70 0.5167
749.80 0.5165
749.90 0.5164
750.00 0.5162
750.10 0.5161
750.20 0.516
750.30 0.5158
750.40 0.5157
750.50 0.5155
750.60 0.5154
750.70 0.5152
750.80 0.5151
750.90 0.515
751.00 0.5148
751.10 0.5147
751.20 0.5145
751.30 0.5144
751.40 0.5142
751.50 0.5141
751.60 0.514
751.70 0.5138
751.80 0.5137
751.90 0.5135
752.00 0.5134
752.10 0.5132
752.20 0.5131
752.30 0.513
752.40 0.5128
752.50 0.5127
752.60 0.5125
752.70 0.5124
752.80 0.5123
752.90 0.5121
753.00 0.512
753.10 0.5118
753.20 0.5117
753.30 0.5115
753.40 0.5114
753.50 0.5113
753.60 0.5111
753.70 0.511
753.80 0.5108
753.90 0.5107
754.00 0.5106
754.10 0.5104
754.20 0.5103
754.30 0.5101
754.40 0.51
754.50 0.5099
754.60 0.5097
754.70 0.5096
754.80 0.5094
754.90 0.5093
755.00 0.5091
755.10 0.509
755.20 0.5089
755.30 0.5087
755.40 0.5086
755.50 0.5084
755.60 0.5083
755.70 0.5082
755.80 0.508
755.90 0.5079
756.00 0.5077
756.10 0.5076
756.20 0.5075
756.30 0.5073
756.40 0.5072
756.50 0.507
756.60 0.5069
756.70 0.5068
756.80 0.5066
756.90 0.5065
757.00 0.5063
757.10 0.5062
757.20 0.5061
757.30 0.5059
757.40 0.5058
757.50 0.5057
757.60 0.5055
757.70 0.5054
757.80 0.5052
757.90 0.5051
758.00 0.505
758.10 0.5048
758.20 0.5047
758.30 0.5045
758.40 0.5044
758.50 0.5043
758.60 0.5041
758.70 0.504
758.80 0.5039
758.90 0.5037
759.00 0.5036
759.10 0.5034
759.20 0.5033
759.30 0.5032
759.40 0.503
759.50 0.5029
759.60 0.5027
759.70 0.5026
759.80 0.5025
759.90 0.5023
760.00 0.5022
760.10 0.5021
760.20 0.5019
760.30 0.5018
760.40 0.5016
760.50 0.5015
760.60 0.5014
760.70 0.5012
760.80 0.5011
760.90 0.5009
761.00 0.5008
761.10 0.5007
761.20 0.5005
761.30 0.5004
761.40 0.5002
761.50 0.5001
761.60 0.5
761.70 0.4998
761.80 0.4997
761.90 0.4996
762.00 0.4994
762.10 0.4993
762.20 0.4991
762.30 0.499
762.40 0.4989
762.50 0.4987
762.60 0.4986
762.70 0.4984
762.80 0.4983
762.90 0.4982
763.00 0.498
763.10 0.4979
763.20 0.4978
763.30 0.4976
763.40 0.4975
763.50 0.4973
763.60 0.4972
763.70 0.4971
763.80 0.4969
763.90 0.4968
764.00 0.4967
764.10 0.4965
764.20 0.4964
764.30 0.4962
764.40 0.4961
764.50 0.496
764.60 0.4958
764.70 0.4957
764.80 0.4956
764.90 0.4954
765.00 0.4953
765.10 0.4952
765.20 0.495
765.30 0.4949
765.40 0.4947
765.50 0.4946
765.60 0.4945
765.70 0.4943
765.80 0.4942
765.90 0.4941
766.00 0.4939
766.10 0.4938
766.20 0.4937
766.30 0.4935
766.40 0.4934
766.50 0.4932
766.60 0.4931
766.70 0.493
766.80 0.4928
766.90 0.4927
767.00 0.4926
767.10 0.4924
767.20 0.4923
767.30 0.4922
767.40 0.492
767.50 0.4919
767.60 0.4918
767.70 0.4916
767.80 0.4915
767.90 0.4914
768.00 0.4912
768.10 0.4911
768.20 0.4909
768.30 0.4908
768.40 0.4907
768.50 0.4905
768.60 0.4904
768.70 0.4903
768.80 0.4901
768.90 0.49
769.00 0.4899
769.10 0.4897
769.20 0.4896
769.30 0.4895
769.40 0.4893
769.50 0.4892
769.60 0.4891
769.70 0.4889
769.80 0.4888
769.90 0.4887
770.00 0.4885
770.10 0.4884
770.20 0.4883
770.30 0.4881
770.40 0.488
770.50 0.4879
770.60 0.4877
770.70 0.4876
770.80 0.4874
770.90 0.4873
771.00 0.4872
771.10 0.487
771.20 0.4869
771.30 0.4868
771.40 0.4866
771.50 0.4865
771.60 0.4864
771.70 0.4862
771.80 0.4861
771.90 0.486
772.00 0.4858
772.10 0.4857
772.20 0.4856
772.30 0.4854
772.40 0.4853
772.50 0.4852
772.60 0.485
772.70 0.4849
772.80 0.4848
772.90 0.4846
773.00 0.4845
773.10 0.4844
773.20 0.4842
773.30 0.4841
773.40 0.484
773.50 0.4838
773.60 0.4837
773.70 0.4836
773.80 0.4834
773.90 0.4833
774.00 0.4832
774.10 0.483
774.20 0.4829
774.30 0.4828
774.40 0.4826
774.50 0.4825
774.60 0.4824
774.70 0.4822
774.80 0.4821
774.90 0.482
775.00 0.4818
775.10 0.4817
775.20 0.4816
775.30 0.4814
775.40 0.4813
775.50 0.4812
775.60 0.481
775.70 0.4809
775.80 0.4808
775.90 0.4806
776.00 0.4805
776.10 0.4804
776.20 0.4802
776.30 0.4801
776.40 0.48
776.50 0.4798
776.60 0.4797
776.70 0.4796
776.80 0.4794
776.90 0.4793
777.00 0.4792
777.10 0.4791
777.20 0.4789
777.30 0.4788
777.40 0.4787
777.50 0.4785
777.60 0.4784
777.70 0.4783
777.80 0.4781
777.90 0.478
778.00 0.4779
778.10 0.4777
778.20 0.4776
778.30 0.4775
778.40 0.4773
778.50 0.4772
778.60 0.4771
778.70 0.477
778.80 0.4768
778.90 0.4767
779.00 0.4766
779.10 0.4764
779.20 0.4763
779.30 0.4762
779.40 0.476
779.50 0.4759
779.60 0.4758
779.70 0.4756
779.80 0.4755
779.90 0.4754
780.00 0.4753
780.10 0.4751
780.20 0.475
780.30 0.4749
780.40 0.4747
780.50 0.4746
780.60 0.4745
780.70 0.4743
780.80 0.4742
780.90 0.4741
781.00 0.4739
781.10 0.4738
781.20 0.4737
781.30 0.4736
781.40 0.4734
781.50 0.4733
781.60 0.4732
781.70 0.473
781.80 0.4729
781.90 0.4728
782.00 0.4726
782.10 0.4725
782.20 0.4724
782.30 0.4722
782.40 0.4721
782.50 0.472
782.60 0.4719
782.70 0.4717
782.80 0.4716
782.90 0.4715
783.00 0.4713
783.10 0.4712
783.20 0.4711
783.30 0.471
783.40 0.4708
783.50 0.4707
783.60 0.4706
783.70 0.4704
783.80 0.4703
783.90 0.4702
784.00 0.47
784.10 0.4699
784.20 0.4698
784.30 0.4697
784.40 0.4695
784.50 0.4694
784.60 0.4693
784.70 0.4691
784.80 0.469
784.90 0.4689
785.00 0.4688
785.10 0.4686
785.20 0.4685
785.30 0.4684
785.40 0.4682
785.50 0.4681
785.60 0.468
785.70 0.4679
785.80 0.4677
785.90 0.4676
786.00 0.4675
786.10 0.4673
786.20 0.4672
786.30 0.4671
786.40 0.467
786.50 0.4668
786.60 0.4667
786.70 0.4666
786.80 0.4664
786.90 0.4663
787.00 0.4662
787.10 0.4661
787.20 0.4659
787.30 0.4658
787.40 0.4657
787.50 0.4655
787.60 0.4654
787.70 0.4653
787.80 0.4652
787.90 0.465
788.00 0.4649
788.10 0.4648
788.20 0.4647
788.30 0.4645
788.40 0.4644
788.50 0.4643
788.60 0.4641
788.70 0.464
788.80 0.4639
788.90 0.4638
789.00 0.4636
789.10 0.4635
789.20 0.4634
789.30 0.4633
789.40 0.4631
789.50 0.463
789.60 0.4629
789.70 0.4628
789.80 0.4626
789.90 0.4625
790.00 0.4624
790.10 0.4622
790.20 0.4621
790.30 0.462
790.40 0.4619
790.50 0.4617
790.60 0.4616
790.70 0.4615
790.80 0.4614
790.90 0.4612
791.00 0.4611
791.10 0.461
791.20 0.4608
791.30 0.4607
791.40 0.4606
791.50 0.4605
791.60 0.4603
791.70 0.4602
791.80 0.4601
791.90 0.46
792.00 0.4598
792.10 0.4597
792.20 0.4596
792.30 0.4595
792.40 0.4593
792.50 0.4592
792.60 0.4591
792.70 0.459
792.80 0.4588
792.90 0.4587
793.00 0.4586
793.10 0.4585
793.20 0.4583
793.30 0.4582
793.40 0.4581
793.50 0.4579
793.60 0.4578
793.70 0.4577
793.80 0.4576
793.90 0.4574
794.00 0.4573
794.10 0.4572
794.20 0.4571
794.30 0.4569
794.40 0.4568
794.50 0.4567
794.60 0.4566
794.70 0.4564
794.80 0.4563
794.90 0.4562
795.00 0.4561
795.10 0.4559
795.20 0.4558
795.30 0.4557
795.40 0.4556
795.50 0.4554
795.60 0.4553
795.70 0.4552
795.80 0.4551
795.90 0.4549
796.00 0.4548
796.10 0.4547
796.20 0.4546
796.30 0.4544
796.40 0.4543
796.50 0.4542
796.60 0.4541
796.70 0.454
796.80 0.4538
796.90 0.4537
797.00 0.4536
797.10 0.4535
797.20 0.4533
797.30 0.4532
797.40 0.4531
797.50 0.453
797.60 0.4528
797.70 0.4527
797.80 0.4526
797.90 0.4525
798.00 0.4523
798.10 0.4522
798.20 0.4521
798.30 0.452
798.40 0.4519
798.50 0.4517
798.60 0.4516
798.70 0.4515
798.80 0.4514
798.90 0.4512
799.00 0.4511
799.10 0.451
799.20 0.4509
799.30 0.4507
799.40 0.4506
799.50 0.4505
799.60 0.4504
799.70 0.4503
799.80 0.4501
799.90 0.45
800.00 0.4499
800.10 0.4498
800.20 0.4496
800.30 0.4495
800.40 0.4494
800.50 0.4493
800.60 0.4491
800.70 0.449
800.80 0.4489
800.90 0.4488
801.00 0.4487
801.10 0.4485
801.20 0.4484
801.30 0.4483
801.40 0.4482
801.50 0.448
801.60 0.4479
801.70 0.4478
801.80 0.4477
801.90 0.4475
802.00 0.4474
802.10 0.4473
802.20 0.4472
802.30 0.4471
802.40 0.4469
802.50 0.4468
802.60 0.4467
802.70 0.4466
802.80 0.4464
802.90 0.4463
803.00 0.4462
803.10 0.4461
803.20 0.446
803.30 0.4458
803.40 0.4457
803.50 0.4456
803.60 0.4455
803.70 0.4453
803.80 0.4452
803.90 0.4451
804.00 0.445
804.10 0.4449
804.20 0.4447
804.30 0.4446
804.40 0.4445
804.50 0.4444
804.60 0.4442
804.70 0.4441
804.80 0.444
804.90 0.4439
805.00 0.4438
805.10 0.4436
805.20 0.4435
805.30 0.4434
805.40 0.4433
805.50 0.4432
805.60 0.443
805.70 0.4429
805.80 0.4428
805.90 0.4427
806.00 0.4425
806.10 0.4424
806.20 0.4423
806.30 0.4422
806.40 0.4421
806.50 0.4419
806.60 0.4418
806.70 0.4417
806.80 0.4416
806.90 0.4415
807.00 0.4413
807.10 0.4412
807.20 0.4411
807.30 0.441
807.40 0.4409
807.50 0.4407
807.60 0.4406
807.70 0.4405
807.80 0.4404
807.90 0.4403
808.00 0.4401
808.10 0.44
808.20 0.4399
808.30 0.4398
808.40 0.4397
808.50 0.4395
808.60 0.4394
808.70 0.4393
808.80 0.4392
808.90 0.4391
809.00 0.4389
809.10 0.4388
809.20 0.4387
809.30 0.4386
809.40 0.4385
809.50 0.4383
809.60 0.4382
809.70 0.4381
809.80 0.438
809.90 0.4379
810.00 0.4377
810.10 0.4376
810.20 0.4375
810.30 0.4374
810.40 0.4373
810.50 0.4372
810.60 0.437
810.70 0.4369
810.80 0.4368
810.90 0.4367
811.00 0.4366
811.10 0.4364
811.20 0.4363
811.30 0.4362
811.40 0.4361
811.50 0.436
811.60 0.4358
811.70 0.4357
811.80 0.4356
811.90 0.4355
812.00 0.4354
812.10 0.4352
812.20 0.4351
812.30 0.435
812.40 0.4349
812.50 0.4348
812.60 0.4347
812.70 0.4345
812.80 0.4344
812.90 0.4343
813.00 0.4342
813.10 0.4341
813.20 0.4339
813.30 0.4338
813.40 0.4337
813.50 0.4336
813.60 0.4335
813.70 0.4334
813.80 0.4332
813.90 0.4331
814.00 0.433
814.10 0.4329
814.20 0.4328
814.30 0.4326
814.40 0.4325
814.50 0.4324
814.60 0.4323
814.70 0.4322
814.80 0.4321
814.90 0.4319
815.00 0.4318
815.10 0.4317
815.20 0.4316
815.30 0.4315
815.40 0.4314
815.50 0.4312
815.60 0.4311
815.70 0.431
815.80 0.4309
815.90 0.4308
816.00 0.4307
816.10 0.4305
816.20 0.4304
816.30 0.4303
816.40 0.4302
816.50 0.4301
816.60 0.43
816.70 0.4298
816.80 0.4297
816.90 0.4296
817.00 0.4295
817.10 0.4294
817.20 0.4293
817.30 0.4291
817.40 0.429
817.50 0.4289
817.60 0.4288
817.70 0.4287
817.80 0.4286
817.90 0.4284
818.00 0.4283
818.10 0.4282
818.20 0.4281
818.30 0.428
818.40 0.4279
818.50 0.4277
818.60 0.4276
818.70 0.4275
818.80 0.4274
818.90 0.4273
819.00 0.4272
819.10 0.4271
819.20 0.4269
819.30 0.4268
819.40 0.4267
819.50 0.4266
819.60 0.4265
819.70 0.4264
819.80 0.4262
819.90 0.4261
820.00 0.426
820.10 0.4259
820.20 0.4258
820.30 0.4257
820.40 0.4256
820.50 0.4254
820.60 0.4253
820.70 0.4252
820.80 0.4251
820.90 0.425
821.00 0.4249
821.10 0.4247
821.20 0.4246
821.30 0.4245
821.40 0.4244
821.50 0.4243
821.60 0.4242
821.70 0.424
821.80 0.4239
821.90 0.4238
822.00 0.4237
822.10 0.4236
822.20 0.4235
822.30 0.4234
822.40 0.4232
822.50 0.4231
822.60 0.423
822.70 0.4229
822.80 0.4228
822.90 0.4227
823.00 0.4226
823.10 0.4224
823.20 0.4223
823.30 0.4222
823.40 0.4221
823.50 0.422
823.60 0.4219
823.70 0.4218
823.80 0.4216
823.90 0.4215
824.00 0.4214
824.10 0.4213
824.20 0.4212
824.30 0.4211
824.40 0.421
824.50 0.4208
824.60 0.4207
824.70 0.4206
824.80 0.4205
824.90 0.4204
825.00 0.4203
825.10 0.4202
825.20 0.42
825.30 0.4199
825.40 0.4198
825.50 0.4197
825.60 0.4196
825.70 0.4195
825.80 0.4194
825.90 0.4192
826.00 0.4191
826.10 0.419
826.20 0.4189
826.30 0.4188
826.40 0.4187
826.50 0.4186
826.60 0.4185
826.70 0.4183
826.80 0.4182
826.90 0.4181
827.00 0.418
827.10 0.4179
827.20 0.4178
827.30 0.4177
827.40 0.4176
827.50 0.4174
827.60 0.4173
827.70 0.4172
827.80 0.4171
827.90 0.417
828.00 0.4169
828.10 0.4168
828.20 0.4166
828.30 0.4165
828.40 0.4164
828.50 0.4163
828.60 0.4162
828.70 0.4161
828.80 0.416
828.90 0.4159
829.00 0.4157
829.10 0.4156
829.20 0.4155
829.30 0.4154
829.40 0.4153
829.50 0.4152
829.60 0.4151
829.70 0.415
829.80 0.4148
829.90 0.4147
830.00 0.4146
830.10 0.4145
830.20 0.4144
830.30 0.4143
830.40 0.4142
830.50 0.4141
830.60 0.414
830.70 0.4138
830.80 0.4137
830.90 0.4136
831.00 0.4135
831.10 0.4134
831.20 0.4133
831.30 0.4132
831.40 0.4131
831.50 0.4129
831.60 0.4128
831.70 0.4127
831.80 0.4126
831.90 0.4125
832.00 0.4124
832.10 0.4123
832.20 0.4122
832.30 0.4121
832.40 0.4119
832.50 0.4118
832.60 0.4117
832.70 0.4116
832.80 0.4115
832.90 0.4114
833.00 0.4113
833.10 0.4112
833.20 0.4111
833.30 0.4109
833.40 0.4108
833.50 0.4107
833.60 0.4106
833.70 0.4105
833.80 0.4104
833.90 0.4103
834.00 0.4102
834.10 0.4101
834.20 0.4099
834.30 0.4098
834.40 0.4097
834.50 0.4096
834.60 0.4095
834.70 0.4094
834.80 0.4093
834.90 0.4092
835.00 0.4091
835.10 0.4089
835.20 0.4088
835.30 0.4087
835.40 0.4086
835.50 0.4085
835.60 0.4084
835.70 0.4083
835.80 0.4082
835.90 0.4081
836.00 0.4079
836.10 0.4078
836.20 0.4077
836.30 0.4076
836.40 0.4075
836.50 0.4074
836.60 0.4073
836.70 0.4072
836.80 0.4071
836.90 0.407
837.00 0.4068
837.10 0.4067
837.20 0.4066
837.30 0.4065
837.40 0.4064
837.50 0.4063
837.60 0.4062
837.70 0.4061
837.80 0.406
837.90 0.4059
838.00 0.4057
838.10 0.4056
838.20 0.4055
838.30 0.4054
838.40 0.4053
838.50 0.4052
838.60 0.4051
838.70 0.405
838.80 0.4049
838.90 0.4048
839.00 0.4047
839.10 0.4045
839.20 0.4044
839.30 0.4043
839.40 0.4042
839.50 0.4041
839.60 0.404
839.70 0.4039
839.80 0.4038
839.90 0.4037
840.00 0.4036
840.10 0.4034
840.20 0.4033
840.30 0.4032
840.40 0.4031
840.50 0.403
840.60 0.4029
840.70 0.4028
840.80 0.4027
840.90 0.4026
841.00 0.4025
841.10 0.4024
841.20 0.4023
841.30 0.4021
841.40 0.402
841.50 0.4019
841.60 0.4018
841.70 0.4017
841.80 0.4016
841.90 0.4015
842.00 0.4014
842.10 0.4013
842.20 0.4012
842.30 0.4011
842.40 0.401
842.50 0.4008
842.60 0.4007
842.70 0.4006
842.80 0.4005
842.90 0.4004
843.00 0.4003
843.10 0.4002
843.20 0.4001
843.30 0.4
843.40 0.3999
843.50 0.3998
843.60 0.3997
843.70 0.3995
843.80 0.3994
843.90 0.3993
844.00 0.3992
844.10 0.3991
844.20 0.399
844.30 0.3989
844.40 0.3988
844.50 0.3987
844.60 0.3986
844.70 0.3985
844.80 0.3984
844.90 0.3983
845.00 0.3982
845.10 0.398
845.20 0.3979
845.30 0.3978
845.40 0.3977
845.50 0.3976
845.60 0.3975
845.70 0.3974
845.80 0.3973
845.90 0.3972
846.00 0.3971
846.10 0.397
846.20 0.3969
846.30 0.3968
846.40 0.3967
846.50 0.3965
846.60 0.3964
846.70 0.3963
846.80 0.3962
846.90 0.3961
847.00 0.396
847.10 0.3959
847.20 0.3958
847.30 0.3957
847.40 0.3956
847.50 0.3955
847.60 0.3954
847.70 0.3953
847.80 0.3952
847.90 0.3951
848.00 0.395
848.10 0.3948
848.20 0.3947
848.30 0.3946
848.40 0.3945
848.50 0.3944
848.60 0.3943
848.70 0.3942
848.80 0.3941
848.90 0.394
849.00 0.3939
849.10 0.3938
849.20 0.3937
849.30 0.3936
849.40 0.3935
849.50 0.3934
849.60 0.3933
849.70 0.3931
849.80 0.393
849.90 0.3929
850.00 0.3928
850.10 0.3927
850.20 0.3926
850.30 0.3925
850.40 0.3924
850.50 0.3923
850.60 0.3922
850.70 0.3921
850.80 0.392
850.90 0.3919
851.00 0.3918
851.10 0.3917
851.20 0.3916
851.30 0.3915
851.40 0.3914
851.50 0.3912
851.60 0.3911
851.70 0.391
851.80 0.3909
851.90 0.3908
852.00 0.3907
852.10 0.3906
852.20 0.3905
852.30 0.3904
852.40 0.3903
852.50 0.3902
852.60 0.3901
852.70 0.39
852.80 0.3899
852.90 0.3898
853.00 0.3897
853.10 0.3896
853.20 0.3895
853.30 0.3894
853.40 0.3893
853.50 0.3892
853.60 0.389
853.70 0.3889
853.80 0.3888
853.90 0.3887
854.00 0.3886
854.10 0.3885
854.20 0.3884
854.30 0.3883
854.40 0.3882
854.50 0.3881
854.60 0.388
854.70 0.3879
854.80 0.3878
854.90 0.3877
855.00 0.3876
855.10 0.3875
855.20 0.3874
855.30 0.3873
855.40 0.3872
855.50 0.3871
855.60 0.387
855.70 0.3869
855.80 0.3868
855.90 0.3867
856.00 0.3866
856.10 0.3865
856.20 0.3863
856.30 0.3862
856.40 0.3861
856.50 0.386
856.60 0.3859
856.70 0.3858
856.80 0.3857
856.90 0.3856
857.00 0.3855
857.10 0.3854
857.20 0.3853
857.30 0.3852
857.40 0.3851
857.50 0.385
857.60 0.3849
857.70 0.3848
857.80 0.3847
857.90 0.3846
858.00 0.3845
858.10 0.3844
858.20 0.3843
858.30 0.3842
858.40 0.3841
858.50 0.384
858.60 0.3839
858.70 0.3838
858.80 0.3837
858.90 0.3836
859.00 0.3835
859.10 0.3834
859.20 0.3833
859.30 0.3831
859.40 0.383
859.50 0.3829
859.60 0.3828
859.70 0.3827
859.80 0.3826
859.90 0.3825
860.00 0.3824
860.10 0.3823
860.20 0.3822
860.30 0.3821
860.40 0.382
860.50 0.3819
860.60 0.3818
860.70 0.3817
860.80 0.3816
860.90 0.3815
861.00 0.3814
861.10 0.3813
861.20 0.3812
861.30 0.3811
861.40 0.381
861.50 0.3809
861.60 0.3808
861.70 0.3807
861.80 0.3806
861.90 0.3805
862.00 0.3804
862.10 0.3803
862.20 0.3802
862.30 0.3801
862.40 0.38
862.50 0.3799
862.60 0.3798
862.70 0.3797
862.80 0.3796
862.90 0.3795
863.00 0.3794
863.10 0.3793
863.20 0.3792
863.30 0.3791
863.40 0.379
863.50 0.3789
863.60 0.3788
863.70 0.3787
863.80 0.3786
863.90 0.3785
864.00 0.3784
864.10 0.3783
864.20 0.3782
864.30 0.3781
864.40 0.378
864.50 0.3779
864.60 0.3778
864.70 0.3777
864.80 0.3776
864.90 0.3775
865.00 0.3774
865.10 0.3773
865.20 0.3772
865.30 0.3771
865.40 0.377
865.50 0.3769
865.60 0.3768
865.70 0.3767
865.80 0.3766
865.90 0.3765
866.00 0.3764
866.10 0.3762
866.20 0.3761
866.30 0.376
866.40 0.3759
866.50 0.3758
866.60 0.3757
866.70 0.3756
866.80 0.3755
866.90 0.3754
867.00 0.3753
867.10 0.3752
867.20 0.3751
867.30 0.375
867.40 0.3749
867.50 0.3748
867.60 0.3747
867.70 0.3746
867.80 0.3745
867.90 0.3744
868.00 0.3743
868.10 0.3742
868.20 0.3741
868.30 0.374
868.40 0.3739
868.50 0.3738
868.60 0.3737
868.70 0.3736
868.80 0.3735
868.90 0.3734
869.00 0.3733
869.10 0.3732
869.20 0.3731
869.30 0.373
869.40 0.3729
869.50 0.3729
869.60 0.3728
869.70 0.3727
869.80 0.3726
869.90 0.3725
870.00 0.3724
870.10 0.3723
870.20 0.3722
870.30 0.3721
870.40 0.372
870.50 0.3719
870.60 0.3718
870.70 0.3717
870.80 0.3716
870.90 0.3715
871.00 0.3714
871.10 0.3713
871.20 0.3712
871.30 0.3711
871.40 0.371
871.50 0.3709
871.60 0.3708
871.70 0.3707
871.80 0.3706
871.90 0.3705
872.00 0.3704
872.10 0.3703
872.20 0.3702
872.30 0.3701
872.40 0.37
872.50 0.3699
872.60 0.3698
872.70 0.3697
872.80 0.3696
872.90 0.3695
873.00 0.3694
873.10 0.3693
873.20 0.3692
873.30 0.3691
873.40 0.369
873.50 0.3689
873.60 0.3688
873.70 0.3687
873.80 0.3686
873.90 0.3685
874.00 0.3684
874.10 0.3683
874.20 0.3682
874.30 0.3681
874.40 0.368
874.50 0.3679
874.60 0.3678
874.70 0.3677
874.80 0.3676
874.90 0.3675
875.00 0.3674
875.10 0.3673
875.20 0.3672
875.30 0.3671
875.40 0.367
875.50 0.3669
875.60 0.3668
875.70 0.3667
875.80 0.3667
875.90 0.3666
876.00 0.3665
876.10 0.3664
876.20 0.3663
876.30 0.3662
876.40 0.3661
876.50 0.366
876.60 0.3659
876.70 0.3658
876.80 0.3657
876.90 0.3656
877.00 0.3655
877.10 0.3654
877.20 0.3653
877.30 0.3652
877.40 0.3651
877.50 0.365
877.60 0.3649
877.70 0.3648
877.80 0.3647
877.90 0.3646
878.00 0.3645
878.10 0.3644
878.20 0.3643
878.30 0.3642
878.40 0.3641
878.50 0.364
878.60 0.3639
878.70 0.3638
878.80 0.3637
878.90 0.3637
879.00 0.3636
879.10 0.3635
879.20 0.3634
879.30 0.3633
879.40 0.3632
879.50 0.3631
879.60 0.363
879.70 0.3629
879.80 0.3628
879.90 0.3627
880.00 0.3626
880.10 0.3625
880.20 0.3624
880.30 0.3623
880.40 0.3622
880.50 0.3621
880.60 0.362
880.70 0.3619
880.80 0.3618
880.90 0.3617
881.00 0.3616
881.10 0.3615
881.20 0.3614
881.30 0.3614
881.40 0.3613
881.50 0.3612
881.60 0.3611
881.70 0.361
881.80 0.3609
881.90 0.3608
882.00 0.3607
882.10 0.3606
882.20 0.3605
882.30 0.3604
882.40 0.3603
882.50 0.3602
882.60 0.3601
882.70 0.36
882.80 0.3599
882.90 0.3598
883.00 0.3597
883.10 0.3596
883.20 0.3595
883.30 0.3594
883.40 0.3593
883.50 0.3592
883.60 0.3591
883.70 0.359
883.80 0.359
883.90 0.3589
884.00 0.3588
884.10 0.3587
884.20 0.3586
884.30 0.3585
884.40 0.3584
884.50 0.3583
884.60 0.3582
884.70 0.3581
884.80 0.358
884.90 0.3579
885.00 0.3578
885.10 0.3577
885.20 0.3576
885.30 0.3575
885.40 0.3574
885.50 0.3573
885.60 0.3572
885.70 0.3571
885.80 0.357
885.90 0.3569
886.00 0.3568
886.10 0.3567
886.20 0.3567
886.30 0.3566
886.40 0.3565
886.50 0.3564
886.60 0.3563
886.70 0.3562
886.80 0.3561
886.90 0.356
887.00 0.3559
887.10 0.3558
887.20 0.3557
887.30 0.3556
887.40 0.3555
887.50 0.3554
887.60 0.3553
887.70 0.3552
887.80 0.3551
887.90 0.3551
888.00 0.355
888.10 0.3549
888.20 0.3548
888.30 0.3547
888.40 0.3546
888.50 0.3545
888.60 0.3544
888.70 0.3543
888.80 0.3542
888.90 0.3541
889.00 0.354
889.10 0.3539
889.20 0.3538
889.30 0.3538
889.40 0.3537
889.50 0.3536
889.60 0.3535
889.70 0.3534
889.80 0.3533
889.90 0.3532
890.00 0.3531
890.10 0.353
890.20 0.3529
890.30 0.3528
890.40 0.3527
890.50 0.3526
890.60 0.3525
890.70 0.3525
890.80 0.3524
890.90 0.3523
891.00 0.3522
891.10 0.3521
891.20 0.352
891.30 0.3519
891.40 0.3518
891.50 0.3517
891.60 0.3516
891.70 0.3515
891.80 0.3514
891.90 0.3514
892.00 0.3513
892.10 0.3512
892.20 0.3511
892.30 0.351
892.40 0.3509
892.50 0.3508
892.60 0.3507
892.70 0.3506
892.80 0.3505
892.90 0.3504
893.00 0.3503
893.10 0.3502
893.20 0.3501
893.30 0.3501
893.40 0.35
893.50 0.3499
893.60 0.3498
893.70 0.3497
893.80 0.3496
893.90 0.3495
894.00 0.3494
894.10 0.3493
894.20 0.3492
894.30 0.3491
894.40 0.349
894.50 0.349
894.60 0.3489
894.70 0.3488
894.80 0.3487
894.90 0.3486
895.00 0.3485
895.10 0.3484
895.20 0.3483
895.30 0.3482
895.40 0.3481
895.50 0.348
895.60 0.3479
895.70 0.3478
895.80 0.3478
895.90 0.3477
896.00 0.3476
896.10 0.3475
896.20 0.3474
896.30 0.3473
896.40 0.3472
896.50 0.3471
896.60 0.347
896.70 0.3469
896.80 0.3468
896.90 0.3468
897.00 0.3467
897.10 0.3466
897.20 0.3465
897.30 0.3464
897.40 0.3463
897.50 0.3462
897.60 0.3461
897.70 0.346
897.80 0.3459
897.90 0.3458
898.00 0.3457
898.10 0.3456
898.20 0.3455
898.30 0.3454
898.40 0.3453
898.50 0.3452
898.60 0.3451
898.70 0.3451
898.80 0.345
898.90 0.3449
899.00 0.3448
899.10 0.3447
899.20 0.3446
899.30 0.3445
899.40 0.3444
899.50 0.3443
899.60 0.3442
899.70 0.3441
899.80 0.344
899.90 0.3439
900.00 0.3438
900.10 0.3437
900.20 0.3436
900.30 0.3436
900.40 0.3435
900.50 0.3434
900.60 0.3433
900.70 0.3432
900.80 0.3431
900.90 0.343
901.00 0.3429
901.10 0.3428
901.20 0.3427
901.30 0.3426
901.40 0.3425
901.50 0.3424
901.60 0.3423
901.70 0.3422
901.80 0.3422
901.90 0.3421
902.00 0.342
902.10 0.3419
902.20 0.3418
902.30 0.3417
902.40 0.3416
902.50 0.3415
902.60 0.3415
902.70 0.3414
902.80 0.3413
902.90 0.3412
903.00 0.3411
903.10 0.341
903.20 0.3409
903.30 0.3408
903.40 0.3408
903.50 0.3407
903.60 0.3406
903.70 0.3405
903.80 0.3404
903.90 0.3403
904.00 0.3402
904.10 0.3402
904.20 0.3401
904.30 0.34
904.40 0.3399
904.50 0.3398
904.60 0.3397
904.70 0.3397
904.80 0.3396
904.90 0.3395
905.00 0.3394
905.10 0.3393
905.20 0.3392
905.30 0.3391
905.40 0.3391
905.50 0.339
905.60 0.3389
905.70 0.3388
905.80 0.3387
905.90 0.3386
906.00 0.3385
906.10 0.3385
906.20 0.3384
906.30 0.3383
906.40 0.3382
906.50 0.3381
906.60 0.338
906.70 0.338
906.80 0.3379
906.90 0.3378
907.00 0.3377
907.10 0.3376
907.20 0.3375
907.30 0.3374
907.40 0.3373
907.50 0.3373
907.60 0.3372
907.70 0.3371
907.80 0.337
907.90 0.3369
908.00 0.3368
908.10 0.3367
908.20 0.3366
908.30 0.3366
908.40 0.3365
908.50 0.3364
908.60 0.3363
908.70 0.3362
908.80 0.3361
908.90 0.336
909.00 0.3359
909.10 0.3359
909.20 0.3358
909.30 0.3357
909.40 0.3356
909.50 0.3355
909.60 0.3354
909.70 0.3353
909.80 0.3352
909.90 0.3352
910.00 0.3351
910.10 0.335
910.20 0.3349
910.30 0.3348
910.40 0.3347
910.50 0.3346
910.60 0.3345
910.70 0.3345
910.80 0.3344
910.90 0.3343
911.00 0.3342
911.10 0.3341
911.20 0.334
911.30 0.3339
911.40 0.3338
911.50 0.3338
911.60 0.3337
911.70 0.3336
911.80 0.3335
911.90 0.3334
912.00 0.3333
912.10 0.3332
912.20 0.3332
912.30 0.3331
912.40 0.333
912.50 0.3329
912.60 0.3328
912.70 0.3327
912.80 0.3326
912.90 0.3325
913.00 0.3324
913.10 0.3324
913.20 0.3323
913.30 0.3322
913.40 0.3321
913.50 0.332
913.60 0.3319
913.70 0.3318
913.80 0.3317
913.90 0.3317
914.00 0.3316
914.10 0.3315
914.20 0.3314
914.30 0.3313
914.40 0.3312
914.50 0.3311
914.60 0.331
914.70 0.331
914.80 0.3309
914.90 0.3308
915.00 0.3307
915.10 0.3306
915.20 0.3305
915.30 0.3304
915.40 0.3303
915.50 0.3303
915.60 0.3302
915.70 0.3301
915.80 0.33
915.90 0.3299
916.00 0.3298
916.10 0.3297
916.20 0.3296
916.30 0.3296
916.40 0.3295
916.50 0.3294
916.60 0.3293
916.70 0.3292
916.80 0.3291
916.90 0.329
917.00 0.3289
917.10 0.3288
917.20 0.3287
917.30 0.3286
917.40 0.3285
917.50 0.3284
917.60 0.3283
917.70 0.3282
917.80 0.3282
917.90 0.3281
918.00 0.328
918.10 0.3279
918.20 0.3278
918.30 0.3277
918.40 0.3276
918.50 0.3275
918.60 0.3274
918.70 0.3273
918.80 0.3272
918.90 0.3271
919.00 0.327
919.10 0.3269
919.20 0.3268
919.30 0.3267
919.40 0.3266
919.50 0.3265
919.60 0.3264
919.70 0.3263
919.80 0.3262
919.90 0.3261
920.00 0.326
920.10 0.3259
920.20 0.3258
920.30 0.3257
920.40 0.3256
920.50 0.3255
920.60 0.3254
920.70 0.3253
920.80 0.3252
920.90 0.3251
921.00 0.325
921.10 0.3249
921.20 0.3248
921.30 0.3247
921.40 0.3246
921.50 0.3245
921.60 0.3244
921.70 0.3243
921.80 0.3242
921.90 0.3241
922.00 0.324
922.10 0.3239
922.20 0.3239
922.30 0.3238
922.40 0.3237
922.50 0.3237
922.60 0.3236
922.70 0.3235
922.80 0.3234
922.90 0.3234
923.00 0.3233
923.10 0.3232
923.20 0.3232
923.30 0.3231
923.40 0.323
923.50 0.3229
923.60 0.3229
923.70 0.3228
923.80 0.3227
923.90 0.3227
924.00 0.3226
924.10 0.3225
924.20 0.3224
924.30 0.3224
924.40 0.3223
924.50 0.3222
924.60 0.3222
924.70 0.3221
924.80 0.322
924.90 0.322
925.00 0.3219
925.10 0.3218
925.20 0.3217
925.30 0.3217
925.40 0.3216
925.50 0.3215
925.60 0.3215
925.70 0.3214
925.80 0.3213
925.90 0.3212
926.00 0.3212
926.10 0.3211
926.20 0.321
926.30 0.321
926.40 0.3209
926.50 0.3208
926.60 0.3207
926.70 0.3207
926.80 0.3206
926.90 0.3205
927.00 0.3205
927.10 0.3204
927.20 0.3203
927.30 0.3202
927.40 0.3201
927.50 0.3201
927.60 0.32
927.70 0.3199
927.80 0.3198
927.90 0.3197
928.00 0.3197
928.10 0.3196
928.20 0.3195
928.30 0.3194
928.40 0.3193
928.50 0.3193
928.60 0.3192
928.70 0.3191
928.80 0.319
928.90 0.3189
929.00 0.3189
929.10 0.3188
929.20 0.3187
929.30 0.3186
929.40 0.3185
929.50 0.3185
929.60 0.3184
929.70 0.3183
929.80 0.3182
929.90 0.3181
930.00 0.3181
930.10 0.318
930.20 0.3179
930.30 0.3178
930.40 0.3177
930.50 0.3177
930.60 0.3176
930.70 0.3175
930.80 0.3174
930.90 0.3173
931.00 0.3173
931.10 0.3172
931.20 0.3171
931.30 0.317
931.40 0.3169
931.50 0.3169
931.60 0.3168
931.70 0.3167
931.80 0.3166
931.90 0.3165
932.00 0.3165
932.10 0.3164
932.20 0.3163
932.30 0.3162
932.40 0.3161
932.50 0.3161
932.60 0.316
932.70 0.3159
932.80 0.3158
932.90 0.3157
933.00 0.3156
933.10 0.3156
933.20 0.3155
933.30 0.3154
933.40 0.3153
933.50 0.3152
933.60 0.3152
933.70 0.3151
933.80 0.315
933.90 0.3149
934.00 0.3148
934.10 0.3147
934.20 0.3147
934.30 0.3146
934.40 0.3145
934.50 0.3144
934.60 0.3143
934.70 0.3143
934.80 0.3142
934.90 0.3141
935.00 0.314
935.10 0.3139
935.20 0.3139
935.30 0.3138
935.40 0.3137
935.50 0.3136
935.60 0.3135
935.70 0.3135
935.80 0.3134
935.90 0.3133
936.00 0.3132
936.10 0.3131
936.20 0.3131
936.30 0.313
936.40 0.3129
936.50 0.3128
936.60 0.3127
936.70 0.3126
936.80 0.3126
936.90 0.3125
937.00 0.3124
937.10 0.3123
937.20 0.3122
937.30 0.3122
937.40 0.3121
937.50 0.312
937.60 0.3119
937.70 0.3118
937.80 0.3118
937.90 0.3117
938.00 0.3116
938.10 0.3115
938.20 0.3114
938.30 0.3114
938.40 0.3113
938.50 0.3112
938.60 0.3111
938.70 0.311
938.80 0.311
938.90 0.3109
939.00 0.3108
939.10 0.3107
939.20 0.3106
939.30 0.3106
939.40 0.3105
939.50 0.3104
939.60 0.3103
939.70 0.3102
939.80 0.3102
939.90 0.3101
940.00 0.31
940.10 0.3099
940.20 0.3098
940.30 0.3098
940.40 0.3097
940.50 0.3096
940.60 0.3095
940.70 0.3094
940.80 0.3094
940.90 0.3093
941.00 0.3092
941.10 0.3091
941.20 0.309
941.30 0.309
941.40 0.3089
941.50 0.3088
941.60 0.3087
941.70 0.3086
941.80 0.3086
941.90 0.3085
942.00 0.3084
942.10 0.3083
942.20 0.3082
942.30 0.3082
942.40 0.3081
942.50 0.308
942.60 0.3079
942.70 0.3078
942.80 0.3078
942.90 0.3077
943.00 0.3076
943.10 0.3075
943.20 0.3074
943.30 0.3074
943.40 0.3073
943.50 0.3072
943.60 0.3071
943.70 0.307
943.80 0.307
943.90 0.3069
944.00 0.3068
944.10 0.3067
944.20 0.3066
944.30 0.3066
944.40 0.3065
944.50 0.3064
944.60 0.3063
944.70 0.3063
944.80 0.3062
944.90 0.3061
945.00 0.306
945.10 0.3059
945.20 0.3059
945.30 0.3058
945.40 0.3057
945.50 0.3056
945.60 0.3055
945.70 0.3055
945.80 0.3054
945.90 0.3053
946.00 0.3052
946.10 0.3051
946.20 0.305
946.30 0.305
946.40 0.3049
946.50 0.3048
946.60 0.3047
946.70 0.3046
946.80 0.3046
946.90 0.3045
947.00 0.3044
947.10 0.3043
947.20 0.3042
947.30 0.3042
947.40 0.3041
947.50 0.304
947.60 0.3039
947.70 0.3038
947.80 0.3037
947.90 0.3037
948.00 0.3036
948.10 0.3035
948.20 0.3034
948.30 0.3033
948.40 0.3032
948.50 0.3031
948.60 0.3031
948.70 0.303
948.80 0.3029
948.90 0.3028
949.00 0.3027
949.10 0.3026
949.20 0.3026
949.30 0.3025
949.40 0.3024
949.50 0.3023
949.60 0.3022
949.70 0.3021
949.80 0.302
949.90 0.3019
950.00 0.3018
950.10 0.3017
950.20 0.3016
950.30 0.3015
950.40 0.3014
950.50 0.3014
950.60 0.3013
950.70 0.3012
950.80 0.3011
950.90 0.301
951.00 0.3009
951.10 0.3008
951.20 0.3007
951.30 0.3006
951.40 0.3005
951.50 0.3004
951.60 0.3003
951.70 0.3002
951.80 0.3001
951.90 0.3
952.00 0.2999
952.10 0.2997
952.20 0.2996
952.30 0.2995
952.40 0.2994
952.50 0.2993
952.60 0.2991
952.70 0.299
952.80 0.2989
952.90 0.2988
953.00 0.2986
953.10 0.2985
953.20 0.2983
953.30 0.2982
953.40 0.298
953.50 0.2979
953.60 0.2977
953.70 0.2976
953.80 0.2974
953.90 0.2972
954.00 0.297
954.10 0.2967
954.20 0.2966
954.30 0.2968
954.40 0.2964
954.50 0.2964
954.60 0.2965
954.70 0.2966
954.80 0.2966
954.90 0.2966
955.00 0.2967
955.10 0.2967
955.20 0.2967
955.30 0.2967
955.40 0.2967
955.50 0.2966
955.60 0.2966
955.70 0.2966
955.80 0.2966
955.90 0.2966
956.00 0.2965
956.10 0.2965
956.20 0.2965
956.30 0.2964
956.40 0.2964
956.50 0.2964
956.60 0.2963
956.70 0.2963
956.80 0.2963
956.90 0.2962
957.00 0.2962
957.10 0.2961
957.20 0.2961
957.30 0.296
957.40 0.296
957.50 0.2959
957.60 0.2959
957.70 0.2958
957.80 0.2957
957.90 0.2957
958.00 0.2956
958.10 0.2956
958.20 0.2955
958.30 0.2954
958.40 0.2954
958.50 0.2953
958.60 0.2953
958.70 0.2952
958.80 0.2951
958.90 0.2951
959.00 0.295
959.10 0.295
959.20 0.2949
959.30 0.2948
959.40 0.2948
959.50 0.2947
959.60 0.2946
959.70 0.2946
959.80 0.2945
959.90 0.2944
960.00 0.2944
960.10 0.2943
960.20 0.2942
960.30 0.2941
960.40 0.2941
960.50 0.294
960.60 0.2939
960.70 0.2939
960.80 0.2938
960.90 0.2937
961.00 0.2937
961.10 0.2936
961.20 0.2935
961.30 0.2935
961.40 0.2934
961.50 0.2933
961.60 0.2932
961.70 0.2932
961.80 0.2931
961.90 0.293
962.00 0.293
962.10 0.2929
962.20 0.2928
962.30 0.2927
962.40 0.2927
962.50 0.2926
962.60 0.2925
962.70 0.2925
962.80 0.2924
962.90 0.2923
963.00 0.2922
963.10 0.2922
963.20 0.2921
963.30 0.292
963.40 0.292
963.50 0.2919
963.60 0.2918
963.70 0.2917
963.80 0.2917
963.90 0.2916
964.00 0.2915
964.10 0.2915
964.20 0.2914
964.30 0.2913
964.40 0.2912
964.50 0.2912
964.60 0.2911
964.70 0.291
964.80 0.2909
964.90 0.2909
965.00 0.2908
965.10 0.2907
965.20 0.2907
965.30 0.2906
965.40 0.2905
965.50 0.2904
965.60 0.2904
965.70 0.2903
965.80 0.2902
965.90 0.2901
966.00 0.2901
966.10 0.29
966.20 0.2899
966.30 0.2899
966.40 0.2898
966.50 0.2897
966.60 0.2896
966.70 0.2896
966.80 0.2895
966.90 0.2894
967.00 0.2893
967.10 0.2893
967.20 0.2892
967.30 0.2891
967.40 0.2891
967.50 0.289
967.60 0.2889
967.70 0.2888
967.80 0.2888
967.90 0.2887
968.00 0.2886
968.10 0.2885
968.20 0.2885
968.30 0.2884
968.40 0.2883
968.50 0.2883
968.60 0.2882
968.70 0.2881
968.80 0.288
968.90 0.288
969.00 0.2879
969.10 0.2878
969.20 0.2877
969.30 0.2877
969.40 0.2876
969.50 0.2875
969.60 0.2874
969.70 0.2874
969.80 0.2873
969.90 0.2872
970.00 0.2872
970.10 0.2871
970.20 0.287
970.30 0.2869
970.40 0.2869
970.50 0.2868
970.60 0.2867
970.70 0.2866
970.80 0.2866
970.90 0.2865
971.00 0.2864
971.10 0.2864
971.20 0.2863
971.30 0.2862
971.40 0.2861
971.50 0.2861
971.60 0.286
971.70 0.2859
971.80 0.2858
971.90 0.2858
972.00 0.2857
972.10 0.2856
972.20 0.2856
972.30 0.2855
972.40 0.2854
972.50 0.2853
972.60 0.2853
972.70 0.2852
972.80 0.2851
972.90 0.2851
973.00 0.285
973.10 0.2849
973.20 0.2848
973.30 0.2848
973.40 0.2847
973.50 0.2846
973.60 0.2846
973.70 0.2845
973.80 0.2844
973.90 0.2843
974.00 0.2843
974.10 0.2842
974.20 0.2841
974.30 0.2841
974.40 0.284
974.50 0.2839
974.60 0.2838
974.70 0.2838
974.80 0.2837
974.90 0.2836
975.00 0.2836
975.10 0.2835
975.20 0.2834
975.30 0.2833
975.40 0.2833
975.50 0.2832
975.60 0.2831
975.70 0.283
975.80 0.283
975.90 0.2829
976.00 0.2828
976.10 0.2828
976.20 0.2827
976.30 0.2826
976.40 0.2825
976.50 0.2825
976.60 0.2824
976.70 0.2823
976.80 0.2823
976.90 0.2822
977.00 0.2821
977.10 0.282
977.20 0.282
977.30 0.2819
977.40 0.2818
977.50 0.2818
977.60 0.2817
977.70 0.2816
977.80 0.2815
977.90 0.2815
978.00 0.2814
978.10 0.2813
978.20 0.2813
978.30 0.2812
978.40 0.2811
978.50 0.281
978.60 0.281
978.70 0.2809
978.80 0.2808
978.90 0.2808
979.00 0.2807
979.10 0.2806
979.20 0.2806
979.30 0.2805
979.40 0.2804
979.50 0.2803
979.60 0.2803
979.70 0.2802
979.80 0.2801
979.90 0.2801
980.00 0.28
980.10 0.2799
980.20 0.2798
980.30 0.2798
980.40 0.2797
980.50 0.2796
980.60 0.2796
980.70 0.2795
980.80 0.2794
980.90 0.2794
981.00 0.2793
981.10 0.2792
981.20 0.2791
981.30 0.2791
981.40 0.279
981.50 0.2789
981.60 0.2789
981.70 0.2788
981.80 0.2787
981.90 0.2787
982.00 0.2786
982.10 0.2785
982.20 0.2784
982.30 0.2784
982.40 0.2783
982.50 0.2782
982.60 0.2782
982.70 0.2781
982.80 0.278
982.90 0.278
983.00 0.2779
983.10 0.2778
983.20 0.2777
983.30 0.2777
983.40 0.2776
983.50 0.2775
983.60 0.2775
983.70 0.2774
983.80 0.2773
983.90 0.2773
984.00 0.2772
984.10 0.2771
984.20 0.277
984.30 0.277
984.40 0.2769
984.50 0.2768
984.60 0.2768
984.70 0.2767
984.80 0.2766
984.90 0.2766
985.00 0.2765
985.10 0.2764
985.20 0.2763
985.30 0.2763
985.40 0.2762
985.50 0.2761
985.60 0.2761
985.70 0.276
985.80 0.2759
985.90 0.2759
986.00 0.2758
986.10 0.2757
986.20 0.2756
986.30 0.2756
986.40 0.2755
986.50 0.2754
986.60 0.2754
986.70 0.2753
986.80 0.2752
986.90 0.2752
987.00 0.2751
987.10 0.275
987.20 0.275
987.30 0.2749
987.40 0.2748
987.50 0.2747
987.60 0.2747
987.70 0.2746
987.80 0.2745
987.90 0.2745
988.00 0.2744
988.10 0.2743
988.20 0.2743
988.30 0.2742
988.40 0.2741
988.50 0.2741
988.60 0.274
988.70 0.2739
988.80 0.2739
988.90 0.2738
989.00 0.2737
989.10 0.2737
989.20 0.2736
989.30 0.2735
989.40 0.2734
989.50 0.2734
989.60 0.2733
989.70 0.2732
989.80 0.2732
989.90 0.2731
990.00 0.273
990.10 0.273
990.20 0.2729
990.30 0.2728
990.40 0.2727
990.50 0.2727
990.60 0.2726
990.70 0.2725
990.80 0.2725
990.90 0.2724
991.00 0.2723
991.10 0.2723
991.20 0.2722
991.30 0.2721
991.40 0.272
991.50 0.272
991.60 0.2719
991.70 0.2718
991.80 0.2718
991.90 0.2717
992.00 0.2716
992.10 0.2716
992.20 0.2715
992.30 0.2714
992.40 0.2714
992.50 0.2713
992.60 0.2712
992.70 0.2712
992.80 0.2711
992.90 0.271
993.00 0.2709
993.10 0.2709
993.20 0.2708
993.30 0.2707
993.40 0.2707
993.50 0.2706
993.60 0.2705
993.70 0.2705
993.80 0.2704
993.90 0.2703
994.00 0.2703
994.10 0.2702
994.20 0.2701
994.30 0.27
994.40 0.27
994.50 0.2699
994.60 0.2698
994.70 0.2698
994.80 0.2697
994.90 0.2696
995.00 0.2696
995.10 0.2695
995.20 0.2694
995.30 0.2693
995.40 0.2693
995.50 0.2692
995.60 0.2691
995.70 0.2691
995.80 0.269
995.90 0.2689
996.00 0.2688
996.10 0.2688
996.20 0.2687
996.30 0.2686
996.40 0.2686
996.50 0.2685
996.60 0.2684
996.70 0.2683
996.80 0.2683
996.90 0.2682
997.00 0.2681
997.10 0.2681
997.20 0.268
997.30 0.2679
997.40 0.2678
997.50 0.2678
997.60 0.2677
997.70 0.2676
997.80 0.2675
997.90 0.2675
998.00 0.2674
998.10 0.2673
998.20 0.2672
998.30 0.2671
998.40 0.2671
998.50 0.267
998.60 0.2669
998.70 0.2668
998.80 0.2667
998.90 0.2667
999.00 0.2666
999.10 0.2665
999.20 0.2664
999.30 0.2664
999.40 0.2663
999.50 0.2662
999.60 0.2661
999.70 0.266
999.80 0.2659
999.90 0.2658
1000.00 0.2657
1000.10 0.2656
1000.20 0.2655
1000.30 0.2654
1000.40 0.2653
1000.50 0.2652
1000.60 0.2651
1000.70 0.265
1000.80 0.2649
1000.90 0.2648
1001.00 0.2647
1001.10 0.2646
1001.20 0.2645
1001.30 0.2644
1001.40 0.2643
1001.50 0.2642
1001.60 0.2641
1001.70 0.264
1001.80 0.2639
1001.90 0.2637
1002.00 0.2636
1002.10 0.2634
1002.20 0.2633
1002.30 0.2631
1002.40 0.263
1002.50 0.2628
1002.60 0.2626
1002.70 0.2625
1002.80 0.2623
1002.90 0.2621
1003.00 0.262
1003.10 0.2618
1003.20 0.2616
1003.30 0.2614
1003.40 0.2611
1003.50 0.2609
1003.60 0.2607
1003.70 0.2605
1003.80 0.2602
1003.90 0.2599
1004.00 0.2596
1004.10 0.2593
1004.20 0.259
1004.30 0.2586
1004.40 0.2582
1004.50 0.2578
1004.60 0.2581
1004.70 0.2577
1004.80 0.2578
1004.90 0.2581
1005.00 0.2584
1005.10 0.2586
1005.20 0.2587
1005.30 0.2589
1005.40 0.2591
1005.50 0.2592
1005.60 0.2593
1005.70 0.2594
1005.80 0.2595
1005.90 0.2596
1006.00 0.2597
1006.10 0.2598
1006.20 0.2598
1006.30 0.2599
1006.40 0.2599
1006.50 0.26
1006.60 0.26
1006.70 0.26
1006.80 0.2601
1006.90 0.2601
1007.00 0.2602
1007.10 0.2602
1007.20 0.2602
1007.30 0.2602
1007.40 0.2602
1007.50 0.2602
1007.60 0.2602
1007.70 0.2602
1007.80 0.2601
1007.90 0.2601
1008.00 0.2601
1008.10 0.26
1008.20 0.26
1008.30 0.26
1008.40 0.2599
1008.50 0.2599
1008.60 0.2599
1008.70 0.2598
1008.80 0.2598
1008.90 0.2598
1009.00 0.2597
1009.10 0.2597
1009.20 0.2597
1009.30 0.2596
1009.40 0.2596
1009.50 0.2596
1009.60 0.2596
1009.70 0.2595
1009.80 0.2595
1009.90 0.2594
1010.00 0.2593
1010.10 0.2593
1010.20 0.2592
1010.30 0.2592
1010.40 0.2591
1010.50 0.2591
1010.60 0.259
1010.70 0.259
1010.80 0.2589
1010.90 0.2589
1011.00 0.2588
1011.10 0.2588
1011.20 0.2587
1011.30 0.2587
1011.40 0.2586
1011.50 0.2586
1011.60 0.2585
1011.70 0.2585
1011.80 0.2584
1011.90 0.2583
1012.00 0.2583
1012.10 0.2582
1012.20 0.2582
1012.30 0.2581
1012.40 0.258
1012.50 0.258
1012.60 0.2579
1012.70 0.2579
1012.80 0.2578
1012.90 0.2578
1013.00 0.2577
1013.10 0.2576
1013.20 0.2576
1013.30 0.2575
1013.40 0.2575
1013.50 0.2574
1013.60 0.2573
1013.70 0.2573
1013.80 0.2572
1013.90 0.2572
1014.00 0.2571
1014.10 0.257
1014.20 0.257
1014.30 0.2569
1014.40 0.2569
1014.50 0.2568
1014.60 0.2567
1014.70 0.2567
1014.80 0.2566
1014.90 0.2566
1015.00 0.2565
1015.10 0.2564
1015.20 0.2564
1015.30 0.2563
1015.40 0.2562
1015.50 0.2562
1015.60 0.2561
1015.70 0.2561
1015.80 0.256
1015.90 0.2559
1016.00 0.2559
1016.10 0.2558
1016.20 0.2558
1016.30 0.2557
1016.40 0.2556
1016.50 0.2556
1016.60 0.2555
1016.70 0.2554
1016.80 0.2554
1016.90 0.2553
1017.00 0.2553
1017.10 0.2552
1017.20 0.2551
1017.30 0.2551
1017.40 0.255
1017.50 0.2549
1017.60 0.2549
1017.70 0.2548
1017.80 0.2548
1017.90 0.2547
1018.00 0.2546
1018.10 0.2546
1018.20 0.2545
1018.30 0.2544
1018.40 0.2544
1018.50 0.2543
1018.60 0.2543
1018.70 0.2542
1018.80 0.2541
1018.90 0.2541
1019.00 0.254
1019.10 0.2539
1019.20 0.2539
1019.30 0.2538
1019.40 0.2538
1019.50 0.2537
1019.60 0.2536
1019.70 0.2536
1019.80 0.2535
1019.90 0.2534
1020.00 0.2534
1020.10 0.2533
1020.20 0.2533
1020.30 0.2532
1020.40 0.2531
1020.50 0.2531
1020.60 0.253
1020.70 0.253
1020.80 0.2529
1020.90 0.2528
1021.00 0.2528
1021.10 0.2527
1021.20 0.2527
1021.30 0.2526
1021.40 0.2525
1021.50 0.2525
1021.60 0.2524
1021.70 0.2523
1021.80 0.2523
1021.90 0.2522
1022.00 0.2522
1022.10 0.2521
1022.20 0.252
1022.30 0.252
1022.40 0.2519
1022.50 0.2519
1022.60 0.2518
1022.70 0.2517
1022.80 0.2517
1022.90 0.2516
1023.00 0.2515
1023.10 0.2515
1023.20 0.2514
1023.30 0.2514
1023.40 0.2513
1023.50 0.2512
1023.60 0.2512
1023.70 0.2511
1023.80 0.251
1023.90 0.251
1024.00 0.2509
1024.10 0.2509
1024.20 0.2508
1024.30 0.2507
1024.40 0.2507
1024.50 0.2506
1024.60 0.2505
1024.70 0.2505
1024.80 0.2504
1024.90 0.2504
1025.00 0.2503
1025.10 0.2502
1025.20 0.2502
1025.30 0.2501
1025.40 0.2501
1025.50 0.25
1025.60 0.2499
1025.70 0.2499
1025.80 0.2498
1025.90 0.2498
1026.00 0.2497
1026.10 0.2496
1026.20 0.2496
1026.30 0.2495
1026.40 0.2495
1026.50 0.2494
1026.60 0.2493
1026.70 0.2493
1026.80 0.2492
1026.90 0.2492
1027.00 0.2491
1027.10 0.249
1027.20 0.249
1027.30 0.2489
1027.40 0.2488
1027.50 0.2488
1027.60 0.2487
1027.70 0.2487
1027.80 0.2486
1027.90 0.2485
1028.00 0.2485
1028.10 0.2484
1028.20 0.2484
1028.30 0.2483
1028.40 0.2482
1028.50 0.2482
1028.60 0.2481
1028.70 0.248
1028.80 0.248
1028.90 0.2479
1029.00 0.2479
1029.10 0.2478
1029.20 0.2477
1029.30 0.2477
1029.40 0.2476
1029.50 0.2476
1029.60 0.2475
1029.70 0.2474
1029.80 0.2474
1029.90 0.2473
1030.00 0.2473
1030.10 0.2472
1030.20 0.2471
1030.30 0.2471
1030.40 0.247
1030.50 0.247
1030.60 0.2469
1030.70 0.2468
1030.80 0.2468
1030.90 0.2467
1031.00 0.2466
1031.10 0.2466
1031.20 0.2465
1031.30 0.2465
1031.40 0.2464
1031.50 0.2463
1031.60 0.2463
1031.70 0.2462
1031.80 0.2462
1031.90 0.2461
1032.00 0.246
1032.10 0.246
1032.20 0.2459
1032.30 0.2459
1032.40 0.2458
1032.50 0.2457
1032.60 0.2457
1032.70 0.2456
1032.80 0.2456
1032.90 0.2455
1033.00 0.2454
1033.10 0.2454
1033.20 0.2453
1033.30 0.2453
1033.40 0.2452
1033.50 0.2451
1033.60 0.2451
1033.70 0.245
1033.80 0.245
1033.90 0.2449
1034.00 0.2448
1034.10 0.2448
1034.20 0.2447
1034.30 0.2447
1034.40 0.2446
1034.50 0.2445
1034.60 0.2445
1034.70 0.2444
1034.80 0.2444
1034.90 0.2443
1035.00 0.2442
1035.10 0.2442
1035.20 0.2441
1035.30 0.2441
1035.40 0.244
1035.50 0.244
1035.60 0.2439
1035.70 0.2438
1035.80 0.2438
1035.90 0.2437
1036.00 0.2437
1036.10 0.2436
1036.20 0.2435
1036.30 0.2435
1036.40 0.2434
1036.50 0.2434
1036.60 0.2433
1036.70 0.2432
1036.80 0.2432
1036.90 0.2431
1037.00 0.2431
1037.10 0.243
1037.20 0.2429
1037.30 0.2429
1037.40 0.2428
1037.50 0.2428
1037.60 0.2427
1037.70 0.2426
1037.80 0.2426
1037.90 0.2425
1038.00 0.2425
1038.10 0.2424
1038.20 0.2424
1038.30 0.2423
1038.40 0.2422
1038.50 0.2422
1038.60 0.2421
1038.70 0.2421
1038.80 0.242
1038.90 0.2419
1039.00 0.2419
1039.10 0.2418
1039.20 0.2418
1039.30 0.2417
1039.40 0.2416
1039.50 0.2416
1039.60 0.2415
1039.70 0.2415
1039.80 0.2414
1039.90 0.2413
1040.00 0.2413
1040.10 0.2412
1040.20 0.2412
1040.30 0.2411
1040.40 0.241
1040.50 0.241
1040.60 0.2409
1040.70 0.2409
1040.80 0.2408
1040.90 0.2408
1041.00 0.2407
1041.10 0.2406
1041.20 0.2406
1041.30 0.2405
1041.40 0.2405
1041.50 0.2404
1041.60 0.2403
1041.70 0.2403
1041.80 0.2402
1041.90 0.2402
1042.00 0.2401
1042.10 0.2401
1042.20 0.24
1042.30 0.2399
1042.40 0.2399
1042.50 0.2398
1042.60 0.2398
1042.70 0.2397
1042.80 0.2396
1042.90 0.2396
1043.00 0.2395
1043.10 0.2395
1043.20 0.2394
1043.30 0.2394
1043.40 0.2393
1043.50 0.2392
1043.60 0.2392
1043.70 0.2391
1043.80 0.2391
1043.90 0.239
1044.00 0.2389
1044.10 0.2389
1044.20 0.2388
1044.30 0.2388
1044.40 0.2387
1044.50 0.2387
1044.60 0.2386
1044.70 0.2385
1044.80 0.2385
1044.90 0.2384
1045.00 0.2384
1045.10 0.2383
1045.20 0.2383
1045.30 0.2382
1045.40 0.2381
1045.50 0.2381
1045.60 0.238
1045.70 0.238
1045.80 0.2379
1045.90 0.2379
1046.00 0.2378
1046.10 0.2377
1046.20 0.2377
1046.30 0.2376
1046.40 0.2376
1046.50 0.2375
1046.60 0.2374
1046.70 0.2374
1046.80 0.2373
1046.90 0.2373
1047.00 0.2372
1047.10 0.2372
1047.20 0.2371
1047.30 0.237
1047.40 0.237
1047.50 0.2369
1047.60 0.2369
1047.70 0.2368
1047.80 0.2368
1047.90 0.2367
1048.00 0.2366
1048.10 0.2366
1048.20 0.2365
1048.30 0.2365
1048.40 0.2364
1048.50 0.2364
1048.60 0.2363
1048.70 0.2362
1048.80 0.2362
1048.90 0.2361
1049.00 0.2361
1049.10 0.236
1049.20 0.236
1049.30 0.2359
1049.40 0.2358
1049.50 0.2358
1049.60 0.2357
1049.70 0.2357
1049.80 0.2356
1049.90 0.2356
1050.00 0.2355
1050.10 0.2354
1050.20 0.2354
1050.30 0.2353
1050.40 0.2353
1050.50 0.2352
1050.60 0.2352
1050.70 0.2351
1050.80 0.235
1050.90 0.235
1051.00 0.2349
1051.10 0.2349
1051.20 0.2348
1051.30 0.2348
1051.40 0.2347
1051.50 0.2346
1051.60 0.2346
1051.70 0.2345
1051.80 0.2345
1051.90 0.2344
1052.00 0.2344
1052.10 0.2343
1052.20 0.2342
1052.30 0.2342
1052.40 0.2341
1052.50 0.2341
1052.60 0.234
1052.70 0.234
1052.80 0.2339
1052.90 0.2338
1053.00 0.2338
1053.10 0.2337
1053.20 0.2337
1053.30 0.2336
1053.40 0.2336
1053.50 0.2335
1053.60 0.2334
1053.70 0.2334
1053.80 0.2333
1053.90 0.2333
1054.00 0.2332
1054.10 0.2332
1054.20 0.2331
1054.30 0.2331
1054.40 0.233
1054.50 0.2329
1054.60 0.2329
1054.70 0.2328
1054.80 0.2328
1054.90 0.2327
1055.00 0.2327
1055.10 0.2326
1055.20 0.2325
1055.30 0.2325
1055.40 0.2324
1055.50 0.2324
1055.60 0.2323
1055.70 0.2323
1055.80 0.2322
1055.90 0.2322
1056.00 0.2321
1056.10 0.232
1056.20 0.232
1056.30 0.2319
1056.40 0.2319
1056.50 0.2318
1056.60 0.2318
1056.70 0.2317
1056.80 0.2316
1056.90 0.2316
1057.00 0.2315
1057.10 0.2315
1057.20 0.2314
1057.30 0.2314
1057.40 0.2313
1057.50 0.2313
1057.60 0.2312
1057.70 0.2311
1057.80 0.2311
1057.90 0.231
1058.00 0.231
1058.10 0.2309
1058.20 0.2309
1058.30 0.2308
1058.40 0.2308
1058.50 0.2307
1058.60 0.2306
1058.70 0.2306
1058.80 0.2305
1058.90 0.2305
1059.00 0.2304
1059.10 0.2304
1059.20 0.2303
1059.30 0.2303
1059.40 0.2302
1059.50 0.2301
1059.60 0.2301
1059.70 0.23
1059.80 0.23
1059.90 0.2299
1060.00 0.2299
1060.10 0.2298
1060.20 0.2298
1060.30 0.2297
1060.40 0.2296
1060.50 0.2296
1060.60 0.2295
1060.70 0.2295
1060.80 0.2294
1060.90 0.2294
1061.00 0.2293
1061.10 0.2293
1061.20 0.2292
1061.30 0.2291
1061.40 0.2291
1061.50 0.229
1061.60 0.229
1061.70 0.2289
1061.80 0.2289
1061.90 0.2288
1062.00 0.2288
1062.10 0.2287
1062.20 0.2286
1062.30 0.2286
1062.40 0.2285
1062.50 0.2285
1062.60 0.2284
1062.70 0.2284
1062.80 0.2283
1062.90 0.2283
1063.00 0.2282
1063.10 0.2282
1063.20 0.2281
1063.30 0.228
1063.40 0.228
1063.50 0.2279
1063.60 0.2279
1063.70 0.2278
1063.80 0.2278
1063.90 0.2277
1064.00 0.2277
1064.10 0.2276
1064.20 0.2275
1064.30 0.2275
1064.40 0.2274
1064.50 0.2274
1064.60 0.2273
1064.70 0.2273
1064.80 0.2272
1064.90 0.2272
1065.00 0.2271
1065.10 0.2271
1065.20 0.227
1065.30 0.2269
1065.40 0.2269
1065.50 0.2268
1065.60 0.2268
1065.70 0.2267
1065.80 0.2267
1065.90 0.2266
1066.00 0.2266
1066.10 0.2265
1066.20 0.2265
1066.30 0.2264
1066.40 0.2263
1066.50 0.2263
1066.60 0.2262
1066.70 0.2262
1066.80 0.2261
1066.90 0.2261
1067.00 0.226
1067.10 0.226
1067.20 0.2259
1067.30 0.2259
1067.40 0.2258
1067.50 0.2257
1067.60 0.2257
1067.70 0.2256
1067.80 0.2256
1067.90 0.2255
1068.00 0.2255
1068.10 0.2254
1068.20 0.2254
1068.30 0.2253
1068.40 0.2253
1068.50 0.2252
1068.60 0.2252
1068.70 0.2251
1068.80 0.225
1068.90 0.225
1069.00 0.2249
1069.10 0.2249
1069.20 0.2248
1069.30 0.2248
1069.40 0.2247
1069.50 0.2247
1069.60 0.2246
1069.70 0.2246
1069.80 0.2245
1069.90 0.2245
1070.00 0.2244
1070.10 0.2243
1070.20 0.2243
1070.30 0.2242
1070.40 0.2242
1070.50 0.2241
1070.60 0.2241
1070.70 0.224
1070.80 0.224
1070.90 0.2239
1071.00 0.2239
1071.10 0.2238
1071.20 0.2238
1071.30 0.2237
1071.40 0.2236
1071.50 0.2236
1071.60 0.2235
1071.70 0.2235
1071.80 0.2234
1071.90 0.2234
1072.00 0.2233
1072.10 0.2233
1072.20 0.2232
1072.30 0.2232
1072.40 0.2231
1072.50 0.2231
1072.60 0.223
1072.70 0.223
1072.80 0.2229
1072.90 0.2228
1073.00 0.2228
1073.10 0.2227
1073.20 0.2227
1073.30 0.2226
1073.40 0.2226
1073.50 0.2225
1073.60 0.2225
1073.70 0.2224
1073.80 0.2224
1073.90 0.2223
1074.00 0.2223
1074.10 0.2222
1074.20 0.2221
1074.30 0.2221
1074.40 0.222
1074.50 0.222
1074.60 0.2219
1074.70 0.2219
1074.80 0.2218
1074.90 0.2218
1075.00 0.2217
1075.10 0.2217
1075.20 0.2216
1075.30 0.2216
1075.40 0.2215
1075.50 0.2215
1075.60 0.2214
1075.70 0.2213
1075.80 0.2213
1075.90 0.2212
1076.00 0.2212
1076.10 0.2211
1076.20 0.2211
1076.30 0.221
1076.40 0.221
1076.50 0.2209
1076.60 0.2209
1076.70 0.2208
1076.80 0.2208
1076.90 0.2207
1077.00 0.2207
1077.10 0.2206
1077.20 0.2205
1077.30 0.2205
1077.40 0.2204
1077.50 0.2204
1077.60 0.2203
1077.70 0.2203
1077.80 0.2202
1077.90 0.2202
1078.00 0.2201
1078.10 0.2201
1078.20 0.22
1078.30 0.22
1078.40 0.2199
1078.50 0.2199
1078.60 0.2198
1078.70 0.2198
1078.80 0.2197
1078.90 0.2197
1079.00 0.2196
1079.10 0.2195
1079.20 0.2195
1079.30 0.2194
1079.40 0.2194
1079.50 0.2193
1079.60 0.2193
1079.70 0.2192
1079.80 0.2192
1079.90 0.2191
1080.00 0.2191
1080.10 0.219
1080.20 0.219
1080.30 0.2189
1080.40 0.2189
1080.50 0.2188
1080.60 0.2187
1080.70 0.2187
1080.80 0.2186
1080.90 0.2186
1081.00 0.2185
1081.10 0.2185
1081.20 0.2184
1081.30 0.2184
1081.40 0.2183
1081.50 0.2183
1081.60 0.2182
1081.70 0.2182
1081.80 0.2181
1081.90 0.218
1082.00 0.218
1082.10 0.2179
1082.20 0.2179
1082.30 0.2178
1082.40 0.2178
1082.50 0.2177
1082.60 0.2177
1082.70 0.2176
1082.80 0.2176
1082.90 0.2175
1083.00 0.2174
1083.10 0.2174
1083.20 0.2173
1083.30 0.2173
1083.40 0.2172
1083.50 0.2172
1083.60 0.2171
1083.70 0.2171
1083.80 0.217
1083.90 0.217
1084.00 0.2169
1084.10 0.2168
1084.20 0.2168
1084.30 0.2167
1084.40 0.2167
1084.50 0.2166
1084.60 0.2166
1084.70 0.2165
1084.80 0.2164
1084.90 0.2164
1085.00 0.2163
1085.10 0.2163
1085.20 0.2162
1085.30 0.2162
1085.40 0.2161
1085.50 0.216
1085.60 0.216
1085.70 0.2159
1085.80 0.2159
1085.90 0.2158
1086.00 0.2157
1086.10 0.2157
1086.20 0.2156
1086.30 0.2156
1086.40 0.2155
1086.50 0.2154
1086.60 0.2154
1086.70 0.2153
1086.80 0.2153
1086.90 0.2152
1087.00 0.2151
1087.10 0.2151
1087.20 0.215
1087.30 0.2149
1087.40 0.2149
1087.50 0.2148
1087.60 0.2147
1087.70 0.2146
1087.80 0.2146
1087.90 0.2145
1088.00 0.2144
1088.10 0.2144
1088.20 0.2143
1088.30 0.2142
1088.40 0.2142
1088.50 0.2141
1088.60 0.214
1088.70 0.2139
1088.80 0.2138
1088.90 0.2137
1089.00 0.2136
1089.10 0.2135
1089.20 0.2134
1089.30 0.2133
1089.40 0.2131
1089.50 0.213
1089.60 0.2129
1089.70 0.2128
1089.80 0.2127
1089.90 0.2126
1090.00 0.2125
1090.10 0.2124
1090.20 0.2123
1090.30 0.2122
1090.40 0.2121
1090.50 0.212
1090.60 0.2118
1090.70 0.2116
1090.80 0.2114
1090.90 0.2112
1091.00 0.211
1091.10 0.2108
1091.20 0.2106
1091.30 0.2104
1091.40 0.2102
1091.50 0.21
1091.60 0.2098
1091.70 0.2096
1091.80 0.2093
1091.90 0.2091
1092.00 0.2089
1092.10 0.2085
1092.20 0.2082
1092.30 0.2078
1092.40 0.2074
1092.50 0.207
1092.60 0.2067
1092.70 0.2062
1092.80 0.2057
1092.90 0.2052
1093.00 0.2046
1093.10 0.204
1093.20 0.2031
1093.30 0.2022
1093.40 0.2015
1093.50 0.2016
1093.60 0.2017
1093.70 0.2026
1093.80 0.2033
1093.90 0.204
1094.00 0.2044
1094.10 0.2049
1094.20 0.2053
1094.30 0.2057
1094.40 0.206
1094.50 0.2063
1094.60 0.2065
1094.70 0.2068
1094.80 0.2071
1094.90 0.2073
1095.00 0.2075
1095.10 0.2077
1095.20 0.2078
1095.30 0.2079
1095.40 0.208
1095.50 0.2081
1095.60 0.2082
1095.70 0.2083
1095.80 0.2084
1095.90 0.2085
1096.00 0.2086
1096.10 0.2087
1096.20 0.2088
1096.30 0.2089
1096.40 0.209
1096.50 0.2091
1096.60 0.2091
1096.70 0.2091
1096.80 0.2091
1096.90 0.2092
1097.00 0.2092
1097.10 0.2092
1097.20 0.2092
1097.30 0.2092
1097.40 0.2092
1097.50 0.2092
1097.60 0.2092
1097.70 0.2091
1097.80 0.2091
1097.90 0.2091
1098.00 0.2091
1098.10 0.2091
1098.20 0.2091
1098.30 0.2091
1098.40 0.2091
1098.50 0.2091
1098.60 0.2091
1098.70 0.209
1098.80 0.209
1098.90 0.209
1099.00 0.2089
1099.10 0.2089
1099.20 0.2089
1099.30 0.2088
1099.40 0.2088
1099.50 0.2088
1099.60 0.2087
1099.70 0.2087
1099.80 0.2087
1099.90 0.2086
1100.00 0.2086
1100.10 0.2086
1100.20 0.2085
1100.30 0.2085
1100.40 0.2085
1100.50 0.2084
1100.60 0.2084
1100.70 0.2084
1100.80 0.2083
1100.90 0.2083
1101.00 0.2082
1101.10 0.2082
1101.20 0.2082
1101.30 0.2081
1101.40 0.2081
1101.50 0.208
1101.60 0.208
1101.70 0.2079
1101.80 0.2079
1101.90 0.2079
1102.00 0.2078
1102.10 0.2078
1102.20 0.2077
1102.30 0.2077
1102.40 0.2076
1102.50 0.2076
1102.60 0.2076
1102.70 0.2075
1102.80 0.2075
1102.90 0.2074
1103.00 0.2074
1103.10 0.2073
1103.20 0.2073
1103.30 0.2072
1103.40 0.2072
1103.50 0.2072
1103.60 0.2071
1103.70 0.2071
1103.80 0.207
1103.90 0.207
1104.00 0.2069
1104.10 0.2069
1104.20 0.2068
1104.30 0.2068
1104.40 0.2067
1104.50 0.2067
1104.60 0.2066
1104.70 0.2066
1104.80 0.2066
1104.90 0.2065
1105.00 0.2065
1105.10 0.2064
1105.20 0.2064
1105.30 0.2063
1105.40 0.2063
1105.50 0.2062
1105.60 0.2062
1105.70 0.2061
1105.80 0.2061
1105.90 0.206
1106.00 0.206
1106.10 0.2059
1106.20 0.2059
1106.30 0.2059
1106.40 0.2058
1106.50 0.2058
1106.60 0.2057
1106.70 0.2057
1106.80 0.2056
1106.90 0.2056
1107.00 0.2055
1107.10 0.2055
1107.20 0.2054
1107.30 0.2054
1107.40 0.2053
1107.50 0.2053
1107.60 0.2052
1107.70 0.2052
1107.80 0.2051
1107.90 0.2051
1108.00 0.205
1108.10 0.205
1108.20 0.205
1108.30 0.2049
1108.40 0.2049
1108.50 0.2048
1108.60 0.2048
1108.70 0.2047
1108.80 0.2047
1108.90 0.2046
1109.00 0.2046
1109.10 0.2045
1109.20 0.2045
1109.30 0.2044
1109.40 0.2044
1109.50 0.2043
1109.60 0.2043
1109.70 0.2042
1109.80 0.2042
1109.90 0.2041
1110.00 0.2041
1110.10 0.2041
1110.20 0.204
1110.30 0.204
1110.40 0.2039
1110.50 0.2039
1110.60 0.2038
1110.70 0.2038
1110.80 0.2037
1110.90 0.2037
1111.00 0.2036
1111.10 0.2036
1111.20 0.2035
1111.30 0.2035
1111.40 0.2034
1111.50 0.2034
1111.60 0.2034
1111.70 0.2033
1111.80 0.2033
1111.90 0.2032
1112.00 0.2032
1112.10 0.2031
1112.20 0.2031
1112.30 0.203
1112.40 0.203
1112.50 0.2029
1112.60 0.2029
1112.70 0.2028
1112.80 0.2028
1112.90 0.2027
1113.00 0.2027
1113.10 0.2026
1113.20 0.2026
1113.30 0.2025
1113.40 0.2025
1113.50 0.2025
1113.60 0.2024
1113.70 0.2024
1113.80 0.2023
1113.90 0.2023
1114.00 0.2022
1114.10 0.2022
1114.20 0.2021
1114.30 0.2021
1114.40 0.202
1114.50 0.202
1114.60 0.2019
1114.70 0.2019
1114.80 0.2018
1114.90 0.2018
1115.00 0.2018
1115.10 0.2017
1115.20 0.2017
1115.30 0.2016
1115.40 0.2016
1115.50 0.2015
1115.60 0.2015
1115.70 0.2014
1115.80 0.2014
1115.90 0.2013
1116.00 0.2013
1116.10 0.2012
1116.20 0.2012
1116.30 0.2011
1116.40 0.2011
1116.50 0.2011
1116.60 0.201
1116.70 0.201
1116.80 0.2009
1116.90 0.2009
1117.00 0.2008
1117.10 0.2008
1117.20 0.2007
1117.30 0.2007
1117.40 0.2006
1117.50 0.2006
1117.60 0.2005
1117.70 0.2005
1117.80 0.2004
1117.90 0.2004
1118.00 0.2004
1118.10 0.2003
1118.20 0.2003
1118.30 0.2002
1118.40 0.2002
1118.50 0.2001
1118.60 0.2001
1118.70 0.2
1118.80 0.2
1118.90 0.1999
1119.00 0.1999
1119.10 0.1998
1119.20 0.1998
1119.30 0.1997
1119.40 0.1997
1119.50 0.1997
1119.60 0.1996
1119.70 0.1996
1119.80 0.1995
1119.90 0.1995
1120.00 0.1994
1120.10 0.1994
1120.20 0.1993
1120.30 0.1993
1120.40 0.1992
1120.50 0.1992
1120.60 0.1991
1120.70 0.1991
1120.80 0.199
1120.90 0.199
1121.00 0.199
1121.10 0.1989
1121.20 0.1989
1121.30 0.1988
1121.40 0.1988
1121.50 0.1987
1121.60 0.1987
1121.70 0.1986
1121.80 0.1986
1121.90 0.1985
1122.00 0.1985
1122.10 0.1984
1122.20 0.1984
1122.30 0.1984
1122.40 0.1983
1122.50 0.1983
1122.60 0.1982
1122.70 0.1982
1122.80 0.1981
1122.90 0.1981
1123.00 0.198
1123.10 0.198
1123.20 0.1979
1123.30 0.1979
1123.40 0.1979
1123.50 0.1978
1123.60 0.1978
1123.70 0.1977
1123.80 0.1977
1123.90 0.1976
1124.00 0.1976
1124.10 0.1975
1124.20 0.1975
1124.30 0.1974
1124.40 0.1974
1124.50 0.1974
1124.60 0.1973
1124.70 0.1973
1124.80 0.1972
1124.90 0.1972
1125.00 0.1971
1125.10 0.1971
1125.20 0.197
1125.30 0.197
1125.40 0.1969
1125.50 0.1969
1125.60 0.1969
1125.70 0.1968
1125.80 0.1968
1125.90 0.1967
1126.00 0.1967
1126.10 0.1966
1126.20 0.1966
1126.30 0.1965
1126.40 0.1965
1126.50 0.1964
1126.60 0.1964
1126.70 0.1964
1126.80 0.1963
1126.90 0.1963
1127.00 0.1962
1127.10 0.1962
1127.20 0.1961
1127.30 0.1961
1127.40 0.196
1127.50 0.196
1127.60 0.1959
1127.70 0.1959
1127.80 0.1959
1127.90 0.1958
1128.00 0.1958
1128.10 0.1957
1128.20 0.1957
1128.30 0.1956
1128.40 0.1956
1128.50 0.1955
1128.60 0.1955
1128.70 0.1954
1128.80 0.1954
1128.90 0.1954
1129.00 0.1953
1129.10 0.1953
1129.20 0.1952
1129.30 0.1952
1129.40 0.1951
1129.50 0.1951
1129.60 0.195
1129.70 0.195
1129.80 0.1949
1129.90 0.1949
1130.00 0.1949
1130.10 0.1948
1130.20 0.1948
1130.30 0.1947
1130.40 0.1947
1130.50 0.1946
1130.60 0.1946
1130.70 0.1945
1130.80 0.1945
1130.90 0.1945
1131.00 0.1944
1131.10 0.1944
1131.20 0.1943
1131.30 0.1943
1131.40 0.1942
1131.50 0.1942
1131.60 0.1941
1131.70 0.1941
1131.80 0.194
1131.90 0.194
1132.00 0.194
1132.10 0.1939
1132.20 0.1939
1132.30 0.1938
1132.40 0.1938
1132.50 0.1937
1132.60 0.1937
1132.70 0.1936
1132.80 0.1936
1132.90 0.1936
1133.00 0.1935
1133.10 0.1935
1133.20 0.1934
1133.30 0.1934
1133.40 0.1933
1133.50 0.1933
1133.60 0.1932
1133.70 0.1932
1133.80 0.1932
1133.90 0.1931
1134.00 0.1931
1134.10 0.193
1134.20 0.193
1134.30 0.1929
1134.40 0.1929
1134.50 0.1928
1134.60 0.1928
1134.70 0.1927
1134.80 0.1927
1134.90 0.1927
1135.00 0.1926
1135.10 0.1926
1135.20 0.1925
1135.30 0.1925
1135.40 0.1924
1135.50 0.1924
1135.60 0.1923
1135.70 0.1923
1135.80 0.1923
1135.90 0.1922
1136.00 0.1922
1136.10 0.1921
1136.20 0.1921
1136.30 0.192
1136.40 0.192
1136.50 0.1919
1136.60 0.1919
1136.70 0.1919
1136.80 0.1918
1136.90 0.1918
1137.00 0.1917
1137.10 0.1917
1137.20 0.1916
1137.30 0.1916
1137.40 0.1916
1137.50 0.1915
1137.60 0.1915
1137.70 0.1914
1137.80 0.1914
1137.90 0.1913
1138.00 0.1913
1138.10 0.1912
1138.20 0.1912
1138.30 0.1912
1138.40 0.1911
1138.50 0.1911
1138.60 0.191
1138.70 0.191
1138.80 0.1909
1138.90 0.1909
1139.00 0.1909
1139.10 0.1908
1139.20 0.1908
1139.30 0.1907
1139.40 0.1907
1139.50 0.1906
1139.60 0.1906
1139.70 0.1905
1139.80 0.1905
1139.90 0.1905
1140.00 0.1904
1140.10 0.1904
1140.20 0.1903
1140.30 0.1903
1140.40 0.1902
1140.50 0.1902
1140.60 0.1902
1140.70 0.1901
1140.80 0.1901
1140.90 0.19
1141.00 0.19
1141.10 0.1899
1141.20 0.1899
1141.30 0.1899
1141.40 0.1898
1141.50 0.1898
1141.60 0.1897
1141.70 0.1897
1141.80 0.1896
1141.90 0.1896
1142.00 0.1895
1142.10 0.1895
1142.20 0.1895
1142.30 0.1894
1142.40 0.1894
1142.50 0.1893
1142.60 0.1893
1142.70 0.1892
1142.80 0.1892
1142.90 0.1892
1143.00 0.1891
1143.10 0.1891
1143.20 0.189
1143.30 0.189
1143.40 0.1889
1143.50 0.1889
1143.60 0.1889
1143.70 0.1888
1143.80 0.1888
1143.90 0.1887
1144.00 0.1887
1144.10 0.1886
1144.20 0.1886
1144.30 0.1885
1144.40 0.1885
1144.50 0.1885
1144.60 0.1884
1144.70 0.1884
1144.80 0.1883
1144.90 0.1883
1145.00 0.1882
1145.10 0.1882
1145.20 0.1882
1145.30 0.1881
1145.40 0.1881
1145.50 0.188
1145.60 0.188
1145.70 0.1879
1145.80 0.1879
1145.90 0.1879
1146.00 0.1878
1146.10 0.1878
1146.20 0.1877
1146.30 0.1877
1146.40 0.1876
1146.50 0.1876
1146.60 0.1876
1146.70 0.1875
1146.80 0.1875
1146.90 0.1874
1147.00 0.1874
1147.10 0.1873
1147.20 0.1873
1147.30 0.1873
1147.40 0.1872
1147.50 0.1872
1147.60 0.1871
1147.70 0.1871
1147.80 0.187
1147.90 0.187
1148.00 0.187
1148.10 0.1869
1148.20 0.1869
1148.30 0.1868
1148.40 0.1868
1148.50 0.1867
1148.60 0.1867
1148.70 0.1867
1148.80 0.1866
1148.90 0.1866
1149.00 0.1865
1149.10 0.1865
1149.20 0.1864
1149.30 0.1864
1149.40 0.1864
1149.50 0.1863
1149.60 0.1863
1149.70 0.1862
1149.80 0.1862
1149.90 0.1861
1150.00 0.1861
1150.10 0.1861
1150.20 0.186
1150.30 0.186
1150.40 0.1859
1150.50 0.1859
1150.60 0.1859
1150.70 0.1858
1150.80 0.1858
1150.90 0.1857
1151.00 0.1857
1151.10 0.1856
1151.20 0.1856
1151.30 0.1856
1151.40 0.1855
1151.50 0.1855
1151.60 0.1854
1151.70 0.1854
1151.80 0.1853
1151.90 0.1853
1152.00 0.1853
1152.10 0.1852
1152.20 0.1852
1152.30 0.1851
1152.40 0.1851
1152.50 0.1851
1152.60 0.185
1152.70 0.185
1152.80 0.1849
1152.90 0.1849
1153.00 0.1848
1153.10 0.1848
1153.20 0.1848
1153.30 0.1847
1153.40 0.1847
1153.50 0.1846
1153.60 0.1846
1153.70 0.1845
1153.80 0.1845
1153.90 0.1845
1154.00 0.1844
1154.10 0.1844
1154.20 0.1843
1154.30 0.1843
1154.40 0.1843
1154.50 0.1842
1154.60 0.1842
1154.70 0.1841
1154.80 0.1841
1154.90 0.184
1155.00 0.184
1155.10 0.184
1155.20 0.1839
1155.30 0.1839
1155.40 0.1838
1155.50 0.1838
1155.60 0.1838
1155.70 0.1837
1155.80 0.1837
1155.90 0.1836
1156.00 0.1836
1156.10 0.1835
1156.20 0.1835
1156.30 0.1835
1156.40 0.1834
1156.50 0.1834
1156.60 0.1833
1156.70 0.1833
1156.80 0.1833
1156.90 0.1832
1157.00 0.1832
1157.10 0.1831
1157.20 0.1831
1157.30 0.183
1157.40 0.183
1157.50 0.183
1157.60 0.1829
1157.70 0.1829
1157.80 0.1828
1157.90 0.1828
1158.00 0.1828
1158.10 0.1827
1158.20 0.1827
1158.30 0.1826
1158.40 0.1826
1158.50 0.1825
1158.60 0.1825
1158.70 0.1825
1158.80 0.1824
1158.90 0.1824
1159.00 0.1823
1159.10 0.1823
1159.20 0.1823
1159.30 0.1822
1159.40 0.1822
1159.50 0.1821
1159.60 0.1821
1159.70 0.182
1159.80 0.182
1159.90 0.182
1160.00 0.1819
1160.10 0.1819
1160.20 0.1818
1160.30 0.1818
1160.40 0.1818
1160.50 0.1817
1160.60 0.1817
1160.70 0.1816
1160.80 0.1816
1160.90 0.1815
1161.00 0.1815
1161.10 0.1815
1161.20 0.1814
1161.30 0.1814
1161.40 0.1813
1161.50 0.1813
1161.60 0.1813
1161.70 0.1812
1161.80 0.1812
1161.90 0.1811
1162.00 0.1811
1162.10 0.1811
1162.20 0.181
1162.30 0.181
1162.40 0.1809
1162.50 0.1809
1162.60 0.1808
1162.70 0.1808
1162.80 0.1808
1162.90 0.1807
1163.00 0.1807
1163.10 0.1806
1163.20 0.1806
1163.30 0.1806
1163.40 0.1805
1163.50 0.1805
1163.60 0.1804
1163.70 0.1804
1163.80 0.1804
1163.90 0.1803
1164.00 0.1803
1164.10 0.1802
1164.20 0.1802
1164.30 0.1802
1164.40 0.1801
1164.50 0.1801
1164.60 0.18
1164.70 0.18
1164.80 0.18
1164.90 0.1799
1165.00 0.1799
1165.10 0.1798
1165.20 0.1798
1165.30 0.1797
1165.40 0.1797
1165.50 0.1797
1165.60 0.1796
1165.70 0.1796
1165.80 0.1795
1165.90 0.1795
1166.00 0.1795
1166.10 0.1794
1166.20 0.1794
1166.30 0.1793
1166.40 0.1793
1166.50 0.1793
1166.60 0.1792
1166.70 0.1792
1166.80 0.1791
1166.90 0.1791
1167.00 0.1791
1167.10 0.179
1167.20 0.179
1167.30 0.1789
1167.40 0.1789
1167.50 0.1789
1167.60 0.1788
1167.70 0.1788
1167.80 0.1787
1167.90 0.1787
1168.00 0.1787
1168.10 0.1786
1168.20 0.1786
1168.30 0.1785
1168.40 0.1785
1168.50 0.1785
1168.60 0.1784
1168.70 0.1784
1168.80 0.1783
1168.90 0.1783
1169.00 0.1783
1169.10 0.1782
1169.20 0.1782
1169.30 0.1781
1169.40 0.1781
1169.50 0.1781
1169.60 0.178
1169.70 0.178
1169.80 0.1779
1169.90 0.1779
1170.00 0.1779
1170.10 0.1778
1170.20 0.1778
1170.30 0.1777
1170.40 0.1777
1170.50 0.1777
1170.60 0.1776
1170.70 0.1776
1170.80 0.1775
1170.90 0.1775
1171.00 0.1775
1171.10 0.1774
1171.20 0.1774
1171.30 0.1773
1171.40 0.1773
1171.50 0.1773
1171.60 0.1772
1171.70 0.1772
1171.80 0.1771
1171.90 0.1771
1172.00 0.1771
1172.10 0.177
1172.20 0.177
1172.30 0.1769
1172.40 0.1769
1172.50 0.1769
1172.60 0.1768
1172.70 0.1768
1172.80 0.1767
1172.90 0.1767
1173.00 0.1767
1173.10 0.1766
1173.20 0.1766
1173.30 0.1765
1173.40 0.1765
1173.50 0.1765
1173.60 0.1764
1173.70 0.1764
1173.80 0.1763
1173.90 0.1763
1174.00 0.1763
1174.10 0.1762
1174.20 0.1762
1174.30 0.1761
1174.40 0.1761
1174.50 0.1761
1174.60 0.176
1174.70 0.176
1174.80 0.1759
1174.90 0.1759
1175.00 0.1759
1175.10 0.1758
1175.20 0.1758
1175.30 0.1757
1175.40 0.1757
1175.50 0.1757
1175.60 0.1756
1175.70 0.1756
1175.80 0.1755
1175.90 0.1755
1176.00 0.1755
1176.10 0.1754
1176.20 0.1754
1176.30 0.1754
1176.40 0.1753
1176.50 0.1753
1176.60 0.1752
1176.70 0.1752
1176.80 0.1752
1176.90 0.1751
1177.00 0.1751
1177.10 0.175
1177.20 0.175
1177.30 0.175
1177.40 0.1749
1177.50 0.1749
1177.60 0.1748
1177.70 0.1748
1177.80 0.1748
1177.90 0.1747
1178.00 0.1747
1178.10 0.1746
1178.20 0.1746
1178.30 0.1746
1178.40 0.1745
1178.50 0.1745
1178.60 0.1745
1178.70 0.1744
1178.80 0.1744
1178.90 0.1743
1179.00 0.1743
1179.10 0.1743
1179.20 0.1742
1179.30 0.1742
1179.40 0.1741
1179.50 0.1741
1179.60 0.1741
1179.70 0.174
1179.80 0.174
1179.90 0.1739
1180.00 0.1739
1180.10 0.1739
1180.20 0.1738
1180.30 0.1738
1180.40 0.1737
1180.50 0.1737
1180.60 0.1737
1180.70 0.1736
1180.80 0.1736
1180.90 0.1736
1181.00 0.1735
1181.10 0.1735
1181.20 0.1734
1181.30 0.1734
1181.40 0.1734
1181.50 0.1733
1181.60 0.1733
1181.70 0.1732
1181.80 0.1732
1181.90 0.1732
1182.00 0.1731
1182.10 0.1731
1182.20 0.173
1182.30 0.173
1182.40 0.173
1182.50 0.1729
1182.60 0.1729
1182.70 0.1729
1182.80 0.1728
1182.90 0.1728
1183.00 0.1727
1183.10 0.1727
1183.20 0.1727
1183.30 0.1726
1183.40 0.1726
1183.50 0.1725
1183.60 0.1725
1183.70 0.1725
1183.80 0.1724
1183.90 0.1724
1184.00 0.1724
1184.10 0.1723
1184.20 0.1723
1184.30 0.1722
1184.40 0.1722
1184.50 0.1722
1184.60 0.1721
1184.70 0.1721
1184.80 0.172
1184.90 0.172
1185.00 0.172
1185.10 0.1719
1185.20 0.1719
1185.30 0.1719
1185.40 0.1718
1185.50 0.1718
1185.60 0.1717
1185.70 0.1717
1185.80 0.1717
1185.90 0.1716
1186.00 0.1716
1186.10 0.1715
1186.20 0.1715
1186.30 0.1715
1186.40 0.1714
1186.50 0.1714
1186.60 0.1714
1186.70 0.1713
1186.80 0.1713
1186.90 0.1712
1187.00 0.1712
1187.10 0.1712
1187.20 0.1711
1187.30 0.1711
1187.40 0.171
1187.50 0.171
1187.60 0.171
1187.70 0.1709
1187.80 0.1709
1187.90 0.1709
1188.00 0.1708
1188.10 0.1708
1188.20 0.1707
1188.30 0.1707
1188.40 0.1707
1188.50 0.1706
1188.60 0.1706
1188.70 0.1706
1188.80 0.1705
1188.90 0.1705
1189.00 0.1704
1189.10 0.1704
1189.20 0.1704
1189.30 0.1703
1189.40 0.1703
1189.50 0.1703
1189.60 0.1702
1189.70 0.1702
1189.80 0.1701
1189.90 0.1701
1190.00 0.1701
1190.10 0.17
1190.20 0.17
1190.30 0.1699
1190.40 0.1699
1190.50 0.1699
1190.60 0.1698
1190.70 0.1698
1190.80 0.1698
1190.90 0.1697
1191.00 0.1697
1191.10 0.1696
1191.20 0.1696
1191.30 0.1696
1191.40 0.1695
1191.50 0.1695
1191.60 0.1695
1191.70 0.1694
1191.80 0.1694
1191.90 0.1693
1192.00 0.1693
1192.10 0.1693
1192.20 0.1692
1192.30 0.1692
1192.40 0.1692
1192.50 0.1691
1192.60 0.1691
1192.70 0.169
1192.80 0.169
1192.90 0.169
1193.00 0.1689
1193.10 0.1689
1193.20 0.1689
1193.30 0.1688
1193.40 0.1688
1193.50 0.1687
1193.60 0.1687
1193.70 0.1687
1193.80 0.1686
1193.90 0.1686
1194.00 0.1686
1194.10 0.1685
1194.20 0.1685
1194.30 0.1684
1194.40 0.1684
1194.50 0.1684
1194.60 0.1683
1194.70 0.1683
1194.80 0.1683
1194.90 0.1682
1195.00 0.1682
1195.10 0.1681
1195.20 0.1681
1195.30 0.1681
1195.40 0.168
1195.50 0.168
1195.60 0.168
1195.70 0.1679
1195.80 0.1679
1195.90 0.1678
1196.00 0.1678
1196.10 0.1678
1196.20 0.1677
1196.30 0.1677
1196.40 0.1677
1196.50 0.1676
1196.60 0.1676
1196.70 0.1675
1196.80 0.1675
1196.90 0.1675
1197.00 0.1674
1197.10 0.1674
1197.20 0.1674
1197.30 0.1673
1197.40 0.1673
1197.50 0.1672
1197.60 0.1672
1197.70 0.1672
1197.80 0.1671
1197.90 0.1671
1198.00 0.1671
1198.10 0.167
1198.20 0.167
1198.30 0.167
1198.40 0.1669
1198.50 0.1669
1198.60 0.1668
1198.70 0.1668
1198.80 0.1668
1198.90 0.1667
1199.00 0.1667
1199.10 0.1667
1199.20 0.1666
1199.30 0.1666
1199.40 0.1665
1199.50 0.1665
1199.60 0.1665
1199.70 0.1664
1199.80 0.1664
1199.90 0.1664
1200.00 0
