# Version 2.1 - nm, norm@500 to 1, cut digits, bergeron_120000_65.dat_120000
# Wavelength(nm)  Flambda(ergs/cm^s/s/nm)
300.00 6.949
300.10 6.94
300.20 6.932
300.30 6.923
300.40 6.914
300.50 6.905
300.60 6.897
300.70 6.888
300.80 6.879
300.90 6.871
301.00 6.862
301.10 6.853
301.20 6.845
301.30 6.836
301.40 6.827
301.50 6.819
301.60 6.81
301.70 6.802
301.80 6.793
301.90 6.784
302.00 6.776
302.10 6.767
302.20 6.759
302.30 6.75
302.40 6.742
302.50 6.733
302.60 6.725
302.70 6.717
302.80 6.708
302.90 6.7
303.00 6.691
303.10 6.683
303.20 6.675
303.30 6.666
303.40 6.658
303.50 6.649
303.60 6.641
303.70 6.633
303.80 6.625
303.90 6.616
304.00 6.608
304.10 6.6
304.20 6.592
304.30 6.583
304.40 6.575
304.50 6.567
304.60 6.559
304.70 6.55
304.80 6.542
304.90 6.534
305.00 6.526
305.10 6.518
305.20 6.51
305.30 6.502
305.40 6.494
305.50 6.486
305.60 6.477
305.70 6.469
305.80 6.461
305.90 6.453
306.00 6.445
306.10 6.437
306.20 6.429
306.30 6.421
306.40 6.413
306.50 6.405
306.60 6.397
306.70 6.39
306.80 6.382
306.90 6.374
307.00 6.366
307.10 6.358
307.20 6.35
307.30 6.342
307.40 6.334
307.50 6.327
307.60 6.319
307.70 6.311
307.80 6.303
307.90 6.295
308.00 6.288
308.10 6.28
308.20 6.272
308.30 6.264
308.40 6.257
308.50 6.249
308.60 6.241
308.70 6.234
308.80 6.226
308.90 6.218
309.00 6.211
309.10 6.203
309.20 6.195
309.30 6.188
309.40 6.18
309.50 6.172
309.60 6.165
309.70 6.157
309.80 6.15
309.90 6.142
310.00 6.135
310.10 6.127
310.20 6.12
310.30 6.112
310.40 6.105
310.50 6.097
310.60 6.09
310.70 6.082
310.80 6.075
310.90 6.067
311.00 6.06
311.10 6.053
311.20 6.045
311.30 6.038
311.40 6.03
311.50 6.023
311.60 6.016
311.70 6.008
311.80 6.001
311.90 5.994
312.00 5.986
312.10 5.979
312.20 5.972
312.30 5.964
312.40 5.957
312.50 5.95
312.60 5.943
312.70 5.935
312.80 5.928
312.90 5.921
313.00 5.914
313.10 5.907
313.20 5.899
313.30 5.892
313.40 5.885
313.50 5.878
313.60 5.871
313.70 5.864
313.80 5.857
313.90 5.85
314.00 5.842
314.10 5.835
314.20 5.828
314.30 5.821
314.40 5.814
314.50 5.807
314.60 5.8
314.70 5.793
314.80 5.786
314.90 5.779
315.00 5.772
315.10 5.765
315.20 5.758
315.30 5.751
315.40 5.744
315.50 5.737
315.60 5.731
315.70 5.724
315.80 5.717
315.90 5.71
316.00 5.703
316.10 5.696
316.20 5.689
316.30 5.682
316.40 5.675
316.50 5.669
316.60 5.662
316.70 5.655
316.80 5.648
316.90 5.641
317.00 5.635
317.10 5.628
317.20 5.621
317.30 5.614
317.40 5.608
317.50 5.601
317.60 5.594
317.70 5.588
317.80 5.581
317.90 5.574
318.00 5.568
318.10 5.561
318.20 5.554
318.30 5.548
318.40 5.541
318.50 5.534
318.60 5.528
318.70 5.521
318.80 5.514
318.90 5.508
319.00 5.501
319.10 5.495
319.20 5.488
319.30 5.482
319.40 5.475
319.50 5.469
319.60 5.462
319.70 5.456
319.80 5.449
319.90 5.443
320.00 5.436
320.10 5.43
320.20 5.423
320.30 5.417
320.40 5.41
320.50 5.404
320.60 5.397
320.70 5.391
320.80 5.385
320.90 5.378
321.00 5.372
321.10 5.365
321.20 5.359
321.30 5.353
321.40 5.346
321.50 5.34
321.60 5.334
321.70 5.327
321.80 5.321
321.90 5.315
322.00 5.309
322.10 5.302
322.20 5.296
322.30 5.29
322.40 5.283
322.50 5.277
322.60 5.271
322.70 5.265
322.80 5.259
322.90 5.252
323.00 5.246
323.10 5.24
323.20 5.234
323.30 5.228
323.40 5.221
323.50 5.215
323.60 5.209
323.70 5.203
323.80 5.197
323.90 5.191
324.00 5.185
324.10 5.179
324.20 5.173
324.30 5.166
324.40 5.16
324.50 5.154
324.60 5.148
324.70 5.142
324.80 5.136
324.90 5.13
325.00 5.124
325.10 5.118
325.20 5.112
325.30 5.106
325.40 5.1
325.50 5.094
325.60 5.088
325.70 5.082
325.80 5.076
325.90 5.07
326.00 5.065
326.10 5.059
326.20 5.053
326.30 5.047
326.40 5.041
326.50 5.035
326.60 5.029
326.70 5.023
326.80 5.017
326.90 5.012
327.00 5.006
327.10 5
327.20 4.994
327.30 4.988
327.40 4.982
327.50 4.977
327.60 4.971
327.70 4.965
327.80 4.959
327.90 4.954
328.00 4.948
328.10 4.942
328.20 4.936
328.30 4.931
328.40 4.925
328.50 4.919
328.60 4.913
328.70 4.908
328.80 4.902
328.90 4.896
329.00 4.891
329.10 4.885
329.20 4.879
329.30 4.874
329.40 4.868
329.50 4.862
329.60 4.857
329.70 4.851
329.80 4.846
329.90 4.84
330.00 4.834
330.10 4.829
330.20 4.823
330.30 4.818
330.40 4.812
330.50 4.807
330.60 4.801
330.70 4.796
330.80 4.79
330.90 4.784
331.00 4.779
331.10 4.773
331.20 4.768
331.30 4.762
331.40 4.757
331.50 4.751
331.60 4.746
331.70 4.741
331.80 4.735
331.90 4.73
332.00 4.724
332.10 4.719
332.20 4.713
332.30 4.708
332.40 4.703
332.50 4.697
332.60 4.692
332.70 4.686
332.80 4.681
332.90 4.676
333.00 4.67
333.10 4.665
333.20 4.66
333.30 4.654
333.40 4.649
333.50 4.644
333.60 4.638
333.70 4.633
333.80 4.628
333.90 4.622
334.00 4.617
334.10 4.612
334.20 4.607
334.30 4.601
334.40 4.596
334.50 4.591
334.60 4.586
334.70 4.58
334.80 4.575
334.90 4.57
335.00 4.565
335.10 4.56
335.20 4.554
335.30 4.549
335.40 4.544
335.50 4.539
335.60 4.534
335.70 4.529
335.80 4.523
335.90 4.518
336.00 4.513
336.10 4.508
336.20 4.503
336.30 4.498
336.40 4.493
336.50 4.488
336.60 4.483
336.70 4.477
336.80 4.472
336.90 4.467
337.00 4.462
337.10 4.457
337.20 4.452
337.30 4.447
337.40 4.442
337.50 4.437
337.60 4.432
337.70 4.427
337.80 4.422
337.90 4.417
338.00 4.412
338.10 4.407
338.20 4.402
338.30 4.397
338.40 4.392
338.50 4.387
338.60 4.382
338.70 4.377
338.80 4.372
338.90 4.367
339.00 4.363
339.10 4.358
339.20 4.353
339.30 4.348
339.40 4.343
339.50 4.338
339.60 4.333
339.70 4.328
339.80 4.323
339.90 4.319
340.00 4.314
340.10 4.309
340.20 4.304
340.30 4.299
340.40 4.294
340.50 4.29
340.60 4.285
340.70 4.28
340.80 4.275
340.90 4.27
341.00 4.266
341.10 4.261
341.20 4.256
341.30 4.251
341.40 4.247
341.50 4.242
341.60 4.237
341.70 4.232
341.80 4.228
341.90 4.223
342.00 4.218
342.10 4.213
342.20 4.209
342.30 4.204
342.40 4.199
342.50 4.195
342.60 4.19
342.70 4.185
342.80 4.181
342.90 4.176
343.00 4.171
343.10 4.167
343.20 4.162
343.30 4.157
343.40 4.153
343.50 4.148
343.60 4.144
343.70 4.139
343.80 4.134
343.90 4.13
344.00 4.125
344.10 4.121
344.20 4.116
344.30 4.111
344.40 4.107
344.50 4.102
344.60 4.098
344.70 4.093
344.80 4.089
344.90 4.084
345.00 4.08
345.10 4.075
345.20 4.071
345.30 4.066
345.40 4.062
345.50 4.057
345.60 4.053
345.70 4.048
345.80 4.044
345.90 4.039
346.00 4.035
346.10 4.03
346.20 4.026
346.30 4.021
346.40 4.017
346.50 4.013
346.60 4.008
346.70 4.004
346.80 3.999
346.90 3.995
347.00 3.991
347.10 3.986
347.20 3.982
347.30 3.977
347.40 3.973
347.50 3.969
347.60 3.964
347.70 3.96
347.80 3.956
347.90 3.951
348.00 3.947
348.10 3.943
348.20 3.938
348.30 3.934
348.40 3.93
348.50 3.925
348.60 3.921
348.70 3.917
348.80 3.912
348.90 3.908
349.00 3.904
349.10 3.9
349.20 3.895
349.30 3.891
349.40 3.887
349.50 3.883
349.60 3.878
349.70 3.874
349.80 3.87
349.90 3.866
350.00 3.861
350.10 3.857
350.20 3.853
350.30 3.849
350.40 3.845
350.50 3.84
350.60 3.836
350.70 3.832
350.80 3.828
350.90 3.824
351.00 3.819
351.10 3.815
351.20 3.811
351.30 3.807
351.40 3.803
351.50 3.799
351.60 3.795
351.70 3.79
351.80 3.786
351.90 3.782
352.00 3.778
352.10 3.774
352.20 3.77
352.30 3.766
352.40 3.762
352.50 3.758
352.60 3.754
352.70 3.75
352.80 3.745
352.90 3.741
353.00 3.737
353.10 3.733
353.20 3.729
353.30 3.725
353.40 3.721
353.50 3.717
353.60 3.713
353.70 3.709
353.80 3.705
353.90 3.701
354.00 3.697
354.10 3.693
354.20 3.689
354.30 3.685
354.40 3.681
354.50 3.677
354.60 3.673
354.70 3.669
354.80 3.665
354.90 3.661
355.00 3.657
355.10 3.653
355.20 3.65
355.30 3.646
355.40 3.642
355.50 3.638
355.60 3.634
355.70 3.63
355.80 3.626
355.90 3.622
356.00 3.618
356.10 3.614
356.20 3.61
356.30 3.607
356.40 3.603
356.50 3.599
356.60 3.595
356.70 3.591
356.80 3.587
356.90 3.583
357.00 3.58
357.10 3.576
357.20 3.572
357.30 3.568
357.40 3.564
357.50 3.56
357.60 3.557
357.70 3.553
357.80 3.549
357.90 3.545
358.00 3.541
358.10 3.538
358.20 3.534
358.30 3.53
358.40 3.526
358.50 3.523
358.60 3.519
358.70 3.515
358.80 3.511
358.90 3.508
359.00 3.504
359.10 3.5
359.20 3.496
359.30 3.493
359.40 3.489
359.50 3.485
359.60 3.482
359.70 3.478
359.80 3.474
359.90 3.47
360.00 3.467
360.10 3.463
360.20 3.459
360.30 3.456
360.40 3.452
360.50 3.448
360.60 3.445
360.70 3.441
360.80 3.437
360.90 3.434
361.00 3.43
361.10 3.427
361.20 3.423
361.30 3.419
361.40 3.416
361.50 3.412
361.60 3.408
361.70 3.405
361.80 3.401
361.90 3.398
362.00 3.394
362.10 3.39
362.20 3.387
362.30 3.383
362.40 3.38
362.50 3.376
362.60 3.373
362.70 3.369
362.80 3.365
362.90 3.362
363.00 3.358
363.10 3.355
363.20 3.351
363.30 3.348
363.40 3.344
363.50 3.341
363.60 3.337
363.70 3.334
363.80 3.33
363.90 3.327
364.00 3.323
364.10 3.32
364.20 3.316
364.30 3.313
364.40 3.309
364.50 3.306
364.60 3.302
364.70 3.299
364.80 3.295
364.90 3.292
365.00 3.288
365.10 3.285
365.20 3.282
365.30 3.278
365.40 3.275
365.50 3.271
365.60 3.268
365.70 3.264
365.80 3.261
365.90 3.257
366.00 3.254
366.10 3.251
366.20 3.247
366.30 3.244
366.40 3.24
366.50 3.237
366.60 3.233
366.70 3.23
366.80 3.227
366.90 3.223
367.00 3.22
367.10 3.216
367.20 3.213
367.30 3.21
367.40 3.206
367.50 3.203
367.60 3.199
367.70 3.196
367.80 3.193
367.90 3.189
368.00 3.186
368.10 3.182
368.20 3.179
368.30 3.176
368.40 3.172
368.50 3.169
368.60 3.166
368.70 3.162
368.80 3.159
368.90 3.156
369.00 3.152
369.10 3.149
369.20 3.146
369.30 3.142
369.40 3.139
369.50 3.136
369.60 3.132
369.70 3.129
369.80 3.126
369.90 3.123
370.00 3.119
370.10 3.116
370.20 3.113
370.30 3.11
370.40 3.106
370.50 3.103
370.60 3.1
370.70 3.097
370.80 3.093
370.90 3.09
371.00 3.087
371.10 3.084
371.20 3.08
371.30 3.077
371.40 3.074
371.50 3.071
371.60 3.068
371.70 3.064
371.80 3.061
371.90 3.058
372.00 3.055
372.10 3.052
372.20 3.048
372.30 3.045
372.40 3.042
372.50 3.039
372.60 3.036
372.70 3.033
372.80 3.03
372.90 3.027
373.00 3.024
373.10 3.02
373.20 3.017
373.30 3.014
373.40 3.011
373.50 3.008
373.60 3.005
373.70 3.002
373.80 2.999
373.90 2.996
374.00 2.993
374.10 2.99
374.20 2.987
374.30 2.984
374.40 2.981
374.50 2.978
374.60 2.975
374.70 2.972
374.80 2.969
374.90 2.966
375.00 2.963
375.10 2.96
375.20 2.957
375.30 2.954
375.40 2.951
375.50 2.948
375.60 2.945
375.70 2.942
375.80 2.939
375.90 2.937
376.00 2.934
376.10 2.93
376.20 2.927
376.30 2.924
376.40 2.921
376.50 2.918
376.60 2.915
376.70 2.911
376.80 2.908
376.90 2.905
377.00 2.902
377.10 2.9
377.20 2.897
377.30 2.895
377.40 2.892
377.50 2.89
377.60 2.887
377.70 2.885
377.80 2.882
377.90 2.88
378.00 2.877
378.10 2.874
378.20 2.871
378.30 2.868
378.40 2.865
378.50 2.862
378.60 2.859
378.70 2.856
378.80 2.853
378.90 2.85
379.00 2.846
379.10 2.843
379.20 2.84
379.30 2.837
379.40 2.833
379.50 2.83
379.60 2.827
379.70 2.823
379.80 2.82
379.90 2.817
380.00 2.814
380.10 2.812
380.20 2.81
380.30 2.809
380.40 2.807
380.50 2.805
380.60 2.804
380.70 2.802
380.80 2.8
380.90 2.799
381.00 2.797
381.10 2.795
381.20 2.792
381.30 2.79
381.40 2.787
381.50 2.784
381.60 2.782
381.70 2.778
381.80 2.775
381.90 2.772
382.00 2.768
382.10 2.765
382.20 2.761
382.30 2.756
382.40 2.751
382.50 2.746
382.60 2.742
382.70 2.737
382.80 2.732
382.90 2.727
383.00 2.722
383.10 2.718
383.20 2.713
383.30 2.707
383.40 2.701
383.50 2.697
383.60 2.695
383.70 2.695
383.80 2.695
383.90 2.696
384.00 2.697
384.10 2.698
384.20 2.698
384.30 2.698
384.40 2.698
384.50 2.698
384.60 2.697
384.70 2.697
384.80 2.696
384.90 2.695
385.00 2.694
385.10 2.693
385.20 2.691
385.30 2.69
385.40 2.688
385.50 2.686
385.60 2.684
385.70 2.682
385.80 2.68
385.90 2.677
386.00 2.675
386.10 2.672
386.20 2.669
386.30 2.666
386.40 2.663
386.50 2.66
386.60 2.657
386.70 2.653
386.80 2.649
386.90 2.645
387.00 2.641
387.10 2.637
387.20 2.633
387.30 2.628
387.40 2.623
387.50 2.618
387.60 2.612
387.70 2.607
387.80 2.601
387.90 2.594
388.00 2.587
388.10 2.58
388.20 2.573
388.30 2.565
388.40 2.556
388.50 2.547
388.60 2.538
388.70 2.528
388.80 2.522
388.90 2.517
389.00 2.517
389.10 2.518
389.20 2.523
389.30 2.527
389.40 2.532
389.50 2.536
389.60 2.539
389.70 2.542
389.80 2.544
389.90 2.546
390.00 2.548
390.10 2.549
390.20 2.55
390.30 2.551
390.40 2.551
390.50 2.552
390.60 2.552
390.70 2.551
390.80 2.551
390.90 2.55
391.00 2.55
391.10 2.549
391.20 2.548
391.30 2.547
391.40 2.545
391.50 2.544
391.60 2.543
391.70 2.541
391.80 2.539
391.90 2.538
392.00 2.536
392.10 2.534
392.20 2.532
392.30 2.53
392.40 2.528
392.50 2.525
392.60 2.523
392.70 2.521
392.80 2.519
392.90 2.516
393.00 2.514
393.10 2.511
393.20 2.508
393.30 2.506
393.40 2.503
393.50 2.5
393.60 2.497
393.70 2.494
393.80 2.491
393.90 2.488
394.00 2.485
394.10 2.482
394.20 2.478
394.30 2.475
394.40 2.471
394.50 2.467
394.60 2.463
394.70 2.459
394.80 2.455
394.90 2.45
395.00 2.446
395.10 2.441
395.20 2.435
395.30 2.43
395.40 2.424
395.50 2.418
395.60 2.411
395.70 2.404
395.80 2.396
395.90 2.388
396.00 2.379
396.10 2.37
396.20 2.36
396.30 2.349
396.40 2.337
396.50 2.324
396.60 2.31
396.70 2.295
396.80 2.278
396.90 2.261
397.00 2.244
397.10 2.255
397.20 2.267
397.30 2.28
397.40 2.291
397.50 2.301
397.60 2.31
397.70 2.317
397.80 2.324
397.90 2.33
398.00 2.334
398.10 2.338
398.20 2.342
398.30 2.345
398.40 2.348
398.50 2.35
398.60 2.351
398.70 2.353
398.80 2.354
398.90 2.355
399.00 2.355
399.10 2.355
399.20 2.355
399.30 2.355
399.40 2.354
399.50 2.354
399.60 2.353
399.70 2.352
399.80 2.351
399.90 2.35
400.00 2.349
400.10 2.348
400.20 2.346
400.30 2.345
400.40 2.344
400.50 2.342
400.60 2.34
400.70 2.339
400.80 2.337
400.90 2.335
401.00 2.333
401.10 2.332
401.20 2.33
401.30 2.328
401.40 2.326
401.50 2.324
401.60 2.322
401.70 2.32
401.80 2.318
401.90 2.316
402.00 2.314
402.10 2.312
402.20 2.31
402.30 2.308
402.40 2.306
402.50 2.304
402.60 2.302
402.70 2.3
402.80 2.298
402.90 2.296
403.00 2.293
403.10 2.291
403.20 2.289
403.30 2.287
403.40 2.285
403.50 2.283
403.60 2.281
403.70 2.278
403.80 2.276
403.90 2.274
404.00 2.272
404.10 2.27
404.20 2.267
404.30 2.265
404.40 2.263
404.50 2.261
404.60 2.258
404.70 2.256
404.80 2.254
404.90 2.252
405.00 2.249
405.10 2.247
405.20 2.245
405.30 2.242
405.40 2.24
405.50 2.238
405.60 2.235
405.70 2.233
405.80 2.23
405.90 2.228
406.00 2.226
406.10 2.223
406.20 2.22
406.30 2.218
406.40 2.215
406.50 2.213
406.60 2.21
406.70 2.207
406.80 2.204
406.90 2.201
407.00 2.198
407.10 2.195
407.20 2.192
407.30 2.189
407.40 2.186
407.50 2.182
407.60 2.179
407.70 2.175
407.80 2.171
407.90 2.167
408.00 2.162
408.10 2.158
408.20 2.153
408.30 2.148
408.40 2.142
408.50 2.136
408.60 2.13
408.70 2.123
408.80 2.115
408.90 2.107
409.00 2.099
409.10 2.089
409.20 2.078
409.30 2.067
409.40 2.054
409.50 2.04
409.60 2.024
409.70 2.006
409.80 1.984
409.90 1.961
410.00 1.933
410.10 1.915
410.20 1.908
410.30 1.921
410.40 1.939
410.50 1.963
410.60 1.981
410.70 1.996
410.80 2.01
410.90 2.02
411.00 2.03
411.10 2.039
411.20 2.045
411.30 2.051
411.40 2.057
411.50 2.061
411.60 2.065
411.70 2.068
411.80 2.07
411.90 2.072
412.00 2.074
412.10 2.075
412.20 2.076
412.30 2.077
412.40 2.077
412.50 2.078
412.60 2.078
412.70 2.077
412.80 2.077
412.90 2.076
413.00 2.076
413.10 2.075
413.20 2.074
413.30 2.073
413.40 2.072
413.50 2.071
413.60 2.07
413.70 2.068
413.80 2.067
413.90 2.066
414.00 2.064
414.10 2.063
414.20 2.061
414.30 2.06
414.40 2.058
414.50 2.057
414.60 2.055
414.70 2.054
414.80 2.052
414.90 2.05
415.00 2.049
415.10 2.047
415.20 2.045
415.30 2.044
415.40 2.042
415.50 2.04
415.60 2.038
415.70 2.037
415.80 2.035
415.90 2.033
416.00 2.031
416.10 2.03
416.20 2.028
416.30 2.026
416.40 2.024
416.50 2.023
416.60 2.021
416.70 2.019
416.80 2.017
416.90 2.016
417.00 2.014
417.10 2.012
417.20 2.01
417.30 2.008
417.40 2.007
417.50 2.005
417.60 2.003
417.70 2.001
417.80 1.999
417.90 1.998
418.00 1.996
418.10 1.994
418.20 1.992
418.30 1.99
418.40 1.989
418.50 1.987
418.60 1.985
418.70 1.983
418.80 1.981
418.90 1.98
419.00 1.978
419.10 1.976
419.20 1.974
419.30 1.972
419.40 1.971
419.50 1.969
419.60 1.967
419.70 1.965
419.80 1.963
419.90 1.962
420.00 1.96
420.10 1.958
420.20 1.956
420.30 1.955
420.40 1.953
420.50 1.951
420.60 1.949
420.70 1.947
420.80 1.946
420.90 1.944
421.00 1.942
421.10 1.94
421.20 1.939
421.30 1.937
421.40 1.935
421.50 1.933
421.60 1.932
421.70 1.93
421.80 1.928
421.90 1.926
422.00 1.924
422.10 1.923
422.20 1.921
422.30 1.919
422.40 1.917
422.50 1.916
422.60 1.914
422.70 1.912
422.80 1.91
422.90 1.909
423.00 1.907
423.10 1.905
423.20 1.903
423.30 1.902
423.40 1.9
423.50 1.898
423.60 1.897
423.70 1.895
423.80 1.893
423.90 1.891
424.00 1.89
424.10 1.888
424.20 1.886
424.30 1.884
424.40 1.883
424.50 1.881
424.60 1.879
424.70 1.878
424.80 1.876
424.90 1.874
425.00 1.872
425.10 1.871
425.20 1.869
425.30 1.867
425.40 1.865
425.50 1.864
425.60 1.862
425.70 1.86
425.80 1.859
425.90 1.857
426.00 1.855
426.10 1.854
426.20 1.852
426.30 1.85
426.40 1.848
426.50 1.847
426.60 1.845
426.70 1.843
426.80 1.842
426.90 1.84
427.00 1.838
427.10 1.836
427.20 1.835
427.30 1.833
427.40 1.831
427.50 1.829
427.60 1.828
427.70 1.826
427.80 1.824
427.90 1.823
428.00 1.821
428.10 1.819
428.20 1.817
428.30 1.816
428.40 1.814
428.50 1.812
428.60 1.81
428.70 1.809
428.80 1.807
428.90 1.805
429.00 1.803
429.10 1.801
429.20 1.8
429.30 1.798
429.40 1.796
429.50 1.794
429.60 1.792
429.70 1.79
429.80 1.788
429.90 1.787
430.00 1.785
430.10 1.783
430.20 1.781
430.30 1.779
430.40 1.777
430.50 1.774
430.60 1.772
430.70 1.77
430.80 1.768
430.90 1.766
431.00 1.763
431.10 1.761
431.20 1.758
431.30 1.756
431.40 1.753
431.50 1.75
431.60 1.747
431.70 1.744
431.80 1.74
431.90 1.737
432.00 1.733
432.10 1.729
432.20 1.725
432.30 1.72
432.40 1.715
432.50 1.709
432.60 1.703
432.70 1.696
432.80 1.689
432.90 1.681
433.00 1.672
433.10 1.661
433.20 1.65
433.30 1.637
433.40 1.622
433.50 1.605
433.60 1.586
433.70 1.56
433.80 1.529
433.90 1.493
434.00 1.46
434.10 1.459
434.20 1.492
434.30 1.525
434.40 1.553
434.50 1.575
434.60 1.591
434.70 1.605
434.80 1.617
434.90 1.626
435.00 1.635
435.10 1.642
435.20 1.648
435.30 1.653
435.40 1.657
435.50 1.661
435.60 1.664
435.70 1.666
435.80 1.668
435.90 1.67
436.00 1.671
436.10 1.672
436.20 1.673
436.30 1.673
436.40 1.673
436.50 1.673
436.60 1.673
436.70 1.673
436.80 1.673
436.90 1.672
437.00 1.672
437.10 1.671
437.20 1.67
437.30 1.669
437.40 1.669
437.50 1.668
437.60 1.667
437.70 1.666
437.80 1.665
437.90 1.664
438.00 1.662
438.10 1.661
438.20 1.66
438.30 1.659
438.40 1.658
438.50 1.657
438.60 1.655
438.70 1.654
438.80 1.653
438.90 1.652
439.00 1.65
439.10 1.649
439.20 1.648
439.30 1.646
439.40 1.645
439.50 1.644
439.60 1.642
439.70 1.641
439.80 1.64
439.90 1.638
440.00 1.637
440.10 1.636
440.20 1.634
440.30 1.633
440.40 1.632
440.50 1.63
440.60 1.629
440.70 1.628
440.80 1.626
440.90 1.625
441.00 1.623
441.10 1.622
441.20 1.621
441.30 1.619
441.40 1.618
441.50 1.617
441.60 1.615
441.70 1.614
441.80 1.612
441.90 1.611
442.00 1.61
442.10 1.608
442.20 1.607
442.30 1.606
442.40 1.604
442.50 1.603
442.60 1.601
442.70 1.6
442.80 1.599
442.90 1.597
443.00 1.596
443.10 1.595
443.20 1.593
443.30 1.592
443.40 1.59
443.50 1.589
443.60 1.588
443.70 1.586
443.80 1.585
443.90 1.584
444.00 1.582
444.10 1.581
444.20 1.58
444.30 1.578
444.40 1.577
444.50 1.576
444.60 1.574
444.70 1.573
444.80 1.571
444.90 1.57
445.00 1.569
445.10 1.567
445.20 1.566
445.30 1.565
445.40 1.563
445.50 1.562
445.60 1.561
445.70 1.559
445.80 1.558
445.90 1.557
446.00 1.555
446.10 1.554
446.20 1.553
446.30 1.551
446.40 1.55
446.50 1.549
446.60 1.547
446.70 1.546
446.80 1.545
446.90 1.543
447.00 1.542
447.10 1.541
447.20 1.539
447.30 1.538
447.40 1.537
447.50 1.535
447.60 1.534
447.70 1.533
447.80 1.531
447.90 1.53
448.00 1.529
448.10 1.527
448.20 1.526
448.30 1.525
448.40 1.524
448.50 1.522
448.60 1.521
448.70 1.52
448.80 1.518
448.90 1.517
449.00 1.516
449.10 1.514
449.20 1.513
449.30 1.512
449.40 1.511
449.50 1.509
449.60 1.508
449.70 1.507
449.80 1.505
449.90 1.504
450.00 1.503
450.10 1.501
450.20 1.5
450.30 1.499
450.40 1.498
450.50 1.496
450.60 1.495
450.70 1.494
450.80 1.493
450.90 1.491
451.00 1.49
451.10 1.489
451.20 1.487
451.30 1.486
451.40 1.485
451.50 1.484
451.60 1.482
451.70 1.481
451.80 1.48
451.90 1.479
452.00 1.477
452.10 1.476
452.20 1.475
452.30 1.474
452.40 1.472
452.50 1.471
452.60 1.47
452.70 1.469
452.80 1.467
452.90 1.466
453.00 1.465
453.10 1.464
453.20 1.462
453.30 1.461
453.40 1.46
453.50 1.459
453.60 1.457
453.70 1.456
453.80 1.455
453.90 1.454
454.00 1.452
454.10 1.451
454.20 1.45
454.30 1.449
454.40 1.447
454.50 1.446
454.60 1.445
454.70 1.444
454.80 1.443
454.90 1.441
455.00 1.44
455.10 1.439
455.20 1.438
455.30 1.436
455.40 1.435
455.50 1.434
455.60 1.433
455.70 1.432
455.80 1.43
455.90 1.429
456.00 1.428
456.10 1.427
456.20 1.425
456.30 1.424
456.40 1.423
456.50 1.422
456.60 1.421
456.70 1.419
456.80 1.418
456.90 1.417
457.00 1.416
457.10 1.415
457.20 1.413
457.30 1.412
457.40 1.411
457.50 1.41
457.60 1.409
457.70 1.408
457.80 1.406
457.90 1.405
458.00 1.404
458.10 1.403
458.20 1.402
458.30 1.4
458.40 1.399
458.50 1.398
458.60 1.397
458.70 1.396
458.80 1.395
458.90 1.393
459.00 1.392
459.10 1.391
459.20 1.39
459.30 1.389
459.40 1.388
459.50 1.386
459.60 1.385
459.70 1.384
459.80 1.383
459.90 1.382
460.00 1.381
460.10 1.379
460.20 1.378
460.30 1.377
460.40 1.376
460.50 1.375
460.60 1.374
460.70 1.372
460.80 1.371
460.90 1.37
461.00 1.369
461.10 1.368
461.20 1.367
461.30 1.366
461.40 1.364
461.50 1.363
461.60 1.362
461.70 1.361
461.80 1.36
461.90 1.359
462.00 1.358
462.10 1.356
462.20 1.355
462.30 1.354
462.40 1.353
462.50 1.352
462.60 1.351
462.70 1.35
462.80 1.349
462.90 1.347
463.00 1.346
463.10 1.345
463.20 1.344
463.30 1.343
463.40 1.342
463.50 1.341
463.60 1.34
463.70 1.338
463.80 1.337
463.90 1.336
464.00 1.335
464.10 1.334
464.20 1.333
464.30 1.332
464.40 1.331
464.50 1.33
464.60 1.328
464.70 1.327
464.80 1.326
464.90 1.325
465.00 1.324
465.10 1.323
465.20 1.322
465.30 1.321
465.40 1.32
465.50 1.319
465.60 1.317
465.70 1.316
465.80 1.315
465.90 1.314
466.00 1.313
466.10 1.312
466.20 1.311
466.30 1.31
466.40 1.309
466.50 1.308
466.60 1.307
466.70 1.305
466.80 1.304
466.90 1.303
467.00 1.302
467.10 1.301
467.20 1.3
467.30 1.299
467.40 1.298
467.50 1.297
467.60 1.296
467.70 1.295
467.80 1.294
467.90 1.293
468.00 1.292
468.10 1.29
468.20 1.289
468.30 1.288
468.40 1.287
468.50 1.286
468.60 1.285
468.70 1.284
468.80 1.283
468.90 1.282
469.00 1.281
469.10 1.28
469.20 1.279
469.30 1.278
469.40 1.277
469.50 1.276
469.60 1.275
469.70 1.274
469.80 1.272
469.90 1.271
470.00 1.27
470.10 1.269
470.20 1.268
470.30 1.267
470.40 1.266
470.50 1.265
470.60 1.264
470.70 1.263
470.80 1.262
470.90 1.261
471.00 1.26
471.10 1.259
471.20 1.258
471.30 1.257
471.40 1.256
471.50 1.255
471.60 1.254
471.70 1.253
471.80 1.252
471.90 1.251
472.00 1.25
472.10 1.249
472.20 1.248
472.30 1.247
472.40 1.246
472.50 1.244
472.60 1.243
472.70 1.242
472.80 1.241
472.90 1.24
473.00 1.239
473.10 1.238
473.20 1.237
473.30 1.236
473.40 1.235
473.50 1.234
473.60 1.233
473.70 1.232
473.80 1.231
473.90 1.23
474.00 1.229
474.10 1.228
474.20 1.227
474.30 1.226
474.40 1.225
474.50 1.224
474.60 1.223
474.70 1.222
474.80 1.221
474.90 1.22
475.00 1.219
475.10 1.218
475.20 1.217
475.30 1.216
475.40 1.215
475.50 1.214
475.60 1.213
475.70 1.212
475.80 1.211
475.90 1.21
476.00 1.209
476.10 1.208
476.20 1.207
476.30 1.206
476.40 1.205
476.50 1.204
476.60 1.203
476.70 1.202
476.80 1.201
476.90 1.2
477.00 1.199
477.10 1.198
477.20 1.197
477.30 1.196
477.40 1.195
477.50 1.194
477.60 1.193
477.70 1.192
477.80 1.191
477.90 1.19
478.00 1.189
478.10 1.188
478.20 1.187
478.30 1.186
478.40 1.185
478.50 1.184
478.60 1.183
478.70 1.182
478.80 1.181
478.90 1.18
479.00 1.18
479.10 1.179
479.20 1.178
479.30 1.177
479.40 1.176
479.50 1.175
479.60 1.174
479.70 1.173
479.80 1.172
479.90 1.171
480.00 1.17
480.10 1.169
480.20 1.168
480.30 1.166
480.40 1.165
480.50 1.164
480.60 1.163
480.70 1.162
480.80 1.161
480.90 1.16
481.00 1.159
481.10 1.158
481.20 1.157
481.30 1.156
481.40 1.155
481.50 1.154
481.60 1.153
481.70 1.152
481.80 1.151
481.90 1.149
482.00 1.148
482.10 1.147
482.20 1.146
482.30 1.145
482.40 1.143
482.50 1.142
482.60 1.141
482.70 1.14
482.80 1.138
482.90 1.137
483.00 1.136
483.10 1.134
483.20 1.133
483.30 1.131
483.40 1.129
483.50 1.127
483.60 1.125
483.70 1.123
483.80 1.121
483.90 1.119
484.00 1.118
484.10 1.116
484.20 1.113
484.30 1.11
484.40 1.107
484.50 1.104
484.60 1.101
484.70 1.096
484.80 1.091
484.90 1.086
485.00 1.081
485.10 1.076
485.20 1.069
485.30 1.061
485.40 1.052
485.50 1.041
485.60 1.028
485.70 1.013
485.80 0.99
485.90 0.963
486.00 0.9251
486.10 0.9055
486.20 0.9035
486.30 0.9377
486.40 0.9677
486.50 0.9934
486.60 1.011
486.70 1.024
486.80 1.034
486.90 1.043
487.00 1.05
487.10 1.055
487.20 1.06
487.30 1.063
487.40 1.066
487.50 1.07
487.60 1.073
487.70 1.075
487.80 1.076
487.90 1.078
488.00 1.079
488.10 1.08
488.20 1.081
488.30 1.081
488.40 1.081
488.50 1.081
488.60 1.081
488.70 1.081
488.80 1.081
488.90 1.081
489.00 1.081
489.10 1.081
489.20 1.081
489.30 1.081
489.40 1.08
489.50 1.08
489.60 1.079
489.70 1.079
489.80 1.078
489.90 1.078
490.00 1.077
490.10 1.077
490.20 1.076
490.30 1.075
490.40 1.075
490.50 1.074
490.60 1.073
490.70 1.073
490.80 1.072
490.90 1.071
491.00 1.07
491.10 1.07
491.20 1.069
491.30 1.068
491.40 1.068
491.50 1.067
491.60 1.066
491.70 1.065
491.80 1.064
491.90 1.064
492.00 1.063
492.10 1.062
492.20 1.061
492.30 1.061
492.40 1.06
492.50 1.059
492.60 1.058
492.70 1.058
492.80 1.057
492.90 1.056
493.00 1.055
493.10 1.054
493.20 1.054
493.30 1.053
493.40 1.052
493.50 1.051
493.60 1.05
493.70 1.05
493.80 1.049
493.90 1.048
494.00 1.047
494.10 1.046
494.20 1.046
494.30 1.045
494.40 1.044
494.50 1.043
494.60 1.042
494.70 1.042
494.80 1.041
494.90 1.04
495.00 1.039
495.10 1.038
495.20 1.038
495.30 1.037
495.40 1.036
495.50 1.035
495.60 1.034
495.70 1.034
495.80 1.033
495.90 1.032
496.00 1.031
496.10 1.031
496.20 1.03
496.30 1.029
496.40 1.028
496.50 1.027
496.60 1.027
496.70 1.026
496.80 1.025
496.90 1.024
497.00 1.023
497.10 1.023
497.20 1.022
497.30 1.021
497.40 1.02
497.50 1.019
497.60 1.019
497.70 1.018
497.80 1.017
497.90 1.016
498.00 1.016
498.10 1.015
498.20 1.014
498.30 1.013
498.40 1.012
498.50 1.012
498.60 1.011
498.70 1.01
498.80 1.009
498.90 1.009
499.00 1.008
499.10 1.007
499.20 1.006
499.30 1.005
499.40 1.005
499.50 1.004
499.60 1.003
499.70 1.002
499.80 1.002
499.90 1.001
500.00 1
500.10 0.9992
500.20 0.9985
500.30 0.9977
500.40 0.9969
500.50 0.9962
500.60 0.9954
500.70 0.9946
500.80 0.9939
500.90 0.9931
501.00 0.9923
501.10 0.9916
501.20 0.9908
501.30 0.99
501.40 0.9893
501.50 0.9885
501.60 0.9878
501.70 0.987
501.80 0.9862
501.90 0.9855
502.00 0.9847
502.10 0.984
502.20 0.9832
502.30 0.9825
502.40 0.9817
502.50 0.9809
502.60 0.9802
502.70 0.9794
502.80 0.9787
502.90 0.9779
503.00 0.9772
503.10 0.9764
503.20 0.9757
503.30 0.9749
503.40 0.9742
503.50 0.9734
503.60 0.9727
503.70 0.9719
503.80 0.9712
503.90 0.9705
504.00 0.9697
504.10 0.969
504.20 0.9682
504.30 0.9675
504.40 0.9667
504.50 0.966
504.60 0.9653
504.70 0.9645
504.80 0.9638
504.90 0.963
505.00 0.9623
505.10 0.9616
505.20 0.9608
505.30 0.9601
505.40 0.9594
505.50 0.9586
505.60 0.9579
505.70 0.9572
505.80 0.9564
505.90 0.9557
506.00 0.955
506.10 0.9542
506.20 0.9535
506.30 0.9528
506.40 0.9521
506.50 0.9513
506.60 0.9506
506.70 0.9499
506.80 0.9492
506.90 0.9484
507.00 0.9477
507.10 0.947
507.20 0.9463
507.30 0.9456
507.40 0.9448
507.50 0.9441
507.60 0.9434
507.70 0.9427
507.80 0.942
507.90 0.9412
508.00 0.9405
508.10 0.9398
508.20 0.9391
508.30 0.9384
508.40 0.9377
508.50 0.937
508.60 0.9362
508.70 0.9355
508.80 0.9348
508.90 0.9341
509.00 0.9334
509.10 0.9327
509.20 0.932
509.30 0.9313
509.40 0.9306
509.50 0.9299
509.60 0.9292
509.70 0.9284
509.80 0.9277
509.90 0.927
510.00 0.9263
510.10 0.9256
510.20 0.9249
510.30 0.9242
510.40 0.9235
510.50 0.9228
510.60 0.9221
510.70 0.9214
510.80 0.9207
510.90 0.92
511.00 0.9193
511.10 0.9186
511.20 0.9179
511.30 0.9172
511.40 0.9166
511.50 0.9159
511.60 0.9152
511.70 0.9145
511.80 0.9138
511.90 0.9131
512.00 0.9124
512.10 0.9117
512.20 0.911
512.30 0.9103
512.40 0.9097
512.50 0.909
512.60 0.9083
512.70 0.9076
512.80 0.9069
512.90 0.9062
513.00 0.9055
513.10 0.9049
513.20 0.9042
513.30 0.9035
513.40 0.9028
513.50 0.9021
513.60 0.9015
513.70 0.9008
513.80 0.9001
513.90 0.8994
514.00 0.8987
514.10 0.8981
514.20 0.8974
514.30 0.8967
514.40 0.896
514.50 0.8954
514.60 0.8947
514.70 0.894
514.80 0.8934
514.90 0.8927
515.00 0.892
515.10 0.8913
515.20 0.8907
515.30 0.89
515.40 0.8893
515.50 0.8887
515.60 0.888
515.70 0.8873
515.80 0.8867
515.90 0.886
516.00 0.8853
516.10 0.8847
516.20 0.884
516.30 0.8833
516.40 0.8827
516.50 0.882
516.60 0.8814
516.70 0.8807
516.80 0.88
516.90 0.8794
517.00 0.8787
517.10 0.8781
517.20 0.8774
517.30 0.8768
517.40 0.8761
517.50 0.8754
517.60 0.8748
517.70 0.8741
517.80 0.8735
517.90 0.8728
518.00 0.8722
518.10 0.8715
518.20 0.8709
518.30 0.8702
518.40 0.8696
518.50 0.8689
518.60 0.8683
518.70 0.8676
518.80 0.867
518.90 0.8663
519.00 0.8657
519.10 0.865
519.20 0.8644
519.30 0.8637
519.40 0.8631
519.50 0.8625
519.60 0.8618
519.70 0.8612
519.80 0.8605
519.90 0.8599
520.00 0.8593
520.10 0.8586
520.20 0.858
520.30 0.8573
520.40 0.8567
520.50 0.8561
520.60 0.8554
520.70 0.8548
520.80 0.8542
520.90 0.8535
521.00 0.8529
521.10 0.8522
521.20 0.8516
521.30 0.851
521.40 0.8504
521.50 0.8497
521.60 0.8491
521.70 0.8485
521.80 0.8478
521.90 0.8472
522.00 0.8466
522.10 0.8459
522.20 0.8453
522.30 0.8447
522.40 0.8441
522.50 0.8434
522.60 0.8428
522.70 0.8422
522.80 0.8416
522.90 0.8409
523.00 0.8403
523.10 0.8397
523.20 0.8391
523.30 0.8385
523.40 0.8378
523.50 0.8372
523.60 0.8366
523.70 0.836
523.80 0.8354
523.90 0.8347
524.00 0.8341
524.10 0.8335
524.20 0.8329
524.30 0.8323
524.40 0.8317
524.50 0.8311
524.60 0.8304
524.70 0.8298
524.80 0.8292
524.90 0.8286
525.00 0.828
525.10 0.8274
525.20 0.8268
525.30 0.8262
525.40 0.8255
525.50 0.8249
525.60 0.8243
525.70 0.8237
525.80 0.8231
525.90 0.8225
526.00 0.8219
526.10 0.8213
526.20 0.8207
526.30 0.8201
526.40 0.8195
526.50 0.8189
526.60 0.8183
526.70 0.8177
526.80 0.8171
526.90 0.8165
527.00 0.8159
527.10 0.8153
527.20 0.8147
527.30 0.8141
527.40 0.8135
527.50 0.8129
527.60 0.8123
527.70 0.8117
527.80 0.8111
527.90 0.8105
528.00 0.8099
528.10 0.8093
528.20 0.8087
528.30 0.8081
528.40 0.8075
528.50 0.807
528.60 0.8064
528.70 0.8058
528.80 0.8052
528.90 0.8046
529.00 0.804
529.10 0.8034
529.20 0.8028
529.30 0.8022
529.40 0.8016
529.50 0.8011
529.60 0.8005
529.70 0.7999
529.80 0.7993
529.90 0.7987
530.00 0.7981
530.10 0.7976
530.20 0.797
530.30 0.7964
530.40 0.7958
530.50 0.7952
530.60 0.7946
530.70 0.7941
530.80 0.7935
530.90 0.7929
531.00 0.7923
531.10 0.7918
531.20 0.7912
531.30 0.7906
531.40 0.79
531.50 0.7894
531.60 0.7889
531.70 0.7883
531.80 0.7877
531.90 0.7871
532.00 0.7866
532.10 0.786
532.20 0.7854
532.30 0.7849
532.40 0.7843
532.50 0.7837
532.60 0.7831
532.70 0.7826
532.80 0.782
532.90 0.7814
533.00 0.7809
533.10 0.7803
533.20 0.7797
533.30 0.7792
533.40 0.7786
533.50 0.778
533.60 0.7775
533.70 0.7769
533.80 0.7763
533.90 0.7758
534.00 0.7752
534.10 0.7747
534.20 0.7741
534.30 0.7735
534.40 0.773
534.50 0.7724
534.60 0.7719
534.70 0.7713
534.80 0.7707
534.90 0.7702
535.00 0.7696
535.10 0.7691
535.20 0.7685
535.30 0.7679
535.40 0.7674
535.50 0.7668
535.60 0.7663
535.70 0.7657
535.80 0.7652
535.90 0.7646
536.00 0.7641
536.10 0.7635
536.20 0.763
536.30 0.7624
536.40 0.7619
536.50 0.7613
536.60 0.7608
536.70 0.7602
536.80 0.7597
536.90 0.7591
537.00 0.7586
537.10 0.758
537.20 0.7575
537.30 0.7569
537.40 0.7564
537.50 0.7558
537.60 0.7553
537.70 0.7548
537.80 0.7542
537.90 0.7537
538.00 0.7531
538.10 0.7526
538.20 0.752
538.30 0.7515
538.40 0.751
538.50 0.7504
538.60 0.7499
538.70 0.7493
538.80 0.7488
538.90 0.7483
539.00 0.7477
539.10 0.7472
539.20 0.7466
539.30 0.7461
539.40 0.7456
539.50 0.745
539.60 0.7445
539.70 0.744
539.80 0.7434
539.90 0.7429
540.00 0.7424
540.10 0.7418
540.20 0.7413
540.30 0.7408
540.40 0.7402
540.50 0.7397
540.60 0.7392
540.70 0.7386
540.80 0.7381
540.90 0.7376
541.00 0.7371
541.10 0.7365
541.20 0.736
541.30 0.7355
541.40 0.735
541.50 0.7344
541.60 0.7339
541.70 0.7334
541.80 0.7328
541.90 0.7323
542.00 0.7318
542.10 0.7313
542.20 0.7308
542.30 0.7302
542.40 0.7297
542.50 0.7292
542.60 0.7287
542.70 0.7281
542.80 0.7276
542.90 0.7271
543.00 0.7266
543.10 0.7261
543.20 0.7256
543.30 0.725
543.40 0.7245
543.50 0.724
543.60 0.7235
543.70 0.723
543.80 0.7225
543.90 0.7219
544.00 0.7214
544.10 0.7209
544.20 0.7204
544.30 0.7199
544.40 0.7194
544.50 0.7189
544.60 0.7184
544.70 0.7178
544.80 0.7173
544.90 0.7168
545.00 0.7163
545.10 0.7158
545.20 0.7153
545.30 0.7148
545.40 0.7143
545.50 0.7138
545.60 0.7133
545.70 0.7128
545.80 0.7122
545.90 0.7117
546.00 0.7112
546.10 0.7107
546.20 0.7102
546.30 0.7097
546.40 0.7092
546.50 0.7087
546.60 0.7082
546.70 0.7077
546.80 0.7072
546.90 0.7067
547.00 0.7062
547.10 0.7057
547.20 0.7052
547.30 0.7047
547.40 0.7042
547.50 0.7037
547.60 0.7032
547.70 0.7027
547.80 0.7022
547.90 0.7017
548.00 0.7012
548.10 0.7007
548.20 0.7002
548.30 0.6997
548.40 0.6992
548.50 0.6988
548.60 0.6983
548.70 0.6978
548.80 0.6973
548.90 0.6968
549.00 0.6963
549.10 0.6958
549.20 0.6953
549.30 0.6948
549.40 0.6943
549.50 0.6938
549.60 0.6933
549.70 0.6929
549.80 0.6924
549.90 0.6919
550.00 0.6914
550.10 0.6909
550.20 0.6904
550.30 0.6899
550.40 0.6894
550.50 0.689
550.60 0.6885
550.70 0.688
550.80 0.6875
550.90 0.687
551.00 0.6865
551.10 0.6861
551.20 0.6856
551.30 0.6851
551.40 0.6846
551.50 0.6841
551.60 0.6836
551.70 0.6832
551.80 0.6827
551.90 0.6822
552.00 0.6817
552.10 0.6812
552.20 0.6808
552.30 0.6803
552.40 0.6798
552.50 0.6793
552.60 0.6789
552.70 0.6784
552.80 0.6779
552.90 0.6774
553.00 0.677
553.10 0.6765
553.20 0.676
553.30 0.6755
553.40 0.6751
553.50 0.6746
553.60 0.6741
553.70 0.6736
553.80 0.6732
553.90 0.6727
554.00 0.6722
554.10 0.6718
554.20 0.6713
554.30 0.6708
554.40 0.6703
554.50 0.6699
554.60 0.6694
554.70 0.6689
554.80 0.6685
554.90 0.668
555.00 0.6675
555.10 0.6671
555.20 0.6666
555.30 0.6661
555.40 0.6657
555.50 0.6652
555.60 0.6648
555.70 0.6643
555.80 0.6638
555.90 0.6634
556.00 0.6629
556.10 0.6624
556.20 0.662
556.30 0.6615
556.40 0.6611
556.50 0.6606
556.60 0.6601
556.70 0.6597
556.80 0.6592
556.90 0.6588
557.00 0.6583
557.10 0.6578
557.20 0.6574
557.30 0.6569
557.40 0.6565
557.50 0.656
557.60 0.6556
557.70 0.6551
557.80 0.6546
557.90 0.6542
558.00 0.6537
558.10 0.6533
558.20 0.6528
558.30 0.6524
558.40 0.6519
558.50 0.6515
558.60 0.651
558.70 0.6506
558.80 0.6501
558.90 0.6497
559.00 0.6492
559.10 0.6488
559.20 0.6483
559.30 0.6479
559.40 0.6474
559.50 0.647
559.60 0.6465
559.70 0.6461
559.80 0.6456
559.90 0.6452
560.00 0.6447
560.10 0.6443
560.20 0.6438
560.30 0.6434
560.40 0.6429
560.50 0.6425
560.60 0.642
560.70 0.6416
560.80 0.6412
560.90 0.6407
561.00 0.6403
561.10 0.6398
561.20 0.6394
561.30 0.6389
561.40 0.6385
561.50 0.6381
561.60 0.6376
561.70 0.6372
561.80 0.6367
561.90 0.6363
562.00 0.6359
562.10 0.6354
562.20 0.635
562.30 0.6346
562.40 0.6341
562.50 0.6337
562.60 0.6332
562.70 0.6328
562.80 0.6324
562.90 0.6319
563.00 0.6315
563.10 0.6311
563.20 0.6306
563.30 0.6302
563.40 0.6298
563.50 0.6293
563.60 0.6289
563.70 0.6285
563.80 0.628
563.90 0.6276
564.00 0.6272
564.10 0.6267
564.20 0.6263
564.30 0.6259
564.40 0.6254
564.50 0.625
564.60 0.6246
564.70 0.6242
564.80 0.6237
564.90 0.6233
565.00 0.6229
565.10 0.6224
565.20 0.622
565.30 0.6216
565.40 0.6212
565.50 0.6207
565.60 0.6203
565.70 0.6199
565.80 0.6195
565.90 0.619
566.00 0.6186
566.10 0.6182
566.20 0.6178
566.30 0.6173
566.40 0.6169
566.50 0.6165
566.60 0.6161
566.70 0.6156
566.80 0.6152
566.90 0.6148
567.00 0.6144
567.10 0.614
567.20 0.6135
567.30 0.6131
567.40 0.6127
567.50 0.6123
567.60 0.6119
567.70 0.6114
567.80 0.611
567.90 0.6106
568.00 0.6102
568.10 0.6098
568.20 0.6094
568.30 0.6089
568.40 0.6085
568.50 0.6081
568.60 0.6077
568.70 0.6073
568.80 0.6069
568.90 0.6065
569.00 0.606
569.10 0.6056
569.20 0.6052
569.30 0.6048
569.40 0.6044
569.50 0.604
569.60 0.6036
569.70 0.6032
569.80 0.6028
569.90 0.6023
570.00 0.6019
570.10 0.6015
570.20 0.6011
570.30 0.6007
570.40 0.6003
570.50 0.5999
570.60 0.5995
570.70 0.5991
570.80 0.5987
570.90 0.5983
571.00 0.5979
571.10 0.5974
571.20 0.597
571.30 0.5966
571.40 0.5962
571.50 0.5958
571.60 0.5954
571.70 0.595
571.80 0.5946
571.90 0.5942
572.00 0.5938
572.10 0.5934
572.20 0.593
572.30 0.5926
572.40 0.5922
572.50 0.5918
572.60 0.5914
572.70 0.591
572.80 0.5906
572.90 0.5902
573.00 0.5898
573.10 0.5894
573.20 0.589
573.30 0.5886
573.40 0.5882
573.50 0.5878
573.60 0.5874
573.70 0.587
573.80 0.5866
573.90 0.5862
574.00 0.5858
574.10 0.5854
574.20 0.585
574.30 0.5846
574.40 0.5842
574.50 0.5838
574.60 0.5834
574.70 0.5831
574.80 0.5827
574.90 0.5823
575.00 0.5819
575.10 0.5815
575.20 0.5811
575.30 0.5807
575.40 0.5803
575.50 0.5799
575.60 0.5795
575.70 0.5791
575.80 0.5787
575.90 0.5784
576.00 0.578
576.10 0.5776
576.20 0.5772
576.30 0.5768
576.40 0.5764
576.50 0.576
576.60 0.5756
576.70 0.5752
576.80 0.5749
576.90 0.5745
577.00 0.5741
577.10 0.5737
577.20 0.5733
577.30 0.5729
577.40 0.5725
577.50 0.5722
577.60 0.5718
577.70 0.5714
577.80 0.571
577.90 0.5706
578.00 0.5702
578.10 0.5699
578.20 0.5695
578.30 0.5691
578.40 0.5687
578.50 0.5683
578.60 0.5679
578.70 0.5676
578.80 0.5672
578.90 0.5668
579.00 0.5664
579.10 0.566
579.20 0.5657
579.30 0.5653
579.40 0.5649
579.50 0.5645
579.60 0.5642
579.70 0.5638
579.80 0.5634
579.90 0.563
580.00 0.5626
580.10 0.5623
580.20 0.5619
580.30 0.5615
580.40 0.5611
580.50 0.5608
580.60 0.5604
580.70 0.56
580.80 0.5596
580.90 0.5593
581.00 0.5589
581.10 0.5585
581.20 0.5581
581.30 0.5578
581.40 0.5574
581.50 0.557
581.60 0.5567
581.70 0.5563
581.80 0.5559
581.90 0.5555
582.00 0.5552
582.10 0.5548
582.20 0.5544
582.30 0.5541
582.40 0.5537
582.50 0.5533
582.60 0.553
582.70 0.5526
582.80 0.5522
582.90 0.5519
583.00 0.5515
583.10 0.5511
583.20 0.5507
583.30 0.5504
583.40 0.55
583.50 0.5497
583.60 0.5493
583.70 0.5489
583.80 0.5486
583.90 0.5482
584.00 0.5478
584.10 0.5475
584.20 0.5471
584.30 0.5467
584.40 0.5464
584.50 0.546
584.60 0.5456
584.70 0.5453
584.80 0.5449
584.90 0.5446
585.00 0.5442
585.10 0.5438
585.20 0.5435
585.30 0.5431
585.40 0.5428
585.50 0.5424
585.60 0.542
585.70 0.5417
585.80 0.5413
585.90 0.541
586.00 0.5406
586.10 0.5402
586.20 0.5399
586.30 0.5395
586.40 0.5392
586.50 0.5388
586.60 0.5385
586.70 0.5381
586.80 0.5377
586.90 0.5374
587.00 0.537
587.10 0.5367
587.20 0.5363
587.30 0.536
587.40 0.5356
587.50 0.5353
587.60 0.5349
587.70 0.5346
587.80 0.5342
587.90 0.5339
588.00 0.5335
588.10 0.5331
588.20 0.5328
588.30 0.5324
588.40 0.5321
588.50 0.5317
588.60 0.5314
588.70 0.531
588.80 0.5307
588.90 0.5303
589.00 0.53
589.10 0.5296
589.20 0.5293
589.30 0.5289
589.40 0.5286
589.50 0.5282
589.60 0.5279
589.70 0.5276
589.80 0.5272
589.90 0.5269
590.00 0.5265
590.10 0.5262
590.20 0.5258
590.30 0.5255
590.40 0.5251
590.50 0.5248
590.60 0.5244
590.70 0.5241
590.80 0.5237
590.90 0.5234
591.00 0.5231
591.10 0.5227
591.20 0.5224
591.30 0.522
591.40 0.5217
591.50 0.5213
591.60 0.521
591.70 0.5207
591.80 0.5203
591.90 0.52
592.00 0.5196
592.10 0.5193
592.20 0.519
592.30 0.5186
592.40 0.5183
592.50 0.5179
592.60 0.5176
592.70 0.5173
592.80 0.5169
592.90 0.5166
593.00 0.5162
593.10 0.5159
593.20 0.5156
593.30 0.5152
593.40 0.5149
593.50 0.5146
593.60 0.5142
593.70 0.5139
593.80 0.5135
593.90 0.5132
594.00 0.5129
594.10 0.5125
594.20 0.5122
594.30 0.5119
594.40 0.5115
594.50 0.5112
594.60 0.5109
594.70 0.5105
594.80 0.5102
594.90 0.5099
595.00 0.5095
595.10 0.5092
595.20 0.5089
595.30 0.5085
595.40 0.5082
595.50 0.5079
595.60 0.5075
595.70 0.5072
595.80 0.5069
595.90 0.5066
596.00 0.5062
596.10 0.5059
596.20 0.5056
596.30 0.5052
596.40 0.5049
596.50 0.5046
596.60 0.5042
596.70 0.5039
596.80 0.5036
596.90 0.5033
597.00 0.5029
597.10 0.5026
597.20 0.5023
597.30 0.502
597.40 0.5016
597.50 0.5013
597.60 0.501
597.70 0.5007
597.80 0.5003
597.90 0.5
598.00 0.4997
598.10 0.4994
598.20 0.499
598.30 0.4987
598.40 0.4984
598.50 0.4981
598.60 0.4977
598.70 0.4974
598.80 0.4971
598.90 0.4968
599.00 0.4964
599.10 0.4961
599.20 0.4958
599.30 0.4955
599.40 0.4952
599.50 0.4948
599.60 0.4945
599.70 0.4942
599.80 0.4939
599.90 0.4936
600.00 0.4932
600.10 0.4929
600.20 0.4926
600.30 0.4923
600.40 0.492
600.50 0.4916
600.60 0.4913
600.70 0.491
600.80 0.4907
600.90 0.4904
601.00 0.4901
601.10 0.4897
601.20 0.4894
601.30 0.4891
601.40 0.4888
601.50 0.4885
601.60 0.4882
601.70 0.4879
601.80 0.4875
601.90 0.4872
602.00 0.4869
602.10 0.4866
602.20 0.4863
602.30 0.486
602.40 0.4857
602.50 0.4853
602.60 0.485
602.70 0.4847
602.80 0.4844
602.90 0.4841
603.00 0.4838
603.10 0.4835
603.20 0.4832
603.30 0.4828
603.40 0.4825
603.50 0.4822
603.60 0.4819
603.70 0.4816
603.80 0.4813
603.90 0.481
604.00 0.4807
604.10 0.4804
604.20 0.4801
604.30 0.4797
604.40 0.4794
604.50 0.4791
604.60 0.4788
604.70 0.4785
604.80 0.4782
604.90 0.4779
605.00 0.4776
605.10 0.4773
605.20 0.477
605.30 0.4767
605.40 0.4764
605.50 0.4761
605.60 0.4758
605.70 0.4754
605.80 0.4751
605.90 0.4748
606.00 0.4745
606.10 0.4742
606.20 0.4739
606.30 0.4736
606.40 0.4733
606.50 0.473
606.60 0.4727
606.70 0.4724
606.80 0.4721
606.90 0.4718
607.00 0.4715
607.10 0.4712
607.20 0.4709
607.30 0.4706
607.40 0.4703
607.50 0.47
607.60 0.4697
607.70 0.4694
607.80 0.4691
607.90 0.4688
608.00 0.4685
608.10 0.4682
608.20 0.4679
608.30 0.4676
608.40 0.4673
608.50 0.467
608.60 0.4667
608.70 0.4664
608.80 0.4661
608.90 0.4658
609.00 0.4655
609.10 0.4652
609.20 0.4649
609.30 0.4646
609.40 0.4643
609.50 0.464
609.60 0.4637
609.70 0.4634
609.80 0.4631
609.90 0.4629
610.00 0.4626
610.10 0.4623
610.20 0.462
610.30 0.4617
610.40 0.4614
610.50 0.4611
610.60 0.4608
610.70 0.4605
610.80 0.4602
610.90 0.4599
611.00 0.4596
611.10 0.4593
611.20 0.459
611.30 0.4587
611.40 0.4585
611.50 0.4582
611.60 0.4579
611.70 0.4576
611.80 0.4573
611.90 0.457
612.00 0.4567
612.10 0.4564
612.20 0.4561
612.30 0.4558
612.40 0.4556
612.50 0.4553
612.60 0.455
612.70 0.4547
612.80 0.4544
612.90 0.4541
613.00 0.4538
613.10 0.4535
613.20 0.4533
613.30 0.453
613.40 0.4527
613.50 0.4524
613.60 0.4521
613.70 0.4518
613.80 0.4515
613.90 0.4512
614.00 0.451
614.10 0.4507
614.20 0.4504
614.30 0.4501
614.40 0.4498
614.50 0.4495
614.60 0.4492
614.70 0.449
614.80 0.4487
614.90 0.4484
615.00 0.4481
615.10 0.4478
615.20 0.4475
615.30 0.4473
615.40 0.447
615.50 0.4467
615.60 0.4464
615.70 0.4461
615.80 0.4459
615.90 0.4456
616.00 0.4453
616.10 0.445
616.20 0.4447
616.30 0.4445
616.40 0.4442
616.50 0.4439
616.60 0.4436
616.70 0.4433
616.80 0.4431
616.90 0.4428
617.00 0.4425
617.10 0.4422
617.20 0.4419
617.30 0.4417
617.40 0.4414
617.50 0.4411
617.60 0.4408
617.70 0.4405
617.80 0.4403
617.90 0.44
618.00 0.4397
618.10 0.4394
618.20 0.4392
618.30 0.4389
618.40 0.4386
618.50 0.4383
618.60 0.4381
618.70 0.4378
618.80 0.4375
618.90 0.4372
619.00 0.437
619.10 0.4367
619.20 0.4364
619.30 0.4361
619.40 0.4359
619.50 0.4356
619.60 0.4353
619.70 0.435
619.80 0.4348
619.90 0.4345
620.00 0.4342
620.10 0.434
620.20 0.4337
620.30 0.4334
620.40 0.4331
620.50 0.4329
620.60 0.4326
620.70 0.4323
620.80 0.4321
620.90 0.4318
621.00 0.4315
621.10 0.4312
621.20 0.431
621.30 0.4307
621.40 0.4304
621.50 0.4302
621.60 0.4299
621.70 0.4296
621.80 0.4294
621.90 0.4291
622.00 0.4288
622.10 0.4286
622.20 0.4283
622.30 0.428
622.40 0.4278
622.50 0.4275
622.60 0.4272
622.70 0.427
622.80 0.4267
622.90 0.4264
623.00 0.4262
623.10 0.4259
623.20 0.4256
623.30 0.4254
623.40 0.4251
623.50 0.4248
623.60 0.4246
623.70 0.4243
623.80 0.424
623.90 0.4238
624.00 0.4235
624.10 0.4232
624.20 0.423
624.30 0.4227
624.40 0.4225
624.50 0.4222
624.60 0.4219
624.70 0.4217
624.80 0.4214
624.90 0.4211
625.00 0.4209
625.10 0.4206
625.20 0.4203
625.30 0.4201
625.40 0.4198
625.50 0.4196
625.60 0.4193
625.70 0.419
625.80 0.4188
625.90 0.4185
626.00 0.4183
626.10 0.418
626.20 0.4177
626.30 0.4175
626.40 0.4172
626.50 0.417
626.60 0.4167
626.70 0.4165
626.80 0.4162
626.90 0.4159
627.00 0.4157
627.10 0.4154
627.20 0.4152
627.30 0.4149
627.40 0.4146
627.50 0.4144
627.60 0.4141
627.70 0.4139
627.80 0.4136
627.90 0.4134
628.00 0.4131
628.10 0.4129
628.20 0.4126
628.30 0.4123
628.40 0.4121
628.50 0.4118
628.60 0.4116
628.70 0.4113
628.80 0.4111
628.90 0.4108
629.00 0.4106
629.10 0.4103
629.20 0.4101
629.30 0.4098
629.40 0.4095
629.50 0.4093
629.60 0.409
629.70 0.4088
629.80 0.4085
629.90 0.4083
630.00 0.408
630.10 0.4078
630.20 0.4075
630.30 0.4073
630.40 0.407
630.50 0.4068
630.60 0.4065
630.70 0.4063
630.80 0.406
630.90 0.4058
631.00 0.4055
631.10 0.4053
631.20 0.405
631.30 0.4048
631.40 0.4045
631.50 0.4043
631.60 0.404
631.70 0.4038
631.80 0.4035
631.90 0.4033
632.00 0.403
632.10 0.4028
632.20 0.4025
632.30 0.4023
632.40 0.402
632.50 0.4018
632.60 0.4015
632.70 0.4013
632.80 0.4011
632.90 0.4008
633.00 0.4006
633.10 0.4003
633.20 0.4001
633.30 0.3998
633.40 0.3996
633.50 0.3993
633.60 0.3991
633.70 0.3988
633.80 0.3986
633.90 0.3983
634.00 0.3981
634.10 0.3979
634.20 0.3976
634.30 0.3974
634.40 0.3971
634.50 0.3969
634.60 0.3966
634.70 0.3964
634.80 0.3962
634.90 0.3959
635.00 0.3957
635.10 0.3954
635.20 0.3952
635.30 0.3949
635.40 0.3947
635.50 0.3945
635.60 0.3942
635.70 0.394
635.80 0.3937
635.90 0.3935
636.00 0.3933
636.10 0.393
636.20 0.3928
636.30 0.3925
636.40 0.3923
636.50 0.392
636.60 0.3918
636.70 0.3916
636.80 0.3913
636.90 0.3911
637.00 0.3909
637.10 0.3906
637.20 0.3904
637.30 0.3901
637.40 0.3899
637.50 0.3897
637.60 0.3894
637.70 0.3892
637.80 0.3889
637.90 0.3887
638.00 0.3885
638.10 0.3882
638.20 0.388
638.30 0.3878
638.40 0.3875
638.50 0.3873
638.60 0.387
638.70 0.3868
638.80 0.3866
638.90 0.3863
639.00 0.3861
639.10 0.3859
639.20 0.3856
639.30 0.3854
639.40 0.3852
639.50 0.3849
639.60 0.3847
639.70 0.3845
639.80 0.3842
639.90 0.384
640.00 0.3838
640.10 0.3835
640.20 0.3833
640.30 0.3831
640.40 0.3828
640.50 0.3826
640.60 0.3824
640.70 0.3821
640.80 0.3819
640.90 0.3817
641.00 0.3814
641.10 0.3812
641.20 0.381
641.30 0.3807
641.40 0.3805
641.50 0.3803
641.60 0.38
641.70 0.3798
641.80 0.3796
641.90 0.3793
642.00 0.3791
642.10 0.3789
642.20 0.3786
642.30 0.3784
642.40 0.3782
642.50 0.378
642.60 0.3777
642.70 0.3775
642.80 0.3773
642.90 0.377
643.00 0.3768
643.10 0.3766
643.20 0.3763
643.30 0.3761
643.40 0.3759
643.50 0.3757
643.60 0.3754
643.70 0.3752
643.80 0.375
643.90 0.3747
644.00 0.3745
644.10 0.3743
644.20 0.3741
644.30 0.3738
644.40 0.3736
644.50 0.3734
644.60 0.3731
644.70 0.3729
644.80 0.3727
644.90 0.3725
645.00 0.3722
645.10 0.372
645.20 0.3718
645.30 0.3716
645.40 0.3713
645.50 0.3711
645.60 0.3709
645.70 0.3706
645.80 0.3704
645.90 0.3702
646.00 0.37
646.10 0.3697
646.20 0.3695
646.30 0.3693
646.40 0.3691
646.50 0.3688
646.60 0.3686
646.70 0.3684
646.80 0.3682
646.90 0.3679
647.00 0.3677
647.10 0.3675
647.20 0.3673
647.30 0.367
647.40 0.3668
647.50 0.3666
647.60 0.3663
647.70 0.3661
647.80 0.3659
647.90 0.3657
648.00 0.3654
648.10 0.3652
648.20 0.365
648.30 0.3648
648.40 0.3645
648.50 0.3643
648.60 0.3641
648.70 0.3638
648.80 0.3636
648.90 0.3634
649.00 0.3632
649.10 0.3629
649.20 0.3627
649.30 0.3625
649.40 0.3622
649.50 0.362
649.60 0.3618
649.70 0.3615
649.80 0.3613
649.90 0.3611
650.00 0.3609
650.10 0.3606
650.20 0.3604
650.30 0.3602
650.40 0.3599
650.50 0.3597
650.60 0.3594
650.70 0.3592
650.80 0.3589
650.90 0.3587
651.00 0.3585
651.10 0.3582
651.20 0.358
651.30 0.3577
651.40 0.3575
651.50 0.3572
651.60 0.3569
651.70 0.3567
651.80 0.3564
651.90 0.3561
652.00 0.3559
652.10 0.3556
652.20 0.3553
652.30 0.3551
652.40 0.3547
652.50 0.3544
652.60 0.3541
652.70 0.3538
652.80 0.3534
652.90 0.3531
653.00 0.3528
653.10 0.3525
653.20 0.3521
653.30 0.3518
653.40 0.3513
653.50 0.3507
653.60 0.3502
653.70 0.3497
653.80 0.3492
653.90 0.3487
654.00 0.3482
654.10 0.3476
654.20 0.3471
654.30 0.3465
654.40 0.3456
654.50 0.3447
654.60 0.3437
654.70 0.3428
654.80 0.3417
654.90 0.34
655.00 0.3384
655.10 0.3367
655.20 0.335
655.30 0.3331
655.40 0.3304
655.50 0.3274
655.60 0.3234
655.70 0.319
655.80 0.3127
655.90 0.305
656.00 0.292
656.10 0.2779
656.20 0.276
656.30 0.2903
656.40 0.2708
656.50 0.283
656.60 0.2958
656.70 0.3072
656.80 0.3132
656.90 0.3186
657.00 0.3222
657.10 0.3255
657.20 0.3279
657.30 0.33
657.40 0.3313
657.50 0.3325
657.60 0.3338
657.70 0.3351
657.80 0.3362
657.90 0.3367
658.00 0.3372
658.10 0.3377
658.20 0.3382
658.30 0.3387
658.40 0.3388
658.50 0.3389
658.60 0.339
658.70 0.3391
658.80 0.3392
658.90 0.3393
659.00 0.3394
659.10 0.3395
659.20 0.3396
659.30 0.3396
659.40 0.3395
659.50 0.3394
659.60 0.3393
659.70 0.3393
659.80 0.3392
659.90 0.3391
660.00 0.339
660.10 0.3389
660.20 0.3388
660.30 0.3387
660.40 0.3385
660.50 0.3384
660.60 0.3382
660.70 0.3381
660.80 0.3379
660.90 0.3378
661.00 0.3376
661.10 0.3375
661.20 0.3373
661.30 0.3372
661.40 0.337
661.50 0.3368
661.60 0.3367
661.70 0.3365
661.80 0.3363
661.90 0.3361
662.00 0.336
662.10 0.3358
662.20 0.3356
662.30 0.3355
662.40 0.3353
662.50 0.3351
662.60 0.3349
662.70 0.3347
662.80 0.3345
662.90 0.3344
663.00 0.3342
663.10 0.334
663.20 0.3338
663.30 0.3336
663.40 0.3334
663.50 0.3333
663.60 0.3331
663.70 0.3329
663.80 0.3327
663.90 0.3325
664.00 0.3323
664.10 0.3321
664.20 0.332
664.30 0.3318
664.40 0.3316
664.50 0.3314
664.60 0.3312
664.70 0.331
664.80 0.3308
664.90 0.3306
665.00 0.3305
665.10 0.3303
665.20 0.3301
665.30 0.3299
665.40 0.3297
665.50 0.3295
665.60 0.3293
665.70 0.3291
665.80 0.329
665.90 0.3288
666.00 0.3286
666.10 0.3284
666.20 0.3282
666.30 0.328
666.40 0.3278
666.50 0.3276
666.60 0.3274
666.70 0.3273
666.80 0.3271
666.90 0.3269
667.00 0.3267
667.10 0.3265
667.20 0.3263
667.30 0.3261
667.40 0.3259
667.50 0.3258
667.60 0.3256
667.70 0.3254
667.80 0.3252
667.90 0.325
668.00 0.3248
668.10 0.3246
668.20 0.3244
668.30 0.3243
668.40 0.3241
668.50 0.3239
668.60 0.3237
668.70 0.3235
668.80 0.3233
668.90 0.3231
669.00 0.3229
669.10 0.3228
669.20 0.3226
669.30 0.3224
669.40 0.3222
669.50 0.322
669.60 0.3218
669.70 0.3216
669.80 0.3215
669.90 0.3213
670.00 0.3211
670.10 0.3209
670.20 0.3207
670.30 0.3205
670.40 0.3204
670.50 0.3202
670.60 0.32
670.70 0.3198
670.80 0.3196
670.90 0.3194
671.00 0.3192
671.10 0.3191
671.20 0.3189
671.30 0.3187
671.40 0.3185
671.50 0.3183
671.60 0.3181
671.70 0.318
671.80 0.3178
671.90 0.3176
672.00 0.3174
672.10 0.3172
672.20 0.317
672.30 0.3169
672.40 0.3167
672.50 0.3165
672.60 0.3163
672.70 0.3161
672.80 0.3159
672.90 0.3158
673.00 0.3156
673.10 0.3154
673.20 0.3152
673.30 0.315
673.40 0.3149
673.50 0.3147
673.60 0.3145
673.70 0.3143
673.80 0.3141
673.90 0.3139
674.00 0.3138
674.10 0.3136
674.20 0.3134
674.30 0.3132
674.40 0.313
674.50 0.3129
674.60 0.3127
674.70 0.3125
674.80 0.3123
674.90 0.3121
675.00 0.312
675.10 0.3118
675.20 0.3116
675.30 0.3114
675.40 0.3112
675.50 0.3111
675.60 0.3109
675.70 0.3107
675.80 0.3105
675.90 0.3104
676.00 0.3102
676.10 0.31
676.20 0.3098
676.30 0.3096
676.40 0.3095
676.50 0.3093
676.60 0.3091
676.70 0.3089
676.80 0.3088
676.90 0.3086
677.00 0.3084
677.10 0.3082
677.20 0.308
677.30 0.3079
677.40 0.3077
677.50 0.3075
677.60 0.3073
677.70 0.3072
677.80 0.307
677.90 0.3068
678.00 0.3066
678.10 0.3065
678.20 0.3063
678.30 0.3061
678.40 0.3059
678.50 0.3058
678.60 0.3056
678.70 0.3054
678.80 0.3052
678.90 0.3051
679.00 0.3049
679.10 0.3047
679.20 0.3045
679.30 0.3044
679.40 0.3042
679.50 0.304
679.60 0.3038
679.70 0.3037
679.80 0.3035
679.90 0.3033
680.00 0.3031
680.10 0.303
680.20 0.3028
680.30 0.3026
680.40 0.3024
680.50 0.3023
680.60 0.3021
680.70 0.3019
680.80 0.3018
680.90 0.3016
681.00 0.3014
681.10 0.3012
681.20 0.3011
681.30 0.3009
681.40 0.3007
681.50 0.3006
681.60 0.3004
681.70 0.3002
681.80 0.3
681.90 0.2999
682.00 0.2997
682.10 0.2995
682.20 0.2994
682.30 0.2992
682.40 0.299
682.50 0.2988
682.60 0.2987
682.70 0.2985
682.80 0.2983
682.90 0.2982
683.00 0.298
683.10 0.2978
683.20 0.2977
683.30 0.2975
683.40 0.2973
683.50 0.2971
683.60 0.297
683.70 0.2968
683.80 0.2966
683.90 0.2965
684.00 0.2963
684.10 0.2961
684.20 0.296
684.30 0.2958
684.40 0.2956
684.50 0.2955
684.60 0.2953
684.70 0.2951
684.80 0.295
684.90 0.2948
685.00 0.2946
685.10 0.2945
685.20 0.2943
685.30 0.2941
685.40 0.294
685.50 0.2938
685.60 0.2936
685.70 0.2935
685.80 0.2933
685.90 0.2931
686.00 0.293
686.10 0.2928
686.20 0.2926
686.30 0.2925
686.40 0.2923
686.50 0.2921
686.60 0.292
686.70 0.2918
686.80 0.2916
686.90 0.2915
687.00 0.2913
687.10 0.2911
687.20 0.291
687.30 0.2908
687.40 0.2906
687.50 0.2905
687.60 0.2903
687.70 0.2901
687.80 0.29
687.90 0.2898
688.00 0.2897
688.10 0.2895
688.20 0.2893
688.30 0.2892
688.40 0.289
688.50 0.2888
688.60 0.2887
688.70 0.2885
688.80 0.2883
688.90 0.2882
689.00 0.288
689.10 0.2879
689.20 0.2877
689.30 0.2875
689.40 0.2874
689.50 0.2872
689.60 0.287
689.70 0.2869
689.80 0.2867
689.90 0.2866
690.00 0.2864
690.10 0.2862
690.20 0.2861
690.30 0.2859
690.40 0.2858
690.50 0.2856
690.60 0.2854
690.70 0.2853
690.80 0.2851
690.90 0.285
691.00 0.2848
691.10 0.2846
691.20 0.2845
691.30 0.2843
691.40 0.2842
691.50 0.284
691.60 0.2838
691.70 0.2837
691.80 0.2835
691.90 0.2834
692.00 0.2832
692.10 0.283
692.20 0.2829
692.30 0.2827
692.40 0.2826
692.50 0.2824
692.60 0.2822
692.70 0.2821
692.80 0.2819
692.90 0.2818
693.00 0.2816
693.10 0.2815
693.20 0.2813
693.30 0.2811
693.40 0.281
693.50 0.2808
693.60 0.2807
693.70 0.2805
693.80 0.2803
693.90 0.2802
694.00 0.28
694.10 0.2799
694.20 0.2797
694.30 0.2796
694.40 0.2794
694.50 0.2792
694.60 0.2791
694.70 0.2789
694.80 0.2788
694.90 0.2786
695.00 0.2785
695.10 0.2783
695.20 0.2781
695.30 0.278
695.40 0.2778
695.50 0.2777
695.60 0.2775
695.70 0.2774
695.80 0.2772
695.90 0.2771
696.00 0.2769
696.10 0.2768
696.20 0.2766
696.30 0.2764
696.40 0.2763
696.50 0.2761
696.60 0.276
696.70 0.2758
696.80 0.2757
696.90 0.2755
697.00 0.2754
697.10 0.2752
697.20 0.2751
697.30 0.2749
697.40 0.2748
697.50 0.2746
697.60 0.2744
697.70 0.2743
697.80 0.2741
697.90 0.274
698.00 0.2738
698.10 0.2737
698.20 0.2735
698.30 0.2734
698.40 0.2732
698.50 0.2731
698.60 0.2729
698.70 0.2728
698.80 0.2726
698.90 0.2725
699.00 0.2723
699.10 0.2722
699.20 0.272
699.30 0.2719
699.40 0.2717
699.50 0.2715
699.60 0.2714
699.70 0.2712
699.80 0.2711
699.90 0.2709
700.00 0.2708
700.10 0.2706
700.20 0.2705
700.30 0.2703
700.40 0.2702
700.50 0.27
700.60 0.2699
700.70 0.2697
700.80 0.2696
700.90 0.2694
701.00 0.2693
701.10 0.2691
701.20 0.269
701.30 0.2688
701.40 0.2687
701.50 0.2686
701.60 0.2684
701.70 0.2683
701.80 0.2681
701.90 0.268
702.00 0.2678
702.10 0.2677
702.20 0.2675
702.30 0.2674
702.40 0.2672
702.50 0.2671
702.60 0.2669
702.70 0.2668
702.80 0.2666
702.90 0.2665
703.00 0.2663
703.10 0.2662
703.20 0.266
703.30 0.2659
703.40 0.2657
703.50 0.2656
703.60 0.2654
703.70 0.2653
703.80 0.2651
703.90 0.265
704.00 0.2649
704.10 0.2647
704.20 0.2646
704.30 0.2644
704.40 0.2643
704.50 0.2641
704.60 0.264
704.70 0.2638
704.80 0.2637
704.90 0.2635
705.00 0.2634
705.10 0.2632
705.20 0.2631
705.30 0.263
705.40 0.2628
705.50 0.2627
705.60 0.2625
705.70 0.2624
705.80 0.2622
705.90 0.2621
706.00 0.2619
706.10 0.2618
706.20 0.2617
706.30 0.2615
706.40 0.2614
706.50 0.2612
706.60 0.2611
706.70 0.2609
706.80 0.2608
706.90 0.2606
707.00 0.2605
707.10 0.2604
707.20 0.2602
707.30 0.2601
707.40 0.2599
707.50 0.2598
707.60 0.2596
707.70 0.2595
707.80 0.2594
707.90 0.2592
708.00 0.2591
708.10 0.2589
708.20 0.2588
708.30 0.2586
708.40 0.2585
708.50 0.2584
708.60 0.2582
708.70 0.2581
708.80 0.2579
708.90 0.2578
709.00 0.2577
709.10 0.2575
709.20 0.2574
709.30 0.2572
709.40 0.2571
709.50 0.2569
709.60 0.2568
709.70 0.2567
709.80 0.2565
709.90 0.2564
710.00 0.2562
710.10 0.2561
710.20 0.256
710.30 0.2558
710.40 0.2557
710.50 0.2555
710.60 0.2554
710.70 0.2553
710.80 0.2551
710.90 0.255
711.00 0.2548
711.10 0.2547
711.20 0.2546
711.30 0.2544
711.40 0.2543
711.50 0.2541
711.60 0.254
711.70 0.2539
711.80 0.2537
711.90 0.2536
712.00 0.2534
712.10 0.2533
712.20 0.2532
712.30 0.253
712.40 0.2529
712.50 0.2528
712.60 0.2526
712.70 0.2525
712.80 0.2523
712.90 0.2522
713.00 0.2521
713.10 0.2519
713.20 0.2518
713.30 0.2517
713.40 0.2515
713.50 0.2514
713.60 0.2512
713.70 0.2511
713.80 0.251
713.90 0.2508
714.00 0.2507
714.10 0.2506
714.20 0.2504
714.30 0.2503
714.40 0.2501
714.50 0.25
714.60 0.2499
714.70 0.2497
714.80 0.2496
714.90 0.2495
715.00 0.2493
715.10 0.2492
715.20 0.2491
715.30 0.2489
715.40 0.2488
715.50 0.2486
715.60 0.2485
715.70 0.2484
715.80 0.2482
715.90 0.2481
716.00 0.248
716.10 0.2478
716.20 0.2477
716.30 0.2476
716.40 0.2474
716.50 0.2473
716.60 0.2472
716.70 0.247
716.80 0.2469
716.90 0.2468
717.00 0.2466
717.10 0.2465
717.20 0.2464
717.30 0.2462
717.40 0.2461
717.50 0.246
717.60 0.2458
717.70 0.2457
717.80 0.2456
717.90 0.2454
718.00 0.2453
718.10 0.2452
718.20 0.245
718.30 0.2449
718.40 0.2448
718.50 0.2446
718.60 0.2445
718.70 0.2444
718.80 0.2442
718.90 0.2441
719.00 0.244
719.10 0.2438
719.20 0.2437
719.30 0.2436
719.40 0.2434
719.50 0.2433
719.60 0.2432
719.70 0.243
719.80 0.2429
719.90 0.2428
720.00 0.2426
720.10 0.2425
720.20 0.2424
720.30 0.2423
720.40 0.2421
720.50 0.242
720.60 0.2419
720.70 0.2417
720.80 0.2416
720.90 0.2415
721.00 0.2413
721.10 0.2412
721.20 0.2411
721.30 0.2409
721.40 0.2408
721.50 0.2407
721.60 0.2406
721.70 0.2404
721.80 0.2403
721.90 0.2402
722.00 0.24
722.10 0.2399
722.20 0.2398
722.30 0.2397
722.40 0.2395
722.50 0.2394
722.60 0.2393
722.70 0.2391
722.80 0.239
722.90 0.2389
723.00 0.2388
723.10 0.2386
723.20 0.2385
723.30 0.2384
723.40 0.2382
723.50 0.2381
723.60 0.238
723.70 0.2379
723.80 0.2377
723.90 0.2376
724.00 0.2375
724.10 0.2373
724.20 0.2372
724.30 0.2371
724.40 0.237
724.50 0.2368
724.60 0.2367
724.70 0.2366
724.80 0.2364
724.90 0.2363
725.00 0.2362
725.10 0.2361
725.20 0.2359
725.30 0.2358
725.40 0.2357
725.50 0.2356
725.60 0.2354
725.70 0.2353
725.80 0.2352
725.90 0.2351
726.00 0.2349
726.10 0.2348
726.20 0.2347
726.30 0.2345
726.40 0.2344
726.50 0.2343
726.60 0.2342
726.70 0.234
726.80 0.2339
726.90 0.2338
727.00 0.2337
727.10 0.2335
727.20 0.2334
727.30 0.2333
727.40 0.2332
727.50 0.233
727.60 0.2329
727.70 0.2328
727.80 0.2327
727.90 0.2325
728.00 0.2324
728.10 0.2323
728.20 0.2322
728.30 0.232
728.40 0.2319
728.50 0.2318
728.60 0.2317
728.70 0.2316
728.80 0.2314
728.90 0.2313
729.00 0.2312
729.10 0.2311
729.20 0.2309
729.30 0.2308
729.40 0.2307
729.50 0.2306
729.60 0.2304
729.70 0.2303
729.80 0.2302
729.90 0.2301
730.00 0.2299
730.10 0.2298
730.20 0.2297
730.30 0.2296
730.40 0.2295
730.50 0.2293
730.60 0.2292
730.70 0.2291
730.80 0.229
730.90 0.2289
731.00 0.2287
731.10 0.2286
731.20 0.2285
731.30 0.2284
731.40 0.2282
731.50 0.2281
731.60 0.228
731.70 0.2279
731.80 0.2278
731.90 0.2276
732.00 0.2275
732.10 0.2274
732.20 0.2273
732.30 0.2272
732.40 0.227
732.50 0.2269
732.60 0.2268
732.70 0.2267
732.80 0.2266
732.90 0.2264
733.00 0.2263
733.10 0.2262
733.20 0.2261
733.30 0.226
733.40 0.2258
733.50 0.2257
733.60 0.2256
733.70 0.2255
733.80 0.2254
733.90 0.2252
734.00 0.2251
734.10 0.225
734.20 0.2249
734.30 0.2248
734.40 0.2246
734.50 0.2245
734.60 0.2244
734.70 0.2243
734.80 0.2242
734.90 0.2241
735.00 0.2239
735.10 0.2238
735.20 0.2237
735.30 0.2236
735.40 0.2235
735.50 0.2233
735.60 0.2232
735.70 0.2231
735.80 0.223
735.90 0.2229
736.00 0.2227
736.10 0.2226
736.20 0.2225
736.30 0.2224
736.40 0.2223
736.50 0.2222
736.60 0.222
736.70 0.2219
736.80 0.2218
736.90 0.2217
737.00 0.2216
737.10 0.2215
737.20 0.2213
737.30 0.2212
737.40 0.2211
737.50 0.221
737.60 0.2209
737.70 0.2207
737.80 0.2206
737.90 0.2205
738.00 0.2204
738.10 0.2203
738.20 0.2202
738.30 0.22
738.40 0.2199
738.50 0.2198
738.60 0.2197
738.70 0.2196
738.80 0.2195
738.90 0.2193
739.00 0.2192
739.10 0.2191
739.20 0.219
739.30 0.2189
739.40 0.2188
739.50 0.2186
739.60 0.2185
739.70 0.2184
739.80 0.2183
739.90 0.2182
740.00 0.2181
740.10 0.218
740.20 0.2178
740.30 0.2177
740.40 0.2176
740.50 0.2175
740.60 0.2174
740.70 0.2173
740.80 0.2172
740.90 0.217
741.00 0.2169
741.10 0.2168
741.20 0.2167
741.30 0.2166
741.40 0.2165
741.50 0.2164
741.60 0.2163
741.70 0.2161
741.80 0.216
741.90 0.2159
742.00 0.2158
742.10 0.2157
742.20 0.2156
742.30 0.2155
742.40 0.2153
742.50 0.2152
742.60 0.2151
742.70 0.215
742.80 0.2149
742.90 0.2148
743.00 0.2147
743.10 0.2146
743.20 0.2144
743.30 0.2143
743.40 0.2142
743.50 0.2141
743.60 0.214
743.70 0.2139
743.80 0.2138
743.90 0.2137
744.00 0.2136
744.10 0.2134
744.20 0.2133
744.30 0.2132
744.40 0.2131
744.50 0.213
744.60 0.2129
744.70 0.2128
744.80 0.2127
744.90 0.2126
745.00 0.2124
745.10 0.2123
745.20 0.2122
745.30 0.2121
745.40 0.212
745.50 0.2119
745.60 0.2118
745.70 0.2117
745.80 0.2116
745.90 0.2114
746.00 0.2113
746.10 0.2112
746.20 0.2111
746.30 0.211
746.40 0.2109
746.50 0.2108
746.60 0.2107
746.70 0.2106
746.80 0.2104
746.90 0.2103
747.00 0.2102
747.10 0.2101
747.20 0.21
747.30 0.2099
747.40 0.2098
747.50 0.2097
747.60 0.2096
747.70 0.2095
747.80 0.2093
747.90 0.2092
748.00 0.2091
748.10 0.209
748.20 0.2089
748.30 0.2088
748.40 0.2087
748.50 0.2086
748.60 0.2085
748.70 0.2084
748.80 0.2083
748.90 0.2081
749.00 0.208
749.10 0.2079
749.20 0.2078
749.30 0.2077
749.40 0.2076
749.50 0.2075
749.60 0.2074
749.70 0.2073
749.80 0.2072
749.90 0.2071
750.00 0.2069
750.10 0.2068
750.20 0.2067
750.30 0.2066
750.40 0.2065
750.50 0.2064
750.60 0.2063
750.70 0.2062
750.80 0.2061
750.90 0.206
751.00 0.2059
751.10 0.2058
751.20 0.2057
751.30 0.2056
751.40 0.2055
751.50 0.2054
751.60 0.2052
751.70 0.2051
751.80 0.205
751.90 0.2049
752.00 0.2048
752.10 0.2047
752.20 0.2046
752.30 0.2045
752.40 0.2044
752.50 0.2043
752.60 0.2042
752.70 0.2041
752.80 0.204
752.90 0.2039
753.00 0.2038
753.10 0.2037
753.20 0.2036
753.30 0.2035
753.40 0.2033
753.50 0.2032
753.60 0.2031
753.70 0.203
753.80 0.2029
753.90 0.2028
754.00 0.2027
754.10 0.2026
754.20 0.2025
754.30 0.2024
754.40 0.2023
754.50 0.2022
754.60 0.2021
754.70 0.202
754.80 0.2019
754.90 0.2018
755.00 0.2017
755.10 0.2016
755.20 0.2015
755.30 0.2014
755.40 0.2013
755.50 0.2012
755.60 0.2011
755.70 0.2009
755.80 0.2008
755.90 0.2007
756.00 0.2006
756.10 0.2005
756.20 0.2004
756.30 0.2003
756.40 0.2002
756.50 0.2001
756.60 0.2
756.70 0.1999
756.80 0.1998
756.90 0.1997
757.00 0.1996
757.10 0.1995
757.20 0.1994
757.30 0.1993
757.40 0.1992
757.50 0.1991
757.60 0.199
757.70 0.1989
757.80 0.1988
757.90 0.1987
758.00 0.1986
758.10 0.1985
758.20 0.1984
758.30 0.1983
758.40 0.1982
758.50 0.1981
758.60 0.198
758.70 0.1979
758.80 0.1978
758.90 0.1976
759.00 0.1975
759.10 0.1974
759.20 0.1973
759.30 0.1972
759.40 0.1971
759.50 0.197
759.60 0.1969
759.70 0.1968
759.80 0.1967
759.90 0.1966
760.00 0.1965
760.10 0.1964
760.20 0.1963
760.30 0.1962
760.40 0.1961
760.50 0.196
760.60 0.1959
760.70 0.1958
760.80 0.1957
760.90 0.1956
761.00 0.1955
761.10 0.1954
761.20 0.1953
761.30 0.1952
761.40 0.1951
761.50 0.195
761.60 0.1949
761.70 0.1948
761.80 0.1947
761.90 0.1946
762.00 0.1945
762.10 0.1944
762.20 0.1943
762.30 0.1942
762.40 0.1941
762.50 0.194
762.60 0.1939
762.70 0.1938
762.80 0.1937
762.90 0.1936
763.00 0.1935
763.10 0.1934
763.20 0.1933
763.30 0.1933
763.40 0.1932
763.50 0.1931
763.60 0.193
763.70 0.1929
763.80 0.1928
763.90 0.1927
764.00 0.1926
764.10 0.1925
764.20 0.1924
764.30 0.1923
764.40 0.1922
764.50 0.1921
764.60 0.192
764.70 0.1919
764.80 0.1918
764.90 0.1917
765.00 0.1916
765.10 0.1915
765.20 0.1914
765.30 0.1913
765.40 0.1912
765.50 0.1911
765.60 0.191
765.70 0.1909
765.80 0.1908
765.90 0.1907
766.00 0.1906
766.10 0.1905
766.20 0.1904
766.30 0.1903
766.40 0.1902
766.50 0.1901
766.60 0.19
766.70 0.1899
766.80 0.1898
766.90 0.1897
767.00 0.1896
767.10 0.1895
767.20 0.1894
767.30 0.1893
767.40 0.1893
767.50 0.1892
767.60 0.1891
767.70 0.189
767.80 0.1889
767.90 0.1888
768.00 0.1887
768.10 0.1886
768.20 0.1885
768.30 0.1884
768.40 0.1883
768.50 0.1882
768.60 0.1881
768.70 0.188
768.80 0.1879
768.90 0.1878
769.00 0.1877
769.10 0.1876
769.20 0.1875
769.30 0.1874
769.40 0.1873
769.50 0.1872
769.60 0.1871
769.70 0.187
769.80 0.1869
769.90 0.1869
770.00 0.1868
770.10 0.1867
770.20 0.1866
770.30 0.1865
770.40 0.1864
770.50 0.1863
770.60 0.1862
770.70 0.1861
770.80 0.186
770.90 0.1859
771.00 0.1858
771.10 0.1857
771.20 0.1856
771.30 0.1855
771.40 0.1854
771.50 0.1854
771.60 0.1853
771.70 0.1852
771.80 0.1851
771.90 0.185
772.00 0.1849
772.10 0.1848
772.20 0.1847
772.30 0.1846
772.40 0.1845
772.50 0.1844
772.60 0.1843
772.70 0.1842
772.80 0.1841
772.90 0.1841
773.00 0.184
773.10 0.1839
773.20 0.1838
773.30 0.1837
773.40 0.1836
773.50 0.1835
773.60 0.1834
773.70 0.1833
773.80 0.1832
773.90 0.1831
774.00 0.183
774.10 0.1829
774.20 0.1829
774.30 0.1828
774.40 0.1827
774.50 0.1826
774.60 0.1825
774.70 0.1824
774.80 0.1823
774.90 0.1822
775.00 0.1821
775.10 0.182
775.20 0.1819
775.30 0.1818
775.40 0.1818
775.50 0.1817
775.60 0.1816
775.70 0.1815
775.80 0.1814
775.90 0.1813
776.00 0.1812
776.10 0.1811
776.20 0.181
776.30 0.1809
776.40 0.1808
776.50 0.1807
776.60 0.1807
776.70 0.1806
776.80 0.1805
776.90 0.1804
777.00 0.1803
777.10 0.1802
777.20 0.1801
777.30 0.18
777.40 0.1799
777.50 0.1798
777.60 0.1797
777.70 0.1797
777.80 0.1796
777.90 0.1795
778.00 0.1794
778.10 0.1793
778.20 0.1792
778.30 0.1791
778.40 0.179
778.50 0.1789
778.60 0.1788
778.70 0.1788
778.80 0.1787
778.90 0.1786
779.00 0.1785
779.10 0.1784
779.20 0.1783
779.30 0.1782
779.40 0.1781
779.50 0.178
779.60 0.1779
779.70 0.1779
779.80 0.1778
779.90 0.1777
780.00 0.1776
780.10 0.1775
780.20 0.1774
780.30 0.1773
780.40 0.1772
780.50 0.1771
780.60 0.1771
780.70 0.177
780.80 0.1769
780.90 0.1768
781.00 0.1767
781.10 0.1766
781.20 0.1765
781.30 0.1764
781.40 0.1764
781.50 0.1763
781.60 0.1762
781.70 0.1761
781.80 0.176
781.90 0.1759
782.00 0.1758
782.10 0.1757
782.20 0.1757
782.30 0.1756
782.40 0.1755
782.50 0.1754
782.60 0.1753
782.70 0.1752
782.80 0.1751
782.90 0.175
783.00 0.175
783.10 0.1749
783.20 0.1748
783.30 0.1747
783.40 0.1746
783.50 0.1745
783.60 0.1744
783.70 0.1744
783.80 0.1743
783.90 0.1742
784.00 0.1741
784.10 0.174
784.20 0.1739
784.30 0.1738
784.40 0.1737
784.50 0.1737
784.60 0.1736
784.70 0.1735
784.80 0.1734
784.90 0.1733
785.00 0.1732
785.10 0.1731
785.20 0.1731
785.30 0.173
785.40 0.1729
785.50 0.1728
785.60 0.1727
785.70 0.1726
785.80 0.1725
785.90 0.1725
786.00 0.1724
786.10 0.1723
786.20 0.1722
786.30 0.1721
786.40 0.172
786.50 0.1719
786.60 0.1719
786.70 0.1718
786.80 0.1717
786.90 0.1716
787.00 0.1715
787.10 0.1714
787.20 0.1713
787.30 0.1713
787.40 0.1712
787.50 0.1711
787.60 0.171
787.70 0.1709
787.80 0.1708
787.90 0.1707
788.00 0.1707
788.10 0.1706
788.20 0.1705
788.30 0.1704
788.40 0.1703
788.50 0.1702
788.60 0.1702
788.70 0.1701
788.80 0.17
788.90 0.1699
789.00 0.1698
789.10 0.1697
789.20 0.1696
789.30 0.1696
789.40 0.1695
789.50 0.1694
789.60 0.1693
789.70 0.1692
789.80 0.1691
789.90 0.1691
790.00 0.169
790.10 0.1689
790.20 0.1688
790.30 0.1687
790.40 0.1686
790.50 0.1686
790.60 0.1685
790.70 0.1684
790.80 0.1683
790.90 0.1682
791.00 0.1681
791.10 0.1681
791.20 0.168
791.30 0.1679
791.40 0.1678
791.50 0.1677
791.60 0.1677
791.70 0.1676
791.80 0.1675
791.90 0.1674
792.00 0.1673
792.10 0.1672
792.20 0.1672
792.30 0.1671
792.40 0.167
792.50 0.1669
792.60 0.1668
792.70 0.1668
792.80 0.1667
792.90 0.1666
793.00 0.1665
793.10 0.1664
793.20 0.1663
793.30 0.1663
793.40 0.1662
793.50 0.1661
793.60 0.166
793.70 0.1659
793.80 0.1659
793.90 0.1658
794.00 0.1657
794.10 0.1656
794.20 0.1655
794.30 0.1654
794.40 0.1654
794.50 0.1653
794.60 0.1652
794.70 0.1651
794.80 0.165
794.90 0.165
795.00 0.1649
795.10 0.1648
795.20 0.1647
795.30 0.1646
795.40 0.1646
795.50 0.1645
795.60 0.1644
795.70 0.1643
795.80 0.1642
795.90 0.1642
796.00 0.1641
796.10 0.164
796.20 0.1639
796.30 0.1638
796.40 0.1637
796.50 0.1637
796.60 0.1636
796.70 0.1635
796.80 0.1634
796.90 0.1633
797.00 0.1633
797.10 0.1632
797.20 0.1631
797.30 0.163
797.40 0.1629
797.50 0.1629
797.60 0.1628
797.70 0.1627
797.80 0.1626
797.90 0.1625
798.00 0.1625
798.10 0.1624
798.20 0.1623
798.30 0.1622
798.40 0.1621
798.50 0.1621
798.60 0.162
798.70 0.1619
798.80 0.1618
798.90 0.1617
799.00 0.1617
799.10 0.1616
799.20 0.1615
799.30 0.1614
799.40 0.1614
799.50 0.1613
799.60 0.1612
799.70 0.1611
799.80 0.161
799.90 0.161
800.00 0.1609
800.10 0.1608
800.20 0.1607
800.30 0.1606
800.40 0.1606
800.50 0.1605
800.60 0.1604
800.70 0.1603
800.80 0.1603
800.90 0.1602
801.00 0.1601
801.10 0.16
801.20 0.1599
801.30 0.1599
801.40 0.1598
801.50 0.1597
801.60 0.1596
801.70 0.1596
801.80 0.1595
801.90 0.1594
802.00 0.1593
802.10 0.1592
802.20 0.1592
802.30 0.1591
802.40 0.159
802.50 0.1589
802.60 0.1589
802.70 0.1588
802.80 0.1587
802.90 0.1586
803.00 0.1586
803.10 0.1585
803.20 0.1584
803.30 0.1583
803.40 0.1582
803.50 0.1582
803.60 0.1581
803.70 0.158
803.80 0.1579
803.90 0.1579
804.00 0.1578
804.10 0.1577
804.20 0.1576
804.30 0.1576
804.40 0.1575
804.50 0.1574
804.60 0.1573
804.70 0.1573
804.80 0.1572
804.90 0.1571
805.00 0.157
805.10 0.1569
805.20 0.1569
805.30 0.1568
805.40 0.1567
805.50 0.1566
805.60 0.1566
805.70 0.1565
805.80 0.1564
805.90 0.1563
806.00 0.1563
806.10 0.1562
806.20 0.1561
806.30 0.156
806.40 0.156
806.50 0.1559
806.60 0.1558
806.70 0.1557
806.80 0.1557
806.90 0.1556
807.00 0.1555
807.10 0.1554
807.20 0.1554
807.30 0.1553
807.40 0.1552
807.50 0.1551
807.60 0.1551
807.70 0.155
807.80 0.1549
807.90 0.1548
808.00 0.1548
808.10 0.1547
808.20 0.1546
808.30 0.1545
808.40 0.1545
808.50 0.1544
808.60 0.1543
808.70 0.1542
808.80 0.1542
808.90 0.1541
809.00 0.154
809.10 0.1539
809.20 0.1539
809.30 0.1538
809.40 0.1537
809.50 0.1536
809.60 0.1536
809.70 0.1535
809.80 0.1534
809.90 0.1533
810.00 0.1533
810.10 0.1532
810.20 0.1531
810.30 0.153
810.40 0.153
810.50 0.1529
810.60 0.1528
810.70 0.1527
810.80 0.1527
810.90 0.1526
811.00 0.1525
811.10 0.1525
811.20 0.1524
811.30 0.1523
811.40 0.1522
811.50 0.1522
811.60 0.1521
811.70 0.152
811.80 0.1519
811.90 0.1519
812.00 0.1518
812.10 0.1517
812.20 0.1517
812.30 0.1516
812.40 0.1515
812.50 0.1514
812.60 0.1514
812.70 0.1513
812.80 0.1512
812.90 0.1511
813.00 0.1511
813.10 0.151
813.20 0.1509
813.30 0.1509
813.40 0.1508
813.50 0.1507
813.60 0.1506
813.70 0.1506
813.80 0.1505
813.90 0.1504
814.00 0.1504
814.10 0.1503
814.20 0.1502
814.30 0.1501
814.40 0.1501
814.50 0.15
814.60 0.1499
814.70 0.1499
814.80 0.1498
814.90 0.1497
815.00 0.1496
815.10 0.1496
815.20 0.1495
815.30 0.1494
815.40 0.1493
815.50 0.1493
815.60 0.1492
815.70 0.1491
815.80 0.1491
815.90 0.149
816.00 0.1489
816.10 0.1488
816.20 0.1488
816.30 0.1487
816.40 0.1486
816.50 0.1486
816.60 0.1485
816.70 0.1484
816.80 0.1484
816.90 0.1483
817.00 0.1482
817.10 0.1481
817.20 0.1481
817.30 0.148
817.40 0.1479
817.50 0.1479
817.60 0.1478
817.70 0.1477
817.80 0.1476
817.90 0.1476
818.00 0.1475
818.10 0.1474
818.20 0.1474
818.30 0.1473
818.40 0.1472
818.50 0.1471
818.60 0.1471
818.70 0.147
818.80 0.1469
818.90 0.1469
819.00 0.1468
819.10 0.1467
819.20 0.1467
819.30 0.1466
819.40 0.1465
819.50 0.1464
819.60 0.1464
819.70 0.1463
819.80 0.1462
819.90 0.1462
820.00 0.1461
820.10 0.146
820.20 0.1459
820.30 0.1459
820.40 0.1458
820.50 0.1457
820.60 0.1457
820.70 0.1456
820.80 0.1455
820.90 0.1455
821.00 0.1454
821.10 0.1453
821.20 0.1453
821.30 0.1452
821.40 0.1451
821.50 0.145
821.60 0.145
821.70 0.1449
821.80 0.1448
821.90 0.1448
822.00 0.1447
822.10 0.1446
822.20 0.1446
822.30 0.1445
822.40 0.1444
822.50 0.1444
822.60 0.1443
822.70 0.1442
822.80 0.1442
822.90 0.1441
823.00 0.144
823.10 0.144
823.20 0.1439
823.30 0.1438
823.40 0.1437
823.50 0.1437
823.60 0.1436
823.70 0.1435
823.80 0.1435
823.90 0.1434
824.00 0.1433
824.10 0.1433
824.20 0.1432
824.30 0.1431
824.40 0.1431
824.50 0.143
824.60 0.1429
824.70 0.1429
824.80 0.1428
824.90 0.1427
825.00 0.1427
825.10 0.1426
825.20 0.1425
825.30 0.1425
825.40 0.1424
825.50 0.1423
825.60 0.1423
825.70 0.1422
825.80 0.1421
825.90 0.1421
826.00 0.142
826.10 0.1419
826.20 0.1419
826.30 0.1418
826.40 0.1417
826.50 0.1417
826.60 0.1416
826.70 0.1415
826.80 0.1415
826.90 0.1414
827.00 0.1413
827.10 0.1413
827.20 0.1412
827.30 0.1411
827.40 0.1411
827.50 0.141
827.60 0.1409
827.70 0.1409
827.80 0.1408
827.90 0.1407
828.00 0.1407
828.10 0.1406
828.20 0.1405
828.30 0.1405
828.40 0.1404
828.50 0.1403
828.60 0.1403
828.70 0.1402
828.80 0.1401
828.90 0.1401
829.00 0.14
829.10 0.1399
829.20 0.1399
829.30 0.1398
829.40 0.1397
829.50 0.1397
829.60 0.1396
829.70 0.1395
829.80 0.1395
829.90 0.1394
830.00 0.1393
830.10 0.1393
830.20 0.1392
830.30 0.1391
830.40 0.1391
830.50 0.139
830.60 0.1389
830.70 0.1389
830.80 0.1388
830.90 0.1387
831.00 0.1387
831.10 0.1386
831.20 0.1386
831.30 0.1385
831.40 0.1384
831.50 0.1384
831.60 0.1383
831.70 0.1382
831.80 0.1382
831.90 0.1381
832.00 0.138
832.10 0.138
832.20 0.1379
832.30 0.1378
832.40 0.1378
832.50 0.1377
832.60 0.1376
832.70 0.1376
832.80 0.1375
832.90 0.1374
833.00 0.1374
833.10 0.1373
833.20 0.1373
833.30 0.1372
833.40 0.1371
833.50 0.1371
833.60 0.137
833.70 0.1369
833.80 0.1369
833.90 0.1368
834.00 0.1367
834.10 0.1367
834.20 0.1366
834.30 0.1365
834.40 0.1365
834.50 0.1364
834.60 0.1364
834.70 0.1363
834.80 0.1362
834.90 0.1362
835.00 0.1361
835.10 0.136
835.20 0.136
835.30 0.1359
835.40 0.1358
835.50 0.1358
835.60 0.1357
835.70 0.1357
835.80 0.1356
835.90 0.1355
836.00 0.1355
836.10 0.1354
836.20 0.1353
836.30 0.1353
836.40 0.1352
836.50 0.1351
836.60 0.1351
836.70 0.135
836.80 0.135
836.90 0.1349
837.00 0.1348
837.10 0.1348
837.20 0.1347
837.30 0.1346
837.40 0.1346
837.50 0.1345
837.60 0.1345
837.70 0.1344
837.80 0.1343
837.90 0.1343
838.00 0.1342
838.10 0.1341
838.20 0.1341
838.30 0.134
838.40 0.134
838.50 0.1339
838.60 0.1338
838.70 0.1338
838.80 0.1337
838.90 0.1336
839.00 0.1336
839.10 0.1335
839.20 0.1335
839.30 0.1334
839.40 0.1333
839.50 0.1333
839.60 0.1332
839.70 0.1331
839.80 0.1331
839.90 0.133
840.00 0.133
840.10 0.1329
840.20 0.1328
840.30 0.1328
840.40 0.1327
840.50 0.1327
840.60 0.1326
840.70 0.1325
840.80 0.1325
840.90 0.1324
841.00 0.1323
841.10 0.1323
841.20 0.1322
841.30 0.1322
841.40 0.1321
841.50 0.132
841.60 0.132
841.70 0.1319
841.80 0.1318
841.90 0.1318
842.00 0.1317
842.10 0.1317
842.20 0.1316
842.30 0.1315
842.40 0.1315
842.50 0.1314
842.60 0.1314
842.70 0.1313
842.80 0.1312
842.90 0.1312
843.00 0.1311
843.10 0.1311
843.20 0.131
843.30 0.1309
843.40 0.1309
843.50 0.1308
843.60 0.1308
843.70 0.1307
843.80 0.1306
843.90 0.1306
844.00 0.1305
844.10 0.1305
844.20 0.1304
844.30 0.1303
844.40 0.1303
844.50 0.1302
844.60 0.1301
844.70 0.1301
844.80 0.13
844.90 0.13
845.00 0.1299
845.10 0.1298
845.20 0.1298
845.30 0.1297
845.40 0.1297
845.50 0.1296
845.60 0.1295
845.70 0.1295
845.80 0.1294
845.90 0.1294
846.00 0.1293
846.10 0.1292
846.20 0.1292
846.30 0.1291
846.40 0.1291
846.50 0.129
846.60 0.1289
846.70 0.1289
846.80 0.1288
846.90 0.1288
847.00 0.1287
847.10 0.1287
847.20 0.1286
847.30 0.1285
847.40 0.1285
847.50 0.1284
847.60 0.1284
847.70 0.1283
847.80 0.1282
847.90 0.1282
848.00 0.1281
848.10 0.1281
848.20 0.128
848.30 0.1279
848.40 0.1279
848.50 0.1278
848.60 0.1278
848.70 0.1277
848.80 0.1276
848.90 0.1276
849.00 0.1275
849.10 0.1275
849.20 0.1274
849.30 0.1274
849.40 0.1273
849.50 0.1272
849.60 0.1272
849.70 0.1271
849.80 0.1271
849.90 0.127
850.00 0.1269
850.10 0.1269
850.20 0.1268
850.30 0.1268
850.40 0.1267
850.50 0.1267
850.60 0.1266
850.70 0.1265
850.80 0.1265
850.90 0.1264
851.00 0.1264
851.10 0.1263
851.20 0.1262
851.30 0.1262
851.40 0.1261
851.50 0.1261
851.60 0.126
851.70 0.126
851.80 0.1259
851.90 0.1258
852.00 0.1258
852.10 0.1257
852.20 0.1257
852.30 0.1256
852.40 0.1256
852.50 0.1255
852.60 0.1254
852.70 0.1254
852.80 0.1253
852.90 0.1253
853.00 0.1252
853.10 0.1251
853.20 0.1251
853.30 0.125
853.40 0.125
853.50 0.1249
853.60 0.1249
853.70 0.1248
853.80 0.1247
853.90 0.1247
854.00 0.1246
854.10 0.1246
854.20 0.1245
854.30 0.1245
854.40 0.1244
854.50 0.1243
854.60 0.1243
854.70 0.1242
854.80 0.1242
854.90 0.1241
855.00 0.1241
855.10 0.124
855.20 0.124
855.30 0.1239
855.40 0.1238
855.50 0.1238
855.60 0.1237
855.70 0.1237
855.80 0.1236
855.90 0.1236
856.00 0.1235
856.10 0.1234
856.20 0.1234
856.30 0.1233
856.40 0.1233
856.50 0.1232
856.60 0.1232
856.70 0.1231
856.80 0.123
856.90 0.123
857.00 0.1229
857.10 0.1229
857.20 0.1228
857.30 0.1228
857.40 0.1227
857.50 0.1227
857.60 0.1226
857.70 0.1225
857.80 0.1225
857.90 0.1224
858.00 0.1224
858.10 0.1223
858.20 0.1223
858.30 0.1222
858.40 0.1222
858.50 0.1221
858.60 0.122
858.70 0.122
858.80 0.1219
858.90 0.1219
859.00 0.1218
859.10 0.1218
859.20 0.1217
859.30 0.1217
859.40 0.1216
859.50 0.1215
859.60 0.1215
859.70 0.1214
859.80 0.1214
859.90 0.1213
860.00 0.1213
860.10 0.1212
860.20 0.1212
860.30 0.1211
860.40 0.121
860.50 0.121
860.60 0.1209
860.70 0.1209
860.80 0.1208
860.90 0.1208
861.00 0.1207
861.10 0.1207
861.20 0.1206
861.30 0.1206
861.40 0.1205
861.50 0.1204
861.60 0.1204
861.70 0.1203
861.80 0.1203
861.90 0.1202
862.00 0.1202
862.10 0.1201
862.20 0.1201
862.30 0.12
862.40 0.12
862.50 0.1199
862.60 0.1198
862.70 0.1198
862.80 0.1197
862.90 0.1197
863.00 0.1196
863.10 0.1196
863.20 0.1195
863.30 0.1195
863.40 0.1194
863.50 0.1194
863.60 0.1193
863.70 0.1193
863.80 0.1192
863.90 0.1191
864.00 0.1191
864.10 0.119
864.20 0.119
864.30 0.1189
864.40 0.1189
864.50 0.1188
864.60 0.1188
864.70 0.1187
864.80 0.1187
864.90 0.1186
865.00 0.1186
865.10 0.1185
865.20 0.1185
865.30 0.1184
865.40 0.1183
865.50 0.1183
865.60 0.1182
865.70 0.1182
865.80 0.1181
865.90 0.1181
866.00 0.118
866.10 0.118
866.20 0.1179
866.30 0.1179
866.40 0.1178
866.50 0.1178
866.60 0.1177
866.70 0.1177
866.80 0.1176
866.90 0.1175
867.00 0.1175
867.10 0.1174
867.20 0.1174
867.30 0.1173
867.40 0.1173
867.50 0.1172
867.60 0.1172
867.70 0.1171
867.80 0.1171
867.90 0.117
868.00 0.117
868.10 0.1169
868.20 0.1169
868.30 0.1168
868.40 0.1168
868.50 0.1167
868.60 0.1167
868.70 0.1166
868.80 0.1165
868.90 0.1165
869.00 0.1164
869.10 0.1164
869.20 0.1163
869.30 0.1163
869.40 0.1162
869.50 0.1162
869.60 0.1161
869.70 0.1161
869.80 0.116
869.90 0.116
870.00 0.1159
870.10 0.1159
870.20 0.1158
870.30 0.1158
870.40 0.1157
870.50 0.1157
870.60 0.1156
870.70 0.1156
870.80 0.1155
870.90 0.1154
871.00 0.1154
871.10 0.1153
871.20 0.1153
871.30 0.1152
871.40 0.1152
871.50 0.1151
871.60 0.1151
871.70 0.115
871.80 0.115
871.90 0.1149
872.00 0.1149
872.10 0.1148
872.20 0.1148
872.30 0.1147
872.40 0.1147
872.50 0.1146
872.60 0.1146
872.70 0.1145
872.80 0.1145
872.90 0.1144
873.00 0.1144
873.10 0.1143
873.20 0.1143
873.30 0.1142
873.40 0.1142
873.50 0.1141
873.60 0.1141
873.70 0.114
873.80 0.114
873.90 0.1139
874.00 0.1139
874.10 0.1138
874.20 0.1138
874.30 0.1137
874.40 0.1137
874.50 0.1136
874.60 0.1136
874.70 0.1135
874.80 0.1135
874.90 0.1134
875.00 0.1134
875.10 0.1133
875.20 0.1133
875.30 0.1132
875.40 0.1132
875.50 0.1131
875.60 0.1131
875.70 0.113
875.80 0.113
875.90 0.1129
876.00 0.1128
876.10 0.1128
876.20 0.1127
876.30 0.1127
876.40 0.1126
876.50 0.1126
876.60 0.1125
876.70 0.1125
876.80 0.1124
876.90 0.1124
877.00 0.1123
877.10 0.1123
877.20 0.1122
877.30 0.1122
877.40 0.1121
877.50 0.1121
877.60 0.112
877.70 0.112
877.80 0.1119
877.90 0.1119
878.00 0.1118
878.10 0.1118
878.20 0.1118
878.30 0.1117
878.40 0.1117
878.50 0.1116
878.60 0.1116
878.70 0.1115
878.80 0.1115
878.90 0.1114
879.00 0.1114
879.10 0.1113
879.20 0.1113
879.30 0.1112
879.40 0.1112
879.50 0.1111
879.60 0.1111
879.70 0.111
879.80 0.111
879.90 0.1109
880.00 0.1109
880.10 0.1108
880.20 0.1108
880.30 0.1107
880.40 0.1107
880.50 0.1106
880.60 0.1106
880.70 0.1105
880.80 0.1105
880.90 0.1104
881.00 0.1104
881.10 0.1103
881.20 0.1103
881.30 0.1102
881.40 0.1102
881.50 0.1101
881.60 0.1101
881.70 0.11
881.80 0.11
881.90 0.1099
882.00 0.1099
882.10 0.1098
882.20 0.1098
882.30 0.1097
882.40 0.1097
882.50 0.1096
882.60 0.1096
882.70 0.1095
882.80 0.1095
882.90 0.1094
883.00 0.1094
883.10 0.1093
883.20 0.1093
883.30 0.1093
883.40 0.1092
883.50 0.1092
883.60 0.1091
883.70 0.1091
883.80 0.109
883.90 0.109
884.00 0.1089
884.10 0.1089
884.20 0.1088
884.30 0.1088
884.40 0.1087
884.50 0.1087
884.60 0.1086
884.70 0.1086
884.80 0.1085
884.90 0.1085
885.00 0.1084
885.10 0.1084
885.20 0.1083
885.30 0.1083
885.40 0.1082
885.50 0.1082
885.60 0.1081
885.70 0.1081
885.80 0.1081
885.90 0.108
886.00 0.108
886.10 0.1079
886.20 0.1079
886.30 0.1078
886.40 0.1078
886.50 0.1077
886.60 0.1077
886.70 0.1076
886.80 0.1076
886.90 0.1075
887.00 0.1075
887.10 0.1074
887.20 0.1074
887.30 0.1073
887.40 0.1073
887.50 0.1072
887.60 0.1072
887.70 0.1072
887.80 0.1071
887.90 0.1071
888.00 0.107
888.10 0.107
888.20 0.1069
888.30 0.1069
888.40 0.1068
888.50 0.1068
888.60 0.1067
888.70 0.1067
888.80 0.1066
888.90 0.1066
889.00 0.1066
889.10 0.1065
889.20 0.1065
889.30 0.1064
889.40 0.1064
889.50 0.1063
889.60 0.1063
889.70 0.1062
889.80 0.1062
889.90 0.1061
890.00 0.1061
890.10 0.106
890.20 0.106
890.30 0.1059
890.40 0.1059
890.50 0.1059
890.60 0.1058
890.70 0.1058
890.80 0.1057
890.90 0.1057
891.00 0.1056
891.10 0.1056
891.20 0.1055
891.30 0.1055
891.40 0.1054
891.50 0.1054
891.60 0.1053
891.70 0.1053
891.80 0.1053
891.90 0.1052
892.00 0.1052
892.10 0.1051
892.20 0.1051
892.30 0.105
892.40 0.105
892.50 0.1049
892.60 0.1049
892.70 0.1048
892.80 0.1048
892.90 0.1047
893.00 0.1047
893.10 0.1047
893.20 0.1046
893.30 0.1046
893.40 0.1045
893.50 0.1045
893.60 0.1044
893.70 0.1044
893.80 0.1043
893.90 0.1043
894.00 0.1042
894.10 0.1042
894.20 0.1041
894.30 0.1041
894.40 0.1041
894.50 0.104
894.60 0.104
894.70 0.1039
894.80 0.1039
894.90 0.1038
895.00 0.1038
895.10 0.1037
895.20 0.1037
895.30 0.1036
895.40 0.1036
895.50 0.1035
895.60 0.1035
895.70 0.1035
895.80 0.1034
895.90 0.1034
896.00 0.1033
896.10 0.1033
896.20 0.1032
896.30 0.1032
896.40 0.1031
896.50 0.1031
896.60 0.103
896.70 0.103
896.80 0.103
896.90 0.1029
897.00 0.1029
897.10 0.1028
897.20 0.1028
897.30 0.1027
897.40 0.1027
897.50 0.1026
897.60 0.1026
897.70 0.1025
897.80 0.1025
897.90 0.1025
898.00 0.1024
898.10 0.1024
898.20 0.1023
898.30 0.1023
898.40 0.1022
898.50 0.1022
898.60 0.1021
898.70 0.1021
898.80 0.102
898.90 0.102
899.00 0.102
899.10 0.1019
899.20 0.1019
899.30 0.1018
899.40 0.1018
899.50 0.1017
899.60 0.1017
899.70 0.1016
899.80 0.1016
899.90 0.1016
900.00 0.1015
900.10 0.1015
900.20 0.1014
900.30 0.1014
900.40 0.1013
900.50 0.1013
900.60 0.1012
900.70 0.1012
900.80 0.1012
900.90 0.1011
901.00 0.1011
901.10 0.101
901.20 0.101
901.30 0.1009
901.40 0.1009
901.50 0.1008
901.60 0.1008
901.70 0.1008
901.80 0.1007
901.90 0.1007
902.00 0.1006
902.10 0.1006
902.20 0.1005
902.30 0.1005
902.40 0.1004
902.50 0.1004
902.60 0.1004
902.70 0.1003
902.80 0.1003
902.90 0.1002
903.00 0.1002
903.10 0.1002
903.20 0.1001
903.30 0.1001
903.40 0.1
903.50 0.09999
903.60 0.09995
903.70 0.09991
903.80 0.09987
903.90 0.09982
904.00 0.09978
904.10 0.09974
904.20 0.0997
904.30 0.09966
904.40 0.09962
904.50 0.09957
904.60 0.09953
904.70 0.09949
904.80 0.09945
904.90 0.09941
905.00 0.09937
905.10 0.09933
905.20 0.09928
905.30 0.09924
905.40 0.0992
905.50 0.09916
905.60 0.09912
905.70 0.09908
905.80 0.09904
905.90 0.099
906.00 0.09895
906.10 0.09891
906.20 0.09887
906.30 0.09883
906.40 0.09879
906.50 0.09875
906.60 0.09871
906.70 0.09867
906.80 0.09862
906.90 0.09858
907.00 0.09854
907.10 0.0985
907.20 0.09846
907.30 0.09842
907.40 0.09838
907.50 0.09833
907.60 0.09829
907.70 0.09825
907.80 0.09821
907.90 0.09817
908.00 0.09813
908.10 0.09808
908.20 0.09804
908.30 0.098
908.40 0.09796
908.50 0.09792
908.60 0.09788
908.70 0.09784
908.80 0.0978
908.90 0.09775
909.00 0.09771
909.10 0.09767
909.20 0.09763
909.30 0.09759
909.40 0.09755
909.50 0.09751
909.60 0.09746
909.70 0.09742
909.80 0.09738
909.90 0.09734
910.00 0.0973
910.10 0.09726
910.20 0.09722
910.30 0.09718
910.40 0.09714
910.50 0.09709
910.60 0.09705
910.70 0.09701
910.80 0.09697
910.90 0.09693
911.00 0.09689
911.10 0.09685
911.20 0.09681
911.30 0.09677
911.40 0.09673
911.50 0.09668
911.60 0.09664
911.70 0.0966
911.80 0.09656
911.90 0.09652
912.00 0.09648
912.10 0.09644
912.20 0.09639
912.30 0.09635
912.40 0.09631
912.50 0.09627
912.60 0.09622
912.70 0.09618
912.80 0.09614
912.90 0.0961
913.00 0.09606
913.10 0.09601
913.20 0.09597
913.30 0.09593
913.40 0.09589
913.50 0.09584
913.60 0.0958
913.70 0.09576
913.80 0.09572
913.90 0.09567
914.00 0.09563
914.10 0.09559
914.20 0.09555
914.30 0.09551
914.40 0.09546
914.50 0.09542
914.60 0.09538
914.70 0.09534
914.80 0.09529
914.90 0.09525
915.00 0.09521
915.10 0.09517
915.20 0.09513
915.30 0.09508
915.40 0.09504
915.50 0.095
915.60 0.09496
915.70 0.09492
915.80 0.09487
915.90 0.09483
916.00 0.09479
916.10 0.09475
916.20 0.09471
916.30 0.09467
916.40 0.09462
916.50 0.09458
916.60 0.09454
916.70 0.0945
916.80 0.09446
916.90 0.09441
917.00 0.09437
917.10 0.09433
917.20 0.09429
917.30 0.09424
917.40 0.0942
917.50 0.09415
917.60 0.09411
917.70 0.09407
917.80 0.09402
917.90 0.09398
918.00 0.09394
918.10 0.09389
918.20 0.09385
918.30 0.09381
918.40 0.09376
918.50 0.09372
918.60 0.09368
918.70 0.09363
918.80 0.09359
918.90 0.09354
919.00 0.0935
919.10 0.09346
919.20 0.09341
919.30 0.09337
919.40 0.09333
919.50 0.09328
919.60 0.09324
919.70 0.0932
919.80 0.09315
919.90 0.09311
920.00 0.09307
920.10 0.09303
920.20 0.09298
920.30 0.09294
920.40 0.0929
920.50 0.09285
920.60 0.09281
920.70 0.09277
920.80 0.09272
920.90 0.09268
921.00 0.09264
921.10 0.09259
921.20 0.09255
921.30 0.09251
921.40 0.09246
921.50 0.09242
921.60 0.09238
921.70 0.09234
921.80 0.09229
921.90 0.09225
922.00 0.09221
922.10 0.09217
922.20 0.09213
922.30 0.0921
922.40 0.09206
922.50 0.09203
922.60 0.09199
922.70 0.09195
922.80 0.09192
922.90 0.09188
923.00 0.09185
923.10 0.09181
923.20 0.09177
923.30 0.09174
923.40 0.0917
923.50 0.09167
923.60 0.09163
923.70 0.09159
923.80 0.09156
923.90 0.09152
924.00 0.09149
924.10 0.09145
924.20 0.09141
924.30 0.09138
924.40 0.09134
924.50 0.09131
924.60 0.09127
924.70 0.09123
924.80 0.0912
924.90 0.09116
925.00 0.09113
925.10 0.09109
925.20 0.09105
925.30 0.09102
925.40 0.09098
925.50 0.09095
925.60 0.09091
925.70 0.09088
925.80 0.09084
925.90 0.0908
926.00 0.09077
926.10 0.09073
926.20 0.0907
926.30 0.09066
926.40 0.09063
926.50 0.09059
926.60 0.09055
926.70 0.09052
926.80 0.09048
926.90 0.09045
927.00 0.09041
927.10 0.09038
927.20 0.09034
927.30 0.09031
927.40 0.09027
927.50 0.09024
927.60 0.0902
927.70 0.09016
927.80 0.09013
927.90 0.09009
928.00 0.09006
928.10 0.09002
928.20 0.08999
928.30 0.08995
928.40 0.08992
928.50 0.08988
928.60 0.08985
928.70 0.08981
928.80 0.08978
928.90 0.08974
929.00 0.08971
929.10 0.08967
929.20 0.08964
929.30 0.0896
929.40 0.08957
929.50 0.08953
929.60 0.0895
929.70 0.08946
929.80 0.08943
929.90 0.08939
930.00 0.08936
930.10 0.08932
930.20 0.08929
930.30 0.08925
930.40 0.08922
930.50 0.08918
930.60 0.08915
930.70 0.08911
930.80 0.08908
930.90 0.08904
931.00 0.08901
931.10 0.08897
931.20 0.08894
931.30 0.0889
931.40 0.08887
931.50 0.08883
931.60 0.0888
931.70 0.08876
931.80 0.08873
931.90 0.08869
932.00 0.08866
932.10 0.08862
932.20 0.08859
932.30 0.08855
932.40 0.08852
932.50 0.08848
932.60 0.08844
932.70 0.08841
932.80 0.08837
932.90 0.08834
933.00 0.0883
933.10 0.08826
933.20 0.08823
933.30 0.08819
933.40 0.08816
933.50 0.08812
933.60 0.08808
933.70 0.08805
933.80 0.08801
933.90 0.08798
934.00 0.08794
934.10 0.08791
934.20 0.08787
934.30 0.08783
934.40 0.0878
934.50 0.08776
934.60 0.08773
934.70 0.08769
934.80 0.08765
934.90 0.08762
935.00 0.08758
935.10 0.08754
935.20 0.08751
935.30 0.08747
935.40 0.08744
935.50 0.0874
935.60 0.08736
935.70 0.08733
935.80 0.08729
935.90 0.08726
936.00 0.08722
936.10 0.08718
936.20 0.08715
936.30 0.08711
936.40 0.08708
936.50 0.08704
936.60 0.087
936.70 0.08697
936.80 0.08693
936.90 0.0869
937.00 0.08686
937.10 0.08682
937.20 0.08679
937.30 0.08675
937.40 0.08672
937.50 0.08668
937.60 0.08664
937.70 0.08661
937.80 0.08657
937.90 0.08654
938.00 0.0865
938.10 0.08646
938.20 0.08643
938.30 0.08639
938.40 0.08636
938.50 0.08632
938.60 0.08628
938.70 0.08625
938.80 0.08621
938.90 0.08618
939.00 0.08614
939.10 0.0861
939.20 0.08607
939.30 0.08603
939.40 0.086
939.50 0.08596
939.60 0.08592
939.70 0.08589
939.80 0.08585
939.90 0.08582
940.00 0.08578
940.10 0.08574
940.20 0.08571
940.30 0.08567
940.40 0.08564
940.50 0.0856
940.60 0.08556
940.70 0.08553
940.80 0.08549
940.90 0.08546
941.00 0.08542
941.10 0.08538
941.20 0.08535
941.30 0.08531
941.40 0.08528
941.50 0.08524
941.60 0.0852
941.70 0.08517
941.80 0.08513
941.90 0.0851
942.00 0.08506
942.10 0.08502
942.20 0.08499
942.30 0.08495
942.40 0.08492
942.50 0.08488
942.60 0.08484
942.70 0.08481
942.80 0.08477
942.90 0.08473
943.00 0.0847
943.10 0.08466
943.20 0.08463
943.30 0.08459
943.40 0.08455
943.50 0.08452
943.60 0.08448
943.70 0.08444
943.80 0.08441
943.90 0.08437
944.00 0.08434
944.10 0.0843
944.20 0.08426
944.30 0.08423
944.40 0.08419
944.50 0.08416
944.60 0.08412
944.70 0.08408
944.80 0.08405
944.90 0.08401
945.00 0.08397
945.10 0.08394
945.20 0.0839
945.30 0.08386
945.40 0.08383
945.50 0.08379
945.60 0.08375
945.70 0.08372
945.80 0.08368
945.90 0.08364
946.00 0.0836
946.10 0.08357
946.20 0.08353
946.30 0.08349
946.40 0.08346
946.50 0.08342
946.60 0.08338
946.70 0.08335
946.80 0.08331
946.90 0.08327
947.00 0.08324
947.10 0.0832
947.20 0.08316
947.30 0.08312
947.40 0.08308
947.50 0.08305
947.60 0.08301
947.70 0.08297
947.80 0.08293
947.90 0.08289
948.00 0.08285
948.10 0.08281
948.20 0.08278
948.30 0.08274
948.40 0.0827
948.50 0.08266
948.60 0.08262
948.70 0.08258
948.80 0.08255
948.90 0.08251
949.00 0.08247
949.10 0.08243
949.20 0.08239
949.30 0.08236
949.40 0.08231
949.50 0.08227
949.60 0.08223
949.70 0.08219
949.80 0.08215
949.90 0.08211
950.00 0.08207
950.10 0.08203
950.20 0.08199
950.30 0.08195
950.40 0.08191
950.50 0.08186
950.60 0.08182
950.70 0.08178
950.80 0.08174
950.90 0.0817
951.00 0.08166
951.10 0.08162
951.20 0.08158
951.30 0.08154
951.40 0.0815
951.50 0.08145
951.60 0.08141
951.70 0.08137
951.80 0.08133
951.90 0.08128
952.00 0.08124
952.10 0.0812
952.20 0.08115
952.30 0.08111
952.40 0.08107
952.50 0.08102
952.60 0.08098
952.70 0.08094
952.80 0.08089
952.90 0.08085
953.00 0.08081
953.10 0.08077
953.20 0.08073
953.30 0.08069
953.40 0.08065
953.50 0.08061
953.60 0.08057
953.70 0.08053
953.80 0.08049
953.90 0.08046
954.00 0.08043
954.10 0.08039
954.20 0.08036
954.30 0.08034
954.40 0.08031
954.50 0.08029
954.60 0.08025
954.70 0.08022
954.80 0.08018
954.90 0.08014
955.00 0.0801
955.10 0.08007
955.20 0.08004
955.30 0.08001
955.40 0.07998
955.50 0.07995
955.60 0.07992
955.70 0.07989
955.80 0.07986
955.90 0.07984
956.00 0.07981
956.10 0.07979
956.20 0.07977
956.30 0.07974
956.40 0.07972
956.50 0.0797
956.60 0.07967
956.70 0.07965
956.80 0.07963
956.90 0.0796
957.00 0.07958
957.10 0.07956
957.20 0.07953
957.30 0.07951
957.40 0.07949
957.50 0.07946
957.60 0.07944
957.70 0.07941
957.80 0.07939
957.90 0.07937
958.00 0.07934
958.10 0.07932
958.20 0.07929
958.30 0.07927
958.40 0.07924
958.50 0.07922
958.60 0.07919
958.70 0.07917
958.80 0.07915
958.90 0.07912
959.00 0.0791
959.10 0.07907
959.20 0.07905
959.30 0.07902
959.40 0.079
959.50 0.07897
959.60 0.07894
959.70 0.07891
959.80 0.07889
959.90 0.07886
960.00 0.07883
960.10 0.07881
960.20 0.07878
960.30 0.07875
960.40 0.07872
960.50 0.0787
960.60 0.07867
960.70 0.07864
960.80 0.07861
960.90 0.07859
961.00 0.07856
961.10 0.07853
961.20 0.07851
961.30 0.07848
961.40 0.07845
961.50 0.07842
961.60 0.07839
961.70 0.07836
961.80 0.07834
961.90 0.07831
962.00 0.07828
962.10 0.07825
962.20 0.07822
962.30 0.07819
962.40 0.07816
962.50 0.07813
962.60 0.0781
962.70 0.07807
962.80 0.07805
962.90 0.07802
963.00 0.07799
963.10 0.07796
963.20 0.07793
963.30 0.0779
963.40 0.07787
963.50 0.07784
963.60 0.07781
963.70 0.07778
963.80 0.07775
963.90 0.07772
964.00 0.07769
964.10 0.07766
964.20 0.07763
964.30 0.0776
964.40 0.07757
964.50 0.07754
964.60 0.07751
964.70 0.07748
964.80 0.07745
964.90 0.07742
965.00 0.07739
965.10 0.07736
965.20 0.07733
965.30 0.0773
965.40 0.07727
965.50 0.07724
965.60 0.07721
965.70 0.07718
965.80 0.07715
965.90 0.07712
966.00 0.07709
966.10 0.07706
966.20 0.07703
966.30 0.077
966.40 0.07697
966.50 0.07694
966.60 0.07691
966.70 0.07688
966.80 0.07685
966.90 0.07682
967.00 0.07679
967.10 0.07676
967.20 0.07673
967.30 0.0767
967.40 0.07667
967.50 0.07664
967.60 0.07661
967.70 0.07658
967.80 0.07655
967.90 0.07652
968.00 0.07649
968.10 0.07646
968.20 0.07643
968.30 0.0764
968.40 0.07637
968.50 0.07634
968.60 0.07631
968.70 0.07628
968.80 0.07625
968.90 0.07622
969.00 0.07619
969.10 0.07616
969.20 0.07613
969.30 0.0761
969.40 0.07607
969.50 0.07603
969.60 0.076
969.70 0.07597
969.80 0.07594
969.90 0.07591
970.00 0.07588
970.10 0.07585
970.20 0.07582
970.30 0.07579
970.40 0.07576
970.50 0.07573
970.60 0.0757
970.70 0.07567
970.80 0.07564
970.90 0.07561
971.00 0.07558
971.10 0.07555
971.20 0.07552
971.30 0.07549
971.40 0.07546
971.50 0.07543
971.60 0.0754
971.70 0.07537
971.80 0.07534
971.90 0.07531
972.00 0.07528
972.10 0.07525
972.20 0.07522
972.30 0.07519
972.40 0.07516
972.50 0.07513
972.60 0.0751
972.70 0.07507
972.80 0.07504
972.90 0.07501
973.00 0.07498
973.10 0.07495
973.20 0.07492
973.30 0.07489
973.40 0.07486
973.50 0.07483
973.60 0.0748
973.70 0.07477
973.80 0.07474
973.90 0.07471
974.00 0.07468
974.10 0.07465
974.20 0.07462
974.30 0.07459
974.40 0.07456
974.50 0.07453
974.60 0.0745
974.70 0.07447
974.80 0.07444
974.90 0.07442
975.00 0.07439
975.10 0.07436
975.20 0.07433
975.30 0.0743
975.40 0.07427
975.50 0.07424
975.60 0.07421
975.70 0.07418
975.80 0.07415
975.90 0.07412
976.00 0.07409
976.10 0.07406
976.20 0.07403
976.30 0.074
976.40 0.07397
976.50 0.07394
976.60 0.07391
976.70 0.07388
976.80 0.07385
976.90 0.07382
977.00 0.07379
977.10 0.07376
977.20 0.07373
977.30 0.07371
977.40 0.07368
977.50 0.07365
977.60 0.07362
977.70 0.07359
977.80 0.07356
977.90 0.07353
978.00 0.0735
978.10 0.07347
978.20 0.07344
978.30 0.07341
978.40 0.07338
978.50 0.07335
978.60 0.07332
978.70 0.07329
978.80 0.07326
978.90 0.07324
979.00 0.07321
979.10 0.07318
979.20 0.07315
979.30 0.07312
979.40 0.07309
979.50 0.07306
979.60 0.07303
979.70 0.073
979.80 0.07297
979.90 0.07294
980.00 0.07291
980.10 0.07289
980.20 0.07286
980.30 0.07283
980.40 0.0728
980.50 0.07277
980.60 0.07274
980.70 0.07271
980.80 0.07268
980.90 0.07265
981.00 0.07262
981.10 0.07259
981.20 0.07257
981.30 0.07254
981.40 0.07251
981.50 0.07248
981.60 0.07245
981.70 0.07242
981.80 0.07239
981.90 0.07236
982.00 0.07233
982.10 0.0723
982.20 0.07228
982.30 0.07225
982.40 0.07222
982.50 0.07219
982.60 0.07216
982.70 0.07213
982.80 0.0721
982.90 0.07207
983.00 0.07205
983.10 0.07202
983.20 0.07199
983.30 0.07196
983.40 0.07193
983.50 0.0719
983.60 0.07187
983.70 0.07184
983.80 0.07182
983.90 0.07179
984.00 0.07176
984.10 0.07173
984.20 0.0717
984.30 0.07167
984.40 0.07164
984.50 0.07161
984.60 0.07159
984.70 0.07156
984.80 0.07153
984.90 0.0715
985.00 0.07147
985.10 0.07144
985.20 0.07141
985.30 0.07139
985.40 0.07136
985.50 0.07133
985.60 0.0713
985.70 0.07127
985.80 0.07124
985.90 0.07122
986.00 0.07119
986.10 0.07116
986.20 0.07113
986.30 0.0711
986.40 0.07107
986.50 0.07104
986.60 0.07102
986.70 0.07099
986.80 0.07096
986.90 0.07093
987.00 0.0709
987.10 0.07087
987.20 0.07085
987.30 0.07082
987.40 0.07079
987.50 0.07076
987.60 0.07073
987.70 0.0707
987.80 0.07068
987.90 0.07065
988.00 0.07062
988.10 0.07059
988.20 0.07056
988.30 0.07053
988.40 0.07051
988.50 0.07048
988.60 0.07045
988.70 0.07042
988.80 0.07039
988.90 0.07036
989.00 0.07034
989.10 0.07031
989.20 0.07028
989.30 0.07025
989.40 0.07022
989.50 0.0702
989.60 0.07017
989.70 0.07014
989.80 0.07011
989.90 0.07008
990.00 0.07005
990.10 0.07003
990.20 0.07
990.30 0.06997
990.40 0.06994
990.50 0.06991
990.60 0.06989
990.70 0.06986
990.80 0.06983
990.90 0.0698
991.00 0.06977
991.10 0.06974
991.20 0.06972
991.30 0.06969
991.40 0.06966
991.50 0.06963
991.60 0.0696
991.70 0.06957
991.80 0.06955
991.90 0.06952
992.00 0.06949
992.10 0.06946
992.20 0.06943
992.30 0.06941
992.40 0.06938
992.50 0.06935
992.60 0.06932
992.70 0.06929
992.80 0.06926
992.90 0.06924
993.00 0.06921
993.10 0.06918
993.20 0.06915
993.30 0.06912
993.40 0.06909
993.50 0.06906
993.60 0.06904
993.70 0.06901
993.80 0.06898
993.90 0.06895
994.00 0.06892
994.10 0.06889
994.20 0.06887
994.30 0.06884
994.40 0.06881
994.50 0.06878
994.60 0.06875
994.70 0.06872
994.80 0.06869
994.90 0.06867
995.00 0.06864
995.10 0.06861
995.20 0.06858
995.30 0.06855
995.40 0.06852
995.50 0.06849
995.60 0.06846
995.70 0.06844
995.80 0.06841
995.90 0.06838
996.00 0.06835
996.10 0.06832
996.20 0.06829
996.30 0.06826
996.40 0.06823
996.50 0.0682
996.60 0.06817
996.70 0.06814
996.80 0.06811
996.90 0.06808
997.00 0.06805
997.10 0.06802
997.20 0.06799
997.30 0.06796
997.40 0.06793
997.50 0.0679
997.60 0.06787
997.70 0.06784
997.80 0.06781
997.90 0.06778
998.00 0.06775
998.10 0.06771
998.20 0.06768
998.30 0.06765
998.40 0.06762
998.50 0.06759
998.60 0.06755
998.70 0.06752
998.80 0.06749
998.90 0.06746
999.00 0.06743
999.10 0.06739
999.20 0.06736
999.30 0.06733
999.40 0.0673
999.50 0.06727
999.60 0.06724
999.70 0.0672
999.80 0.06716
999.90 0.06712
1000.00 0.06709
1000.10 0.06705
1000.20 0.06701
1000.30 0.06698
1000.40 0.06694
1000.50 0.0669
1000.60 0.06687
1000.70 0.06683
1000.80 0.06679
1000.90 0.06675
1001.00 0.06672
1001.10 0.06668
1001.20 0.06664
1001.30 0.06661
1001.40 0.06657
1001.50 0.06653
1001.60 0.0665
1001.70 0.06646
1001.80 0.06642
1001.90 0.06637
1002.00 0.06633
1002.10 0.06629
1002.20 0.06624
1002.30 0.0662
1002.40 0.06615
1002.50 0.06611
1002.60 0.06606
1002.70 0.06602
1002.80 0.06597
1002.90 0.06593
1003.00 0.06588
1003.10 0.06584
1003.20 0.06579
1003.30 0.06575
1003.40 0.0657
1003.50 0.06565
1003.60 0.06561
1003.70 0.06556
1003.80 0.06551
1003.90 0.06547
1004.00 0.06544
1004.10 0.0654
1004.20 0.06536
1004.30 0.06534
1004.40 0.06532
1004.50 0.06532
1004.60 0.06533
1004.70 0.06536
1004.80 0.0654
1004.90 0.06539
1005.00 0.06537
1005.10 0.06531
1005.20 0.06523
1005.30 0.06516
1005.40 0.06509
1005.50 0.06505
1005.60 0.06503
1005.70 0.06502
1005.80 0.065
1005.90 0.06498
1006.00 0.06496
1006.10 0.06494
1006.20 0.06493
1006.30 0.06493
1006.40 0.06492
1006.50 0.06492
1006.60 0.06492
1006.70 0.06491
1006.80 0.06491
1006.90 0.0649
1007.00 0.0649
1007.10 0.06489
1007.20 0.06489
1007.30 0.06488
1007.40 0.06488
1007.50 0.06487
1007.60 0.06486
1007.70 0.06485
1007.80 0.06484
1007.90 0.06483
1008.00 0.06481
1008.10 0.0648
1008.20 0.06479
1008.30 0.06478
1008.40 0.06476
1008.50 0.06475
1008.60 0.06474
1008.70 0.06473
1008.80 0.06471
1008.90 0.0647
1009.00 0.06469
1009.10 0.06468
1009.20 0.06466
1009.30 0.06465
1009.40 0.06464
1009.50 0.06463
1009.60 0.06461
1009.70 0.0646
1009.80 0.06458
1009.90 0.06456
1010.00 0.06454
1010.10 0.06452
1010.20 0.0645
1010.30 0.06448
1010.40 0.06446
1010.50 0.06445
1010.60 0.06443
1010.70 0.06441
1010.80 0.06439
1010.90 0.06437
1011.00 0.06435
1011.10 0.06433
1011.20 0.06431
1011.30 0.0643
1011.40 0.06428
1011.50 0.06426
1011.60 0.06424
1011.70 0.06422
1011.80 0.0642
1011.90 0.06418
1012.00 0.06416
1012.10 0.06413
1012.20 0.06411
1012.30 0.06409
1012.40 0.06407
1012.50 0.06405
1012.60 0.06402
1012.70 0.064
1012.80 0.06398
1012.90 0.06396
1013.00 0.06394
1013.10 0.06391
1013.20 0.06389
1013.30 0.06387
1013.40 0.06385
1013.50 0.06383
1013.60 0.06381
1013.70 0.06378
1013.80 0.06376
1013.90 0.06374
1014.00 0.06371
1014.10 0.06369
1014.20 0.06367
1014.30 0.06365
1014.40 0.06362
1014.50 0.0636
1014.60 0.06358
1014.70 0.06356
1014.80 0.06353
1014.90 0.06351
1015.00 0.06349
1015.10 0.06346
1015.20 0.06344
1015.30 0.06342
1015.40 0.06339
1015.50 0.06337
1015.60 0.06335
1015.70 0.06332
1015.80 0.0633
1015.90 0.06328
1016.00 0.06325
1016.10 0.06323
1016.20 0.06321
1016.30 0.06318
1016.40 0.06316
1016.50 0.06314
1016.60 0.06311
1016.70 0.06309
1016.80 0.06307
1016.90 0.06304
1017.00 0.06302
1017.10 0.063
1017.20 0.06297
1017.30 0.06295
1017.40 0.06293
1017.50 0.0629
1017.60 0.06288
1017.70 0.06286
1017.80 0.06283
1017.90 0.06281
1018.00 0.06279
1018.10 0.06276
1018.20 0.06274
1018.30 0.06272
1018.40 0.06269
1018.50 0.06267
1018.60 0.06265
1018.70 0.06262
1018.80 0.0626
1018.90 0.06257
1019.00 0.06255
1019.10 0.06253
1019.20 0.0625
1019.30 0.06248
1019.40 0.06246
1019.50 0.06243
1019.60 0.06241
1019.70 0.06239
1019.80 0.06236
1019.90 0.06234
1020.00 0.06232
1020.10 0.06229
1020.20 0.06227
1020.30 0.06224
1020.40 0.06222
1020.50 0.0622
1020.60 0.06217
1020.70 0.06215
1020.80 0.06213
1020.90 0.0621
1021.00 0.06208
1021.10 0.06206
1021.20 0.06203
1021.30 0.06201
1021.40 0.06199
1021.50 0.06196
1021.60 0.06194
1021.70 0.06192
1021.80 0.06189
1021.90 0.06187
1022.00 0.06185
1022.10 0.06182
1022.20 0.0618
1022.30 0.06178
1022.40 0.06175
1022.50 0.06173
1022.60 0.06171
1022.70 0.06168
1022.80 0.06166
1022.90 0.06164
1023.00 0.06161
1023.10 0.06159
1023.20 0.06157
1023.30 0.06154
1023.40 0.06152
1023.50 0.0615
1023.60 0.06147
1023.70 0.06145
1023.80 0.06143
1023.90 0.0614
1024.00 0.06138
1024.10 0.06136
1024.20 0.06133
1024.30 0.06131
1024.40 0.06129
1024.50 0.06126
1024.60 0.06124
1024.70 0.06122
1024.80 0.06119
1024.90 0.06117
1025.00 0.06115
1025.10 0.06112
1025.20 0.0611
1025.30 0.06108
1025.40 0.06105
1025.50 0.06103
1025.60 0.06101
1025.70 0.06098
1025.80 0.06096
1025.90 0.06094
1026.00 0.06091
1026.10 0.06089
1026.20 0.06087
1026.30 0.06085
1026.40 0.06082
1026.50 0.0608
1026.60 0.06078
1026.70 0.06075
1026.80 0.06073
1026.90 0.06071
1027.00 0.06068
1027.10 0.06066
1027.20 0.06064
1027.30 0.06061
1027.40 0.06059
1027.50 0.06057
1027.60 0.06055
1027.70 0.06052
1027.80 0.0605
1027.90 0.06048
1028.00 0.06045
1028.10 0.06043
1028.20 0.06041
1028.30 0.06039
1028.40 0.06036
1028.50 0.06034
1028.60 0.06032
1028.70 0.06029
1028.80 0.06027
1028.90 0.06025
1029.00 0.06023
1029.10 0.0602
1029.20 0.06018
1029.30 0.06016
1029.40 0.06013
1029.50 0.06011
1029.60 0.06009
1029.70 0.06007
1029.80 0.06004
1029.90 0.06002
1030.00 0.06
1030.10 0.05998
1030.20 0.05995
1030.30 0.05993
1030.40 0.05991
1030.50 0.05988
1030.60 0.05986
1030.70 0.05984
1030.80 0.05982
1030.90 0.05979
1031.00 0.05977
1031.10 0.05975
1031.20 0.05973
1031.30 0.0597
1031.40 0.05968
1031.50 0.05966
1031.60 0.05963
1031.70 0.05961
1031.80 0.05959
1031.90 0.05957
1032.00 0.05954
1032.10 0.05952
1032.20 0.0595
1032.30 0.05948
1032.40 0.05945
1032.50 0.05943
1032.60 0.05941
1032.70 0.05939
1032.80 0.05936
1032.90 0.05934
1033.00 0.05932
1033.10 0.0593
1033.20 0.05928
1033.30 0.05925
1033.40 0.05923
1033.50 0.05921
1033.60 0.05919
1033.70 0.05916
1033.80 0.05914
1033.90 0.05912
1034.00 0.0591
1034.10 0.05907
1034.20 0.05905
1034.30 0.05903
1034.40 0.05901
1034.50 0.05898
1034.60 0.05896
1034.70 0.05894
1034.80 0.05892
1034.90 0.0589
1035.00 0.05887
1035.10 0.05885
1035.20 0.05883
1035.30 0.05881
1035.40 0.05878
1035.50 0.05876
1035.60 0.05874
1035.70 0.05872
1035.80 0.0587
1035.90 0.05867
1036.00 0.05865
1036.10 0.05863
1036.20 0.05861
1036.30 0.05858
1036.40 0.05856
1036.50 0.05854
1036.60 0.05852
1036.70 0.0585
1036.80 0.05847
1036.90 0.05845
1037.00 0.05843
1037.10 0.05841
1037.20 0.05839
1037.30 0.05836
1037.40 0.05834
1037.50 0.05832
1037.60 0.0583
1037.70 0.05828
1037.80 0.05825
1037.90 0.05823
1038.00 0.05821
1038.10 0.05819
1038.20 0.05817
1038.30 0.05814
1038.40 0.05812
1038.50 0.0581
1038.60 0.05808
1038.70 0.05806
1038.80 0.05804
1038.90 0.05801
1039.00 0.05799
1039.10 0.05797
1039.20 0.05795
1039.30 0.05793
1039.40 0.0579
1039.50 0.05788
1039.60 0.05786
1039.70 0.05784
1039.80 0.05782
1039.90 0.0578
1040.00 0.05777
1040.10 0.05775
1040.20 0.05773
1040.30 0.05771
1040.40 0.05769
1040.50 0.05767
1040.60 0.05764
1040.70 0.05762
1040.80 0.0576
1040.90 0.05758
1041.00 0.05756
1041.10 0.05754
1041.20 0.05751
1041.30 0.05749
1041.40 0.05747
1041.50 0.05745
1041.60 0.05743
1041.70 0.05741
1041.80 0.05738
1041.90 0.05736
1042.00 0.05734
1042.10 0.05732
1042.20 0.0573
1042.30 0.05728
1042.40 0.05726
1042.50 0.05723
1042.60 0.05721
1042.70 0.05719
1042.80 0.05717
1042.90 0.05715
1043.00 0.05713
1043.10 0.05711
1043.20 0.05708
1043.30 0.05706
1043.40 0.05704
1043.50 0.05702
1043.60 0.057
1043.70 0.05698
1043.80 0.05696
1043.90 0.05693
1044.00 0.05691
1044.10 0.05689
1044.20 0.05687
1044.30 0.05685
1044.40 0.05683
1044.50 0.05681
1044.60 0.05679
1044.70 0.05676
1044.80 0.05674
1044.90 0.05672
1045.00 0.0567
1045.10 0.05668
1045.20 0.05666
1045.30 0.05664
1045.40 0.05662
1045.50 0.05659
1045.60 0.05657
1045.70 0.05655
1045.80 0.05653
1045.90 0.05651
1046.00 0.05649
1046.10 0.05647
1046.20 0.05645
1046.30 0.05642
1046.40 0.0564
1046.50 0.05638
1046.60 0.05636
1046.70 0.05634
1046.80 0.05632
1046.90 0.0563
1047.00 0.05628
1047.10 0.05626
1047.20 0.05623
1047.30 0.05621
1047.40 0.05619
1047.50 0.05617
1047.60 0.05615
1047.70 0.05613
1047.80 0.05611
1047.90 0.05609
1048.00 0.05607
1048.10 0.05605
1048.20 0.05603
1048.30 0.056
1048.40 0.05598
1048.50 0.05596
1048.60 0.05594
1048.70 0.05592
1048.80 0.0559
1048.90 0.05588
1049.00 0.05586
1049.10 0.05584
1049.20 0.05582
1049.30 0.0558
1049.40 0.05577
1049.50 0.05575
1049.60 0.05573
1049.70 0.05571
1049.80 0.05569
1049.90 0.05567
1050.00 0.05565
1050.10 0.05563
1050.20 0.05561
1050.30 0.05559
1050.40 0.05557
1050.50 0.05555
1050.60 0.05553
1050.70 0.05551
1050.80 0.05548
1050.90 0.05546
1051.00 0.05544
1051.10 0.05542
1051.20 0.0554
1051.30 0.05538
1051.40 0.05536
1051.50 0.05534
1051.60 0.05532
1051.70 0.0553
1051.80 0.05528
1051.90 0.05526
1052.00 0.05524
1052.10 0.05522
1052.20 0.0552
1052.30 0.05517
1052.40 0.05515
1052.50 0.05513
1052.60 0.05511
1052.70 0.05509
1052.80 0.05507
1052.90 0.05505
1053.00 0.05503
1053.10 0.05501
1053.20 0.05499
1053.30 0.05497
1053.40 0.05495
1053.50 0.05493
1053.60 0.05491
1053.70 0.05489
1053.80 0.05487
1053.90 0.05485
1054.00 0.05483
1054.10 0.05481
1054.20 0.05479
1054.30 0.05477
1054.40 0.05475
1054.50 0.05473
1054.60 0.05471
1054.70 0.05469
1054.80 0.05466
1054.90 0.05464
1055.00 0.05462
1055.10 0.0546
1055.20 0.05458
1055.30 0.05456
1055.40 0.05454
1055.50 0.05452
1055.60 0.0545
1055.70 0.05448
1055.80 0.05446
1055.90 0.05444
1056.00 0.05442
1056.10 0.0544
1056.20 0.05438
1056.30 0.05436
1056.40 0.05434
1056.50 0.05432
1056.60 0.0543
1056.70 0.05428
1056.80 0.05426
1056.90 0.05424
1057.00 0.05422
1057.10 0.0542
1057.20 0.05418
1057.30 0.05416
1057.40 0.05414
1057.50 0.05412
1057.60 0.0541
1057.70 0.05408
1057.80 0.05406
1057.90 0.05404
1058.00 0.05402
1058.10 0.054
1058.20 0.05398
1058.30 0.05396
1058.40 0.05394
1058.50 0.05392
1058.60 0.0539
1058.70 0.05388
1058.80 0.05386
1058.90 0.05384
1059.00 0.05382
1059.10 0.0538
1059.20 0.05378
1059.30 0.05376
1059.40 0.05374
1059.50 0.05372
1059.60 0.0537
1059.70 0.05368
1059.80 0.05366
1059.90 0.05364
1060.00 0.05362
1060.10 0.0536
1060.20 0.05358
1060.30 0.05356
1060.40 0.05354
1060.50 0.05352
1060.60 0.0535
1060.70 0.05348
1060.80 0.05346
1060.90 0.05344
1061.00 0.05342
1061.10 0.0534
1061.20 0.05338
1061.30 0.05336
1061.40 0.05334
1061.50 0.05332
1061.60 0.0533
1061.70 0.05329
1061.80 0.05327
1061.90 0.05325
1062.00 0.05323
1062.10 0.05321
1062.20 0.05319
1062.30 0.05317
1062.40 0.05315
1062.50 0.05313
1062.60 0.05311
1062.70 0.05309
1062.80 0.05307
1062.90 0.05305
1063.00 0.05303
1063.10 0.05301
1063.20 0.05299
1063.30 0.05297
1063.40 0.05295
1063.50 0.05293
1063.60 0.05291
1063.70 0.05289
1063.80 0.05287
1063.90 0.05285
1064.00 0.05284
1064.10 0.05282
1064.20 0.0528
1064.30 0.05278
1064.40 0.05276
1064.50 0.05274
1064.60 0.05272
1064.70 0.0527
1064.80 0.05268
1064.90 0.05266
1065.00 0.05264
1065.10 0.05262
1065.20 0.0526
1065.30 0.05258
1065.40 0.05256
1065.50 0.05254
1065.60 0.05252
1065.70 0.05251
1065.80 0.05249
1065.90 0.05247
1066.00 0.05245
1066.10 0.05243
1066.20 0.05241
1066.30 0.05239
1066.40 0.05237
1066.50 0.05235
1066.60 0.05233
1066.70 0.05231
1066.80 0.05229
1066.90 0.05227
1067.00 0.05225
1067.10 0.05223
1067.20 0.05222
1067.30 0.0522
1067.40 0.05218
1067.50 0.05216
1067.60 0.05214
1067.70 0.05212
1067.80 0.0521
1067.90 0.05208
1068.00 0.05206
1068.10 0.05204
1068.20 0.05202
1068.30 0.05201
1068.40 0.05199
1068.50 0.05197
1068.60 0.05195
1068.70 0.05193
1068.80 0.05191
1068.90 0.05189
1069.00 0.05187
1069.10 0.05185
1069.20 0.05183
1069.30 0.05181
1069.40 0.0518
1069.50 0.05178
1069.60 0.05176
1069.70 0.05174
1069.80 0.05172
1069.90 0.0517
1070.00 0.05168
1070.10 0.05166
1070.20 0.05164
1070.30 0.05162
1070.40 0.05161
1070.50 0.05159
1070.60 0.05157
1070.70 0.05155
1070.80 0.05153
1070.90 0.05151
1071.00 0.05149
1071.10 0.05147
1071.20 0.05145
1071.30 0.05143
1071.40 0.05142
1071.50 0.0514
1071.60 0.05138
1071.70 0.05136
1071.80 0.05134
1071.90 0.05132
1072.00 0.0513
1072.10 0.05128
1072.20 0.05126
1072.30 0.05125
1072.40 0.05123
1072.50 0.05121
1072.60 0.05119
1072.70 0.05117
1072.80 0.05115
1072.90 0.05113
1073.00 0.05111
1073.10 0.0511
1073.20 0.05108
1073.30 0.05106
1073.40 0.05104
1073.50 0.05102
1073.60 0.051
1073.70 0.05098
1073.80 0.05096
1073.90 0.05095
1074.00 0.05093
1074.10 0.05091
1074.20 0.05089
1074.30 0.05087
1074.40 0.05085
1074.50 0.05083
1074.60 0.05081
1074.70 0.0508
1074.80 0.05078
1074.90 0.05076
1075.00 0.05074
1075.10 0.05072
1075.20 0.0507
1075.30 0.05068
1075.40 0.05067
1075.50 0.05065
1075.60 0.05063
1075.70 0.05061
1075.80 0.05059
1075.90 0.05057
1076.00 0.05055
1076.10 0.05053
1076.20 0.05052
1076.30 0.0505
1076.40 0.05048
1076.50 0.05046
1076.60 0.05044
1076.70 0.05042
1076.80 0.0504
1076.90 0.05039
1077.00 0.05037
1077.10 0.05035
1077.20 0.05033
1077.30 0.05031
1077.40 0.05029
1077.50 0.05027
1077.60 0.05026
1077.70 0.05024
1077.80 0.05022
1077.90 0.0502
1078.00 0.05018
1078.10 0.05016
1078.20 0.05014
1078.30 0.05013
1078.40 0.05011
1078.50 0.05009
1078.60 0.05007
1078.70 0.05005
1078.80 0.05003
1078.90 0.05002
1079.00 0.05
1079.10 0.04998
1079.20 0.04996
1079.30 0.04994
1079.40 0.04992
1079.50 0.0499
1079.60 0.04989
1079.70 0.04987
1079.80 0.04985
1079.90 0.04983
1080.00 0.04981
1080.10 0.04979
1080.20 0.04977
1080.30 0.04976
1080.40 0.04974
1080.50 0.04972
1080.60 0.0497
1080.70 0.04968
1080.80 0.04966
1080.90 0.04964
1081.00 0.04963
1081.10 0.04961
1081.20 0.04959
1081.30 0.04957
1081.40 0.04955
1081.50 0.04953
1081.60 0.04951
1081.70 0.0495
1081.80 0.04948
1081.90 0.04946
1082.00 0.04944
1082.10 0.04942
1082.20 0.0494
1082.30 0.04938
1082.40 0.04936
1082.50 0.04935
1082.60 0.04933
1082.70 0.04931
1082.80 0.04929
1082.90 0.04927
1083.00 0.04925
1083.10 0.04923
1083.20 0.04921
1083.30 0.04919
1083.40 0.04918
1083.50 0.04916
1083.60 0.04914
1083.70 0.04912
1083.80 0.0491
1083.90 0.04908
1084.00 0.04906
1084.10 0.04904
1084.20 0.04902
1084.30 0.049
1084.40 0.04898
1084.50 0.04897
1084.60 0.04895
1084.70 0.04893
1084.80 0.04891
1084.90 0.04889
1085.00 0.04887
1085.10 0.04885
1085.20 0.04883
1085.30 0.04881
1085.40 0.04879
1085.50 0.04877
1085.60 0.04875
1085.70 0.04873
1085.80 0.04871
1085.90 0.04869
1086.00 0.04867
1086.10 0.04865
1086.20 0.04863
1086.30 0.04861
1086.40 0.04859
1086.50 0.04856
1086.60 0.04854
1086.70 0.04852
1086.80 0.0485
1086.90 0.04848
1087.00 0.04846
1087.10 0.04844
1087.20 0.04841
1087.30 0.04839
1087.40 0.04837
1087.50 0.04834
1087.60 0.04832
1087.70 0.0483
1087.80 0.04827
1087.90 0.04825
1088.00 0.04823
1088.10 0.04821
1088.20 0.04818
1088.30 0.04816
1088.40 0.04814
1088.50 0.04811
1088.60 0.04808
1088.70 0.04805
1088.80 0.04802
1088.90 0.048
1089.00 0.04797
1089.10 0.04794
1089.20 0.04791
1089.30 0.04788
1089.40 0.04785
1089.50 0.04782
1089.60 0.04779
1089.70 0.04776
1089.80 0.04773
1089.90 0.04771
1090.00 0.04768
1090.10 0.04765
1090.20 0.04762
1090.30 0.04759
1090.40 0.04756
1090.50 0.04753
1090.60 0.04749
1090.70 0.04745
1090.80 0.0474
1090.90 0.04736
1091.00 0.04732
1091.10 0.04728
1091.20 0.04724
1091.30 0.0472
1091.40 0.04716
1091.50 0.04712
1091.60 0.04708
1091.70 0.04704
1091.80 0.04699
1091.90 0.04695
1092.00 0.04691
1092.10 0.04687
1092.20 0.04682
1092.30 0.04677
1092.40 0.04673
1092.50 0.04668
1092.60 0.04664
1092.70 0.0466
1092.80 0.04656
1092.90 0.04653
1093.00 0.0465
1093.10 0.04647
1093.20 0.04646
1093.30 0.04644
1093.40 0.04644
1093.50 0.04645
1093.60 0.04647
1093.70 0.04649
1093.80 0.0465
1093.90 0.04648
1094.00 0.04643
1094.10 0.04638
1094.20 0.04632
1094.30 0.04629
1094.40 0.04628
1094.50 0.04627
1094.60 0.04626
1094.70 0.04625
1094.80 0.04625
1094.90 0.04624
1095.00 0.04624
1095.10 0.04625
1095.20 0.04626
1095.30 0.04627
1095.40 0.04628
1095.50 0.04629
1095.60 0.0463
1095.70 0.04631
1095.80 0.04633
1095.90 0.04634
1096.00 0.04635
1096.10 0.04636
1096.20 0.04637
1096.30 0.04638
1096.40 0.04639
1096.50 0.0464
1096.60 0.0464
1096.70 0.04641
1096.80 0.04641
1096.90 0.04642
1097.00 0.04642
1097.10 0.04642
1097.20 0.04642
1097.30 0.04641
1097.40 0.04641
1097.50 0.04641
1097.60 0.0464
1097.70 0.0464
1097.80 0.0464
1097.90 0.04639
1098.00 0.04639
1098.10 0.04639
1098.20 0.04639
1098.30 0.04638
1098.40 0.04638
1098.50 0.04637
1098.60 0.04636
1098.70 0.04635
1098.80 0.04634
1098.90 0.04633
1099.00 0.04632
1099.10 0.04631
1099.20 0.0463
1099.30 0.04629
1099.40 0.04628
1099.50 0.04627
1099.60 0.04626
1099.70 0.04625
1099.80 0.04624
1099.90 0.04623
1100.00 0.04622
1100.10 0.04621
1100.20 0.0462
1100.30 0.04619
1100.40 0.04618
1100.50 0.04617
1100.60 0.04616
1100.70 0.04615
1100.80 0.04613
1100.90 0.04612
1101.00 0.04611
1101.10 0.04609
1101.20 0.04608
1101.30 0.04607
1101.40 0.04605
1101.50 0.04604
1101.60 0.04603
1101.70 0.04601
1101.80 0.046
1101.90 0.04599
1102.00 0.04597
1102.10 0.04596
1102.20 0.04594
1102.30 0.04593
1102.40 0.04592
1102.50 0.0459
1102.60 0.04589
1102.70 0.04587
1102.80 0.04586
1102.90 0.04584
1103.00 0.04583
1103.10 0.04581
1103.20 0.0458
1103.30 0.04578
1103.40 0.04577
1103.50 0.04575
1103.60 0.04574
1103.70 0.04572
1103.80 0.04571
1103.90 0.04569
1104.00 0.04568
1104.10 0.04566
1104.20 0.04565
1104.30 0.04563
1104.40 0.04562
1104.50 0.0456
1104.60 0.04559
1104.70 0.04557
1104.80 0.04556
1104.90 0.04554
1105.00 0.04553
1105.10 0.04551
1105.20 0.0455
1105.30 0.04548
1105.40 0.04547
1105.50 0.04545
1105.60 0.04544
1105.70 0.04542
1105.80 0.0454
1105.90 0.04539
1106.00 0.04537
1106.10 0.04536
1106.20 0.04534
1106.30 0.04533
1106.40 0.04531
1106.50 0.0453
1106.60 0.04528
1106.70 0.04527
1106.80 0.04525
1106.90 0.04523
1107.00 0.04522
1107.10 0.0452
1107.20 0.04519
1107.30 0.04517
1107.40 0.04516
1107.50 0.04514
1107.60 0.04513
1107.70 0.04511
1107.80 0.04509
1107.90 0.04508
1108.00 0.04506
1108.10 0.04505
1108.20 0.04503
1108.30 0.04502
1108.40 0.045
1108.50 0.04499
1108.60 0.04497
1108.70 0.04495
1108.80 0.04494
1108.90 0.04492
1109.00 0.04491
1109.10 0.04489
1109.20 0.04488
1109.30 0.04486
1109.40 0.04485
1109.50 0.04483
1109.60 0.04481
1109.70 0.0448
1109.80 0.04478
1109.90 0.04477
1110.00 0.04475
1110.10 0.04474
1110.20 0.04472
1110.30 0.04471
1110.40 0.04469
1110.50 0.04467
1110.60 0.04466
1110.70 0.04464
1110.80 0.04463
1110.90 0.04461
1111.00 0.0446
1111.10 0.04458
1111.20 0.04457
1111.30 0.04455
1111.40 0.04454
1111.50 0.04452
1111.60 0.0445
1111.70 0.04449
1111.80 0.04447
1111.90 0.04446
1112.00 0.04444
1112.10 0.04443
1112.20 0.04441
1112.30 0.0444
1112.40 0.04438
1112.50 0.04436
1112.60 0.04435
1112.70 0.04433
1112.80 0.04432
1112.90 0.0443
1113.00 0.04429
1113.10 0.04427
1113.20 0.04426
1113.30 0.04424
1113.40 0.04423
1113.50 0.04421
1113.60 0.04419
1113.70 0.04418
1113.80 0.04416
1113.90 0.04415
1114.00 0.04413
1114.10 0.04412
1114.20 0.0441
1114.30 0.04409
1114.40 0.04407
1114.50 0.04406
1114.60 0.04404
1114.70 0.04403
1114.80 0.04401
1114.90 0.04399
1115.00 0.04398
1115.10 0.04396
1115.20 0.04395
1115.30 0.04393
1115.40 0.04392
1115.50 0.0439
1115.60 0.04389
1115.70 0.04387
1115.80 0.04386
1115.90 0.04384
1116.00 0.04383
1116.10 0.04381
1116.20 0.0438
1116.30 0.04378
1116.40 0.04376
1116.50 0.04375
1116.60 0.04373
1116.70 0.04372
1116.80 0.0437
1116.90 0.04369
1117.00 0.04367
1117.10 0.04366
1117.20 0.04364
1117.30 0.04363
1117.40 0.04361
1117.50 0.0436
1117.60 0.04358
1117.70 0.04357
1117.80 0.04355
1117.90 0.04354
1118.00 0.04352
1118.10 0.04351
1118.20 0.04349
1118.30 0.04348
1118.40 0.04346
1118.50 0.04345
1118.60 0.04343
1118.70 0.04341
1118.80 0.0434
1118.90 0.04338
1119.00 0.04337
1119.10 0.04335
1119.20 0.04334
1119.30 0.04332
1119.40 0.04331
1119.50 0.04329
1119.60 0.04328
1119.70 0.04326
1119.80 0.04325
1119.90 0.04323
1120.00 0.04322
1120.10 0.0432
1120.20 0.04319
1120.30 0.04317
1120.40 0.04316
1120.50 0.04314
1120.60 0.04313
1120.70 0.04311
1120.80 0.0431
1120.90 0.04308
1121.00 0.04307
1121.10 0.04305
1121.20 0.04304
1121.30 0.04302
1121.40 0.04301
1121.50 0.04299
1121.60 0.04298
1121.70 0.04296
1121.80 0.04295
1121.90 0.04293
1122.00 0.04292
1122.10 0.0429
1122.20 0.04289
1122.30 0.04287
1122.40 0.04286
1122.50 0.04284
1122.60 0.04283
1122.70 0.04281
1122.80 0.0428
1122.90 0.04278
1123.00 0.04277
1123.10 0.04275
1123.20 0.04274
1123.30 0.04272
1123.40 0.04271
1123.50 0.04269
1123.60 0.04268
1123.70 0.04266
1123.80 0.04265
1123.90 0.04264
1124.00 0.04262
1124.10 0.04261
1124.20 0.04259
1124.30 0.04258
1124.40 0.04256
1124.50 0.04255
1124.60 0.04253
1124.70 0.04252
1124.80 0.0425
1124.90 0.04249
1125.00 0.04247
1125.10 0.04246
1125.20 0.04244
1125.30 0.04243
1125.40 0.04241
1125.50 0.0424
1125.60 0.04238
1125.70 0.04237
1125.80 0.04235
1125.90 0.04234
1126.00 0.04232
1126.10 0.04231
1126.20 0.0423
1126.30 0.04228
1126.40 0.04227
1126.50 0.04225
1126.60 0.04224
1126.70 0.04222
1126.80 0.04221
1126.90 0.04219
1127.00 0.04218
1127.10 0.04216
1127.20 0.04215
1127.30 0.04213
1127.40 0.04212
1127.50 0.0421
1127.60 0.04209
1127.70 0.04208
1127.80 0.04206
1127.90 0.04205
1128.00 0.04203
1128.10 0.04202
1128.20 0.042
1128.30 0.04199
1128.40 0.04197
1128.50 0.04196
1128.60 0.04194
1128.70 0.04193
1128.80 0.04192
1128.90 0.0419
1129.00 0.04189
1129.10 0.04187
1129.20 0.04186
1129.30 0.04184
1129.40 0.04183
1129.50 0.04181
1129.60 0.0418
1129.70 0.04179
1129.80 0.04177
1129.90 0.04176
1130.00 0.04174
1130.10 0.04173
1130.20 0.04171
1130.30 0.0417
1130.40 0.04168
1130.50 0.04167
1130.60 0.04165
1130.70 0.04164
1130.80 0.04163
1130.90 0.04161
1131.00 0.0416
1131.10 0.04158
1131.20 0.04157
1131.30 0.04155
1131.40 0.04154
1131.50 0.04153
1131.60 0.04151
1131.70 0.0415
1131.80 0.04148
1131.90 0.04147
1132.00 0.04145
1132.10 0.04144
1132.20 0.04142
1132.30 0.04141
1132.40 0.0414
1132.50 0.04138
1132.60 0.04137
1132.70 0.04135
1132.80 0.04134
1132.90 0.04132
1133.00 0.04131
1133.10 0.0413
1133.20 0.04128
1133.30 0.04127
1133.40 0.04125
1133.50 0.04124
1133.60 0.04123
1133.70 0.04121
1133.80 0.0412
1133.90 0.04118
1134.00 0.04117
1134.10 0.04115
1134.20 0.04114
1134.30 0.04113
1134.40 0.04111
1134.50 0.0411
1134.60 0.04108
1134.70 0.04107
1134.80 0.04105
1134.90 0.04104
1135.00 0.04103
1135.10 0.04101
1135.20 0.041
1135.30 0.04098
1135.40 0.04097
1135.50 0.04096
1135.60 0.04094
1135.70 0.04093
1135.80 0.04091
1135.90 0.0409
1136.00 0.04088
1136.10 0.04087
1136.20 0.04086
1136.30 0.04084
1136.40 0.04083
1136.50 0.04081
1136.60 0.0408
1136.70 0.04079
1136.80 0.04077
1136.90 0.04076
1137.00 0.04074
1137.10 0.04073
1137.20 0.04072
1137.30 0.0407
1137.40 0.04069
1137.50 0.04067
1137.60 0.04066
1137.70 0.04065
1137.80 0.04063
1137.90 0.04062
1138.00 0.0406
1138.10 0.04059
1138.20 0.04058
1138.30 0.04056
1138.40 0.04055
1138.50 0.04053
1138.60 0.04052
1138.70 0.04051
1138.80 0.04049
1138.90 0.04048
1139.00 0.04046
1139.10 0.04045
1139.20 0.04044
1139.30 0.04042
1139.40 0.04041
1139.50 0.0404
1139.60 0.04038
1139.70 0.04037
1139.80 0.04035
1139.90 0.04034
1140.00 0.04033
1140.10 0.04031
1140.20 0.0403
1140.30 0.04028
1140.40 0.04027
1140.50 0.04026
1140.60 0.04024
1140.70 0.04023
1140.80 0.04022
1140.90 0.0402
1141.00 0.04019
1141.10 0.04017
1141.20 0.04016
1141.30 0.04015
1141.40 0.04013
1141.50 0.04012
1141.60 0.0401
1141.70 0.04009
1141.80 0.04008
1141.90 0.04006
1142.00 0.04005
1142.10 0.04004
1142.20 0.04002
1142.30 0.04001
1142.40 0.03999
1142.50 0.03998
1142.60 0.03997
1142.70 0.03995
1142.80 0.03994
1142.90 0.03993
1143.00 0.03991
1143.10 0.0399
1143.20 0.03989
1143.30 0.03987
1143.40 0.03986
1143.50 0.03984
1143.60 0.03983
1143.70 0.03982
1143.80 0.0398
1143.90 0.03979
1144.00 0.03978
1144.10 0.03976
1144.20 0.03975
1144.30 0.03974
1144.40 0.03972
1144.50 0.03971
1144.60 0.03969
1144.70 0.03968
1144.80 0.03967
1144.90 0.03965
1145.00 0.03964
1145.10 0.03963
1145.20 0.03961
1145.30 0.0396
1145.40 0.03959
1145.50 0.03957
1145.60 0.03956
1145.70 0.03955
1145.80 0.03953
1145.90 0.03952
1146.00 0.03951
1146.10 0.03949
1146.20 0.03948
1146.30 0.03946
1146.40 0.03945
1146.50 0.03944
1146.60 0.03942
1146.70 0.03941
1146.80 0.0394
1146.90 0.03938
1147.00 0.03937
1147.10 0.03936
1147.20 0.03934
1147.30 0.03933
1147.40 0.03932
1147.50 0.0393
1147.60 0.03929
1147.70 0.03928
1147.80 0.03926
1147.90 0.03925
1148.00 0.03924
1148.10 0.03922
1148.20 0.03921
1148.30 0.0392
1148.40 0.03918
1148.50 0.03917
1148.60 0.03916
1148.70 0.03914
1148.80 0.03913
1148.90 0.03912
1149.00 0.0391
1149.10 0.03909
1149.20 0.03908
1149.30 0.03906
1149.40 0.03905
1149.50 0.03904
1149.60 0.03902
1149.70 0.03901
1149.80 0.039
1149.90 0.03898
1150.00 0.03897
1150.10 0.03896
1150.20 0.03894
1150.30 0.03893
1150.40 0.03892
1150.50 0.0389
1150.60 0.03889
1150.70 0.03888
1150.80 0.03886
1150.90 0.03885
1151.00 0.03884
1151.10 0.03882
1151.20 0.03881
1151.30 0.0388
1151.40 0.03878
1151.50 0.03877
1151.60 0.03876
1151.70 0.03874
1151.80 0.03873
1151.90 0.03872
1152.00 0.0387
1152.10 0.03869
1152.20 0.03868
1152.30 0.03867
1152.40 0.03865
1152.50 0.03864
1152.60 0.03863
1152.70 0.03861
1152.80 0.0386
1152.90 0.03859
1153.00 0.03857
1153.10 0.03856
1153.20 0.03855
1153.30 0.03853
1153.40 0.03852
1153.50 0.03851
1153.60 0.0385
1153.70 0.03848
1153.80 0.03847
1153.90 0.03846
1154.00 0.03844
1154.10 0.03843
1154.20 0.03842
1154.30 0.0384
1154.40 0.03839
1154.50 0.03838
1154.60 0.03836
1154.70 0.03835
1154.80 0.03834
1154.90 0.03833
1155.00 0.03831
1155.10 0.0383
1155.20 0.03829
1155.30 0.03827
1155.40 0.03826
1155.50 0.03825
1155.60 0.03823
1155.70 0.03822
1155.80 0.03821
1155.90 0.0382
1156.00 0.03818
1156.10 0.03817
1156.20 0.03816
1156.30 0.03814
1156.40 0.03813
1156.50 0.03812
1156.60 0.03811
1156.70 0.03809
1156.80 0.03808
1156.90 0.03807
1157.00 0.03805
1157.10 0.03804
1157.20 0.03803
1157.30 0.03801
1157.40 0.038
1157.50 0.03799
1157.60 0.03798
1157.70 0.03796
1157.80 0.03795
1157.90 0.03794
1158.00 0.03792
1158.10 0.03791
1158.20 0.0379
1158.30 0.03789
1158.40 0.03787
1158.50 0.03786
1158.60 0.03785
1158.70 0.03784
1158.80 0.03782
1158.90 0.03781
1159.00 0.0378
1159.10 0.03778
1159.20 0.03777
1159.30 0.03776
1159.40 0.03775
1159.50 0.03773
1159.60 0.03772
1159.70 0.03771
1159.80 0.0377
1159.90 0.03768
1160.00 0.03767
1160.10 0.03766
1160.20 0.03764
1160.30 0.03763
1160.40 0.03762
1160.50 0.03761
1160.60 0.03759
1160.70 0.03758
1160.80 0.03757
1160.90 0.03756
1161.00 0.03754
1161.10 0.03753
1161.20 0.03752
1161.30 0.0375
1161.40 0.03749
1161.50 0.03748
1161.60 0.03747
1161.70 0.03745
1161.80 0.03744
1161.90 0.03743
1162.00 0.03742
1162.10 0.0374
1162.20 0.03739
1162.30 0.03738
1162.40 0.03737
1162.50 0.03735
1162.60 0.03734
1162.70 0.03733
1162.80 0.03732
1162.90 0.0373
1163.00 0.03729
1163.10 0.03728
1163.20 0.03726
1163.30 0.03725
1163.40 0.03724
1163.50 0.03723
1163.60 0.03721
1163.70 0.0372
1163.80 0.03719
1163.90 0.03718
1164.00 0.03716
1164.10 0.03715
1164.20 0.03714
1164.30 0.03713
1164.40 0.03711
1164.50 0.0371
1164.60 0.03709
1164.70 0.03708
1164.80 0.03706
1164.90 0.03705
1165.00 0.03704
1165.10 0.03703
1165.20 0.03701
1165.30 0.037
1165.40 0.03699
1165.50 0.03698
1165.60 0.03697
1165.70 0.03695
1165.80 0.03694
1165.90 0.03693
1166.00 0.03692
1166.10 0.0369
1166.20 0.03689
1166.30 0.03688
1166.40 0.03687
1166.50 0.03685
1166.60 0.03684
1166.70 0.03683
1166.80 0.03682
1166.90 0.0368
1167.00 0.03679
1167.10 0.03678
1167.20 0.03677
1167.30 0.03675
1167.40 0.03674
1167.50 0.03673
1167.60 0.03672
1167.70 0.03671
1167.80 0.03669
1167.90 0.03668
1168.00 0.03667
1168.10 0.03666
1168.20 0.03664
1168.30 0.03663
1168.40 0.03662
1168.50 0.03661
1168.60 0.03659
1168.70 0.03658
1168.80 0.03657
1168.90 0.03656
1169.00 0.03655
1169.10 0.03653
1169.20 0.03652
1169.30 0.03651
1169.40 0.0365
1169.50 0.03648
1169.60 0.03647
1169.70 0.03646
1169.80 0.03645
1169.90 0.03644
1170.00 0.03642
1170.10 0.03641
1170.20 0.0364
1170.30 0.03639
1170.40 0.03637
1170.50 0.03636
1170.60 0.03635
1170.70 0.03634
1170.80 0.03633
1170.90 0.03631
1171.00 0.0363
1171.10 0.03629
1171.20 0.03628
1171.30 0.03626
1171.40 0.03625
1171.50 0.03624
1171.60 0.03623
1171.70 0.03622
1171.80 0.0362
1171.90 0.03619
1172.00 0.03618
1172.10 0.03617
1172.20 0.03616
1172.30 0.03614
1172.40 0.03613
1172.50 0.03612
1172.60 0.03611
1172.70 0.0361
1172.80 0.03608
1172.90 0.03607
1173.00 0.03606
1173.10 0.03605
1173.20 0.03604
1173.30 0.03602
1173.40 0.03601
1173.50 0.036
1173.60 0.03599
1173.70 0.03598
1173.80 0.03596
1173.90 0.03595
1174.00 0.03594
1174.10 0.03593
1174.20 0.03592
1174.30 0.0359
1174.40 0.03589
1174.50 0.03588
1174.60 0.03587
1174.70 0.03586
1174.80 0.03584
1174.90 0.03583
1175.00 0.03582
1175.10 0.03581
1175.20 0.0358
1175.30 0.03578
1175.40 0.03577
1175.50 0.03576
1175.60 0.03575
1175.70 0.03574
1175.80 0.03572
1175.90 0.03571
1176.00 0.0357
1176.10 0.03569
1176.20 0.03568
1176.30 0.03566
1176.40 0.03565
1176.50 0.03564
1176.60 0.03563
1176.70 0.03562
1176.80 0.03561
1176.90 0.03559
1177.00 0.03558
1177.10 0.03557
1177.20 0.03556
1177.30 0.03555
1177.40 0.03553
1177.50 0.03552
1177.60 0.03551
1177.70 0.0355
1177.80 0.03549
1177.90 0.03548
1178.00 0.03546
1178.10 0.03545
1178.20 0.03544
1178.30 0.03543
1178.40 0.03542
1178.50 0.0354
1178.60 0.03539
1178.70 0.03538
1178.80 0.03537
1178.90 0.03536
1179.00 0.03535
1179.10 0.03533
1179.20 0.03532
1179.30 0.03531
1179.40 0.0353
1179.50 0.03529
1179.60 0.03528
1179.70 0.03526
1179.80 0.03525
1179.90 0.03524
1180.00 0.03523
1180.10 0.03522
1180.20 0.0352
1180.30 0.03519
1180.40 0.03518
1180.50 0.03517
1180.60 0.03516
1180.70 0.03515
1180.80 0.03513
1180.90 0.03512
1181.00 0.03511
1181.10 0.0351
1181.20 0.03509
1181.30 0.03508
1181.40 0.03506
1181.50 0.03505
1181.60 0.03504
1181.70 0.03503
1181.80 0.03502
1181.90 0.03501
1182.00 0.03499
1182.10 0.03498
1182.20 0.03497
1182.30 0.03496
1182.40 0.03495
1182.50 0.03494
1182.60 0.03493
1182.70 0.03491
1182.80 0.0349
1182.90 0.03489
1183.00 0.03488
1183.10 0.03487
1183.20 0.03486
1183.30 0.03484
1183.40 0.03483
1183.50 0.03482
1183.60 0.03481
1183.70 0.0348
1183.80 0.03479
1183.90 0.03478
1184.00 0.03476
1184.10 0.03475
1184.20 0.03474
1184.30 0.03473
1184.40 0.03472
1184.50 0.03471
1184.60 0.0347
1184.70 0.03468
1184.80 0.03467
1184.90 0.03466
1185.00 0.03465
1185.10 0.03464
1185.20 0.03463
1185.30 0.03461
1185.40 0.0346
1185.50 0.03459
1185.60 0.03458
1185.70 0.03457
1185.80 0.03456
1185.90 0.03455
1186.00 0.03453
1186.10 0.03452
1186.20 0.03451
1186.30 0.0345
1186.40 0.03449
1186.50 0.03448
1186.60 0.03447
1186.70 0.03445
1186.80 0.03444
1186.90 0.03443
1187.00 0.03442
1187.10 0.03441
1187.20 0.0344
1187.30 0.03439
1187.40 0.03438
1187.50 0.03436
1187.60 0.03435
1187.70 0.03434
1187.80 0.03433
1187.90 0.03432
1188.00 0.03431
1188.10 0.0343
1188.20 0.03428
1188.30 0.03427
1188.40 0.03426
1188.50 0.03425
1188.60 0.03424
1188.70 0.03423
1188.80 0.03422
1188.90 0.03421
1189.00 0.03419
1189.10 0.03418
1189.20 0.03417
1189.30 0.03416
1189.40 0.03415
1189.50 0.03414
1189.60 0.03413
1189.70 0.03412
1189.80 0.0341
1189.90 0.03409
1190.00 0.03408
1190.10 0.03407
1190.20 0.03406
1190.30 0.03405
1190.40 0.03404
1190.50 0.03403
1190.60 0.03401
1190.70 0.034
1190.80 0.03399
1190.90 0.03398
1191.00 0.03397
1191.10 0.03396
1191.20 0.03395
1191.30 0.03394
1191.40 0.03393
1191.50 0.03391
1191.60 0.0339
1191.70 0.03389
1191.80 0.03388
1191.90 0.03387
1192.00 0.03386
1192.10 0.03385
1192.20 0.03384
1192.30 0.03382
1192.40 0.03381
1192.50 0.0338
1192.60 0.03379
1192.70 0.03378
1192.80 0.03377
1192.90 0.03376
1193.00 0.03375
1193.10 0.03374
1193.20 0.03372
1193.30 0.03371
1193.40 0.0337
1193.50 0.03369
1193.60 0.03368
1193.70 0.03367
1193.80 0.03366
1193.90 0.03365
1194.00 0.03364
1194.10 0.03363
1194.20 0.03361
1194.30 0.0336
1194.40 0.03359
1194.50 0.03358
1194.60 0.03357
1194.70 0.03356
1194.80 0.03355
1194.90 0.03354
1195.00 0.03353
1195.10 0.03352
1195.20 0.0335
1195.30 0.03349
1195.40 0.03348
1195.50 0.03347
1195.60 0.03346
1195.70 0.03345
1195.80 0.03344
1195.90 0.03343
1196.00 0.03342
1196.10 0.03341
1196.20 0.03339
1196.30 0.03338
1196.40 0.03337
1196.50 0.03336
1196.60 0.03335
1196.70 0.03334
1196.80 0.03333
1196.90 0.03332
1197.00 0.03331
1197.10 0.0333
1197.20 0.03329
1197.30 0.03327
1197.40 0.03326
1197.50 0.03325
1197.60 0.03324
1197.70 0.03323
1197.80 0.03322
1197.90 0.03321
1198.00 0.0332
1198.10 0.03319
1198.20 0.03318
1198.30 0.03317
1198.40 0.03315
1198.50 0.03314
1198.60 0.03313
1198.70 0.03312
1198.80 0.03311
1198.90 0.0331
1199.00 0.03309
1199.10 0.03308
1199.20 0.03307
1199.30 0.03306
1199.40 0.03305
1199.50 0.03304
1199.60 0.03303
1199.70 0.03301
1199.80 0.033
1199.90 0.03299
1200.00 0
